SeqNum,AccX,AccY,AccZ,GyroX,GyroY,GyroZ,Flex,Force1,Force2,Force3,Force4,TimestampReception
2529,-0.9902,-0.2011,-0.1674,2.030,-5.740,4.060,393,410,384,411,404,2025-05-23T22:01:24.203722
2530,-0.3601,1.0282,0.1386,-0.490,23.590,10.640,479,459,306,417,402,2025-05-23T22:01:24.203807
2531,-0.3982,1.0165,0.1298,-1.960,20.370,7.700,423,353,332,423,393,2025-05-23T22:01:24.203827
2532,-0.4168,1.0009,0.1279,-4.760,12.600,6.930,428,360,348,380,381,2025-05-23T22:01:24.203848
2533,-0.4128,0.9872,0.1293,-12.880,4.410,7.840,433,383,370,408,388,2025-05-23T22:01:24.203858
2534,-0.4021,0.9653,0.1254,-19.110,1.120,11.200,375,421,379,386,402,2025-05-23T22:01:24.203869
2535,-0.3924,0.9443,0.1152,-18.620,5.600,13.580,403,393,382,358,368,2025-05-23T22:01:24.203879
2536,-0.3758,0.9321,0.1000,-13.580,11.970,16.450,349,384,382,351,370,2025-05-23T22:01:24.203889
2537,-0.3621,0.9277,0.0815,-8.750,14.910,19.110,399,392,388,294,396,2025-05-23T22:01:24.203898
2538,-0.3440,0.9248,0.0659,-6.510,13.860,21.490,376,426,387,364,395,2025-05-23T22:01:24.203907
2539,-0.3216,0.9301,0.0464,-5.320,13.300,22.750,396,380,362,395,400,2025-05-23T22:01:24.203920
2540,-0.3079,0.9282,0.0293,-3.990,14.490,23.030,421,390,330,405,410,2025-05-23T22:01:24.203929
2541,-0.2967,0.9296,0.0161,-3.360,17.430,22.190,405,402,312,399,352,2025-05-23T22:01:24.203938
2542,-0.2835,0.9272,0.0088,-5.040,18.970,21.000,420,421,346,412,379,2025-05-23T22:01:24.203946
2543,-0.2796,0.9257,0.0073,-7.700,18.900,19.180,417,418,370,398,378,2025-05-23T22:01:24.203954
2544,-0.2772,0.9165,0.0063,-8.960,18.620,16.800,421,345,374,375,392,2025-05-23T22:01:24.203998
2545,-0.2767,0.9150,0.0151,-8.680,19.180,13.510,359,323,382,403,408,2025-05-23T22:01:24.204007
2546,-0.2713,0.9174,0.0195,-7.700,20.650,11.410,418,400,392,411,400,2025-05-23T22:01:24.204019
2547,-0.2786,0.9204,0.0190,-6.720,22.470,8.680,387,397,346,422,395,2025-05-23T22:01:24.253449
2548,-0.2899,0.9199,0.0205,-5.530,22.470,6.090,415,418,323,408,365,2025-05-23T22:01:24.253501
2549,-0.3040,0.9189,0.0205,-3.990,20.300,3.990,418,398,315,412,384,2025-05-23T22:01:24.253513
2550,-0.3099,0.9179,0.0195,-3.640,17.430,2.240,359,386,343,404,308,2025-05-23T22:01:24.253523
2551,-0.3231,0.9126,0.0215,-3.850,16.520,0.840,409,412,335,392,372,2025-05-23T22:01:24.253533
2552,-0.3436,0.9077,0.0288,-4.340,17.010,0.140,303,423,344,373,376,2025-05-23T22:01:24.358690
2553,-0.3567,0.9052,0.0332,-3.710,16.870,-0.070,381,408,354,406,305,2025-05-23T22:01:24.358762
2554,-0.3606,0.9077,0.0337,-3.360,15.330,0.070,334,356,337,396,354,2025-05-23T22:01:24.358775
2555,-0.3626,0.9087,0.0327,-3.500,13.580,0.560,394,387,351,388,390,2025-05-23T22:01:24.358786
2556,-0.3621,0.9194,0.0312,-2.310,12.670,0.560,411,403,359,392,306,2025-05-23T22:01:24.564298
2557,-0.3572,0.9277,0.0264,0.000,12.110,0.630,410,425,367,402,376,2025-05-23T22:01:24.564349
2558,-0.3484,0.9379,0.0190,2.170,11.620,0.140,398,405,369,408,382,2025-05-23T22:01:24.564362
2559,-0.3494,0.9482,0.0181,2.800,10.430,-1.120,396,349,363,412,342,2025-05-23T22:01:24.564373
2560,-0.3455,0.9521,0.0161,4.130,9.170,-1.540,348,402,379,410,380,2025-05-23T22:01:24.564401
2561,-0.3528,0.9482,0.0156,4.270,8.540,-1.890,362,430,387,417,398,2025-05-23T22:01:24.564412
2562,-0.3587,0.9511,0.0171,3.780,7.840,-1.820,335,400,391,419,398,2025-05-23T22:01:24.564424
2563,-0.3523,0.9531,0.0205,2.730,5.670,-1.890,353,414,391,350,392,2025-05-23T22:01:24.564437
2564,-0.3436,0.9506,0.0200,2.240,3.570,-1.680,387,394,384,375,400,2025-05-23T22:01:24.564447
2565,-0.3436,0.9448,0.0224,1.960,3.430,-1.470,416,357,341,402,400,2025-05-23T22:01:24.564458
2566,-0.3333,0.9501,0.0181,2.800,4.200,-0.910,375,402,326,307,381,2025-05-23T22:01:24.564468
2567,-0.3304,0.9536,0.0151,5.250,4.970,-0.350,402,423,348,366,397,2025-05-23T22:01:24.564482
2568,-0.3279,0.9623,0.0078,5.880,3.850,-0.630,402,427,360,355,393,2025-05-23T22:01:24.564493
2569,-0.3235,0.9672,0.0073,6.510,2.590,-0.630,411,433,358,397,382,2025-05-23T22:01:24.564504
2570,-0.3231,0.9701,0.0029,5.530,0.840,-0.560,396,387,365,387,383,2025-05-23T22:01:24.564514
2571,-0.3401,0.9731,0.0034,4.480,0.280,-0.980,405,409,371,407,399,2025-05-23T22:01:24.564566
2572,-0.3499,0.9745,0.0049,4.060,-1.120,-0.560,416,409,376,409,389,2025-05-23T22:01:24.564576
2573,-0.3606,0.9745,0.0083,3.780,-2.380,-0.070,388,412,373,407,384,2025-05-23T22:01:24.564586
2574,-0.3699,0.9755,0.0122,3.080,-3.430,0.490,415,427,379,416,347,2025-05-23T22:01:24.564597
2575,-0.3816,0.9750,0.0171,3.850,-3.150,1.750,415,408,389,398,380,2025-05-23T22:01:24.564617
2576,-0.3875,0.9731,0.0234,4.690,-3.640,3.150,306,417,372,401,398,2025-05-23T22:01:24.564627
2577,-0.3802,0.9653,0.0317,5.110,-4.550,4.410,400,439,360,414,397,2025-05-23T22:01:24.884572
2578,-0.3709,0.9633,0.0342,4.480,-6.510,5.250,408,416,332,423,399,2025-05-23T22:01:24.884610
2579,-0.3597,0.9575,0.0351,4.830,-7.000,6.020,390,412,318,363,382,2025-05-23T22:01:24.884620
2580,-0.3548,0.9531,0.0381,5.250,-7.000,6.370,400,357,339,379,406,2025-05-23T22:01:24.884628
2581,-0.3455,0.9526,0.0420,5.320,-8.190,6.720,344,401,353,392,407,2025-05-23T22:01:24.884636
2582,-0.3323,0.9550,0.0429,4.130,-9.590,6.510,410,434,362,415,407,2025-05-23T22:01:24.884660
2583,-0.3304,0.9536,0.0464,2.940,-10.500,6.300,341,399,376,418,415,2025-05-23T22:01:24.884667
2584,-0.3260,0.9531,0.0488,3.780,-10.150,5.600,410,421,383,419,399,2025-05-23T22:01:24.884675
2585,-0.3260,0.9511,0.0459,4.690,-10.010,4.830,422,404,353,418,412,2025-05-23T22:01:24.884683
2586,-0.3270,0.9555,0.0464,4.550,-10.920,4.270,430,404,361,412,418,2025-05-23T22:01:24.884691
2587,-0.3231,0.9575,0.0522,3.710,-12.670,4.200,432,420,348,412,406,2025-05-23T22:01:24.884699
2588,-0.3284,0.9589,0.0600,3.430,-13.300,4.270,353,354,331,394,410,2025-05-23T22:01:24.884706
2589,-0.3392,0.9555,0.0678,3.010,-13.300,4.270,398,397,353,398,413,2025-05-23T22:01:24.884716
2590,-0.3396,0.9579,0.0673,2.940,-14.210,4.830,341,386,375,405,392,2025-05-23T22:01:24.884723
2591,-0.3318,0.9648,0.0688,2.660,-15.610,5.600,374,426,348,406,398,2025-05-23T22:01:24.884730
2592,-0.3279,0.9662,0.0654,2.380,-15.470,6.580,383,427,366,408,399,2025-05-23T22:01:24.884767
2593,-0.3216,0.9750,0.0673,2.450,-14.210,7.280,395,414,373,397,400,2025-05-23T22:01:24.884774
2594,-0.3255,0.9784,0.0722,3.010,-13.440,8.050,378,302,376,350,406,2025-05-23T22:01:24.884782
2595,-0.3353,0.9843,0.0815,2.870,-14.700,9.030,353,370,383,395,415,2025-05-23T22:01:24.884789
2596,-0.3348,0.9902,0.0825,1.330,-17.920,10.220,386,386,379,402,414,2025-05-23T22:01:24.884798
2597,-0.3240,0.9916,0.0776,0.420,-20.230,11.410,342,416,351,410,361,2025-05-23T22:01:24.884804
2598,-0.3133,0.9882,0.0737,0.420,-20.020,12.460,389,426,366,402,399,2025-05-23T22:01:24.931673
2599,-0.3138,0.9853,0.0737,0.840,-17.920,13.510,407,414,376,369,381,2025-05-23T22:01:24.931720
2600,-0.3182,0.9848,0.0703,1.050,-16.380,14.630,429,412,340,403,378,2025-05-23T22:01:24.931732
2601,-0.3182,0.9975,0.0664,0.560,-17.920,15.890,406,432,364,417,394,2025-05-23T22:01:24.931742
2602,-0.3104,1.0185,0.0561,-0.910,-19.530,17.430,398,424,371,409,396,2025-05-23T22:01:24.931751
2603,-0.3265,1.0253,0.0512,-1.890,-17.640,19.250,420,371,381,413,398,2025-05-23T22:01:24.931775
2604,-0.3314,1.0370,0.0503,-2.870,-14.630,22.820,413,404,353,404,385,2025-05-23T22:01:24.931789
2605,-0.3431,1.0341,0.0537,-4.480,-13.370,26.880,419,417,368,415,401,2025-05-23T22:01:24.931798
2606,-0.3362,1.0316,0.0678,-7.910,-15.960,30.870,417,397,378,403,387,2025-05-23T22:01:24.931808
2607,-0.3065,1.0311,0.0717,-11.760,-21.070,34.720,397,411,386,394,396,2025-05-23T22:01:24.931817
2608,-0.2660,1.0228,0.0732,-13.440,-23.450,37.660,404,403,386,410,366,2025-05-23T22:01:24.931827
2609,-0.2206,1.0258,0.0776,-13.020,-22.400,40.530,417,391,343,393,370,2025-05-23T22:01:25.023968
2610,-0.1869,1.0209,0.0786,-10.710,-17.640,42.700,429,392,373,385,397,2025-05-23T22:01:25.024022
2611,-0.1771,1.0111,0.0771,-9.730,-13.790,42.980,412,401,380,363,397,2025-05-23T22:01:25.024033
2612,-0.1645,0.9960,0.0825,-9.100,-12.110,42.910,411,341,385,382,407,2025-05-23T22:01:25.024042
2613,-0.1625,0.9862,0.0961,-9.100,-14.140,41.720,389,329,388,346,366,2025-05-23T22:01:25.024051
2614,-0.1581,0.9736,0.1039,-11.270,-18.830,39.830,370,373,378,368,347,2025-05-23T22:01:25.024059
2615,-0.1357,0.9623,0.1127,-14.140,-23.100,38.010,391,383,340,388,336,2025-05-23T22:01:25.025062
2616,-0.1186,0.9360,0.1132,-15.610,-24.990,35.560,412,372,359,388,381,2025-05-23T22:01:25.277450
2617,-0.1157,0.9184,0.1157,-14.070,-23.380,31.430,405,386,363,405,378,2025-05-23T22:01:25.277498
2618,-0.1215,0.9145,0.1225,-10.640,-20.650,27.230,395,390,365,405,390,2025-05-23T22:01:25.277529
2619,-0.1259,0.9165,0.1298,-7.490,-19.320,24.990,377,422,381,414,352,2025-05-23T22:01:25.277540
2620,-0.1371,0.9209,0.1308,-7.070,-19.530,22.050,413,396,390,420,336,2025-05-23T22:01:25.277550
2621,-0.1376,0.9194,0.1269,-6.160,-20.160,19.670,425,412,352,402,331,2025-05-23T22:01:25.277559
2622,-0.1342,0.9174,0.1235,-5.110,-19.460,17.360,410,403,362,392,374,2025-05-23T22:01:25.277572
2623,-0.1532,0.9160,0.1313,-4.690,-17.780,14.560,428,396,338,404,384,2025-05-23T22:01:25.277581
2624,-0.1493,0.9213,0.1303,-4.900,-17.360,13.720,413,408,331,410,401,2025-05-23T22:01:25.277594
2625,-0.1410,0.9257,0.1327,-6.090,-18.550,12.180,390,424,320,408,399,2025-05-23T22:01:25.277603
2626,-0.1352,0.9252,0.1342,-6.300,-19.390,10.500,409,426,352,407,393,2025-05-23T22:01:25.277611
2627,-0.1279,0.9301,0.1386,-5.110,-18.270,9.240,400,381,360,370,401,2025-05-23T22:01:25.277620
2628,-0.1283,0.9296,0.1503,-4.410,-17.080,8.260,420,396,379,390,399,2025-05-23T22:01:25.277628
2629,-0.1342,0.9311,0.1571,-4.480,-17.430,7.490,392,404,350,408,354,2025-05-23T22:01:25.277637
2630,-0.1269,0.9370,0.1640,-3.920,-20.510,7.980,354,365,376,399,367,2025-05-23T22:01:25.277853
2631,-0.1088,0.9516,0.1684,-3.430,-23.170,7.560,403,402,388,308,375,2025-05-23T22:01:25.277867
2632,-0.0766,0.9614,0.1669,-3.080,-23.170,7.420,394,399,389,369,388,2025-05-23T22:01:25.277876
2633,-0.0605,0.9658,0.1649,-1.750,-20.160,6.020,392,401,373,402,400,2025-05-23T22:01:25.429671
2634,-0.0625,0.9745,0.1718,-0.140,-16.660,4.270,341,395,381,414,402,2025-05-23T22:01:25.429720
2635,-0.0761,0.9780,0.1825,0.630,-15.120,3.710,395,389,340,416,356,2025-05-23T22:01:25.429750
2636,-0.0752,0.9780,0.1879,-0.490,-16.870,4.340,415,414,334,373,371,2025-05-23T22:01:25.429761
2637,-0.0737,0.9853,0.1923,-2.660,-20.300,4.760,401,408,329,382,396,2025-05-23T22:01:25.429772
2638,-0.0664,0.9877,0.1928,-2.870,-21.770,4.970,388,402,334,410,350,2025-05-23T22:01:25.429788
2639,-0.0532,0.9921,0.1825,-0.140,-21.630,4.830,369,422,328,405,367,2025-05-23T22:01:25.429798
2640,-0.0610,1.1219,0.1810,1.540,-20.020,4.620,401,393,356,367,381,2025-05-23T22:01:25.429809
2641,-0.0913,1.0043,0.1801,2.800,-20.160,4.060,405,341,325,334,396,2025-05-23T22:01:25.429818
2642,-0.1152,1.0136,0.1757,3.220,-21.980,5.110,403,380,283,378,391,2025-05-23T22:01:25.429827
2643,-0.1469,1.0287,0.1669,3.150,-23.660,7.490,385,386,342,407,351,2025-05-23T22:01:25.429836
2644,-0.1615,1.0331,0.1547,1.680,-24.220,11.410,386,345,334,396,390,2025-05-23T22:01:25.429845
2645,-0.1420,1.0341,0.1469,-0.140,-25.410,14.910,341,408,363,392,354,2025-05-23T22:01:25.429857
2646,-0.1137,1.0360,0.1396,-1.890,-24.990,18.830,388,431,370,396,381,2025-05-23T22:01:25.429866
2647,-0.0590,1.0424,0.1376,-3.290,-22.190,21.630,391,406,387,387,384,2025-05-23T22:01:25.429907
2648,-0.0068,1.0326,0.1391,-3.780,-16.660,22.050,345,413,378,393,397,2025-05-23T22:01:25.429917
2649,0.0376,1.0219,0.1444,-3.220,-12.040,22.190,411,424,370,387,380,2025-05-23T22:01:25.429927
2650,0.0649,1.0185,0.1571,-2.030,-5.390,21.560,420,430,348,409,381,2025-05-23T22:01:25.476669
2651,0.0547,1.0136,0.1635,-2.730,0.000,21.070,420,354,335,398,400,2025-05-23T22:01:25.476714
2652,0.0444,1.0009,0.1708,-4.060,1.680,19.740,365,403,318,414,372,2025-05-23T22:01:25.476740
2653,0.0283,0.9867,0.1767,-5.880,-2.590,17.080,348,424,354,418,386,2025-05-23T22:01:25.476750
2654,0.0337,0.9701,0.1762,-6.790,-9.030,14.070,338,406,370,377,399,2025-05-23T22:01:25.576226
2655,0.0268,0.9658,0.1752,-6.860,-13.440,12.950,390,306,379,391,405,2025-05-23T22:01:25.576269
2656,0.0332,0.9662,0.1713,-6.160,-12.600,11.970,391,394,380,345,387,2025-05-23T22:01:25.576280
2657,0.0415,0.9584,0.1625,-4.200,-7.210,11.130,394,344,390,400,409,2025-05-23T22:01:25.576290
2658,0.0268,0.9536,0.1620,-1.820,-2.520,9.520,386,386,392,377,405,2025-05-23T22:01:25.780917
2659,-0.0078,0.9555,0.1698,17.640,-1.680,8.330,412,373,385,400,365,2025-05-23T22:01:25.780960
2660,-0.0146,0.9565,0.1620,0.490,-3.920,8.120,341,392,386,409,378,2025-05-23T22:01:25.780989
2661,-0.0068,0.9565,0.1566,-0.700,-6.720,7.910,378,419,374,401,342,2025-05-23T22:01:25.780999
2662,-0.0083,0.9575,0.1454,-1.400,-5.320,6.580,393,395,382,351,362,2025-05-23T22:01:25.781009
2663,-0.0010,0.9531,0.1391,-0.840,-0.770,5.250,384,389,370,389,393,2025-05-23T22:01:25.781018
2664,-0.0107,0.9545,0.1405,1.050,3.640,3.920,406,431,377,393,408,2025-05-23T22:01:25.781028
2665,-0.0171,0.9653,0.1420,1.960,4.200,2.940,358,357,379,409,395,2025-05-23T22:01:25.781038
2666,-0.0327,0.9721,0.1508,0.560,2.310,1.610,402,356,349,395,396,2025-05-23T22:01:25.781047
2667,-0.0342,0.9726,0.1562,-0.630,-0.980,1.190,424,367,364,347,399,2025-05-23T22:01:25.781060
2668,-0.0420,0.9731,0.1581,-0.910,-2.520,0.350,432,349,363,373,405,2025-05-23T22:01:25.781070
2669,-0.0327,0.9814,0.1596,-0.420,-2.450,0.140,426,411,373,338,388,2025-05-23T22:01:25.781082
2670,-0.0420,0.9882,0.1659,0.910,-1.050,0.280,424,408,381,378,353,2025-05-23T22:01:25.781091
2671,-0.0478,0.9950,0.1825,0.980,-1.260,1.120,425,425,380,405,372,2025-05-23T22:01:25.781102
2672,-0.0405,1.0063,0.1820,0.490,-2.800,1.750,385,410,382,388,377,2025-05-23T22:01:25.781111
2673,-0.0239,1.0067,0.1864,-0.840,-4.060,2.520,392,354,387,386,384,2025-05-23T22:01:25.781150
2674,-0.0185,1.0009,0.1889,-1.260,-4.130,2.240,300,404,375,343,381,2025-05-23T22:01:25.781163
2675,-0.0142,1.0058,0.1889,-0.980,-3.780,1.610,381,425,382,394,395,2025-05-23T22:01:25.781172
2676,-0.0137,1.0072,0.1889,-1.190,-4.060,1.260,391,415,384,400,354,2025-05-23T22:01:25.781181
2677,-0.0405,1.0199,0.1908,-3.150,-7.420,1.680,408,410,340,404,377,2025-05-23T22:01:25.781189
2678,-0.0273,1.0238,0.1947,-5.740,-10.710,3.780,416,355,360,409,385,2025-05-23T22:01:25.781199
2679,-0.0098,1.0307,0.1932,-7.490,-14.630,6.160,392,293,357,412,385,2025-05-23T22:01:25.827157
2680,0.0415,1.0551,0.2011,-6.510,-14.490,7.560,408,339,371,412,393,2025-05-23T22:01:25.827204
2681,0.0786,1.0634,0.2054,-6.300,-12.600,10.430,419,393,379,390,395,2025-05-23T22:01:25.827230
2682,0.0551,1.0819,0.2123,-3.780,-19.600,16.520,397,419,383,397,392,2025-05-23T22:01:25.827239
2683,0.0903,1.1312,0.2225,-9.240,-40.950,22.120,345,424,372,404,404,2025-05-23T22:01:25.827249
2684,0.1767,1.1488,0.2045,-26.110,-75.880,22.610,386,420,379,410,372,2025-05-23T22:01:26.047545
2685,0.2435,1.1556,0.2250,-39.270,-96.320,20.090,394,407,341,387,392,2025-05-23T22:01:26.047608
2686,0.3011,1.2000,0.3089,-47.670,-114.800,14.490,387,399,368,414,346,2025-05-23T22:01:26.047622
2687,0.4709,1.2176,0.3621,-57.050,-120.400,12.950,393,340,380,372,379,2025-05-23T22:01:26.047634
2688,0.5944,1.2571,0.4821,-60.340,-124.670,14.350,413,401,375,384,398,2025-05-23T22:01:26.047661
2689,0.7691,1.3435,0.6022,-72.590,-135.730,16.380,424,407,365,402,416,2025-05-23T22:01:26.047672
2690,0.8481,1.4381,0.6598,-74.340,-160.230,14.070,400,431,375,400,412,2025-05-23T22:01:26.047687
2691,1.0653,1.4869,0.4690,-79.520,-189.630,9.100,394,369,367,403,404,2025-05-23T22:01:26.047697
2692,1.4142,1.5474,0.1796,-79.590,-222.320,7.980,366,421,373,406,406,2025-05-23T22:01:26.047711
2693,1.7539,1.7373,-0.0132,-88.760,-262.290,10.710,413,429,370,355,404,2025-05-23T22:01:26.047721
2694,2.2375,1.9359,-0.3348,-122.990,-311.990,14.350,371,416,347,328,388,2025-05-23T22:01:26.047732
2695,2.6928,2.2458,-0.3255,-204.540,-365.190,13.650,363,408,360,388,347,2025-05-23T22:01:26.047742
2696,3.1130,2.3790,-0.5592,-359.940,-482.510,4.690,410,381,366,346,390,2025-05-23T22:01:26.047756
2697,3.4760,2.0145,-1.1043,-466.620,-570.640,-31.080,414,426,372,393,391,2025-05-23T22:01:26.047766
2698,3.5014,1.5626,-1.5133,-542.780,-582.960,-83.720,392,439,337,404,348,2025-05-23T22:01:26.047810
2699,3.0554,1.0599,-1.6114,-521.500,-529.270,-121.030,406,413,344,397,326,2025-05-23T22:01:26.047818
2700,2.8231,0.6207,-1.3127,-506.170,-457.520,-136.220,418,424,339,392,373,2025-05-23T22:01:26.047826
2701,2.4522,0.2137,-1.1370,-538.020,-389.270,-144.200,420,400,319,384,400,2025-05-23T22:01:26.248835
2702,1.9056,-0.5309,-1.1361,-596.190,-304.080,-168.420,411,390,357,343,401,2025-05-23T22:01:26.248893
2703,2.2341,-1.3888,-0.7008,-708.890,-183.610,-269.710,400,424,339,385,395,2025-05-23T22:01:26.248908
2704,0.6432,-3.4960,-0.4470,-855.120,-47.600,-333.830,413,426,356,408,404,2025-05-23T22:01:26.248921
2705,-1.0053,-6.3708,0.3440,-921.410,26.040,-463.470,403,347,368,416,371,2025-05-23T22:01:26.248934
2706,-1.6206,-8.8147,1.4606,-992.530,47.600,-632.450,410,405,369,404,401,2025-05-23T22:01:26.248945
2707,-2.8880,-8.6195,2.9773,-973.280,-44.030,-645.400,415,398,371,386,387,2025-05-23T22:01:26.248956
2708,-3.3301,-5.6364,3.7830,-720.720,-93.590,-531.160,348,426,380,408,404,2025-05-23T22:01:26.248967
2709,-3.4458,-2.3165,3.5873,-430.640,82.040,-307.580,363,401,337,407,387,2025-05-23T22:01:26.248998
2710,-3.1237,-1.8071,1.0072,35.840,162.890,-71.680,391,419,362,399,396,2025-05-23T22:01:26.249010
2711,-0.6539,-1.1214,0.5061,244.440,360.570,266.840,343,408,300,391,391,2025-05-23T22:01:26.249020
2712,0.1069,-1.9418,0.2401,336.000,192.150,417.340,384,384,351,345,384,2025-05-23T22:01:26.249030
2713,-0.5617,-2.4058,0.6134,371.280,-74.550,388.990,364,422,375,376,391,2025-05-23T22:01:26.249043
2714,-0.3748,-2.0428,0.7481,606.270,-451.640,377.230,408,404,370,399,403,2025-05-23T22:01:26.249090
2715,0.6144,-2.0911,-0.0952,746.970,-483.560,260.260,417,416,381,405,393,2025-05-23T22:01:26.249101
2716,1.3879,-1.9871,-0.0112,400.470,-101.710,147.140,389,398,375,409,397,2025-05-23T22:01:26.249110
2717,0.9355,-1.2825,0.4163,360.920,244.300,147.000,391,419,373,416,399,2025-05-23T22:01:26.249120
2718,0.3865,-1.2434,0.7535,346.360,402.500,153.650,419,417,369,417,388,2025-05-23T22:01:26.479536
2719,-0.1230,-0.8398,0.9082,346.780,498.960,182.700,421,415,367,348,393,2025-05-23T22:01:26.479595
2720,-0.4470,-0.4846,1.0136,390.110,527.100,205.100,412,420,300,393,410,2025-05-23T22:01:26.479635
2721,-0.5890,-0.3450,0.9760,341.040,412.440,187.530,421,400,296,388,397,2025-05-23T22:01:26.479649
2722,-0.5773,-0.3567,1.0067,216.020,329.770,161.490,389,388,268,362,395,2025-05-23T22:01:26.479661
2723,-0.1918,0.0512,0.6066,163.170,411.810,136.360,418,342,331,405,409,2025-05-23T22:01:26.479674
2724,0.2128,0.2172,0.6983,66.640,462.210,195.230,404,370,364,398,420,2025-05-23T22:01:26.479686
2725,0.1030,0.6378,0.6549,220.850,473.410,243.180,302,336,363,382,416,2025-05-23T22:01:26.479698
2726,-0.1132,0.7369,0.6608,304.220,428.050,293.790,320,390,332,407,413,2025-05-23T22:01:26.479711
2727,0.0659,0.9331,0.5885,426.300,331.100,306.460,372,419,317,395,404,2025-05-23T22:01:26.479726
2728,-0.2147,1.1151,0.5226,347.130,263.760,349.160,416,437,348,403,390,2025-05-23T22:01:26.479738
2729,0.0473,1.0014,0.2884,326.970,232.120,297.780,411,427,366,394,405,2025-05-23T22:01:26.506323
2730,0.2298,1.3337,0.4314,281.680,263.340,275.870,393,428,336,352,412,2025-05-23T22:01:26.506364
2731,0.4060,1.4352,0.5163,211.750,278.880,287.700,384,382,364,377,385,2025-05-23T22:01:26.506378
2732,0.4573,1.4357,0.4900,159.810,279.930,291.060,405,416,328,338,404,2025-05-23T22:01:26.506446
2733,0.7139,1.3191,0.4285,143.710,253.750,271.320,431,410,368,380,410,2025-05-23T22:01:26.506456
2734,1.0160,1.0658,0.4641,150.010,202.650,245.000,415,343,357,389,357,2025-05-23T22:01:26.506467
2735,1.1546,1.1429,0.8574,125.090,129.220,215.180,422,390,367,389,395,2025-05-23T22:01:26.506476
2736,1.1873,1.2698,1.3552,50.960,41.090,200.550,392,423,376,404,407,2025-05-23T22:01:26.658355
2737,1.4738,1.1297,1.3230,-2.310,-9.380,186.760,387,399,367,417,397,2025-05-23T22:01:26.658397
2738,2.0467,1.0453,1.0087,-5.880,3.570,168.210,415,388,376,424,412,2025-05-23T22:01:26.658409
2739,2.1038,0.8511,0.6002,49.420,69.440,140.910,396,426,377,400,369,2025-05-23T22:01:26.658419
2740,2.0028,0.8120,0.2977,144.410,140.560,106.120,412,410,383,384,385,2025-05-23T22:01:26.658439
2741,1.4830,0.9784,0.4260,208.740,206.920,76.020,410,358,381,410,413,2025-05-23T22:01:26.658448
2742,0.9506,1.0507,0.6559,153.160,199.920,64.190,410,404,392,420,416,2025-05-23T22:01:26.658458
2743,0.6886,0.9618,0.5412,85.610,141.260,43.470,355,402,342,371,411,2025-05-23T22:01:26.658467
2744,0.7652,0.8389,0.3528,-51.240,-33.250,29.330,390,437,366,386,358,2025-05-23T22:01:26.658475
2745,0.9340,0.7657,0.3196,-109.200,-174.020,-3.500,423,428,344,398,382,2025-05-23T22:01:26.658483
2746,0.5710,0.8003,-0.0493,-46.620,-170.870,-44.520,390,424,336,389,397,2025-05-23T22:01:26.658493
2747,0.1498,0.9243,0.0791,7.070,-44.730,-32.480,412,400,362,351,395,2025-05-23T22:01:26.658502
2748,-0.1005,0.9589,0.2094,22.820,29.400,-10.430,407,394,365,399,406,2025-05-23T22:01:26.658510
2749,-0.0698,1.0307,0.1937,23.730,88.130,19.880,349,345,333,390,414,2025-05-23T22:01:26.658518
2750,0.1391,0.9267,0.2284,11.130,61.670,16.660,377,410,336,396,412,2025-05-23T22:01:26.658558
2751,0.2113,0.9384,0.1810,-27.160,-3.920,3.430,422,425,352,410,355,2025-05-23T22:01:26.658568
2752,0.2059,0.9223,0.1884,-35.000,-16.170,-3.360,425,419,361,410,339,2025-05-23T22:01:26.713134
2753,0.2011,0.9609,0.1679,-24.920,6.090,0.700,409,398,366,398,342,2025-05-23T22:01:26.713180
2754,0.2172,0.9609,0.2196,-2.800,25.060,5.110,391,411,360,369,363,2025-05-23T22:01:26.713194
2755,0.1991,0.9911,0.2855,5.600,15.680,8.610,406,394,329,377,384,2025-05-23T22:01:26.713204
2756,0.2557,0.9414,0.3094,0.490,-26.390,10.080,415,400,326,405,394,2025-05-23T22:01:26.863845
2757,0.2201,0.9140,0.3187,-13.090,-52.850,9.870,408,416,362,408,392,2025-05-23T22:01:26.863909
2758,0.3157,0.9218,0.2991,-13.790,-54.110,9.240,345,424,368,419,403,2025-05-23T22:01:26.863927
2759,0.3958,0.9262,0.2323,-4.410,-28.980,12.110,380,425,377,410,414,2025-05-23T22:01:26.863942
2760,0.4494,0.9316,0.1840,2.520,8.120,10.990,424,432,351,408,364,2025-05-23T22:01:26.863957
2761,0.4738,0.9121,0.1630,0.280,29.540,9.100,364,434,334,412,357,2025-05-23T22:01:26.863972
2762,0.3099,0.8891,0.1893,1.470,32.550,7.280,335,397,348,390,377,2025-05-23T22:01:26.863986
2763,0.2752,0.9121,0.2494,-0.700,8.330,3.780,374,417,362,411,387,2025-05-23T22:01:26.864001
2764,0.2650,0.9204,0.2728,-9.730,-15.190,-3.850,390,420,378,411,406,2025-05-23T22:01:26.864013
2765,0.2757,0.9243,0.2684,-17.010,-28.980,-5.740,342,376,371,398,406,2025-05-23T22:01:26.864026
2766,0.2723,0.9277,0.2547,-13.160,-17.920,-6.580,383,415,367,415,393,2025-05-23T22:01:26.864040
2767,0.2079,0.9243,0.2367,-0.910,9.660,-3.500,389,404,338,357,387,2025-05-23T22:01:26.864052
2768,0.2020,0.9438,0.2308,4.270,24.640,0.000,339,404,318,399,405,2025-05-23T22:01:26.864065
2769,0.2274,0.9662,0.2425,-0.420,24.710,4.340,388,408,352,412,400,2025-05-23T22:01:27.090669
2770,0.1786,0.9677,0.2352,-7.350,10.640,7.420,355,419,355,397,349,2025-05-23T22:01:27.090737
2771,0.1620,0.9643,0.2284,-2.590,-4.900,12.040,328,424,379,409,383,2025-05-23T22:01:27.090750
2772,0.2557,0.9701,0.2391,0.490,-15.050,12.250,403,423,381,398,400,2025-05-23T22:01:27.090761
2773,0.3084,0.9482,0.2547,1.470,-16.030,9.520,408,408,383,410,410,2025-05-23T22:01:27.090772
2774,0.3401,0.9311,0.2786,4.060,-6.160,7.490,368,421,384,415,408,2025-05-23T22:01:27.090783
2775,0.3323,0.9331,0.3006,6.370,1.890,6.790,344,411,374,372,416,2025-05-23T22:01:27.090793
2776,0.3240,0.9316,0.2894,5.390,6.020,5.600,383,346,380,355,356,2025-05-23T22:01:27.090804
2777,0.3221,0.9248,0.2635,1.540,2.240,3.640,353,417,382,404,393,2025-05-23T22:01:27.090819
2778,0.2991,0.9135,0.2484,-0.840,-4.130,1.750,399,345,370,416,370,2025-05-23T22:01:27.090832
2779,0.2899,0.9091,0.2401,-1.470,-7.840,1.260,414,361,362,366,395,2025-05-23T22:01:27.090842
2780,0.2908,0.9121,0.2591,-0.350,-8.960,0.420,416,400,345,382,361,2025-05-23T22:01:27.090852
2781,0.2640,0.9082,0.2791,0.000,-8.260,-2.520,392,362,360,360,348,2025-05-23T22:01:27.090861
2782,0.2528,0.9213,0.2972,1.400,-9.030,-4.970,403,395,373,392,328,2025-05-23T22:01:27.090871
2783,0.2699,0.9170,0.2894,0.140,-10.290,-5.670,422,403,372,393,359,2025-05-23T22:01:27.090880
2784,0.2865,0.9170,0.2772,-3.640,-10.150,-6.860,417,338,369,406,337,2025-05-23T22:01:27.090928
2785,0.3138,0.9204,0.2752,-5.040,-8.470,-9.380,417,393,383,411,360,2025-05-23T22:01:27.090939
2786,0.3440,0.9155,0.2791,-7.350,-9.100,-11.620,390,433,371,410,376,2025-05-23T22:01:27.091141
2787,0.3211,0.8872,0.2772,-7.700,-13.020,-13.580,374,412,382,404,394,2025-05-23T22:01:27.091153
2788,0.3401,0.8789,0.2869,-7.770,-20.790,-18.200,409,400,344,407,384,2025-05-23T22:01:27.138680
2789,0.4202,0.8926,0.2962,-10.010,-34.580,-24.150,422,356,325,394,392,2025-05-23T22:01:27.138732
2790,0.5309,0.8628,0.2469,-20.580,-44.590,-27.510,407,395,355,408,410,2025-05-23T22:01:27.138746
2791,0.7017,0.9736,0.3719,-35.910,-49.070,-32.690,408,361,358,416,406,2025-05-23T22:01:27.138757
2792,0.7379,1.0526,0.5266,-68.810,-59.990,-40.810,396,402,380,394,413,2025-05-23T22:01:27.188586
2793,0.8808,1.0531,0.7159,-102.480,-94.220,-44.590,407,420,338,309,391,2025-05-23T22:01:27.188650
2794,1.0658,1.0956,0.8852,-138.180,-154.210,-56.700,413,414,323,382,352,2025-05-23T22:01:27.188672
2795,1.1673,1.1244,0.8774,-166.810,-213.990,-81.200,400,414,362,342,378,2025-05-23T22:01:27.188687
2796,1.2620,1.1165,0.8164,-193.550,-251.510,-106.120,341,393,328,372,403,2025-05-23T22:01:27.273272
2797,1.2683,1.1673,0.7198,-221.690,-284.550,-118.930,387,417,357,386,394,2025-05-23T22:01:27.273322
2798,1.2151,1.2132,0.6105,-252.560,-298.130,-120.190,408,405,366,412,387,2025-05-23T22:01:27.273335
2799,1.1507,1.2307,0.5153,-292.950,-313.040,-121.380,408,412,344,399,383,2025-05-23T22:01:27.273347
2800,1.2088,1.2771,0.4255,-333.970,-329.560,-122.010,416,406,372,414,357,2025-05-23T22:01:27.273357
2801,1.2620,1.3571,0.4085,-374.710,-345.030,-127.540,403,384,378,417,382,2025-05-23T22:01:27.273368
2802,1.3532,1.4230,0.3006,-406.770,-342.930,-130.970,395,392,383,411,400,2025-05-23T22:01:27.273378
2803,1.4518,1.4601,0.1654,-418.810,-320.740,-125.370,388,421,380,401,347,2025-05-23T22:01:27.476766
2804,1.4952,1.4118,-0.1288,-406.630,-306.250,-107.730,382,421,379,403,381,2025-05-23T22:01:27.476813
2805,2.1350,1.4552,-0.3475,-368.340,-317.870,-115.920,396,372,383,395,396,2025-05-23T22:01:27.476827
2806,2.4273,1.5026,-0.6178,-312.480,-317.240,-135.730,404,402,382,310,409,2025-05-23T22:01:27.476841
2807,2.3302,1.6011,-0.8072,-278.670,-288.470,-174.790,390,424,388,338,396,2025-05-23T22:01:27.476852
2808,2.4166,1.5992,-1.1649,-319.620,-258.930,-182.980,353,411,372,351,399,2025-05-23T22:01:27.476862
2809,2.1984,1.1824,-1.4928,-403.830,-229.460,-211.400,401,403,377,329,408,2025-05-23T22:01:27.476872
2810,1.7202,0.2889,-1.7758,-471.240,-220.570,-236.600,403,406,377,361,357,2025-05-23T22:01:27.476883
2811,1.6192,-0.9721,-1.8461,-571.550,-208.670,-279.790,405,408,350,293,390,2025-05-23T22:01:27.476893
2812,1.0009,-2.6572,-1.6480,-647.710,-142.730,-371.980,404,424,371,366,396,2025-05-23T22:01:27.476903
2813,0.0766,-4.6297,-0.5876,-791.560,8.470,-467.530,415,428,365,336,362,2025-05-23T22:01:27.476912
2814,-2.8026,-7.7480,1.5162,-893.130,51.800,-619.500,425,404,378,388,395,2025-05-23T22:01:27.476921
2815,-3.5136,-7.4781,3.0920,-1026.060,-244.720,-759.990,414,417,370,387,383,2025-05-23T22:01:27.476931
2816,-0.8833,-5.1840,3.1720,-946.680,-675.010,-636.160,417,413,372,394,410,2025-05-23T22:01:27.476977
2817,0.1240,-3.6585,3.2457,-641.340,-247.030,-447.370,404,411,364,409,396,2025-05-23T22:01:27.476987
2818,-2.6903,-2.3790,1.3649,-13.440,71.330,-117.320,411,430,381,354,409,2025-05-23T22:01:27.476996
2819,-0.7510,-1.6753,0.5144,336.630,198.100,228.340,423,404,377,399,414,2025-05-23T22:01:27.477006
2820,0.5305,-1.6841,0.3143,310.100,462.770,441.490,416,422,310,407,393,2025-05-23T22:01:27.690170
2821,-0.3235,-2.4449,0.9819,354.760,243.530,444.780,417,408,353,387,379,2025-05-23T22:01:27.690230
2822,-0.2582,-2.3156,0.8345,726.810,-67.620,311.290,411,426,372,361,378,2025-05-23T22:01:27.690251
2823,1.1600,-1.7914,1.2805,660.170,-295.960,389.620,401,409,374,396,343,2025-05-23T22:01:27.690264
2824,1.1102,-1.5582,0.3972,530.600,-117.600,189.560,398,418,377,400,329,2025-05-23T22:01:27.690277
2825,1.3181,-1.3430,0.3787,490.700,314.580,130.130,397,418,390,389,368,2025-05-23T22:01:27.690290
2826,0.6778,-0.9038,0.6856,400.260,509.180,131.110,415,396,392,353,389,2025-05-23T22:01:27.690305
2827,-0.1771,-0.6227,0.9648,378.980,600.880,173.460,407,408,376,338,360,2025-05-23T22:01:27.690318
2828,-1.1502,-0.4475,1.1956,417.130,631.120,225.330,383,413,373,372,397,2025-05-23T22:01:27.690330
2829,-0.7925,-0.7501,1.2937,415.310,445.340,182.980,389,432,385,385,409,2025-05-23T22:01:27.690342
2830,0.0576,-0.7745,0.6666,133.560,144.830,87.290,383,405,386,416,416,2025-05-23T22:01:27.690354
2831,0.1313,-0.3655,0.8506,-73.920,227.150,96.110,393,395,369,413,394,2025-05-23T22:01:27.690365
2832,0.3475,-0.0634,0.6788,222.670,450.380,182.770,403,404,372,422,404,2025-05-23T22:01:27.690377
2833,0.0981,0.2957,0.5719,353.780,450.030,234.850,410,421,372,404,369,2025-05-23T22:01:27.690387
2834,0.0181,0.6661,0.5046,371.350,418.530,261.170,421,419,382,415,380,2025-05-23T22:01:27.690433
2835,0.2128,0.8642,0.4704,542.080,411.670,281.890,432,440,392,418,402,2025-05-23T22:01:27.690445
2836,0.1039,0.9950,0.4319,344.750,325.710,303.520,407,397,391,413,385,2025-05-23T22:01:27.690455
2837,0.4231,1.3264,0.5544,212.170,203.630,301.630,401,411,388,374,398,2025-05-23T22:01:27.690466
2838,0.4860,1.3849,0.3655,235.690,295.540,249.690,391,395,375,387,399,2025-05-23T22:01:27.739183
2839,0.1815,1.5357,0.6315,241.710,338.450,265.230,392,395,369,387,407,2025-05-23T22:01:27.739233
2840,0.0254,1.4269,0.7696,225.330,310.170,281.540,413,341,337,400,416,2025-05-23T22:01:27.739245
2841,0.4885,1.3288,0.6695,269.570,303.520,266.770,398,408,355,410,415,2025-05-23T22:01:27.739255
2842,0.7325,1.1922,0.6080,157.570,142.030,223.650,389,396,331,386,395,2025-05-23T22:01:27.887276
2843,0.8150,1.1819,0.3953,23.030,-15.120,193.900,402,401,363,340,408,2025-05-23T22:01:27.887330
2844,0.8081,1.1746,0.5461,32.900,66.780,172.130,425,426,381,376,398,2025-05-23T22:01:27.887345
2845,0.7993,1.0189,0.4255,72.590,158.830,184.520,406,418,373,378,393,2025-05-23T22:01:27.887357
2846,1.0448,1.0043,0.3948,88.480,178.780,185.080,418,426,341,399,403,2025-05-23T22:01:27.887370
2847,1.0673,0.9448,0.4158,97.510,183.190,162.610,416,428,334,361,408,2025-05-23T22:01:27.887381
2848,1.2434,0.8086,0.4982,83.790,135.660,165.900,422,427,360,403,392,2025-05-23T22:01:27.887392
2849,1.5548,0.7364,0.6876,55.300,33.320,130.340,395,424,347,388,404,2025-05-23T22:01:27.887402
2850,1.7480,0.7793,0.6622,54.110,2.660,85.470,402,355,348,408,396,2025-05-23T22:01:27.887413
2851,1.6529,0.8560,0.4656,91.630,85.610,66.850,378,403,366,367,402,2025-05-23T22:01:27.887425
2852,1.3591,0.8106,0.4309,84.560,111.720,43.610,386,406,339,397,390,2025-05-23T22:01:27.887435
2853,1.1019,0.8564,0.4148,56.840,102.550,28.280,400,420,371,388,387,2025-05-23T22:01:27.887445
2854,0.5363,0.8540,0.5705,11.060,45.570,9.590,422,422,382,404,389,2025-05-23T22:01:28.092261
2855,0.3079,0.9048,0.4875,-4.550,-22.190,-1.540,399,426,378,370,397,2025-05-23T22:01:28.092293
2856,0.3592,0.9902,0.4260,-11.200,-40.530,-10.010,391,416,340,340,388,2025-05-23T22:01:28.092301
2857,0.2733,1.0048,0.2406,-12.460,-12.880,-14.000,419,408,329,390,402,2025-05-23T22:01:28.092308
2858,0.1127,1.0302,0.1215,10.920,35.770,0.770,352,425,361,345,403,2025-05-23T22:01:28.092407
2859,0.0283,1.0429,0.1362,21.280,66.360,10.710,401,429,362,390,412,2025-05-23T22:01:28.092452
2860,0.0044,1.0438,0.1928,25.270,69.790,25.270,420,413,373,409,390,2025-05-23T22:01:28.092460
2861,0.2274,0.9780,0.2450,-2.660,8.960,19.950,422,378,371,402,405,2025-05-23T22:01:28.092467
2862,0.3909,0.8764,0.2011,-27.790,-35.560,5.740,395,421,370,395,400,2025-05-23T22:01:28.092472
2863,0.4046,0.8125,0.2259,-33.390,-45.920,-7.420,344,416,381,410,399,2025-05-23T22:01:28.092479
2864,0.4270,0.7993,0.2181,-26.320,-24.010,-9.170,327,408,343,412,413,2025-05-23T22:01:28.092484
2865,0.3845,0.8252,0.3187,-11.970,-1.470,-9.240,392,369,360,362,395,2025-05-23T22:01:28.092489
2866,0.3592,0.8584,0.3367,-6.930,1.680,-11.410,336,418,374,393,398,2025-05-23T22:01:28.092494
2867,0.2879,0.9140,0.3323,-0.350,-5.110,-12.880,370,409,379,341,394,2025-05-23T22:01:28.092499
2868,0.2147,0.9492,0.2850,0.070,-5.950,-11.690,391,413,335,367,405,2025-05-23T22:01:28.092534
2869,0.1859,0.9833,0.2801,5.250,-2.170,-9.660,409,415,359,387,402,2025-05-23T22:01:28.092540
2870,0.2186,0.9672,0.2782,2.520,2.380,-6.020,408,429,375,400,403,2025-05-23T22:01:28.092619
2871,0.2513,0.9550,0.2845,1.890,5.740,-5.040,401,411,381,401,406,2025-05-23T22:01:28.297169
2872,0.2528,0.9438,0.2606,0.070,6.580,-2.590,425,415,371,414,412,2025-05-23T22:01:28.297223
2873,0.2601,0.9697,0.2303,0.350,5.460,-0.630,431,410,385,413,413,2025-05-23T22:01:28.297237
2874,0.2528,0.9697,0.2362,-0.490,0.560,-0.280,434,346,345,392,355,2025-05-23T22:01:28.297249
2875,0.2743,0.9609,0.2494,-1.820,-7.700,-0.280,403,402,366,405,387,2025-05-23T22:01:28.297261
2876,0.2630,0.9482,0.2728,-3.080,-10.780,1.050,406,352,367,352,359,2025-05-23T22:01:28.297272
2877,0.2503,0.9496,0.2660,-0.560,-6.720,1.820,410,342,349,369,378,2025-05-23T22:01:28.297284
2878,0.2533,0.9706,0.2503,3.920,-3.080,3.360,356,388,340,357,384,2025-05-23T22:01:28.297299
2879,0.2855,0.9848,0.2133,3.710,-3.150,3.430,401,416,288,381,391,2025-05-23T22:01:28.297310
2880,0.3274,0.9731,0.1796,-1.260,-2.800,2.660,390,383,329,402,417,2025-05-23T22:01:28.297321
2881,0.3040,0.9282,0.1908,-1.050,-1.960,1.610,408,416,353,400,319,2025-05-23T22:01:28.297331
2882,0.2743,0.9209,0.2328,1.960,-1.750,0.420,420,429,354,347,357,2025-05-23T22:01:28.297342
2883,0.2625,0.9091,0.2689,-0.350,-6.090,-0.420,392,434,372,353,380,2025-05-23T22:01:28.297354
2884,0.2362,0.9004,0.2796,-3.780,-11.620,-1.330,394,415,370,386,389,2025-05-23T22:01:28.297364
2885,0.2240,0.9091,0.2767,-2.030,-12.740,-2.240,389,410,346,399,382,2025-05-23T22:01:28.297375
2886,0.2596,0.9340,0.2562,1.190,-7.070,-3.150,426,423,364,350,399,2025-05-23T22:01:28.297418
2887,0.2503,0.9365,0.2338,4.550,0.280,-4.060,417,427,370,378,409,2025-05-23T22:01:28.297429
2888,0.2460,0.9438,0.2411,5.530,4.970,-5.040,417,406,378,362,369,2025-05-23T22:01:28.518908
2889,0.2420,0.9399,0.2694,2.380,0.140,-7.000,425,393,373,379,391,2025-05-23T22:01:28.518964
2890,0.2123,0.9101,0.2860,0.350,-12.040,-7.000,428,401,383,401,383,2025-05-23T22:01:28.518979
2891,0.2586,0.9199,0.3328,-1.890,-25.410,-10.430,408,373,376,352,338,2025-05-23T22:01:28.518992
2892,0.3235,0.9248,0.3782,-2.940,-31.430,-15.470,430,417,378,336,372,2025-05-23T22:01:28.519004
2893,0.3640,0.9052,0.3977,-4.900,-29.540,-20.370,385,392,307,373,380,2025-05-23T22:01:28.519015
2894,0.3558,0.8657,0.4387,-6.650,-25.480,-26.950,362,416,348,395,380,2025-05-23T22:01:28.519028
2895,0.4031,0.8569,0.4597,-10.780,-33.110,-34.650,407,394,369,409,399,2025-05-23T22:01:28.519041
2896,0.5002,0.9204,0.4402,-21.840,-43.820,-45.290,423,342,373,353,396,2025-05-23T22:01:28.519051
2897,0.5817,0.9570,0.4187,-32.480,-49.910,-58.100,419,393,372,387,411,2025-05-23T22:01:28.519062
2898,0.6456,1.0194,0.5095,-41.440,-54.040,-71.050,409,400,376,415,392,2025-05-23T22:01:28.519073
2899,0.6681,1.0375,0.7296,-55.580,-77.350,-80.220,401,408,342,406,397,2025-05-23T22:01:28.519083
2900,0.6939,1.1087,0.9531,-70.700,-140.560,-87.710,397,415,368,401,387,2025-05-23T22:01:28.519093
2901,0.9462,1.2185,0.9013,-91.000,-236.180,-93.870,425,406,370,394,408,2025-05-23T22:01:28.519104
2902,1.3884,1.4528,0.8730,-116.410,-323.750,-92.820,430,435,366,394,396,2025-05-23T22:01:28.519158
2903,2.1897,1.6338,0.6510,-147.630,-382.270,-98.840,413,403,376,408,391,2025-05-23T22:01:28.519172
2904,3.0251,1.7724,0.4143,-181.230,-360.780,-103.880,400,400,368,414,366,2025-05-23T22:01:28.519183
2905,2.9661,1.9613,0.2606,-202.720,-345.800,-122.080,389,416,339,415,379,2025-05-23T22:01:28.519194
2906,2.7094,2.1340,0.0024,-258.160,-381.150,-123.550,397,399,322,402,398,2025-05-23T22:01:28.519205
2907,2.7084,2.2209,-0.4104,-334.460,-450.590,-129.010,347,396,344,350,391,2025-05-23T22:01:28.705035
2908,2.8011,2.0472,-0.6671,-427.000,-535.570,-147.000,329,407,365,393,388,2025-05-23T22:01:28.705085
2909,2.6445,1.6509,-0.7647,-432.390,-524.790,-163.100,348,355,328,389,393,2025-05-23T22:01:28.705098
2910,2.2648,1.1497,-0.8452,-395.360,-448.210,-160.020,326,394,361,401,401,2025-05-23T22:01:28.705110
2911,1.8124,0.8374,-0.6378,-382.550,-385.280,-173.670,397,411,328,409,399,2025-05-23T22:01:28.705123
2912,1.2439,0.4016,-0.7359,-400.610,-325.990,-180.810,412,395,355,416,387,2025-05-23T22:01:28.705134
2913,1.0307,-0.3182,-0.8369,-482.370,-309.820,-209.790,405,409,374,418,409,2025-05-23T22:01:28.705145
2914,0.7286,-1.4518,-0.6778,-623.210,-317.520,-233.240,342,428,369,399,412,2025-05-23T22:01:28.705157
2915,0.6300,-2.9714,-0.5646,-705.040,-231.630,-277.060,387,402,379,395,355,2025-05-23T22:01:28.705167
2916,-0.2094,-4.5247,0.9453,-748.720,-31.640,-323.960,400,399,374,413,368,2025-05-23T22:01:28.705177
2917,-1.8261,-5.5037,2.0232,-722.820,-5.320,-429.310,371,383,363,412,394,2025-05-23T22:01:28.705188
2918,-1.1614,-6.0980,2.3297,-688.310,-28.840,-529.200,336,421,366,427,402,2025-05-23T22:01:28.705197
2919,-0.8120,-5.7984,2.0237,-548.310,117.670,-504.490,404,417,375,421,412,2025-05-23T22:01:28.705207
2920,-2.8675,-3.5053,1.7090,-377.230,421.960,-370.720,400,304,337,394,402,2025-05-23T22:01:28.705251
2921,-4.7819,-1.4337,1.8266,-161.210,420.980,-172.620,390,376,353,405,384,2025-05-23T22:01:28.705261
2922,-2.8353,-1.2722,1.6231,108.570,398.090,0.210,344,391,327,347,344,2025-05-23T22:01:28.913360
2923,-1.0658,-1.8300,1.6470,254.730,233.030,205.380,403,413,354,394,375,2025-05-23T22:01:28.913405
2924,-0.6368,-2.4312,1.3918,54.460,-48.580,311.360,402,399,355,397,390,2025-05-23T22:01:28.913418
2925,-1.2068,-2.9812,0.8520,240.870,-196.840,386.470,418,409,328,415,407,2025-05-23T22:01:28.913429
2926,-0.5983,-2.9768,0.5280,461.860,-196.490,401.100,419,406,368,416,355,2025-05-23T22:01:28.913439
2927,-0.1191,-2.6167,0.4675,536.550,21.070,365.540,403,418,369,421,387,2025-05-23T22:01:28.913450
2928,-0.2621,-2.0974,0.7330,531.790,246.540,325.150,340,422,346,380,407,2025-05-23T22:01:28.913460
2929,-0.8984,-1.5406,1.0541,411.740,408.590,331.170,383,414,363,405,399,2025-05-23T22:01:29.128816
2930,-1.0429,-1.1458,0.8447,356.790,465.570,345.800,403,408,378,351,400,2025-05-23T22:01:29.128856
2931,-0.9984,-0.6305,0.8740,356.160,483.070,350.070,421,425,382,406,407,2025-05-23T22:01:29.128869
2932,-0.7042,-0.3621,1.0028,306.880,417.900,340.270,401,430,388,362,401,2025-05-23T22:01:29.128879
2933,-0.5500,-0.0210,0.7091,276.640,342.860,336.350,341,406,385,392,388,2025-05-23T22:01:29.128888
2934,-0.1259,0.3943,0.5871,259.630,314.160,340.130,400,425,387,412,401,2025-05-23T22:01:29.128898
2935,0.1601,0.7198,0.2284,234.990,332.990,360.220,412,382,310,415,400,2025-05-23T22:01:29.128909
2936,0.5573,1.2005,-0.0883,219.800,398.300,373.660,420,417,350,425,405,2025-05-23T22:01:29.128967
2937,0.5812,1.3932,-0.1303,186.620,422.800,385.070,408,354,356,423,398,2025-05-23T22:01:29.128977
2938,0.3084,1.2215,0.3172,189.140,388.920,401.590,421,379,372,423,405,2025-05-23T22:01:29.128987
2939,0.1796,0.8384,1.0043,156.310,294.210,417.130,348,407,377,401,402,2025-05-23T22:01:29.128997
2940,1.3176,0.6808,1.4264,116.060,104.930,372.260,405,407,374,417,400,2025-05-23T22:01:29.129006
2941,2.2077,0.6573,1.3727,106.680,-17.780,325.430,363,415,362,417,407,2025-05-23T22:01:29.129015
2942,3.4258,0.8735,0.7779,178.640,104.790,279.510,398,411,372,408,407,2025-05-23T22:01:29.129024
2943,4.0938,1.1595,1.2141,172.340,225.820,245.770,426,407,379,348,396,2025-05-23T22:01:29.129032
2944,4.4388,0.9296,1.4372,136.570,330.330,191.170,406,365,375,370,367,2025-05-23T22:01:29.129041
2945,3.4448,0.6603,1.9642,87.780,245.280,105.980,414,400,380,378,394,2025-05-23T22:01:29.129050
2946,2.3727,0.1606,2.3517,-29.820,-34.510,-26.250,392,422,380,365,388,2025-05-23T22:01:29.129059
2947,1.7466,0.6632,1.6763,125.790,-95.480,-76.860,399,418,380,358,406,2025-05-23T22:01:29.129071
2948,0.8042,0.7471,0.6588,23.310,-189.490,-114.450,412,374,374,383,393,2025-05-23T22:01:29.129080
2949,-0.6368,1.0380,0.0849,93.030,39.130,-70.210,392,392,382,388,388,2025-05-23T22:01:29.129089
2950,-1.4318,1.2898,-0.0547,87.570,133.490,-17.010,416,351,378,406,401,2025-05-23T22:01:29.129111
2951,-1.2034,1.2849,-0.3987,126.770,260.330,43.190,392,390,380,371,403,2025-05-23T22:01:29.129120
2952,-0.2474,1.1351,-0.3104,136.570,209.020,47.880,421,422,384,382,411,2025-05-23T22:01:29.129129
2953,0.0532,1.0980,-0.0620,-50.260,44.800,60.690,347,388,374,406,415,2025-05-23T22:01:29.129138
2954,0.3606,1.0282,0.2865,-111.020,-90.230,48.300,378,393,380,391,412,2025-05-23T22:01:29.129254
2955,0.6417,0.9809,0.4763,-66.710,-80.640,13.020,372,395,370,408,362,2025-05-23T22:01:29.129264
2956,0.8682,0.8672,0.6251,-30.800,-50.050,3.710,344,410,341,395,335,2025-05-23T22:01:29.184134
2957,0.9321,0.8106,0.7935,-11.900,-20.020,-4.060,387,405,324,367,368,2025-05-23T22:01:29.184185
2958,0.7588,0.8086,0.7871,4.410,-9.940,-16.800,342,418,347,394,397,2025-05-23T22:01:29.184199
2959,0.4543,0.8735,0.5451,16.800,-0.980,-19.880,401,427,371,398,413,2025-05-23T22:01:29.184210
2960,0.1996,0.9409,0.2811,20.090,3.640,-18.130,402,424,371,383,404,2025-05-23T22:01:29.184221
2961,-0.0937,0.9823,0.1000,13.720,10.360,-6.720,408,425,367,384,355,2025-05-23T22:01:29.184232
2962,-0.1039,1.0272,0.0703,-0.490,0.070,3.500,412,370,377,390,379,2025-05-23T22:01:29.321178
2963,-0.0595,1.0043,0.0771,-13.370,-11.060,7.910,395,379,373,401,399,2025-05-23T22:01:29.321239
2964,0.0039,0.9453,0.1913,-12.460,-14.070,16.240,410,399,371,387,377,2025-05-23T22:01:29.321256
2965,0.1635,0.8969,0.3509,-9.870,-19.180,17.150,417,405,365,401,400,2025-05-23T22:01:29.321269
2966,0.3582,0.8667,0.4568,-2.450,-18.900,13.790,394,423,365,398,354,2025-05-23T22:01:29.321281
2967,0.4221,0.8374,0.4660,6.580,-12.390,8.120,417,398,377,394,389,2025-05-23T22:01:29.321293
2968,0.4329,0.8921,0.4319,14.140,-3.150,3.640,413,409,369,387,382,2025-05-23T22:01:29.321305
2969,0.3509,0.9433,0.3528,11.480,-17.920,-0.770,424,370,339,405,397,2025-05-23T22:01:29.321339
2970,0.2757,0.9726,0.2801,5.950,-3.570,-0.140,388,410,373,404,401,2025-05-23T22:01:29.321352
2971,0.2284,0.9623,0.2747,-7.630,-13.160,-0.420,394,406,342,311,404,2025-05-23T22:01:29.321364
2972,0.1893,0.9150,0.3030,-18.620,-23.380,-1.260,371,427,345,370,402,2025-05-23T22:01:29.321376
2973,0.2035,0.8696,0.3270,-17.990,-21.630,-1.890,411,403,355,399,398,2025-05-23T22:01:29.525564
2974,0.2264,0.8882,0.3528,-11.620,-10.150,-3.990,403,395,360,408,316,2025-05-23T22:01:29.525610
2975,0.1952,0.9545,0.3206,-0.560,1.330,-1.680,363,381,360,400,377,2025-05-23T22:01:29.525622
2976,0.1557,0.9638,0.2904,10.010,8.820,1.330,327,387,367,400,398,2025-05-23T22:01:29.525647
2977,0.1322,0.9706,0.3040,15.120,3.290,6.370,398,420,371,408,392,2025-05-23T22:01:29.525657
2978,0.1596,0.9384,0.2908,4.690,-16.100,8.610,405,427,381,413,396,2025-05-23T22:01:29.525668
2979,0.2303,0.8852,0.2850,-8.190,-31.570,7.840,420,356,372,396,389,2025-05-23T22:01:29.525680
2980,0.3587,0.8711,0.3201,-15.050,-35.000,3.150,389,329,363,341,389,2025-05-23T22:01:29.525690
2981,0.4060,0.8833,0.3299,-13.230,-24.780,-1.960,409,390,374,333,396,2025-05-23T22:01:29.525700
2982,0.3938,0.9126,0.3250,-5.670,-6.930,-5.530,417,340,368,341,408,2025-05-23T22:01:29.525710
2983,0.3206,0.9135,0.3245,-2.310,6.510,-7.140,378,404,387,374,398,2025-05-23T22:01:29.525722
2984,0.2533,0.8813,0.3411,-2.170,8.120,-6.790,363,411,371,397,395,2025-05-23T22:01:29.525731
2985,0.2172,0.8594,0.4046,-3.780,-5.390,-7.350,387,414,340,368,395,2025-05-23T22:01:29.525740
2986,0.2137,0.8926,0.4148,-3.780,-14.910,-7.490,410,345,361,393,392,2025-05-23T22:01:29.525749
2987,0.2494,0.9462,0.3919,1.960,-14.770,-7.910,419,402,300,400,363,2025-05-23T22:01:29.525758
2988,0.2611,0.9565,0.3640,7.420,-10.570,-6.650,401,416,305,413,397,2025-05-23T22:01:29.525800
2989,0.3079,0.9540,0.3226,7.000,-7.630,-6.650,417,424,352,420,404,2025-05-23T22:01:29.525810
2990,0.3167,0.9140,0.3045,4.130,-10.360,-6.860,426,386,292,417,404,2025-05-23T22:01:29.730256
2991,0.3021,0.8872,0.3387,-0.280,-19.530,-8.540,363,411,341,395,348,2025-05-23T22:01:29.730303
2992,0.3401,0.8550,0.3675,-5.670,-26.040,-10.640,394,354,318,410,377,2025-05-23T22:01:29.730315
2993,0.4089,0.8735,0.3997,-6.230,-32.620,-14.210,387,392,341,399,377,2025-05-23T22:01:29.730326
2994,0.4675,0.8930,0.3680,-7.070,-32.480,-19.040,394,420,354,404,383,2025-05-23T22:01:29.730337
2995,0.4499,0.8550,0.3489,-5.250,-28.420,-22.260,406,351,367,389,387,2025-05-23T22:01:29.730348
2996,0.4451,0.8804,0.3992,-8.470,-35.420,-23.870,418,391,372,413,343,2025-05-23T22:01:29.730357
2997,0.3894,0.9204,0.5363,-21.070,-53.480,-27.090,431,413,375,395,369,2025-05-23T22:01:29.730366
2998,0.3943,0.9048,0.7544,-36.260,-101.500,-31.500,346,296,374,409,389,2025-05-23T22:01:29.730375
2999,0.6959,0.8877,0.7920,-47.530,-159.810,-36.610,401,373,384,399,401,2025-05-23T22:01:29.730385
3000,0.9882,0.9252,0.6925,-53.270,-179.130,-60.970,394,389,373,403,347,2025-05-23T22:01:29.730394
3001,0.9609,1.0497,0.4592,-22.470,-111.300,-67.970,395,397,377,402,379,2025-05-23T22:01:29.730404
3002,0.7369,1.1614,0.3021,1.120,-53.270,-64.610,392,404,378,404,345,2025-05-23T22:01:29.730413
3003,0.4709,1.2029,0.2279,2.030,-30.310,-49.420,392,401,383,408,390,2025-05-23T22:01:29.730421
3004,0.3245,1.2342,0.4065,-2.800,-26.320,-33.950,419,397,369,418,409,2025-05-23T22:01:29.730463
3005,0.3538,1.2024,0.5524,-60.270,-150.780,-47.810,419,388,302,420,410,2025-05-23T22:01:29.730473
3006,0.5187,1.1473,0.6261,-136.570,-295.190,-66.920,352,412,300,405,388,2025-05-23T22:01:29.730483
3007,0.8838,1.0951,0.6295,-162.610,-398.720,-91.490,397,424,351,397,401,2025-05-23T22:01:29.779112
3008,1.2190,1.2878,0.3499,-169.890,-398.300,-90.860,341,412,329,414,402,2025-05-23T22:01:29.779156
3009,1.5792,1.4201,0.1000,-174.440,-347.830,-75.390,356,419,356,367,394,2025-05-23T22:01:29.779168
3010,2.2394,1.5850,-0.1796,-203.420,-322.770,-75.670,381,416,338,379,385,2025-05-23T22:01:29.779179
3011,2.3492,1.7285,-0.3353,-249.410,-316.260,-95.410,385,398,325,389,393,2025-05-23T22:01:30.033437
3012,2.7943,1.8022,-0.7135,-316.050,-380.170,-153.860,413,404,359,406,400,2025-05-23T22:01:30.033487
3013,3.3945,1.9988,-1.2756,-416.570,-410.200,-213.360,378,406,359,404,351,2025-05-23T22:01:30.033501
3014,3.0456,2.0018,-1.9032,-480.270,-399.700,-244.860,397,424,369,407,382,2025-05-23T22:01:30.033512
3015,2.6630,1.6499,-2.1043,-503.930,-385.490,-254.310,429,430,379,413,394,2025-05-23T22:01:30.033524
3016,2.2834,0.9135,-1.9857,-504.630,-402.150,-248.220,432,383,378,422,399,2025-05-23T22:01:30.033534
3017,2.2019,0.1074,-1.5265,-515.830,-390.810,-267.120,420,368,378,421,391,2025-05-23T22:01:30.033544
3018,1.8183,-0.6974,-0.8047,-630.490,-308.910,-291.550,425,412,381,401,389,2025-05-23T22:01:30.033554
3019,1.5348,-2.5420,-0.7686,-824.180,-156.240,-341.880,422,398,383,384,400,2025-05-23T22:01:30.033564
3020,1.1419,-5.5276,-0.9453,-863.660,62.370,-407.820,428,418,381,404,402,2025-05-23T22:01:30.033574
3021,-0.1147,-8.2672,-0.1015,-881.230,293.790,-497.700,420,360,371,396,360,2025-05-23T22:01:30.033583
3022,-1.8076,-9.3096,0.9350,-859.390,384.160,-622.230,408,387,377,390,393,2025-05-23T22:01:30.033596
3023,-2.2560,-7.6762,1.6280,-547.680,276.640,-571.340,392,403,382,376,351,2025-05-23T22:01:30.033606
3024,-3.9870,-4.2759,1.9784,-337.890,319.690,-378.140,413,417,385,337,384,2025-05-23T22:01:30.033646
3025,-4.0836,-2.5195,2.5069,-40.740,255.920,-142.170,411,417,384,378,387,2025-05-23T22:01:30.033656
3026,-1.6982,-2.3975,1.6675,144.410,271.600,124.180,410,403,387,393,397,2025-05-23T22:01:30.033666
3027,-1.0414,-2.3448,1.3849,187.180,136.080,307.580,392,399,386,393,394,2025-05-23T22:01:30.033676
3028,-1.1234,-2.6059,0.6320,143.220,-72.520,372.190,391,402,397,387,402,2025-05-23T22:01:30.033685
3029,-0.7247,-2.5015,0.3353,404.180,-230.580,421.050,418,419,390,388,409,2025-05-23T22:01:30.033693
3030,-0.0498,-2.5391,0.0151,718.410,-294.490,437.570,402,412,386,397,392,2025-05-23T22:01:30.137596
3031,-0.3260,-2.0847,0.2381,547.120,131.600,301.910,408,364,374,387,379,2025-05-23T22:01:30.137644
3032,-0.8028,-1.6694,0.5968,397.670,310.380,339.920,389,387,381,383,385,2025-05-23T22:01:30.137657
3033,-1.0277,-0.9633,0.6954,374.850,371.070,389.830,423,422,337,409,400,2025-05-23T22:01:30.137668
3034,-0.8745,-0.4773,0.6866,334.670,409.500,375.620,379,400,367,351,392,2025-05-23T22:01:30.137678
3035,-0.4738,0.0605,0.7823,295.960,351.400,330.610,400,350,344,393,405,2025-05-23T22:01:30.137688
3036,-0.4616,0.3206,0.7842,257.250,291.270,302.820,408,370,369,404,396,2025-05-23T22:01:30.137698
3037,-0.1684,0.4860,0.8179,226.030,262.710,289.520,354,391,365,348,391,2025-05-23T22:01:30.137707
3038,0.0181,0.7052,0.6139,218.540,281.470,291.690,397,414,373,371,385,2025-05-23T22:01:30.137827
3039,0.2572,1.0355,0.5256,221.340,328.440,290.850,391,394,377,395,396,2025-05-23T22:01:30.137837
3040,0.3660,1.3191,0.3601,245.700,360.710,303.170,417,412,377,411,387,2025-05-23T22:01:30.137846
3041,0.2601,1.3957,0.4909,232.260,366.100,309.190,409,399,376,404,384,2025-05-23T22:01:30.189242
3042,0.2411,1.4054,0.5558,246.190,325.290,320.600,415,423,376,393,374,2025-05-23T22:01:30.189286
3043,0.0830,1.1839,0.8125,181.930,224.490,335.230,413,349,371,343,387,2025-05-23T22:01:30.189297
3044,0.6222,1.1200,0.8779,150.430,73.360,314.440,391,403,369,330,388,2025-05-23T22:01:30.189307
3045,1.1141,1.1814,0.7803,94.430,-2.240,281.260,376,401,369,390,407,2025-05-23T22:01:30.342318
3046,1.4786,1.3278,0.3401,85.820,32.270,259.350,409,394,379,403,390,2025-05-23T22:01:30.342361
3047,1.5416,1.2834,0.4441,127.050,175.420,260.330,424,393,387,381,382,2025-05-23T22:01:30.342372
3048,1.0780,1.1366,1.1273,105.980,220.990,269.150,424,366,392,405,399,2025-05-23T22:01:30.342383
3049,1.0570,0.8159,1.3991,64.050,174.160,276.780,420,414,393,410,396,2025-05-23T22:01:30.342392
3050,1.7392,0.4699,1.5528,26.880,70.070,242.270,355,395,372,361,382,2025-05-23T22:01:30.342402
3051,2.6303,0.5153,1.3449,-0.210,-80.570,159.880,389,405,374,400,361,2025-05-23T22:01:30.342412
3052,2.9056,0.8603,0.3963,33.460,9.310,102.970,414,399,385,390,397,2025-05-23T22:01:30.342422
3053,2.2868,0.6456,0.1449,90.650,91.210,56.210,394,372,310,345,388,2025-05-23T22:01:30.342431
3054,1.2927,0.8686,0.2830,83.090,110.180,37.940,414,348,314,348,384,2025-05-23T22:01:30.342439
3055,0.6237,0.7296,0.2186,84.140,165.130,46.970,355,400,345,371,390,2025-05-23T22:01:30.342448
3056,0.6568,0.6617,0.1244,54.950,93.240,7.210,411,386,371,396,412,2025-05-23T22:01:30.342455
3057,0.3787,0.7237,0.0195,-75.320,-118.580,-7.630,417,397,382,411,414,2025-05-23T22:01:30.342464
3058,-0.1732,0.8560,0.1527,-87.360,-108.710,-20.230,403,411,366,398,405,2025-05-23T22:01:30.395228
3059,-0.2874,0.9931,0.0181,-46.830,-23.520,-2.380,393,404,377,408,316,2025-05-23T22:01:30.395270
3060,-0.1864,0.9394,0.3538,-28.560,35.420,18.690,426,377,374,404,342,2025-05-23T22:01:30.395281
3061,0.1713,0.9701,0.5231,1.260,59.010,29.190,425,389,369,412,393,2025-05-23T22:01:30.395291
3062,0.4250,0.9121,0.5924,0.840,18.480,27.650,402,401,371,401,397,2025-05-23T22:01:30.552890
3063,0.5856,0.8857,0.4680,-7.700,-36.400,15.050,396,395,371,393,391,2025-05-23T22:01:30.552917
3064,0.6856,0.8584,0.2967,-4.060,-44.520,2.730,420,400,341,403,387,2025-05-23T22:01:30.552923
3065,0.5905,0.8369,0.2616,11.970,-25.550,1.610,404,425,360,369,389,2025-05-23T22:01:30.552928
3066,0.5002,0.8228,0.2967,22.050,-15.820,-2.240,401,421,363,336,394,2025-05-23T22:01:30.552933
3067,0.4085,0.8716,0.3011,17.080,-11.900,-3.430,399,407,374,391,352,2025-05-23T22:01:30.552938
3068,0.3494,0.8911,0.2845,11.900,-20.090,-7.140,342,409,364,382,375,2025-05-23T22:01:30.552942
3069,0.2630,0.9394,0.2821,8.540,-17.850,-6.370,384,428,344,344,397,2025-05-23T22:01:30.552946
3070,0.2474,0.9892,0.2621,8.680,-4.060,-4.900,335,415,359,369,392,2025-05-23T22:01:30.552950
3071,0.2059,0.9838,0.2557,7.630,11.970,0.140,404,379,359,400,384,2025-05-23T22:01:30.552954
3072,0.1932,0.9701,0.2621,6.510,14.350,6.230,381,388,380,404,390,2025-05-23T22:01:30.552958
3073,0.2708,0.9321,0.2738,-1.680,-0.420,8.050,352,418,336,402,343,2025-05-23T22:01:30.552962
3074,0.3357,0.8623,0.2616,-10.150,-6.300,8.820,385,349,352,372,340,2025-05-23T22:01:30.552966
3075,0.3357,0.8599,0.2928,-8.540,-4.690,7.490,402,336,337,374,290,2025-05-23T22:01:30.778764
3076,0.3411,0.9057,0.3289,-0.770,-0.630,7.350,386,393,355,390,368,2025-05-23T22:01:30.778814
3077,0.3806,0.9355,0.3333,-0.630,-2.030,5.600,384,376,361,412,352,2025-05-23T22:01:30.778827
3078,0.3743,0.9101,0.3070,-2.800,-4.690,5.180,373,380,340,425,373,2025-05-23T22:01:30.778841
3079,0.3592,0.9043,0.3392,-2.030,-6.440,4.760,407,419,365,421,336,2025-05-23T22:01:30.778853
3080,0.3411,0.9008,0.3411,-0.840,-4.130,3.290,430,433,370,368,367,2025-05-23T22:01:30.778866
3081,0.3274,0.9218,0.3133,-0.350,-1.610,2.660,415,406,351,391,384,2025-05-23T22:01:30.778878
3082,0.3436,0.9360,0.2655,-2.170,0.000,2.100,401,408,362,354,381,2025-05-23T22:01:30.778888
3083,0.3426,0.9248,0.2118,-2.170,-0.350,1.610,414,420,374,397,397,2025-05-23T22:01:30.778898
3084,0.3221,0.9179,0.2181,-0.280,-1.610,2.590,402,420,372,359,388,2025-05-23T22:01:30.778908
3085,0.3426,0.9004,0.2567,-1.820,-1.050,3.150,400,436,333,393,346,2025-05-23T22:01:30.778917
3086,0.3074,0.8969,0.2967,-3.290,0.700,4.410,380,409,344,347,362,2025-05-23T22:01:30.778926
3087,0.2811,0.9038,0.2938,-4.480,2.520,5.460,413,425,348,394,360,2025-05-23T22:01:30.778936
3088,0.3416,0.9384,0.2601,-5.460,3.360,4.270,377,427,372,402,395,2025-05-23T22:01:30.778945
3089,0.3548,0.9335,0.2128,-12.460,3.710,3.290,382,428,379,385,391,2025-05-23T22:01:30.778954
3090,0.3406,0.8750,0.1840,-17.220,6.230,4.760,407,400,333,389,388,2025-05-23T22:01:30.778996
3091,0.3396,0.8750,0.2713,-17.850,5.950,4.550,356,344,330,417,400,2025-05-23T22:01:30.779006
3092,0.3533,0.8633,0.3738,-15.680,1.960,2.870,396,404,331,396,347,2025-05-23T22:01:30.779015
3093,0.3660,0.8886,0.4187,-9.170,1.960,1.820,413,406,364,369,367,2025-05-23T22:01:30.779025
3094,0.3401,0.8843,0.4099,-5.180,3.500,0.980,417,416,378,387,398,2025-05-23T22:01:30.972219
3095,0.3504,0.8828,0.3714,0.280,-1.750,-0.210,368,368,377,347,402,2025-05-23T22:01:30.972282
3096,0.4402,0.8711,0.3509,0.000,-9.520,-3.710,413,412,355,331,396,2025-05-23T22:01:30.972298
3097,0.4553,0.8369,0.3192,-0.210,-13.440,-6.510,375,345,369,358,350,2025-05-23T22:01:30.972311
3098,0.4709,0.8677,0.3255,1.330,-12.810,-10.080,392,362,378,354,380,2025-05-23T22:01:30.972324
3099,0.4621,0.8828,0.3284,-1.750,-5.390,-12.390,420,292,371,389,389,2025-05-23T22:01:30.972339
3100,0.4509,0.8647,0.3201,-6.930,-6.230,-15.190,391,377,335,342,399,2025-05-23T22:01:30.972353
3101,0.5046,0.8340,0.3631,-14.280,-13.300,-20.720,399,399,356,400,361,2025-05-23T22:01:30.972365
3102,0.5446,0.7993,0.4333,-20.510,-22.540,-28.700,416,425,369,405,390,2025-05-23T22:01:30.972384
3103,0.6383,0.7535,0.4919,-30.940,-29.120,-40.950,418,352,328,411,347,2025-05-23T22:01:30.972398
3104,0.8711,0.7066,0.5124,-42.280,-32.060,-55.930,396,408,353,409,382,2025-05-23T22:01:30.972409
3105,0.7745,0.6954,0.5583,-48.860,-42.420,-68.530,428,424,343,402,406,2025-05-23T22:01:30.972422
3106,0.8979,0.7330,0.6446,-60.130,-65.170,-86.100,423,403,369,403,406,2025-05-23T22:01:30.972433
3107,0.9755,0.7540,0.7110,-84.560,-100.520,-105.490,402,300,339,387,351,2025-05-23T22:01:30.972446
3108,1.0346,0.7657,0.8379,-102.340,-154.140,-125.930,416,358,324,397,372,2025-05-23T22:01:30.972500
3109,1.2712,0.8628,0.8418,-126.210,-210.280,-147.630,362,413,357,414,305,2025-05-23T22:01:30.972515
3110,1.4494,1.0292,0.7798,-162.820,-239.400,-168.350,410,370,379,387,368,2025-05-23T22:01:31.162794
3111,1.4050,1.3981,0.6490,-196.280,-236.110,-169.610,300,394,369,401,369,2025-05-23T22:01:31.162848
3112,1.3342,1.5728,0.4817,-218.190,-228.200,-164.150,362,425,379,407,378,2025-05-23T22:01:31.162863
3113,1.5113,1.7563,0.3733,-233.030,-239.680,-153.370,407,399,364,311,338,2025-05-23T22:01:31.162877
3114,1.5782,1.8705,0.2323,-255.220,-283.010,-126.630,374,417,357,366,372,2025-05-23T22:01:31.162889
3115,1.9076,2.2472,0.0425,-287.560,-333.410,-137.060,419,401,367,395,392,2025-05-23T22:01:31.162904
3116,2.1701,2.3790,-0.2035,-329.490,-355.390,-130.760,377,421,366,406,384,2025-05-23T22:01:31.162915
3117,2.4263,2.3317,-0.3797,-354.060,-357.350,-136.920,353,409,332,401,397,2025-05-23T22:01:31.162927
3118,2.8319,2.0594,-0.7349,-368.410,-350.210,-162.820,389,413,359,401,390,2025-05-23T22:01:31.162939
3119,2.9939,1.3318,-0.9975,-360.570,-311.080,-208.530,407,401,358,417,383,2025-05-23T22:01:31.162950
3120,2.5766,0.9457,-0.9736,-357.630,-266.910,-257.880,408,400,369,412,398,2025-05-23T22:01:31.162961
3121,1.5221,0.3289,-0.8311,-388.150,-258.860,-281.540,412,406,373,393,409,2025-05-23T22:01:31.162971
3122,1.3718,-0.6251,-0.7974,-495.530,-270.620,-295.820,398,419,381,405,352,2025-05-23T22:01:31.162982
3123,1.1283,-2.4537,-0.9428,-722.470,-301.490,-353.570,377,399,365,392,380,2025-05-23T22:01:31.163159
3124,0.7383,-3.9650,-0.5256,-857.080,-138.810,-419.440,354,349,374,418,396,2025-05-23T22:01:31.163171
3125,-0.9243,-6.7515,0.1181,-798.280,149.940,-562.450,404,401,365,354,390,2025-05-23T22:01:31.163183
3126,-3.0246,-8.3521,1.1136,-830.340,210.840,-729.820,412,369,379,376,364,2025-05-23T22:01:31.367571
3127,-1.8817,-7.0389,1.8754,-599.200,107.170,-656.810,376,369,368,378,378,2025-05-23T22:01:31.367627
3128,-2.3858,-4.0821,1.5787,-481.810,285.600,-434.910,408,403,376,349,375,2025-05-23T22:01:31.367642
3129,-3.6273,-1.8959,1.4220,-198.800,444.710,-151.130,425,398,336,379,378,2025-05-23T22:01:31.630216
3130,-2.0877,-1.4982,1.0551,158.200,399.350,131.180,403,389,360,406,402,2025-05-23T22:01:31.630269
3131,-0.7164,-1.7885,1.2639,261.730,361.620,313.600,409,389,367,387,386,2025-05-23T22:01:31.630282
3132,-0.5309,-1.9632,1.3874,100.870,-11.340,346.570,417,341,376,411,383,2025-05-23T22:01:31.630294
3133,-0.5578,-2.0750,1.0790,197.400,-415.660,341.390,414,342,382,379,393,2025-05-23T22:01:31.630304
3134,0.9048,-1.4416,0.4446,729.540,-688.590,458.780,422,383,386,401,394,2025-05-23T22:01:31.630313
3135,0.3465,-1.5538,0.1010,543.200,-91.770,178.640,413,418,360,394,401,2025-05-23T22:01:31.630323
3136,0.9194,-1.2034,0.5617,386.540,243.810,189.980,390,400,378,360,350,2025-05-23T22:01:31.630333
3137,0.2220,-0.7974,0.8355,352.800,414.260,213.080,343,357,370,375,392,2025-05-23T22:01:31.630342
3138,-0.5070,-0.3889,1.1600,328.790,484.190,217.770,397,335,374,355,374,2025-05-23T22:01:31.630351
3139,-0.9833,0.0473,1.3044,372.610,549.920,240.520,389,405,367,392,396,2025-05-23T22:01:31.630409
3140,-1.2180,-0.2128,1.2995,433.930,539.280,229.250,362,418,382,398,396,2025-05-23T22:01:31.630420
3141,-1.2141,0.1308,1.0014,221.690,312.970,197.400,349,401,371,405,346,2025-05-23T22:01:31.630430
3142,-0.9399,0.2460,0.5675,-16.520,209.440,134.960,414,383,372,392,379,2025-05-23T22:01:31.630440
3143,-0.9033,0.7257,0.3216,69.580,347.970,184.170,394,413,371,411,400,2025-05-23T22:01:31.630448
3144,-0.6529,0.9614,0.5949,118.160,392.980,219.660,412,387,375,390,358,2025-05-23T22:01:31.630458
3145,-0.5534,0.9570,0.4563,204.960,398.230,281.260,419,397,373,403,386,2025-05-23T22:01:31.630467
3146,-0.2718,1.0453,0.4275,255.150,400.190,301.210,401,407,366,409,389,2025-05-23T22:01:31.630476
3147,-0.0551,0.9501,0.3660,275.590,285.390,354.480,341,425,375,396,396,2025-05-23T22:01:31.630485
3148,0.2147,0.9472,0.4441,219.240,92.890,369.040,351,397,367,414,398,2025-05-23T22:01:31.630494
3149,0.4358,1.0043,-0.1557,175.980,81.900,275.310,362,417,376,396,361,2025-05-23T22:01:31.630503
3150,0.2860,1.3552,0.1449,202.370,226.170,293.930,414,352,349,396,347,2025-05-23T22:01:31.630512
3151,0.1508,1.2293,0.3060,141.470,222.740,314.510,413,391,365,401,372,2025-05-23T22:01:31.630521
3152,0.5427,0.9462,0.3753,118.230,225.540,317.310,415,390,367,395,378,2025-05-23T22:01:31.630529
3153,1.0941,0.7462,0.6364,76.720,134.540,268.590,408,391,369,350,379,2025-05-23T22:01:31.630537
3154,1.3396,0.8843,0.7305,-19.320,-27.300,220.220,418,416,366,400,343,2025-05-23T22:01:31.630560
3155,1.3698,1.1224,0.4006,18.480,44.450,183.680,416,423,361,403,385,2025-05-23T22:01:31.630569
3156,1.2956,1.0165,0.7042,41.720,138.600,192.220,417,414,336,405,344,2025-05-23T22:01:31.630578
3157,1.2376,0.9477,0.9062,30.100,127.050,183.190,411,399,357,407,369,2025-05-23T22:01:31.630586
3158,1.4625,0.7032,0.9462,30.380,86.520,173.670,412,414,380,369,369,2025-05-23T22:01:31.630594
3159,2.2082,0.6822,1.0214,21.420,-44.520,127.470,346,350,335,395,337,2025-05-23T22:01:31.630603
3160,2.6869,0.7198,0.6437,-1.400,-108.570,55.580,391,393,365,391,382,2025-05-23T22:01:31.778496
3161,2.5386,0.8594,0.3192,35.980,-6.300,22.750,416,407,360,350,398,2025-05-23T22:01:31.778550
3162,1.6504,0.9057,0.3362,42.070,76.230,-8.190,392,407,365,394,405,2025-05-23T22:01:31.778565
3163,0.5061,0.9243,0.3436,31.990,99.540,11.480,398,351,370,392,398,2025-05-23T22:01:31.778578
3164,0.0224,0.8833,0.3299,75.110,129.080,13.650,390,384,345,386,408,2025-05-23T22:01:31.778591
3165,0.1796,0.8257,0.2552,-11.690,-46.760,-6.160,400,355,363,387,349,2025-05-23T22:01:31.778605
3166,0.0615,0.7989,0.2381,-114.870,-131.460,-6.930,382,395,361,391,378,2025-05-23T22:01:31.778618
3167,-0.1249,0.9706,0.3621,-45.990,-69.440,-20.790,418,405,372,409,390,2025-05-23T22:01:31.778629
3168,0.0210,1.0790,0.3440,-15.890,31.430,10.640,407,407,362,414,348,2025-05-23T22:01:31.778640
3169,0.2015,1.0038,0.3938,-1.960,70.210,20.300,367,398,364,400,369,2025-05-23T22:01:31.778651
3170,0.2621,0.9209,0.3982,7.210,84.490,34.720,329,393,332,375,397,2025-05-23T22:01:31.778661
3171,0.4436,0.8706,0.5275,7.770,43.680,19.600,381,418,360,363,399,2025-05-23T22:01:31.778672
3172,0.4782,0.8691,0.4558,-7.210,-18.690,6.720,408,359,325,368,392,2025-05-23T22:01:31.778682
3173,0.4885,0.8364,0.3963,3.290,-35.630,-5.600,426,397,356,403,396,2025-05-23T22:01:31.778693
3174,0.5305,0.8647,0.3401,7.700,-23.380,-8.120,434,401,365,404,365,2025-05-23T22:01:31.778743
3175,0.4543,0.8511,0.2845,12.460,-0.070,-10.150,391,410,375,389,335,2025-05-23T22:01:31.778754
3176,0.3470,0.8760,0.2596,9.590,6.790,-11.970,408,404,371,398,370,2025-05-23T22:01:31.778765
3177,0.2972,0.9004,0.2455,3.360,6.790,-11.340,419,415,375,392,401,2025-05-23T22:01:31.983289
3178,0.2259,0.9462,0.2586,-6.720,-0.770,-9.310,427,347,365,407,398,2025-05-23T22:01:31.983403
3179,0.1674,0.9604,0.2689,-5.460,-4.130,-5.600,424,386,379,400,371,2025-05-23T22:01:31.983426
3180,0.1684,0.9526,0.2679,-3.360,-2.310,0.140,345,411,369,395,396,2025-05-23T22:01:31.983439
3181,0.1908,0.9277,0.2962,-1.470,-0.770,5.040,356,418,301,399,381,2025-05-23T22:01:31.983452
3182,0.2011,0.8935,0.3470,0.420,-1.470,7.560,410,422,338,419,404,2025-05-23T22:01:31.983466
3183,0.2411,0.9091,0.3719,3.150,-5.670,8.680,421,429,344,378,410,2025-05-23T22:01:31.983481
3184,0.3401,0.9160,0.3562,5.880,-3.150,8.470,412,428,361,381,406,2025-05-23T22:01:31.983492
3185,0.3167,0.9209,0.3265,9.940,3.500,8.330,413,351,362,384,362,2025-05-23T22:01:31.983502
3186,0.3094,0.9555,0.2938,13.300,7.770,10.080,405,409,376,382,377,2025-05-23T22:01:31.983511
3187,0.3060,0.9443,0.2723,8.260,6.160,10.430,414,434,390,410,409,2025-05-23T22:01:31.983521
3188,0.3167,0.9126,0.2767,-0.210,-4.270,9.170,394,408,348,364,411,2025-05-23T22:01:31.983531
3189,0.3782,0.8843,0.2708,-4.690,-9.800,5.390,425,409,358,383,354,2025-05-23T22:01:31.983541
3190,0.3675,0.8852,0.2694,-1.890,-8.680,1.820,428,405,371,396,393,2025-05-23T22:01:31.983552
3191,0.3670,0.8979,0.2567,2.030,-4.270,0.070,427,419,381,399,378,2025-05-23T22:01:31.983562
3192,0.3694,0.9077,0.2528,1.190,0.070,-1.960,422,415,374,407,398,2025-05-23T22:01:31.983621
3193,0.3245,0.9170,0.2406,-1.330,1.680,-3.290,412,381,368,422,410,2025-05-23T22:01:31.983631
3194,0.2557,0.9023,0.2518,-2.590,2.380,-3.430,415,417,377,408,409,2025-05-23T22:01:32.220018
3195,0.2406,0.8843,0.2704,-3.430,0.420,-1.890,421,393,383,410,412,2025-05-23T22:01:32.220062
3196,0.2538,0.8769,0.2889,-5.740,-3.500,-2.240,377,413,376,399,357,2025-05-23T22:01:32.220073
3197,0.2552,0.8901,0.3070,-5.390,-11.760,-2.660,409,391,367,392,351,2025-05-23T22:01:32.220083
3198,0.3157,0.9487,0.3128,-6.580,-13.790,-4.270,405,419,368,401,384,2025-05-23T22:01:32.220093
3199,0.3074,0.9453,0.3274,-5.110,-9.450,-6.020,350,356,382,354,399,2025-05-23T22:01:32.220104
3200,0.2767,0.9423,0.3758,-2.730,-5.390,-7.630,391,378,348,379,405,2025-05-23T22:01:32.220117
3201,0.2899,0.9301,0.4128,-4.060,-6.650,-10.640,420,397,351,403,404,2025-05-23T22:01:32.220126
3202,0.3606,0.9033,0.4070,-11.550,-13.090,-13.510,361,417,371,402,398,2025-05-23T22:01:32.220135
3203,0.4646,0.8921,0.4006,-26.600,-22.190,-18.620,408,380,342,352,400,2025-05-23T22:01:32.220144
3204,0.5885,0.8555,0.4114,-38.850,-32.690,-26.740,362,389,354,401,411,2025-05-23T22:01:32.220153
3205,0.6978,0.8413,0.4651,-46.340,-39.270,-39.760,403,418,375,387,396,2025-05-23T22:01:32.220161
3206,0.6949,0.8330,0.5222,-52.570,-44.940,-52.710,400,399,375,380,386,2025-05-23T22:01:32.220170
3207,0.6700,0.8740,0.5514,-50.890,-54.740,-63.350,396,409,380,386,404,2025-05-23T22:01:32.220178
3208,0.6710,0.8935,0.5666,-50.050,-69.300,-71.050,399,416,386,412,388,2025-05-23T22:01:32.220407
3209,0.6515,0.9238,0.5358,-54.880,-88.620,-77.280,358,414,375,417,380,2025-05-23T22:01:32.220417
3210,0.6759,0.9765,0.4802,-66.570,-108.290,-80.640,362,397,378,402,392,2025-05-23T22:01:32.220427
3211,0.7271,1.0409,0.4163,-81.130,-129.780,-83.790,410,411,382,399,387,2025-05-23T22:01:32.393061
3212,0.6891,1.2063,0.5212,-99.190,-167.230,-85.470,398,430,378,359,380,2025-05-23T22:01:32.393124
3213,0.8345,1.2810,0.5651,-129.990,-206.360,-84.490,403,422,384,340,399,2025-05-23T22:01:32.393142
3214,1.0053,1.3557,0.5114,-155.540,-249.410,-81.340,404,390,389,369,398,2025-05-23T22:01:32.393157
3215,1.3098,1.3835,0.3450,-167.090,-275.100,-81.060,401,390,391,398,407,2025-05-23T22:01:32.393171
3216,1.6587,1.5596,0.1635,-168.070,-290.220,-73.570,383,398,378,395,386,2025-05-23T22:01:32.393185
3217,2.3609,1.7280,0.0107,-197.050,-340.760,-56.420,345,410,338,351,393,2025-05-23T22:01:32.393200
3218,2.9788,2.0740,-0.3030,-238.070,-427.280,-76.300,401,428,352,378,406,2025-05-23T22:01:32.393213
3219,3.8201,2.1965,-0.8911,-294.980,-508.760,-118.440,345,397,363,382,409,2025-05-23T22:01:32.393226
3220,4.1626,2.0140,-1.5401,-360.920,-497.070,-183.750,382,400,329,396,420,2025-05-23T22:01:32.393240
3221,3.7122,1.9393,-1.6987,-399.070,-417.900,-197.680,375,398,348,415,402,2025-05-23T22:01:32.393254
3222,2.7435,1.3440,-1.7768,-499.310,-366.870,-186.970,390,409,355,390,399,2025-05-23T22:01:32.393271
3223,2.4166,0.5275,-1.6285,-593.250,-342.300,-189.980,421,424,373,389,398,2025-05-23T22:01:32.393283
3224,2.0608,-0.3353,-1.6143,-677.390,-383.110,-195.930,420,391,377,381,412,2025-05-23T22:01:32.393347
3225,1.8237,-1.4577,-1.1434,-671.580,-354.550,-250.250,403,390,368,361,405,2025-05-23T22:01:32.393359
3226,1.2537,-2.9173,-0.7749,-775.740,-152.250,-276.010,396,405,384,403,388,2025-05-23T22:01:32.393370
3227,-0.1508,-4.5911,0.2445,-806.680,28.980,-337.050,400,350,338,391,393,2025-05-23T22:01:32.393382
3228,-2.4346,-6.6348,0.7159,-968.240,175.280,-534.940,423,384,362,410,392,2025-05-23T22:01:32.596326
3229,-2.1740,-7.0374,1.7065,-863.660,-142.450,-658.630,430,416,337,399,398,2025-05-23T22:01:32.596383
3230,0.2625,-6.5597,2.5444,-763.420,-490.280,-516.110,400,381,358,412,356,2025-05-23T22:01:32.596399
3231,1.4689,-5.6598,1.7583,-453.880,-88.200,-392.420,418,392,382,393,381,2025-05-23T22:01:32.596412
3232,-1.0970,-3.4287,0.6349,-19.530,458.430,-149.870,415,417,373,398,349,2025-05-23T22:01:32.596425
3233,-3.7220,-1.0887,0.1220,133.630,577.150,68.880,415,428,383,401,385,2025-05-23T22:01:32.596439
3234,-2.5893,-1.1810,0.5754,192.500,606.480,275.030,421,419,384,420,401,2025-05-23T22:01:32.596451
3235,-1.2639,-2.2546,0.6217,615.720,470.330,319.270,402,404,387,401,399,2025-05-23T22:01:32.596463
3236,-1.0414,-1.7602,1.6787,548.310,136.920,369.950,417,404,353,408,367,2025-05-23T22:01:32.596474
3237,-0.2303,-2.1657,1.7104,117.670,-465.080,559.930,347,407,370,399,376,2025-05-23T22:01:32.596485
3238,0.5305,-2.5254,-0.6969,287.980,-322.280,262.080,399,397,372,407,393,2025-05-23T22:01:32.596500
3239,0.0371,-1.6734,0.7510,455.560,294.840,250.670,419,418,336,414,388,2025-05-23T22:01:32.596511
3240,-0.6759,-1.3493,1.0487,383.600,472.150,265.300,407,409,343,406,383,2025-05-23T22:01:32.596522
3241,-1.1683,-1.0546,1.0087,368.410,516.040,307.790,416,407,366,415,373,2025-05-23T22:01:32.596572
3242,-1.1190,-0.2733,0.8423,352.380,568.050,331.240,420,431,362,399,338,2025-05-23T22:01:32.596584
3243,-0.5007,-0.1889,0.8037,487.130,704.060,320.880,380,397,359,406,391,2025-05-23T22:01:32.596594
3244,-0.1942,0.0693,0.5939,139.160,442.610,233.380,413,408,331,399,383,2025-05-23T22:01:32.596605
3245,-0.5583,0.5187,1.1814,-8.680,316.120,327.110,409,417,361,414,403,2025-05-23T22:01:32.658053
3246,-0.1235,0.6080,0.2489,108.850,192.710,357.140,420,357,373,391,405,2025-05-23T22:01:32.658107
3247,-0.1210,0.7452,0.5768,319.270,170.870,298.690,421,389,374,414,410,2025-05-23T22:01:32.658121
3248,-0.3192,1.0707,0.8081,351.960,233.660,275.450,425,415,365,349,399,2025-05-23T22:01:32.658133
3249,0.2103,1.2151,0.5978,347.060,251.370,288.540,424,428,372,393,392,2025-05-23T22:01:32.658145
3250,0.1986,1.2605,0.6773,289.450,269.850,356.300,407,421,359,408,407,2025-05-23T22:01:32.831240
3251,0.4343,1.2766,0.8013,191.730,180.810,336.840,401,413,358,409,397,2025-05-23T22:01:32.831285
3252,0.9023,1.1370,1.0565,135.100,164.500,312.130,398,362,377,395,384,2025-05-23T22:01:32.831298
3253,1.0965,0.8911,1.1414,123.480,182.210,292.110,415,406,373,384,360,2025-05-23T22:01:32.831308
3254,1.1029,0.8462,1.1873,148.330,159.810,278.180,423,402,375,341,369,2025-05-23T22:01:32.831316
3255,1.4835,0.9511,1.0316,182.350,89.880,259.350,416,347,371,375,398,2025-05-23T22:01:32.831326
3256,2.0213,0.9999,0.5827,170.240,36.540,223.090,422,410,376,361,390,2025-05-23T22:01:32.831335
3257,2.3336,1.0604,0.4607,103.390,10.290,184.520,406,419,381,387,388,2025-05-23T22:01:32.831343
3258,2.4029,1.0555,0.3680,45.430,29.960,156.100,415,415,383,391,393,2025-05-23T22:01:32.831355
3259,2.4097,0.9648,0.4314,41.860,86.940,138.810,417,401,386,413,407,2025-05-23T22:01:32.831364
3260,2.2277,0.7496,0.4978,43.330,99.960,110.530,343,388,395,403,397,2025-05-23T22:01:32.831372
3261,1.8100,0.7213,0.5592,69.580,101.010,68.740,380,405,392,415,387,2025-05-23T22:01:32.831381
3262,1.4640,0.9067,0.4846,48.230,48.790,19.810,330,418,392,347,389,2025-05-23T22:01:32.831390
3263,1.1492,0.9048,0.1347,23.940,-12.040,-12.600,370,407,377,389,381,2025-05-23T22:01:32.831398
3264,0.7915,0.9223,0.0468,11.550,-33.600,-32.270,398,406,387,403,393,2025-05-23T22:01:33.006531
3265,0.3616,0.9545,0.0512,-2.870,-27.580,-32.760,393,394,377,388,387,2025-05-23T22:01:33.006579
3266,0.0756,0.9677,0.0630,-21.000,-7.840,-22.330,420,404,384,400,359,2025-05-23T22:01:33.006592
3267,-0.0034,0.9414,0.0913,-45.290,12.110,-8.820,425,422,378,358,379,2025-05-23T22:01:33.006604
3268,-0.0195,0.9272,0.1664,-50.470,15.470,0.140,415,349,372,383,340,2025-05-23T22:01:33.006615
3269,0.0590,0.9155,0.2494,-41.370,18.410,7.210,398,399,379,386,376,2025-05-23T22:01:33.006627
3270,0.1181,0.9023,0.3553,-24.220,27.440,10.220,364,413,375,347,374,2025-05-23T22:01:33.006639
3271,0.2142,0.9501,0.4319,-6.860,34.580,12.880,410,415,380,333,392,2025-05-23T22:01:33.006650
3272,0.2074,0.9687,0.4660,12.390,20.160,13.090,380,400,391,377,407,2025-05-23T22:01:33.006661
3273,0.3011,0.9823,0.4329,23.310,-10.010,15.050,409,410,392,368,410,2025-05-23T22:01:33.006671
3274,0.4602,0.9370,0.3260,11.970,-46.200,8.120,400,434,382,343,403,2025-05-23T22:01:33.006681
3275,0.5368,0.8833,0.2303,-8.400,-54.180,3.150,388,359,366,382,357,2025-05-23T22:01:33.006691
3276,0.5592,0.8613,0.1235,-19.460,-34.160,0.070,418,403,365,400,350,2025-05-23T22:01:33.006700
3277,0.4875,0.8677,0.0864,-17.500,6.020,-4.620,381,409,376,415,376,2025-05-23T22:01:33.006889
3278,0.3314,0.8774,0.0834,-14.140,24.920,-2.380,358,417,375,402,393,2025-05-23T22:01:33.006902
3279,0.2401,0.9013,0.1640,-11.410,23.940,1.190,407,350,368,418,385,2025-05-23T22:01:33.211258
3280,0.1801,0.9204,0.2679,-16.310,4.620,1.330,405,401,364,407,379,2025-05-23T22:01:33.211313
3281,0.2079,0.8950,0.3030,-18.410,-10.710,2.800,425,420,382,355,389,2025-05-23T22:01:33.211329
3282,0.2645,0.8716,0.3314,-11.200,-11.690,3.220,405,434,345,367,399,2025-05-23T22:01:33.211342
3283,0.3543,0.8882,0.3279,-2.730,0.910,3.360,397,426,365,379,394,2025-05-23T22:01:33.211353
3284,0.3645,0.8994,0.2977,4.270,11.340,3.150,347,410,376,392,403,2025-05-23T22:01:33.211367
3285,0.3475,0.9301,0.2894,7.770,13.160,0.910,403,399,377,349,401,2025-05-23T22:01:33.211387
3286,0.3016,0.9365,0.2928,7.000,5.670,1.050,415,336,341,379,409,2025-05-23T22:01:33.211398
3287,0.3011,0.9365,0.3162,0.350,-8.470,0.630,421,329,367,375,353,2025-05-23T22:01:33.211408
3288,0.2723,0.9126,0.3372,-4.480,-20.440,-0.980,398,349,375,380,371,2025-05-23T22:01:33.211418
3289,0.3065,0.9301,0.3323,-5.950,-23.870,-1.540,338,413,382,364,395,2025-05-23T22:01:33.211428
3290,0.3855,0.9331,0.2757,-9.520,-17.570,-5.110,401,400,379,386,372,2025-05-23T22:01:33.211438
3291,0.3640,0.9150,0.2172,-7.910,1.540,-6.300,380,372,374,410,361,2025-05-23T22:01:33.211447
3292,0.3206,0.9228,0.2020,-3.780,12.460,-5.880,387,415,381,409,379,2025-05-23T22:01:33.211570
3293,0.2586,0.8935,0.2250,-2.380,12.040,-3.780,415,409,377,406,393,2025-05-23T22:01:33.211580
3294,0.2601,0.9082,0.2904,-4.270,-2.590,-0.910,403,423,370,415,394,2025-05-23T22:01:33.211624
3295,0.2938,0.9057,0.3128,-12.460,-12.250,-0.770,420,377,360,358,387,2025-05-23T22:01:33.211635
3296,0.3426,0.9145,0.3016,-11.130,-15.540,-3.570,397,387,367,396,347,2025-05-23T22:01:33.414800
3297,0.4163,0.9335,0.2704,-10.920,-7.350,-6.860,395,408,342,407,380,2025-05-23T22:01:33.414847
3298,0.5031,0.9604,0.2303,-8.470,6.160,-14.490,363,420,370,421,384,2025-05-23T22:01:33.414860
3299,0.5397,0.9906,0.2011,-12.250,21.490,-21.840,332,357,368,395,388,2025-05-23T22:01:33.414871
3300,0.5036,1.0009,0.1962,-12.600,36.680,-22.610,281,373,363,386,382,2025-05-23T22:01:33.414881
3301,0.4353,1.0419,0.3323,-14.490,41.650,-24.290,384,413,365,403,407,2025-05-23T22:01:33.414891
3302,0.3309,1.0438,0.4475,-20.580,28.420,-24.150,408,307,376,397,404,2025-05-23T22:01:33.414905
3303,0.3909,1.0560,0.5490,-22.260,-1.400,-28.770,396,389,368,415,409,2025-05-23T22:01:33.414914
3304,0.5383,1.0336,0.5968,-33.460,-34.020,-37.170,386,388,385,420,363,2025-05-23T22:01:33.414923
3305,0.6168,1.0204,0.5846,-35.210,-46.270,-48.160,337,410,345,408,390,2025-05-23T22:01:33.414933
3306,0.6154,1.0209,0.5524,-35.420,-36.540,-57.260,385,423,360,423,406,2025-05-23T22:01:33.414942
3307,0.5636,1.0560,0.5144,-41.090,-34.510,-65.870,419,431,354,414,405,2025-05-23T22:01:33.414951
3308,0.5353,1.0253,0.4397,-62.020,-44.170,-68.530,428,418,369,397,406,2025-05-23T22:01:33.414961
3309,0.4978,0.9887,0.3894,-83.930,-81.970,-69.650,422,382,329,409,394,2025-05-23T22:01:33.414971
3310,0.5500,0.9609,0.3401,-105.980,-144.130,-73.570,415,390,321,413,402,2025-05-23T22:01:33.415013
3311,0.8052,1.0014,0.3206,-121.380,-206.850,-80.360,406,398,351,404,410,2025-05-23T22:01:33.415024
3312,0.9906,1.1463,0.3201,-143.990,-262.640,-92.260,424,400,325,411,410,2025-05-23T22:01:33.415033
3313,1.1746,1.2361,0.3367,-164.640,-309.960,-99.960,349,393,352,357,398,2025-05-23T22:01:33.628256
3314,1.4245,1.4684,0.2786,-187.320,-360.080,-89.180,400,393,356,383,386,2025-05-23T22:01:33.628311
3315,1.6729,1.6031,-0.0615,-214.690,-438.270,-61.670,428,412,367,402,407,2025-05-23T22:01:33.628324
3316,2.3395,1.9320,-0.7222,-224.910,-504.210,-55.510,420,348,334,414,394,2025-05-23T22:01:33.628335
3317,2.8890,1.8973,-1.5201,-264.880,-552.090,-57.610,401,330,362,413,402,2025-05-23T22:01:33.628346
3318,3.2393,1.6407,-2.2028,-300.720,-545.720,-75.390,418,331,377,419,401,2025-05-23T22:01:33.628356
3319,2.9173,1.4289,-2.4922,-337.190,-500.360,-78.890,389,402,351,405,411,2025-05-23T22:01:33.628366
3320,2.5635,1.3117,-2.5108,-409.780,-484.960,-103.040,382,373,357,388,412,2025-05-23T22:01:33.628375
3321,2.7108,1.0438,-2.6303,-575.190,-515.340,-110.670,367,411,353,389,413,2025-05-23T22:01:33.628385
3322,2.3248,0.2357,-2.1550,-750.960,-474.320,-103.040,405,425,366,403,394,2025-05-23T22:01:33.628395
3323,1.9540,-1.2742,-2.0379,-828.940,-317.730,-85.960,413,403,373,409,386,2025-05-23T22:01:33.628404
3324,2.6386,-2.9495,-1.2068,-840.420,-135.450,-145.880,422,414,380,372,341,2025-05-23T22:01:33.628412
3325,1.4128,-4.5213,0.4997,-766.500,130.060,-258.230,392,425,382,350,381,2025-05-23T22:01:33.628422
3326,-0.4377,-6.5094,1.5318,-788.690,197.820,-388.710,390,379,370,335,381,2025-05-23T22:01:33.628464
3327,-0.6622,-7.3278,1.9242,-771.330,188.860,-550.900,394,421,372,337,361,2025-05-23T22:01:33.628473
3328,-1.0106,-7.4640,1.6812,-786.940,248.570,-561.190,406,434,388,339,371,2025-05-23T22:01:33.628482
3329,-2.9885,-5.4392,1.7768,-564.760,308.560,-415.310,423,409,377,381,395,2025-05-23T22:01:33.649820
3330,-3.4955,-3.2530,2.5635,-315.770,307.510,-222.180,397,419,387,381,391,2025-05-23T22:01:33.649862
3331,-1.8198,-2.4288,2.3834,19.320,218.960,-3.010,399,419,377,395,402,2025-05-23T22:01:33.678028
3332,0.0083,-2.0852,1.9174,168.630,246.120,202.160,368,422,375,391,388,2025-05-23T22:01:33.678075
3333,-0.3836,-2.0320,1.6968,163.800,155.400,303.940,346,416,371,393,389,2025-05-23T22:01:33.678088
3334,-0.8281,-2.3146,1.0634,354.550,-78.960,298.900,383,353,367,405,399,2025-05-23T22:01:33.678099
3335,-0.4748,-2.0564,0.6930,584.220,-222.390,322.070,381,382,340,410,408,2025-05-23T22:01:33.831101
3336,0.5612,-2.1882,0.4763,761.810,-317.940,291.060,399,414,371,412,318,2025-05-23T22:01:33.831148
3337,-0.2445,-1.9183,0.7725,528.850,91.140,219.870,398,428,387,410,323,2025-05-23T22:01:33.831162
3338,-0.1074,-1.6758,0.9296,354.130,305.900,268.660,389,396,390,415,371,2025-05-23T22:01:33.831174
3339,-0.4343,-1.2371,1.2825,315.490,387.310,280.490,400,360,387,405,386,2025-05-23T22:01:33.831184
3340,-0.3318,-0.6856,1.4040,293.090,415.240,315.140,417,401,372,403,400,2025-05-23T22:01:33.831194
3341,-0.2508,-0.3123,1.3166,319.130,439.670,329.490,388,366,344,423,403,2025-05-23T22:01:33.831203
3342,-0.3597,-0.0151,1.1883,289.310,382.480,321.370,398,415,349,357,388,2025-05-23T22:01:33.831212
3343,-0.2718,-0.0810,0.9677,230.720,342.510,339.570,417,396,330,395,390,2025-05-23T22:01:33.831221
3344,-0.0522,-0.0664,0.8730,168.490,331.310,304.570,398,413,353,416,402,2025-05-23T22:01:33.831230
3345,0.3494,0.2791,0.8101,219.730,315.770,341.670,405,414,367,401,401,2025-05-23T22:01:33.831240
3346,0.5895,0.5783,0.6739,275.590,269.710,374.290,413,405,370,352,365,2025-05-23T22:01:33.831250
3347,0.6944,0.8418,0.4172,300.860,284.340,378.910,406,430,375,381,376,2025-05-23T22:01:34.034613
3348,0.6568,0.9023,0.2323,260.400,305.760,380.940,369,426,353,401,392,2025-05-23T22:01:34.034659
3349,0.5397,0.8725,0.2991,271.670,283.430,373.940,423,438,378,405,382,2025-05-23T22:01:34.034671
3350,0.5788,0.8057,0.2733,248.850,247.240,382.130,407,405,363,402,382,2025-05-23T22:01:34.034682
3351,0.8984,0.8369,0.4304,184.870,150.430,370.020,400,385,357,413,375,2025-05-23T22:01:34.034692
3352,1.4259,0.5866,0.4163,67.270,56.280,346.150,421,420,378,412,382,2025-05-23T22:01:34.034702
3353,1.8232,0.5846,0.4299,30.310,-33.670,318.360,421,420,378,416,402,2025-05-23T22:01:34.034711
3354,2.8816,0.5973,0.3577,36.050,-26.810,290.990,417,409,382,422,399,2025-05-23T22:01:34.034721
3355,3.9308,0.6320,0.5256,66.430,41.300,249.690,413,405,376,411,405,2025-05-23T22:01:34.034730
3356,4.2066,0.6066,0.8955,162.820,246.400,196.350,407,398,385,396,404,2025-05-23T22:01:34.034739
3357,3.0783,0.6139,1.3898,-61.810,3.570,81.060,343,412,357,396,392,2025-05-23T22:01:34.034749
3358,1.8632,0.1337,1.2180,22.400,-78.540,-13.510,395,412,374,371,342,2025-05-23T22:01:34.034758
3359,1.2712,0.5544,0.8159,91.980,-132.930,-48.090,410,381,377,391,378,2025-05-23T22:01:34.034767
3360,0.6593,0.5012,0.3787,-6.580,-121.100,-47.390,392,396,342,365,387,2025-05-23T22:01:34.034777
3361,-0.2440,0.7501,0.1893,95.200,37.100,-32.410,393,384,357,389,396,2025-05-23T22:01:34.034818
3362,-0.8013,1.0326,0.2464,100.170,111.020,10.990,370,353,354,406,412,2025-05-23T22:01:34.034829
3363,-0.6881,1.1366,0.2235,129.360,172.830,59.430,397,385,359,389,408,2025-05-23T22:01:34.034838
3364,-0.2699,1.0585,0.3138,130.900,173.110,80.500,354,416,373,384,365,2025-05-23T22:01:34.082870
3365,0.3870,0.8384,0.4568,-21.070,18.410,71.470,383,393,336,400,358,2025-05-23T22:01:34.082914
3366,0.7920,0.6246,0.7374,-77.420,-78.960,55.020,359,396,365,390,345,2025-05-23T22:01:34.082926
3367,1.1312,0.5373,0.6246,-34.020,-82.320,10.150,403,391,374,398,379,2025-05-23T22:01:34.082935
3368,1.1863,0.5422,0.5109,1.680,-39.340,-8.610,406,407,387,413,378,2025-05-23T22:01:34.250466
3369,1.0858,0.5949,0.5168,20.230,-24.990,-26.670,355,411,383,412,399,2025-05-23T22:01:34.250516
3370,0.6730,0.7003,0.4763,20.300,-23.240,-37.940,393,403,382,417,407,2025-05-23T22:01:34.250531
3371,0.3719,0.8150,0.4592,5.950,-29.540,-38.290,411,413,384,403,400,2025-05-23T22:01:34.250542
3372,0.2762,0.8852,0.3836,-4.130,-30.590,-35.770,418,422,357,395,395,2025-05-23T22:01:34.250555
3373,0.2225,0.9511,0.2923,-0.350,-23.590,-30.660,396,426,363,398,405,2025-05-23T22:01:34.250567
3374,0.1186,0.9658,0.2508,2.310,-4.760,-18.760,419,352,376,399,408,2025-05-23T22:01:34.250578
3375,0.1118,0.9565,0.2664,2.310,7.280,-2.100,413,380,388,416,412,2025-05-23T22:01:34.250588
3376,0.2245,0.9179,0.3836,-2.800,6.650,8.820,425,410,345,415,350,2025-05-23T22:01:34.250717
3377,0.3074,0.8647,0.5197,-9.870,-9.870,16.380,424,373,363,420,378,2025-05-23T22:01:34.250727
3378,0.4182,0.8316,0.6100,-10.990,-27.510,17.010,425,386,383,409,385,2025-05-23T22:01:34.250738
3379,0.5773,0.8169,0.6207,-4.410,-26.530,10.570,404,353,373,414,351,2025-05-23T22:01:34.250749
3380,0.5758,0.8023,0.5797,1.680,-15.120,3.850,392,414,371,397,383,2025-05-23T22:01:34.250759
3381,0.5358,0.8272,0.4826,5.180,-14.420,-3.080,407,414,387,411,395,2025-05-23T22:01:34.250769
3382,0.4529,0.8203,0.4158,-3.640,-15.890,-4.270,388,374,388,372,359,2025-05-23T22:01:34.472171
3383,0.4207,0.7945,0.3518,-14.000,-15.960,-2.030,404,415,382,389,372,2025-05-23T22:01:34.472216
3384,0.4207,0.7549,0.3553,-13.300,-18.060,-1.610,397,413,343,345,395,2025-05-23T22:01:34.472228
3385,0.3958,0.7598,0.3870,-9.800,-22.750,-3.220,340,403,365,368,392,2025-05-23T22:01:34.472238
3386,0.4138,0.7759,0.3938,-11.480,-25.480,-3.920,402,423,362,399,387,2025-05-23T22:01:34.472247
3387,0.4641,0.8013,0.3728,-11.060,-15.190,-5.950,392,429,377,406,407,2025-05-23T22:01:34.472256
3388,0.4353,0.8296,0.3836,-5.180,-3.430,-7.350,390,423,382,393,409,2025-05-23T22:01:34.472265
3389,0.4338,0.8340,0.3743,0.560,12.740,-7.280,337,418,377,404,360,2025-05-23T22:01:34.472274
3390,0.3660,0.8135,0.3982,-5.880,12.810,-3.710,404,412,382,397,382,2025-05-23T22:01:34.472283
3391,0.3621,0.7998,0.4455,-16.030,-6.230,0.490,400,410,374,413,382,2025-05-23T22:01:34.472292
3392,0.4665,0.7320,0.4490,-23.870,-32.270,-0.490,392,397,379,419,391,2025-05-23T22:01:34.472300
3393,0.5475,0.7481,0.4714,-22.680,-41.510,-5.530,412,404,340,374,386,2025-05-23T22:01:34.472309
3394,0.5636,0.8062,0.4646,-16.520,-32.130,-9.170,411,406,363,379,386,2025-05-23T22:01:34.472318
3395,0.6095,0.8140,0.4143,-9.940,-1.610,-12.040,365,418,384,363,395,2025-05-23T22:01:34.472326
3396,0.5417,0.8208,0.4372,-9.170,10.360,-11.410,401,427,388,384,352,2025-05-23T22:01:34.472365
3397,0.5231,0.8130,0.4543,-9.800,3.080,-8.120,303,409,375,402,372,2025-05-23T22:01:34.472374
3398,0.5568,0.7857,0.4490,-21.350,-13.510,-10.430,369,408,386,421,381,2025-05-23T22:01:34.526825
3399,0.5783,0.7637,0.4729,-32.900,-29.750,-9.800,383,417,343,411,401,2025-05-23T22:01:34.526868
3400,0.6466,0.7340,0.4656,-46.060,-35.630,-13.930,401,413,368,374,415,2025-05-23T22:01:34.526880
3401,0.8262,0.6778,0.4768,-52.430,-27.020,-19.950,391,422,336,407,404,2025-05-23T22:01:34.526890
3402,0.9057,0.6451,0.5085,-59.430,-13.090,-31.710,410,364,366,396,416,2025-05-23T22:01:34.526899
3403,0.9789,0.5851,0.5617,-65.450,-7.980,-50.960,418,293,361,400,396,2025-05-23T22:01:34.526908
3404,1.0429,0.5563,0.5588,-70.770,-23.940,-71.470,397,369,370,391,347,2025-05-23T22:01:34.526917
3405,1.0765,0.5632,0.5451,-82.530,-47.810,-92.400,418,402,376,391,378,2025-05-23T22:01:34.748468
3406,1.1341,0.6622,0.5348,-96.600,-81.060,-108.010,426,401,381,417,383,2025-05-23T22:01:34.748520
3407,1.1575,0.6856,0.5134,-116.830,-106.120,-121.730,395,421,378,401,396,2025-05-23T22:01:34.748535
3408,1.1946,0.6730,0.4992,-130.200,-121.940,-133.140,356,413,386,355,346,2025-05-23T22:01:34.748547
3409,1.3249,0.7437,0.5314,-139.300,-132.650,-142.590,391,412,383,375,365,2025-05-23T22:01:34.748558
3410,1.3986,0.7769,0.4817,-150.850,-152.460,-147.280,397,347,387,400,400,2025-05-23T22:01:34.748569
3411,2.0716,0.9794,0.3143,-157.010,-191.310,-150.710,374,394,345,418,412,2025-05-23T22:01:34.748580
3412,2.8938,1.3054,-0.0673,-174.720,-241.780,-167.650,373,390,358,404,363,2025-05-23T22:01:34.748590
3413,3.4877,1.4967,-0.4250,-185.220,-289.940,-211.190,412,396,363,386,399,2025-05-23T22:01:34.748600
3414,4.0694,1.7500,-0.6383,-231.840,-355.880,-269.570,413,404,370,408,411,2025-05-23T22:01:34.748610
3415,4.1617,1.4538,-1.1629,-327.810,-392.280,-293.160,426,431,380,374,414,2025-05-23T22:01:34.748620
3416,3.8513,1.2376,-1.5538,-423.010,-349.160,-328.300,413,419,365,405,392,2025-05-23T22:01:34.748630
3417,2.9075,0.7632,-1.8036,-498.190,-310.170,-320.950,407,429,374,410,312,2025-05-23T22:01:34.748640
3418,1.7256,0.1845,-1.8129,-534.100,-348.880,-302.750,422,426,373,407,347,2025-05-23T22:01:34.748683
3419,1.8012,-0.7364,-1.6177,-618.870,-422.520,-309.120,410,424,383,397,367,2025-05-23T22:01:34.748693
3420,2.2067,-2.4429,-0.9331,-710.080,-412.370,-353.010,398,417,379,392,392,2025-05-23T22:01:34.748703
3421,0.9926,-4.6833,0.2499,-862.610,-147.420,-408.100,401,431,384,355,400,2025-05-23T22:01:34.748713
3422,-1.0106,-7.2497,1.4342,-912.240,-21.560,-519.820,420,406,345,371,393,2025-05-23T22:01:34.748724
3423,-1.4020,-9.0539,2.5888,-963.200,122.150,-651.700,398,379,352,358,393,2025-05-23T22:01:34.798845
3424,-2.4380,-8.5205,2.7738,-871.850,303.310,-619.640,396,419,354,395,402,2025-05-23T22:01:34.798902
3425,-4.8463,-6.1054,3.0915,-429.800,346.360,-335.580,423,407,359,415,409,2025-05-23T22:01:34.798918
3426,-4.8297,-4.1778,3.1935,22.260,268.660,-40.110,416,419,366,413,390,2025-05-23T22:01:34.798931
3427,-1.7890,-4.1265,1.9608,284.200,353.430,217.280,381,393,379,406,364,2025-05-23T22:01:34.798943
3428,-0.8154,-4.6916,0.8111,378.630,-89.390,375.200,376,393,383,390,379,2025-05-23T22:01:35.055749
3429,-0.2572,-4.1719,0.2396,518.070,-84.700,379.890,396,399,373,407,401,2025-05-23T22:01:35.055796
3430,0.3548,-3.2877,-0.1074,813.610,-248.080,371.000,419,421,370,412,414,2025-05-23T22:01:35.055809
3431,0.7598,-2.6982,0.0932,984.970,-78.190,237.300,402,427,382,395,416,2025-05-23T22:01:35.055821
3432,0.4914,-1.3610,0.4382,497.070,146.300,271.390,426,429,377,396,403,2025-05-23T22:01:35.055832
3433,0.6427,-1.0687,0.4621,366.100,280.420,317.170,398,355,377,391,400,2025-05-23T22:01:35.055842
3434,0.5392,-0.2445,0.3152,342.090,412.510,310.730,360,361,373,411,348,2025-05-23T22:01:35.055852
3435,0.6154,0.3533,0.3465,360.780,475.510,314.160,411,414,368,409,367,2025-05-23T22:01:35.055861
3436,0.8642,0.6564,0.2264,362.320,549.500,307.020,400,432,344,370,351,2025-05-23T22:01:35.055870
3437,0.8086,0.7837,0.1976,328.300,572.740,254.520,385,396,335,397,376,2025-05-23T22:01:35.055879
3438,0.3611,1.0350,0.3821,269.290,509.600,243.740,390,417,360,355,395,2025-05-23T22:01:35.055892
3439,0.1503,1.2385,0.2762,219.030,438.410,232.330,380,361,354,400,409,2025-05-23T22:01:35.055901
3440,0.2699,1.4772,0.3133,194.530,396.760,249.970,416,411,361,414,413,2025-05-23T22:01:35.055909
3441,0.4900,1.4425,0.4060,181.790,304.850,260.890,402,427,364,352,410,2025-05-23T22:01:35.055919
3442,1.3000,1.6826,0.7652,155.820,116.690,309.120,392,426,358,404,395,2025-05-23T22:01:35.055958
3443,2.1853,1.4425,0.3260,174.580,95.830,263.130,414,403,368,395,405,2025-05-23T22:01:35.055968
3444,2.0906,1.4401,0.5470,212.590,267.750,249.760,392,409,376,390,377,2025-05-23T22:01:35.055977
3445,1.1990,1.2381,0.9331,217.350,241.710,241.780,390,416,384,386,403,2025-05-23T22:01:35.055987
3446,1.1087,1.2146,0.9145,209.230,167.090,260.680,411,343,385,405,410,2025-05-23T22:01:35.055996
3447,1.7241,1.2166,0.7462,269.780,176.820,245.280,425,390,355,403,408,2025-05-23T22:01:35.056005
3448,2.0886,0.9604,0.6451,79.310,-116.760,132.860,433,396,344,417,411,2025-05-23T22:01:35.104698
3449,1.9052,1.0599,0.5222,-37.590,-224.280,65.800,419,396,330,402,406,2025-05-23T22:01:35.104746
3450,1.5977,1.0868,0.2660,4.970,12.460,88.480,407,411,342,409,399,2025-05-23T22:01:35.104759
3451,1.0775,0.9501,0.2611,-4.410,115.570,69.020,343,416,355,399,389,2025-05-23T22:01:35.104771
3452,0.7252,0.8628,0.2357,7.560,169.050,59.500,377,414,375,388,364,2025-05-23T22:01:35.104783
3453,0.5251,0.8774,0.2020,62.300,202.510,46.550,418,429,366,411,379,2025-05-23T22:01:35.157815
3454,0.7706,0.7837,0.4192,68.390,82.600,23.870,419,398,368,351,372,2025-05-23T22:01:35.157858
3455,0.5470,0.7515,0.3221,-35.210,-72.940,3.290,394,426,375,388,386,2025-05-23T22:01:35.157869
3456,0.5261,0.7193,0.4026,-45.710,-125.020,-34.370,389,420,349,343,397,2025-05-23T22:01:35.157879
3457,0.5065,0.6920,0.3060,-39.830,-127.960,-33.670,412,426,358,401,382,2025-05-23T22:01:35.260075
3458,0.5085,0.7642,0.3431,-26.670,-42.000,-26.810,407,400,340,416,390,2025-05-23T22:01:35.260128
3459,0.3650,0.7852,0.3436,-17.850,19.460,-26.180,415,389,358,361,390,2025-05-23T22:01:35.260142
3460,0.1137,0.8774,0.3802,6.790,57.750,-14.700,408,403,362,379,384,2025-05-23T22:01:35.260277
3461,-0.0454,0.9897,0.4621,31.080,65.310,0.000,357,402,335,400,384,2025-05-23T22:01:35.260290
3462,-0.1303,1.0136,0.5417,37.450,36.190,7.070,382,420,330,391,379,2025-05-23T22:01:35.260302
3463,-0.0098,1.0004,0.5632,14.210,-27.720,9.310,392,422,371,403,382,2025-05-23T22:01:35.260313
3464,0.2469,0.9443,0.5178,-3.500,-61.460,13.020,394,431,372,355,382,2025-05-23T22:01:35.260324
3465,0.4138,0.9267,0.4612,-5.670,-66.360,6.860,420,398,382,355,392,2025-05-23T22:01:35.260334
3466,0.4568,0.9794,0.2928,0.210,-0.490,10.710,362,376,352,377,407,2025-05-23T22:01:35.314076
3467,0.2718,0.9697,0.2435,10.430,41.930,13.860,394,298,333,383,408,2025-05-23T22:01:35.314177
3468,0.2191,0.9716,0.2508,14.560,61.810,19.320,402,327,365,393,401,2025-05-23T22:01:35.314192
3469,0.0971,0.9780,0.3348,25.130,53.270,30.870,416,337,362,398,350,2025-05-23T22:01:35.314205
3470,0.2972,0.8999,0.4075,-0.560,-37.520,21.490,415,412,327,403,365,2025-05-23T22:01:35.463652
3471,0.4465,0.8633,0.4285,-15.400,-83.510,9.660,421,408,318,401,339,2025-05-23T22:01:35.463724
3472,0.5588,0.8520,0.3450,-19.740,-73.850,-3.710,412,413,342,399,366,2025-05-23T22:01:35.463737
3473,0.3836,0.8999,0.2830,-0.700,-3.010,5.740,416,379,365,389,365,2025-05-23T22:01:35.463748
3474,0.2616,0.9209,0.2996,11.410,38.220,9.310,414,428,382,393,386,2025-05-23T22:01:35.463758
3475,0.1693,0.9248,0.2821,8.680,58.450,20.510,399,423,385,384,358,2025-05-23T22:01:35.463768
3476,0.1781,0.8472,0.3382,-0.700,30.800,18.830,423,421,380,389,387,2025-05-23T22:01:35.463776
3477,0.1884,0.8208,0.3884,-14.630,-26.460,10.430,410,422,383,406,397,2025-05-23T22:01:35.463786
3478,0.3001,0.8569,0.4148,-14.070,-43.960,2.590,418,441,375,416,352,2025-05-23T22:01:35.463796
3479,0.3504,0.8750,0.3562,-8.610,-29.400,-4.550,423,405,371,394,373,2025-05-23T22:01:35.463805
3480,0.3460,0.8769,0.3362,8.050,11.130,-0.350,398,375,361,400,402,2025-05-23T22:01:35.463814
3481,0.3270,0.9057,0.3655,14.280,27.160,1.330,392,398,365,395,396,2025-05-23T22:01:35.463822
3482,0.1879,0.9057,0.3992,15.960,29.820,4.620,349,409,370,393,405,2025-05-23T22:01:35.463831
3483,0.1357,0.8994,0.4397,7.000,5.880,8.190,397,415,365,392,354,2025-05-23T22:01:35.669803
3484,0.2377,0.8950,0.4211,-4.690,-16.520,6.370,399,410,337,411,370,2025-05-23T22:01:35.669851
3485,0.2791,0.9101,0.3875,-3.710,-22.750,2.590,415,421,358,399,395,2025-05-23T22:01:35.669864
3486,0.3362,0.9248,0.3138,3.710,-15.960,-1.120,344,423,361,413,403,2025-05-23T22:01:35.669875
3487,0.3899,0.9443,0.2796,7.840,4.200,-1.120,404,433,363,395,411,2025-05-23T22:01:35.669886
3488,0.3645,0.9340,0.2943,6.230,15.330,-1.750,409,405,373,396,360,2025-05-23T22:01:35.669897
3489,0.3079,0.9052,0.3426,7.070,11.620,-0.210,421,419,367,386,386,2025-05-23T22:01:35.669908
3490,0.2923,0.8960,0.3797,2.450,1.470,-0.840,431,343,361,393,387,2025-05-23T22:01:35.669918
3491,0.2640,0.8808,0.3738,-2.660,-13.020,-3.010,403,387,367,384,405,2025-05-23T22:01:35.669928
3492,0.3084,0.8843,0.3728,-5.110,-26.460,-6.370,393,343,363,381,408,2025-05-23T22:01:35.669937
3493,0.3782,0.9150,0.3645,-8.260,-29.750,-14.840,396,334,378,412,360,2025-05-23T22:01:35.669947
3494,0.4343,0.9321,0.3558,-14.070,-23.590,-20.720,342,395,339,394,393,2025-05-23T22:01:35.669955
3495,0.5139,0.9340,0.3933,-16.940,-10.640,-35.490,409,336,318,402,393,2025-05-23T22:01:35.669964
3496,0.4973,0.9311,0.4436,-23.870,7.140,-42.910,342,382,306,368,409,2025-05-23T22:01:35.669972
3497,0.4109,0.8950,0.4738,-30.030,9.870,-49.630,325,408,314,401,403,2025-05-23T22:01:35.669982
3498,0.4031,0.8555,0.5022,-38.710,-1.610,-53.830,388,366,345,407,414,2025-05-23T22:01:35.670025
3499,0.4465,0.8320,0.5314,-44.310,-22.260,-61.600,421,383,356,405,396,2025-05-23T22:01:35.670035
3500,0.4943,0.8203,0.4943,-49.140,-36.960,-69.090,408,424,364,373,405,2025-05-23T22:01:35.719583
3501,0.5217,0.8291,0.4792,-49.000,-45.920,-73.220,412,309,361,377,409,2025-05-23T22:01:35.719638
3502,0.5641,0.8374,0.4597,-49.560,-58.590,-77.980,419,390,375,388,371,2025-05-23T22:01:35.719655
3503,0.6437,0.9087,0.4426,-51.800,-73.220,-82.950,409,410,387,407,391,2025-05-23T22:01:35.719665
3504,0.7291,0.9819,0.4553,-63.350,-93.380,-89.530,342,374,380,368,386,2025-05-23T22:01:35.770887
3505,0.7369,1.0858,0.4568,-87.010,-121.940,-92.750,385,402,379,404,364,2025-05-23T22:01:35.770935
3506,0.7959,1.1829,0.5017,-117.320,-176.540,-95.410,398,432,307,390,380,2025-05-23T22:01:35.770949
3507,0.8613,1.2576,0.4607,-143.920,-252.840,-98.070,391,406,308,386,354,2025-05-23T22:01:35.770960
3508,1.0848,1.3278,0.4782,-178.430,-339.360,-93.240,395,418,307,410,397,2025-05-23T22:01:35.874539
3509,1.5582,1.3117,0.2669,-225.960,-424.340,-96.390,420,356,338,417,392,2025-05-23T22:01:35.874584
3510,1.9091,1.3440,-0.1371,-258.160,-464.030,-95.900,348,385,356,415,380,2025-05-23T22:01:35.874597
3511,2.7718,1.5152,-0.5544,-256.760,-430.150,-87.430,362,418,351,416,364,2025-05-23T22:01:35.874608
3512,2.9587,1.9232,-0.7862,-271.880,-346.920,-89.180,404,434,364,372,340,2025-05-23T22:01:35.874618
3513,2.7787,1.9500,-1.1092,-293.720,-295.470,-87.640,374,411,367,384,373,2025-05-23T22:01:35.874628
3514,2.5537,1.7588,-1.0804,-328.090,-266.980,-90.720,386,429,363,386,399,2025-05-23T22:01:35.874637
3515,2.3317,1.5074,-1.1273,-383.950,-292.460,-104.580,384,431,360,369,387,2025-05-23T22:01:35.874647
3516,2.1872,1.3884,-1.3810,-437.080,-317.030,-94.150,403,419,370,379,395,2025-05-23T22:01:35.874656
3517,2.0262,0.8242,-1.6831,-494.340,-317.870,-102.130,407,411,372,394,399,2025-05-23T22:01:36.078580
3518,1.8803,0.1025,-1.7251,-542.850,-297.710,-126.000,403,425,382,404,400,2025-05-23T22:01:36.078628
3519,1.8237,-1.0760,-1.2864,-580.300,-260.190,-175.420,404,408,386,416,383,2025-05-23T22:01:36.078641
3520,1.6065,-2.5303,-0.3558,-630.000,-165.410,-206.570,406,379,378,361,395,2025-05-23T22:01:36.078653
3521,0.2952,-4.2500,0.4534,-786.380,-25.970,-289.240,388,424,386,402,396,2025-05-23T22:01:36.078663
3522,-1.5840,-6.5314,1.4196,-861.560,63.420,-443.590,401,416,353,408,358,2025-05-23T22:01:36.078673
3523,-1.9564,-8.2555,2.5576,-893.900,-49.350,-610.400,416,400,372,371,375,2025-05-23T22:01:36.078682
3524,-1.1492,-7.4542,2.8865,-821.450,-268.870,-544.250,390,375,349,400,389,2025-05-23T22:01:36.078692
3525,-0.3279,-4.9171,2.7879,-547.540,-28.070,-421.540,389,391,362,419,387,2025-05-23T22:01:36.078702
3526,-1.7046,-2.5083,1.9427,-169.820,339.290,-156.240,391,418,380,408,382,2025-05-23T22:01:36.078712
3527,-2.5098,-1.2249,0.8969,104.370,525.070,136.150,413,403,385,413,395,2025-05-23T22:01:36.078721
3528,-1.2361,-1.8339,0.9360,234.920,580.020,291.690,388,353,370,416,347,2025-05-23T22:01:36.078730
3529,-0.8794,-2.6459,1.1683,345.240,307.160,302.610,413,394,366,421,377,2025-05-23T22:01:36.320822
3530,-0.6520,-2.5879,0.9087,418.390,-82.390,240.240,395,387,378,423,399,2025-05-23T22:01:36.320926
3531,0.8633,-1.4830,1.1195,488.950,-535.990,430.780,404,364,354,424,399,2025-05-23T22:01:36.320942
3532,0.6627,-2.2399,-0.0981,558.600,-225.610,203.910,390,416,372,418,398,2025-05-23T22:01:36.320956
3533,0.5251,-1.7285,0.7818,378.140,292.180,153.370,406,434,371,398,369,2025-05-23T22:01:36.320968
3534,-0.3977,-1.5216,1.3664,326.130,432.460,180.250,418,409,376,404,302,2025-05-23T22:01:36.320981
3535,-0.7530,-1.1053,1.5104,329.840,512.610,232.260,406,400,372,351,348,2025-05-23T22:01:36.320994
3536,-0.8550,-0.5334,1.4015,361.270,539.000,245.000,378,408,340,336,385,2025-05-23T22:01:36.321005
3537,-0.7920,-0.0210,1.2961,400.190,512.470,252.070,410,428,367,390,387,2025-05-23T22:01:36.321019
3538,-0.8306,-0.0805,1.1107,235.550,363.370,231.700,343,338,344,400,358,2025-05-23T22:01:36.321030
3539,-0.4138,0.0781,0.9018,87.850,327.180,210.770,348,358,367,396,395,2025-05-23T22:01:36.321040
3540,0.1259,0.2284,0.6944,157.290,377.160,274.820,383,395,380,377,403,2025-05-23T22:01:36.321051
3541,0.3660,0.6778,0.5754,271.180,365.890,334.670,410,410,345,402,410,2025-05-23T22:01:36.321062
3542,0.4211,1.2010,0.4812,338.870,318.570,346.780,426,351,368,357,411,2025-05-23T22:01:36.321073
3543,0.2289,1.3888,0.3382,348.040,339.080,344.050,415,375,348,386,411,2025-05-23T22:01:36.321084
3544,0.8398,1.2063,0.2040,265.090,284.900,359.100,400,410,326,392,375,2025-05-23T22:01:36.321326
3545,1.3522,0.9736,0.4075,171.360,183.750,319.410,411,399,360,412,361,2025-05-23T22:01:36.321339
3546,1.2068,0.8569,0.4968,131.390,166.810,285.600,395,427,371,386,338,2025-05-23T22:01:36.321348
3547,1.1468,0.9414,0.7989,115.430,177.240,272.860,417,426,383,408,370,2025-05-23T22:01:36.321358
3548,1.4152,1.0702,0.8355,89.880,182.280,262.080,402,430,378,417,377,2025-05-23T22:01:36.321367
3549,1.6553,1.1375,0.6998,88.340,226.100,242.130,409,423,378,356,334,2025-05-23T22:01:36.321377
3550,1.7134,1.1463,0.4241,81.130,265.860,226.520,303,340,380,386,366,2025-05-23T22:01:36.331385
3551,1.3630,1.0960,0.5632,76.790,272.930,223.370,382,405,386,407,374,2025-05-23T22:01:36.331431
3552,0.9052,0.9389,0.9560,53.340,225.750,215.180,392,378,389,413,378,2025-05-23T22:01:36.331443
3553,0.8472,0.7110,1.0985,35.490,160.580,189.350,415,401,388,377,377,2025-05-23T22:01:36.331453
3554,1.0380,0.6061,1.2351,32.620,23.240,151.620,415,421,378,403,390,2025-05-23T22:01:36.489024
3555,1.4064,0.6495,1.1073,64.470,-103.250,91.910,431,426,374,395,379,2025-05-23T22:01:36.489071
3556,1.6885,0.7335,0.5222,122.220,-114.240,56.210,411,401,382,376,396,2025-05-23T22:01:36.489086
3557,1.3083,0.7144,0.4685,187.740,29.050,33.880,401,412,388,363,347,2025-05-23T22:01:36.489098
3558,0.6666,0.9970,0.5129,188.580,115.780,24.780,392,395,378,342,371,2025-05-23T22:01:36.489109
3559,0.0556,1.1351,0.4265,156.940,172.410,43.680,411,419,368,397,380,2025-05-23T22:01:36.489119
3560,-0.0439,1.0975,0.3152,173.180,187.670,32.340,423,352,300,349,393,2025-05-23T22:01:36.489129
3561,0.2040,0.9921,0.0464,43.190,6.510,28.000,404,392,344,395,412,2025-05-23T22:01:36.489140
3562,0.3440,0.8511,0.1225,-89.390,-170.520,-1.050,367,410,370,409,410,2025-05-23T22:01:36.489151
3563,0.3616,0.9150,0.2303,-191.870,-267.260,-26.670,400,425,359,413,413,2025-05-23T22:01:36.489162
3564,0.3143,0.9106,0.2718,-48.860,-80.150,-35.280,386,422,363,353,396,2025-05-23T22:01:36.489173
3565,0.0839,0.9760,0.5768,4.970,36.120,-7.280,422,394,376,402,356,2025-05-23T22:01:36.489183
3566,0.0142,0.9701,0.5998,13.160,62.090,-0.490,308,428,378,400,356,2025-05-23T22:01:36.489193
3567,0.0659,1.0077,0.4416,53.480,118.510,12.810,328,425,377,396,355,2025-05-23T22:01:36.538059
3568,0.1508,0.9384,0.3792,62.020,38.290,15.190,397,397,337,387,365,2025-05-23T22:01:36.538140
3569,0.1732,0.9550,0.2274,-9.660,-84.910,10.640,407,387,345,384,401,2025-05-23T22:01:36.538156
3570,0.3787,0.9062,0.3850,-37.520,-133.140,7.070,405,416,356,406,399,2025-05-23T22:01:36.538169
3571,0.5348,0.8608,0.3860,-28.630,-109.690,-14.070,412,409,330,414,394,2025-05-23T22:01:36.695732
3572,0.3597,0.8823,0.3709,6.720,-13.300,2.660,379,415,357,349,342,2025-05-23T22:01:36.695789
3573,0.2669,0.9121,0.3836,23.520,15.120,2.520,418,409,359,371,364,2025-05-23T22:01:36.695806
3574,0.1098,0.9467,0.3060,32.130,32.830,19.810,354,429,381,399,393,2025-05-23T22:01:36.695820
3575,0.1113,0.8965,0.3889,39.060,-16.590,14.350,330,382,344,366,404,2025-05-23T22:01:36.695834
3576,0.2889,0.8359,0.2089,-22.820,-85.750,2.310,355,401,349,370,356,2025-05-23T22:01:36.695848
3577,0.4216,0.7852,0.3392,-32.760,-102.200,-9.590,414,399,368,384,340,2025-05-23T22:01:36.695985
3578,0.3660,0.8808,0.2640,-15.820,-43.540,-11.690,376,419,360,355,364,2025-05-23T22:01:36.695999
3579,0.1527,0.9335,0.4070,15.120,28.210,-0.560,407,415,357,380,392,2025-05-23T22:01:36.696011
3580,0.0761,1.0487,0.4006,26.390,51.170,7.070,359,397,373,382,404,2025-05-23T22:01:36.696023
3581,0.1191,0.9677,0.3133,33.390,70.350,19.600,381,418,382,368,412,2025-05-23T22:01:36.696035
3582,0.2123,0.8833,0.3484,14.140,-14.280,0.700,413,415,369,386,360,2025-05-23T22:01:36.696047
3583,0.2704,0.8589,0.4436,-51.170,-90.370,-1.260,418,412,367,380,339,2025-05-23T22:01:36.696059
3584,0.2874,0.8579,0.4338,-24.710,-82.670,-13.510,418,416,378,389,369,2025-05-23T22:01:36.896997
3585,0.2865,0.9516,0.2938,-3.360,-18.060,-2.940,406,351,380,400,400,2025-05-23T22:01:36.897110
3586,0.3187,0.9911,0.3084,14.700,21.910,1.750,423,385,378,401,386,2025-05-23T22:01:36.897127
3587,0.2786,1.0570,0.2650,14.210,41.230,6.580,383,415,380,413,388,2025-05-23T22:01:36.897140
3588,0.2172,1.0136,0.3045,6.720,40.950,11.760,411,409,385,405,387,2025-05-23T22:01:36.897153
3589,0.1376,0.9692,0.3343,-11.270,2.660,7.980,401,421,380,311,387,2025-05-23T22:01:36.897168
3590,0.2040,0.9028,0.3601,-14.420,-31.360,5.320,405,396,373,369,404,2025-05-23T22:01:36.897182
3591,0.3011,0.8574,0.3626,-13.720,-44.590,4.060,357,339,368,354,354,2025-05-23T22:01:36.897195
3592,0.3733,0.8618,0.3377,-9.590,-29.120,1.400,329,398,386,395,389,2025-05-23T22:01:36.897207
3593,0.3626,0.8740,0.3606,2.520,-2.240,3.710,395,413,386,400,361,2025-05-23T22:01:36.897219
3594,0.2542,0.9008,0.4021,10.500,17.150,3.920,388,380,394,422,377,2025-05-23T22:01:36.897232
3595,0.2186,0.9179,0.3743,6.020,21.630,5.040,390,414,393,427,381,2025-05-23T22:01:36.897376
3596,0.2274,0.8579,0.3675,-3.430,1.190,4.270,418,412,384,376,362,2025-05-23T22:01:36.897391
3597,0.3436,0.7774,0.3953,-12.530,-28.000,0.770,363,397,384,379,339,2025-05-23T22:01:36.897405
3598,0.4748,0.7442,0.4255,-12.460,-39.060,-8.260,400,405,378,403,364,2025-05-23T22:01:36.897417
3599,0.5910,0.7579,0.4660,-8.190,-28.560,-14.490,345,414,307,392,394,2025-05-23T22:01:36.897485
3600,0.6349,0.7979,0.5119,-6.720,-2.520,-18.830,398,356,336,399,401,2025-05-23T22:01:36.897498
3601,0.5827,0.7798,0.5217,-18.130,3.780,-29.190,398,414,326,401,389,2025-05-23T22:01:36.947445
3602,0.6163,0.7842,0.5534,-29.610,-7.770,-44.660,408,403,348,354,399,2025-05-23T22:01:36.947501
3603,0.7125,0.7403,0.5202,-39.410,-38.780,-60.270,403,344,354,397,348,2025-05-23T22:01:36.947516
3604,0.7715,0.8106,0.5461,-37.100,-52.430,-74.900,402,407,355,388,350,2025-05-23T22:01:36.947529
3605,0.8086,0.9301,0.6007,-32.130,-61.880,-92.190,424,415,374,389,387,2025-05-23T22:01:37.107437
3606,0.8081,1.0136,0.7183,-41.580,-63.770,-102.270,400,420,371,389,397,2025-05-23T22:01:37.107471
3607,0.7149,1.1683,0.9160,-70.000,-83.790,-106.190,419,422,366,405,381,2025-05-23T22:01:37.107480
3608,0.8052,1.2869,0.8813,-117.390,-126.350,-107.730,398,406,364,395,378,2025-05-23T22:01:37.107487
3609,1.1512,1.3879,0.7749,-157.500,-164.150,-106.680,424,357,328,408,393,2025-05-23T22:01:37.107495
3610,1.3659,1.7148,0.7544,-178.710,-211.260,-106.470,395,405,357,398,403,2025-05-23T22:01:37.107503
3611,1.9071,1.8695,0.5163,-215.950,-275.310,-98.000,405,338,360,360,364,2025-05-23T22:01:37.107510
3612,2.4805,1.9452,0.3528,-260.330,-356.300,-105.560,373,404,377,400,357,2025-05-23T22:01:37.107517
3613,3.0783,1.9130,0.1649,-306.950,-457.170,-137.620,415,395,371,408,394,2025-05-23T22:01:37.107524
3614,3.9172,1.8124,-0.3767,-358.470,-530.600,-196.770,390,423,370,415,393,2025-05-23T22:01:37.107530
3615,4.3554,1.7744,-1.0082,-408.520,-489.160,-253.050,396,406,382,372,403,2025-05-23T22:01:37.107537
3616,3.7410,1.4128,-1.5997,-457.660,-429.380,-277.900,423,395,376,300,312,2025-05-23T22:01:37.107543
3617,2.7787,1.0575,-1.7622,-463.750,-382.340,-272.300,424,403,373,369,318,2025-05-23T22:01:37.107550
3618,1.6055,0.3665,-1.8617,-508.900,-372.470,-257.110,350,395,377,393,374,2025-05-23T22:01:37.187812
3619,2.4581,-0.7164,-1.5118,-573.440,-462.700,-304.500,399,423,369,409,388,2025-05-23T22:01:37.187858
3620,2.2946,-2.6528,-0.6251,-807.170,-395.080,-392.140,376,414,349,395,404,2025-05-23T22:01:37.187871
3621,0.6120,-5.0962,0.0029,-831.110,-13.790,-464.590,391,426,367,391,391,2025-05-23T22:01:37.187883
3622,-1.8310,-7.7734,0.9984,-815.290,87.920,-617.050,411,399,379,410,392,2025-05-23T22:01:37.187895
3623,-2.9119,-9.8703,1.3610,-975.940,161.070,-792.050,408,377,379,391,404,2025-05-23T22:01:37.187905
3624,-3.5214,-8.2657,1.9564,-800.730,69.160,-607.110,386,413,385,403,383,2025-05-23T22:01:37.187915
3625,-3.5292,-4.2510,3.1715,-541.660,137.760,-348.530,413,394,372,353,404,2025-05-23T22:01:37.268573
3626,-3.2120,-2.1897,2.2892,-112.210,323.540,-6.580,420,432,384,339,401,2025-05-23T22:01:37.268616
3627,-2.3531,-1.6045,1.0189,246.960,472.570,222.390,419,415,377,371,403,2025-05-23T22:01:37.268628
3628,-1.3566,-2.0003,0.8335,171.010,71.050,439.320,404,404,345,381,399,2025-05-23T22:01:37.268637
3629,-0.6446,-2.6655,0.2904,288.400,-66.080,402.500,393,409,347,383,395,2025-05-23T22:01:37.319699
3630,0.6700,-1.9291,0.3528,473.200,-341.040,414.540,420,424,373,386,411,2025-05-23T22:01:37.319757
3631,0.5651,-2.3395,-0.1425,930.440,-591.570,592.620,417,427,360,414,361,2025-05-23T22:01:37.319773
3632,0.6837,-0.8852,0.2172,466.620,137.480,219.310,392,423,362,414,355,2025-05-23T22:01:37.319788
3633,0.2821,-0.8974,0.7618,434.070,360.780,229.460,377,418,377,425,381,2025-05-23T22:01:37.319801
3634,-0.2738,-0.5344,1.1024,365.260,481.740,254.310,416,419,384,362,358,2025-05-23T22:01:37.319813
3635,-0.8560,-0.0722,1.2298,345.660,541.800,313.460,431,412,350,338,392,2025-05-23T22:01:37.319825
3636,-0.8672,-0.1347,1.4752,488.320,664.930,313.950,377,388,379,383,400,2025-05-23T22:01:37.366394
3637,-1.1385,0.0849,1.3078,295.120,410.830,250.460,370,389,386,398,403,2025-05-23T22:01:37.366442
3638,-0.9438,0.1396,0.9433,58.170,125.510,162.260,419,391,381,402,408,2025-05-23T22:01:37.366457
3639,-0.5919,0.1035,0.6710,-185.290,68.180,103.950,402,399,384,399,394,2025-05-23T22:01:37.366468
3640,-0.3392,0.2767,0.8750,-84.070,159.950,132.860,345,411,379,399,393,2025-05-23T22:01:37.422365
3641,0.0327,1.1624,0.6368,130.970,267.330,220.220,396,365,383,417,385,2025-05-23T22:01:37.422417
3642,-0.1488,1.0399,0.9335,212.730,291.270,242.200,413,405,372,395,402,2025-05-23T22:01:37.422432
3643,0.1347,1.1336,0.8804,254.240,252.630,265.650,405,343,368,386,410,2025-05-23T22:01:37.422444
3644,0.4104,0.9511,0.7715,318.080,212.310,302.540,421,410,369,386,417,2025-05-23T22:01:37.513649
3645,0.4177,0.8911,0.9106,200.550,98.280,255.430,425,419,384,359,409,2025-05-23T22:01:37.513690
3646,0.3714,1.0824,0.6373,226.590,76.860,219.380,421,394,384,402,417,2025-05-23T22:01:37.513703
3647,0.6407,1.1732,0.6910,235.550,169.190,213.640,399,411,374,309,415,2025-05-23T22:01:37.513712
3648,0.6510,1.2410,0.6300,194.040,224.770,215.040,411,416,367,365,358,2025-05-23T22:01:37.513721
3649,0.5270,1.1683,0.5675,169.680,274.400,222.740,418,427,361,386,395,2025-05-23T22:01:37.513729
3650,0.4431,0.9882,0.6476,165.690,270.480,227.010,400,409,369,412,397,2025-05-23T22:01:37.513739
3651,0.4890,0.8589,0.8516,138.180,212.800,209.230,403,388,344,314,353,2025-05-23T22:01:37.513748
3652,0.6759,0.9477,0.9570,56.070,102.690,184.310,390,401,353,320,399,2025-05-23T22:01:37.571505
3653,0.8926,0.8730,0.8896,20.650,68.740,156.380,396,364,336,351,371,2025-05-23T22:01:37.571545
3654,0.9643,0.8789,0.5856,73.360,117.390,160.510,401,400,362,333,396,2025-05-23T22:01:37.571557
3655,1.0712,0.9584,0.3465,101.990,146.020,158.410,365,414,378,375,404,2025-05-23T22:01:37.571566
3656,1.0629,0.8994,0.0927,103.390,153.930,156.590,368,395,374,386,405,2025-05-23T22:01:37.571576
3657,0.6944,0.8413,0.3030,96.670,134.750,159.880,390,405,375,388,402,2025-05-23T22:01:37.619404
3658,0.8135,0.8267,0.6183,53.060,55.090,145.600,418,371,365,343,395,2025-05-23T22:01:37.619449
3659,1.1932,0.7832,0.7666,-10.430,-80.430,108.710,422,418,367,375,389,2025-05-23T22:01:37.619461
3660,1.1800,0.8677,0.5392,-22.120,-70.070,65.940,408,428,382,389,403,2025-05-23T22:01:37.619472
3661,1.0009,0.9038,0.5363,33.320,47.040,51.590,413,425,385,400,404,2025-05-23T22:01:37.674787
3662,0.6939,0.8525,0.3714,52.360,89.320,43.470,393,418,375,413,393,2025-05-23T22:01:37.674836
3663,0.5100,0.8955,0.3206,68.040,131.390,55.230,401,423,337,411,382,2025-05-23T22:01:37.674848
3664,0.3831,0.8950,0.2469,49.700,110.880,39.340,404,405,369,396,385,2025-05-23T22:01:37.674859
3665,0.4426,0.8208,0.2186,-35.210,-31.990,17.290,390,425,365,402,392,2025-05-23T22:01:37.949502
3666,0.5549,0.7652,0.3211,-95.200,-84.000,-8.470,377,405,369,384,412,2025-05-23T22:01:37.949550
3667,0.5187,0.7022,0.2338,-77.210,-85.540,-27.300,395,410,368,337,398,2025-05-23T22:01:37.949563
3668,0.3104,0.8237,0.2918,-28.350,-5.460,-12.880,429,398,379,376,409,2025-05-23T22:01:37.949585
3669,0.2015,0.9301,0.4285,-1.470,29.050,-7.560,398,348,388,345,400,2025-05-23T22:01:37.949596
3670,0.0981,1.0209,0.4714,7.490,44.590,3.220,396,385,342,394,316,2025-05-23T22:01:37.949608
3671,0.0825,1.0082,0.5178,19.740,19.390,10.220,349,390,371,403,354,2025-05-23T22:01:37.949620
3672,0.1640,0.9794,0.5134,7.210,-21.560,9.940,410,411,375,392,371,2025-05-23T22:01:37.949630
3673,0.2845,0.9096,0.4504,-3.290,-42.770,11.130,424,410,365,407,393,2025-05-23T22:01:37.949638
3674,0.3494,0.8574,0.3328,-11.200,-37.030,7.700,393,339,373,410,349,2025-05-23T22:01:37.949648
3675,0.4504,0.8496,0.2894,-4.760,-21.140,3.430,412,333,372,389,385,2025-05-23T22:01:37.949657
3676,0.4548,0.8677,0.2094,-4.410,-6.440,-3.290,391,388,372,391,386,2025-05-23T22:01:37.949666
3677,0.2991,0.9282,0.2103,-2.870,1.190,-6.160,422,429,369,386,401,2025-05-23T22:01:37.949674
3678,0.1537,0.9721,0.2572,-2.310,1.050,-4.340,409,422,382,407,387,2025-05-23T22:01:37.949687
3679,0.0927,0.9614,0.3240,-6.300,-7.770,0.140,393,423,376,418,403,2025-05-23T22:01:37.949727
3680,0.1215,0.9213,0.3504,-14.000,-23.380,3.360,338,397,380,367,403,2025-05-23T22:01:37.949737
3681,0.2084,0.8813,0.3133,-14.420,-24.430,2.450,400,410,385,390,410,2025-05-23T22:01:37.949746
3682,0.3211,0.8584,0.2728,-9.310,-14.350,1.680,414,367,377,398,414,2025-05-23T22:01:37.949754
3683,0.3079,0.8984,0.2660,-0.700,9.100,0.140,397,338,373,407,409,2025-05-23T22:01:37.949763
3684,0.2264,0.9511,0.3196,7.910,19.600,0.490,420,360,342,407,402,2025-05-23T22:01:37.949772
3685,0.1664,0.9662,0.3484,6.370,13.860,2.590,425,401,362,371,404,2025-05-23T22:01:37.949781
3686,0.1884,0.9423,0.3845,-0.840,-7.490,5.600,415,412,377,377,403,2025-05-23T22:01:38.127275
3687,0.2904,0.8872,0.3631,-10.360,-15.820,3.920,421,391,374,394,365,2025-05-23T22:01:38.127334
3688,0.3548,0.8623,0.3055,-8.050,-6.930,0.280,406,423,377,384,393,2025-05-23T22:01:38.127349
3689,0.3860,0.9072,0.2508,1.260,23.030,-1.890,427,404,343,390,359,2025-05-23T22:01:38.127362
3690,0.2782,0.9218,0.2635,9.730,43.890,-0.840,397,417,352,412,339,2025-05-23T22:01:38.127375
3691,0.1976,0.9418,0.3040,9.450,41.370,3.290,417,398,330,392,384,2025-05-23T22:01:38.127388
3692,0.1967,0.9135,0.3728,2.940,11.900,5.320,420,304,359,386,347,2025-05-23T22:01:38.127400
3693,0.2157,0.9145,0.3738,-6.510,-12.250,3.920,416,385,374,410,335,2025-05-23T22:01:38.127413
3694,0.3133,0.9350,0.3523,-7.560,-17.150,5.180,427,400,340,410,385,2025-05-23T22:01:38.127426
3695,0.3309,0.9360,0.2908,-5.530,3.570,4.200,411,413,348,362,392,2025-05-23T22:01:38.127438
3696,0.3592,0.9326,0.2572,3.850,37.660,3.010,392,423,355,387,393,2025-05-23T22:01:38.127449
3697,0.2469,0.9223,0.2596,5.530,53.970,0.490,388,435,353,389,390,2025-05-23T22:01:38.127460
3698,0.1401,0.8813,0.2743,10.850,49.630,4.550,419,407,367,405,402,2025-05-23T22:01:38.127472
3699,0.1786,0.8965,0.3411,4.480,22.400,4.620,408,436,342,424,356,2025-05-23T22:01:38.127483
3700,0.2430,0.8965,0.3640,-7.980,-12.600,-1.960,369,398,368,417,389,2025-05-23T22:01:38.127494
3701,0.2762,0.9091,0.3821,-8.540,-25.270,-6.510,406,362,382,399,400,2025-05-23T22:01:38.127545
3702,0.3021,0.9292,0.4119,-10.080,-23.730,-10.990,375,334,385,383,399,2025-05-23T22:01:38.127560
3703,0.3465,0.9331,0.4475,-12.250,-20.510,-15.260,333,396,382,364,396,2025-05-23T22:01:38.335954
3704,0.3816,0.9223,0.4958,-19.250,-21.980,-21.280,354,409,387,390,398,2025-05-23T22:01:38.336009
3705,0.3714,0.8740,0.5095,-20.580,-26.740,-25.060,362,396,351,339,398,2025-05-23T22:01:38.336024
3706,0.3953,0.8843,0.5441,-22.330,-31.360,-34.650,390,420,375,383,389,2025-05-23T22:01:38.336041
3707,0.4109,0.8755,0.5392,-32.270,-39.900,-45.360,410,425,383,384,399,2025-05-23T22:01:38.336054
3708,0.4128,0.8452,0.5729,-54.320,-59.360,-56.490,413,394,384,404,356,2025-05-23T22:01:38.336066
3709,0.4821,0.8057,0.6647,-81.270,-102.340,-70.000,418,403,388,403,387,2025-05-23T22:01:38.336077
3710,0.4860,0.8257,0.6866,-115.430,-152.390,-83.510,418,415,388,376,386,2025-05-23T22:01:38.336089
3711,0.5510,0.9970,0.6730,-147.700,-233.520,-88.900,414,408,312,390,385,2025-05-23T22:01:38.336101
3712,0.7520,1.1253,0.6705,-206.850,-329.280,-88.340,393,414,354,372,387,2025-05-23T22:01:38.336112
3713,1.2737,1.1678,0.4304,-301.210,-414.260,-78.750,394,369,368,345,379,2025-05-23T22:01:38.336123
3714,1.8041,0.9872,0.3274,-379.540,-435.400,-77.980,405,381,373,375,383,2025-05-23T22:01:38.336261
3715,2.4263,0.7671,0.2381,-412.580,-362.250,-88.060,406,423,364,403,378,2025-05-23T22:01:38.336273
3716,2.6938,0.8818,0.2860,-410.200,-287.420,-104.300,407,422,378,401,372,2025-05-23T22:01:38.336285
3717,2.8162,1.3923,0.2240,-402.920,-303.380,-108.500,374,424,385,396,390,2025-05-23T22:01:38.336337
3718,2.9016,1.9164,-0.0961,-381.990,-341.810,-125.370,413,427,389,407,344,2025-05-23T22:01:38.336348
3719,3.5282,1.6060,-0.6183,-410.830,-469.700,-162.330,346,407,389,399,374,2025-05-23T22:01:38.336358
3720,4.0621,1.3449,-0.8760,-455.840,-521.360,-204.400,409,404,387,388,341,2025-05-23T22:01:38.535721
3721,3.8611,1.2302,-1.2351,-490.910,-346.150,-204.190,417,394,344,389,386,2025-05-23T22:01:38.535775
3722,3.0617,0.7627,-1.2634,-490.770,-203.140,-228.760,348,403,363,390,399,2025-05-23T22:01:38.535790
3723,2.5274,0.2372,-1.0677,-486.640,-113.260,-266.910,379,396,298,399,410,2025-05-23T22:01:38.535804
3724,1.1614,-0.7276,-0.5412,-477.610,-137.900,-327.390,409,403,333,404,408,2025-05-23T22:01:38.535816
3725,0.7954,-2.1291,-0.5129,-543.760,-331.800,-388.010,409,410,359,393,352,2025-05-23T22:01:38.535828
3726,1.4547,-3.4843,0.2362,-665.490,-407.400,-499.030,420,426,335,390,391,2025-05-23T22:01:38.535840
3727,0.0991,-5.8662,0.7608,-830.130,-99.610,-533.750,409,348,362,395,403,2025-05-23T22:01:38.535851
3728,-1.7441,-8.1067,1.3283,-853.160,97.650,-611.240,340,405,375,419,411,2025-05-23T22:01:38.535862
3729,-2.7899,-8.7796,1.8827,-889.280,173.600,-673.680,384,429,367,410,404,2025-05-23T22:01:38.860775
3730,-1.8237,-5.9146,2.2502,-593.670,193.130,-513.870,417,418,371,402,413,2025-05-23T22:01:38.860813
3731,-2.2370,-3.0671,2.1618,-288.960,424.060,-271.390,389,418,380,396,372,2025-05-23T22:01:38.860826
3732,-3.3540,-1.1180,1.4020,-13.650,560.700,30.240,418,403,384,386,303,2025-05-23T22:01:38.860836
3733,-2.4288,-1.5182,0.7042,310.030,581.770,219.310,419,429,374,394,320,2025-05-23T22:01:38.860893
3734,-1.1405,-2.2111,1.3688,238.700,180.950,341.740,346,410,371,379,351,2025-05-23T22:01:38.860904
3735,-0.6837,-2.5488,0.8730,126.000,-163.870,351.820,380,429,380,405,368,2025-05-23T22:01:38.860914
3736,0.3650,-2.1540,0.6647,339.850,-517.020,470.190,419,424,341,416,397,2025-05-23T22:01:38.860923
3737,0.4514,-2.2629,0.3138,796.880,-383.390,437.990,388,424,323,402,393,2025-05-23T22:01:38.860932
3738,0.3274,-1.4884,0.8081,487.970,243.250,238.770,395,392,364,352,363,2025-05-23T22:01:38.860942
3739,0.0849,-1.2620,1.1107,415.870,443.310,236.950,411,400,380,385,392,2025-05-23T22:01:38.860952
3740,-0.4368,-0.8447,1.1727,452.760,571.410,275.380,418,364,350,404,366,2025-05-23T22:01:38.860960
3741,-1.0477,-0.2826,1.1805,424.690,590.100,279.090,427,380,370,415,395,2025-05-23T22:01:38.860969
3742,-1.1375,0.2508,0.9511,463.330,587.160,327.530,412,415,365,406,410,2025-05-23T22:01:38.860977
3743,-0.5841,0.0351,0.9228,312.410,423.010,253.470,421,421,378,414,417,2025-05-23T22:01:38.860985
3744,-0.1903,-0.0498,0.7623,1.890,209.440,204.330,399,415,372,408,394,2025-05-23T22:01:38.860992
3745,0.0537,0.0283,0.9531,46.130,261.100,223.440,371,392,374,419,389,2025-05-23T22:01:38.861001
3746,-0.0171,0.5866,0.6769,221.270,364.980,275.030,393,401,377,417,391,2025-05-23T22:01:38.861009
3747,0.3070,0.9755,0.8965,287.210,364.490,296.310,417,410,338,399,346,2025-05-23T22:01:38.861031
3748,0.3333,1.1263,0.6764,308.140,384.300,289.030,398,352,362,412,390,2025-05-23T22:01:38.861039
3749,0.1508,1.0941,0.5075,278.040,379.610,306.810,341,379,356,415,390,2025-05-23T22:01:38.861047
3750,0.2425,1.0643,0.6588,307.650,325.080,319.620,391,416,298,397,399,2025-05-23T22:01:38.861055
3751,0.2826,1.0824,0.7247,266.140,201.110,306.390,396,433,349,396,392,2025-05-23T22:01:38.861063
3752,0.6027,1.2488,0.6344,190.260,100.590,285.180,343,405,360,358,394,2025-05-23T22:01:38.861070
3753,0.6163,1.2546,0.4695,149.590,144.760,265.020,406,404,361,385,397,2025-05-23T22:01:38.861079
3754,0.6178,1.2786,0.6461,123.480,172.760,261.450,338,356,329,384,407,2025-05-23T22:01:38.950348
3755,0.8218,1.1361,0.7823,69.020,152.110,262.150,383,395,311,401,393,2025-05-23T22:01:38.950396
3756,1.0590,0.8330,1.0512,64.470,94.640,249.620,399,394,318,362,391,2025-05-23T22:01:38.950409
3757,1.5611,0.8242,1.0365,40.390,16.310,213.990,403,402,357,373,389,2025-05-23T22:01:38.950419
3758,1.9027,0.8276,0.7017,29.470,-15.680,175.770,404,413,375,404,311,2025-05-23T22:01:38.950430
3759,2.2160,0.9130,0.4046,57.050,63.210,151.200,415,416,344,412,331,2025-05-23T22:01:38.950439
3760,1.8407,0.8135,0.6837,67.830,119.630,135.380,405,403,356,417,372,2025-05-23T22:01:38.950449
3761,1.5665,0.7115,0.7769,46.060,94.010,126.140,419,394,364,354,371,2025-05-23T22:01:38.950458
3762,1.7973,0.4748,0.7125,17.220,49.630,99.120,391,387,328,402,380,2025-05-23T22:01:38.950467
3763,1.7114,0.5851,0.5690,-15.120,-32.340,31.990,396,406,347,398,342,2025-05-23T22:01:38.950477
3764,1.4137,0.6456,0.3743,-33.040,-35.560,-19.390,416,426,378,406,384,2025-05-23T22:01:38.950487
3765,1.0253,0.6481,0.1981,0.070,16.100,-32.480,419,418,376,414,388,2025-05-23T22:01:38.950496
3766,0.3919,0.8140,0.3216,22.120,50.260,-38.360,431,423,374,423,387,2025-05-23T22:01:38.950504
3767,-0.3353,0.9648,0.3889,32.200,70.490,-16.730,349,418,387,399,381,2025-05-23T22:01:38.950513
3768,-0.5324,1.0638,0.3201,20.300,51.450,1.680,398,367,370,399,383,2025-05-23T22:01:38.950554
3769,-0.3099,1.0189,0.1703,-37.590,-34.370,1.890,415,386,375,387,389,2025-05-23T22:01:38.950564
3770,-0.0898,0.9472,0.1771,-49.770,-45.010,2.800,420,420,371,386,390,2025-05-23T22:01:38.950573
