SeqNum,AccX,AccY,AccZ,GyroX,GyroY,GyroZ,Flex,Force1,Force2,Force3,Force4,TimestampReception
22109,-0.2547,-0.9902,0.0693,0.315,-3.325,-0.770,0.00,0.0184,0.0254,0.0200,0.0087,2025-06-09T14:02:59.875755
22110,-0.2308,0.8760,0.3958,4.095,-5.705,1.855,0.01,0.0368,0.0254,0.0100,0.0087,2025-06-09T14:02:59.875755
22111,-0.2289,0.8764,0.3899,3.640,-5.285,1.470,0.01,0.0368,0.0508,0.0100,0.0087,2025-06-09T14:02:59.875755
22112,-0.2289,0.8833,0.3919,3.640,-4.690,1.015,0.00,0.0368,0.0508,0.0100,0.0087,2025-06-09T14:02:59.875755
22113,-0.2289,0.8828,0.3875,3.325,-4.060,0.350,0.00,0.0368,0.0254,0.0200,0.0087,2025-06-09T14:02:59.875755
22114,-0.2386,0.8833,0.3938,3.010,-3.955,-0.315,0.00,0.0184,0.0254,0.0200,0.0087,2025-06-09T14:02:59.875755
22115,-0.2460,0.8789,0.3928,2.800,-5.040,-0.805,0.00,0.0184,0.0254,0.0100,0.0087,2025-06-09T14:02:59.875755
22116,-0.2469,0.8799,0.3894,2.625,-6.300,-0.980,0.01,0.0184,0.0254,0.0100,0.0087,2025-06-09T14:02:59.875755
22117,-0.2494,0.8784,0.3928,2.345,-6.860,-1.435,0.00,0.0368,0.0254,0.0200,0.0087,2025-06-09T14:02:59.875755
22118,-0.2430,0.8813,0.3899,2.030,-6.440,-1.960,0.00,0.0368,0.0254,0.0100,0.0087,2025-06-09T14:02:59.875755
22119,-0.2416,0.8843,0.3850,2.275,-5.635,-2.170,0.00,0.0184,0.0254,0.0100,0.0087,2025-06-09T14:02:59.875755
22120,-0.2474,0.8843,0.3831,2.170,-4.690,-2.415,0.01,0.0368,0.0254,0.0200,0.0087,2025-06-09T14:02:59.875755
22121,-0.2513,0.8857,0.3816,2.520,-4.515,-2.415,0.00,0.0184,0.0254,0.0100,0.0087,2025-06-09T14:02:59.875755
22122,-0.2596,0.8847,0.3831,2.520,-4.340,-2.030,0.01,0.0184,0.0254,0.0100,0.0087,2025-06-09T14:02:59.933600
22123,-0.2650,0.8847,0.3870,2.590,-4.235,-1.855,0.00,0.0184,0.0508,0.0100,0.0087,2025-06-09T14:02:59.933600
22124,-0.2655,0.8872,0.3919,2.800,-4.200,-1.540,0.01,0.0184,0.0508,0.0200,0.0087,2025-06-09T14:02:59.933600
22125,-0.2723,0.8852,0.3894,2.485,-4.900,-1.050,0.01,0.0184,0.0254,0.0200,0.0174,2025-06-09T14:02:59.933600
22126,-0.2679,0.8862,0.3904,2.485,-5.635,-0.700,0.01,0.0184,0.0508,0.0100,0.0087,2025-06-09T14:03:00.094170
22127,-0.2606,0.8828,0.3875,2.240,-5.705,-0.385,0.01,0.0184,0.0508,0.0100,0.0087,2025-06-09T14:03:00.094170
22128,-0.2523,0.8862,0.3889,2.205,-4.480,-0.245,0.01,0.0368,0.0508,0.0200,0.0174,2025-06-09T14:03:00.095167
22129,-0.2489,0.8891,0.3904,2.065,-3.115,-0.070,0.01,0.0368,0.0254,0.0200,0.0087,2025-06-09T14:03:00.095167
22130,-0.2577,0.8901,0.3836,1.610,-2.975,0.035,0.01,0.0368,0.0254,0.0200,0.0174,2025-06-09T14:03:00.095167
22131,-0.2562,0.8896,0.3894,1.260,-4.060,-0.035,0.00,0.0368,0.0254,0.0100,0.0087,2025-06-09T14:03:00.095167
22132,-0.2479,0.8891,0.3909,0.875,-4.865,-0.140,0.01,0.0184,0.0508,0.0100,0.0087,2025-06-09T14:03:00.095167
22133,-0.2377,0.8882,0.3919,0.525,-5.320,0.000,0.00,0.0368,0.0254,0.0100,0.0087,2025-06-09T14:03:00.095167
22134,-0.2362,0.8857,0.3855,0.070,-5.250,-0.070,0.01,0.0184,0.0254,0.0200,0.0087,2025-06-09T14:03:00.095167
22135,-0.2430,0.8838,0.3909,-0.420,-5.215,-0.280,0.00,0.0368,0.0254,0.0100,0.0087,2025-06-09T14:03:00.095167
22136,-0.2401,0.8799,0.3987,-0.525,-5.075,-0.315,0.00,0.0184,0.0254,0.0100,0.0087,2025-06-09T14:03:00.095167
22137,-0.2396,0.8774,0.4021,-0.525,-5.075,-0.350,0.01,0.0368,0.0508,0.0100,0.0174,2025-06-09T14:03:00.095167
22138,-0.2460,0.8784,0.4011,-0.315,-5.635,-0.420,0.01,0.0184,0.0508,0.0200,0.0087,2025-06-09T14:03:00.095167
22139,-0.2416,0.8769,0.4006,-0.070,-6.090,-0.735,0.00,0.0184,0.0508,0.0100,0.0174,2025-06-09T14:03:00.188916
22140,-0.2411,0.8804,0.3977,0.455,-6.160,-1.225,0.01,0.0184,0.0508,0.0100,0.0174,2025-06-09T14:03:00.188916
22141,-0.2396,0.8769,0.3914,0.735,-6.510,-1.505,0.01,0.0184,0.0254,0.0100,0.0174,2025-06-09T14:03:00.188916
22142,-0.2416,0.8779,0.3865,1.085,-7.210,-1.890,0.01,0.0368,0.0508,0.0200,0.0087,2025-06-09T14:03:00.188916
22143,-0.2372,0.8745,0.3880,1.505,-7.280,-2.310,0.00,0.0184,0.0254,0.0100,0.0087,2025-06-09T14:03:00.188916
22144,-0.2294,0.8760,0.3850,1.505,-6.755,-2.590,0.00,0.0184,0.0508,0.0200,0.0087,2025-06-09T14:03:00.188916
22145,-0.2284,0.8764,0.3831,2.030,-5.775,-3.115,0.00,0.0184,0.0254,0.0100,0.0174,2025-06-09T14:03:00.188916
22146,-0.2333,0.8784,0.3792,1.995,-4.725,-3.465,0.01,0.0368,0.0508,0.0100,0.0087,2025-06-09T14:03:00.388426
22147,-0.2411,0.8789,0.3709,2.415,-4.340,-3.745,0.00,0.0368,0.0254,0.0200,0.0087,2025-06-09T14:03:00.388426
22148,-0.2455,0.8808,0.3782,2.450,-4.270,-4.095,0.00,0.0184,0.0508,0.0200,0.0087,2025-06-09T14:03:00.389423
22149,-0.2401,0.8813,0.3680,2.345,-4.130,-4.340,0.01,0.0184,0.0508,0.0100,0.0087,2025-06-09T14:03:00.389423
22150,-0.2503,0.8804,0.3699,2.240,-4.235,-4.410,0.00,0.0184,0.0254,0.0200,0.0087,2025-06-09T14:03:00.389423
22151,-0.2425,0.8833,0.3709,2.030,-3.850,-4.550,0.01,0.0368,0.0000,0.0100,0.0087,2025-06-09T14:03:00.389423
22152,-0.2479,0.8852,0.3689,1.960,-3.115,-4.235,0.01,0.0368,0.0254,0.0200,0.0174,2025-06-09T14:03:00.389423
22153,-0.2508,0.8891,0.3743,1.995,-2.415,-4.165,0.00,0.0368,0.0508,0.0200,0.0087,2025-06-09T14:03:00.389423
22154,-0.2542,0.8911,0.3782,1.680,-1.925,-3.850,0.00,0.0368,0.0254,0.0200,0.0174,2025-06-09T14:03:00.389423
22155,-0.2518,0.8926,0.3772,1.750,-1.715,-3.430,0.00,0.0184,0.0254,0.0100,0.0000,2025-06-09T14:03:00.389423
22156,-0.2635,0.8935,0.3826,1.470,-2.310,-2.975,0.01,0.0368,0.0508,0.0100,0.0087,2025-06-09T14:03:00.389423
22157,-0.2547,0.8926,0.3860,1.680,-3.010,-2.450,0.00,0.0184,0.0508,0.0200,0.0087,2025-06-09T14:03:00.389423
22158,-0.2518,0.8935,0.3889,1.435,-3.115,-2.345,0.01,0.0184,0.0254,0.0100,0.0174,2025-06-09T14:03:00.389423
22159,-0.2406,0.8911,0.3899,1.155,-2.590,-2.380,0.01,0.0368,0.0508,0.0200,0.0087,2025-06-09T14:03:00.389423
22160,-0.2440,0.8940,0.3909,1.085,-2.100,-2.240,0.01,0.0184,0.0508,0.0200,0.0087,2025-06-09T14:03:00.389423
22161,-0.2489,0.8974,0.3880,0.525,-2.100,-2.170,0.01,0.0184,0.0508,0.0200,0.0087,2025-06-09T14:03:00.491180
22162,-0.2494,0.8994,0.3914,0.420,-3.010,-2.345,0.01,0.0184,0.0508,0.0100,0.0087,2025-06-09T14:03:00.491180
22163,-0.2523,0.9008,0.3919,0.000,-3.710,-2.345,0.00,0.0368,0.0508,0.0200,0.0087,2025-06-09T14:03:00.491180
22164,-0.2518,0.8984,0.3919,-0.595,-4.060,-2.170,0.00,0.0368,0.0508,0.0200,0.0087,2025-06-09T14:03:00.491180
22165,-0.2523,0.8955,0.3870,-0.490,-4.305,-1.855,0.00,0.0184,0.0254,0.0100,0.0087,2025-06-09T14:03:00.491180
22166,-0.2523,0.8935,0.3841,-0.840,-3.780,-1.540,0.00,0.0184,0.0254,0.0200,0.0000,2025-06-09T14:03:00.491180
22167,-0.2489,0.8960,0.3870,-0.700,-2.765,-0.770,0.01,0.0184,0.0254,0.0100,0.0087,2025-06-09T14:03:00.491180
22168,-0.2523,0.8935,0.3836,-0.840,-2.240,-0.210,0.01,0.0184,0.0508,0.0200,0.0087,2025-06-09T14:03:00.552070
22169,-0.2557,0.8960,0.3894,-0.630,-2.275,0.140,0.00,0.0368,0.0254,0.0100,0.0087,2025-06-09T14:03:00.552070
22170,-0.2586,0.8935,0.3889,-0.630,-2.100,0.595,0.00,0.0184,0.0508,0.0200,0.0174,2025-06-09T14:03:00.552070
22171,-0.2606,0.8930,0.3816,-0.840,-2.485,1.015,0.00,0.0184,0.0508,0.0100,0.0174,2025-06-09T14:03:00.552070
22172,-0.2552,0.8926,0.3870,-0.840,-2.870,1.470,0.01,0.0368,0.0254,0.0100,0.0174,2025-06-09T14:03:00.723070
22173,-0.2499,0.8891,0.3797,-0.910,-2.485,1.855,0.01,0.0184,0.0254,0.0100,0.0174,2025-06-09T14:03:00.723070
22174,-0.2494,0.8857,0.3836,-1.015,-1.505,2.170,0.00,0.0184,0.0254,0.0200,0.0087,2025-06-09T14:03:00.723070
22175,-0.2460,0.8872,0.3845,-0.910,-0.140,2.590,0.00,0.0184,0.0508,0.0200,0.0087,2025-06-09T14:03:00.723070
22176,-0.2508,0.8857,0.3831,-0.735,0.245,2.870,0.01,0.0184,0.0254,0.0200,0.0087,2025-06-09T14:03:00.723070
22177,-0.2591,0.8818,0.3860,-0.420,-0.280,3.080,0.00,0.0368,0.0508,0.0100,0.0087,2025-06-09T14:03:00.723070
22178,-0.2523,0.8808,0.3933,-0.210,-0.805,3.255,0.00,0.0184,0.0508,0.0200,0.0087,2025-06-09T14:03:00.723070
22179,-0.2499,0.8764,0.3909,0.105,-0.875,3.430,0.00,0.0184,0.0254,0.0100,0.0174,2025-06-09T14:03:00.723070
22180,-0.2450,0.8730,0.3860,0.210,-1.085,3.500,0.00,0.0368,0.0254,0.0200,0.0087,2025-06-09T14:03:00.723070
22181,-0.2425,0.8750,0.3850,0.665,-0.630,3.290,0.00,0.0184,0.0508,0.0200,0.0087,2025-06-09T14:03:00.723070
22182,-0.2416,0.8760,0.3806,0.665,-0.210,2.870,0.00,0.0184,0.0254,0.0200,0.0087,2025-06-09T14:03:00.723070
22183,-0.2494,0.8750,0.3811,0.980,-0.175,2.590,0.00,0.0184,0.0508,0.0200,0.0174,2025-06-09T14:03:00.816820
22184,-0.2435,0.8769,0.3845,1.050,-0.280,1.995,0.00,0.0184,0.0254,0.0100,0.0087,2025-06-09T14:03:00.816820
22185,-0.2435,0.8799,0.3802,1.085,0.245,1.470,0.00,0.0368,0.0254,0.0200,0.0174,2025-06-09T14:03:00.816820
22186,-0.2445,0.8794,0.3797,1.225,0.420,1.015,0.00,0.0184,0.0254,0.0100,0.0087,2025-06-09T14:03:00.816820
22187,-0.2508,0.8818,0.3855,0.910,0.070,0.525,0.00,0.0368,0.0508,0.0200,0.0087,2025-06-09T14:03:00.816820
22188,-0.2460,0.8804,0.3899,1.050,-0.700,0.245,0.00,0.0368,0.0254,0.0200,0.0087,2025-06-09T14:03:00.816820
22189,-0.2567,0.8794,0.3792,1.015,-1.435,0.140,0.00,0.0184,0.0254,0.0100,0.0087,2025-06-09T14:03:00.816820
22190,-0.2557,0.8794,0.3777,0.735,-1.505,-0.140,0.00,0.0184,0.0254,0.0100,0.0174,2025-06-09T14:03:00.816820
22191,-0.2503,0.8774,0.3841,1.155,-0.490,-0.315,0.01,0.0368,0.0254,0.0100,0.0087,2025-06-09T14:03:00.816820
22192,-0.2586,0.8813,0.3816,0.560,0.630,-0.210,0.01,0.0184,0.0254,0.0200,0.0087,2025-06-09T14:03:00.816820
22193,-0.2660,0.8818,0.3772,0.910,0.490,-0.210,0.00,0.0368,0.0508,0.0100,0.0087,2025-06-09T14:03:00.908076
22194,-0.2664,0.8857,0.3826,0.770,-0.525,-0.175,0.00,0.0184,0.0508,0.0200,0.0174,2025-06-09T14:03:00.908076
22195,-0.2650,0.8901,0.3777,0.595,-1.015,-0.210,0.01,0.0184,0.0508,0.0200,0.0087,2025-06-09T14:03:00.908076
22196,-0.2640,0.8906,0.3836,0.280,-1.645,-0.210,0.01,0.0368,0.0508,0.0100,0.0174,2025-06-09T14:03:00.908076
22197,-0.2611,0.8916,0.3841,0.385,-1.855,-0.245,0.00,0.0184,0.0254,0.0200,0.0087,2025-06-09T14:03:00.908076
22198,-0.2611,0.8896,0.3831,0.210,-1.750,-0.140,0.01,0.0368,0.0508,0.0100,0.0087,2025-06-09T14:03:00.908076
22199,-0.2625,0.8891,0.3860,0.350,-1.435,0.070,0.00,0.0184,0.0508,0.0100,0.0087,2025-06-09T14:03:00.993846
22200,-0.2625,0.8921,0.3884,0.315,-1.330,0.420,0.01,0.0368,0.0508,0.0200,0.0087,2025-06-09T14:03:00.993846
22201,-0.2616,0.8896,0.3855,0.350,-1.575,0.875,0.00,0.0184,0.0254,0.0100,0.0087,2025-06-09T14:03:00.993846
22202,-0.2586,0.8911,0.3889,0.245,-1.855,1.050,0.00,0.0184,0.0254,0.0100,0.0087,2025-06-09T14:03:00.993846
22203,-0.2533,0.8916,0.3806,0.140,-1.820,1.225,0.00,0.0184,0.0508,0.0200,0.0174,2025-06-09T14:03:01.111533
22204,-0.2557,0.8896,0.3836,-0.210,-2.065,1.505,0.01,0.0368,0.0508,0.0200,0.0087,2025-06-09T14:03:01.111533
22205,-0.2474,0.8901,0.3870,-0.210,-2.065,1.435,0.01,0.0368,0.0508,0.0100,0.0087,2025-06-09T14:03:01.111533
22206,-0.2513,0.8882,0.3816,-0.455,-2.240,1.225,0.00,0.0184,0.0508,0.0100,0.0174,2025-06-09T14:03:01.111533
22207,-0.2474,0.8872,0.3816,-0.455,-2.590,1.155,0.00,0.0184,0.0254,0.0200,0.0087,2025-06-09T14:03:01.111533
22208,-0.2469,0.8891,0.3821,-0.455,-2.590,1.260,0.00,0.0184,0.0254,0.0100,0.0087,2025-06-09T14:03:01.111533
22209,-0.2460,0.8872,0.3841,-0.315,-2.310,1.225,0.00,0.0184,0.0254,0.0100,0.0174,2025-06-09T14:03:01.111533
22210,-0.2494,0.8872,0.3880,-0.035,-2.450,1.295,0.00,0.0184,0.0254,0.0100,0.0087,2025-06-09T14:03:01.111533
22211,-0.2528,0.8867,0.3884,0.210,-2.835,1.190,0.00,0.0368,0.0254,0.0200,0.0087,2025-06-09T14:03:01.111533
22212,-0.2542,0.8877,0.3826,0.350,-3.430,1.050,0.00,0.0184,0.0254,0.0100,0.0087,2025-06-09T14:03:01.111533
22213,-0.2503,0.8838,0.3792,0.280,-3.745,1.260,0.00,0.0184,0.0000,0.0200,0.0087,2025-06-09T14:03:01.111533
22214,-0.2430,0.8823,0.3792,0.525,-3.430,1.505,0.00,0.0368,0.0508,0.0200,0.0174,2025-06-09T14:03:01.211267
22215,-0.2484,0.8833,0.3753,0.525,-2.940,1.505,0.01,0.0368,0.0508,0.0200,0.0087,2025-06-09T14:03:01.211267
22216,-0.2494,0.8838,0.3811,0.490,-2.625,1.400,0.00,0.0368,0.0254,0.0100,0.0087,2025-06-09T14:03:01.211267
22217,-0.2499,0.8852,0.3787,0.700,-2.765,1.330,0.00,0.0368,0.0254,0.0200,0.0087,2025-06-09T14:03:01.211267
22218,-0.2513,0.8847,0.3748,0.875,-3.465,1.225,0.01,0.0368,0.0508,0.0200,0.0087,2025-06-09T14:03:01.211267
22219,-0.2464,0.8823,0.3753,0.665,-4.060,0.980,0.00,0.0184,0.0254,0.0200,0.0087,2025-06-09T14:03:01.211267
22220,-0.2401,0.8808,0.3704,0.735,-4.165,0.805,0.00,0.0184,0.0508,0.0100,0.0087,2025-06-09T14:03:01.211267
22221,-0.2411,0.8862,0.3719,0.910,-3.325,0.560,0.00,0.0184,0.0508,0.0100,0.0087,2025-06-09T14:03:01.211267
22222,-0.2425,0.8886,0.3762,0.770,-1.995,0.175,0.00,0.0368,0.0508,0.0100,0.0087,2025-06-09T14:03:01.352956
22223,-0.2533,0.8916,0.3782,1.155,-1.540,0.070,0.00,0.0184,0.0508,0.0100,0.0087,2025-06-09T14:03:01.352956
22224,-0.2572,0.8911,0.3738,0.840,-2.205,0.245,0.00,0.0368,0.0254,0.0100,0.0087,2025-06-09T14:03:01.352956
22225,-0.2503,0.8886,0.3762,0.945,-2.870,0.525,0.00,0.0368,0.0254,0.0200,0.0174,2025-06-09T14:03:01.352956
22226,-0.2420,0.8916,0.3792,0.560,-2.975,0.700,0.00,0.0368,0.0254,0.0200,0.0087,2025-06-09T14:03:01.352956
22227,-0.2430,0.8891,0.3758,0.350,-2.835,0.805,0.00,0.0184,0.0254,0.0100,0.0174,2025-06-09T14:03:01.352956
22228,-0.2420,0.8906,0.3748,0.175,-3.255,0.770,0.00,0.0184,0.0254,0.0100,0.0087,2025-06-09T14:03:01.352956
22229,-0.2450,0.8891,0.3743,0.210,-3.640,0.630,0.00,0.0184,0.0254,0.0200,0.0087,2025-06-09T14:03:01.352956
22230,-0.2425,0.8886,0.3709,0.140,-3.850,0.420,0.01,0.0368,0.0508,0.0200,0.0087,2025-06-09T14:03:01.352956
22231,-0.2391,0.8901,0.3738,0.035,-3.290,0.070,0.01,0.0184,0.0508,0.0100,0.0087,2025-06-09T14:03:01.352956
22232,-0.2416,0.8867,0.3748,0.035,-2.345,-0.420,0.01,0.0184,0.0254,0.0200,0.0087,2025-06-09T14:03:01.352956
22233,-0.2445,0.8843,0.4992,-0.035,-2.205,-0.805,0.01,0.0368,0.0254,0.0200,0.0087,2025-06-09T14:03:01.438930
22234,-0.1259,0.8867,0.3806,0.350,-2.205,-1.050,0.00,0.0184,0.0508,0.0100,0.0087,2025-06-09T14:03:01.438930
22235,-0.2411,0.8857,0.3767,-8.960,-1.225,-1.085,0.01,0.0368,0.0254,0.0200,0.0087,2025-06-09T14:03:01.438930
22236,-0.2557,0.8862,0.3767,0.070,-0.560,-1.190,0.01,0.0184,0.0508,0.0200,0.0174,2025-06-09T14:03:01.532655
22237,-0.2640,0.8852,0.3758,-0.385,-1.645,-1.120,0.00,0.0184,0.0508,0.0100,0.0174,2025-06-09T14:03:01.532655
22238,-0.2669,0.8813,0.3826,-0.035,-3.360,-0.910,0.01,0.0368,0.0508,0.0100,0.0087,2025-06-09T14:03:01.532655
22239,-0.2601,0.8843,0.3845,-0.140,-4.550,-0.805,0.00,0.0184,0.0508,0.0200,0.0087,2025-06-09T14:03:01.532655
22240,-0.2499,0.8828,0.3792,-0.140,-4.375,-0.875,0.01,0.0184,0.0254,0.0100,0.0087,2025-06-09T14:03:01.532655
22241,-0.2469,0.8867,0.3753,-0.175,-3.710,-0.980,0.00,0.0184,0.0254,0.0100,0.0087,2025-06-09T14:03:01.532655
22242,-0.2513,0.8896,0.3733,-0.280,-3.045,-1.085,0.00,0.0184,0.0254,0.0100,0.0087,2025-06-09T14:03:01.532655
22243,-0.2528,0.8901,0.3709,-0.280,-3.010,-0.805,0.00,0.0184,0.0254,0.0100,0.0087,2025-06-09T14:03:01.532655
22244,-0.2552,0.8916,0.3733,-0.245,-3.360,-0.665,0.00,0.0184,0.0254,0.0200,0.0174,2025-06-09T14:03:01.532655
22245,-0.2513,0.8906,0.3782,-0.175,-3.220,-0.420,0.01,0.0368,0.0508,0.0200,0.0087,2025-06-09T14:03:01.532655
22246,-0.2479,0.8911,0.3841,-0.035,-2.660,-0.210,0.01,0.0368,0.0508,0.0200,0.0087,2025-06-09T14:03:01.607008
22247,-0.2513,0.8872,0.3772,-0.280,-2.800,-0.070,0.01,0.0368,0.0254,0.0200,0.0087,2025-06-09T14:03:01.607008
22248,-0.2538,0.8901,0.3743,-0.105,-3.220,0.280,0.01,0.0368,0.0508,0.0100,0.0174,2025-06-09T14:03:01.607008
22249,-0.2479,0.8916,0.3758,-0.210,-3.325,0.420,0.00,0.0368,0.0254,0.0100,0.0087,2025-06-09T14:03:01.607008
22250,-0.2455,0.8921,0.3762,0.175,-3.115,0.525,0.01,0.0368,0.0508,0.0200,0.0087,2025-06-09T14:03:01.719164
22251,-0.2489,0.8921,0.3743,0.140,-2.870,0.700,0.01,0.0184,0.0508,0.0100,0.0087,2025-06-09T14:03:01.719164
22252,-0.2489,0.8891,0.3723,0.210,-2.625,0.665,0.01,0.0184,0.0508,0.0200,0.0087,2025-06-09T14:03:01.719164
22253,-0.2518,0.8886,0.3743,0.315,-2.625,0.735,0.01,0.0184,0.0508,0.0200,0.0087,2025-06-09T14:03:01.719164
22254,-0.2503,0.8877,0.3762,0.595,-2.485,0.875,0.01,0.0184,0.0254,0.0200,0.0174,2025-06-09T14:03:01.719164
22255,-0.2513,0.8857,0.3723,0.560,-2.695,0.875,0.00,0.0368,0.0254,0.0100,0.0087,2025-06-09T14:03:01.719164
22256,-0.2513,0.8843,0.3733,0.805,-2.730,0.665,0.00,0.0368,0.0254,0.0100,0.0087,2025-06-09T14:03:01.719164
22257,-0.2469,0.8872,0.3806,0.630,-2.380,0.210,0.00,0.0184,0.0254,0.0200,0.0087,2025-06-09T14:03:01.719164
22258,-0.2474,0.8877,0.3772,0.420,-2.205,-0.035,0.00,0.0368,0.0254,0.0100,0.0174,2025-06-09T14:03:01.719164
22259,-0.2518,0.8847,0.3738,0.280,-2.310,-0.245,0.01,0.0368,0.0254,0.0100,0.0087,2025-06-09T14:03:01.719164
22260,-0.2455,0.8867,0.3738,0.070,-2.555,0.070,0.00,0.0368,0.0254,0.0100,0.0087,2025-06-09T14:03:01.820890
22261,-0.2513,0.8886,0.3767,0.035,-2.765,0.175,0.01,0.0184,0.0508,0.0200,0.0174,2025-06-09T14:03:01.821893
22262,-0.2542,0.8867,0.3753,0.105,-2.695,0.350,0.00,0.0184,0.0254,0.0100,0.0087,2025-06-09T14:03:01.821893
22263,-0.2494,0.8896,0.3767,-0.070,-2.765,0.210,0.01,0.0368,0.0254,0.0100,0.0087,2025-06-09T14:03:01.821893
22264,-0.2489,0.8906,0.3782,0.315,-2.345,0.280,0.01,0.0184,0.0508,0.0200,0.0087,2025-06-09T14:03:01.821893
22265,-0.2494,0.8901,0.3836,0.210,-1.890,0.210,0.00,0.0184,0.0254,0.0100,0.0087,2025-06-09T14:03:01.821893
22266,-0.2503,0.8911,0.3758,0.525,-1.925,0.140,0.00,0.0184,0.0254,0.0100,0.0087,2025-06-09T14:03:01.821893
22267,-0.2508,0.8911,0.3714,0.105,-2.730,0.070,0.01,0.0184,0.0508,0.0100,0.0174,2025-06-09T14:03:01.923367
22268,-0.2464,0.8896,0.3733,0.350,-2.905,0.035,0.01,0.0368,0.0508,0.0200,0.0174,2025-06-09T14:03:01.923367
22269,-0.2411,0.8916,0.3753,0.105,-2.380,0.035,0.01,0.0368,0.0508,0.0100,0.0087,2025-06-09T14:03:01.923367
22270,-0.2479,0.8926,0.3758,0.105,-1.610,0.105,0.00,0.0368,0.0508,0.0200,0.0087,2025-06-09T14:03:01.923367
22271,-0.2508,0.8930,0.3787,0.245,-1.540,0.280,0.01,0.0368,0.0508,0.0200,0.0174,2025-06-09T14:03:01.923367
22272,-0.2567,0.8896,0.3694,0.210,-1.960,1.050,0.00,0.0368,0.0254,0.0200,0.0174,2025-06-09T14:03:01.923367
22273,-0.2582,0.8877,0.3689,0.000,-2.695,1.155,0.01,0.0184,0.0000,0.0100,0.0174,2025-06-09T14:03:01.923367
22274,-0.2460,0.8882,0.3665,-0.070,-2.415,1.260,0.00,0.0184,0.0254,0.0100,0.0087,2025-06-09T14:03:01.923367
22275,-0.2406,0.8906,0.3733,-0.315,-1.085,1.155,0.00,0.0184,0.0508,0.0200,0.0174,2025-06-09T14:03:02.158589
22276,-0.2430,0.8886,0.3762,-0.070,-0.700,0.910,0.01,0.0184,0.0254,0.0200,0.0087,2025-06-09T14:03:02.158589
22277,-0.2474,0.8877,0.3743,-0.175,-0.945,0.805,0.01,0.0184,0.0254,0.0300,0.0174,2025-06-09T14:03:02.158589
22278,-0.2469,0.8847,0.3738,0.000,-1.820,0.665,0.01,0.0000,0.0254,0.0200,0.0087,2025-06-09T14:03:02.158589
22279,-0.2411,0.8862,0.3645,0.035,-2.345,0.350,0.01,0.0000,0.0508,0.0100,0.0087,2025-06-09T14:03:02.158589
22280,-0.2381,0.8857,0.3684,-0.070,-1.575,-0.175,0.00,0.0184,0.0254,0.0100,0.0087,2025-06-09T14:03:02.158589
22281,-0.2377,0.8877,0.3753,-0.035,-0.175,-0.490,0.00,0.0184,0.0254,0.0100,0.0087,2025-06-09T14:03:02.158589
22282,-0.2518,0.8843,0.3772,0.315,0.350,-0.875,0.00,0.0184,0.0254,0.0100,0.0087,2025-06-09T14:03:02.158589
22283,-0.2596,0.8852,0.3753,0.280,-0.595,-0.805,0.00,0.0184,0.0254,0.0100,0.0087,2025-06-09T14:03:02.158589
22284,-0.2552,0.8823,0.3777,0.700,-1.540,-0.700,0.01,0.0184,0.0254,0.0200,0.0087,2025-06-09T14:03:02.158589
22285,-0.2464,0.8852,0.3758,0.945,-1.155,-0.525,0.00,0.0184,0.0254,0.0200,0.0087,2025-06-09T14:03:02.158589
22286,-0.2508,0.8862,0.3777,0.560,-0.420,-0.420,0.00,0.0184,0.0254,0.0100,0.0087,2025-06-09T14:03:02.158589
22287,-0.2562,0.8862,0.3787,0.875,-0.525,-0.280,0.00,0.0000,0.0254,0.0100,0.0087,2025-06-09T14:03:02.158589
22288,-0.2645,0.8838,0.3748,0.700,-1.085,0.000,0.00,0.0184,0.0254,0.0100,0.0087,2025-06-09T14:03:02.158589
22289,-0.2611,0.8838,0.3782,0.980,-1.575,0.210,0.00,0.0368,0.0254,0.0100,0.0087,2025-06-09T14:03:02.158589
22290,-0.2577,0.8823,0.3836,0.945,-1.225,0.315,0.01,0.0184,0.0254,0.0100,0.0087,2025-06-09T14:03:02.346075
22291,-0.2645,0.8799,0.3802,0.945,-0.770,0.350,0.00,0.0368,0.0254,0.0200,0.0087,2025-06-09T14:03:02.346075
22292,-0.2645,0.8808,0.3797,0.910,-1.260,0.350,0.01,0.0184,0.0254,0.0100,0.0174,2025-06-09T14:03:02.346075
22293,-0.2640,0.8823,0.3782,0.945,-1.785,0.140,0.00,0.0368,0.0508,0.0200,0.0174,2025-06-09T14:03:02.346075
22294,-0.2596,0.8857,0.3767,0.700,-2.170,-0.175,0.00,0.0368,0.0254,0.0100,0.0087,2025-06-09T14:03:02.346075
22295,-0.2562,0.8857,0.3821,0.770,-2.100,-0.665,0.00,0.0368,0.0254,0.0100,0.0087,2025-06-09T14:03:02.346075
22296,-0.2591,0.8808,0.3831,0.560,-2.240,-1.085,0.01,0.0368,0.0254,0.0100,0.0087,2025-06-09T14:03:02.346075
22297,-0.2601,0.8818,0.3845,0.630,-2.380,-1.190,0.01,0.0184,0.0508,0.0100,0.0087,2025-06-09T14:03:02.346075
22298,-0.2591,0.8818,0.3802,0.805,-2.590,-1.260,0.00,0.0368,0.0254,0.0200,0.0087,2025-06-09T14:03:02.346075
22299,-0.2621,0.8833,0.3821,0.490,-2.520,-1.435,0.00,0.0184,0.0508,0.0100,0.0000,2025-06-09T14:03:02.346075
22300,-0.2611,0.8852,0.3797,0.700,-2.625,-1.610,0.00,0.0184,0.0254,0.0100,0.0087,2025-06-09T14:03:02.346075
22301,-0.2616,0.8867,0.3777,0.630,-3.325,-1.540,0.00,0.0184,0.0254,0.0100,0.0087,2025-06-09T14:03:02.346075
22302,-0.2630,0.8877,0.3782,0.630,-3.850,-1.750,0.00,0.0184,0.0254,0.0100,0.0087,2025-06-09T14:03:02.346075
22303,-0.2596,0.8901,0.3767,0.350,-4.200,-1.925,0.00,0.0368,0.0254,0.0200,0.0087,2025-06-09T14:03:02.346075
22304,-0.2562,0.8940,0.3753,0.245,-4.200,-2.065,0.00,0.0184,0.0254,0.0100,0.0087,2025-06-09T14:03:02.346075
22305,-0.2582,0.8916,0.3753,0.070,-4.235,-2.100,0.01,0.0184,0.0508,0.0200,0.0174,2025-06-09T14:03:02.346075
22306,-0.2577,0.8882,0.3743,0.035,-4.340,-1.925,0.00,0.0368,0.0254,0.0100,0.0174,2025-06-09T14:03:02.435213
22307,-0.2616,0.8916,0.3806,0.350,-4.375,-1.575,0.00,0.0368,0.0508,0.0100,0.0087,2025-06-09T14:03:02.435213
22308,-0.2591,0.8901,0.3826,0.245,-4.235,-1.295,0.00,0.0184,0.0508,0.0200,0.0087,2025-06-09T14:03:02.435213
22309,-0.2660,0.8906,0.3743,0.735,-4.725,-1.050,0.01,0.0184,0.0508,0.0100,0.0174,2025-06-09T14:03:02.609748
22310,-0.2625,0.8921,0.3728,0.700,-5.320,-0.840,0.01,0.0184,0.0254,0.0200,0.0174,2025-06-09T14:03:02.630691
22311,-0.2562,0.8945,0.3723,0.875,-5.495,-0.735,0.00,0.0184,0.0508,0.0100,0.0174,2025-06-09T14:03:02.630691
22312,-0.2523,0.8916,0.3684,0.945,-5.250,-0.700,0.00,0.0184,0.0254,0.0100,0.0087,2025-06-09T14:03:02.630691
22313,-0.2523,0.8955,0.3714,1.050,-4.725,-0.700,0.00,0.0368,0.0254,0.0100,0.0000,2025-06-09T14:03:02.630691
22314,-0.2552,0.8926,0.3709,1.155,-4.550,-0.875,0.01,0.0368,0.0254,0.0200,0.0087,2025-06-09T14:03:02.630691
22315,-0.2577,0.8882,0.3675,0.910,-4.480,-0.735,0.01,0.0000,0.0254,0.0100,0.0087,2025-06-09T14:03:02.630691
22316,-0.2547,0.8891,0.3704,0.770,-4.375,-0.525,0.00,0.0184,0.0254,0.0100,0.0000,2025-06-09T14:03:02.630691
22317,-0.2547,0.8886,0.3684,0.805,-4.165,-0.420,0.00,0.0184,0.0254,0.0100,0.0087,2025-06-09T14:03:02.630691
22318,-0.2567,0.8886,0.3709,0.525,-4.025,-0.490,0.00,0.0184,0.0254,0.0200,0.0087,2025-06-09T14:03:02.630691
22319,-0.2586,0.8886,0.3714,0.280,-3.990,-0.490,0.00,0.0368,0.0254,0.0100,0.0087,2025-06-09T14:03:02.630691
22320,-0.2596,0.8852,0.3655,0.420,-4.795,-0.245,0.00,0.0184,0.0254,0.0200,0.0087,2025-06-09T14:03:02.630691
22321,-0.2542,0.8862,0.3694,0.315,-4.935,-0.210,0.01,0.0184,0.0508,0.0200,0.0087,2025-06-09T14:03:02.630691
22322,-0.2494,0.8882,0.3714,0.350,-4.375,-0.315,0.01,0.0368,0.0508,0.0200,0.0087,2025-06-09T14:03:02.630691
22323,-0.2479,0.8847,0.3640,0.700,-3.360,-0.385,0.01,0.0368,0.0254,0.0200,0.0087,2025-06-09T14:03:02.630691
22324,-0.2606,0.8862,0.3680,0.735,-3.010,-0.315,0.00,0.0184,0.0254,0.0100,0.0174,2025-06-09T14:03:02.630691
22325,-0.2625,0.8896,0.3743,1.085,-3.045,-0.105,0.00,0.0368,0.0254,0.0100,0.0087,2025-06-09T14:03:02.630691
22326,-0.2601,0.8862,0.3704,0.840,-3.605,0.210,0.00,0.0368,0.0508,0.0200,0.0174,2025-06-09T14:03:02.630691
22327,-0.2567,0.8877,0.3699,1.120,-3.885,0.420,0.00,0.0184,0.0254,0.0100,0.0087,2025-06-09T14:03:02.745219
22328,-0.2513,0.8872,0.3714,1.085,-3.395,0.525,0.01,0.0368,0.0254,0.0200,0.0174,2025-06-09T14:03:02.745219
22329,-0.2538,0.8896,0.3694,1.050,-3.045,0.385,0.01,0.0184,0.0508,0.0200,0.0174,2025-06-09T14:03:02.745219
22330,-0.2547,0.8901,0.3709,0.945,-3.220,0.280,0.01,0.0368,0.0508,0.0200,0.0174,2025-06-09T14:03:02.745219
22331,-0.2518,0.8916,0.3665,0.875,-3.745,0.105,0.00,0.0368,0.0508,0.0100,0.0087,2025-06-09T14:03:02.745219
22332,-0.2474,0.8926,0.3719,0.735,-3.395,-0.070,0.00,0.0184,0.0254,0.0100,0.0087,2025-06-09T14:03:02.745219
22333,-0.2460,0.8921,0.3660,0.455,-2.835,-0.245,0.00,0.0184,0.0254,0.0100,0.0174,2025-06-09T14:03:02.745219
22334,-0.2562,0.8901,0.3650,0.210,-2.660,8.890,0.00,0.0184,0.0254,0.0100,0.0087,2025-06-09T14:03:02.745219
22335,-0.2547,0.8896,0.3675,-0.035,-2.870,0.035,0.00,0.0184,0.0254,0.0200,0.0174,2025-06-09T14:03:02.745219
22336,-0.2577,0.8862,0.3670,-0.350,-3.255,0.175,0.00,0.0184,0.0254,0.0200,0.0174,2025-06-09T14:03:02.803062
22337,-0.2552,0.8872,0.3684,-0.350,-3.395,0.245,0.00,0.0184,0.0254,0.0100,0.0174,2025-06-09T14:03:02.803062
22338,-0.2567,0.8877,0.3645,-0.455,-3.220,0.315,0.00,0.0368,0.0254,0.0100,0.0087,2025-06-09T14:03:02.803062
22339,-0.2557,0.8882,0.3689,-0.455,-2.905,0.000,0.01,0.0184,0.0508,0.0100,0.0174,2025-06-09T14:03:02.803062
22340,-0.2508,0.8916,0.3699,-0.175,-2.450,0.000,0.00,0.0368,0.0254,0.0200,0.0087,2025-06-09T14:03:02.971033
22341,-0.2621,0.8921,0.3626,-0.455,-2.765,-0.035,0.00,0.0368,0.0508,0.0100,0.0087,2025-06-09T14:03:02.971033
22342,-0.2586,0.8930,0.3670,-0.070,-3.360,-0.175,0.01,0.0184,0.0254,0.0100,0.0087,2025-06-09T14:03:02.971033
22343,-0.2552,0.8950,0.3670,-0.175,-3.115,-0.350,0.00,0.0368,0.0508,0.0100,0.0087,2025-06-09T14:03:02.971033
22344,-0.2557,0.8896,0.3719,-0.035,-2.870,-0.630,0.00,0.0184,0.0508,0.0200,0.0087,2025-06-09T14:03:02.971033
22345,-0.2518,0.8911,0.3738,0.210,-2.695,-0.735,0.00,0.0184,0.0254,0.0100,0.0174,2025-06-09T14:03:02.971033
22346,-0.2484,0.8940,0.3689,0.210,-2.625,-0.875,0.00,0.0184,0.0254,0.0100,0.0087,2025-06-09T14:03:02.971033
22347,-0.2518,0.8950,0.3645,0.105,-3.290,-1.120,0.00,0.0184,0.0254,0.0100,0.0087,2025-06-09T14:03:02.971033
22348,-0.2440,0.9013,0.3694,-0.070,-3.290,-1.680,0.00,0.0184,0.0254,0.0100,0.0087,2025-06-09T14:03:02.971033
22349,-0.2357,0.9087,0.3665,-0.385,-2.240,-2.135,0.00,0.0184,0.0254,0.0200,0.0087,2025-06-09T14:03:02.971033
22350,-0.2401,0.9126,0.3650,-1.015,-1.330,-3.045,0.00,0.0184,0.0508,0.0100,0.0087,2025-06-09T14:03:02.971033
22351,-0.2435,0.9179,0.3670,-1.610,-1.225,-4.375,0.00,0.0368,0.0254,0.0100,0.0087,2025-06-09T14:03:02.971033
22352,-0.2391,0.9184,0.3704,-2.800,-1.715,-6.265,0.00,0.0368,0.0254,0.0200,0.0087,2025-06-09T14:03:02.971033
22353,-0.2347,0.9252,0.3689,-3.920,-2.695,-7.525,0.01,0.0184,0.0254,0.0200,0.0174,2025-06-09T14:03:03.061247
22354,-0.2279,0.9379,0.3611,-6.440,-4.130,-9.520,0.01,0.0184,0.0508,0.0100,0.0174,2025-06-09T14:03:03.061247
22355,-0.2176,0.9487,0.3572,-11.340,-5.880,-10.570,0.00,0.0184,0.0254,0.0100,0.0087,2025-06-09T14:03:03.061247
22356,-0.1747,0.9565,0.4050,-14.735,-6.405,-12.250,0.00,0.0368,0.0508,0.0100,0.0174,2025-06-09T14:03:03.061247
22357,-0.1484,0.9867,0.4290,-20.055,-8.190,-12.320,0.00,0.0368,0.0508,0.0200,0.0087,2025-06-09T14:03:03.155024
22358,-0.1259,1.0546,0.4665,-25.900,-11.095,-11.375,0.00,0.0368,0.0254,0.0200,0.0174,2025-06-09T14:03:03.155991
22359,-0.1303,1.0677,0.5007,-31.675,-20.580,-8.960,0.00,0.0368,0.0508,0.0200,0.0087,2025-06-09T14:03:03.155991
22360,-0.1352,1.1434,0.5695,-39.690,-32.305,-6.125,0.00,0.0368,0.0254,0.0100,0.0087,2025-06-09T14:03:03.155991
22361,-0.1210,1.1917,0.6071,-47.705,-46.095,1.365,0.00,0.0184,0.0254,0.0100,0.0087,2025-06-09T14:03:03.155991
22362,-0.1098,1.2625,0.5714,-61.075,-66.080,7.945,0.00,0.0368,0.0508,0.0200,0.0174,2025-06-09T14:03:03.155991
22363,-0.0747,1.3235,0.5939,-72.590,-80.500,17.150,0.00,0.0368,0.0254,0.0200,0.0087,2025-06-09T14:03:03.155991
22364,-0.0024,1.4947,0.5968,-91.840,-87.290,26.530,0.00,0.0184,0.0508,0.0200,0.0087,2025-06-09T14:03:03.155991
22365,0.0468,1.6543,0.5797,-113.400,-84.490,39.445,0.00,0.0184,0.0254,0.0100,0.0087,2025-06-09T14:03:03.155991
22366,0.0869,1.8607,0.5719,-134.260,-75.495,52.325,0.00,0.0368,0.0254,0.0200,0.0087,2025-06-09T14:03:03.155991
22367,0.0171,2.0164,0.4538,-154.490,-66.745,68.110,0.01,0.0184,0.0254,0.0100,0.0087,2025-06-09T14:03:03.251734
22368,-0.0586,2.1633,0.4046,-171.990,-59.045,79.520,0.01,0.0184,0.0254,0.0100,0.0087,2025-06-09T14:03:03.251734
22369,-0.2245,2.2799,0.2869,-184.135,-45.150,93.205,0.00,0.0368,0.0508,0.0100,0.0087,2025-06-09T14:03:03.251734
22370,-0.2528,2.3985,0.0703,-187.915,-48.195,110.390,0.00,0.0184,0.0254,0.0100,0.0087,2025-06-09T14:03:03.251734
22371,-0.2923,2.5191,-0.1606,-181.160,-33.285,136.115,0.00,0.0000,0.0254,0.0100,0.0087,2025-06-09T14:03:03.251734
22372,-0.3811,2.5659,-0.4568,-166.250,-3.885,163.345,0.00,0.0184,0.0000,0.0100,0.0087,2025-06-09T14:03:03.251734
22373,-0.5144,2.4649,-0.9516,-148.995,19.285,203.770,0.00,0.0368,0.0508,0.0200,0.0087,2025-06-09T14:03:03.251734
22374,-0.6690,2.3341,-1.2654,-130.655,54.600,236.285,0.00,0.0368,0.0508,0.0200,0.0087,2025-06-09T14:03:03.357451
22375,-0.8550,2.1282,-1.5455,-124.285,90.510,268.800,0.00,0.0368,0.0508,0.0200,0.0087,2025-06-09T14:03:03.357451
22376,-1.1570,2.0403,-1.4962,-142.695,145.320,294.070,0.00,0.0184,0.0254,0.0100,0.0087,2025-06-09T14:03:03.357451
22377,-1.4938,1.7265,-1.4674,-175.105,182.875,303.415,0.00,0.0368,0.0508,0.0100,0.0087,2025-06-09T14:03:03.357451
22378,-1.8690,1.2795,-1.4025,-227.185,193.865,305.480,0.00,0.0184,0.0508,0.0200,0.0174,2025-06-09T14:03:03.357451
22379,-2.1657,0.6905,-1.0629,-259.840,175.245,300.160,0.01,0.0184,0.0254,0.0100,0.0087,2025-06-09T14:03:03.357451
22380,-2.5400,-0.0068,-0.8340,-285.705,118.580,285.635,0.00,0.0184,0.0508,0.0200,0.0087,2025-06-09T14:03:03.357451
22381,-2.6494,-0.9062,-0.3289,-297.185,66.885,263.445,0.00,0.0184,0.0254,0.0200,0.0087,2025-06-09T14:03:03.441227
22382,-2.4141,-1.7231,0.1976,-298.060,17.465,222.250,0.00,0.0368,0.0254,0.0100,0.0174,2025-06-09T14:03:03.441227
22383,-2.1370,-2.9534,0.5749,-280.210,-20.020,194.355,0.00,0.0368,0.0254,0.0200,0.0087,2025-06-09T14:03:03.441227
22384,-1.7666,-3.5970,0.9975,-223.510,-75.180,172.690,0.01,0.0368,0.0508,0.0200,0.0174,2025-06-09T14:03:03.441227
22385,-1.0609,-3.8084,1.3893,-161.770,-111.405,162.470,0.01,0.0184,0.0508,0.0200,0.0087,2025-06-09T14:03:03.441227
22386,-0.3001,-3.7893,1.6411,-103.495,-108.115,137.970,0.00,0.0368,0.0508,0.0100,0.0087,2025-06-09T14:03:03.550019
22387,0.4695,-3.7171,1.8539,-20.615,-59.815,99.050,0.00,0.0184,0.0508,0.0200,0.0087,2025-06-09T14:03:03.550019
22388,0.8340,-3.3926,1.9452,32.375,-13.195,53.725,0.00,0.0368,0.0508,0.0200,0.0087,2025-06-09T14:03:03.550019
22389,1.0180,-2.8772,2.0872,68.985,27.755,-6.440,0.01,0.0368,0.0508,0.0100,0.0087,2025-06-09T14:03:03.550019
22390,0.9550,-2.4351,2.1594,98.140,60.725,-55.615,0.00,0.0184,0.0254,0.0200,0.0087,2025-06-09T14:03:03.550019
22391,0.7105,-1.9881,2.1516,120.085,60.375,-104.615,0.01,0.0368,0.0508,0.0200,0.0174,2025-06-09T14:03:03.550019
22392,0.4187,-1.6592,2.0511,143.640,47.005,-160.370,0.00,0.0184,0.0508,0.0200,0.0087,2025-06-09T14:03:03.550019
22393,0.1591,-1.2698,1.7856,159.985,43.120,-199.185,0.00,0.0184,0.0508,0.0100,0.0087,2025-06-09T14:03:03.550019
22394,-0.2079,-1.0985,1.5972,176.050,53.725,-231.070,0.00,0.0184,0.0254,0.0100,0.0087,2025-06-09T14:03:03.550019
22395,-0.6817,-0.7857,1.3845,189.770,61.600,-240.660,0.00,0.0184,0.0254,0.0100,0.0087,2025-06-09T14:03:03.550019
22396,-1.3103,-0.4675,1.0082,202.125,45.675,-232.715,0.01,0.0368,0.0254,0.0200,0.0174,2025-06-09T14:03:03.785187
22397,-1.6602,-0.0581,0.6183,223.895,7.175,-217.560,0.01,0.0184,0.0508,0.0100,0.0087,2025-06-09T14:03:03.786187
22398,-1.6982,0.3831,0.4060,235.095,-46.725,-202.720,0.01,0.0368,0.0254,0.0200,0.0174,2025-06-09T14:03:03.786187
22399,-1.3971,0.5768,0.0586,239.575,-73.570,-190.610,0.01,0.0184,0.0508,0.0100,0.0174,2025-06-09T14:03:03.786187
22400,-0.8569,0.7135,-0.1615,242.445,-59.535,-175.735,0.00,0.0368,0.0508,0.0100,0.0087,2025-06-09T14:03:03.786187
22401,-0.4958,0.8194,-0.3021,245.385,-2.800,-161.805,0.00,0.0368,0.0254,0.0100,0.0087,2025-06-09T14:03:03.786187
22402,-0.4294,0.9414,-0.3250,234.675,70.280,-135.800,0.00,0.0184,0.0508,0.0100,0.0087,2025-06-09T14:03:03.786187
22403,-0.7091,0.9877,-0.3953,230.230,113.155,-107.835,0.00,0.0368,0.0508,0.0200,0.0087,2025-06-09T14:03:03.786187
22404,-1.2434,1.0834,-0.3089,229.775,82.215,-75.915,0.00,0.0184,0.0254,0.0100,0.0087,2025-06-09T14:03:03.786187
22405,-1.1463,1.2361,-0.1845,217.525,3.500,-54.215,0.00,0.0184,0.0254,0.0100,0.0087,2025-06-09T14:03:03.786187
22406,-0.8691,1.3152,-0.1557,198.415,-53.130,-37.100,0.00,0.0184,0.0508,0.0100,0.0087,2025-06-09T14:03:03.786187
22407,-0.4958,1.3122,-0.1274,176.085,-83.405,-27.300,0.01,0.0184,0.0254,0.0200,0.0087,2025-06-09T14:03:03.786187
22408,-0.2264,1.2937,-0.0712,159.985,-79.625,-24.080,0.00,0.0000,0.0254,0.0200,0.0087,2025-06-09T14:03:03.786187
22409,-0.0508,1.2761,-0.0024,146.965,-61.460,-21.175,0.01,0.0368,0.0254,0.0100,0.0174,2025-06-09T14:03:03.786187
22410,-0.0561,1.2659,0.1098,136.010,-43.085,-19.635,0.00,0.0368,0.0254,0.0100,0.0087,2025-06-09T14:03:03.786187
22411,-0.0766,1.2586,0.2025,128.275,-42.525,-17.395,0.01,0.0368,0.0254,0.0100,0.0174,2025-06-09T14:03:03.786187
22412,-0.1064,1.2561,0.3084,119.035,-53.235,-13.720,0.01,0.0184,0.0508,0.0100,0.0087,2025-06-09T14:03:03.837051
22413,-0.1274,1.2464,0.2952,112.455,-73.220,-10.675,0.01,0.0184,0.0508,0.0100,0.0087,2025-06-09T14:03:03.837051
22414,-0.0298,1.2439,0.2582,104.090,-88.130,-8.715,0.00,0.0184,0.0254,0.0200,0.0087,2025-06-09T14:03:03.837051
22415,0.0527,1.2356,0.2338,95.270,-90.965,-6.720,0.00,0.0368,0.0254,0.0200,0.0087,2025-06-09T14:03:03.837051
22416,0.1415,1.2537,0.2201,83.720,-78.610,-6.965,0.01,0.0368,0.0254,0.0100,0.0174,2025-06-09T14:03:03.973683
22417,0.1566,1.2390,0.2103,73.605,-60.935,-7.315,0.00,0.0184,0.0254,0.0100,0.0087,2025-06-09T14:03:03.973683
22418,0.1254,1.2137,0.1840,64.330,-45.465,-7.245,0.00,0.0184,0.0508,0.0200,0.0174,2025-06-09T14:03:03.973683
22419,0.0908,1.1961,0.1610,56.875,-39.725,-6.685,0.00,0.0184,0.0254,0.0200,0.0087,2025-06-09T14:03:03.974680
22420,0.0673,1.1766,0.1615,48.300,-38.780,-6.055,0.01,0.0184,0.0254,0.0100,0.0174,2025-06-09T14:03:03.974680
22421,0.0317,1.1492,0.1596,39.095,-42.560,-4.270,0.00,0.0184,0.0508,0.0100,0.0087,2025-06-09T14:03:03.974680
22422,-0.0068,1.1200,0.1674,33.215,-49.455,-3.780,0.00,0.0368,0.0508,0.0100,0.0087,2025-06-09T14:03:03.974680
22423,0.0420,1.0912,0.1640,26.565,-54.075,-3.640,0.01,0.0184,0.0254,0.0100,0.0087,2025-06-09T14:03:03.974680
22424,0.0859,1.0673,0.1723,22.505,-50.190,-3.535,0.00,0.0184,0.0254,0.0100,0.0087,2025-06-09T14:03:03.974680
22425,0.1342,1.0375,0.1718,9.240,-37.765,-3.710,0.00,0.0184,0.0254,0.0200,0.0087,2025-06-09T14:03:03.974680
22426,0.1025,1.0214,0.1864,15.400,-27.370,-4.235,0.00,0.0184,0.0254,0.0200,0.0087,2025-06-09T14:03:03.974680
22427,0.0586,0.9970,0.2006,12.775,-19.180,-5.040,0.01,0.0368,0.0508,0.0100,0.0087,2025-06-09T14:03:04.066570
22428,0.0312,0.9858,0.2059,10.675,-15.890,-4.935,0.00,0.0368,0.0508,0.0200,0.0174,2025-06-09T14:03:04.066570
22429,-0.0005,0.9780,0.1996,9.100,-14.105,-5.110,0.01,0.0368,0.0254,0.0200,0.0087,2025-06-09T14:03:04.066570
22430,-0.0181,0.9716,0.1923,7.490,-12.460,-5.635,0.00,0.0368,0.0254,0.0200,0.0087,2025-06-09T14:03:04.066570
22431,-0.0078,0.9604,0.2128,6.020,-10.815,-5.705,0.01,0.0184,0.0508,0.0100,0.0087,2025-06-09T14:03:04.066570
22432,-0.0122,0.9521,0.2503,5.355,-7.105,-5.810,0.00,0.0184,0.0254,0.0100,0.0087,2025-06-09T14:03:04.066570
22433,-0.0151,0.9482,0.2596,4.200,-4.025,-6.265,0.00,0.0368,0.0508,0.0100,0.0087,2025-06-09T14:03:04.066570
22434,-0.0107,0.9404,0.2689,4.025,-0.070,-6.965,0.00,0.0184,0.0508,0.0200,0.0087,2025-06-09T14:03:04.174453
22435,-0.0054,0.9409,0.2796,3.605,7.455,-7.245,0.01,0.0184,0.0254,0.0100,0.0087,2025-06-09T14:03:04.174453
22436,-0.0356,0.9418,0.2991,3.745,11.935,-7.385,0.01,0.0184,0.0508,0.0100,0.0087,2025-06-09T14:03:04.174453
22437,-0.0625,0.9526,0.3074,3.850,12.075,-7.245,0.01,0.0184,0.0254,0.0100,0.0174,2025-06-09T14:03:04.174453
22438,-0.0737,0.9633,0.3338,4.410,9.765,-7.210,0.01,0.0368,0.0508,0.0100,0.0087,2025-06-09T14:03:04.174453
22439,-0.0786,0.9736,0.3382,4.270,6.755,-6.510,0.00,0.0184,0.0254,0.0200,0.0087,2025-06-09T14:03:04.174453
22440,-0.0756,0.9780,0.3416,4.550,2.800,-6.195,0.01,0.0184,0.0254,0.0100,0.0087,2025-06-09T14:03:04.174453
22441,-0.0561,0.9843,0.3450,4.515,1.855,-5.530,0.00,0.0368,0.0508,0.0200,0.0174,2025-06-09T14:03:04.276180
22442,-0.0464,0.9858,0.3504,4.130,3.360,-4.200,0.01,0.0368,0.0254,0.0200,0.0087,2025-06-09T14:03:04.276180
22443,-0.0503,0.9867,0.3621,4.375,5.250,-3.640,0.01,0.0368,0.0508,0.0200,0.0174,2025-06-09T14:03:04.276180
22444,-0.0586,0.9902,0.3543,4.025,7.245,-3.360,0.00,0.0184,0.0254,0.0200,0.0087,2025-06-09T14:03:04.276180
22445,-0.0805,0.9833,0.3514,3.255,6.825,-3.430,0.00,0.0368,0.0508,0.0100,0.0087,2025-06-09T14:03:04.276180
22446,-0.1020,0.9809,0.3431,3.290,3.115,-4.410,0.00,0.0184,0.0254,0.0200,0.0087,2025-06-09T14:03:04.276180
22447,-0.1030,0.9687,0.3416,1.645,-1.505,-5.880,0.00,0.0184,0.0508,0.0100,0.0087,2025-06-09T14:03:04.276180
22448,-0.1030,0.9511,0.3431,1.505,-7.385,-6.755,0.00,0.0000,0.0254,0.0100,0.0087,2025-06-09T14:03:04.276180
22449,-0.1113,0.9350,0.3333,0.630,-13.545,-7.665,0.01,0.0368,0.0508,0.0100,0.0087,2025-06-09T14:03:04.404289
22450,-0.0752,0.9262,0.3382,0.665,-13.090,-8.435,0.00,0.0184,0.0254,0.0200,0.0174,2025-06-09T14:03:04.404289
22451,-0.0425,0.9243,0.3411,0.140,-4.270,-9.100,0.00,0.0552,0.0508,0.0100,0.0174,2025-06-09T14:03:04.404289
22452,-0.0737,0.9267,0.3455,-0.875,4.165,-9.065,0.00,0.0184,0.0254,0.0200,0.0174,2025-06-09T14:03:04.404289
22453,-0.1347,0.9301,0.3543,-1.015,7.210,-8.365,0.00,0.0184,0.0508,0.0200,0.0087,2025-06-09T14:03:04.404289
22454,-0.1732,0.9335,0.3518,-0.245,3.010,-7.385,0.00,0.0184,0.0508,0.0100,0.0174,2025-06-09T14:03:04.404289
22455,-0.1810,0.9384,0.3421,-0.315,-1.855,-6.510,0.00,0.0000,0.0254,0.0200,0.0087,2025-06-09T14:03:04.404289
22456,-0.1698,0.9404,0.3235,-0.490,-6.965,-5.460,0.00,0.0000,0.0254,0.0100,0.0087,2025-06-09T14:03:04.404289
22457,-0.1615,0.9370,0.3177,0.070,-8.855,-4.620,0.01,0.0184,0.0254,0.0200,0.0087,2025-06-09T14:03:04.509432
22458,-0.1479,0.9340,0.3172,-0.245,-8.330,-3.745,0.01,0.0368,0.0508,0.0200,0.0087,2025-06-09T14:03:04.509432
22459,-0.1391,0.9365,0.3216,0.525,-6.055,-3.325,0.00,0.0368,0.0254,0.0200,0.0174,2025-06-09T14:03:05.052154
22460,-0.1444,0.9355,0.3211,1.050,-3.710,-2.730,0.00,0.0184,0.0254,0.0100,0.0174,2025-06-09T14:03:05.052154
22461,-0.1576,0.9379,0.3255,1.785,-2.240,-1.820,0.00,0.0368,0.0254,0.0100,0.0087,2025-06-09T14:03:05.052154
22462,-0.1571,0.9389,0.3245,3.185,-1.750,-1.365,0.00,0.0184,0.0254,0.0200,0.0087,2025-06-09T14:03:05.052154
22463,-0.1552,0.9433,0.3348,3.535,-1.400,-0.630,0.00,0.0184,0.0254,0.0100,0.0174,2025-06-09T14:03:05.052154
22464,-0.1576,0.9448,0.3250,4.550,-2.485,0.280,0.00,0.0184,0.0508,0.0200,0.0087,2025-06-09T14:03:05.052154
22465,-0.1723,0.9438,0.3123,4.445,-5.495,0.980,0.00,0.0184,0.0508,0.0200,0.0174,2025-06-09T14:03:05.052154
22466,-0.1479,0.9423,0.3167,4.165,-7.385,1.785,0.01,0.0368,0.0254,0.0200,0.0174,2025-06-09T14:03:05.052745
22467,-0.1283,0.9374,0.3260,4.200,-5.985,1.855,0.01,0.0368,0.0508,0.0100,0.0087,2025-06-09T14:03:05.052745
22468,-0.1371,0.9340,0.3235,3.990,-4.795,1.715,0.01,0.0184,0.0254,0.0200,0.0087,2025-06-09T14:03:05.052745
22469,-0.1430,0.9321,0.3201,4.445,-5.285,1.435,0.00,0.0368,0.0254,0.0200,0.0087,2025-06-09T14:03:05.052745
22470,-0.1425,0.9306,0.3172,3.955,-5.565,0.805,0.00,0.0368,0.0254,0.0200,0.0087,2025-06-09T14:03:05.052745
22471,-0.1362,0.9360,0.3128,3.780,-5.530,-0.140,0.00,0.0184,0.0254,0.0200,0.0087,2025-06-09T14:03:05.052869
22472,-0.1386,0.9350,0.3133,2.625,-5.495,-0.560,0.01,0.0368,0.0254,0.0100,0.0087,2025-06-09T14:03:05.052869
22473,-0.1479,0.9335,0.3152,2.380,-6.825,-0.840,0.00,0.0184,0.0254,0.0200,0.0174,2025-06-09T14:03:05.052869
22474,-0.1503,0.9311,0.3226,1.540,-9.625,-1.120,0.01,0.0184,0.0508,0.0100,0.0087,2025-06-09T14:03:05.052869
22475,-0.1376,0.9355,0.3304,1.750,-10.255,-1.190,0.01,0.0184,0.0508,0.0200,0.0174,2025-06-09T14:03:05.052869
22476,-0.1240,0.9331,0.3255,1.225,-9.170,-1.190,0.01,0.0368,0.0508,0.0200,0.0174,2025-06-09T14:03:05.052869
22477,-0.1313,0.9355,0.3255,1.225,-7.665,-1.155,0.00,0.0184,0.0254,0.0100,0.0174,2025-06-09T14:03:05.052869
22478,-0.1435,0.9384,0.3289,1.330,-6.755,-0.945,0.00,0.0184,0.0254,0.0200,0.0000,2025-06-09T14:03:05.052869
22479,-0.1479,0.9384,0.3231,1.330,-7.315,-0.770,0.00,0.0184,0.0508,0.0100,0.0087,2025-06-09T14:03:05.052869
22480,-0.1430,0.9394,0.3138,1.925,-7.910,-0.665,0.00,0.0184,0.0508,0.0100,0.0087,2025-06-09T14:03:05.052869
22481,-0.1381,0.9433,0.3109,1.575,-7.735,-0.910,0.00,0.0184,0.0254,0.0100,0.0087,2025-06-09T14:03:05.052869
22482,-0.1405,0.9414,0.2972,1.715,-8.155,-1.155,0.00,0.0184,0.0254,0.0100,0.0087,2025-06-09T14:03:05.052869
22483,-0.1513,0.9335,0.2996,1.855,-9.520,-1.225,0.00,0.0000,0.0254,0.0100,0.0087,2025-06-09T14:03:05.052869
22484,-0.1381,0.9316,0.2962,2.135,-10.395,-1.400,0.01,0.0184,0.0254,0.0100,0.0087,2025-06-09T14:03:05.052869
22485,-0.1225,0.9316,0.2835,2.135,-9.625,-1.400,0.00,0.0368,0.0254,0.0200,0.0087,2025-06-09T14:03:05.052869
22486,-0.1147,0.9335,0.2908,2.205,-7.140,-1.505,0.00,0.0184,0.0254,0.0100,0.0087,2025-06-09T14:03:05.052869
22487,-0.1118,0.9321,0.2879,2.240,-4.865,-1.365,0.00,0.0368,0.0508,0.0200,0.0087,2025-06-09T14:03:05.052869
22488,-0.1152,0.9331,0.2894,2.450,-3.185,-1.575,0.00,0.0368,0.0254,0.0100,0.0087,2025-06-09T14:03:05.052869
22489,-0.1142,0.9316,0.2830,2.380,-1.995,-1.610,0.00,0.0368,0.0508,0.0200,0.0087,2025-06-09T14:03:05.052869
22490,-0.1157,0.9296,0.2811,2.625,-1.470,-1.610,0.01,0.0184,0.0254,0.0100,0.0087,2025-06-09T14:03:05.052869
22491,-0.1240,0.9335,0.2826,2.975,-1.435,-1.680,0.00,0.0368,0.0508,0.0200,0.0174,2025-06-09T14:03:05.052869
22492,-0.1235,0.9296,0.2762,3.045,-1.750,-1.890,0.01,0.0184,0.0254,0.0200,0.0087,2025-06-09T14:03:05.052869
22493,-0.1269,0.9287,0.2699,3.010,-2.205,-2.275,0.00,0.0184,0.0254,0.0200,0.0174,2025-06-09T14:03:05.053410
22494,-0.1181,0.9243,0.2684,2.730,-1.715,-2.485,0.00,0.0184,0.0254,0.0100,0.0174,2025-06-09T14:03:05.053443
22495,-0.1161,0.9248,0.2752,2.800,0.140,-2.905,0.00,0.0184,0.0254,0.0200,0.0174,2025-06-09T14:03:05.053443
22496,-0.1191,0.9272,0.2786,2.450,2.520,-3.395,0.00,0.0184,0.0254,0.0200,0.0087,2025-06-09T14:03:05.053443
22497,-0.1264,0.9267,0.2762,2.485,3.815,-3.885,0.01,0.0184,0.0508,0.0100,0.0174,2025-06-09T14:03:05.053443
22498,-0.1376,0.9296,0.2782,2.135,4.480,-4.480,0.01,0.0184,0.0254,0.0100,0.0087,2025-06-09T14:03:05.053443
22499,-0.1425,0.9296,0.2840,1.960,4.725,-5.180,0.00,0.0184,0.0254,0.0100,0.0087,2025-06-09T14:03:05.053443
22500,-0.1547,0.9287,0.2855,1.890,4.025,-5.355,0.01,0.0184,0.0254,0.0100,0.0087,2025-06-09T14:03:05.053443
22501,-0.1552,0.9277,0.3001,2.100,2.870,-5.600,0.00,0.0184,0.0508,0.0100,0.0087,2025-06-09T14:03:05.053443
22502,-0.1532,0.9252,0.2952,2.275,2.345,-5.950,0.00,0.0368,0.0254,0.0200,0.0087,2025-06-09T14:03:05.053443
22503,-0.1508,0.9238,0.3001,2.240,2.590,-6.265,0.00,0.0184,0.0508,0.0200,0.0087,2025-06-09T14:03:05.095361
22504,-0.1449,0.9243,0.3011,2.485,4.305,-6.370,0.00,0.0184,0.0254,0.0200,0.0087,2025-06-09T14:03:05.095361
22505,-0.1576,0.9292,0.3050,2.450,6.510,-6.580,0.00,0.0184,0.0254,0.0200,0.0087,2025-06-09T14:03:05.095361
22506,-0.1718,0.9331,0.3055,2.520,7.420,-6.090,0.01,0.0368,0.0254,0.0200,0.0087,2025-06-09T14:03:05.095361
22507,-0.1947,0.9379,0.3055,2.660,6.475,-5.740,0.00,0.0184,0.0254,0.0100,0.0174,2025-06-09T14:03:05.095361
22508,-0.2006,0.9384,0.3030,2.275,4.200,-5.040,0.01,0.0184,0.0254,0.0100,0.0087,2025-06-09T14:03:05.095361
22509,-0.2079,0.9345,0.3030,2.345,1.715,-4.235,0.00,0.0368,0.0508,0.0200,0.0087,2025-06-09T14:03:05.095361
22510,-0.2001,0.9374,0.3055,2.660,-0.490,-3.640,0.01,0.0184,0.0508,0.0200,0.0174,2025-06-09T14:03:05.234955
22511,-0.1947,0.9326,0.3011,2.870,-1.680,-2.940,0.00,0.0368,0.0254,0.0200,0.0174,2025-06-09T14:03:05.234955
22512,-0.1850,0.9316,0.3030,3.255,-1.715,-2.415,0.01,0.0184,0.0508,0.0200,0.0174,2025-06-09T14:03:05.234955
22513,-0.1737,0.9350,0.3089,3.675,-0.035,-1.890,0.00,0.0184,0.0254,0.0100,0.0174,2025-06-09T14:03:05.234955
22514,-0.1810,0.9370,0.3040,3.920,1.540,-1.540,0.01,0.0184,0.0254,0.0200,0.0087,2025-06-09T14:03:05.234955
22515,-0.1923,0.9418,0.3021,4.410,2.065,-0.945,0.00,0.0184,0.0508,0.0100,0.0087,2025-06-09T14:03:05.234955
22516,-0.1976,0.9418,0.2943,4.725,1.190,-0.385,0.01,0.0184,0.0508,0.0100,0.0087,2025-06-09T14:03:05.234955
22517,-0.1962,0.9443,0.2913,4.970,-0.140,0.210,0.00,0.0184,0.0254,0.0200,0.0174,2025-06-09T14:03:05.234955
22518,-0.1942,0.9487,0.2874,4.760,-1.925,0.630,0.00,0.0184,0.0254,0.0100,0.0087,2025-06-09T14:03:05.234955
22519,-0.1889,0.9487,0.2821,4.725,-3.045,0.665,0.01,0.0368,0.0508,0.0200,0.0174,2025-06-09T14:03:05.234955
22520,-0.1820,0.9472,0.2782,4.305,-3.885,0.875,0.00,0.0368,0.0508,0.0200,0.0087,2025-06-09T14:03:05.408325
22521,-0.1732,0.9477,0.2811,4.095,-3.500,0.805,0.01,0.0368,0.0508,0.0100,0.0087,2025-06-09T14:03:05.408325
22522,-0.1713,0.9443,0.2791,3.675,-2.450,0.805,0.00,0.0368,0.0508,0.0200,0.0087,2025-06-09T14:03:05.408325
22523,-0.1732,0.9414,0.2752,3.255,-1.575,1.015,0.01,0.0184,0.0508,0.0200,0.0087,2025-06-09T14:03:05.408325
22524,-0.1820,0.9448,0.2816,3.045,-0.980,1.120,0.00,0.0184,0.0254,0.0200,0.0000,2025-06-09T14:03:05.408325
22525,-0.1776,0.9457,0.2772,2.765,-0.245,1.260,0.01,0.0184,0.0254,0.0100,0.0174,2025-06-09T14:03:05.408325
22526,-0.1815,0.9472,0.2816,2.310,0.280,1.400,0.01,0.0184,0.0254,0.0000,0.0087,2025-06-09T14:03:05.408325
22527,-0.1889,0.9443,0.2850,2.450,-0.245,1.505,0.00,0.0184,0.0508,0.0100,0.0087,2025-06-09T14:03:05.408325
22528,-0.1928,0.9467,0.2821,1.960,-1.540,1.540,0.00,0.0184,0.0254,0.0100,0.0087,2025-06-09T14:03:05.408325
22529,-0.1932,0.9428,0.2884,1.785,-3.640,1.190,0.00,0.0184,0.0254,0.0100,0.0087,2025-06-09T14:03:05.408325
22530,-0.1810,0.9428,0.2899,1.575,-5.040,1.015,0.01,0.0184,0.0254,0.0100,0.0087,2025-06-09T14:03:05.408325
22531,-0.1762,0.9448,0.2894,1.610,-5.075,0.455,0.00,0.0000,0.0254,0.0100,0.0087,2025-06-09T14:03:05.408325
22532,-0.1654,0.9467,0.2884,1.260,-3.955,-0.175,0.01,0.0368,0.0508,0.0100,0.0087,2025-06-09T14:03:05.408325
22533,-0.1625,0.9492,0.2874,1.120,-2.660,-0.945,0.00,0.0184,0.0254,0.0100,0.0087,2025-06-09T14:03:05.493129
22534,-0.1703,0.9496,0.2850,0.770,-2.590,-1.505,0.00,0.0184,0.0254,0.0200,0.0087,2025-06-09T14:03:05.493129
22535,-0.1742,0.9482,0.2860,0.210,-3.430,-2.065,0.00,0.0184,0.0508,0.0100,0.0087,2025-06-09T14:03:05.493129
22536,-0.1708,0.9477,0.2835,-0.175,-4.550,-2.520,0.01,0.0184,0.0508,0.0100,0.0174,2025-06-09T14:03:05.493129
22537,-0.1703,0.9428,0.2835,-0.805,-5.495,-2.660,0.01,0.0368,0.0254,0.0100,0.0087,2025-06-09T14:03:05.608073
22538,-0.1645,0.9365,0.2757,-1.050,-5.880,-2.800,0.01,0.0368,0.0508,0.0100,0.0087,2025-06-09T14:03:05.608073
22539,-0.1649,0.9331,0.2835,-1.505,-4.795,-3.010,0.01,0.0368,0.0254,0.0200,0.0087,2025-06-09T14:03:05.608073
22540,-0.1610,0.9316,0.2762,-1.715,-4.165,-3.080,0.01,0.0184,0.0508,0.0200,0.0174,2025-06-09T14:03:05.608073
22541,-0.1737,0.9292,0.2777,-1.575,-4.760,-3.255,0.00,0.0368,0.0508,0.0200,0.0087,2025-06-09T14:03:05.608073
22542,-0.1737,0.9287,0.2738,-1.645,-5.950,-3.290,0.00,0.0368,0.0254,0.0100,0.0087,2025-06-09T14:03:05.608073
22543,-0.1757,0.9204,0.2723,-1.120,-6.755,-3.220,0.00,0.0368,0.0254,0.0100,0.0087,2025-06-09T14:03:05.608073
22544,-0.1669,0.9204,0.2747,-0.455,-6.720,-3.430,0.00,0.0184,0.0508,0.0100,0.0087,2025-06-09T14:03:05.608073
22545,-0.1708,0.9179,0.2723,0.245,-6.230,-3.395,0.01,0.0184,0.0508,0.0100,0.0087,2025-06-09T14:03:05.608073
22546,-0.1732,0.9199,0.2796,0.805,-5.740,-3.780,0.00,0.0184,0.0254,0.0200,0.0174,2025-06-09T14:03:05.608073
22547,-0.1737,0.9189,0.2645,1.295,-5.880,-3.815,0.00,0.0184,0.0254,0.0100,0.0087,2025-06-09T14:03:05.608073
22548,-0.1708,0.9223,0.2655,1.470,-5.355,-3.990,0.01,0.0368,0.0254,0.0200,0.0087,2025-06-09T14:03:05.707905
22549,-0.1669,0.9262,0.2645,1.575,-2.940,-4.305,0.01,0.0184,0.0254,0.0100,0.0087,2025-06-09T14:03:05.707905
22550,-0.1718,0.9277,0.2689,1.540,-1.645,-4.340,0.01,0.0368,0.0508,0.0200,0.0087,2025-06-09T14:03:05.707905
22551,-0.1879,0.9296,0.2650,1.995,-2.415,-4.130,0.00,0.0184,0.0508,0.0200,0.0087,2025-06-09T14:03:05.707905
22552,-0.1884,0.9301,0.2708,1.610,-3.465,-4.165,0.01,0.0184,0.0254,0.0100,0.0087,2025-06-09T14:03:05.707905
22553,-0.1786,0.9326,0.2708,1.855,-4.165,-4.480,0.01,0.0184,0.0254,0.0100,0.0174,2025-06-09T14:03:05.707905
22554,-0.1796,0.9326,0.2630,1.540,-4.410,-4.935,0.01,0.0184,0.0254,0.0100,0.0087,2025-06-09T14:03:05.707905
22555,-0.1723,0.9370,0.2684,1.365,-4.095,-5.495,0.01,0.0184,0.0508,0.0100,0.0087,2025-06-09T14:03:05.707905
22556,-0.1835,0.9374,0.2718,1.365,-4.165,-5.985,0.01,0.0184,0.0254,0.0100,0.0087,2025-06-09T14:03:05.811421
22557,-0.1806,0.9379,0.2616,1.260,-4.655,-5.985,0.01,0.0368,0.0254,0.0100,0.0087,2025-06-09T14:03:05.811421
22558,-0.1771,0.9428,0.2664,0.910,-4.095,-6.055,0.00,0.0368,0.0508,0.0200,0.0087,2025-06-09T14:03:05.811421
22559,-0.1713,0.9428,0.2640,0.735,-2.870,-6.265,0.00,0.0368,0.0254,0.0200,0.0087,2025-06-09T14:03:05.811421
22560,-0.1771,0.9457,0.2674,0.385,-2.310,-6.720,0.01,0.0184,0.0254,0.0200,0.0087,2025-06-09T14:03:05.811421
22561,-0.1845,0.9443,0.2694,0.315,-3.185,-7.105,0.00,0.0184,0.0254,0.0100,0.0087,2025-06-09T14:03:05.811421
22562,-0.1908,0.9467,0.2728,0.070,-5.285,-7.595,0.01,0.0368,0.0254,0.0100,0.0087,2025-06-09T14:03:05.811421
22563,-0.1830,0.9404,0.2645,0.175,-8.400,-8.155,0.00,0.0368,0.0508,0.0200,0.0087,2025-06-09T14:03:05.946086
22564,-0.1791,0.9399,0.2694,-0.035,-9.590,-8.820,0.00,0.0368,0.0508,0.0100,0.0087,2025-06-09T14:03:05.946086
22565,-0.1669,0.9374,0.2655,0.000,-9.065,-9.345,0.00,0.0368,0.0254,0.0200,0.0174,2025-06-09T14:03:05.946086
22566,-0.1713,0.9345,0.2660,-0.630,-6.825,-9.415,0.01,0.0368,0.0254,0.0100,0.0087,2025-06-09T14:03:05.946086
22567,-0.1703,0.9370,0.2684,-0.420,-3.185,-9.380,0.01,0.0184,0.0508,0.0100,0.0087,2025-06-09T14:03:05.946086
22568,-0.1810,0.9374,0.2743,-1.295,0.945,-8.680,0.00,0.0184,0.0254,0.0100,0.0087,2025-06-09T14:03:05.946086
22569,-0.2054,0.9418,0.2786,-1.330,2.975,-7.770,0.00,0.0184,0.0254,0.0200,0.0087,2025-06-09T14:03:05.946086
22570,-0.2313,0.9457,0.2786,-1.855,2.345,-6.370,0.00,0.0184,0.0254,0.0100,0.0087,2025-06-09T14:03:05.946086
22571,-0.2338,0.9453,0.2767,-1.680,-1.645,-5.215,0.01,0.0368,0.0508,0.0200,0.0087,2025-06-09T14:03:05.946086
22572,-0.2230,0.9448,0.2884,-1.890,-4.165,-4.130,0.00,0.0184,0.0254,0.0100,0.0174,2025-06-09T14:03:05.946086
22573,-0.2025,0.9467,0.2850,-1.610,-4.165,-3.360,0.00,0.0368,0.0254,0.0200,0.0174,2025-06-09T14:03:05.992936
22574,-0.1967,0.9453,0.2894,-1.505,-2.905,-2.345,0.00,0.0184,0.0508,0.0100,0.0087,2025-06-09T14:03:05.992936
22575,-0.2045,0.9453,0.2894,-1.085,-0.980,-1.610,0.01,0.0184,0.0508,0.0200,0.0087,2025-06-09T14:03:05.992936
22576,-0.2137,0.9428,0.2860,-0.700,-0.385,-0.490,0.01,0.0184,0.0254,0.0100,0.0087,2025-06-09T14:03:05.992936
22577,-0.2201,0.9433,0.2874,0.035,-0.980,0.630,0.00,0.0184,0.0508,0.0100,0.0087,2025-06-09T14:03:06.042805
22578,-0.2191,0.9428,0.2826,0.665,-1.610,1.400,0.00,0.0184,0.0508,0.0200,0.0087,2025-06-09T14:03:06.042805
22579,-0.2142,0.9448,0.2791,0.910,-2.065,2.100,0.01,0.0368,0.0508,0.0100,0.0087,2025-06-09T14:03:06.042805
22580,-0.2074,0.9423,0.2772,1.540,-2.065,2.520,0.00,0.0184,0.0508,0.0100,0.0000,2025-06-09T14:03:06.231444
22581,-0.2113,0.9355,0.2704,1.155,-2.275,2.660,0.01,0.0184,0.0254,0.0100,0.0087,2025-06-09T14:03:06.231444
22582,-0.2064,0.9335,0.2674,1.505,-2.660,2.660,0.00,0.0368,0.0254,0.0100,0.0087,2025-06-09T14:03:06.231444
22583,-0.2050,0.9292,0.2679,1.470,-2.485,2.765,0.00,0.0184,0.0508,0.0200,0.0174,2025-06-09T14:03:06.231444
22584,-0.2108,0.9252,0.2650,1.505,-2.170,2.660,0.00,0.0184,0.0508,0.0200,0.0174,2025-06-09T14:03:06.231444
22585,-0.2040,0.9243,0.2669,1.855,-1.540,2.450,0.00,0.0368,0.0254,0.0200,0.0087,2025-06-09T14:03:06.231444
22586,-0.2045,0.9262,0.2572,1.995,-0.630,2.625,0.01,0.0184,0.0254,0.0100,0.0087,2025-06-09T14:03:06.231444
22587,-0.2059,0.9277,0.2606,2.065,0.000,2.485,0.01,0.0184,0.0508,0.0100,0.0087,2025-06-09T14:03:06.231444
22588,-0.2054,0.9277,0.2606,2.065,0.035,2.415,0.01,0.0184,0.0508,0.0200,0.0174,2025-06-09T14:03:06.231444
22589,-0.2113,0.9248,0.2625,2.415,-0.140,2.555,0.00,0.0000,0.0254,0.0100,0.0087,2025-06-09T14:03:06.231444
22590,-0.2025,0.9218,0.2699,2.380,0.175,2.695,0.01,0.0368,0.0254,0.0200,0.0087,2025-06-09T14:03:06.231444
22591,-0.2113,0.9228,0.2689,2.870,0.350,2.800,0.00,0.0184,0.0508,0.0100,0.0087,2025-06-09T14:03:06.231444
22592,-0.2113,0.9170,0.2640,3.010,-0.455,2.765,0.00,0.0368,0.0254,0.0200,0.0087,2025-06-09T14:03:06.231444
22593,-0.2064,0.9189,0.2669,3.080,-1.155,2.695,0.00,0.0368,0.0254,0.0200,0.0174,2025-06-09T14:03:06.232441
22594,-0.2040,0.9145,0.2733,3.360,-1.015,2.170,0.01,0.0184,0.0508,0.0200,0.0174,2025-06-09T14:03:06.328187
22595,-0.2040,0.9135,0.2752,3.605,-0.420,1.575,0.00,0.0368,0.0254,0.0200,0.0174,2025-06-09T14:03:06.328187
22596,-0.2118,0.9145,0.2699,3.815,-0.630,0.910,0.01,0.0368,0.0508,0.0100,0.0087,2025-06-09T14:03:06.328187
22597,-0.2050,0.9135,0.2733,3.955,-0.910,0.070,0.00,0.0368,0.0254,0.0100,0.0087,2025-06-09T14:03:06.328187
22598,-0.2054,0.9194,0.2655,3.850,-0.455,-0.700,0.01,0.0368,0.0508,0.0100,0.0087,2025-06-09T14:03:06.328187
22599,-0.2015,0.9233,0.2591,3.325,0.070,-1.645,0.00,0.0184,0.0254,0.0100,0.0087,2025-06-09T14:03:06.328187
22600,-0.2020,0.9296,0.2708,2.975,0.700,-2.380,0.00,0.0184,0.0508,0.0100,0.0087,2025-06-09T14:03:06.328187
22601,-0.2142,0.9282,0.2684,1.995,0.315,-2.870,0.01,0.0184,0.0508,0.0200,0.0174,2025-06-09T14:03:06.434899
22602,-0.2255,0.9301,0.2747,1.575,-2.555,-2.975,0.01,0.0368,0.0508,0.0100,0.0087,2025-06-09T14:03:06.434899
22603,-0.2211,0.9355,0.2743,1.575,-4.655,-2.975,0.00,0.0368,0.0508,0.0200,0.0087,2025-06-09T14:03:06.434899
22604,-0.2108,0.9418,0.2723,1.400,-4.970,-3.115,0.01,0.0368,0.0254,0.0100,0.0087,2025-06-09T14:03:06.434899
22605,-0.2128,0.9496,0.2718,1.295,-4.130,-3.465,0.01,0.0368,0.0254,0.0100,0.0087,2025-06-09T14:03:06.434899
22606,-0.2059,0.9501,0.2786,1.435,-3.150,-3.360,0.00,0.0368,0.0254,0.0200,0.0087,2025-06-09T14:03:06.434899
22607,-0.2211,0.9531,0.2718,1.295,-3.290,-2.730,0.00,0.0368,0.0508,0.0100,0.0087,2025-06-09T14:03:06.434899
22608,-0.2157,0.9531,0.2772,1.085,-4.340,-2.240,0.00,0.0184,0.0508,0.0200,0.0087,2025-06-09T14:03:06.434899
22609,-0.2098,0.9560,0.2733,1.085,-4.795,-1.645,0.01,0.0368,0.0508,0.0200,0.0087,2025-06-09T14:03:06.558176
22610,-0.2035,0.9560,0.2684,0.735,-5.390,-1.225,0.00,0.0368,0.0254,0.0200,0.0174,2025-06-09T14:03:06.558176
22611,-0.2015,0.9545,0.2586,0.630,-5.950,-0.805,0.00,0.0368,0.0508,0.0100,0.0087,2025-06-09T14:03:06.558176
22612,-0.2094,0.9540,0.2552,0.140,-5.985,-0.490,0.01,0.0184,0.0508,0.0200,0.0087,2025-06-09T14:03:06.558176
22613,-0.2059,0.9540,0.2508,0.525,-6.125,-0.350,0.00,0.0184,0.0508,0.0100,0.0174,2025-06-09T14:03:06.558176
22614,-0.2074,0.9487,0.2494,0.385,-5.740,-0.315,0.00,0.0184,0.0508,0.0200,0.0087,2025-06-09T14:03:06.558176
22615,-0.2030,0.9448,0.2503,0.315,-5.040,0.000,0.00,0.0184,0.0508,0.0200,0.0087,2025-06-09T14:03:06.558176
22616,-0.1991,0.9418,0.2518,0.350,-4.515,0.070,0.00,0.0184,0.0254,0.0100,0.0087,2025-06-09T14:03:06.558176
22617,-0.2059,0.9423,0.2479,0.420,-4.375,0.175,0.01,0.0368,0.0508,0.0200,0.0087,2025-06-09T14:03:06.583106
22618,-0.2079,0.9423,0.2464,0.070,-4.515,0.070,0.01,0.0184,0.0508,0.0100,0.0174,2025-06-09T14:03:06.583106
22619,-0.2001,0.9370,0.2484,0.105,-4.585,-0.280,0.00,0.0368,0.0508,0.0100,0.0087,2025-06-09T14:03:06.583106
22620,-0.1947,0.9335,0.2460,-0.210,-4.305,-0.315,0.01,0.0368,0.0254,0.0200,0.0087,2025-06-09T14:03:06.583106
22621,-0.1937,0.9321,0.2513,-0.315,-3.570,-0.385,0.00,0.0368,0.0254,0.0200,0.0174,2025-06-09T14:03:06.748000
22622,-0.1942,0.9301,0.2508,-0.595,-2.415,-0.840,0.01,0.0368,0.0508,0.0200,0.0174,2025-06-09T14:03:06.748000
22623,-0.2020,0.9282,0.2508,-0.770,-2.030,-1.050,0.01,0.0184,0.0508,0.0200,0.0174,2025-06-09T14:03:06.748000
22624,-0.2079,0.9282,0.2508,-0.805,-1.995,-1.680,0.00,0.0368,0.0254,0.0200,0.0174,2025-06-09T14:03:06.748000
22625,-0.2001,0.9267,0.2499,-0.910,-1.365,-2.170,0.00,0.0184,0.0254,0.0100,0.0087,2025-06-09T14:03:06.748000
22626,-0.2035,0.9252,0.2464,-1.190,-0.385,-2.240,0.00,0.0368,0.0508,0.0200,0.0174,2025-06-09T14:03:06.748000
22627,-0.2137,0.9257,0.2479,-1.785,-0.420,-2.555,0.00,0.0368,0.0508,0.0100,0.0087,2025-06-09T14:03:06.748000
22628,-0.2079,0.9209,0.2499,-1.785,-0.945,-2.660,0.00,0.0184,0.0254,0.0100,0.0087,2025-06-09T14:03:06.748000
22629,-0.2089,0.9204,0.2596,-1.995,-0.980,-2.485,0.00,0.0184,0.0254,0.0100,0.0174,2025-06-09T14:03:06.748000
22630,-0.2123,0.9199,0.2621,-1.855,-0.980,-2.625,0.01,0.0184,0.0254,0.0100,0.0087,2025-06-09T14:03:06.748000
22631,-0.2128,0.9179,0.2630,-1.435,-1.225,-2.905,0.00,0.0184,0.0254,0.0100,0.0087,2025-06-09T14:03:06.748000
22632,-0.2142,0.9160,0.2699,-0.980,-1.890,-3.360,0.01,0.0552,0.0254,0.0200,0.0087,2025-06-09T14:03:06.748000
22633,-0.2118,0.9155,0.2689,-0.140,-2.415,-3.815,0.00,0.0368,0.0254,0.0100,0.0087,2025-06-09T14:03:06.748000
22634,-0.2133,0.9130,0.2640,0.490,-2.485,-4.515,0.01,0.0184,0.0508,0.0200,0.0087,2025-06-09T14:03:06.966699
22635,-0.2098,0.9135,0.2699,1.155,-1.890,-5.145,0.01,0.0184,0.0508,0.0100,0.0174,2025-06-09T14:03:06.966699
22636,-0.2133,0.9145,0.2664,1.575,-1.330,-5.985,0.01,0.0368,0.0254,0.0200,0.0087,2025-06-09T14:03:06.966699
22637,-0.2191,0.9155,0.2630,1.785,-1.610,-6.685,0.01,0.0184,0.0254,0.0100,0.0087,2025-06-09T14:03:06.966699
22638,-0.2216,0.9160,0.2635,2.485,-2.310,-6.895,0.00,0.0368,0.0254,0.0100,0.0087,2025-06-09T14:03:06.966699
22639,-0.2201,0.9223,0.2669,2.485,-2.310,-7.420,0.00,0.0184,0.0508,0.0100,0.0087,2025-06-09T14:03:06.966699
22640,-0.2191,0.9238,0.2684,2.730,-1.715,-7.630,0.00,0.0368,0.0254,0.0200,0.0087,2025-06-09T14:03:06.966699
22641,-0.2259,0.9248,0.2621,2.555,-1.365,-7.560,0.01,0.0184,0.0254,0.0200,0.0174,2025-06-09T14:03:06.966699
22642,-0.2372,0.9301,0.2572,2.450,-1.925,-7.315,0.00,0.0184,0.0254,0.0100,0.0087,2025-06-09T14:03:06.966699
22643,-0.2479,0.9301,0.2611,2.310,-2.730,-7.175,0.00,0.0184,0.0254,0.0100,0.0174,2025-06-09T14:03:06.966699
22644,-0.2401,0.9374,0.2650,2.135,-2.310,-6.790,0.01,0.0184,0.0508,0.0200,0.0087,2025-06-09T14:03:06.966699
22645,-0.2401,0.9384,0.2591,2.030,-2.240,-6.230,0.01,0.0368,0.0254,0.0100,0.0174,2025-06-09T14:03:06.966699
22646,-0.2445,0.9438,0.2630,2.030,-2.415,-5.355,0.00,0.0184,0.0508,0.0100,0.0087,2025-06-09T14:03:06.966699
22647,-0.2460,0.9433,0.2582,1.610,-3.115,-4.830,0.01,0.0184,0.0508,0.0200,0.0087,2025-06-09T14:03:06.966699
22648,-0.2430,0.9433,0.2562,1.610,-3.990,-4.060,0.01,0.0184,0.0508,0.0200,0.0174,2025-06-09T14:03:06.966699
22649,-0.2396,0.9423,0.2572,1.470,-4.025,-3.395,0.01,0.0368,0.0508,0.0100,0.0174,2025-06-09T14:03:07.042471
22650,-0.2352,0.9428,0.2664,1.330,-3.675,-2.975,0.00,0.0184,0.0508,0.0200,0.0174,2025-06-09T14:03:07.042471
22651,-0.2347,0.9389,0.2538,1.645,-3.570,-2.450,0.00,0.0184,0.0508,0.0100,0.0087,2025-06-09T14:03:07.043470
22652,-0.2435,0.9414,0.2621,1.785,-3.815,-2.065,0.01,0.0184,0.0254,0.0200,0.0087,2025-06-09T14:03:07.043470
22653,-0.2406,0.9404,0.2508,2.345,-3.675,-1.680,0.01,0.0368,0.0254,0.0100,0.0087,2025-06-09T14:03:07.043470
22654,-0.2396,0.9433,0.2523,1.960,-3.605,-1.400,0.00,0.0184,0.0508,0.0100,0.0087,2025-06-09T14:03:07.043470
22655,-0.2435,0.9404,0.2445,2.240,-3.605,-0.945,0.00,0.0184,0.0254,0.0200,0.0174,2025-06-09T14:03:07.149190
22656,-0.2416,0.9374,0.2391,1.855,-3.850,-0.315,0.00,0.0368,0.0508,0.0200,0.0087,2025-06-09T14:03:07.149190
22657,-0.2406,0.9384,0.2435,2.170,-3.640,0.245,0.01,0.0368,0.0508,0.0200,0.0087,2025-06-09T14:03:07.149190
22658,-0.2357,0.9384,0.2499,2.065,-2.660,0.700,0.00,0.0184,0.0508,0.0200,0.0087,2025-06-09T14:03:07.149190
22659,-0.2406,0.9365,0.2513,2.345,-1.890,1.120,0.00,0.0184,0.0254,0.0100,0.0087,2025-06-09T14:03:07.149190
22660,-0.2494,0.9374,0.2479,2.485,-2.625,1.505,0.00,0.0184,0.0508,0.0100,0.0087,2025-06-09T14:03:07.149190
22661,-0.2572,0.9360,0.2460,2.450,-4.515,1.715,0.00,0.0368,0.0254,0.0200,0.0087,2025-06-09T14:03:07.149190
22662,-0.2420,0.9374,0.2386,2.590,-4.970,1.575,0.00,0.0368,0.0254,0.0100,0.0174,2025-06-09T14:03:07.232766
22663,-0.2294,0.9350,0.2303,2.135,-3.710,1.505,0.01,0.0368,0.0254,0.0100,0.0174,2025-06-09T14:03:07.232766
22664,-0.2338,0.9321,0.2333,1.820,-2.275,1.260,0.01,0.0184,0.0254,0.0200,0.0087,2025-06-09T14:03:07.232766
22665,-0.2430,0.9331,0.2372,1.610,-1.540,0.735,0.00,0.0184,0.0254,0.0100,0.0087,2025-06-09T14:03:07.232766
22666,-0.2489,0.9301,0.2372,1.400,-2.485,0.560,0.01,0.0184,0.0254,0.0200,0.0087,2025-06-09T14:03:07.232766
22667,-0.2484,0.9296,0.2381,1.330,-3.675,0.350,0.00,0.0184,0.0254,0.0100,0.0087,2025-06-09T14:03:07.232766
22668,-0.2425,0.9311,0.2338,0.945,-3.640,-0.245,0.00,0.0184,0.0254,0.0100,0.0087,2025-06-09T14:03:07.232766
22669,-0.2342,0.9321,0.2235,0.350,-3.010,-0.700,0.00,0.0000,0.0254,0.0100,0.0087,2025-06-09T14:03:07.232766
22670,-0.2318,0.9321,0.2264,-0.035,-2.205,-1.085,0.01,0.0184,0.0508,0.0200,0.0087,2025-06-09T14:03:07.349673
22671,-0.2255,0.9340,0.2303,-0.140,-0.735,-1.820,0.00,0.0368,0.0254,0.0200,0.0174,2025-06-09T14:03:07.349673
22672,-0.2289,0.9306,0.2284,-0.455,-0.035,-2.135,0.01,0.0184,0.0508,0.0100,0.0174,2025-06-09T14:03:07.349673
22673,-0.2294,0.9243,0.2269,-0.385,-0.770,-2.555,0.01,0.0368,0.0254,0.0100,0.0174,2025-06-09T14:03:07.349673
22674,-0.2235,0.9170,0.2225,-0.770,-3.080,-2.870,0.00,0.0184,0.0254,0.0200,0.0087,2025-06-09T14:03:07.349673
22675,-0.2069,0.9165,0.2181,-0.770,-4.900,-3.430,0.00,0.0184,0.0254,0.0100,0.0174,2025-06-09T14:03:07.349673
22676,-0.1810,0.9155,0.2240,-0.805,-5.460,-4.550,0.00,0.0368,0.0254,0.0100,0.0087,2025-06-09T14:03:07.349673
22677,-0.1645,0.9228,0.1884,-0.525,-5.600,-6.300,0.01,0.0184,0.0254,0.0200,0.0087,2025-06-09T14:03:07.349673
22678,-0.1659,0.9555,0.1791,-1.260,-7.035,-9.590,0.00,0.0184,0.0254,0.0100,0.0174,2025-06-09T14:03:07.480326
22679,-0.1235,0.9970,0.1698,-2.730,-3.920,-14.210,0.01,0.0368,0.0254,0.0100,0.0087,2025-06-09T14:03:07.480326
22680,-0.1064,1.0433,0.1581,-5.810,1.505,-18.865,0.00,0.0368,0.0508,0.0200,0.0087,2025-06-09T14:03:07.480326
22681,-0.0961,1.1014,0.1664,-11.480,10.010,-24.185,0.01,0.0368,0.0254,0.0200,0.0174,2025-06-09T14:03:07.480326
22682,-0.1005,1.1517,0.2020,-23.345,13.895,-26.075,0.00,0.0184,0.0254,0.0000,0.0174,2025-06-09T14:03:07.480326
22683,-0.1010,1.2288,0.2601,-37.240,11.655,-23.065,0.00,0.0368,0.0000,0.0100,0.0087,2025-06-09T14:03:07.480326
22684,-0.0654,1.3396,0.3245,-59.290,3.640,-15.925,0.00,0.0184,0.0254,0.0100,0.0174,2025-06-09T14:03:07.480326
22685,-0.0264,1.5416,0.3919,-86.030,-5.985,-5.320,0.00,0.0184,0.0254,0.0100,0.0087,2025-06-09T14:03:07.480326
22686,0.0468,1.7431,0.4455,-119.490,-20.895,11.655,0.00,0.0184,0.0508,0.0200,0.0087,2025-06-09T14:03:07.480326
22687,0.0630,1.9335,0.4753,-160.475,-34.615,28.035,0.00,0.0184,0.0508,0.0100,0.0087,2025-06-09T14:03:07.657848
22688,0.0312,2.1433,0.4958,-189.385,-55.685,48.965,0.00,0.0368,0.0254,0.0100,0.0174,2025-06-09T14:03:07.657848
22689,0.0054,2.2809,0.4294,-222.215,-81.095,66.325,0.00,0.0184,0.0254,0.0100,0.0174,2025-06-09T14:03:07.657848
22690,-0.0029,2.4166,0.3426,-241.360,-111.650,88.760,0.00,0.0368,0.0254,0.0100,0.0087,2025-06-09T14:03:07.657848
22691,0.0776,2.5293,0.1484,-251.510,-124.075,105.665,0.01,0.0184,0.0508,0.0200,0.0087,2025-06-09T14:03:07.657848
22692,0.2250,2.6752,-0.1366,-251.160,-109.375,121.975,0.00,0.0184,0.0254,0.0200,0.0087,2025-06-09T14:03:07.657848
22693,0.2972,2.6074,-0.7105,-236.005,-56.525,132.545,0.00,0.0184,0.0508,0.0000,0.0087,2025-06-09T14:03:07.657848
22694,0.2782,2.6552,-1.0629,-210.945,5.005,147.350,0.00,0.0184,0.0254,0.0200,0.0087,2025-06-09T14:03:07.657848
22695,-0.0893,2.4341,-1.3601,-182.875,68.215,164.570,0.01,0.0184,0.0254,0.0200,0.0087,2025-06-09T14:03:07.657848
22696,-0.5358,2.0159,-1.9515,-158.480,85.855,197.610,0.00,0.0184,0.0508,0.0200,0.0087,2025-06-09T14:03:07.657848
22697,-1.1497,1.9213,-1.9149,-143.640,94.185,218.960,0.00,0.0184,0.0000,0.0100,0.0087,2025-06-09T14:03:07.657848
22698,-1.5289,1.7763,-1.7622,-163.975,116.830,224.140,0.00,0.0184,0.0254,0.0100,0.0087,2025-06-09T14:03:07.657848
22699,-2.0857,1.4425,-1.4391,-211.785,127.995,226.975,0.01,0.0184,0.0254,0.0100,0.0087,2025-06-09T14:03:07.657848
22700,-2.5015,0.9292,-1.0814,-273.770,104.510,233.695,0.01,0.0184,0.0508,0.0100,0.0087,2025-06-09T14:03:07.760576
22701,-2.8031,0.2577,-0.7910,-311.465,48.020,239.820,0.00,0.0184,0.0508,0.0200,0.0087,2025-06-09T14:03:07.760576
22702,-2.7972,-0.7203,-0.3260,-324.520,1.715,242.060,0.00,0.0184,0.0254,0.0200,0.0174,2025-06-09T14:03:07.760576
22703,-2.5215,-1.5050,0.2489,-344.400,-40.600,229.425,0.01,0.0184,0.0508,0.0100,0.0087,2025-06-09T14:03:07.760576
22704,-2.2360,-2.6752,0.6344,-317.695,-63.420,203.175,0.01,0.0368,0.0508,0.0100,0.0087,2025-06-09T14:03:07.760576
22705,-1.6568,-3.2891,1.1390,-276.150,-88.095,187.495,0.00,0.0184,0.0508,0.0200,0.0174,2025-06-09T14:03:07.760576
22706,-1.0921,-3.6839,1.6026,-220.290,-121.275,173.705,0.01,0.0184,0.0508,0.0100,0.0174,2025-06-09T14:03:07.760576
22707,-0.3353,-3.8650,1.7163,-146.370,-145.040,152.495,0.01,0.0184,0.0254,0.0200,0.0087,2025-06-09T14:03:07.760576
22708,0.6364,-3.9953,1.6865,-69.125,-124.775,107.310,0.01,0.0368,0.0508,0.0200,0.0174,2025-06-09T14:03:07.873576
22709,1.3869,-3.7615,1.7222,15.960,-65.625,59.220,0.00,0.0184,0.0508,0.0200,0.0087,2025-06-09T14:03:07.873576
22710,1.8539,-3.1730,1.8446,58.835,12.565,-15.435,0.01,0.0368,0.0508,0.0100,0.0087,2025-06-09T14:03:07.873576
22711,1.8783,-2.6659,1.8505,97.370,115.605,-64.575,0.00,0.0184,0.0254,0.0200,0.0087,2025-06-09T14:03:07.873576
22712,1.4542,-2.1823,1.7300,118.125,171.150,-115.745,0.01,0.0368,0.0254,0.0100,0.0087,2025-06-09T14:03:07.873576
22713,0.6769,-1.8188,1.5933,149.590,176.575,-169.085,0.01,0.0184,0.0254,0.0100,0.0087,2025-06-09T14:03:07.873576
22714,-0.0551,-1.3557,1.4830,175.945,141.750,-204.890,0.00,0.0184,0.0254,0.0200,0.0087,2025-06-09T14:03:07.873576
22715,-0.7130,-1.0189,1.3249,187.705,63.175,-230.720,0.01,0.0368,0.0508,0.0100,0.0174,2025-06-09T14:03:08.101831
22716,-0.9238,-0.5358,1.1322,199.465,1.610,-244.300,0.00,0.0368,0.0254,0.0200,0.0087,2025-06-09T14:03:08.101831
22717,-0.8721,-0.1547,0.8896,195.230,-14.490,-252.245,0.00,0.0368,0.0508,0.0200,0.0174,2025-06-09T14:03:08.101831
22718,-0.9052,0.1088,0.5851,192.290,16.975,-245.560,0.00,0.0368,0.0508,0.0200,0.0174,2025-06-09T14:03:08.101831
22719,-1.0726,0.3367,0.2767,205.030,67.830,-220.605,0.00,0.0368,0.0254,0.0100,0.0087,2025-06-09T14:03:08.101831
22720,-1.2800,0.5090,0.0356,221.375,104.195,-188.300,0.01,0.0368,0.0254,0.0100,0.0087,2025-06-09T14:03:08.101831
22721,-1.4669,0.6647,-0.1610,233.205,124.075,-144.900,0.00,0.0184,0.0254,0.0100,0.0087,2025-06-09T14:03:08.101831
22722,-1.3976,0.7706,-0.2250,234.290,120.575,-113.505,0.00,0.0184,0.0254,0.0200,0.0087,2025-06-09T14:03:08.101831
22723,-1.1195,0.8335,-0.2669,245.945,120.505,-79.940,0.00,0.0184,0.0254,0.0100,0.0000,2025-06-09T14:03:08.101831
22724,-0.9775,0.8652,-0.3684,247.100,118.440,-57.715,0.01,0.0368,0.0254,0.0100,0.0087,2025-06-09T14:03:08.101831
22725,-0.7535,0.8877,-0.2879,251.930,108.290,-36.610,0.00,0.0184,0.0254,0.0200,0.0000,2025-06-09T14:03:08.101831
22726,-0.5963,0.9340,-0.2181,259.525,92.540,-22.925,0.01,0.0368,0.0254,0.0100,0.0087,2025-06-09T14:03:08.101831
22727,-0.5656,0.9775,-0.1357,252.665,81.340,-12.180,0.00,0.0184,0.0254,0.0200,0.0087,2025-06-09T14:03:08.101831
22728,-0.5871,1.0004,-0.1274,244.405,49.105,-3.115,0.00,0.0184,0.0254,0.0100,0.0087,2025-06-09T14:03:08.102829
22729,-0.5558,1.0536,-0.1093,232.365,16.625,-0.175,0.00,0.0368,0.0254,0.0100,0.0087,2025-06-09T14:03:08.102829
22730,-0.4514,1.0951,-0.0908,218.365,-14.245,-1.785,0.00,0.0368,0.0254,0.0200,0.0087,2025-06-09T14:03:08.205287
22731,-0.3284,1.1590,-0.0722,197.960,-32.060,-3.675,0.00,0.0184,0.0508,0.0100,0.0087,2025-06-09T14:03:08.205287
22732,-0.1723,1.2068,-0.0547,180.635,-38.605,-5.845,0.00,0.0368,0.0254,0.0100,0.0087,2025-06-09T14:03:08.205287
22733,-0.1479,1.2698,-0.0117,157.010,-30.975,-8.575,0.00,0.0368,0.0508,0.0200,0.0087,2025-06-09T14:03:08.205287
22734,-0.1132,1.3142,0.0093,138.040,-19.390,-12.635,0.00,0.0184,0.0508,0.0100,0.0087,2025-06-09T14:03:08.205287
22735,-0.1767,1.3147,0.0327,117.320,-7.665,-15.190,0.01,0.0184,0.0508,0.0100,0.0087,2025-06-09T14:03:08.205287
22736,-0.2455,1.3127,0.0683,102.760,-6.685,-17.115,0.01,0.0368,0.0254,0.0100,0.0087,2025-06-09T14:03:08.205287
22737,-0.2938,1.2727,0.0786,87.920,-16.310,-17.395,0.00,0.0368,0.0254,0.0100,0.0087,2025-06-09T14:03:08.205287
22738,-0.2972,1.2712,0.1103,78.540,-29.085,-17.395,0.00,0.0368,0.0762,0.0200,0.0174,2025-06-09T14:03:08.205287
22739,-0.2860,1.2844,0.1303,68.320,-42.525,-17.780,0.01,0.0184,0.0254,0.0200,0.0087,2025-06-09T14:03:08.205287
22740,-0.2294,1.2878,0.1176,58.695,-49.490,-17.920,0.01,0.0368,0.0508,0.0200,0.0087,2025-06-09T14:03:08.287068
22741,-0.1723,1.2883,0.1196,50.820,-51.170,-17.150,0.01,0.0368,0.0508,0.0100,0.0087,2025-06-09T14:03:08.287068
22742,-0.1625,1.2668,0.0966,42.840,-49.910,-16.380,0.00,0.0184,0.0254,0.0100,0.0174,2025-06-09T14:03:08.287068
22743,-0.1205,1.2571,0.0893,36.470,-45.290,-14.210,0.00,0.0368,0.0254,0.0200,0.0174,2025-06-09T14:03:08.287068
22744,-0.1054,1.2346,0.0747,30.730,-38.535,-11.795,0.00,0.0368,0.0254,0.0100,0.0174,2025-06-09T14:03:08.287068
22745,-0.1362,1.2107,0.0659,26.145,-32.830,-8.505,0.00,0.0368,0.0254,0.0200,0.0174,2025-06-09T14:03:08.287068
22746,-0.1728,1.1897,0.0800,22.295,-27.895,-6.195,0.00,0.0184,0.0508,0.0100,0.0087,2025-06-09T14:03:08.287068
22747,-0.1937,1.1658,0.0776,19.215,-25.655,-2.170,0.00,0.0184,0.0254,0.0100,0.0087,2025-06-09T14:03:08.475233
22748,-0.2162,1.1434,0.0810,15.435,-26.355,1.820,0.00,0.0184,0.0508,0.0100,0.0174,2025-06-09T14:03:08.475233
22749,-0.2235,1.1122,0.0937,12.425,-27.440,5.845,0.01,0.0552,0.0508,0.0200,0.0087,2025-06-09T14:03:08.475233
22750,-0.2186,1.0799,0.1039,9.205,-28.280,8.645,0.01,0.0184,0.0508,0.0200,0.0087,2025-06-09T14:03:08.475233
22751,-0.2094,1.0526,0.1493,7.805,-28.560,11.130,0.00,0.0184,0.0000,0.0100,0.0087,2025-06-09T14:03:08.475233
22752,-0.1962,1.0331,0.1649,6.370,-26.880,12.740,0.00,0.0184,0.0254,0.0100,0.0087,2025-06-09T14:03:08.475233
22753,-0.1996,1.0155,0.1654,5.250,-24.570,13.685,0.00,0.0184,0.0254,0.0100,0.0087,2025-06-09T14:03:08.475233
22754,-0.1752,1.0087,0.1444,3.780,-21.805,14.245,0.00,0.0184,0.0254,0.0100,0.0174,2025-06-09T14:03:08.475233
22755,-0.1718,0.9999,0.1464,1.365,-17.710,13.720,0.00,0.0184,0.0254,0.0200,0.0087,2025-06-09T14:03:08.475233
22756,-0.1747,0.9877,0.1713,-0.140,-15.855,12.110,0.00,0.0368,0.0254,0.0100,0.0087,2025-06-09T14:03:08.475233
22757,-0.1889,0.9809,0.1967,-1.540,-16.450,9.905,0.00,0.0184,0.0508,0.0200,0.0087,2025-06-09T14:03:08.475233
22758,-0.1806,0.9740,0.2152,-3.535,-15.855,7.385,0.00,0.0184,0.0254,0.0100,0.0087,2025-06-09T14:03:08.475233
22759,-0.1591,0.9692,0.2147,-5.075,-13.685,4.690,0.00,0.0184,0.0508,0.0200,0.0087,2025-06-09T14:03:08.920824
22760,-0.1679,0.9579,0.2006,-6.125,-8.960,2.835,0.00,0.0368,0.0508,0.0200,0.0087,2025-06-09T14:03:08.920824
22761,-0.1825,0.9550,0.1874,-6.370,-4.865,1.155,0.01,0.0184,0.0254,0.0100,0.0087,2025-06-09T14:03:08.920824
22762,-0.1937,0.9565,0.1981,-6.930,-1.785,0.210,0.00,0.0368,0.0508,0.0100,0.0087,2025-06-09T14:03:08.920824
22763,-0.2108,0.9555,0.2211,-7.105,-1.260,-0.175,0.01,0.0368,0.0254,0.0200,0.0087,2025-06-09T14:03:08.920824
22764,-0.2186,0.9365,0.2328,-7.350,-2.905,-0.280,0.00,0.0368,0.0508,0.0200,0.0174,2025-06-09T14:03:08.920824
22765,-0.2196,0.9462,0.2216,-6.580,-5.565,0.245,0.00,0.0184,0.0508,0.0200,0.0087,2025-06-09T14:03:08.920824
22766,-0.2303,0.9462,0.2294,-6.790,-6.510,0.140,0.00,0.0184,0.0254,0.0100,0.0087,2025-06-09T14:03:08.920824
22767,-0.2352,0.9360,0.2074,-6.510,-6.020,0.280,0.00,0.0184,0.0508,0.0100,0.0087,2025-06-09T14:03:08.920824
22768,-0.2386,0.9262,0.1957,-6.265,-5.810,0.560,0.01,0.0368,0.0254,0.0200,0.0174,2025-06-09T14:03:08.920824
22769,-0.2362,0.9243,0.2006,-5.145,-3.885,1.050,0.00,0.0368,0.0508,0.0200,0.0087,2025-06-09T14:03:08.920824
22770,-0.2303,0.9179,0.2157,-4.410,-0.665,1.295,0.00,0.0184,0.0254,0.0100,0.0087,2025-06-09T14:03:08.920824
22771,-0.2538,0.9087,0.2079,-3.430,0.980,1.260,0.00,0.0368,0.0508,0.0100,0.0087,2025-06-09T14:03:08.921830
22772,-0.2616,0.9057,0.2020,-3.045,1.050,0.980,0.01,0.0368,0.0254,0.0100,0.0087,2025-06-09T14:03:08.921849
22773,-0.2606,0.9008,0.2030,-2.485,0.630,0.385,0.01,0.0184,0.0254,0.0200,0.0087,2025-06-09T14:03:08.921849
22774,-0.2518,0.8984,0.2108,-2.170,2.135,-0.420,0.00,0.0184,0.0254,0.0200,0.0087,2025-06-09T14:03:08.921849
22775,-0.2474,0.8974,0.2118,-2.065,4.165,-1.015,0.00,0.0368,0.0254,0.0200,0.0087,2025-06-09T14:03:08.921849
22776,-0.2684,0.8921,0.2211,-1.890,5.390,-2.030,0.01,0.0184,0.0254,0.0200,0.0174,2025-06-09T14:03:08.921849
22777,-0.2704,0.8989,0.2259,-1.120,5.390,-2.765,0.01,0.0184,0.0254,0.0300,0.0087,2025-06-09T14:03:08.921849
22778,-0.2874,0.9023,0.2040,-1.050,4.970,-3.745,0.01,0.0368,0.0254,0.0100,0.0087,2025-06-09T14:03:08.921849
22779,-0.2845,0.9067,0.2128,-1.540,5.040,-4.165,0.01,0.0368,0.0508,0.0100,0.0087,2025-06-09T14:03:08.921849
22780,-0.2835,0.9052,0.2259,-1.365,5.705,-3.955,0.00,0.0184,0.0254,0.0000,0.0174,2025-06-09T14:03:08.921849
22781,-0.2972,0.9130,0.2274,-1.435,5.985,-3.360,0.00,0.0184,0.0254,0.0100,0.0174,2025-06-09T14:03:08.921849
22782,-0.3094,0.9145,0.2342,-1.575,3.990,-3.150,0.00,0.0368,0.0254,0.0100,0.0087,2025-06-09T14:03:08.921849
22783,-0.3060,0.9199,0.2303,-1.260,1.645,-3.080,0.00,0.0368,0.0508,0.0100,0.0174,2025-06-09T14:03:08.921849
22784,-0.2869,0.9272,0.2303,-1.645,0.665,-3.045,0.00,0.0184,0.0254,0.0100,0.0174,2025-06-09T14:03:08.921849
22785,-0.2713,0.9233,0.2220,-1.575,1.330,-3.115,0.00,0.0368,0.0508,0.0100,0.0174,2025-06-09T14:03:08.921849
22786,-0.2728,0.9326,0.2250,-1.225,2.275,-3.080,0.01,0.0368,0.0508,0.0200,0.0087,2025-06-09T14:03:08.921849
22787,-0.2835,0.9238,0.2406,-0.490,4.165,-3.010,0.01,0.0368,0.0508,0.0200,0.0174,2025-06-09T14:03:09.004903
22788,-0.3011,0.9287,0.2235,-0.245,4.410,-2.520,0.00,0.0368,0.0254,0.0200,0.0174,2025-06-09T14:03:09.004903
22789,-0.3104,0.9262,0.2333,0.140,2.695,-1.925,0.00,0.0368,0.0254,0.0200,0.0087,2025-06-09T14:03:09.004903
22790,-0.3148,0.9287,0.2289,0.665,1.575,-1.470,0.01,0.0368,0.0254,0.0100,0.0174,2025-06-09T14:03:09.004903
22791,-0.3089,0.9301,0.2279,-0.210,0.735,-1.050,0.01,0.0184,0.0254,0.0100,0.0087,2025-06-09T14:03:09.004903
22792,-0.3070,0.9331,0.2313,0.280,-0.420,-0.595,0.00,0.0184,0.0254,0.0100,0.0087,2025-06-09T14:03:09.004903
22793,-0.3030,0.9350,0.2279,-0.245,-0.595,-0.350,0.00,0.0184,0.0254,0.0100,0.0087,2025-06-09T14:03:09.004903
22794,-0.2957,0.9355,0.2425,-0.455,-0.455,-0.210,0.00,0.0184,0.0254,0.0200,0.0087,2025-06-09T14:03:09.004903
22795,-0.2987,0.9292,0.2298,-0.455,-0.595,0.210,0.00,0.0000,0.0508,0.0200,0.0087,2025-06-09T14:03:09.004903
22796,-0.3109,0.9267,0.2274,-1.155,-1.435,0.245,0.00,0.0184,0.0254,0.0000,0.0174,2025-06-09T14:03:09.004903
22797,-0.2991,0.9267,0.2450,-0.630,-1.995,0.385,0.00,0.0184,0.0254,0.0100,0.0087,2025-06-09T14:03:09.004903
22798,-0.3006,0.9282,0.2303,-0.700,-1.680,0.770,0.00,0.0184,0.0254,0.0100,0.0087,2025-06-09T14:03:09.004903
22799,-0.3065,0.9326,0.2269,-0.420,-1.295,0.910,0.00,0.0368,0.0254,0.0100,0.0087,2025-06-09T14:03:09.004903
22800,-0.3050,0.9340,0.2323,-0.385,-1.435,0.945,0.00,0.0368,0.0254,0.0200,0.0087,2025-06-09T14:03:09.093665
22801,-0.3035,0.9326,0.2230,-0.105,-2.275,1.470,0.01,0.0368,0.0254,0.0100,0.0174,2025-06-09T14:03:09.093665
22802,-0.3109,0.9311,0.2269,-0.945,-3.395,1.680,0.00,0.0368,0.0508,0.0100,0.0174,2025-06-09T14:03:09.093665
22803,-0.2977,0.9340,0.2391,-0.665,-4.515,1.470,0.01,0.0368,0.0508,0.0200,0.0087,2025-06-09T14:03:09.093665
22804,-0.2987,0.9287,0.2167,-1.295,-5.775,1.330,0.01,0.0368,0.0508,0.0100,0.0174,2025-06-09T14:03:09.093665
22805,-0.2977,0.9262,0.2323,-1.120,-6.755,1.050,0.00,0.0184,0.0254,0.0100,0.0087,2025-06-09T14:03:09.093665
22806,-0.2855,0.9213,0.2220,-1.435,-6.545,0.630,0.01,0.0184,0.0254,0.0200,0.0087,2025-06-09T14:03:09.093665
22807,-0.2757,0.9170,0.2118,-1.645,-5.530,0.315,0.01,0.0368,0.0508,0.0100,0.0087,2025-06-09T14:03:09.190408
22808,-0.2874,0.9140,0.2123,-2.275,-4.410,0.000,0.01,0.0368,0.0254,0.0100,0.0087,2025-06-09T14:03:09.190408
22809,-0.2908,0.9096,0.2176,-1.540,-3.535,-0.315,0.00,0.0184,0.0508,0.0100,0.0174,2025-06-09T14:03:09.190408
22810,-0.2967,0.9062,0.2201,-1.855,-3.255,-0.385,0.00,0.0184,0.0508,0.0100,0.0087,2025-06-09T14:03:09.190408
22811,-0.3001,0.9096,0.2186,-1.505,-3.745,-0.770,0.01,0.0184,0.0254,0.0100,0.0087,2025-06-09T14:03:09.190408
22812,-0.2972,0.9121,0.2240,-1.400,-4.375,-1.050,0.01,0.0184,0.0254,0.0100,0.0087,2025-06-09T14:03:09.190408
22813,-0.2957,0.9096,0.2040,-1.435,-5.110,-1.365,0.00,0.0184,0.0254,0.0100,0.0174,2025-06-09T14:03:09.190408
22814,-0.2918,0.9106,0.2152,-1.365,-5.740,-1.680,0.00,0.0368,0.0508,0.0200,0.0087,2025-06-09T14:03:09.295126
22815,-0.3035,0.9101,0.2142,-1.400,-7.140,-1.820,0.01,0.0184,0.0508,0.0200,0.0174,2025-06-09T14:03:09.295126
22816,-0.2879,0.9165,0.2255,-1.400,-7.875,-2.380,0.00,0.0184,0.0508,0.0100,0.0087,2025-06-09T14:03:09.295126
22817,-0.2786,0.9140,0.2162,-1.155,-6.720,-2.520,0.01,0.0184,0.0508,0.0100,0.0087,2025-06-09T14:03:09.295126
22818,-0.2708,0.9233,0.2191,-1.925,-4.620,-2.870,0.00,0.0184,0.0254,0.0100,0.0087,2025-06-09T14:03:09.295126
22819,-0.2738,0.9243,0.2196,-1.260,-2.520,-3.045,0.00,0.0184,0.0254,0.0100,0.0087,2025-06-09T14:03:09.295126
22820,-0.2889,0.9311,0.2294,-1.925,-0.350,-2.870,0.00,0.0368,0.0254,0.0200,0.0174,2025-06-09T14:03:09.295126
22821,-0.3060,0.9365,0.2333,-1.785,-0.665,-2.485,0.00,0.0184,0.0254,0.0100,0.0174,2025-06-09T14:03:09.295126
22822,-0.3118,0.9389,0.2323,-1.645,-3.115,-2.030,0.01,0.0368,0.0508,0.0200,0.0087,2025-06-09T14:03:09.395857
22823,-0.3070,0.9340,0.2328,-2.205,-4.620,-1.680,0.00,0.0368,0.0254,0.0200,0.0174,2025-06-09T14:03:09.395857
22824,-0.2957,0.9340,0.2303,-2.205,-4.900,-1.155,0.01,0.0368,0.0508,0.0200,0.0087,2025-06-09T14:03:09.395857
22825,-0.2889,0.9306,0.2396,-2.275,-4.130,-0.735,0.01,0.0184,0.0508,0.0200,0.0174,2025-06-09T14:03:09.395857
22826,-0.2938,0.9223,0.2250,-2.520,-3.220,-0.210,0.00,0.0368,0.0508,0.0200,0.0087,2025-06-09T14:03:09.395857
22827,-0.2943,0.9218,0.2298,-2.240,-3.115,0.210,0.00,0.0184,0.0254,0.0200,0.0087,2025-06-09T14:03:09.395857
22828,-0.3011,0.9233,0.2264,-2.240,-2.940,0.350,0.00,0.0184,0.0508,0.0100,0.0087,2025-06-09T14:03:09.395857
22829,-0.2913,0.9228,0.2269,-2.240,-2.695,0.560,0.01,0.0184,0.0254,0.0200,0.0087,2025-06-09T14:03:09.503648
22830,-0.3026,0.9213,0.2225,-2.135,-3.010,0.525,0.01,0.0184,0.0508,0.0100,0.0087,2025-06-09T14:03:09.503648
22831,-0.2943,0.9155,0.2162,-2.275,-3.990,0.560,0.01,0.0184,0.0508,0.0100,0.0087,2025-06-09T14:03:09.503648
22832,-0.2855,0.9140,0.2225,-1.890,-5.075,0.175,0.00,0.0368,0.0254,0.0200,0.0087,2025-06-09T14:03:09.503648
22833,-0.2699,0.9121,0.2279,-1.400,-4.165,-0.350,0.00,0.0184,0.0254,0.0100,0.0087,2025-06-09T14:03:09.503648
22834,-0.2733,0.9130,0.2225,-1.680,-2.205,-1.015,0.00,0.0184,0.0254,0.0200,0.0087,2025-06-09T14:03:09.503648
22835,-0.2767,0.9130,0.2230,-1.155,-1.330,-1.645,0.00,0.0184,0.0254,0.0100,0.0087,2025-06-09T14:03:09.503648
22836,-0.2899,0.9072,0.2167,-1.610,-1.540,-1.995,0.00,0.0184,0.0508,0.0100,0.0087,2025-06-09T14:03:09.503648
22837,-0.2918,0.9087,0.2235,-1.750,-2.450,-2.170,0.00,0.0184,0.0254,0.0100,0.0174,2025-06-09T14:03:09.637562
22838,-0.2889,0.9091,0.2196,-1.645,-2.380,-2.380,0.00,0.0184,0.0254,0.0100,0.0174,2025-06-09T14:03:09.637562
22839,-0.2860,0.9043,0.2279,-2.310,-1.575,-2.975,0.00,0.0184,0.0508,0.0200,0.0174,2025-06-09T14:03:09.637562
22840,-0.2840,0.9052,0.2294,-2.135,-1.575,-3.360,0.00,0.0184,0.0254,0.0100,0.0087,2025-06-09T14:03:09.637562
22841,-0.2991,0.9052,0.2372,-2.450,-2.310,-3.920,0.01,0.0184,0.0508,0.0200,0.0087,2025-06-09T14:03:09.637562
22842,-0.2923,0.9052,0.2372,-2.100,-3.045,-4.480,0.00,0.0368,0.0254,0.0100,0.0087,2025-06-09T14:03:09.637562
22843,-0.2801,0.9111,0.2308,-2.240,-2.345,-4.725,0.00,0.0184,0.0254,0.0200,0.0087,2025-06-09T14:03:09.637562
22844,-0.2943,0.9155,0.2386,-2.310,-0.770,-4.900,0.01,0.0368,0.0508,0.0200,0.0174,2025-06-09T14:03:09.637562
22845,-0.3065,0.9204,0.2420,-2.380,-0.910,-4.830,0.01,0.0368,0.0254,0.0100,0.0087,2025-06-09T14:03:09.637562
22846,-0.3133,0.9209,0.2372,-2.275,-2.555,-4.655,0.01,0.0368,0.0254,0.0100,0.0087,2025-06-09T14:03:09.637562
22847,-0.3065,0.9179,0.2391,-2.345,-4.445,-4.305,0.01,0.0184,0.0254,0.0200,0.0174,2025-06-09T14:03:09.818279
22848,-0.2923,0.9194,0.2396,-2.135,-4.165,-4.200,0.01,0.0184,0.0254,0.0100,0.0174,2025-06-09T14:03:09.818279
22849,-0.2791,0.9233,0.2338,-2.240,-1.015,-4.270,0.01,0.0368,0.0508,0.0200,0.0087,2025-06-09T14:03:09.818279
22850,-0.2879,0.9257,0.2274,-2.730,1.575,-4.375,0.01,0.0368,0.0254,0.0200,0.0174,2025-06-09T14:03:09.818279
22851,-0.3045,0.9238,0.2240,-3.010,2.345,-4.445,0.00,0.0368,0.0508,0.0200,0.0174,2025-06-09T14:03:09.818279
22852,-0.3157,0.9282,0.2313,-3.220,1.855,-4.340,0.00,0.0184,0.0508,0.0200,0.0174,2025-06-09T14:03:09.818279
22853,-0.3162,0.9252,0.2313,-3.780,0.980,-3.780,0.00,0.0368,0.0254,0.0100,0.0087,2025-06-09T14:03:09.818279
22854,-0.3157,0.9252,0.2303,-4.095,-0.455,-3.080,0.00,0.0184,0.0254,0.0100,0.0087,2025-06-09T14:03:09.818279
22855,-0.3167,0.9248,0.2250,-4.305,-1.365,-2.275,0.00,0.0184,0.0254,0.0100,0.0087,2025-06-09T14:03:09.818279
22856,-0.3079,0.9262,0.2264,-4.410,-1.435,-1.260,0.00,0.0368,0.0254,0.0100,0.0087,2025-06-09T14:03:09.818279
22857,-0.3045,0.9218,0.2240,-4.375,-0.560,-0.455,0.00,0.0184,0.0254,0.0100,0.0087,2025-06-09T14:03:09.818279
22858,-0.3001,0.9223,0.2245,-4.130,0.770,0.350,0.00,0.0184,0.0254,0.0100,0.0087,2025-06-09T14:03:09.818279
22859,-0.3099,0.9218,0.2342,-3.920,1.715,1.225,0.00,0.0368,0.0254,0.0100,0.0087,2025-06-09T14:03:09.818279
22860,-0.3118,0.9135,0.2308,-3.255,1.295,1.680,0.00,0.0368,0.0508,0.0200,0.0087,2025-06-09T14:03:10.066722
22861,-0.3128,0.9150,0.2323,-2.625,0.595,2.100,0.00,0.0368,0.0508,0.0100,0.0174,2025-06-09T14:03:10.066722
22862,-0.3118,0.9116,0.2328,-1.890,0.560,2.205,0.01,0.0368,0.0254,0.0200,0.0087,2025-06-09T14:03:10.066722
22863,-0.3016,0.9062,0.2294,-1.505,0.595,2.065,0.00,0.0184,0.0254,0.0100,0.0087,2025-06-09T14:03:10.066722
22864,-0.3050,0.9028,0.2303,-1.225,1.435,2.030,0.01,0.0184,0.0508,0.0100,0.0087,2025-06-09T14:03:10.066722
22865,-0.3055,0.8994,0.2450,-0.945,2.310,1.575,0.00,0.0184,0.0254,0.0100,0.0087,2025-06-09T14:03:10.066722
22866,-0.3084,0.8935,0.2406,-0.700,2.940,1.295,0.01,0.0368,0.0254,0.0200,0.0174,2025-06-09T14:03:10.066722
22867,-0.3231,0.8930,0.2464,-0.840,2.870,1.085,0.01,0.0368,0.0254,0.0100,0.0087,2025-06-09T14:03:10.066722
22868,-0.3231,0.8911,0.2567,-0.700,2.450,0.735,0.00,0.0368,0.0508,0.0100,0.0087,2025-06-09T14:03:10.066722
22869,-0.3265,0.8877,0.2508,-0.945,1.750,0.385,0.00,0.0368,0.0508,0.0100,0.0087,2025-06-09T14:03:10.066722
22870,-0.3284,0.8843,0.2669,-1.015,1.645,-0.245,0.00,0.0368,0.0254,0.0100,0.0087,2025-06-09T14:03:10.066722
22871,-0.3323,0.8789,0.2679,-0.910,0.805,-0.840,0.00,0.0000,0.0254,0.0100,0.0087,2025-06-09T14:03:10.066722
22872,-0.3426,0.8745,0.2699,-1.120,-0.560,-1.750,0.00,0.0368,0.0254,0.0100,0.0087,2025-06-09T14:03:10.066722
22873,-0.3304,0.8682,0.2733,-0.875,-1.295,-2.835,0.00,0.0368,0.0254,0.0100,0.0087,2025-06-09T14:03:10.066722
22874,-0.3250,0.8628,0.2733,-1.260,-1.400,-4.060,0.00,0.0184,0.0254,0.0100,0.0087,2025-06-09T14:03:10.066722
22875,-0.3182,0.8550,0.2660,-0.770,-0.980,-5.320,0.00,0.0184,0.0508,0.0200,0.0087,2025-06-09T14:03:10.066722
22876,-0.3240,0.8423,0.2606,-1.190,-0.735,-6.825,0.00,0.0368,0.0508,0.0200,0.0087,2025-06-09T14:03:10.066722
22877,-0.3304,0.8272,0.2625,-0.980,-0.945,-8.785,0.00,0.0184,0.0254,0.0100,0.0087,2025-06-09T14:03:10.133417
22878,-0.3362,0.7466,0.2533,-1.925,-1.330,-11.235,0.01,0.0368,0.0508,0.0100,0.0087,2025-06-09T14:03:10.133417
22879,-0.3343,0.6559,0.2586,-2.800,-1.750,-14.595,0.00,0.0184,0.0508,0.0200,0.0087,2025-06-09T14:03:10.133417
22880,-0.2757,0.4636,0.2220,-4.830,2.135,-20.755,0.01,0.0368,0.0254,0.0100,0.0174,2025-06-09T14:03:10.133417
22881,-0.1196,0.2557,0.1088,-17.395,21.735,-34.825,0.01,0.0368,0.0254,0.0200,0.0087,2025-06-09T14:03:10.133417
22882,-0.0161,0.0078,-0.0112,-16.520,51.800,-53.585,0.00,0.0184,0.0508,0.0100,0.0087,2025-06-09T14:03:10.133417
22883,0.0874,-0.1254,-0.0908,-20.265,96.880,-81.060,0.01,0.0368,0.0254,0.0100,0.0174,2025-06-09T14:03:10.133417
22884,0.1415,-0.1664,-0.1947,-19.110,137.375,-106.645,0.00,0.0184,0.0254,0.0100,0.0087,2025-06-09T14:03:10.180291
22885,0.1513,-0.1581,-0.2606,-17.885,183.400,-137.620,0.01,0.0368,0.0254,0.0200,0.0087,2025-06-09T14:03:10.180291
22886,0.1942,-0.1137,-0.2850,-8.120,219.975,-161.560,0.01,0.0368,0.0508,0.0100,0.0087,2025-06-09T14:03:10.180291
22887,0.2523,-0.0493,-0.3294,4.410,267.960,-187.040,0.01,0.0368,0.0508,0.0200,0.0087,2025-06-09T14:03:10.312345
22888,0.2113,0.1015,-0.3953,17.185,309.435,-213.745,0.01,0.0368,0.0508,0.0100,0.0087,2025-06-09T14:03:10.312345
22889,0.2006,0.2391,-0.3494,33.670,364.945,-220.115,0.00,0.0368,0.0254,0.0200,0.0087,2025-06-09T14:03:10.312345
22890,0.2113,0.6837,-0.4773,75.460,387.590,-220.185,0.01,0.0552,0.0508,0.0200,0.0174,2025-06-09T14:03:10.312345
22891,-0.1342,1.1224,-0.6744,100.590,434.280,-220.045,0.00,0.0184,0.0254,0.0100,0.0087,2025-06-09T14:03:10.312345
22892,-0.2128,1.7358,-0.9994,147.770,465.430,-203.490,0.00,0.0368,0.0254,0.0100,0.0174,2025-06-09T14:03:10.312345
22893,-0.3626,2.2126,-1.2239,189.455,505.575,-178.465,0.00,0.0184,0.0254,0.0100,0.0174,2025-06-09T14:03:10.312345
22894,-0.5466,2.8382,-1.2503,167.475,553.105,-139.335,0.01,0.0184,0.0508,0.0100,0.0087,2025-06-09T14:03:10.312345
22895,-0.8764,3.1408,-1.2815,133.805,575.575,-85.260,0.00,0.0184,0.0254,0.0100,0.0087,2025-06-09T14:03:10.312345
22896,-1.2952,3.3082,-1.3479,64.820,542.955,-50.610,0.00,0.0368,0.0254,0.0200,0.0087,2025-06-09T14:03:10.312345
22897,-1.7295,3.2818,-1.3288,-3.780,422.800,-31.360,0.01,0.0184,0.0254,0.0100,0.0087,2025-06-09T14:03:10.363634
22898,-1.7182,3.1247,-1.3820,-75.705,291.795,-22.015,0.01,0.0368,0.0508,0.0100,0.0087,2025-06-09T14:03:10.363634
22899,-1.2742,2.8831,-1.6397,-147.315,154.210,-12.075,0.01,0.0368,0.0254,0.0200,0.0174,2025-06-09T14:03:10.363634
22900,-0.7896,2.5825,-1.8900,-196.350,90.930,4.970,0.01,0.0368,0.0508,0.0200,0.0174,2025-06-09T14:03:10.363634
22901,-0.1576,2.3009,-2.0803,-238.280,98.385,39.235,0.01,0.0184,0.0508,0.0100,0.0087,2025-06-09T14:03:10.536171
22902,-0.0137,1.9115,-2.3175,-274.120,150.325,68.390,0.01,0.0368,0.0508,0.0200,0.0087,2025-06-09T14:03:10.536171
22903,-0.2567,1.5489,-2.4171,-291.760,217.105,96.740,0.00,0.0184,0.0508,0.0100,0.0087,2025-06-09T14:03:10.536171
22904,-0.7071,1.1502,-2.3971,-299.180,232.820,114.415,0.00,0.0184,0.0254,0.0200,0.0087,2025-06-09T14:03:10.536171
22905,-1.1400,0.7008,-2.2023,-299.600,199.885,128.730,0.00,0.0184,0.0508,0.0200,0.0087,2025-06-09T14:03:10.536171
22906,-1.3840,0.2006,-1.9974,-286.755,153.370,133.980,0.01,0.0184,0.0508,0.0200,0.0174,2025-06-09T14:03:10.536171
22907,-1.4459,-0.5636,-1.8217,-265.265,102.375,128.835,0.00,0.0184,0.0254,0.0200,0.0087,2025-06-09T14:03:10.536171
22908,-1.2468,-1.2551,-1.6670,-221.130,74.130,117.775,0.00,0.0000,0.0254,0.0100,0.0087,2025-06-09T14:03:10.536171
22909,-1.0375,-1.8320,-1.4211,-168.910,64.470,94.780,0.00,0.0184,0.0508,0.0100,0.0087,2025-06-09T14:03:10.957034
22910,-0.8896,-2.1433,-0.9106,-108.675,75.425,74.270,0.01,0.0184,0.0254,0.0100,0.0174,2025-06-09T14:03:10.957034
22911,-0.9536,-2.2838,-0.6159,-75.740,77.385,42.000,0.00,0.0368,0.0254,0.0100,0.0087,2025-06-09T14:03:10.957034
22912,-1.0819,-2.2770,-0.4314,-47.460,39.130,11.270,0.01,0.0368,0.0254,0.0100,0.0087,2025-06-09T14:03:10.957034
22913,-1.0175,-1.9988,-0.3177,-1.190,-20.755,-23.030,0.00,0.0184,0.0508,0.0100,0.0087,2025-06-09T14:03:10.957034
22914,-0.7964,-1.6128,-0.2811,38.255,-49.210,-45.325,0.00,0.0368,0.0508,0.0100,0.0087,2025-06-09T14:03:10.957034
22915,-0.6905,-1.1219,-0.2484,72.520,-60.690,-64.120,0.00,0.0184,0.0508,0.0200,0.0174,2025-06-09T14:03:10.957034
22916,-0.7701,-0.7222,-0.2118,107.345,-62.440,-71.785,0.01,0.0184,0.0508,0.0200,0.0087,2025-06-09T14:03:10.957034
22917,-0.9272,-0.2552,-0.2338,133.840,-68.670,-75.285,0.00,0.0368,0.0254,0.0200,0.0087,2025-06-09T14:03:10.957034
22918,-1.0204,0.1025,-0.3138,158.725,-97.440,-75.950,0.01,0.0368,0.0508,0.0200,0.0174,2025-06-09T14:03:10.957034
22919,-1.0175,0.4890,-0.5397,175.175,-120.260,-77.735,0.00,0.0184,0.0508,0.0200,0.0174,2025-06-09T14:03:10.957034
22920,-1.0892,0.8711,-0.6095,184.695,-153.475,-79.730,0.00,0.0368,0.0254,0.0200,0.0087,2025-06-09T14:03:10.957034
22921,-1.1722,1.2820,-0.8335,184.415,-197.960,-84.035,0.00,0.0184,0.0508,0.0200,0.0087,2025-06-09T14:03:10.957034
22922,-1.1854,1.6172,-1.0438,175.420,-260.785,-85.295,0.00,0.0368,0.0254,0.0100,0.0087,2025-06-09T14:03:10.957034
22923,-1.0731,1.8851,-1.3854,159.145,-297.885,-82.390,0.00,0.0368,0.0254,0.0200,0.0087,2025-06-09T14:03:10.957034
22924,-1.1214,2.0364,-1.5440,131.985,-328.055,-75.040,0.00,0.0368,0.0254,0.0100,0.0087,2025-06-09T14:03:10.957034
22925,-1.2273,2.0842,-1.5972,103.355,-353.010,-61.845,0.00,0.0184,0.0254,0.0100,0.0087,2025-06-09T14:03:10.957034
22926,-1.2283,2.0613,-1.5474,68.565,-389.900,-34.860,0.00,0.0000,0.0254,0.0100,0.0087,2025-06-09T14:03:10.957034
22927,-1.2986,1.9559,-1.4782,42.910,-415.240,-11.830,0.00,0.0184,0.0508,0.0200,0.0087,2025-06-09T14:03:10.957034
22928,-0.8882,1.8944,-1.4050,21.455,-425.075,19.950,0.01,0.0368,0.0254,0.0200,0.0087,2025-06-09T14:03:10.957034
22929,-0.7218,1.7675,-1.2517,1.155,-405.160,47.495,0.01,0.0368,0.0254,0.0200,0.0174,2025-06-09T14:03:10.957034
22930,-0.5270,1.6631,-1.0409,-17.465,-370.475,67.550,0.01,0.0368,0.0508,0.0200,0.0087,2025-06-09T14:03:10.957034
22931,-0.4929,1.4733,-0.8969,-30.310,-351.260,92.470,0.01,0.0184,0.0254,0.0200,0.0087,2025-06-09T14:03:10.957034
22932,-0.5768,1.3405,-0.7105,-40.250,-341.810,106.925,0.00,0.0368,0.0254,0.0200,0.0087,2025-06-09T14:03:10.957034
22933,-0.3543,1.1790,-0.6115,-38.955,-341.740,120.120,0.00,0.0184,0.0254,0.0100,0.0087,2025-06-09T14:03:10.957034
22934,-0.2289,1.0590,-0.5583,-43.505,-331.415,134.400,0.01,0.0184,0.0254,0.0100,0.0174,2025-06-09T14:03:10.957034
22935,-0.2284,0.9218,-0.4963,-44.380,-312.725,135.975,0.01,0.0184,0.0508,0.0100,0.0087,2025-06-09T14:03:10.957034
22936,-0.1098,0.8062,-0.4626,-40.110,-287.560,133.070,0.01,0.0184,0.0254,0.0100,0.0087,2025-06-09T14:03:10.957034
22937,0.0307,0.7466,-0.3943,-30.835,-263.025,132.440,0.01,0.0184,0.0254,0.0200,0.0087,2025-06-09T14:03:10.957034
22938,0.0444,0.6900,-0.3157,-27.510,-225.785,125.440,0.00,0.0184,0.0508,0.0100,0.0087,2025-06-09T14:03:10.957034
22939,0.0156,0.6529,-0.2806,-24.150,-199.010,116.130,0.00,0.0368,0.0508,0.0100,0.0087,2025-06-09T14:03:10.957034
22940,-0.0459,0.6393,-0.2259,-18.025,-177.555,104.475,0.00,0.0184,0.0254,0.0100,0.0087,2025-06-09T14:03:10.957034
22941,-0.0888,0.6329,-0.1767,-13.335,-165.480,94.465,0.00,0.0184,0.0254,0.0100,0.0087,2025-06-09T14:03:10.957034
22942,-0.1118,0.6115,-0.1635,-11.375,-156.940,80.675,0.01,0.0368,0.0254,0.0200,0.0087,2025-06-09T14:03:11.036819
22943,-0.1010,0.6124,-0.1630,-4.795,-149.380,69.125,0.01,0.0368,0.0508,0.0200,0.0087,2025-06-09T14:03:11.036819
22944,-0.0991,0.6178,-0.1230,-4.305,-140.175,55.475,0.01,0.0368,0.0254,0.0200,0.0087,2025-06-09T14:03:11.036819
22945,0.0185,0.6461,-0.0688,-1.680,-132.020,45.220,0.01,0.0184,0.0508,0.0200,0.0087,2025-06-09T14:03:11.036819
22946,0.0874,0.6612,-0.0054,0.490,-115.850,33.250,0.01,0.0184,0.0254,0.0100,0.0174,2025-06-09T14:03:11.036819
22947,0.1059,0.6861,0.0264,0.000,-86.135,23.345,0.00,0.0184,0.0254,0.0100,0.0000,2025-06-09T14:03:11.036819
22948,0.1191,0.7208,0.0425,0.875,-61.005,14.455,0.00,0.0184,0.0254,0.0100,0.0087,2025-06-09T14:03:11.036819
22949,0.0810,0.7408,0.0712,-0.525,-33.950,6.020,0.00,0.0184,0.0254,0.0200,0.0087,2025-06-09T14:03:11.036819
22950,0.0239,0.7671,0.1127,-1.995,-19.600,1.015,0.00,0.0184,0.0508,0.0200,0.0087,2025-06-09T14:03:11.166475
22951,-0.0693,0.8052,0.1571,-1.330,-16.135,-2.905,0.01,0.0184,0.0508,0.0100,0.0174,2025-06-09T14:03:11.166475
22952,-0.1176,0.8233,0.1923,-0.840,-24.010,-3.780,0.00,0.0184,0.0508,0.0200,0.0174,2025-06-09T14:03:11.166475
22953,-0.1357,0.8530,0.1923,0.665,-33.670,-3.640,0.01,0.0368,0.0508,0.0200,0.0174,2025-06-09T14:03:11.166475
22954,-0.0966,0.8735,0.1918,1.015,-36.995,-4.340,0.00,0.0368,0.0508,0.0200,0.0087,2025-06-09T14:03:11.166475
22955,-0.0586,0.8877,0.1952,0.455,-31.220,-4.935,0.00,0.0000,0.0254,0.0200,0.0087,2025-06-09T14:03:11.166475
22956,-0.0283,0.9043,0.1962,1.085,-10.920,-5.075,0.00,0.0184,0.0254,0.0200,0.0174,2025-06-09T14:03:11.166475
22957,-0.0566,0.9150,0.1913,0.875,-4.900,-5.215,0.00,0.0000,0.0254,0.0200,0.0087,2025-06-09T14:03:11.166475
22958,-0.1098,0.9296,0.2069,1.120,3.640,-5.320,0.01,0.0368,0.0254,0.0100,0.0087,2025-06-09T14:03:11.166475
22959,-0.1498,0.9477,0.2152,2.100,7.245,-4.935,0.01,0.0184,0.0508,0.0200,0.0087,2025-06-09T14:03:11.166475
22960,-0.1996,0.9540,0.2137,1.995,4.760,-4.620,0.01,0.0184,0.0254,0.0100,0.0087,2025-06-09T14:03:11.247141
22961,-0.2342,0.9575,0.2279,2.800,-3.045,-4.375,0.01,0.0184,0.0254,0.0100,0.0087,2025-06-09T14:03:11.247141
22962,-0.2074,0.9609,0.2216,2.835,-8.120,-3.850,0.01,0.0184,0.0254,0.0100,0.0087,2025-06-09T14:03:11.247141
22963,-0.1796,0.9599,0.2264,2.800,-8.085,-3.780,0.00,0.0184,0.0254,0.0100,0.0087,2025-06-09T14:03:11.247141
22964,-0.1542,0.9570,0.2342,2.240,-2.730,-3.710,0.00,0.0368,0.0508,0.0200,0.0087,2025-06-09T14:03:11.247141
22965,-0.1635,0.9545,0.2372,2.660,3.570,-3.535,0.01,0.0184,0.0508,0.0200,0.0087,2025-06-09T14:03:11.247141
22966,-0.1830,0.9614,0.2450,2.240,9.345,-2.870,0.00,0.0368,0.0254,0.0200,0.0174,2025-06-09T14:03:11.450189
22967,-0.2064,0.9618,0.2469,2.450,12.285,-2.100,0.00,0.0368,0.0508,0.0100,0.0174,2025-06-09T14:03:11.450189
22968,-0.2181,0.9628,0.2347,1.785,14.910,-1.540,0.01,0.0184,0.0254,0.0200,0.0087,2025-06-09T14:03:11.450189
22969,-0.2396,0.9575,0.2367,1.995,14.070,-0.805,0.00,0.0368,0.0508,0.0100,0.0174,2025-06-09T14:03:11.450189
22970,-0.2547,0.9501,0.2372,1.890,11.445,0.105,0.00,0.0368,0.0508,0.0200,0.0087,2025-06-09T14:03:11.450189
22971,-0.2752,0.9423,0.2318,1.925,7.210,0.560,0.00,0.0184,0.0254,0.0100,0.0087,2025-06-09T14:03:11.450189
22972,-0.2801,0.9360,0.2372,1.400,4.025,0.210,0.00,0.0184,0.0508,0.0100,0.0087,2025-06-09T14:03:11.450189
22973,-0.2640,0.9321,0.2323,1.575,2.905,0.315,0.00,0.0184,0.0254,0.0100,0.0087,2025-06-09T14:03:11.450189
22974,-0.2523,0.9326,0.2323,1.155,4.445,1.085,0.00,0.0368,0.0508,0.0200,0.0087,2025-06-09T14:03:11.450189
22975,-0.2723,0.9321,0.2147,0.770,5.460,1.855,0.00,0.0184,0.0254,0.0100,0.0087,2025-06-09T14:03:11.450189
22976,-0.2669,0.9331,0.2123,0.665,6.580,2.135,0.00,0.0368,0.0254,0.0100,0.0174,2025-06-09T14:03:11.450189
22977,-0.2723,0.9374,0.2147,0.455,7.805,2.730,0.00,0.0184,0.0254,0.0200,0.0000,2025-06-09T14:03:11.450189
22978,-0.2635,0.9433,0.2186,0.315,9.030,2.940,0.00,0.0368,0.0254,0.0200,0.0087,2025-06-09T14:03:11.450189
22979,-0.2694,0.9404,0.2235,-0.070,8.855,3.185,0.00,0.0368,0.0508,0.0200,0.0174,2025-06-09T14:03:11.450189
22980,-0.2796,0.9418,0.2313,-0.350,7.700,3.675,0.01,0.0184,0.0254,0.0100,0.0174,2025-06-09T14:03:11.551989
22981,-0.2899,0.9321,0.2216,-0.350,3.955,4.130,0.00,0.0368,0.0254,0.0100,0.0087,2025-06-09T14:03:11.551989
22982,-0.2913,0.9267,0.2157,-0.140,-0.770,4.235,0.01,0.0368,0.0508,0.0100,0.0087,2025-06-09T14:03:11.551989
22983,-0.2718,0.9331,0.2225,0.105,-1.680,3.745,0.01,0.0368,0.0254,0.0100,0.0087,2025-06-09T14:03:11.551989
22984,-0.2489,0.9311,0.2113,0.315,0.420,3.115,0.01,0.0184,0.0508,0.0100,0.0087,2025-06-09T14:03:11.551989
22985,-0.2523,0.9316,0.2094,0.280,4.200,2.940,0.01,0.0184,0.0254,0.0100,0.0087,2025-06-09T14:03:11.551989
22986,-0.2689,0.9355,0.2250,0.175,5.950,3.010,0.00,0.0184,0.0254,0.0100,0.0087,2025-06-09T14:03:11.551989
22987,-0.2845,0.9379,0.2255,0.035,5.915,2.555,0.00,0.0368,0.0254,0.0100,0.0087,2025-06-09T14:03:11.551989
22988,-0.2884,0.9394,0.2172,-0.035,4.760,2.520,0.00,0.0368,0.0254,0.0100,0.0174,2025-06-09T14:03:11.647733
22989,-0.2933,0.9414,0.2103,-0.595,3.185,2.380,0.01,0.0368,0.0254,0.0200,0.0087,2025-06-09T14:03:11.647733
22990,-0.2899,0.9418,0.2098,-0.560,0.420,2.450,0.01,0.0184,0.0254,0.0100,0.0087,2025-06-09T14:03:11.647733
22991,-0.2879,0.9443,0.2191,-1.365,-1.155,2.625,0.00,0.0184,0.0254,0.0200,0.0087,2025-06-09T14:03:11.647733
22992,-0.2801,0.9394,0.2196,-1.820,-1.680,2.695,0.00,0.0184,0.0508,0.0200,0.0087,2025-06-09T14:03:11.648730
22993,-0.2718,0.9414,0.2284,-2.240,-0.700,2.765,0.01,0.0184,0.0508,0.0100,0.0087,2025-06-09T14:03:11.648730
22994,-0.2840,0.9384,0.2259,-2.905,0.070,3.220,0.00,0.0184,0.0508,0.0100,0.0087,2025-06-09T14:03:11.648730
22995,-0.2811,0.9365,0.2396,-3.255,-0.105,3.745,0.00,0.0184,0.0508,0.0100,0.0087,2025-06-09T14:03:11.648730
22996,-0.2821,0.9379,0.2440,-4.270,-0.910,3.955,0.01,0.0184,0.0508,0.0100,0.0087,2025-06-09T14:03:11.748649
22997,-0.2752,0.9345,0.2513,-4.970,-2.660,4.340,0.00,0.0368,0.0254,0.0200,0.0087,2025-06-09T14:03:11.748649
22998,-0.2650,0.9331,0.2552,-5.250,-3.850,4.620,0.01,0.0184,0.0254,0.0100,0.0087,2025-06-09T14:03:11.748649
22999,-0.2440,0.9282,0.2572,-5.425,-3.780,4.445,0.01,0.0184,0.0508,0.0100,0.0087,2025-06-09T14:03:11.748649
23000,-0.2323,0.9135,0.2503,-5.635,-2.800,4.060,0.00,0.0184,0.0254,0.0100,0.0087,2025-06-09T14:03:11.748649
23001,-0.2328,0.8945,0.2611,-5.250,-2.240,3.640,0.00,0.0184,0.0254,0.0200,0.0087,2025-06-09T14:03:11.748649
23002,-0.2303,0.8711,0.2542,-4.270,-2.660,2.275,0.00,0.0184,0.0254,0.0100,0.0087,2025-06-09T14:03:11.748649
23003,-0.2220,0.8428,0.2523,-3.185,-2.800,0.700,0.00,0.0184,0.0508,0.0100,0.0174,2025-06-09T14:03:11.802954
23004,-0.2225,0.7964,0.2528,-1.575,-2.905,-2.170,0.01,0.0184,0.0508,0.0200,0.0087,2025-06-09T14:03:11.802954
23005,-0.2103,0.7354,0.2377,1.225,-4.025,-5.705,0.01,0.0368,0.0508,0.0100,0.0174,2025-06-09T14:03:11.803926
23006,-0.1742,0.6388,0.1976,4.060,-3.815,-10.430,0.00,0.0368,0.0254,0.0200,0.0087,2025-06-09T14:03:11.803926
23007,-0.1030,0.5236,0.1562,7.490,2.065,-19.355,0.01,0.0368,0.0508,0.0100,0.0087,2025-06-09T14:03:11.977471
23008,-0.0249,0.2713,0.0903,12.460,14.420,-29.540,0.01,0.0184,0.0254,0.0200,0.0174,2025-06-09T14:03:11.977471
23009,0.0283,0.2289,0.0327,15.470,36.610,-44.030,0.00,0.0184,0.0254,0.0200,0.0087,2025-06-09T14:03:11.977471
23010,0.0590,0.1283,-0.0254,19.950,59.395,-57.785,0.01,0.0184,0.0254,0.0200,0.0087,2025-06-09T14:03:11.977471
23011,0.0996,0.0307,-0.0756,24.570,87.395,-76.510,0.01,0.0368,0.0254,0.0200,0.0174,2025-06-09T14:03:11.977471
23012,0.0722,0.0044,-0.1200,33.425,120.295,-93.065,0.00,0.0184,0.0254,0.0100,0.0087,2025-06-09T14:03:11.977471
23013,0.0600,0.0054,-0.1874,41.125,145.180,-111.895,0.00,0.0184,0.0254,0.0000,0.0087,2025-06-09T14:03:11.977471
23014,0.0151,0.0376,-0.2118,49.175,174.335,-137.130,0.00,0.0368,0.0254,0.0200,0.0174,2025-06-09T14:03:11.977471
23015,0.0551,0.0600,-0.2230,59.255,200.480,-158.200,0.00,0.0368,0.0254,0.0200,0.0174,2025-06-09T14:03:11.977471
23016,0.1064,0.1049,-0.2377,71.505,241.465,-180.460,0.00,0.0184,0.0254,0.0100,0.0087,2025-06-09T14:03:11.977471
23017,0.2425,0.1381,-0.3318,81.375,289.660,-194.145,0.00,0.0184,0.0254,0.0100,0.0087,2025-06-09T14:03:11.977471
23018,0.2289,0.1825,-0.4621,90.405,357.595,-206.570,0.01,0.0368,0.0254,0.0200,0.0087,2025-06-09T14:03:11.977471
23019,0.0478,0.2328,-0.6427,105.490,410.270,-215.460,0.01,0.0184,0.0254,0.0200,0.0174,2025-06-09T14:03:11.977471
23020,-0.0956,0.4119,-0.8438,135.450,460.180,-220.920,0.00,0.0184,0.0254,0.0200,0.0087,2025-06-09T14:03:12.161969
23021,-0.1322,0.6998,-1.1712,162.820,499.555,-220.220,0.00,0.0368,0.0254,0.0100,0.0174,2025-06-09T14:03:12.161969
23022,-0.1576,1.1717,-1.5270,196.805,546.735,-211.155,0.00,0.0368,0.0254,0.0200,0.0087,2025-06-09T14:03:12.161969
23023,-0.1859,1.6612,-2.0115,231.315,571.585,-191.415,0.01,0.0184,0.0508,0.0300,0.0087,2025-06-09T14:03:12.161969
23024,-0.3328,2.2219,-2.2980,252.665,576.975,-159.600,0.01,0.0368,0.0254,0.0200,0.0174,2025-06-09T14:03:12.161969
23025,-0.5534,2.7025,-2.0491,229.320,540.785,-133.735,0.00,0.0184,0.0508,0.0100,0.0087,2025-06-09T14:03:12.161969
23026,-0.9804,3.1744,-1.7475,169.400,459.480,-120.645,0.00,0.0000,0.0508,0.0200,0.0087,2025-06-09T14:03:12.161969
23027,-1.3196,3.4062,-1.4372,60.200,302.190,-128.975,0.00,0.0184,0.0254,0.0100,0.0087,2025-06-09T14:03:12.161969
23028,-1.1995,3.4106,-1.5274,-45.605,165.795,-142.835,0.01,0.0184,0.0508,0.0100,0.0087,2025-06-09T14:03:12.161969
23029,-0.5998,3.2301,-1.8481,-156.940,64.785,-140.560,0.01,0.0184,0.0254,0.0100,0.0087,2025-06-09T14:03:12.161969
23030,-0.1054,2.7548,-2.4351,-227.815,61.950,-121.695,0.00,0.0368,0.0254,0.0100,0.0174,2025-06-09T14:03:12.161969
23031,0.0673,2.3385,-2.6698,-293.125,121.765,-78.610,0.00,0.0368,0.0254,0.0200,0.0087,2025-06-09T14:03:12.161969
23032,-0.1303,1.8437,-2.6689,-316.505,181.720,-41.965,0.00,0.0184,0.0254,0.0100,0.0087,2025-06-09T14:03:12.161969
23033,-0.6725,1.4176,-2.6196,-329.280,207.690,-7.210,0.00,0.0368,0.0508,0.0200,0.0087,2025-06-09T14:03:12.273555
23034,-1.1409,0.9955,-2.4400,-342.195,180.460,22.120,0.00,0.0184,0.0254,0.0200,0.0087,2025-06-09T14:03:12.273555
23035,-1.3532,0.6329,-2.4771,-343.210,109.795,43.120,0.00,0.0184,0.0254,0.0200,0.0087,2025-06-09T14:03:12.273555
23036,-1.5362,-0.0693,-2.4746,-333.165,50.505,64.575,0.00,0.0368,0.0254,0.0200,0.0087,2025-06-09T14:03:12.273555
23037,-1.3952,-0.5192,-1.9993,-315.875,3.325,82.180,0.00,0.0184,0.0254,0.0200,0.0087,2025-06-09T14:03:12.273555
23038,-1.1414,-1.3108,-1.8110,-282.870,-16.590,105.910,0.00,0.0184,0.0254,0.0100,0.0087,2025-06-09T14:03:12.273555
23039,-0.9784,-1.9803,-1.5923,-224.735,-6.860,115.255,0.00,0.0368,0.0254,0.0100,0.0087,2025-06-09T14:03:12.273555
23040,-0.8115,-2.6113,-1.1029,-167.335,9.730,114.870,0.00,0.0368,0.0254,0.0100,0.0087,2025-06-09T14:03:12.273555
23041,-0.8818,-2.8758,-0.8135,-86.205,3.885,104.335,0.01,0.0184,0.0508,0.0100,0.0087,2025-06-09T14:03:12.378273
23042,-0.9560,-2.7787,-0.4529,-44.345,-27.720,73.150,0.00,0.0184,0.0508,0.0200,0.0087,2025-06-09T14:03:12.378273
23043,-0.7920,-2.3561,-0.2372,19.250,-89.285,54.705,0.00,0.0184,0.0508,0.0100,0.0174,2025-06-09T14:03:12.378273
23044,-0.5261,-1.7875,-0.2103,58.345,-114.345,26.460,0.00,0.0368,0.0508,0.0100,0.0174,2025-06-09T14:03:12.378273
23045,-0.4182,-1.2903,-0.2508,97.650,-104.580,-12.705,0.01,0.0368,0.0254,0.0100,0.0087,2025-06-09T14:03:12.378273
23046,-0.5710,-0.6793,-0.2123,125.160,-103.110,-44.240,0.00,0.0184,0.0254,0.0000,0.0087,2025-06-09T14:03:12.378273
23047,-0.8154,-0.2455,-0.2015,140.140,-134.610,-80.745,0.00,0.0184,0.0254,0.0100,0.0087,2025-06-09T14:03:12.378273
23048,-0.9838,0.1796,-0.3138,155.435,-176.855,-105.980,0.01,0.0184,0.0508,0.0200,0.0087,2025-06-09T14:03:12.432129
23049,-1.1366,0.6417,-0.4821,162.750,-243.040,-131.705,0.01,0.0368,0.0508,0.0200,0.0087,2025-06-09T14:03:12.432129
23050,-1.1234,1.0814,-0.7344,166.845,-301.770,-143.990,0.00,0.0368,0.0508,0.0200,0.0087,2025-06-09T14:03:12.432129
23051,-1.0404,1.3996,-1.0375,164.780,-335.475,-153.265,0.01,0.0184,0.0508,0.0200,0.0174,2025-06-09T14:03:12.432129
23052,-0.9243,1.6968,-1.3088,158.690,-336.735,-152.635,0.00,0.0184,0.0254,0.0100,0.0174,2025-06-09T14:03:12.432129
23053,-0.8628,1.8822,-1.3376,143.745,-319.690,-136.990,0.00,0.0368,0.0254,0.0100,0.0087,2025-06-09T14:03:12.603138
23054,-1.0336,1.9052,-1.3669,116.480,-301.140,-117.110,0.01,0.0368,0.0508,0.0200,0.0174,2025-06-09T14:03:12.603138
23055,-1.2869,1.8861,-1.3937,96.810,-297.535,-85.225,0.00,0.0368,0.0508,0.0200,0.0174,2025-06-09T14:03:12.603138
23056,-1.4391,1.8485,-1.3137,73.780,-317.100,-55.230,0.01,0.0368,0.0508,0.0200,0.0087,2025-06-09T14:03:12.603138
23057,-1.3835,1.7949,-1.1956,53.270,-354.270,-14.035,0.01,0.0368,0.0254,0.0200,0.0087,2025-06-09T14:03:12.603138
23058,-1.2629,1.7344,-1.1126,33.005,-379.400,17.710,0.01,0.0184,0.0254,0.0100,0.0087,2025-06-09T14:03:12.603138
23059,-1.0624,1.6192,-1.0804,14.875,-390.040,49.560,0.00,0.0184,0.0254,0.0100,0.0174,2025-06-09T14:03:13.150824
23060,-0.8233,1.5396,-0.9740,3.605,-378.210,69.755,0.01,0.0184,0.0254,0.0100,0.0087,2025-06-09T14:03:13.150824
23061,-0.6403,1.4289,-0.9140,-7.875,-355.495,87.570,0.01,0.0368,0.0254,0.0200,0.0087,2025-06-09T14:03:13.150824
23062,-0.4914,1.3235,-0.8106,-11.935,-323.890,101.675,0.00,0.0184,0.0254,0.0100,0.0000,2025-06-09T14:03:13.150824
23063,-0.3611,1.2049,-0.6046,-14.595,-296.100,114.555,0.01,0.0368,0.0508,0.0200,0.0174,2025-06-09T14:03:13.150824
23064,-0.2533,1.0873,-0.5051,-18.340,-265.370,129.115,0.01,0.0184,0.0508,0.0100,0.0174,2025-06-09T14:03:13.150824
23065,-0.2606,0.9555,-0.4538,-19.285,-237.650,140.175,0.00,0.0184,0.0508,0.0100,0.0087,2025-06-09T14:03:13.150824
23066,-0.2796,0.8725,-0.4207,-19.915,-210.490,144.445,0.01,0.0184,0.0254,0.0200,0.0087,2025-06-09T14:03:13.150824
23067,-0.2840,0.7945,-0.3753,-20.125,-194.425,144.830,0.01,0.0368,0.0508,0.0100,0.0174,2025-06-09T14:03:13.150824
23068,-0.2430,0.7437,-0.2938,-20.265,-175.280,141.715,0.01,0.0000,0.0254,0.0100,0.0174,2025-06-09T14:03:13.150824
23069,-0.1962,0.6974,-0.2396,-18.445,-159.845,135.170,0.00,0.0184,0.0254,0.0100,0.0174,2025-06-09T14:03:13.150824
23070,-0.1479,0.6476,-0.1645,-15.365,-144.970,128.835,0.00,0.0184,0.0254,0.0200,0.0087,2025-06-09T14:03:13.150824
23071,-0.1625,0.6207,-0.1337,-12.670,-132.055,120.890,0.01,0.0368,0.0254,0.0100,0.0174,2025-06-09T14:03:13.150824
23072,-0.1898,0.5968,-0.0961,-11.270,-120.645,111.685,0.00,0.0368,0.0508,0.0100,0.0087,2025-06-09T14:03:13.150824
23073,-0.1210,0.6022,-0.0693,-8.750,-111.300,99.575,0.01,0.0368,0.0508,0.0100,0.0087,2025-06-09T14:03:13.150824
23074,-0.0732,0.5958,-0.0327,-9.625,-101.360,89.775,0.00,0.0184,0.0000,0.0100,0.0087,2025-06-09T14:03:13.150824
23075,-0.0449,0.6246,0.0185,-8.015,-87.815,77.105,0.00,0.0368,0.0508,0.0200,0.0087,2025-06-09T14:03:13.150824
23076,-0.0332,0.6661,0.0483,-7.000,-78.295,66.290,0.01,0.0368,0.0508,0.0100,0.0174,2025-06-09T14:03:13.150824
23077,-0.0132,0.6817,0.0683,-6.510,-73.255,54.565,0.01,0.0368,0.0254,0.0100,0.0087,2025-06-09T14:03:13.150824
23078,0.0229,0.6817,0.0727,-5.845,-68.460,46.725,0.00,0.0368,0.0254,0.0200,0.0174,2025-06-09T14:03:13.150824
23079,0.0420,0.7120,0.1059,-5.110,-59.640,39.375,0.00,0.0184,0.0508,0.0200,0.0087,2025-06-09T14:03:13.150824
23080,0.0254,0.7476,0.1342,-5.390,-44.555,29.715,0.01,0.0368,0.0254,0.0200,0.0087,2025-06-09T14:03:13.150824
23081,0.0181,0.7706,0.1425,-5.285,-33.180,22.890,0.01,0.0184,0.0508,0.0100,0.0087,2025-06-09T14:03:13.150824
23082,-0.0429,0.7969,0.1698,-5.460,-23.730,15.820,0.00,0.0000,0.0254,0.0100,0.0087,2025-06-09T14:03:13.150824
23083,-0.0932,0.8115,0.1854,-4.410,-19.040,11.900,0.00,0.0184,0.0254,0.0200,0.0087,2025-06-09T14:03:13.150824
23084,-0.1288,0.8428,0.1952,-2.380,-19.495,9.135,0.00,0.0184,0.0254,0.0100,0.0087,2025-06-09T14:03:13.150824
23085,-0.1620,0.8608,0.1908,-0.595,-20.930,6.300,0.00,0.0184,0.0254,0.0100,0.0087,2025-06-09T14:03:13.150824
23086,-0.1640,0.8789,0.2098,1.575,-20.825,4.305,0.00,0.0184,0.0254,0.0100,0.0174,2025-06-09T14:03:13.150824
23087,-0.1498,0.9008,0.2245,3.115,-17.605,2.310,0.00,0.0368,0.0508,0.0200,0.0087,2025-06-09T14:03:13.150824
23088,-0.1342,0.9140,0.2240,3.815,-10.080,1.435,0.01,0.0368,0.0508,0.0200,0.0087,2025-06-09T14:03:13.150824
23089,-0.1425,0.9218,0.2372,4.480,-2.905,1.365,0.01,0.0184,0.0508,0.0200,0.0087,2025-06-09T14:03:13.150824
23090,-0.1654,0.9282,0.2464,5.110,2.205,2.345,0.00,0.0184,0.0254,0.0200,0.0174,2025-06-09T14:03:13.150824
23091,-0.2152,0.9340,0.2440,5.460,0.735,3.640,0.00,0.0184,0.0254,0.0000,0.0174,2025-06-09T14:03:13.150824
23092,-0.2211,0.9389,0.2752,5.250,-3.605,5.495,0.00,0.0368,0.0254,0.0100,0.0087,2025-06-09T14:03:13.150824
23093,-0.2054,0.9340,0.2635,5.320,-7.490,6.755,0.00,0.0184,0.0254,0.0100,0.0174,2025-06-09T14:03:13.150824
23094,-0.1952,0.9418,0.2601,4.165,-7.280,7.770,0.01,0.0184,0.0254,0.0200,0.0087,2025-06-09T14:03:13.150824
23095,-0.1723,0.9389,0.2523,3.395,-4.900,8.155,0.01,0.0184,0.0508,0.0200,0.0087,2025-06-09T14:03:13.150824
23096,-0.1757,0.9311,0.2489,2.765,-2.555,8.120,0.01,0.0184,0.0254,0.0100,0.0087,2025-06-09T14:03:13.150824
23097,-0.1713,0.9248,0.2445,1.750,0.385,7.910,0.01,0.0184,0.0508,0.0100,0.0087,2025-06-09T14:03:13.150824
23098,-0.1786,0.9174,0.2455,1.050,2.765,7.210,0.00,0.0368,0.0508,0.0200,0.0087,2025-06-09T14:03:13.150824
23099,-0.1884,0.9130,0.2289,0.315,3.640,5.985,0.00,0.0368,0.0254,0.0100,0.0087,2025-06-09T14:03:13.150824
23100,-0.1854,0.9116,0.2255,-0.245,4.865,4.305,0.00,0.0184,0.0508,0.0200,0.0087,2025-06-09T14:03:13.150824
23101,-0.1981,0.9106,0.2225,-0.140,5.670,2.695,0.00,0.0184,0.0254,0.0200,0.0174,2025-06-09T14:03:13.188722
23102,-0.2059,0.9062,0.2064,-0.105,5.670,0.455,0.00,0.0368,0.0508,0.0200,0.0087,2025-06-09T14:03:13.188722
23103,-0.2050,0.9038,0.2196,0.630,5.565,-1.225,0.00,0.0184,0.0508,0.0200,0.0087,2025-06-09T14:03:13.188722
23104,-0.2054,0.9077,0.2084,0.910,5.530,-2.905,0.01,0.0184,0.0254,0.0200,0.0087,2025-06-09T14:03:13.188722
23105,-0.2123,0.9111,0.2045,1.715,4.830,-4.515,0.01,0.0184,0.0254,0.0200,0.0174,2025-06-09T14:03:13.188722
23106,-0.2313,0.9223,0.2128,2.135,4.690,-5.915,0.00,0.0184,0.0254,0.0100,0.0087,2025-06-09T14:03:13.188722
23107,-0.2225,0.9296,0.2142,2.835,5.145,-7.350,0.00,0.0184,0.0254,0.0200,0.0087,2025-06-09T14:03:13.188722
23108,-0.2499,0.9292,0.2176,3.010,4.970,-8.050,0.01,0.0184,0.0254,0.0100,0.0087,2025-06-09T14:03:13.188722
23109,-0.2430,0.9340,0.2186,2.730,5.040,-8.470,0.00,0.0368,0.0508,0.0100,0.0087,2025-06-09T14:03:13.320104
23110,-0.2386,0.9404,0.2391,2.835,7.070,-8.365,0.00,0.0184,0.0254,0.0100,0.0087,2025-06-09T14:03:13.320104
23111,-0.2611,0.9496,0.2303,2.590,8.925,-8.260,0.00,0.0184,0.0254,0.0200,0.0087,2025-06-09T14:03:13.320104
23112,-0.2791,0.9599,0.2406,2.625,9.100,-7.770,0.01,0.0368,0.0508,0.0100,0.0174,2025-06-09T14:03:13.320104
23113,-0.2908,0.9618,0.2367,2.030,8.295,-6.895,0.00,0.0184,0.0254,0.0200,0.0174,2025-06-09T14:03:13.320104
23114,-0.2894,0.9618,0.2342,1.330,7.175,-5.390,0.01,0.0184,0.0254,0.0100,0.0087,2025-06-09T14:03:13.320104
23115,-0.3021,0.9633,0.2294,1.120,5.425,-4.095,0.00,0.0184,0.0508,0.0100,0.0087,2025-06-09T14:03:13.320104
23116,-0.2889,0.9589,0.2342,0.350,4.095,-2.765,0.00,0.0184,0.0254,0.0100,0.0174,2025-06-09T14:03:13.320104
23117,-0.2826,0.9575,0.2318,-8.960,2.380,-0.840,0.01,0.0184,0.0508,0.0200,0.0087,2025-06-09T14:03:13.415262
23118,-0.2865,0.9540,0.2372,-0.700,1.715,-0.035,0.00,0.0368,0.0508,0.0100,0.0087,2025-06-09T14:03:13.415262
23119,-0.2669,0.9521,0.2269,-1.085,1.750,1.260,0.00,0.0184,0.0254,0.0100,0.0087,2025-06-09T14:03:13.415262
23120,-0.2782,0.9467,0.2133,-1.785,1.575,1.750,0.00,0.0184,0.0254,0.0100,0.0087,2025-06-09T14:03:13.415262
23121,-0.2723,0.9438,0.2284,-1.750,1.260,1.960,0.00,0.0368,0.0254,0.0100,0.0087,2025-06-09T14:03:13.415262
23122,-0.2830,0.9350,0.2201,-2.310,0.420,2.065,0.00,0.0184,0.0254,0.0100,0.0087,2025-06-09T14:03:13.415262
23123,-0.2801,0.9282,0.2186,-2.240,-1.260,2.030,0.01,0.0184,0.0254,0.0200,0.0174,2025-06-09T14:03:13.415262
23124,-0.2762,0.9209,0.2269,-2.485,-2.695,1.785,0.01,0.0184,0.0254,0.0100,0.0087,2025-06-09T14:03:13.415262
23125,-0.2582,0.9199,0.2264,-1.855,-2.730,1.365,0.00,0.0184,0.0508,0.0100,0.0174,2025-06-09T14:03:13.415262
23126,-0.2499,0.9155,0.2176,-1.960,-1.855,0.630,0.00,0.0184,0.0508,0.0100,0.0087,2025-06-09T14:03:13.465127
23127,-0.2499,0.9170,0.2196,-1.435,-0.490,0.105,0.00,0.0368,0.0254,0.0200,0.0087,2025-06-09T14:03:13.465127
23128,-0.2508,0.9160,0.2142,-0.910,0.420,-0.105,0.01,0.0368,0.0508,0.0100,0.0087,2025-06-09T14:03:13.465127
23129,-0.2650,0.9126,0.2103,-0.910,1.085,-0.350,0.00,0.0368,0.0508,0.0200,0.0087,2025-06-09T14:03:13.465127
23130,-0.2743,0.9145,0.2235,-0.140,0.525,-0.350,0.01,0.0184,0.0254,0.0200,0.0087,2025-06-09T14:03:13.589330
23131,-0.2782,0.9174,0.2211,-0.140,-0.280,-0.420,0.01,0.0368,0.0254,0.0100,0.0174,2025-06-09T14:03:13.589330
23132,-0.2786,0.9209,0.2230,0.420,-0.455,-0.105,0.01,0.0184,0.0254,0.0200,0.0174,2025-06-09T14:03:13.589330
23133,-0.2869,0.9248,0.2255,0.315,-0.910,0.245,0.01,0.0000,0.0254,0.0100,0.0087,2025-06-09T14:03:13.589330
23134,-0.2874,0.9262,0.2181,0.700,-1.960,0.840,0.00,0.0368,0.0254,0.0100,0.0087,2025-06-09T14:03:13.589330
23135,-0.2811,0.9277,0.2196,0.595,-2.625,1.435,0.01,0.0000,0.0508,0.0100,0.0087,2025-06-09T14:03:13.589330
23136,-0.2650,0.9345,0.2255,0.840,-2.030,2.135,0.00,0.0184,0.0254,0.0200,0.0087,2025-06-09T14:03:13.589330
23137,-0.2679,0.9326,0.2240,0.700,-1.260,2.555,0.00,0.0184,0.0508,0.0100,0.0087,2025-06-09T14:03:13.589330
23138,-0.2708,0.9301,0.2201,0.665,-1.995,2.695,0.00,0.0184,0.0254,0.0100,0.0174,2025-06-09T14:03:13.589330
23139,-0.2601,0.9238,0.2308,0.875,-2.940,3.010,0.01,0.0368,0.0254,0.0200,0.0087,2025-06-09T14:03:13.589330
23140,-0.2533,0.9277,0.2250,1.225,-3.080,2.660,0.01,0.0368,0.0254,0.0100,0.0087,2025-06-09T14:03:13.710830
23141,-0.2469,0.9272,0.2186,1.155,-2.870,1.890,0.00,0.0184,0.0508,0.0200,0.0174,2025-06-09T14:03:13.710830
23142,-0.2494,0.9321,0.2250,1.085,-1.855,1.225,0.01,0.0184,0.0508,0.0200,0.0174,2025-06-09T14:03:13.710830
23143,-0.2430,0.9301,0.2118,1.470,-1.330,1.050,0.00,0.0368,0.0508,0.0200,0.0174,2025-06-09T14:03:13.710830
23144,-0.2523,0.9296,0.2181,1.330,-1.365,0.980,0.01,0.0184,0.0508,0.0100,0.0000,2025-06-09T14:03:13.710830
23145,-0.2518,0.9282,0.2152,1.575,-1.505,0.630,0.00,0.0184,0.0508,0.0200,0.0087,2025-06-09T14:03:13.710830
23146,-0.2513,0.9223,0.2240,1.680,-1.680,0.455,0.00,0.0368,0.0508,0.0100,0.0087,2025-06-09T14:03:13.710830
23147,-0.2743,0.9233,0.2172,1.785,-2.730,0.175,0.00,0.0368,0.0254,0.0200,0.0087,2025-06-09T14:03:13.798594
23148,-0.2596,0.9252,0.2162,1.890,-3.325,-0.175,0.01,0.0552,0.0508,0.0200,0.0174,2025-06-09T14:03:13.798594
23149,-0.2621,0.9267,0.2152,1.505,-2.625,-0.630,0.00,0.0368,0.0254,0.0200,0.0087,2025-06-09T14:03:13.798594
23150,-0.2538,0.9292,0.2147,1.785,-0.910,-1.190,0.00,0.0184,0.0508,0.0100,0.0087,2025-06-09T14:03:13.798594
23151,-0.2606,0.9277,0.2172,1.575,0.560,-1.575,0.00,0.0184,0.0508,0.0200,0.0087,2025-06-09T14:03:13.798594
23152,-0.2650,0.9292,0.2108,1.890,0.945,-1.575,0.01,0.0368,0.0508,0.0100,0.0087,2025-06-09T14:03:13.798594
23153,-0.2743,0.9340,0.2250,1.505,0.140,-1.750,0.01,0.0000,0.0254,0.0100,0.0087,2025-06-09T14:03:13.798594
23154,-0.2674,0.9316,0.2167,1.400,-1.295,-2.170,0.00,0.0368,0.0508,0.0200,0.0087,2025-06-09T14:03:13.798594
23155,-0.2582,0.9331,0.2333,1.330,-2.345,-2.485,0.00,0.0368,0.0508,0.0200,0.0087,2025-06-09T14:03:13.902568
23156,-0.2611,0.9306,0.2303,1.260,-2.345,-2.870,0.01,0.0184,0.0508,0.0200,0.0174,2025-06-09T14:03:13.902568
23157,-0.2596,0.9316,0.2298,1.190,-2.625,-3.010,0.00,0.0184,0.0508,0.0100,0.0087,2025-06-09T14:03:13.902568
23158,-0.2669,0.9331,0.2250,1.085,-2.695,-2.975,0.00,0.0368,0.0254,0.0200,0.0087,2025-06-09T14:03:13.902568
23159,-0.2630,0.9306,0.2220,0.840,-2.450,-2.905,0.00,0.0184,0.0508,0.0100,0.0087,2025-06-09T14:03:13.902568
23160,-0.2694,0.9287,0.2176,0.630,-2.345,-2.590,0.00,0.0184,0.0254,0.0200,0.0087,2025-06-09T14:03:13.902568
23161,-0.2699,0.9287,0.2133,0.595,-2.625,-2.310,0.00,0.0184,0.0508,0.0100,0.0087,2025-06-09T14:03:13.902568
23162,-0.2767,0.9282,0.2186,0.385,-2.975,-2.380,0.01,0.0368,0.0254,0.0200,0.0174,2025-06-09T14:03:13.949429
23163,-0.2650,0.9267,0.2079,0.280,-3.045,-2.170,0.00,0.0184,0.0508,0.0200,0.0087,2025-06-09T14:03:13.949429
23164,-0.2708,0.9272,0.2069,0.035,-2.625,-2.170,0.00,0.0184,0.0254,0.0200,0.0087,2025-06-09T14:03:13.949429
23165,-0.2738,0.9282,0.2050,-0.245,-2.940,-2.380,0.00,0.0184,0.0508,0.0100,0.0174,2025-06-09T14:03:13.949429
23166,-0.2777,0.9248,0.2020,0.350,-4.130,-2.415,0.00,0.0368,0.0254,0.0200,0.0087,2025-06-09T14:03:14.137187
23167,-0.2694,0.9287,0.2137,0.455,-4.060,-2.660,0.01,0.0184,0.0508,0.0200,0.0174,2025-06-09T14:03:14.137187
23168,-0.2738,0.9277,0.2094,0.700,-4.060,-2.485,0.01,0.0368,0.0254,0.0100,0.0174,2025-06-09T14:03:14.137187
23169,-0.2689,0.9282,0.2059,0.980,-4.025,-2.240,0.01,0.0368,0.0254,0.0100,0.0174,2025-06-09T14:03:14.137187
23170,-0.2674,0.9257,0.2137,1.015,-3.185,-1.750,0.00,0.0184,0.0508,0.0100,0.0087,2025-06-09T14:03:14.137187
23171,-0.2660,0.9228,0.2103,1.190,-2.205,-1.435,0.00,0.0184,0.0508,0.0100,0.0087,2025-06-09T14:03:14.137187
23172,-0.2694,0.9252,0.2089,1.050,-1.785,-1.085,0.01,0.0368,0.0254,0.0100,0.0087,2025-06-09T14:03:14.137187
23173,-0.2660,0.9345,0.2279,1.295,-1.365,-1.155,0.00,0.0184,0.0254,0.0100,0.0087,2025-06-09T14:03:14.137187
23174,-0.2689,0.9345,0.2172,1.155,-1.260,-1.260,0.00,0.0184,0.0254,0.0100,0.0087,2025-06-09T14:03:14.137187
23175,-0.2762,0.9306,0.2181,1.190,-2.135,-1.155,0.01,0.0184,0.0508,0.0200,0.0174,2025-06-09T14:03:14.137187
23176,-0.2728,0.9296,0.2206,1.540,-2.975,-0.980,0.00,0.0184,0.0254,0.0200,0.0087,2025-06-09T14:03:14.137187
23177,-0.2757,0.9301,0.2098,1.995,-3.360,-0.805,0.00,0.0368,0.0508,0.0100,0.0087,2025-06-09T14:03:14.137187
23178,-0.2772,0.9345,0.2157,2.380,-3.360,-0.630,0.01,0.0184,0.0254,0.0100,0.0174,2025-06-09T14:03:14.137187
23179,-0.2704,0.9360,0.2201,2.625,-2.555,-0.350,0.01,0.0184,0.0508,0.0200,0.0174,2025-06-09T14:03:14.137187
23180,-0.2757,0.9399,0.2098,2.520,-1.785,-0.210,0.00,0.0184,0.0254,0.0200,0.0174,2025-06-09T14:03:14.221392
23181,-0.2767,0.9389,0.2069,1.960,-1.785,0.245,0.01,0.0368,0.0508,0.0200,0.0087,2025-06-09T14:03:14.221392
23182,-0.2855,0.9384,0.2059,1.435,-2.415,0.560,0.01,0.0368,0.0508,0.0100,0.0087,2025-06-09T14:03:14.221392
23183,-0.2728,0.9345,0.2142,1.015,-2.870,1.120,0.01,0.0368,0.0508,0.0200,0.0087,2025-06-09T14:03:14.221392
23184,-0.2752,0.9316,0.2069,0.700,-3.290,1.505,0.01,0.0368,0.0508,0.0100,0.0087,2025-06-09T14:03:14.330101
23185,-0.2821,0.9287,0.2118,0.490,-3.710,1.540,0.01,0.0368,0.0508,0.0100,0.0174,2025-06-09T14:03:14.330101
23186,-0.2718,0.9272,0.2235,0.595,-3.465,1.680,0.00,0.0368,0.0508,0.0200,0.0087,2025-06-09T14:03:14.330101
23187,-0.2733,0.9272,0.2167,0.840,-3.395,1.505,0.01,0.0184,0.0508,0.0200,0.0087,2025-06-09T14:03:14.330101
23188,-0.2806,0.9262,0.2113,0.980,-3.745,1.330,0.01,0.0184,0.0508,0.0200,0.0087,2025-06-09T14:03:14.330101
23189,-0.2733,0.9257,0.2133,1.015,-4.130,0.875,0.00,0.0368,0.0254,0.0100,0.0087,2025-06-09T14:03:14.330101
23190,-0.2616,0.9292,0.2108,1.190,-3.850,0.385,0.00,0.0368,0.0254,0.0200,0.0087,2025-06-09T14:03:14.330101
23191,-0.2611,0.9292,0.2054,1.120,-3.185,-0.105,0.01,0.0184,0.0508,0.0200,0.0087,2025-06-09T14:03:14.330101
23192,-0.2660,0.9296,0.2064,0.595,-3.080,-0.840,0.00,0.0184,0.0254,0.0200,0.0087,2025-06-09T14:03:14.330101
23193,-0.2601,0.9306,0.2103,0.630,-2.905,-1.295,0.00,0.0184,0.0508,0.0200,0.0087,2025-06-09T14:03:14.412880
23194,-0.2743,0.9296,0.2045,0.000,-2.765,-1.505,0.01,0.0368,0.0254,0.0200,0.0174,2025-06-09T14:03:14.412880
23195,-0.2689,0.9277,0.2108,0.035,-3.255,-1.400,0.00,0.0184,0.0254,0.0200,0.0087,2025-06-09T14:03:14.412880
23196,-0.2718,0.9301,0.2098,-0.210,-3.395,-1.085,0.00,0.0368,0.0508,0.0100,0.0174,2025-06-09T14:03:14.412880
23197,-0.2645,0.9292,0.2157,-0.070,-3.080,-0.910,0.00,0.0184,0.0508,0.0100,0.0087,2025-06-09T14:03:14.412880
23198,-0.2694,0.9277,0.2137,-0.175,-3.080,-0.945,0.00,0.0184,0.0254,0.0200,0.0087,2025-06-09T14:03:14.412880
23199,-0.2596,0.9243,0.2118,0.245,-3.185,-1.085,0.00,0.0184,0.0254,0.0100,0.0087,2025-06-09T14:03:14.412880
23200,-0.2582,0.9262,0.2147,0.455,-3.010,-1.260,0.01,0.0184,0.0508,0.0200,0.0087,2025-06-09T14:03:14.518436
23201,-0.2582,0.9228,0.2079,0.595,-2.555,-1.820,0.01,0.0184,0.0254,0.0200,0.0087,2025-06-09T14:03:14.518436
23202,-0.2582,0.9248,0.2162,0.770,-1.750,-1.890,0.00,0.0184,0.0254,0.0100,0.0174,2025-06-09T14:03:14.518436
23203,-0.2611,0.9262,0.2098,1.015,-1.645,-2.030,0.00,0.0368,0.0254,0.0200,0.0174,2025-06-09T14:03:14.518436
23204,-0.2728,0.9257,0.2040,1.435,-2.135,-2.065,0.00,0.0184,0.0254,0.0200,0.0087,2025-06-09T14:03:14.518436
23205,-0.2674,0.9257,0.2074,1.435,-2.170,-2.170,0.01,0.0368,0.0508,0.0100,0.0174,2025-06-09T14:03:14.518436
23206,-0.2689,0.9306,0.2001,1.505,-1.680,-2.380,0.00,0.0184,0.0254,0.0100,0.0087,2025-06-09T14:03:14.518436
23207,-0.2694,0.9316,0.2030,1.260,-0.945,-2.590,0.01,0.0184,0.0508,0.0200,0.0087,2025-06-09T14:03:14.518436
