SeqNum,AccX,AccY,AccZ,GyroX,GyroY,GyroZ,Flex,Force1,Force2,Force3,Force4,TimestampReception
9317,0.2904,-0.4577,1.0204,-9.800,104.510,0.070,478,417,298,373,78,2025-05-23T23:42:41.506078
9318,-1.0146,-0.2835,0.3860,3.990,68.460,44.800,483,418,279,308,282,2025-05-23T23:42:41.506170
9319,-1.0258,-0.2655,0.3699,1.400,58.590,44.030,439,420,271,334,288,2025-05-23T23:42:41.506192
9320,-1.0209,-0.2469,0.3533,0.840,48.720,43.610,437,393,300,343,320,2025-05-23T23:42:41.506210
9321,-1.0009,-0.2313,0.3226,-0.070,41.020,43.050,427,407,300,324,339,2025-05-23T23:42:41.506220
9322,-0.9750,-0.2064,0.2879,-2.170,34.720,45.150,347,424,282,344,310,2025-05-23T23:42:41.506230
9323,-0.9492,-0.1937,0.2801,-4.760,35.350,50.400,408,434,323,340,346,2025-05-23T23:42:41.506239
9324,-0.9345,-0.1732,0.2679,-7.140,36.820,52.850,401,417,327,367,354,2025-05-23T23:42:41.639208
9325,-0.9267,-0.1527,0.2582,-7.910,37.730,53.410,400,394,328,359,352,2025-05-23T23:42:41.639275
9326,-0.9311,-0.1322,0.2621,-8.890,36.890,53.060,420,423,320,361,357,2025-05-23T23:42:41.639288
9327,-0.9404,-0.1244,0.2586,-9.870,35.000,50.890,424,424,315,363,353,2025-05-23T23:42:41.639299
9328,-0.9379,-0.1210,0.2469,-10.710,30.240,48.440,429,409,321,360,364,2025-05-23T23:42:41.639310
9329,-0.9453,-0.1244,0.2474,-10.640,25.410,43.750,304,294,304,335,337,2025-05-23T23:42:41.639320
9330,-0.9496,-0.1352,0.2401,-8.960,17.920,40.390,370,382,302,347,351,2025-05-23T23:42:41.639330
9331,-0.9467,-0.1454,0.2352,-5.950,9.100,36.960,387,401,287,322,316,2025-05-23T23:42:41.639339
9332,-0.9306,-0.1513,0.2289,-3.850,3.990,33.880,295,351,273,334,348,2025-05-23T23:42:41.639352
9333,-0.9023,-0.1435,0.2128,-2.520,5.740,31.010,377,405,278,349,343,2025-05-23T23:42:41.639361
9334,-0.8843,-0.1332,0.1976,-1.190,12.180,28.910,396,436,309,356,329,2025-05-23T23:42:41.639370
9335,-0.8818,-0.1196,0.1869,1.050,19.460,26.110,396,359,314,370,275,2025-05-23T23:42:41.824369
9336,-0.8857,-0.1020,0.1757,2.590,24.080,22.260,410,410,319,352,316,2025-05-23T23:42:41.824425
9337,-0.9038,-0.0976,0.1625,4.340,24.710,17.780,374,401,318,272,317,2025-05-23T23:42:41.824439
9338,-0.9316,-0.0961,0.1376,6.720,22.540,14.070,383,403,307,329,356,2025-05-23T23:42:41.824452
9339,-0.9516,-0.0854,0.1269,9.520,20.370,11.480,363,391,314,354,369,2025-05-23T23:42:41.824484
9340,-0.9731,-0.0786,0.1235,11.690,17.640,10.360,376,411,298,346,339,2025-05-23T23:42:41.824496
9341,-1.0121,-0.0727,0.1279,12.110,12.530,9.240,401,386,259,325,302,2025-05-23T23:42:41.824509
9342,-1.0394,-0.0683,0.1288,10.710,6.090,8.680,421,421,255,322,254,2025-05-23T23:42:41.824522
9343,-1.0307,-0.0547,0.1254,8.610,3.500,10.500,405,395,257,318,283,2025-05-23T23:42:41.824539
9344,-1.0009,-0.0420,0.1200,4.620,5.110,13.860,408,407,247,314,289,2025-05-23T23:42:41.824551
9345,-0.9726,-0.0205,0.1269,1.330,12.040,16.590,410,413,251,320,259,2025-05-23T23:42:41.824562
9346,-0.9209,0.0083,0.1337,-1.960,20.090,19.040,383,421,256,276,243,2025-05-23T23:42:41.824572
9347,-0.8877,0.0356,0.1347,-5.040,29.050,19.880,382,410,261,308,242,2025-05-23T23:42:41.824583
9348,-0.8833,0.0620,0.1322,-6.300,37.380,18.060,406,427,251,303,301,2025-05-23T23:42:41.824599
9349,-0.9155,0.0761,0.1264,-6.370,40.670,15.470,405,402,228,271,301,2025-05-23T23:42:41.824651
9350,-0.9536,0.0908,0.1235,-3.080,37.520,13.230,413,413,255,312,294,2025-05-23T23:42:42.027490
9351,-1.0165,0.0874,0.1142,-1.680,28.980,10.010,427,420,225,273,275,2025-05-23T23:42:42.027573
9352,-1.0609,0.0727,0.0971,-2.520,20.580,7.840,403,424,260,290,299,2025-05-23T23:42:42.027590
9353,-1.0902,0.0693,0.0820,-4.830,13.510,8.120,424,406,231,324,262,2025-05-23T23:42:42.027609
9354,-1.0917,0.0673,0.0693,-6.860,9.380,11.130,418,414,257,273,292,2025-05-23T23:42:42.027627
9355,-1.0868,0.0615,0.0620,-9.660,7.490,15.610,420,403,224,329,256,2025-05-23T23:42:42.027639
9356,-1.0902,0.0590,0.0483,-12.390,8.260,19.740,411,391,250,320,299,2025-05-23T23:42:42.027651
9357,-1.1087,0.0537,0.0400,-14.280,10.430,24.220,396,398,262,317,292,2025-05-23T23:42:42.027664
9358,-1.1434,0.0410,0.0259,-14.350,11.760,27.370,415,408,224,292,300,2025-05-23T23:42:42.027682
9359,-1.1697,0.0298,0.0195,-13.160,11.690,29.680,348,417,253,319,281,2025-05-23T23:42:42.027693
9360,-1.1785,0.0215,0.0195,-12.950,11.480,31.780,409,428,228,289,279,2025-05-23T23:42:42.027703
9361,-1.1805,0.0078,0.0181,-15.540,11.060,34.510,418,434,213,318,292,2025-05-23T23:42:42.027717
9362,-1.1707,-0.0083,0.0224,-17.990,13.440,39.550,362,352,247,301,293,2025-05-23T23:42:42.027727
9363,-1.1507,-0.0268,0.0146,-20.160,18.270,45.010,402,406,245,315,281,2025-05-23T23:42:42.027737
9364,-1.1209,-0.0405,0.0190,-20.090,25.270,51.520,422,399,258,310,297,2025-05-23T23:42:42.027788
9365,-1.1000,-0.0410,0.0312,-19.250,31.150,58.800,434,403,248,328,219,2025-05-23T23:42:42.027800
9366,-1.0712,-0.0273,0.0488,-19.670,36.260,62.860,412,342,255,321,292,2025-05-23T23:42:42.027811
9367,-1.0228,-0.0161,0.0644,-20.650,38.150,65.800,431,400,263,307,285,2025-05-23T23:42:42.233389
9368,-0.9755,0.0044,0.0693,-21.280,38.850,66.430,427,390,257,320,254,2025-05-23T23:42:42.233452
9369,-0.9155,0.0229,0.0669,-22.120,44.170,65.870,418,353,258,331,245,2025-05-23T23:42:42.233465
9370,-0.8882,0.0283,0.0659,-20.160,51.940,66.150,419,390,260,335,290,2025-05-23T23:42:42.233477
9371,-0.8813,0.0473,0.0586,-16.590,59.220,68.530,382,406,263,344,271,2025-05-23T23:42:42.233486
9372,-0.8901,0.0698,0.0561,-13.230,63.280,69.930,416,370,260,340,287,2025-05-23T23:42:42.233495
9373,-0.8940,0.0991,0.0576,-10.150,62.580,69.650,421,405,218,325,301,2025-05-23T23:42:42.233505
9374,-0.8867,0.1352,0.0493,-8.470,57.330,68.180,428,409,241,309,299,2025-05-23T23:42:42.233515
9375,-0.8486,0.1708,0.0366,-6.650,54.530,65.590,418,422,247,323,250,2025-05-23T23:42:42.233531
9376,-0.8403,0.2030,-0.1196,-4.620,56.000,64.540,361,422,249,294,296,2025-05-23T23:42:42.233545
9377,-0.8511,0.2220,-0.0322,0.280,63.000,62.370,419,431,246,317,294,2025-05-23T23:42:42.233558
9378,-0.8667,0.2538,-0.0849,3.360,76.440,60.270,422,365,213,269,292,2025-05-23T23:42:42.233567
9379,-0.9311,0.2904,-0.1357,4.130,89.810,58.800,425,377,253,312,260,2025-05-23T23:42:42.233576
9380,-1.0277,0.2991,-0.1932,2.240,103.670,57.680,424,409,253,326,299,2025-05-23T23:42:42.233584
9381,-1.1322,0.3104,-0.2381,-0.210,108.220,58.870,392,414,244,323,296,2025-05-23T23:42:42.233624
9382,-1.2034,0.3357,-0.2723,-5.040,102.410,63.490,415,417,254,326,288,2025-05-23T23:42:42.233639
9383,-1.2586,0.3606,-0.3177,-11.550,92.050,68.810,420,353,240,274,296,2025-05-23T23:42:42.233648
9384,-1.2742,0.3733,-0.3748,-21.210,77.350,75.670,356,331,214,264,300,2025-05-23T23:42:42.289854
9385,-1.2659,0.3772,-0.4446,-29.820,64.890,83.510,409,403,242,306,298,2025-05-23T23:42:42.289899
9386,-1.2366,0.3870,-0.4743,-33.110,59.640,89.740,407,426,258,309,293,2025-05-23T23:42:42.289910
9387,-1.2005,0.4177,-0.4968,-34.930,58.170,97.020,416,392,259,304,312,2025-05-23T23:42:42.289919
9388,-1.1751,0.4607,-0.4914,-39.760,60.270,103.740,424,374,257,307,300,2025-05-23T23:42:42.289928
9389,-1.1634,0.4675,-0.5065,-49.000,62.930,109.760,423,338,267,330,296,2025-05-23T23:42:42.452276
9390,-1.1678,0.4870,-0.4973,-58.100,57.540,113.680,381,402,273,330,307,2025-05-23T23:42:42.452349
9391,-1.1356,0.5002,-0.4792,-65.450,44.100,115.850,415,388,267,314,310,2025-05-23T23:42:42.452364
9392,-1.0960,0.4929,-0.4651,-67.340,24.220,117.180,396,375,262,332,309,2025-05-23T23:42:42.452376
9393,-1.0082,0.5104,-0.4363,-66.990,2.590,118.440,393,386,252,329,299,2025-05-23T23:42:42.452387
9394,-0.8384,0.5348,-0.3987,-68.180,-6.300,119.840,407,413,220,284,306,2025-05-23T23:42:42.452407
9395,-0.7286,0.5412,-0.3767,-73.080,-3.220,120.190,396,374,260,325,297,2025-05-23T23:42:42.452418
9396,-0.6734,0.5353,-0.3231,-75.880,4.760,120.960,396,346,248,322,294,2025-05-23T23:42:42.452433
9397,-0.6583,0.5251,-0.2669,-72.870,3.710,120.050,402,335,233,327,288,2025-05-23T23:42:42.452443
9398,-0.6207,0.5124,-0.2206,-66.780,-2.450,115.220,302,373,238,336,291,2025-05-23T23:42:42.452454
9399,-0.5602,0.5266,-0.1835,-61.040,-8.680,109.970,401,386,250,274,286,2025-05-23T23:42:42.452464
9400,-0.5309,0.5300,-0.1684,-53.620,-15.050,104.930,425,390,250,266,285,2025-05-23T23:42:42.452474
9401,-0.5007,0.5456,-0.1498,-45.920,-22.400,98.420,399,390,253,304,308,2025-05-23T23:42:42.452485
9402,-0.4250,0.5690,-0.1547,-38.780,-24.500,90.440,360,412,220,312,308,2025-05-23T23:42:42.657284
9403,-0.3699,0.6212,-0.1708,-33.460,-15.680,85.820,415,415,253,321,293,2025-05-23T23:42:42.657329
9404,-0.3694,0.6461,-0.1645,-31.360,-3.010,82.180,417,420,262,296,279,2025-05-23T23:42:42.657341
9405,-0.3860,0.6471,-0.1635,-29.050,4.340,77.420,374,404,266,322,311,2025-05-23T23:42:42.657351
9406,-0.4163,0.6412,-0.1693,-22.400,5.250,71.680,416,392,222,282,310,2025-05-23T23:42:42.657361
9407,-0.4616,0.6427,-0.1659,-14.770,0.770,63.350,425,419,260,311,293,2025-05-23T23:42:42.657369
9408,-0.4758,0.6647,-0.1479,-7.140,-6.300,53.760,422,429,251,323,292,2025-05-23T23:42:42.657378
9409,-0.4792,0.6837,-0.1430,-6.440,-16.380,47.250,378,374,213,266,301,2025-05-23T23:42:42.657387
9410,-0.4616,0.6891,-0.1742,-8.610,-20.300,41.300,411,402,252,284,291,2025-05-23T23:42:42.657420
9411,-0.4338,0.7305,-0.1791,-11.830,-14.630,37.240,419,409,211,310,291,2025-05-23T23:42:42.657429
9412,-0.4568,0.7437,-0.1659,-14.770,-6.790,32.200,376,405,240,325,288,2025-05-23T23:42:42.657438
9413,-0.5329,0.7291,-0.1527,-13.370,-5.530,28.350,386,421,238,327,287,2025-05-23T23:42:42.657449
9414,-0.5900,0.7252,-0.1171,-10.500,-10.920,23.240,408,402,238,326,252,2025-05-23T23:42:42.657457
9415,-0.6061,0.7208,-0.0800,-6.790,-21.770,18.970,390,429,243,322,259,2025-05-23T23:42:42.657465
9416,-0.6149,0.7242,-0.0483,-3.150,-33.320,16.170,407,429,211,270,245,2025-05-23T23:42:42.657509
9417,-0.5832,0.7305,-0.0283,-0.840,-38.920,11.550,396,365,248,272,291,2025-05-23T23:42:42.657521
9418,-0.5519,0.7403,-0.0068,-0.770,-36.330,10.710,393,338,243,311,294,2025-05-23T23:42:42.657529
9419,-0.5710,0.7398,-0.0093,-0.140,-28.770,10.430,397,377,261,323,292,2025-05-23T23:42:42.846849
9420,-0.5880,0.7579,-0.0102,2.240,-22.610,10.500,399,406,257,315,256,2025-05-23T23:42:42.846896
9421,-0.5929,0.7710,-0.0171,4.620,-16.170,10.360,366,418,230,299,308,2025-05-23T23:42:42.846908
9422,-0.5978,0.7842,-0.0273,5.460,-11.760,9.730,362,352,252,313,292,2025-05-23T23:42:42.846918
9423,-0.5978,0.7945,-0.0488,7.420,-8.540,9.310,410,399,264,318,264,2025-05-23T23:42:42.846928
9424,-0.6281,0.8101,-0.0732,9.450,-8.890,9.520,399,410,196,327,284,2025-05-23T23:42:42.846952
9425,-0.6608,0.8384,-0.1083,11.410,-11.690,9.660,392,424,254,291,296,2025-05-23T23:42:42.846962
9426,-0.6637,0.8901,-0.1571,8.960,-11.130,11.900,373,398,225,320,313,2025-05-23T23:42:42.846976
9427,-0.6769,0.9096,-0.1996,2.450,-7.140,13.860,395,419,238,316,308,2025-05-23T23:42:42.846986
9428,-0.7081,0.9165,-0.2347,-2.310,-5.530,17.150,348,419,245,322,292,2025-05-23T23:42:42.846996
9429,-0.7300,0.9316,-0.2381,-6.090,-7.000,21.210,398,412,252,321,287,2025-05-23T23:42:42.847005
9430,-0.7193,0.9404,-0.2152,-9.870,-11.340,23.730,414,374,214,322,306,2025-05-23T23:42:42.847014
9431,-0.6983,0.9321,-0.1884,-17.150,-15.330,25.550,379,404,237,312,260,2025-05-23T23:42:42.847023
9432,-0.6959,0.9462,-0.1591,-25.550,-21.280,28.070,418,426,245,332,283,2025-05-23T23:42:42.847036
9433,-0.6725,0.9443,-0.1220,-35.210,-27.440,30.660,419,425,252,330,294,2025-05-23T23:42:42.847076
9434,-0.6144,0.9355,-0.0937,-42.420,-31.360,34.160,425,420,256,337,250,2025-05-23T23:42:42.847085
9435,-0.5793,0.9252,-0.0703,-47.110,-23.310,38.570,399,404,230,327,241,2025-05-23T23:42:43.081551
9436,-0.5880,0.9028,-0.0190,-48.160,-13.230,42.630,397,345,255,332,266,2025-05-23T23:42:43.081607
9437,-0.6134,0.8657,0.0415,-45.430,-12.180,47.530,391,390,251,315,299,2025-05-23T23:42:43.081623
9438,-0.5944,0.8433,0.1010,-40.460,-15.750,49.700,393,390,262,341,300,2025-05-23T23:42:43.081637
9439,-0.5588,0.8379,0.1527,-35.560,-22.750,49.840,396,409,264,334,316,2025-05-23T23:42:43.081666
9440,-0.5031,0.8257,0.1889,-32.130,-28.910,48.510,419,415,263,329,296,2025-05-23T23:42:43.081677
9441,-0.4597,0.8189,0.1947,-28.840,-30.940,47.460,420,408,263,298,304,2025-05-23T23:42:43.081689
9442,-0.4070,0.8272,0.1918,-27.580,-26.390,43.960,378,422,247,316,270,2025-05-23T23:42:43.081699
9443,-0.3870,0.8223,0.1942,-27.160,-16.100,39.620,423,412,215,310,301,2025-05-23T23:42:43.081709
9444,-0.4275,0.8086,0.1767,-23.100,-11.200,38.570,400,405,205,323,304,2025-05-23T23:42:43.081719
9445,-0.4558,0.8052,0.1630,-15.190,-10.150,37.940,419,400,247,273,289,2025-05-23T23:42:43.081732
9446,-0.4631,0.8032,0.1435,-5.390,-14.420,38.710,394,411,206,307,290,2025-05-23T23:42:43.081752
9447,-0.4265,0.8174,0.0000,1.190,-17.640,40.460,422,420,246,296,302,2025-05-23T23:42:43.081762
9448,-0.4041,0.8286,0.0986,1.190,-17.220,37.520,406,354,257,300,304,2025-05-23T23:42:43.081771
9449,-0.4211,0.8203,0.0625,-2.870,-19.530,32.550,407,402,241,299,303,2025-05-23T23:42:43.081811
9450,-0.4412,0.8242,0.0156,-6.440,-27.090,29.680,420,404,252,306,305,2025-05-23T23:42:43.081822
9451,-0.4353,0.8413,-0.0278,-8.750,-30.450,27.580,342,428,241,303,308,2025-05-23T23:42:43.081832
9452,-0.3924,0.8804,-0.0429,-9.800,-26.600,30.170,405,422,251,323,299,2025-05-23T23:42:43.081841
9453,-0.3611,0.8989,-0.0600,-10.290,-15.610,34.580,347,419,251,311,300,2025-05-23T23:42:43.081854
9454,-0.3528,0.9238,-0.0561,-12.040,-2.450,38.290,412,370,249,274,258,2025-05-23T23:42:43.081864
9455,-0.3650,0.9360,-0.0425,-16.380,5.880,38.570,401,419,263,305,299,2025-05-23T23:42:43.264158
9456,-0.3982,0.9218,-0.0239,-21.350,9.170,37.450,403,395,266,318,319,2025-05-23T23:42:43.264204
9457,-0.4314,0.9155,0.0000,-25.060,4.900,34.860,401,415,255,327,309,2025-05-23T23:42:43.264216
9458,-0.3880,0.9213,0.0249,-31.220,-0.980,30.800,403,401,224,344,306,2025-05-23T23:42:43.264227
9459,-0.3518,0.9106,0.0185,-36.260,0.210,25.760,402,420,268,300,296,2025-05-23T23:42:43.264236
9460,-0.3396,0.8960,0.0303,-38.080,3.780,23.030,358,354,258,313,251,2025-05-23T23:42:43.264247
9461,-0.3333,0.8867,0.0673,-35.490,8.610,20.930,388,365,251,270,248,2025-05-23T23:42:43.264257
9462,-0.3294,0.8769,0.1000,-32.130,13.300,19.040,416,390,254,304,306,2025-05-23T23:42:43.264284
9463,-0.3699,0.8662,0.1357,-29.540,15.050,16.940,421,409,255,301,252,2025-05-23T23:42:43.264293
9464,-0.3992,0.8721,0.1801,-28.910,12.180,12.670,359,394,216,326,297,2025-05-23T23:42:43.264302
9465,-0.4041,0.8906,0.1947,-28.280,7.560,7.840,413,413,240,291,289,2025-05-23T23:42:43.264311
9466,-0.3699,0.9414,0.1757,-28.210,6.230,5.180,395,421,236,270,215,2025-05-23T23:42:43.264323
9467,-0.3299,0.9765,0.1454,-30.170,10.710,2.940,409,401,240,309,242,2025-05-23T23:42:43.264335
9468,-0.3309,1.0063,0.0000,-32.200,15.400,1.890,402,398,244,314,211,2025-05-23T23:42:43.264344
9469,-0.3387,1.0204,0.1215,-33.950,18.270,1.470,420,408,242,317,271,2025-05-23T23:42:43.264479
9470,-0.3792,1.0316,0.1366,-36.540,20.300,2.100,399,418,263,323,284,2025-05-23T23:42:43.462449
9471,-0.4534,1.0209,0.1581,-38.640,18.830,2.800,426,430,268,277,298,2025-05-23T23:42:43.462494
9472,-0.4817,1.0175,0.1801,-41.440,13.510,4.760,415,415,261,324,311,2025-05-23T23:42:43.462506
9473,-0.4802,1.0136,0.1923,-45.850,10.080,8.470,414,418,260,335,298,2025-05-23T23:42:43.462517
9474,-0.4577,0.9906,0.1986,-50.400,10.850,13.300,419,419,223,314,283,2025-05-23T23:42:43.462541
9475,-0.4631,0.9633,0.2020,-51.800,10.360,17.570,417,400,252,323,298,2025-05-23T23:42:43.462550
9476,-0.4636,0.9282,0.2186,-51.030,5.950,21.770,400,395,250,329,301,2025-05-23T23:42:43.462560
9477,-0.4138,0.8950,0.2416,-50.750,1.400,23.730,392,377,213,266,259,2025-05-23T23:42:43.462569
9478,-0.3694,0.8594,0.2694,-50.190,-0.910,26.250,419,400,236,271,297,2025-05-23T23:42:43.462581
9479,-0.3484,0.8184,0.3089,-48.160,-5.110,26.530,420,299,208,261,301,2025-05-23T23:42:43.462594
9480,-0.3314,0.7710,0.3411,-43.820,-12.180,25.620,392,345,235,306,258,2025-05-23T23:42:43.462603
9481,-0.2884,0.7623,0.3601,-40.040,-18.480,23.940,418,384,225,306,253,2025-05-23T23:42:43.462615
9482,-0.2401,0.7540,0.3719,-37.030,-20.160,21.070,397,388,238,329,301,2025-05-23T23:42:43.462624
9483,-0.2191,0.7383,0.3567,-32.130,-20.440,18.690,405,417,246,334,288,2025-05-23T23:42:43.462632
9484,-0.1854,0.7447,0.3489,-25.480,-18.060,16.100,402,422,254,324,291,2025-05-23T23:42:43.462674
9485,-0.1713,0.7447,0.3436,-17.640,-14.910,13.440,384,427,208,290,310,2025-05-23T23:42:43.462684
9486,-0.1996,0.7296,0.3333,-8.610,-15.960,10.150,416,363,245,316,259,2025-05-23T23:42:43.462693
9487,-0.2152,0.7535,0.3294,-0.560,-19.600,6.650,405,410,262,273,304,2025-05-23T23:42:43.716195
9488,-0.2211,0.7828,0.3260,3.430,-20.230,2.240,378,422,236,279,303,2025-05-23T23:42:43.716247
9489,-0.2547,0.7959,0.3079,6.230,-21.630,-0.700,411,422,222,312,313,2025-05-23T23:42:43.716262
9490,-0.2733,0.8301,0.3074,8.890,-23.170,-2.520,409,409,244,326,316,2025-05-23T23:42:43.716299
9491,-0.2972,0.8433,0.2982,9.800,-25.130,-4.830,414,427,254,279,300,2025-05-23T23:42:43.716311
9492,-0.2943,0.8672,0.2894,8.890,-24.850,-6.370,425,407,256,334,313,2025-05-23T23:42:43.716321
9493,-0.2996,0.8955,0.2943,6.370,-20.860,-5.740,399,397,249,327,309,2025-05-23T23:42:43.716331
9494,-0.3148,0.9184,0.3089,3.640,-16.030,-4.130,418,414,257,327,300,2025-05-23T23:42:43.716342
9495,-0.3396,0.9438,0.3148,2.730,-8.400,-2.170,307,421,244,287,287,2025-05-23T23:42:43.716367
9496,-0.3723,0.9662,0.3133,3.430,-1.190,0.000,373,399,209,312,295,2025-05-23T23:42:43.716377
9497,-0.3953,1.0009,0.3133,3.710,3.150,1.540,386,415,234,274,259,2025-05-23T23:42:43.716392
9498,-0.4085,1.0121,0.3235,3.990,1.470,3.150,380,385,246,303,294,2025-05-23T23:42:43.716405
9499,-0.4089,1.0077,0.3240,4.760,-3.220,4.130,417,408,212,306,289,2025-05-23T23:42:43.716415
9500,-0.3816,0.9941,0.3250,5.390,-8.400,4.620,431,404,236,276,290,2025-05-23T23:42:43.716424
9501,-0.3304,0.9736,0.3250,4.550,-10.430,4.760,406,417,237,261,296,2025-05-23T23:42:43.716433
9502,-0.2860,0.9492,0.3138,2.730,-8.750,3.990,418,434,255,310,310,2025-05-23T23:42:43.716480
9503,-0.2484,0.9501,0.2996,1.190,-6.300,3.080,399,415,241,317,307,2025-05-23T23:42:43.716491
9504,-0.2176,0.9545,0.2747,1.470,-4.760,2.170,395,401,252,337,312,2025-05-23T23:42:43.890443
9505,-0.1932,0.9819,0.2625,1.540,-2.450,0.910,381,414,269,248,316,2025-05-23T23:42:43.890489
9506,-0.1552,0.9999,0.2430,-1.890,1.330,-0.770,403,416,268,327,307,2025-05-23T23:42:43.890502
9507,-0.1493,0.9970,0.2186,-5.600,3.780,-3.290,424,433,262,339,303,2025-05-23T23:42:43.890512
9508,-0.1523,0.9945,0.1996,-6.580,4.480,-4.970,409,407,258,335,299,2025-05-23T23:42:43.890522
9509,-0.1503,1.0024,0.1732,-7.630,6.090,-7.420,420,358,262,326,318,2025-05-23T23:42:43.890547
9510,-0.1527,0.9970,0.1523,-7.210,9.730,-8.400,395,393,259,340,321,2025-05-23T23:42:43.890557
9511,-0.1688,0.9941,0.1371,-6.440,14.000,-8.540,341,386,197,323,315,2025-05-23T23:42:43.890566
9512,-0.1820,1.0111,0.1440,-8.190,21.070,-8.540,397,408,253,333,315,2025-05-23T23:42:43.890576
9513,-0.2347,0.9892,0.1371,-9.800,25.900,-9.940,389,389,218,327,310,2025-05-23T23:42:43.890586
9514,-0.2772,0.9589,0.1313,-7.560,25.760,-10.080,389,427,210,235,292,2025-05-23T23:42:43.890594
9515,-0.3084,0.9462,0.1308,-3.500,23.170,-9.520,366,427,235,305,299,2025-05-23T23:42:43.890603
9516,-0.3440,0.9311,0.1137,-0.980,19.530,-8.960,392,416,213,310,294,2025-05-23T23:42:43.890612
9517,-0.3631,0.9126,0.0888,0.560,16.030,-6.160,400,413,247,312,286,2025-05-23T23:42:43.913157
9518,-0.3914,0.9140,0.0737,0.700,12.880,-1.820,406,408,256,311,289,2025-05-23T23:42:43.925808
9519,-0.4085,0.9135,0.0429,-0.070,11.060,1.750,391,426,255,320,261,2025-05-23T23:42:43.936695
9520,-0.4329,0.9135,0.0059,0.350,7.350,3.990,402,360,242,328,261,2025-05-23T23:42:43.949513
9521,-0.4294,0.9106,-0.0166,0.490,3.220,6.440,422,401,215,308,311,2025-05-23T23:42:43.962077
9522,-0.4470,0.8930,-0.0415,0.490,-1.960,7.840,396,421,217,308,270,2025-05-23T23:42:43.975186
9523,-0.4436,0.8838,-0.0449,1.680,-9.170,7.630,342,425,250,335,299,2025-05-23T23:42:43.987219
9524,-0.4319,0.8696,-0.0498,2.730,-14.070,7.560,389,427,255,334,310,2025-05-23T23:42:43.995534
9525,-0.4114,0.8847,-0.0439,4.480,-17.220,8.540,399,428,254,327,261,2025-05-23T23:42:44.002659
9526,-0.3636,0.9033,-0.0205,5.110,-16.030,8.820,392,421,261,318,303,2025-05-23T23:42:44.076067
9527,-0.3323,0.9248,0.0093,6.370,-14.560,9.170,400,309,262,334,314,2025-05-23T23:42:44.087130
9528,-0.2952,0.9355,0.0483,7.560,-14.210,6.790,373,378,255,316,308,2025-05-23T23:42:44.099669
9529,-0.2860,0.9228,0.0678,9.660,-17.850,3.150,425,390,265,318,316,2025-05-23T23:42:44.112298
9530,-0.2762,0.9262,0.1054,12.180,-25.620,-0.350,368,423,258,299,294,2025-05-23T23:42:44.125916
9531,-0.2547,0.9267,0.1352,12.880,-31.360,-5.670,360,383,253,323,255,2025-05-23T23:42:44.139676
9532,-0.1962,0.9394,0.1908,11.270,-35.770,-9.310,410,391,249,311,300,2025-05-23T23:42:44.149624
9533,-0.1127,0.9614,0.3070,4.900,-33.040,-17.010,401,399,215,328,292,2025-05-23T23:42:44.157641
9534,-0.1000,0.9755,0.3753,0.700,-29.470,-25.760,425,348,241,320,290,2025-05-23T23:42:44.167094
9535,-0.1854,0.9740,0.4817,4.690,-35.420,-35.070,415,401,238,332,305,2025-05-23T23:42:44.173338
9536,-0.2474,1.0204,0.6124,14.490,-68.040,-44.730,416,401,251,324,292,2025-05-23T23:42:44.182791
9537,-0.1308,1.1073,0.6564,25.200,-71.190,-54.810,420,404,240,312,254,2025-05-23T23:42:44.191105
9538,-0.1537,1.2786,0.6920,35.770,-87.780,-61.880,400,410,221,332,220,2025-05-23T23:42:44.198528
9539,-0.0708,1.5133,0.9091,32.760,-102.900,-76.370,368,413,262,345,292,2025-05-23T23:42:44.207016
9540,-0.0190,1.8193,1.1117,9.030,-131.880,-103.670,358,425,246,325,307,2025-05-23T23:42:44.214387
9541,-0.0869,2.1033,1.5362,-22.610,-196.840,-139.510,383,427,257,326,311,2025-05-23T23:42:44.221675
9542,-0.0961,2.5200,2.0218,-51.450,-318.220,-177.870,400,432,238,334,302,2025-05-23T23:42:44.229856
9543,0.3787,3.0383,2.2658,-90.790,-453.180,-228.550,374,419,259,331,260,2025-05-23T23:42:44.237853
9544,1.1200,3.2584,2.0218,-114.940,-537.600,-275.660,392,418,249,271,304,2025-05-23T23:42:44.245686
9545,1.6973,3.1647,1.4396,-95.480,-605.080,-303.730,345,343,244,327,318,2025-05-23T23:42:44.255894
9546,2.3551,2.9851,0.9126,-38.780,-631.400,-312.480,402,356,195,313,298,2025-05-23T23:42:44.280229
9547,2.8236,2.6869,0.4763,15.890,-650.440,-314.930,373,391,221,320,314,2025-05-23T23:42:44.286739
9548,2.7552,2.2072,0.1444,31.080,-692.230,-344.050,366,422,263,336,304,2025-05-23T23:42:44.292270
9549,2.3727,1.6948,-0.0815,-26.110,-795.760,-393.540,415,423,261,322,310,2025-05-23T23:42:44.300226
9550,2.6006,0.9897,-0.6193,-175.700,-881.020,-426.930,419,403,259,322,315,2025-05-23T23:42:44.327627
9551,0.0000,-0.0005,0.0000,0.000,0.000,0.000,388,412,273,337,303,2025-05-23T23:42:44.343678
9552,2.8558,-1.6407,-0.6437,-456.190,-637.000,-520.100,412,427,255,325,298,2025-05-23T23:42:44.351609
9553,1.6353,-3.4999,0.0400,-429.170,-489.370,-554.470,433,393,250,327,251,2025-05-23T23:42:44.362389
9554,0.2850,-5.0996,1.0048,-486.990,-489.720,-612.640,402,423,236,321,296,2025-05-23T23:42:44.368359
9555,-0.2425,-6.8047,1.9100,-587.230,-452.830,-664.160,411,416,218,240,297,2025-05-23T23:42:44.516758
9556,-0.4128,-7.4859,2.6557,-607.670,-285.390,-645.260,419,426,219,316,281,2025-05-23T23:42:44.530090
9557,-1.3152,-6.4553,2.4990,-443.310,35.770,-547.470,410,420,269,336,349,2025-05-23T23:42:44.544273
9558,-3.7327,-4.2329,2.1892,-179.830,282.730,-342.510,405,421,301,361,370,2025-05-23T23:42:44.559289
9559,-4.1909,-2.8670,1.0658,16.240,259.560,58.240,421,353,303,359,321,2025-05-23T23:42:44.572281
9560,0.0000,0.0000,0.0000,0.000,0.000,0.000,395,398,272,362,359,2025-05-23T23:42:44.582918
9561,0.0000,0.0000,0.0000,0.000,0.000,0.000,410,429,274,337,336,2025-05-23T23:42:44.589764
9562,0.0000,0.0000,0.0000,0.000,0.000,0.000,389,416,265,316,330,2025-05-23T23:42:44.596169
9563,0.0000,0.0000,0.0000,0.000,0.000,0.000,393,413,225,329,327,2025-05-23T23:42:44.603420
9564,0.0000,0.0000,0.0000,0.000,0.000,0.000,407,399,226,336,323,2025-05-23T23:42:44.614096
9565,0.0000,0.0000,0.0000,0.000,0.000,0.000,389,399,253,350,324,2025-05-23T23:42:44.620633
9566,0.0000,0.0000,0.0000,0.000,0.000,0.000,381,335,224,290,290,2025-05-23T23:42:44.627737
9567,1.3469,-1.3864,0.3645,244.930,173.180,337.190,407,378,251,319,267,2025-05-23T23:42:44.636098
9568,0.8813,-0.7496,0.5754,274.960,280.350,306.180,399,387,257,316,295,2025-05-23T23:42:44.642475
9569,0.4880,-0.3787,0.8520,207.690,371.490,294.560,424,392,253,329,314,2025-05-23T23:42:44.650543
9570,0.2435,0.0000,0.0000,0.000,0.000,0.000,426,407,263,282,311,2025-05-23T23:42:44.657592
9571,0.0000,0.0000,0.0000,0.000,0.000,0.000,346,397,253,341,308,2025-05-23T23:42:44.667291
9572,0.1122,-0.1147,0.9692,84.070,465.080,302.330,386,422,250,247,315,2025-05-23T23:42:44.676085
9573,0.1181,0.0063,0.8579,65.240,486.150,304.150,382,428,230,311,327,2025-05-23T23:42:44.701030
9574,0.0927,0.3196,0.5841,79.590,524.720,274.960,408,379,298,357,340,2025-05-23T23:42:44.712565
9575,0.1518,0.6007,0.2508,94.570,559.090,260.330,391,407,294,368,354,2025-05-23T23:42:44.726937
9576,0.0864,0.8638,-0.1044,96.600,579.110,266.630,356,427,296,309,309,2025-05-23T23:42:44.738817
9577,-0.1513,0.9145,-0.0590,84.350,570.500,268.660,390,430,309,328,338,2025-05-23T23:42:44.747626
9578,-0.4333,1.1366,0.1796,58.380,512.190,261.380,407,415,267,335,320,2025-05-23T23:42:44.758034
9579,-0.6983,1.2644,0.3660,12.460,428.750,245.070,401,421,210,313,308,2025-05-23T23:42:44.768422
9580,-0.7344,1.3444,0.4163,-15.960,304.570,229.880,376,383,232,329,310,2025-05-23T23:42:44.776950
9581,-0.4953,1.4547,0.3987,-33.880,203.420,224.140,371,419,237,309,295,2025-05-23T23:42:44.787835
9582,-0.1635,1.4928,0.3289,-36.680,158.270,221.480,399,406,239,319,301,2025-05-23T23:42:44.794861
9583,0.2211,1.5733,0.2811,-22.190,157.290,225.960,388,426,247,319,313,2025-05-23T23:42:44.803409
9584,0.4319,1.6621,0.3094,-11.900,196.420,210.490,423,418,237,324,299,2025-05-23T23:42:44.815015
9585,0.2381,1.7358,0.5192,-13.300,227.920,170.940,407,343,246,340,318,2025-05-23T23:42:44.823420
9586,-0.0810,1.7983,0.8838,-30.170,210.560,130.480,395,403,242,335,318,2025-05-23T23:42:44.834663
9587,-0.1786,1.7758,1.1668,-57.890,145.040,92.680,408,421,211,330,313,2025-05-23T23:42:44.847990
9588,0.0659,1.6738,1.3117,-95.690,82.600,96.040,390,411,243,329,260,2025-05-23T23:42:44.856506
9589,0.5124,1.5582,1.3849,-127.610,71.190,77.560,394,404,248,320,292,2025-05-23T23:42:44.864654
9590,0.7623,1.3347,1.4318,-118.860,110.600,56.700,353,389,247,276,239,2025-05-23T23:42:44.873435
9591,0.5290,1.0653,1.5260,-86.170,140.280,32.690,384,421,256,313,325,2025-05-23T23:42:44.882591
9592,0.1332,0.8989,1.4455,-21.910,126.210,9.380,412,409,245,294,332,2025-05-23T23:42:44.891249
9593,-0.1152,0.8716,1.1829,42.980,97.510,-9.030,408,402,250,320,352,2025-05-23T23:42:44.899740
9594,-0.0888,0.9604,0.7969,72.380,72.170,-16.940,396,404,231,321,335,2025-05-23T23:42:44.907564
9595,0.0244,1.0438,0.4973,68.810,76.370,-20.440,412,420,256,284,354,2025-05-23T23:42:44.915395
9596,0.0195,1.0985,0.3143,43.120,91.420,-22.750,431,423,245,304,325,2025-05-23T23:42:44.925381
9597,-0.2582,1.0146,0.2089,18.830,85.750,-30.310,399,424,256,336,329,2025-05-23T23:42:44.936352
9598,-0.5236,0.9331,0.1196,9.240,43.610,-36.540,339,427,264,341,326,2025-05-23T23:42:44.947947
9599,-0.5812,0.8989,0.0512,8.050,-14.210,-33.530,397,407,218,348,276,2025-05-23T23:42:44.956072
9600,-0.5144,0.8794,0.0088,9.730,-30.590,-29.680,340,398,253,331,319,2025-05-23T23:42:44.963609
9601,-0.4133,0.8725,-0.0049,11.970,-33.670,-21.980,395,393,258,288,325,2025-05-23T23:42:44.971094
9602,-0.3684,0.9062,0.0317,14.980,-21.560,-15.540,407,404,232,339,323,2025-05-23T23:42:44.979559
9603,-0.3884,0.9091,0.0610,13.160,-4.760,-9.310,379,419,262,341,274,2025-05-23T23:42:44.987269
9604,-0.3928,0.9467,0.0859,8.470,10.570,-3.780,396,428,258,340,285,2025-05-23T23:42:44.993481
9605,-0.4046,0.9516,0.1098,2.520,20.510,1.960,405,416,254,345,326,2025-05-23T23:42:45.002580
9606,-0.4372,0.9213,0.1322,-0.630,23.660,4.760,372,305,248,344,327,2025-05-23T23:42:45.010524
9607,-0.4329,0.9267,0.1801,2.590,19.670,7.210,404,330,262,329,323,2025-05-23T23:42:45.101573
9608,-0.4065,0.9174,0.2133,7.910,9.520,9.380,386,381,250,335,322,2025-05-23T23:42:45.113065
9609,-0.3475,0.9130,0.2333,12.880,-0.140,9.800,371,391,246,329,244,2025-05-23T23:42:45.124284
9610,-0.2845,0.9140,0.2528,16.800,-7.560,9.660,406,422,231,316,297,2025-05-23T23:42:45.139158
9611,-0.2591,0.8945,0.2547,20.300,-14.000,7.630,376,428,251,343,311,2025-05-23T23:42:45.152645
9612,-0.2401,0.8872,0.2352,26.600,-17.150,6.860,409,396,247,345,320,2025-05-23T23:42:45.164243
9613,-0.2196,0.8891,0.2338,28.910,-14.840,5.110,394,414,260,297,321,2025-05-23T23:42:45.172649
9614,-0.2352,0.8711,0.2225,29.260,-11.970,0.210,400,432,240,334,289,2025-05-23T23:42:45.181506
9615,-0.2528,0.8672,0.2191,30.310,-12.530,-3.290,417,346,236,334,304,2025-05-23T23:42:45.188521
9616,-0.2660,0.8701,0.2001,28.910,-11.200,-7.280,367,389,246,317,260,2025-05-23T23:42:45.196434
9617,-0.2728,0.8618,0.1762,26.950,-9.730,-13.230,336,396,237,305,288,2025-05-23T23:42:45.203658
9618,-0.2850,0.8613,0.1527,26.740,-11.270,-18.690,335,394,205,323,307,2025-05-23T23:42:45.211594
9619,-0.2884,0.8721,0.1405,26.950,-11.900,-21.350,367,391,223,310,299,2025-05-23T23:42:45.219278
9620,-0.3128,0.8594,0.1181,27.650,-11.620,-23.660,364,344,245,322,276,2025-05-23T23:42:45.226315
9621,-0.3494,0.8364,0.0981,31.010,-14.490,-26.040,409,392,248,334,295,2025-05-23T23:42:45.232869
9622,-0.3636,0.8472,0.0971,34.370,-18.340,-25.550,426,406,244,277,301,2025-05-23T23:42:45.239690
9623,-0.3743,0.8555,0.1078,35.420,-20.370,-25.550,398,433,230,281,303,2025-05-23T23:42:45.247432
9624,-0.3499,0.8608,0.1196,35.210,-20.720,-27.510,421,397,244,283,297,2025-05-23T23:42:45.329733
9625,-0.3187,0.8667,0.1420,32.690,-18.060,-29.890,418,346,259,287,299,2025-05-23T23:42:45.343640
9626,-0.3367,0.8491,0.1474,30.800,-13.370,-33.460,412,387,244,318,268,2025-05-23T23:42:45.359045
9627,-0.3436,0.8486,0.1581,34.930,-10.990,-36.540,424,401,263,331,312,2025-05-23T23:42:45.373111
9628,-0.3465,0.8379,0.1645,40.880,-10.430,-38.430,405,422,225,326,322,2025-05-23T23:42:45.386149
9629,-0.3548,0.8140,0.1649,47.600,-12.600,-42.070,399,420,220,322,324,2025-05-23T23:42:45.397435
9630,-0.3372,0.8037,0.1601,53.200,-17.010,-47.320,363,391,246,315,262,2025-05-23T23:42:45.406545
9631,-0.3104,0.8032,0.1552,57.540,-20.300,-53.480,387,423,231,271,285,2025-05-23T23:42:45.415587
9632,-0.2918,0.7867,0.1440,58.520,-24.500,-59.290,400,404,216,327,307,2025-05-23T23:42:45.425520
9633,-0.2645,0.7784,0.1210,56.140,-26.600,-68.670,386,402,234,323,286,2025-05-23T23:42:45.434560
9634,-0.2450,0.7720,0.1118,51.940,-24.780,-78.470,390,427,236,311,304,2025-05-23T23:42:45.443028
9635,-0.2664,0.7574,0.1039,48.790,-20.860,-88.480,399,403,233,310,269,2025-05-23T23:42:45.453109
9636,-0.3250,0.7193,0.0859,50.680,-21.280,-93.100,402,395,229,324,292,2025-05-23T23:42:45.461066
9637,-0.3884,0.6920,0.0776,57.820,-25.620,-96.880,396,425,242,319,303,2025-05-23T23:42:45.469514
9638,-0.4392,0.6808,0.0669,67.060,-32.130,-103.740,406,405,249,323,296,2025-05-23T23:42:45.476822
9639,-0.4738,0.6778,0.0586,73.710,-44.100,-110.810,343,422,254,329,300,2025-05-23T23:42:45.484148
9640,-0.5017,0.6881,0.0444,76.790,-61.740,-119.280,382,421,230,323,292,2025-05-23T23:42:45.493587
9641,-0.5348,0.6925,0.0307,76.300,-86.170,-128.730,394,403,248,342,302,2025-05-23T23:42:45.504274
9642,-0.5470,0.6803,0.0034,73.290,-108.990,-141.680,420,303,250,321,298,2025-05-23T23:42:45.513925
9643,-0.5456,0.6769,-0.0102,70.490,-129.920,-154.910,412,347,252,283,300,2025-05-23T23:42:45.524244
9644,-0.5763,0.6510,0.0029,64.540,-150.360,-164.990,407,329,251,270,299,2025-05-23T23:42:45.532863
9645,-0.6505,0.5924,-0.0015,60.410,-172.760,-173.110,427,326,221,271,298,2025-05-23T23:42:45.543490
9646,0.0000,0.0000,0.0000,0.000,0.000,0.000,379,373,267,293,317,2025-05-23T23:42:45.552054
9647,0.0000,0.0000,0.0000,0.000,0.000,0.000,332,353,269,344,323,2025-05-23T23:42:45.563814
9648,0.0000,0.0000,0.0000,0.000,0.000,-182.420,375,412,271,334,287,2025-05-23T23:42:45.573782
9649,-0.7447,0.5290,0.0771,49.420,-264.670,-186.760,388,434,266,331,304,2025-05-23T23:42:45.584109
9650,-0.7422,0.5134,0.0786,37.520,-290.780,-195.650,294,435,252,341,316,2025-05-23T23:42:45.592850
9651,-0.6710,0.5139,0.0883,23.800,-309.540,-204.820,373,413,254,290,269,2025-05-23T23:42:45.602571
9652,0.0000,0.0000,0.0000,0.000,0.000,0.000,401,428,247,332,326,2025-05-23T23:42:45.615012
9653,0.0000,0.0000,0.0000,0.000,0.000,0.000,407,419,269,347,273,2025-05-23T23:42:45.625352
9654,0.0000,0.0000,0.0000,0.000,0.000,0.000,401,393,269,327,311,2025-05-23T23:42:45.631718
9655,0.0000,0.0000,0.0000,0.000,0.000,0.000,421,339,253,335,308,2025-05-23T23:42:45.639080
9656,0.0000,0.0000,0.0000,0.000,0.000,0.000,346,385,259,332,328,2025-05-23T23:42:45.646481
9657,0.0000,0.0000,0.0000,0.000,0.000,0.000,409,338,270,300,335,2025-05-23T23:42:45.699593
9658,0.0000,0.0000,0.0000,0.000,0.000,0.000,416,340,278,340,338,2025-05-23T23:42:45.712637
9659,0.0000,0.0000,0.0000,0.000,0.000,0.000,422,405,257,340,342,2025-05-23T23:42:45.726561
9660,0.0000,0.0000,0.0000,0.000,0.000,0.000,403,341,260,292,246,2025-05-23T23:42:45.739543
9661,-0.9814,0.1815,0.4543,-57.260,-108.850,-164.220,422,383,266,338,310,2025-05-23T23:42:45.754455
9662,-0.8633,0.1752,0.4641,-65.310,-127.750,-156.380,403,393,264,342,326,2025-05-23T23:42:45.761794
9663,-0.6939,0.1581,0.4563,-65.870,-128.800,-140.490,365,417,254,317,302,2025-05-23T23:42:45.771896
9664,-0.6656,0.0937,0.4529,-60.620,-107.380,-128.800,364,425,238,286,305,2025-05-23T23:42:45.781668
9665,-0.7296,0.0215,0.4939,-49.140,-82.250,-130.970,406,431,239,307,320,2025-05-23T23:42:45.790783
9666,0.0000,0.0000,0.0000,0.000,0.000,0.000,421,427,214,338,276,2025-05-23T23:42:45.801754
9667,0.0000,0.0000,0.0000,0.000,0.000,0.000,364,348,241,320,303,2025-05-23T23:42:45.810737
9668,0.0000,0.0000,0.0000,0.000,0.000,0.000,291,402,263,333,314,2025-05-23T23:42:45.822757
9669,0.0000,0.0000,0.0000,0.000,0.000,0.000,375,415,248,322,304,2025-05-23T23:42:45.833006
9670,0.0000,0.0000,0.0000,0.000,0.000,0.000,359,423,255,319,322,2025-05-23T23:42:45.842331
9671,0.0000,0.0000,0.0000,0.000,0.000,0.000,406,411,260,326,331,2025-05-23T23:42:45.850966
9672,0.0000,0.0000,0.0000,0.000,0.000,0.000,423,393,256,283,318,2025-05-23T23:42:45.857675
9673,0.0000,0.0000,0.0000,0.000,0.000,0.000,398,343,239,318,275,2025-05-23T23:42:45.865627
9674,0.0000,0.0000,0.0000,0.000,0.000,0.000,406,387,216,304,318,2025-05-23T23:42:45.877580
9675,0.0000,0.0000,0.0000,0.000,0.000,0.000,427,411,243,329,307,2025-05-23T23:42:45.884075
9676,0.0000,0.0000,0.0000,0.000,0.000,0.000,400,427,238,284,270,2025-05-23T23:42:45.890410
9677,0.0000,0.0000,0.0000,0.000,0.000,0.000,426,399,244,328,273,2025-05-23T23:42:45.895982
9678,0.0000,0.0000,0.0000,0.000,0.000,0.000,420,373,218,330,267,2025-05-23T23:42:45.903094
9679,0.0000,0.0000,0.0000,0.000,0.000,0.000,405,403,248,287,308,2025-05-23T23:42:45.912932
9680,0.0000,0.0000,0.0000,0.000,0.000,0.000,379,423,265,293,312,2025-05-23T23:42:45.920584
9681,0.0000,0.0000,0.0000,0.000,0.000,0.000,362,430,233,318,241,2025-05-23T23:42:45.927766
9682,0.0000,0.0000,0.0000,0.000,0.000,0.000,416,382,271,286,301,2025-05-23T23:42:45.935657
9683,0.0000,0.0000,0.0000,0.000,0.000,0.000,416,418,267,322,325,2025-05-23T23:42:45.945597
9684,0.0000,0.0000,0.0000,0.000,0.000,0.000,418,407,265,338,324,2025-05-23T23:42:45.954895
9685,0.0000,0.0000,0.0000,0.000,0.000,0.000,355,403,228,353,330,2025-05-23T23:42:45.962258
9686,0.0000,0.0000,0.0000,0.000,0.000,0.000,398,403,270,351,335,2025-05-23T23:42:45.973514
9687,0.0000,0.0000,0.0000,0.000,0.000,0.000,399,415,273,348,286,2025-05-23T23:42:45.981797
9688,0.0000,0.0000,0.0000,0.000,0.000,0.000,394,397,278,352,288,2025-05-23T23:42:45.990054
9689,0.0000,0.0000,0.0000,0.000,0.000,0.000,349,392,280,331,312,2025-05-23T23:42:45.998094
9690,0.0000,0.0000,0.0000,0.000,0.000,0.000,377,398,235,347,327,2025-05-23T23:42:46.005604
9691,0.0000,0.0000,0.0000,0.000,0.000,0.000,397,390,276,334,328,2025-05-23T23:42:46.013264
9692,0.0000,0.0000,0.0000,0.000,0.000,0.000,347,397,259,307,307,2025-05-23T23:42:46.023151
9693,0.0000,0.0000,0.0000,0.000,0.000,0.000,406,417,296,331,329,2025-05-23T23:42:46.032508
9694,0.0000,0.0000,0.0000,0.000,0.000,0.000,396,425,324,329,321,2025-05-23T23:42:46.039573
9695,0.0000,0.0000,0.0000,0.000,0.000,0.000,422,404,358,337,313,2025-05-23T23:42:46.046591
9696,0.0000,0.0000,0.0000,0.000,0.000,0.000,406,420,375,322,249,2025-05-23T23:42:46.055694
9697,0.0000,0.0000,0.0000,0.000,0.000,0.000,413,427,381,340,331,2025-05-23T23:42:46.066519
9698,0.0000,0.0000,0.0000,0.000,0.000,0.000,390,399,380,338,347,2025-05-23T23:42:46.075286
9699,0.0000,0.0000,0.0000,0.000,0.000,0.000,382,415,375,337,323,2025-05-23T23:42:46.083867
9700,0.0000,0.0000,0.0000,0.000,0.000,0.000,412,421,372,304,295,2025-05-23T23:42:46.091773
9701,0.0000,0.0000,0.0000,0.000,0.000,0.000,346,416,306,349,348,2025-05-23T23:42:46.100039
9702,0.0000,0.0000,0.0000,0.000,0.000,0.000,360,365,332,298,344,2025-05-23T23:42:46.109296
9703,0.0000,0.0000,0.0000,0.000,0.000,0.000,374,420,329,334,367,2025-05-23T23:42:46.121665
9704,0.0000,0.0000,0.0000,0.000,0.000,0.000,409,404,354,346,315,2025-05-23T23:42:46.137035
9705,0.0000,0.0000,0.0000,0.000,0.000,0.000,396,378,374,345,348,2025-05-23T23:42:46.144209
9706,0.0000,0.0000,0.0000,0.000,0.000,0.000,420,295,370,353,363,2025-05-23T23:42:46.154394
9707,0.0000,0.0000,0.0000,0.000,0.000,0.000,419,391,374,351,311,2025-05-23T23:42:46.163287
9708,0.0000,0.0000,0.0000,0.000,0.000,0.000,419,394,377,350,340,2025-05-23T23:42:46.171910
9709,0.0000,0.0000,0.0000,0.000,0.000,0.000,432,376,379,348,321,2025-05-23T23:42:46.181143
9710,0.0000,0.0000,0.0000,0.000,0.000,0.000,413,404,377,358,360,2025-05-23T23:42:46.189729
9711,0.0000,0.0000,0.0000,0.000,0.000,0.000,426,437,378,367,361,2025-05-23T23:42:46.199131
9712,0.0000,0.0000,0.0000,0.000,0.000,0.000,395,429,372,371,345,2025-05-23T23:42:46.232287
9713,0.0000,0.0000,0.0000,0.000,0.000,0.000,395,414,369,350,352,2025-05-23T23:42:46.249591
9714,0.0000,0.0000,0.0000,0.000,0.000,0.000,406,413,381,346,357,2025-05-23T23:42:46.257645
9715,0.0000,0.0000,0.0000,0.000,0.000,0.000,407,419,377,364,348,2025-05-23T23:42:46.265889
9716,0.0000,0.0000,0.0000,0.000,0.000,0.000,397,432,394,328,327,2025-05-23T23:42:46.271834
9717,0.0000,0.0000,0.0000,0.000,0.000,0.000,383,419,376,326,308,2025-05-23T23:42:46.278572
9718,-0.6437,-0.3772,0.7579,16.450,-6.510,-8.260,340,415,384,358,295,2025-05-23T23:42:46.284968
9719,-0.6398,-0.3528,0.7657,23.170,-5.390,-1.190,399,404,377,371,285,2025-05-23T23:42:46.292693
9720,-0.6222,-0.3392,0.7774,29.960,-3.290,7.630,415,418,393,361,316,2025-05-23T23:42:46.302074
9721,-0.6510,-0.3294,0.7930,30.870,-7.910,9.660,413,429,382,384,341,2025-05-23T23:42:46.310323
9722,-0.6515,-0.3060,0.8018,29.120,-11.130,10.710,428,415,395,326,360,2025-05-23T23:42:46.317326
9723,-0.6544,-0.2855,0.8072,23.520,-16.870,13.440,384,419,385,354,365,2025-05-23T23:42:46.328038
9724,-0.6354,-0.2816,0.8145,20.020,-20.440,14.350,336,434,378,364,364,2025-05-23T23:42:46.336940
9725,-0.5973,-0.2845,0.8242,12.810,-21.070,13.510,384,429,381,316,331,2025-05-23T23:42:46.345140
9726,-0.5568,-0.2967,0.8306,10.500,-19.810,14.630,335,430,348,362,370,2025-05-23T23:42:46.357578
9727,-0.5505,-0.3333,0.8311,10.430,-18.200,16.170,409,419,360,374,378,2025-05-23T23:42:46.368167
9728,-0.5558,-0.3294,0.8535,15.050,-15.470,15.820,392,423,376,353,369,2025-05-23T23:42:46.377257
9729,-0.6110,-0.3294,0.8882,18.270,-19.390,13.230,338,395,386,384,371,2025-05-23T23:42:46.388213
9730,-0.6500,-0.3274,0.9008,14.560,-27.930,12.180,392,431,386,380,335,2025-05-23T23:42:46.398579
9731,-0.6466,-0.3343,0.8852,6.090,-34.510,13.930,409,425,385,381,353,2025-05-23T23:42:46.412357
9732,-0.6012,-0.3504,0.8579,-2.450,-33.320,17.850,400,406,376,376,363,2025-05-23T23:42:46.430705
9733,-0.5627,-0.3709,0.8311,-4.830,-29.050,21.630,408,434,391,382,349,2025-05-23T23:42:46.445593
9734,-0.5470,-0.3767,0.8062,-3.640,-24.710,22.120,420,383,380,372,365,2025-05-23T23:42:46.461684
9735,-0.5285,-0.3577,0.7798,-1.260,-20.230,20.160,420,351,369,369,361,2025-05-23T23:42:46.470515
9736,-0.5139,-0.3299,0.7740,-3.220,-16.450,17.850,399,411,368,380,346,2025-05-23T23:42:46.482298
9737,-0.5222,-0.3221,0.7779,-9.940,-15.260,15.750,429,425,368,341,349,2025-05-23T23:42:46.490563
9738,-0.5436,-0.3265,0.7813,-16.450,-17.010,16.100,411,429,383,364,359,2025-05-23T23:42:46.501303
9739,-0.5636,-0.3484,0.7588,-16.590,-21.980,17.850,388,400,357,380,361,2025-05-23T23:42:46.509097
9740,-0.5622,-0.3382,0.7671,-12.670,-26.530,19.810,404,400,364,395,369,2025-05-23T23:42:46.518534
9741,-0.5319,-0.3211,0.7632,-10.990,-27.510,20.930,392,392,374,407,366,2025-05-23T23:42:46.532266
9742,-0.4997,-0.3016,0.7676,-12.950,-27.440,21.210,373,410,391,394,381,2025-05-23T23:42:46.543981
9743,-0.4787,-0.2957,0.7706,-17.990,-24.010,20.580,413,424,391,383,382,2025-05-23T23:42:46.552702
9744,-0.4909,-0.2991,0.7627,-22.470,-21.000,19.530,400,426,393,398,372,2025-05-23T23:42:46.563369
9745,-0.5236,-0.3192,0.7623,-23.170,-22.050,16.520,414,416,396,363,355,2025-05-23T23:42:46.575244
9746,-0.5314,-0.3333,0.7691,-23.450,-22.470,12.880,404,428,359,380,364,2025-05-23T23:42:46.587350
9747,-0.5202,-0.3528,0.7779,-24.220,-19.110,11.200,394,414,366,381,361,2025-05-23T23:42:46.595155
9748,-0.5207,-0.3816,0.7886,-24.990,-13.580,10.080,412,412,380,367,359,2025-05-23T23:42:46.606760
9749,-0.5226,-0.3967,0.7925,-21.280,-5.600,9.730,422,419,385,359,334,2025-05-23T23:42:46.618559
9750,-0.5129,-0.3997,0.7906,-15.540,3.430,11.480,415,426,388,357,332,2025-05-23T23:42:46.632150
9751,-0.5519,-0.3977,0.7974,-9.940,10.920,13.510,359,418,346,375,341,2025-05-23T23:42:46.646096
9752,-0.5695,-0.3758,0.8067,-6.930,13.790,15.330,377,428,361,386,359,2025-05-23T23:42:46.657322
9753,-0.5524,-0.3523,0.8023,-6.930,14.490,19.110,407,423,361,361,333,2025-05-23T23:42:46.670125
9754,-0.5524,-0.3533,0.7881,-7.910,16.030,22.540,414,427,363,363,355,2025-05-23T23:42:46.766269
9755,-0.5754,-0.3601,0.7832,-7.070,16.520,23.240,424,424,376,398,373,2025-05-23T23:42:46.779623
9756,-0.5797,-0.3650,0.7803,-2.590,13.790,21.700,423,395,341,385,367,2025-05-23T23:42:46.796008
9757,-0.5685,-0.3694,0.7886,1.330,13.230,19.950,392,395,357,387,372,2025-05-23T23:42:46.815606
9758,-0.5568,-0.3640,0.7852,2.730,15.400,18.620,390,434,378,339,369,2025-05-23T23:42:46.836483
9759,-0.5612,-0.3636,0.7847,2.520,19.250,15.190,403,398,384,381,348,2025-05-23T23:42:46.846473
9760,-0.5612,-0.3714,0.7808,3.290,23.800,12.390,403,423,384,385,338,2025-05-23T23:42:46.856621
9761,-0.5636,-0.3797,0.7837,5.390,27.930,12.460,421,346,379,370,349,2025-05-23T23:42:46.863643
9762,-0.5856,-0.3860,0.7842,8.050,33.180,11.480,396,331,382,368,347,2025-05-23T23:42:46.871781
9763,-0.5934,-0.3675,0.7876,10.710,37.310,7.000,386,345,346,383,349,2025-05-23T23:42:46.879541
9764,-0.6144,-0.3470,0.7793,13.580,36.190,4.200,411,410,369,363,329,2025-05-23T23:42:46.886646
9765,-0.6529,-0.3523,0.7418,15.470,28.980,3.220,416,411,362,383,345,2025-05-23T23:42:46.894058
9766,-0.6656,-0.3592,0.7144,22.890,20.300,3.570,420,363,360,376,348,2025-05-23T23:42:46.901100
9767,-0.6149,-0.3309,0.6925,30.310,14.420,6.440,437,393,376,373,331,2025-05-23T23:42:46.912309
9768,-0.5402,-0.3040,0.6700,38.220,18.620,14.070,421,399,382,340,345,2025-05-23T23:42:46.919317
9769,-0.5436,-0.2699,0.6681,41.580,27.860,18.200,427,410,390,319,331,2025-05-23T23:42:46.927895
9770,-0.6159,-0.2577,0.6817,40.320,29.260,15.050,418,430,353,302,302,2025-05-23T23:42:46.940701
9771,-0.6925,-0.2713,0.6832,40.040,18.270,12.390,421,409,367,352,326,2025-05-23T23:42:46.948756
9772,-0.7232,-0.2791,0.6969,42.070,7.700,13.160,414,429,383,381,357,2025-05-23T23:42:46.964862
9773,-0.6974,-0.2469,0.7027,44.030,3.290,12.740,422,377,385,373,346,2025-05-23T23:42:46.985691
9774,-0.6398,-0.2181,0.7144,45.360,4.970,12.670,436,346,392,352,365,2025-05-23T23:42:46.996258
9775,-0.6349,-0.1913,0.7310,42.070,10.780,12.670,407,409,349,377,364,2025-05-23T23:42:47.004358
9776,-0.6744,-0.2196,0.7588,36.260,14.210,16.660,425,416,325,374,354,2025-05-23T23:42:47.015485
9777,-0.7437,-0.2904,0.7359,37.240,10.850,25.060,409,404,312,339,362,2025-05-23T23:42:47.023992
9778,-0.7427,-0.2796,0.7237,46.270,7.210,31.640,303,420,322,383,375,2025-05-23T23:42:47.033102
9779,-0.7471,-0.2347,0.7232,56.560,2.800,29.750,375,422,350,382,361,2025-05-23T23:42:47.042524
9780,-0.7159,-0.1810,0.7066,62.440,-6.020,26.250,386,403,368,351,328,2025-05-23T23:42:47.052104
9781,-0.6852,-0.1630,0.6934,56.630,-11.410,22.960,404,402,371,364,342,2025-05-23T23:42:47.062419
9782,-0.6515,-0.1362,0.6969,43.050,-8.960,18.900,300,348,341,382,303,2025-05-23T23:42:47.073264
9783,-0.6549,-0.1484,0.6978,31.710,-7.000,18.410,378,370,371,377,341,2025-05-23T23:42:47.084740
9784,-0.6920,-0.2186,0.7037,30.730,-7.350,23.170,334,424,377,381,301,2025-05-23T23:42:47.100281
9785,-0.6993,-0.2494,0.7013,37.450,-7.280,26.110,374,442,377,379,329,2025-05-23T23:42:47.110364
9786,-0.6910,-0.2084,0.7130,44.380,-3.780,23.660,388,373,365,371,343,2025-05-23T23:42:47.121093
9787,-0.6964,-0.1854,0.7359,47.040,-2.100,19.670,412,421,368,285,336,2025-05-23T23:42:47.134643
9788,-0.6910,-0.1591,0.7388,44.240,-3.780,18.480,396,389,375,356,363,2025-05-23T23:42:47.144260
9789,-0.6730,-0.1503,0.7330,38.150,-5.530,18.760,334,410,386,377,339,2025-05-23T23:42:47.154660
9790,-0.6583,-0.1713,0.7227,36.190,-7.000,21.000,401,430,376,366,263,2025-05-23T23:42:47.167543
9791,-0.6437,-0.1776,0.7335,38.920,-6.370,22.330,387,406,388,323,293,2025-05-23T23:42:47.177271
9792,-0.6124,-0.1630,0.7662,46.830,-1.890,22.960,391,423,392,320,341,2025-05-23T23:42:47.191711
9793,-0.5983,-0.1479,0.7876,52.080,3.990,27.230,398,424,387,346,352,2025-05-23T23:42:47.199177
9794,-0.6720,-0.1649,0.7867,56.350,2.170,32.200,418,430,388,374,358,2025-05-23T23:42:47.206787
9795,-0.6925,-0.1840,0.7632,64.400,-6.160,43.820,411,423,379,358,344,2025-05-23T23:42:47.218512
9796,-0.6998,-0.1186,0.7379,70.350,-17.500,52.640,421,391,385,364,306,2025-05-23T23:42:47.227103
9797,-0.6720,-0.0195,0.7364,70.490,-23.240,48.510,374,399,383,377,318,2025-05-23T23:42:47.237115
9798,-0.5910,0.0303,0.7340,60.760,-23.310,42.910,411,400,397,362,277,2025-05-23T23:42:47.245745
9799,-0.5305,0.0239,0.7432,48.020,-17.080,38.990,417,423,393,365,321,2025-05-23T23:42:47.254563
9800,-0.5900,0.0190,0.7627,39.760,-15.470,34.370,425,422,387,376,278,2025-05-23T23:42:47.262882
9801,-0.6232,0.0093,0.7940,39.060,-19.530,31.290,421,408,347,359,319,2025-05-23T23:42:47.271151
9802,-0.5929,0.0278,0.8159,44.800,-20.650,30.030,425,417,359,373,325,2025-05-23T23:42:47.278330
9803,-0.5773,0.1015,0.8350,46.130,-12.950,25.410,413,429,374,382,337,2025-05-23T23:42:47.289144
9804,-0.6183,0.1552,0.8584,39.830,-6.580,21.280,417,420,390,375,326,2025-05-23T23:42:47.297269
9805,-0.6632,0.1903,0.8716,30.100,-8.540,19.670,407,426,354,348,334,2025-05-23T23:42:47.353291
9806,-0.6417,0.1947,0.8696,19.670,-8.750,19.250,429,414,365,371,337,2025-05-23T23:42:47.366420
9807,-0.6461,0.1684,0.8613,15.050,-9.870,19.390,410,412,378,369,335,2025-05-23T23:42:47.382385
9808,-0.6417,0.1747,0.8594,13.790,-6.160,15.820,421,407,377,321,338,2025-05-23T23:42:47.395802
9809,-0.6583,0.1591,0.8569,12.810,-3.150,13.510,402,421,386,349,329,2025-05-23T23:42:47.410926
9810,-0.6622,0.1459,0.8413,11.130,-3.570,11.900,342,430,382,369,325,2025-05-23T23:42:47.422804
9811,-0.6568,0.1537,0.8291,5.250,-5.740,8.960,408,404,381,373,342,2025-05-23T23:42:47.432139
9812,-0.6534,0.1620,0.8262,-0.910,-7.280,3.850,385,393,384,330,305,2025-05-23T23:42:47.442788
9813,-0.6754,0.1542,0.8184,-5.810,-10.920,-0.560,416,358,379,369,337,2025-05-23T23:42:47.453655
9814,-0.6803,0.1425,0.8125,-9.450,-15.190,-2.730,419,398,383,371,336,2025-05-23T23:42:47.462336
9815,-0.6451,0.0961,0.7935,-10.360,-14.000,0.490,396,424,388,369,343,2025-05-23T23:42:47.471719
9816,-0.6154,0.0639,0.7623,-7.840,-7.630,2.380,388,427,389,374,343,2025-05-23T23:42:47.479991
9817,-0.6115,0.0673,0.7442,-4.550,-2.380,-0.140,397,417,380,365,332,2025-05-23T23:42:47.489943
9818,-0.6149,0.0834,0.7520,-2.730,-0.350,-4.550,388,309,381,377,339,2025-05-23T23:42:47.501321
9819,-0.6329,0.0981,0.7896,-3.850,-1.050,-5.670,419,366,391,384,350,2025-05-23T23:42:47.512409
9820,-0.6534,0.1176,0.8194,-7.140,-2.660,-5.880,406,386,385,383,292,2025-05-23T23:42:47.519750
9821,-0.6578,0.1078,0.8198,-9.870,-1.820,-7.070,401,408,390,323,329,2025-05-23T23:42:47.533468
9822,-0.6559,0.0976,0.8301,-10.220,0.140,-6.790,418,405,391,365,346,2025-05-23T23:42:47.578460
9823,-0.6486,0.0976,0.8169,-10.220,0.350,-5.600,415,402,393,377,351,2025-05-23T23:42:47.592063
9824,-0.6290,0.0976,0.8047,-13.090,1.540,-7.350,392,430,395,373,362,2025-05-23T23:42:47.602841
9825,-0.6207,0.0839,0.8003,-15.820,3.360,-9.310,345,424,394,385,371,2025-05-23T23:42:47.620834
9826,-0.6393,0.0815,0.8091,-18.200,3.290,-10.150,386,426,398,394,364,2025-05-23T23:42:47.636794
9827,-0.6393,0.0888,0.8096,-19.320,4.760,-11.480,418,401,381,400,332,2025-05-23T23:42:47.649389
9828,-0.6378,0.0810,0.8174,-20.930,6.510,-13.020,405,384,383,382,341,2025-05-23T23:42:47.659468
9829,-0.6320,0.0878,0.8286,-23.870,7.350,-14.490,404,423,377,366,353,2025-05-23T23:42:47.675123
9830,-0.6198,0.0820,0.8316,-26.110,9.450,-15.470,420,429,378,383,334,2025-05-23T23:42:47.689393
9831,-0.6281,0.0586,0.7891,-28.630,17.850,-14.210,379,393,378,385,339,2025-05-23T23:42:47.699621
9832,-0.6915,0.0483,0.7950,-28.210,14.000,-12.880,385,407,383,384,330,2025-05-23T23:42:47.712436
9833,-0.6910,0.0444,0.7745,-30.590,11.830,-12.180,421,390,340,337,338,2025-05-23T23:42:47.726427
9834,-0.6603,0.0039,0.7593,-32.970,12.810,-9.730,368,371,355,307,310,2025-05-23T23:42:47.738311
9835,-0.6549,-0.0342,0.7310,-31.290,13.230,-1.680,405,379,364,360,254,2025-05-23T23:42:47.753764
9836,-0.6690,-0.0361,0.6974,-26.880,10.710,3.010,396,341,365,373,315,2025-05-23T23:42:47.765828
9837,-0.6725,-0.0327,0.6759,-23.310,7.980,2.380,391,415,378,369,323,2025-05-23T23:42:47.776584
9838,-0.6769,-0.0415,0.6886,-21.490,1.540,2.380,390,424,389,374,326,2025-05-23T23:42:47.788056
9839,-0.6529,-0.0517,0.6939,-18.830,-5.250,3.710,420,365,387,359,346,2025-05-23T23:42:47.798785
9840,-0.6212,-0.0410,0.7047,-12.740,-7.070,4.620,378,407,392,388,365,2025-05-23T23:42:47.809839
9841,-0.6134,-0.0142,0.7222,-6.930,-5.320,5.110,402,347,390,399,364,2025-05-23T23:42:47.821055
9842,-0.6281,0.0068,0.7584,-1.890,-5.110,5.250,359,400,394,396,314,2025-05-23T23:42:47.831457
9843,-0.6344,0.0044,0.7886,0.910,-8.260,8.120,355,385,377,388,339,2025-05-23T23:42:47.840354
9844,-0.6129,0.0029,0.7828,5.320,-10.430,9.170,395,397,386,358,356,2025-05-23T23:42:47.852313
9845,-0.5954,0.0068,0.7618,12.110,-8.470,8.190,409,402,379,361,345,2025-05-23T23:42:47.862832
9846,-0.5983,0.0161,0.7823,20.790,-3.710,6.510,394,420,360,361,365,2025-05-23T23:42:47.871913
9847,-0.6056,0.0102,0.7779,28.280,-1.540,7.280,392,363,373,360,318,2025-05-23T23:42:47.881377
9848,-0.5812,-0.0063,0.7637,33.810,3.850,11.690,296,356,343,371,343,2025-05-23T23:42:47.891944
9849,-0.5910,0.0156,0.7300,38.640,10.710,15.330,279,376,377,385,351,2025-05-23T23:42:47.903010
9850,-0.6705,0.0473,0.7442,42.490,10.220,14.070,360,355,370,387,354,2025-05-23T23:42:47.912318
9851,-0.7096,0.1113,0.7857,40.530,4.060,12.180,390,418,352,334,345,2025-05-23T23:42:47.921562
9852,-0.7403,0.1596,0.8335,29.120,-1.050,8.330,410,436,328,351,343,2025-05-23T23:42:47.931670
9853,-0.7452,0.1723,0.8506,15.960,-2.380,4.550,391,351,345,358,307,2025-05-23T23:42:47.941295
9854,-0.7174,0.1635,0.8574,8.680,-0.420,0.840,390,394,374,369,322,2025-05-23T23:42:47.951052
9855,-0.7105,0.1376,0.7993,1.610,9.520,-3.850,388,358,381,353,337,2025-05-23T23:42:47.960839
9856,-0.7305,0.1191,0.7959,-1.470,10.710,-7.210,391,385,372,366,347,2025-05-23T23:42:48.001393
9857,-0.7164,0.1035,0.7847,-5.320,12.320,-7.560,415,413,390,381,343,2025-05-23T23:42:48.023224
9858,-0.7266,0.1098,0.7803,-12.040,10.220,-7.350,414,374,380,345,363,2025-05-23T23:42:48.031647
9859,-0.7462,0.1118,0.7725,-19.810,7.140,-8.610,341,334,386,383,364,2025-05-23T23:42:48.041077
9860,-0.7183,0.0834,0.7681,-25.410,5.180,-8.750,371,334,351,378,353,2025-05-23T23:42:48.047558
9861,-0.6793,0.0478,0.7481,-29.330,6.860,-6.720,405,384,379,376,351,2025-05-23T23:42:48.054462
9862,-0.6778,0.0312,0.7310,-30.100,11.340,-7.140,394,377,368,383,365,2025-05-23T23:42:48.063459
9863,-0.6754,0.0137,0.7232,-27.580,15.050,-7.490,406,429,368,367,369,2025-05-23T23:42:48.073619
9864,-0.6739,0.0112,0.7208,-25.410,16.660,-7.070,388,426,372,379,311,2025-05-23T23:42:48.083954
9865,-0.6700,0.0181,0.7213,-25.410,14.000,-6.930,400,388,383,378,308,2025-05-23T23:42:48.092739
9866,-0.6637,0.0151,0.7281,-26.040,9.450,-5.530,414,383,372,373,298,2025-05-23T23:42:48.101202
9867,-0.6486,0.0200,0.7315,-26.320,5.320,-4.480,428,347,387,387,334,2025-05-23T23:42:48.108963
9868,-0.6329,0.0132,0.7374,-24.570,1.540,-4.550,427,399,395,379,357,2025-05-23T23:42:48.126177
9869,-0.6193,-0.0068,0.7462,-19.740,-0.770,-4.060,419,405,393,383,351,2025-05-23T23:42:48.138159
9870,-0.5963,-0.0278,0.7501,-11.550,0.210,-2.380,389,387,397,370,343,2025-05-23T23:42:48.148134
9871,-0.5915,-0.0239,0.7486,-3.010,3.150,-1.120,392,391,388,365,347,2025-05-23T23:42:48.157531
9872,-0.6090,0.0024,0.7432,5.810,4.900,-3.360,414,350,382,338,320,2025-05-23T23:42:48.164474
9873,-0.6305,0.0229,0.7427,10.010,4.900,-5.250,398,397,378,373,351,2025-05-23T23:42:48.171699
9874,-0.6495,0.0307,0.7491,10.850,2.940,-4.550,412,369,377,380,352,2025-05-23T23:42:48.180411
9875,-0.6822,0.0264,0.7462,11.830,1.400,-1.890,395,417,370,375,304,2025-05-23T23:42:48.188113
9876,-0.6969,0.0386,0.7286,13.580,0.910,-0.700,354,348,373,390,325,2025-05-23T23:42:48.194508
9877,-0.7154,0.0366,0.7169,15.610,3.290,-0.840,378,387,381,392,321,2025-05-23T23:42:48.203216
9878,-0.7325,0.0483,0.7154,16.520,3.430,-0.630,404,420,390,389,359,2025-05-23T23:42:48.211355
9879,0.0000,0.0000,0.0000,0.000,0.000,0.000,389,424,390,341,346,2025-05-23T23:42:48.218380
9880,0.0000,0.0000,0.0000,0.000,0.000,0.000,373,420,389,358,355,2025-05-23T23:42:48.225593
9881,0.0000,0.0000,0.0000,0.000,0.000,0.000,413,412,350,370,368,2025-05-23T23:42:48.233702
9882,0.0000,0.0000,0.0000,0.000,0.000,0.000,375,418,378,392,377,2025-05-23T23:42:48.245334
9883,0.0000,0.0000,0.0000,0.000,0.000,0.000,385,406,352,399,374,2025-05-23T23:42:48.258489
9884,0.0000,0.0000,0.0000,0.000,0.000,0.000,412,383,357,385,361,2025-05-23T23:42:48.268922
9885,0.0000,0.0000,0.0000,0.000,0.000,0.000,412,413,372,349,358,2025-05-23T23:42:48.283574
9886,-0.7315,0.0678,0.7920,8.960,0.630,-0.980,351,404,369,373,368,2025-05-23T23:42:48.295619
9887,-0.7188,0.0576,0.7837,3.850,1.120,-1.610,382,425,369,372,338,2025-05-23T23:42:48.308902
9888,-0.6749,0.0673,0.7735,0.280,4.760,-2.240,417,404,379,386,357,2025-05-23T23:42:48.319272
9889,-0.7427,0.0205,0.7466,-3.080,8.680,-2.380,339,399,382,322,338,2025-05-23T23:42:48.331105
9890,-0.7549,0.0200,0.7310,-5.390,7.210,-2.940,409,419,385,340,329,2025-05-23T23:42:48.343084
9891,-0.7403,0.0195,0.7169,-7.910,3.990,-2.800,415,411,381,363,319,2025-05-23T23:42:48.353500
9892,-0.7315,0.0122,0.7086,-11.410,3.150,-1.470,412,413,390,364,339,2025-05-23T23:42:48.390942
9893,-0.7257,0.0112,0.7061,-13.020,1.890,0.280,423,346,383,363,357,2025-05-23T23:42:48.407402
9894,-0.7149,0.0132,0.7042,-13.860,-0.070,0.210,388,392,384,373,346,2025-05-23T23:42:48.419282
9895,-0.7091,0.0151,0.7193,-14.630,-1.470,0.070,357,419,375,384,372,2025-05-23T23:42:48.434695
9896,-0.6895,0.0176,0.7286,-14.630,-2.030,0.560,290,424,385,390,373,2025-05-23T23:42:48.449952
9897,-0.6793,0.0195,0.7408,-13.930,-0.770,0.000,390,417,373,319,304,2025-05-23T23:42:48.464138
9898,-0.6974,0.0254,0.7466,-12.740,0.070,-1.820,417,401,386,339,326,2025-05-23T23:42:48.480984
9899,-0.6866,0.0327,0.7491,-11.620,0.490,-3.080,421,387,380,364,285,2025-05-23T23:42:48.496516
9900,-0.6842,0.0351,0.7486,-11.760,1.680,-4.200,425,343,378,331,321,2025-05-23T23:42:48.510558
9901,-0.6930,0.0327,0.7510,-11.480,2.800,-5.320,413,407,370,344,329,2025-05-23T23:42:48.524695
9902,-0.6998,0.0244,0.7422,-10.640,3.500,-5.180,404,396,369,347,334,2025-05-23T23:42:48.539868
9903,-0.6988,0.0185,0.7252,-9.520,5.110,-5.460,399,403,365,356,323,2025-05-23T23:42:48.551481
9904,-0.7032,0.0107,0.7066,-8.120,5.460,-5.950,410,415,370,375,313,2025-05-23T23:42:48.564278
9905,-0.7076,0.0132,0.7056,-7.070,3.640,-5.600,397,422,372,373,313,2025-05-23T23:42:48.577700
9906,-0.7149,0.0151,0.7052,-7.070,1.470,-5.110,395,344,380,318,291,2025-05-23T23:42:48.595048
9907,-0.7169,0.0142,0.7091,-6.930,-0.840,-4.620,410,382,375,295,304,2025-05-23T23:42:48.608770
9908,-0.7242,0.0166,0.7193,-6.720,-2.450,-3.710,375,412,381,334,325,2025-05-23T23:42:48.622026
9909,-0.7261,0.0171,0.7213,-7.000,-2.450,-4.060,332,409,385,349,352,2025-05-23T23:42:48.632867
9910,-0.7276,0.0181,0.7261,-7.560,-2.310,-4.270,387,425,378,373,353,2025-05-23T23:42:48.643209
9911,-0.7203,0.0098,0.7149,-7.910,-2.170,-4.270,339,416,386,396,364,2025-05-23T23:42:48.656042
9912,-0.7013,0.0010,0.7022,-7.000,-0.560,-3.920,381,432,393,375,346,2025-05-23T23:42:48.664845
9913,-0.7017,-0.0102,0.6983,-4.830,1.050,-2.940,412,421,382,374,317,2025-05-23T23:42:48.677463
9914,-0.6998,-0.0161,0.6900,-2.800,2.660,-2.450,419,401,372,374,351,2025-05-23T23:42:48.698711
9915,-0.7037,-0.0142,0.6954,-0.140,3.360,-1.890,419,412,386,382,318,2025-05-23T23:42:48.723783
9916,-0.7139,-0.0049,0.7013,1.330,3.080,-2.170,428,384,380,349,343,2025-05-23T23:42:48.731571
9917,-0.7242,0.0034,0.7091,1.470,1.680,-2.520,396,417,382,359,356,2025-05-23T23:42:48.741162
9918,-0.7296,0.0059,0.7242,1.330,-1.330,-1.750,418,420,378,367,364,2025-05-23T23:42:48.749361
9919,-0.7222,0.0151,0.7296,0.560,-2.380,-1.260,411,398,351,390,370,2025-05-23T23:42:48.759560
9920,-0.7086,0.0024,0.7232,0.700,-1.260,-1.470,406,421,374,373,349,2025-05-23T23:42:48.769044
9921,-0.6905,-0.0117,0.7135,2.730,3.080,-1.680,411,422,382,368,316,2025-05-23T23:42:48.782817
9922,-0.6920,-0.0142,0.6988,5.180,8.820,-2.590,425,391,387,378,356,2025-05-23T23:42:48.796240
9923,-0.7164,-0.0137,0.6920,6.930,10.570,-4.200,401,388,349,357,324,2025-05-23T23:42:48.805094
9924,-0.7442,-0.0015,0.7022,7.630,7.140,-3.710,419,417,369,372,324,2025-05-23T23:42:48.816092
9925,-0.7364,0.0107,0.7032,5.810,1.260,-2.590,425,414,384,356,277,2025-05-23T23:42:48.827552
9926,-0.7320,0.0142,0.7042,3.010,-1.680,-1.610,431,410,396,359,327,2025-05-23T23:42:48.840488
9927,-0.7466,0.0078,0.7091,1.960,-3.430,-1.260,429,424,387,323,339,2025-05-23T23:42:48.854954
9928,-0.7383,0.0005,0.7091,2.520,-3.290,-1.540,403,425,379,345,349,2025-05-23T23:42:48.864529
9929,-0.7340,-0.0005,0.7120,3.500,-1.470,-1.610,404,417,382,375,339,2025-05-23T23:42:48.875590
9930,-0.7257,-0.0034,0.7096,4.340,0.840,-1.960,410,353,388,341,347,2025-05-23T23:42:48.885933
9931,-0.7193,-0.0024,0.7081,4.690,2.380,-2.170,407,409,386,279,357,2025-05-23T23:42:48.897642
9932,-0.7149,-0.0093,0.7066,5.250,3.290,-2.030,422,421,345,359,358,2025-05-23T23:42:48.907719
9933,-0.7237,-0.0088,0.7047,5.740,3.430,-1.750,424,365,351,363,346,2025-05-23T23:42:48.917625
9934,-0.7330,-0.0049,0.7061,5.390,2.800,-1.960,370,401,369,345,325,2025-05-23T23:42:48.926615
9935,-0.7510,0.0010,0.7100,4.270,2.170,-2.520,380,416,351,300,291,2025-05-23T23:42:48.936718
9936,-0.7657,0.0034,0.7174,2.660,0.770,-2.520,334,413,358,354,332,2025-05-23T23:42:48.946900
9937,-0.7662,0.0083,0.7227,0.700,-0.630,-2.450,399,425,334,370,284,2025-05-23T23:42:48.955664
9938,-0.7525,0.0039,0.7100,-1.330,-1.050,-2.310,405,428,365,364,280,2025-05-23T23:42:48.967234
9939,-0.7525,-0.0122,0.6778,-4.060,5.740,-1.750,398,386,305,345,312,2025-05-23T23:42:48.976255
9940,-0.7657,-0.0234,0.6778,-3.360,5.390,-1.120,418,408,275,359,313,2025-05-23T23:42:48.987669
9941,-0.7544,-0.0215,0.6666,-3.220,5.320,0.280,391,420,331,307,323,2025-05-23T23:42:48.998338
9942,-0.7515,-0.0093,0.6627,-4.340,4.760,0.840,404,389,357,349,329,2025-05-23T23:42:49.010571
9943,-0.7627,-0.0093,0.6686,-5.880,0.700,1.610,384,397,372,372,250,2025-05-23T23:42:49.021599
9944,-0.7457,-0.0093,0.6744,-7.560,-4.760,2.310,424,436,388,329,337,2025-05-23T23:42:49.034693
9945,-0.7315,-0.0098,0.6842,-7.560,-7.000,2.310,426,429,372,352,319,2025-05-23T23:42:49.046314
9946,-0.7252,-0.0122,0.7008,-5.250,-7.000,2.170,417,410,384,328,336,2025-05-23T23:42:49.058904
9947,-0.7286,-0.0029,0.7115,-3.570,-5.600,1.680,428,417,374,355,358,2025-05-23T23:42:49.068497
9948,-0.7296,-0.0005,0.7164,-2.730,-3.430,0.910,402,415,381,364,361,2025-05-23T23:42:49.078370
9949,-0.7276,0.0015,0.7149,-3.360,-1.400,0.000,410,378,354,334,338,2025-05-23T23:42:49.088151
9950,-0.7335,0.0015,0.7120,-3.990,-0.350,-0.910,380,407,365,356,300,2025-05-23T23:42:49.098322
9951,-0.7442,0.0034,0.7076,-4.270,-0.490,-1.750,375,407,369,363,331,2025-05-23T23:42:49.110903
9952,-0.7393,0.0024,0.7052,-4.340,-1.540,-2.170,420,426,368,372,324,2025-05-23T23:42:49.122130
9953,-0.7286,-0.0005,0.6910,-5.110,-1.400,-2.660,432,429,383,309,269,2025-05-23T23:42:49.135458
9954,-0.7286,-0.0063,0.6886,-5.320,-1.190,-2.940,413,394,393,337,304,2025-05-23T23:42:49.146275
9955,-0.7374,-0.0112,0.6934,-4.270,-2.380,-1.960,403,411,391,354,280,2025-05-23T23:42:49.157334
9956,-0.7408,-0.0015,0.6925,-3.290,-3.010,-1.750,379,422,385,365,310,2025-05-23T23:42:49.170562
9957,-0.7408,-0.0029,0.6925,-3.500,-3.150,-1.540,390,430,349,373,318,2025-05-23T23:42:49.184300
9958,-0.7432,-0.0039,0.6974,-4.620,-3.500,-1.260,395,427,367,370,315,2025-05-23T23:42:49.205560
9959,-0.7427,-0.0044,0.6988,-5.600,-3.220,-1.190,389,421,369,365,333,2025-05-23T23:42:49.213246
9960,-0.7413,-0.0059,0.6959,-6.090,-2.450,-1.610,385,401,375,309,318,2025-05-23T23:42:49.223409
9961,-0.7398,-0.0093,0.6915,-6.370,-2.170,-2.380,398,354,371,356,349,2025-05-23T23:42:49.240529
9962,-0.7359,-0.0146,0.6964,-6.510,-2.450,-2.100,397,415,377,375,338,2025-05-23T23:42:49.254573
9963,-0.7349,-0.0102,0.6974,-6.790,-3.010,-1.610,352,426,388,365,346,2025-05-23T23:42:49.266348
9964,-0.7418,-0.0127,0.7037,-6.580,-3.710,-1.330,410,413,387,376,323,2025-05-23T23:42:49.278587
9965,-0.7383,-0.0176,0.7032,-6.160,-3.710,-0.840,415,410,389,376,353,2025-05-23T23:42:49.286820
9966,-0.7388,-0.0171,0.7008,-6.160,-3.010,-0.980,394,393,377,365,354,2025-05-23T23:42:49.295691
9967,-0.7466,-0.0171,0.6983,-6.720,-2.450,-1.260,373,410,388,381,364,2025-05-23T23:42:49.304856
9968,-0.7496,-0.0142,0.6925,-7.420,-2.520,-1.400,403,415,394,367,364,2025-05-23T23:42:49.316678
9969,-0.7520,-0.0142,0.6871,-8.470,-2.940,-1.470,399,409,393,358,361,2025-05-23T23:42:49.328503
9970,-0.7476,-0.0132,0.6876,-10.290,-3.430,-1.820,403,402,383,373,350,2025-05-23T23:42:49.337630
9971,-0.7462,-0.0181,0.6871,-12.040,-4.690,-2.170,391,344,371,377,341,2025-05-23T23:42:49.349852
9972,-0.7422,-0.0244,0.6930,-12.390,-5.740,-2.240,400,400,380,373,324,2025-05-23T23:42:49.359857
9973,-0.7349,-0.0303,0.6959,-11.480,-5.810,-1.330,416,350,348,366,245,2025-05-23T23:42:49.371277
9974,-0.7305,-0.0322,0.6959,-10.150,-4.270,-1.120,412,370,378,367,323,2025-05-23T23:42:49.383628
9975,-0.7418,-0.0298,0.6939,-9.030,-3.500,-1.540,399,414,346,377,330,2025-05-23T23:42:49.395233
9976,-0.7501,-0.0288,0.6964,-9.170,-4.130,-1.820,377,411,352,365,323,2025-05-23T23:42:49.407938
9977,-0.7525,-0.0273,0.6930,-10.080,-5.250,-1.750,399,399,369,364,317,2025-05-23T23:42:49.422362
9978,-0.7540,-0.0224,0.6925,-11.620,-5.320,-2.380,412,386,386,380,335,2025-05-23T23:42:49.434941
9979,-0.7579,-0.0205,0.6993,-13.510,-5.110,-3.010,398,401,378,372,343,2025-05-23T23:42:49.449277
9980,-0.7686,-0.0224,0.7013,-15.680,-5.180,-3.920,408,359,373,382,359,2025-05-23T23:42:49.462390
9981,-0.7730,-0.0239,0.6988,-17.570,-5.810,-4.690,402,338,373,374,365,2025-05-23T23:42:49.476032
9982,-0.7696,-0.0307,0.6978,-19.390,-6.020,-3.710,390,400,385,369,354,2025-05-23T23:42:49.487961
9983,-0.7603,-0.0366,0.6900,-20.510,-4.480,-2.800,414,344,341,372,337,2025-05-23T23:42:49.497404
9984,-0.7584,-0.0410,0.6842,-20.650,-3.010,-2.310,343,397,363,369,279,2025-05-23T23:42:49.507531
9985,-0.7666,-0.0434,0.6861,-20.650,-3.080,-2.310,394,418,383,363,323,2025-05-23T23:42:49.517698
9986,-0.7603,-0.0376,0.6871,-21.280,-3.850,-3.430,419,396,386,317,309,2025-05-23T23:42:49.528446
9987,-0.7520,-0.0254,0.6939,-23.940,-3.920,-5.880,415,415,388,343,273,2025-05-23T23:42:49.538515
9988,-0.7540,-0.0254,0.6949,-28.210,-3.500,-8.260,358,397,389,352,234,2025-05-23T23:42:49.547621
9989,-0.7608,-0.0386,0.6944,-32.270,-4.060,-9.730,392,417,393,306,261,2025-05-23T23:42:49.558050
9990,-0.7623,-0.0654,0.6920,-33.460,-4.200,-7.210,414,411,384,364,276,2025-05-23T23:42:49.570535
9991,-0.7720,-0.0849,0.6886,-32.270,-3.150,-3.290,423,400,377,353,315,2025-05-23T23:42:49.580175
9992,-0.7662,-0.0932,0.6837,-29.190,-2.170,-1.330,402,350,377,370,289,2025-05-23T23:42:49.590303
9993,-0.7598,-0.0859,0.6798,-26.250,-0.210,-1.330,416,369,382,370,312,2025-05-23T23:42:49.601695
9994,-0.7540,-0.0810,0.6778,-25.620,0.630,-2.450,351,416,383,376,325,2025-05-23T23:42:49.613322
9995,-0.7549,-0.0795,0.6803,-27.160,-1.050,-3.990,399,430,400,346,331,2025-05-23T23:42:49.623679
9996,-0.7574,-0.0820,0.6812,-29.120,-4.200,-4.270,401,408,362,384,337,2025-05-23T23:42:49.636584
9997,-0.7471,-0.0849,0.6783,-31.990,-6.090,-4.060,408,385,375,385,353,2025-05-23T23:42:49.647536
9998,-0.7437,-0.0956,0.6759,-34.930,-6.440,-5.040,375,407,343,378,361,2025-05-23T23:42:49.656888
9999,-0.7330,-0.1127,0.6720,-36.680,-5.390,-4.690,401,389,367,385,355,2025-05-23T23:42:49.667315
10000,-0.7340,-0.1391,0.6690,-35.630,-3.220,-1.960,419,420,334,377,347,2025-05-23T23:42:49.680262
10001,-0.7427,-0.1508,0.6700,-33.180,-0.980,0.490,338,410,322,325,335,2025-05-23T23:42:49.694995
10002,-0.7510,-0.1508,0.6778,-29.400,0.210,1.400,395,424,348,343,334,2025-05-23T23:42:49.709203
10003,-0.7598,-0.1479,0.6871,-27.440,0.280,0.560,417,403,351,368,293,2025-05-23T23:42:49.716571
10004,-0.7554,-0.1474,0.6861,-27.650,-0.490,0.070,395,393,369,372,269,2025-05-23T23:42:49.726383
10005,-0.7530,-0.1474,0.6847,-29.260,-1.050,-0.840,388,429,373,362,320,2025-05-23T23:42:49.734136
10006,-0.7462,-0.1459,0.6822,-31.080,-0.560,-2.170,424,393,379,370,277,2025-05-23T23:42:49.757005
10007,-0.7413,-0.1527,0.6783,-32.690,0.280,-3.500,422,405,374,382,324,2025-05-23T23:42:49.771753
10008,-0.7408,-0.1581,0.6773,-33.950,1.540,-4.550,416,430,351,379,310,2025-05-23T23:42:49.783228
10009,-0.7496,-0.1591,0.6749,-36.610,2.870,-4.340,427,412,336,382,325,2025-05-23T23:42:49.790687
10010,-0.7701,-0.1718,0.6705,-37.450,2.730,-3.430,408,398,359,375,323,2025-05-23T23:42:49.797995
10011,-0.7842,-0.1835,0.6676,-36.120,1.050,-0.700,388,350,379,360,312,2025-05-23T23:42:49.806234
10012,-0.7857,-0.1898,0.6637,-34.230,-0.490,2.170,414,342,393,326,341,2025-05-23T23:42:49.852365
10013,-0.7735,-0.1923,0.6612,-31.710,-1.330,4.410,402,409,394,372,338,2025-05-23T23:42:49.861883
10014,-0.7618,-0.1864,0.6632,-29.960,-2.100,5.600,358,418,383,380,319,2025-05-23T23:42:49.873417
10015,-0.7452,-0.1869,0.6661,-29.190,-2.660,6.860,403,407,386,340,355,2025-05-23T23:42:49.885767
10016,-0.7369,-0.1908,0.6651,-28.910,-2.520,8.260,394,425,387,365,305,2025-05-23T23:42:49.899078
10017,-0.7330,-0.2050,0.6632,-27.720,-2.590,9.310,412,377,374,365,327,2025-05-23T23:42:49.907473
10018,-0.7432,-0.2162,0.6651,-25.200,-3.850,11.620,400,416,373,317,313,2025-05-23T23:42:49.917317
10019,-0.7393,-0.2181,0.6686,-21.560,-5.040,13.440,413,406,373,356,307,2025-05-23T23:42:49.926466
10020,-0.7325,-0.2167,0.6695,-17.710,-5.530,14.210,399,406,390,336,308,2025-05-23T23:42:49.936024
10021,-0.7139,-0.2172,0.6734,-14.560,-5.390,14.350,413,422,378,358,269,2025-05-23T23:42:49.944224
10022,-0.7008,-0.2216,0.6676,-11.480,-4.480,14.770,403,344,383,371,291,2025-05-23T23:42:49.952769
10023,-0.6959,-0.2216,0.6671,-8.540,-3.290,14.280,383,379,392,371,290,2025-05-23T23:42:49.960606
10024,-0.6915,-0.2211,0.6656,-6.720,-2.100,12.880,417,424,362,384,314,2025-05-23T23:42:49.968574
10025,-0.6988,-0.2176,0.6642,-5.670,-2.100,11.340,424,381,373,366,316,2025-05-23T23:42:49.976674
10026,-0.7086,-0.2196,0.6666,-5.460,-4.060,10.570,400,351,365,360,303,2025-05-23T23:42:49.985707
10027,-0.6934,-0.2216,0.6627,-5.950,-5.180,9.800,416,413,359,372,268,2025-05-23T23:42:49.993222
10028,-0.6915,-0.2264,0.6671,-6.160,-4.620,9.100,305,416,373,355,305,2025-05-23T23:42:50.000922
10029,-0.6983,-0.2352,0.6627,-5.250,-4.270,8.120,339,413,391,388,329,2025-05-23T23:42:50.008502
10030,-0.6998,-0.2420,0.6612,-3.150,-4.270,7.490,388,363,378,399,330,2025-05-23T23:42:50.016102
10031,-0.6910,-0.2391,0.6568,-0.770,-3.640,6.720,412,398,396,399,347,2025-05-23T23:42:50.025005
10032,-0.6900,-0.2362,0.6583,-0.140,-1.890,6.020,390,403,390,341,344,2025-05-23T23:42:50.032833
10033,-0.6998,-0.2313,0.6588,-0.350,-1.050,4.270,382,360,381,379,351,2025-05-23T23:42:50.042232
10034,-0.7100,-0.2284,0.6549,-0.910,-1.260,3.150,383,395,375,367,341,2025-05-23T23:42:50.049959
10035,-0.7198,-0.2294,0.6568,-1.680,-2.520,2.380,421,394,381,372,357,2025-05-23T23:42:50.059376
10036,-0.7159,-0.2303,0.6525,-2.380,-4.060,1.750,406,394,392,341,344,2025-05-23T23:42:50.067393
10037,-0.7110,-0.2313,0.6422,-2.520,-4.410,1.890,393,337,388,379,307,2025-05-23T23:42:50.077089
10038,-0.7037,-0.2303,0.6349,-1.330,-3.360,1.960,409,379,386,328,312,2025-05-23T23:42:50.086676
10039,-0.7066,-0.2206,0.6349,-0.420,-2.030,1.190,373,400,383,378,304,2025-05-23T23:42:50.094573
10040,-0.7252,-0.2069,0.6417,-0.560,-2.660,0.420,386,400,389,378,314,2025-05-23T23:42:50.102310
10041,-0.7408,-0.2015,0.6476,-1.960,-4.620,-0.140,415,417,376,348,266,2025-05-23T23:42:50.110626
10042,-0.7408,-0.1972,0.6529,-4.060,-6.790,-1.050,437,405,386,321,304,2025-05-23T23:42:50.117836
10043,-0.7359,-0.1991,0.6515,-6.020,-7.140,-2.170,414,373,382,375,321,2025-05-23T23:42:50.126318
10044,-0.7374,-0.2020,0.6495,-6.230,-5.880,-2.310,405,409,373,385,306,2025-05-23T23:42:50.135455
10045,-0.7471,-0.2030,0.6456,-5.530,-4.760,-2.380,431,398,354,368,269,2025-05-23T23:42:50.145142
10046,-0.7476,-0.1991,0.6427,-4.830,-4.200,-2.310,408,433,367,322,312,2025-05-23T23:42:50.154901
10047,-0.7437,-0.1928,0.6437,-4.690,-3.430,-0.980,424,414,385,388,332,2025-05-23T23:42:50.164442
10048,-0.7505,-0.1923,0.6495,-4.970,-2.660,0.280,383,423,387,375,343,2025-05-23T23:42:50.179228
10049,-0.7505,-0.1923,0.6520,-4.900,-2.380,0.210,415,416,343,383,332,2025-05-23T23:42:50.191314
10050,-0.7569,-0.1908,0.6559,-4.830,-3.080,-0.210,389,391,364,398,343,2025-05-23T23:42:50.219905
10051,-0.7549,-0.1889,0.6564,-4.970,-4.620,-0.210,403,404,370,364,356,2025-05-23T23:42:50.237174
10052,-0.7457,-0.1884,0.6559,-5.670,-5.250,-0.490,399,399,377,369,360,2025-05-23T23:42:50.244844
10053,-0.7422,-0.1967,0.6564,-6.370,-4.830,-0.280,409,408,346,341,307,2025-05-23T23:42:50.254602
10054,-0.7457,-0.2045,0.6564,-5.460,-3.570,0.420,405,394,365,371,296,2025-05-23T23:42:50.267135
10055,-0.7530,-0.2064,0.6632,-3.710,-2.660,1.260,426,429,373,369,339,2025-05-23T23:42:50.279270
10056,-0.7515,-0.2025,0.6656,-2.380,-2.100,1.330,414,405,370,331,306,2025-05-23T23:42:50.290042
10057,-0.7535,-0.2035,0.6725,-2.240,-2.030,1.540,387,426,380,378,273,2025-05-23T23:42:50.302042
10058,-0.7535,-0.2059,0.6744,-2.030,-2.310,1.610,416,400,383,377,304,2025-05-23T23:42:50.316746
10059,-0.7471,-0.2059,0.6764,-0.910,-2.170,0.980,399,395,372,389,265,2025-05-23T23:42:50.330523
10060,-0.7452,-0.2069,0.6808,0.700,-1.050,0.420,397,406,385,378,314,2025-05-23T23:42:50.343211
10061,-0.7540,-0.2059,0.6876,1.400,-0.070,-0.070,396,382,382,376,321,2025-05-23T23:42:50.355400
10062,-0.7564,-0.2045,0.6900,1.470,-0.490,-0.630,411,389,386,375,301,2025-05-23T23:42:50.371175
10063,-0.7510,-0.2030,0.6876,0.910,-1.050,-1.050,402,409,389,374,277,2025-05-23T23:42:50.454585
10064,-0.7427,-0.2030,0.6832,0.910,-0.770,-0.980,417,426,386,402,344,2025-05-23T23:42:50.473321
10065,-0.7340,-0.1981,0.6793,2.100,-0.490,-0.840,410,384,380,400,349,2025-05-23T23:42:50.497626
10066,-0.7393,-0.1942,0.6720,3.010,-0.630,-1.400,412,418,387,398,358,2025-05-23T23:42:50.517738
10067,-0.7515,-0.1723,0.6612,3.640,-2.030,-2.800,419,434,378,388,339,2025-05-23T23:42:50.532032
10068,-0.7769,-0.1576,0.6554,3.220,-3.780,-4.760,396,400,359,384,305,2025-05-23T23:42:50.541444
10069,-0.7915,-0.1518,0.6500,2.870,-5.880,-6.230,382,391,366,339,300,2025-05-23T23:42:50.552212
10070,-0.8047,-0.1523,0.6534,1.890,-7.350,-6.370,294,415,368,377,301,2025-05-23T23:42:50.564204
10071,-0.8272,-0.1566,0.6564,0.910,-9.310,-4.900,387,431,369,384,320,2025-05-23T23:42:50.577244
10072,-0.8472,-0.1586,0.6612,0.770,-13.300,-4.480,381,402,349,386,319,2025-05-23T23:42:50.588264
10073,-0.8740,-0.1542,0.6232,0.630,-35.280,-5.600,396,355,370,398,313,2025-05-23T23:42:50.601202
10074,-0.9091,-0.1322,0.5729,4.900,-22.680,-9.310,395,387,364,401,313,2025-05-23T23:42:50.612458
10075,-0.9023,-0.0864,0.5817,9.240,-27.790,-13.370,339,380,338,390,284,2025-05-23T23:42:50.622920
10076,-0.8882,-0.0063,0.5968,3.780,-31.920,-12.250,344,356,334,376,267,2025-05-23T23:42:50.635760
10077,-0.8408,0.0254,0.6320,-9.660,-36.890,-8.330,408,353,364,352,322,2025-05-23T23:42:50.644190
10078,-0.8062,0.0093,0.6510,-24.570,-41.020,-4.620,351,393,373,368,311,2025-05-23T23:42:50.654305
10079,-0.8072,-0.0195,0.6637,-38.780,-47.040,-6.790,404,381,376,378,315,2025-05-23T23:42:50.666690
10080,-0.7891,-0.0420,0.6808,-43.750,-52.290,-10.500,410,414,377,379,317,2025-05-23T23:42:50.678551
10081,-0.7871,-0.0488,0.6681,-47.180,-55.230,-14.630,399,408,374,394,333,2025-05-23T23:42:50.689920
10082,-0.7725,-0.0395,0.7242,-52.500,-52.990,-18.340,424,401,384,385,325,2025-05-23T23:42:50.699760
10083,-0.7852,-0.0439,0.7374,-64.050,-60.130,-21.630,411,385,335,385,298,2025-05-23T23:42:50.710971
10084,-0.7793,-0.0805,0.7354,-74.270,-75.110,-22.820,346,421,348,324,249,2025-05-23T23:42:50.720095
10085,-0.7354,-0.1488,0.7232,-77.910,-89.950,-22.400,400,404,364,322,255,2025-05-23T23:42:50.743977
10086,-0.6612,-0.1591,0.7242,-73.080,-99.750,-25.270,400,419,363,365,278,2025-05-23T23:42:50.753512
10087,-0.5397,-0.1908,0.7066,-68.950,-105.280,-25.760,405,423,374,383,297,2025-05-23T23:42:50.773750
10088,-0.4900,-0.2269,0.7232,-65.380,-106.820,-26.810,413,413,373,374,337,2025-05-23T23:42:50.781965
10089,-0.4714,-0.2874,0.7652,-64.400,-106.750,-29.820,340,369,359,371,296,2025-05-23T23:42:50.789849
10090,-0.4763,-0.3553,0.7793,-63.140,-107.310,-32.340,380,389,363,377,330,2025-05-23T23:42:50.799428
10091,-0.4719,-0.4685,0.7696,-58.870,-107.170,-33.320,369,417,371,386,362,2025-05-23T23:42:50.808184
10092,-0.4582,-0.5314,0.7393,-47.880,-98.420,-30.520,411,408,367,385,355,2025-05-23T23:42:50.815629
10093,-0.4338,-0.5656,0.7208,-38.220,-83.720,-24.430,341,389,373,376,354,2025-05-23T23:42:50.823264
10094,-0.4016,-0.5431,0.6983,-13.230,-70.980,-16.520,403,420,337,359,360,2025-05-23T23:42:50.831209
10095,-0.3714,-0.5436,0.7237,1.400,-54.600,-11.060,376,400,311,313,309,2025-05-23T23:42:50.839800
10096,0.0000,0.0000,0.0000,0.000,0.000,0.000,381,425,334,351,336,2025-05-23T23:42:50.850505
10097,0.0000,0.0000,0.0000,0.000,0.000,0.000,295,397,361,352,358,2025-05-23T23:42:50.859400
10098,0.0000,0.0000,0.0000,0.000,0.000,0.000,402,428,331,368,340,2025-05-23T23:42:50.870619
10099,0.0000,0.0000,0.0000,0.000,0.000,0.000,382,382,358,367,361,2025-05-23T23:42:50.879603
10100,0.0000,0.0000,0.0000,0.000,0.000,0.000,377,333,354,333,371,2025-05-23T23:42:50.890980
10101,0.0000,0.0000,0.0000,0.000,0.000,0.000,393,330,357,354,380,2025-05-23T23:42:50.900608
10102,0.0000,0.0000,0.0000,0.000,0.000,0.000,384,402,362,365,370,2025-05-23T23:42:50.912936
10103,0.0000,0.0000,0.0000,0.000,0.000,0.000,352,418,340,314,327,2025-05-23T23:42:50.925849
10104,0.0000,0.0000,0.0000,0.000,0.000,0.000,380,426,359,332,374,2025-05-23T23:42:50.937030
10105,0.0000,0.0000,0.0000,0.000,0.000,0.000,366,372,362,337,372,2025-05-23T23:42:50.947293
10106,0.0000,0.0000,0.0000,0.000,0.000,0.000,385,402,367,351,376,2025-05-23T23:42:50.956081
10107,0.0000,0.0000,0.0000,0.000,0.000,0.000,386,424,337,340,336,2025-05-23T23:42:50.965270
10108,0.0000,0.0000,0.0000,0.000,0.000,0.000,396,411,347,330,379,2025-05-23T23:42:50.975052
10109,0.0000,0.0000,0.0000,0.000,0.000,0.000,414,410,372,317,389,2025-05-23T23:42:50.986102
10110,0.0000,0.0000,0.0000,0.000,0.000,0.000,429,399,384,351,374,2025-05-23T23:42:51.000154
10111,0.0000,0.0000,0.0000,0.000,0.000,0.000,429,416,389,361,383,2025-05-23T23:42:51.014454
10112,0.0000,0.0000,0.0000,0.000,0.000,0.000,395,419,390,356,380,2025-05-23T23:42:51.023881
10113,0.0000,0.0000,0.0000,0.000,0.000,0.000,422,362,378,368,348,2025-05-23T23:42:51.032535
10114,0.0000,0.0000,0.0000,0.000,0.000,0.000,412,415,391,360,358,2025-05-23T23:42:51.041601
10115,0.0000,0.0000,0.0000,0.000,0.000,0.000,423,418,396,306,375,2025-05-23T23:42:51.052064
10116,0.0000,0.0000,0.0000,0.000,0.000,0.000,425,426,400,332,345,2025-05-23T23:42:51.061905
10117,0.0000,0.0000,0.0000,0.000,0.000,0.000,423,435,396,312,357,2025-05-23T23:42:51.070915
10118,0.0000,0.0000,0.0000,0.000,0.000,0.000,422,417,394,326,387,2025-05-23T23:42:51.078684
10119,0.0000,0.0000,0.0000,0.000,0.000,0.000,406,405,375,341,388,2025-05-23T23:42:51.086981
10120,0.0000,0.0000,0.0000,0.000,0.000,0.000,416,426,388,362,395,2025-05-23T23:42:51.094509
10121,0.0000,0.0000,0.0000,0.000,0.000,0.000,390,426,377,363,380,2025-05-23T23:42:51.104688
10122,0.0000,0.0000,0.0000,0.000,0.000,0.000,423,414,346,374,397,2025-05-23T23:42:51.119174
10123,0.0000,0.0000,0.0000,0.000,0.000,0.000,413,418,297,365,393,2025-05-23T23:42:51.138385
10124,0.0000,0.0000,0.0000,0.000,0.000,0.000,410,415,337,364,340,2025-05-23T23:42:51.148732
10125,0.0000,0.0000,0.0000,0.000,0.000,0.000,411,419,367,340,357,2025-05-23T23:42:51.157931
10126,0.0000,0.0000,0.0000,0.000,0.000,0.000,397,414,368,320,376,2025-05-23T23:42:51.169952
10127,0.0000,0.0000,0.0000,0.000,0.000,0.000,416,399,372,304,372,2025-05-23T23:42:51.182521
10128,0.0000,0.0000,0.0000,0.000,0.000,0.000,421,395,363,352,330,2025-05-23T23:42:51.192329
10129,0.0000,0.0000,0.0000,0.000,0.000,0.000,360,390,388,366,374,2025-05-23T23:42:51.203757
10130,0.0000,0.0000,0.0000,0.000,0.000,0.000,415,408,378,308,326,2025-05-23T23:42:51.213649
10131,0.0000,0.0000,0.0000,0.000,0.000,0.000,412,382,393,330,358,2025-05-23T23:42:51.227341
10132,0.0000,0.0000,0.0000,0.000,0.000,0.000,417,340,394,353,363,2025-05-23T23:42:51.241607
10133,0.0000,0.0000,0.0000,0.000,0.000,0.000,428,344,355,352,343,2025-05-23T23:42:51.254342
10134,0.0000,0.0000,0.0000,0.000,0.000,0.000,345,336,377,357,353,2025-05-23T23:42:51.266962
10135,0.0000,0.0000,0.0000,0.000,0.000,0.000,401,381,376,324,324,2025-05-23T23:42:51.275879
10136,0.0000,0.0000,0.0000,0.000,0.000,0.000,422,373,379,290,350,2025-05-23T23:42:51.288434
10137,0.0000,0.0000,0.0000,0.000,0.000,0.000,408,367,371,343,354,2025-05-23T23:42:51.301591
10138,0.0000,0.0000,0.0000,0.000,0.000,0.000,410,412,386,301,323,2025-05-23T23:42:51.314448
10139,0.0000,0.0000,0.0000,0.000,0.000,0.000,412,353,388,305,360,2025-05-23T23:42:51.325867
10140,0.0000,0.0000,0.0000,0.000,0.000,0.000,374,422,404,293,357,2025-05-23T23:42:51.338383
10141,0.0000,0.0000,0.0000,0.000,0.000,0.000,382,415,352,308,379,2025-05-23T23:42:51.349357
10142,0.0000,0.0000,0.0000,0.000,0.000,0.000,408,359,371,340,333,2025-05-23T23:42:51.359730
10143,0.0000,0.0000,0.0000,0.000,0.000,0.000,415,396,384,369,357,2025-05-23T23:42:51.371129
10144,0.0000,0.0000,0.0000,0.000,0.000,0.000,388,397,389,351,367,2025-05-23T23:42:51.384121
10145,0.0000,0.0000,0.0000,0.000,0.000,0.000,417,415,383,300,324,2025-05-23T23:42:51.393754
10146,0.0000,0.0000,0.0000,0.000,0.000,0.000,420,402,397,350,369,2025-05-23T23:42:51.407059
10147,0.0000,0.0000,0.0000,0.000,0.000,0.000,396,389,384,316,375,2025-05-23T23:42:51.419567
10148,0.0000,0.0000,0.0000,0.000,0.000,0.000,338,391,385,351,371,2025-05-23T23:42:51.429841
10149,0.0000,0.0000,0.0000,0.000,0.000,0.000,396,423,380,343,374,2025-05-23T23:42:51.440787
10150,0.0000,0.0000,0.0000,0.000,0.000,0.000,390,382,373,361,377,2025-05-23T23:42:51.450650
10151,0.0000,0.0000,0.0000,0.000,0.000,0.000,391,415,343,359,384,2025-05-23T23:42:51.461024
10152,0.0000,0.0000,0.0000,0.000,0.000,0.000,430,404,371,346,359,2025-05-23T23:42:51.472450
10153,0.0000,0.0000,0.0000,0.000,0.000,0.000,408,391,385,359,384,2025-05-23T23:42:51.482800
10154,0.0000,0.0000,0.0000,0.000,0.000,0.000,399,389,375,343,375,2025-05-23T23:42:51.492577
10155,0.0000,0.0000,0.0000,0.000,0.000,0.000,416,411,369,344,374,2025-05-23T23:42:51.501631
10156,0.0000,0.0000,0.0000,0.000,0.000,0.000,427,431,367,348,325,2025-05-23T23:42:51.510191
10157,0.0000,0.0000,0.0000,0.000,0.000,0.000,419,415,368,352,356,2025-05-23T23:42:51.518881
10158,0.0000,0.0000,0.0000,0.000,0.000,0.000,411,409,384,361,376,2025-05-23T23:42:51.538123
10159,0.0000,0.0000,0.0000,0.000,0.000,0.000,430,430,394,369,366,2025-05-23T23:42:51.574110
10160,0.0000,0.0000,0.0000,0.000,0.000,0.000,378,385,346,351,357,2025-05-23T23:42:51.588089
10161,0.0000,0.0000,0.0000,0.000,0.000,0.000,388,400,338,346,371,2025-05-23T23:42:51.601045
10162,0.0000,0.0000,0.0000,0.000,0.000,0.000,394,399,361,342,371,2025-05-23T23:42:51.611201
10163,0.0000,0.0000,0.0000,0.000,0.000,0.000,387,415,378,352,383,2025-05-23T23:42:51.620762
10164,0.0000,0.0000,0.0000,0.000,0.000,0.000,419,433,374,351,381,2025-05-23T23:42:51.632757
10165,0.0000,0.0000,0.0000,0.000,0.000,0.000,422,357,370,344,379,2025-05-23T23:42:51.646934
10166,0.0000,0.0000,0.0000,0.000,0.000,0.000,424,393,369,358,383,2025-05-23T23:42:51.656724
10167,0.0000,0.0000,0.0000,0.000,0.000,0.000,404,390,378,346,391,2025-05-23T23:42:51.667836
10168,0.0000,0.0000,0.0000,0.000,0.000,0.000,415,418,375,351,383,2025-05-23T23:42:51.676675
10169,0.0000,0.0000,0.0000,0.000,0.000,0.000,400,360,389,363,385,2025-05-23T23:42:51.689333
10170,0.0000,0.0000,0.0000,0.000,0.000,0.000,413,382,394,366,338,2025-05-23T23:42:51.699047
10171,0.0000,0.0000,0.0000,0.000,0.000,0.000,403,405,388,357,362,2025-05-23T23:42:51.710034
10172,0.0000,0.0000,0.0000,0.000,0.000,0.000,399,394,391,369,375,2025-05-23T23:42:51.718593
10173,0.0000,0.0000,0.0000,0.000,0.000,0.000,392,406,394,387,375,2025-05-23T23:42:51.732170
10174,0.0000,0.0000,0.0000,0.000,0.000,0.000,411,402,380,346,385,2025-05-23T23:42:51.743603
10175,0.0000,0.0000,0.0000,0.000,0.000,0.000,420,393,390,341,365,2025-05-23T23:42:51.753538
10176,0.0000,0.0000,0.0000,0.000,0.000,0.000,419,416,348,330,382,2025-05-23T23:42:51.765603
10177,0.0000,0.0000,0.0000,0.000,0.000,0.000,418,387,370,368,386,2025-05-23T23:42:51.776063
10178,0.0000,0.0000,0.0000,0.000,0.000,0.000,396,370,370,325,383,2025-05-23T23:42:51.789416
10179,0.0000,0.0000,0.0000,0.000,0.000,0.000,412,400,383,358,390,2025-05-23T23:42:51.800416
10180,0.0000,0.0000,0.0000,0.000,0.000,0.000,430,420,390,389,377,2025-05-23T23:42:51.809766
10181,0.0000,0.0000,0.0000,0.000,0.000,0.000,402,426,383,369,367,2025-05-23T23:42:51.822323
10182,0.0000,0.0000,0.0000,0.000,0.000,0.000,416,426,376,326,361,2025-05-23T23:42:51.834791
10183,0.0000,0.0000,0.0000,0.000,0.000,0.000,426,432,384,374,388,2025-05-23T23:42:51.849896
10184,0.0000,0.0000,0.0000,0.000,0.000,0.000,398,426,380,378,376,2025-05-23T23:42:51.860704
10185,0.0000,0.0000,0.0000,0.000,0.000,0.000,418,419,381,376,376,2025-05-23T23:42:51.872059
10186,0.0000,0.0000,0.0000,0.000,0.000,0.000,410,437,391,380,331,2025-05-23T23:42:51.883530
10187,0.0000,0.0000,0.0000,0.000,0.000,0.000,417,410,352,369,353,2025-05-23T23:42:51.897916
10188,0.0000,0.0000,0.0000,0.000,0.000,0.000,394,395,368,390,366,2025-05-23T23:42:51.912483
10189,0.0000,0.0000,0.0000,0.000,0.000,0.000,418,427,377,388,361,2025-05-23T23:42:51.926220
10190,0.0000,0.0000,0.0000,0.000,0.000,0.000,405,413,372,372,333,2025-05-23T23:42:51.940810
10191,0.0000,0.0000,0.0000,0.000,0.000,0.000,393,413,365,379,363,2025-05-23T23:42:51.954152
10192,0.0000,0.0000,0.0000,0.000,0.000,0.000,394,423,384,391,354,2025-05-23T23:42:51.968709
10193,0.0000,0.0000,0.0000,0.000,0.000,0.000,400,430,396,381,358,2025-05-23T23:42:51.980647
10194,0.0000,0.0000,0.0000,0.000,0.000,0.000,404,303,389,383,365,2025-05-23T23:42:51.991272
10195,0.0000,0.0000,0.0000,0.000,0.000,0.000,382,401,382,379,324,2025-05-23T23:42:52.004340
10196,0.0000,0.0000,0.0000,0.000,0.000,0.000,423,388,379,366,273,2025-05-23T23:42:52.018014
10197,0.0000,0.0000,0.0000,0.000,0.000,0.000,405,415,382,381,323,2025-05-23T23:42:52.032564
10198,0.0000,0.0000,0.0000,0.000,0.000,0.000,410,384,382,374,359,2025-05-23T23:42:52.049714
10199,0.0000,0.0000,0.0000,0.000,0.000,0.000,412,427,376,349,377,2025-05-23T23:42:52.062059
10200,0.0000,0.0000,0.0000,0.000,0.000,0.000,408,415,385,363,361,2025-05-23T23:42:52.078766
10201,0.0000,0.0000,0.0000,0.000,0.000,0.000,395,428,361,376,364,2025-05-23T23:42:52.095432
10202,0.0000,0.0000,0.0000,0.000,0.000,0.000,399,425,383,359,323,2025-05-23T23:42:52.111855
10203,0.0000,0.0000,0.0000,0.000,0.000,0.000,403,420,345,377,313,2025-05-23T23:42:52.128220
10204,0.0000,0.0000,0.0000,0.000,0.000,0.000,414,389,323,373,341,2025-05-23T23:42:52.145119
10205,0.0000,0.0000,0.0000,0.000,0.000,0.000,412,409,356,326,360,2025-05-23T23:42:52.158588
10206,0.0000,0.0000,0.0000,0.000,0.000,0.000,421,347,355,374,363,2025-05-23T23:42:52.178579
10207,0.0000,0.0000,0.0000,0.000,0.000,0.000,424,408,378,385,377,2025-05-23T23:42:52.193701
10208,0.0000,0.0000,0.0000,0.000,0.000,0.000,349,405,379,367,367,2025-05-23T23:42:52.206602
10209,0.0000,0.0000,0.0000,0.000,0.000,0.000,387,397,368,384,388,2025-05-23T23:42:52.218968
10210,0.0000,0.0000,0.0000,0.000,0.000,0.000,398,419,384,370,390,2025-05-23T23:42:52.234073
10211,0.0000,0.0000,0.0000,0.000,0.000,0.000,412,379,381,385,333,2025-05-23T23:42:52.248135
10212,0.0000,0.0000,0.0000,0.000,0.000,0.000,412,414,390,346,376,2025-05-23T23:42:52.266027
10213,0.0000,0.0000,0.0000,0.000,0.000,0.000,403,404,356,368,380,2025-05-23T23:42:52.279819
10214,0.0000,0.0000,0.0000,0.000,0.000,0.000,391,408,330,365,384,2025-05-23T23:42:52.294018
10215,0.0000,0.0000,0.0000,0.000,0.000,0.000,399,395,316,359,377,2025-05-23T23:42:52.314978
10216,0.0000,0.0000,0.0000,0.000,0.000,0.000,389,397,343,375,384,2025-05-23T23:42:52.327089
10217,0.0000,0.0000,0.0000,0.000,0.000,0.000,417,415,364,389,381,2025-05-23T23:42:52.341530
10218,0.0000,0.0000,0.0000,0.000,0.000,0.000,419,415,378,345,329,2025-05-23T23:42:52.356277
10219,0.0000,0.0000,0.0000,0.000,0.000,0.000,401,411,372,383,365,2025-05-23T23:42:52.372703
10220,0.0000,0.0000,0.0000,0.000,0.000,0.000,396,433,384,386,343,2025-05-23T23:42:52.397690
10221,0.0000,0.0000,0.0000,0.000,0.000,0.000,396,418,373,365,357,2025-05-23T23:42:52.416448
10222,0.0000,0.0000,0.0000,0.000,0.000,0.000,384,405,383,379,374,2025-05-23T23:42:52.429804
10223,0.0000,0.0000,0.0000,0.000,0.000,0.000,422,431,373,364,289,2025-05-23T23:42:52.445457
10224,0.0000,0.0000,0.0000,0.000,0.000,0.000,415,424,352,381,348,2025-05-23T23:42:52.463042
10225,0.0000,0.0000,0.0000,0.000,0.000,0.000,405,427,356,329,353,2025-05-23T23:42:52.477488
10226,0.0000,0.0000,0.0000,0.000,0.000,0.000,391,347,357,359,363,2025-05-23T23:42:52.491246
10227,0.0000,0.0000,0.0000,0.000,0.000,0.000,416,418,370,374,382,2025-05-23T23:42:52.504456
10228,0.0000,0.0000,0.0000,0.000,0.000,0.000,360,407,383,368,369,2025-05-23T23:42:52.517660
