SeqNum,AccX,AccY,AccZ,GyroX,GyroY,GyroZ,Flex,Force1,Force2,Force3,Force4,TimestampReception
1,-0.0766,0.2660,0.9809,-0.490,-1.960,-1.050,0.95,0.0184,0.0762,0.0300,0.0262,2025-06-11T10:00:18.357544
2,-0.0732,0.2621,0.9833,-0.280,-2.870,-0.280,0.95,0.0368,0.0508,0.0300,0.0087,2025-06-11T10:00:18.357544
3,-0.0742,0.2616,0.9755,-0.070,-2.240,-0.210,0.95,0.0184,0.0254,0.0300,0.0087,2025-06-11T10:00:18.357544
4,-0.0805,0.2645,0.9745,-0.070,-3.220,-0.350,0.95,0.0368,0.0000,0.0401,0.0087,2025-06-11T10:00:18.357544
5,-0.0786,0.2611,0.9814,0.490,-4.060,0.070,0.95,0.0368,0.0254,0.0300,0.0174,2025-06-11T10:00:18.357544
6,-0.0698,0.2635,0.9853,0.350,-3.220,-0.700,0.95,0.0184,0.0254,0.0200,0.0087,2025-06-11T10:00:18.357544
7,-0.0776,0.2630,0.9775,-0.490,-2.240,-0.280,0.95,0.0368,0.0254,0.0300,0.0087,2025-06-11T10:00:18.357544
8,-0.0742,0.2611,0.9789,-0.210,-2.590,-0.560,0.95,0.0368,0.0508,0.0300,0.0087,2025-06-11T10:00:18.357544
9,-0.0737,0.2640,0.9809,-0.210,-3.920,-0.350,0.95,0.0368,0.0254,0.0300,0.0174,2025-06-11T10:00:18.357544
10,-0.0771,0.2611,0.9794,0.210,-3.360,0.000,0.95,0.0184,0.0254,0.0200,0.0087,2025-06-11T10:00:18.357544
11,-0.0737,0.2640,0.9823,0.280,-2.240,-0.770,0.95,0.0368,0.0254,0.0300,0.0174,2025-06-11T10:00:18.357544
12,-0.0800,0.2616,0.9799,-0.070,-3.080,-0.070,0.94,0.0184,0.0254,0.0300,0.0087,2025-06-11T10:00:18.357544
13,-0.0732,0.2635,0.9784,-0.140,-3.430,-0.350,0.95,0.0184,0.0254,0.0200,0.0000,2025-06-11T10:00:18.357544
14,-0.0737,0.2635,0.9784,-0.140,-3.080,-0.490,0.95,0.0368,0.0254,0.0401,0.0087,2025-06-11T10:00:18.357544
15,-0.0815,0.2606,0.9804,-0.280,-2.800,-0.210,0.95,0.0184,0.0508,0.0401,0.0087,2025-06-11T10:00:18.357544
16,-0.0737,0.2611,0.9814,0.210,-3.080,-0.350,0.95,0.0184,0.0254,0.0300,0.0174,2025-06-11T10:00:18.357544
17,-0.0791,0.2625,0.9770,0.210,-3.290,-0.140,0.94,0.0368,0.0508,0.0300,0.0087,2025-06-11T10:00:18.357544
18,-0.0737,0.2596,0.9799,-0.070,-3.080,-0.350,0.94,0.0184,0.0508,0.0300,0.0087,2025-06-11T10:00:18.542415
19,-0.0712,0.2640,0.9819,17.640,-2.800,-0.700,0.95,0.0368,0.0254,0.0300,0.0087,2025-06-11T10:00:18.542415
20,-0.0815,0.2650,0.9780,-0.420,-3.220,0.000,0.95,0.0368,0.0508,0.0300,0.0174,2025-06-11T10:00:18.542415
21,-0.0761,0.2621,0.9809,0.070,-2.870,-0.280,0.95,0.0552,0.0254,0.0401,0.0087,2025-06-11T10:00:18.542415
22,-0.0800,0.2621,0.9804,0.210,-3.290,-0.280,0.95,0.0184,0.0508,0.0300,0.0000,2025-06-11T10:00:18.542415
23,-0.0742,0.2621,0.9833,0.070,-3.290,-0.280,0.95,0.0368,0.0254,0.0300,0.0087,2025-06-11T10:00:18.542415
24,-0.0722,0.2645,0.9794,-0.140,-2.730,-0.770,0.95,0.0184,0.0508,0.0300,0.0174,2025-06-11T10:00:18.542415
25,-0.0805,0.2611,0.9804,-0.560,-2.940,-0.070,0.95,0.0184,0.0254,0.0300,0.0087,2025-06-11T10:00:18.542415
26,-0.0791,0.2645,0.9775,0.140,-3.150,0.070,0.95,0.0000,0.0508,0.0200,0.0174,2025-06-11T10:00:18.542415
27,-0.0761,0.2645,0.9814,0.070,-3.290,-0.490,0.95,0.0184,0.0254,0.0300,0.0000,2025-06-11T10:00:18.542415
28,-0.0752,0.2596,0.9819,0.140,-3.150,-0.210,0.95,0.0368,0.0254,0.0300,0.0087,2025-06-11T10:00:18.542415
29,-0.0717,0.2625,0.9809,-0.070,-2.940,-0.560,0.95,0.0184,0.0508,0.0401,0.0087,2025-06-11T10:00:18.542415
30,-0.0800,0.2630,0.9794,-0.490,-3.290,-0.140,0.95,0.0368,0.1018,0.0300,0.0174,2025-06-11T10:00:18.542415
31,-0.0732,0.2596,0.9809,-0.070,-3.220,17.360,0.94,0.0184,0.0254,0.0200,0.0174,2025-06-11T10:00:18.542415
32,-0.0737,0.2621,0.9780,-0.280,-2.870,-0.490,0.95,0.0368,0.0508,0.0401,0.0174,2025-06-11T10:00:18.797869
33,-0.0752,0.2630,0.9789,0.070,-2.870,-0.280,0.95,0.0184,0.1018,0.0300,0.0174,2025-06-11T10:00:18.797869
34,-0.0732,0.2616,0.9809,-0.070,-3.080,-0.420,0.95,0.0368,0.0000,0.0401,0.0087,2025-06-11T10:00:18.797869
35,-0.0805,0.2640,0.9814,0.070,-3.360,-0.210,0.95,0.0368,0.1273,0.0401,0.0087,2025-06-11T10:00:18.797869
36,-0.0732,0.2621,0.9804,-0.210,-2.800,0.070,0.95,0.0368,0.0254,0.0300,0.0087,2025-06-11T10:00:18.797869
37,-0.0722,0.2674,0.9784,-0.280,-2.940,-0.490,0.95,0.0368,0.0254,0.0300,0.0087,2025-06-11T10:00:18.797869
38,-0.0805,0.2630,0.9804,-0.140,-3.430,0.000,0.95,0.0184,0.0508,0.0401,0.0087,2025-06-11T10:00:18.797869
39,-0.0752,0.2601,0.9784,0.770,-3.150,-0.280,0.94,0.0552,0.0254,0.0300,0.0087,2025-06-11T10:00:18.797869
40,-0.0752,0.2655,0.9823,0.140,-2.940,-0.490,0.95,0.0184,0.0254,0.0300,0.0174,2025-06-11T10:00:18.797869
41,-0.0722,0.2586,0.9814,-0.210,-2.800,-0.350,0.95,0.0184,0.0254,0.0401,0.0087,2025-06-11T10:00:18.797869
42,-0.0703,0.2630,0.9784,-0.210,-2.940,-0.630,0.95,0.0368,0.0508,0.0401,0.0087,2025-06-11T10:00:18.797869
43,-0.0825,0.2630,0.9780,-0.070,-3.290,0.000,0.95,0.0184,0.0254,0.0401,0.0087,2025-06-11T10:00:18.797869
44,-0.0742,0.2650,0.9819,0.630,-3.080,-0.140,0.95,0.0368,0.0254,0.0300,0.0087,2025-06-11T10:00:18.797869
45,-0.0776,0.2630,0.9804,0.350,-3.080,-0.350,0.95,0.0368,0.0254,0.0300,0.0087,2025-06-11T10:00:18.929298
46,-0.0795,0.2645,0.9770,-0.350,-2.660,-0.350,0.95,0.0184,0.0254,0.0401,0.0174,2025-06-11T10:00:18.929298
47,-0.0742,0.2645,0.9780,-0.350,-3.080,-0.420,0.95,0.0552,0.0508,0.0401,0.0174,2025-06-11T10:00:18.929298
48,-0.0747,0.2664,0.9823,-0.210,-3.710,-0.210,0.95,0.0368,0.0508,0.0401,0.0174,2025-06-11T10:00:18.929298
49,-0.0791,0.2611,0.9804,-0.210,-3.010,-0.140,0.95,0.0368,0.0508,0.0401,0.0174,2025-06-11T10:00:18.929298
50,-0.0761,0.2606,0.9809,0.210,-2.870,-0.630,0.95,0.0552,0.0508,0.0401,0.0174,2025-06-11T10:00:18.929298
51,-0.0786,0.2582,0.9823,-0.070,-3.500,0.070,0.95,0.0368,0.0254,0.0401,0.0174,2025-06-11T10:00:18.929298
52,-0.0717,0.2606,0.9780,0.210,-2.940,-0.490,0.95,0.0368,0.0508,0.0300,0.0174,2025-06-11T10:00:18.929298
53,-0.0742,0.2660,0.9819,-0.560,-2.940,-0.560,0.95,0.0184,0.0254,0.0401,0.0087,2025-06-11T10:00:18.929298
54,-0.0771,0.2635,0.9819,-0.210,-3.360,-0.070,0.96,0.0184,0.0508,0.0401,0.0174,2025-06-11T10:00:18.929298
55,-0.0786,0.2664,0.9794,0.070,-3.150,-0.280,0.95,0.0000,0.0762,0.0401,0.0174,2025-06-11T10:00:18.929298
56,-0.0810,0.2660,0.9760,0.000,-3.080,-0.140,0.94,0.0184,0.0254,0.0401,0.0087,2025-06-11T10:00:18.929298
57,-0.0742,0.2645,0.9823,0.210,-3.080,-0.490,0.94,0.0184,0.0254,0.0300,0.0000,2025-06-11T10:00:18.929298
58,-0.0756,0.2606,0.9819,-0.280,-3.430,-0.070,0.94,0.0184,0.0254,0.0300,0.0174,2025-06-11T10:00:18.929298
59,-0.0791,0.2621,0.9784,-0.350,-2.940,-0.210,0.95,0.0184,0.0254,0.0300,0.0174,2025-06-11T10:00:18.929298
60,-0.0737,0.2625,0.9843,-0.420,-2.940,-0.490,0.94,0.0000,0.0254,0.0401,0.0174,2025-06-11T10:00:18.929298
61,-0.0795,0.2611,0.9804,0.210,-3.500,0.000,0.95,0.0368,0.0508,0.0300,0.0087,2025-06-11T10:00:19.067003
62,-0.0756,0.2616,0.9794,0.560,-2.800,-0.490,0.95,0.0184,0.0254,0.0401,0.0087,2025-06-11T10:00:19.067003
63,-0.0771,0.2621,0.9833,0.000,-3.150,-0.280,0.95,0.0368,0.0508,0.0401,0.0087,2025-06-11T10:00:19.067003
64,-0.0766,0.2616,0.9789,-0.420,-3.430,-0.070,0.95,0.0368,0.0508,0.0300,0.0087,2025-06-11T10:00:19.067003
65,-0.0712,0.2650,0.9804,-0.490,-2.870,-0.630,0.96,0.0368,0.0254,0.0300,0.0174,2025-06-11T10:00:19.067003
66,-0.0776,0.2645,0.9784,0.070,-3.220,-0.210,0.95,0.0368,0.0508,0.0300,0.0174,2025-06-11T10:00:19.067003
67,-0.0786,0.2601,0.9789,0.350,-3.360,-0.140,0.95,0.0368,0.0000,0.0300,0.0174,2025-06-11T10:00:19.067003
68,-0.0756,0.2621,0.9799,0.280,-2.940,-0.490,0.95,0.0368,0.0762,0.0300,0.0087,2025-06-11T10:00:19.067003
69,-0.0776,0.2625,0.9780,-0.630,-3.080,-0.140,0.94,0.0368,0.0254,0.0300,0.0087,2025-06-11T10:00:19.067003
70,-0.0698,0.2645,0.9799,-0.350,-3.010,-0.560,0.94,0.0552,0.0254,0.0401,0.0174,2025-06-11T10:00:19.067003
71,-0.0747,0.2630,0.9823,-0.140,-3.360,-0.420,0.95,0.0184,0.0254,0.0501,0.0087,2025-06-11T10:00:19.153863
72,-0.0800,0.2611,0.9804,-0.140,-3.150,-0.070,0.94,0.0184,0.0254,0.0200,0.0087,2025-06-11T10:00:19.153863
73,-0.0742,0.2616,0.9809,0.420,-3.010,-0.490,0.95,0.0000,0.0254,0.0300,0.0000,2025-06-11T10:00:19.153863
74,-0.0805,0.2606,0.9789,-0.280,-3.080,-0.140,0.95,0.0184,0.0254,0.0401,0.0174,2025-06-11T10:00:19.153863
75,-0.0722,0.2635,0.9789,-0.140,-2.800,-0.560,0.95,0.0368,0.0508,0.0300,0.0174,2025-06-11T10:00:19.153863
76,-0.0732,0.2660,0.9823,-0.210,-3.220,-0.560,0.95,0.0184,0.0254,0.0401,0.0174,2025-06-11T10:00:19.153863
77,-0.0795,0.2625,0.9809,-0.280,-3.360,0.000,0.95,0.0552,0.0254,0.0401,0.0087,2025-06-11T10:00:19.153863
78,-0.0756,0.2625,0.9794,0.140,-3.010,-0.490,0.95,0.0368,0.0254,0.0300,0.0087,2025-06-11T10:00:19.354707
79,-0.0781,0.2625,0.9780,0.070,-3.150,-0.140,0.95,0.0368,0.0508,0.0401,0.0087,2025-06-11T10:00:19.354707
80,-0.0712,0.2601,0.9799,0.280,-3.010,17.360,0.94,0.0368,0.0762,0.0401,0.0087,2025-06-11T10:00:19.354707
81,-0.0737,0.2630,0.9799,-0.280,-2.870,-0.630,0.95,0.0368,0.1018,0.0401,0.0087,2025-06-11T10:00:19.354707
82,-0.0800,0.2630,0.9789,-0.560,-3.150,0.000,0.95,0.0184,0.0254,0.0300,0.0087,2025-06-11T10:00:19.354707
83,-0.0737,0.2601,0.9804,0.000,-2.940,-0.350,0.94,0.0368,0.0254,0.0300,0.0087,2025-06-11T10:00:19.354707
84,-0.0800,0.2606,0.9794,-0.070,-3.290,-0.140,0.95,0.0184,0.0254,0.0300,0.0087,2025-06-11T10:00:19.354707
85,-0.0737,0.2635,0.9804,0.210,-3.080,-0.350,0.95,0.0184,0.0508,0.0200,0.0000,2025-06-11T10:00:19.354707
86,-0.0712,0.2630,0.9804,-0.070,-2.660,-0.700,0.95,0.0922,0.0254,0.0300,0.0000,2025-06-11T10:00:19.354707
87,-0.0771,0.2621,0.9755,-0.420,-2.940,-0.280,0.95,0.0368,0.0254,0.0300,0.0174,2025-06-11T10:00:19.354707
88,-0.0737,0.2650,0.9794,-0.210,-3.080,-0.140,0.94,0.0552,0.0508,0.0401,0.0087,2025-06-11T10:00:19.354707
89,-0.0771,0.2645,0.9828,-0.070,-3.290,-0.210,0.95,0.0000,0.0254,0.0300,0.0087,2025-06-11T10:00:19.354707
90,-0.0771,0.2586,0.9780,0.280,-2.940,-0.280,0.95,0.0368,0.0000,0.0300,0.0087,2025-06-11T10:00:19.354707
91,-0.0717,0.2621,0.9804,0.140,-2.870,-0.700,0.94,0.0184,0.0000,0.0200,0.0174,2025-06-11T10:00:19.354707
92,-0.0825,0.2616,0.9828,-0.420,-3.570,0.210,0.95,0.0184,0.0254,0.0300,0.0174,2025-06-11T10:00:19.354707
93,-0.0698,0.2611,0.9765,-0.210,-2.800,-0.560,0.96,0.0552,0.0508,0.0401,0.0174,2025-06-11T10:00:19.433473
94,-0.0776,0.2645,0.9819,-0.280,-3.010,-0.490,0.95,0.0000,0.0000,0.0401,0.0174,2025-06-11T10:00:19.433473
95,-0.0786,0.2625,0.9843,-0.070,-3.430,0.000,0.94,0.0184,0.0254,0.0401,0.0174,2025-06-11T10:00:19.433473
96,-0.0747,0.2611,0.9784,0.280,-2.870,-0.560,0.95,0.0368,0.0508,0.0401,0.0174,2025-06-11T10:00:19.434484
97,-0.0786,0.2611,0.9784,-0.630,-2.940,-0.140,0.95,0.0368,0.0254,0.0300,0.0174,2025-06-11T10:00:19.434484
98,-0.0722,0.2625,0.9823,-0.210,-3.220,-0.560,0.95,0.0184,0.0254,0.0300,0.0174,2025-06-11T10:00:19.525971
99,-0.0737,0.2650,0.9804,-0.280,-3.150,-0.490,0.95,0.0368,0.0508,0.0300,0.0087,2025-06-11T10:00:19.525971
100,-0.0766,0.2625,0.9780,-0.420,-2.870,-0.070,0.95,0.0184,0.0508,0.0401,0.0087,2025-06-11T10:00:19.525971
101,-0.0732,0.2606,0.9814,0.280,-2.870,-0.420,0.95,0.0184,0.0254,0.0401,0.0087,2025-06-11T10:00:19.525971
102,-0.0766,0.2611,0.9794,0.070,-3.570,-0.140,0.95,0.0184,0.0508,0.0501,0.0174,2025-06-11T10:00:19.525971
103,-0.0727,0.2616,0.9789,-0.140,-3.010,-0.560,0.95,0.0184,0.0254,0.0300,0.0087,2025-06-11T10:00:19.525971
104,-0.0717,0.2625,0.9819,-0.420,-2.730,-0.630,0.95,0.0368,0.0254,0.0401,0.0087,2025-06-11T10:00:19.525971
105,-0.0795,0.2630,0.9799,-0.490,-3.360,0.070,0.96,0.0368,0.0508,0.0401,0.0174,2025-06-11T10:00:19.793056
106,-0.0756,0.2611,0.9799,0.210,-3.010,-0.280,0.95,0.0552,0.0508,0.0401,0.0087,2025-06-11T10:00:19.793056
107,-0.0795,0.2635,0.9794,0.210,-3.220,-0.210,0.94,0.0184,0.0508,0.0300,0.0174,2025-06-11T10:00:19.793056
108,-0.0737,0.2621,0.9789,0.000,-2.870,-0.420,0.95,0.0368,0.0508,0.0401,0.0174,2025-06-11T10:00:19.794063
109,-0.0722,0.2645,0.9809,-0.140,-2.940,-0.630,0.95,0.0368,0.0254,0.0501,0.0000,2025-06-11T10:00:19.794063
110,-0.0791,0.2606,0.9799,-0.420,-3.360,-0.070,0.94,0.0184,0.0254,0.0300,0.0087,2025-06-11T10:00:19.794063
111,-0.0737,0.2611,0.9804,0.070,-2.940,-0.560,0.95,0.0184,0.0254,0.0300,0.0087,2025-06-11T10:00:19.794063
112,-0.0776,0.2625,0.9799,0.000,-3.080,-0.420,0.95,0.0368,0.0508,0.0300,0.0087,2025-06-11T10:00:19.794063
113,-0.0756,0.2611,0.9789,0.070,-3.010,-0.210,0.95,0.0184,0.0254,0.0300,0.0174,2025-06-11T10:00:19.794063
114,-0.0781,0.2625,0.9789,0.000,-3.010,-0.560,0.95,0.0368,0.0254,0.0300,0.0087,2025-06-11T10:00:19.794063
115,-0.0791,0.2655,0.9789,-0.350,-3.290,0.000,0.95,0.0184,0.0508,0.0300,0.0174,2025-06-11T10:00:19.794063
116,-0.0747,0.2650,0.9799,-0.070,-2.940,-0.490,0.95,0.0552,0.0254,0.0401,0.0087,2025-06-11T10:00:19.794063
117,-0.0771,0.2655,0.9794,-0.210,-3.220,-0.420,0.94,0.0368,0.0254,0.0300,0.0087,2025-06-11T10:00:19.794063
118,-0.0771,0.2630,0.9789,0.140,-3.290,-0.140,0.95,0.0184,0.0508,0.0401,0.0174,2025-06-11T10:00:19.794063
119,-0.0766,0.2625,0.9770,0.350,-2.940,-0.490,0.95,0.0184,0.0508,0.0401,0.0087,2025-06-11T10:00:19.794063
120,-0.0800,0.2645,0.9804,-0.560,-3.220,-0.140,0.95,0.0368,0.0254,0.0300,0.0174,2025-06-11T10:00:19.794063
121,-0.0717,0.2645,0.9823,-0.350,-3.010,-0.490,0.95,0.0184,0.0508,0.0401,0.0174,2025-06-11T10:00:19.795059
122,-0.0722,0.2645,0.9804,-0.280,-3.360,-0.630,0.95,0.0368,0.0000,0.0100,0.0087,2025-06-11T10:00:19.971403
123,-0.0810,0.2586,0.9775,-0.140,-3.010,0.000,0.95,0.0184,0.0254,0.0401,0.0174,2025-06-11T10:00:19.971403
124,-0.0752,0.2645,0.9819,0.560,-2.940,-0.700,0.94,0.0368,0.0254,0.0300,0.0174,2025-06-11T10:00:19.971403
125,-0.0795,0.2621,0.9799,-0.350,-3.220,-0.140,0.95,0.0368,0.0508,0.0300,0.0174,2025-06-11T10:00:19.971403
126,-0.0712,0.2650,0.9809,-0.420,-2.800,-0.630,0.95,0.0368,0.0508,0.0401,0.0174,2025-06-11T10:00:19.971403
127,-0.0800,0.2635,0.9804,-0.350,-3.150,-0.420,0.95,0.0184,0.0508,0.0401,0.0087,2025-06-11T10:00:19.971403
128,-0.0820,0.2625,0.9804,-17.570,-3.430,0.070,0.95,0.0184,0.0254,0.0401,0.0174,2025-06-11T10:00:19.971403
129,-0.0742,0.2650,0.9804,0.420,-3.010,-0.630,0.95,0.0368,0.0762,0.0200,0.0174,2025-06-11T10:00:19.971403
130,-0.0771,0.2630,0.9789,-0.210,-3.080,-0.420,0.95,0.0184,0.0508,0.0300,0.0087,2025-06-11T10:00:19.971403
131,-0.0747,0.2625,0.9794,-0.210,-3.080,-0.280,0.94,0.0184,0.0254,0.0300,0.0174,2025-06-11T10:00:19.971403
132,-0.0781,0.2645,0.9780,-0.280,-3.150,-0.560,0.94,0.0368,0.0254,0.0200,0.0087,2025-06-11T10:00:19.971403
133,-0.0815,0.2635,0.9814,-0.420,-3.290,0.070,0.95,0.0368,0.0508,0.0300,0.0087,2025-06-11T10:00:19.971403
134,-0.0732,0.2645,0.9804,0.350,-2.940,-0.560,0.95,0.0184,0.0508,0.0401,0.0087,2025-06-11T10:00:19.971403
135,-0.0776,0.2630,0.9789,0.070,-3.080,-0.420,0.95,0.0368,0.0508,0.0300,0.0087,2025-06-11T10:00:19.971403
136,-0.0747,0.2616,0.9784,0.000,-3.010,-0.350,0.95,0.0184,0.0254,0.0300,0.0174,2025-06-11T10:00:19.971403
137,-0.0776,0.2616,0.9794,-0.210,-3.150,-0.560,0.95,0.0184,0.0508,0.0300,0.0174,2025-06-11T10:00:19.971403
138,-0.0805,0.2606,0.9809,-0.280,-3.360,0.000,0.95,0.0184,0.0000,0.0300,0.0174,2025-06-11T10:00:19.971403
139,-0.0727,0.2635,0.9794,-0.070,-2.870,-0.630,0.95,0.0368,0.0254,0.0401,0.0087,2025-06-11T10:00:20.065015
140,-0.0747,0.2621,0.9794,-0.140,-3.220,-0.490,0.95,0.0368,0.0254,0.0300,0.0174,2025-06-11T10:00:20.065015
141,-0.0781,0.2606,0.9814,0.210,-3.290,-0.070,0.95,0.0368,0.0254,0.0300,0.0174,2025-06-11T10:00:20.065015
142,-0.0732,0.2601,0.9794,0.350,-3.010,-0.490,0.95,0.0368,0.0508,0.0300,0.0087,2025-06-11T10:00:20.065015
143,-0.0805,0.2635,0.9799,-0.560,-3.080,-0.210,0.95,0.0368,0.0254,0.0300,0.0087,2025-06-11T10:00:20.065015
144,-0.0737,0.2655,0.9804,-0.420,-2.940,-0.490,0.95,0.0368,0.0508,0.0401,0.0174,2025-06-11T10:00:20.065015
145,-0.0756,0.2655,0.9780,-0.140,-3.150,-0.350,0.95,0.0368,0.0762,0.0300,0.0174,2025-06-11T10:00:20.150463
146,-0.0791,0.2611,0.9799,0.070,-3.430,0.000,0.95,0.0184,0.0508,0.0300,0.0087,2025-06-11T10:00:20.151460
147,-0.0771,0.2601,0.9823,0.560,-2.940,-0.420,0.94,0.0368,0.0254,0.0401,0.0087,2025-06-11T10:00:20.151460
148,-0.0786,0.2625,0.9804,0.070,-3.080,-0.350,0.95,0.0368,0.0254,0.0300,0.0174,2025-06-11T10:00:20.151460
149,-0.0708,0.2591,0.9814,-0.560,-2.870,-0.420,0.94,0.0184,0.0254,0.0300,0.0174,2025-06-11T10:00:20.364209
150,-0.0717,0.2625,0.9804,-0.280,-3.010,-0.420,0.95,0.0184,0.0508,0.0401,0.0087,2025-06-11T10:00:20.364209
151,-0.0810,0.2596,0.9804,-0.140,-3.290,0.140,0.95,0.0184,0.0508,0.0300,0.0174,2025-06-11T10:00:20.364209
152,-0.0766,0.2625,0.9823,0.770,-2.730,-0.350,0.95,0.0000,0.0508,0.0401,0.0174,2025-06-11T10:00:20.364209
153,-0.0791,0.2630,0.9799,0.140,-3.080,-0.210,0.94,0.0552,0.0508,0.0300,0.0174,2025-06-11T10:00:20.364209
154,-0.0732,0.2586,0.9770,-0.490,-2.800,-0.280,0.95,0.0184,0.0508,0.0300,0.0174,2025-06-11T10:00:20.364209
155,-0.0737,0.2679,0.9804,-0.910,-3.010,-0.630,0.94,0.0368,0.0254,0.0401,0.0174,2025-06-11T10:00:20.365290
156,-0.0830,0.2650,0.9848,-0.630,-3.570,0.210,0.95,0.0368,0.0000,0.0300,0.0174,2025-06-11T10:00:20.365290
157,-0.0708,0.2611,0.9784,0.210,-2.660,-0.070,0.95,0.0368,0.0254,0.0401,0.0087,2025-06-11T10:00:20.365290
158,-0.0747,0.2674,0.9794,-0.630,-2.450,-0.700,0.95,0.0368,0.0254,0.0401,0.0087,2025-06-11T10:00:20.365290
159,-0.0766,0.2621,0.9809,-0.910,-3.150,-0.210,0.95,0.0552,0.0254,0.0300,0.0087,2025-06-11T10:00:20.365290
160,-0.0678,0.2601,0.9843,-0.350,-3.990,-0.280,0.95,0.0368,0.0508,0.0300,0.0174,2025-06-11T10:00:20.365290
161,-0.0786,0.2582,0.9745,-0.350,-3.010,0.000,0.95,0.0184,0.0000,0.0401,0.0087,2025-06-11T10:00:20.365290
162,-0.0727,0.2625,0.9765,0.070,-2.520,-0.840,0.94,0.0368,0.0254,0.0401,0.0174,2025-06-11T10:00:20.365290
163,-0.0742,0.2596,0.9819,0.420,-4.410,-0.070,0.95,0.0184,0.0508,0.0300,0.0087,2025-06-11T10:00:20.365290
164,-0.0737,0.2591,0.9784,0.350,-3.640,0.350,0.94,0.0368,0.0000,0.0401,0.0000,2025-06-11T10:00:20.365290
165,-0.0766,0.2655,0.9804,-0.490,-1.820,-0.840,0.95,0.0184,0.0508,0.0300,0.0174,2025-06-11T10:00:20.365290
166,-0.0830,0.2625,0.9848,-0.210,-3.150,0.070,0.95,0.0184,0.0508,0.0401,0.0087,2025-06-11T10:00:20.594824
167,-0.0732,0.2655,0.9780,0.350,-3.990,-0.210,0.95,0.0184,0.0508,0.0200,0.0174,2025-06-11T10:00:20.594824
168,-0.0771,0.2621,0.9745,-0.280,-2.800,-0.630,0.95,0.0368,0.0508,0.0300,0.0087,2025-06-11T10:00:20.594824
169,-0.0752,0.2625,0.9867,0.280,-2.800,-0.350,0.95,0.0184,0.0508,0.0401,0.0087,2025-06-11T10:00:20.594824
170,-0.0761,0.2621,0.9814,0.350,-3.010,-0.350,0.95,0.0184,0.0508,0.0401,0.0174,2025-06-11T10:00:20.594824
171,-0.0820,0.2630,0.9765,-0.560,-2.940,-0.280,0.95,0.0000,0.0254,0.0300,0.0174,2025-06-11T10:00:20.594824
172,-0.0722,0.2616,0.9848,-0.210,-3.290,0.210,0.95,0.0000,0.0254,0.0300,0.0174,2025-06-11T10:00:20.594824
173,-0.0717,0.2640,0.9814,0.140,-3.360,-0.280,0.94,0.0184,0.0254,0.0300,0.0174,2025-06-11T10:00:20.594824
174,-0.0815,0.2596,0.9780,-0.140,-2.800,-0.140,0.95,0.0184,0.0254,0.0300,0.0174,2025-06-11T10:00:20.594824
175,-0.0771,0.2586,0.9789,0.280,-2.520,-0.630,0.95,0.0184,0.0508,0.0300,0.0087,2025-06-11T10:00:20.594824
176,-0.0781,0.2640,0.9799,-0.070,-3.850,-0.070,0.94,0.0184,0.0254,0.0300,0.0087,2025-06-11T10:00:20.594824
177,-0.0703,0.2591,0.9823,-0.210,-3.220,0.140,0.94,0.0184,0.0254,0.0300,0.0000,2025-06-11T10:00:20.594824
178,-0.0727,0.2655,0.9819,-0.350,-2.450,-0.770,0.95,0.0184,0.0000,0.0401,0.0174,2025-06-11T10:00:20.594824
179,-0.0805,0.2625,0.9823,-0.280,-2.940,-0.070,0.94,0.0000,0.0508,0.0401,0.0087,2025-06-11T10:00:20.594824
180,-0.0737,0.2606,0.9804,0.420,-3.500,-0.280,0.95,0.0368,0.0254,0.0401,0.0087,2025-06-11T10:00:20.594824
181,-0.0776,0.2591,0.9789,0.140,-3.290,-0.210,0.95,0.0368,0.0254,0.0401,0.0174,2025-06-11T10:00:20.594824
182,-0.0727,0.2616,0.9828,-0.210,-2.800,-0.490,0.94,0.0000,0.0254,0.0100,0.0174,2025-06-11T10:00:20.594824
183,-0.0727,0.2621,0.9794,-0.420,-2.940,-0.560,0.95,0.0184,0.0508,0.0300,0.0174,2025-06-11T10:00:20.787699
184,-0.0795,0.2621,0.9775,-0.350,-3.290,0.140,0.95,0.0368,0.0254,0.0300,0.0174,2025-06-11T10:00:20.787699
185,-0.0742,0.2621,0.9780,0.210,-2.940,-0.280,0.95,0.0368,0.0508,0.0300,0.0087,2025-06-11T10:00:20.787699
186,-0.0776,0.2611,0.9809,0.210,-3.220,-0.140,0.95,0.0368,0.0508,0.0300,0.0087,2025-06-11T10:00:20.788696
187,-0.0752,0.2591,0.9809,0.000,-3.010,-0.210,0.95,0.0184,0.0508,0.0401,0.0174,2025-06-11T10:00:20.788696
188,-0.0717,0.2625,0.9799,-0.210,-2.870,-0.420,0.95,0.0000,0.0000,0.0300,0.0174,2025-06-11T10:00:20.788696
189,-0.0800,0.2616,0.9823,-17.920,-3.430,0.000,0.95,0.0184,0.0254,0.0401,0.0174,2025-06-11T10:00:20.788696
190,-0.0712,0.2650,0.9789,0.140,-3.010,-0.560,0.95,0.0368,0.0254,0.0300,0.0087,2025-06-11T10:00:20.788696
191,-0.0761,0.2630,0.9794,0.000,-3.150,-0.420,0.95,0.0184,0.0508,0.0300,0.0087,2025-06-11T10:00:20.788696
192,-0.0786,0.2601,0.9784,0.000,-3.150,-0.210,0.95,0.0184,0.0254,0.0200,0.0087,2025-06-11T10:00:20.788696
193,-0.0752,0.2625,0.9794,0.140,-3.080,-0.350,0.95,0.0184,0.1018,0.0300,0.0087,2025-06-11T10:00:20.788696
194,-0.0815,0.2621,0.9828,-0.280,-3.220,-0.140,0.95,0.0184,0.0254,0.0200,0.0174,2025-06-11T10:00:20.788696
195,-0.0727,0.2606,0.9819,0.070,-2.940,-0.560,0.95,0.0184,0.0254,0.0300,0.0087,2025-06-11T10:00:20.788696
196,-0.0800,0.2650,0.9809,-0.140,-3.080,-0.490,0.94,0.0184,0.0508,0.0300,0.0174,2025-06-11T10:00:20.788696
197,-0.0786,0.2630,0.9794,-17.710,-3.290,-0.070,0.95,0.0368,0.0508,0.0401,0.0087,2025-06-11T10:00:20.788696
198,-0.0747,0.2616,0.9789,0.350,-3.080,-0.490,0.95,0.0184,0.0762,0.0300,0.0262,2025-06-11T10:00:20.788696
199,-0.0771,0.2635,0.9814,-0.210,-3.150,-0.210,0.95,0.0368,0.0508,0.0401,0.0174,2025-06-11T10:00:20.972642
200,-0.0732,0.2635,0.9809,-0.070,-2.870,-0.420,0.94,0.0184,0.0254,0.0401,0.0174,2025-06-11T10:00:20.972642
201,-0.0717,0.2640,0.9804,-0.490,-3.220,-0.560,0.96,0.0184,0.0508,0.0401,0.0174,2025-06-11T10:00:21.164257
202,-0.0800,0.2621,0.9804,-0.210,-3.360,0.140,0.95,0.0368,0.0254,0.0401,0.0087,2025-06-11T10:00:21.164257
203,-0.0712,0.2606,0.9799,0.630,-3.080,-0.630,0.95,0.0368,0.0254,0.0300,0.0174,2025-06-11T10:00:21.164257
204,-0.0771,0.2621,0.9809,-0.350,-3.080,-0.210,0.95,0.0368,0.0762,0.0401,0.0174,2025-06-11T10:00:21.164257
205,-0.0722,0.2606,0.9809,-0.210,-2.940,-0.420,0.94,0.0368,0.0254,0.0401,0.0087,2025-06-11T10:00:21.164257
206,-0.0708,0.2655,0.9799,-0.420,-3.290,-0.630,0.95,0.0184,0.0508,0.0401,0.0087,2025-06-11T10:00:21.164257
207,-0.0839,0.2586,0.9789,-0.280,-3.430,0.140,0.95,0.0368,0.0762,0.0300,0.0087,2025-06-11T10:00:21.164257
208,-0.0737,0.2625,0.9794,0.490,-3.010,-0.630,0.95,0.0184,0.0508,0.0300,0.0087,2025-06-11T10:00:21.164257
209,-0.0776,0.2616,0.9828,-0.070,-3.220,-0.280,0.95,0.0184,0.0000,0.0401,0.0087,2025-06-11T10:00:21.164257
210,-0.0717,0.2611,0.9799,-0.210,-2.800,-0.420,0.94,0.0184,0.0254,0.0200,0.0087,2025-06-11T10:00:21.164257
211,-0.0766,0.2616,0.9784,-0.280,-2.940,-0.210,0.95,0.0368,0.0508,0.0401,0.0174,2025-06-11T10:00:21.165254
212,-0.0786,0.2621,0.9799,0.070,-3.360,0.140,0.95,0.0368,0.0254,0.0401,0.0087,2025-06-11T10:00:21.165254
213,-0.0732,0.2640,0.9799,0.420,-2.940,-0.560,0.95,0.0368,0.0508,0.0401,0.0087,2025-06-11T10:00:21.165254
214,-0.0737,0.2606,0.9823,0.210,-3.010,-0.490,0.95,0.0368,0.0254,0.0200,0.0087,2025-06-11T10:00:21.165254
215,-0.0771,0.2630,0.9794,-0.140,-3.010,-0.350,0.95,0.0368,0.0508,0.0401,0.0174,2025-06-11T10:00:21.165254
216,-0.0727,0.2601,0.9789,-0.210,-2.940,-0.490,0.95,0.0368,0.0000,0.0300,0.0000,2025-06-11T10:00:21.165254
217,-0.0791,0.2635,0.9814,-0.280,-3.150,-0.070,0.95,0.0184,0.0508,0.0401,0.0174,2025-06-11T10:00:21.165254
218,-0.0737,0.2606,0.9804,0.070,-2.940,17.430,0.95,0.0368,0.0508,0.0300,0.0087,2025-06-11T10:00:21.165254
219,-0.0747,0.2635,0.9794,-0.210,-3.080,-0.630,0.95,0.0184,0.0254,0.0300,0.0087,2025-06-11T10:00:21.187218
220,-0.0766,0.2621,0.9804,0.000,-3.150,-0.070,0.95,0.0184,0.0762,0.0300,0.0174,2025-06-11T10:00:21.187218
221,-0.0752,0.2611,0.9794,0.350,-2.940,-0.350,0.95,0.0552,0.0762,0.0401,0.0174,2025-06-11T10:00:21.187218
222,-0.0791,0.2625,0.9809,-0.070,-3.010,-0.350,0.95,0.0184,0.0000,0.0401,0.0087,2025-06-11T10:00:21.187218
223,-0.0708,0.2616,0.9804,-0.280,-3.010,-0.350,0.95,0.0368,0.0254,0.0300,0.0087,2025-06-11T10:00:21.187218
224,-0.0727,0.2655,0.9819,-0.420,-3.010,-0.630,0.95,0.0368,0.0254,0.0300,0.0000,2025-06-11T10:00:21.187218
225,-0.0800,0.2616,0.9794,-0.070,-3.150,0.140,0.95,0.0184,0.0254,0.0300,0.0087,2025-06-11T10:00:21.187218
226,-0.0732,0.2601,0.9780,0.560,-2.800,-0.420,0.95,0.0184,0.0254,0.0401,0.0087,2025-06-11T10:00:21.187218
227,-0.0771,0.2611,0.9809,0.140,-3.220,-0.280,0.94,0.0000,0.0000,0.0401,0.0087,2025-06-11T10:00:21.187218
228,-0.0717,0.2630,0.9809,-0.420,-3.010,-0.420,0.95,0.0184,0.0254,0.0300,0.0087,2025-06-11T10:00:21.187218
229,-0.0708,0.2625,0.9794,-0.420,-3.290,-0.560,0.95,0.0000,0.0508,0.0300,0.0087,2025-06-11T10:00:21.414884
230,-0.0839,0.2616,0.9809,-0.070,-3.430,0.210,0.94,0.0184,0.0508,0.0300,0.0174,2025-06-11T10:00:21.414884
231,-0.0732,0.2645,0.9794,0.630,-2.800,-0.770,0.95,0.0000,0.0000,0.0401,0.0087,2025-06-11T10:00:21.414884
232,-0.0776,0.2625,0.9799,-0.350,-3.010,-0.490,0.95,0.0368,0.0508,0.0401,0.0087,2025-06-11T10:00:21.414884
233,-0.0732,0.2601,0.9789,-0.420,-3.150,-0.280,0.95,0.0368,0.0508,0.0501,0.0174,2025-06-11T10:00:21.414884
234,-0.0708,0.2611,0.9809,-0.280,-3.150,-0.560,0.95,0.0368,0.0508,0.0300,0.0087,2025-06-11T10:00:21.414884
235,-0.0844,0.2616,0.9799,-0.280,-3.290,0.140,0.95,0.0368,0.0508,0.0300,0.0087,2025-06-11T10:00:21.414884
236,-0.0727,0.2630,0.9804,0.350,-3.080,-0.700,0.94,0.0368,0.0254,0.0300,0.0087,2025-06-11T10:00:21.414884
237,-0.0752,0.2621,0.9814,-0.140,-3.010,-0.420,0.95,0.0184,0.0254,0.0300,0.0174,2025-06-11T10:00:21.414884
238,-0.0747,0.2601,0.9809,-0.140,-3.080,-0.210,0.95,0.0184,0.0254,0.0300,0.0174,2025-06-11T10:00:21.414884
239,-0.0752,0.2606,0.9804,-0.070,-2.940,-0.420,0.95,0.0368,0.0254,0.0300,0.0087,2025-06-11T10:00:21.414884
240,-0.0786,0.2630,0.9799,-0.280,-3.150,-0.070,0.95,0.0184,0.0000,0.0100,0.0000,2025-06-11T10:00:21.414884
241,-0.0722,0.2640,0.9809,0.140,-2.940,-0.560,0.95,0.0184,0.0254,0.0200,0.0087,2025-06-11T10:00:21.414884
242,-0.0766,0.2635,0.9784,0.070,-3.360,-0.560,0.94,0.0184,0.0508,0.0300,0.0174,2025-06-11T10:00:21.414884
243,-0.0791,0.2611,0.9804,0.000,-3.080,-0.140,0.95,0.0000,0.0508,0.0300,0.0174,2025-06-11T10:00:21.414884
244,-0.0732,0.2621,0.9804,0.070,-2.870,-0.420,0.95,0.0184,0.0254,0.0300,0.0262,2025-06-11T10:00:21.414884
245,-0.0766,0.2621,0.9809,-0.420,-3.150,-0.350,0.95,0.0184,0.0508,0.0300,0.0087,2025-06-11T10:00:21.414884
246,-0.0766,0.2635,0.9770,-0.140,-3.010,-0.420,0.95,0.0368,0.0000,0.0401,0.0000,2025-06-11T10:00:21.600917
247,-0.0800,0.2625,0.9814,0.000,-3.360,-0.490,0.95,0.0000,0.0000,0.0300,0.0087,2025-06-11T10:00:21.600917
248,-0.0815,0.2591,0.9819,0.350,-3.290,0.070,0.95,0.0368,0.0762,0.0200,0.0174,2025-06-11T10:00:21.600917
249,-0.0747,0.2635,0.9814,0.350,-2.800,-0.630,0.95,0.0368,0.0254,0.0300,0.0087,2025-06-11T10:00:21.600917
250,-0.0771,0.2630,0.9814,-0.560,-3.150,-0.350,0.95,0.0368,0.0254,0.0100,0.0174,2025-06-11T10:00:21.600917
251,-0.0717,0.2635,0.9799,-0.140,-3.150,-0.350,0.94,0.0184,0.0254,0.0300,0.0087,2025-06-11T10:00:21.600917
252,-0.0800,0.2645,0.9809,-0.140,-3.290,-0.210,0.95,0.0184,0.0254,0.0401,0.0087,2025-06-11T10:00:21.600917
253,-0.0815,0.2611,0.9814,0.210,-3.290,0.000,0.95,0.0184,0.0508,0.0300,0.0000,2025-06-11T10:00:21.600917
254,-0.0742,0.2635,0.9804,0.560,-3.080,-0.490,0.95,0.0368,0.0508,0.0300,0.0087,2025-06-11T10:00:21.600917
255,-0.0776,0.2635,0.9809,-0.350,-3.220,0.000,0.95,0.0184,0.0254,0.0401,0.0087,2025-06-11T10:00:21.600917
256,-0.0737,0.2611,0.9804,-0.210,-2.730,-0.280,0.95,0.0368,0.0508,0.0401,0.0087,2025-06-11T10:00:21.600917
257,-0.0771,0.2625,0.9819,-0.350,-3.150,-0.350,0.95,0.0184,0.0508,0.0300,0.0087,2025-06-11T10:00:21.600917
258,-0.0752,0.2625,0.9784,0.140,-3.220,0.070,0.94,0.0000,0.0254,0.0300,0.0087,2025-06-11T10:00:21.600917
259,-0.0732,0.2621,0.9784,0.280,-2.940,-0.630,0.94,0.0184,0.0254,0.0300,0.0174,2025-06-11T10:00:21.600917
260,-0.0781,0.2606,0.9799,-0.140,-3.010,-0.140,0.95,0.0368,0.0254,0.0401,0.0087,2025-06-11T10:00:21.797379
261,-0.0766,0.2606,0.9794,-0.140,-3.080,-0.210,0.95,0.0000,0.0254,0.0300,0.0087,2025-06-11T10:00:21.797379
262,-0.0712,0.2660,0.9784,-0.140,-3.150,-0.420,0.95,0.0184,0.0508,0.0300,0.0174,2025-06-11T10:00:21.797379
263,-0.0771,0.2640,0.9799,-0.210,-3.220,-0.070,0.95,0.0368,0.0254,0.0300,0.0174,2025-06-11T10:00:21.797379
264,-0.0747,0.2606,0.9794,0.420,-2.800,-0.490,0.95,0.0368,0.0254,0.0200,0.0174,2025-06-11T10:00:21.797379
265,-0.0795,0.2630,0.9819,0.140,-3.290,-0.070,0.95,0.0000,0.0508,0.0300,0.0174,2025-06-11T10:00:21.797379
266,-0.0786,0.2616,0.9794,0.000,-3.010,0.000,0.95,0.0184,0.0508,0.0300,0.0087,2025-06-11T10:00:21.797379
267,-0.0712,0.2640,0.9794,-0.560,-2.940,-0.700,0.95,0.0184,0.0254,0.0401,0.0087,2025-06-11T10:00:21.797379
268,-0.0800,0.2601,0.9789,-0.350,-3.150,0.140,0.95,0.0184,0.0254,0.0300,0.0174,2025-06-11T10:00:21.797379
269,-0.0732,0.2625,0.9789,0.490,-3.010,-0.350,0.95,0.0368,0.0254,0.0300,0.0087,2025-06-11T10:00:21.797379
270,-0.0800,0.2621,0.9809,0.280,-3.220,-0.140,0.94,0.0184,0.0000,0.0300,0.0087,2025-06-11T10:00:21.797379
271,-0.0732,0.2621,0.9799,0.000,-2.940,-0.560,0.95,0.0000,0.0508,0.0401,0.0174,2025-06-11T10:00:21.797379
272,-0.0717,0.2630,0.9809,-0.350,-3.220,-0.630,0.95,0.0184,0.0000,0.0300,0.0174,2025-06-11T10:00:21.797379
273,-0.0810,0.2582,0.9794,-0.280,-3.290,0.140,0.95,0.0368,0.0000,0.0401,0.0087,2025-06-11T10:00:21.797379
274,-0.0742,0.2630,0.9780,0.140,-3.010,-0.630,0.95,0.0368,0.0254,0.0300,0.0087,2025-06-11T10:00:21.797379
275,-0.0815,0.2645,0.9814,-0.140,-3.220,-0.140,0.95,0.0184,0.0508,0.0401,0.0174,2025-06-11T10:00:22.004970
276,-0.0717,0.2606,0.9784,0.070,-3.080,-0.490,0.95,0.0184,0.0254,0.0401,0.0174,2025-06-11T10:00:22.004970
277,-0.0727,0.2606,0.9799,-0.070,-3.220,-0.630,0.95,0.0184,0.0254,0.0300,0.0174,2025-06-11T10:00:22.004970
278,-0.0805,0.2621,0.9823,-0.280,-3.290,0.070,0.95,0.0184,0.0000,0.0300,0.0174,2025-06-11T10:00:22.004970
279,-0.0727,0.2611,0.9838,0.070,-3.080,-0.420,0.95,0.0368,0.0254,0.0300,0.0174,2025-06-11T10:00:22.004970
280,-0.0766,0.2640,0.9804,-0.280,-3.010,-0.350,0.94,0.0184,0.0254,0.0300,0.0087,2025-06-11T10:00:22.004970
281,-0.0756,0.2582,0.9789,0.070,-3.080,-0.280,0.95,0.0000,0.0508,0.0300,0.0087,2025-06-11T10:00:22.004970
282,-0.0781,0.2586,0.9789,0.280,-3.150,-0.630,0.95,0.0368,0.0508,0.0300,0.0174,2025-06-11T10:00:22.004970
283,-0.0800,0.2606,0.9809,-0.140,-3.150,0.140,0.95,0.0184,0.0508,0.0401,0.0087,2025-06-11T10:00:22.004970
284,-0.0703,0.2635,0.9814,-0.280,-2.870,-0.630,0.94,0.0184,0.0254,0.0200,0.0087,2025-06-11T10:00:22.004970
285,-0.0771,0.2635,0.9784,-0.280,-3.290,-0.280,0.95,0.0184,0.0254,0.0300,0.0087,2025-06-11T10:00:22.004970
286,-0.0771,0.2625,0.9789,-0.070,-3.220,-0.140,0.95,0.0368,0.0254,0.0300,0.0174,2025-06-11T10:00:22.004970
287,-0.0747,0.2611,0.9804,0.630,-2.940,-0.560,0.95,0.0184,0.0254,0.0300,0.0087,2025-06-11T10:00:22.004970
288,-0.0756,0.2625,0.9809,-0.420,-3.150,-0.280,0.94,0.0184,0.0508,0.0300,0.0087,2025-06-11T10:00:22.004970
289,-0.0703,0.2625,0.9814,-0.350,-2.940,-0.420,0.95,0.0184,0.0254,0.0501,0.0087,2025-06-11T10:00:22.004970
290,-0.0712,0.2635,0.9804,-0.280,-3.290,-0.490,0.95,0.0368,0.0000,0.0300,0.0174,2025-06-11T10:00:22.209488
291,-0.0795,0.2621,0.9799,-0.140,-3.290,0.070,0.95,0.0368,0.0254,0.0300,0.0087,2025-06-11T10:00:22.209488
292,-0.0747,0.2606,0.9814,0.630,-2.870,-0.350,0.94,0.0184,0.0254,0.0300,0.0087,2025-06-11T10:00:22.209488
293,-0.0771,0.2616,0.9809,17.640,-3.150,-0.350,0.95,0.0184,0.0508,0.0200,0.0174,2025-06-11T10:00:22.209488
294,-0.0712,0.2630,0.9789,-0.420,-2.940,-0.350,0.95,0.0184,0.0254,0.0100,0.0087,2025-06-11T10:00:22.209488
295,-0.0722,0.2635,0.9804,-0.350,-2.940,-0.630,0.95,0.0184,0.0000,0.0200,0.0087,2025-06-11T10:00:22.209488
296,-0.0820,0.2621,0.9809,-0.210,-3.430,0.140,0.95,0.0184,0.0508,0.0300,0.0087,2025-06-11T10:00:22.209488
297,-0.0712,0.2611,0.9784,0.560,-3.010,-0.630,0.95,0.0000,0.0254,0.0401,0.0087,2025-06-11T10:00:22.209488
298,-0.0756,0.2640,0.9814,-0.350,-3.010,-0.420,0.95,0.0368,0.0254,0.0300,0.0087,2025-06-11T10:00:22.209488
299,-0.0727,0.2606,0.9784,0.070,-2.940,-0.350,0.95,0.0368,0.0254,0.0300,0.0087,2025-06-11T10:00:22.209488
300,-0.0712,0.2635,0.9780,-0.210,-3.150,-0.700,0.95,0.0184,0.0000,0.0300,0.0000,2025-06-11T10:00:22.209488
301,-0.0786,0.2611,0.9828,-0.070,-3.360,0.000,0.95,0.0184,0.0508,0.0300,0.0087,2025-06-11T10:00:22.209488
302,-0.0756,0.2645,0.9804,0.280,-3.010,-0.490,0.94,0.0184,0.0254,0.0300,0.0087,2025-06-11T10:00:22.209488
303,-0.0791,0.2630,0.9799,-0.070,-3.080,-0.420,0.95,0.0184,0.0254,0.0401,0.0087,2025-06-11T10:00:22.209488
304,-0.0761,0.2601,0.9814,-0.070,-3.080,-0.280,0.95,0.0368,0.0508,0.0200,0.0087,2025-06-11T10:00:22.209488
305,-0.0766,0.2635,0.9789,0.140,-3.290,-0.350,0.95,0.0368,0.0508,0.0300,0.0087,2025-06-11T10:00:22.209488
306,-0.0747,0.2625,0.9823,-0.490,-3.010,-0.280,0.94,0.0368,0.0000,0.0300,0.0174,2025-06-11T10:00:22.209488
307,-0.0732,0.2630,0.9843,-0.140,-3.150,-0.490,0.95,0.0184,0.0508,0.0401,0.0087,2025-06-11T10:00:22.320285
308,-0.0761,0.2640,0.9780,0.210,-3.290,-0.280,0.95,0.0368,0.0508,0.0300,0.0087,2025-06-11T10:00:22.320285
309,-0.0791,0.2611,0.9765,0.000,-3.010,-0.280,0.95,0.0184,0.0508,0.0200,0.0174,2025-06-11T10:00:22.320285
310,-0.0752,0.2640,0.9872,0.000,-3.360,-0.560,0.95,0.0184,0.0254,0.0200,0.0174,2025-06-11T10:00:22.320285
311,-0.0752,0.2582,0.9819,0.000,-3.570,0.140,0.96,0.0368,0.0508,0.0300,0.0174,2025-06-11T10:00:22.320285
312,-0.0727,0.2606,0.9765,-0.210,-2.310,-0.560,0.94,0.0000,0.0254,0.0501,0.0000,2025-06-11T10:00:22.320285
313,-0.0825,0.2625,0.9828,-0.560,-2.870,-0.280,0.95,0.0552,0.0508,0.0300,0.0087,2025-06-11T10:00:22.578196
314,-0.0820,0.2601,0.9838,0.490,-4.270,0.420,0.95,0.0184,0.0254,0.0401,0.0174,2025-06-11T10:00:22.578196
315,-0.0747,0.2621,0.9760,0.350,-2.870,-0.770,0.95,0.0368,0.0254,0.0200,0.0087,2025-06-11T10:00:22.578196
316,-0.0805,0.2635,0.9833,-0.140,-2.380,-0.630,0.95,0.0368,0.0508,0.0300,0.0174,2025-06-11T10:00:22.578196
317,-0.0752,0.2630,0.9809,0.070,-3.500,-0.140,0.95,0.0368,0.0508,0.0300,0.0174,2025-06-11T10:00:22.578196
318,-0.0732,0.2645,0.9745,-0.210,-2.940,-0.420,0.94,0.0368,0.0508,0.0300,0.0174,2025-06-11T10:00:22.578196
319,-0.0795,0.2586,0.9828,-0.560,-2.870,-0.070,0.95,0.0184,0.0508,0.0200,0.0087,2025-06-11T10:00:22.578196
320,-0.0737,0.2606,0.9819,0.630,-3.290,-0.070,0.95,0.0184,0.0508,0.0300,0.0174,2025-06-11T10:00:22.578196
321,-0.0795,0.2591,0.9765,17.850,-3.010,-0.280,0.95,0.0368,0.0254,0.0300,0.0087,2025-06-11T10:00:22.578196
322,-0.0703,0.2601,0.9823,-0.280,-2.590,-0.630,0.95,0.0368,0.0000,0.0300,0.0087,2025-06-11T10:00:22.578196
323,-0.0737,0.2621,0.9819,-0.210,-3.220,-0.350,0.95,0.0552,0.0254,0.0300,0.0087,2025-06-11T10:00:22.578196
324,-0.0786,0.2640,0.9780,-0.420,-3.430,0.070,0.94,0.0184,0.0254,0.0300,0.0087,2025-06-11T10:00:22.578196
325,-0.0742,0.2621,0.9804,0.280,-2.730,-0.630,0.95,0.0184,0.0254,0.0200,0.0087,2025-06-11T10:00:22.578196
326,-0.0791,0.2635,0.9794,0.070,-3.080,-0.350,0.95,0.0184,0.0508,0.0200,0.0087,2025-06-11T10:00:22.579268
327,-0.0752,0.2635,0.9809,0.000,-3.220,-0.350,0.95,0.0184,0.0508,0.0200,0.0087,2025-06-11T10:00:22.579268
328,-0.0771,0.2645,0.9794,-0.070,-3.080,-0.630,0.95,0.0184,0.0254,0.0401,0.0087,2025-06-11T10:00:22.579268
329,-0.0776,0.2625,0.9799,-0.280,-3.220,-0.210,0.95,0.0184,0.0508,0.0200,0.0174,2025-06-11T10:00:22.579268
330,-0.0727,0.2645,0.9809,0.070,-3.080,-0.560,0.95,0.0368,0.0254,0.0300,0.0087,2025-06-11T10:00:22.579268
331,-0.0761,0.2635,0.9819,0.000,-3.430,-0.350,0.95,0.0184,0.0000,0.0300,0.0087,2025-06-11T10:00:22.803382
332,-0.0786,0.2596,0.9804,0.000,-2.940,-0.210,0.95,0.0368,0.0254,0.0401,0.0087,2025-06-11T10:00:22.803382
333,-0.0752,0.2625,0.9828,-0.070,-3.010,-0.490,0.95,0.0368,0.0508,0.0300,0.0174,2025-06-11T10:00:22.803382
334,-0.0781,0.2621,0.9828,-0.140,-3.640,0.140,0.95,0.0368,0.0254,0.0300,0.0087,2025-06-11T10:00:22.803382
335,-0.0747,0.2601,0.9784,0.070,-2.730,-0.490,0.95,0.0368,0.0254,0.0401,0.0174,2025-06-11T10:00:22.803382
336,-0.0766,0.2645,0.9794,-0.280,-2.800,-0.700,0.95,0.0184,0.0000,0.0401,0.0087,2025-06-11T10:00:22.803382
337,-0.0776,0.2596,0.9823,0.000,-3.500,0.000,0.95,0.0184,0.0508,0.0401,0.0087,2025-06-11T10:00:22.803382
338,-0.0742,0.2601,0.9789,0.350,-3.220,-0.350,0.95,0.0368,0.0254,0.0200,0.0087,2025-06-11T10:00:22.804448
339,-0.0766,0.2635,0.9794,-0.490,-2.660,-0.420,0.95,0.0184,0.0508,0.0300,0.0087,2025-06-11T10:00:22.804448
340,-0.0747,0.2635,0.9819,-0.070,-3.010,-0.420,0.95,0.0368,0.0508,0.0401,0.0087,2025-06-11T10:00:22.804448
341,-0.0722,0.2640,0.9794,-0.210,-3.500,-0.560,0.95,0.0184,0.0254,0.0300,0.0087,2025-06-11T10:00:22.804448
342,-0.0791,0.2586,0.9770,-0.420,-2.940,-0.070,0.95,0.0184,0.0254,0.0200,0.0000,2025-06-11T10:00:22.804448
343,-0.0737,0.2616,0.9804,0.490,-2.800,-0.630,0.96,0.0184,0.0000,0.0300,0.0087,2025-06-11T10:00:22.804448
344,-0.0781,0.2616,0.9823,-0.210,-3.220,-0.210,0.95,0.0368,0.0254,0.0300,0.0087,2025-06-11T10:00:22.804448
345,-0.0747,0.2621,0.9789,-0.070,-2.800,-0.420,0.93,0.0000,0.0254,0.0300,0.0174,2025-06-11T10:00:22.804448
346,-0.0815,0.2650,0.9819,-0.560,-3.150,-0.630,0.95,0.0368,0.0254,0.0300,0.0087,2025-06-11T10:00:22.804448
347,-0.0810,0.2616,0.9794,0.210,-3.500,0.210,0.95,0.0184,0.0508,0.0300,0.0087,2025-06-11T10:00:22.804448
348,-0.0747,0.2640,0.9770,0.420,-2.800,-0.630,0.95,0.0368,0.0254,0.0300,0.0174,2025-06-11T10:00:22.804448
349,-0.0781,0.2645,0.9794,-0.210,-3.080,-0.420,0.95,0.0184,0.0254,0.0401,0.0087,2025-06-11T10:00:23.037254
350,-0.0752,0.2625,0.9814,-0.210,-3.220,-0.280,0.95,0.0184,0.0000,0.0100,0.0087,2025-06-11T10:00:23.037254
351,-0.0708,0.2625,0.9814,-0.350,-3.220,-0.560,0.95,0.0368,0.0254,0.0401,0.0087,2025-06-11T10:00:23.234707
352,-0.0791,0.2616,0.9789,-0.420,-3.150,-0.070,0.95,0.0368,0.0508,0.0300,0.0087,2025-06-11T10:00:23.234707
353,-0.0737,0.2611,0.9809,0.280,-2.940,-0.490,0.95,0.0368,0.0762,0.0300,0.0174,2025-06-11T10:00:23.234707
354,-0.0771,0.2625,0.9819,0.070,-3.220,-0.350,0.94,0.0552,0.0508,0.0300,0.0087,2025-06-11T10:00:23.234707
355,-0.0761,0.2635,0.9814,-0.140,-3.010,-0.280,0.95,0.0184,0.0000,0.0300,0.0087,2025-06-11T10:00:23.234707
356,-0.0742,0.2606,0.9809,-0.140,-2.940,-0.560,0.95,0.0368,0.0508,0.0401,0.0087,2025-06-11T10:00:23.234707
357,-0.0791,0.2621,0.9814,-0.210,-3.220,0.000,0.94,0.0184,0.0508,0.0401,0.0087,2025-06-11T10:00:23.234707
358,-0.0756,0.2635,0.9789,0.140,-3.010,-0.420,0.94,0.0184,0.0254,0.0300,0.0087,2025-06-11T10:00:23.234707
359,-0.0756,0.2625,0.9819,-0.140,-3.010,-0.420,0.95,0.0184,0.0254,0.0300,0.0087,2025-06-11T10:00:23.234707
360,-0.0771,0.2567,0.9784,-0.070,-3.290,-0.140,0.95,0.0368,0.0508,0.0300,0.0174,2025-06-11T10:00:23.234707
361,-0.0747,0.2586,0.9775,0.210,-3.150,-0.350,0.95,0.0184,0.0254,0.0300,0.0000,2025-06-11T10:00:23.234707
362,-0.0795,0.2630,0.9833,-0.350,-3.150,-0.140,0.95,0.0184,0.0254,0.0000,0.0087,2025-06-11T10:00:23.234707
363,-0.0727,0.2625,0.9814,-0.070,-2.730,-0.420,0.95,0.0184,0.0508,0.0300,0.0174,2025-06-11T10:00:23.234707
364,-0.0761,0.2645,0.9804,-0.210,-3.220,-0.560,0.95,0.0368,0.0508,0.0200,0.0087,2025-06-11T10:00:23.234707
365,-0.1039,0.2567,0.9057,7.980,2.310,-4.340,0.95,0.0368,0.0254,0.0300,0.0174,2025-06-11T10:00:23.234707
366,-0.0512,0.2962,1.0443,4.130,-9.800,6.090,0.95,0.0368,0.0508,0.0300,0.0087,2025-06-11T10:00:23.234707
367,-0.0522,0.2738,1.0878,5.110,-9.380,-0.140,0.95,0.0368,0.0254,0.0300,0.0174,2025-06-11T10:00:23.234707
368,-0.0229,0.2274,0.9077,1.680,14.910,-20.860,0.95,0.0552,0.0508,0.0300,0.0087,2025-06-11T10:00:23.234707
369,-0.1020,0.2557,0.9311,0.350,11.620,-5.880,0.95,0.0552,0.0508,0.0300,0.0087,2025-06-11T10:00:23.234707
370,-0.1376,0.2542,0.9311,1.330,-12.810,1.330,0.95,0.0184,0.0508,0.0401,0.0087,2025-06-11T10:00:23.234707
371,-0.0586,0.2762,1.0126,3.290,-22.190,12.320,0.95,0.0184,0.0254,0.0401,0.0174,2025-06-11T10:00:23.234707
372,-0.0425,0.2645,1.0238,-3.850,-5.810,2.870,0.95,0.0552,0.0254,0.0300,0.0174,2025-06-11T10:00:23.234707
373,0.0395,0.3084,1.2073,-68.740,129.920,-16.380,0.95,0.0368,0.0254,0.0300,0.0174,2025-06-11T10:00:23.234707
374,0.4860,0.7486,1.5240,-51.380,101.360,-283.010,0.95,0.0000,0.0508,0.0401,0.0087,2025-06-11T10:00:23.234707
375,1.5660,1.2771,2.0677,87.920,-201.460,-11.900,0.95,0.0368,0.0508,0.0401,0.0174,2025-06-11T10:00:23.234707
376,0.9360,1.5958,2.6362,323.400,-499.100,65.380,0.95,0.0000,0.0254,0.0401,0.0087,2025-06-11T10:00:23.234707
377,1.0487,0.8530,2.8631,517.160,-642.530,-12.460,0.95,0.0368,0.0254,0.0300,0.0087,2025-06-11T10:00:23.234707
378,0.2708,0.1566,2.7318,566.160,-744.380,79.450,0.95,0.0368,0.0508,0.0300,0.0087,2025-06-11T10:00:23.234707
379,-0.3274,0.0117,2.1535,515.270,-611.100,-60.900,0.95,0.0184,0.0254,0.0300,0.0087,2025-06-11T10:00:23.234707
380,-0.6549,0.1318,1.5821,470.400,-334.670,-183.190,0.95,0.0184,0.0254,0.0300,0.0087,2025-06-11T10:00:23.234707
381,-0.6876,0.1381,0.8164,466.200,-48.790,-276.500,0.95,0.0368,0.0508,0.0300,0.0087,2025-06-11T10:00:23.430541
382,-0.1283,-0.1474,0.3284,329.910,217.280,-396.060,0.95,0.0184,0.0508,0.0300,0.0087,2025-06-11T10:00:23.430541
383,0.6603,-0.0322,0.2518,177.730,246.610,-317.660,0.95,0.0184,0.0254,0.0401,0.0087,2025-06-11T10:00:23.430541
384,0.7354,0.4182,0.7022,-3.920,205.170,-293.790,0.95,0.0368,0.0508,0.0401,0.0174,2025-06-11T10:00:23.430541
385,-0.0049,1.1405,1.2766,-53.200,229.110,-289.870,0.95,0.0184,0.0508,0.0300,0.0174,2025-06-11T10:00:23.430541
386,-0.4934,1.5470,1.9178,152.110,296.170,-210.070,0.95,0.0184,0.0762,0.0300,0.0087,2025-06-11T10:00:23.430541
387,-0.7979,1.4728,2.0374,298.480,468.510,-327.040,0.94,0.0184,0.0000,0.0300,0.0087,2025-06-11T10:00:23.430541
388,-0.0590,1.5382,1.5343,493.080,419.230,-240.520,0.95,0.0184,0.0000,0.0300,0.0174,2025-06-11T10:00:23.431631
389,-0.0752,0.9633,1.2464,702.380,299.740,-41.650,0.95,0.0184,0.0254,0.0300,0.0087,2025-06-11T10:00:23.431631
390,0.5797,-0.1469,1.0721,800.660,235.830,-137.270,0.95,0.0368,0.0508,0.0401,0.0174,2025-06-11T10:00:23.431631
391,0.7769,-0.6734,0.4046,828.310,121.940,-56.840,0.95,0.0184,0.0508,0.0300,0.0174,2025-06-11T10:00:23.431631
392,0.8325,-1.1907,-0.1015,849.940,-21.910,-6.370,0.95,0.0184,0.0254,0.0401,0.0087,2025-06-11T10:00:23.431631
393,0.6178,-1.8627,-0.6578,799.050,-165.830,62.650,0.95,0.0368,0.0254,0.0200,0.0087,2025-06-11T10:00:23.431631
394,-0.0547,-2.2575,-0.8599,664.580,-228.340,72.170,0.95,0.0552,0.0508,0.0300,0.0087,2025-06-11T10:00:23.431631
395,-0.7481,-1.9940,-1.5338,347.830,-179.690,27.020,0.95,0.0184,0.0254,0.0300,0.0087,2025-06-11T10:00:23.431631
396,-1.4289,-1.4864,-2.0882,115.920,-112.560,80.500,0.95,0.0368,0.0508,0.0200,0.0174,2025-06-11T10:00:23.478789
397,-1.6475,-1.0038,-1.8773,-135.380,-6.510,32.130,0.95,0.0368,0.0254,0.0300,0.0087,2025-06-11T10:00:23.478789
398,-1.9432,-0.5846,-1.8310,-295.260,130.970,-18.480,0.94,0.0368,0.0254,0.0401,0.0087,2025-06-11T10:00:23.478789
399,-1.9588,-0.4626,-1.6519,-277.200,146.650,232.470,0.95,0.0184,0.0508,0.0401,0.0174,2025-06-11T10:00:23.478789
400,-1.2395,-1.2747,-1.5206,-291.200,210.070,183.610,0.95,0.0368,0.0508,0.0401,0.0174,2025-06-11T10:00:23.662696
401,-1.3718,-2.6523,-0.6842,-391.370,240.520,331.310,0.95,0.0368,0.0508,0.0300,0.0087,2025-06-11T10:00:23.662696
402,-0.1015,-3.7498,0.2489,-779.940,479.640,-104.230,0.94,0.0184,0.0508,0.0300,0.0174,2025-06-11T10:00:23.662696
403,-0.3562,-3.4702,1.5728,-1322.860,312.340,162.680,0.95,0.0368,0.0508,0.0300,0.0000,2025-06-11T10:00:23.662696
404,0.1225,-3.1120,7.9593,-2227.470,392.490,10.850,0.95,0.0368,0.0508,0.0200,0.0087,2025-06-11T10:00:23.662696
405,0.2464,-1.5499,13.4571,-2293.480,470.610,120.470,0.95,0.0184,0.0254,0.0300,0.0000,2025-06-11T10:00:23.662696
406,0.6178,2.6171,14.0154,-1676.290,412.930,176.400,0.95,0.0368,0.0508,0.0401,0.0174,2025-06-11T10:00:23.662696
407,1.4928,7.9764,10.2939,-38.990,263.410,55.790,0.95,0.0552,0.0508,0.0300,0.0000,2025-06-11T10:00:23.662696
408,2.0272,3.9811,9.5677,1985.830,53.270,-22.190,0.95,0.0184,0.0000,0.0300,0.0087,2025-06-11T10:00:23.662696
409,2.3785,-3.9172,11.7545,2293.480,-134.400,-107.730,0.95,0.0184,0.0254,0.0401,0.0087,2025-06-11T10:00:23.662696
410,1.9832,-7.5479,12.0624,2293.480,-636.720,95.130,0.94,0.0368,0.0508,0.0300,0.0174,2025-06-11T10:00:23.662696
411,-2.2311,-12.6748,14.6210,2293.480,-1243.970,408.240,0.95,0.0184,0.0254,0.0401,0.0174,2025-06-11T10:00:23.662696
412,-3.8044,-15.4974,13.6518,2293.480,269.710,-1467.690,0.95,0.0184,0.0508,0.0300,0.0174,2025-06-11T10:00:23.662696
413,-0.8496,-15.3832,4.1046,1973.160,-61.670,772.030,0.95,0.0184,0.0508,0.0300,0.0174,2025-06-11T10:00:23.662696
414,-0.3562,-14.0217,-2.1155,-600.390,89.040,181.860,0.95,0.0368,0.0508,0.0300,0.0000,2025-06-11T10:00:23.847409
415,-1.2825,-9.9279,2.0296,-2225.440,-81.760,-649.250,0.95,0.0552,0.0508,0.0300,0.0087,2025-06-11T10:00:23.847409
416,-5.2333,-6.2996,4.6599,-2293.480,-420.980,794.430,0.94,0.0368,0.0762,0.0401,0.0087,2025-06-11T10:00:23.847409
417,-2.9470,-3.6932,7.4420,-2293.480,317.730,732.760,0.95,0.0368,0.0254,0.0401,0.0087,2025-06-11T10:00:23.847409
418,-1.3913,-3.3979,14.8503,-2293.480,809.760,545.860,0.96,0.0184,0.0000,0.0300,0.0000,2025-06-11T10:00:23.847409
419,1.4215,-1.4889,15.9888,-2293.480,1007.440,-6.370,0.95,0.0368,0.0508,0.0401,0.0174,2025-06-11T10:00:23.847409
420,2.5298,4.0172,11.7393,-1460.130,624.330,193.480,0.94,0.0184,0.0000,0.0300,0.0087,2025-06-11T10:00:23.847409
421,2.9666,8.5566,7.4230,135.100,96.040,159.250,0.95,0.0000,0.0254,0.0401,0.0087,2025-06-11T10:00:23.847409
422,2.8709,4.3778,6.7720,1556.380,-397.950,58.170,0.95,0.0184,0.0508,0.0200,0.0174,2025-06-11T10:00:23.847409
423,1.1351,-0.6544,6.7930,1862.770,-945.840,38.570,0.95,0.0184,0.0254,0.0300,0.0087,2025-06-11T10:00:23.847409
424,-1.1014,-2.4956,5.3573,1782.970,-1097.810,30.520,0.94,0.0184,0.0254,0.0300,0.0087,2025-06-11T10:00:23.847409
425,-3.5658,-3.2452,3.5307,1573.810,-720.440,-105.700,0.95,0.0184,0.0254,0.0200,0.0087,2025-06-11T10:00:23.847409
426,-4.1914,-3.7854,0.8686,1358.700,-11.060,-448.770,0.95,0.0184,0.0508,0.0401,0.0174,2025-06-11T10:00:24.046743
427,-0.9506,-4.4803,-1.6080,822.290,475.300,-555.870,0.95,0.0184,0.0254,0.0401,0.0000,2025-06-11T10:00:24.046743
428,1.7910,-3.8806,-2.7660,126.770,34.720,-7.420,0.95,0.0552,0.0508,0.0300,0.0174,2025-06-11T10:00:24.046743
429,-0.2362,-2.6059,-2.2136,-500.710,-277.900,123.130,0.95,0.0184,0.0254,0.0300,0.0174,2025-06-11T10:00:24.046743
430,-2.0291,-0.7593,-0.9511,-707.980,-158.760,168.770,0.95,0.0184,0.0254,0.0200,0.0087,2025-06-11T10:00:24.046743
431,-1.5694,0.3636,-0.1249,-725.550,107.170,16.310,0.95,0.0184,0.0508,0.0300,0.0262,2025-06-11T10:00:24.046743
432,-0.6871,1.3093,0.4621,-601.230,186.200,7.980,0.95,0.0368,0.0762,0.0300,0.0174,2025-06-11T10:00:24.046743
433,-0.0742,1.8066,0.5568,-345.590,185.850,-10.430,0.94,0.0000,0.0000,0.0300,0.0087,2025-06-11T10:00:24.046743
434,0.3518,1.9261,0.3675,-143.290,130.620,-13.370,0.95,0.0184,0.0000,0.0200,0.0000,2025-06-11T10:00:24.046743
435,0.4304,1.8524,0.1718,45.990,18.690,-17.150,0.94,0.0368,0.0254,0.0300,0.0174,2025-06-11T10:00:24.046743
436,0.3143,1.4830,-0.1327,192.850,-70.420,-8.540,0.95,0.0368,0.0508,0.0300,0.0087,2025-06-11T10:00:24.046743
437,-0.1435,0.9433,-0.3831,236.740,-144.620,38.080,0.95,0.0368,0.0000,0.0300,0.0000,2025-06-11T10:00:24.046743
438,-0.4436,0.5588,-0.5510,209.580,-164.360,30.030,0.95,0.0000,0.0508,0.0300,0.0087,2025-06-11T10:00:24.046743
439,-0.7369,0.3265,-0.6793,153.930,-130.480,37.240,0.95,0.0184,0.0254,0.0300,0.0087,2025-06-11T10:00:24.046743
440,-0.8301,0.2704,-0.7769,75.810,-49.770,6.160,0.94,0.0368,0.0254,0.0300,0.0087,2025-06-11T10:00:24.046743
441,-0.7276,0.3279,-0.8242,-12.110,-1.470,-1.960,0.95,0.0184,0.0508,0.0200,0.0174,2025-06-11T10:00:24.248937
442,-0.6149,0.5534,-0.7652,-59.850,14.210,16.310,0.94,0.0368,0.0508,0.0300,0.0174,2025-06-11T10:00:24.248937
443,-0.5451,0.7056,-0.6285,-71.890,22.400,22.680,0.95,0.0184,0.0254,0.0300,0.0174,2025-06-11T10:00:24.248937
444,-0.4641,0.7891,-0.4870,-70.000,46.760,7.840,0.95,0.0368,0.0508,0.0300,0.0174,2025-06-11T10:00:24.248937
445,-0.3909,0.8706,-0.4607,-59.990,51.730,4.690,0.95,0.0184,0.0508,0.0300,0.0174,2025-06-11T10:00:24.248937
446,-0.3118,0.8311,-0.4904,-58.030,56.350,7.770,0.95,0.0184,0.0254,0.0300,0.0087,2025-06-11T10:00:24.248937
447,-0.3392,0.8877,-0.4978,-59.010,43.610,22.330,0.95,0.0184,0.0254,0.0401,0.0087,2025-06-11T10:00:24.248937
448,-0.2196,0.8467,-0.4782,-60.060,41.370,2.590,0.95,0.0368,0.0254,0.0300,0.0087,2025-06-11T10:00:24.248937
449,-0.2220,0.8262,-0.2899,-58.030,36.190,18.130,0.95,0.0184,0.0000,0.0300,0.0000,2025-06-11T10:00:24.248937
450,-0.1518,0.9511,-0.5275,-43.330,38.220,3.710,0.95,0.0184,0.0254,0.0200,0.0174,2025-06-11T10:00:24.248937
451,-0.0688,0.8145,-0.4792,-39.130,6.580,12.950,0.95,0.0368,0.0254,0.0300,0.0000,2025-06-11T10:00:24.248937
452,-0.1240,0.7388,-0.5026,-61.110,-17.640,35.140,0.95,0.0184,0.0254,0.0200,0.0000,2025-06-11T10:00:24.248937
453,-0.1371,0.7447,-0.4241,-92.330,-26.810,26.460,0.95,0.0184,0.0254,0.0300,0.0174,2025-06-11T10:00:24.248937
454,-0.1454,0.8652,-0.3411,-105.000,-17.430,1.260,0.95,0.0368,0.0508,0.0300,0.0087,2025-06-11T10:00:24.248937
455,-0.2123,1.0609,-0.3416,-86.310,-21.700,1.960,0.95,0.0184,0.0508,0.0300,0.0087,2025-06-11T10:00:24.250007
456,-0.2377,1.2049,-0.2479,-8.820,-48.160,2.800,0.95,0.0368,0.0508,0.0401,0.0087,2025-06-11T10:00:24.481757
457,-0.3187,2.1487,-2.5191,-48.650,42.700,-80.990,0.95,0.0000,0.0508,0.0300,0.0174,2025-06-11T10:00:24.481757
458,0.1327,0.1122,-0.0498,-94.780,173.320,-307.580,0.95,0.0368,0.0508,0.0300,0.0174,2025-06-11T10:00:24.481757
459,-0.1698,0.6266,-0.2157,-11.200,-51.030,-31.080,0.95,0.0184,0.0508,0.0300,0.0174,2025-06-11T10:00:24.481757
460,-0.0913,0.3357,0.0429,8.610,-92.610,-90.090,0.95,0.0184,0.0508,0.0300,0.0087,2025-06-11T10:00:24.481757
461,-0.2245,0.2679,-0.0386,-49.070,-302.610,163.870,0.95,0.0184,0.0254,0.0300,0.0087,2025-06-11T10:00:24.481757
462,-0.4143,0.6246,-0.4158,-81.970,-249.480,74.200,0.95,0.0000,0.0508,0.0501,0.0087,2025-06-11T10:00:24.481757
463,-0.7149,0.7300,-0.3211,-74.270,-247.240,139.510,0.95,0.0368,0.0508,0.0300,0.0087,2025-06-11T10:00:24.481757
464,-0.9077,0.7979,-0.2338,-80.850,-155.190,94.850,0.95,0.0184,0.0254,0.0200,0.0087,2025-06-11T10:00:24.481757
465,-0.8574,0.8140,-0.2318,-68.530,-66.570,31.360,0.95,0.0184,0.0254,0.0300,0.0087,2025-06-11T10:00:24.481757
466,-0.8823,0.7774,-0.2298,-51.170,7.910,54.320,0.95,0.0184,0.0508,0.0300,0.0174,2025-06-11T10:00:24.481757
467,-0.8535,0.7574,-0.2538,-79.660,77.700,28.910,0.94,0.0184,0.0254,0.0300,0.0174,2025-06-11T10:00:24.481757
468,-0.7183,0.7974,-0.2704,-118.790,143.710,4.130,0.95,0.0000,0.0762,0.0401,0.0087,2025-06-11T10:00:24.482844
469,-0.6632,0.8125,-0.1220,-129.570,148.890,45.080,0.95,0.0184,0.0508,0.0300,0.0174,2025-06-11T10:00:24.482844
470,-0.3440,0.9145,-0.2342,-151.270,186.410,-5.810,0.95,0.0368,0.0508,0.0401,0.0000,2025-06-11T10:00:24.482844
471,-0.2708,0.8447,0.0088,-160.090,149.800,42.700,0.95,0.0368,0.0254,0.0401,0.0174,2025-06-11T10:00:24.482844
472,-0.1298,0.9677,-0.0259,-164.430,120.330,43.610,0.95,0.0184,0.0254,0.0401,0.0087,2025-06-11T10:00:24.482844
473,-0.0522,0.9882,0.0434,-153.020,95.690,50.890,0.94,0.0184,0.0254,0.0401,0.0174,2025-06-11T10:00:24.571520
474,0.0083,1.0795,-0.0063,-130.410,77.140,38.990,0.95,0.0184,0.0254,0.0300,0.0087,2025-06-11T10:00:24.571520
475,0.0522,0.9999,0.0322,-119.910,58.800,38.430,0.95,0.0368,0.0508,0.0200,0.0174,2025-06-11T10:00:24.571520
476,0.0527,1.1278,-0.1840,-81.830,31.220,19.250,0.95,0.0184,0.0508,0.0401,0.0087,2025-06-11T10:00:24.571520
477,0.0810,0.7676,-0.1635,-93.870,34.930,27.580,0.95,0.0184,0.0254,0.0300,0.0087,2025-06-11T10:00:24.571520
478,-0.0068,0.6461,0.0381,-140.840,-15.470,31.780,0.95,0.0000,0.0508,0.0200,0.0087,2025-06-11T10:00:24.571520
479,0.1635,0.7110,-0.0942,-150.080,-35.140,-12.810,0.94,0.0552,0.0254,0.0300,0.0174,2025-06-11T10:00:24.821894
480,-0.0415,0.6808,-0.0024,-181.370,-108.920,69.020,0.94,0.0184,0.0508,0.0300,0.0087,2025-06-11T10:00:24.821894
481,-0.2196,0.8159,0.0981,-237.860,-110.810,46.130,0.95,0.0184,0.0508,0.0300,0.0262,2025-06-11T10:00:24.821894
482,-0.2352,0.7691,0.6329,-317.730,-141.470,94.780,0.95,0.0368,0.0508,0.0300,0.0174,2025-06-11T10:00:24.821894
483,-0.2767,1.3000,0.8130,-288.260,-64.750,19.950,0.95,0.0184,0.0254,0.0401,0.0174,2025-06-11T10:00:24.821894
484,-0.4304,1.4025,1.1727,-230.720,-17.920,35.210,0.95,0.0368,0.0254,0.0300,0.0087,2025-06-11T10:00:24.821894
485,-0.4397,1.6938,1.2122,-128.870,47.460,27.300,0.95,0.0368,0.0508,0.0300,0.0087,2025-06-11T10:00:24.821894
486,-0.4065,1.7095,1.1941,32.620,152.880,-46.410,0.94,0.0552,0.0254,0.0401,0.0174,2025-06-11T10:00:24.821894
487,-0.1674,1.5030,1.1131,124.180,201.530,-73.080,0.95,0.0184,0.0254,0.0300,0.0000,2025-06-11T10:00:24.821894
488,-0.0420,1.3962,0.8140,221.060,191.730,-64.820,0.95,0.0184,0.0508,0.0300,0.0087,2025-06-11T10:00:24.821894
489,0.1791,1.0536,0.3411,291.480,155.540,-85.960,0.94,0.0000,0.0000,0.0300,0.0087,2025-06-11T10:00:24.821894
490,0.2538,0.5714,0.2440,259.490,71.890,-43.960,0.95,0.0184,0.0254,0.0401,0.0000,2025-06-11T10:00:24.821894
491,0.2347,0.5539,-0.0195,201.390,3.710,-49.350,0.94,0.0184,0.0254,0.0200,0.0174,2025-06-11T10:00:24.821894
492,0.1381,0.5534,-0.2396,182.490,-87.640,2.660,0.94,0.0368,0.0254,0.0300,0.0087,2025-06-11T10:00:24.821894
493,-0.0522,0.5529,-0.2006,94.290,-161.140,16.450,0.94,0.0184,0.0508,0.0200,0.0000,2025-06-11T10:00:24.821894
494,-0.2386,0.6876,-0.0259,80.990,-177.170,5.390,0.95,0.0184,0.0254,0.0300,0.0087,2025-06-11T10:00:24.821894
495,-0.5070,0.8042,-0.0346,99.190,-162.610,2.100,0.95,0.0368,0.0254,0.0300,0.0087,2025-06-11T10:00:24.821894
496,-0.6695,0.8076,-0.0551,89.250,-137.970,17.080,0.95,0.0000,0.0508,0.0401,0.0174,2025-06-11T10:00:24.870643
497,-0.7906,0.8677,-0.1479,46.410,-64.890,-17.150,0.95,0.0368,0.0508,0.0401,0.0087,2025-06-11T10:00:24.870643
498,-0.8486,0.9472,-0.0664,28.560,12.250,-35.840,0.94,0.0368,0.0254,0.0300,0.0087,2025-06-11T10:00:24.870643
499,-0.8516,0.9648,0.0088,15.330,112.210,-47.110,0.94,0.0368,0.0508,0.0300,0.0087,2025-06-11T10:00:24.870643
500,-0.6656,0.8603,0.2098,-2.030,159.600,-51.450,0.95,0.0368,0.0508,0.0401,0.0174,2025-06-11T10:00:24.870643
501,-0.2489,0.9423,0.0112,14.350,181.300,-48.930,0.95,0.0368,0.0508,0.0300,0.0174,2025-06-11T10:00:25.471838
502,-0.1591,1.0175,-0.0137,-7.840,147.770,-4.970,0.95,0.0184,0.0000,0.0501,0.0262,2025-06-11T10:00:25.471838
503,0.1157,0.9526,-0.0185,-10.430,97.160,-5.180,0.94,0.0368,0.0254,0.0300,0.0087,2025-06-11T10:00:25.471838
504,0.1484,0.9199,-0.0888,4.620,-0.560,44.520,0.95,0.0368,0.0762,0.0300,0.0174,2025-06-11T10:00:25.471838
505,0.0976,0.7993,-0.1713,1.050,-69.860,55.160,0.95,0.0552,0.0762,0.0300,0.0087,2025-06-11T10:00:25.471838
506,0.0342,0.7998,-0.3938,-48.090,-130.130,63.350,0.95,0.0184,0.0000,0.0401,0.0174,2025-06-11T10:00:25.471838
507,-0.1196,0.6466,-0.1401,-85.330,-168.000,85.050,0.95,0.0184,0.0508,0.0300,0.0174,2025-06-11T10:00:25.471838
508,-0.0854,0.2811,0.6915,-46.900,-181.860,66.710,0.95,0.0184,0.0254,0.0300,0.0087,2025-06-11T10:00:25.471838
509,-0.2108,0.8359,-0.0112,-123.130,-193.900,132.090,0.95,0.0368,0.0508,0.0401,0.0087,2025-06-11T10:00:25.471838
510,-0.1972,0.7579,0.3636,-139.790,-134.400,65.380,0.95,0.0368,0.0508,0.0300,0.0087,2025-06-11T10:00:25.471838
511,-0.1640,0.8037,0.5788,-171.290,-142.380,73.850,0.95,0.0368,0.0254,0.0401,0.0087,2025-06-11T10:00:25.471838
512,-0.1845,1.1253,0.6105,-176.750,-117.530,51.030,0.95,0.0000,0.0254,0.0000,0.0087,2025-06-11T10:00:25.471838
513,-0.3109,1.4825,0.5461,-109.620,-103.250,65.310,0.95,0.0368,0.0508,0.0401,0.0174,2025-06-11T10:00:25.471838
514,-0.2601,1.6299,0.4148,-45.780,-35.910,-14.630,0.95,0.0184,0.0254,0.0401,0.0087,2025-06-11T10:00:25.472836
515,-0.3362,1.5167,0.5266,45.850,-68.530,31.360,0.95,0.0000,0.0000,0.0200,0.0087,2025-06-11T10:00:25.472836
516,-0.2801,1.1478,0.7008,92.890,-68.880,36.190,0.95,0.0184,0.0254,0.0300,0.0087,2025-06-11T10:00:25.472836
517,-0.2996,1.0350,0.6159,127.330,-13.090,24.990,0.95,0.0368,0.0508,0.0300,0.0174,2025-06-11T10:00:25.472836
518,-0.3792,1.1488,0.0634,173.180,24.990,38.850,0.95,0.0368,0.0254,0.0401,0.0174,2025-06-11T10:00:25.472836
519,-0.5070,0.9867,-0.6129,226.170,52.850,48.510,0.95,0.0368,0.0254,0.0300,0.0174,2025-06-11T10:00:25.472836
520,-0.3592,0.0664,-0.3782,87.150,122.360,1.190,0.95,0.0368,0.0508,0.0300,0.0174,2025-06-11T10:00:25.472836
521,-0.4026,0.0732,-0.4704,-27.510,140.350,33.810,0.94,0.0184,0.0254,0.0401,0.0174,2025-06-11T10:00:25.472836
522,-0.2372,0.0493,-0.0386,-203.000,183.050,25.690,0.95,0.0552,0.0508,0.0300,0.0174,2025-06-11T10:00:25.472836
523,0.1503,1.2312,0.5407,-346.360,274.960,-140.000,0.94,0.0368,0.0508,0.0401,0.0174,2025-06-11T10:00:25.472836
524,0.7681,1.9315,1.0370,-252.980,126.420,-36.260,0.95,0.0184,0.0254,0.0200,0.0087,2025-06-11T10:00:25.472836
525,0.3616,2.3253,1.3815,-19.880,-14.630,56.770,0.95,0.0368,0.0254,0.0300,0.0174,2025-06-11T10:00:25.472836
526,0.0630,1.9081,0.7832,270.970,-44.380,32.270,0.95,0.0184,0.0254,0.0401,0.0087,2025-06-11T10:00:25.472836
527,-0.0996,0.7100,0.2074,340.830,-39.130,20.720,0.95,0.0368,0.0508,0.0200,0.0087,2025-06-11T10:00:25.472836
528,-0.1313,0.1313,-0.1640,169.120,-19.180,-6.790,0.95,0.0184,0.0762,0.0300,0.0174,2025-06-11T10:00:25.472836
529,-0.2323,0.4534,-0.3289,73.430,-38.220,21.700,0.95,0.0184,0.0254,0.0300,0.0174,2025-06-11T10:00:25.472836
530,-0.0249,0.4324,-0.1449,0.140,-8.470,-35.350,0.95,0.0184,0.0508,0.0300,0.0000,2025-06-11T10:00:25.472836
531,-0.2313,0.8867,-0.3894,-22.750,-30.660,35.560,0.95,0.0368,0.0254,0.0300,0.0174,2025-06-11T10:00:25.472836
532,-0.1474,0.8335,-0.2240,-70.980,10.290,-23.310,0.96,0.0368,0.0508,0.0300,0.0174,2025-06-11T10:00:25.472836
533,-0.1362,0.8111,0.0195,-80.360,1.400,-12.110,0.95,0.0184,0.0508,0.0401,0.0174,2025-06-11T10:00:25.472836
534,-0.1649,0.8799,0.0693,-98.770,-25.550,20.440,0.95,0.0184,0.0254,0.0401,0.0087,2025-06-11T10:00:25.472836
535,-0.1542,0.9296,0.1723,-96.040,-27.510,21.000,0.94,0.0184,0.0254,0.0300,0.0174,2025-06-11T10:00:25.472836
536,-0.1127,0.7954,0.7208,-145.530,-14.770,2.450,0.95,0.0368,0.0000,0.0200,0.0000,2025-06-11T10:00:25.472836
537,-0.2206,1.3781,0.5368,-86.730,-16.520,35.840,0.95,0.0368,0.0508,0.0401,0.0174,2025-06-11T10:00:25.472836
538,-0.1732,1.3976,0.5749,-26.320,32.410,-2.240,0.95,0.0368,0.0762,0.0401,0.0174,2025-06-11T10:00:25.472836
539,-0.1010,1.6641,0.1928,38.360,6.930,-10.570,0.94,0.0184,0.0254,0.0300,0.0174,2025-06-11T10:00:25.472836
540,0.1498,1.2068,0.2991,154.000,6.090,-36.750,0.95,0.0000,0.0508,0.0300,0.0174,2025-06-11T10:00:25.472836
541,0.2835,1.0175,0.2425,182.000,-55.090,-12.670,0.95,0.0368,0.0254,0.0300,0.0000,2025-06-11T10:00:25.472836
542,0.2786,0.9789,0.1113,195.580,-117.740,6.160,0.95,0.0552,0.0762,0.0401,0.0174,2025-06-11T10:00:25.472836
543,0.0649,0.8130,0.1098,169.470,-178.080,24.570,0.95,0.0368,0.0508,0.0200,0.0087,2025-06-11T10:00:25.472836
544,-0.4412,0.8081,-0.0825,138.320,-171.570,37.170,0.95,0.0184,0.0508,0.0300,0.0087,2025-06-11T10:00:25.472836
545,-0.6905,0.7920,-0.1728,79.450,-82.460,6.860,0.95,0.0368,0.0000,0.0300,0.0087,2025-06-11T10:00:25.726439
546,-0.6822,0.7769,-0.1508,36.470,18.340,-19.040,0.95,0.0184,0.0508,0.0300,0.0087,2025-06-11T10:00:25.726439
547,-0.4265,0.7998,-0.1225,-17.710,89.810,-21.140,0.94,0.0184,0.0508,0.0200,0.0174,2025-06-11T10:00:25.727458
548,-0.2752,0.9282,-0.1069,-30.730,136.850,-44.520,0.95,0.0184,0.0508,0.0300,0.0174,2025-06-11T10:00:25.727458
549,-0.3592,0.4919,0.1264,-41.020,166.460,32.550,0.95,0.0184,0.0762,0.0300,0.0174,2025-06-11T10:00:25.727458
550,0.0937,0.7867,-0.1396,-144.760,195.650,-59.080,0.95,0.0184,0.0508,0.0200,0.0087,2025-06-11T10:00:25.727458
551,0.2279,1.1029,0.0693,-146.440,95.410,-5.110,0.95,0.0368,0.0508,0.0300,0.0087,2025-06-11T10:00:25.727458
552,0.0459,1.2537,0.2347,-99.120,40.530,33.040,0.95,0.0000,0.0508,0.0300,0.0174,2025-06-11T10:00:25.727458
553,0.0669,1.1409,0.2528,-59.640,13.160,16.590,0.95,0.0368,0.0508,0.0300,0.0087,2025-06-11T10:00:25.727458
554,0.1801,0.9443,0.1366,-43.330,-26.740,23.660,0.95,0.0000,0.0254,0.0300,0.0174,2025-06-11T10:00:25.727458
555,0.0956,0.8452,0.0688,-54.880,-75.390,50.330,0.94,0.0368,0.0254,0.0200,0.0174,2025-06-11T10:00:25.727458
556,-0.0869,0.8667,0.0547,-91.000,-87.500,43.890,0.95,0.0184,0.0254,0.0401,0.0087,2025-06-11T10:00:25.728453
557,-0.2181,1.0282,0.1830,-101.640,-75.460,39.480,0.95,0.0368,0.0508,0.0300,0.0174,2025-06-11T10:00:25.728453
558,-0.1049,1.1048,0.2913,-71.750,-45.080,15.960,0.96,0.0000,0.0254,0.0300,0.0174,2025-06-11T10:00:25.728453
559,-0.0346,1.1380,0.2250,-44.380,-68.670,44.380,0.95,0.0368,0.0254,0.0300,0.0087,2025-06-11T10:00:25.728453
560,-0.0956,0.8672,0.6954,-51.170,-160.230,124.880,0.95,0.0368,0.0254,0.0300,0.0087,2025-06-11T10:00:25.728453
561,-0.1630,1.2537,0.2621,-17.360,-104.300,62.370,0.95,0.0184,0.0508,0.0200,0.0087,2025-06-11T10:00:25.728453
562,-0.2762,1.2864,0.3035,20.650,-42.420,53.200,0.95,0.0368,0.0762,0.0300,0.0087,2025-06-11T10:00:25.915108
563,-0.3011,1.1458,0.2450,67.340,11.760,53.130,0.95,0.0184,0.0508,0.0401,0.0174,2025-06-11T10:00:25.915108
564,-0.2045,0.8965,0.1986,61.320,74.970,13.370,0.95,0.0184,0.0254,0.0300,0.0087,2025-06-11T10:00:25.915108
565,-0.1615,0.7501,0.1010,44.310,102.690,17.430,0.95,0.0368,0.0508,0.0300,0.0087,2025-06-11T10:00:25.915108
566,-0.0449,0.7100,-0.0078,3.500,133.840,-11.480,0.95,0.0368,0.0508,0.0401,0.0087,2025-06-11T10:00:25.915108
567,-0.0244,0.7242,0.0312,-48.090,97.370,38.570,0.95,0.0184,0.0508,0.0100,0.0087,2025-06-11T10:00:25.915108
568,0.0181,0.7945,0.1484,-79.520,82.740,52.500,0.95,0.0184,0.0000,0.0300,0.0087,2025-06-11T10:00:25.916123
569,0.1713,1.0224,0.2274,-102.970,126.630,-15.330,0.94,0.0368,0.0508,0.0300,0.0087,2025-06-11T10:00:25.916123
570,0.3528,1.2229,0.4553,-68.180,81.130,17.920,0.94,0.0000,0.0254,0.0300,0.0087,2025-06-11T10:00:25.916123
571,0.4382,1.2283,0.4270,1.960,24.710,20.790,0.95,0.0184,0.0254,0.0401,0.0087,2025-06-11T10:00:25.916123
572,0.3055,0.8804,0.4192,39.270,-27.370,63.490,0.95,0.0368,0.0762,0.0300,0.0087,2025-06-11T10:00:25.916123
573,0.1137,0.8281,0.1108,10.010,-18.760,25.270,0.95,0.0368,0.0508,0.0401,0.0087,2025-06-11T10:00:25.916123
574,0.0342,0.8018,0.0834,-33.530,-24.150,33.180,0.95,0.0184,0.0508,0.0300,0.0087,2025-06-11T10:00:25.916123
575,0.0410,0.9526,0.2352,-56.560,-12.810,19.740,0.94,0.0368,0.0254,0.0300,0.0087,2025-06-11T10:00:25.917121
576,0.1620,1.2478,0.3802,-38.430,-10.430,8.330,0.95,0.0000,0.0254,0.0300,0.0087,2025-06-11T10:00:25.917121
577,0.2835,1.1488,0.4455,-6.230,-49.560,25.970,0.94,0.0184,0.0000,0.0300,0.0087,2025-06-11T10:00:25.917121
578,0.1454,1.1453,0.4329,31.780,-82.950,55.230,0.95,0.0184,0.0762,0.0300,0.0174,2025-06-11T10:00:26.091827
579,-0.0010,1.0394,0.3353,50.260,-70.980,49.770,0.95,0.0000,0.0762,0.0300,0.0087,2025-06-11T10:00:26.091827
580,-0.0922,1.0155,0.1776,60.060,-24.290,34.230,0.95,0.0184,0.0254,0.0401,0.0087,2025-06-11T10:00:26.091827
581,-0.1649,0.9013,0.1127,45.220,38.920,5.880,0.95,0.0368,0.0254,0.0401,0.0087,2025-06-11T10:00:26.091827
582,-0.0425,0.8838,0.0922,16.940,97.580,-21.700,0.95,0.0184,0.0508,0.0300,0.0087,2025-06-11T10:00:26.091827
583,0.0844,0.9614,0.0893,10.990,132.440,-31.500,0.95,0.0184,0.0254,0.0401,0.0174,2025-06-11T10:00:26.091827
584,0.2279,0.9145,0.2991,-3.570,128.800,-38.010,0.95,0.0368,0.0000,0.0401,0.0087,2025-06-11T10:00:26.091827
585,0.3538,1.1043,0.3640,1.400,91.210,-35.350,0.95,0.0184,0.0254,0.0300,0.0087,2025-06-11T10:00:26.091827
586,0.4006,1.1151,0.3523,36.820,30.520,-16.450,0.95,0.0184,0.0508,0.0300,0.0174,2025-06-11T10:00:26.091827
587,0.3314,1.0150,0.2425,56.840,-21.490,2.940,0.95,0.0368,0.0254,0.0300,0.0087,2025-06-11T10:00:26.091827
588,0.0712,0.8974,0.1113,58.170,-40.040,15.610,0.95,0.0368,0.0254,0.0300,0.0174,2025-06-11T10:00:26.091827
589,0.0127,0.7125,-0.0239,25.060,-22.610,6.440,0.95,0.0184,0.0254,0.0300,0.0087,2025-06-11T10:00:26.091827
590,-0.2621,0.8652,-0.1908,-27.300,16.870,-12.180,0.95,0.0184,0.0508,0.0300,0.0087,2025-06-11T10:00:26.092900
591,-0.2874,0.8608,-0.1210,-33.180,132.930,-54.180,0.95,0.0368,0.0508,0.0300,0.0174,2025-06-11T10:00:26.092900
592,-0.1391,0.8072,-0.0517,-65.870,187.880,-68.740,0.95,0.0368,0.0254,0.0300,0.0174,2025-06-11T10:00:26.297261
593,0.0478,0.7881,-0.0010,-85.190,271.530,-141.260,0.95,0.0368,0.0254,0.0300,0.0087,2025-06-11T10:00:26.297261
594,0.0956,1.0355,-0.0312,-82.110,139.580,-61.600,0.95,0.0368,0.0254,0.0300,0.0087,2025-06-11T10:00:26.298250
595,0.2879,0.9975,0.0761,-47.040,0.140,-34.860,0.94,0.0184,0.0000,0.0300,0.0087,2025-06-11T10:00:26.298250
596,0.1952,0.7496,0.3192,-28.350,-90.020,24.850,0.95,0.0368,0.0508,0.0300,0.0174,2025-06-11T10:00:26.298250
597,0.1659,0.5085,0.1937,-36.120,-162.890,81.690,0.95,0.0000,0.0508,0.0300,0.0087,2025-06-11T10:00:26.298250
598,0.1932,1.1009,0.2625,-163.030,-124.740,-5.460,0.95,0.0368,0.0508,0.0401,0.0174,2025-06-11T10:00:26.298250
599,-1.9608,7.4684,-0.0590,-176.050,72.310,-45.290,0.95,0.0184,0.0254,0.0300,0.0174,2025-06-11T10:00:26.298250
600,-0.0468,-1.4708,0.9399,386.190,37.870,72.730,0.95,0.0368,0.0508,0.0401,0.0087,2025-06-11T10:00:26.298250
601,-0.6837,-1.9086,1.4289,116.410,-409.360,832.720,0.94,0.0184,0.0254,0.0300,0.0174,2025-06-11T10:00:26.298250
602,0.6368,-1.3474,0.0576,-585.760,-379.610,356.790,0.95,0.0368,0.0254,0.0300,0.0174,2025-06-11T10:00:26.299242
603,4.7121,7.5772,1.0477,59.290,703.220,-1738.100,0.95,0.0184,0.0508,0.0300,0.0087,2025-06-11T10:00:26.299242
604,-0.4846,0.7159,1.3640,133.140,487.410,476.280,0.95,0.0552,0.0508,0.0401,0.0087,2025-06-11T10:00:26.299242
605,0.0786,-0.8808,0.6847,-130.620,235.690,-334.740,0.95,0.0184,0.0254,0.0300,0.0174,2025-06-11T10:00:26.299242
606,1.0941,-0.1586,-0.1688,-335.370,-361.900,239.050,0.94,0.0368,0.0000,0.0200,0.0087,2025-06-11T10:00:26.299242
607,0.1332,0.7754,-0.2386,-506.590,-429.170,278.950,0.95,0.0368,0.0762,0.0401,0.0174,2025-06-11T10:00:26.533542
608,0.0171,1.1087,-0.2206,-315.280,-256.690,68.950,0.95,0.0368,0.0508,0.0300,0.0174,2025-06-11T10:00:26.533542
609,0.0825,0.7183,-0.0073,-207.340,-87.850,-19.810,0.95,0.0368,0.0508,0.0300,0.0087,2025-06-11T10:00:26.533542
610,0.0595,0.1191,0.3030,-175.490,-10.500,-34.160,0.95,0.0184,0.0254,0.0300,0.0174,2025-06-11T10:00:26.533542
611,0.1132,-0.2484,0.4387,-246.400,18.480,-106.820,0.95,0.0000,0.0254,0.0300,0.0087,2025-06-11T10:00:26.533542
612,0.2435,-0.4538,0.5793,-358.750,-24.850,-51.870,0.95,0.0184,0.0000,0.0300,0.0174,2025-06-11T10:00:26.533542
613,0.0825,-0.3802,0.7481,-433.650,-71.400,-4.620,0.95,0.0368,0.0254,0.0401,0.0087,2025-06-11T10:00:26.533542
614,0.1932,-0.3274,0.8223,-465.080,-91.280,-25.410,0.95,0.0184,0.0254,0.0300,0.0087,2025-06-11T10:00:26.533542
615,0.1039,-0.2738,0.9345,-458.850,-84.420,-18.900,0.95,0.0368,0.0508,0.0300,0.0174,2025-06-11T10:00:26.533542
616,0.1103,-0.3933,1.0599,-439.530,-54.740,-42.490,0.95,0.0368,0.0254,0.0300,0.0087,2025-06-11T10:00:26.533542
617,-4.2275,4.3661,13.4205,-1084.930,170.590,657.860,0.96,0.0184,0.0508,0.0300,0.0087,2025-06-11T10:00:26.533542
618,2.7055,-0.8125,-0.7793,-123.970,542.430,-378.770,0.94,0.0184,0.0254,0.0300,0.0000,2025-06-11T10:00:26.533542
619,-1.2698,1.1658,1.1292,-364.980,-116.900,195.160,0.94,0.0368,0.0254,0.0200,0.0174,2025-06-11T10:00:26.533542
620,1.0848,0.4124,0.2557,30.730,-417.830,-105.070,0.95,0.0184,0.0254,0.0401,0.0087,2025-06-11T10:00:26.533542
621,-0.2152,0.6969,0.9077,55.510,-682.150,314.440,0.95,0.0184,0.0000,0.0300,0.0000,2025-06-11T10:00:26.533542
622,-0.1898,0.2577,0.3880,98.420,-527.380,180.390,0.95,0.0368,0.0508,0.0300,0.0087,2025-06-11T10:00:26.731765
623,-0.2635,0.0000,0.6583,111.930,-215.810,-3.710,0.94,0.0368,0.0254,0.0200,0.0000,2025-06-11T10:00:26.731765
624,0.1118,-0.7964,3.5551,-261.870,395.010,-493.150,0.94,0.0368,0.0508,0.0501,0.0174,2025-06-11T10:00:26.731765
625,0.1967,-0.2015,1.5392,-52.150,514.080,-242.970,0.95,0.0368,0.0254,0.0300,0.0174,2025-06-11T10:00:26.731765
626,0.2103,0.5592,1.6895,-265.230,393.750,-356.790,0.95,0.0184,0.0254,0.0200,0.0087,2025-06-11T10:00:26.731765
627,-0.1254,0.6256,1.1448,-33.320,86.240,19.600,0.95,0.0184,0.0254,0.0401,0.0087,2025-06-11T10:00:26.731765
628,-0.1064,0.4909,1.1897,-36.750,-126.770,-49.630,0.95,0.0184,0.0508,0.0300,0.0174,2025-06-11T10:00:26.731765
629,-0.3504,0.4314,1.1761,58.310,-256.340,141.960,0.94,0.0184,0.0254,0.0401,0.0087,2025-06-11T10:00:26.731765
630,-0.2445,0.1957,0.9550,49.420,-218.890,83.930,0.95,0.0184,0.0254,0.0300,0.0174,2025-06-11T10:00:26.732763
631,-0.1200,0.0927,0.4987,59.780,-229.040,183.190,0.96,0.0368,0.0508,0.0200,0.0087,2025-06-11T10:00:26.732763
632,-0.1840,-0.0146,0.5158,6.580,-106.330,31.430,0.95,0.0368,0.0508,0.0300,0.0174,2025-06-11T10:00:26.732763
633,-0.7340,0.3845,1.4733,14.840,112.350,23.030,0.96,0.0184,0.0254,0.0300,0.0087,2025-06-11T10:00:26.732763
634,0.2333,-0.2840,0.4338,-26.320,184.380,-137.970,0.95,0.0368,0.0000,0.0401,0.0000,2025-06-11T10:00:26.732763
635,0.1806,0.4543,1.2449,-42.980,133.840,-147.350,0.95,0.0368,0.0254,0.0200,0.0087,2025-06-11T10:00:26.732763
636,0.2181,0.0361,0.7335,25.200,-0.490,30.030,0.94,0.0000,0.0254,0.0300,0.0087,2025-06-11T10:00:26.732763
637,-0.1322,0.3016,1.0526,-26.670,-35.420,-38.570,0.95,0.0184,0.0254,0.0401,0.0087,2025-06-11T10:00:26.732763
638,-0.3070,0.3143,0.9926,12.040,-52.780,66.780,0.94,0.0184,0.0508,0.0300,0.0174,2025-06-11T10:00:26.814607
639,0.0639,0.1640,0.9077,9.170,-29.960,16.870,0.95,0.0368,0.0254,0.0300,0.0174,2025-06-11T10:00:26.814607
640,-0.0366,0.1801,1.0219,6.860,-13.650,11.410,0.94,0.0368,0.1273,0.0401,0.0087,2025-06-11T10:00:26.814607
641,0.1269,0.1527,1.0028,8.470,-17.430,23.030,0.95,0.0368,0.0508,0.0401,0.0174,2025-06-11T10:00:26.814607
642,0.0786,0.1630,0.9911,-2.100,5.670,-24.150,0.95,0.0368,0.0508,0.0401,0.0087,2025-06-11T10:00:26.814607
643,-0.0195,0.2308,0.9980,-4.200,18.060,-9.310,0.94,0.0184,0.0508,0.0401,0.0087,2025-06-11T10:00:26.814607
644,0.0337,0.1859,0.9858,-2.030,25.690,-13.090,0.95,0.0184,0.0508,0.0300,0.0174,2025-06-11T10:00:26.814607
645,0.0229,0.2006,1.0024,-7.070,25.690,-30.730,0.94,0.0184,0.0254,0.0401,0.0174,2025-06-11T10:00:26.912544
646,-0.0688,0.2401,1.0307,-0.980,11.480,-4.200,0.95,0.0368,0.0254,0.0200,0.0000,2025-06-11T10:00:26.912544
647,-0.0049,0.1991,1.0111,0.350,-2.450,3.080,0.95,0.0368,0.0000,0.0300,0.0174,2025-06-11T10:00:26.912544
648,-0.0205,0.2079,1.0175,0.140,-15.190,2.590,0.94,0.0368,0.0508,0.0401,0.0174,2025-06-11T10:00:26.913542
649,-0.0254,0.2181,1.0082,3.010,-21.560,16.590,0.94,0.0184,0.0508,0.0200,0.0174,2025-06-11T10:00:26.913542
650,0.0234,0.1879,0.9853,2.380,-18.060,9.800,0.95,0.0184,0.0254,0.0401,0.0174,2025-06-11T10:00:26.913542
651,0.0215,0.1932,0.9789,-0.420,-6.930,-0.070,0.95,0.0184,0.0000,0.0300,0.0087,2025-06-11T10:00:27.146289
652,0.0122,0.2006,0.9838,-0.630,3.290,-2.940,0.95,0.0184,0.0254,0.0300,0.0174,2025-06-11T10:00:27.146289
653,0.0195,0.1932,0.9838,-2.030,12.950,-12.390,0.95,0.0184,0.0508,0.0300,0.0174,2025-06-11T10:00:27.146289
654,-0.0063,0.2094,1.0082,-3.080,15.540,-14.910,0.94,0.0184,0.0762,0.0300,0.0000,2025-06-11T10:00:27.146289
655,-0.0181,0.2094,1.0053,-2.030,10.850,-7.630,0.95,0.0184,0.0508,0.0300,0.0087,2025-06-11T10:00:27.146289
656,-0.0390,0.2181,1.0194,0.420,-3.010,2.660,0.97,0.0368,0.0508,0.0300,0.0174,2025-06-11T10:00:27.146289
657,0.0044,0.1918,0.9984,-0.210,-12.460,1.890,0.95,0.0368,0.0508,0.0300,0.0174,2025-06-11T10:00:27.146289
658,-0.0234,0.2152,1.0014,1.470,-14.560,7.630,0.95,0.0184,0.0508,0.0401,0.0087,2025-06-11T10:00:27.146289
659,0.0039,0.1928,0.9897,1.890,-11.760,9.660,0.95,0.0184,0.0254,0.0401,0.0087,2025-06-11T10:00:27.146289
660,0.0205,0.1884,0.9819,-0.840,-1.400,-4.900,0.95,0.0368,0.0508,0.0300,0.0174,2025-06-11T10:00:27.146289
661,-0.0073,0.2050,0.9931,-1.050,4.760,-4.690,0.95,0.0368,0.0254,0.0401,0.0087,2025-06-11T10:00:27.147284
662,0.0044,0.1913,0.9931,-1.190,7.910,-7.280,0.95,0.0368,0.0508,0.0401,0.0087,2025-06-11T10:00:27.147284
663,-0.0068,0.2040,0.9980,-2.660,8.050,-11.410,0.95,0.0368,0.0508,0.0300,0.0174,2025-06-11T10:00:27.147284
664,-0.0415,0.2181,1.0116,0.910,-1.400,3.710,0.95,0.0184,0.0762,0.0300,0.0174,2025-06-11T10:00:27.147284
665,-0.0039,0.1981,1.0014,0.560,-10.290,2.450,0.95,0.0368,0.0254,0.0401,0.0087,2025-06-11T10:00:27.165761
666,-0.0142,0.2035,0.9984,-0.350,-9.170,-0.700,0.95,0.0184,0.0508,0.0300,0.0174,2025-06-11T10:00:27.165761
667,-0.0068,0.2020,0.9911,0.980,-5.880,6.160,0.95,0.0000,0.0000,0.0501,0.0174,2025-06-11T10:00:27.165761
668,0.0190,0.1898,0.9838,-0.420,0.910,-4.340,0.95,0.0184,0.0254,0.0300,0.0174,2025-06-11T10:00:27.165761
669,-0.0059,0.2020,0.9984,-1.890,4.760,-8.540,0.95,0.0184,0.0508,0.0300,0.0174,2025-06-11T10:00:27.165761
670,-0.0273,0.2098,1.0058,0.560,0.140,4.060,0.95,0.0184,0.0254,0.0300,0.0087,2025-06-11T10:00:27.165761
671,0.0049,0.1932,1.0038,-0.420,-4.830,-1.960,0.94,0.0368,0.0508,0.0602,0.0174,2025-06-11T10:00:27.433014
672,-0.0215,0.2094,1.0063,0.490,-8.680,2.660,0.94,0.0184,0.0254,0.0401,0.0174,2025-06-11T10:00:27.433014
673,-0.0039,0.2001,0.9892,0.280,-4.200,1.120,0.94,0.0368,0.0254,0.0300,0.0087,2025-06-11T10:00:27.433014
674,0.0000,0.1942,0.9882,-0.910,1.400,-2.870,0.95,0.0552,0.0000,0.0401,0.0174,2025-06-11T10:00:27.433014
675,-0.0210,0.2064,1.0028,0.000,1.540,-0.420,0.95,0.0184,0.0508,0.0300,0.0174,2025-06-11T10:00:27.433014
676,-0.0068,0.2001,1.0014,-0.280,-2.310,-1.960,0.95,0.0000,0.0000,0.0300,0.0174,2025-06-11T10:00:27.433014
677,-0.0176,0.2084,1.0072,0.140,-5.530,0.560,0.95,0.0184,0.0254,0.0300,0.0174,2025-06-11T10:00:27.433014
678,-0.0078,0.2035,0.9989,0.630,-7.770,4.060,0.95,0.0184,0.0254,0.0300,0.0000,2025-06-11T10:00:27.433014
679,0.0029,0.1937,0.9872,-1.330,-1.750,-4.690,0.95,0.0000,0.0254,0.0200,0.0087,2025-06-11T10:00:27.433014
680,-0.0278,0.2128,0.9989,0.350,-0.910,2.800,0.95,0.0368,0.0000,0.0300,0.0087,2025-06-11T10:00:27.433014
681,0.0059,0.1937,0.9945,-0.140,-1.400,-3.220,0.94,0.0184,0.0254,0.0300,0.0087,2025-06-11T10:00:27.433014
682,-0.0171,0.2045,1.0033,-0.420,-2.240,-2.940,0.94,0.0184,0.0000,0.0300,0.0174,2025-06-11T10:00:27.433014
683,-0.0171,0.2054,0.9989,0.280,-3.710,2.940,0.95,0.0368,0.0508,0.0300,0.0087,2025-06-11T10:00:27.433014
684,-0.0024,0.1952,0.9970,-0.140,-3.430,-1.400,0.95,0.0737,0.0508,0.0401,0.0087,2025-06-11T10:00:27.433014
685,-0.0146,0.2059,0.9984,-0.070,-3.220,-0.560,0.95,0.0368,0.0254,0.0401,0.0174,2025-06-11T10:00:27.433014
686,-0.0098,0.2015,0.9926,0.140,-2.730,0.490,0.95,0.0184,0.0762,0.0300,0.0174,2025-06-11T10:00:27.433014
687,-0.0068,0.2006,0.9970,-0.490,-1.470,-2.520,0.95,0.0368,0.0508,0.0401,0.0174,2025-06-11T10:00:27.433014
688,-0.0137,0.2040,0.9989,-0.420,-1.120,-1.540,0.95,0.0368,0.0000,0.0300,0.0174,2025-06-11T10:00:27.527514
689,-0.0098,0.2006,0.9999,-0.280,-1.190,-1.260,0.95,0.0368,0.0000,0.0200,0.0087,2025-06-11T10:00:27.527514
690,-0.0307,0.2084,1.0082,0.700,-3.220,1.610,0.95,0.0184,0.0762,0.0401,0.0087,2025-06-11T10:00:27.527514
691,-0.0049,0.1976,0.9984,-0.560,-3.570,-1.890,0.95,0.0184,0.0000,0.0401,0.0174,2025-06-11T10:00:27.527514
692,-0.0181,0.2054,0.9965,-0.280,-3.150,0.700,0.95,0.0368,0.0508,0.0401,0.0087,2025-06-11T10:00:27.527514
693,-0.0059,0.1981,0.9931,-0.140,-2.100,-0.420,0.95,0.0184,0.0508,0.0300,0.0087,2025-06-11T10:00:27.527514
694,-0.0122,0.2006,0.9965,0.630,-3.640,0.140,0.95,0.0184,0.0254,0.0200,0.0174,2025-06-11T10:00:27.527514
695,-0.0181,0.2035,1.0028,0.210,-3.150,-0.420,0.95,0.0184,0.0508,0.0300,0.0087,2025-06-11T10:00:27.527514
696,-0.0107,0.2006,0.9960,-0.210,-3.010,-0.140,0.94,0.0184,0.0508,0.0200,0.0087,2025-06-11T10:00:27.527514
697,-0.0220,0.1845,0.9433,1.680,-4.270,1.400,0.95,0.0184,0.0508,0.0300,0.0087,2025-06-11T10:00:27.527514
698,-0.0142,0.2308,1.0824,-2.100,-3.780,-4.130,0.95,0.0000,0.0000,0.0300,0.0087,2025-06-11T10:00:27.731791
699,0.0020,0.2020,1.0238,1.750,-0.350,5.250,0.95,0.0184,0.0508,0.0401,0.0174,2025-06-11T10:00:27.731791
700,-0.0107,0.1879,0.9331,-3.710,-6.930,-9.730,0.95,0.0184,0.0000,0.0401,0.0087,2025-06-11T10:00:27.731791
701,-0.0468,0.2250,1.0311,1.050,-4.550,8.190,0.95,0.0184,0.0508,0.0300,0.0087,2025-06-11T10:00:27.731791
702,0.0488,0.1688,0.9882,4.480,5.460,-8.260,0.95,0.0552,0.0000,0.0300,0.0174,2025-06-11T10:00:27.731791
703,0.0307,0.1747,0.9672,-3.780,-7.630,-8.540,0.95,0.0000,0.0508,0.0200,0.0174,2025-06-11T10:00:27.731791
704,-0.0434,0.2279,1.0233,-0.910,-2.870,1.890,0.95,0.0368,0.0508,0.0300,0.0087,2025-06-11T10:00:27.731791
705,0.0156,0.1845,0.9628,1.260,-0.840,-1.540,0.95,0.0000,0.0508,0.0200,0.0174,2025-06-11T10:00:27.731791
706,0.0029,0.1908,0.9838,-2.800,-3.780,-3.150,0.95,0.0184,0.0254,0.0300,0.0087,2025-06-11T10:00:27.731791
707,-0.0273,0.2054,0.9936,0.910,-3.430,0.490,0.95,0.0368,0.0254,0.0300,0.0174,2025-06-11T10:00:27.731791
708,-0.0049,0.2025,0.9921,0.770,-3.640,-0.560,0.95,0.0184,0.0254,0.0401,0.0000,2025-06-11T10:00:27.731791
709,-0.0132,0.2045,1.0024,0.350,-2.800,0.210,0.94,0.0368,0.0762,0.0401,0.0174,2025-06-11T10:00:27.731791
710,-0.0161,0.1957,0.9984,-1.050,-3.010,-0.070,0.95,0.0368,0.0508,0.0300,0.0087,2025-06-11T10:00:27.732877
711,-0.0117,0.1962,0.9945,0.350,-3.290,-0.350,0.95,0.0000,0.0254,0.0200,0.0174,2025-06-11T10:00:27.732877
712,-0.0059,0.2050,1.0009,-0.140,-3.220,-0.490,0.95,0.0184,0.0508,0.0300,0.0000,2025-06-11T10:00:27.732877
713,-0.0088,0.2025,1.0004,-0.630,-2.800,0.000,0.95,0.0368,0.0254,0.0100,0.0087,2025-06-11T10:00:27.732877
714,-0.0107,0.1996,0.9887,-0.210,-3.430,-0.350,0.95,0.0368,0.0508,0.0300,0.0087,2025-06-11T10:00:27.934418
715,-0.0132,0.1991,0.9975,0.210,-2.940,-0.140,0.95,0.0184,0.0254,0.0401,0.0087,2025-06-11T10:00:27.934418
716,-0.0127,0.2006,1.0048,0.280,-3.220,-0.350,0.95,0.0184,0.0508,0.0300,0.0087,2025-06-11T10:00:27.934418
717,-0.0117,0.1986,0.9950,0.000,-3.360,-0.420,0.95,0.0184,0.0762,0.0300,0.0174,2025-06-11T10:00:27.934418
718,-0.0107,0.2030,0.9950,-0.560,-2.730,-0.070,0.95,0.0368,0.0254,0.0200,0.0087,2025-06-11T10:00:27.934418
719,-0.0122,0.2001,0.9921,0.350,-3.220,-0.210,0.95,0.0368,0.0254,0.0401,0.0174,2025-06-11T10:00:27.934418
720,-0.0132,0.1991,0.9965,0.070,-3.150,-0.070,0.95,0.0184,0.0508,0.0300,0.0174,2025-06-11T10:00:27.934418
721,-0.0137,0.2020,1.0028,0.070,-3.220,-0.140,0.94,0.0184,0.0254,0.0401,0.0174,2025-06-11T10:00:27.934418
722,-0.0117,0.2025,0.9965,0.070,-3.220,-0.210,0.95,0.0184,0.0254,0.0300,0.0087,2025-06-11T10:00:27.934418
723,-0.0098,0.2020,0.9970,-0.280,-2.940,-0.140,0.94,0.0184,0.0254,0.0300,0.0087,2025-06-11T10:00:27.934418
724,-0.0107,0.1991,0.9960,0.210,-3.290,-0.490,0.96,0.0368,0.0254,0.0401,0.0087,2025-06-11T10:00:27.934418
725,-0.0132,0.2011,0.9955,-0.560,-2.940,-0.140,0.95,0.0000,0.0254,0.0401,0.0174,2025-06-11T10:00:27.934418
726,-0.0078,0.2015,0.9965,-0.070,-3.080,-0.420,0.95,0.0184,0.0254,0.0200,0.0087,2025-06-11T10:00:27.934418
727,-0.0112,0.2020,0.9975,0.350,-3.150,-0.210,0.95,0.0184,0.0254,0.0300,0.0087,2025-06-11T10:00:27.934418
728,-0.0127,0.2001,1.0009,-0.350,-3.080,-0.140,0.95,0.0184,0.0254,0.0300,0.0174,2025-06-11T10:00:27.934418
729,-0.0107,0.2011,0.9980,-0.140,-3.150,-0.420,0.95,0.0000,0.0254,0.0300,0.0174,2025-06-11T10:00:28.161602
730,-0.0137,0.2015,0.9945,-0.280,-3.150,-0.210,0.95,0.0184,0.0508,0.0300,0.0262,2025-06-11T10:00:28.161602
731,-0.0137,0.2015,0.9975,0.000,-3.150,-0.210,0.95,0.0368,0.0508,0.0300,0.0174,2025-06-11T10:00:28.161602
732,-0.0132,0.2006,0.9945,0.280,-3.290,-0.280,0.95,0.0368,0.0254,0.0401,0.0174,2025-06-11T10:00:28.161602
733,-0.0112,0.2001,1.0043,-0.140,-3.290,-0.210,0.95,0.0368,0.0254,0.0401,0.0087,2025-06-11T10:00:28.161602
734,-0.0093,0.2035,1.1214,-0.350,-3.010,-0.350,0.95,0.0184,0.0254,0.0300,0.0087,2025-06-11T10:00:28.161602
735,-0.0117,0.2030,0.9994,-0.420,-3.010,-0.280,0.95,0.0184,0.0508,0.0300,0.0087,2025-06-11T10:00:28.161602
736,-0.0093,0.2001,0.9941,-0.070,-3.080,-0.140,0.95,0.0184,0.0254,0.0300,0.0087,2025-06-11T10:00:28.161602
737,-0.0122,0.1996,0.9906,-0.140,-3.150,-0.280,0.95,0.0368,0.0508,0.0200,0.0000,2025-06-11T10:00:28.161602
738,-0.0117,0.1996,1.0024,0.840,-3.290,-0.280,0.95,0.0368,0.1018,0.0401,0.0087,2025-06-11T10:00:28.161602
739,-0.0102,0.2006,1.0038,0.490,-3.080,-0.420,0.95,0.0184,0.0254,0.0200,0.0174,2025-06-11T10:00:28.161602
740,-0.0127,0.1991,0.9999,-0.770,-2.940,-0.140,0.95,0.0368,0.0508,0.0300,0.0087,2025-06-11T10:00:28.161602
741,-0.0112,0.2006,0.9862,-0.140,-3.080,-0.350,0.95,0.0184,0.0508,0.0300,0.0174,2025-06-11T10:00:28.161602
742,-0.0132,0.1976,0.9931,0.280,-3.150,-0.210,0.95,0.0184,0.0254,0.0401,0.0174,2025-06-11T10:00:28.161602
743,-0.0122,0.1991,1.0033,0.280,-3.360,-0.420,0.95,0.0368,0.0508,0.0300,0.0000,2025-06-11T10:00:28.161602
744,-0.0093,0.2025,0.9970,-0.210,-3.290,-0.420,0.95,0.0368,0.0508,0.0401,0.0174,2025-06-11T10:00:28.161602
745,-0.0102,0.2025,0.9989,-0.070,-3.010,-0.210,0.94,0.0184,0.0000,0.0401,0.0174,2025-06-11T10:00:28.161602
746,-0.0117,0.1991,0.9960,-0.210,-3.150,-0.210,0.96,0.0368,0.0762,0.0401,0.0174,2025-06-11T10:00:28.258936
747,-0.0102,0.2015,0.9960,0.000,-3.080,-0.350,0.95,0.0184,0.0508,0.0300,0.0349,2025-06-11T10:00:28.258936
748,-0.0132,0.2006,1.0033,0.000,-3.220,-0.280,0.95,0.0368,0.0254,0.0200,0.0000,2025-06-11T10:00:28.258936
749,-0.0083,0.2040,0.9950,0.070,-3.150,-0.350,0.95,0.0184,0.0000,0.0300,0.0174,2025-06-11T10:00:28.258936
750,-0.0088,0.2035,0.9994,0.070,-3.010,-0.210,0.95,0.0368,0.0254,0.0300,0.0174,2025-06-11T10:00:28.258936
751,-0.0098,0.2020,0.9984,0.070,-3.220,-0.420,0.95,0.0184,0.0254,0.0300,0.0174,2025-06-11T10:00:28.258936
752,-0.0083,0.2015,0.9989,0.070,-3.080,-0.420,0.95,0.0184,0.0508,0.0401,0.0174,2025-06-11T10:00:28.510652
753,-0.0112,0.2011,0.9984,-0.490,-3.080,-0.210,0.95,0.0184,0.0508,0.0300,0.0087,2025-06-11T10:00:28.510652
754,-0.0127,0.2025,0.9936,-0.140,-2.870,-0.210,0.95,0.0184,0.0508,0.0300,0.0174,2025-06-11T10:00:28.511669
755,-0.0112,0.2011,0.9936,0.280,-3.080,-0.210,0.95,0.0184,0.0254,0.0300,0.0000,2025-06-11T10:00:28.511669
756,-0.0107,0.1976,1.0033,0.420,-3.150,-0.280,0.95,0.0368,0.0508,0.0200,0.0087,2025-06-11T10:00:28.511669
757,-0.0088,0.1991,0.9965,0.000,-3.150,-0.420,0.94,0.0000,0.0254,0.0300,0.0174,2025-06-11T10:00:28.511669
758,-0.0132,0.2020,0.9994,-0.630,-2.940,-0.140,0.95,0.0184,0.0254,0.0300,0.0174,2025-06-11T10:00:28.511669
759,-0.0102,0.2020,0.9945,0.000,-2.940,-0.350,0.94,0.0368,0.0508,0.0300,0.0174,2025-06-11T10:00:28.511669
760,-0.0122,0.2011,1.0004,0.280,-3.080,-0.350,0.94,0.0184,0.0000,0.0300,0.0174,2025-06-11T10:00:28.511669
761,-0.0107,0.2001,1.0024,0.210,-3.150,-0.350,0.95,0.0184,0.0508,0.0300,0.0174,2025-06-11T10:00:28.511669
762,-0.0093,0.2011,0.9970,-0.070,-3.080,-0.350,0.94,0.0368,0.0762,0.0401,0.0087,2025-06-11T10:00:28.511669
763,-0.0132,0.2006,0.9936,-0.210,-2.940,-0.210,0.94,0.0000,0.0000,0.0300,0.0000,2025-06-11T10:00:28.511669
764,-0.0112,0.2020,0.9989,-0.280,-3.150,-0.350,0.95,0.0184,0.0254,0.0200,0.0087,2025-06-11T10:00:28.512655
765,-0.0117,0.2011,0.9945,0.210,-3.290,-0.140,0.95,0.0184,0.0508,0.0200,0.0000,2025-06-11T10:00:28.512655
766,-0.0132,0.2020,0.9975,0.000,-3.220,-0.210,0.96,0.0184,0.0254,0.0300,0.0174,2025-06-11T10:00:28.512655
767,-0.0122,0.2001,0.9984,0.000,-3.080,-0.280,0.94,0.0184,0.0254,0.0300,0.0174,2025-06-11T10:00:28.512655
768,-0.0112,0.2006,0.9975,-0.210,-2.940,-0.210,0.95,0.0184,0.0254,0.0300,0.0000,2025-06-11T10:00:28.512655
769,-0.0127,0.2006,0.9955,-17.920,-3.010,-0.280,0.95,0.0368,0.0254,0.0300,0.0087,2025-06-11T10:00:28.721394
770,-0.0112,0.2001,0.9945,0.000,-3.220,-0.280,0.95,0.0368,0.0254,0.0401,0.0000,2025-06-11T10:00:28.721394
771,-0.0102,0.2006,0.9999,0.000,-3.220,-0.210,0.95,0.0184,0.0508,0.0401,0.0174,2025-06-11T10:00:28.721394
772,-0.0093,0.1991,0.8745,0.070,-3.150,-0.350,0.95,0.0368,0.0254,0.0300,0.0087,2025-06-11T10:00:28.721394
773,-0.0107,0.1976,1.0014,-0.140,-3.010,-0.210,0.95,0.0184,0.0508,0.0300,0.0087,2025-06-11T10:00:28.721394
774,-0.0102,0.2001,0.9950,-0.140,-2.940,-0.420,0.95,0.0368,0.0254,0.0300,0.0174,2025-06-11T10:00:28.721394
775,-0.0127,0.2025,0.9950,-0.140,-3.010,-0.280,0.94,0.0184,0.0254,0.0300,0.0174,2025-06-11T10:00:28.721394
776,-0.0112,0.2006,0.9980,0.070,-3.010,-0.350,0.95,0.0184,0.0508,0.0401,0.0087,2025-06-11T10:00:28.721394
777,-0.0137,0.2020,0.9936,0.140,-3.080,-0.280,0.94,0.0368,0.0254,0.0300,0.0174,2025-06-11T10:00:28.721394
778,-0.0137,0.1991,1.0009,-0.070,-3.080,-0.210,0.95,0.0000,0.0508,0.0300,0.0174,2025-06-11T10:00:28.721394
779,-0.0127,0.1991,0.9965,0.000,-3.220,-0.350,0.95,0.0368,0.0254,0.0300,0.0174,2025-06-11T10:00:28.721394
780,-0.0132,0.2020,0.9970,-0.210,-3.080,-0.140,0.95,0.0368,0.0508,0.0401,0.0087,2025-06-11T10:00:28.721394
781,-0.0122,0.2006,0.9975,0.000,-3.080,-0.210,0.95,0.0184,0.0254,0.0300,0.0174,2025-06-11T10:00:28.721394
782,-0.0112,0.1996,0.9945,-0.210,-3.010,-0.280,0.95,0.0368,0.0000,0.0300,0.0174,2025-06-11T10:00:28.721394
783,-0.0122,0.2006,0.9999,0.070,-3.150,-0.210,0.94,0.0368,0.0254,0.0300,0.0174,2025-06-11T10:00:28.721394
784,-0.0117,0.1986,0.9950,0.070,-3.150,-0.280,0.95,0.0184,0.0254,0.0300,0.0000,2025-06-11T10:00:28.721394
785,-0.0117,0.2011,0.9999,-0.140,-3.080,-0.350,0.95,0.0184,0.0254,0.0401,0.0087,2025-06-11T10:00:28.721394
786,-0.0107,0.2030,0.9984,-0.140,-3.080,-0.350,0.95,0.0368,0.0508,0.0300,0.0087,2025-06-11T10:00:28.721394
787,-0.0098,0.1991,0.9936,-0.210,-3.010,-0.350,0.95,0.0184,0.0254,0.0300,0.0087,2025-06-11T10:00:28.963430
788,-0.0137,0.2001,0.9980,0.210,-3.150,-0.350,0.94,0.0368,0.0508,0.0300,0.0174,2025-06-11T10:00:28.963430
789,-0.0117,0.2011,0.9975,0.140,-3.150,-0.280,0.95,0.0184,0.0000,0.0300,0.0087,2025-06-11T10:00:28.963430
790,-0.0112,0.2015,0.9994,-0.070,-3.010,-0.210,0.95,0.0184,0.0508,0.0300,0.0087,2025-06-11T10:00:28.963430
791,-0.0127,0.2020,0.9970,-0.210,-3.080,-0.210,0.95,0.0184,0.0254,0.0300,0.0174,2025-06-11T10:00:28.963430
792,-0.0117,0.2011,0.9931,-0.280,-3.080,-0.210,0.94,0.0368,0.0508,0.0401,0.0087,2025-06-11T10:00:28.963430
793,-0.0127,0.2001,0.9950,0.140,-3.150,-0.280,0.95,0.0000,0.0508,0.0300,0.0087,2025-06-11T10:00:28.963430
794,-0.0122,0.1991,0.9980,-0.070,-3.150,-0.350,0.95,0.0184,0.0508,0.0300,0.0087,2025-06-11T10:00:28.963430
795,-0.0117,0.2011,0.9989,0.000,-3.080,-0.210,0.95,0.0000,0.0254,0.0300,0.0000,2025-06-11T10:00:28.963430
796,-0.0107,0.2030,0.9980,-0.280,-3.080,-0.210,0.95,0.0184,0.0254,0.0300,0.0087,2025-06-11T10:00:28.963430
797,-0.0117,0.2025,0.9945,0.000,-2.940,-0.210,0.95,0.0184,0.0254,0.0300,0.0087,2025-06-11T10:00:28.963430
798,-0.0107,0.1996,0.8750,0.210,-3.150,-0.280,0.95,0.0368,0.0508,0.0401,0.0087,2025-06-11T10:00:28.963430
799,-0.0132,0.2001,1.0024,0.350,-3.220,-0.350,0.95,0.0184,0.0254,0.0300,0.0174,2025-06-11T10:00:28.963430
800,-0.0098,0.1996,0.9955,17.780,-3.150,-0.420,0.95,0.0184,0.0254,0.0300,0.0174,2025-06-11T10:00:28.963430
801,-0.0107,0.2020,1.0004,-0.350,-2.940,-0.210,0.95,0.0184,0.0000,0.0200,0.0174,2025-06-11T10:00:29.170662
802,-0.0122,0.2020,0.9945,-0.070,-3.010,-0.280,0.95,0.0552,0.0508,0.0300,0.0087,2025-06-11T10:00:29.170662
803,-0.0161,0.2006,0.9994,0.070,-3.010,-0.210,0.95,0.0368,0.0254,0.0300,0.0000,2025-06-11T10:00:29.170662
804,-0.0127,0.2001,0.9994,0.000,-3.080,-0.280,0.95,0.0368,0.0000,0.0200,0.0174,2025-06-11T10:00:29.170662
805,-0.0117,0.2006,0.9970,-0.140,-3.150,-0.350,0.94,0.0184,0.0254,0.0300,0.0087,2025-06-11T10:00:29.170662
806,-0.0112,0.2025,1.0009,-0.210,-3.080,-0.280,0.96,0.0184,0.0508,0.0401,0.0087,2025-06-11T10:00:29.170662
807,-0.0107,0.2020,0.9994,-0.070,-3.010,-0.280,0.95,0.0000,0.0000,0.0300,0.0000,2025-06-11T10:00:29.170662
808,-0.0122,0.1972,0.9999,-0.070,-3.010,-0.210,0.95,0.0368,0.0254,0.0501,0.0174,2025-06-11T10:00:29.170662
809,-0.0112,0.2006,0.9989,-0.210,-3.010,-0.350,0.94,0.0368,0.0254,0.0401,0.0087,2025-06-11T10:00:29.170662
810,-0.0107,0.2015,0.9999,0.070,-3.150,-0.350,0.95,0.0737,0.0508,0.0300,0.0174,2025-06-11T10:00:29.170662
811,-0.0112,0.1976,0.9984,0.140,-3.150,-0.350,0.95,0.0184,0.0508,0.0300,0.0087,2025-06-11T10:00:29.170662
812,-0.0122,0.1991,0.9989,-0.280,-3.010,-0.210,0.95,0.0368,0.0254,0.0401,0.0087,2025-06-11T10:00:29.170662
813,-0.0146,0.1991,0.9955,-0.140,-3.010,-0.280,0.95,0.0368,0.0508,0.0300,0.0174,2025-06-11T10:00:29.170662
814,-0.0127,0.2006,0.9984,-0.350,-3.150,-0.210,0.94,0.0368,0.0254,0.0401,0.0174,2025-06-11T10:00:29.170662
815,-0.0112,0.2030,0.9960,-0.070,-3.220,-0.350,0.95,0.0184,0.0254,0.0300,0.0000,2025-06-11T10:00:29.170662
816,-0.0122,0.2020,0.9950,0.490,-3.220,-0.210,0.95,0.0368,0.0254,0.0200,0.0174,2025-06-11T10:00:29.170662
817,-0.0112,0.2011,1.0024,0.000,-3.080,-0.280,0.95,0.0368,0.0254,0.0401,0.0087,2025-06-11T10:00:29.170662
818,-0.0132,0.2006,1.0009,-0.070,-3.080,-0.070,0.95,0.0368,0.0508,0.0300,0.0174,2025-06-11T10:00:29.170662
819,-0.0117,0.1996,0.9975,-0.490,-3.080,-0.280,0.94,0.0184,0.0000,0.0401,0.0174,2025-06-11T10:00:29.170662
820,-0.0107,0.2020,0.9936,0.070,-3.150,-0.210,0.95,0.0368,0.0254,0.0401,0.0174,2025-06-11T10:00:29.170662
821,-0.0102,0.1976,0.9975,0.280,-3.220,-0.210,0.94,0.0368,0.0508,0.0300,0.0087,2025-06-11T10:00:29.243198
822,-0.0112,0.1972,0.9989,0.070,-3.220,-0.280,0.95,0.0184,0.0508,0.0401,0.0174,2025-06-11T10:00:29.243198
823,-0.0132,0.2020,1.0014,0.000,-3.220,-0.280,0.95,0.0552,0.0254,0.0401,0.0174,2025-06-11T10:00:29.243198
824,-0.0088,0.2006,0.9994,-0.210,-3.150,-0.280,0.95,0.0368,0.0254,0.0300,0.0174,2025-06-11T10:00:29.243198
825,-0.0078,0.2011,0.9975,-0.140,-3.010,-0.350,0.94,0.0368,0.0254,0.0300,0.0174,2025-06-11T10:00:29.243198
826,-0.0132,0.2001,0.9975,0.000,-3.150,-0.210,0.96,0.0184,0.0508,0.0401,0.0174,2025-06-11T10:00:29.319884
827,-0.0132,0.2006,0.9980,0.140,-3.150,-0.420,0.95,0.0368,0.0254,0.0401,0.0174,2025-06-11T10:00:29.319884
828,-0.0107,0.2025,1.0004,0.070,-3.150,-0.350,0.95,0.0184,0.0762,0.0401,0.0000,2025-06-11T10:00:29.319884
829,-0.0122,0.2006,0.9980,-0.140,-3.010,-0.280,0.95,0.0184,0.0508,0.0300,0.0000,2025-06-11T10:00:29.319884
830,-0.0112,0.2006,0.9980,-0.280,-2.800,-0.280,0.95,0.0368,0.0254,0.0200,0.0087,2025-06-11T10:00:29.525550
831,-0.0132,0.2006,0.9960,-0.140,-3.010,-0.210,0.95,0.0368,0.0762,0.0401,0.0087,2025-06-11T10:00:29.525550
832,-0.0112,0.2011,0.9975,0.070,-3.080,-0.210,0.95,0.0368,0.0762,0.0401,0.0087,2025-06-11T10:00:29.525550
833,-0.0117,0.2015,0.9994,0.280,-3.080,-0.420,0.95,0.0368,0.0508,0.0300,0.0087,2025-06-11T10:00:29.525550
834,-0.0107,0.2015,0.9989,0.140,-3.080,-0.350,0.95,0.0368,0.0508,0.0401,0.0087,2025-06-11T10:00:29.525550
835,-0.0127,0.2006,0.9989,-0.280,-2.940,-0.280,0.95,0.0368,0.0508,0.0300,0.0174,2025-06-11T10:00:29.525550
836,-0.0107,0.2006,0.9965,-0.420,-3.010,-0.280,0.95,0.0184,0.0254,0.0401,0.0087,2025-06-11T10:00:29.525550
837,-0.0112,0.2025,0.9965,-0.420,-3.010,-0.210,0.95,0.0184,0.0508,0.0401,0.0174,2025-06-11T10:00:29.525550
838,-0.0083,0.2011,0.9960,0.280,-3.010,-0.280,0.94,0.0368,0.0508,0.0401,0.0087,2025-06-11T10:00:29.525550
839,-0.0117,0.1996,0.9984,0.280,-3.080,-0.140,0.95,0.0000,0.0254,0.0300,0.0087,2025-06-11T10:00:29.525550
840,-0.0102,0.1976,1.0004,-0.140,-3.080,-0.280,0.95,0.0368,0.0508,0.0300,0.0174,2025-06-11T10:00:29.525550
841,-0.0122,0.2006,0.9970,-0.210,-3.080,-0.420,0.95,0.0184,0.0254,0.0300,0.0087,2025-06-11T10:00:29.525550
842,-0.0112,0.1991,0.9989,-0.350,-3.080,-0.280,0.95,0.0184,0.0254,0.0300,0.0087,2025-06-11T10:00:29.525550
843,-0.0112,0.2030,0.9931,0.070,-3.150,-0.350,0.95,0.0368,0.0508,0.0300,0.0087,2025-06-11T10:00:29.525550
844,-0.0151,0.2001,1.0014,0.140,-3.150,-0.350,0.95,0.0184,0.0000,0.0300,0.0174,2025-06-11T10:00:29.525550
845,-0.0132,0.1986,0.9994,0.140,-3.220,-0.210,0.95,0.0000,0.0254,0.0401,0.0087,2025-06-11T10:00:29.525550
846,-0.0117,0.1996,0.9984,0.070,-3.010,-0.280,0.95,0.0000,0.0508,0.0100,0.0174,2025-06-11T10:00:29.525550
847,-0.0117,0.2015,1.1200,-0.070,-3.080,-0.210,0.95,0.0000,0.0254,0.0300,0.0087,2025-06-11T10:00:29.776611
848,-0.0122,0.2015,0.9955,0.000,-3.220,-0.210,0.94,0.0184,0.0254,0.0401,0.0087,2025-06-11T10:00:29.776611
849,-0.0117,0.1991,0.9989,0.070,-3.150,-0.210,0.95,0.0184,0.0254,0.0300,0.0174,2025-06-11T10:00:29.776611
850,-0.0127,0.1976,1.0019,0.280,-3.220,-0.350,0.94,0.0184,0.0762,0.0300,0.0087,2025-06-11T10:00:29.776611
851,-0.0107,0.2006,0.9984,0.000,-3.220,-0.280,0.95,0.0368,0.0254,0.0401,0.0087,2025-06-11T10:00:29.776611
852,-0.0117,0.2011,0.9989,-0.210,-2.940,-0.280,0.95,0.0368,0.0508,0.0401,0.0087,2025-06-11T10:00:29.776611
853,-0.0107,0.2011,0.9941,0.070,-3.150,-0.280,0.95,0.0368,0.0508,0.0300,0.0174,2025-06-11T10:00:29.776611
854,-0.0142,0.2015,1.0004,-0.140,-3.150,-0.210,0.95,0.0184,0.0254,0.0300,0.0000,2025-06-11T10:00:29.776611
855,-0.0132,0.2011,0.9975,0.140,-3.150,-0.350,0.95,0.0184,0.0254,0.0401,0.0087,2025-06-11T10:00:29.776611
856,-0.0102,0.1996,0.9989,0.070,-3.150,-0.350,0.94,0.0184,0.0254,0.0401,0.0174,2025-06-11T10:00:29.776611
857,-0.0122,0.1991,0.9989,-0.280,-3.080,-0.210,0.95,0.0184,0.0508,0.0200,0.0087,2025-06-11T10:00:29.776611
858,-0.0137,0.2001,0.9950,0.000,-3.150,-0.350,0.95,0.0368,0.0254,0.0300,0.0087,2025-06-11T10:00:29.776611
859,-0.0102,0.1991,0.9975,0.070,-3.150,-0.280,0.95,0.0184,0.0254,0.0300,0.0174,2025-06-11T10:00:29.776611
860,-0.0088,0.1986,0.9994,0.070,-3.080,-0.350,0.95,0.0184,0.0508,0.0300,0.0087,2025-06-11T10:00:29.776611
861,-0.0098,0.2015,0.9984,-0.140,-3.150,-0.280,0.95,0.0184,0.0508,0.0401,0.0087,2025-06-11T10:00:29.776611
862,-0.0142,0.2020,0.9989,17.850,-3.010,-0.280,0.95,0.0368,0.0508,0.0200,0.0174,2025-06-11T10:00:29.776611
863,-0.0127,0.1986,0.9970,-0.210,-3.080,-0.280,0.95,0.0184,0.0508,0.0300,0.0087,2025-06-11T10:00:29.776611
864,-0.0093,0.2011,0.9994,0.070,-3.010,-0.420,0.95,0.0368,0.0762,0.0401,0.0174,2025-06-11T10:00:29.776611
865,-0.0117,0.2025,0.9950,0.000,-2.940,-0.280,0.95,0.0184,0.0000,0.0300,0.0087,2025-06-11T10:00:29.982528
866,-0.0127,0.2011,0.9945,0.000,-3.150,-0.350,0.95,0.0000,0.0254,0.0300,0.0174,2025-06-11T10:00:29.982528
867,-0.0151,0.1991,0.9994,0.070,-3.150,-0.490,0.95,0.0368,0.0508,0.0401,0.0087,2025-06-11T10:00:29.982528
868,-0.0112,0.1996,0.9931,0.420,-3.220,-0.140,0.95,0.0000,0.0254,0.0300,0.0087,2025-06-11T10:00:29.982528
869,-0.0122,0.2006,0.9989,0.000,-3.150,-0.210,0.95,0.0368,0.0508,0.0401,0.0000,2025-06-11T10:00:29.982528
870,-0.0093,0.2020,1.0028,-0.490,-3.010,0.000,0.95,0.0368,0.0254,0.0401,0.0174,2025-06-11T10:00:29.982528
871,-0.0156,0.1996,0.9882,0.210,-3.150,-0.350,0.95,0.0184,0.0254,0.0300,0.0174,2025-06-11T10:00:29.982528
872,-0.0137,0.2006,1.0033,0.070,-3.150,-0.140,0.95,0.0000,0.0000,0.0300,0.0087,2025-06-11T10:00:29.982528
873,-0.0107,0.2001,1.0028,0.350,-3.290,-0.560,0.95,0.0368,0.0254,0.0401,0.0174,2025-06-11T10:00:29.982528
874,-0.0137,0.1991,0.9980,-0.630,-3.010,-0.280,0.95,0.0552,0.0762,0.0300,0.0087,2025-06-11T10:00:29.982528
875,-0.0127,0.2040,0.9960,-0.420,-3.080,-0.280,0.94,0.0368,0.0254,0.0300,0.0174,2025-06-11T10:00:29.982528
876,-0.0117,0.2006,0.9945,0.000,-3.010,-0.350,0.94,0.0184,0.0000,0.0300,0.0087,2025-06-11T10:00:29.982528
877,-0.0122,0.2020,0.9999,0.490,-3.220,-0.350,0.95,0.0000,0.0254,0.0401,0.0087,2025-06-11T10:00:29.982528
878,-0.0102,0.1991,1.0028,-0.140,-3.220,-0.350,0.95,0.0184,0.0254,0.0401,0.0087,2025-06-11T10:00:29.983514
879,-0.0112,0.2011,0.9980,-0.350,-3.080,-0.210,0.95,0.0368,0.0508,0.0300,0.0087,2025-06-11T10:00:29.983514
880,-0.0112,0.2011,0.9970,-0.350,-3.010,-0.140,0.94,0.0184,0.0508,0.0300,0.0087,2025-06-11T10:00:29.983514
881,-0.0107,0.1996,0.9965,0.210,-3.010,-0.350,0.95,0.0368,0.0254,0.0401,0.0087,2025-06-11T10:00:29.983514
882,-0.0132,0.2006,0.9980,0.350,-3.220,-0.280,0.95,0.0184,0.0508,0.0200,0.0087,2025-06-11T10:00:30.223194
883,-0.0107,0.1986,1.0028,-0.070,-3.290,-0.350,0.95,0.0184,0.0762,0.0300,0.0174,2025-06-11T10:00:30.223194
884,-0.0112,0.1991,1.1229,-0.140,-3.150,-0.280,0.95,0.0184,0.1273,0.0401,0.0174,2025-06-11T10:00:30.223194
885,-0.0112,0.2015,0.9989,-0.630,-2.940,-0.210,0.94,0.0184,0.0000,0.0401,0.0174,2025-06-11T10:00:30.223194
886,-0.0112,0.2015,0.9921,0.000,-2.940,-0.350,0.94,0.0184,0.0762,0.0300,0.0174,2025-06-11T10:00:30.223194
887,-0.0122,0.2006,1.0014,0.210,-3.150,-0.280,0.94,0.0184,0.0508,0.0401,0.0000,2025-06-11T10:00:30.223194
888,-0.0098,0.1986,0.9975,-0.140,-3.150,-0.280,0.95,0.0368,0.0508,0.0300,0.0000,2025-06-11T10:00:30.223194
889,-0.0127,0.2030,0.9994,-0.140,-3.220,-0.280,0.95,0.0368,0.0508,0.0200,0.0087,2025-06-11T10:00:30.223194
890,-0.0117,0.2011,1.0009,0.070,-3.010,-0.210,0.95,0.0184,0.0508,0.0401,0.0000,2025-06-11T10:00:30.223194
891,-0.0122,0.1991,0.9965,0.000,-3.150,-0.280,0.94,0.0184,0.0254,0.0401,0.0087,2025-06-11T10:00:30.223194
892,-0.0112,0.1991,0.9994,-0.070,-3.220,-0.210,0.95,0.0184,0.0254,0.0300,0.0087,2025-06-11T10:00:30.223194
893,-0.0098,0.1996,0.9960,0.210,-3.150,-0.350,0.95,0.0000,0.0254,0.0300,0.0087,2025-06-11T10:00:30.223194
894,-0.0117,0.2006,1.0014,0.070,-3.080,-0.280,0.95,0.0184,0.0254,0.0401,0.0087,2025-06-11T10:00:30.223194
895,-0.0107,0.1986,0.9994,0.210,-3.150,-0.280,0.94,0.0368,0.0000,0.0401,0.0174,2025-06-11T10:00:30.223194
896,-0.0122,0.2001,0.9989,-0.210,-3.080,-0.280,0.95,0.0000,0.0508,0.0300,0.0087,2025-06-11T10:00:30.223194
897,-0.0127,0.2015,0.9984,-0.420,-3.150,-0.210,0.95,0.0552,0.0254,0.0602,0.0174,2025-06-11T10:00:30.412812
898,-0.0098,0.2025,0.9936,-0.350,-2.940,-0.280,0.95,0.0368,0.0508,0.0100,0.0174,2025-06-11T10:00:30.412812
899,-0.0102,0.2020,0.9984,0.490,-3.220,-0.280,0.95,0.0184,0.0508,0.0300,0.0174,2025-06-11T10:00:30.412812
900,-0.0122,0.1981,1.0004,0.280,-3.220,-0.280,0.95,0.0368,0.0254,0.0200,0.0174,2025-06-11T10:00:30.412812
901,-0.0112,0.1996,0.9999,-0.350,-3.010,-0.280,0.95,0.0368,0.0254,0.0300,0.0174,2025-06-11T10:00:30.412812
902,-0.0107,0.1991,0.9975,-0.210,-3.010,-0.280,0.95,0.0184,0.0254,0.0300,0.0087,2025-06-11T10:00:30.412812
903,-0.0102,0.1996,0.9975,-0.350,-2.940,-0.280,0.95,0.0368,0.0762,0.0401,0.0087,2025-06-11T10:00:30.412812
904,-0.0102,0.2006,0.9936,0.350,-3.220,-0.280,0.94,0.0368,0.0254,0.0300,0.0174,2025-06-11T10:00:30.412812
905,-0.0107,0.2001,0.9970,0.070,-3.150,-0.420,0.94,0.0184,0.0254,0.0300,0.0087,2025-06-11T10:00:30.412812
906,-0.0083,0.1996,0.9999,-0.210,-3.220,-0.210,0.95,0.0184,0.0000,0.0200,0.0087,2025-06-11T10:00:30.412812
907,-0.0107,0.2020,0.9950,0.210,-3.010,-0.140,0.94,0.0184,0.0508,0.0300,0.0174,2025-06-11T10:00:30.412812
908,-0.0083,0.2001,0.9989,0.280,-3.010,-0.280,0.95,0.0184,0.0000,0.0401,0.0174,2025-06-11T10:00:30.412812
909,-0.0132,0.2006,0.9970,0.140,-3.080,-0.070,0.95,0.0000,0.0000,0.0401,0.0087,2025-06-11T10:00:30.412812
910,-0.0142,0.1996,0.9975,0.000,-3.080,0.280,0.95,0.0000,0.0508,0.0300,0.0087,2025-06-11T10:00:30.412812
911,-0.0107,0.2030,0.9916,-0.210,-2.730,0.420,0.95,0.0368,0.0000,0.0200,0.0087,2025-06-11T10:00:30.412812
912,-0.0049,0.2001,0.9921,1.260,-2.520,0.840,0.95,0.0368,0.0254,0.0401,0.0174,2025-06-11T10:00:30.412812
913,-0.0054,0.2020,0.9975,-0.070,-2.660,0.560,0.95,0.0368,0.0508,0.0401,0.0087,2025-06-11T10:00:30.492381
914,0.0693,0.1864,0.9858,-1.890,1.260,-13.930,0.94,0.0184,0.0508,0.0300,0.0087,2025-06-11T10:00:30.492381
915,-0.0054,0.1962,0.9931,0.070,-1.680,3.010,0.95,0.0368,0.0508,0.0300,0.0087,2025-06-11T10:00:30.492381
916,-0.0005,0.1972,0.9853,-1.820,-3.010,3.570,0.95,0.0368,0.0508,0.0300,0.0174,2025-06-11T10:00:30.492381
917,0.0010,0.1928,0.9867,2.870,-3.500,-1.400,0.97,0.0368,0.0000,0.0401,0.0174,2025-06-11T10:00:30.492381
918,-0.0337,0.1903,0.9955,0.630,-1.540,0.000,0.95,0.0184,0.0254,0.0401,0.0174,2025-06-11T10:00:30.596729
919,-0.0137,0.1976,0.9945,-0.840,-2.520,2.730,0.95,0.0368,0.0508,0.0300,0.0174,2025-06-11T10:00:30.596729
920,-0.0029,0.2050,1.0038,-0.700,-3.150,-0.770,0.95,0.0000,0.0508,0.0401,0.0087,2025-06-11T10:00:30.596729
921,-0.0195,0.1986,1.0024,-0.770,-2.590,1.260,0.95,0.0184,0.0508,0.0401,0.0174,2025-06-11T10:00:30.596729
922,-0.0068,0.1996,0.9897,0.630,-2.730,0.840,0.95,0.0184,0.0508,0.0300,0.0087,2025-06-11T10:00:30.596729
923,-0.0078,0.2025,1.0009,1.400,-2.660,-1.400,0.95,0.0184,0.0254,0.0401,0.0087,2025-06-11T10:00:30.596729
924,-0.0161,0.1928,0.9897,-1.260,-2.450,3.500,0.95,0.0184,0.0254,0.0300,0.0087,2025-06-11T10:00:30.596729
925,-0.0259,0.1962,0.9975,-0.210,-2.100,6.720,0.95,0.0368,0.0508,0.0401,0.0087,2025-06-11T10:00:30.596729
926,-0.0142,0.1967,0.9945,-1.680,-3.570,-2.380,0.95,0.0184,0.0000,0.0300,0.0087,2025-06-11T10:00:30.596729
927,-0.0015,0.2098,0.9975,0.280,-3.010,0.910,0.95,0.0184,0.0762,0.0200,0.0087,2025-06-11T10:00:30.596729
928,-0.0059,0.2064,0.9931,-1.890,-2.450,4.410,0.95,0.0000,0.0508,0.0300,0.0087,2025-06-11T10:00:30.801553
929,-0.0244,0.1903,0.9892,-3.360,-2.660,0.420,0.95,0.0368,0.0254,0.0401,0.0174,2025-06-11T10:00:30.801553
930,-0.0727,0.2357,1.0468,-10.080,-1.190,12.320,0.95,0.0368,0.0254,0.0401,0.0174,2025-06-11T10:00:30.801553
931,0.0166,0.2084,0.9814,-5.110,-5.810,-6.020,0.95,0.0184,0.0508,0.0501,0.0174,2025-06-11T10:00:30.801553
932,-0.0181,0.2020,1.0248,-3.920,-3.080,0.490,0.94,0.0184,0.0508,0.0401,0.0087,2025-06-11T10:00:30.801553
933,-0.0088,0.1708,1.0038,4.130,-2.940,1.190,0.95,0.0368,0.0762,0.0300,0.0000,2025-06-11T10:00:30.801553
934,-0.0142,0.1967,1.0009,-2.730,-3.220,-1.400,0.95,0.0368,0.0508,0.0401,0.0174,2025-06-11T10:00:30.801553
935,-0.0185,0.1976,0.9828,-0.210,-2.940,-0.280,0.95,0.0184,0.0508,0.0300,0.0000,2025-06-11T10:00:30.801553
936,-0.0122,0.1981,0.9960,-0.420,-3.010,-0.420,0.95,0.0184,0.0254,0.0300,0.0087,2025-06-11T10:00:30.801553
937,-0.0059,0.1986,0.9906,-0.770,-3.360,-1.820,0.95,0.0184,0.0508,0.0300,0.0174,2025-06-11T10:00:30.801553
938,-0.0161,0.2045,0.9980,-1.400,-3.150,0.980,0.94,0.0184,0.0254,0.0300,0.0000,2025-06-11T10:00:30.801553
939,0.0000,0.1889,0.9770,-11.340,-1.400,2.940,0.95,0.0184,0.0000,0.0300,0.0087,2025-06-11T10:00:30.801553
940,0.0264,0.2206,1.0170,-0.490,-2.940,-2.240,0.96,0.0184,0.0508,0.0300,0.0087,2025-06-11T10:00:30.801553
941,-0.0303,0.1967,0.9902,-10.500,-2.590,1.400,0.95,0.0000,0.0000,0.0100,0.0087,2025-06-11T10:00:30.801553
942,0.0088,0.2464,0.9906,-9.030,-2.100,8.120,0.95,0.0184,0.0254,0.0200,0.0000,2025-06-11T10:00:30.801553
943,0.0249,0.1947,0.9872,-11.900,-3.290,-10.850,0.95,0.0552,0.0508,0.0300,0.0174,2025-06-11T10:00:31.036157
944,0.0176,0.2425,1.0033,0.280,-5.460,0.210,0.95,0.0000,0.0254,0.0401,0.0087,2025-06-11T10:00:31.036157
945,0.0083,0.2264,1.0189,5.040,-3.780,2.170,0.95,0.0184,0.0254,0.0401,0.0174,2025-06-11T10:00:31.036157
946,0.0107,0.1869,0.9838,9.660,-6.720,-13.720,0.95,0.0184,0.0254,0.0401,0.0087,2025-06-11T10:00:31.036157
947,-0.0386,0.1498,1.0072,6.650,-1.120,-3.780,0.94,0.0184,0.0254,0.0401,0.0174,2025-06-11T10:00:31.036157
948,-0.0239,0.1498,0.9911,1.260,-4.830,5.110,0.95,0.0368,0.0254,0.0300,0.0087,2025-06-11T10:00:31.036157
949,-0.0429,0.1659,0.9609,-2.380,-4.200,-3.500,0.95,0.0552,0.0508,0.0300,0.0174,2025-06-11T10:00:31.036157
950,-0.0317,0.2035,0.9970,-4.270,-3.500,1.540,0.94,0.0368,0.0508,0.0401,0.0087,2025-06-11T10:00:31.036157
951,0.0078,0.2118,0.9872,-6.650,-4.060,-2.940,0.95,0.0184,0.0254,0.0200,0.0087,2025-06-11T10:00:31.251027
952,-0.0068,0.1737,0.9945,-3.990,-1.890,-3.010,0.95,0.0184,0.0254,0.0300,0.0087,2025-06-11T10:00:31.251027
953,-0.0044,0.2084,1.0243,-1.610,-3.080,4.270,0.95,0.0184,0.0254,0.0300,0.0087,2025-06-11T10:00:31.251027
954,0.0020,0.2059,0.9955,-1.120,-3.640,-6.300,0.95,0.0184,0.0254,0.0401,0.0174,2025-06-11T10:00:31.251027
955,-0.0039,0.2025,0.9984,5.040,-2.660,-5.950,0.95,0.0184,0.0508,0.0300,0.0087,2025-06-11T10:00:31.251027
956,0.0122,0.1703,0.9945,0.280,0.140,-15.820,0.95,0.0184,0.0254,0.0501,0.0087,2025-06-11T10:00:31.251027
957,-0.0117,0.1830,0.9775,-1.890,-4.760,1.400,0.95,0.0184,0.0508,0.0300,0.0087,2025-06-11T10:00:31.251027
958,-0.0063,0.1928,0.9941,3.010,-4.690,-4.130,0.95,0.0184,0.0254,0.0401,0.0174,2025-06-11T10:00:31.251027
959,-0.1010,0.2323,1.0111,2.940,-6.160,11.690,0.95,0.0184,0.0254,0.0200,0.0087,2025-06-11T10:00:31.251027
960,-0.0112,0.1693,0.9853,-0.070,-3.640,-0.210,0.94,0.0184,0.0254,0.0401,0.0174,2025-06-11T10:00:31.251027
961,-0.0195,0.1747,0.9833,-1.820,-2.940,-2.100,0.95,0.0368,0.0254,0.0401,0.0174,2025-06-11T10:00:31.251027
962,0.0054,0.1932,0.9814,-1.960,-3.920,-2.730,0.95,0.0184,0.0508,0.0200,0.0087,2025-06-11T10:00:31.251027
963,-0.0166,0.1776,0.9950,0.420,-3.080,-1.260,0.95,0.0184,0.0254,0.0401,0.0087,2025-06-11T10:00:31.251027
964,-0.0185,0.1864,0.9955,0.910,-2.730,0.280,0.95,0.0368,0.0508,0.0300,0.0087,2025-06-11T10:00:31.251027
965,-0.0146,0.1898,0.9965,-0.350,-3.570,-2.660,0.95,0.0552,0.0508,0.0200,0.0174,2025-06-11T10:00:31.251027
966,-0.0293,0.1854,0.9970,-0.420,-3.150,-0.560,0.95,0.0368,0.0254,0.0300,0.0087,2025-06-11T10:00:31.251027
967,-0.0142,0.1908,0.9965,-0.350,-3.150,-0.280,0.95,0.0184,0.0508,0.0401,0.0087,2025-06-11T10:00:31.251027
968,-0.0102,0.1903,1.0019,0.140,-3.150,-0.280,0.95,0.0184,0.0508,0.0300,0.0087,2025-06-11T10:00:31.251027
969,-0.0117,0.1893,1.0014,0.210,-3.080,-0.280,0.94,0.0184,0.0254,0.0300,0.0174,2025-06-11T10:00:31.251027
970,-0.0146,0.1884,0.9994,-0.350,-3.150,-0.280,0.95,0.0368,0.0508,0.0401,0.0087,2025-06-11T10:00:31.251027
971,-0.0127,0.1903,0.9984,-0.070,-3.080,-0.280,0.95,0.0368,0.0508,0.0300,0.0174,2025-06-11T10:00:31.251027
972,-0.0112,0.1898,0.9989,0.140,-3.080,-0.280,0.95,0.0184,0.0254,0.0300,0.0087,2025-06-11T10:00:31.251027
973,-0.0112,0.1908,0.9989,0.210,-3.080,-0.350,0.94,0.0184,0.0508,0.0401,0.0174,2025-06-11T10:00:31.251027
974,-0.0142,0.1884,0.9975,-0.210,-3.080,-0.210,0.95,0.0184,0.0254,0.0401,0.0174,2025-06-11T10:00:31.405854
975,-0.0117,0.1893,0.9950,-0.070,-3.080,-0.280,0.95,0.0184,0.0762,0.0300,0.0174,2025-06-11T10:00:31.405854
976,-0.0137,0.1928,0.9926,-0.210,-3.080,-0.280,0.95,0.0368,0.0000,0.0200,0.0174,2025-06-11T10:00:31.405854
977,-0.0107,0.1913,1.0004,0.350,-3.080,-0.350,0.95,0.0000,0.0508,0.0300,0.0174,2025-06-11T10:00:31.405854
978,-0.0132,0.1908,1.0014,0.350,-3.150,-0.280,0.95,0.0184,0.0000,0.0100,0.0087,2025-06-11T10:00:31.405854
979,-0.0132,0.1879,1.0004,0.000,-3.010,-0.280,0.95,0.0184,0.0254,0.0401,0.0174,2025-06-11T10:00:31.405854
980,-0.0117,0.1908,0.9994,-0.280,-3.150,-0.350,0.95,0.0552,0.0254,0.0300,0.0174,2025-06-11T10:00:31.405854
981,-0.0132,0.1884,0.9975,0.280,-3.080,-0.350,0.95,0.0184,0.0000,0.0300,0.0087,2025-06-11T10:00:31.405854
982,-0.0102,0.1908,1.0019,-0.140,-3.150,-0.350,0.95,0.0184,0.0000,0.0200,0.0000,2025-06-11T10:00:31.405854
983,-0.0156,0.1884,0.9994,0.210,-3.150,-0.210,0.95,0.0184,0.0508,0.0300,0.0087,2025-06-11T10:00:31.405854
984,-0.0146,0.1893,1.0004,-0.350,-3.150,-0.280,0.95,0.0184,0.0508,0.0300,0.0000,2025-06-11T10:00:31.405854
985,-0.0112,0.1913,0.9955,-0.070,-3.150,-0.350,0.95,0.0368,0.0254,0.0300,0.0174,2025-06-11T10:00:31.405854
986,-0.0112,0.1923,0.9989,-0.070,-3.010,-0.280,0.95,0.0184,0.0254,0.0300,0.0174,2025-06-11T10:00:31.405854
987,-0.0137,0.1903,0.9960,-0.210,-3.010,-0.210,0.95,0.0368,0.0254,0.0300,0.0087,2025-06-11T10:00:31.405854
988,-0.0151,0.1913,0.9970,0.420,-3.150,-0.210,0.95,0.0368,0.0508,0.0401,0.0087,2025-06-11T10:00:31.405854
989,-0.0146,0.1889,1.0028,0.560,-3.080,-0.210,0.95,0.0368,0.0508,0.0401,0.0087,2025-06-11T10:00:31.621830
990,-0.0107,0.1913,1.0004,0.420,-3.150,-0.350,0.95,0.0368,0.0254,0.0300,0.0174,2025-06-11T10:00:31.621830
991,-0.0112,0.1889,1.0033,-0.070,-3.080,-0.280,0.95,0.0368,0.0254,0.0300,0.0087,2025-06-11T10:00:31.621830
992,-0.0117,0.1893,0.9980,-0.140,-3.010,-0.280,0.95,0.0368,0.0508,0.0401,0.0087,2025-06-11T10:00:31.621830
993,-0.0142,0.1908,0.9989,0.000,-3.010,-0.350,0.95,0.0368,0.0254,0.0300,0.0087,2025-06-11T10:00:31.621830
994,-0.0132,0.1898,1.0019,0.210,-3.150,-0.280,0.95,0.0184,0.0000,0.0200,0.0087,2025-06-11T10:00:31.621830
995,-0.0107,0.1903,0.9970,-0.140,-3.080,-0.280,0.94,0.0184,0.0508,0.0300,0.0087,2025-06-11T10:00:31.621830
996,-0.0112,0.1918,0.9994,0.140,-3.150,-0.280,0.95,0.0184,0.0508,0.0300,0.0087,2025-06-11T10:00:31.621830
997,-0.0142,0.1889,1.0009,-0.070,-3.150,-0.210,0.95,0.0368,0.0508,0.0401,0.0087,2025-06-11T10:00:31.621830
998,-0.0137,0.1908,0.9984,-0.700,-3.150,-0.280,0.95,0.0184,0.0508,0.0401,0.0087,2025-06-11T10:00:31.621830
999,-0.0117,0.1923,0.9955,-2.520,-3.080,-0.140,0.95,0.0184,0.0000,0.0300,0.0174,2025-06-11T10:00:31.621830
1000,-0.0132,0.1913,0.9950,-1.330,-3.150,-0.350,0.95,0.0184,0.0254,0.0401,0.0174,2025-06-11T10:00:31.621830
1001,-0.0146,0.1918,0.9906,-3.500,-3.080,0.070,0.95,0.0184,0.0508,0.0200,0.0087,2025-06-11T10:00:31.621830
1002,0.0117,0.1810,0.9872,-3.710,-1.610,-0.490,0.94,0.0000,0.0254,0.0300,0.0087,2025-06-11T10:00:31.621830
1003,0.0268,0.2240,1.0492,2.870,-3.290,-5.180,0.95,0.0368,0.0762,0.0300,0.0174,2025-06-11T10:00:31.621830
1004,-0.0293,0.2333,0.9931,-9.100,-3.150,2.940,0.95,0.0368,0.0508,0.0401,0.0087,2025-06-11T10:00:31.852762
1005,0.0044,0.1708,0.9960,-0.910,-1.820,-6.720,0.95,0.0184,0.0762,0.0300,0.0087,2025-06-11T10:00:31.852762
1006,-0.0049,0.2050,1.0350,2.660,-5.530,-1.120,0.95,0.0552,0.0508,0.0401,0.0087,2025-06-11T10:00:31.852762
1007,-0.0234,0.1723,1.0063,4.690,-2.520,-5.530,0.95,0.0368,0.0508,0.0300,0.0174,2025-06-11T10:00:31.852762
1008,-0.0303,0.1708,0.9897,11.410,-4.340,-3.080,0.94,0.0368,0.0000,0.0200,0.0262,2025-06-11T10:00:31.852762
1009,-0.0532,0.1196,1.0102,3.010,-3.780,-5.320,0.95,0.0368,0.0508,0.0300,0.0087,2025-06-11T10:00:31.853261
1010,-0.0434,0.1957,0.9687,-7.840,-0.630,5.320,0.95,0.0368,0.0508,0.0401,0.0087,2025-06-11T10:00:31.853261
1011,-0.0590,0.1810,1.0053,-14.140,-3.220,-0.700,0.95,0.0184,0.0254,0.0401,0.0174,2025-06-11T10:00:31.853261
1012,-0.0059,0.1806,1.0287,-17.780,-3.360,-2.240,0.95,0.0368,0.0508,0.0401,0.0174,2025-06-11T10:00:31.853261
1013,-0.0132,0.1791,1.0316,-3.850,-3.570,-3.780,0.95,0.0000,0.0508,0.0300,0.0000,2025-06-11T10:00:31.853261
1014,-0.0224,0.1810,0.9897,4.690,-3.290,0.560,0.96,0.0368,0.0254,0.0200,0.0174,2025-06-11T10:00:31.853261
1015,0.0029,0.2152,1.0204,5.040,-3.080,5.320,0.94,0.0368,0.0000,0.0401,0.0087,2025-06-11T10:00:31.853261
1016,0.0166,0.2259,0.9833,7.910,-4.200,0.490,0.95,0.0184,0.0254,0.0300,0.0087,2025-06-11T10:00:31.853261
1017,0.0088,0.1405,1.0067,14.140,-6.020,-15.260,0.94,0.0184,0.0000,0.0300,0.0174,2025-06-11T10:00:31.853261
1018,-0.0400,0.1791,1.0106,6.580,-2.800,2.450,0.95,0.0368,0.0508,0.0300,0.0174,2025-06-11T10:00:31.853261
1019,-0.0122,0.1801,0.9911,4.410,-3.010,-1.960,0.95,0.0368,0.0508,0.0401,0.0087,2025-06-11T10:00:31.853261
1020,-0.0171,0.1728,1.0009,4.200,-4.690,-6.510,0.95,0.0184,0.0508,0.0300,0.0087,2025-06-11T10:00:31.853261
1021,-0.0386,0.1854,1.0038,1.050,-3.080,0.490,0.94,0.0184,0.0254,0.0100,0.0174,2025-06-11T10:00:32.037038
1022,-0.0259,0.1815,0.9902,0.910,-2.660,0.980,0.95,0.0368,0.0254,0.0401,0.0087,2025-06-11T10:00:32.037038
1023,-0.0117,0.1918,1.0009,0.350,-3.080,-0.350,0.95,0.0184,0.0254,0.0401,0.0174,2025-06-11T10:00:32.037038
1024,-0.0137,0.1928,0.9994,0.000,-3.290,-0.350,0.94,0.0368,0.0254,0.0300,0.0000,2025-06-11T10:00:32.037038
1025,-0.0117,0.1893,1.0038,0.490,-3.150,-0.280,0.94,0.0184,0.0000,0.0300,0.0174,2025-06-11T10:00:32.037038
1026,-0.0107,0.1898,0.9989,-0.280,-3.150,-0.350,0.95,0.0368,0.0254,0.0200,0.0087,2025-06-11T10:00:32.037038
1027,-0.0117,0.1893,1.0014,0.070,-3.080,-0.350,0.95,0.0184,0.0254,0.0401,0.0087,2025-06-11T10:00:32.037038
1028,-0.0127,0.1913,0.9999,0.070,-3.220,-0.350,0.95,0.0000,0.0508,0.0401,0.0087,2025-06-11T10:00:32.038040
1029,-0.0117,0.1913,0.9994,0.000,-3.080,-0.280,0.94,0.0184,0.0254,0.0401,0.0087,2025-06-11T10:00:32.038040
1030,-0.0117,0.1893,0.9984,-0.210,-3.150,-0.350,0.95,0.0000,0.0254,0.0300,0.0087,2025-06-11T10:00:32.038040
1031,-0.0102,0.1913,0.9980,-0.560,-3.080,-0.350,0.94,0.0184,0.0508,0.0300,0.0087,2025-06-11T10:00:32.038040
1032,-0.0117,0.1913,0.9980,-0.140,-3.080,-0.210,0.95,0.0368,0.0762,0.0401,0.0087,2025-06-11T10:00:32.038040
1033,-0.0112,0.1913,0.9984,-0.280,-3.150,-0.280,0.95,0.0184,0.0254,0.0300,0.0087,2025-06-11T10:00:32.038040
1034,-0.0122,0.1918,0.9984,0.140,-3.010,-0.280,0.95,0.0184,0.0254,0.0300,0.0000,2025-06-11T10:00:32.038040
1035,-0.0122,0.1918,1.0009,-0.140,-3.080,-0.210,0.95,0.0000,0.0508,0.0401,0.0174,2025-06-11T10:00:32.121101
1036,-0.0093,0.1913,0.9984,-0.140,-3.150,-0.280,0.95,0.0368,0.0254,0.0300,0.0174,2025-06-11T10:00:32.121101
1037,-0.0098,0.1898,0.9984,-0.210,-3.010,-0.350,0.95,0.0184,0.0762,0.0401,0.0174,2025-06-11T10:00:32.121101
1038,-0.0127,0.1908,0.9970,0.000,-3.150,-0.350,0.95,0.0184,0.0508,0.0501,0.0087,2025-06-11T10:00:32.121101
1039,-0.0132,0.1898,0.9980,-0.140,-3.080,-0.350,0.95,0.0552,0.0508,0.0401,0.0087,2025-06-11T10:00:32.121101
1040,-0.0156,0.1864,0.9970,-0.210,-3.080,-0.350,0.95,0.0184,0.0254,0.0200,0.0174,2025-06-11T10:00:32.121101
1041,-0.0112,0.1923,1.0004,-0.420,-3.080,-0.280,0.95,0.0184,0.0508,0.0300,0.0174,2025-06-11T10:00:32.241433
1042,-0.0102,0.1923,0.9955,-0.280,-3.080,-0.210,0.94,0.0184,0.0254,0.0300,0.0087,2025-06-11T10:00:32.241433
1043,-0.0142,0.1932,1.0028,-0.280,-3.080,-0.280,0.95,0.0368,0.0508,0.0300,0.0262,2025-06-11T10:00:32.241433
1044,-0.0127,0.1898,0.9965,0.420,-3.150,-0.280,0.95,0.0184,0.0254,0.0200,0.0174,2025-06-11T10:00:32.241433
1045,-0.0112,0.1903,0.9999,-0.280,-3.080,-0.280,0.95,0.0368,0.0254,0.0401,0.0087,2025-06-11T10:00:32.241433
1046,-0.0112,0.1908,1.0004,0.070,-3.010,-0.350,0.95,0.0368,0.0508,0.0401,0.0087,2025-06-11T10:00:32.241433
1047,-0.0098,0.1889,1.0014,0.350,-3.150,-0.350,0.95,0.0184,0.0508,0.0401,0.0174,2025-06-11T10:00:32.241433
1048,-0.0127,0.1889,0.9989,0.000,-3.080,-0.280,0.95,0.0184,0.0254,0.0300,0.0174,2025-06-11T10:00:32.241433
1049,-0.0122,0.1884,1.0009,-0.140,-3.010,-0.280,0.95,0.0184,0.0254,0.0200,0.0087,2025-06-11T10:00:32.241433
1050,-0.0122,0.1903,0.9994,-0.140,-3.150,-0.350,0.95,0.0184,0.0508,0.0401,0.0174,2025-06-11T10:00:32.478734
1051,-0.0112,0.1928,0.9984,-0.350,-3.150,-0.350,0.95,0.0184,0.0254,0.0501,0.0000,2025-06-11T10:00:32.478734
1052,-0.0127,0.1908,0.9975,-0.210,-3.150,-0.350,0.95,0.0000,0.0508,0.0401,0.0174,2025-06-11T10:00:32.478734
1053,-0.0137,0.1889,0.9994,-0.070,-3.080,-0.280,0.95,0.0184,0.0000,0.0300,0.0087,2025-06-11T10:00:32.478734
1054,-0.0132,0.1879,0.9984,0.000,-3.080,-0.280,0.95,0.0368,0.0254,0.0300,0.0087,2025-06-11T10:00:32.478734
1055,-0.0127,0.1918,0.9984,-0.070,-3.150,-0.280,0.94,0.0184,0.0254,0.0300,0.0087,2025-06-11T10:00:32.478734
1056,-0.0127,0.1889,1.0004,-0.070,-3.010,-0.280,0.95,0.0368,0.0254,0.0300,0.0087,2025-06-11T10:00:32.478734
1057,-0.0137,0.1908,0.9980,-0.140,-3.150,-0.350,0.94,0.0184,0.0254,0.0401,0.0000,2025-06-11T10:00:32.479810
1058,-0.0132,0.1898,1.0028,-0.070,-3.150,-0.350,0.95,0.0184,0.0508,0.0200,0.0174,2025-06-11T10:00:32.479810
1059,-0.0112,0.1879,1.0014,-0.070,-3.150,-0.420,0.94,0.0184,0.0508,0.0300,0.0174,2025-06-11T10:00:32.479810
1060,-0.0132,0.1903,0.9994,-0.280,-3.150,-0.280,0.95,0.0368,0.0254,0.0300,0.0174,2025-06-11T10:00:32.479810
1061,-0.0112,0.1884,0.9999,-0.140,-3.080,-0.210,0.95,0.0184,0.0254,0.0401,0.0087,2025-06-11T10:00:32.479810
1062,-0.0117,0.1908,0.9994,0.140,-3.150,-0.280,0.95,0.0000,0.0508,0.0300,0.0174,2025-06-11T10:00:32.479810
1063,-0.0122,0.1893,1.0014,0.210,-3.150,-0.280,0.95,0.0552,0.0254,0.0401,0.0000,2025-06-11T10:00:32.479810
1064,-0.0122,0.1898,1.0014,-0.350,-3.010,-0.210,0.95,0.0184,0.0254,0.0401,0.0174,2025-06-11T10:00:32.479810
1065,-0.0117,0.1898,0.9965,0.000,-3.290,-0.210,0.95,0.0368,0.0508,0.0300,0.0087,2025-06-11T10:00:32.479810
1066,-0.0151,0.1928,1.0004,0.140,-3.080,-0.280,0.95,0.0184,0.0762,0.0300,0.0000,2025-06-11T10:00:32.479810
1067,-0.0142,0.1903,0.9989,0.000,-3.080,-0.140,0.95,0.0368,0.0508,0.0401,0.0087,2025-06-11T10:00:32.561602
1068,-0.0112,0.1908,1.0028,-0.070,-3.150,-0.280,0.95,0.0184,0.0508,0.0300,0.0087,2025-06-11T10:00:32.561602
1069,-0.0117,0.1913,0.9975,-0.280,-3.150,-0.350,0.95,0.0368,0.0508,0.0401,0.0174,2025-06-11T10:00:32.561602
1070,-0.0122,0.1898,0.9980,0.210,-3.080,-0.280,0.95,0.0368,0.0254,0.0401,0.0174,2025-06-11T10:00:32.561602
1071,-0.0112,0.1859,0.8784,0.000,-3.150,-0.350,0.94,0.0368,0.0254,0.0300,0.0174,2025-06-11T10:00:32.561602
1072,-0.0132,0.1893,0.9965,-0.140,-3.080,-0.280,0.95,0.0184,0.0254,0.0300,0.0087,2025-06-11T10:00:32.663971
1073,-0.0098,0.1893,0.9984,-0.210,-3.150,-0.350,0.95,0.0368,0.0508,0.0401,0.0087,2025-06-11T10:00:32.663971
1074,-0.0127,0.1884,0.9999,0.210,-3.150,-0.280,0.95,0.0368,0.0508,0.0401,0.0087,2025-06-11T10:00:32.663971
1075,-0.0122,0.1884,1.0009,-0.140,-3.080,-0.350,0.95,0.0184,0.0254,0.0401,0.0174,2025-06-11T10:00:32.663971
1076,-0.0132,0.1903,0.9965,-0.420,-3.080,-0.350,0.95,0.0368,0.0000,0.0300,0.0087,2025-06-11T10:00:32.663971
1077,-0.0142,0.1898,0.9945,-0.070,-3.080,-0.210,0.94,0.0184,0.0254,0.0401,0.0087,2025-06-11T10:00:32.663971
1078,-0.0132,0.1913,1.0043,0.000,-3.150,-0.420,0.94,0.0184,0.0508,0.0300,0.0000,2025-06-11T10:00:32.663971
1079,-0.0137,0.1893,1.0014,0.280,-3.080,-0.350,0.95,0.0368,0.0508,0.0300,0.0087,2025-06-11T10:00:32.663971
1080,-0.0102,0.1913,0.9960,-0.140,-3.010,-0.280,0.95,0.0552,0.0508,0.0300,0.0262,2025-06-11T10:00:32.663971
1081,-0.0127,0.1893,0.9999,-0.210,-3.010,-0.210,0.95,0.0368,0.0508,0.0401,0.0087,2025-06-11T10:00:32.854962
1082,-0.0122,0.1898,0.9965,-0.350,-3.080,-0.280,0.95,0.0368,0.0508,0.0401,0.0174,2025-06-11T10:00:32.855952
1083,-0.0098,0.1903,0.9965,0.210,-3.150,-0.280,0.95,0.0184,0.0254,0.0300,0.0174,2025-06-11T10:00:32.855952
1084,-0.0132,0.1918,0.9999,0.140,-3.150,-0.350,0.95,0.0184,0.0254,0.0200,0.0087,2025-06-11T10:00:32.855952
1085,-0.0122,0.1913,1.0048,-0.210,-3.080,-0.280,0.95,0.0184,0.0508,0.0300,0.0087,2025-06-11T10:00:32.855952
1086,-0.0166,0.1884,1.0004,0.210,-3.080,-0.280,0.95,0.0184,0.0508,0.0300,0.0174,2025-06-11T10:00:32.855952
1087,-0.0132,0.1903,0.9984,-0.070,-3.220,-0.280,0.95,0.0368,0.0000,0.0300,0.0174,2025-06-11T10:00:32.855952
1088,-0.0112,0.1913,1.0024,0.070,-3.010,-0.350,0.95,0.0368,0.0508,0.0300,0.0174,2025-06-11T10:00:32.855952
1089,-0.0093,0.1903,0.9999,0.070,-3.080,-0.210,0.95,0.0184,0.0000,0.0300,0.0087,2025-06-11T10:00:32.855952
1090,-0.0137,0.1893,0.9975,-0.140,-3.010,-0.420,0.95,0.0368,0.0254,0.0401,0.0087,2025-06-11T10:00:32.855952
1091,-0.0122,0.1893,0.9975,0.140,-3.080,-0.420,0.95,0.0368,0.0000,0.0401,0.0087,2025-06-11T10:00:32.855952
1092,-0.0107,0.1893,1.0028,0.420,-3.080,-0.280,0.95,0.0184,0.0254,0.0200,0.0087,2025-06-11T10:00:32.855952
1093,-0.0117,0.1903,1.0033,-0.140,-3.080,-0.210,0.95,0.0184,0.0254,0.0300,0.0087,2025-06-11T10:00:32.855952
1094,-0.0122,0.1889,0.9975,-0.420,-3.010,-0.280,0.95,0.0368,0.0254,0.0401,0.0087,2025-06-11T10:00:32.855952
1095,-0.0127,0.1898,0.9970,-0.070,-3.080,-0.280,0.95,0.0184,0.0508,0.0300,0.0087,2025-06-11T10:00:32.855952
1096,-0.0137,0.1879,0.9999,-0.070,-3.150,-0.280,0.95,0.0184,0.0254,0.0401,0.0087,2025-06-11T10:00:33.054976
1097,-0.0127,0.1884,1.0014,-0.140,-3.150,-0.280,0.95,0.0184,0.0254,0.0300,0.0087,2025-06-11T10:00:33.054976
1098,-0.0127,0.1898,0.9984,-0.350,-3.080,-0.210,0.95,0.0368,0.0254,0.0401,0.0174,2025-06-11T10:00:33.054976
1099,-0.0146,0.1903,0.9989,-0.350,-3.080,-0.210,0.95,0.0000,0.0508,0.0401,0.0087,2025-06-11T10:00:33.054976
1100,-0.0132,0.1913,0.9989,0.000,-3.220,-0.210,0.95,0.0368,0.0254,0.0300,0.0000,2025-06-11T10:00:33.054976
1101,-0.0122,0.1884,1.0014,0.210,-3.220,-0.280,0.95,0.0184,0.0508,0.0200,0.0087,2025-06-11T10:00:33.205283
1102,-0.0137,0.1898,1.0004,-0.140,-3.080,-0.350,0.95,0.0184,0.0508,0.0401,0.0174,2025-06-11T10:00:33.205283
1103,-0.0127,0.1913,1.0009,0.070,-3.150,-0.350,0.95,0.0368,0.0254,0.0300,0.0000,2025-06-11T10:00:33.205283
1104,-0.0137,0.1908,1.0019,-0.280,-3.010,-0.350,0.95,0.0184,0.0508,0.0300,0.0087,2025-06-11T10:00:33.205283
1105,-0.0112,0.1913,0.9945,0.070,-3.080,-0.350,0.95,0.0368,0.0254,0.0300,0.0087,2025-06-11T10:00:33.205283
1106,-0.0127,0.1893,0.9984,-0.280,-3.150,-0.280,0.95,0.0184,0.0508,0.0300,0.0087,2025-06-11T10:00:33.205283
1107,-0.0137,0.1908,1.0028,0.070,-3.150,-0.350,0.95,0.0000,0.0254,0.0300,0.0087,2025-06-11T10:00:33.205283
1108,-0.0122,0.1903,0.9960,-0.210,-3.010,-0.280,0.94,0.0368,0.0000,0.0300,0.0000,2025-06-11T10:00:33.205283
1109,-0.0137,0.1889,1.0024,0.140,-3.080,-0.280,0.95,0.0184,0.0508,0.0200,0.0174,2025-06-11T10:00:33.205283
1110,-0.0127,0.1913,0.9965,0.070,-3.150,-0.420,0.94,0.0368,0.0254,0.0401,0.0087,2025-06-11T10:00:33.205283
1111,-0.0093,0.1893,1.0009,0.070,-3.080,-0.280,0.95,0.0000,0.0254,0.0300,0.0087,2025-06-11T10:00:33.288389
1112,-0.0151,0.1908,1.0043,0.000,-3.080,-0.280,0.95,0.0368,0.0254,0.0300,0.0087,2025-06-11T10:00:33.288389
1113,-0.0127,0.1898,0.9980,-0.210,-3.150,-0.350,0.95,0.0184,0.0508,0.0300,0.0174,2025-06-11T10:00:33.288389
1114,-0.0137,0.1923,1.0033,0.000,-3.080,-0.280,0.95,0.0184,0.0508,0.0401,0.0262,2025-06-11T10:00:33.288389
1115,-0.0117,0.1908,1.0004,0.140,-3.080,-0.350,0.95,0.0368,0.0508,0.0300,0.0087,2025-06-11T10:00:33.288389
1116,-0.0137,0.1908,0.9980,-0.140,-3.080,-0.350,0.95,0.0184,0.0508,0.0200,0.0087,2025-06-11T10:00:33.288389
1117,-0.0122,0.1898,1.0028,0.000,-3.150,-0.420,0.95,0.0184,0.0254,0.0300,0.0087,2025-06-11T10:00:33.288389
1118,-0.0127,0.1898,0.9989,-0.280,-3.080,-0.420,0.95,0.0184,0.0254,0.0300,0.0087,2025-06-11T10:00:33.288389
