SeqNum,AccX,AccY,AccZ,GyroX,GyroY,GyroZ,Flex,Force1,Force2,Force3,Force4,TimestampReception
55350,-0.1518,0.1035,1.0224,-0.035,-2.800,0.210,432,443,298,396,377,2025-05-28T17:46:17.434278
55351,-0.1527,0.1039,1.0194,0.000,-3.115,0.175,411,408,267,399,378,2025-05-28T17:46:17.435272
55352,-0.1542,0.1054,1.0194,0.035,-3.115,0.210,389,426,327,395,337,2025-05-28T17:46:17.435272
55353,-0.1537,0.1035,1.0204,0.070,-2.975,0.280,406,401,338,392,286,2025-05-28T17:46:17.435272
55354,-0.1503,0.1054,1.0185,-8.925,-2.870,0.210,415,431,351,391,367,2025-05-28T17:46:17.435272
55355,-0.1518,0.1059,1.0194,0.070,-2.905,0.210,392,369,374,402,379,2025-05-28T17:46:17.435272
55356,-0.1537,0.1059,1.0189,0.035,-2.870,0.140,417,339,369,407,395,2025-05-28T17:46:17.435272
55357,-0.1547,0.1044,1.0204,-0.105,-2.870,0.105,346,382,340,355,398,2025-05-28T17:46:17.435272
55358,-0.1537,0.1039,1.0194,0.000,-2.800,0.105,410,400,353,378,352,2025-05-28T17:46:17.435272
55359,-0.1547,0.1054,1.0204,0.000,-2.800,0.105,303,331,364,403,374,2025-05-28T17:46:17.435272
55360,-0.1576,0.1044,1.0189,0.035,-2.905,0.175,393,412,367,397,393,2025-05-28T17:46:17.435272
55361,-0.1532,0.1035,1.0199,0.140,-3.010,0.210,399,410,372,350,394,2025-05-28T17:46:17.435272
55362,-0.1527,0.1059,1.0204,0.000,-2.905,0.175,389,415,375,373,382,2025-05-28T17:46:17.436272
55363,-0.1532,0.1054,1.0199,0.035,-2.940,0.105,409,434,379,335,395,2025-05-28T17:46:17.436272
55364,-0.1523,0.1064,1.0214,0.000,-2.975,0.175,427,411,338,374,394,2025-05-28T17:46:17.436272
55365,-0.1537,0.1044,1.0180,0.035,-2.835,0.175,404,433,364,388,347,2025-05-28T17:46:17.436272
55366,-0.1537,0.1054,1.0199,0.070,-2.870,0.175,417,402,384,368,326,2025-05-28T17:46:17.436272
55367,-0.1547,0.1064,1.0199,0.000,-2.835,0.175,348,342,391,374,364,2025-05-28T17:46:17.436272
55368,-0.1532,0.1049,1.0204,0.000,-2.940,0.140,384,292,390,301,396,2025-05-28T17:46:17.436272
55369,-0.1532,0.1049,1.0189,0.070,-3.045,0.105,387,367,376,387,402,2025-05-28T17:46:17.436272
55370,-0.1527,0.1049,1.0204,0.000,-2.940,0.280,396,347,373,381,384,2025-05-28T17:46:17.436272
55371,-0.1532,0.1059,1.0204,0.000,-2.940,0.210,392,413,370,413,397,2025-05-28T17:46:17.436272
55372,-0.1523,0.1059,1.0194,0.070,-2.975,0.210,420,435,375,405,408,2025-05-28T17:46:17.591284
55373,-0.1571,0.1054,1.0194,0.035,-3.045,0.140,416,423,384,309,385,2025-05-28T17:46:17.592179
55374,-0.1523,0.1054,1.0209,0.000,-2.940,0.175,399,423,390,382,395,2025-05-28T17:46:17.592179
55375,-0.1532,0.1049,1.0204,0.000,-2.870,0.210,340,428,384,414,417,2025-05-28T17:46:17.592179
55376,-0.1557,0.1064,1.0194,0.035,-2.765,0.105,390,409,383,400,395,2025-05-28T17:46:17.592179
55377,-0.1537,0.1020,1.0185,0.000,-2.800,0.175,382,425,367,392,408,2025-05-28T17:46:17.592179
55378,-0.1537,0.1054,1.0189,0.035,-2.905,0.210,411,420,369,414,404,2025-05-28T17:46:17.592179
55379,-0.1518,0.1054,1.0199,-0.035,-2.940,0.175,412,415,365,412,396,2025-05-28T17:46:17.592179
55380,-0.1542,0.1049,1.0209,0.000,-2.905,0.210,422,399,363,408,360,2025-05-28T17:46:17.592179
55381,-0.1542,0.1064,1.0209,0.070,-2.975,0.070,405,414,380,405,394,2025-05-28T17:46:17.592179
55382,-0.1547,0.1054,1.0219,0.070,-2.940,0.105,371,395,340,414,367,2025-05-28T17:46:17.592179
55383,-0.1537,0.1049,1.0189,0.070,-3.010,0.245,398,351,318,425,391,2025-05-28T17:46:17.592179
55384,-0.1523,0.1069,1.0199,0.070,-3.010,0.140,385,396,316,417,381,2025-05-28T17:46:17.592179
55385,-0.1542,0.1064,1.0180,-0.035,-2.905,0.210,413,417,356,399,393,2025-05-28T17:46:17.592179
55386,-0.1542,0.1049,1.0189,0.000,-2.940,0.070,415,341,374,409,393,2025-05-28T17:46:17.891024
55387,-0.1527,0.1044,1.0224,0.070,-2.905,0.140,413,397,386,400,406,2025-05-28T17:46:17.891024
55388,-0.1518,0.1064,1.0209,0.035,-2.835,0.175,396,408,385,345,393,2025-05-28T17:46:17.891024
55389,-0.1527,0.1054,1.0189,0.035,-2.835,0.245,389,391,383,386,386,2025-05-28T17:46:17.891024
55390,-0.1542,0.1049,1.0199,0.000,-2.870,0.210,408,365,381,386,389,2025-05-28T17:46:17.891024
55391,-0.1542,0.1049,1.0194,0.035,-2.800,0.175,396,337,367,389,399,2025-05-28T17:46:17.891024
55392,-0.1547,0.1039,1.0199,-0.035,-2.905,0.175,384,396,384,410,357,2025-05-28T17:46:17.891024
55393,-0.1532,0.1074,1.0189,0.000,-2.940,0.105,386,347,387,388,350,2025-05-28T17:46:17.891024
55394,-0.1537,0.1049,1.0185,0.070,-3.010,0.175,415,414,382,400,337,2025-05-28T17:46:17.891024
55395,-0.1532,0.1069,1.0199,0.035,-3.045,0.210,400,410,392,409,362,2025-05-28T17:46:17.891024
55396,-0.1523,0.1049,1.0199,0.000,-3.115,0.210,399,409,392,419,393,2025-05-28T17:46:17.891024
55397,-0.1542,0.1044,1.0194,0.000,-2.975,0.210,394,435,385,414,405,2025-05-28T17:46:17.891024
55398,-0.1523,0.1049,1.0189,0.105,-2.905,0.245,401,416,384,405,405,2025-05-28T17:46:17.891024
55399,-0.1532,0.1049,1.0189,0.070,-2.905,0.175,410,433,382,412,358,2025-05-28T17:46:17.891024
55400,-0.1537,0.1054,1.0199,-0.035,-2.765,0.175,414,351,377,412,387,2025-05-28T17:46:17.891024
55401,-0.1518,0.1064,1.0199,-0.070,-2.765,0.210,409,412,388,358,361,2025-05-28T17:46:17.892022
55402,-0.1523,0.1039,1.0194,0.035,-2.800,0.175,417,427,388,384,347,2025-05-28T17:46:17.892022
55403,-0.1557,0.1059,1.0209,0.035,-2.835,0.105,396,368,381,402,394,2025-05-28T17:46:17.892022
55404,-0.1547,0.1049,1.0204,0.000,-2.870,0.175,364,408,392,421,389,2025-05-28T17:46:17.892022
55405,-0.1532,0.1078,1.0194,0.105,-2.905,0.175,333,395,378,373,393,2025-05-28T17:46:17.892022
55406,-0.1562,0.1049,1.0204,0.035,-2.975,0.175,394,421,374,413,408,2025-05-28T17:46:17.892022
55407,-0.1557,0.1078,1.0199,-0.035,-3.010,0.245,402,402,388,375,391,2025-05-28T17:46:17.990617
55408,-0.1537,0.1064,1.0224,0.070,-3.010,0.280,340,343,373,386,348,2025-05-28T17:46:17.991310
55409,-0.1527,0.1035,1.0228,0.105,-3.115,0.105,412,386,353,400,392,2025-05-28T17:46:17.991310
55410,-0.1523,0.1044,1.0204,0.140,-3.220,0.140,372,413,370,406,394,2025-05-28T17:46:17.991310
55411,-0.1523,0.1044,1.0224,0.280,-3.010,0.245,419,419,373,414,408,2025-05-28T17:46:17.991310
55412,-0.1523,0.1059,1.0180,0.105,-2.660,0.280,408,429,384,414,316,2025-05-28T17:46:17.991310
55413,-0.1513,0.1093,1.0155,0.035,-2.625,0.105,404,357,379,391,377,2025-05-28T17:46:17.991960
55414,-0.1542,0.1093,1.0185,0.000,-2.520,0.070,407,387,373,417,379,2025-05-28T17:46:17.991960
55415,-0.1557,0.1049,1.0199,-0.245,-2.485,0.070,413,409,382,409,405,2025-05-28T17:46:17.991960
55416,-0.1562,0.1015,1.0204,8.855,-2.765,0.000,418,416,391,401,408,2025-05-28T17:46:17.991960
55417,-0.1542,0.1015,1.0209,0.105,-2.870,0.140,415,401,374,402,356,2025-05-28T17:46:17.991960
55418,-0.1547,0.1039,1.0209,0.140,-2.695,0.280,420,426,378,411,377,2025-05-28T17:46:17.991960
55419,-0.1571,0.1064,1.0180,0.210,-2.905,0.350,399,399,367,410,396,2025-05-28T17:46:18.391045
55420,-0.1552,0.1083,1.0189,0.175,-3.185,0.175,414,349,360,401,388,2025-05-28T17:46:18.391045
55421,-0.1532,0.1054,1.0199,0.000,-3.290,0.140,419,398,367,391,404,2025-05-28T17:46:18.391045
55422,-0.1532,0.1025,1.0214,-0.035,-3.395,0.210,396,342,363,407,395,2025-05-28T17:46:18.391045
55423,-0.1503,0.1025,1.0214,0.175,-3.360,0.175,401,376,379,395,392,2025-05-28T17:46:18.391045
55424,-0.1508,0.1030,1.0219,0.210,-3.010,0.350,348,365,381,401,401,2025-05-28T17:46:18.391045
55425,-0.1513,0.1020,1.0204,0.105,-2.870,0.245,379,411,390,355,386,2025-05-28T17:46:18.391045
55426,-0.1523,0.1078,1.0150,0.175,-2.695,0.105,372,424,383,397,402,2025-05-28T17:46:18.391045
55427,-0.1513,0.1157,1.0185,0.000,-2.135,0.210,410,427,394,394,418,2025-05-28T17:46:18.391045
55428,-0.1571,0.1103,1.0194,-0.350,-2.100,0.175,400,382,360,409,414,2025-05-28T17:46:18.391045
55429,-0.1557,0.1039,1.0185,-0.315,-2.870,-0.140,414,421,378,412,380,2025-05-28T17:46:18.391045
55430,-0.1532,0.1005,1.0258,-0.070,-3.185,-0.035,397,429,367,397,387,2025-05-28T17:46:18.391045
55431,-0.1503,0.0956,1.0228,-0.035,-3.080,0.105,411,414,365,390,389,2025-05-28T17:46:18.391045
55432,-0.1503,0.1035,1.0136,0.315,-2.835,0.455,387,417,362,409,382,2025-05-28T17:46:18.391045
55433,-0.1542,0.1118,1.0155,0.385,-2.765,0.420,418,426,336,412,405,2025-05-28T17:46:18.391045
55434,-0.1596,0.1122,1.0194,-0.105,-2.765,0.105,401,408,369,415,385,2025-05-28T17:46:18.391045
55435,-0.1566,0.1039,1.0209,-0.245,-3.220,-0.175,413,422,375,415,374,2025-05-28T17:46:18.392020
55436,-0.1498,0.1000,1.0228,-0.035,-3.570,-0.105,395,414,372,382,395,2025-05-28T17:46:18.392020
55437,-0.1474,0.0986,1.0228,0.140,-2.940,0.385,407,417,365,382,408,2025-05-28T17:46:18.392020
55438,-0.1503,0.1059,1.0199,0.245,-2.660,0.525,367,397,375,342,407,2025-05-28T17:46:18.392020
55439,-0.1562,0.1132,1.0175,0.245,-2.695,0.350,384,421,368,394,408,2025-05-28T17:46:18.490770
55440,-0.1596,0.1137,1.0185,0.000,-2.695,0.105,387,425,386,420,369,2025-05-28T17:46:18.490770
55441,-0.1537,0.1088,1.0170,-0.210,-3.010,-0.140,395,422,350,413,390,2025-05-28T17:46:18.490770
55442,-0.1523,0.0996,1.0204,-0.070,-3.115,0.035,341,414,361,388,387,2025-05-28T17:46:18.490770
55443,-0.1498,0.0966,1.0248,0.000,-3.010,0.280,394,356,374,402,395,2025-05-28T17:46:18.490770
55444,-0.1513,0.1015,1.0199,0.140,-2.800,0.385,415,387,370,414,409,2025-05-28T17:46:18.491781
55445,-0.1557,0.1074,1.0175,0.210,-2.765,0.385,390,397,374,353,405,2025-05-28T17:46:18.491781
55446,-0.1571,0.1113,1.0175,0.070,-2.800,0.175,414,349,379,334,409,2025-05-28T17:46:18.491781
55447,-0.1562,0.1098,1.0185,-0.035,-2.975,0.000,415,379,376,372,413,2025-05-28T17:46:18.491781
55448,-0.1527,0.1015,1.0224,-0.105,-3.080,-0.035,394,420,352,343,403,2025-05-28T17:46:18.491781
55449,-0.1508,0.1010,1.0233,-0.070,-3.115,0.070,413,412,360,385,389,2025-05-28T17:46:18.491781
55450,-0.1498,0.1010,1.0209,0.105,-2.940,0.350,390,396,384,401,343,2025-05-28T17:46:18.491781
55451,-0.1542,0.1064,1.0185,0.245,-2.800,0.385,411,415,375,394,393,2025-05-28T17:46:18.491781
55452,-0.1547,0.1122,1.0180,0.035,-2.800,0.280,403,399,374,419,394,2025-05-28T17:46:18.491781
55453,-0.1571,0.1093,1.0199,-0.175,-2.940,0.070,411,404,385,416,390,2025-05-28T17:46:18.491781
55454,-0.1542,0.1044,1.0199,-0.105,-3.045,0.035,400,393,382,409,408,2025-05-28T17:46:18.491781
55455,-0.1503,0.1030,1.0214,0.000,-2.905,0.105,393,417,372,375,393,2025-05-28T17:46:18.491781
55456,-0.1508,0.1005,1.0214,0.105,-2.765,0.385,398,411,333,390,353,2025-05-28T17:46:18.491781
55457,-0.1542,0.1054,1.0189,0.070,-2.800,0.315,398,406,374,411,390,2025-05-28T17:46:18.491781
55458,-0.1542,0.1103,1.0180,0.035,-2.975,0.210,416,398,385,414,392,2025-05-28T17:46:18.491781
55459,-0.1552,0.1103,1.0185,-0.105,-3.010,0.070,419,423,389,404,410,2025-05-28T17:46:18.491781
55460,-0.1532,0.1064,1.0189,-0.035,-3.010,0.070,417,431,390,404,378,2025-05-28T17:46:18.706088
55461,-0.1527,0.1035,1.0214,0.035,-2.940,0.105,365,417,373,385,388,2025-05-28T17:46:18.706088
55462,-0.1518,0.1010,1.0214,0.000,-2.765,0.315,337,392,378,405,402,2025-05-28T17:46:18.706088
55463,-0.1527,0.1044,1.0214,0.000,-2.835,0.280,394,355,382,353,346,2025-05-28T17:46:18.706088
55464,-0.1537,0.1069,1.0185,0.070,-2.905,0.175,394,365,392,374,352,2025-05-28T17:46:18.706088
55465,-0.1552,0.1069,1.0180,-0.035,-2.940,0.140,342,411,384,414,389,2025-05-28T17:46:18.707087
55466,-0.1527,0.1064,1.0204,0.035,-2.905,0.175,393,423,381,401,389,2025-05-28T17:46:18.707087
55467,-0.1537,0.1044,1.0194,0.000,-2.905,0.210,397,413,387,414,415,2025-05-28T17:46:18.707435
55468,-0.1527,0.1049,1.0204,0.035,-2.975,0.280,412,427,389,386,408,2025-05-28T17:46:18.707435
55469,-0.1557,0.1059,1.0199,-0.035,-3.010,0.245,427,392,394,408,417,2025-05-28T17:46:18.707435
55470,-0.1547,0.1054,1.0204,0.000,-3.010,0.210,396,374,397,416,397,2025-05-28T17:46:18.707435
55471,-0.1537,0.1049,1.0199,0.070,-2.940,0.105,413,397,394,414,369,2025-05-28T17:46:18.707435
55472,-0.1523,0.1044,1.0204,0.035,-2.905,0.175,402,425,386,353,335,2025-05-28T17:46:18.707435
55473,-0.1527,0.1049,1.0185,0.070,-2.870,0.175,398,415,381,390,327,2025-05-28T17:46:18.707435
55474,-0.1542,0.1064,1.0189,0.000,-2.695,0.175,411,393,384,363,368,2025-05-28T17:46:18.707435
55475,-0.1542,0.1069,1.0199,-0.035,-2.765,0.210,404,355,383,384,378,2025-05-28T17:46:18.707435
55476,-0.1542,0.1044,1.0204,0.000,-2.870,0.140,376,333,375,384,346,2025-05-28T17:46:18.707435
55477,-0.1571,0.1035,1.0194,0.000,-2.975,0.140,425,330,385,405,383,2025-05-28T17:46:18.708433
55478,-0.1552,0.1039,1.0204,-0.035,-2.975,0.210,406,416,390,417,389,2025-05-28T17:46:18.708756
55479,-0.1527,0.1049,1.0189,0.140,-2.940,0.175,402,415,387,411,403,2025-05-28T17:46:18.708756
55480,-0.1547,0.1069,1.0175,0.035,-2.940,0.210,388,424,384,414,407,2025-05-28T17:46:18.945120
55481,-0.1557,0.1069,1.0204,0.000,-2.870,0.210,416,438,390,395,409,2025-05-28T17:46:18.945120
55482,-0.1557,0.1054,1.0189,0.035,-3.115,0.140,417,427,388,393,405,2025-05-28T17:46:18.945120
55483,-0.1537,0.1054,1.0214,0.000,-3.010,0.140,416,401,390,409,404,2025-05-28T17:46:18.945120
55484,-0.1518,0.1049,1.0199,0.035,-2.940,0.210,398,403,396,416,415,2025-05-28T17:46:18.945120
55485,-0.1547,0.1030,1.0185,0.000,-2.870,0.175,391,424,347,416,393,2025-05-28T17:46:18.945120
55486,-0.1523,0.1059,1.0189,0.070,-2.835,0.210,386,414,375,389,396,2025-05-28T17:46:18.945120
55487,-0.1532,0.1088,1.0199,0.035,-2.870,0.245,393,396,386,409,404,2025-05-28T17:46:18.945120
55488,-0.1557,0.1088,1.0194,-0.035,-3.010,0.070,354,416,386,395,391,2025-05-28T17:46:18.945120
55489,-0.1552,0.1054,1.0189,0.000,-3.010,0.070,412,368,387,386,402,2025-05-28T17:46:18.945120
55490,-0.1537,0.1039,1.0204,0.000,-2.975,0.245,380,393,378,396,363,2025-05-28T17:46:18.945120
55491,-0.1547,0.1030,1.0209,0.035,-2.905,0.280,392,416,388,363,333,2025-05-28T17:46:18.945120
55492,-0.1532,0.1059,1.0194,0.140,-2.870,0.140,388,366,391,381,365,2025-05-28T17:46:18.945120
55493,-0.1557,0.1054,1.0185,0.035,-2.835,0.175,406,395,383,406,377,2025-05-28T17:46:18.945120
55494,-0.1537,0.1064,1.0189,-0.035,-2.835,0.140,401,392,339,396,360,2025-05-28T17:46:18.945120
55495,-0.1552,0.1064,1.0199,-0.035,-2.835,0.035,380,340,362,406,379,2025-05-28T17:46:18.945120
55496,-0.1552,0.1049,1.0189,0.000,-2.870,0.175,398,419,370,354,343,2025-05-28T17:46:18.946162
55497,-0.1537,0.1039,1.0204,-0.070,-2.835,0.175,418,362,336,400,390,2025-05-28T17:46:18.946162
55498,-0.1532,0.1074,1.0204,0.000,-2.905,0.210,405,396,362,406,396,2025-05-28T17:46:18.946162
55499,-0.1537,0.1064,1.0189,0.070,-3.010,0.140,418,401,363,404,399,2025-05-28T17:46:18.946162
55500,-0.1537,0.1064,1.0194,0.070,-2.975,0.245,413,406,386,422,419,2025-05-28T17:46:19.158702
55501,-0.1537,0.1069,1.0204,-0.035,-3.010,0.140,416,413,388,378,407,2025-05-28T17:46:19.158702
55502,-0.1527,0.1039,1.0209,-0.035,-3.080,0.140,391,394,339,378,411,2025-05-28T17:46:19.158702
55503,-0.1527,0.1044,1.0199,0.035,-3.045,0.245,414,398,357,391,400,2025-05-28T17:46:19.158702
55504,-0.1513,0.1039,1.0199,0.000,-2.870,0.140,403,410,380,401,392,2025-05-28T17:46:19.168519
55505,-0.1523,0.1054,1.0199,0.035,-2.870,0.280,377,407,377,401,401,2025-05-28T17:46:19.168607
55506,-0.1527,0.1069,1.0180,0.000,-2.835,0.140,407,435,367,414,354,2025-05-28T17:46:19.168607
55507,-0.1527,0.1059,1.0194,0.035,-2.800,0.140,423,404,375,407,384,2025-05-28T17:46:19.168796
55508,-0.1523,0.1069,1.0214,-0.035,-2.730,0.210,395,397,371,414,394,2025-05-28T17:46:19.168796
55509,-0.1527,0.1064,1.0189,0.035,-2.800,0.280,368,422,368,419,404,2025-05-28T17:46:19.168796
55510,-0.1527,0.1059,1.0214,-0.035,-2.800,0.210,401,414,379,413,401,2025-05-28T17:46:19.169604
55511,-0.1532,0.1044,1.0180,-0.035,-2.835,0.280,385,400,308,398,356,2025-05-28T17:46:19.169604
55512,-0.1547,0.1083,1.0194,0.000,-2.940,0.140,413,393,343,401,394,2025-05-28T17:46:19.169604
55513,-0.1557,0.1059,1.0209,0.000,-2.975,0.140,414,409,323,403,393,2025-05-28T17:46:19.169604
55514,-0.1518,0.1039,1.0189,0.035,-3.045,0.105,418,400,362,415,402,2025-05-28T17:46:19.169604
55515,-0.1523,0.1049,1.0185,0.070,-3.010,0.315,424,426,369,397,407,2025-05-28T17:46:19.169604
55516,-0.1518,0.1064,1.0199,0.000,-2.800,0.175,418,363,334,414,414,2025-05-28T17:46:19.404598
55517,-0.1523,0.1064,1.0189,0.000,-2.800,0.175,405,409,370,426,415,2025-05-28T17:46:19.404598
55518,-0.1552,0.1054,1.0204,-0.035,-2.835,0.105,418,403,375,418,423,2025-05-28T17:46:19.404598
55519,-0.1537,0.1035,1.0189,0.000,-2.905,0.140,401,411,371,402,414,2025-05-28T17:46:19.404598
55520,-0.1542,0.1049,1.0194,0.035,-2.940,0.175,422,421,377,412,396,2025-05-28T17:46:19.404598
55521,-0.1527,0.1054,1.0209,0.070,-2.905,0.315,407,418,373,392,391,2025-05-28T17:46:19.404598
55522,-0.1542,0.1054,1.0194,0.070,-2.905,0.245,388,411,372,393,391,2025-05-28T17:46:19.404598
55523,-0.1557,0.1083,1.0189,-0.035,-2.905,0.210,388,432,386,366,411,2025-05-28T17:46:19.404598
55524,-0.1562,0.1044,1.0194,0.070,-3.080,0.105,419,418,367,395,416,2025-05-28T17:46:19.404598
55525,-0.1532,0.1025,1.0219,0.000,-3.080,0.140,352,403,364,381,355,2025-05-28T17:46:19.404598
55526,-0.1518,0.1030,1.0219,0.000,-3.080,0.210,401,411,330,298,346,2025-05-28T17:46:19.404598
55527,-0.1493,0.1044,1.0194,0.070,-2.905,0.245,298,401,317,367,388,2025-05-28T17:46:19.404598
55528,-0.1532,0.1069,1.0199,0.175,-2.590,0.245,326,296,324,387,393,2025-05-28T17:46:19.404598
55529,-0.1552,0.1054,1.0214,0.035,-2.590,0.175,391,397,346,305,385,2025-05-28T17:46:19.404598
55530,-0.1552,0.1054,1.0185,-0.070,-2.835,0.035,401,422,362,338,393,2025-05-28T17:46:19.404598
55531,-0.1532,0.1049,1.0189,0.000,-2.870,0.140,421,406,374,349,403,2025-05-28T17:46:19.404598
55532,-0.1508,0.1030,1.0238,-0.035,-2.800,0.105,416,430,375,363,389,2025-05-28T17:46:19.404598
55533,-0.1542,0.1030,1.0204,0.105,-2.835,0.245,390,406,372,296,399,2025-05-28T17:46:19.404598
55534,-0.1542,0.1069,1.0170,0.175,-2.765,0.245,408,413,363,352,403,2025-05-28T17:46:19.404598
55535,-0.1562,0.1088,1.0199,0.105,-2.800,0.245,412,401,376,386,355,2025-05-28T17:46:19.404598
55536,-0.1552,0.1083,1.0199,-0.035,-2.870,0.245,414,417,379,396,339,2025-05-28T17:46:19.404598
55537,-0.1523,0.1039,1.0204,0.000,-3.115,0.105,386,410,343,401,381,2025-05-28T17:46:19.855043
55538,-0.1542,0.1030,1.0248,0.000,-3.150,0.210,414,405,362,398,385,2025-05-28T17:46:19.855043
55539,-0.1513,0.1015,1.0214,-0.035,-2.975,0.210,404,384,342,412,407,2025-05-28T17:46:19.855043
55540,-0.1518,0.1049,1.0189,0.245,-2.870,0.280,416,396,370,357,403,2025-05-28T17:46:19.855043
55541,-0.1557,0.1088,1.0204,0.140,-2.975,0.175,403,406,342,340,410,2025-05-28T17:46:19.855043
55542,-0.1537,0.1069,1.0194,0.035,-3.010,0.175,359,393,365,392,413,2025-05-28T17:46:19.855043
55543,-0.1542,0.1069,1.0189,0.070,-3.115,0.070,386,410,344,385,392,2025-05-28T17:46:19.855043
55544,-0.1513,0.1054,1.0219,0.070,-3.010,0.175,408,408,373,387,400,2025-05-28T17:46:19.855043
55545,-0.1513,0.1069,1.0194,-0.035,-2.730,0.245,376,380,380,359,408,2025-05-28T17:46:19.855043
55546,-0.1523,0.1088,1.0180,0.070,-2.555,0.210,378,424,373,398,399,2025-05-28T17:46:19.856045
55547,-0.1557,0.1054,1.0194,0.000,-2.590,0.140,386,425,388,395,409,2025-05-28T17:46:19.856045
55548,-0.1562,0.1064,1.0185,-0.210,-2.695,0.000,414,360,347,404,414,2025-05-28T17:46:19.856045
55549,-0.1552,0.1044,1.0199,-0.105,-2.730,0.105,405,383,359,387,391,2025-05-28T17:46:19.856045
55550,-0.1537,0.1035,1.0214,0.000,-2.765,0.140,416,419,364,391,402,2025-05-28T17:46:19.987384
55551,-0.1547,0.1039,1.0189,-0.035,-2.730,0.280,411,413,365,396,389,2025-05-28T17:46:19.987384
55552,-0.1537,0.1083,1.0175,0.070,-2.835,0.385,413,423,377,385,406,2025-05-28T17:46:19.987384
55553,-0.1581,0.1108,1.0204,0.105,-3.010,0.210,302,429,386,404,410,2025-05-28T17:46:19.987384
55554,-0.1576,0.1025,1.0228,-0.070,-3.430,0.140,378,428,350,419,410,2025-05-28T17:46:19.987384
55555,-0.1508,0.1054,1.0199,0.140,-3.780,0.175,366,429,375,411,386,2025-05-28T17:46:19.987384
55556,-0.1474,0.1020,1.0228,0.210,-3.255,0.350,400,427,383,406,392,2025-05-28T17:46:19.987384
55557,-0.1508,0.1020,1.0224,0.070,-2.905,0.420,402,415,381,414,403,2025-05-28T17:46:19.987384
55558,-0.1527,0.1093,1.0175,0.210,-2.835,0.210,395,415,384,422,355,2025-05-28T17:46:19.987384
55559,-0.1527,0.1088,1.0209,0.070,-2.695,0.105,385,415,378,423,370,2025-05-28T17:46:19.987384
55560,-0.1537,0.1054,1.0194,-0.210,-2.625,0.000,417,431,342,417,385,2025-05-28T17:46:19.987384
55561,-0.1503,0.1025,1.0209,-0.070,-2.730,0.000,390,419,346,406,384,2025-05-28T17:46:19.987384
55562,-0.1503,0.1010,1.0233,0.035,-2.730,0.175,386,409,367,387,398,2025-05-28T17:46:19.987384
55563,-0.1542,0.1064,1.0189,0.000,-2.590,0.280,412,413,377,381,402,2025-05-28T17:46:19.987384
55564,-0.1557,0.1083,1.0175,0.070,-2.660,0.280,385,418,386,408,365,2025-05-28T17:46:19.987384
55565,-0.1586,0.1093,1.0194,0.035,-2.870,0.245,389,349,370,409,386,2025-05-28T17:46:19.987384
55566,-0.1601,0.1069,1.0214,-0.140,-3.045,0.210,402,390,375,414,400,2025-05-28T17:46:19.987384
55567,-0.1527,0.1025,1.0214,-0.035,-3.360,0.070,400,399,379,414,417,2025-05-28T17:46:19.987384
55568,-0.1498,0.1035,1.0199,0.210,-3.185,0.175,400,341,381,355,389,2025-05-28T17:46:19.987384
55569,-0.1498,0.1039,1.0224,0.105,-2.835,0.420,398,415,378,380,407,2025-05-28T17:46:19.987384
55570,-0.1547,0.1069,1.0160,0.140,-2.800,0.210,398,424,356,385,393,2025-05-28T17:46:19.987384
55571,-0.1547,0.1098,1.0175,0.140,-2.940,0.105,397,416,367,396,350,2025-05-28T17:46:19.987384
55572,-0.1552,0.1078,1.0214,-0.105,-2.800,0.105,393,416,350,392,332,2025-05-28T17:46:19.987384
55573,-0.1518,0.1069,1.0189,-0.070,-2.905,0.105,388,401,361,383,377,2025-05-28T17:46:19.987384
55574,-0.1508,0.1044,1.0199,0.000,-2.870,0.175,421,401,359,341,394,2025-05-28T17:46:19.987384
55575,-0.1532,0.1025,1.0233,0.035,-2.660,0.245,426,345,365,396,417,2025-05-28T17:46:19.987384
55576,-0.1537,0.1069,1.0175,0.035,-2.660,0.245,414,416,383,404,396,2025-05-28T17:46:19.987384
55577,-0.1562,0.1108,1.0170,0.140,-2.695,0.175,429,411,387,408,409,2025-05-28T17:46:19.987384
55578,-0.1581,0.1078,1.0219,-0.070,-2.870,0.070,407,402,358,425,391,2025-05-28T17:46:19.987384
55579,-0.1542,0.1035,1.0209,-0.105,-3.115,0.035,418,405,365,412,396,2025-05-28T17:46:20.125636
55580,-0.1523,0.1015,1.0199,0.070,-3.220,0.105,417,422,366,415,391,2025-05-28T17:46:20.125636
55581,-0.1503,0.1035,1.0194,0.245,-3.080,0.350,399,401,367,415,397,2025-05-28T17:46:20.125636
55582,-0.1532,0.1078,1.0194,0.210,-2.905,0.280,411,416,343,350,397,2025-05-28T17:46:20.125636
55583,-0.1547,0.1118,1.0170,0.140,-2.835,0.175,404,306,367,397,396,2025-05-28T17:46:20.125636
55584,-0.1474,0.1147,1.0204,0.175,-3.605,0.210,348,400,378,406,401,2025-05-28T17:46:20.125636
55585,-0.1381,0.1225,1.0224,-0.280,-2.590,0.245,394,421,391,349,386,2025-05-28T17:46:20.125636
55586,-0.1596,0.0830,1.0214,0.175,-2.765,0.175,427,401,379,326,346,2025-05-28T17:46:20.125636
55587,-0.1718,0.0742,1.0194,-0.035,-2.695,0.035,396,427,373,368,399,2025-05-28T17:46:20.125636
55588,-0.1654,0.1049,1.0233,-0.280,-3.115,0.280,415,433,379,391,404,2025-05-28T17:46:20.125636
55589,-0.1405,0.1362,1.0238,0.315,-3.290,0.350,407,427,383,410,414,2025-05-28T17:46:20.125636
55590,-0.1527,0.1005,1.0160,0.315,-2.975,0.140,359,426,385,404,361,2025-05-28T17:46:20.125636
55591,-0.1664,0.0854,1.0106,0.105,-2.345,-0.035,330,426,381,389,379,2025-05-28T17:46:20.125636
55592,-0.1601,0.1054,1.0165,-0.070,-3.045,-0.210,389,434,353,376,388,2025-05-28T17:46:20.126635
55593,-0.1474,0.1200,1.0219,0.140,-3.255,0.000,422,422,371,402,395,2025-05-28T17:46:20.126635
55594,-0.1527,0.0913,1.0253,0.035,-2.555,0.210,395,413,366,403,350,2025-05-28T17:46:20.126635
55595,-0.1557,0.0961,1.0160,0.070,-2.835,0.315,388,376,377,388,351,2025-05-28T17:46:20.126635
55596,-0.1552,0.1147,1.0136,0.350,-3.045,0.245,415,398,383,404,373,2025-05-28T17:46:20.126635
55597,-0.1596,0.1127,1.0214,0.035,-2.555,0.210,398,417,390,354,381,2025-05-28T17:46:20.126635
55598,-0.1557,0.1069,1.0199,-0.245,-2.975,-0.070,385,418,390,379,398,2025-05-28T17:46:20.126635
55599,-0.1498,0.1010,1.0248,0.000,-3.395,-0.035,413,416,397,401,399,2025-05-28T17:46:20.388953
55600,-0.1523,0.0996,1.0204,0.105,-2.975,0.210,408,422,396,396,405,2025-05-28T17:46:20.388953
55601,-0.1513,0.1064,1.0189,0.175,-2.695,0.455,392,422,386,411,386,2025-05-28T17:46:20.388953
55602,-0.1557,0.1118,1.0204,0.105,-2.940,0.280,373,406,378,419,391,2025-05-28T17:46:20.388953
55603,-0.1566,0.1137,1.0185,0.140,-2.870,0.175,381,391,385,412,362,2025-05-28T17:46:20.388953
55604,-0.1571,0.1064,1.0180,-0.210,-2.800,0.035,391,394,387,392,384,2025-05-28T17:46:20.388953
55605,-0.1518,0.1035,1.0189,-0.035,-2.905,0.000,427,398,390,402,402,2025-05-28T17:46:20.388953
55606,-0.1513,0.1039,1.0233,0.035,-2.940,0.210,418,388,358,403,379,2025-05-28T17:46:20.388953
55607,-0.1532,0.0996,1.0233,-0.035,-2.730,0.210,405,416,342,389,382,2025-05-28T17:46:20.389949
55608,-0.1523,0.1010,1.0024,-0.385,-2.695,0.070,371,398,354,387,396,2025-05-28T17:46:20.389949
55609,-0.1513,0.1357,0.9921,0.175,-2.275,0.315,406,415,366,390,355,2025-05-28T17:46:20.389949
55610,-0.1791,0.1166,1.0590,0.700,-1.540,0.315,389,399,358,392,338,2025-05-28T17:46:20.389949
55611,-0.1576,0.0468,1.0502,-1.785,-3.745,-0.910,396,363,359,386,328,2025-05-28T17:46:20.389949
55612,-0.1205,0.1118,0.9784,1.225,-7.000,-0.280,416,362,335,398,364,2025-05-28T17:46:20.389949
55613,-0.1371,0.1098,1.0682,2.730,-3.780,1.995,412,386,367,401,400,2025-05-28T17:46:20.389949
55614,-0.1586,0.0747,1.0404,-0.665,-3.430,1.155,338,428,368,368,363,2025-05-28T17:46:20.389949
55615,-0.1444,0.1449,0.9531,0.980,-5.250,-0.420,407,404,379,374,393,2025-05-28T17:46:20.389949
55616,-0.1493,0.1625,1.0082,1.295,-0.770,-0.105,420,404,371,400,406,2025-05-28T17:46:20.389949
55617,-0.1737,0.1205,1.0131,-3.710,3.290,-0.385,399,337,359,404,412,2025-05-28T17:46:20.389949
55618,-0.1630,0.0859,1.0106,-1.645,-1.260,-1.785,408,399,375,393,388,2025-05-28T17:46:20.654622
55619,-0.1513,0.0459,1.0804,0.560,-4.095,-1.575,403,423,386,400,351,2025-05-28T17:46:20.655606
55620,-0.1366,0.0434,1.0565,-0.875,-2.415,0.700,407,415,374,404,383,2025-05-28T17:46:20.655606
55621,-0.1332,0.1196,0.9784,1.435,-1.260,2.240,412,390,343,402,406,2025-05-28T17:46:20.655606
55622,-0.1737,0.1620,0.9877,2.660,-1.610,2.275,377,386,353,410,356,2025-05-28T17:46:20.655606
55623,-0.1815,0.1527,0.9838,-1.190,-2.555,0.035,412,426,377,407,396,2025-05-28T17:46:20.655606
55624,-0.1444,0.1435,1.0263,1.120,-5.740,-1.820,408,427,365,396,411,2025-05-28T17:46:20.655606
55625,-0.1337,0.1020,1.0985,1.470,-6.055,-0.840,339,416,367,393,386,2025-05-28T17:46:20.655606
55626,-0.1269,0.0434,1.0307,-2.835,-4.725,0.525,388,361,369,407,397,2025-05-28T17:46:20.655606
55627,-0.1318,0.0610,0.9887,1.295,-3.255,1.190,413,412,369,395,399,2025-05-28T17:46:20.655606
55628,-0.1444,0.1152,1.0150,3.955,-1.295,1.085,417,392,382,391,397,2025-05-28T17:46:20.655606
55629,-0.1732,0.1396,0.9980,-1.015,1.120,0.735,410,428,356,390,359,2025-05-28T17:46:20.655606
55630,-0.1732,0.1396,0.9916,-1.925,-0.035,-0.700,415,425,325,393,389,2025-05-28T17:46:20.655606
55631,-0.1640,0.1274,1.0409,1.190,-2.660,-1.925,393,398,360,364,390,2025-05-28T17:46:20.655606
55632,-0.1493,0.0761,1.0565,-1.925,-1.890,-0.700,396,362,381,391,394,2025-05-28T17:46:20.655606
55633,-0.1376,0.0732,1.0219,-1.715,-2.450,0.525,301,389,388,348,304,2025-05-28T17:46:20.655606
55634,-0.1449,0.1035,1.0126,2.450,-3.290,0.980,350,400,341,376,377,2025-05-28T17:46:20.655606
55635,-0.1713,0.1283,1.0180,1.085,-1.435,1.330,387,406,375,400,343,2025-05-28T17:46:20.655606
55636,-0.1747,0.1352,0.8789,-1.470,-2.030,0.350,406,409,381,406,397,2025-05-28T17:46:20.655606
55637,-0.1703,0.1215,1.0024,-0.245,-4.760,-1.085,420,397,372,395,410,2025-05-28T17:46:20.655606
55638,-0.1537,0.0844,1.0458,-0.140,-4.375,-0.805,426,424,381,401,386,2025-05-28T17:46:20.840324
55639,-0.1371,0.0698,1.0360,-0.945,-3.255,0.175,431,422,379,386,391,2025-05-28T17:46:20.840324
55640,-0.1386,0.0864,1.0116,1.120,-3.325,1.085,427,419,389,387,385,2025-05-28T17:46:20.840324
55641,-0.1601,0.1196,1.0155,1.225,-2.275,1.400,408,422,386,410,391,2025-05-28T17:46:20.840324
55642,-0.1693,0.1430,1.0028,0.000,-2.135,0.735,417,423,373,388,404,2025-05-28T17:46:20.840324
55643,-0.1693,0.1322,1.0053,-0.385,-3.745,-0.525,417,434,378,408,361,2025-05-28T17:46:20.840324
55644,-0.1576,0.1044,1.0302,-0.420,-4.830,-0.980,417,405,385,391,391,2025-05-28T17:46:20.840324
55645,-0.1396,0.0810,1.0336,-0.525,-3.850,-0.245,412,391,382,355,378,2025-05-28T17:46:20.840324
55646,-0.1332,0.0766,1.0253,0.175,-2.835,0.700,390,397,377,384,363,2025-05-28T17:46:20.840324
55647,-0.1493,0.1020,1.0180,0.805,-2.065,1.015,385,335,380,410,340,2025-05-28T17:46:20.840324
55648,-0.1645,0.1264,1.0116,0.035,-1.225,0.665,368,375,387,404,389,2025-05-28T17:46:20.840324
55649,-0.1693,0.1288,1.0111,-0.420,-1.680,-0.210,402,392,391,397,405,2025-05-28T17:46:20.840324
55650,-0.1654,0.1083,1.0189,-0.560,-2.765,-0.875,387,333,395,391,391,2025-05-28T17:46:20.840324
55651,-0.1503,0.0932,1.0272,-0.560,-3.045,-0.420,332,379,387,397,411,2025-05-28T17:46:20.840324
55652,-0.1459,0.0893,1.0282,0.140,-2.835,0.525,324,374,384,368,410,2025-05-28T17:46:20.840324
55653,-0.1523,0.1000,1.0199,0.595,-2.800,0.875,372,346,379,395,407,2025-05-28T17:46:20.840324
55654,-0.1625,0.1225,1.0126,0.525,-3.010,0.875,398,374,339,390,358,2025-05-28T17:46:20.840324
55655,-0.1654,0.1235,1.0121,0.070,-3.535,0.280,416,380,335,400,356,2025-05-28T17:46:20.840324
55656,-0.1601,0.1093,1.0189,-0.350,-4.060,-0.385,367,332,332,350,390,2025-05-28T17:46:20.840324
55657,-0.1488,0.0883,1.0282,-0.315,-4.025,-0.350,336,411,363,395,400,2025-05-28T17:46:20.840324
55658,-0.1420,0.0859,1.0253,0.070,-3.220,0.210,391,425,379,402,353,2025-05-28T17:46:21.140173
55659,-0.1459,0.0947,1.0233,0.420,-2.100,0.735,390,384,389,386,376,2025-05-28T17:46:21.140173
55660,-0.1562,0.1152,1.0136,0.455,-1.820,0.665,358,404,343,395,398,2025-05-28T17:46:21.140173
55661,-0.1649,0.1249,1.0106,0.140,-2.205,0.070,389,407,364,398,360,2025-05-28T17:46:21.140173
55662,-0.1610,0.1122,1.0170,-0.455,-2.835,-0.385,395,402,376,362,374,2025-05-28T17:46:21.151710
55663,-0.1523,0.1030,1.0175,-0.420,-3.255,-0.385,365,406,380,404,360,2025-05-28T17:46:21.151710
55664,-0.1479,0.1000,1.0224,0.140,-2.835,0.105,385,378,385,411,383,2025-05-28T17:46:21.152050
55665,-0.1542,0.0942,1.0302,0.280,-2.240,0.595,394,412,368,399,397,2025-05-28T17:46:21.152155
55666,-0.1586,0.1074,1.0146,-0.035,-2.730,0.350,338,348,337,405,380,2025-05-28T17:46:21.152155
55667,-0.1601,0.1171,1.0141,0.490,-3.360,0.280,390,339,353,406,362,2025-05-28T17:46:21.152155
55668,-0.1615,0.1059,1.0248,-0.070,-3.465,0.070,387,386,334,413,374,2025-05-28T17:46:21.152155
55669,-0.1513,0.1039,1.0165,-0.105,-3.640,0.000,391,418,323,393,392,2025-05-28T17:46:21.152924
55670,-0.1493,0.1059,1.0185,0.455,-3.150,0.350,396,399,357,391,392,2025-05-28T17:46:21.152924
55671,-0.1518,0.1069,1.0209,0.035,-2.205,0.525,380,301,362,409,386,2025-05-28T17:46:21.152924
55672,-0.1581,0.1132,1.0160,-0.210,-2.415,0.315,370,386,380,355,381,2025-05-28T17:46:21.152924
55673,-0.1576,0.1064,1.0228,-0.140,-3.430,-0.105,406,402,382,336,386,2025-05-28T17:46:21.152924
55674,-0.1586,0.0966,1.0268,0.035,-3.360,-0.105,400,424,347,388,384,2025-05-28T17:46:21.152924
55675,-0.1435,0.1005,1.0214,-0.070,-3.150,0.070,395,426,362,387,343,2025-05-28T17:46:21.152924
55676,-0.1532,0.1074,1.0126,0.595,-1.750,0.595,395,428,343,381,366,2025-05-28T17:46:21.152924
55677,-0.1615,0.1264,1.0111,0.210,-1.260,0.490,374,413,355,405,397,2025-05-28T17:46:21.152924
55678,-0.1664,0.1161,1.0155,-0.560,-2.380,-0.175,411,426,378,391,405,2025-05-28T17:46:21.286676
55679,-0.1625,0.0986,1.0136,-0.420,-3.360,-0.525,417,423,373,408,403,2025-05-28T17:46:21.286676
55680,-0.1503,0.0971,1.0277,0.175,-4.235,-0.210,413,341,386,407,404,2025-05-28T17:46:21.286676
55681,-0.1459,0.0878,1.0321,0.315,-3.920,0.490,408,418,351,399,409,2025-05-28T17:46:21.286676
55682,-0.1513,0.1015,1.0189,0.805,-3.640,0.980,385,419,368,351,411,2025-05-28T17:46:21.286676
55683,-0.1557,0.1293,1.0082,0.875,-3.010,0.770,338,378,378,332,360,2025-05-28T17:46:21.286676
55684,-0.1654,0.1298,1.0038,-0.140,-1.960,0.245,399,390,375,389,338,2025-05-28T17:46:21.286676
55685,-0.1615,0.1274,1.0058,-0.945,-2.065,-0.315,396,406,387,385,366,2025-05-28T17:46:21.286676
55686,-0.1542,0.0996,1.0243,-0.700,-3.255,-0.735,408,417,391,381,371,2025-05-28T17:46:21.286676
55687,-0.1503,0.0630,1.0424,-0.560,-3.185,-0.350,420,360,378,382,390,2025-05-28T17:46:21.286676
55688,-0.1401,0.0766,1.0316,0.315,-3.290,0.525,420,417,382,405,390,2025-05-28T17:46:21.286676
55689,-0.1474,0.1088,1.0155,0.980,-1.855,1.085,429,421,388,351,381,2025-05-28T17:46:21.286676
55690,-0.1659,0.1318,0.9960,0.385,-0.875,1.015,390,408,378,355,404,2025-05-28T17:46:21.286676
55691,-0.1752,0.1464,1.0014,-0.070,-2.100,0.000,387,399,376,400,415,2025-05-28T17:46:21.286676
55692,-0.1708,0.1186,1.0253,-0.560,-3.500,-0.980,407,416,308,352,404,2025-05-28T17:46:21.286676
55693,-0.1547,0.0761,1.0370,-0.875,-4.760,-0.805,426,398,312,391,398,2025-05-28T17:46:21.286676
55694,-0.1352,0.0737,1.0307,0.315,-4.725,0.210,420,419,307,404,396,2025-05-28T17:46:21.286676
55695,-0.1386,0.0878,1.0243,1.225,-2.975,1.400,419,422,356,410,396,2025-05-28T17:46:21.286676
55696,-0.1586,0.1249,1.0038,0.735,-1.785,1.505,402,427,363,398,391,2025-05-28T17:46:21.286676
55697,-0.1723,0.1410,1.0019,0.140,-2.065,0.245,395,404,336,421,402,2025-05-28T17:46:21.286676
55698,-0.1708,0.1249,1.0175,-0.770,-3.150,-0.805,408,352,368,415,411,2025-05-28T17:46:21.470352
55699,-0.1449,0.0883,1.0272,-0.910,-3.745,-1.015,414,420,372,414,414,2025-05-28T17:46:21.471349
55700,-0.1362,0.0761,1.0385,0.175,-3.185,0.000,407,424,338,418,418,2025-05-28T17:46:21.603022
55701,-0.1444,0.0815,1.0316,0.490,-1.925,1.015,412,407,362,359,409,2025-05-28T17:46:21.603022
55702,-0.1591,0.1147,1.0087,0.630,-1.855,1.120,418,426,364,384,409,2025-05-28T17:46:21.603022
55703,-0.1703,0.1362,1.0048,0.420,-2.205,0.280,416,411,358,417,388,2025-05-28T17:46:21.603022
55704,-0.1693,0.1249,1.0126,-0.630,-2.940,-0.525,407,412,367,396,401,2025-05-28T17:46:21.603022
55705,-0.1576,0.1025,1.0238,-0.560,-3.675,-0.735,407,429,333,404,351,2025-05-28T17:46:21.603022
55706,-0.1435,0.0781,1.0360,-0.245,-3.885,-0.175,398,409,356,411,332,2025-05-28T17:46:21.603022
55707,-0.1415,0.0849,1.0258,0.315,-3.115,0.770,362,412,371,409,370,2025-05-28T17:46:21.603022
55708,-0.1523,0.1078,1.0155,0.770,-2.065,1.225,390,380,337,346,340,2025-05-28T17:46:21.603022
55709,-0.1645,0.1269,1.0048,0.455,-2.275,0.630,364,403,360,376,374,2025-05-28T17:46:21.603022
55710,-0.1723,0.1318,1.0102,-0.140,-3.045,-0.140,412,390,341,380,354,2025-05-28T17:46:21.603022
55711,-0.1601,0.1088,1.0253,-0.630,-3.745,-0.700,343,408,321,396,383,2025-05-28T17:46:21.603022
55712,-0.1493,0.0830,1.0263,-0.385,-3.885,-0.315,410,408,315,348,344,2025-05-28T17:46:21.603022
55713,-0.1381,0.0869,1.0253,0.280,-3.080,0.385,395,425,360,347,376,2025-05-28T17:46:21.685802
55714,-0.1493,0.1005,1.0180,0.595,-2.030,0.945,425,399,363,377,402,2025-05-28T17:46:21.685802
55715,-0.1649,0.1186,1.0106,0.175,-1.995,0.700,415,425,386,390,369,2025-05-28T17:46:21.685802
55716,-0.1698,0.1249,1.0131,-0.175,-2.905,-0.245,385,393,369,377,371,2025-05-28T17:46:21.685802
55717,-0.1630,0.1093,1.0209,-0.385,-3.325,-0.560,412,423,364,406,380,2025-05-28T17:46:21.685802
55718,-0.1503,0.0932,1.0248,-0.455,-3.255,-0.385,396,419,380,375,396,2025-05-28T17:46:21.685802
55719,-0.1425,0.0932,1.0219,0.280,-2.975,0.385,403,402,385,396,405,2025-05-28T17:46:21.685802
55720,-0.1542,0.1000,1.0228,0.490,-2.485,0.735,423,420,350,410,355,2025-05-28T17:46:21.685802
55721,-0.1610,0.1186,1.0141,0.315,-2.555,0.595,403,420,330,399,386,2025-05-28T17:46:21.685802
55722,-0.1640,0.1230,1.0165,0.070,-3.010,0.210,396,427,346,417,389,2025-05-28T17:46:21.685802
55723,-0.1591,0.1088,1.0204,-0.280,-3.465,-0.315,395,428,372,354,345,2025-05-28T17:46:21.685802
55724,-0.1508,0.0942,1.0194,-0.490,-3.395,-0.245,405,436,387,365,390,2025-05-28T17:46:21.685802
55725,-0.1430,0.0981,1.0160,0.210,-2.870,0.280,399,402,392,393,386,2025-05-28T17:46:21.685802
55726,-0.1547,0.1035,1.0282,0.420,-2.170,0.770,388,421,374,388,382,2025-05-28T17:46:21.685802
55727,-0.1596,0.1059,1.0189,-0.315,-2.555,0.385,367,420,371,403,381,2025-05-28T17:46:21.685802
55728,-0.1606,0.1196,1.0077,0.245,-3.290,-0.105,411,417,372,416,402,2025-05-28T17:46:21.685802
55729,-0.1576,0.1074,1.0243,0.070,-2.905,-0.070,417,416,380,404,392,2025-05-28T17:46:21.685802
55730,-0.1537,0.1000,1.0155,-0.455,-2.975,0.105,303,415,378,373,397,2025-05-28T17:46:22.007077
55731,-0.1518,0.0986,1.0224,0.420,-3.045,0.350,394,433,369,372,348,2025-05-28T17:46:22.007077
55732,-0.1547,0.1049,1.0248,0.070,-2.660,0.420,395,402,365,396,391,2025-05-28T17:46:22.007077
55733,-0.1571,0.1093,1.0160,-0.245,-2.730,0.385,401,417,361,416,385,2025-05-28T17:46:22.007077
55734,-0.1542,0.1147,1.0160,0.245,-3.325,0.140,401,432,377,397,400,2025-05-28T17:46:22.007077
55735,-0.1571,0.1030,1.0238,0.175,-3.500,0.035,404,393,366,414,410,2025-05-28T17:46:22.007077
55736,-0.1513,0.1039,1.0199,-0.175,-3.430,0.140,405,416,383,411,356,2025-05-28T17:46:22.007077
55737,-0.1484,0.1054,1.0199,0.350,-2.940,0.420,416,351,366,414,395,2025-05-28T17:46:22.007077
55738,-0.1566,0.1069,1.0194,-8.785,-2.310,0.315,417,407,380,370,388,2025-05-28T17:46:22.007077
55739,-0.1576,0.1142,1.0116,-0.210,-2.240,0.070,351,416,388,341,384,2025-05-28T17:46:22.007077
55740,-0.1581,0.1078,1.0194,-0.070,-2.415,-0.035,374,397,388,395,406,2025-05-28T17:46:22.007077
55741,-0.1606,0.1005,1.0233,-0.420,-2.555,-0.210,404,397,380,417,413,2025-05-28T17:46:22.007077
55742,-0.1557,0.0986,1.0243,-0.245,-2.590,0.035,426,400,376,419,410,2025-05-28T17:46:22.007077
55743,-0.1552,0.1010,1.0189,0.105,-2.485,0.315,425,417,378,377,401,2025-05-28T17:46:22.007077
55744,-0.1591,0.1093,1.0170,0.315,-2.380,0.385,406,387,381,339,354,2025-05-28T17:46:22.007077
55745,-0.1649,0.1108,1.0180,0.035,-2.660,0.385,414,420,353,322,294,2025-05-28T17:46:22.007077
55746,-0.1669,0.1108,1.0214,0.070,-3.815,0.105,348,353,324,329,369,2025-05-28T17:46:22.007077
55747,-0.1508,0.1083,1.0233,0.000,-4.340,-0.105,404,400,355,378,346,2025-05-28T17:46:22.007077
55748,-0.1479,0.1020,1.0209,0.175,-3.780,0.455,406,354,377,396,380,2025-05-28T17:46:22.138960
55749,-0.1484,0.0991,1.0170,0.420,-3.360,0.595,351,393,384,310,396,2025-05-28T17:46:22.138960
55750,-0.1562,0.1098,1.0146,0.350,-2.905,0.420,405,392,387,371,389,2025-05-28T17:46:22.138960
55751,-0.1576,0.1171,1.0219,0.140,-2.555,0.245,411,416,347,384,414,2025-05-28T17:46:22.138960
55752,-0.1542,0.1113,1.0194,-0.245,-3.010,-0.175,406,345,366,406,363,2025-05-28T17:46:22.138960
55753,-0.1523,0.0991,1.0224,-0.140,-2.625,-0.070,383,396,382,368,350,2025-05-28T17:46:22.138960
55754,-0.1484,0.1054,1.0214,-0.105,-2.415,0.105,408,401,384,342,330,2025-05-28T17:46:22.138960
55755,-0.1557,0.1049,1.0238,0.070,-2.345,0.280,411,337,386,385,375,2025-05-28T17:46:22.138960
55756,-0.1537,0.1059,1.0170,-0.175,-2.415,0.210,413,408,390,418,357,2025-05-28T17:46:22.138960
55757,-0.1703,0.1049,1.0121,0.210,-2.240,0.000,405,427,385,412,395,2025-05-28T17:46:22.138960
55758,-0.1586,0.1103,1.0194,-0.315,-2.905,-0.175,396,381,385,404,396,2025-05-28T17:46:22.138960
55759,-0.1557,0.1196,1.0116,-0.035,-3.255,-0.070,339,406,386,390,390,2025-05-28T17:46:22.138960
55760,-0.1562,0.1005,1.0297,0.280,-3.045,0.280,403,419,383,406,395,2025-05-28T17:46:22.139959
55761,-0.1562,0.0864,1.0233,-0.280,-3.465,0.175,416,423,373,420,391,2025-05-28T17:46:22.139959
55762,-0.1527,0.1064,1.0092,0.595,-3.605,0.385,342,421,376,381,380,2025-05-28T17:46:22.139959
55763,-0.1503,0.1108,1.0233,0.385,-3.010,0.630,384,418,380,408,404,2025-05-28T17:46:22.139959
55764,-0.1625,0.1083,1.0097,-0.105,-2.660,0.385,404,375,378,396,387,2025-05-28T17:46:22.139959
55765,-0.1586,0.1122,1.0141,0.245,-3.150,0.140,417,393,374,397,385,2025-05-28T17:46:22.139959
55766,-0.1518,0.1103,1.0272,-0.140,-3.360,-0.140,411,388,343,384,385,2025-05-28T17:46:22.139959
55767,-0.1586,0.0952,1.0219,-0.455,-2.625,0.105,411,389,325,336,357,2025-05-28T17:46:22.139959
55768,-0.1440,0.0991,1.0204,0.175,-3.220,0.175,389,413,360,373,377,2025-05-28T17:46:22.287725
55769,-0.1586,0.1044,1.0214,0.455,-2.485,0.350,412,408,361,385,397,2025-05-28T17:46:22.287725
55770,-0.1581,0.1088,1.0209,-0.280,-2.065,0.385,413,421,357,378,409,2025-05-28T17:46:22.287725
55771,-0.1601,0.1181,1.0111,0.210,-2.660,0.000,400,309,336,364,389,2025-05-28T17:46:22.287725
55772,-0.1610,0.1035,1.0224,0.000,-2.660,-0.070,388,334,360,345,399,2025-05-28T17:46:22.287725
55773,-0.1566,0.1020,1.0189,-0.315,-2.485,0.070,425,395,372,387,394,2025-05-28T17:46:22.288770
55774,-0.1542,0.1020,1.0233,0.035,-2.835,0.245,420,405,367,397,409,2025-05-28T17:46:22.288770
55775,-0.1552,0.1074,1.0209,0.210,-2.975,0.420,402,403,375,406,407,2025-05-28T17:46:22.288770
55776,-0.1601,0.1059,1.0224,0.070,-2.940,0.455,391,416,387,396,394,2025-05-28T17:46:22.288770
55777,-0.1601,0.1103,1.0199,0.175,-3.290,0.175,362,433,391,413,398,2025-05-28T17:46:22.288770
55778,-0.1576,0.1074,1.0180,0.140,-3.605,0.000,402,401,377,423,385,2025-05-28T17:46:22.288770
55779,-0.1537,0.1025,1.0219,0.000,-3.360,0.210,409,395,369,405,378,2025-05-28T17:46:22.288770
55780,-0.1513,0.1020,1.0199,0.070,-3.080,0.245,346,420,372,413,399,2025-05-28T17:46:22.288770
55781,-0.1547,0.1035,1.0185,0.175,-2.730,0.315,384,429,370,312,408,2025-05-28T17:46:22.288770
55782,-0.1571,0.1098,1.0204,0.175,-2.695,0.175,412,368,347,376,396,2025-05-28T17:46:22.490511
55783,-0.1581,0.1083,1.0194,0.035,-2.660,0.105,375,409,325,378,413,2025-05-28T17:46:22.490511
55784,-0.1552,0.1069,1.0175,0.000,-2.835,0.000,413,413,357,399,403,2025-05-28T17:46:22.490511
55785,-0.1547,0.1064,1.0199,0.000,-2.905,0.035,394,407,375,400,355,2025-05-28T17:46:22.490511
55786,-0.1547,0.1049,1.0209,0.000,-2.765,0.140,400,360,304,406,338,2025-05-28T17:46:22.490511
55787,-0.1552,0.1049,1.0160,0.035,-2.870,0.280,347,397,352,395,383,2025-05-28T17:46:22.490511
55788,-0.1576,0.1103,1.0185,0.000,-2.730,0.245,402,426,370,371,337,2025-05-28T17:46:22.490511
55789,-0.1576,0.1064,1.0189,-0.035,-2.940,0.105,337,410,339,391,383,2025-05-28T17:46:22.490511
55790,-0.1562,0.1039,1.0180,-0.105,-3.045,0.105,326,347,368,412,353,2025-05-28T17:46:22.490511
55791,-0.1547,0.1039,1.0219,0.035,-3.010,0.140,380,411,377,402,391,2025-05-28T17:46:22.490511
55792,-0.1547,0.1069,1.0209,0.105,-2.940,0.245,416,427,367,413,399,2025-05-28T17:46:22.490511
55793,-0.1576,0.1015,1.0189,0.140,-2.765,0.385,399,405,367,416,389,2025-05-28T17:46:22.490511
55794,-0.1557,0.1132,1.0185,0.070,-2.975,0.315,411,418,388,373,380,2025-05-28T17:46:22.490511
55795,-0.1610,0.1078,1.0199,0.105,-2.940,0.140,345,385,378,402,407,2025-05-28T17:46:22.491511
55796,-0.1542,0.1064,1.0165,-0.280,-3.150,0.140,411,390,391,415,387,2025-05-28T17:46:22.491511
55797,-0.1547,0.1035,1.0180,0.245,-3.150,0.070,414,422,400,410,404,2025-05-28T17:46:22.491511
55798,-0.1547,0.1025,1.0228,0.000,-2.765,0.210,417,414,399,387,386,2025-05-28T17:46:22.491511
55799,-0.1518,0.1161,1.0141,0.035,-2.660,0.175,427,418,382,389,382,2025-05-28T17:46:22.802430
55800,-0.1586,0.1039,1.0194,0.035,-2.415,0.315,414,439,376,369,395,2025-05-28T17:46:22.802430
55801,-0.1566,0.1074,1.0189,-0.210,-3.010,0.140,391,416,350,341,393,2025-05-28T17:46:22.802430
55802,-0.1596,0.1010,1.0209,0.105,-3.255,-0.035,408,302,364,395,400,2025-05-28T17:46:22.802430
55803,-0.1523,0.0952,1.0243,-0.105,-3.360,0.175,399,396,382,412,349,2025-05-28T17:46:22.802430
55804,-0.1557,0.1010,1.0160,0.245,-2.905,0.350,393,422,389,402,349,2025-05-28T17:46:22.802430
55805,-0.1532,0.1132,1.0228,0.350,-2.625,0.525,403,415,395,397,368,2025-05-28T17:46:22.802430
55806,-0.1576,0.1093,1.0175,-0.210,-2.695,0.140,363,398,399,395,388,2025-05-28T17:46:22.802430
55807,-0.1586,0.1137,1.0141,0.000,-3.010,0.000,383,422,402,403,402,2025-05-28T17:46:22.802430
55808,-0.1576,0.0996,1.0302,0.000,-3.010,0.070,388,431,393,411,404,2025-05-28T17:46:22.802430
55809,-0.1518,0.0971,1.0209,-0.385,-3.325,0.070,395,400,345,399,394,2025-05-28T17:46:22.802430
55810,-0.1513,0.1088,1.0189,0.455,-2.800,0.420,420,397,366,413,393,2025-05-28T17:46:22.802430
55811,-0.1513,0.1025,1.0238,0.105,-2.590,0.350,340,349,361,344,400,2025-05-28T17:46:22.802430
55812,-0.1630,0.1142,1.0097,0.035,-2.555,0.280,416,416,367,388,367,2025-05-28T17:46:22.802430
55813,-0.1552,0.1132,1.0224,0.070,-3.010,-0.035,420,422,367,384,339,2025-05-28T17:46:22.802430
55814,-0.1610,0.1049,1.0204,-0.175,-2.975,-0.140,392,389,375,385,363,2025-05-28T17:46:22.802430
55815,-0.1484,0.0952,1.0248,-0.280,-3.045,0.070,409,414,307,401,398,2025-05-28T17:46:22.802430
55816,-0.1532,0.1035,1.0199,0.210,-3.010,0.350,424,416,316,348,349,2025-05-28T17:46:22.802430
55817,-0.1557,0.1015,1.0204,0.245,-2.590,0.455,421,423,350,379,388,2025-05-28T17:46:22.802430
55818,-0.1571,0.1127,1.0146,0.140,-2.590,0.315,400,428,365,392,359,2025-05-28T17:46:22.802430
55819,-0.1610,0.1088,1.0185,0.175,-3.010,0.000,337,417,372,406,403,2025-05-28T17:46:22.904210
55820,-0.1571,0.1054,1.0180,-0.175,-3.185,-0.105,383,412,390,355,345,2025-05-28T17:46:22.904210
55821,-0.1527,0.1000,1.0204,-0.035,-3.185,0.105,401,429,374,375,373,2025-05-28T17:46:22.904210
55822,-0.1503,0.1000,1.0189,0.175,-3.045,0.315,417,401,370,343,379,2025-05-28T17:46:22.904210
55823,-0.1532,0.1069,1.0189,0.175,-2.800,0.350,414,422,389,390,407,2025-05-28T17:46:22.904210
55824,-0.1571,0.1108,1.0160,0.070,-2.800,0.315,417,395,391,396,393,2025-05-28T17:46:22.904210
55825,-0.1596,0.1103,1.0180,0.105,-2.870,0.070,340,391,379,409,344,2025-05-28T17:46:22.904210
55826,-0.1576,0.1054,1.0209,-0.105,-3.080,0.000,416,346,389,388,337,2025-05-28T17:46:22.904210
55827,-0.1537,0.1020,1.0214,-0.035,-3.010,0.035,392,396,381,398,376,2025-05-28T17:46:22.904210
55828,-0.1527,0.1025,1.0204,0.070,-2.835,0.175,388,372,392,395,402,2025-05-28T17:46:22.904210
55829,-0.1557,0.1059,1.0204,0.070,-2.730,0.420,423,419,374,417,399,2025-05-28T17:46:22.904210
55830,-0.1591,0.1093,1.0180,0.070,-2.695,0.315,405,415,385,411,386,2025-05-28T17:46:22.904210
55831,-0.1596,0.1113,1.0194,0.000,-2.835,0.140,403,426,391,415,386,2025-05-28T17:46:22.904210
55832,-0.1557,0.1069,1.0185,-0.070,-2.975,0.000,425,421,346,367,398,2025-05-28T17:46:22.904210
55833,-0.1562,0.1025,1.0224,-0.035,-2.940,0.105,356,408,338,392,401,2025-05-28T17:46:22.904210
55834,-0.1537,0.1010,1.0214,-0.035,-2.905,0.280,399,411,359,411,392,2025-05-28T17:46:22.904210
55835,-0.1562,0.1064,1.0204,0.210,-2.870,0.280,399,395,373,393,392,2025-05-28T17:46:23.184850
55836,-0.1581,0.1083,1.0194,0.105,-2.870,0.280,418,401,363,383,348,2025-05-28T17:46:23.184850
55837,-0.1571,0.1088,1.0194,0.070,-3.080,0.210,409,421,377,408,331,2025-05-28T17:46:23.185318
55838,-0.1547,0.1064,1.0189,-0.035,-3.150,0.035,422,428,370,396,383,2025-05-28T17:46:23.185318
55839,-0.1552,0.1035,1.0224,0.035,-3.010,0.140,395,406,354,414,342,2025-05-28T17:46:23.185318
55840,-0.1537,0.1020,1.0224,0.000,-2.940,0.210,393,385,370,400,382,2025-05-28T17:46:23.185654
55841,-0.1527,0.1074,1.0185,0.035,-2.835,0.315,415,418,385,417,378,2025-05-28T17:46:23.185654
55842,-0.1571,0.1064,1.0189,0.105,-2.730,0.105,414,369,382,422,388,2025-05-28T17:46:23.185654
55843,-0.1591,0.1074,1.0204,0.000,-2.765,0.140,403,423,384,405,410,2025-05-28T17:46:23.185889
55844,-0.1562,0.1049,1.0204,0.000,-2.905,0.035,418,426,390,403,399,2025-05-28T17:46:23.185889
55845,-0.1537,0.1035,1.0224,-0.035,-2.765,0.175,419,416,376,372,391,2025-05-28T17:46:23.185889
55846,-0.1566,0.1044,1.0204,-0.035,-2.765,0.245,411,398,340,397,386,2025-05-28T17:46:23.185889
55847,-0.1566,0.1054,1.0185,0.070,-2.835,0.140,369,382,360,347,382,2025-05-28T17:46:23.185889
55848,-0.1571,0.1054,1.0194,0.140,-2.905,0.385,394,344,378,403,405,2025-05-28T17:46:23.186374
55849,-0.1571,0.1078,1.0194,0.070,-3.045,0.175,396,414,395,408,396,2025-05-28T17:46:23.186374
55850,-0.1566,0.1074,1.0204,0.000,-3.045,0.175,408,407,382,418,406,2025-05-28T17:46:23.318078
55851,-0.1557,0.1054,1.0185,0.105,-3.045,0.105,421,395,372,403,382,2025-05-28T17:46:23.367625
55852,-0.1547,0.1044,1.0199,0.070,-2.975,0.210,401,393,378,397,394,2025-05-28T17:46:23.367625
55853,-0.1547,0.1069,1.0189,0.035,-2.940,0.280,393,397,375,395,405,2025-05-28T17:46:23.367625
55854,-0.1581,0.1059,1.0204,0.035,-2.905,0.175,410,428,386,402,411,2025-05-28T17:46:23.367625
55855,-0.1552,0.1074,1.0199,-0.035,-2.835,0.245,413,430,390,405,406,2025-05-28T17:46:23.367625
55856,-0.1562,0.1059,1.0209,-0.035,-2.835,0.140,403,399,376,361,408,2025-05-28T17:46:23.368221
55857,-0.1552,0.1054,1.0185,-0.070,-2.870,0.245,374,430,390,405,410,2025-05-28T17:46:23.368221
55858,-0.1581,0.1069,1.0185,-0.035,-2.660,0.105,408,434,383,390,412,2025-05-28T17:46:23.368623
55859,-0.1566,0.1059,1.0204,0.070,-2.765,0.175,393,437,380,398,406,2025-05-28T17:46:23.368623
55860,-0.1562,0.1054,1.0209,0.000,-2.800,0.210,355,438,374,357,411,2025-05-28T17:46:23.368623
55861,-0.1566,0.1074,1.0189,0.070,-2.975,0.140,404,420,391,378,413,2025-05-28T17:46:23.368623
55862,-0.1566,0.1035,1.0233,0.105,-2.870,0.175,411,408,390,407,421,2025-05-28T17:46:23.368623
55863,-0.1547,0.1039,1.0180,0.035,-2.940,0.280,341,398,377,391,407,2025-05-28T17:46:23.368623
55864,-0.1537,0.1064,1.0209,0.175,-3.010,0.175,387,344,371,404,372,2025-05-28T17:46:23.368623
55865,-0.1557,0.1054,1.0219,0.070,-2.905,0.175,389,414,378,409,378,2025-05-28T17:46:23.368623
55866,-0.1562,0.1074,1.0180,0.035,-3.010,0.210,397,412,385,404,386,2025-05-28T17:46:23.369622
55867,-0.1562,0.1064,1.0189,0.035,-3.150,0.175,393,398,376,399,387,2025-05-28T17:46:23.369622
55868,-0.1552,0.1078,1.0199,0.035,-3.080,0.245,393,418,380,408,363,2025-05-28T17:46:23.369622
55869,-0.1532,0.1049,1.0209,-0.035,-2.940,0.210,406,432,351,416,378,2025-05-28T17:46:23.369622
55870,-0.1557,0.1049,1.0155,0.070,-2.905,0.210,427,433,329,388,401,2025-05-28T17:46:23.369622
55871,-0.1542,0.1074,1.0185,0.105,-2.625,0.280,399,426,321,414,355,2025-05-28T17:46:23.369622
55872,-0.1576,0.1054,1.0228,-0.070,-2.520,0.175,407,418,364,416,376,2025-05-28T17:46:23.542086
55873,-0.1542,0.1054,1.0199,-0.035,-2.695,0.105,404,441,373,391,377,2025-05-28T17:46:23.542086
55874,-0.1542,0.1044,1.0228,-0.035,-2.800,0.105,418,435,369,389,383,2025-05-28T17:46:23.542086
55875,-0.1557,0.1035,1.0204,-0.035,-2.835,0.175,409,430,371,386,347,2025-05-28T17:46:23.542086
55876,-0.1576,0.1054,1.0189,0.000,-2.940,0.175,407,432,338,394,377,2025-05-28T17:46:23.542086
55877,-0.1562,0.1064,1.0199,0.175,-3.080,0.280,413,417,351,389,388,2025-05-28T17:46:23.542086
55878,-0.1591,0.1069,1.0185,0.070,-3.010,0.210,421,346,373,345,342,2025-05-28T17:46:23.542086
55879,-0.1562,0.1088,1.0214,-0.035,-3.115,0.175,380,291,368,368,293,2025-05-28T17:46:23.542086
55880,-0.1527,0.1054,1.0194,-0.035,-3.255,0.175,417,363,364,397,347,2025-05-28T17:46:23.542086
55881,-0.1523,0.1035,1.0185,0.035,-3.150,0.140,406,401,369,387,376,2025-05-28T17:46:23.542086
55882,-0.1537,0.1044,1.0185,0.140,-3.010,0.245,391,428,382,306,388,2025-05-28T17:46:23.542086
55883,-0.1547,0.1059,1.0189,0.070,-2.835,0.175,414,424,372,377,389,2025-05-28T17:46:23.542086
55884,-0.1537,0.1069,1.0185,0.035,-2.765,0.105,338,421,386,345,395,2025-05-28T17:46:23.542086
55885,-0.1552,0.1078,1.0209,0.000,-2.660,0.070,380,410,387,398,396,2025-05-28T17:46:23.542086
55886,-0.1557,0.1054,1.0199,-0.070,-2.730,0.105,407,416,361,390,358,2025-05-28T17:46:23.542086
55887,-0.1571,0.1000,1.0214,-0.070,-2.695,0.175,416,410,363,408,337,2025-05-28T17:46:23.542086
55888,-0.1537,0.1025,1.0180,8.925,-2.800,0.140,389,414,381,386,329,2025-05-28T17:46:23.735490
55889,-0.1591,0.1059,1.0209,0.070,-2.765,0.210,416,416,384,388,385,2025-05-28T17:46:23.735490
55890,-0.1571,0.1064,1.0185,0.000,-2.765,0.280,416,404,388,414,402,2025-05-28T17:46:23.735490
55891,-0.1586,0.1078,1.0155,0.140,-3.045,0.175,401,396,376,420,313,2025-05-28T17:46:23.736077
55892,-0.1566,0.1083,1.0199,0.140,-3.115,0.280,406,409,381,402,376,2025-05-28T17:46:23.736077
55893,-0.1566,0.1069,1.0204,0.000,-3.080,0.210,428,400,349,413,381,2025-05-28T17:46:23.736267
55894,-0.1542,0.1049,1.0228,-0.070,-3.220,0.175,344,398,374,410,390,2025-05-28T17:46:23.736267
55895,-0.1547,0.1039,1.0194,0.105,-3.150,0.210,341,395,366,393,343,2025-05-28T17:46:23.736267
55896,-0.1518,0.1069,1.0180,0.140,-2.835,0.245,385,337,363,405,371,2025-05-28T17:46:23.736267
55897,-0.1566,0.1069,1.0155,0.000,-2.695,0.210,410,409,366,418,343,2025-05-28T17:46:23.736267
55898,-0.1571,0.1078,1.0170,0.000,-2.695,0.140,416,416,369,395,378,2025-05-28T17:46:23.736267
55899,-0.1557,0.1069,1.0219,-0.035,-2.765,0.070,372,429,336,411,407,2025-05-28T17:46:23.736267
55900,-0.1562,0.1030,1.0209,-0.140,-2.800,0.035,399,426,351,417,401,2025-05-28T17:46:23.736267
55901,-0.1547,0.1015,1.0175,-0.070,-2.835,0.140,413,401,365,398,393,2025-05-28T17:46:23.736267
55902,-0.1547,0.1049,1.0204,0.070,-2.835,0.245,341,401,336,344,344,2025-05-28T17:46:23.737327
55903,-0.1566,0.1074,1.0160,0.070,-2.800,0.210,353,419,354,395,386,2025-05-28T17:46:24.082219
55904,-0.1581,0.1078,1.0199,0.035,-2.905,0.245,387,412,344,408,347,2025-05-28T17:46:24.082219
55905,-0.1610,0.1044,1.0204,-0.035,-3.150,0.035,380,424,355,344,385,2025-05-28T17:46:24.082219
55906,-0.1562,0.1005,1.0160,-0.140,-3.255,0.035,390,428,374,336,398,2025-05-28T17:46:24.082219
55907,-0.1493,0.1064,1.0150,0.210,-3.290,0.175,378,432,381,375,399,2025-05-28T17:46:24.082219
55908,-0.1581,0.1093,1.0297,0.280,-2.800,0.525,413,429,389,336,409,2025-05-28T17:46:24.082219
55909,-0.1615,0.1010,1.0258,-0.175,-3.010,0.210,400,360,393,375,410,2025-05-28T17:46:24.082219
55910,-0.1557,0.1074,1.0155,0.070,-3.465,0.035,413,408,352,389,392,2025-05-28T17:46:24.082219
55911,-0.1498,0.1054,1.0219,0.105,-3.010,0.140,410,378,360,347,344,2025-05-28T17:46:24.082219
55912,-0.1508,0.1030,1.0150,-0.035,-2.555,0.385,394,404,365,382,388,2025-05-28T17:46:24.082219
55913,-0.1532,0.1093,1.0160,0.280,-2.730,0.210,419,431,371,395,405,2025-05-28T17:46:24.082219
55914,-0.1581,0.1083,1.0243,0.035,-2.625,0.140,392,355,363,411,401,2025-05-28T17:46:24.082219
55915,-0.1591,0.1069,1.0214,-0.385,-2.415,0.035,400,342,385,345,347,2025-05-28T17:46:24.082219
55916,-0.1557,0.1025,1.0199,-0.035,-2.835,0.105,403,383,366,398,375,2025-05-28T17:46:24.082219
55917,-0.1566,0.0996,1.0199,0.140,-3.045,0.175,412,343,364,420,380,2025-05-28T17:46:24.082219
55918,-0.1566,0.1044,1.0194,0.105,-2.730,0.420,350,411,372,403,399,2025-05-28T17:46:24.082219
55919,-0.1581,0.1093,1.0199,0.175,-2.835,0.350,395,414,384,391,392,2025-05-28T17:46:24.083217
55920,-0.1601,0.1069,1.0175,0.035,-3.115,0.000,348,411,378,405,390,2025-05-28T17:46:24.170092
55921,-0.1552,0.1132,1.0199,0.035,-2.905,0.210,404,410,386,410,403,2025-05-28T17:46:24.170092
55922,-0.1527,0.1049,1.0233,-0.105,-3.045,0.105,412,346,389,394,394,2025-05-28T17:46:24.170092
55923,-0.1557,0.1088,1.0214,0.140,-3.360,0.105,393,413,395,342,410,2025-05-28T17:46:24.170092
55924,-0.1571,0.0937,1.0272,0.035,-3.185,0.140,404,422,356,372,419,2025-05-28T17:46:24.170092
55925,-0.1513,0.1035,1.0038,-0.035,-3.045,0.210,386,396,375,390,420,2025-05-28T17:46:24.170092
55926,-0.1537,0.1200,1.0170,0.735,-2.415,0.525,413,416,385,388,380,2025-05-28T17:46:24.170092
55927,-0.1640,0.1049,1.0287,-0.420,-2.380,0.175,425,427,392,409,375,2025-05-28T17:46:24.170092
55928,-0.1591,0.1093,1.0102,-0.350,-3.115,-0.280,411,405,391,396,404,2025-05-28T17:46:24.170759
55929,-0.1547,0.1088,1.0287,0.280,-3.220,-0.035,415,337,389,406,349,2025-05-28T17:46:24.170838
55930,-0.1552,0.0927,1.0243,-0.490,-2.590,0.140,410,397,391,395,388,2025-05-28T17:46:24.170838
55931,-0.1503,0.1098,1.0087,0.175,-2.975,0.315,403,415,391,408,406,2025-05-28T17:46:24.170838
55932,-0.1635,0.1093,1.0321,0.770,-2.590,0.420,421,405,387,390,397,2025-05-28T17:46:24.170838
55933,-0.1610,0.1035,1.0116,-0.700,-2.695,0.000,416,379,379,406,411,2025-05-28T17:46:24.170838
55934,-0.1547,0.1235,1.0014,0.420,-3.255,0.000,410,414,347,396,416,2025-05-28T17:46:24.171314
55935,-0.1576,0.1025,1.0380,0.420,-2.695,0.245,428,350,327,407,399,2025-05-28T17:46:24.171314
55936,-0.1547,0.0927,1.0155,-0.910,-3.080,0.035,407,398,320,414,367,2025-05-28T17:46:24.171314
55937,-0.1508,0.1122,1.0160,0.805,-3.430,0.245,417,435,342,405,374,2025-05-28T17:46:24.171314
55938,-0.1571,0.1010,1.0331,0.070,-2.625,0.385,421,405,362,396,400,2025-05-28T17:46:24.171314
55939,-0.1581,0.1093,1.0053,-0.665,-2.695,0.280,389,404,364,367,410,2025-05-28T17:46:24.171314
55940,-0.1493,0.1166,1.0155,0.595,-3.115,0.245,416,421,374,365,388,2025-05-28T17:46:24.373887
55941,-0.1630,0.1020,1.0277,-0.070,-2.730,0.070,376,423,378,380,362,2025-05-28T17:46:24.373887
55942,-0.1542,0.1010,1.0175,-0.700,-2.835,0.000,402,422,375,386,381,2025-05-28T17:46:24.373887
55943,-0.1513,0.1035,1.0165,0.560,-3.325,0.105,399,406,347,403,397,2025-05-28T17:46:24.373887
55944,-0.1591,0.1005,1.0253,0.315,-2.555,0.385,385,414,371,401,395,2025-05-28T17:46:24.373887
55945,-0.1566,0.1118,1.0165,-0.280,-2.625,0.350,337,428,338,411,345,2025-05-28T17:46:24.373887
55946,-0.1586,0.1118,1.0199,0.385,-3.045,0.175,330,388,359,394,393,2025-05-28T17:46:24.373887
55947,-0.1606,0.1039,1.0228,-0.245,-3.185,0.000,329,389,362,413,389,2025-05-28T17:46:24.374885
55948,-0.1527,0.1064,1.0175,-0.175,-3.010,0.105,393,406,382,382,388,2025-05-28T17:46:24.374885
55949,-0.1532,0.1005,1.0224,0.315,-3.010,0.280,414,427,372,411,382,2025-05-28T17:46:24.374885
55950,-0.1571,0.1039,1.0214,0.105,-2.765,0.315,418,308,368,396,355,2025-05-28T17:46:24.374885
55951,-0.1562,0.1098,1.0180,0.035,-2.730,0.315,417,402,336,390,401,2025-05-28T17:46:24.374885
55952,-0.1552,0.1103,1.0185,0.035,-2.835,0.070,432,375,360,415,400,2025-05-28T17:46:24.374885
55953,-0.1571,0.1054,1.0194,-0.105,-2.975,0.070,432,393,372,354,392,2025-05-28T17:46:24.374885
55954,-0.1547,0.1064,1.0228,-0.070,-2.870,0.105,425,400,348,354,407,2025-05-28T17:46:24.374885
55955,-0.1532,0.1020,1.0199,0.035,-2.905,0.175,399,430,369,390,359,2025-05-28T17:46:24.374885
55956,-0.1557,0.1044,1.0209,0.105,-2.870,0.315,415,396,368,411,389,2025-05-28T17:46:24.374885
55957,-0.1566,0.1083,1.0189,0.105,-2.870,0.315,389,413,373,400,401,2025-05-28T17:46:24.374885
55958,-0.1576,0.1083,1.0180,0.070,-3.010,0.175,396,430,376,358,394,2025-05-28T17:46:24.631939
55959,-0.1566,0.1088,1.0165,0.035,-3.080,0.175,401,397,376,400,397,2025-05-28T17:46:24.631939
55960,-0.1547,0.1054,1.0199,0.070,-3.010,0.140,417,416,373,397,412,2025-05-28T17:46:24.631939
55961,-0.1537,0.1025,1.0199,-0.035,-2.905,0.210,391,423,372,354,392,2025-05-28T17:46:24.631939
55962,-0.1562,0.1083,1.0170,0.070,-2.765,0.245,400,409,376,388,395,2025-05-28T17:46:24.631939
55963,-0.1557,0.1098,1.0185,0.000,-2.660,0.210,400,402,336,412,352,2025-05-28T17:46:24.631939
55964,-0.1591,0.1088,1.0189,0.070,-2.765,0.175,354,356,370,415,376,2025-05-28T17:46:24.631939
55965,-0.1581,0.1069,1.0219,-0.070,-2.870,0.035,383,400,347,409,391,2025-05-28T17:46:24.631939
55966,-0.1576,0.1015,1.0228,-0.105,-3.045,0.070,388,419,366,419,392,2025-05-28T17:46:24.631939
55967,-0.1527,0.1039,1.0204,0.105,-3.010,0.245,395,422,371,395,401,2025-05-28T17:46:24.631939
55968,-0.1552,0.1049,1.0194,0.105,-2.870,0.245,400,425,362,390,353,2025-05-28T17:46:24.631939
55969,-0.1576,0.1059,1.0189,0.070,-2.765,0.245,407,420,379,384,295,2025-05-28T17:46:24.631939
55970,-0.1542,0.1098,1.0180,0.140,-2.870,0.140,416,399,388,401,360,2025-05-28T17:46:24.631939
55971,-0.1557,0.1088,1.0194,0.035,-2.905,0.140,342,392,390,415,382,2025-05-28T17:46:24.631939
55972,-0.1547,0.1044,1.0189,-0.175,-2.975,0.210,387,398,376,416,402,2025-05-28T17:46:24.759963
55973,-0.1542,0.1025,1.0180,0.000,-3.080,0.140,392,425,374,370,396,2025-05-28T17:46:24.759963
55974,-0.1527,0.1030,1.0209,0.175,-2.870,0.245,364,430,339,380,388,2025-05-28T17:46:24.759963
55975,-0.1557,0.1098,1.0194,0.105,-2.765,0.245,398,403,356,398,350,2025-05-28T17:46:24.759963
55976,-0.1562,0.1049,1.0185,-0.140,-2.660,0.175,416,406,360,395,384,2025-05-28T17:46:24.759963
55977,-0.1581,0.1108,1.0170,-0.035,-2.695,0.140,302,383,372,413,342,2025-05-28T17:46:24.759963
55978,-0.1508,0.1054,1.0087,-0.525,-2.940,0.070,402,421,383,408,371,2025-05-28T17:46:24.759963
55979,-0.1669,0.1210,1.0204,0.735,-2.380,0.560,404,381,384,406,356,2025-05-28T17:46:24.759963
55980,-0.1596,0.0747,1.0619,-0.560,-2.940,-0.175,415,410,387,400,397,2025-05-28T17:46:24.763235
55981,-0.1459,0.0932,0.9780,-0.245,-4.550,-0.350,387,400,381,406,409,2025-05-28T17:46:24.763235
55982,-0.1440,0.1332,1.0038,1.890,-2.240,1.120,414,384,383,406,416,2025-05-28T17:46:24.763235
55983,-0.1718,0.1054,1.0380,-1.085,-1.155,0.805,406,417,390,425,399,2025-05-28T17:46:24.763235
55984,-0.1640,0.1137,0.9960,-0.875,-3.640,-0.595,388,403,382,407,406,2025-05-28T17:46:24.763235
55985,-0.1464,0.1098,1.0302,0.840,-4.900,-0.665,405,423,390,397,388,2025-05-28T17:46:24.765683
55986,-0.1566,0.0825,1.0316,-1.120,-1.925,0.350,383,394,395,383,383,2025-05-28T17:46:24.772202
55987,-0.1420,0.1108,1.0014,0.175,-2.380,0.735,385,402,352,393,399,2025-05-28T17:46:24.772202
55988,-0.1566,0.1098,1.0326,1.575,-3.290,0.280,416,411,329,396,392,2025-05-28T17:46:24.772202
55989,-0.1718,0.0971,1.0185,-0.595,-2.240,0.070,376,422,354,409,403,2025-05-28T17:46:24.983988
55990,-0.1537,0.1235,1.0033,-0.210,-2.625,0.105,415,404,364,369,392,2025-05-28T17:46:24.983988
55991,-0.1562,0.0893,1.0253,0.385,-3.220,-0.385,385,426,380,401,406,2025-05-28T17:46:24.983988
55992,-0.0903,0.0927,1.0067,-9.030,-7.070,-1.540,382,422,358,415,411,2025-05-28T17:46:24.983988
55993,-0.2240,-0.0542,1.0438,-1.260,3.395,3.150,410,437,334,409,409,2025-05-28T17:46:24.983988
55994,-0.0937,0.1347,0.9745,-5.460,-5.635,0.840,381,428,363,403,416,2025-05-28T17:46:24.983988
55995,-0.1654,0.1981,0.7740,2.205,-2.765,0.525,426,405,362,391,408,2025-05-28T17:46:24.983988
55996,-0.1806,0.2172,1.1600,7.105,-4.165,1.715,398,298,372,391,393,2025-05-28T17:46:24.983988
55997,-0.2015,0.1025,1.1175,-3.955,-6.685,-1.435,422,398,384,399,387,2025-05-28T17:46:24.983988
55998,-0.1601,0.0522,1.0238,-2.555,-10.360,-1.680,424,397,375,391,396,2025-05-28T17:46:24.983988
55999,-0.0532,0.0664,0.9838,-2.415,-3.220,-0.560,401,404,374,371,376,2025-05-28T17:46:24.983988
56000,-0.1410,0.1269,0.9101,5.215,3.535,2.275,352,424,382,344,400,2025-05-28T17:46:25.060045
56001,-0.1542,0.0986,1.0111,-1.225,9.030,2.275,417,418,378,395,410,2025-05-28T17:46:25.060045
56002,-0.2123,0.1537,0.9848,-0.490,0.490,-2.030,407,410,392,392,402,2025-05-28T17:46:25.060045
56003,-0.2460,0.0722,1.2078,1.085,1.680,-2.590,405,397,375,380,397,2025-05-28T17:46:25.060045
56004,-0.0722,-0.0244,1.1019,-4.375,-4.550,-2.275,397,394,373,400,365,2025-05-28T17:46:25.060045
56005,-0.0854,0.1303,0.7803,1.015,-6.860,0.000,409,408,379,413,381,2025-05-28T17:46:25.060045
56006,-0.1688,0.2050,1.0912,9.800,1.750,6.230,389,413,385,417,387,2025-05-28T17:46:25.060045
56007,-0.2460,0.0854,1.1268,-1.540,-0.280,1.260,403,340,359,414,359,2025-05-28T17:46:25.060045
56008,-0.1976,0.2435,0.8423,-3.815,-17.500,-1.400,387,391,356,413,367,2025-05-28T17:46:25.060045
56009,-0.1728,0.0952,1.1253,1.435,-10.080,-1.400,396,391,374,394,386,2025-05-28T17:46:25.155938
56010,-0.1176,0.0137,1.0482,-4.480,-4.585,-0.910,381,396,304,365,340,2025-05-28T17:46:25.155938
56011,-0.1069,0.0917,0.8828,1.855,-4.935,0.910,406,368,343,383,385,2025-05-28T17:46:25.155938
56012,-0.1566,0.0659,1.0873,4.515,-1.015,1.750,340,415,353,393,403,2025-05-28T17:46:25.155938
56013,-0.1776,0.1244,1.0077,-2.380,1.715,1.015,385,417,361,384,412,2025-05-28T17:46:25.155938
56014,-0.1840,0.1640,0.9614,0.805,-0.560,-0.210,411,396,339,380,417,2025-05-28T17:46:25.155938
56015,-0.1503,0.1269,1.0814,0.490,-4.270,-1.365,396,405,356,343,386,2025-05-28T17:46:25.155938
56016,-0.1640,0.0854,1.0160,-2.800,-3.500,-0.490,403,412,376,399,401,2025-05-28T17:46:25.155938
56017,-0.1303,0.0893,1.0277,0.245,-3.605,0.525,413,410,335,408,408,2025-05-28T17:46:25.155938
56018,-0.1283,0.1035,1.0287,1.890,-3.710,0.945,365,388,331,390,419,2025-05-28T17:46:25.155938
56019,-0.1752,0.2450,0.9965,-0.350,-0.980,1.365,387,410,333,398,360,2025-05-28T17:46:25.155938
56020,-0.1659,0.1352,1.0111,-1.190,-0.455,0.175,351,400,362,411,374,2025-05-28T17:46:25.155938
56021,-0.1810,0.1113,0.9994,-0.245,-2.345,-1.540,410,423,371,410,401,2025-05-28T17:46:25.155938
56022,-0.1557,0.0761,1.0433,-1.330,-2.800,-1.295,409,402,375,412,349,2025-05-28T17:46:25.155938
56023,-0.1449,0.0669,1.0438,-0.700,-2.030,8.890,409,399,382,410,347,2025-05-28T17:46:25.155938
56024,-0.1513,0.0693,1.0160,1.120,-1.925,0.910,392,360,338,411,382,2025-05-28T17:46:25.367829
56025,-0.1664,0.1279,1.0033,1.330,-2.310,1.435,411,392,339,396,365,2025-05-28T17:46:25.367829
56026,-0.1806,0.1645,1.0082,0.875,-3.325,1.190,420,421,359,385,390,2025-05-28T17:46:25.367829
56027,-0.1791,0.1147,0.9970,-0.525,-5.110,-0.455,389,405,365,338,399,2025-05-28T17:46:25.367829
56028,-0.1440,0.1396,1.0155,0.665,-7.770,-0.595,409,390,300,339,402,2025-05-28T17:46:25.368773
56029,-0.1684,0.0727,1.0863,0.245,-4.410,0.420,407,406,339,393,402,2025-05-28T17:46:25.368773
56030,-0.1230,0.0434,1.0165,-2.345,-5.005,0.000,412,406,355,347,395,2025-05-28T17:46:25.368773
56031,-0.1352,0.1371,0.9682,3.255,-4.200,1.260,340,375,372,334,406,2025-05-28T17:46:25.368773
56032,-0.1615,0.0781,1.0643,0.455,1.190,0.945,408,393,383,325,395,2025-05-28T17:46:25.368773
56033,-0.1279,0.0708,0.8979,-5.425,-2.135,4.025,336,370,380,393,387,2025-05-28T17:46:25.368773
56034,-0.2484,0.0927,0.9970,10.710,-7.245,4.165,327,404,384,305,392,2025-05-28T17:46:25.368773
56035,-0.1308,0.1386,1.2112,3.710,-11.480,-2.555,397,408,381,372,353,2025-05-28T17:46:25.368773
56036,-0.1527,0.1610,0.9106,-3.290,-7.700,-0.175,387,417,373,397,371,2025-05-28T17:46:25.368773
56037,-0.0996,0.1332,0.9838,-1.225,-5.110,0.980,410,419,371,389,395,2025-05-28T17:46:25.368773
56038,-0.1362,0.1157,1.0468,1.995,-2.555,-0.315,393,402,388,394,396,2025-05-28T17:46:25.369770
56039,-0.1449,0.0913,1.0385,-1.855,-1.855,-0.910,416,350,346,412,351,2025-05-28T17:46:25.369770
56040,-0.1444,0.1147,1.0219,-3.325,-3.710,0.665,389,405,361,407,368,2025-05-28T17:46:25.609478
56041,-0.2162,0.0776,1.0238,0.980,-5.180,2.380,393,429,373,395,385,2025-05-28T17:46:25.609478
56042,-0.2352,0.0532,1.0160,1.925,-9.765,4.515,395,405,335,404,405,2025-05-28T17:46:25.609478
56043,-0.2567,0.0966,1.0277,3.815,-20.090,7.595,385,397,365,405,410,2025-05-28T17:46:25.609478
56044,-0.0483,0.2503,0.8882,-8.540,-27.405,-1.750,359,400,333,412,375,2025-05-28T17:46:25.609478
56045,-0.0473,0.0464,0.7281,-4.620,-20.685,-4.130,394,351,357,411,374,2025-05-28T17:46:25.609478
56046,0.0493,-0.1713,1.0502,2.940,-2.870,4.795,377,399,375,344,388,2025-05-28T17:46:25.609478
56047,-0.1152,-0.0654,1.3308,17.010,4.480,10.325,344,411,381,327,394,2025-05-28T17:46:25.609478
56048,-0.2508,0.1030,1.2288,9.730,-4.235,2.275,330,412,373,380,393,2025-05-28T17:46:25.609478
56049,-0.1523,0.2074,0.9984,5.390,-10.710,1.645,399,400,382,404,392,2025-05-28T17:46:25.609478
56050,-0.1625,0.2015,0.9140,6.230,-4.725,2.030,426,404,386,361,396,2025-05-28T17:46:25.609478
56051,-0.2025,0.1913,1.0209,9.905,-4.305,1.085,399,402,342,394,407,2025-05-28T17:46:25.609478
56052,-0.1713,0.1801,1.0663,5.285,-9.975,0.525,426,403,355,406,397,2025-05-28T17:46:25.609478
56053,-0.1640,0.1630,1.0370,-1.050,-16.170,-0.210,395,393,326,402,389,2025-05-28T17:46:25.609478
56054,-0.1591,0.1147,1.0087,0.000,-13.720,-0.875,414,348,363,407,345,2025-05-28T17:46:25.609478
56055,-0.1279,0.1191,1.0448,3.780,-12.390,-1.645,418,382,382,417,390,2025-05-28T17:46:25.609478
56056,-0.0542,0.1908,1.0565,1.050,-10.850,1.190,370,413,382,421,388,2025-05-28T17:46:25.609478
56057,-0.1074,0.1835,0.9906,-8.015,-7.560,3.045,295,420,396,365,397,2025-05-28T17:46:25.787732
56058,-0.2274,0.1908,0.9384,-2.310,-11.690,5.285,381,418,377,397,401,2025-05-28T17:46:25.787732
56059,-0.2084,0.0937,1.2259,-0.140,-18.340,2.415,333,417,385,412,367,2025-05-28T17:46:25.787732
56060,-0.1815,0.1157,1.1522,-1.890,-25.235,2.835,383,392,381,405,377,2025-05-28T17:46:25.787732
56061,-0.2840,0.0917,1.1561,-3.535,-31.780,8.155,383,391,386,373,400,2025-05-28T17:46:25.787732
56062,-0.2094,0.1235,1.0233,0.805,-36.435,0.070,404,300,391,403,408,2025-05-28T17:46:25.787732
56063,-0.0420,0.1347,1.0707,2.870,-32.760,-2.520,412,411,376,368,408,2025-05-28T17:46:25.787732
56064,-0.0703,0.2669,1.0477,-4.865,-22.785,1.925,418,385,340,403,388,2025-05-28T17:46:25.787732
56065,-0.0561,0.3192,0.8150,2.695,-5.320,6.895,393,415,363,413,400,2025-05-28T17:46:25.787732
56066,-0.0454,0.2601,0.6378,0.910,6.965,11.410,392,380,362,416,389,2025-05-28T17:46:25.787732
56067,-0.1435,0.1850,0.6793,13.230,14.735,11.095,398,394,340,418,357,2025-05-28T17:46:25.787732
56068,-0.1118,0.1376,0.7598,29.365,16.835,13.055,419,406,317,403,375,2025-05-28T17:46:25.787732
56069,-0.0673,0.1586,1.4430,12.005,5.215,14.455,412,428,362,419,398,2025-05-28T17:46:25.787732
56070,-0.0815,0.1147,1.3444,-7.245,1.890,14.280,431,419,383,417,392,2025-05-28T17:46:25.787732
56071,-0.0415,0.0010,1.3078,-20.790,2.835,17.185,408,407,384,404,403,2025-05-28T17:46:25.787732
56072,-0.0732,0.0229,0.9384,-13.440,-2.205,13.510,416,430,383,397,405,2025-05-28T17:46:25.787732
56073,-0.1737,-0.1093,0.7686,-2.870,-7.945,8.995,334,306,371,403,407,2025-05-28T17:46:25.787732
56074,-0.0288,-0.0390,1.1200,2.380,-2.205,14.000,399,373,380,396,396,2025-05-28T17:46:25.787732
56075,-0.2045,0.0420,1.1854,-1.295,-5.005,12.985,395,424,376,408,414,2025-05-28T17:46:25.787732
56076,-0.0752,-0.0327,1.0995,0.735,-3.010,10.920,417,412,385,411,391,2025-05-28T17:46:25.787732
56077,-0.0839,0.0171,1.0590,-5.075,-4.795,8.435,343,412,312,412,409,2025-05-28T17:46:26.064574
56078,-0.1850,-0.1069,0.9165,-0.070,-7.455,0.630,401,407,346,422,410,2025-05-28T17:46:26.064574
56079,-0.0176,0.0098,1.0258,3.115,0.000,3.780,426,414,328,412,355,2025-05-28T17:46:26.064574
56080,-0.0688,0.1396,0.9960,0.105,5.530,2.450,407,424,324,403,371,2025-05-28T17:46:26.064574
56081,-0.0527,0.0727,0.9482,-1.120,-2.240,-2.310,420,382,354,399,381,2025-05-28T17:46:26.064574
56082,-0.0259,0.0878,1.1004,-1.085,0.665,-0.245,417,414,376,356,393,2025-05-28T17:46:26.064574
56083,-0.1074,0.1254,1.0448,-4.165,1.085,-0.665,391,401,366,398,368,2025-05-28T17:46:26.064574
56084,-0.1098,0.1118,1.0409,-5.530,-4.305,-2.905,388,356,371,389,397,2025-05-28T17:46:26.064574
56085,-0.0815,0.1322,0.9980,-3.080,-8.680,-3.465,393,385,371,401,351,2025-05-28T17:46:26.064574
56086,-0.0761,0.1440,0.9853,-4.445,-4.550,-1.365,392,372,375,408,339,2025-05-28T17:46:26.064574
56087,-0.0883,0.1230,1.0082,-5.985,-1.995,0.630,395,382,343,403,370,2025-05-28T17:46:26.064574
56088,-0.1098,0.1088,1.0433,-3.325,-4.270,1.050,390,413,349,417,397,2025-05-28T17:46:26.064574
56089,-0.1405,0.1186,1.0468,-3.815,-6.965,0.665,390,384,370,424,402,2025-05-28T17:46:26.064574
56090,-0.1523,0.0839,1.0321,-4.060,-8.190,1.610,394,396,371,417,386,2025-05-28T17:46:26.064574
56091,-0.1039,0.1108,1.0321,-2.625,-7.455,-0.140,410,416,380,425,395,2025-05-28T17:46:26.064574
56092,-0.0874,0.0903,1.0097,-2.730,-8.015,-0.455,407,422,391,411,389,2025-05-28T17:46:26.064574
56093,-0.0795,0.0781,1.0175,-3.045,-6.335,-0.105,383,425,378,402,348,2025-05-28T17:46:26.174949
56094,-0.0644,0.1010,1.0307,-1.260,-4.900,-0.455,418,368,370,400,390,2025-05-28T17:46:26.175126
56095,-0.1254,0.1103,0.9931,-0.735,-2.170,-0.210,376,387,386,419,385,2025-05-28T17:46:26.175224
56096,-0.1200,0.0981,1.0512,-1.715,-2.695,-0.735,398,420,379,393,341,2025-05-28T17:46:26.175268
56097,-0.1181,0.1039,1.0741,-2.310,-3.430,0.070,421,420,376,363,385,2025-05-28T17:46:26.175268
56098,-0.1200,0.0996,1.0199,-3.080,-4.270,0.525,422,366,384,336,339,2025-05-28T17:46:26.175268
56099,-0.1137,0.0791,1.0150,-1.855,-6.965,-0.210,398,396,390,382,380,2025-05-28T17:46:26.175268
56100,-0.0981,0.0800,1.0321,0.420,-7.210,-0.420,375,336,389,396,397,2025-05-28T17:46:26.175268
56101,-0.1049,0.0971,1.0272,1.085,-8.610,-0.280,405,377,375,385,380,2025-05-28T17:46:26.175268
56102,-0.0766,0.1132,1.0551,-0.770,-4.655,0.420,395,388,389,401,393,2025-05-28T17:46:26.175480
56103,-0.0996,0.1074,1.0248,-0.070,-4.025,0.805,396,428,350,349,398,2025-05-28T17:46:26.175480
56104,-0.0903,0.1181,1.0365,-0.280,-2.240,0.595,423,401,327,387,347,2025-05-28T17:46:26.175480
56105,-0.0849,0.1054,1.0238,-0.315,-1.680,1.330,338,416,349,383,363,2025-05-28T17:46:26.175480
56106,-0.0874,0.1298,1.0341,-0.210,-2.030,0.350,391,403,368,390,340,2025-05-28T17:46:26.175480
56107,-0.0996,0.1000,1.0233,-1.855,-0.700,1.050,394,406,369,389,382,2025-05-28T17:46:26.175480
56108,-0.0932,0.1127,1.0126,-0.700,-1.995,0.805,390,417,370,349,392,2025-05-28T17:46:26.175480
56109,-0.0996,0.1010,1.0160,-0.630,-2.135,1.015,347,401,372,337,389,2025-05-28T17:46:26.424120
56110,-0.1015,0.0903,1.0106,-0.770,-2.520,1.260,400,425,382,374,403,2025-05-28T17:46:26.424120
56111,-0.0981,0.0825,1.0292,0.700,-3.675,0.210,403,423,371,383,400,2025-05-28T17:46:26.424120
56112,-0.0849,0.0693,1.0224,0.910,-3.430,-0.350,380,361,382,394,406,2025-05-28T17:46:26.424120
56113,-0.0698,0.0683,1.0131,1.715,-2.380,-1.085,388,413,372,409,398,2025-05-28T17:46:26.424120
56114,-0.0517,0.0698,1.0058,2.380,1.155,-0.735,358,371,382,420,405,2025-05-28T17:46:26.425280
56115,-0.0522,0.1049,0.9965,3.885,4.480,-0.035,376,393,381,413,409,2025-05-28T17:46:26.425280
56116,-0.0527,0.1005,1.0072,1.260,7.840,0.280,408,418,377,412,411,2025-05-28T17:46:26.425280
56117,-0.0703,0.1000,0.9706,-0.420,9.660,1.085,379,399,383,387,387,2025-05-28T17:46:26.425280
56118,-0.0927,0.0737,0.9697,0.735,9.835,1.540,421,415,374,404,353,2025-05-28T17:46:26.425280
56119,-0.0893,0.0683,1.0121,3.185,10.395,1.085,403,412,338,413,397,2025-05-28T17:46:26.425280
56120,-0.1015,0.0698,1.0346,3.465,11.760,1.155,412,417,367,419,397,2025-05-28T17:46:26.425280
56121,-0.1035,0.0859,1.0248,2.940,10.885,1.365,428,411,371,411,388,2025-05-28T17:46:26.425280
56122,-0.1093,0.1347,1.0350,5.810,11.830,2.030,399,386,337,384,395,2025-05-28T17:46:26.425280
56123,-0.1303,0.1479,1.0097,3.115,14.175,1.960,406,406,356,405,405,2025-05-28T17:46:26.425280
56124,-0.1527,0.1698,1.0268,1.855,10.745,1.015,401,402,335,390,395,2025-05-28T17:46:26.426276
56125,-0.2186,0.1352,1.1039,0.875,1.715,-3.675,417,426,320,399,388,2025-05-28T17:46:26.426276
56126,-0.1376,0.1347,1.0424,1.610,-2.100,-4.550,426,369,350,412,387,2025-05-28T17:46:26.426276
56127,-0.1279,0.1332,1.0585,-1.505,1.715,-2.380,418,416,371,406,401,2025-05-28T17:46:26.426700
56128,-0.1157,0.1200,1.0336,-1.365,7.070,-1.470,420,395,378,418,396,2025-05-28T17:46:26.426700
56129,-0.1596,0.1669,1.0180,-1.505,3.255,-2.135,421,409,384,355,383,2025-05-28T17:46:26.426700
56130,-0.1498,0.1698,1.0189,-1.855,1.750,-3.080,402,398,383,386,383,2025-05-28T17:46:26.590844
56131,-0.1713,0.1684,1.0204,-3.885,2.240,-1.645,424,429,386,391,400,2025-05-28T17:46:26.590844
56132,-0.1698,0.1649,1.0165,-2.835,1.120,-1.470,305,409,386,412,374,2025-05-28T17:46:26.601002
56133,-0.1791,0.1240,1.0092,-2.625,-2.485,-1.260,373,399,384,372,399,2025-05-28T17:46:26.601307
56134,-0.1518,0.0937,1.0414,-2.905,-5.145,-1.120,407,396,348,404,405,2025-05-28T17:46:26.601307
56135,-0.1318,0.0888,1.0560,-0.665,-4.725,-0.875,421,426,336,406,398,2025-05-28T17:46:26.601307
56136,-0.1088,0.0703,1.0497,0.070,-2.345,-0.245,356,425,347,412,414,2025-05-28T17:46:26.601307
56137,-0.1693,0.1518,1.0985,-2.695,1.715,-0.560,345,415,363,395,403,2025-05-28T17:46:26.601307
56138,-0.1288,0.0791,0.9877,-1.050,-0.840,-2.870,391,425,364,391,400,2025-05-28T17:46:26.601307
56139,-0.1171,0.1469,1.0648,1.470,2.135,-3.395,418,367,375,399,405,2025-05-28T17:46:26.601307
56140,-0.1054,0.1425,1.0555,-1.085,4.690,-4.655,405,391,371,409,397,2025-05-28T17:46:26.601307
56141,-0.0913,0.1771,1.0541,-6.125,10.290,-5.110,413,416,386,414,411,2025-05-28T17:46:26.602010
56142,-0.1274,0.1181,1.0287,-8.575,14.840,-3.325,403,411,376,404,413,2025-05-28T17:46:26.602010
56143,-0.0937,0.1479,1.0751,-5.985,14.000,-5.180,425,405,341,404,404,2025-05-28T17:46:26.602010
56144,-0.1537,0.1708,1.0712,-7.315,18.375,-3.885,413,399,367,396,353,2025-05-28T17:46:26.987378
56145,-0.1147,0.1815,1.1078,-10.535,18.585,-2.345,421,402,378,356,367,2025-05-28T17:46:26.987378
56146,-0.1659,0.1645,1.0331,-9.170,18.725,-0.805,409,399,388,406,387,2025-05-28T17:46:26.987378
56147,-0.1444,0.1366,1.0531,-5.985,20.125,1.785,408,415,380,395,398,2025-05-28T17:46:26.987378
56148,-0.1786,0.2118,1.0214,-5.810,18.725,-0.875,434,427,386,350,359,2025-05-28T17:46:26.987378
56149,-0.0874,0.2274,0.8540,-1.995,27.300,14.035,417,422,338,343,388,2025-05-28T17:46:26.987378
56150,-0.1581,0.2523,0.9379,-7.035,37.835,16.975,419,406,288,375,379,2025-05-28T17:46:27.205575
56151,-0.1747,0.1918,1.0346,-10.045,42.000,18.830,426,402,339,383,382,2025-05-28T17:46:27.205575
56152,-0.2401,0.1308,0.9794,-11.060,34.965,12.390,358,373,355,397,340,2025-05-28T17:46:27.205575
56153,-0.1928,0.1044,1.0721,-23.310,39.025,18.235,413,400,343,384,289,2025-05-28T17:46:27.205575
56154,-0.1976,0.0922,1.0311,-21.420,32.025,17.185,414,355,352,401,364,2025-05-28T17:46:27.205575
56155,-0.1757,0.0420,1.0248,-18.375,23.275,17.710,376,352,372,399,394,2025-05-28T17:46:27.205575
56156,-0.2489,-0.0054,1.0111,-16.975,14.665,19.250,415,386,382,307,400,2025-05-28T17:46:27.205575
56157,-0.1064,-0.0098,1.0453,-13.405,1.785,20.020,346,394,345,376,411,2025-05-28T17:46:27.205575
56158,-0.1606,-0.0332,1.0053,-11.480,-9.520,22.330,414,425,324,408,401,2025-05-28T17:46:27.205575
56159,-0.0483,-0.0859,1.0077,-8.400,-12.145,27.580,411,423,317,408,404,2025-05-28T17:46:27.205575
56160,-0.1415,-0.0937,0.9301,-2.765,-20.020,29.400,395,395,358,373,405,2025-05-28T17:46:27.205575
56161,-0.1942,-0.0722,0.9945,7.245,-17.290,34.335,415,412,369,383,383,2025-05-28T17:46:27.205575
56162,-0.2674,-0.1015,1.0228,14.000,-28.280,29.540,413,340,379,401,396,2025-05-28T17:46:27.205575
56163,-0.2865,-0.1181,1.0160,20.300,-41.265,21.385,408,413,377,397,384,2025-05-28T17:46:27.205575
56164,-0.2889,-0.1835,0.9453,30.170,-61.145,10.675,360,415,381,348,400,2025-05-28T17:46:27.205575
56165,-0.2650,-0.1552,0.9008,42.910,-78.575,-0.665,294,419,380,378,401,2025-05-28T17:46:27.205575
56166,-0.2884,-0.1039,1.0165,50.715,-77.910,-13.125,403,425,389,392,366,2025-05-28T17:46:27.205575
56167,-0.2381,-0.0815,1.2849,38.745,-68.110,-19.530,392,401,383,405,389,2025-05-28T17:46:27.205575
56168,-0.1810,-0.1044,1.2708,26.705,-66.570,-18.340,407,425,345,412,389,2025-05-28T17:46:27.205575
56169,-0.0503,-0.0185,1.1258,22.085,-75.495,-17.290,417,426,361,398,365,2025-05-28T17:46:27.205575
56170,0.0547,-0.0493,1.0043,24.115,-80.080,-12.355,342,429,374,415,388,2025-05-28T17:46:27.205575
56171,0.0849,0.0688,1.0429,28.245,-73.360,-7.560,372,396,370,425,384,2025-05-28T17:46:27.205575
56172,-0.0429,0.0332,1.0917,28.525,-63.945,-0.420,363,397,382,424,363,2025-05-28T17:46:27.205575
56173,-0.1122,0.1171,1.0219,22.295,-79.100,2.170,394,430,310,415,382,2025-05-28T17:46:27.205575
56174,-0.1235,0.1469,0.9955,22.050,-85.505,6.230,340,405,353,398,388,2025-05-28T17:46:27.205575
56175,-0.1542,0.1693,0.9628,25.305,-83.685,6.055,394,360,372,414,382,2025-05-28T17:46:27.205575
56176,-0.1786,0.2133,0.9609,19.145,-66.465,11.760,420,380,381,423,397,2025-05-28T17:46:27.205575
56177,-0.2103,0.2684,0.9604,16.170,-57.295,12.250,411,416,351,408,395,2025-05-28T17:46:27.205575
56178,-0.2118,0.2943,0.9711,15.400,-51.870,10.290,400,401,366,400,393,2025-05-28T17:46:27.205575
56179,-0.1932,0.3640,0.9736,12.285,-42.980,8.015,393,417,375,348,360,2025-05-28T17:46:27.205575
56180,-0.1479,0.4294,0.9833,7.770,-31.010,5.320,362,414,384,332,384,2025-05-28T17:46:27.205575
56181,-0.0273,0.4948,0.9887,3.605,-21.840,-1.470,412,417,372,372,411,2025-05-28T17:46:27.238388
56182,0.1147,0.4660,0.9394,-4.095,-7.175,-2.940,385,414,392,348,414,2025-05-28T17:46:27.238388
56183,0.2167,0.4216,0.8286,-7.455,11.305,0.420,410,374,389,371,406,2025-05-28T17:46:27.238388
56184,0.1854,0.4592,0.8989,-7.000,20.895,12.075,429,399,394,406,416,2025-05-28T17:46:27.238388
56185,0.0415,0.4158,1.0482,-2.870,20.370,17.045,379,395,388,363,405,2025-05-28T17:46:27.238388
56186,-0.2367,0.2142,1.2449,-10.360,6.720,4.480,419,404,385,399,350,2025-05-28T17:46:27.238388
56187,-0.0478,0.2250,1.0843,-9.100,-20.860,-17.430,396,396,385,393,382,2025-05-28T17:46:27.238388
56188,0.2640,0.2738,1.0077,-15.085,-8.330,-13.650,422,406,393,382,343,2025-05-28T17:46:27.238388
56189,0.4524,-0.0063,0.9916,-24.990,14.385,3.500,413,423,387,397,384,2025-05-28T17:46:27.238388
56190,0.1703,-0.0234,0.7466,-18.235,37.310,-2.170,424,419,393,400,397,2025-05-28T17:46:27.238388
56191,0.1479,0.1576,1.1541,3.570,47.145,-13.825,406,428,357,396,390,2025-05-28T17:46:27.238388
56192,-0.1200,0.1118,1.1507,-11.935,48.475,-14.035,415,427,363,387,401,2025-05-28T17:46:27.238388
56193,0.0473,0.1781,0.9335,-15.505,56.210,-14.105,416,380,371,382,407,2025-05-28T17:46:27.238388
56194,0.0493,0.1864,0.9745,-7.280,59.605,-12.110,404,420,367,397,419,2025-05-28T17:46:27.238388
56195,-0.1064,0.2045,0.9628,-8.015,64.610,-15.855,413,423,367,411,392,2025-05-28T17:46:27.238388
56196,-0.0473,0.2079,0.9999,-17.990,64.295,-19.425,347,426,377,399,379,2025-05-28T17:46:27.238388
56197,-0.0268,0.2264,0.9843,-22.155,57.575,-19.775,386,407,365,404,351,2025-05-28T17:46:27.238388
56198,-0.0586,0.1503,1.0468,-18.900,65.765,-17.080,409,407,380,410,388,2025-05-28T17:46:27.428411
56199,-0.0644,0.0581,1.0912,-19.180,72.800,-13.860,364,401,371,400,348,2025-05-28T17:46:27.428411
56200,-0.0825,0.0517,1.0316,-16.765,66.500,-12.005,389,396,343,392,382,2025-05-28T17:46:27.428411
56201,-0.1957,0.0434,1.0258,-11.235,64.575,-10.220,417,395,370,394,387,2025-05-28T17:46:27.429527
56202,-0.4904,0.0185,1.2346,-12.880,58.975,-13.440,397,419,386,417,393,2025-05-28T17:46:27.429527
56203,-0.4348,0.0913,1.0712,-13.755,35.105,-18.935,390,421,387,404,368,2025-05-28T17:46:27.429527
56204,-0.3187,0.1264,0.9355,-6.615,12.775,-17.430,404,436,393,412,347,2025-05-28T17:46:27.429527
56205,-0.2694,0.1352,0.9594,-3.780,4.690,-5.705,396,424,393,392,332,2025-05-28T17:46:27.429527
56206,-0.2938,0.1054,0.9687,0.175,1.155,3.290,392,427,387,340,323,2025-05-28T17:46:27.429527
56207,-0.3099,0.1742,0.9365,3.115,-22.295,8.435,345,415,341,372,372,2025-05-28T17:46:27.430537
56208,-0.4119,0.1240,1.1478,12.495,-35.070,11.760,394,424,358,407,395,2025-05-28T17:46:27.430537
56209,-0.1928,0.0029,1.2205,8.085,-40.145,11.235,397,426,346,414,409,2025-05-28T17:46:27.430537
56210,-0.1235,0.0849,0.7569,4.060,-40.565,13.650,400,370,362,406,390,2025-05-28T17:46:27.430537
56211,-0.2025,0.1225,0.9321,14.630,-43.295,12.215,414,373,364,350,401,2025-05-28T17:46:27.430537
56212,-0.1030,0.0961,1.1692,15.680,-42.245,6.825,403,395,366,376,354,2025-05-28T17:46:27.430537
56213,-0.0830,0.1864,0.9794,5.005,-38.500,7.000,399,395,370,395,369,2025-05-28T17:46:27.676946
56214,-0.0717,0.1688,0.9731,4.480,-30.555,7.210,413,391,380,419,394,2025-05-28T17:46:27.676946
56215,-0.0156,0.1244,1.0375,7.630,-28.210,4.830,420,424,340,397,396,2025-05-28T17:46:27.676946
56216,-0.0195,0.1410,1.0199,4.830,-23.940,4.095,382,405,364,399,379,2025-05-28T17:46:27.676946
56217,-0.0063,0.1479,1.0292,1.015,-15.365,4.235,402,377,362,348,386,2025-05-28T17:46:27.677305
56218,-0.0156,0.1391,1.0067,1.330,-9.520,2.345,412,348,332,375,400,2025-05-28T17:46:27.677305
56219,-0.0356,0.1581,0.9628,1.155,-1.960,0.455,410,423,362,352,407,2025-05-28T17:46:27.677305
56220,-0.0322,0.1801,1.0199,-1.855,3.955,-0.910,421,420,341,326,352,2025-05-28T17:46:27.677305
56221,-0.0415,0.1386,1.0355,-4.620,8.190,-3.045,395,393,365,361,382,2025-05-28T17:46:27.677305
56222,-0.0493,0.1113,1.0053,-4.970,11.865,-4.620,406,416,346,381,401,2025-05-28T17:46:27.677305
56223,-0.0444,0.1132,1.0331,-4.305,16.450,-4.480,386,424,329,382,403,2025-05-28T17:46:27.677305
56224,-0.0615,0.1142,1.0263,-5.250,21.315,-3.885,409,424,325,391,398,2025-05-28T17:46:27.677305
56225,-0.1044,0.1366,1.0048,-5.705,23.835,-3.675,417,404,359,384,397,2025-05-28T17:46:27.677305
56226,-0.1366,0.1313,1.0033,-4.900,22.820,-4.970,410,404,368,413,407,2025-05-28T17:46:27.677305
56227,-0.1474,0.1386,1.0146,-4.585,20.300,-5.775,387,419,361,416,364,2025-05-28T17:46:27.677305
56228,-0.1537,0.1293,1.0463,-4.725,18.760,-5.110,390,350,379,407,385,2025-05-28T17:46:27.677305
56229,-0.1606,0.1059,1.0360,-4.795,16.520,-4.235,405,329,384,395,385,2025-05-28T17:46:27.944824
56230,-0.1679,0.1015,1.0136,-2.975,14.070,-2.975,398,411,373,406,391,2025-05-28T17:46:27.944824
56231,-0.2669,0.0996,1.0697,-2.660,7.490,-3.640,393,402,388,379,399,2025-05-28T17:46:27.944824
56232,-0.2147,0.1366,1.0141,-2.030,-0.980,-3.255,392,351,376,345,400,2025-05-28T17:46:27.944824
56233,-0.1815,0.1274,0.9740,-0.210,-4.025,0.770,407,400,383,378,400,2025-05-28T17:46:27.944824
56234,-0.2084,0.1108,1.0170,0.840,-6.930,2.940,419,420,350,345,348,2025-05-28T17:46:27.944824
56235,-0.1845,0.1093,1.0385,3.920,-11.865,3.675,423,421,326,345,373,2025-05-28T17:46:27.944824
56236,-0.1640,0.0922,1.0502,3.535,-15.785,3.955,348,396,360,338,345,2025-05-28T17:46:27.944824
56237,-0.1630,0.1200,1.0399,2.275,-16.940,3.500,383,418,346,394,331,2025-05-28T17:46:27.944824
56238,-0.1357,0.1488,1.0004,3.920,-16.730,2.975,411,420,361,415,368,2025-05-28T17:46:27.944824
56239,-0.1186,0.1479,0.9955,3.290,-16.450,3.010,398,360,366,424,359,2025-05-28T17:46:27.944824
56240,-0.1166,0.1415,1.0160,1.645,-14.945,2.765,409,411,364,378,329,2025-05-28T17:46:27.944824
56241,-0.1069,0.1196,1.0326,2.100,-13.265,1.645,409,399,379,386,375,2025-05-28T17:46:27.944824
56242,-0.0888,0.1098,1.0248,2.065,-11.900,1.120,409,410,393,407,382,2025-05-28T17:46:27.944824
56243,-0.0747,0.1230,1.0194,0.770,-8.505,1.400,416,349,384,405,399,2025-05-28T17:46:27.944824
56244,-0.0825,0.1362,1.0106,1.050,-4.375,1.505,339,377,370,417,402,2025-05-28T17:46:27.944824
56245,-0.0971,0.1444,1.0116,0.665,-1.890,0.735,419,393,370,419,397,2025-05-28T17:46:27.944824
56246,-0.1000,0.1479,1.0214,-0.490,-0.805,-0.595,409,401,378,423,345,2025-05-28T17:46:27.944824
56247,-0.0986,0.1357,1.0189,-1.645,0.245,-1.365,405,398,386,396,386,2025-05-28T17:46:28.038311
56248,-0.0952,0.1264,1.0165,-1.470,2.450,-1.540,347,416,373,347,393,2025-05-28T17:46:28.038311
56249,-0.1020,0.1200,1.0248,-1.505,4.725,-1.085,401,420,367,370,350,2025-05-28T17:46:28.038311
56250,-0.1137,0.1191,1.0214,-1.960,5.775,-1.155,367,419,377,391,393,2025-05-28T17:46:28.038311
56251,-0.1313,0.1327,1.0165,-1.820,6.090,-1.435,390,402,387,388,400,2025-05-28T17:46:28.038311
56252,-0.1376,0.1288,1.0238,-1.715,6.195,-1.750,381,417,385,344,399,2025-05-28T17:46:28.038311
56253,-0.1444,0.1230,1.0199,-2.240,5.355,-1.855,408,395,382,378,414,2025-05-28T17:46:28.038311
56254,-0.1435,0.1210,1.0175,-1.610,4.130,-1.750,398,347,381,385,389,2025-05-28T17:46:28.038311
56255,-0.1493,0.1205,1.0243,-1.050,3.150,-0.945,404,388,378,409,408,2025-05-28T17:46:28.038311
56256,-0.1601,0.1200,1.0272,-0.875,1.925,-0.350,411,399,389,389,412,2025-05-28T17:46:28.038311
56257,-0.1596,0.1259,1.0189,-0.665,-0.595,-0.175,358,433,393,385,415,2025-05-28T17:46:28.038311
56258,-0.1610,0.1283,1.0155,0.175,-3.045,0.000,408,403,348,393,411,2025-05-28T17:46:28.038311
56259,-0.1625,0.1279,1.0199,0.385,-4.515,0.525,392,426,361,404,353,2025-05-28T17:46:28.038311
56260,-0.1537,0.1181,1.0248,0.455,-5.845,0.700,405,413,377,406,376,2025-05-28T17:46:28.039284
56261,-0.1464,0.1176,1.0189,0.770,-7.420,0.840,350,399,378,418,354,2025-05-28T17:46:28.039284
56262,-0.1401,0.1210,1.0243,1.155,-7.700,1.190,346,434,371,402,388,2025-05-28T17:46:28.039284
56263,-0.1396,0.1186,1.0268,1.190,-7.665,1.400,366,426,347,350,386,2025-05-28T17:46:28.039284
56264,-0.1332,0.1196,1.0170,1.050,-8.120,1.155,374,352,370,351,382,2025-05-28T17:46:28.039284
56265,-0.1269,0.1298,1.0136,1.295,-7.980,1.155,389,396,388,388,399,2025-05-28T17:46:28.230100
56266,-0.1254,0.1362,1.0194,1.120,-6.580,1.260,389,406,392,394,400,2025-05-28T17:46:28.230100
56267,-0.1225,0.1279,1.0228,0.490,-5.985,0.875,424,350,313,401,387,2025-05-28T17:46:28.230100
56268,-0.1152,0.1244,1.0199,0.385,-6.055,0.420,410,362,358,397,401,2025-05-28T17:46:28.230933
56269,-0.1137,0.1254,1.0224,0.525,-4.865,0.420,417,409,363,383,391,2025-05-28T17:46:28.231090
56270,-0.1103,0.1259,1.0243,0.175,-3.465,0.420,408,380,334,390,353,2025-05-28T17:46:28.231216
56271,-0.1152,0.1249,1.0185,0.140,-2.660,0.210,416,387,367,392,385,2025-05-28T17:46:28.231264
56272,-0.1196,0.1288,1.0199,0.070,-1.855,0.035,398,398,366,398,386,2025-05-28T17:46:28.231264
56273,-0.1196,0.1308,1.0155,-0.490,-0.700,-0.245,401,415,377,406,411,2025-05-28T17:46:28.231264
56274,-0.1215,0.1313,1.0126,-0.700,0.105,-0.455,411,396,353,418,401,2025-05-28T17:46:28.231264
56275,-0.1293,0.1274,1.0228,-0.770,0.245,-0.595,403,399,362,421,407,2025-05-28T17:46:28.231264
56276,-0.1298,0.1186,1.0282,-0.945,0.280,-0.700,394,419,366,419,390,2025-05-28T17:46:28.232296
56277,-0.1318,0.1186,1.0194,-0.840,0.245,-0.630,408,402,369,390,399,2025-05-28T17:46:28.232296
56278,-0.1337,0.1235,1.0160,-0.280,0.245,-0.280,412,346,332,385,392,2025-05-28T17:46:28.232296
56279,-0.1391,0.1303,1.0160,-0.420,0.070,-0.035,301,402,323,378,357,2025-05-28T17:46:28.232296
56280,-0.1488,0.1322,1.0214,-0.315,-0.665,-0.140,398,397,358,411,398,2025-05-28T17:46:28.232296
56281,-0.1488,0.1240,1.0272,-0.560,-2.100,-0.385,406,424,363,348,391,2025-05-28T17:46:28.427712
56282,-0.1415,0.1181,1.0214,-0.175,-3.115,-0.210,407,401,357,370,389,2025-05-28T17:46:28.427712
56283,-0.1362,0.1137,1.0228,0.070,-3.500,0.385,419,390,348,342,394,2025-05-28T17:46:28.427712
56284,-0.1357,0.1196,1.0180,0.385,-3.710,0.735,434,423,355,371,410,2025-05-28T17:46:28.427712
56285,-0.1410,0.1313,1.0170,0.735,-4.130,0.805,434,400,378,351,394,2025-05-28T17:46:28.427712
56286,-0.1420,0.1318,1.0194,0.385,-4.655,0.630,418,397,371,367,390,2025-05-28T17:46:28.427712
56287,-0.1391,0.1322,1.0189,0.280,-5.075,0.385,408,430,381,402,365,2025-05-28T17:46:28.427712
56288,-0.1313,0.1225,1.0248,0.245,-5.320,0.350,422,443,384,406,400,2025-05-28T17:46:28.427712
56289,-0.1264,0.1200,1.0228,0.210,-4.970,0.560,431,419,371,415,391,2025-05-28T17:46:28.427712
56290,-0.1254,0.1200,1.0224,0.455,-4.340,0.595,407,425,371,350,380,2025-05-28T17:46:28.427712
56291,-0.1259,0.1259,1.0204,0.420,-3.885,0.665,417,393,367,377,396,2025-05-28T17:46:28.433607
56292,-0.1269,0.1322,1.0146,0.315,-3.675,0.455,355,406,300,299,395,2025-05-28T17:46:28.433607
56293,-0.1279,0.1303,1.0204,0.105,-3.325,0.140,389,393,337,381,408,2025-05-28T17:46:28.433607
56294,-0.1259,0.1274,1.0209,-0.245,-3.010,-0.035,386,433,371,399,395,2025-05-28T17:46:28.433607
56295,-0.1235,0.1244,1.0214,-0.280,-2.555,-0.070,385,405,374,401,393,2025-05-28T17:46:28.433607
56296,-0.1264,0.1244,1.0214,-0.175,-2.030,0.000,420,428,306,359,388,2025-05-28T17:46:28.433607
56297,-0.1283,0.1220,1.0233,-0.140,-1.715,0.035,406,440,319,379,397,2025-05-28T17:46:28.434607
56298,-0.1303,0.1293,1.0204,-0.140,-1.855,0.035,400,428,360,411,386,2025-05-28T17:46:28.670216
56299,-0.1342,0.1337,1.0185,-0.105,-1.820,-0.105,348,360,331,410,396,2025-05-28T17:46:28.670216
56300,-0.1342,0.1249,1.0204,-0.315,-1.925,-0.070,386,411,354,418,387,2025-05-28T17:46:28.805614
56301,-0.1337,0.1244,1.0194,-0.280,-2.345,-0.070,410,428,368,417,399,2025-05-28T17:46:28.805614
56302,-0.1337,0.1235,1.0219,-0.175,-2.450,0.105,418,385,380,416,363,2025-05-28T17:46:28.805614
56303,-0.1327,0.1225,1.0228,-0.105,-2.520,0.210,409,416,376,353,374,2025-05-28T17:46:28.805614
56304,-0.1352,0.1249,1.0214,0.035,-2.730,0.245,420,437,380,396,387,2025-05-28T17:46:28.805614
56305,-0.1347,0.1249,1.0189,0.140,-3.045,0.210,391,434,340,415,406,2025-05-28T17:46:28.805614
56306,-0.1322,0.1269,1.0189,0.175,-3.150,0.175,418,426,365,350,402,2025-05-28T17:46:28.805614
56307,-0.1327,0.1288,1.0170,0.070,-3.220,0.315,433,426,380,385,411,2025-05-28T17:46:28.805614
56308,-0.1352,0.1254,1.0224,0.175,-3.325,0.210,412,412,353,384,398,2025-05-28T17:46:28.805614
56309,-0.1322,0.1240,1.0228,-0.175,-3.395,0.140,378,410,364,409,398,2025-05-28T17:46:28.805614
56310,-0.1298,0.1254,1.0204,0.280,-3.395,0.280,393,402,338,413,393,2025-05-28T17:46:28.805614
56311,-0.1293,0.1205,1.0258,0.315,-3.115,0.280,383,401,364,312,352,2025-05-28T17:46:28.805614
56312,-0.1332,0.1240,1.0204,0.000,-3.255,0.350,408,365,365,380,404,2025-05-28T17:46:28.805614
56313,-0.1308,0.1279,1.0189,0.245,-3.255,0.350,414,421,377,403,407,2025-05-28T17:46:28.805614
56314,-0.1298,0.1279,1.0204,0.070,-3.080,0.280,341,390,352,391,407,2025-05-28T17:46:28.805614
56315,-0.1322,0.1293,1.0180,-0.070,-2.905,0.210,386,418,383,400,350,2025-05-28T17:46:28.805614
56316,-0.1298,0.1259,1.0219,0.000,-3.080,0.105,412,431,370,391,388,2025-05-28T17:46:28.805614
56317,-0.1303,0.1264,1.0214,0.000,-3.045,0.105,399,406,370,413,399,2025-05-28T17:46:28.805614
56318,-0.1283,0.1225,1.0228,-0.175,-2.695,0.175,415,397,377,395,396,2025-05-28T17:46:28.858553
56319,-0.1327,0.1240,1.0185,0.035,-2.660,0.105,432,421,378,414,415,2025-05-28T17:46:28.858553
56320,-0.1342,0.1244,1.0214,0.140,-2.625,0.105,406,422,391,349,408,2025-05-28T17:46:28.858553
56321,-0.1337,0.1249,1.0209,-0.245,-2.660,0.070,372,411,369,378,377,2025-05-28T17:46:28.858553
56322,-0.1318,0.1264,1.0155,0.000,-2.695,0.000,412,302,382,402,396,2025-05-28T17:46:28.858553
56323,-0.1322,0.1264,1.0209,-8.855,-2.415,0.140,410,408,382,397,400,2025-05-28T17:46:28.858553
56324,-0.1332,0.1254,1.0219,-0.105,-2.520,0.070,366,402,382,402,375,2025-05-28T17:46:28.858553
56325,-0.1318,0.1249,1.0214,-0.070,-2.800,0.070,405,418,350,395,401,2025-05-28T17:46:28.858553
56326,-0.1313,0.1254,1.0209,0.070,-3.010,0.070,417,411,376,418,406,2025-05-28T17:46:28.858553
56327,-0.1318,0.1240,1.0199,-0.035,-2.975,0.210,412,433,381,413,412,2025-05-28T17:46:28.858553
56328,-0.1313,0.1259,1.0175,0.105,-3.080,0.280,412,417,386,416,418,2025-05-28T17:46:28.858553
56329,-0.1318,0.1293,1.0214,0.175,-3.325,0.280,402,418,391,413,388,2025-05-28T17:46:28.858553
56330,-0.1357,0.1254,1.0238,0.035,-3.465,0.105,376,378,356,394,392,2025-05-28T17:46:28.858553
56331,-0.1298,0.1225,1.0224,-0.070,-3.605,0.210,423,406,362,351,390,2025-05-28T17:46:28.858553
56332,-0.1269,0.1259,1.0209,0.280,-3.290,0.210,400,423,358,381,399,2025-05-28T17:46:28.858553
56333,-0.1288,0.1274,1.0219,0.105,-2.975,0.350,416,302,376,395,351,2025-05-28T17:46:28.858553
56334,-0.1313,0.1235,1.0204,-0.035,-2.765,0.280,415,320,386,386,376,2025-05-28T17:46:29.136658
56335,-0.1347,0.1254,1.0180,0.000,-2.800,0.105,379,402,377,407,378,2025-05-28T17:46:29.136658
56336,-0.1303,0.1274,1.0219,-0.070,-2.520,0.000,389,371,369,414,405,2025-05-28T17:46:29.136658
56337,-0.1308,0.1249,1.0199,-0.280,-2.345,0.035,398,380,372,402,390,2025-05-28T17:46:29.136658
56338,-0.1322,0.1220,1.0224,0.105,-2.380,0.140,415,419,368,412,410,2025-05-28T17:46:29.137716
56339,-0.1332,0.1240,1.0238,-0.175,-2.450,0.105,405,432,385,414,401,2025-05-28T17:46:29.137716
56340,-0.1347,0.1264,1.0189,-0.070,-2.695,0.175,411,399,383,395,396,2025-05-28T17:46:29.137716
56341,-0.1347,0.1308,1.0204,0.175,-2.835,0.175,399,409,374,401,384,2025-05-28T17:46:29.137716
56342,-0.1342,0.1240,1.0253,0.070,-3.150,0.210,362,387,377,408,409,2025-05-28T17:46:29.137716
56343,-0.1308,0.1283,1.0180,-0.070,-3.325,0.175,407,418,340,373,398,2025-05-28T17:46:29.137716
56344,-0.1303,0.1269,1.0214,0.280,-3.290,0.245,432,415,365,405,406,2025-05-28T17:46:29.137716
56345,-0.1337,0.1235,1.0233,0.035,-3.080,0.210,429,396,382,358,407,2025-05-28T17:46:29.137716
56346,-0.1313,0.1235,1.0189,0.000,-3.220,0.175,344,343,341,387,415,2025-05-28T17:46:29.137716
56347,-0.1283,0.1298,1.0175,0.350,-3.115,0.245,388,410,369,395,412,2025-05-28T17:46:29.137716
56348,-0.1327,0.1254,1.0238,0.070,-2.555,0.175,298,403,377,401,410,2025-05-28T17:46:29.137716
56349,-0.1332,0.1259,1.0194,-0.280,-2.520,0.105,402,418,391,395,395,2025-05-28T17:46:29.137716
56350,-0.1322,0.1274,1.0170,-0.035,-2.765,0.070,386,427,377,401,390,2025-05-28T17:46:29.137716
56351,-0.1313,0.1244,1.0224,-0.035,-2.625,0.140,395,413,369,393,394,2025-05-28T17:46:29.137716
56352,-0.1322,0.1254,1.0194,-0.070,-2.450,0.245,419,410,345,405,388,2025-05-28T17:46:29.137716
56353,-0.1337,0.1225,1.0253,0.140,-2.975,0.245,360,434,372,351,402,2025-05-28T17:46:29.137716
56354,-0.1313,0.1230,1.0209,-8.925,-3.325,0.175,393,438,388,387,400,2025-05-28T17:46:29.297255
56355,-0.1283,0.1298,1.0160,0.070,-3.115,0.315,422,439,368,405,400,2025-05-28T17:46:29.297255
56356,-0.1337,0.1327,1.0170,0.070,-2.870,0.315,376,383,377,387,384,2025-05-28T17:46:29.297576
56357,-0.1371,0.1279,1.0228,0.035,-2.940,0.245,394,424,393,393,393,2025-05-28T17:46:29.297576
56358,-0.1347,0.1269,1.0238,-0.175,-3.325,0.000,408,404,353,403,389,2025-05-28T17:46:29.297576
56359,-0.1279,0.1210,1.0209,-0.035,-3.290,0.000,412,302,333,406,389,2025-05-28T17:46:29.297576
56360,-0.1259,0.1196,1.0224,0.035,-2.835,0.245,415,399,361,393,389,2025-05-28T17:46:29.297576
56361,-0.1308,0.1225,1.0224,0.105,-2.590,0.385,407,395,369,412,375,2025-05-28T17:46:29.297576
56362,-0.1342,0.1279,1.0170,0.210,-2.695,0.140,392,424,372,402,381,2025-05-28T17:46:29.297576
56363,-0.1342,0.1318,1.0194,0.070,-2.695,0.070,409,397,369,390,390,2025-05-28T17:46:29.297576
56364,-0.1327,0.1249,1.0219,-0.140,-2.835,0.000,418,422,367,389,397,2025-05-28T17:46:29.297576
56365,-0.1313,0.1225,1.0238,-0.105,-2.940,0.035,413,405,360,369,399,2025-05-28T17:46:29.297576
56366,-0.1288,0.1200,1.0214,0.035,-3.150,0.105,414,397,374,391,398,2025-05-28T17:46:29.297576
56367,-0.1298,0.1249,1.0185,0.245,-2.905,0.420,410,415,382,409,413,2025-05-28T17:46:29.557378
56368,-0.1318,0.1264,1.0204,0.280,-2.800,0.350,407,424,375,409,398,2025-05-28T17:46:29.557378
56369,-0.1352,0.1298,1.0224,0.105,-2.870,0.245,360,370,344,397,389,2025-05-28T17:46:29.557378
56370,-0.1313,0.1264,1.0189,0.000,-3.115,0.105,396,378,369,389,384,2025-05-28T17:46:29.557378
56371,-0.1283,0.1279,1.0175,0.035,-2.905,0.105,367,382,377,409,397,2025-05-28T17:46:29.564231
56372,-0.1308,0.1259,1.0214,0.000,-2.695,0.210,407,390,393,417,408,2025-05-28T17:46:29.564231
56373,-0.1327,0.1215,1.0238,-0.035,-2.835,0.140,346,395,391,419,407,2025-05-28T17:46:29.564231
56374,-0.1298,0.1244,1.0194,0.070,-2.870,0.105,412,380,392,411,390,2025-05-28T17:46:29.564231
56375,-0.1322,0.1259,1.0194,0.210,-2.800,0.280,425,417,390,399,402,2025-05-28T17:46:29.564231
56376,-0.1318,0.1274,1.0209,0.000,-2.625,0.245,410,420,358,394,359,2025-05-28T17:46:29.564231
56377,-0.1327,0.1293,1.0170,-0.035,-2.765,0.105,395,410,372,401,382,2025-05-28T17:46:29.564231
56378,-0.1327,0.1288,1.0180,-0.035,-2.870,0.140,421,414,374,411,380,2025-05-28T17:46:29.564231
56379,-0.1313,0.1274,1.0180,-0.070,-2.870,0.175,422,390,369,416,344,2025-05-28T17:46:29.564231
56380,-0.1332,0.1249,1.0224,0.035,-2.940,0.280,417,405,379,401,381,2025-05-28T17:46:29.564231
56381,-0.1322,0.1240,1.0253,0.035,-3.080,0.175,427,403,381,391,399,2025-05-28T17:46:29.564231
56382,-0.1303,0.1230,1.0189,0.070,-3.150,0.280,411,397,372,415,404,2025-05-28T17:46:29.564231
56383,-0.1293,0.1264,1.0189,0.210,-3.185,0.280,382,407,374,420,399,2025-05-28T17:46:29.564231
56384,-0.1318,0.1283,1.0204,0.175,-3.080,0.280,391,422,385,393,392,2025-05-28T17:46:29.564231
56385,-0.1322,0.1240,1.0219,0.000,-3.115,0.140,393,419,366,371,401,2025-05-28T17:46:29.564231
56386,-0.1313,0.1254,1.0175,0.105,-3.045,0.175,394,365,366,397,399,2025-05-28T17:46:29.852985
56387,-0.1298,0.1264,1.0194,0.105,-2.730,0.210,423,383,363,393,404,2025-05-28T17:46:29.852985
56388,-0.1318,0.1274,1.0209,0.070,-2.450,0.175,359,390,375,405,418,2025-05-28T17:46:29.852985
56389,-0.1332,0.1235,1.0258,0.000,-2.835,0.070,413,425,368,418,418,2025-05-28T17:46:29.852985
56390,-0.1293,0.1220,1.0214,0.070,-3.045,0.035,429,407,378,405,397,2025-05-28T17:46:29.852985
56391,-0.1283,0.1254,1.0194,0.210,-2.730,0.280,398,353,383,390,370,2025-05-28T17:46:29.852985
56392,-0.1322,0.1254,1.0199,0.105,-2.485,0.245,418,410,359,391,396,2025-05-28T17:46:29.852985
56393,-0.1327,0.1279,1.0165,0.035,-2.765,0.140,421,424,339,406,415,2025-05-28T17:46:29.852985
56394,-0.1342,0.1274,1.0180,0.035,-2.835,0.070,427,423,367,417,399,2025-05-28T17:46:29.852985
56395,-0.1337,0.1264,1.0224,-0.105,-2.765,0.070,393,425,367,419,394,2025-05-28T17:46:29.852985
56396,-0.1322,0.1205,1.0219,-0.070,-2.940,0.035,394,415,371,397,404,2025-05-28T17:46:29.852985
56397,-0.1283,0.1220,1.0209,0.210,-2.975,0.210,419,425,375,411,417,2025-05-28T17:46:29.852985
56398,-0.1322,0.1254,1.0209,0.140,-2.730,0.315,412,422,385,402,419,2025-05-28T17:46:29.852985
56399,-0.1337,0.1283,1.0194,0.210,-2.590,0.315,387,414,391,391,400,2025-05-28T17:46:29.852985
56400,-0.1357,0.1288,1.0228,0.140,-2.975,0.245,405,343,377,381,384,2025-05-28T17:46:29.852985
56401,-0.1327,0.1244,1.0209,-0.175,-3.255,-0.070,390,396,375,404,392,2025-05-28T17:46:29.852985
56402,-0.1264,0.1264,1.0189,0.000,-3.115,0.140,423,400,385,401,379,2025-05-28T17:46:29.852985
56403,-0.1303,0.1220,1.0258,0.245,-2.975,0.280,396,379,387,390,383,2025-05-28T17:46:29.852985
56404,-0.1322,0.1210,1.0199,0.035,-3.080,0.210,334,372,387,346,400,2025-05-28T17:46:29.852985
56405,-0.1298,0.1298,1.0155,0.245,-2.975,0.245,377,397,389,386,397,2025-05-28T17:46:29.852985
56406,-0.1308,0.1269,1.0185,0.105,-2.625,0.210,419,424,353,384,395,2025-05-28T17:46:29.852985
56407,-0.1318,0.1283,1.0194,-0.175,-2.625,0.175,421,396,339,383,404,2025-05-28T17:46:30.016250
56408,-0.1322,0.1254,1.0233,0.000,-2.870,0.035,389,336,362,404,400,2025-05-28T17:46:30.016947
56409,-0.1322,0.1215,1.0228,-0.140,-2.940,0.000,412,406,344,393,404,2025-05-28T17:46:30.016947
56410,-0.1288,0.1235,1.0204,0.000,-2.660,0.210,378,430,358,405,401,2025-05-28T17:46:30.016947
56411,-0.1322,0.1244,1.0209,0.175,-2.695,0.280,413,424,334,413,388,2025-05-28T17:46:30.016947
56412,-0.1332,0.1269,1.0194,0.175,-2.835,0.210,423,413,348,426,353,2025-05-28T17:46:30.017568
56413,-0.1327,0.1313,1.0189,-0.070,-2.800,0.175,392,374,338,313,368,2025-05-28T17:46:30.017568
56414,-0.1308,0.1313,1.0180,0.000,-2.800,0.175,396,395,360,386,362,2025-05-28T17:46:30.017568
56415,-0.1327,0.1264,1.0209,-0.105,-2.765,0.070,398,393,382,406,343,2025-05-28T17:46:30.017568
56416,-0.1357,0.1196,1.0268,-0.035,-2.940,0.105,407,416,380,423,383,2025-05-28T17:46:30.017568
56417,-0.1298,0.1171,1.0228,-0.035,-3.325,-0.070,399,408,385,400,395,2025-05-28T17:46:30.017568
56418,-0.1274,0.1240,1.0141,0.385,-3.045,0.350,402,390,374,364,394,2025-05-28T17:46:30.017568
56419,-0.1308,0.1303,1.0219,0.350,-2.555,0.455,348,409,373,378,412,2025-05-28T17:46:30.017568
56420,-0.1357,0.1293,1.0194,-0.035,-2.765,0.210,382,351,381,384,407,2025-05-28T17:46:30.017568
56421,-0.1322,0.1322,1.0170,0.000,-3.150,0.070,394,410,381,386,412,2025-05-28T17:46:30.017568
56422,-0.1322,0.1264,1.0224,-0.210,-3.115,0.035,428,428,374,401,415,2025-05-28T17:46:30.019681
56423,-0.1313,0.1205,1.0204,-0.175,-2.975,0.140,390,438,387,405,414,2025-05-28T17:46:30.019681
56424,-0.1293,0.1191,1.0238,0.245,-3.115,0.245,407,348,376,379,408,2025-05-28T17:46:30.019681
56425,-0.1303,0.1235,1.0219,0.315,-2.905,0.280,411,390,388,406,400,2025-05-28T17:46:30.019681
56426,-0.1318,0.1318,1.0150,0.105,-2.520,0.315,414,395,381,402,410,2025-05-28T17:46:30.019681
56427,-0.1342,0.1327,1.0146,0.105,-2.520,0.210,406,392,388,407,407,2025-05-28T17:46:30.019681
56428,-0.1366,0.1264,1.0199,0.000,-2.765,-0.035,420,426,312,349,406,2025-05-28T17:46:30.223477
56429,-0.1318,0.1235,1.0224,-0.280,-2.940,-0.035,397,425,338,393,393,2025-05-28T17:46:30.223477
56430,-0.1313,0.1191,1.0214,-0.035,-2.940,-0.035,417,411,360,390,393,2025-05-28T17:46:30.223477
56431,-0.1308,0.1215,1.0228,0.105,-2.765,0.280,399,393,364,358,399,2025-05-28T17:46:30.223477
56432,-0.1318,0.1269,1.0185,0.105,-2.590,0.385,341,393,372,390,416,2025-05-28T17:46:30.223477
56433,-0.1347,0.1303,1.0170,0.175,-2.730,0.315,401,416,383,400,400,2025-05-28T17:46:30.223477
56434,-0.1347,0.1288,1.0199,0.000,-2.940,0.070,303,397,388,404,352,2025-05-28T17:46:30.223477
56435,-0.1337,0.1249,1.0228,-0.035,-3.255,0.070,399,342,354,388,373,2025-05-28T17:46:30.223477
56436,-0.1293,0.1161,1.0263,-0.070,-3.395,0.070,399,405,361,385,396,2025-05-28T17:46:30.223477
56437,-0.1283,0.1220,1.0214,0.140,-3.150,0.350,356,374,335,383,387,2025-05-28T17:46:30.223477
56438,-0.1322,0.1249,1.0228,0.420,-2.800,0.455,391,407,364,402,396,2025-05-28T17:46:30.223477
56439,-0.1332,0.1288,1.0155,0.105,-2.940,0.315,398,428,380,413,399,2025-05-28T17:46:30.223477
56440,-0.1322,0.1327,1.0136,0.105,-3.115,0.210,340,419,369,395,387,2025-05-28T17:46:30.223477
56441,-0.1308,0.1303,1.0219,-8.960,-2.940,0.070,378,424,383,404,349,2025-05-28T17:46:30.223477
56442,-0.1303,0.1249,1.0175,-0.385,-2.695,0.035,333,347,379,402,294,2025-05-28T17:46:30.223477
56443,-0.1298,0.1279,1.0194,-0.140,-2.695,0.175,413,418,390,362,372,2025-05-28T17:46:30.223477
56444,-0.1347,0.1225,1.0277,0.000,-2.450,0.140,392,414,380,403,381,2025-05-28T17:46:30.223477
56445,-0.1337,0.1205,1.0224,-0.280,-2.660,0.070,412,415,375,394,342,2025-05-28T17:46:30.223477
56446,-0.1274,0.1225,1.0131,-0.105,-3.045,0.105,422,426,383,381,375,2025-05-28T17:46:30.223477
56447,-0.1327,0.1303,1.0209,0.455,-2.660,0.455,403,410,348,385,380,2025-05-28T17:46:30.223477
56448,-0.1405,0.1235,1.0331,-0.175,-2.415,0.245,391,400,364,401,400,2025-05-28T17:46:30.569904
56449,-0.1318,0.1210,1.0141,-0.175,-3.745,-0.035,414,404,371,411,382,2025-05-28T17:46:30.569904
56450,-0.1269,0.1283,1.0131,0.560,-3.640,0.140,400,404,383,400,384,2025-05-28T17:46:30.672198
56451,-0.1283,0.1264,1.0248,0.210,-2.730,0.560,418,374,375,401,390,2025-05-28T17:46:30.672198
56452,-0.1332,0.1279,1.0165,-0.140,-2.905,0.280,414,399,383,406,408,2025-05-28T17:46:30.672198
56453,-0.1322,0.1303,1.0204,0.315,-3.395,0.175,423,397,389,351,407,2025-05-28T17:46:30.672198
56454,-0.1322,0.1264,1.0233,-0.245,-2.870,0.070,411,411,342,406,363,2025-05-28T17:46:30.672198
56455,-0.1279,0.1181,1.0180,-0.350,-2.660,0.105,402,410,373,405,372,2025-05-28T17:46:30.672198
56456,-0.1274,0.1191,1.0209,0.140,-3.185,0.140,418,422,384,422,388,2025-05-28T17:46:30.672198
56457,-0.1293,0.1210,1.0248,0.280,-3.010,0.210,364,378,344,382,397,2025-05-28T17:46:30.672198
56458,-0.1327,0.1269,1.0165,0.070,-2.450,0.385,329,409,364,345,386,2025-05-28T17:46:30.672198
56459,-0.1332,0.1337,1.0141,0.280,-2.660,0.315,408,375,365,388,391,2025-05-28T17:46:30.672198
56460,-0.1342,0.1318,1.0175,0.000,-2.835,0.035,390,404,369,383,385,2025-05-28T17:46:30.672198
56461,-0.1342,0.1308,1.0204,-0.280,-2.905,0.035,419,339,366,302,395,2025-05-28T17:46:30.672198
56462,-0.1308,0.1220,1.0248,-0.140,-3.185,0.070,389,382,382,383,403,2025-05-28T17:46:30.672198
56463,-0.1298,0.1147,1.0238,0.035,-3.220,0.070,388,414,344,389,403,2025-05-28T17:46:30.672198
56464,-0.1269,0.1235,1.0214,0.280,-2.765,0.385,406,343,364,413,383,2025-05-28T17:46:30.672198
56465,-0.1308,0.1269,1.0189,0.280,-2.555,0.525,392,413,366,424,406,2025-05-28T17:46:30.672198
56466,-0.1342,0.1298,1.0165,0.035,-2.695,0.210,420,404,346,426,403,2025-05-28T17:46:30.672198
56467,-0.1332,0.1337,1.0180,-0.105,-3.080,0.035,419,424,363,413,407,2025-05-28T17:46:30.672198
56468,-0.1313,0.1269,1.0209,-0.140,-2.975,0.035,401,412,334,425,392,2025-05-28T17:46:30.672198
56469,-0.1313,0.1205,1.0238,-0.210,-2.905,0.210,393,411,350,361,399,2025-05-28T17:46:30.681910
56470,-0.1298,0.1215,1.0233,-0.035,-2.975,0.175,410,407,367,398,408,2025-05-28T17:46:30.681910
56471,-0.1303,0.1240,1.0180,0.210,-2.800,0.210,394,387,372,392,410,2025-05-28T17:46:30.681910
56472,-0.1318,0.1303,1.0189,0.105,-2.590,0.350,419,415,337,408,404,2025-05-28T17:46:30.681910
56473,-0.1352,0.1303,1.0199,0.070,-2.975,0.105,395,405,362,397,393,2025-05-28T17:46:30.681910
56474,-0.1352,0.1264,1.0204,-0.105,-3.325,0.035,411,420,333,343,388,2025-05-28T17:46:30.681910
56475,-0.1308,0.1240,1.0228,-0.035,-3.115,0.105,359,419,362,385,404,2025-05-28T17:46:30.681910
56476,-0.1303,0.1220,1.0214,-0.070,-3.010,0.245,362,403,380,410,418,2025-05-28T17:46:30.681910
56477,-0.1288,0.1254,1.0209,0.140,-3.010,0.280,422,421,377,417,399,2025-05-28T17:46:30.681910
56478,-0.1308,0.1254,1.0204,0.070,-3.115,0.280,412,423,383,395,390,2025-05-28T17:46:30.681910
56479,-0.1322,0.1279,1.0199,0.000,-3.150,0.175,408,359,380,413,403,2025-05-28T17:46:30.681910
56480,-0.1322,0.1264,1.0209,0.105,-3.010,0.070,390,368,393,418,411,2025-05-28T17:46:30.681910
56481,-0.1308,0.1264,1.0224,0.000,-2.905,0.140,390,375,348,400,372,2025-05-28T17:46:30.681910
56482,-0.1318,0.1254,1.0189,-0.175,-2.660,0.175,408,417,360,401,396,2025-05-28T17:46:30.681910
56483,-0.1318,0.1254,1.0175,0.000,-2.695,0.280,423,398,339,404,390,2025-05-28T17:46:30.681910
56484,-0.1322,0.1254,1.0214,-0.035,-2.835,0.140,350,420,331,389,396,2025-05-28T17:46:30.681910
56485,-0.1332,0.1235,1.0219,-0.035,-3.010,0.105,411,394,357,382,402,2025-05-28T17:46:30.681910
56486,-0.1308,0.1254,1.0224,0.035,-3.150,0.140,417,414,335,400,356,2025-05-28T17:46:30.681910
56487,-0.1308,0.1274,1.0189,0.070,-2.975,0.280,423,406,366,410,375,2025-05-28T17:46:30.681910
56488,-0.1303,0.1303,1.0194,0.105,-2.835,0.210,393,424,373,394,395,2025-05-28T17:46:31.007548
56489,-0.1322,0.1274,1.0194,0.070,-2.940,0.175,412,305,367,408,359,2025-05-28T17:46:31.007548
56490,-0.1322,0.1254,1.0194,0.070,-3.045,0.105,407,395,377,417,395,2025-05-28T17:46:31.007548
56491,-0.1322,0.1220,1.0224,-0.105,-2.940,0.105,419,416,334,376,346,2025-05-28T17:46:31.007548
56492,-0.1313,0.1235,1.0214,-0.035,-2.730,0.140,420,413,353,401,370,2025-05-28T17:46:31.007548
56493,-0.1298,0.1235,1.0189,0.105,-2.695,0.245,419,409,357,414,399,2025-05-28T17:46:31.007548
56494,-0.1342,0.1259,1.0189,0.105,-2.695,0.315,421,398,337,393,402,2025-05-28T17:46:31.007548
56495,-0.1337,0.1274,1.0199,0.000,-2.975,0.175,421,415,359,404,374,2025-05-28T17:46:31.007548
56496,-0.1332,0.1254,1.0199,0.070,-3.255,0.105,424,413,355,402,388,2025-05-28T17:46:31.007548
56497,-0.1313,0.1240,1.0214,0.140,-3.220,0.140,363,395,373,396,386,2025-05-28T17:46:31.007548
56498,-0.1283,0.1254,1.0204,0.105,-2.870,0.210,397,416,342,391,403,2025-05-28T17:46:31.007548
56499,-0.1308,0.1244,1.0170,0.000,-2.835,0.315,414,362,361,383,406,2025-05-28T17:46:31.007548
56500,-0.1303,0.1293,1.0175,0.105,-2.730,0.245,417,389,376,395,411,2025-05-28T17:46:31.007548
56501,-0.1342,0.1293,1.0214,-0.210,-2.660,0.105,403,387,384,350,351,2025-05-28T17:46:31.008589
56502,-0.1337,0.1215,1.0233,-0.140,-2.835,-0.070,412,409,373,374,380,2025-05-28T17:46:31.008589
56503,-0.1303,0.1220,1.0204,0.000,-2.940,0.070,422,403,339,400,352,2025-05-28T17:46:31.008589
56504,-0.1308,0.1215,1.0204,0.035,-2.730,0.210,426,422,378,392,383,2025-05-28T17:46:31.008589
56505,-0.1298,0.1264,1.0199,0.175,-2.660,0.420,416,370,349,410,391,2025-05-28T17:46:31.008589
56506,-0.1337,0.1274,1.0165,0.070,-3.045,0.245,420,394,375,396,403,2025-05-28T17:46:31.008589
56507,-0.1337,0.1283,1.0199,0.070,-3.290,0.000,408,355,375,401,404,2025-05-28T17:46:31.008589
56508,-0.1342,0.1264,1.0243,-0.105,-3.220,0.140,401,378,389,407,396,2025-05-28T17:46:31.008589
56509,-0.1288,0.1225,1.0228,-0.070,-3.115,0.175,413,391,372,410,392,2025-05-28T17:46:31.110079
56510,-0.1288,0.1235,1.0194,0.070,-2.905,0.245,396,403,370,350,364,2025-05-28T17:46:31.110079
56511,-0.1303,0.1269,1.0189,0.105,-2.730,0.280,400,427,371,387,395,2025-05-28T17:46:31.110079
56512,-0.1342,0.1264,1.0204,0.175,-2.695,0.245,405,431,376,410,409,2025-05-28T17:46:31.110079
56513,-0.1327,0.1244,1.0199,-0.070,-3.010,0.035,413,408,374,423,405,2025-05-28T17:46:31.110079
56514,-0.1308,0.1269,1.0185,0.035,-2.905,0.140,414,348,371,410,393,2025-05-28T17:46:31.110079
56515,-0.1318,0.1254,1.0199,-0.105,-2.555,0.175,418,347,376,403,402,2025-05-28T17:46:31.110079
56516,-0.1318,0.1259,1.0199,-0.175,-2.660,0.210,387,403,368,415,393,2025-05-28T17:46:31.110079
56517,-0.1332,0.1279,1.0194,0.245,-2.765,0.280,390,433,380,352,346,2025-05-28T17:46:31.110079
56518,-0.1347,0.1259,1.0228,0.000,-2.975,0.140,373,427,370,390,336,2025-05-28T17:46:31.110079
56519,-0.1313,0.1254,1.0214,0.140,-3.115,0.245,413,398,338,349,382,2025-05-28T17:46:31.110079
56520,-0.1308,0.1244,1.0175,0.175,-3.185,0.210,424,399,362,354,363,2025-05-28T17:46:31.110079
56521,-0.1298,0.1288,1.0199,0.210,-3.045,0.350,396,379,331,388,342,2025-05-28T17:46:31.110079
56522,-0.1332,0.1274,1.0228,-0.105,-2.765,0.210,419,417,361,407,374,2025-05-28T17:46:31.110079
56523,-0.1332,0.1269,1.0165,0.035,-3.080,0.105,427,424,342,404,389,2025-05-28T17:46:31.403227
56524,-0.1313,0.1254,1.0209,0.070,-3.080,0.105,422,423,368,414,402,2025-05-28T17:46:31.403227
56525,-0.1318,0.1235,1.0228,0.000,-2.765,0.245,423,420,381,410,398,2025-05-28T17:46:31.403227
56526,-0.1303,0.1235,1.0214,0.000,-2.870,0.175,365,415,372,402,393,2025-05-28T17:46:31.403227
56527,-0.1308,0.1240,1.0214,0.210,-3.045,0.210,404,380,381,348,387,2025-05-28T17:46:31.403227
56528,-0.1327,0.1279,1.0219,0.070,-2.870,0.280,410,366,383,393,387,2025-05-28T17:46:31.404224
56529,-0.1337,0.1279,1.0189,0.000,-2.625,0.175,388,356,384,413,389,2025-05-28T17:46:31.404224
56530,-0.1332,0.1259,1.0199,0.035,-2.940,0.175,410,346,388,418,412,2025-05-28T17:46:31.404224
56531,-0.1322,0.1259,1.0219,-0.105,-3.115,0.035,433,412,389,405,397,2025-05-28T17:46:31.404224
56532,-0.1318,0.1225,1.0219,-0.035,-3.080,0.140,407,391,388,399,405,2025-05-28T17:46:31.404224
56533,-0.1288,0.1220,1.0204,0.175,-2.940,0.210,421,403,386,370,352,2025-05-28T17:46:31.404224
56534,-0.1332,0.1283,1.0194,0.210,-2.800,0.140,402,402,355,377,369,2025-05-28T17:46:31.404224
56535,-0.1332,0.1274,1.0204,0.000,-2.765,0.210,398,415,375,401,401,2025-05-28T17:46:31.404224
56536,-0.1332,0.1283,1.0180,-0.070,-2.870,0.105,415,411,371,393,401,2025-05-28T17:46:31.404224
56537,-0.1337,0.1249,1.0214,0.000,-2.870,0.105,411,388,381,382,353,2025-05-28T17:46:31.404224
56538,-0.1313,0.1215,1.0253,-0.070,-3.080,0.035,339,410,375,394,378,2025-05-28T17:46:31.404224
56539,-0.1313,0.1200,1.0253,0.105,-3.010,0.245,407,426,376,369,377,2025-05-28T17:46:31.543844
56540,-0.1303,0.1264,1.0189,0.315,-2.905,0.280,411,429,369,392,396,2025-05-28T17:46:31.543844
56541,-0.1322,0.1308,1.0199,0.210,-2.870,0.385,366,399,373,395,406,2025-05-28T17:46:31.544842
56542,-0.1342,0.1298,1.0219,-0.035,-2.905,0.210,391,397,337,415,406,2025-05-28T17:46:31.544842
56543,-0.1327,0.1269,1.0175,-0.140,-3.255,0.035,420,302,357,407,391,2025-05-28T17:46:31.544842
56544,-0.1298,0.1288,1.0204,0.000,-3.150,0.070,422,394,332,379,401,2025-05-28T17:46:31.544842
56545,-0.1283,0.1230,1.0224,-0.105,-2.730,0.210,421,408,370,347,398,2025-05-28T17:46:31.544842
56546,-0.1303,0.1230,1.0209,-0.035,-2.695,0.280,415,413,365,387,416,2025-05-28T17:46:31.545841
56547,-0.1322,0.1283,1.0209,0.175,-2.730,0.245,388,401,376,404,417,2025-05-28T17:46:31.545841
56548,-0.1327,0.1298,1.0204,0.000,-2.695,0.175,396,424,354,400,420,2025-05-28T17:46:31.545841
56549,-0.1327,0.1293,1.0185,0.035,-2.800,0.105,397,434,369,405,406,2025-05-28T17:46:31.545841
56550,-0.1298,0.1259,1.0185,0.000,-2.940,0.175,400,400,367,386,387,2025-05-28T17:46:31.545841
56551,-0.1322,0.1274,1.0233,0.070,-3.080,0.175,409,418,341,402,407,2025-05-28T17:46:31.545841
56552,-0.1308,0.1220,1.0233,-0.035,-3.080,0.140,409,424,360,416,356,2025-05-28T17:46:31.545841
56553,-0.1298,0.1249,1.0199,0.210,-3.045,0.280,420,404,373,389,327,2025-05-28T17:46:31.545841
56554,-0.1322,0.1259,1.0209,0.175,-3.010,0.280,395,422,384,384,390,2025-05-28T17:46:31.545841
56555,-0.1313,0.1269,1.0175,-0.035,-2.940,0.280,395,428,355,389,387,2025-05-28T17:46:31.545841
56556,-0.1337,0.1298,1.0175,0.035,-3.045,0.210,421,419,361,385,386,2025-05-28T17:46:31.545841
56557,-0.1313,0.1259,1.0243,0.000,-2.940,0.035,347,410,380,349,392,2025-05-28T17:46:31.823191
56558,-0.1303,0.1254,1.0228,0.000,-2.800,0.140,403,389,372,395,404,2025-05-28T17:46:31.823191
56559,-0.1303,0.1230,1.0199,0.035,-2.730,0.105,339,397,374,367,386,2025-05-28T17:46:31.823191
56560,-0.1318,0.1240,1.0194,0.140,-2.800,0.210,347,392,384,404,403,2025-05-28T17:46:31.823191
56561,-0.1327,0.1279,1.0219,0.035,-2.695,0.245,381,395,387,390,395,2025-05-28T17:46:31.823191
56562,-0.1342,0.1274,1.0189,-0.035,-2.765,0.140,410,418,349,399,384,2025-05-28T17:46:31.823191
56563,-0.1322,0.1259,1.0224,0.070,-2.905,0.070,379,420,324,409,386,2025-05-28T17:46:31.823191
56564,-0.1342,0.1269,1.0214,-0.105,-2.870,0.210,412,416,356,355,394,2025-05-28T17:46:31.823191
56565,-0.1308,0.1259,1.0209,0.000,-2.835,0.140,422,410,371,392,373,2025-05-28T17:46:31.823191
56566,-0.1308,0.1274,1.0204,0.175,-2.975,0.210,399,340,330,343,381,2025-05-28T17:46:31.823191
56567,-0.1308,0.1279,1.0189,0.070,-2.975,0.210,405,405,348,402,404,2025-05-28T17:46:31.823191
56568,-0.1318,0.1283,1.0209,-0.035,-3.045,0.140,421,432,359,404,418,2025-05-28T17:46:31.823191
56569,-0.1313,0.1244,1.0204,0.035,-3.185,0.175,404,404,346,307,386,2025-05-28T17:46:31.823191
56570,-0.1303,0.1244,1.0233,0.000,-3.150,0.140,346,404,361,315,390,2025-05-28T17:46:31.823191
56571,-0.1293,0.1240,1.0204,0.035,-2.870,0.245,382,429,362,370,408,2025-05-28T17:46:31.823191
56572,-0.1318,0.1249,1.0189,0.070,-2.730,0.210,361,417,362,407,407,2025-05-28T17:46:31.823191
56573,-0.1332,0.1298,1.0189,0.035,-2.590,0.175,416,410,365,418,393,2025-05-28T17:46:31.823191
56574,-0.1357,0.1269,1.0189,0.000,-2.625,0.105,408,373,374,379,381,2025-05-28T17:46:31.823191
56575,-0.1308,0.1249,1.0224,-0.140,-2.835,0.070,400,415,378,349,395,2025-05-28T17:46:31.823191
56576,-0.1322,0.1230,1.0209,-0.035,-2.870,0.140,420,356,391,392,364,2025-05-28T17:46:31.989806
56577,-0.1313,0.1230,1.0228,0.070,-2.905,0.245,420,413,388,406,401,2025-05-28T17:46:31.989806
56578,-0.1318,0.1235,1.0209,0.105,-3.010,0.315,422,418,385,413,401,2025-05-28T17:46:31.990893
56579,-0.1318,0.1274,1.0194,0.140,-3.220,0.280,392,400,347,397,396,2025-05-28T17:46:31.990893
56580,-0.1332,0.1283,1.0204,0.140,-3.045,0.315,375,418,365,386,413,2025-05-28T17:46:31.990893
56581,-0.1327,0.1274,1.0214,-0.070,-2.975,0.210,331,342,364,411,398,2025-05-28T17:46:31.990893
56582,-0.1303,0.1274,1.0185,-0.140,-3.115,0.140,333,387,362,413,402,2025-05-28T17:46:31.990893
56583,-0.1313,0.1254,1.0219,0.000,-2.905,0.140,383,397,378,428,393,2025-05-28T17:46:31.990893
56584,-0.1327,0.1244,1.0238,0.000,-2.660,0.280,394,393,374,423,408,2025-05-28T17:46:31.990893
56585,-0.1293,0.1244,1.0199,0.035,-2.835,0.280,421,397,384,422,410,2025-05-28T17:46:31.990893
56586,-0.1318,0.1235,1.0204,0.035,-2.905,0.175,351,389,384,411,399,2025-05-28T17:46:31.990893
56587,-0.1332,0.1259,1.0219,-0.070,-2.765,0.140,328,398,398,370,405,2025-05-28T17:46:31.990893
56588,-0.1318,0.1254,1.0199,-0.035,-2.730,0.245,327,415,377,385,405,2025-05-28T17:46:31.990893
56589,-0.1352,0.1269,1.0219,0.035,-2.940,0.175,381,403,375,392,366,2025-05-28T17:46:31.990893
56590,-0.1327,0.1254,1.0219,0.000,-3.045,0.035,337,404,388,419,390,2025-05-28T17:46:31.992338
56591,-0.1322,0.1274,1.0175,0.035,-2.800,0.245,395,414,376,354,358,2025-05-28T17:46:31.992460
56592,-0.1303,0.1269,1.0214,0.140,-2.940,0.210,417,423,381,376,386,2025-05-28T17:46:31.992460
56593,-0.1332,0.1274,1.0214,0.105,-3.185,0.245,418,405,389,399,402,2025-05-28T17:46:31.992460
56594,-0.1332,0.1254,1.0238,0.070,-3.360,0.105,413,407,387,399,406,2025-05-28T17:46:31.992705
56595,-0.1308,0.1235,1.0214,0.000,-3.255,0.210,394,361,372,393,351,2025-05-28T17:46:31.992705
56596,-0.1288,0.1244,1.0199,0.070,-2.940,0.140,419,331,380,385,369,2025-05-28T17:46:31.992705
56597,-0.1288,0.1274,1.0180,0.140,-2.695,0.315,425,403,342,368,357,2025-05-28T17:46:32.116621
56598,-0.1313,0.1279,1.0194,0.035,-2.660,0.175,419,414,373,399,389,2025-05-28T17:46:32.116621
56599,-0.1357,0.1269,1.0224,-0.140,-2.730,0.070,425,402,373,413,403,2025-05-28T17:46:32.117621
56600,-0.1332,0.1235,1.0209,-0.175,-2.870,0.070,402,416,342,400,407,2025-05-28T17:46:32.230440
56601,-0.1303,0.1244,1.0199,-0.035,-2.765,0.105,409,429,323,413,394,2025-05-28T17:46:32.230440
56602,-0.1327,0.1235,1.0194,0.000,-2.555,0.315,397,402,355,408,411,2025-05-28T17:46:32.230440
56603,-0.1347,0.1259,1.0209,0.105,-2.730,0.280,400,424,364,394,407,2025-05-28T17:46:32.230440
56604,-0.1342,0.1274,1.0189,0.105,-3.045,0.070,410,409,366,416,399,2025-05-28T17:46:32.230440
56605,-0.1337,0.1288,1.0224,-0.035,-3.185,0.140,415,427,335,415,408,2025-05-28T17:46:32.230440
56606,-0.1322,0.1220,1.0209,0.000,-3.185,0.140,420,359,357,397,389,2025-05-28T17:46:32.230440
56607,-0.1288,0.1249,1.0214,0.105,-3.290,0.175,408,389,360,348,349,2025-05-28T17:46:32.230440
56608,-0.1308,0.1240,1.0214,0.175,-3.150,0.315,338,416,377,393,389,2025-05-28T17:46:32.263615
56609,-0.1298,0.1279,1.0185,0.070,-2.870,0.245,409,402,382,397,404,2025-05-28T17:46:32.263615
56610,-0.1362,0.1279,1.0204,0.105,-2.765,0.175,360,425,375,383,348,2025-05-28T17:46:32.263615
56611,-0.1322,0.1254,1.0214,-0.140,-3.010,0.035,409,426,379,388,389,2025-05-28T17:46:32.263615
56612,-0.1293,0.1235,1.0214,-0.245,-2.940,0.070,413,435,369,405,348,2025-05-28T17:46:32.263615
56613,-0.1283,0.1230,1.0233,0.070,-2.625,0.175,379,419,379,400,394,2025-05-28T17:46:32.263615
56614,-0.1342,0.1244,1.0214,0.000,-2.555,0.175,393,433,378,365,391,2025-05-28T17:46:32.263615
56615,-0.1327,0.1235,1.0204,0.035,-2.975,0.175,419,418,345,392,354,2025-05-28T17:46:32.263615
