SeqNum,AccX,AccY,AccZ,GyroX,GyroY,GyroZ,Flex,Force1,Force2,Force3,Force4,TimestampReception
14024,0.2733,0.1337,0.8472,-27.650,-28.840,-27.860,39,224,138,144,166,2025-05-24T00:36:55.359700
14025,-0.5334,0.9218,-0.0678,-36.540,34.790,4.200,89,283,184,160,159,2025-05-24T00:36:55.359795
14026,-0.5412,0.9350,-0.0810,-35.560,35.420,5.250,94,288,188,157,183,2025-05-24T00:36:55.359816
14027,-0.5690,0.9487,-0.0971,-35.700,37.240,7.560,96,257,196,157,176,2025-05-24T00:36:55.359829
14028,-0.6129,0.9423,-0.1098,-36.610,38.430,8.540,98,274,155,167,179,2025-05-24T00:36:55.359840
14029,-0.6383,0.9360,-0.1186,-37.660,39.270,9.310,100,285,197,167,187,2025-05-24T00:36:55.359857
14030,-0.6583,0.9331,-0.1108,-39.060,39.130,11.830,100,251,195,167,182,2025-05-24T00:36:55.359867
14031,-0.6666,0.9267,-0.1039,-43.750,38.290,15.330,101,266,202,163,186,2025-05-24T00:36:55.359876
14032,-0.6730,0.9077,-0.1015,-48.650,34.370,17.780,102,291,197,166,184,2025-05-24T00:36:55.359886
14033,-0.6686,0.8994,-0.0898,-50.610,28.350,18.970,102,287,198,164,190,2025-05-24T00:36:55.359896
14034,-0.6354,0.8930,-0.0830,-48.720,22.540,20.860,104,274,195,148,192,2025-05-24T00:36:55.359905
14035,-0.6032,0.8960,-0.0649,-44.940,17.570,23.380,104,233,203,167,193,2025-05-24T00:36:55.359914
14036,-0.5714,0.8896,-0.0434,-42.840,14.070,25.970,104,277,197,148,195,2025-05-24T00:36:55.359925
14037,-0.5583,0.8696,-0.0254,-41.230,11.830,26.390,105,279,194,166,194,2025-05-24T00:36:55.359933
14038,-0.5495,0.8569,-0.0117,-38.220,8.190,25.620,106,282,205,170,197,2025-05-24T00:36:55.359942
14039,-0.5270,0.8486,0.0029,-34.790,4.130,24.920,107,281,190,169,191,2025-05-24T00:36:55.359986
14040,-0.5012,0.8389,0.0088,-31.850,1.680,24.220,107,276,204,167,189,2025-05-24T00:36:55.359996
14041,-0.4797,0.8442,0.0073,-29.260,0.910,23.310,108,237,203,167,196,2025-05-24T00:36:55.360005
14042,-0.4607,0.8535,-0.0010,-27.020,1.400,22.820,108,287,175,168,178,2025-05-24T00:36:55.360014
14043,-0.4616,0.8511,-0.0039,-24.850,1.680,21.350,108,270,204,167,189,2025-05-24T00:36:55.539808
14044,-0.4670,0.8452,0.0005,-22.190,-0.140,20.370,109,276,199,175,175,2025-05-24T00:36:55.539856
14045,-0.4748,0.8477,0.0063,-19.530,-4.060,19.670,109,285,197,167,178,2025-05-24T00:36:55.539869
14046,-0.4763,0.8535,0.0117,-17.150,-7.560,18.060,109,292,203,168,176,2025-05-24T00:36:55.539879
14047,-0.4714,0.8516,0.0073,-14.840,-9.100,17.500,109,270,206,176,181,2025-05-24T00:36:55.539889
14048,-0.4680,0.8574,0.0122,-13.090,-7.350,18.270,109,273,205,174,177,2025-05-24T00:36:55.539915
14049,-0.4714,0.8511,0.0078,-11.760,-5.110,18.410,109,238,208,161,192,2025-05-24T00:36:55.539926
14050,-0.4729,0.8467,0.0166,-10.080,-4.970,18.830,110,277,206,175,192,2025-05-24T00:36:55.539940
14051,-0.4690,0.8467,0.0234,-9.450,-5.880,18.480,110,295,173,170,197,2025-05-24T00:36:55.539950
14052,-0.4582,0.8516,0.0366,-8.400,-7.630,17.780,109,283,197,153,198,2025-05-24T00:36:55.539965
14053,-0.4441,0.8608,0.0488,-7.840,-9.940,17.080,110,266,206,168,199,2025-05-24T00:36:55.539978
14054,-0.4299,0.8633,0.0532,-7.280,-11.620,16.240,109,235,197,152,166,2025-05-24T00:36:55.539987
14055,-0.4124,0.8721,0.0600,-6.090,-12.810,15.610,110,284,162,171,187,2025-05-24T00:36:55.539995
14056,-0.3982,0.8764,0.0634,-4.970,-12.390,14.910,111,214,187,180,192,2025-05-24T00:36:55.540003
14057,-0.3904,0.8760,0.0688,-4.550,-11.550,13.790,110,253,201,177,191,2025-05-24T00:36:55.540051
14058,-0.3967,0.8813,0.0712,-4.550,-12.600,13.090,111,285,200,169,197,2025-05-24T00:36:55.540060
14059,-0.3928,0.8911,0.0766,-5.320,-14.210,12.390,111,250,207,172,199,2025-05-24T00:36:55.540068
14060,-0.3826,0.8969,0.0771,-5.530,-15.890,12.110,111,266,210,174,167,2025-05-24T00:36:55.540077
14061,-0.3733,0.9145,0.0810,-4.830,-16.730,11.690,111,267,192,169,195,2025-05-24T00:36:55.732989
14062,-0.3675,0.9267,0.0830,-5.110,-16.590,10.990,111,285,208,169,197,2025-05-24T00:36:55.733040
14063,-0.3699,0.9360,0.0839,-4.690,-17.290,11.830,112,290,206,154,197,2025-05-24T00:36:55.733077
14064,-0.3738,0.9501,0.0859,-4.060,-17.920,13.510,112,254,209,171,194,2025-05-24T00:36:55.733092
14065,-0.3684,0.9579,0.0937,-3.220,-16.100,14.210,111,276,199,154,199,2025-05-24T00:36:55.733104
14066,-0.3719,0.9638,0.0971,-2.520,-13.720,15.260,111,285,200,173,192,2025-05-24T00:36:55.733114
14067,-0.3758,0.9682,0.1010,-1.470,-10.150,16.170,111,271,207,174,199,2025-05-24T00:36:55.733123
14068,-0.3933,0.9658,0.1113,0.560,-6.510,17.570,112,254,196,170,195,2025-05-24T00:36:55.733132
14069,-0.4041,0.9609,0.1308,2.030,-3.850,18.410,112,279,204,146,200,2025-05-24T00:36:55.733142
14070,-0.4075,0.9472,0.1596,0.560,-0.770,20.370,111,290,206,170,199,2025-05-24T00:36:55.733151
14071,-0.4309,0.9189,0.1801,-2.100,0.560,22.260,112,260,208,175,195,2025-05-24T00:36:55.733363
14072,-0.4499,0.9033,0.2045,-3.990,-1.120,24.360,113,258,198,179,179,2025-05-24T00:36:55.733374
14073,-0.4656,0.8906,0.2274,-5.040,-5.040,27.790,113,273,199,173,189,2025-05-24T00:36:55.733383
14074,-0.4460,0.8857,0.2386,-6.720,-8.050,30.100,113,279,209,173,195,2025-05-24T00:36:55.733391
14075,-0.4080,0.8833,0.2469,-8.400,-7.840,31.990,113,272,208,169,183,2025-05-24T00:36:55.733442
14076,-0.3933,0.8882,0.2596,-8.750,-5.670,31.920,113,274,207,176,202,2025-05-24T00:36:55.733451
14077,-0.3855,0.9023,0.2699,-7.630,-1.610,31.010,114,289,209,177,192,2025-05-24T00:36:55.938118
14078,-0.3704,0.9194,0.2796,-6.440,1.680,29.120,114,292,191,180,188,2025-05-24T00:36:55.938163
14079,-0.3787,0.9135,0.2835,-6.370,5.740,26.180,115,255,204,168,191,2025-05-24T00:36:55.938188
14080,-0.3928,0.9087,0.2899,-6.370,6.930,22.260,114,280,182,173,200,2025-05-24T00:36:55.938198
14081,-0.4246,0.8847,0.2943,-6.370,4.690,18.270,114,276,202,176,202,2025-05-24T00:36:55.938209
14082,-0.4460,0.8774,0.3021,-6.510,0.490,15.190,115,255,180,158,204,2025-05-24T00:36:55.938224
14083,-0.4426,0.8862,0.3104,-5.810,-1.750,13.300,115,288,209,182,199,2025-05-24T00:36:55.938236
14084,-0.4275,0.8994,0.3167,-5.180,-2.380,12.600,114,265,200,178,182,2025-05-24T00:36:55.938249
14085,-0.4002,0.9062,0.3187,-5.110,0.630,10.780,114,288,181,176,185,2025-05-24T00:36:55.938261
14086,-0.3836,0.9130,0.3211,-5.670,6.230,9.170,114,255,209,178,182,2025-05-24T00:36:55.938272
14087,-0.4080,0.8940,0.3240,-6.510,10.290,7.420,114,240,202,164,198,2025-05-24T00:36:55.938281
14088,-0.4499,0.8843,0.3318,-6.510,9.590,6.300,115,292,167,178,202,2025-05-24T00:36:55.938289
14089,-0.4656,0.8789,0.3401,-8.540,4.970,6.160,115,289,202,172,201,2025-05-24T00:36:55.938298
14090,-0.4475,0.8760,0.3372,-11.830,-1.330,6.860,115,281,202,180,203,2025-05-24T00:36:55.938306
14091,-0.4148,0.8833,0.3304,-13.300,-5.670,7.840,116,281,204,176,186,2025-05-24T00:36:55.938346
14092,-0.3631,0.9028,0.3231,-13.440,-6.300,8.890,116,295,209,176,200,2025-05-24T00:36:55.938354
14093,-0.3231,0.9130,0.3289,-13.300,-3.360,9.170,116,280,203,173,182,2025-05-24T00:36:55.938366
14094,-0.3079,0.9072,0.3309,-15.050,0.770,8.890,117,240,194,157,200,2025-05-24T00:36:56.179179
14095,-0.3162,0.8921,0.3396,-16.100,4.270,8.890,117,242,210,175,197,2025-05-24T00:36:56.179230
14096,-0.3514,0.8745,0.3411,-17.010,5.320,8.610,118,292,203,176,184,2025-05-24T00:36:56.179244
14097,-0.3470,0.8750,0.3411,-18.550,6.370,8.400,117,279,188,177,206,2025-05-24T00:36:56.179255
14098,-0.3436,0.8784,0.3489,-21.770,7.910,8.890,117,274,197,177,182,2025-05-24T00:36:56.179266
14099,-0.3562,0.8701,0.3411,-25.550,7.210,8.750,118,295,214,179,194,2025-05-24T00:36:56.179276
14100,-0.3445,0.8750,0.3411,-27.160,5.740,10.290,118,300,200,176,200,2025-05-24T00:36:56.179310
14101,-0.3318,0.8672,0.3406,-26.740,5.950,12.180,118,294,200,182,199,2025-05-24T00:36:56.179325
14102,-0.3206,0.8696,0.3509,-26.460,8.260,14.350,118,242,207,182,198,2025-05-24T00:36:56.179336
14103,-0.3216,0.8657,0.3577,-27.650,10.850,16.240,118,272,200,184,203,2025-05-24T00:36:56.179345
14104,-0.3216,0.8647,0.3504,-27.720,12.460,17.570,118,287,209,181,202,2025-05-24T00:36:56.179355
14105,-0.2982,0.8789,0.3445,-28.140,14.840,18.760,118,296,195,182,204,2025-05-24T00:36:56.179365
14106,-0.2874,0.8755,0.3294,-29.260,19.390,19.740,119,265,207,181,197,2025-05-24T00:36:56.179374
14107,-0.2967,0.8691,0.3201,-28.770,22.680,20.160,118,254,208,179,204,2025-05-24T00:36:56.179389
14108,-0.2972,0.8760,0.3235,-28.350,23.310,20.230,119,279,205,182,198,2025-05-24T00:36:56.179436
14109,-0.2962,0.9023,0.3309,-28.630,22.960,20.440,119,296,205,176,192,2025-05-24T00:36:56.183835
14110,-0.2869,0.9199,0.3294,-28.560,23.310,18.970,119,287,202,184,185,2025-05-24T00:36:56.183868
14111,-0.2874,0.9335,0.3240,-25.480,24.290,17.850,119,288,185,185,205,2025-05-24T00:36:56.184063
14112,-0.2845,0.9477,0.3104,-17.430,29.050,16.310,120,282,204,178,199,2025-05-24T00:36:56.184075
14113,-0.2933,0.9609,0.2938,-11.340,34.580,15.610,119,295,208,168,187,2025-05-24T00:36:56.354181
14114,-0.3226,0.9599,0.2552,-7.490,38.150,15.260,120,282,208,182,186,2025-05-24T00:36:56.354285
14115,-0.3157,0.9682,0.2035,-6.720,39.550,16.310,120,282,204,153,201,2025-05-24T00:36:56.354324
14116,-0.3177,0.9618,0.1498,-7.420,41.580,17.220,119,295,212,153,200,2025-05-24T00:36:56.354339
14117,-0.3387,0.9628,0.1176,-8.610,38.570,18.060,120,299,213,179,206,2025-05-24T00:36:56.354354
14118,-0.3401,0.9653,0.1030,-13.090,30.310,18.550,120,275,202,177,204,2025-05-24T00:36:56.354368
14119,-0.3314,0.9599,0.0786,-18.060,19.740,18.830,121,267,205,172,186,2025-05-24T00:36:56.354380
14120,-0.2923,0.9740,0.0766,-21.630,13.230,18.760,120,257,214,169,193,2025-05-24T00:36:56.354393
14121,-0.2655,0.9677,0.0756,-20.510,13.440,18.480,120,289,203,185,191,2025-05-24T00:36:56.354415
14122,-0.2630,0.9628,0.0630,-16.800,15.610,17.500,120,275,210,182,202,2025-05-24T00:36:56.354427
14123,-0.2591,0.9579,0.0673,-14.350,16.030,16.310,121,285,211,183,188,2025-05-24T00:36:56.354439
14124,-0.3016,0.9321,0.0508,-13.930,14.280,13.090,120,296,210,179,205,2025-05-24T00:36:56.354450
14125,-0.3196,0.9365,0.0498,-11.690,10.780,10.780,121,274,190,180,203,2025-05-24T00:36:56.354462
14126,-0.3250,0.9418,0.0468,-9.170,8.820,8.960,120,297,190,187,197,2025-05-24T00:36:56.354480
14127,-0.3489,0.9179,0.0522,-7.980,6.020,6.860,121,289,184,179,198,2025-05-24T00:36:56.354492
14128,-0.3387,0.9082,0.0586,-6.370,2.940,5.530,120,272,209,179,185,2025-05-24T00:36:57.525125
14129,-0.3211,0.8960,0.0810,-4.900,0.910,5.810,121,280,197,181,203,2025-05-24T00:36:57.525173
14130,-0.3265,0.8706,0.1235,-2.940,-0.350,6.230,121,283,182,178,205,2025-05-24T00:36:57.525186
14131,-0.3387,0.8545,0.1527,1.120,-6.510,6.720,121,293,211,180,174,2025-05-24T00:36:57.525196
14132,-0.3143,0.8545,0.1845,4.760,-14.420,7.070,120,297,200,177,191,2025-05-24T00:36:57.525206
14133,-0.2801,0.8486,0.1835,8.470,-17.430,6.160,121,279,203,161,198,2025-05-24T00:36:57.525219
14134,-0.2513,0.8579,0.1557,14.070,-17.150,5.880,121,284,187,181,202,2025-05-24T00:36:57.525252
14135,-0.2235,0.8760,0.1327,17.710,-12.810,6.300,120,292,195,180,194,2025-05-24T00:36:57.525265
14136,-0.2216,0.8989,0.1191,16.030,-6.650,5.040,121,247,211,183,199,2025-05-24T00:36:57.525274
14137,-0.2450,0.9160,0.1054,11.970,-4.830,4.340,121,304,191,184,206,2025-05-24T00:36:57.525284
14138,-0.2747,0.9267,0.0986,9.100,-7.000,3.710,121,293,211,186,186,2025-05-24T00:36:57.525293
14139,-0.2879,0.9370,0.0927,10.290,-13.020,2.380,122,289,206,186,186,2025-05-24T00:36:57.525302
14140,-0.2591,0.9575,0.1030,13.300,-18.830,1.750,121,244,205,181,204,2025-05-24T00:36:57.525310
14141,-0.2411,0.9687,0.1127,13.720,-20.790,0.070,121,279,203,179,205,2025-05-24T00:36:57.525319
14142,-0.2440,0.9828,0.1279,14.210,-21.280,-0.700,121,288,191,183,185,2025-05-24T00:36:57.525363
14143,-0.2518,1.0077,0.1566,14.350,-20.580,-0.770,122,291,209,178,186,2025-05-24T00:36:57.525374
14144,-0.2479,1.0277,0.1976,12.320,-19.040,-1.890,122,290,200,154,200,2025-05-24T00:36:57.525385
14145,-0.2484,1.0399,0.2240,10.360,-18.060,-3.080,122,287,210,179,206,2025-05-24T00:36:57.525395
14146,-0.2494,1.0331,0.2499,9.590,-16.170,-4.760,122,288,210,179,204,2025-05-24T00:36:57.525405
14147,-0.2640,1.0136,0.2782,10.850,-13.650,-6.370,121,284,205,177,208,2025-05-24T00:36:57.525415
14148,-0.2806,0.9906,0.2987,11.760,-12.040,-6.370,123,269,214,179,204,2025-05-24T00:36:57.525424
14149,-0.2869,0.9736,0.3231,10.990,-10.920,-4.550,123,246,212,179,198,2025-05-24T00:36:57.525439
14150,-0.2782,0.9667,0.3411,7.000,-9.590,-2.310,122,248,216,177,201,2025-05-24T00:36:57.525449
14151,-0.2655,0.9658,0.3426,4.060,-9.170,17.570,122,269,185,172,208,2025-05-24T00:36:57.525459
14152,-0.2694,0.9628,0.3387,3.570,-10.710,1.330,122,282,210,180,188,2025-05-24T00:36:57.525467
14153,-0.2669,0.9687,0.3323,4.130,-14.140,1.680,123,289,215,183,185,2025-05-24T00:36:57.525477
14154,-0.2538,0.9667,0.3143,3.500,-17.220,0.700,124,297,214,180,201,2025-05-24T00:36:57.525485
14155,-0.2547,0.9726,0.2972,1.260,-18.480,-1.120,122,255,186,180,193,2025-05-24T00:36:57.525493
14156,-0.2611,0.9658,0.2762,-0.630,-18.480,-2.240,123,292,210,182,186,2025-05-24T00:36:57.525505
14157,-0.2718,0.9623,0.2723,-2.030,-17.850,-2.870,123,283,204,186,190,2025-05-24T00:36:57.525526
14158,-0.2655,0.9536,0.2713,-4.550,-15.120,-3.360,123,289,216,162,188,2025-05-24T00:36:57.525535
14159,-0.2733,0.9252,0.2708,-7.490,-12.250,-3.080,123,284,188,163,198,2025-05-24T00:36:57.525546
14160,-0.2816,0.9174,0.2821,-7.980,-10.850,-2.240,123,285,191,163,202,2025-05-24T00:36:57.525556
14161,-0.2757,0.9189,0.3001,-7.980,-10.570,-0.630,124,279,213,179,206,2025-05-24T00:36:57.525565
14162,-0.2743,0.9145,0.3099,-8.540,-10.850,0.420,124,279,217,180,207,2025-05-24T00:36:57.525575
14163,-0.2591,0.9287,0.3265,-8.470,-11.340,1.610,124,298,187,179,208,2025-05-24T00:36:57.525584
14164,-0.2489,0.9316,0.3309,-8.400,-11.130,2.800,123,282,212,182,206,2025-05-24T00:36:57.525597
14165,-0.2352,0.9238,0.3318,-8.610,-10.150,3.360,124,283,214,187,199,2025-05-24T00:36:57.525606
14166,-0.2230,0.9262,0.3392,-8.610,-8.890,4.130,124,246,212,185,200,2025-05-24T00:36:57.525614
14167,-0.2284,0.9287,0.3479,-9.240,-8.190,4.340,124,281,213,157,204,2025-05-24T00:36:57.525627
14168,-0.2245,0.9306,0.3636,-9.030,-7.350,4.760,125,265,206,182,208,2025-05-24T00:36:57.525635
14169,-0.2377,0.9204,0.3694,-8.960,-6.650,5.110,125,259,210,181,209,2025-05-24T00:36:57.525644
14170,-0.2269,0.9228,0.3723,-7.770,-5.950,6.160,123,301,206,186,211,2025-05-24T00:36:57.525652
14171,-0.2137,0.9223,0.3645,-7.070,-3.220,7.560,124,302,212,186,211,2025-05-24T00:36:57.525663
14172,-0.2133,0.9204,0.3504,-5.040,-0.700,9.030,124,262,205,180,203,2025-05-24T00:36:57.525680
14173,-0.2035,0.9321,0.3465,-3.850,2.590,9.660,125,295,208,180,190,2025-05-24T00:36:57.525690
14174,-0.2064,0.9326,0.3309,-4.690,5.320,9.660,125,278,191,188,207,2025-05-24T00:36:57.525699
14175,-0.2123,0.9335,0.3270,-6.510,6.440,9.380,125,271,201,183,208,2025-05-24T00:36:57.525709
14176,-0.2040,0.9394,0.3167,-7.770,6.160,8.890,125,258,213,180,203,2025-05-24T00:36:57.525717
14177,-0.1820,0.9457,0.3050,-8.750,6.650,7.700,125,285,185,189,204,2025-05-24T00:36:57.525726
14178,-0.1806,0.9350,0.2908,-9.030,7.980,7.000,125,300,214,180,196,2025-05-24T00:36:57.525739
14179,-0.1986,0.9321,0.2918,-7.770,7.700,6.370,125,293,215,164,192,2025-05-24T00:36:57.525748
14180,-0.2172,0.9282,0.2933,-7.630,6.720,5.880,125,276,201,186,201,2025-05-24T00:36:57.525756
14181,-0.2338,0.9174,0.2996,-8.120,5.110,5.880,125,301,211,180,208,2025-05-24T00:36:57.525765
14182,-0.2372,0.9170,0.2977,-9.030,5.530,5.880,125,279,213,184,205,2025-05-24T00:36:57.525773
14183,-0.2406,0.9218,0.3021,-8.260,7.700,6.370,124,304,191,184,196,2025-05-24T00:36:57.525781
14184,-0.2347,0.9272,0.3050,-8.120,11.130,7.000,125,249,211,186,207,2025-05-24T00:36:57.525790
14185,-0.2513,0.9189,0.3045,-7.630,12.250,6.930,125,294,211,181,188,2025-05-24T00:36:57.525802
14186,-0.2645,0.9091,0.3060,-6.440,8.750,6.930,125,288,203,186,189,2025-05-24T00:36:57.525814
14187,-0.2704,0.9023,0.2996,-4.060,2.660,6.160,125,292,200,186,196,2025-05-24T00:36:57.525831
14188,-0.2430,0.9135,0.2962,-2.240,-0.840,5.600,125,283,183,186,208,2025-05-24T00:36:57.525840
14189,-0.2235,0.9199,0.2889,-1.960,-1.680,4.900,125,290,203,182,209,2025-05-24T00:36:57.525849
14190,-0.2152,0.9287,0.2840,-1.190,0.280,3.990,125,286,213,188,206,2025-05-24T00:36:57.525861
14191,-0.2308,0.9233,0.2806,-0.280,1.820,3.290,126,293,214,186,205,2025-05-24T00:36:57.525869
14192,-0.2557,0.9170,0.2811,-0.070,1.470,2.800,125,299,211,174,207,2025-05-24T00:36:57.525881
14193,-0.2704,0.9199,0.2850,-0.910,0.000,2.380,126,288,208,186,203,2025-05-24T00:36:57.525892
14194,-0.2660,0.9321,0.2894,-1.960,-1.960,2.800,125,294,213,165,209,2025-05-24T00:36:57.526089
14195,-0.2499,0.9409,0.2879,-2.030,-3.010,2.660,125,282,190,181,208,2025-05-24T00:36:57.526099
14196,-0.2220,0.9467,0.2869,-1.190,-3.640,2.170,125,294,209,187,209,2025-05-24T00:36:57.526108
14197,-0.1967,0.9472,0.2850,0.210,-3.220,1.400,125,289,213,178,208,2025-05-24T00:36:57.526119
14198,-0.2035,0.9331,0.2826,0.700,-2.240,0.630,126,291,185,186,211,2025-05-24T00:36:57.526127
14199,-0.2206,0.9365,0.2899,1.190,-2.730,0.210,125,299,213,180,204,2025-05-24T00:36:57.526140
14200,-0.2347,0.9379,0.2889,1.400,-4.130,-0.350,126,297,211,186,206,2025-05-24T00:36:57.526149
14201,-0.2294,0.9428,0.2738,1.260,-3.990,-0.210,126,290,210,189,208,2025-05-24T00:36:57.526158
14202,-0.2201,0.9526,0.2640,1.260,-1.820,0.350,125,291,210,185,210,2025-05-24T00:36:57.526186
14203,-0.2274,0.9496,0.2552,1.120,0.350,0.700,125,306,212,185,210,2025-05-24T00:36:57.526195
14204,-0.2377,0.9492,0.2621,0.420,-0.560,0.910,126,291,212,183,207,2025-05-24T00:36:57.526204
14205,-0.2313,0.9531,0.2679,-0.700,-3.290,1.050,126,303,210,190,189,2025-05-24T00:36:57.526212
14206,-0.2216,0.9467,0.2757,-1.540,-4.900,0.840,125,245,186,183,202,2025-05-24T00:36:57.526221
14207,-0.2176,0.9448,0.2850,-0.770,-5.670,1.260,126,284,209,184,202,2025-05-24T00:36:57.526230
14208,-0.2133,0.9453,0.2840,0.420,-4.760,0.490,125,285,208,187,203,2025-05-24T00:36:57.526238
14209,-0.2074,0.9418,0.2801,0.490,-3.290,0.490,125,300,214,184,193,2025-05-24T00:36:57.526246
14210,-0.2152,0.9335,0.2738,0.070,-0.560,0.280,125,284,213,187,200,2025-05-24T00:36:57.526254
14212,-0.2362,0.9462,0.2772,3.150,-4.760,-3.780,125,278,206,174,197,2025-05-24T00:36:57.642822
14213,-0.2464,0.9521,0.2582,2.310,-1.750,-2.590,118,300,203,177,177,2025-05-24T00:36:57.734322
14214,-0.2508,0.9531,0.2552,1.890,-1.470,-1.960,122,274,203,171,180,2025-05-24T00:36:57.734358
14215,-0.2552,0.9482,0.2557,0.980,-1.610,-1.820,123,244,201,177,198,2025-05-24T00:36:57.734372
14216,-0.2494,0.9462,0.2635,-0.420,-2.730,-1.260,124,295,203,185,200,2025-05-24T00:36:57.734383
14217,-0.2440,0.9423,0.2713,-1.680,-3.290,-0.980,123,291,207,161,201,2025-05-24T00:36:57.792488
14218,-0.2396,0.9423,0.2777,-1.680,-4.480,-0.910,124,276,206,179,197,2025-05-24T00:36:57.792532
14219,-0.2303,0.9433,0.2860,-1.120,-5.320,-0.630,124,300,183,188,205,2025-05-24T00:36:57.792544
14220,-0.2206,0.9423,0.2918,-1.260,-5.530,-0.840,124,282,204,182,187,2025-05-24T00:36:57.792555
14221,-0.2181,0.9374,0.2913,-0.770,-6.720,-1.400,123,283,211,183,204,2025-05-24T00:36:57.792565
14222,-0.2128,0.9418,0.2943,-0.140,-6.090,-1.890,125,270,195,177,200,2025-05-24T00:36:57.792575
14223,-0.2167,0.9443,0.2938,0.140,-4.270,-2.100,125,297,188,185,200,2025-05-24T00:36:57.792604
14224,-0.2289,0.9414,0.2850,0.490,-3.150,-2.450,125,276,209,183,199,2025-05-24T00:36:57.792614
14225,-0.2347,0.9414,0.2791,1.540,-2.870,-1.680,124,282,211,162,202,2025-05-24T00:36:57.792625
14226,-0.2401,0.9457,0.2796,0.840,-2.800,-1.400,125,264,211,164,188,2025-05-24T00:36:57.792638
14227,-0.2347,0.9414,0.2767,-1.120,-3.850,-1.400,125,279,208,184,207,2025-05-24T00:36:57.792647
14228,-0.2298,0.9296,0.2664,-2.170,-5.180,-1.400,124,249,199,162,204,2025-05-24T00:36:57.792656
14229,-0.2201,0.9370,0.2733,-1.750,-4.690,-0.420,124,280,203,173,189,2025-05-24T00:36:57.792666
14230,-0.2235,0.9360,0.2777,-0.840,-3.430,-0.980,124,247,212,178,206,2025-05-24T00:36:57.792682
14231,-0.2255,0.9389,0.2796,-0.910,-3.500,-1.260,124,273,214,181,203,2025-05-24T00:36:57.792727
14232,-0.2250,0.9418,0.2850,-1.960,-2.800,-0.770,125,258,204,179,187,2025-05-24T00:36:57.993946
14233,-0.2259,0.9365,0.2830,-2.520,-1.610,-0.630,124,282,209,163,186,2025-05-24T00:36:57.993997
14234,-0.2284,0.9379,0.2855,-1.400,-1.540,-0.490,124,271,183,178,208,2025-05-24T00:36:57.994010
14235,-0.2342,0.9355,0.2840,-0.700,-2.100,-0.490,124,272,208,185,206,2025-05-24T00:36:57.994022
14236,-0.2308,0.9379,0.2889,-1.190,-3.080,-0.350,125,269,185,175,205,2025-05-24T00:36:57.994032
14237,-0.2294,0.9350,0.2913,-2.100,-3.150,-0.350,124,276,202,179,201,2025-05-24T00:36:57.994043
14238,-0.2362,0.9282,0.2894,-2.030,-2.800,-0.070,125,288,212,171,191,2025-05-24T00:36:57.994075
14239,-0.2416,0.9262,0.2899,-0.700,-3.080,0.140,125,285,212,179,186,2025-05-24T00:36:57.994085
14240,-0.2352,0.9335,0.2884,0.490,-2.940,0.560,124,245,214,181,206,2025-05-24T00:36:57.994095
14241,-0.2269,0.9379,0.2796,0.840,-1.330,0.630,124,266,210,186,206,2025-05-24T00:36:57.994106
14242,-0.2342,0.9384,0.2757,0.490,0.560,0.980,124,284,190,177,186,2025-05-24T00:36:57.994115
14243,-0.2591,0.9282,0.2694,0.700,0.210,1.260,124,293,204,172,206,2025-05-24T00:36:57.994125
14244,-0.2640,0.9287,0.2718,0.630,-2.450,1.610,124,271,209,162,208,2025-05-24T00:36:57.994134
14245,-0.2518,0.9360,0.2723,-0.350,-5.110,1.890,124,264,194,164,197,2025-05-24T00:36:57.994148
14246,-0.2386,0.9345,0.2718,-0.770,-6.300,1.960,124,268,196,176,176,2025-05-24T00:36:57.994195
14247,-0.2201,0.9448,0.2762,0.420,-5.460,2.100,125,291,209,183,190,2025-05-24T00:36:57.994206
14248,-0.2157,0.9467,0.2801,1.400,-3.920,1.540,124,266,197,185,202,2025-05-24T00:36:58.195485
14249,-0.2313,0.9418,0.2811,2.240,-3.290,1.400,125,294,199,186,203,2025-05-24T00:36:58.195553
14250,-0.2469,0.9423,0.2840,2.660,-4.970,1.400,124,279,201,184,202,2025-05-24T00:36:58.195571
14251,-0.2508,0.9404,0.2855,2.030,-6.860,0.840,125,293,210,179,187,2025-05-24T00:36:58.195586
14252,-0.2450,0.9404,0.2835,1.540,-7.910,0.700,124,291,209,185,200,2025-05-24T00:36:58.195627
14253,-0.2372,0.9462,0.2860,0.560,-7.840,0.770,125,281,209,185,201,2025-05-24T00:36:58.195641
14254,-0.2450,0.9350,0.2738,0.770,-7.630,0.840,125,278,185,185,188,2025-05-24T00:36:58.195655
14255,-0.2411,0.9438,0.2747,1.750,-8.050,1.260,125,284,199,180,200,2025-05-24T00:36:58.195668
14256,-0.2401,0.9492,0.2801,1.190,-8.400,1.960,125,291,204,184,190,2025-05-24T00:36:58.195681
14257,-0.2411,0.9384,0.2777,-0.420,-9.660,2.450,125,275,200,181,204,2025-05-24T00:36:58.195694
14258,-0.2303,0.9374,0.2806,-0.280,-10.080,3.360,125,293,207,183,191,2025-05-24T00:36:58.195712
14259,-0.2259,0.9350,0.2806,0.700,-9.030,3.430,125,275,204,180,203,2025-05-24T00:36:58.195731
14260,-0.2157,0.9448,0.2840,1.680,-8.330,3.570,125,262,207,179,188,2025-05-24T00:36:58.195744
14261,-0.1976,0.9453,0.2879,0.560,-7.700,3.360,125,293,212,175,200,2025-05-24T00:36:58.195756
14262,-0.1928,0.9457,0.2845,-1.190,-6.790,2.870,125,288,211,179,185,2025-05-24T00:36:58.195768
14263,-0.1913,0.9467,0.2879,-0.280,-6.370,2.870,125,295,201,174,204,2025-05-24T00:36:58.195824
14264,-0.1898,0.9477,0.2923,0.980,-6.090,2.170,125,279,211,185,205,2025-05-24T00:36:58.195894
14265,-0.1747,0.9521,0.2987,0.280,-5.040,1.750,125,286,191,163,194,2025-05-24T00:36:58.250293
14266,-0.1752,0.9477,0.2982,-0.840,-3.290,1.190,126,280,212,182,209,2025-05-24T00:36:58.250375
14267,-0.1942,0.9428,0.2967,0.350,-2.240,0.700,126,304,196,176,204,2025-05-24T00:36:58.250390
14268,-0.2079,0.9487,0.2918,2.380,-2.660,0.630,123,291,182,178,197,2025-05-24T00:36:58.250402
14269,-0.2137,0.9570,0.2889,1.750,-2.800,0.630,124,275,195,184,189,2025-05-24T00:36:58.250412
14270,-0.2079,0.9570,0.2816,-0.420,-2.730,0.980,124,225,201,186,203,2025-05-24T00:36:58.424927
14271,-0.2089,0.9482,0.2728,-1.120,-1.610,1.470,124,299,199,162,174,2025-05-24T00:36:58.424957
14272,-0.2142,0.9457,0.2738,-0.280,-0.770,1.680,124,299,206,185,200,2025-05-24T00:36:58.424965
14273,-0.2220,0.9404,0.2772,-0.140,-0.700,1.610,124,225,203,177,205,2025-05-24T00:36:58.424983
14274,-0.2206,0.9374,0.2811,-1.540,-1.890,1.890,124,285,202,182,204,2025-05-24T00:36:58.424989
14275,-0.2137,0.9311,0.2855,-2.660,-3.220,1.960,124,299,206,187,186,2025-05-24T00:36:58.424994
14276,-0.2030,0.9218,0.2889,-1.960,-4.200,1.120,124,289,212,186,208,2025-05-24T00:36:58.425000
14277,-0.1976,0.9194,0.2933,-0.630,-3.920,0.350,124,281,211,162,202,2025-05-24T00:36:58.425006
14278,-0.1952,0.9282,0.2967,0.420,-3.430,0.070,123,292,211,177,175,2025-05-24T00:36:58.425012
14279,-0.1947,0.9345,0.2977,0.840,-2.240,-0.770,123,283,200,179,200,2025-05-24T00:36:58.425017
14280,-0.1947,0.9428,0.2977,1.190,-1.470,-1.120,123,292,205,178,206,2025-05-24T00:36:58.425025
14281,-0.2001,0.9423,0.2952,0.840,-0.420,-1.890,123,300,183,178,201,2025-05-24T00:36:58.425030
14282,-0.2137,0.9409,0.2952,0.770,-0.420,-2.450,123,247,207,182,200,2025-05-24T00:36:58.425035
14283,-0.2137,0.9418,0.2962,0.700,-0.560,-2.450,124,276,184,185,204,2025-05-24T00:36:58.425043
14284,-0.2235,0.9433,0.2923,0.630,-0.210,-2.450,123,289,210,162,202,2025-05-24T00:36:58.425067
14285,-0.2303,0.9477,0.2938,1.260,-0.280,-1.680,124,296,202,186,206,2025-05-24T00:36:58.628189
14286,-0.2294,0.9526,0.2933,2.030,-0.280,-0.630,124,290,198,178,188,2025-05-24T00:36:58.628238
14287,-0.2303,0.9550,0.2869,1.890,0.000,0.140,123,296,192,185,200,2025-05-24T00:36:58.628273
14288,-0.2284,0.9540,0.2811,1.120,-0.210,0.420,123,296,190,185,207,2025-05-24T00:36:58.628284
14289,-0.2235,0.9496,0.2786,0.210,-1.400,0.560,123,294,205,184,205,2025-05-24T00:36:58.628298
14290,-0.2147,0.9472,0.2835,-0.770,-2.240,0.210,124,297,207,178,205,2025-05-24T00:36:58.628308
14291,-0.2094,0.9389,0.2801,-1.260,-2.450,-0.700,125,292,185,178,202,2025-05-24T00:36:58.628319
14292,-0.2069,0.9423,0.2811,-0.840,-2.380,-1.120,124,261,208,162,175,2025-05-24T00:36:58.628329
14293,-0.2186,0.9453,0.2821,-0.210,-1.610,-1.330,124,286,209,177,189,2025-05-24T00:36:58.628338
14294,-0.2201,0.9467,0.2855,0.140,-1.260,-0.980,125,263,204,184,189,2025-05-24T00:36:58.628364
14295,-0.2206,0.9418,0.2830,-0.280,-0.560,-0.700,124,252,193,177,186,2025-05-24T00:36:58.628373
14296,-0.2279,0.9350,0.2869,-0.420,-0.490,-0.700,124,298,208,185,199,2025-05-24T00:36:58.628383
14297,-0.2303,0.9326,0.2899,0.280,-1.400,-0.630,124,287,212,163,201,2025-05-24T00:36:58.628392
14298,-0.2269,0.9267,0.2908,0.420,-2.100,-0.560,124,295,206,183,199,2025-05-24T00:36:58.628674
14299,-0.2128,0.9326,0.2884,0.000,-1.960,-0.560,124,259,204,179,189,2025-05-24T00:36:58.628715
14300,-0.2162,0.9296,0.2860,0.210,-1.540,-1.120,124,291,213,176,194,2025-05-24T00:36:58.628726
14301,-0.2113,0.9292,0.2830,1.050,-1.610,-1.400,124,224,205,186,206,2025-05-24T00:36:58.628745
14302,-0.2094,0.9306,0.2835,1.470,-1.470,-1.680,124,273,208,180,206,2025-05-24T00:36:58.906591
14303,-0.2089,0.9292,0.2845,1.190,-0.910,-2.310,125,278,215,175,208,2025-05-24T00:36:58.906656
14304,-0.2157,0.9257,0.2830,1.260,-0.700,-2.940,125,277,200,177,206,2025-05-24T00:36:58.906673
14305,-0.2216,0.9350,0.2806,2.030,-0.490,-3.080,125,241,209,185,203,2025-05-24T00:36:58.906687
14306,-0.2240,0.9404,0.2850,1.960,-0.630,-2.940,124,265,207,174,188,2025-05-24T00:36:58.906700
14307,-0.2250,0.9360,0.2796,1.190,-1.680,-3.010,125,281,210,188,201,2025-05-24T00:36:58.906713
14308,-0.2269,0.9345,0.2752,1.750,-2.450,-2.800,124,254,192,172,186,2025-05-24T00:36:58.906747
14309,-0.2328,0.9414,0.2791,2.730,-2.380,-1.540,124,281,210,162,187,2025-05-24T00:36:58.906760
14310,-0.2264,0.9467,0.2865,2.660,-2.590,-1.540,125,279,204,172,205,2025-05-24T00:36:58.906771
14311,-0.2250,0.9418,0.2860,1.750,-3.570,-1.680,124,258,209,177,207,2025-05-24T00:36:58.906783
14312,-0.2142,0.9492,0.2796,2.240,-3.500,-1.190,125,276,208,177,205,2025-05-24T00:36:58.906795
14313,-0.2094,0.9531,0.2811,3.010,-1.820,-0.630,124,255,208,181,199,2025-05-24T00:36:58.906807
14314,-0.2069,0.9511,0.2801,2.800,-0.700,-1.260,125,281,207,187,203,2025-05-24T00:36:58.906819
14315,-0.2113,0.9448,0.2752,1.610,-1.120,-1.820,125,295,203,162,207,2025-05-24T00:36:58.906836
14316,-0.2176,0.9404,0.2694,1.750,-1.260,-1.610,124,279,203,184,198,2025-05-24T00:36:58.906895
14317,-0.2255,0.9448,0.2718,2.520,-0.700,-1.470,125,272,190,185,186,2025-05-24T00:36:59.009479
14318,-0.2255,0.9448,0.2723,1.890,-0.280,-1.890,125,285,202,182,205,2025-05-24T00:36:59.009527
14319,-0.2303,0.9394,0.2694,1.050,-0.770,-1.610,125,284,184,171,202,2025-05-24T00:36:59.009540
14320,-0.2323,0.9428,0.2694,0.770,-1.050,-1.330,125,293,203,177,208,2025-05-24T00:36:59.009552
14321,-0.2318,0.9414,0.2704,1.680,-1.190,-1.190,125,275,204,183,207,2025-05-24T00:36:59.009562
14322,-0.2308,0.9433,0.2713,1.190,-1.050,-1.190,125,292,210,183,205,2025-05-24T00:36:59.009572
14323,-0.2303,0.9365,0.2704,0.770,-1.470,-1.540,125,242,207,177,201,2025-05-24T00:36:59.009584
14324,-0.2269,0.9360,0.2704,1.120,-1.610,-1.470,125,244,207,181,205,2025-05-24T00:36:59.009594
14325,-0.2289,0.9355,0.2694,2.030,-0.840,-0.980,125,241,202,178,202,2025-05-24T00:36:59.009603
14326,-0.2284,0.9423,0.2733,1.960,-0.210,-0.630,125,296,185,180,203,2025-05-24T00:36:59.009612
14327,-0.2338,0.9414,0.2694,1.330,-1.120,-0.560,125,277,201,177,205,2025-05-24T00:36:59.009621
14328,-0.2284,0.9448,0.2660,1.400,-1.400,-0.070,125,295,211,186,204,2025-05-24T00:36:59.009631
14329,-0.2294,0.9457,0.2645,2.170,-1.050,0.140,125,294,207,183,201,2025-05-24T00:36:59.009639
14330,-0.2333,0.9472,0.2640,2.590,-1.260,0.070,125,261,182,184,207,2025-05-24T00:36:59.009648
14331,-0.2381,0.9433,0.2660,1.820,-2.310,-0.070,125,291,201,188,203,2025-05-24T00:36:59.009691
14332,-0.2396,0.9438,0.2655,1.540,-3.150,0.350,125,278,196,186,208,2025-05-24T00:36:59.009700
14333,-0.2420,0.9462,0.2694,2.030,-3.430,0.700,125,294,199,178,204,2025-05-24T00:36:59.009709
14334,-0.2352,0.9487,0.2747,1.820,-4.060,0.350,125,268,204,173,205,2025-05-24T00:36:59.241169
14335,-0.2318,0.9467,0.2718,0.560,-5.180,0.280,126,293,212,185,199,2025-05-24T00:36:59.241219
14336,-0.2216,0.9487,0.2704,0.420,-5.250,0.490,125,281,201,172,195,2025-05-24T00:36:59.241232
14337,-0.2245,0.9545,0.2708,1.540,-3.710,0.560,125,295,203,182,205,2025-05-24T00:36:59.241261
14338,-0.2284,0.9575,0.2728,1.820,-3.150,0.630,125,292,202,180,205,2025-05-24T00:36:59.241275
14339,-0.2245,0.9536,0.2718,0.700,-3.500,0.420,125,292,210,178,208,2025-05-24T00:36:59.241286
14340,-0.2152,0.9545,0.2689,-0.420,-4.060,0.490,125,284,204,181,206,2025-05-24T00:36:59.241297
14341,-0.2050,0.9560,0.2679,-0.490,-3.640,-0.070,125,300,209,175,205,2025-05-24T00:36:59.241307
14342,-0.2015,0.9565,0.2655,-0.280,-3.010,-0.630,126,283,207,179,187,2025-05-24T00:36:59.241316
14343,-0.2094,0.9575,0.2674,-0.420,-3.430,-0.980,125,287,189,181,205,2025-05-24T00:36:59.241325
14344,-0.2181,0.9531,0.2684,-0.490,-4.200,-0.770,125,281,200,185,187,2025-05-24T00:36:59.241338
14345,-0.2211,0.9516,0.2640,-0.140,-4.060,-0.840,126,287,202,185,207,2025-05-24T00:36:59.241347
14346,-0.2079,0.9487,0.2630,-0.210,-2.310,-0.280,125,289,204,184,203,2025-05-24T00:36:59.241356
14347,-0.2079,0.9482,0.2625,-0.630,-0.490,0.000,125,294,209,178,206,2025-05-24T00:36:59.241365
14348,-0.2147,0.9448,0.2640,-0.910,-0.280,-0.140,125,288,204,186,208,2025-05-24T00:36:59.241413
14349,-0.2089,0.9496,0.2640,-0.420,-1.050,-0.490,125,283,203,173,207,2025-05-24T00:36:59.241422
14350,-0.2123,0.9467,0.2655,-0.420,-1.330,-0.840,126,284,209,178,196,2025-05-24T00:36:59.241431
14351,-0.2162,0.9457,0.2650,-0.490,-1.540,-0.980,125,282,199,174,177,2025-05-24T00:36:59.241445
14352,-0.2167,0.9394,0.2611,-0.350,-1.190,-0.980,126,301,182,156,189,2025-05-24T00:36:59.241458
14353,-0.2191,0.9404,0.2640,0.000,-0.420,-0.700,126,300,204,186,206,2025-05-24T00:36:59.416169
14354,-0.2230,0.9394,0.2640,0.140,-0.350,-0.700,126,249,183,179,205,2025-05-24T00:36:59.416215
14355,-0.2235,0.9448,0.2660,0.140,-0.910,-0.910,126,250,213,181,201,2025-05-24T00:36:59.416228
14356,-0.2225,0.9482,0.2699,-0.140,-1.120,-1.050,126,285,214,185,187,2025-05-24T00:36:59.416239
14357,-0.2274,0.9428,0.2728,-0.350,-1.120,-0.910,126,274,204,178,187,2025-05-24T00:36:59.416249
14358,-0.2313,0.9448,0.2708,0.140,-1.190,-0.980,125,283,208,171,206,2025-05-24T00:36:59.416275
14359,-0.2318,0.9496,0.2718,0.420,-1.260,-0.840,126,299,208,181,195,2025-05-24T00:36:59.416284
14360,-0.2274,0.9496,0.2699,0.000,-1.330,-0.840,126,296,212,186,189,2025-05-24T00:36:59.416293
14361,-0.2240,0.9453,0.2674,-0.350,-1.610,-0.980,125,287,205,186,201,2025-05-24T00:36:59.416302
14362,-0.2196,0.9448,0.2674,-0.140,-1.680,-0.700,126,290,211,186,206,2025-05-24T00:36:59.575335
14363,-0.2250,0.9438,0.2616,0.000,-1.330,-0.980,126,293,212,182,189,2025-05-24T00:36:59.575369
14364,-0.2318,0.9453,0.2630,0.350,-1.960,-0.770,126,294,211,183,203,2025-05-24T00:36:59.575380
14365,-0.2313,0.9511,0.2664,0.280,-2.520,-0.700,126,259,211,183,207,2025-05-24T00:36:59.575390
14366,-0.2347,0.9487,0.2664,-0.420,-2.590,-1.050,126,276,200,178,207,2025-05-24T00:36:59.575422
14367,-0.2328,0.9501,0.2660,-0.350,-2.450,-1.190,126,276,211,185,206,2025-05-24T00:36:59.575495
14368,-0.2367,0.9472,0.2664,-0.840,-1.960,-1.120,126,271,209,185,202,2025-05-24T00:36:59.575505
14369,-0.2425,0.9423,0.2708,-1.540,-2.310,-1.400,126,260,193,183,202,2025-05-24T00:36:59.575514
14370,-0.2435,0.9365,0.2713,-1.470,-4.340,-0.980,126,300,213,183,202,2025-05-24T00:36:59.575523
14371,-0.2425,0.9379,0.2752,-1.330,-5.460,-0.770,127,275,202,183,207,2025-05-24T00:36:59.575531
14372,-0.2372,0.9384,0.2786,-1.050,-6.580,-0.840,125,301,212,179,208,2025-05-24T00:36:59.575540
14373,-0.2255,0.9374,0.2767,-0.770,-7.070,-0.980,126,268,185,188,208,2025-05-24T00:36:59.575548
14374,-0.2191,0.9423,0.2772,-0.560,-6.090,-1.050,126,295,201,180,194,2025-05-24T00:36:59.575556
14375,-0.2196,0.9379,0.2757,-0.350,-4.900,-1.330,126,288,210,175,196,2025-05-24T00:36:59.619502
14376,-0.2216,0.9404,0.2713,0.210,-3.290,-1.540,126,290,213,179,195,2025-05-24T00:36:59.619822
14377,-0.2303,0.9394,0.2738,-0.140,-2.100,-1.190,126,289,202,164,189,2025-05-24T00:36:59.619855
14378,-0.2367,0.9384,0.2743,-0.770,-2.240,-1.190,126,284,211,182,205,2025-05-24T00:36:59.619873
14379,-0.2377,0.9335,0.2713,-0.490,-3.010,-1.260,126,288,210,186,205,2025-05-24T00:36:59.619891
14380,-0.2357,0.9360,0.2743,0.210,-2.940,-0.560,126,296,210,184,208,2025-05-24T00:36:59.619950
14381,-0.2328,0.9365,0.2762,1.050,-2.870,-0.560,126,274,190,182,208,2025-05-24T00:36:59.619968
14382,-0.2303,0.9370,0.2782,0.910,-3.430,-0.840,126,281,204,185,206,2025-05-24T00:36:59.619985
14383,-0.2294,0.9399,0.2796,0.630,-3.990,-0.980,126,245,214,186,189,2025-05-24T00:36:59.620002
14384,-0.2289,0.9438,0.2786,0.420,-3.780,-1.050,126,271,200,173,199,2025-05-24T00:36:59.620271
14385,-0.2255,0.9409,0.2757,0.560,-3.220,-1.190,127,288,205,178,208,2025-05-24T00:36:59.855504
14386,-0.2240,0.9443,0.2772,0.910,-2.030,-0.770,127,283,204,183,201,2025-05-24T00:36:59.855573
14387,-0.2294,0.9457,0.2767,0.560,-1.470,-0.490,127,262,206,182,208,2025-05-24T00:36:59.855594
14388,-0.2357,0.9409,0.2747,0.630,-2.240,-0.490,127,259,208,174,208,2025-05-24T00:36:59.855610
14389,-0.2289,0.9399,0.2723,1.120,-2.940,-0.420,127,245,198,184,209,2025-05-24T00:36:59.855623
14390,-0.2220,0.9438,0.2704,1.190,-2.450,-0.490,127,287,212,172,208,2025-05-24T00:36:59.855639
14391,-0.2264,0.9389,0.2689,1.190,-1.960,-0.490,126,259,209,184,189,2025-05-24T00:36:59.855653
14392,-0.2274,0.9409,0.2743,1.330,-2.380,-0.630,126,222,206,178,203,2025-05-24T00:36:59.855672
14393,-0.2294,0.9453,0.2777,0.980,-2.380,-0.630,126,298,216,179,187,2025-05-24T00:36:59.855686
14394,-0.2308,0.9438,0.2762,0.840,-2.520,-0.700,126,283,210,183,199,2025-05-24T00:36:59.855699
14395,-0.2240,0.9472,0.2801,1.050,-2.450,-0.770,126,283,197,184,208,2025-05-24T00:36:59.855712
14396,-0.2220,0.9448,0.2728,0.980,-1.750,-0.910,126,274,205,182,195,2025-05-24T00:36:59.855753
14397,-0.2255,0.9384,0.2723,1.400,-1.400,-0.770,127,282,215,179,209,2025-05-24T00:36:59.855766
14398,-0.2289,0.9399,0.2718,1.820,-1.330,-0.840,126,272,186,172,203,2025-05-24T00:36:59.855778
14399,-0.2352,0.9379,0.2718,1.470,-1.540,-1.190,126,249,202,187,206,2025-05-24T00:36:59.855851
14400,-0.2357,0.9409,0.2674,1.050,-2.030,-1.050,127,258,216,172,197,2025-05-24T00:36:59.855865
14401,-0.2303,0.9457,0.2684,0.630,-1.750,-1.050,126,276,189,184,204,2025-05-24T00:36:59.855877
14402,-0.2303,0.9453,0.2664,0.700,-1.120,-1.190,127,281,203,186,207,2025-05-24T00:36:59.855890
14403,-0.2318,0.9448,0.2635,1.190,-0.910,-1.260,128,280,213,183,207,2025-05-24T00:37:00.038951
14404,-0.2318,0.9428,0.2664,1.050,-1.190,-0.980,127,299,205,184,197,2025-05-24T00:37:00.039004
14405,-0.2357,0.9321,0.2655,0.630,-1.260,-1.050,128,299,203,164,206,2025-05-24T00:37:00.039018
14406,-0.2377,0.9296,0.2660,1.400,-1.540,-0.980,127,243,213,177,203,2025-05-24T00:37:00.039030
14407,-0.2396,0.9350,0.2708,2.100,-1.120,-1.050,128,299,205,181,208,2025-05-24T00:37:00.039086
14408,-0.2420,0.9350,0.2694,1.400,-0.980,-0.980,127,290,203,184,209,2025-05-24T00:37:00.039099
14409,-0.2420,0.9331,0.2699,1.190,-1.540,-0.770,128,295,202,183,200,2025-05-24T00:37:00.039110
14410,-0.2450,0.9345,0.2718,2.100,-2.100,-0.560,127,294,212,181,205,2025-05-24T00:37:00.039147
14411,-0.2411,0.9311,0.2674,3.360,-1.960,-0.910,127,293,213,163,207,2025-05-24T00:37:00.039157
14412,-0.2347,0.9272,0.2660,3.710,-1.820,-1.400,127,297,212,172,206,2025-05-24T00:37:00.039179
14413,-0.2313,0.9292,0.2679,3.500,-1.540,-1.470,128,266,207,184,196,2025-05-24T00:37:00.039191
14414,-0.2347,0.9296,0.2640,3.290,-1.470,-2.240,128,298,186,178,177,2025-05-24T00:37:00.039201
14415,-0.2284,0.9287,0.2625,3.710,-1.750,-2.590,127,286,208,188,201,2025-05-24T00:37:00.039210
14416,-0.2196,0.9321,0.2577,4.620,-1.400,-2.730,127,286,217,176,195,2025-05-24T00:37:00.039219
14417,-0.2220,0.9365,0.2596,4.830,-0.770,-3.710,128,290,209,184,203,2025-05-24T00:37:00.039299
14418,-0.2362,0.9316,0.2591,5.180,-1.820,-4.480,128,284,211,185,206,2025-05-24T00:37:00.039309
14419,-0.2450,0.9316,0.2645,5.110,-3.080,-5.110,128,288,209,185,203,2025-05-24T00:37:00.039319
14420,-0.2489,0.9243,0.2630,4.830,-3.850,-5.460,128,297,209,164,196,2025-05-24T00:37:00.125939
14421,-0.2440,0.9199,0.2586,5.670,-3.570,-5.670,128,282,205,183,201,2025-05-24T00:37:00.125991
14422,-0.2469,0.9184,0.2552,6.790,-2.170,-5.740,128,250,215,164,208,2025-05-24T00:37:00.126006
14423,-0.2577,0.9189,0.2528,7.630,-1.750,-5.950,128,246,212,182,203,2025-05-24T00:37:00.126017
14424,-0.2708,0.9140,0.2489,8.120,-3.430,-6.020,129,260,209,183,210,2025-05-24T00:37:00.126058
14425,-0.2752,0.9121,0.2518,8.120,-5.670,-6.720,128,276,211,188,208,2025-05-24T00:37:00.246797
14426,-0.2645,0.9111,0.2494,8.330,-6.440,-7.280,128,269,207,187,208,2025-05-24T00:37:00.246852
14427,-0.2547,0.9130,0.2455,8.610,-6.160,-7.630,128,278,206,180,209,2025-05-24T00:37:00.246868
14428,-0.2557,0.9116,0.2425,9.940,-5.670,-8.330,128,266,186,189,207,2025-05-24T00:37:00.246880
14429,-0.2586,0.9199,0.2377,11.620,-5.740,-8.820,129,278,207,164,192,2025-05-24T00:37:00.246892
14430,-0.2640,0.9179,0.2386,11.690,-6.440,-9.590,128,257,213,183,205,2025-05-24T00:37:00.246903
14431,-0.2718,0.9091,0.2362,11.620,-7.630,-10.220,128,281,209,164,212,2025-05-24T00:37:00.246916
14432,-0.2752,0.9101,0.2357,12.250,-9.170,-10.220,128,268,209,178,207,2025-05-24T00:37:00.246928
14433,-0.2689,0.9140,0.2225,13.300,-8.470,-10.010,128,292,207,185,203,2025-05-24T00:37:00.246939
14434,-0.2684,0.9218,0.2250,14.840,-7.070,-9.030,128,261,209,183,201,2025-05-24T00:37:00.246950
14435,-0.2689,0.9331,0.2230,15.120,-5.880,-8.610,128,260,202,180,203,2025-05-24T00:37:00.246960
14436,-0.2728,0.9370,0.2176,15.050,-5.740,-7.980,128,274,213,185,202,2025-05-24T00:37:00.246970
14437,-0.2747,0.9335,0.2157,14.560,-6.090,-7.350,129,275,203,181,209,2025-05-24T00:37:00.496166
14438,-0.2669,0.9355,0.2181,14.770,-6.580,-6.930,128,296,212,185,188,2025-05-24T00:37:00.496214
14439,-0.2489,0.9340,0.2250,14.560,-6.230,-7.210,128,283,211,186,202,2025-05-24T00:37:00.496227
14440,-0.2342,0.9331,0.2274,14.420,-5.180,-7.770,128,301,184,179,208,2025-05-24T00:37:00.496238
14441,-0.2333,0.9350,0.2328,15.120,-4.340,-8.890,128,287,201,186,207,2025-05-24T00:37:00.496248
14442,-0.2333,0.9370,0.2386,16.100,-4.060,-9.800,128,278,212,188,191,2025-05-24T00:37:00.496259
14443,-0.2347,0.9331,0.2377,16.660,-3.990,-10.920,128,258,215,184,202,2025-05-24T00:37:00.496268
14444,-0.2372,0.9335,0.2362,17.220,-4.060,-11.690,129,276,206,188,197,2025-05-24T00:37:00.496278
14445,-0.2425,0.9287,0.2318,17.990,-3.500,-12.460,128,274,214,181,203,2025-05-24T00:37:00.496287
14446,-0.2479,0.9218,0.2298,18.760,-2.940,-13.440,129,263,203,164,204,2025-05-24T00:37:00.496297
14447,-0.2411,0.9204,0.2225,19.530,-2.590,-14.140,129,276,213,178,204,2025-05-24T00:37:00.496306
14448,-0.2450,0.9194,0.2142,19.950,-2.170,-15.680,128,288,212,174,205,2025-05-24T00:37:00.496315
14449,-0.2479,0.9199,0.2118,21.070,-2.660,-17.080,129,265,211,184,205,2025-05-24T00:37:00.496325
14450,-0.2538,0.9262,0.2045,22.540,-3.010,-18.270,129,303,204,188,191,2025-05-24T00:37:00.496333
14451,-0.2582,0.9374,0.2020,22.750,-2.590,-19.950,129,285,202,185,202,2025-05-24T00:37:00.496376
14452,-0.2567,0.9423,0.1991,22.820,-2.450,-21.280,128,297,207,187,203,2025-05-24T00:37:00.496385
14453,-0.2557,0.9565,0.1830,23.450,-1.330,-21.910,129,258,212,185,209,2025-05-24T00:37:00.496394
14454,-0.2528,0.9614,0.1679,24.640,0.840,-22.330,129,296,208,181,188,2025-05-24T00:37:00.581415
14455,-0.2635,0.9579,0.1552,25.060,1.960,-22.820,129,293,207,185,205,2025-05-24T00:37:00.581463
14456,-0.2782,0.9584,0.1459,24.640,1.750,-22.890,128,258,215,187,209,2025-05-24T00:37:00.581476
14457,-0.2933,0.9643,0.1371,23.100,1.470,-22.820,129,282,213,179,190,2025-05-24T00:37:00.581487
14458,-0.3006,0.9697,0.1254,21.770,2.100,-22.330,129,243,203,183,204,2025-05-24T00:37:00.581497
14459,-0.3070,0.9687,0.1118,21.490,3.920,-21.420,129,295,186,179,205,2025-05-24T00:37:00.581508
14460,-0.3138,0.9706,0.1039,21.350,6.160,-20.160,129,276,202,186,205,2025-05-24T00:37:00.581522
14461,-0.3226,0.9775,0.1039,20.090,7.560,-19.040,129,302,213,187,203,2025-05-24T00:37:00.581533
14462,-0.3338,0.9775,0.1020,17.640,7.910,-18.970,129,280,211,185,202,2025-05-24T00:37:00.581542
14463,-0.3333,0.9780,0.1054,15.820,7.070,-18.410,128,274,213,174,204,2025-05-24T00:37:00.581551
14464,-0.3362,0.9794,0.1039,14.560,7.000,-18.410,129,292,192,187,197,2025-05-24T00:37:00.581560
14465,-0.3440,0.9784,0.1035,14.560,7.280,-18.060,130,295,210,180,192,2025-05-24T00:37:00.670424
14466,-0.3597,0.9750,0.1005,14.840,7.140,-17.570,129,298,212,183,201,2025-05-24T00:37:00.670478
14467,-0.3782,0.9711,0.1000,14.210,6.300,-17.150,129,292,191,186,209,2025-05-24T00:37:00.670492
14468,-0.3933,0.9604,0.1000,12.740,5.390,-16.590,129,227,202,165,207,2025-05-24T00:37:00.670504
14469,-0.3987,0.9526,0.0952,11.690,4.760,-15.820,129,293,203,182,208,2025-05-24T00:37:00.670645
14470,-0.4060,0.9487,0.0922,10.570,4.900,-14.490,129,290,192,187,204,2025-05-24T00:37:00.670657
14471,-0.4026,0.9448,0.0883,9.590,5.180,-13.370,129,297,186,186,210,2025-05-24T00:37:00.670668
14472,-0.3997,0.9433,0.0864,9.170,5.390,-12.320,129,291,213,172,193,2025-05-24T00:37:00.670680
14473,-0.3997,0.9394,0.0825,8.330,5.670,-11.830,130,292,197,180,203,2025-05-24T00:37:00.851079
14474,-0.3963,0.9409,0.0776,8.400,6.020,-11.480,129,295,202,183,207,2025-05-24T00:37:00.851136
14475,-0.3958,0.9379,0.0747,8.050,6.300,-10.990,129,280,175,181,202,2025-05-24T00:37:00.851199
14476,-0.3987,0.9316,0.0732,6.930,6.370,-10.850,130,293,204,181,211,2025-05-24T00:37:00.851213
14477,-0.4006,0.9223,0.0732,6.440,5.530,-10.640,130,284,214,181,195,2025-05-24T00:37:00.851225
14478,-0.3997,0.9130,0.0791,6.300,4.620,-10.640,130,287,204,179,202,2025-05-24T00:37:00.851238
14479,-0.4026,0.8984,0.0874,6.720,3.640,-10.780,129,295,200,182,196,2025-05-24T00:37:00.851249
14480,-0.3982,0.9004,0.0917,7.700,3.080,-10.360,129,295,214,186,208,2025-05-24T00:37:00.851260
14481,-0.3943,0.9052,0.0874,8.260,5.110,-10.010,129,294,199,179,189,2025-05-24T00:37:00.851271
14482,-0.3958,0.9096,0.0805,8.890,8.330,-10.080,118,257,205,175,192,2025-05-24T00:37:00.851282
14483,-0.4055,0.9145,0.0717,9.380,9.450,-10.290,119,271,195,177,198,2025-05-24T00:37:00.851293
14484,-0.4163,0.9150,0.0586,9.100,8.750,-10.290,119,289,197,180,196,2025-05-24T00:37:00.851303
14485,-0.4182,0.9121,0.0493,8.120,7.000,-10.360,121,259,198,175,197,2025-05-24T00:37:00.851313
14486,-0.4197,0.9057,0.0454,7.280,5.040,-10.430,121,275,203,159,184,2025-05-24T00:37:00.851324
14487,-0.4109,0.9013,0.0478,7.070,4.270,-10.150,121,238,207,158,197,2025-05-24T00:37:00.851376
14488,-0.4070,0.8969,0.0537,7.490,4.550,-9.870,121,276,209,173,196,2025-05-24T00:37:01.053514
14489,-0.4036,0.9062,0.0639,8.540,4.270,-10.080,122,294,197,175,196,2025-05-24T00:37:01.053544
14490,-0.4060,0.9057,0.0693,8.540,4.480,-10.290,122,247,196,176,191,2025-05-24T00:37:01.053551
14491,-0.4124,0.9091,0.0683,9.030,5.040,-10.710,122,276,197,159,200,2025-05-24T00:37:01.053557
14492,-0.4187,0.9140,0.0669,9.520,5.810,-10.710,121,293,204,178,184,2025-05-24T00:37:01.053562
14493,-0.4348,0.9082,0.0586,9.800,6.370,-10.990,121,242,207,174,184,2025-05-24T00:37:01.053567
14494,-0.4436,0.9013,0.0420,8.260,6.370,-10.430,121,278,209,179,200,2025-05-24T00:37:01.053573
14495,-0.4475,0.8935,0.0415,6.930,4.970,-10.290,121,261,205,178,201,2025-05-24T00:37:01.053579
14496,-0.4402,0.8950,0.0444,7.140,3.220,-9.940,121,244,210,181,186,2025-05-24T00:37:01.053584
14497,-0.4338,0.8911,0.0454,8.540,2.380,-9.800,122,279,201,179,202,2025-05-24T00:37:01.053589
14498,-0.4299,0.8945,0.0444,9.100,1.470,-10.220,122,275,205,174,203,2025-05-24T00:37:01.053594
14499,-0.4285,0.9004,0.0459,10.570,1.120,-10.710,122,279,199,174,198,2025-05-24T00:37:01.053599
14500,-0.4353,0.9008,0.0351,11.270,1.400,-11.200,122,293,203,157,184,2025-05-24T00:37:01.053607
14501,-0.4460,0.8950,0.0356,12.180,1.260,-11.550,122,285,202,179,199,2025-05-24T00:37:01.053612
14502,-0.4524,0.8901,0.0293,12.180,1.330,-11.760,122,293,206,181,198,2025-05-24T00:37:01.053635
14503,-0.4524,0.8867,0.0239,11.760,1.610,-11.760,122,287,202,167,195,2025-05-24T00:37:01.053641
14504,-0.4490,0.8755,0.0176,11.900,1.750,-11.620,121,285,198,178,187,2025-05-24T00:37:01.053645
14505,-0.4504,0.8764,0.0166,12.880,1.750,-11.410,121,277,206,175,201,2025-05-24T00:37:01.295994
14506,-0.4490,0.8808,0.0273,13.860,0.630,-11.480,122,282,205,181,202,2025-05-24T00:37:01.296021
14507,-0.4597,0.8711,0.0317,15.120,-2.520,-13.090,122,293,207,175,202,2025-05-24T00:37:01.296027
14508,-0.4587,0.8642,0.0356,16.450,-6.440,-14.490,122,246,208,172,199,2025-05-24T00:37:01.296033
14509,-0.4451,0.8633,0.0249,18.270,-6.790,-15.750,122,269,205,180,191,2025-05-24T00:37:01.296038
14510,-0.4241,0.8628,0.0132,19.320,-4.270,-16.660,122,295,196,173,202,2025-05-24T00:37:01.296042
14511,-0.4202,0.8633,0.0005,19.250,0.700,-17.150,122,290,206,171,184,2025-05-24T00:37:01.296059
14512,-0.4387,0.8628,-0.0073,18.200,4.830,-17.360,121,274,202,173,204,2025-05-24T00:37:01.465287
14513,-0.4607,0.8662,-0.0127,16.940,5.250,-17.430,121,286,204,173,196,2025-05-24T00:37:01.465325
14514,-0.4709,0.8745,-0.0171,16.380,2.870,-17.850,122,297,197,158,202,2025-05-24T00:37:01.465338
14515,-0.4665,0.8823,-0.0254,15.750,1.820,-17.640,123,286,197,175,192,2025-05-24T00:37:01.465349
14516,-0.4631,0.8818,-0.0346,16.170,2.310,-17.220,123,271,210,176,201,2025-05-24T00:37:01.465359
14517,-0.4704,0.8779,-0.0386,17.360,3.010,-16.380,134,299,189,186,211,2025-05-24T00:37:01.465368
14518,-0.4778,0.8735,-0.0429,18.340,3.080,-15.610,135,293,199,182,196,2025-05-24T00:37:01.465377
14519,-0.4817,0.8740,-0.0454,17.850,3.430,-14.840,136,281,212,193,199,2025-05-24T00:37:01.465445
14520,-0.4773,0.8779,-0.0468,16.940,4.690,-13.580,135,291,190,181,207,2025-05-24T00:37:01.465455
14521,-0.4738,0.8828,-0.0493,16.240,6.790,-12.390,135,295,207,185,193,2025-05-24T00:37:01.465464
14522,-0.4787,0.8833,-0.0498,16.170,8.050,-11.760,136,303,207,169,192,2025-05-24T00:37:01.479899
14523,-0.4797,0.8808,-0.0556,16.870,7.490,-11.480,136,297,190,189,199,2025-05-24T00:37:01.479947
14524,-0.4773,0.8794,-0.0649,17.780,6.720,-11.410,135,304,208,188,193,2025-05-24T00:37:01.479960
14525,-0.4743,0.8804,-0.0717,17.640,7.000,-11.130,135,291,207,192,207,2025-05-24T00:37:01.479971
14526,-0.4860,0.8701,-0.0771,17.220,7.490,-11.200,135,284,215,190,214,2025-05-24T00:37:01.479981
14527,-0.4919,0.8672,-0.0820,17.080,7.210,-10.710,135,300,192,180,196,2025-05-24T00:37:01.479992
14528,-0.4973,0.8638,-0.0825,16.450,7.630,-10.220,135,306,197,192,213,2025-05-24T00:37:01.480003
14529,-0.5007,0.8628,-0.0776,15.610,8.400,-10.290,136,301,205,186,207,2025-05-24T00:37:01.480012
14530,-0.4973,0.8638,-0.0727,15.050,8.680,-10.360,135,284,210,164,216,2025-05-24T00:37:01.480021
14531,-0.5041,0.8594,-0.0766,15.120,8.400,-11.270,136,291,213,192,218,2025-05-24T00:37:01.480030
14532,-0.5109,0.8545,-0.0742,15.960,7.070,-11.620,136,253,213,185,212,2025-05-24T00:37:01.480039
14533,-0.5187,0.8540,-0.0791,16.940,5.670,-12.460,136,304,211,178,200,2025-05-24T00:37:01.480048
14534,-0.5246,0.8491,-0.0830,16.800,4.270,-13.650,135,296,215,181,212,2025-05-24T00:37:01.480057
14535,-0.5334,0.8389,-0.0834,16.590,1.260,-14.980,135,278,203,190,194,2025-05-24T00:37:01.480066
14536,-0.5436,0.8228,-0.0898,16.660,-2.380,-17.500,136,286,215,186,209,2025-05-24T00:37:01.480112
14537,-0.5519,0.8223,-0.0903,16.870,-5.320,-19.530,135,250,217,189,206,2025-05-24T00:37:01.480122
14538,-0.5568,0.8159,-0.0991,16.450,-6.720,-21.070,136,283,217,190,211,2025-05-24T00:37:01.480131
14539,-0.5549,0.8169,-0.1093,16.380,-5.810,-22.610,136,276,216,192,199,2025-05-24T00:37:01.480139
14540,-0.5461,0.8242,-0.1157,16.170,-3.360,-23.590,136,261,215,190,212,2025-05-24T00:37:01.480148
14541,-0.5422,0.8291,-0.1308,15.680,2.380,-24.150,136,302,208,190,213,2025-05-24T00:37:01.667072
14542,-0.5480,0.8345,-0.1488,14.280,5.390,-24.570,136,277,211,168,204,2025-05-24T00:37:01.667114
14543,-0.5607,0.8374,-0.1606,13.160,6.090,-24.430,136,268,213,171,199,2025-05-24T00:37:01.667125
14544,-0.5685,0.8442,-0.1659,11.620,4.620,-24.570,136,296,210,191,202,2025-05-24T00:37:01.667135
14545,-0.5744,0.8452,-0.1703,10.150,1.680,-24.080,136,276,204,185,207,2025-05-24T00:37:01.667143
14546,-0.5797,0.8467,-0.1786,9.520,-0.280,-23.240,136,265,205,190,215,2025-05-24T00:37:01.667152
14547,-0.5744,0.8501,-0.1771,8.890,-0.210,-21.700,136,286,216,185,208,2025-05-24T00:37:01.667161
14548,-0.5768,0.8418,-0.1850,9.240,0.770,-19.880,136,269,215,184,208,2025-05-24T00:37:01.667168
14549,-0.5827,0.8452,-0.1820,10.080,3.640,-17.710,137,299,209,185,202,2025-05-24T00:37:01.667176
14550,-0.5978,0.8462,-0.1840,10.360,6.440,-15.190,137,285,208,189,207,2025-05-24T00:37:01.667184
14551,-0.6124,0.8477,-0.1723,9.800,6.720,-12.810,136,269,216,185,213,2025-05-24T00:37:01.667191
14552,-0.6198,0.8447,-0.1703,8.820,5.110,-11.270,136,252,208,193,210,2025-05-24T00:37:01.667199
14553,-0.6242,0.8433,-0.1693,8.260,3.010,-9.870,136,274,192,190,215,2025-05-24T00:37:01.667206
14554,-0.6163,0.8394,-0.1718,8.820,0.770,-8.330,137,271,218,185,197,2025-05-24T00:37:01.667387
14555,-0.6105,0.8355,-0.1728,9.450,0.070,-6.720,136,304,200,192,211,2025-05-24T00:37:01.667422
14556,-0.6007,0.8335,-0.1762,9.310,0.630,-5.040,136,261,209,189,208,2025-05-24T00:37:01.873674
14557,-0.5924,0.8306,-0.1762,8.820,2.240,-3.500,136,264,213,188,201,2025-05-24T00:37:01.873727
14558,-0.6046,0.8281,-0.1747,7.700,3.150,-2.590,136,269,209,189,214,2025-05-24T00:37:01.873741
14559,-0.6110,0.8316,-0.1684,7.280,2.240,-2.170,137,276,201,184,211,2025-05-24T00:37:01.873753
14560,-0.6139,0.8320,-0.1723,6.300,0.350,-1.820,137,279,218,186,214,2025-05-24T00:37:01.873764
14561,-0.6061,0.8325,-0.1732,5.180,-0.560,-1.540,137,284,207,192,215,2025-05-24T00:37:01.873776
14562,-0.5968,0.8262,-0.1806,4.760,-0.140,-1.260,137,282,211,188,216,2025-05-24T00:37:01.873787
14563,-0.6022,0.8247,-0.1893,5.180,0.560,-1.050,137,295,215,186,211,2025-05-24T00:37:01.873798
14564,-0.6041,0.8242,-0.1952,5.390,0.490,-0.630,136,289,215,185,210,2025-05-24T00:37:01.873808
14565,-0.6120,0.8233,-0.2001,4.340,-0.350,-0.350,137,295,220,170,217,2025-05-24T00:37:01.873819
14566,-0.6120,0.8218,-0.2050,3.010,-1.890,-0.490,137,250,215,184,217,2025-05-24T00:37:01.873829
14567,-0.6080,0.8198,-0.2025,2.030,-3.220,-0.560,137,289,215,191,201,2025-05-24T00:37:01.873839
14568,-0.6071,0.8164,-0.2064,1.050,-3.990,-0.700,137,293,216,180,214,2025-05-24T00:37:01.873848
14569,-0.5993,0.8096,-0.2108,0.280,-3.850,-0.840,137,297,211,193,211,2025-05-24T00:37:01.873857
14570,-0.5934,0.8140,-0.2069,-0.140,-3.150,-0.280,136,261,217,189,195,2025-05-24T00:37:01.873904
14571,-0.5924,0.8091,-0.2035,-0.770,-2.660,-0.280,136,273,209,188,197,2025-05-24T00:37:01.873915
14572,-0.6012,0.8003,-0.2054,-0.980,-3.850,-0.140,137,298,214,165,211,2025-05-24T00:37:01.873925
14573,-0.6017,0.8013,-0.1981,-0.980,-5.460,0.210,137,248,204,184,201,2025-05-24T00:37:02.114180
14574,-0.5880,0.8013,-0.1908,-1.540,-5.320,0.350,136,227,207,190,202,2025-05-24T00:37:02.114231
14575,-0.5866,0.7910,-0.1923,-1.610,-4.830,0.700,137,291,216,165,214,2025-05-24T00:37:02.114244
14576,-0.5841,0.7959,-0.1869,-1.050,-4.480,1.190,137,280,207,193,197,2025-05-24T00:37:02.114255
14577,-0.5876,0.7915,-0.1771,-1.190,-4.970,1.120,138,298,211,187,208,2025-05-24T00:37:02.114265
14578,-0.5841,0.7886,-0.1737,-0.840,-6.300,1.260,137,291,213,170,214,2025-05-24T00:37:02.114275
14579,-0.5768,0.7906,-0.1703,-0.420,-6.930,1.190,137,289,210,187,214,2025-05-24T00:37:02.114286
14580,-0.5739,0.7896,-0.1723,0.770,-6.160,0.910,137,247,216,182,216,2025-05-24T00:37:02.114752
14581,-0.5754,0.7871,-0.1801,2.380,-5.460,1.260,137,294,179,188,198,2025-05-24T00:37:02.114765
14582,-0.5729,0.7906,-0.1810,3.290,-4.410,1.330,136,262,218,189,214,2025-05-24T00:37:02.114775
14583,-0.5744,0.7915,-0.1815,2.730,-3.990,1.330,137,282,211,192,215,2025-05-24T00:37:02.114785
14584,-0.5866,0.7906,-0.1806,2.590,-5.040,0.980,137,226,219,191,215,2025-05-24T00:37:02.114794
14585,-0.5861,0.7930,-0.1820,2.310,-6.720,0.910,136,267,215,192,185,2025-05-24T00:37:02.114802
14586,-0.5788,0.7910,-0.1830,2.520,-6.930,0.630,137,284,218,186,203,2025-05-24T00:37:02.114811
14587,-0.5695,0.7979,-0.1879,2.940,-5.600,0.980,136,299,209,185,214,2025-05-24T00:37:02.114860
14588,-0.5700,0.8052,-0.1884,3.150,-3.080,1.190,136,281,216,184,217,2025-05-24T00:37:02.114871
14589,-0.5763,0.8008,-0.1937,3.010,-2.590,1.120,136,278,212,185,216,2025-05-24T00:37:02.114880
14590,-0.5807,0.8013,-0.1932,2.520,-3.990,0.770,136,231,213,185,211,2025-05-24T00:37:02.114889
14591,-0.5705,0.8008,-0.1942,2.030,-4.760,0.700,137,246,218,186,217,2025-05-24T00:37:02.114898
14592,-0.5651,0.8018,-0.1923,1.610,-4.410,0.420,137,245,217,190,218,2025-05-24T00:37:02.114908
14593,-0.5646,0.8023,-0.1864,1.680,-3.710,0.420,137,290,216,189,214,2025-05-24T00:37:02.290492
14594,-0.5705,0.8008,-0.1796,1.190,-3.290,0.630,137,274,213,190,219,2025-05-24T00:37:02.290525
14595,-0.5680,0.8013,-0.1762,0.910,-3.080,0.770,137,283,216,179,216,2025-05-24T00:37:02.290534
14596,-0.5636,0.8037,-0.1737,0.910,-2.590,0.700,137,289,218,185,213,2025-05-24T00:37:02.290541
14597,-0.5539,0.8057,-0.1688,1.260,-1.820,0.280,137,287,213,184,183,2025-05-24T00:37:02.290548
14598,-0.5549,0.8111,-0.1762,1.610,-1.400,0.210,138,294,214,188,202,2025-05-24T00:37:02.290554
14599,-0.5568,0.8101,-0.1781,1.190,-0.840,-0.280,137,277,190,188,202,2025-05-24T00:37:02.290561
14600,-0.5632,0.8072,-0.1767,0.490,-1.050,-0.630,137,296,179,186,182,2025-05-24T00:37:02.290567
14601,-0.5705,0.8091,-0.1737,0.210,-1.470,-0.770,137,248,208,180,210,2025-05-24T00:37:02.290573
14602,-0.5695,0.8076,-0.1723,-0.140,-1.260,-1.050,137,283,213,188,218,2025-05-24T00:37:02.290579
14603,-0.5739,0.8086,-0.1728,-0.350,-0.980,-1.260,137,282,217,190,210,2025-05-24T00:37:02.290585
14604,-0.5836,0.8111,-0.1732,0.070,-0.630,-1.470,136,275,213,183,214,2025-05-24T00:37:02.290591
14605,-0.5924,0.8115,-0.1752,0.280,-0.980,-1.260,136,231,191,186,214,2025-05-24T00:37:02.290597
14606,-0.6032,0.8101,-0.1703,0.070,-2.310,-1.050,137,276,191,169,215,2025-05-24T00:37:02.290602
14607,-0.6100,0.8081,-0.1688,-0.560,-3.570,-0.700,136,277,213,193,213,2025-05-24T00:37:02.290630
14608,-0.6154,0.8037,-0.1674,-0.490,-4.550,-0.140,137,285,213,184,212,2025-05-24T00:37:02.488897
14609,-0.6066,0.8037,-0.1684,0.280,-4.270,0.420,137,295,207,190,215,2025-05-24T00:37:02.488945
14610,-0.6066,0.8047,-0.1723,0.630,-3.360,1.050,136,278,213,185,196,2025-05-24T00:37:02.488962
14611,-0.6115,0.8047,-0.1728,0.350,-3.990,1.750,136,267,214,183,214,2025-05-24T00:37:02.488973
14612,-0.6080,0.8062,-0.1674,0.070,-5.670,2.240,137,284,214,187,207,2025-05-24T00:37:02.488984
14613,-0.5939,0.8028,-0.1664,-0.490,-6.580,2.380,137,292,205,191,214,2025-05-24T00:37:02.488993
14614,-0.5827,0.7974,-0.1713,-0.490,-7.140,2.100,137,249,209,169,210,2025-05-24T00:37:02.489003
14615,-0.5661,0.8037,-0.1649,-0.420,-6.860,1.820,137,298,217,192,216,2025-05-24T00:37:02.489013
14616,-0.5636,0.8008,-0.1698,-0.910,-6.090,1.190,137,296,217,169,210,2025-05-24T00:37:02.489022
14617,-0.5612,0.8023,-0.1649,-0.910,-6.090,0.910,137,284,190,183,214,2025-05-24T00:37:02.489032
14618,-0.5636,0.8042,-0.1659,-0.980,-6.020,0.490,137,284,217,189,210,2025-05-24T00:37:02.489041
14619,-0.5617,0.8052,-0.1674,-1.330,-5.670,-0.350,137,260,213,190,215,2025-05-24T00:37:02.489052
14620,-0.5588,0.8067,-0.1684,-1.400,-4.970,-0.420,137,288,198,187,211,2025-05-24T00:37:02.489061
14621,-0.5632,0.8047,-0.1698,-1.330,-4.270,-0.630,137,304,192,188,215,2025-05-24T00:37:02.489069
14622,-0.5700,0.7998,-0.1688,-0.980,-4.130,-0.910,137,275,205,190,213,2025-05-24T00:37:02.489111
14623,-0.5724,0.8003,-0.1659,-0.700,-4.760,-0.770,137,288,217,186,198,2025-05-24T00:37:02.489121
14624,-0.5758,0.7998,-0.1688,-1.260,-4.760,-0.630,137,252,211,190,197,2025-05-24T00:37:02.489130
14625,-0.5739,0.8003,-0.1679,-1.330,-4.060,-0.140,137,295,208,184,204,2025-05-24T00:37:02.694592
14626,-0.5783,0.8018,-0.1669,-0.910,-3.290,0.420,137,298,218,186,218,2025-05-24T00:37:02.694643
14627,-0.5871,0.8067,-0.1659,-0.350,-3.360,0.770,138,294,221,187,198,2025-05-24T00:37:02.694658
14628,-0.5841,0.8072,-0.1630,-0.490,-3.990,1.400,138,288,208,183,212,2025-05-24T00:37:02.694670
14629,-0.5812,0.8037,-0.1688,-0.770,-4.060,1.750,137,290,216,170,215,2025-05-24T00:37:02.694681
14630,-0.5710,0.8052,-0.1684,-0.140,-3.430,2.030,137,282,199,190,185,2025-05-24T00:37:02.694691
14631,-0.5641,0.8062,-0.1674,0.070,-2.660,2.100,137,301,217,164,215,2025-05-24T00:37:02.694706
14632,-0.5617,0.7993,-0.1659,-0.630,-2.520,1.820,137,293,208,188,216,2025-05-24T00:37:02.694716
14633,-0.5627,0.7979,-0.1649,-0.490,-3.150,1.960,137,295,214,184,203,2025-05-24T00:37:02.694726
14634,-0.5632,0.8023,-0.1630,0.140,-3.360,1.470,137,283,213,190,212,2025-05-24T00:37:02.694736
14635,-0.5622,0.8067,-0.1630,0.280,-2.590,0.840,136,281,214,193,215,2025-05-24T00:37:02.694746
14636,-0.5680,0.8057,-0.1649,-0.280,-2.240,0.350,137,296,214,184,214,2025-05-24T00:37:02.694756
14637,-0.5739,0.8076,-0.1649,-0.700,-2.310,0.070,137,283,215,185,214,2025-05-24T00:37:02.694765
14638,-0.5802,0.8042,-0.1718,-0.560,-2.870,-0.070,137,280,201,183,216,2025-05-24T00:37:02.694777
14639,-0.5822,0.8023,-0.1713,-0.350,-3.430,0.280,137,296,214,185,210,2025-05-24T00:37:02.695326
14640,-0.5797,0.8028,-0.1693,-0.490,-3.430,0.490,138,294,196,184,211,2025-05-24T00:37:02.695347
14641,-0.5763,0.8032,-0.1703,-0.770,-3.290,0.490,137,293,213,171,212,2025-05-24T00:37:02.695359
14642,-0.5744,0.8028,-0.1708,-0.630,-2.940,0.630,137,250,215,184,216,2025-05-24T00:37:02.743981
14643,-0.5700,0.8072,-0.1684,-0.280,-2.800,0.700,137,291,209,184,216,2025-05-24T00:37:02.744040
14644,-0.5700,0.8042,-0.1669,0.350,-2.800,0.420,138,296,217,183,210,2025-05-24T00:37:02.744056
14645,-0.5641,0.8072,-0.1728,0.070,-3.360,-0.420,137,251,215,184,215,2025-05-24T00:37:02.744070
14646,-0.5636,0.8096,-0.1723,0.000,-3.010,-0.770,138,297,213,189,212,2025-05-24T00:37:02.824403
14647,-0.5719,0.8067,-0.1742,-0.490,-2.450,-0.770,137,294,210,185,201,2025-05-24T00:37:02.824451
14648,-0.5763,0.8101,-0.1703,-0.700,-2.800,-0.560,137,297,218,186,209,2025-05-24T00:37:02.824465
14649,-0.5754,0.8086,-0.1708,-0.980,-3.080,-0.630,137,301,216,184,202,2025-05-24T00:37:02.824475
14650,-0.5710,0.8081,-0.1737,-1.050,-2.940,-0.560,137,302,199,185,194,2025-05-24T00:37:02.824489
14651,-0.5700,0.8091,-0.1698,-1.120,-2.380,-0.070,137,297,190,188,212,2025-05-24T00:37:03.011091
14652,-0.5714,0.8076,-0.1645,-1.400,-2.170,0.140,137,284,216,185,213,2025-05-24T00:37:03.011131
14653,-0.5710,0.8076,-0.1586,-1.540,-2.730,0.140,137,281,212,192,202,2025-05-24T00:37:03.011142
14654,-0.5675,0.8028,-0.1591,-1.260,-3.220,0.210,137,276,217,189,215,2025-05-24T00:37:03.011150
14655,-0.5646,0.8052,-0.1542,-0.420,-2.730,0.210,138,293,208,170,208,2025-05-24T00:37:03.011159
14656,-0.5651,0.8052,-0.1523,-0.140,-2.030,0.140,137,285,190,191,212,2025-05-24T00:37:03.011168
14657,-0.5734,0.8057,-0.1518,-0.140,-1.960,-0.070,137,283,218,193,213,2025-05-24T00:37:03.011176
14658,-0.5768,0.8067,-0.1591,0.210,-2.450,0.140,137,296,192,179,209,2025-05-24T00:37:03.011184
14659,-0.5793,0.8111,-0.1625,0.630,-2.800,0.350,137,283,216,183,214,2025-05-24T00:37:03.011192
14660,-0.5768,0.8106,-0.1679,0.560,-2.940,0.700,137,264,211,192,212,2025-05-24T00:37:03.011199
14661,-0.5778,0.8076,-0.1713,0.770,-3.290,1.050,137,290,217,170,214,2025-05-24T00:37:03.011207
14662,-0.5749,0.8115,-0.1679,0.700,-3.220,1.400,137,295,212,185,197,2025-05-24T00:37:03.172603
14663,-0.5719,0.8111,-0.1723,0.490,-2.800,1.330,137,250,216,184,214,2025-05-24T00:37:03.172634
14664,-0.5714,0.8096,-0.1723,-0.140,-2.940,1.330,137,297,208,183,215,2025-05-24T00:37:03.172643
14665,-0.5788,0.8062,-0.1737,-0.770,-3.570,0.980,138,280,194,183,209,2025-05-24T00:37:03.172702
14666,-0.5768,0.8067,-0.1728,-0.700,-4.060,1.400,138,295,210,183,197,2025-05-24T00:37:03.172712
14667,-0.5675,0.8047,-0.1742,-0.630,-3.780,1.680,137,280,212,190,199,2025-05-24T00:37:03.172720
14668,-0.5583,0.8101,-0.1713,-0.490,-2.520,1.680,137,284,215,170,214,2025-05-24T00:37:03.172727
14669,-0.5607,0.8081,-0.1688,-0.280,-1.610,1.470,137,278,216,185,216,2025-05-24T00:37:03.172734
14670,-0.5671,0.8072,-0.1654,-0.070,-1.890,1.260,137,285,216,189,209,2025-05-24T00:37:03.172742
14671,-0.5666,0.8106,-0.1601,-0.420,-2.940,1.190,137,287,190,184,212,2025-05-24T00:37:03.172749
14672,-0.5636,0.8081,-0.1601,-1.050,-3.290,0.630,137,296,191,185,196,2025-05-24T00:37:03.172757
14673,-0.5583,0.8086,-0.1562,-0.630,-2.940,0.560,137,295,215,171,183,2025-05-24T00:37:03.306536
14674,-0.5617,0.8115,-0.1532,-0.210,-1.960,0.560,136,226,213,190,212,2025-05-24T00:37:03.306581
14675,-0.5661,0.8125,-0.1547,-0.140,-1.750,0.700,137,281,189,184,217,2025-05-24T00:37:03.306594
14676,-0.5749,0.8106,-0.1547,0.070,-2.100,0.700,137,292,213,189,195,2025-05-24T00:37:03.306604
14677,-0.5671,0.8111,-0.1566,0.560,-2.380,1.190,137,293,215,170,208,2025-05-24T00:37:03.306614
14678,-0.5675,0.8091,-0.1635,1.260,-2.100,1.120,137,294,215,187,197,2025-05-24T00:37:03.306623
14679,-0.5724,0.8154,-0.1679,1.400,-2.450,1.120,136,302,203,192,208,2025-05-24T00:37:03.306631
14680,-0.5724,0.8184,-0.1732,0.560,-2.660,0.980,136,279,212,191,210,2025-05-24T00:37:03.306640
14681,-0.5773,0.8179,-0.1737,-17.920,-3.010,1.190,137,277,209,188,210,2025-05-24T00:37:03.306649
14682,-0.5739,0.8189,-0.1752,-0.210,-2.870,1.120,136,231,215,181,207,2025-05-24T00:37:03.306658
14683,-0.5724,0.8184,-0.1762,-0.420,-2.660,1.260,137,287,216,170,210,2025-05-24T00:37:03.306666
14684,-0.5710,0.8164,-0.1742,-1.050,-2.730,1.120,137,290,218,191,212,2025-05-24T00:37:03.306675
14685,-0.5690,0.8125,-0.1669,-1.540,-3.430,1.540,136,295,188,193,211,2025-05-24T00:37:03.306683
14686,-0.5636,0.8111,-0.1635,-1.960,-3.920,1.260,136,276,217,187,210,2025-05-24T00:37:03.306691
14687,-0.5573,0.8062,-0.1601,-1.890,-3.990,0.840,137,280,212,181,199,2025-05-24T00:37:03.306730
14688,-0.5549,0.8130,-0.1610,-1.120,-3.920,0.980,137,289,209,183,196,2025-05-24T00:37:03.306738
14689,-0.5524,0.8159,-0.1562,-0.910,-3.080,0.770,136,275,208,191,213,2025-05-24T00:37:03.306747
14690,-0.5558,0.8125,-0.1557,-0.630,-2.730,0.840,137,300,210,179,196,2025-05-24T00:37:03.306755
14691,-0.5544,0.8135,-0.1542,-0.350,-2.590,0.770,137,284,202,189,213,2025-05-24T00:37:03.306763
14692,-0.5641,0.8072,-0.1581,0.070,-2.240,0.420,137,280,179,186,211,2025-05-24T00:37:03.306773
14693,-0.5612,0.8135,-0.1566,0.630,-2.590,0.700,137,279,218,191,214,2025-05-24T00:37:03.511525
14694,-0.5680,0.8106,-0.1640,0.070,-2.660,0.490,136,228,178,182,210,2025-05-24T00:37:03.511616
14695,-0.5612,0.8145,-0.1659,0.000,-2.730,0.490,137,293,218,190,213,2025-05-24T00:37:03.511662
14696,-0.5617,0.8120,-0.1718,0.350,-2.520,0.420,138,291,209,185,209,2025-05-24T00:37:03.511712
14697,-0.5656,0.8140,-0.1723,0.490,-2.240,0.560,137,301,205,168,214,2025-05-24T00:37:03.511728
14698,-0.5656,0.8174,-0.1723,0.210,-2.730,0.700,138,281,189,182,215,2025-05-24T00:37:03.511739
14699,-0.5661,0.8154,-0.1752,-0.910,-2.870,0.630,137,281,209,190,202,2025-05-24T00:37:03.511749
14700,-0.5597,0.8179,-0.1732,-1.330,-2.520,0.840,137,287,211,187,213,2025-05-24T00:37:03.511758
14701,-0.5592,0.8189,-0.1718,-1.330,-2.100,0.980,136,283,210,191,208,2025-05-24T00:37:03.511768
14702,-0.5636,0.8184,-0.1664,-1.400,-2.170,0.910,137,294,211,190,202,2025-05-24T00:37:03.511777
14703,-0.5632,0.8213,-0.1654,-1.470,-2.450,0.980,137,296,206,184,195,2025-05-24T00:37:03.511786
14704,-0.5597,0.8223,-0.1601,-1.610,-2.170,1.190,137,295,214,190,196,2025-05-24T00:37:03.511797
14705,-0.5656,0.8169,-0.1625,-1.330,-2.240,1.050,137,290,190,170,209,2025-05-24T00:37:03.511805
14706,-0.5578,0.8159,-0.1586,-0.770,-2.520,1.400,137,284,203,191,213,2025-05-24T00:37:03.511813
14707,-0.5588,0.8184,-0.1601,-0.910,-2.170,1.260,137,287,217,186,197,2025-05-24T00:37:03.511860
14708,-0.5602,0.8154,-0.1649,-0.910,-2.100,1.050,137,246,208,187,203,2025-05-24T00:37:03.511870
14709,-0.5612,0.8174,-0.1688,-0.560,-2.170,1.190,137,293,214,191,211,2025-05-24T00:37:03.511878
14710,-0.5612,0.8208,-0.1674,-0.840,-1.400,1.470,137,280,209,189,214,2025-05-24T00:37:03.511887
14711,-0.5617,0.8208,-0.1615,-1.540,-1.610,1.330,137,300,209,186,212,2025-05-24T00:37:03.733031
14712,-0.5661,0.8184,-0.1601,-2.100,-2.590,1.120,137,288,208,187,214,2025-05-24T00:37:03.733077
14713,-0.5641,0.8203,-0.1610,-2.030,-3.430,1.190,137,249,216,177,212,2025-05-24T00:37:03.733090
14714,-0.5597,0.8247,-0.1615,-1.120,-2.800,1.330,137,280,207,188,210,2025-05-24T00:37:03.733101
14715,-0.5627,0.8272,-0.1635,-0.840,-1.820,1.680,137,293,213,188,216,2025-05-24T00:37:03.733111
14716,-0.5754,0.8272,-0.1659,-0.770,-1.260,2.450,136,300,216,187,214,2025-05-24T00:37:03.733124
14717,-0.5832,0.8257,-0.1674,-0.630,-2.030,3.010,136,278,220,186,216,2025-05-24T00:37:03.733135
14718,-0.5822,0.8242,-0.1664,-0.630,-2.940,3.290,137,288,215,169,208,2025-05-24T00:37:03.733145
14719,-0.5778,0.8237,-0.1718,-0.910,-3.290,3.850,137,247,215,189,212,2025-05-24T00:37:03.733154
14720,-0.5695,0.8286,-0.1708,-1.190,-3.010,4.690,137,278,208,180,215,2025-05-24T00:37:03.733162
14721,-0.5710,0.8316,-0.1732,-1.680,-3.010,4.690,137,285,210,186,213,2025-05-24T00:37:03.733171
14722,-0.5749,0.8345,-0.1806,-1.890,-3.570,5.390,137,282,203,187,211,2025-05-24T00:37:03.733180
14723,-0.5719,0.8374,-0.1810,-2.380,-4.340,5.740,136,288,218,164,214,2025-05-24T00:37:03.733189
14724,-0.5710,0.8413,-0.1810,-3.290,-4.690,5.810,136,262,206,188,201,2025-05-24T00:37:03.733397
14725,-0.5714,0.8413,-0.1781,-3.640,-5.250,5.950,137,276,201,189,209,2025-05-24T00:37:03.733441
14726,-0.5710,0.8389,-0.1810,-4.410,-4.760,5.810,137,245,213,188,200,2025-05-24T00:37:03.733451
14727,-0.5710,0.8403,-0.1796,-4.760,-4.060,6.510,136,289,214,189,197,2025-05-24T00:37:03.733461
14728,-0.5729,0.8452,-0.1737,-5.390,-3.500,6.860,136,268,213,182,212,2025-05-24T00:37:03.733471
14729,-0.5817,0.8447,-0.1698,-6.300,-4.270,6.860,136,226,178,183,216,2025-05-24T00:37:03.927009
14730,-0.5783,0.8438,-0.1625,-7.350,-6.230,7.280,137,267,211,177,209,2025-05-24T00:37:03.927085
14731,-0.5719,0.8442,-0.1547,-8.260,-7.490,7.630,136,249,206,185,207,2025-05-24T00:37:03.927103
14732,-0.5651,0.8428,-0.1493,-8.120,-7.910,7.490,136,279,209,188,209,2025-05-24T00:37:03.927119
14733,-0.5690,0.8481,-0.1425,-7.770,-8.050,7.630,136,300,215,183,209,2025-05-24T00:37:03.927133
14734,-0.5739,0.8511,-0.1391,-7.980,-8.120,7.910,135,281,208,181,213,2025-05-24T00:37:03.927256
14735,-0.5754,0.8555,-0.1396,-8.820,-8.750,8.400,136,282,203,169,210,2025-05-24T00:37:03.927275
14736,-0.5700,0.8574,-0.1415,-9.100,-9.310,9.030,135,277,206,182,210,2025-05-24T00:37:03.927288
14737,-0.5690,0.8584,-0.1488,-8.820,-9.380,9.730,136,280,212,183,213,2025-05-24T00:37:03.927301
14738,-0.5685,0.8642,-0.1523,-9.030,-9.520,10.360,136,256,215,168,201,2025-05-24T00:37:03.927313
14739,-0.5714,0.8682,-0.1562,-10.150,-10.500,11.130,136,290,207,191,213,2025-05-24T00:37:03.927326
14740,-0.5729,0.8701,-0.1596,-11.830,-11.690,12.250,136,281,207,168,209,2025-05-24T00:37:03.927338
14741,-0.5705,0.8696,-0.1640,-12.180,-12.180,13.300,135,281,207,182,211,2025-05-24T00:37:03.927351
14742,-0.5671,0.8774,-0.1601,-12.390,-12.180,14.770,136,282,210,185,210,2025-05-24T00:37:03.927363
14743,-0.5685,0.8745,-0.1615,-13.580,-12.320,15.820,135,281,215,181,195,2025-05-24T00:37:03.927439
14744,-0.5602,0.8701,-0.1606,-15.400,-12.880,16.870,136,251,202,189,208,2025-05-24T00:37:03.927451
14745,-0.5500,0.8677,-0.1562,-17.080,-13.020,17.990,136,300,190,186,196,2025-05-24T00:37:04.130223
14746,-0.5344,0.8628,-0.1513,-17.570,-12.950,18.690,136,284,219,168,200,2025-05-24T00:37:04.130259
14747,-0.5192,0.8686,-0.1474,-18.200,-12.600,19.460,135,297,214,183,209,2025-05-24T00:37:04.130268
14748,-0.5065,0.8667,-0.1430,-18.900,-11.900,19.810,136,281,208,179,207,2025-05-24T00:37:04.130276
14749,-0.5007,0.8701,-0.1327,-19.460,-11.550,20.160,135,284,209,168,215,2025-05-24T00:37:04.130284
14750,-0.4934,0.8686,-0.1244,-19.600,-11.200,20.790,135,297,215,191,206,2025-05-24T00:37:04.130290
14751,-0.4885,0.8701,-0.1137,-19.950,-10.920,20.720,136,245,206,187,213,2025-05-24T00:37:04.130297
14752,-0.4797,0.8706,-0.1049,-19.740,-11.060,20.580,135,283,209,188,213,2025-05-24T00:37:04.130303
14753,-0.4743,0.8735,-0.1000,-19.600,-10.710,20.510,135,277,190,188,208,2025-05-24T00:37:04.130309
14754,-0.4763,0.8750,-0.0976,-19.040,-10.150,20.370,135,295,214,169,201,2025-05-24T00:37:04.130316
14755,-0.4802,0.8750,-0.0991,-18.340,-9.800,20.300,136,296,196,168,216,2025-05-24T00:37:04.130322
14756,-0.4841,0.8789,-0.0942,-18.340,-9.450,20.790,135,298,218,183,193,2025-05-24T00:37:04.130328
14757,-0.4851,0.8745,-0.0932,-19.040,-9.660,20.930,135,296,212,183,210,2025-05-24T00:37:04.130334
14758,-0.4821,0.8725,-0.0869,-19.110,-10.780,21.630,135,289,213,188,202,2025-05-24T00:37:04.130340
14759,-0.4709,0.8725,-0.0791,-18.830,-11.200,21.980,135,285,187,186,213,2025-05-24T00:37:04.130372
14760,-0.4573,0.8740,-0.0747,-18.200,-11.270,21.630,135,287,210,179,207,2025-05-24T00:37:04.130383
14761,-0.4504,0.8813,-0.0649,-17.220,-11.830,21.280,135,290,215,183,193,2025-05-24T00:37:04.130389
14762,-0.4519,0.8896,-0.0595,-16.100,-12.460,20.300,134,283,214,186,212,2025-05-24T00:37:04.179795
14763,-0.4519,0.8906,-0.0498,-15.050,-14.140,19.250,135,245,207,180,208,2025-05-24T00:37:04.179850
14764,-0.4553,0.8882,-0.0503,-14.630,-15.820,18.480,134,279,205,187,203,2025-05-24T00:37:04.179865
14765,-0.4646,0.8862,-0.0493,-14.490,-17.500,17.710,135,260,193,167,206,2025-05-24T00:37:04.179878
14766,-0.4778,0.8833,-0.0454,-14.840,-20.370,17.290,134,282,210,178,195,2025-05-24T00:37:04.227808
14767,-0.4958,0.8926,-0.0229,-16.800,-25.340,16.660,135,289,194,167,199,2025-05-24T00:37:04.227858
14768,-0.4934,0.8891,-0.0244,-18.200,-31.150,16.590,135,294,216,188,213,2025-05-24T00:37:04.227871
14769,-0.4621,0.9038,-0.0244,-18.060,-33.110,17.500,135,291,208,184,195,2025-05-24T00:37:04.227882
14770,-0.4382,0.9179,-0.0298,-17.150,-31.430,18.270,134,282,200,184,211,2025-05-24T00:37:04.275272
14771,-0.4343,0.9243,-0.0410,-15.680,-29.050,18.900,134,272,213,189,212,2025-05-24T00:37:04.275319
14772,-0.4397,0.9233,-0.0532,-15.470,-29.260,19.460,134,293,208,181,206,2025-05-24T00:37:04.275332
14773,-0.4441,0.9248,-0.0693,-15.540,-30.800,19.740,134,283,187,183,204,2025-05-24T00:37:04.275342
14774,-0.4290,0.9243,-0.0883,-16.870,-30.450,20.440,134,294,207,186,213,2025-05-24T00:37:04.534794
14775,-0.4119,0.9179,-0.1020,-18.200,-28.210,21.560,134,294,188,181,212,2025-05-24T00:37:04.534841
14776,-0.4031,0.9145,-0.1039,-19.600,-25.620,22.470,134,296,213,188,214,2025-05-24T00:37:04.534854
14777,-0.3982,0.9170,-0.0956,-21.630,-24.780,22.400,134,280,193,167,212,2025-05-24T00:37:04.534867
14778,-0.3870,0.9101,-0.0781,-24.010,-25.130,22.400,134,277,215,187,214,2025-05-24T00:37:04.534878
14779,-0.3802,0.9023,-0.0508,-25.270,-25.270,21.700,134,280,196,181,212,2025-05-24T00:37:04.534888
14780,-0.3601,0.8994,-0.0185,-24.920,-24.430,21.140,134,281,209,184,200,2025-05-24T00:37:04.534898
14781,-0.3426,0.8969,0.0068,-24.570,-22.120,20.300,133,281,207,181,205,2025-05-24T00:37:04.534908
14782,-0.3392,0.8906,0.0346,-23.730,-19.600,19.530,133,296,200,187,212,2025-05-24T00:37:04.534918
14783,-0.3348,0.8916,0.0537,-22.050,-17.150,18.900,134,280,201,185,204,2025-05-24T00:37:04.534927
14784,-0.3323,0.8935,0.0659,-20.160,-14.910,18.200,134,292,200,180,209,2025-05-24T00:37:04.534936
14785,-0.3353,0.8994,0.0844,-19.040,-13.020,17.570,134,280,175,181,203,2025-05-24T00:37:04.534946
14786,-0.3455,0.9008,0.1030,-19.670,-13.230,17.150,132,260,211,182,213,2025-05-24T00:37:04.534955
14787,-0.3445,0.9013,0.1132,-20.440,-14.980,16.870,134,281,210,183,209,2025-05-24T00:37:04.534965
14788,-0.3416,0.9018,0.1332,-20.230,-16.730,16.800,133,296,209,166,207,2025-05-24T00:37:04.535014
14789,-0.3333,0.9033,0.1493,-19.110,-17.430,17.010,134,295,206,179,206,2025-05-24T00:37:04.535026
14790,-0.3250,0.9072,0.1596,-17.010,-16.940,17.640,134,288,196,186,213,2025-05-24T00:37:04.535036
14791,-0.3255,0.9194,0.1693,-14.490,-14.770,18.480,133,278,192,168,213,2025-05-24T00:37:04.535046
14792,-0.3299,0.9262,0.1747,-12.600,-13.300,18.760,134,295,201,183,210,2025-05-24T00:37:04.535055
14793,-0.3377,0.9282,0.1767,-11.900,-13.230,18.830,132,270,203,187,199,2025-05-24T00:37:04.741131
14794,-0.3382,0.9331,0.1859,-13.020,-14.350,19.110,133,282,212,185,197,2025-05-24T00:37:04.741162
14795,-0.3362,0.9326,0.1874,-13.790,-15.890,19.110,133,273,212,187,206,2025-05-24T00:37:04.741170
14796,-0.3260,0.9399,0.1928,-13.090,-16.730,18.830,133,294,208,189,193,2025-05-24T00:37:04.741175
14797,-0.3113,0.9496,0.1908,-11.830,-15.960,18.760,133,282,212,178,212,2025-05-24T00:37:04.741181
14798,-0.3128,0.9618,0.1830,-10.780,-14.490,18.760,133,293,210,184,200,2025-05-24T00:37:04.741188
14799,-0.3138,0.9745,0.1796,-10.290,-13.370,18.900,133,281,186,178,207,2025-05-24T00:37:04.741194
14800,-0.3235,0.9770,0.1674,-12.110,-12.040,18.760,133,294,204,186,212,2025-05-24T00:37:04.741204
14801,-0.3284,0.9775,0.1591,-14.350,-11.550,19.180,134,294,210,174,206,2025-05-24T00:37:04.741210
14802,-0.3353,0.9819,0.1591,-17.150,-12.460,19.880,133,294,212,188,215,2025-05-24T00:37:04.741215
14803,-0.3372,0.9804,0.1498,-19.670,-14.350,20.020,133,283,210,187,209,2025-05-24T00:37:04.741220
14804,-0.3201,0.9887,0.1479,-21.630,-15.400,20.930,133,288,193,188,211,2025-05-24T00:37:04.741226
14805,-0.2967,0.9960,0.1532,-23.660,-14.000,21.700,133,289,212,179,207,2025-05-24T00:37:04.741231
14806,-0.2938,0.9862,0.1630,-25.410,-13.510,21.910,133,240,196,181,210,2025-05-24T00:37:04.741236
14807,-0.3011,0.9784,0.1684,-26.040,-14.630,21.700,133,283,204,175,206,2025-05-24T00:37:04.741307
14808,-0.2991,0.9789,0.1747,-26.950,-16.450,21.560,133,261,202,186,210,2025-05-24T00:37:04.741331
14809,-0.2928,0.9706,0.1791,-28.560,-17.710,21.980,133,285,207,184,209,2025-05-24T00:37:04.741336
14810,-0.2782,0.9648,0.1791,-29.960,-17.360,22.540,133,285,206,178,214,2025-05-24T00:37:04.741341
14811,-0.2796,0.9589,0.1908,-31.150,-16.100,23.870,133,289,211,185,211,2025-05-24T00:37:04.741346
14812,-0.2708,0.9487,0.2054,-32.550,-15.120,24.710,133,286,209,182,211,2025-05-24T00:37:04.915604
14813,-0.2616,0.9316,0.2196,-33.950,-15.050,25.480,133,284,204,184,212,2025-05-24T00:37:05.075322
14814,-0.2328,0.9267,0.2396,-34.300,-14.140,26.180,133,281,207,184,212,2025-05-24T00:37:05.075352
14815,-0.2015,0.9267,0.2577,-34.370,-10.360,25.970,133,291,213,165,210,2025-05-24T00:37:05.075360
14816,-0.1762,0.9233,0.2704,-34.090,-5.810,25.970,133,278,194,181,193,2025-05-24T00:37:05.075367
14817,-0.1752,0.9077,0.2879,-32.690,-3.010,25.620,132,274,213,178,209,2025-05-24T00:37:05.075374
14818,-0.1884,0.8940,0.3021,-30.520,-3.290,24.710,133,288,208,185,195,2025-05-24T00:37:05.075379
14819,-0.1869,0.8969,0.3211,-28.280,-5.810,23.240,134,278,200,185,205,2025-05-24T00:37:05.075385
14820,-0.1752,0.8994,0.3255,-26.950,-7.420,21.910,133,278,191,185,208,2025-05-24T00:37:05.075390
14821,-0.1576,0.9043,0.3196,-24.710,-7.420,20.860,133,285,204,186,212,2025-05-24T00:37:05.075396
14822,-0.1454,0.9008,0.3128,-21.490,-5.740,19.950,133,295,207,180,213,2025-05-24T00:37:05.075401
14823,-0.1259,0.9038,0.3157,-18.970,-2.660,18.410,133,290,208,165,206,2025-05-24T00:37:05.075406
14824,-0.1049,0.8989,0.3216,-18.690,1.960,16.520,133,292,214,181,210,2025-05-24T00:37:05.075412
14825,-0.1166,0.8891,0.3294,-18.340,3.570,14.630,133,289,186,185,209,2025-05-24T00:37:05.075417
14826,-0.1274,0.8877,0.3367,-16.800,2.870,12.250,133,290,212,176,193,2025-05-24T00:37:05.075422
14827,-0.1415,0.8901,0.3392,-14.420,0.210,10.290,132,256,203,179,203,2025-05-24T00:37:05.075448
14828,-0.1479,0.9013,0.3338,-12.110,-2.940,8.400,133,245,203,183,191,2025-05-24T00:37:05.075453
14829,-0.1410,0.9150,0.3348,-11.760,-2.520,7.910,132,297,212,180,204,2025-05-24T00:37:05.075458
14830,-0.1581,0.9170,0.3304,-11.900,-0.210,7.770,132,228,212,178,208,2025-05-24T00:37:05.369850
14831,-0.1693,0.9204,0.3372,-11.270,0.910,8.120,132,274,175,181,212,2025-05-24T00:37:05.369897
14832,-0.1737,0.9199,0.3333,-11.690,1.260,8.120,133,279,210,183,211,2025-05-24T00:37:05.369911
14833,-0.1552,0.9140,0.3314,-12.740,1.750,8.190,133,290,206,185,205,2025-05-24T00:37:05.369922
14834,-0.1405,0.9179,0.3343,-13.510,3.850,8.190,133,259,211,180,205,2025-05-24T00:37:05.369932
14835,-0.1444,0.9160,0.3387,-14.140,5.950,7.770,133,297,201,185,204,2025-05-24T00:37:05.369943
14836,-0.1610,0.9204,0.3460,-14.000,4.970,7.630,133,292,215,182,211,2025-05-24T00:37:05.369952
14837,-0.1571,0.9257,0.3621,-14.490,2.660,7.490,133,288,206,182,211,2025-05-24T00:37:05.369961
14838,-0.1493,0.9209,0.3665,-15.680,1.680,7.210,133,263,210,180,209,2025-05-24T00:37:05.369970
14839,-0.1401,0.9204,0.3792,-15.120,1.540,6.860,133,268,204,179,203,2025-05-24T00:37:05.369979
14840,-0.1327,0.9165,0.3767,-13.580,2.240,6.510,132,271,204,182,204,2025-05-24T00:37:05.369988
14841,-0.1366,0.9184,0.3714,-10.990,3.570,6.160,133,269,212,179,209,2025-05-24T00:37:05.369997
14842,-0.1381,0.9292,0.3709,-9.730,4.550,6.650,133,287,206,186,193,2025-05-24T00:37:05.370009
14843,-0.1503,0.9272,0.3758,-9.450,4.480,6.510,133,277,209,182,209,2025-05-24T00:37:05.370018
14844,-0.1542,0.9189,0.3797,-9.940,3.010,6.230,133,282,210,178,208,2025-05-24T00:37:05.370059
14845,-0.1523,0.9126,0.3845,-9.940,1.120,5.740,134,289,211,181,211,2025-05-24T00:37:05.370068
14846,-0.1405,0.9160,0.3948,-9.240,0.000,5.670,133,290,175,181,211,2025-05-24T00:37:05.370077
14847,-0.1220,0.9199,0.4168,-8.470,-1.750,5.040,133,281,196,187,211,2025-05-24T00:37:05.370085
14848,-0.0498,0.9374,0.4680,-8.540,-3.150,4.130,134,283,207,185,211,2025-05-24T00:37:05.436075
14849,0.0020,0.9306,0.5139,-11.760,-1.890,1.190,133,249,212,185,210,2025-05-24T00:37:05.436122
14850,-0.0137,0.9052,0.5383,-11.830,2.240,-5.320,133,291,210,185,205,2025-05-24T00:37:05.436135
14851,-0.0673,0.8886,0.5231,-6.510,4.830,-11.690,133,285,212,180,207,2025-05-24T00:37:05.436145
14852,-0.1815,0.8745,0.5139,3.920,3.010,-12.810,134,288,213,185,205,2025-05-24T00:37:05.436156
14853,-0.2250,0.9174,0.5129,10.010,-3.290,-14.560,133,280,174,186,207,2025-05-24T00:37:05.436166
14854,-0.1742,0.9862,0.5144,8.890,-10.990,-12.670,140,285,216,190,205,2025-05-24T00:37:05.436175
14855,-0.1732,1.0482,0.5461,1.400,-22.330,-14.280,146,293,217,198,206,2025-05-24T00:37:05.436185
14856,-0.1606,1.1024,0.6656,-7.560,-46.760,-18.620,151,304,217,195,222,2025-05-24T00:37:05.436194
14857,-0.1298,1.1366,0.8257,-17.360,-89.390,-29.680,153,259,226,202,227,2025-05-24T00:37:05.436205
14858,-0.0512,1.1829,1.0214,-26.180,-162.400,-44.100,154,238,227,202,234,2025-05-24T00:37:05.436215
14859,0.1898,1.3361,1.3098,-36.540,-267.540,-58.870,154,300,213,203,253,2025-05-24T00:37:05.436225
14860,0.6373,1.5801,1.5884,-51.800,-406.840,-81.060,157,300,222,204,277,2025-05-24T00:37:05.436235
14861,1.2288,1.8334,1.5962,-69.300,-536.620,-126.210,159,303,234,210,275,2025-05-24T00:37:05.436246
14862,2.0364,2.2834,1.3098,-75.040,-669.340,-194.460,163,247,210,215,275,2025-05-24T00:37:05.436256
14863,3.1525,2.5669,0.7828,-65.730,-713.300,-222.880,164,304,231,212,283,2025-05-24T00:37:05.436299
14864,3.8596,2.4537,0.2645,-46.760,-662.130,-255.290,169,329,242,227,284,2025-05-24T00:37:05.436309
14865,4.2627,2.0691,-0.4046,-99.050,-574.980,-286.020,198,328,264,230,258,2025-05-24T00:37:05.436319
14866,3.8401,1.7036,-0.8194,-99.890,-507.710,-350.140,203,323,266,241,277,2025-05-24T00:37:05.436328
14867,3.1891,1.5201,-0.8013,-178.920,-510.650,-404.810,214,329,276,252,272,2025-05-24T00:37:05.436337
14868,2.2985,0.9745,-1.1673,-384.720,-587.230,-446.740,215,357,270,249,299,2025-05-24T00:37:05.490270
14869,2.0969,0.1508,-1.6050,-607.180,-671.930,-475.440,212,326,283,251,289,2025-05-24T00:37:05.490316
14870,2.3322,-1.2615,-1.5245,-783.300,-640.710,-454.720,211,338,279,256,267,2025-05-24T00:37:05.490328
14871,1.5123,-3.0422,0.1786,-776.370,-478.940,-469.420,209,370,293,260,267,2025-05-24T00:37:05.490339
14872,1.8529,-5.0108,0.7027,-680.120,-339.010,-466.970,209,348,308,255,307,2025-05-24T00:37:05.490350
14873,-0.1889,-6.5738,2.2106,-613.270,-199.360,-488.250,210,355,291,257,290,2025-05-24T00:37:05.490361
14874,-0.9706,-6.9560,2.7089,-482.440,-157.360,-499.450,209,363,307,236,305,2025-05-24T00:37:05.490373
14875,-1.0141,-6.8950,2.9251,-356.650,54.250,-436.170,199,318,263,248,302,2025-05-24T00:37:05.729144
14876,-2.3717,-5.9043,2.2692,-189.420,338.240,-269.710,185,333,281,248,286,2025-05-24T00:37:05.729191
14877,-3.7127,-4.6536,1.2400,-7.840,455.000,22.890,175,369,283,231,288,2025-05-24T00:37:05.729205
14878,-2.7406,-3.7039,0.4402,193.270,479.640,256.760,193,310,256,231,285,2025-05-24T00:37:05.729216
14879,-1.5831,-3.0144,0.2142,303.730,536.060,308.770,200,367,291,213,283,2025-05-24T00:37:05.729229
14880,-1.3132,-2.4424,0.5451,240.310,449.190,308.770,206,343,290,220,265,2025-05-24T00:37:05.729240
14881,-0.7779,-2.4302,0.4275,69.020,248.360,368.200,210,363,287,222,273,2025-05-24T00:37:05.729250
14882,-0.3636,-2.2414,0.3099,72.940,193.620,406.770,211,359,278,222,267,2025-05-24T00:37:05.729260
14883,0.0171,-1.6621,0.3611,117.810,237.160,446.950,213,373,274,223,273,2025-05-24T00:37:05.729270
14884,0.1615,-0.9682,0.1415,136.500,411.180,463.960,214,322,267,225,273,2025-05-24T00:37:05.729284
14885,-0.1684,-0.2596,0.1659,147.700,437.640,515.690,216,373,284,228,276,2025-05-24T00:37:05.729294
14886,-0.4680,0.2425,0.4538,85.190,452.480,476.770,220,335,282,230,271,2025-05-24T00:37:05.729304
14887,-0.4714,0.4480,0.6261,61.040,438.830,444.150,220,337,284,229,278,2025-05-24T00:37:05.729313
14888,-0.4939,0.6315,0.6817,87.220,438.550,413.560,219,369,286,229,277,2025-05-24T00:37:05.729358
14889,-0.3348,0.7320,0.7720,17.850,447.370,388.780,218,309,290,221,310,2025-05-24T00:37:05.729368
14890,-0.2728,0.9638,0.6895,-19.600,454.860,359.100,211,348,283,218,280,2025-05-24T00:37:05.729481
14891,-0.1122,1.2434,0.6554,-6.300,438.480,339.920,209,366,270,219,294,2025-05-24T00:37:05.729491
14892,0.1074,1.5421,0.5139,6.440,417.480,323.890,209,353,284,219,268,2025-05-24T00:37:05.729501
14893,-0.0532,1.6124,0.8711,26.740,383.040,293.160,210,325,281,220,296,2025-05-24T00:37:05.729510
14894,-0.2982,1.5821,1.2571,-5.670,310.030,255.500,209,359,293,219,297,2025-05-24T00:37:05.976468
14895,-0.3499,1.4425,1.4538,-31.850,162.750,247.170,209,371,267,219,300,2025-05-24T00:37:05.976517
14896,0.0200,1.3893,1.4528,-71.330,70.420,254.590,206,310,300,249,297,2025-05-24T00:37:05.976530
14897,0.6383,1.4620,1.4064,-57.960,67.410,262.920,202,344,240,246,295,2025-05-24T00:37:05.976541
14898,1.0307,1.5504,1.5982,-21.700,126.700,268.380,196,305,286,244,269,2025-05-24T00:37:05.976553
14899,1.0521,1.4215,1.6080,2.590,181.230,253.680,191,351,253,237,282,2025-05-24T00:37:05.976565
14900,0.6403,1.3274,1.9735,16.310,190.540,213.220,188,367,287,232,301,2025-05-24T00:37:05.976577
14901,0.4338,1.1273,1.8964,-14.560,152.390,171.850,180,322,256,230,228,2025-05-24T00:37:05.976587
14902,0.3587,0.9677,1.6260,-32.690,89.040,110.390,173,352,255,220,276,2025-05-24T00:37:05.976596
14903,0.5090,0.9692,1.2542,-23.100,38.500,74.550,171,333,280,226,275,2025-05-24T00:37:05.976605
14904,0.5402,1.0004,0.8833,8.330,43.190,41.090,171,290,267,213,269,2025-05-24T00:37:05.976615
14905,0.2616,1.0292,0.7584,35.210,65.590,5.600,172,337,267,230,286,2025-05-24T00:37:05.976624
14906,-0.1122,0.9589,0.5417,32.410,77.490,-22.820,173,361,275,221,280,2025-05-24T00:37:05.976633
14907,-0.3104,0.9350,0.3709,10.850,54.810,-29.400,174,353,274,205,280,2025-05-24T00:37:05.976642
14908,-0.3509,0.9043,0.2230,-28.210,32.410,-21.210,172,356,253,227,285,2025-05-24T00:37:05.976651
14909,-0.3855,0.7535,0.0864,-63.210,34.440,-13.230,170,358,269,223,272,2025-05-24T00:37:05.976698
14910,-0.3206,0.8418,0.0561,-44.100,33.600,6.720,165,339,257,219,279,2025-05-24T00:37:05.976715
14911,-0.2689,0.8560,0.1083,-27.510,36.820,27.370,158,333,232,209,269,2025-05-24T00:37:05.976724
14912,-0.1972,0.8877,0.2503,-18.200,39.550,35.630,153,350,266,205,229,2025-05-24T00:37:05.976735
14913,-0.1884,0.8735,0.4065,-24.710,32.340,35.700,149,343,259,198,273,2025-05-24T00:37:05.976744
14914,-0.1981,0.8286,0.4787,-31.430,14.560,30.940,143,344,224,187,254,2025-05-24T00:37:06.067860
14915,-0.1249,0.8159,0.5026,-26.390,-1.680,21.980,138,331,240,195,260,2025-05-24T00:37:06.067900
14916,-0.0639,0.8233,0.4729,-8.820,-8.890,13.860,135,340,216,191,258,2025-05-24T00:37:06.067912
14917,-0.0098,0.8569,0.4299,9.520,-9.170,9.590,134,351,229,183,256,2025-05-24T00:37:06.067921
14918,0.0161,0.8877,0.4168,14.980,-4.690,5.670,134,339,218,195,249,2025-05-24T00:37:06.067930
14919,-0.0220,0.9135,0.4128,10.780,-3.500,0.980,133,330,239,194,261,2025-05-24T00:37:06.067938
14920,-0.0776,0.9018,0.3870,3.080,-4.130,-4.060,134,347,238,171,225,2025-05-24T00:37:06.173950
14921,-0.0908,0.9248,0.3792,0.000,-5.950,-8.120,133,316,219,196,248,2025-05-24T00:37:06.174004
14922,-0.1113,0.9365,0.3382,-2.030,-2.660,-10.990,132,329,237,186,259,2025-05-24T00:37:06.174020
14923,-0.1215,0.9550,0.3274,-3.010,4.760,-12.040,131,334,231,188,223,2025-05-24T00:37:06.174034
14924,-0.1781,0.9321,0.3089,-3.570,13.300,-10.570,131,317,230,187,218,2025-05-24T00:37:06.174046
14925,-0.2338,0.9213,0.3187,-2.100,18.200,-6.510,130,328,217,168,245,2025-05-24T00:37:06.174059
14926,-0.2508,0.9204,0.3372,-0.770,21.000,-3.010,129,339,235,190,258,2025-05-24T00:37:06.174070
14927,-0.2420,0.9179,0.3518,-2.310,20.440,-0.840,127,328,191,187,241,2025-05-24T00:37:06.174081
14928,-0.1981,0.9091,0.3514,-5.530,17.010,0.140,127,338,243,187,249,2025-05-24T00:37:06.174091
14929,-0.1810,0.9287,0.3826,-7.210,11.340,-0.420,126,290,233,187,245,2025-05-24T00:37:06.174102
14930,-0.2230,0.9296,0.4182,-8.260,4.130,-4.970,126,288,210,178,255,2025-05-24T00:37:06.174112
14931,-0.2333,0.9292,0.4290,-7.980,-7.980,-8.050,126,329,244,181,257,2025-05-24T00:37:06.174123
14932,-0.2196,0.9204,0.4182,-7.420,-15.260,-8.050,125,341,232,182,231,2025-05-24T00:37:06.379273
14933,-0.1850,0.9135,0.3894,-3.150,-14.070,-6.370,125,324,241,177,255,2025-05-24T00:37:06.379320
14934,-0.1542,0.9257,0.3758,3.850,-8.960,-5.040,125,313,235,186,249,2025-05-24T00:37:06.379333
14935,-0.1318,0.9487,0.3836,5.810,-5.530,-5.250,124,302,234,172,246,2025-05-24T00:37:06.379344
14936,-0.1391,0.9492,0.3924,-0.560,-5.880,-8.820,124,323,222,180,220,2025-05-24T00:37:06.379354
14937,-0.1771,0.9350,0.3802,-8.680,-9.800,-13.160,124,326,225,172,256,2025-05-24T00:37:06.379364
14938,-0.2084,0.9340,0.3655,-9.940,-15.120,-15.470,124,277,227,163,251,2025-05-24T00:37:06.379374
14939,-0.2294,0.9204,0.3357,-7.910,-16.660,-17.010,123,329,227,181,253,2025-05-24T00:37:06.379383
14940,-0.2162,0.8882,0.2923,-5.460,-16.380,-17.080,124,334,233,163,252,2025-05-24T00:37:06.379393
14941,-0.1850,0.8999,0.2826,-4.270,-14.560,-12.740,123,343,226,172,252,2025-05-24T00:37:06.379404
14942,-0.2113,0.9043,0.2884,-6.090,-8.960,-9.520,123,325,233,177,259,2025-05-24T00:37:06.379413
14943,-0.2284,0.9170,0.3035,-7.490,-7.350,-6.580,123,330,236,180,220,2025-05-24T00:37:06.379423
14944,-0.2406,0.9189,0.3226,-9.030,-11.060,-3.640,123,339,202,178,251,2025-05-24T00:37:06.379432
14945,-0.2430,0.9091,0.3177,-8.890,-14.980,-3.920,123,315,200,177,244,2025-05-24T00:37:06.379441
14946,-0.1967,0.9082,0.3255,-7.420,-17.150,-2.730,123,339,200,157,222,2025-05-24T00:37:06.379484
14947,-0.1962,0.8901,0.3094,-3.710,-15.890,-2.590,123,327,221,184,229,2025-05-24T00:37:06.379494
14948,-0.1986,0.9038,0.3192,0.910,-15.400,-1.470,123,306,204,175,211,2025-05-24T00:37:06.379503
14949,-0.2020,0.9282,0.3553,2.310,-14.210,-0.770,123,333,225,177,249,2025-05-24T00:37:06.611141
14950,-0.2196,0.9516,0.3645,-1.400,-12.460,-0.630,123,318,226,176,254,2025-05-24T00:37:06.611191
14951,-0.2181,0.9697,0.3743,-3.360,-12.110,1.820,122,306,201,186,260,2025-05-24T00:37:06.611203
14952,-0.2176,0.9697,0.3655,-3.080,-11.760,2.660,123,330,228,170,224,2025-05-24T00:37:06.611214
14953,-0.1947,0.9653,0.3548,0.210,-12.390,2.730,123,337,202,180,241,2025-05-24T00:37:06.611224
14954,-0.2020,0.9570,0.3436,3.850,-14.980,2.240,122,302,229,179,238,2025-05-24T00:37:06.611233
14955,-0.2054,0.9687,0.3592,4.200,-21.910,2.660,123,342,224,181,237,2025-05-24T00:37:06.611244
14956,-0.1962,0.9736,0.3577,2.240,-30.730,1.890,122,337,199,179,239,2025-05-24T00:37:06.611252
14957,-0.1157,0.9823,0.3626,-1.470,-34.300,2.240,123,313,231,178,251,2025-05-24T00:37:06.611260
14958,-0.0556,0.9589,0.3528,-6.370,-30.450,2.450,122,329,200,183,249,2025-05-24T00:37:06.611268
14959,-0.0478,0.9414,0.3514,-6.580,-21.070,1.540,123,335,223,184,256,2025-05-24T00:37:06.611277
14960,-0.0820,0.9306,0.3699,-5.670,-13.790,-0.980,123,305,226,161,243,2025-05-24T00:37:06.611285
14961,-0.1347,0.9194,0.3841,-7.700,-11.830,-3.150,122,329,229,177,209,2025-05-24T00:37:06.611293
14962,-0.1547,0.8965,0.3792,-11.340,-12.320,-5.040,122,283,221,128,250,2025-05-24T00:37:07.055280
14963,-0.1337,0.9004,0.3640,-10.710,-13.370,-5.110,121,313,230,127,231,2025-05-24T00:37:07.055378
14964,-0.1410,0.8886,0.3450,-5.950,-12.180,-5.950,122,283,226,127,247,2025-05-24T00:37:07.055392
14965,-0.1303,0.8891,0.3577,-1.610,-9.170,-6.930,122,345,240,125,251,2025-05-24T00:37:07.055404
14966,-0.1576,0.8857,0.4065,-3.920,-7.420,-6.720,122,345,232,126,193,2025-05-24T00:37:07.055415
14967,-0.2030,0.8623,0.4231,-9.870,-7.980,-6.020,122,343,229,126,250,2025-05-24T00:37:07.055427
14968,-0.2137,0.8520,0.4275,-10.290,-9.590,-4.830,122,320,217,126,257,2025-05-24T00:37:07.055439
14969,-0.1893,0.8467,0.4099,-4.410,-9.380,-3.990,122,339,237,126,253,2025-05-24T00:37:07.055449
14970,-0.1479,0.8496,0.3865,5.110,-5.110,-3.150,121,324,234,127,236,2025-05-24T00:37:07.055459
14971,-0.1259,0.8560,0.3650,10.360,3.290,-2.940,121,312,237,126,243,2025-05-24T00:37:07.055469
14972,-0.1386,0.8760,0.3518,12.390,9.100,-3.430,121,334,209,126,240,2025-05-24T00:37:07.055479
14973,-0.1640,0.9008,0.3314,10.570,11.970,-4.130,122,335,241,125,211,2025-05-24T00:37:07.055489
14974,-0.1986,0.9257,0.3240,6.090,12.110,-5.320,121,347,241,125,241,2025-05-24T00:37:07.055498
14975,-0.2069,0.9438,0.3255,1.190,9.940,-5.880,121,335,238,126,245,2025-05-24T00:37:07.055611
14976,-0.2074,0.9418,0.3240,-4.970,8.610,-6.160,121,341,232,125,245,2025-05-24T00:37:07.055621
14977,-0.2308,0.9296,0.3235,-6.790,7.070,-5.950,120,302,211,125,243,2025-05-24T00:37:07.055631
14978,-0.2445,0.9262,0.3367,-4.340,3.220,-4.830,121,334,235,125,250,2025-05-24T00:37:07.055658
14979,-0.2538,0.9170,0.3489,-3.150,-0.630,-3.430,121,291,241,125,254,2025-05-24T00:37:07.055668
14980,-0.2347,0.9228,0.3694,-3.640,-3.010,-0.980,121,345,225,125,252,2025-05-24T00:37:07.055679
14981,-0.2162,0.9155,0.3997,-6.300,-2.520,0.420,120,296,232,125,234,2025-05-24T00:37:07.055690
14982,-0.2308,0.9170,0.4187,-6.090,-1.330,1.050,121,320,231,125,247,2025-05-24T00:37:07.055699
14983,-0.2455,0.9130,0.4231,-3.570,-2.100,2.660,121,310,236,125,256,2025-05-24T00:37:07.055709
14984,-0.2294,0.9213,0.4221,-1.610,-3.290,3.920,120,280,218,124,240,2025-05-24T00:37:07.055719
14985,-0.2181,0.9179,0.4055,-0.630,-4.270,4.970,121,328,217,124,229,2025-05-24T00:37:07.055728
14986,-0.1874,0.9262,0.4006,0.280,-5.250,6.090,121,312,218,125,224,2025-05-24T00:37:07.055738
14987,-0.1610,0.9267,0.3958,-0.140,-4.480,6.020,121,336,185,124,217,2025-05-24T00:37:07.055747
14988,-0.1381,0.9233,0.4041,-0.980,-4.410,4.620,121,329,229,125,255,2025-05-24T00:37:07.055757
14989,-0.1566,0.9130,0.4255,-2.940,-7.490,1.470,121,319,233,124,249,2025-05-24T00:37:07.055767
14990,-0.1781,0.9033,0.4338,-3.570,-12.460,-3.360,121,320,218,125,242,2025-05-24T00:37:07.055776
14991,-0.1684,0.8974,0.4465,-3.850,-16.520,-5.950,120,283,236,125,247,2025-05-24T00:37:07.055785
14992,-0.1625,0.8911,0.4641,-3.150,-17.570,-8.400,121,334,185,124,191,2025-05-24T00:37:07.055796
14993,-0.1503,0.8926,0.4797,-0.560,-18.690,-10.920,121,329,203,126,256,2025-05-24T00:37:07.055821
14994,-0.1347,0.8911,0.5002,2.030,-20.510,-14.560,120,303,228,125,239,2025-05-24T00:37:07.055830
14995,-0.1635,0.8886,0.5339,2.450,-25.340,-19.600,121,332,244,125,245,2025-05-24T00:37:07.055838
14996,-0.2084,0.9052,0.6217,1.610,-41.300,-26.810,121,314,215,125,238,2025-05-24T00:37:07.055847
14997,-0.2113,0.9272,0.6842,-1.960,-61.110,-37.380,121,326,228,124,227,2025-05-24T00:37:07.055856
14998,-0.1415,0.9306,0.7320,-4.410,-86.800,-42.840,121,337,236,124,192,2025-05-24T00:37:07.055864
14999,-0.0386,0.9579,0.8223,-3.640,-109.970,-49.420,121,336,215,125,238,2025-05-24T00:37:07.055873
15000,0.0395,0.9858,0.9784,1.610,-136.780,-58.800,121,328,186,126,251,2025-05-24T00:37:07.198015
15001,-0.0834,1.0033,1.1936,2.170,-191.590,-74.200,120,237,229,125,214,2025-05-24T00:37:07.198069
15002,-0.1327,1.0472,1.3576,0.140,-291.410,-99.960,121,323,237,126,256,2025-05-24T00:37:07.198084
15003,0.0508,1.1273,1.2732,0.210,-386.610,-132.370,121,328,211,126,239,2025-05-24T00:37:07.198096
15004,0.5895,1.3644,1.2220,19.740,-480.760,-148.820,122,283,237,126,216,2025-05-24T00:37:07.198108
15005,1.3332,1.6568,1.2947,37.940,-539.070,-148.890,123,332,221,135,237,2025-05-24T00:37:07.198119
15006,1.8002,1.8324,1.2268,43.190,-584.990,-163.800,134,278,246,149,266,2025-05-24T00:37:07.198131
15007,2.0667,1.9974,0.9755,56.140,-660.380,-206.430,151,343,260,169,261,2025-05-24T00:37:07.198141
15008,2.6816,2.4380,0.7276,-4.760,-725.830,-249.060,165,349,257,173,281,2025-05-24T00:37:07.198153
15009,3.5848,2.7328,0.2245,-57.330,-705.180,-281.330,174,337,269,182,272,2025-05-24T00:37:07.198163
15010,3.8328,2.4502,-0.3148,-187.040,-626.990,-328.790,180,319,271,191,277,2025-05-24T00:37:07.198173
15011,3.4287,1.8266,-0.6993,-263.620,-543.760,-395.500,183,359,268,198,265,2025-05-24T00:37:07.198184
15012,2.8675,1.1146,-1.0609,-329.070,-490.280,-440.160,188,301,283,192,261,2025-05-24T00:37:07.198193
15013,2.3580,0.4353,-1.1180,-411.250,-477.470,-469.420,197,364,289,202,261,2025-05-24T00:37:07.198254
15014,2.1179,-0.5832,-1.0346,-535.290,-436.170,-499.870,203,369,258,214,267,2025-05-24T00:37:07.198266
15015,1.8729,-2.2175,-0.8276,-636.790,-378.140,-531.650,217,356,296,222,280,2025-05-24T00:37:07.198277
15016,1.7988,-4.7463,-0.1649,-813.680,-274.820,-587.020,231,367,300,239,288,2025-05-24T00:37:07.198288
15017,0.7828,-7.3703,0.8067,-968.730,-177.310,-634.970,246,370,306,251,323,2025-05-24T00:37:07.418753
15018,-1.0282,-9.0885,0.7174,-772.800,-210.070,-664.020,247,386,320,267,323,2025-05-24T00:37:07.418798
15019,-1.6236,-7.2063,1.4474,-500.080,-116.410,-613.270,248,390,297,283,318,2025-05-24T00:37:07.418811
15020,-3.1369,-4.2544,2.3322,-273.770,25.200,-393.960,242,389,319,280,263,2025-05-24T00:37:07.418821
15021,-3.8269,-2.7323,2.2526,-18.760,205.940,-143.150,234,379,315,278,324,2025-05-24T00:37:07.418832
15022,-2.2394,-2.5547,1.1873,188.440,292.040,137.550,237,377,310,279,326,2025-05-24T00:37:07.418844
15023,-0.7125,-2.5254,0.8696,325.710,513.030,194.110,246,380,300,252,337,2025-05-24T00:37:07.418853
15024,-0.3841,-2.1350,0.8520,135.170,423.710,389.620,253,335,288,256,340,2025-05-24T00:37:07.418869
15025,-0.4524,-2.4771,0.4929,79.520,280.840,438.690,254,390,317,257,334,2025-05-24T00:37:07.418879
15026,-0.2372,-2.3009,0.3743,118.510,188.160,454.440,255,373,327,259,293,2025-05-24T00:37:07.418888
15027,0.1415,-1.8539,0.3479,184.380,144.900,438.130,255,389,318,259,320,2025-05-24T00:37:07.418897
15028,-0.0229,-1.4674,0.1069,222.600,248.920,405.720,254,334,323,258,335,2025-05-24T00:37:07.418907
15029,-0.2699,-0.7867,0.4768,257.390,315.490,368.830,255,288,320,257,342,2025-05-24T00:37:07.418916
15030,-0.3758,-0.1479,0.6100,169.330,377.160,354.270,252,333,321,256,298,2025-05-24T00:37:07.418962
15031,-0.5534,-0.0146,0.6637,159.530,431.830,343.700,251,380,320,256,331,2025-05-24T00:37:07.418973
15032,-0.5661,0.1688,0.7252,68.810,441.980,325.290,250,379,327,252,309,2025-05-24T00:37:07.418984
15033,-0.4490,0.5246,0.7032,-10.640,472.710,317.660,244,380,317,245,322,2025-05-24T00:37:07.418993
15034,-0.5173,0.7871,0.6676,-48.440,491.890,326.760,238,394,309,239,304,2025-05-24T00:37:07.419004
15035,-0.7910,0.9667,0.6300,-65.240,483.280,302.260,236,381,313,238,285,2025-05-24T00:37:07.696372
15036,-0.8389,1.0970,0.5749,-23.310,422.170,268.940,230,382,308,233,320,2025-05-24T00:37:07.696417
15037,-0.7588,1.2381,0.7252,-1.190,335.930,254.590,229,379,310,233,304,2025-05-24T00:37:07.696431
15038,-0.6559,1.3113,0.8555,-7.490,262.080,239.540,228,344,315,232,286,2025-05-24T00:37:07.696443
15039,-0.6271,1.2346,0.9999,-32.620,191.240,246.050,226,375,297,229,307,2025-05-24T00:37:07.696454
15040,-0.4192,1.2122,1.0199,-51.800,142.240,266.770,221,366,307,222,309,2025-05-24T00:37:07.696465
15041,-0.1615,1.2532,1.0492,-50.050,105.980,290.150,214,353,297,217,275,2025-05-24T00:37:07.696475
15042,-0.0005,1.3327,0.7925,-31.080,131.670,293.650,206,318,277,212,304,2025-05-24T00:37:07.696485
15043,0.1566,1.3215,0.6056,2.660,181.720,266.630,203,358,301,212,303,2025-05-24T00:37:07.696495
15044,0.1537,1.3830,0.5100,47.180,202.090,234.990,204,378,291,242,303,2025-05-24T00:37:07.696504
15045,-0.0473,1.3376,0.6895,69.230,205.870,222.040,206,371,300,246,298,2025-05-24T00:37:07.696513
15046,-0.2904,1.3318,0.9765,61.390,157.430,184.100,206,351,299,247,296,2025-05-24T00:37:07.696522
15047,-0.0581,1.3420,0.8984,-31.430,80.080,159.530,207,369,292,244,300,2025-05-24T00:37:07.696530
15048,0.3318,1.3015,0.8062,-91.070,50.680,142.310,205,366,299,253,304,2025-05-24T00:37:07.696540
15049,0.6110,1.2073,0.6759,-142.450,87.850,135.100,203,371,292,238,299,2025-05-24T00:37:07.696576
15050,0.6598,1.0887,0.4182,-123.690,137.760,151.550,202,334,267,252,300,2025-05-24T00:37:07.696586
15051,0.4080,0.9335,0.6525,-59.780,196.140,158.900,201,375,260,235,299,2025-05-24T00:37:07.696595
15052,-0.0688,0.9028,0.8667,-23.730,199.150,144.130,201,353,292,251,300,2025-05-24T00:37:07.696605
15053,-0.3055,0.8886,0.9536,-40.040,144.690,120.330,200,349,288,240,299,2025-05-24T00:37:08.435625
15054,-0.2220,0.8223,0.8945,-89.950,86.870,102.340,199,375,291,244,293,2025-05-24T00:37:08.435674
15055,-0.0859,0.7788,0.6974,-103.110,63.420,84.770,198,353,281,238,286,2025-05-24T00:37:08.435686
15056,0.0742,0.8111,0.5275,-75.530,73.150,67.130,197,329,292,229,296,2025-05-24T00:37:08.435698
15057,0.1288,0.8047,0.4211,-25.270,107.380,58.800,196,370,291,241,292,2025-05-24T00:37:08.435709
15058,0.0351,0.8325,0.5129,3.360,97.720,50.750,195,359,255,250,285,2025-05-24T00:37:08.435934
15059,-0.1147,0.8340,0.5973,-6.860,84.000,41.580,195,352,264,246,293,2025-05-24T00:37:08.435947
15060,-0.1601,0.8257,0.6324,-35.140,54.880,26.740,195,344,286,238,290,2025-05-24T00:37:08.435963
15061,-0.1142,0.8062,0.5856,-44.940,32.200,13.510,194,349,287,241,297,2025-05-24T00:37:08.435974
15062,-0.0468,0.7876,0.4973,-27.300,30.170,3.150,193,371,288,240,260,2025-05-24T00:37:08.435983
15063,-0.0415,0.8364,0.4226,-5.180,38.010,-1.680,192,365,294,237,273,2025-05-24T00:37:08.435993
15064,-0.0800,0.8750,0.3670,12.460,43.820,-1.610,193,364,288,244,276,2025-05-24T00:37:08.436002
15065,-0.1532,0.8911,0.3509,13.650,40.950,-0.420,193,346,269,243,297,2025-05-24T00:37:08.436011
15066,-0.2020,0.8843,0.3743,3.010,30.660,0.280,192,347,288,196,274,2025-05-24T00:37:08.436022
15067,-0.2294,0.8799,0.3821,-6.650,18.060,-1.260,193,339,290,196,257,2025-05-24T00:37:08.436058
15068,-0.2313,0.8843,0.3572,-8.960,6.860,-3.640,192,308,280,197,252,2025-05-24T00:37:08.436069
15069,-0.2128,0.9023,0.3226,-8.120,1.260,-6.230,192,370,292,197,292,2025-05-24T00:37:08.436079
15070,-0.1635,0.9374,0.3123,-5.110,2.240,-3.360,179,360,267,169,238,2025-05-24T00:37:08.436089
15071,-0.1815,0.9404,0.3118,-3.920,9.380,-0.210,159,349,256,163,263,2025-05-24T00:37:08.436098
15072,-0.2333,0.9472,0.3479,-1.400,11.270,-1.120,157,329,250,160,273,2025-05-24T00:37:08.436109
15073,-0.2474,0.9394,0.3821,-3.080,5.740,-0.140,155,330,267,159,271,2025-05-24T00:37:08.436120
15074,-0.2430,0.9111,0.3899,-9.240,0.910,-0.350,154,359,257,158,275,2025-05-24T00:37:08.436129
15075,-0.1932,0.9184,0.3850,-12.180,-4.130,-0.840,153,341,263,158,269,2025-05-24T00:37:08.436138
15076,-0.1264,0.9394,0.3567,-7.700,-3.430,-2.170,153,334,257,157,263,2025-05-24T00:37:08.436147
15077,-0.0834,0.9409,0.3421,-2.240,3.640,-2.380,152,317,261,157,267,2025-05-24T00:37:08.436157
15078,-0.1000,0.9355,0.3328,0.350,9.870,-2.310,152,348,256,156,206,2025-05-24T00:37:08.436165
15079,-0.1191,0.9218,0.3401,-1.050,13.720,-1.960,151,342,252,156,267,2025-05-24T00:37:08.436174
15080,-0.1796,0.9096,0.3680,-3.290,13.440,-2.380,151,345,250,155,267,2025-05-24T00:37:08.436183
15081,-0.2401,0.9043,0.3914,-5.740,7.070,-3.430,151,336,252,154,258,2025-05-24T00:37:08.436191
15082,-0.2655,0.8843,0.3875,-5.110,-3.360,-5.320,150,355,251,154,256,2025-05-24T00:37:08.436218
15083,-0.2401,0.9179,0.3772,-3.360,-9.940,-4.900,149,347,256,153,262,2025-05-24T00:37:08.436228
15084,-0.1986,0.9399,0.3655,0.000,-8.890,-2.800,148,307,254,153,259,2025-05-24T00:37:08.436238
15085,-0.1850,0.9409,0.3587,2.240,-3.640,0.000,148,341,257,151,254,2025-05-24T00:37:08.436247
15086,-0.2118,0.9287,0.3528,3.640,-0.980,3.010,148,349,246,151,240,2025-05-24T00:37:08.436257
15087,-0.2294,0.9204,0.3601,4.340,-4.900,4.620,147,348,259,151,260,2025-05-24T00:37:08.436265
15088,-0.2284,0.9043,0.3611,3.290,-9.310,3.220,147,336,227,151,255,2025-05-24T00:37:08.436274
15089,-0.1986,0.9228,0.3582,0.980,-12.600,1.470,146,359,248,150,271,2025-05-24T00:37:08.436284
15090,-0.1610,0.9306,0.3528,-1.260,-11.130,-0.560,146,350,237,150,268,2025-05-24T00:37:08.436293
15091,-0.1454,0.9335,0.3367,-1.050,-7.280,-2.450,145,338,260,149,262,2025-05-24T00:37:08.436302
15092,-0.1425,0.9550,0.3235,0.980,-2.310,-3.150,145,345,254,148,232,2025-05-24T00:37:08.436311
15093,-0.1732,0.9555,0.3265,1.260,0.140,-3.150,145,323,250,148,256,2025-05-24T00:37:08.436320
15094,-0.1996,0.9394,0.3304,-0.700,-1.890,-2.170,144,340,236,148,255,2025-05-24T00:37:08.638547
15095,-0.2186,0.9233,0.3274,-2.380,-6.090,-1.190,144,328,263,147,241,2025-05-24T00:37:08.638594
15096,-0.2025,0.9248,0.3455,-2.310,-9.170,0.350,143,349,248,146,259,2025-05-24T00:37:08.638608
15097,-0.1786,0.9321,0.3528,-1.890,-8.960,0.070,143,322,223,147,260,2025-05-24T00:37:08.638620
15098,-0.1606,0.9418,0.3455,-1.610,-6.720,-0.910,143,323,246,145,258,2025-05-24T00:37:08.638630
15099,-0.1562,0.9433,0.3499,-1.960,-4.200,-0.840,142,348,234,146,265,2025-05-24T00:37:08.638641
15100,-0.1649,0.9370,0.3426,-2.590,-0.700,-1.050,142,324,262,146,252,2025-05-24T00:37:08.638656
15101,-0.1596,0.9296,0.3460,-2.450,1.120,-0.840,142,360,259,145,258,2025-05-24T00:37:08.638666
15102,-0.1474,0.9262,0.3582,-3.150,2.310,-0.910,141,285,241,145,220,2025-05-24T00:37:08.638676
15103,-0.1464,0.9360,0.3665,-4.270,1.960,-2.520,141,325,246,144,249,2025-05-24T00:37:08.638685
15104,-0.1435,0.9462,0.3626,-3.850,0.210,-5.390,141,327,242,144,245,2025-05-24T00:37:08.638694
15105,-0.1435,0.9526,0.3445,-1.540,-1.820,-7.350,140,300,198,143,261,2025-05-24T00:37:08.638703
15106,-0.1449,0.9575,0.3192,1.330,-2.030,-8.050,140,286,249,143,250,2025-05-24T00:37:08.638712
15107,-0.1518,0.9633,0.3226,2.450,0.140,-8.190,140,319,252,143,233,2025-05-24T00:37:08.638720
15108,-0.2015,0.9384,0.3309,0.140,1.120,-7.840,140,328,229,142,230,2025-05-24T00:37:08.638729
15109,-0.2450,0.9365,0.3514,-3.010,-0.980,-7.630,140,330,244,142,255,2025-05-24T00:37:08.638768
15110,-0.2557,0.9321,0.3489,-5.950,-3.080,-6.790,140,340,236,143,247,2025-05-24T00:37:08.638778
15111,-0.2669,0.9345,0.3377,-5.740,-2.590,-6.090,140,346,221,142,257,2025-05-24T00:37:08.638788
15112,-0.2645,0.9370,0.3387,-4.270,-1.050,-3.710,140,330,252,142,225,2025-05-24T00:37:09.214372
15113,-0.2718,0.9287,0.3436,-4.340,-1.260,-1.610,140,353,242,142,263,2025-05-24T00:37:09.214409
15114,-0.2777,0.9082,0.3509,-5.670,-3.640,0.350,139,283,254,143,219,2025-05-24T00:37:09.214456
15115,-0.2782,0.8960,0.3518,-6.510,-8.680,1.540,139,332,220,142,265,2025-05-24T00:37:09.214467
15116,-0.2474,0.8960,0.3479,-5.390,-11.060,3.640,140,342,246,142,226,2025-05-24T00:37:09.214477
15117,-0.2084,0.9023,0.3450,-4.410,-9.660,5.250,140,286,219,142,256,2025-05-24T00:37:09.214485
15118,-0.1791,0.9096,0.3328,-3.850,-6.790,6.580,138,293,251,142,228,2025-05-24T00:37:09.214494
15119,-0.1606,0.9213,0.3309,-3.570,-4.760,6.860,140,339,243,141,250,2025-05-24T00:37:09.214502
15120,-0.1645,0.9121,0.3289,-3.780,-3.010,5.460,140,323,241,142,252,2025-05-24T00:37:09.214510
15121,-0.1645,0.9135,0.3479,-4.690,-2.870,3.640,140,335,256,142,266,2025-05-24T00:37:09.214518
15122,-0.1659,0.9262,0.3572,-6.790,-2.660,2.100,138,289,244,140,243,2025-05-24T00:37:09.214526
15123,-0.1484,0.9409,0.3645,-8.260,-1.400,1.330,139,302,229,142,224,2025-05-24T00:37:09.214534
15124,-0.1386,0.9326,0.3616,-8.610,0.350,1.470,139,295,239,141,255,2025-05-24T00:37:09.214542
15125,-0.1410,0.9126,0.3631,-6.300,1.890,1.610,138,298,247,141,248,2025-05-24T00:37:09.214550
15126,-0.1488,0.9043,0.3665,-3.360,2.590,1.400,139,320,244,141,229,2025-05-24T00:37:09.214557
15127,-0.1649,0.9043,0.3733,-1.610,2.310,0.630,139,348,243,141,248,2025-05-24T00:37:09.214564
15128,-0.1786,0.9248,0.3738,-1.540,1.330,-0.630,138,327,252,141,240,2025-05-24T00:37:09.214571
15129,-0.1879,0.9374,0.3670,-1.400,0.140,-1.750,138,329,251,140,229,2025-05-24T00:37:09.214592
15130,-0.1889,0.9379,0.3528,-1.330,-0.210,-1.960,138,343,238,141,254,2025-05-24T00:37:09.214601
15131,-0.1806,0.9345,0.3528,-1.750,1.330,-2.030,138,350,255,140,257,2025-05-24T00:37:09.214609
15132,-0.2050,0.9121,0.3558,-3.150,1.820,-2.450,138,358,252,140,227,2025-05-24T00:37:09.214617
15133,-0.2240,0.9067,0.3694,-4.200,-0.490,-2.030,138,285,250,140,248,2025-05-24T00:37:09.214625
15134,-0.2206,0.9043,0.3714,-4.620,-2.450,-0.980,137,325,248,141,238,2025-05-24T00:37:09.214633
15135,-0.2089,0.9121,0.3640,-2.590,-2.940,0.490,137,277,247,140,244,2025-05-24T00:37:09.214641
15136,-0.1864,0.9277,0.3611,1.470,-0.490,2.310,138,323,242,141,240,2025-05-24T00:37:09.214650
15137,-0.1791,0.9355,0.3640,3.010,2.100,2.730,138,328,250,141,230,2025-05-24T00:37:09.214657
15138,-0.1957,0.9170,0.3582,1.890,1.540,1.960,137,324,219,140,252,2025-05-24T00:37:09.214665
15139,-0.2108,0.9028,0.3548,-0.280,-1.190,0.630,137,326,251,140,224,2025-05-24T00:37:09.214672
15140,-0.2137,0.8979,0.3577,-1.540,-4.900,-0.490,137,347,243,139,251,2025-05-24T00:37:09.214679
15141,-0.2079,0.9062,0.3514,-1.960,-6.720,-1.540,138,346,253,141,220,2025-05-24T00:37:09.214687
15142,-0.1864,0.9262,0.3562,-2.170,-6.160,-1.400,137,278,227,141,254,2025-05-24T00:37:09.214696
15143,-0.1952,0.9248,0.3597,-2.170,-4.130,-1.330,137,346,240,141,262,2025-05-24T00:37:09.214703
15144,-0.2098,0.9135,0.3694,-1.120,-3.710,0.420,137,350,230,140,264,2025-05-24T00:37:09.214801
15145,-0.2167,0.9062,0.3836,0.420,-3.710,0.910,137,338,239,140,249,2025-05-24T00:37:09.214809
15146,-0.2079,0.9072,0.3924,0.770,-4.270,0.840,137,342,226,142,260,2025-05-24T00:37:09.214818
15147,-0.1889,0.9052,0.3875,-0.140,-4.690,0.420,138,334,231,140,254,2025-05-24T00:37:09.214827
15148,-0.1913,0.9096,0.3723,0.490,-4.550,-0.630,137,320,256,141,261,2025-05-24T00:37:09.214838
15149,-0.1898,0.9140,0.3680,2.590,-5.040,-1.120,137,337,249,141,253,2025-05-24T00:37:09.214843
15150,-0.2040,0.9174,0.3631,3.360,-5.950,-1.820,136,320,232,139,253,2025-05-24T00:37:09.214847
15151,-0.2045,0.9204,0.3699,1.890,-6.930,-1.750,137,320,252,141,245,2025-05-24T00:37:09.214851
15152,-0.2074,0.9121,0.3782,-0.070,-8.540,-1.470,136,336,231,141,218,2025-05-24T00:37:09.214855
15153,-0.1923,0.9116,0.3889,-0.490,-9.450,-0.770,137,344,245,140,259,2025-05-24T00:37:09.214859
15154,-0.1781,0.9116,0.3997,1.400,-9.380,-0.420,136,310,229,141,245,2025-05-24T00:37:09.214863
15155,-0.1840,0.9087,0.4060,3.500,-8.820,-1.120,136,344,251,140,250,2025-05-24T00:37:09.214867
15156,-0.1820,0.9189,0.3977,6.160,-9.380,-1.680,136,344,216,140,258,2025-05-24T00:37:09.214870
15157,-0.1840,0.9311,0.3958,6.860,-9.310,-1.330,137,327,238,140,256,2025-05-24T00:37:09.214873
15158,-0.2015,0.9213,0.3889,6.650,-9.520,-1.610,136,350,239,140,246,2025-05-24T00:37:09.214877
15159,-0.2040,0.9155,0.3919,6.860,-10.920,-1.190,136,344,218,139,254,2025-05-24T00:37:09.214885
15160,-0.1928,0.9150,0.3850,6.020,-11.550,-1.050,136,303,248,140,261,2025-05-24T00:37:09.214890
15161,-0.1806,0.9243,0.3704,6.650,-10.150,-0.840,136,346,249,140,231,2025-05-24T00:37:09.214895
15162,-0.1757,0.9399,0.3728,7.210,-8.680,0.210,136,356,249,140,263,2025-05-24T00:37:09.214899
15163,-0.1732,0.9438,0.3611,6.580,-7.700,0.420,136,314,240,140,236,2025-05-24T00:37:09.214903
15164,-0.1698,0.9526,0.3631,4.690,-6.440,0.420,136,347,235,140,253,2025-05-24T00:37:09.214907
15165,-0.1752,0.9448,0.3499,2.100,-5.600,0.000,136,340,229,140,255,2025-05-24T00:37:09.214911
15166,-0.1869,0.9389,0.3455,1.890,-5.110,-0.140,136,337,214,140,258,2025-05-24T00:37:09.214915
15167,-0.1718,0.9433,0.3406,0.980,-4.340,0.560,136,329,249,140,261,2025-05-24T00:37:09.214919
15168,-0.1708,0.9477,0.3294,0.070,-2.730,1.540,136,330,252,140,257,2025-05-24T00:37:09.214923
15169,-0.1762,0.9472,0.3362,-0.840,-1.190,2.310,136,285,242,140,226,2025-05-24T00:37:09.214926
15170,-0.1703,0.9575,0.3382,-2.170,1.680,2.660,135,342,251,140,231,2025-05-24T00:37:09.214930
15171,-0.1747,0.9545,0.3479,-4.270,6.300,3.780,136,290,252,140,200,2025-05-24T00:37:09.214934
15172,-0.1923,0.9399,0.3528,-7.560,8.960,4.270,136,329,212,139,251,2025-05-24T00:37:09.214937
15173,-0.1986,0.9409,0.3889,-10.080,8.470,3.850,136,349,240,140,223,2025-05-24T00:37:09.214941
15174,-0.2059,0.9301,0.4094,-14.700,6.300,2.170,135,329,212,139,254,2025-05-24T00:37:09.214950
15175,-0.2377,0.9228,0.4895,-18.760,0.210,-0.140,136,348,247,140,259,2025-05-24T00:37:09.244593
15176,-0.2948,0.8882,0.5754,-23.240,-14.280,-3.150,136,345,246,140,260,2025-05-24T00:37:09.244688
15177,-0.4006,0.8106,0.7457,-23.380,-41.370,-7.000,135,325,215,140,256,2025-05-24T00:37:09.244716
15178,-0.5392,0.7813,0.9848,-25.340,-76.160,-15.120,135,345,214,140,200,2025-05-24T00:37:09.244727
15179,-0.5695,0.7505,1.1517,-26.460,-142.310,-21.560,136,351,248,140,222,2025-05-24T00:37:09.244737
15180,-0.5749,0.7169,1.1966,-23.520,-230.090,-37.240,135,325,233,138,250,2025-05-24T00:37:09.244747
15181,-0.2991,0.7120,1.2712,-11.130,-328.650,-53.830,135,320,232,139,246,2025-05-24T00:37:09.244756
15182,-0.1737,0.7828,1.4401,6.370,-463.470,-78.330,136,345,248,140,224,2025-05-24T00:37:09.244765
15183,0.1279,0.9726,1.5675,16.660,-640.990,-120.470,136,353,236,141,267,2025-05-24T00:37:09.244775
15184,0.9233,1.2146,1.5533,3.080,-830.130,-173.950,140,330,246,153,269,2025-05-24T00:37:09.244785
15185,2.3322,1.6792,1.0546,-42.700,-913.990,-241.850,151,339,266,206,264,2025-05-24T00:37:09.244795
15186,3.3760,2.0979,0.4778,-60.550,-885.500,-285.390,148,352,245,209,259,2025-05-24T00:37:09.244804
15187,3.8020,2.3107,0.1444,-16.310,-734.930,-297.850,139,334,229,206,256,2025-05-24T00:37:09.244813
15188,3.5126,2.3146,-0.1635,-34.720,-549.150,-297.500,139,344,224,188,269,2025-05-24T00:37:09.450290
15189,2.8572,2.2326,-0.4494,-89.670,-382.130,-306.530,146,345,246,189,257,2025-05-24T00:37:09.450324
15190,2.2306,2.2087,-0.4377,-161.070,-306.460,-333.900,148,301,249,206,268,2025-05-24T00:37:09.450334
15191,1.7631,2.0272,-0.4168,-315.910,-310.450,-372.610,155,361,259,187,269,2025-05-24T00:37:09.450342
15192,1.7500,1.3684,-0.7447,-421.680,-352.170,-446.460,166,365,268,174,281,2025-05-24T00:37:09.450352
15193,1.6963,0.5275,-0.9292,-506.380,-426.440,-493.150,178,361,267,186,292,2025-05-24T00:37:09.450360
15194,1.8798,-0.6852,-1.0292,-447.020,-348.250,-521.430,198,366,266,212,295,2025-05-24T00:37:09.450367
15195,1.7485,-2.1614,-0.3226,-477.750,-265.090,-533.820,219,349,298,228,314,2025-05-24T00:37:09.450374
15196,1.0194,-4.0060,0.0254,-494.690,-223.440,-577.220,229,364,308,239,293,2025-05-24T00:37:09.450381
15197,0.1893,-6.2298,0.5641,-568.820,-230.440,-670.880,240,386,309,249,318,2025-05-24T00:37:09.450388
15198,-1.0931,-7.4791,1.1746,-670.180,-358.400,-679.980,244,396,320,251,325,2025-05-24T00:37:09.450394
15199,-1.5675,-6.9847,1.6729,-630.210,-466.970,-628.320,237,362,323,281,317,2025-05-24T00:37:09.450400
15200,-0.6725,-4.9278,2.3038,-467.530,-272.440,-477.260,209,321,287,256,293,2025-05-24T00:37:09.450406
15201,-1.7641,-3.0964,2.4825,-214.760,130.760,-261.520,175,347,282,213,278,2025-05-24T00:37:09.450442
15202,-2.8431,-2.2697,1.1673,37.590,323.750,49.910,177,360,271,230,285,2025-05-24T00:37:09.450450
15203,-2.3688,-1.6753,0.6159,263.760,414.330,223.300,202,368,289,256,274,2025-05-24T00:37:09.450458
15204,-1.1692,-1.6358,0.7686,260.470,473.830,217.280,217,354,292,239,271,2025-05-24T00:37:09.450466
15205,-0.7886,-2.0047,1.3215,194.110,301.210,304.570,226,343,298,269,303,2025-05-24T00:37:09.669990
15206,-0.3811,-2.3590,0.9209,66.710,69.860,309.120,227,374,304,259,312,2025-05-24T00:37:09.670157
15207,0.2860,-2.0964,0.7164,60.270,-20.510,338.870,227,378,304,266,295,2025-05-24T00:37:09.670184
15208,0.7491,-1.7919,0.5148,177.030,90.160,356.440,223,379,301,268,306,2025-05-24T00:37:09.670195
15209,0.5129,-1.5518,0.3362,229.740,275.730,349.440,219,371,307,268,273,2025-05-24T00:37:09.670207
15210,-0.0439,-1.0453,0.5168,275.870,340.270,326.830,217,357,299,260,276,2025-05-24T00:37:09.670224
15211,-0.2967,-0.6188,0.7296,207.060,397.880,312.690,218,380,300,260,302,2025-05-24T00:37:09.670234
15212,-0.4382,-0.2552,0.7213,174.650,391.650,296.870,217,370,277,268,292,2025-05-24T00:37:09.670243
15213,-0.4280,0.1288,0.8886,116.410,408.450,289.170,214,368,300,259,292,2025-05-24T00:37:09.670252
15214,-0.4455,0.5305,0.7906,56.700,428.470,296.800,203,300,265,247,285,2025-05-24T00:37:09.670262
15215,-0.4407,0.9692,0.6007,20.790,444.290,309.470,190,323,282,239,251,2025-05-24T00:37:09.670271
15216,-0.4329,1.0531,0.4909,8.400,450.310,305.830,170,319,272,196,283,2025-05-24T00:37:09.670280
15217,-0.5236,1.0199,0.5422,5.670,443.730,281.820,163,349,264,217,264,2025-05-24T00:37:09.670289
15218,-0.6007,0.9804,0.6349,-0.980,388.500,277.970,162,345,256,217,277,2025-05-24T00:37:09.670297
15219,-0.5144,1.0380,0.7764,-3.290,312.970,276.640,160,316,251,164,267,2025-05-24T00:37:09.670338
15220,-0.4207,1.1688,0.7159,-4.550,269.710,274.820,160,290,261,163,277,2025-05-24T00:37:09.670347
15221,-0.2103,1.4108,0.6183,2.030,248.080,275.590,160,291,269,162,272,2025-05-24T00:37:09.670356
15222,-0.0595,1.5235,0.4348,-2.940,257.810,284.270,159,287,260,162,265,2025-05-24T00:37:09.670365
15223,-0.0337,1.5299,0.3270,-16.520,272.720,294.070,160,338,264,162,279,2025-05-24T00:37:09.862438
15224,-0.3070,1.4079,0.5334,-31.290,277.760,274.120,159,351,266,162,281,2025-05-24T00:37:09.862486
15225,-0.5119,1.2581,0.8555,-57.260,248.150,242.410,159,330,274,160,256,2025-05-24T00:37:09.862500
15226,-0.5490,1.1014,0.9941,-71.680,166.670,216.230,157,289,266,164,257,2025-05-24T00:37:09.862511
15227,-0.2503,1.1278,0.9911,-81.550,98.420,203.910,159,349,269,184,285,2025-05-24T00:37:09.862631
15228,0.1786,1.1649,0.8799,-82.740,98.350,197.260,159,288,284,175,276,2025-05-24T00:37:09.862643
15229,0.5192,1.1375,0.7257,-76.580,155.820,195.930,163,356,282,218,266,2025-05-24T00:37:09.862654
15230,0.2738,1.1048,0.8301,-54.880,187.880,193.340,165,305,274,237,251,2025-05-24T00:37:09.862664
15231,-0.1035,1.0121,0.9321,-46.410,196.000,188.580,168,309,272,234,252,2025-05-24T00:37:09.862673
15232,-0.2147,0.9321,0.8984,-62.860,164.990,179.060,174,327,282,248,279,2025-05-24T00:37:09.862683
15233,-0.1669,0.9160,0.8198,-86.590,123.760,164.570,174,348,287,251,293,2025-05-24T00:37:09.862692
15234,-0.0210,0.8208,0.5963,-76.090,91.350,135.240,198,373,299,265,296,2025-05-24T00:37:09.862701
15235,0.2176,0.7735,0.5368,-37.380,80.920,112.000,204,374,308,278,282,2025-05-24T00:37:09.862710
15236,0.1571,0.8242,0.6734,-7.770,72.030,92.190,205,359,306,278,300,2025-05-24T00:37:09.862720
15237,0.1152,0.8691,0.7867,-5.320,38.290,73.080,206,363,271,272,301,2025-05-24T00:37:09.862762
15238,0.1596,0.9057,0.7891,-36.190,25.410,60.620,208,367,304,255,309,2025-05-24T00:37:10.068871
15239,0.2118,0.8696,0.7154,-72.520,8.610,49.630,210,357,296,269,300,2025-05-24T00:37:10.068942
15240,0.2611,0.8257,0.5856,-70.700,15.750,44.380,210,275,308,274,314,2025-05-24T00:37:10.068956
15241,0.2455,0.7749,0.5475,-41.370,40.740,43.890,211,353,307,276,305,2025-05-24T00:37:10.068967
15242,0.0654,0.7540,0.5714,-7.770,61.810,36.750,210,354,281,277,313,2025-05-24T00:37:10.068977
15243,-0.0586,0.8218,0.6007,0.210,63.280,29.750,203,367,300,259,292,2025-05-24T00:37:10.068988
15244,-0.0986,0.8647,0.6202,-10.640,44.730,22.400,198,369,301,264,237,2025-05-24T00:37:10.068998
15245,-0.0649,0.8804,0.5524,-27.160,35.000,14.070,184,348,286,262,272,2025-05-24T00:37:10.069008
15246,0.0088,0.8813,0.4704,-27.230,33.740,9.450,180,306,289,258,292,2025-05-24T00:37:10.069016
15247,-0.0171,0.8682,0.4197,-15.120,42.140,4.270,177,340,281,257,283,2025-05-24T00:37:10.069025
15248,-0.1337,0.8564,0.4099,-4.620,45.080,3.500,176,362,255,255,281,2025-05-24T00:37:10.069034
15249,-0.2342,0.8418,0.4246,-2.870,33.110,8.330,174,358,291,253,289,2025-05-24T00:37:10.069042
15250,-0.2474,0.8481,0.4353,-8.960,19.390,11.900,173,354,269,251,283,2025-05-24T00:37:10.069060
15251,-0.1688,0.8857,0.4250,-11.760,8.680,12.600,172,325,282,235,246,2025-05-24T00:37:10.069069
15252,-0.1235,0.8808,0.3958,-8.050,8.820,9.030,171,368,265,255,292,2025-05-24T00:37:10.069078
15253,-0.0932,0.9052,0.3977,-2.870,11.340,4.480,171,363,283,242,295,2025-05-24T00:37:10.069118
15254,-0.1327,0.9028,0.4089,-4.410,9.870,-1.260,170,352,290,246,290,2025-05-24T00:37:10.069127
15255,-0.1459,0.9170,0.4270,-11.970,5.320,-4.970,171,347,275,250,289,2025-05-24T00:37:10.069135
15256,-0.1410,0.8989,0.4353,-20.020,-1.820,-4.550,171,347,278,248,250,2025-05-24T00:37:10.302982
15257,-0.1254,0.8623,0.4143,-21.980,-5.250,-2.450,171,295,278,223,282,2025-05-24T00:37:10.303030
15258,-0.0849,0.8779,0.4309,-14.210,-0.770,-1.540,171,342,289,224,285,2025-05-24T00:37:10.303044
15259,-0.0815,0.9013,0.4460,-7.070,7.000,-0.350,171,358,292,263,282,2025-05-24T00:37:10.303055
15260,-0.1098,0.9213,0.4538,-3.570,11.620,0.630,171,353,287,245,292,2025-05-24T00:37:10.303066
15261,-0.1279,0.9272,0.4685,-4.620,10.290,1.680,171,352,289,250,284,2025-05-24T00:37:10.303076
15262,-0.1332,0.9179,0.4607,-8.050,6.230,1.540,172,344,251,250,287,2025-05-24T00:37:10.746021
15263,-0.1142,0.9306,0.4641,-9.870,2.870,0.700,171,348,275,247,294,2025-05-24T00:37:10.746075
15264,-0.1083,0.9199,0.4309,-10.430,0.910,-2.030,171,352,281,250,223,2025-05-24T00:37:10.746090
15265,-0.0947,0.9272,0.3997,-8.540,-0.980,-3.500,171,342,251,256,285,2025-05-24T00:37:10.746103
15266,-0.0966,0.9218,0.4050,-7.490,-0.840,-2.800,172,348,275,246,280,2025-05-24T00:37:10.746115
15267,-0.1137,0.9023,0.4309,-8.610,0.280,-1.890,171,349,249,254,291,2025-05-24T00:37:10.746126
15268,-0.1347,0.8838,0.4441,-9.660,-0.420,-1.540,171,348,281,242,282,2025-05-24T00:37:10.746138
