SeqNum,AccX,AccY,AccZ,GyroX,GyroY,GyroZ,Flex,Force1,Force2,Force3,Force4,TimestampReception
1,-0.4016,0.0288,0.9536,0.070,-3.045,0.070,456,434,292,400,384,2025-05-27T22:26:41.023393
2,-0.4041,0.0298,0.9531,0.455,-2.940,0.420,448,426,336,374,395,2025-05-27T22:26:41.023393
3,-0.4016,0.0327,0.9536,0.420,-3.185,0.315,433,427,344,343,388,2025-05-27T22:26:41.023393
4,-0.4021,0.0322,0.9540,0.385,-2.800,0.140,379,417,359,381,400,2025-05-27T22:26:41.023393
5,-0.4002,0.0303,0.9540,0.105,-2.625,0.035,370,347,371,386,395,2025-05-27T22:26:41.023393
6,-0.4016,0.0332,0.9521,-0.105,-2.695,0.070,387,408,371,401,396,2025-05-27T22:26:41.023393
7,-0.4026,0.0317,0.9531,-0.175,-2.730,0.000,392,425,378,416,356,2025-05-27T22:26:41.023393
8,-0.3997,0.0351,0.9516,-0.140,-2.625,0.070,414,433,374,417,380,2025-05-27T22:26:41.023393
9,-0.3943,0.0361,0.9545,-0.175,-2.170,0.070,398,417,373,397,377,2025-05-27T22:26:41.023393
10,-0.3997,0.0317,0.9550,-0.315,-1.820,0.035,400,429,371,382,381,2025-05-27T22:26:41.023393
11,-0.4031,0.0327,0.9623,-0.455,-2.065,0.035,413,396,335,380,379,2025-05-27T22:26:41.023393
12,-0.4085,0.0293,0.9604,-0.420,-2.660,0.315,389,410,356,366,383,2025-05-27T22:26:41.140185
13,-0.4070,0.0288,0.9579,-0.070,-3.080,0.525,409,403,374,340,303,2025-05-27T22:26:41.140185
14,-0.4036,0.0317,0.9555,0.070,-3.255,0.735,426,408,341,369,373,2025-05-27T22:26:41.140185
15,-0.4002,0.0361,0.9540,-0.035,-3.430,0.875,426,396,329,396,353,2025-05-27T22:26:41.140185
16,-0.3992,0.0381,0.9496,-0.245,-3.150,0.770,420,300,361,394,344,2025-05-27T22:26:41.140185
17,-0.3963,0.0371,0.9492,-0.560,-2.870,0.700,345,397,380,307,370,2025-05-27T22:26:41.140185
18,-0.3967,0.0410,0.9506,-0.840,-2.765,0.630,404,358,382,386,404,2025-05-27T22:26:41.140185
19,-0.4021,0.0361,0.9540,-0.910,-2.800,0.630,412,423,376,404,372,2025-05-27T22:26:41.140185
20,-0.4036,0.0312,0.9545,-0.665,-3.150,0.630,389,415,342,349,393,2025-05-27T22:26:41.140185
21,-0.4021,0.0322,0.9575,-0.455,-3.290,0.770,386,426,374,402,399,2025-05-27T22:26:41.370452
22,-0.4026,0.0293,0.9570,-0.210,-3.325,0.735,390,399,369,392,365,2025-05-27T22:26:41.370452
23,-0.4006,0.0273,0.9560,-0.175,-3.220,0.595,423,395,382,384,360,2025-05-27T22:26:41.370452
24,-0.4002,0.0322,0.9545,-0.210,-3.290,0.560,402,418,395,402,353,2025-05-27T22:26:41.370452
25,-0.3997,0.0307,0.9555,-0.455,-3.080,0.385,422,382,394,400,399,2025-05-27T22:26:41.370452
26,-0.4006,0.0298,0.9545,-0.595,-2.870,0.210,426,409,382,399,401,2025-05-27T22:26:41.370452
27,-0.3992,0.0254,0.9511,-0.490,-2.940,0.280,425,417,371,383,395,2025-05-27T22:26:41.370452
28,-0.3963,0.0293,0.9526,-0.385,-3.010,0.315,415,344,350,357,387,2025-05-27T22:26:41.370452
29,-0.3997,0.0293,0.9536,-0.210,-2.730,0.245,416,420,371,377,399,2025-05-27T22:26:41.370452
30,-0.4011,0.0346,0.9536,-0.315,-2.625,0.280,412,436,388,389,392,2025-05-27T22:26:41.370452
31,-0.4050,0.0342,0.9560,-0.595,-2.695,0.140,358,417,371,392,410,2025-05-27T22:26:41.370452
32,-0.4085,0.0346,0.9570,-0.630,-2.835,0.105,364,366,345,396,404,2025-05-27T22:26:41.370452
33,-0.4089,0.0327,0.9575,-0.525,-3.185,0.105,342,424,337,384,357,2025-05-27T22:26:41.370452
34,-0.4036,0.0317,0.9570,-0.560,-3.430,0.420,406,440,374,404,374,2025-05-27T22:26:41.370452
35,-0.4046,0.0298,0.9579,-0.490,-3.220,0.595,412,423,384,369,398,2025-05-27T22:26:41.370452
36,-0.4036,0.0268,0.9589,-0.420,-3.500,0.525,418,438,390,411,407,2025-05-27T22:26:41.370452
37,-0.4016,0.0283,0.9560,-0.245,-3.815,0.490,423,431,390,410,413,2025-05-27T22:26:41.370452
38,-0.4006,0.0278,0.9565,-0.350,-3.710,0.455,393,412,389,391,386,2025-05-27T22:26:41.535637
39,-0.3977,0.0273,0.9550,-0.455,-3.570,0.420,360,357,385,396,310,2025-05-27T22:26:41.535637
40,-0.3997,0.0293,0.9516,-0.280,-3.605,0.315,388,392,379,388,374,2025-05-27T22:26:41.535637
41,-0.3997,0.0298,0.9531,-0.210,-3.570,0.280,398,422,344,348,374,2025-05-27T22:26:41.535637
42,-0.3987,0.0307,0.9536,-0.385,-3.500,0.315,421,407,322,355,396,2025-05-27T22:26:41.535637
43,-0.3997,0.0303,0.9555,-0.490,-3.220,0.105,376,373,351,394,402,2025-05-27T22:26:41.535637
44,-0.4031,0.0307,0.9560,-0.455,-3.395,0.245,418,411,373,403,411,2025-05-27T22:26:41.535637
45,-0.4036,0.0298,0.9545,-0.420,-3.535,0.280,398,395,383,403,404,2025-05-27T22:26:41.535637
46,-0.4046,0.0288,0.9550,-0.350,-3.605,0.280,397,402,391,394,368,2025-05-27T22:26:41.535637
47,-0.4002,0.0293,0.9550,-0.385,-3.640,0.280,377,394,392,394,359,2025-05-27T22:26:41.535637
48,-0.4006,0.0288,0.9536,-0.280,-3.500,0.245,407,418,399,401,392,2025-05-27T22:26:41.535637
49,-0.4002,0.0312,0.9540,-0.280,-3.360,0.175,376,368,385,349,397,2025-05-27T22:26:41.535637
50,-0.3967,0.0307,0.9565,-0.315,-3.290,0.105,411,382,376,354,406,2025-05-27T22:26:41.535637
51,-0.3992,0.0317,0.9579,-0.455,-3.325,0.140,399,337,373,394,417,2025-05-27T22:26:41.535637
52,-0.3992,0.0303,0.9555,-0.490,-3.535,0.035,398,402,386,409,397,2025-05-27T22:26:41.535637
53,-0.3928,0.0317,0.9565,-0.385,-3.745,0.315,429,417,390,405,413,2025-05-27T22:26:41.535637
54,-0.3933,0.0312,0.9526,-0.420,-3.395,0.420,412,421,384,366,412,2025-05-27T22:26:41.535637
55,-0.3948,0.0307,0.9570,-0.420,-3.045,0.385,423,426,373,386,369,2025-05-27T22:26:41.535637
56,-0.3953,0.0317,0.9594,-0.525,-3.045,0.455,400,433,372,349,392,2025-05-27T22:26:41.936938
57,-0.3972,0.0312,0.9575,-0.700,-3.080,0.490,424,434,382,335,399,2025-05-27T22:26:41.952386
58,-0.4011,0.0293,0.9575,-0.455,-3.325,0.560,416,403,385,385,406,2025-05-27T22:26:41.952386
59,-0.3992,0.0298,0.9550,-0.385,-3.535,0.630,397,419,376,407,397,2025-05-27T22:26:41.952386
60,-0.4002,0.0307,0.9540,-0.350,-3.535,0.630,406,411,362,415,392,2025-05-27T22:26:41.952939
61,-0.3933,0.0307,0.9531,-0.315,-3.500,0.665,372,420,349,425,392,2025-05-27T22:26:41.952939
62,-0.3933,0.0298,0.9531,-0.350,-3.045,0.595,364,423,329,398,366,2025-05-27T22:26:41.952939
63,-0.3963,0.0268,0.9540,-0.490,-2.730,0.595,409,419,358,407,379,2025-05-27T22:26:41.953363
64,-0.3977,0.0273,0.9545,-0.385,-2.835,0.525,417,410,381,345,397,2025-05-27T22:26:41.953591
65,-0.3977,0.0259,0.9545,-0.280,-2.975,0.385,418,375,385,380,407,2025-05-27T22:26:41.953591
66,-0.3982,0.0264,0.9565,-0.350,-2.905,0.280,419,407,376,412,371,2025-05-27T22:26:41.953782
67,-0.4002,0.0259,0.9545,-0.280,-2.765,0.175,394,379,379,384,392,2025-05-27T22:26:41.953782
68,-0.3972,0.0268,0.9565,-0.350,-2.800,0.245,421,396,343,389,396,2025-05-27T22:26:41.953782
69,-0.3987,0.0254,0.9579,-0.455,-2.625,0.210,419,408,327,384,388,2025-05-27T22:26:41.953782
70,-0.3992,0.0254,0.9570,-0.385,-2.695,0.245,418,428,353,339,343,2025-05-27T22:26:41.954287
71,-0.3982,0.0259,0.9545,-0.035,-2.905,0.245,418,356,332,341,367,2025-05-27T22:26:41.954441
72,-0.3972,0.0244,0.9545,0.140,-2.835,0.210,417,401,356,347,377,2025-05-27T22:26:41.954441
73,-0.3953,0.0288,0.9555,0.210,-2.730,0.070,392,407,364,336,352,2025-05-27T22:26:42.004416
74,-0.3967,0.0303,0.9545,0.105,-2.625,-0.105,396,412,348,373,375,2025-05-27T22:26:42.004416
75,-0.3972,0.0298,0.9584,-0.035,-2.485,-0.070,411,433,353,402,362,2025-05-27T22:26:42.004416
76,-0.4021,0.0288,0.9584,-0.070,-2.695,-0.035,417,397,359,401,373,2025-05-27T22:26:42.004416
77,-0.4031,0.0264,0.9570,0.000,-3.010,-0.105,418,409,367,401,336,2025-05-27T22:26:42.004416
78,-0.4011,0.0283,0.9560,0.140,-3.045,-0.035,419,396,378,415,380,2025-05-27T22:26:42.004416
79,-0.3967,0.0312,0.9565,0.210,-3.115,0.175,353,409,370,411,382,2025-05-27T22:26:42.004416
80,-0.3977,0.0288,0.9560,0.175,-2.905,0.280,333,411,378,354,394,2025-05-27T22:26:42.004416
81,-0.3953,0.0283,0.9560,0.070,-2.905,0.140,392,410,370,397,415,2025-05-27T22:26:42.004416
82,-0.3948,0.0288,0.9594,0.105,-2.800,0.245,414,394,333,400,415,2025-05-27T22:26:42.004416
83,-0.3997,0.0283,0.9609,-0.035,-2.730,0.140,404,418,321,386,357,2025-05-27T22:26:42.004416
84,-0.4006,0.0273,0.9589,0.105,-3.080,0.070,412,375,352,407,391,2025-05-27T22:26:42.004416
85,-0.3997,0.0278,0.9570,0.140,-3.255,0.105,402,416,376,357,397,2025-05-27T22:26:42.004416
86,-0.3992,0.0259,0.9584,0.140,-3.290,0.245,419,345,367,381,387,2025-05-27T22:26:42.004416
87,-0.4002,0.0273,0.9565,0.245,-3.325,0.210,406,413,374,388,405,2025-05-27T22:26:42.004416
88,-0.3987,0.0259,0.9589,0.210,-3.430,0.315,396,421,387,389,388,2025-05-27T22:26:42.004416
89,-0.4002,0.0239,0.9584,0.280,-3.360,0.665,374,402,396,364,347,2025-05-27T22:26:42.004416
90,-0.3963,0.0293,0.9545,0.350,-3.150,0.700,379,419,381,400,396,2025-05-27T22:26:42.004416
91,-0.3977,0.0273,0.9550,0.455,-3.080,0.805,352,424,389,414,357,2025-05-27T22:26:42.004416
92,-0.3997,0.0312,0.9545,0.420,-3.360,0.665,390,400,359,391,383,2025-05-27T22:26:42.004416
93,-0.3992,0.0317,0.9550,0.315,-3.570,0.735,397,421,376,388,407,2025-05-27T22:26:42.004416
94,-0.3977,0.0273,0.9575,0.245,-3.640,0.630,415,410,383,384,418,2025-05-27T22:26:42.055185
95,-0.3938,0.0317,0.9555,0.315,-3.710,0.665,411,404,309,338,414,2025-05-27T22:26:42.055185
96,-0.3948,0.0283,0.9555,0.245,-3.465,0.700,414,418,346,369,402,2025-05-27T22:26:42.055185
97,-0.3953,0.0303,0.9540,0.245,-3.080,0.455,424,408,327,330,396,2025-05-27T22:26:42.055185
98,-0.3967,0.0312,0.9526,0.315,-2.800,0.210,400,409,352,380,315,2025-05-27T22:26:42.055185
99,-0.4006,0.0307,0.9550,0.315,-2.695,0.070,414,429,366,402,337,2025-05-27T22:26:42.186650
100,-0.3982,0.0317,0.9584,0.140,-2.835,0.175,423,429,361,396,327,2025-05-27T22:26:42.186650
101,-0.3967,0.0293,0.9575,-0.035,-3.010,0.175,409,393,361,397,381,2025-05-27T22:26:42.186650
102,-0.3953,0.0293,0.9579,0.070,-2.905,0.280,408,427,376,371,378,2025-05-27T22:26:42.186650
103,-0.3948,0.0312,0.9570,0.000,-2.800,0.210,426,362,381,338,393,2025-05-27T22:26:42.186650
104,-0.3958,0.0298,0.9550,0.035,-2.695,0.315,392,421,378,391,402,2025-05-27T22:26:42.186650
105,-0.3963,0.0317,0.9531,0.000,-2.485,0.315,409,406,377,402,368,2025-05-27T22:26:42.186650
106,-0.3977,0.0342,0.9526,-0.035,-2.765,0.525,413,415,380,414,342,2025-05-27T22:26:42.186650
107,-0.3958,0.0346,0.9550,-0.105,-3.010,0.665,433,430,390,408,345,2025-05-27T22:26:42.387019
108,-0.4016,0.0342,0.9565,-0.140,-3.115,0.560,396,419,391,400,369,2025-05-27T22:26:42.387019
109,-0.3967,0.0312,0.9565,-0.210,-3.290,0.595,392,439,387,394,394,2025-05-27T22:26:42.387019
110,-0.3967,0.0273,0.9604,-0.105,-3.150,0.595,427,427,382,413,398,2025-05-27T22:26:42.387019
111,-0.3982,0.0254,0.9570,0.280,-3.185,0.490,363,416,390,401,393,2025-05-27T22:26:42.387019
112,-0.3972,0.0229,0.9560,0.490,-3.465,0.490,409,408,375,407,394,2025-05-27T22:26:42.387019
113,-0.3953,0.0229,0.9579,0.630,-3.465,0.420,406,408,370,420,411,2025-05-27T22:26:42.387019
114,-0.3938,0.0254,0.9599,0.455,-3.360,0.315,391,424,382,404,355,2025-05-27T22:26:42.387019
115,-0.3943,0.0254,0.9579,0.070,-3.045,0.245,383,416,375,404,381,2025-05-27T22:26:42.387019
116,-0.3943,0.0234,0.9575,-0.070,-2.870,0.105,408,436,350,395,376,2025-05-27T22:26:42.387019
117,-0.3958,0.0254,0.9575,-0.105,-2.730,0.070,345,397,358,308,338,2025-05-27T22:26:42.387019
118,-0.3953,0.0259,0.9575,-0.035,-3.150,0.000,354,362,367,358,383,2025-05-27T22:26:42.387019
119,-0.3943,0.0283,0.9575,0.245,-3.255,0.070,329,420,333,402,405,2025-05-27T22:26:42.387019
120,-0.3967,0.0327,0.9555,0.420,-3.080,0.105,393,401,349,403,403,2025-05-27T22:26:42.387019
121,-0.3963,0.0346,0.9536,0.490,-3.080,0.105,390,404,364,409,388,2025-05-27T22:26:42.387019
122,-0.3963,0.0376,0.9560,0.315,-3.150,0.140,416,401,374,414,407,2025-05-27T22:26:42.387019
123,-0.3982,0.0381,0.9575,0.105,-2.975,0.210,422,346,341,406,372,2025-05-27T22:26:42.387019
124,-0.3958,0.0371,0.9575,-0.140,-3.150,0.175,345,411,357,408,392,2025-05-27T22:26:42.453918
125,-0.3967,0.0351,0.9604,-0.245,-3.220,0.210,350,399,367,422,409,2025-05-27T22:26:42.453918
126,-0.3963,0.0312,0.9579,-0.070,-3.150,0.175,396,434,369,389,405,2025-05-27T22:26:42.453918
127,-0.3958,0.0307,0.9560,0.175,-3.150,0.420,387,428,370,399,407,2025-05-27T22:26:42.453918
128,-0.4065,0.0307,0.9565,0.245,-2.835,0.210,390,388,364,413,408,2025-05-27T22:26:42.453918
129,-0.3850,0.0361,0.9643,0.070,-3.115,0.840,371,425,367,388,404,2025-05-27T22:26:42.453918
130,-0.3919,0.0317,0.9643,-0.210,-3.535,0.980,379,408,332,400,415,2025-05-27T22:26:42.453918
131,-0.3894,0.0312,0.9575,-0.210,-3.290,0.770,407,407,353,397,395,2025-05-27T22:26:42.453918
132,-0.3928,0.0298,0.9560,-0.105,-3.535,0.315,417,407,360,364,405,2025-05-27T22:26:42.453918
133,-0.3919,0.0322,0.9540,-0.105,-3.220,0.070,433,422,365,380,390,2025-05-27T22:26:42.737032
134,-0.3928,0.0303,0.9545,-0.175,-2.520,0.105,371,425,370,409,389,2025-05-27T22:26:42.737032
135,-0.3972,0.0293,0.9609,-0.140,-2.590,0.280,407,435,371,408,362,2025-05-27T22:26:42.737032
136,-0.4016,0.0298,0.9599,-0.070,-2.975,0.245,424,435,371,413,381,2025-05-27T22:26:42.737032
137,-0.3997,0.0273,0.9589,0.210,-3.325,0.350,412,382,383,387,386,2025-05-27T22:26:42.737032
138,-0.3992,0.0283,0.9545,0.455,-3.220,0.245,395,401,387,406,397,2025-05-27T22:26:42.737032
139,-0.3967,0.0298,0.9531,0.525,-3.115,0.210,404,403,385,394,392,2025-05-27T22:26:42.737032
140,-0.3948,0.0278,0.9545,0.490,-2.835,0.035,423,421,345,389,401,2025-05-27T22:26:42.737032
141,-0.3938,0.0259,0.9579,0.280,-2.555,0.070,345,385,368,400,311,2025-05-27T22:26:42.737032
142,-0.3943,0.0259,0.9570,0.140,-2.730,0.175,325,336,372,402,370,2025-05-27T22:26:42.737032
143,-0.3924,0.0283,0.9565,0.245,-2.940,0.140,403,411,379,399,370,2025-05-27T22:26:42.737032
144,-0.3880,0.0293,0.9555,0.245,-2.625,0.000,432,306,339,407,381,2025-05-27T22:26:42.737032
145,-0.3894,0.0332,0.9560,0.210,-2.380,-0.210,410,373,371,348,341,2025-05-27T22:26:42.737032
146,-0.3924,0.0327,0.9565,0.210,-2.240,-0.175,425,417,371,392,330,2025-05-27T22:26:42.737032
147,-0.3953,0.0361,0.9575,0.245,-2.275,-0.210,430,353,337,401,377,2025-05-27T22:26:42.737032
148,-0.3963,0.0303,0.9584,0.385,-2.485,-0.070,395,400,324,364,385,2025-05-27T22:26:42.737032
149,-0.3982,0.0322,0.9589,0.490,-2.695,-0.105,408,402,357,379,401,2025-05-27T22:26:42.737032
150,-0.3967,0.0327,0.9614,0.350,-2.485,0.000,338,356,363,381,392,2025-05-27T22:26:42.737032
151,-0.3972,0.0342,0.9589,0.350,-2.555,0.175,383,384,378,393,394,2025-05-27T22:26:42.952633
152,-0.3977,0.0342,0.9599,0.315,-2.520,0.315,414,414,389,403,413,2025-05-27T22:26:42.952633
153,-0.3977,0.0337,0.9594,0.280,-2.695,0.385,421,420,354,407,390,2025-05-27T22:26:42.952633
154,-0.3967,0.0317,0.9594,0.315,-2.940,0.245,411,401,353,342,381,2025-05-27T22:26:42.952633
155,-0.3972,0.0312,0.9579,0.245,-2.940,0.105,416,344,361,327,378,2025-05-27T22:26:42.952633
156,-0.3933,0.0312,0.9570,0.105,-2.870,0.175,390,389,374,333,380,2025-05-27T22:26:42.952633
157,-0.3948,0.0303,0.9570,0.140,-2.940,0.245,417,417,380,333,388,2025-05-27T22:26:42.952633
158,-0.3933,0.0303,0.9560,0.245,-2.625,0.210,403,428,386,388,411,2025-05-27T22:26:42.952633
159,-0.3948,0.0307,0.9594,0.280,-2.590,0.315,409,401,381,383,390,2025-05-27T22:26:42.952633
160,-0.3938,0.0337,0.9579,0.210,-2.485,0.245,406,356,349,381,403,2025-05-27T22:26:42.952633
161,-0.3958,0.0327,0.9560,0.315,-2.555,0.105,418,388,365,383,406,2025-05-27T22:26:42.952633
162,-0.4006,0.0327,0.9604,0.245,-2.660,0.245,422,365,372,406,315,2025-05-27T22:26:42.952633
163,-0.3992,0.0307,0.9575,0.280,-2.975,0.105,415,410,371,403,377,2025-05-27T22:26:42.952633
164,-0.3987,0.0298,0.9604,0.210,-3.185,0.140,421,408,344,422,410,2025-05-27T22:26:42.952633
165,-0.3919,0.0293,0.9575,0.420,-3.115,0.245,351,416,335,403,404,2025-05-27T22:26:42.952633
166,-0.3924,0.0303,0.9550,0.560,-2.835,0.210,387,400,329,399,403,2025-05-27T22:26:42.952633
167,-0.3924,0.0332,0.9540,0.420,-2.485,0.210,331,417,359,399,407,2025-05-27T22:26:42.952633
168,-0.3943,0.0337,0.9565,0.315,-2.275,0.105,373,426,381,391,399,2025-05-27T22:26:42.952633
169,-0.3958,0.0342,0.9584,0.140,-2.485,0.105,403,433,369,406,416,2025-05-27T22:26:42.952633
170,-0.3982,0.0346,0.9550,0.175,-2.415,0.175,412,430,384,404,420,2025-05-27T22:26:42.952633
171,-0.4006,0.0356,0.9604,0.070,-2.660,0.315,406,430,346,406,362,2025-05-27T22:26:42.952633
172,-0.4016,0.0346,0.9628,0.035,-3.080,0.455,393,420,365,407,374,2025-05-27T22:26:43.173041
173,-0.4002,0.0351,0.9604,-0.105,-3.185,0.595,391,413,364,392,376,2025-05-27T22:26:43.173041
174,-0.3977,0.0351,0.9570,-0.105,-3.220,0.735,375,418,337,397,375,2025-05-27T22:26:43.173041
175,-0.3967,0.0332,0.9560,-0.175,-3.325,0.840,398,425,348,388,405,2025-05-27T22:26:43.173041
176,-0.3963,0.0322,0.9540,-0.245,-3.325,0.735,412,438,366,352,349,2025-05-27T22:26:43.173041
177,-0.3943,0.0342,0.9526,-0.140,-3.465,0.770,408,356,370,331,392,2025-05-27T22:26:43.187423
178,-0.3938,0.0346,0.9555,-0.175,-3.360,0.980,401,409,365,378,350,2025-05-27T22:26:43.187423
179,-0.3943,0.0351,0.9565,-0.455,-3.255,0.770,363,396,362,398,347,2025-05-27T22:26:43.187423
180,-0.3963,0.0342,0.9579,-0.595,-3.010,0.875,399,396,377,401,380,2025-05-27T22:26:43.187423
181,-0.3982,0.0332,0.9599,-0.630,-2.975,0.875,421,401,369,406,403,2025-05-27T22:26:43.187423
182,-0.4006,0.0317,0.9579,-0.595,-3.080,0.875,411,390,378,404,401,2025-05-27T22:26:43.187423
183,-0.3982,0.0312,0.9599,-0.455,-3.325,0.840,426,376,369,399,390,2025-05-27T22:26:43.187423
184,-0.3948,0.0293,0.9599,-0.140,-3.465,0.770,425,413,372,417,412,2025-05-27T22:26:43.187423
185,-0.3933,0.0307,0.9594,0.000,-3.430,0.700,357,424,332,418,358,2025-05-27T22:26:43.187423
186,-0.3938,0.0312,0.9623,-0.035,-3.290,0.630,399,399,364,422,401,2025-05-27T22:26:43.187423
187,-0.3933,0.0317,0.9599,-0.175,-3.325,0.630,395,421,386,375,389,2025-05-27T22:26:43.187423
188,-0.3972,0.0283,0.9575,-0.175,-3.395,0.560,414,408,393,385,394,2025-05-27T22:26:43.187423
189,-0.3963,0.0298,0.9570,-0.070,-3.710,0.455,405,391,391,383,378,2025-05-27T22:26:43.187423
190,-0.3928,0.0303,0.9555,0.000,-3.640,0.490,390,362,388,396,392,2025-05-27T22:26:43.187423
191,-0.3909,0.0288,0.9540,0.035,-2.975,0.420,417,389,385,391,399,2025-05-27T22:26:43.187423
192,-0.3919,0.0278,0.9565,0.175,-2.660,0.280,406,386,383,414,397,2025-05-27T22:26:43.187423
193,-0.3967,0.0322,0.9555,0.105,-2.730,0.350,400,376,358,402,358,2025-05-27T22:26:43.286749
194,-0.3967,0.0317,0.9579,0.035,-3.255,0.385,418,414,372,396,381,2025-05-27T22:26:43.286749
195,-0.3987,0.0322,0.9545,0.105,-3.430,0.455,394,423,378,399,342,2025-05-27T22:26:43.286749
196,-0.3924,0.0298,0.9555,0.175,-3.290,0.385,356,387,380,365,382,2025-05-27T22:26:43.287254
197,-0.3909,0.0312,0.9555,0.070,-2.905,0.385,410,399,374,403,400,2025-05-27T22:26:43.287306
198,-0.3909,0.0298,0.9531,0.105,-2.695,0.315,396,399,373,422,401,2025-05-27T22:26:43.287306
199,-0.3899,0.0307,0.9531,0.350,-2.415,0.210,392,299,379,420,406,2025-05-27T22:26:43.287306
200,-0.3928,0.0317,0.9560,0.210,-2.030,-0.035,409,409,380,403,404,2025-05-27T22:26:43.287306
201,-0.3967,0.0342,0.9599,0.105,-1.925,-0.105,419,416,357,397,401,2025-05-27T22:26:43.459149
202,-0.3967,0.0312,0.9594,0.210,-2.345,-0.105,420,411,371,411,404,2025-05-27T22:26:43.459149
203,-0.3958,0.0332,0.9555,0.245,-2.485,-0.140,303,410,340,375,398,2025-05-27T22:26:43.459149
204,-0.3953,0.0303,0.9560,0.455,-2.275,-0.245,399,427,365,374,363,2025-05-27T22:26:43.459149
205,-0.3909,0.0312,0.9579,0.385,-2.100,0.070,414,423,334,398,395,2025-05-27T22:26:43.459149
206,-0.3943,0.0327,0.9584,0.245,-1.960,0.210,398,420,353,393,401,2025-05-27T22:26:43.459149
207,-0.3997,0.0327,0.9560,0.315,-2.380,0.280,396,414,331,409,387,2025-05-27T22:26:43.459149
208,-0.3958,0.0381,0.9516,0.490,-2.975,0.560,403,421,358,403,386,2025-05-27T22:26:43.459149
209,-0.3948,0.0366,0.9501,0.525,-2.835,0.700,422,403,330,416,355,2025-05-27T22:26:43.459149
210,-0.3928,0.0371,0.9511,0.630,-2.310,0.735,414,399,344,395,374,2025-05-27T22:26:43.459149
211,-0.3919,0.0361,0.9545,0.525,-2.135,0.630,415,403,363,407,404,2025-05-27T22:26:43.459149
212,-0.3928,0.0342,0.9604,0.140,-2.030,0.665,410,364,338,357,410,2025-05-27T22:26:43.459149
213,-0.3958,0.0322,0.9667,0.105,-2.135,0.875,344,366,319,374,417,2025-05-27T22:26:43.459149
214,-0.4002,0.0307,0.9638,0.175,-2.450,1.015,374,424,326,407,412,2025-05-27T22:26:43.459149
215,-0.4050,0.0293,0.9643,0.420,-3.010,1.085,356,423,360,370,412,2025-05-27T22:26:43.490235
216,-0.4016,0.0322,0.9623,0.525,-3.500,1.260,332,398,372,404,363,2025-05-27T22:26:43.490235
217,-0.3948,0.0351,0.9633,0.315,-3.815,1.050,384,402,386,419,332,2025-05-27T22:26:43.490235
218,-0.3865,0.0366,0.9604,0.035,-3.465,0.665,295,424,391,397,384,2025-05-27T22:26:43.490235
219,-0.3855,0.0327,0.9560,-0.070,-2.905,0.595,366,437,388,311,391,2025-05-27T22:26:43.605895
220,-0.3880,0.0337,0.9526,0.175,-2.695,0.455,392,436,375,371,397,2025-05-27T22:26:43.605895
221,-0.3889,0.0381,0.9545,0.385,-2.590,0.525,409,413,368,342,406,2025-05-27T22:26:43.605895
222,-0.3899,0.0386,0.9516,0.035,-2.170,0.700,416,353,377,388,416,2025-05-27T22:26:43.605895
223,-0.4002,0.0376,0.9540,-0.140,-2.135,0.630,410,401,391,388,424,2025-05-27T22:26:43.605895
224,-0.4016,0.0386,0.9545,-0.175,-2.660,0.525,434,396,390,414,427,2025-05-27T22:26:43.605895
225,-0.4021,0.0371,0.9575,-0.105,-2.765,0.560,413,418,387,410,406,2025-05-27T22:26:43.605895
226,-0.3963,0.0376,0.9594,0.105,-2.765,0.560,421,429,376,423,418,2025-05-27T22:26:43.605895
227,-0.3933,0.0356,0.9609,0.140,-2.380,0.665,374,401,381,419,412,2025-05-27T22:26:43.605895
228,-0.3972,0.0351,0.9638,0.035,-2.310,0.525,387,402,348,420,416,2025-05-27T22:26:43.605895
229,-0.3967,0.0337,0.9633,0.035,-2.380,0.490,403,421,371,390,405,2025-05-27T22:26:43.605895
230,-0.4011,0.0346,0.9579,0.245,-3.010,0.490,416,433,377,399,397,2025-05-27T22:26:43.886898
231,-0.3987,0.0342,0.9555,0.525,-3.395,0.595,395,424,335,404,391,2025-05-27T22:26:43.886898
232,-0.3953,0.0351,0.9550,0.595,-3.500,0.770,394,383,364,420,389,2025-05-27T22:26:43.886898
233,-0.3928,0.0361,0.9540,0.350,-3.150,0.630,384,370,372,421,379,2025-05-27T22:26:43.886898
234,-0.3958,0.0342,0.9545,0.175,-2.730,0.420,411,329,378,417,400,2025-05-27T22:26:43.886898
235,-0.3928,0.0376,0.9550,0.175,-2.275,0.455,407,382,390,426,394,2025-05-27T22:26:43.886898
236,-0.4011,0.0346,0.9579,0.140,-2.310,0.280,410,409,396,420,348,2025-05-27T22:26:43.886898
237,-0.4002,0.0337,0.9599,0.000,-2.765,0.245,343,423,350,416,386,2025-05-27T22:26:43.886898
238,-0.4016,0.0322,0.9575,0.210,-3.080,0.245,413,394,381,407,402,2025-05-27T22:26:43.886898
239,-0.4011,0.0312,0.9545,0.280,-3.115,0.315,424,368,355,405,348,2025-05-27T22:26:43.886898
240,-0.3997,0.0337,0.9565,0.455,-3.255,0.245,402,420,332,346,371,2025-05-27T22:26:43.886898
241,-0.3972,0.0346,0.9560,0.420,-3.675,0.175,410,430,364,398,387,2025-05-27T22:26:43.886898
242,-0.3919,0.0332,0.9516,0.385,-3.430,0.070,339,413,334,406,345,2025-05-27T22:26:43.886898
243,-0.3938,0.0351,0.9540,0.245,-3.255,0.175,397,429,351,407,394,2025-05-27T22:26:43.886898
244,-0.3909,0.0351,0.9501,0.070,-3.220,0.105,424,372,375,350,344,2025-05-27T22:26:43.886898
245,-0.3958,0.0337,0.9540,-0.070,-3.010,0.140,422,412,382,375,376,2025-05-27T22:26:43.886898
246,-0.3992,0.0342,0.9506,-0.280,-2.905,0.035,384,374,354,391,377,2025-05-27T22:26:43.886898
247,-0.3992,0.0322,0.9501,-0.210,-3.185,0.140,399,387,362,350,405,2025-05-27T22:26:43.886898
248,-0.3997,0.0342,0.9540,-0.175,-3.290,0.140,394,345,361,389,411,2025-05-27T22:26:44.020286
249,-0.3992,0.0337,0.9521,-0.070,-3.255,0.000,403,332,371,384,416,2025-05-27T22:26:44.020286
250,-0.3982,0.0351,0.9501,-0.035,-3.290,-0.070,409,325,365,400,395,2025-05-27T22:26:44.020286
251,-0.3938,0.0322,0.9501,0.140,-3.010,-0.070,408,397,382,408,367,2025-05-27T22:26:44.020286
252,-0.3948,0.0342,0.9511,0.280,-2.590,-0.175,428,360,378,412,335,2025-05-27T22:26:44.020286
253,-0.3972,0.0356,0.9496,0.280,-2.695,-0.350,344,409,385,413,385,2025-05-27T22:26:44.020286
254,-0.3933,0.0381,0.9526,0.245,-2.765,-0.385,402,394,345,408,404,2025-05-27T22:26:44.020286
255,-0.3943,0.0361,0.9550,-0.105,-2.555,-0.385,423,413,371,411,385,2025-05-27T22:26:44.020286
256,-0.3958,0.0386,0.9565,-0.385,-2.415,-0.105,419,347,376,409,340,2025-05-27T22:26:44.020286
257,-0.4011,0.0366,0.9555,-0.385,-2.415,0.070,379,402,389,397,378,2025-05-27T22:26:44.020286
258,-0.4026,0.0361,0.9618,-0.140,-2.590,0.245,416,373,384,360,383,2025-05-27T22:26:44.020286
259,-0.3967,0.0356,0.9662,-0.105,-2.975,0.595,401,394,381,391,388,2025-05-27T22:26:44.020286
260,-0.3963,0.0381,0.9658,-0.210,-3.220,0.840,399,401,344,389,391,2025-05-27T22:26:44.020286
261,-0.3963,0.0371,0.9609,-0.280,-3.360,0.945,392,347,364,395,397,2025-05-27T22:26:44.020286
262,-0.3924,0.0371,0.9604,-0.315,-3.395,0.875,389,386,374,407,393,2025-05-27T22:26:44.020286
263,-0.3933,0.0346,0.9565,-0.455,-3.360,0.700,409,386,382,392,400,2025-05-27T22:26:44.020286
264,-0.3909,0.0356,0.9565,-0.350,-3.150,0.560,344,291,370,347,342,2025-05-27T22:26:44.035613
265,-0.3924,0.0356,0.9594,-0.385,-3.220,0.350,365,386,375,388,392,2025-05-27T22:26:44.203903
266,-0.3933,0.0337,0.9599,-0.455,-3.290,0.420,406,359,375,409,379,2025-05-27T22:26:44.203903
267,-0.3924,0.0366,0.9594,-0.525,-3.255,0.455,391,419,386,370,386,2025-05-27T22:26:44.203903
268,-0.3967,0.0346,0.9584,-0.490,-3.255,0.385,411,429,388,397,387,2025-05-27T22:26:44.203903
269,-0.3972,0.0293,0.9575,-0.490,-3.255,0.350,341,380,395,406,414,2025-05-27T22:26:44.203903
270,-0.3948,0.0322,0.9575,-0.455,-3.500,0.455,406,401,389,409,417,2025-05-27T22:26:44.203903
271,-0.3938,0.0332,0.9560,-0.385,-3.570,0.420,409,426,398,414,374,2025-05-27T22:26:44.203903
272,-0.3914,0.0327,0.9570,-0.385,-3.290,0.245,381,417,385,397,390,2025-05-27T22:26:44.203903
273,-0.3889,0.0322,0.9536,-0.140,-3.150,0.070,351,410,390,415,393,2025-05-27T22:26:44.203903
274,-0.3899,0.0351,0.9531,-0.245,-2.730,0.105,412,414,391,396,399,2025-05-27T22:26:44.203903
275,-0.3933,0.0351,0.9540,-0.385,-2.485,0.035,393,420,358,411,410,2025-05-27T22:26:44.203903
276,-0.3914,0.0366,0.9575,-0.455,-2.555,-0.035,415,421,328,399,395,2025-05-27T22:26:44.203903
277,-0.3963,0.0332,0.9575,-0.490,-2.520,0.000,427,407,350,399,347,2025-05-27T22:26:44.203903
278,-0.3972,0.0312,0.9609,-0.490,-2.730,0.070,407,419,354,402,393,2025-05-27T22:26:44.203903
279,-0.3972,0.0327,0.9609,-0.280,-3.080,0.105,418,422,364,353,407,2025-05-27T22:26:44.336743
280,-0.4006,0.0317,0.9589,0.035,-3.185,0.035,404,375,380,334,411,2025-05-27T22:26:44.337194
281,-0.3948,0.0337,0.9599,8.925,-3.150,0.070,396,390,355,382,415,2025-05-27T22:26:44.337194
282,-0.3938,0.0317,0.9560,-0.035,-3.080,-0.105,414,397,371,384,366,2025-05-27T22:26:44.337194
283,-0.3928,0.0342,0.9545,-0.105,-2.905,-0.035,392,297,378,384,350,2025-05-27T22:26:44.337194
284,-0.3904,0.0351,0.9570,-0.140,-3.045,-0.175,390,397,373,402,336,2025-05-27T22:26:44.337194
285,-0.3855,0.0312,0.9594,-0.175,-2.870,-0.315,377,338,336,350,324,2025-05-27T22:26:44.337194
286,-0.3889,0.0317,0.9575,-0.210,-2.275,-0.525,390,389,363,375,370,2025-05-27T22:26:44.337194
287,-0.3948,0.0312,0.9560,0.105,-1.995,-0.595,408,356,343,387,387,2025-05-27T22:26:44.337194
288,-0.3987,0.0356,0.9584,0.245,-2.380,-0.490,414,393,348,401,398,2025-05-27T22:26:44.337788
289,-0.4002,0.0356,0.9604,-0.070,-3.045,-0.070,415,403,352,391,401,2025-05-27T22:26:44.403755
290,-0.3958,0.0346,0.9584,-0.385,-2.975,0.035,419,396,325,384,393,2025-05-27T22:26:44.403755
291,-0.3953,0.0342,0.9565,-0.420,-2.905,0.000,392,420,360,384,367,2025-05-27T22:26:44.403755
292,-0.3938,0.0346,0.9565,-0.315,-2.905,0.140,417,412,375,380,399,2025-05-27T22:26:44.403755
293,-0.3953,0.0327,0.9570,-0.175,-2.975,0.245,418,415,367,387,386,2025-05-27T22:26:44.403755
294,-0.3919,0.0332,0.9550,0.070,-3.185,0.175,345,421,380,405,344,2025-05-27T22:26:44.403755
295,-0.3938,0.0371,0.9570,-8.960,-2.835,0.105,405,398,386,407,386,2025-05-27T22:26:44.403755
296,-0.3924,0.0351,0.9599,-0.280,-2.275,0.035,392,367,384,367,398,2025-05-27T22:26:44.455380
297,-0.3953,0.0346,0.9609,-0.490,-2.345,0.035,413,403,382,405,388,2025-05-27T22:26:44.455380
298,-0.3982,0.0327,0.9609,-0.280,-2.555,0.140,362,414,388,398,396,2025-05-27T22:26:44.455380
299,-0.4002,0.0322,0.9599,-0.245,-3.080,0.245,393,347,385,385,394,2025-05-27T22:26:44.455380
300,-0.3982,0.0332,0.9555,-0.140,-3.395,0.525,405,380,380,375,397,2025-05-27T22:26:44.620561
301,-0.3933,0.0322,0.9516,0.035,-3.185,0.630,421,383,373,394,393,2025-05-27T22:26:44.620561
302,-0.3919,0.0361,0.9501,-0.210,-2.660,0.630,415,392,372,414,370,2025-05-27T22:26:44.620561
303,-0.3899,0.0361,0.9521,-0.210,-2.555,0.630,413,421,372,414,401,2025-05-27T22:26:44.620561
304,-0.3953,0.0361,0.9501,-0.315,-2.485,0.630,419,400,373,407,383,2025-05-27T22:26:44.620561
305,-0.3924,0.0376,0.9496,-0.350,-2.415,0.350,403,388,391,416,389,2025-05-27T22:26:44.620561
306,-0.3914,0.0361,0.9550,-0.280,-2.275,0.210,387,410,360,354,381,2025-05-27T22:26:44.620561
307,-0.3938,0.0356,0.9584,-0.245,-2.030,0.070,409,403,370,353,343,2025-05-27T22:26:44.620561
308,-0.3953,0.0332,0.9662,-0.245,-2.135,0.105,414,430,373,392,348,2025-05-27T22:26:44.620561
309,-0.3997,0.0317,0.9653,0.035,-2.695,0.315,425,396,351,400,335,2025-05-27T22:26:44.620561
310,-0.4016,0.0312,0.9628,0.175,-3.220,0.350,406,416,333,416,373,2025-05-27T22:26:44.620561
311,-0.4041,0.0332,0.9604,0.210,-3.465,0.490,414,376,369,358,388,2025-05-27T22:26:44.620561
312,-0.3967,0.0312,0.9599,0.105,-3.430,0.455,422,415,371,337,386,2025-05-27T22:26:44.620561
313,-0.3933,0.0327,0.9584,-0.070,-3.290,0.140,420,430,370,369,389,2025-05-27T22:26:44.620561
314,-0.3875,0.0327,0.9584,-0.070,-2.975,0.140,422,379,379,394,367,2025-05-27T22:26:44.724255
315,-0.3865,0.0312,0.9584,-0.035,-3.010,0.245,431,399,383,388,375,2025-05-27T22:26:44.724255
316,-0.3914,0.0351,0.9584,0.105,-2.905,0.385,423,428,338,407,394,2025-05-27T22:26:44.724255
317,-0.3928,0.0361,0.9550,0.035,-2.625,0.490,399,393,357,419,401,2025-05-27T22:26:44.724255
318,-0.3958,0.0371,0.9570,-0.105,-2.800,0.315,408,374,376,355,382,2025-05-27T22:26:44.724255
319,-0.3948,0.0381,0.9560,-0.280,-2.835,0.315,361,374,384,351,383,2025-05-27T22:26:44.724255
320,-0.3943,0.0371,0.9599,-0.315,-3.010,0.350,400,421,385,400,350,2025-05-27T22:26:44.724255
321,-0.3967,0.0322,0.9638,-0.420,-3.325,0.350,358,421,370,391,364,2025-05-27T22:26:44.724255
322,-0.3948,0.0346,0.9623,-0.350,-3.465,0.490,372,382,376,411,379,2025-05-27T22:26:44.724255
323,-0.3914,0.0312,0.9589,-0.280,-3.255,0.420,406,396,379,350,398,2025-05-27T22:26:44.820044
324,-0.3914,0.0332,0.9579,-0.245,-3.150,0.315,424,341,382,381,386,2025-05-27T22:26:44.820183
325,-0.3933,0.0327,0.9570,-0.140,-3.185,0.035,360,332,371,406,408,2025-05-27T22:26:44.820409
326,-0.3904,0.0307,0.9599,-0.315,-2.940,0.000,422,395,381,408,349,2025-05-27T22:26:44.820457
327,-0.3909,0.0303,0.9584,-0.315,-2.940,0.000,421,424,376,411,378,2025-05-27T22:26:44.820593
328,-0.3963,0.0327,0.9589,-0.140,-3.360,0.035,397,415,389,418,352,2025-05-27T22:26:44.820593
329,-0.3938,0.0346,0.9565,-0.140,-3.360,0.000,417,346,390,401,367,2025-05-27T22:26:44.820593
330,-0.3938,0.0337,0.9560,-0.280,-3.325,0.000,429,405,376,370,338,2025-05-27T22:26:44.820593
331,-0.3924,0.0307,0.9575,-0.350,-3.290,-0.035,414,432,384,351,367,2025-05-27T22:26:45.019712
332,-0.3904,0.0342,0.9555,-0.490,-2.940,-0.035,411,421,378,407,372,2025-05-27T22:26:45.019712
333,-0.3928,0.0327,0.9565,-0.595,-2.485,0.070,401,418,378,405,387,2025-05-27T22:26:45.019712
334,-0.3987,0.0317,0.9545,-0.350,-2.590,0.000,391,420,384,361,398,2025-05-27T22:26:45.019712
335,-0.3987,0.0332,0.9550,-0.175,-2.975,0.070,414,392,309,375,394,2025-05-27T22:26:45.019712
336,-0.3948,0.0322,0.9570,-0.245,-2.730,0.105,421,390,342,412,403,2025-05-27T22:26:45.019712
337,-0.3953,0.0351,0.9579,-0.245,-2.730,0.140,410,428,366,362,345,2025-05-27T22:26:45.019712
338,-0.3933,0.0337,0.9545,-0.245,-3.080,0.140,421,437,371,397,386,2025-05-27T22:26:45.019712
339,-0.3924,0.0337,0.9555,-0.140,-2.835,0.105,396,416,384,395,398,2025-05-27T22:26:45.019712
340,-0.3924,0.0351,0.9570,-0.245,-2.485,0.070,353,404,388,395,412,2025-05-27T22:26:45.019712
341,-0.3919,0.0342,0.9604,-0.385,-2.240,0.070,398,355,386,372,393,2025-05-27T22:26:45.019712
342,-0.3987,0.0317,0.9599,-0.385,-2.450,0.140,411,415,376,409,405,2025-05-27T22:26:45.019712
343,-0.4006,0.0303,0.9614,-0.105,-2.800,0.245,413,433,385,400,406,2025-05-27T22:26:45.019712
344,-0.4002,0.0298,0.9589,0.105,-3.290,0.245,410,373,392,412,417,2025-05-27T22:26:45.019712
345,-0.3928,0.0312,0.9545,0.175,-3.220,0.315,409,393,378,418,370,2025-05-27T22:26:45.019712
346,-0.3919,0.0322,0.9545,0.105,-2.695,0.280,404,414,377,407,389,2025-05-27T22:26:45.019712
347,-0.3899,0.0327,0.9589,-0.035,-2.240,0.105,430,428,353,388,400,2025-05-27T22:26:45.019712
348,-0.3909,0.0307,0.9570,-0.315,-2.275,0.035,427,420,360,407,392,2025-05-27T22:26:45.070641
349,-0.3909,0.0342,0.9594,-0.385,-2.240,0.140,430,406,344,361,400,2025-05-27T22:26:45.070641
350,-0.3963,0.0327,0.9609,-0.315,-2.135,0.140,406,417,358,397,407,2025-05-27T22:26:45.070641
351,-0.3977,0.0332,0.9618,-0.420,-2.450,0.140,340,398,336,349,402,2025-05-27T22:26:45.271501
352,-0.3933,0.0337,0.9633,-0.350,-3.150,0.595,382,385,364,403,395,2025-05-27T22:26:45.271501
353,-0.3958,0.0307,0.9599,-0.280,-3.115,0.630,417,399,370,409,401,2025-05-27T22:26:45.271501
354,-0.3928,0.0327,0.9540,0.035,-2.905,0.490,392,354,368,374,360,2025-05-27T22:26:45.271501
355,-0.3919,0.0337,0.9579,-0.035,-2.940,0.280,397,413,369,378,399,2025-05-27T22:26:45.271501
356,-0.3938,0.0303,0.9584,-0.315,-2.660,0.210,409,425,381,392,395,2025-05-27T22:26:45.271501
357,-0.3972,0.0307,0.9565,-0.175,-2.730,0.035,399,394,396,397,392,2025-05-27T22:26:45.271501
358,-0.3963,0.0298,0.9565,0.000,-3.150,0.140,371,338,382,414,366,2025-05-27T22:26:45.271501
359,-0.3963,0.0298,0.9555,0.070,-3.115,0.140,405,385,387,413,389,2025-05-27T22:26:45.271501
360,-0.3977,0.0312,0.9579,0.000,-2.870,-0.035,425,409,385,411,394,2025-05-27T22:26:45.530720
361,-0.3948,0.0307,0.9570,-0.035,-3.010,0.070,383,417,372,395,391,2025-05-27T22:26:45.530720
362,-0.3933,0.0288,0.9575,0.035,-2.975,0.000,411,420,387,400,390,2025-05-27T22:26:45.530720
363,-0.3938,0.0303,0.9579,0.210,-2.975,-0.070,397,407,370,412,392,2025-05-27T22:26:45.530720
364,-0.3938,0.0307,0.9575,0.210,-2.940,-0.245,296,407,379,409,411,2025-05-27T22:26:45.530720
365,-0.3899,0.0346,0.9589,0.035,-2.835,-0.175,386,410,384,376,413,2025-05-27T22:26:45.530720
366,-0.3889,0.0337,0.9565,-0.035,-2.800,-0.140,391,396,341,391,350,2025-05-27T22:26:45.530720
367,-0.3924,0.0332,0.9599,-0.140,-2.695,0.000,362,430,327,398,378,2025-05-27T22:26:45.530720
368,-0.3958,0.0332,0.9589,-0.140,-2.835,-0.035,400,412,322,424,351,2025-05-27T22:26:45.530720
369,-0.3928,0.0342,0.9614,-0.105,-3.150,0.000,418,422,354,400,375,2025-05-27T22:26:45.535604
370,-0.3948,0.0332,0.9614,-0.175,-3.185,0.070,429,345,368,393,387,2025-05-27T22:26:45.535808
371,-0.3938,0.0351,0.9570,-0.175,-3.150,0.140,420,383,380,409,399,2025-05-27T22:26:45.535877
372,-0.3943,0.0342,0.9575,-0.140,-3.115,0.245,424,372,389,409,409,2025-05-27T22:26:45.536034
373,-0.3924,0.0337,0.9575,-0.175,-3.115,0.350,428,405,381,394,394,2025-05-27T22:26:45.536244
374,-0.3948,0.0322,0.9565,-0.210,-3.115,0.385,350,422,393,396,414,2025-05-27T22:26:45.587371
375,-0.3904,0.0317,0.9555,-0.175,-3.080,0.560,401,421,378,411,391,2025-05-27T22:26:45.587371
376,-0.3924,0.0332,0.9584,-0.210,-3.185,0.525,408,425,388,414,394,2025-05-27T22:26:45.587371
377,-0.3943,0.0342,0.9579,-0.350,-3.010,0.455,402,423,380,371,347,2025-05-27T22:26:45.587371
378,-0.3928,0.0298,0.9579,-0.280,-2.905,0.350,408,382,379,399,376,2025-05-27T22:26:45.587371
379,-0.3938,0.0303,0.9599,-0.210,-2.940,0.210,369,414,386,406,395,2025-05-27T22:26:45.587371
380,-0.3938,0.0312,0.9579,-0.315,-2.870,0.490,410,432,376,418,413,2025-05-27T22:26:45.587371
381,-0.3977,0.0298,0.9565,-0.210,-3.080,0.420,396,411,368,423,410,2025-05-27T22:26:45.587371
382,-0.3967,0.0288,0.9565,-0.070,-3.395,0.595,414,424,389,424,402,2025-05-27T22:26:45.587371
383,-0.3928,0.0298,0.9555,-0.070,-3.290,0.455,423,351,382,362,413,2025-05-27T22:26:45.587371
384,-0.3919,0.0293,0.9560,-0.140,-2.940,0.315,421,377,373,378,402,2025-05-27T22:26:45.587371
385,-0.3924,0.0273,0.9565,-0.105,-2.835,0.280,385,408,353,334,417,2025-05-27T22:26:45.587371
386,-0.3914,0.0298,0.9565,-0.035,-2.660,0.175,416,399,356,376,375,2025-05-27T22:26:45.587371
387,-0.3928,0.0278,0.9599,-0.035,-2.450,0.000,392,424,327,382,380,2025-05-27T22:26:45.587371
388,-0.3919,0.0288,0.9594,0.035,-2.380,0.140,408,349,353,344,383,2025-05-27T22:26:45.587371
389,-0.3938,0.0317,0.9614,-0.035,-2.590,0.140,416,416,332,383,386,2025-05-27T22:26:45.587371
390,-0.3972,0.0288,0.9579,0.035,-3.255,0.315,373,427,357,388,351,2025-05-27T22:26:45.587371
391,-0.3958,0.0303,0.9565,0.245,-3.465,0.175,405,401,365,393,383,2025-05-27T22:26:45.587371
392,-0.3924,0.0317,0.9584,0.315,-3.395,0.105,412,365,380,362,383,2025-05-27T22:26:45.587371
393,-0.3889,0.0317,0.9560,0.245,-2.940,0.175,407,393,339,396,392,2025-05-27T22:26:45.587371
394,-0.3884,0.0307,0.9550,0.245,-2.660,0.105,400,400,327,384,404,2025-05-27T22:26:45.587371
395,-0.3948,0.0303,0.9555,0.315,-2.345,-0.070,376,371,338,387,350,2025-05-27T22:26:45.641812
396,-0.3977,0.0312,0.9579,0.210,-2.415,-0.140,385,381,350,397,371,2025-05-27T22:26:45.641812
397,-0.3972,0.0322,0.9633,0.140,-2.660,-0.070,381,393,356,347,376,2025-05-27T22:26:45.641812
398,-0.3943,0.0303,0.9618,0.210,-2.660,0.105,403,388,344,330,403,2025-05-27T22:26:45.641812
399,-0.3899,0.0322,0.9614,0.210,-2.660,0.140,397,421,367,394,404,2025-05-27T22:26:45.641812
400,-0.3914,0.0322,0.9628,0.070,-2.590,0.420,300,350,370,361,402,2025-05-27T22:26:45.689489
401,-0.3894,0.0327,0.9599,-0.105,-2.625,0.700,396,336,387,405,412,2025-05-27T22:26:45.689489
402,-0.3958,0.0317,0.9575,-0.210,-2.730,0.910,348,409,385,393,390,2025-05-27T22:26:45.689489
403,-0.3967,0.0361,0.9575,-0.245,-3.255,0.945,422,406,388,398,391,2025-05-27T22:26:45.689489
404,-0.3933,0.0361,0.9526,-0.175,-3.675,1.085,393,418,353,388,406,2025-05-27T22:26:45.844183
405,-0.3948,0.0356,0.9570,-0.210,-3.570,1.015,371,342,372,415,383,2025-05-27T22:26:45.844183
406,-0.3948,0.0332,0.9594,-0.455,-3.465,0.945,407,400,376,417,399,2025-05-27T22:26:45.844183
407,-0.3924,0.0332,0.9618,-0.525,-3.500,0.840,394,434,381,397,383,2025-05-27T22:26:45.844183
408,-0.3953,0.0317,0.9614,-0.420,-3.360,0.910,338,373,366,418,411,2025-05-27T22:26:45.844183
409,-0.3967,0.0283,0.9594,-0.210,-3.570,0.735,389,417,380,366,416,2025-05-27T22:26:45.844183
410,-0.3933,0.0288,0.9550,0.035,-4.025,0.805,419,399,373,399,420,2025-05-27T22:26:45.844183
411,-0.3909,0.0312,0.9555,0.105,-3.780,0.665,429,423,375,349,392,2025-05-27T22:26:45.844183
412,-0.3914,0.0288,0.9550,-0.140,-3.325,0.525,406,428,344,388,401,2025-05-27T22:26:45.844183
413,-0.3909,0.0298,0.9550,-0.175,-3.115,0.350,389,396,369,400,421,2025-05-27T22:26:45.844183
414,-0.3899,0.0293,0.9575,-0.245,-2.730,0.140,418,425,378,409,413,2025-05-27T22:26:45.844183
415,-0.3870,0.0264,0.9570,-0.140,-2.380,0.105,413,423,381,391,390,2025-05-27T22:26:45.844183
416,-0.3914,0.0264,0.9560,0.245,-2.520,0.105,395,341,381,403,383,2025-05-27T22:26:45.844183
417,-0.3928,0.0317,0.9526,0.490,-2.730,-0.035,387,384,346,362,405,2025-05-27T22:26:45.890445
418,-0.3943,0.0327,0.9555,0.525,-2.415,-0.210,398,431,374,395,393,2025-05-27T22:26:45.890445
419,-0.3909,0.0356,0.9584,0.210,-2.415,-0.175,403,431,367,409,400,2025-05-27T22:26:45.890445
420,-0.3914,0.0376,0.9618,-0.175,-2.555,-0.070,392,431,361,410,395,2025-05-27T22:26:45.890445
421,-0.3948,0.0342,0.9628,-0.280,-2.555,0.035,408,368,382,410,412,2025-05-27T22:26:46.038163
422,-0.3948,0.0312,0.9628,-0.140,-2.730,0.175,364,351,378,399,414,2025-05-27T22:26:46.038163
423,-0.3963,0.0312,0.9643,0.175,-3.080,0.035,417,425,386,402,408,2025-05-27T22:26:46.038163
424,-0.3943,0.0303,0.9643,0.245,-3.185,0.105,427,419,387,406,354,2025-05-27T22:26:46.038163
425,-0.3914,0.0298,0.9609,0.175,-3.150,0.070,409,424,349,387,386,2025-05-27T22:26:46.038163
426,-0.3894,0.0322,0.9628,0.175,-3.290,-0.035,407,433,358,409,396,2025-05-27T22:26:46.038163
427,-0.3904,0.0322,0.9565,0.140,-3.080,0.070,415,426,328,353,383,2025-05-27T22:26:46.038163
428,-0.3914,0.0322,0.9570,0.070,-3.010,0.070,391,419,360,293,386,2025-05-27T22:26:46.038163
429,-0.3899,0.0332,0.9545,0.140,-2.590,-0.070,428,309,331,350,402,2025-05-27T22:26:46.038163
430,-0.3875,0.0342,0.9555,-0.035,-2.450,-0.070,402,323,318,353,393,2025-05-27T22:26:46.038163
431,-0.3924,0.0332,0.9594,-0.245,-2.345,-0.070,414,382,317,389,392,2025-05-27T22:26:46.038163
432,-0.3963,0.0342,0.9604,-0.350,-2.730,-0.105,401,386,353,399,396,2025-05-27T22:26:46.038163
433,-0.3987,0.0317,0.9614,-0.210,-3.045,-0.070,409,405,362,373,384,2025-05-27T22:26:46.038163
434,-0.4011,0.0293,0.9604,-0.175,-3.080,0.000,409,391,375,392,404,2025-05-27T22:26:46.352767
435,-0.3992,0.0317,0.9560,0.175,-3.220,-0.035,365,409,369,381,409,2025-05-27T22:26:46.353049
436,-0.3928,0.0283,0.9570,0.210,-3.220,0.140,414,421,370,416,373,2025-05-27T22:26:46.353235
437,-0.3909,0.0312,0.9589,0.140,-2.765,0.315,420,438,384,422,339,2025-05-27T22:26:46.353235
438,-0.3919,0.0307,0.9584,0.070,-3.010,0.140,399,416,389,414,372,2025-05-27T22:26:46.353725
439,-0.3889,0.0312,0.9589,-0.105,-3.325,0.140,342,396,384,404,396,2025-05-27T22:26:46.354131
440,-0.3894,0.0317,0.9579,-0.210,-3.010,0.035,403,401,383,393,390,2025-05-27T22:26:46.354231
441,-0.3919,0.0283,0.9560,-0.070,-2.625,0.105,418,394,351,339,393,2025-05-27T22:26:46.354231
442,-0.3924,0.0342,0.9575,0.000,-2.660,0.245,341,411,325,395,407,2025-05-27T22:26:46.354231
443,-0.3948,0.0317,0.9594,0.000,-2.905,0.350,383,412,369,410,392,2025-05-27T22:26:46.354231
444,-0.3943,0.0337,0.9560,0.035,-3.010,0.245,422,410,385,408,385,2025-05-27T22:26:46.354231
445,-0.3889,0.0317,0.9565,0.035,-3.080,0.350,344,381,386,373,395,2025-05-27T22:26:46.354231
446,-0.3904,0.0312,0.9575,-0.105,-2.835,0.210,392,339,368,348,368,2025-05-27T22:26:46.354231
447,-0.3909,0.0327,0.9594,-0.210,-2.835,0.280,414,389,377,389,387,2025-05-27T22:26:46.354231
448,-0.3904,0.0317,0.9614,-0.035,-2.975,0.315,402,428,342,413,411,2025-05-27T22:26:46.354231
449,-0.3948,0.0317,0.9575,0.000,-2.975,0.315,416,383,354,410,395,2025-05-27T22:26:46.354231
450,-0.3987,0.0312,0.9579,0.070,-3.115,0.350,395,402,366,404,364,2025-05-27T22:26:46.354231
451,-0.3963,0.0342,0.9540,0.105,-3.640,0.525,359,403,362,372,395,2025-05-27T22:26:46.469989
452,-0.3875,0.0312,0.9643,-0.210,-4.375,0.735,396,430,380,407,383,2025-05-27T22:26:46.469989
453,-0.3855,0.0293,0.9662,-0.210,-4.060,0.980,420,434,391,348,401,2025-05-27T22:26:46.469989
454,-0.3860,0.0307,0.9609,-0.245,-3.605,0.665,386,429,382,385,401,2025-05-27T22:26:46.469989
455,-0.3884,0.0293,0.9584,-0.175,-3.395,0.350,420,355,373,405,405,2025-05-27T22:26:46.469989
456,-0.3919,0.0317,0.9575,-0.070,-3.010,0.245,400,405,364,354,414,2025-05-27T22:26:46.469989
457,-0.3943,0.0307,0.9570,0.070,-3.010,0.350,426,402,366,393,398,2025-05-27T22:26:46.469989
458,-0.3953,0.0293,0.9575,0.105,-3.570,0.280,383,415,383,402,406,2025-05-27T22:26:46.469989
459,-0.3924,0.0303,0.9550,0.035,-3.535,0.350,413,395,377,396,410,2025-05-27T22:26:46.469989
460,-0.3914,0.0293,0.9589,0.070,-3.430,0.280,378,353,378,413,394,2025-05-27T22:26:46.469989
461,-0.3904,0.0298,0.9594,0.070,-3.395,0.315,336,350,387,387,389,2025-05-27T22:26:46.469989
462,-0.3850,0.0322,0.9594,0.105,-3.115,0.350,396,423,394,361,375,2025-05-27T22:26:46.469989
463,-0.3899,0.0307,0.9570,0.315,-2.765,0.105,408,412,388,391,402,2025-05-27T22:26:46.469989
464,-0.3909,0.0312,0.9575,0.280,-2.905,-0.035,348,342,349,382,391,2025-05-27T22:26:46.469989
465,-0.3919,0.0346,0.9550,0.420,-3.150,-0.140,399,394,369,411,415,2025-05-27T22:26:46.469989
466,-0.3928,0.0317,0.9550,0.630,-3.150,-0.175,393,423,380,410,413,2025-05-27T22:26:46.469989
467,-0.3938,0.0307,0.9555,0.595,-3.185,-0.245,417,426,389,398,398,2025-05-27T22:26:46.469989
468,-0.3924,0.0293,0.9589,0.490,-3.115,0.000,388,383,387,411,410,2025-05-27T22:26:46.469989
469,-0.3894,0.0327,0.9599,0.455,-3.045,0.175,418,431,344,358,311,2025-05-27T22:26:46.674479
470,-0.3899,0.0342,0.9628,0.210,-2.975,0.140,403,420,354,346,361,2025-05-27T22:26:46.674479
471,-0.3870,0.0307,0.9604,0.070,-2.835,8.890,398,394,333,386,394,2025-05-27T22:26:46.674479
472,-0.3894,0.0327,0.9628,0.000,-2.835,-0.140,355,400,332,344,348,2025-05-27T22:26:46.674479
473,-0.3880,0.0332,0.9614,-0.070,-2.905,0.070,331,401,355,325,376,2025-05-27T22:26:46.674479
474,-0.3894,0.0342,0.9623,-0.175,-3.010,0.070,384,383,360,372,365,2025-05-27T22:26:46.674479
475,-0.3875,0.0332,0.9633,-0.070,-3.185,0.315,407,418,362,369,385,2025-05-27T22:26:46.674479
476,-0.3875,0.0346,0.9614,-0.210,-3.255,0.630,426,408,379,406,396,2025-05-27T22:26:46.674479
477,-0.3933,0.0356,0.9604,-0.280,-3.255,0.490,427,401,373,419,406,2025-05-27T22:26:46.674479
478,-0.3914,0.0312,0.9560,-0.210,-3.255,0.315,347,387,380,419,413,2025-05-27T22:26:46.674479
479,-0.3914,0.0346,0.9555,-0.350,-3.325,0.350,406,431,373,400,396,2025-05-27T22:26:46.674479
480,-0.3919,0.0307,0.9560,-0.245,-3.115,0.315,418,427,375,405,415,2025-05-27T22:26:46.674479
481,-0.3904,0.0332,0.9575,-0.070,-2.940,0.455,413,402,368,401,416,2025-05-27T22:26:46.674479
482,-0.3894,0.0293,0.9589,-0.070,-2.870,0.455,387,407,369,411,412,2025-05-27T22:26:46.674479
483,-0.3880,0.0288,0.9609,0.070,-2.870,0.280,368,379,365,397,351,2025-05-27T22:26:46.674479
484,-0.3894,0.0298,0.9618,0.175,-2.905,0.210,396,296,337,403,395,2025-05-27T22:26:46.675530
485,-0.3875,0.0317,0.9609,0.070,-2.835,0.140,417,379,363,395,348,2025-05-27T22:26:46.675530
486,-0.3928,0.0312,0.9599,-0.070,-2.695,0.035,351,407,362,392,387,2025-05-27T22:26:46.893267
487,-0.3899,0.0298,0.9575,0.105,-3.080,-0.070,390,423,364,307,376,2025-05-27T22:26:46.893267
488,-0.3845,0.0312,0.9555,0.350,-3.045,0.000,342,358,373,377,384,2025-05-27T22:26:46.893267
489,-0.3860,0.0303,0.9579,0.420,-2.135,-0.070,410,412,373,403,385,2025-05-27T22:26:46.893267
490,-0.3884,0.0288,0.9594,0.595,-1.925,-0.245,429,344,386,412,382,2025-05-27T22:26:46.893267
491,-0.3914,0.0332,0.9594,0.490,-2.345,-0.070,357,411,392,355,384,2025-05-27T22:26:46.893267
492,-0.3884,0.0356,0.9604,0.350,-2.520,0.245,347,412,356,396,399,2025-05-27T22:26:46.893267
493,-0.3919,0.0346,0.9614,0.245,-2.555,0.140,381,421,356,366,411,2025-05-27T22:26:46.893267
494,-0.3924,0.0356,0.9584,0.245,-3.010,0.105,414,410,337,386,367,2025-05-27T22:26:46.893267
495,-0.3953,0.0322,0.9618,0.175,-3.255,0.035,418,357,347,383,337,2025-05-27T22:26:46.893267
496,-0.3904,0.0356,0.9599,0.175,-2.975,-0.105,387,410,372,346,381,2025-05-27T22:26:46.893267
497,-0.3953,0.0322,0.9584,0.175,-2.940,-0.140,415,393,367,396,405,2025-05-27T22:26:46.893267
498,-0.3958,0.0312,0.9653,0.280,-2.835,-0.385,416,369,364,396,389,2025-05-27T22:26:46.893267
499,-0.3914,0.0327,0.9662,0.175,-2.975,-0.175,405,388,378,411,386,2025-05-27T22:26:46.893267
500,-0.3904,0.0298,0.9692,-0.070,-3.150,-0.035,426,429,367,405,399,2025-05-27T22:26:46.893267
501,-0.3909,0.0288,0.9667,-0.140,-3.325,0.140,390,429,363,404,392,2025-05-27T22:26:47.152190
502,-0.3884,0.0317,0.9623,-0.175,-3.605,0.245,389,407,376,419,398,2025-05-27T22:26:47.152190
503,-0.3880,0.0327,0.9594,-0.385,-3.500,0.490,424,432,375,402,414,2025-05-27T22:26:47.152190
504,-0.3924,0.0351,0.9579,-0.490,-3.220,0.560,425,407,365,392,417,2025-05-27T22:26:47.152190
505,-0.3904,0.0356,0.9594,-0.735,-3.465,0.840,391,425,361,388,393,2025-05-27T22:26:47.153189
506,-0.3933,0.0356,0.9570,-0.735,-3.710,1.225,392,355,371,386,404,2025-05-27T22:26:47.153189
507,-0.3933,0.0346,0.9545,-0.665,-3.955,1.365,390,410,384,409,388,2025-05-27T22:26:47.153189
508,-0.3904,0.0371,0.9575,-0.560,-4.130,1.190,397,400,346,396,411,2025-05-27T22:26:47.153591
509,-0.3850,0.0303,0.9599,-0.560,-3.780,1.120,400,354,365,386,355,2025-05-27T22:26:47.153591
510,-0.3894,0.0322,0.9579,-0.350,-3.570,0.945,409,403,333,387,380,2025-05-27T22:26:47.153591
511,-0.3860,0.0278,0.9594,0.035,-3.535,0.735,396,418,353,412,392,2025-05-27T22:26:47.153591
512,-0.3884,0.0264,0.9618,0.315,-3.780,0.455,379,397,363,412,353,2025-05-27T22:26:47.153591
513,-0.3831,0.0293,0.9599,0.350,-3.710,0.280,387,391,332,401,335,2025-05-27T22:26:47.153591
514,-0.3884,0.0249,0.9599,0.385,-3.185,0.315,369,389,361,407,368,2025-05-27T22:26:47.153591
515,-0.3841,0.0278,0.9584,0.420,-2.905,0.210,403,387,377,411,389,2025-05-27T22:26:47.153591
516,-0.3836,0.0307,0.9618,0.175,-2.555,-0.280,413,400,381,413,401,2025-05-27T22:26:47.153591
517,-0.3836,0.0273,0.9599,0.070,-2.100,-0.560,341,420,341,398,419,2025-05-27T22:26:47.153591
518,-0.3841,0.0293,0.9584,0.455,-2.240,-0.770,394,404,324,414,419,2025-05-27T22:26:47.153591
519,-0.3880,0.0288,0.9584,0.770,-2.625,-0.770,419,418,350,397,400,2025-05-27T22:26:47.153591
520,-0.3884,0.0351,0.9599,0.945,-2.590,-0.595,403,393,357,390,359,2025-05-27T22:26:47.153591
521,-0.3860,0.0405,0.9653,0.525,-2.415,-0.280,416,416,365,401,376,2025-05-27T22:26:47.153591
522,-0.3919,0.0429,0.9638,0.210,-2.310,0.000,400,428,365,397,388,2025-05-27T22:26:47.153591
523,-0.3928,0.0366,0.9633,0.070,-2.450,0.070,349,418,380,308,350,2025-05-27T22:26:47.153591
524,-0.3963,0.0351,0.9672,0.035,-3.185,0.105,385,423,368,338,394,2025-05-27T22:26:47.269987
525,-0.3904,0.0337,0.9672,0.000,-3.535,0.315,350,442,374,336,351,2025-05-27T22:26:47.269987
526,-0.3880,0.0322,0.9638,0.070,-3.325,0.490,384,357,367,360,393,2025-05-27T22:26:47.269987
527,-0.3875,0.0298,0.9618,0.175,-3.395,0.560,402,354,384,384,350,2025-05-27T22:26:47.269987
528,-0.3850,0.0332,0.9614,0.210,-3.535,0.560,408,352,382,384,378,2025-05-27T22:26:47.269987
529,-0.3845,0.0337,0.9604,0.035,-3.185,0.595,401,386,351,380,303,2025-05-27T22:26:47.269987
530,-0.3836,0.0356,0.9594,-0.035,-2.940,0.490,415,401,364,404,376,2025-05-27T22:26:47.269987
531,-0.3889,0.0361,0.9599,-0.315,-2.905,0.420,425,405,362,417,399,2025-05-27T22:26:47.269987
532,-0.3909,0.0366,0.9570,-0.210,-3.185,0.245,412,400,378,403,344,2025-05-27T22:26:47.269987
533,-0.3899,0.0337,0.9618,-0.035,-3.395,0.175,400,418,369,415,371,2025-05-27T22:26:47.269987
534,-0.3880,0.0356,0.9618,0.175,-3.325,0.070,388,425,383,409,375,2025-05-27T22:26:47.269987
535,-0.3899,0.0307,0.9638,0.210,-3.150,0.035,396,388,310,400,398,2025-05-27T22:26:47.269987
536,-0.3894,0.0312,0.9628,0.245,-3.080,0.000,416,403,354,408,352,2025-05-27T22:26:47.269987
537,-0.3884,0.0322,0.9584,0.280,-2.975,0.070,425,386,376,381,327,2025-05-27T22:26:47.328443
538,-0.3865,0.0322,0.9579,0.385,-2.660,-0.070,338,372,346,408,378,2025-05-27T22:26:47.328443
539,-0.3850,0.0342,0.9604,0.350,-2.695,0.000,383,331,369,407,376,2025-05-27T22:26:47.328443
540,-0.3831,0.0317,0.9579,0.245,-2.730,-0.140,411,372,344,417,395,2025-05-27T22:26:47.328443
541,-0.3816,0.0332,0.9579,0.210,-2.345,-0.140,407,396,362,353,402,2025-05-27T22:26:47.537001
542,-0.3816,0.0346,0.9575,0.140,-2.275,-0.210,424,375,360,339,393,2025-05-27T22:26:47.537001
543,-0.3836,0.0361,0.9618,0.000,-2.135,-0.245,399,393,332,347,390,2025-05-27T22:26:47.537001
544,-0.3884,0.0351,0.9618,-0.140,-1.960,-0.315,429,407,368,335,399,2025-05-27T22:26:47.537001
545,-0.3933,0.0342,0.9614,0.070,-2.170,-0.210,416,416,337,322,365,2025-05-27T22:26:47.537001
546,-0.3963,0.0337,0.9604,0.455,-2.800,0.000,399,344,372,373,387,2025-05-27T22:26:47.537001
547,-0.4002,0.0317,0.9609,0.700,-3.150,0.000,411,411,369,380,383,2025-05-27T22:26:47.537001
548,-0.3953,0.0361,0.9594,0.700,-3.465,0.210,402,426,367,388,402,2025-05-27T22:26:47.537001
549,-0.3899,0.0351,0.9609,0.455,-3.395,0.385,404,422,375,388,404,2025-05-27T22:26:47.537001
550,-0.3831,0.0346,0.9589,0.490,-2.975,0.420,368,404,384,405,389,2025-05-27T22:26:47.537001
551,-0.3811,0.0346,0.9604,0.280,-2.940,0.315,407,415,391,399,397,2025-05-27T22:26:47.537001
552,-0.3850,0.0337,0.9589,8.925,-2.695,0.175,386,421,391,410,419,2025-05-27T22:26:47.537001
553,-0.3865,0.0332,0.9584,-0.070,-2.380,0.210,412,404,394,410,317,2025-05-27T22:26:47.537001
554,-0.3841,0.0317,0.9589,-0.070,-2.170,0.280,416,424,387,388,377,2025-05-27T22:26:47.603284
555,-0.3875,0.0317,0.9609,-0.105,-2.240,0.210,403,416,387,387,397,2025-05-27T22:26:47.603284
556,-0.3865,0.0337,0.9653,-0.140,-2.275,0.245,415,397,393,403,387,2025-05-27T22:26:47.603284
557,-0.3870,0.0337,0.9658,-0.245,-2.450,0.245,415,385,381,388,403,2025-05-27T22:26:47.603284
558,-0.3860,0.0351,0.9648,-0.140,-2.660,0.420,411,336,356,412,416,2025-05-27T22:26:47.603284
559,-0.3880,0.0361,0.9662,-0.175,-2.800,0.525,391,392,380,415,409,2025-05-27T22:26:47.603284
560,-0.3933,0.0371,0.9628,-0.245,-2.975,0.630,385,423,390,413,397,2025-05-27T22:26:47.603284
561,-0.3948,0.0342,0.9628,-0.210,-3.570,0.630,408,417,347,395,403,2025-05-27T22:26:47.603284
562,-0.3938,0.0327,0.9623,-0.245,-3.955,0.630,387,408,329,409,410,2025-05-27T22:26:47.603284
563,-0.3860,0.0342,0.9609,-0.385,-3.675,0.805,405,389,358,397,414,2025-05-27T22:26:47.603284
564,-0.3884,0.0303,0.9579,-0.455,-3.255,0.630,404,362,359,402,408,2025-05-27T22:26:47.603284
565,-0.3880,0.0298,0.9594,-0.210,-3.290,0.665,419,388,361,346,390,2025-05-27T22:26:47.785458
566,-0.3860,0.0312,0.9604,-0.175,-3.465,0.805,347,340,366,382,408,2025-05-27T22:26:47.785458
567,-0.3826,0.0303,0.9609,-0.245,-3.255,0.525,397,398,342,407,416,2025-05-27T22:26:47.785458
568,-0.3860,0.0332,0.9589,-0.280,-3.115,0.525,373,419,369,413,399,2025-05-27T22:26:47.785458
569,-0.3894,0.0303,0.9560,-0.315,-3.115,0.385,412,409,371,415,344,2025-05-27T22:26:47.785458
570,-0.3894,0.0317,0.9560,-0.350,-3.080,0.245,381,338,304,350,331,2025-05-27T22:26:47.785458
571,-0.3904,0.0312,0.9589,-0.105,-2.905,0.175,378,361,344,396,345,2025-05-27T22:26:47.785458
572,-0.3870,0.0317,0.9584,-0.105,-3.010,0.315,397,399,363,346,363,2025-05-27T22:26:47.785458
573,-0.3875,0.0317,0.9589,-0.140,-3.010,0.385,391,428,377,389,404,2025-05-27T22:26:47.785458
574,-0.3816,0.0327,0.9599,-0.140,-2.590,0.490,352,432,386,416,315,2025-05-27T22:26:47.785458
575,-0.3845,0.0346,0.9579,-0.105,-2.345,0.280,405,420,367,387,372,2025-05-27T22:26:47.785458
576,-0.3845,0.0371,0.9550,-0.105,-2.275,0.105,424,415,365,403,395,2025-05-27T22:26:47.785458
577,-0.3821,0.0390,0.9531,-0.035,-2.170,0.210,424,409,336,412,364,2025-05-27T22:26:47.785458
578,-0.3836,0.0356,0.9570,-0.175,-1.750,0.315,432,432,358,422,378,2025-05-27T22:26:47.785458
579,-0.3889,0.0386,0.9594,-0.315,-1.785,0.420,425,435,378,424,400,2025-05-27T22:26:47.785458
580,-0.3928,0.0332,0.9623,-0.525,-2.240,0.630,369,414,390,411,393,2025-05-27T22:26:47.838389
581,-0.3958,0.0342,0.9618,-0.420,-2.590,0.700,408,423,386,312,364,2025-05-27T22:26:47.838389
582,-0.3914,0.0332,0.9638,-0.210,-2.765,0.805,384,431,374,363,371,2025-05-27T22:26:47.838389
583,-0.3909,0.0317,0.9672,-0.385,-2.800,0.980,420,441,386,386,383,2025-05-27T22:26:47.838389
584,-0.3884,0.0332,0.9643,-0.560,-2.590,1.015,417,410,392,385,380,2025-05-27T22:26:47.838389
585,-0.3884,0.0332,0.9633,-0.280,-2.730,0.910,412,433,382,404,388,2025-05-27T22:26:48.086164
586,-0.3904,0.0317,0.9638,-0.280,-2.975,0.875,375,407,385,403,379,2025-05-27T22:26:48.086700
587,-0.3870,0.0317,0.9618,-0.525,-3.220,0.840,413,422,395,406,381,2025-05-27T22:26:48.086700
588,-0.3845,0.0288,0.9623,-0.315,-3.080,0.805,414,404,359,395,383,2025-05-27T22:26:48.086700
589,-0.3841,0.0298,0.9604,-0.175,-2.555,0.560,341,391,376,404,384,2025-05-27T22:26:48.086700
590,-0.3894,0.0288,0.9604,-0.175,-2.345,0.630,385,426,376,397,383,2025-05-27T22:26:48.086700
591,-0.3889,0.0327,0.9589,-0.245,-2.835,0.665,410,417,381,414,401,2025-05-27T22:26:48.086700
592,-0.3909,0.0327,0.9550,-0.280,-3.185,0.595,391,393,345,401,406,2025-05-27T22:26:48.086700
593,-0.3865,0.0327,0.9526,-0.525,-3.185,0.840,415,402,377,407,414,2025-05-27T22:26:48.086700
594,-0.3836,0.0288,0.9540,-0.455,-2.975,0.665,405,425,379,402,380,2025-05-27T22:26:48.086700
595,-0.3836,0.0303,0.9575,-0.770,-2.450,0.630,425,424,372,308,397,2025-05-27T22:26:48.086700
596,-0.3855,0.0298,0.9570,-0.875,-2.275,0.420,424,403,374,388,413,2025-05-27T22:26:48.086700
597,-0.3860,0.0293,0.9604,-0.910,-2.240,0.455,424,397,371,385,389,2025-05-27T22:26:48.086700
598,-0.3860,0.0332,0.9575,-0.840,-1.645,0.210,416,420,382,386,402,2025-05-27T22:26:48.086700
599,-0.3880,0.0298,0.9623,-1.015,-0.910,-0.350,361,394,380,360,397,2025-05-27T22:26:48.086700
600,-0.3914,0.0303,0.9667,-1.085,-0.875,-0.735,404,405,342,393,388,2025-05-27T22:26:48.087714
601,-0.3958,0.0264,0.9706,-0.945,-1.540,-0.805,420,348,361,393,391,2025-05-27T22:26:48.087714
602,-0.3972,0.0259,0.9726,-0.700,-2.135,-0.770,424,349,370,393,376,2025-05-27T22:26:48.503854
603,-0.3953,0.0273,0.9687,-0.350,-2.625,-0.840,384,393,370,410,398,2025-05-27T22:26:48.503854
604,-0.3924,0.0288,0.9618,-0.455,-2.765,-0.735,406,426,379,396,371,2025-05-27T22:26:48.503854
605,-0.3914,0.0283,0.9579,-0.455,-2.450,-0.490,406,417,386,392,391,2025-05-27T22:26:48.503854
606,-0.3884,0.0332,0.9526,-0.525,-2.170,-0.315,411,427,387,400,407,2025-05-27T22:26:48.503854
607,-0.3899,0.0332,0.9526,-0.770,-2.275,-0.280,398,418,394,412,315,2025-05-27T22:26:48.503854
608,-0.3850,0.0371,0.9555,-1.155,-2.240,-0.385,383,402,383,388,366,2025-05-27T22:26:48.503854
609,-0.3826,0.0337,0.9575,-1.295,-2.310,-0.245,421,394,375,393,397,2025-05-27T22:26:48.503854
610,-0.3855,0.0332,0.9633,-1.365,-2.275,-0.315,424,376,343,400,405,2025-05-27T22:26:48.503854
611,-0.3884,0.0337,0.9653,-1.365,-2.170,-0.385,404,344,333,411,351,2025-05-27T22:26:48.503854
612,-0.3933,0.0332,0.9638,-1.260,-2.380,-0.350,397,417,347,400,336,2025-05-27T22:26:48.503854
613,-0.3938,0.0346,0.9604,-1.015,-2.520,-0.105,413,431,325,382,384,2025-05-27T22:26:48.503854
614,-0.3992,0.0327,0.9589,-0.735,-2.975,0.350,348,408,358,393,376,2025-05-27T22:26:48.503854
615,-0.3972,0.0312,0.9589,-0.700,-3.395,0.455,344,409,373,393,373,2025-05-27T22:26:48.503854
616,-0.3899,0.0307,0.9604,-0.770,-3.325,0.630,410,365,381,407,395,2025-05-27T22:26:48.503854
617,-0.3865,0.0283,0.9560,-0.805,-3.185,0.805,412,417,389,411,402,2025-05-27T22:26:48.503854
618,-0.3841,0.0273,0.9506,-0.490,-3.325,1.155,400,420,388,414,397,2025-05-27T22:26:48.503854
619,-0.3860,0.0268,0.9492,-0.140,-3.535,1.295,391,405,379,410,397,2025-05-27T22:26:48.503854
620,-0.3855,0.0303,0.9487,-0.105,-3.115,1.330,387,340,384,402,364,2025-05-27T22:26:48.503854
621,-0.3831,0.0342,0.9457,-0.280,-2.800,1.330,384,363,369,396,358,2025-05-27T22:26:48.503854
622,-0.3860,0.0312,0.9492,-0.560,-2.345,1.155,429,394,375,391,330,2025-05-27T22:26:48.503854
623,-0.3924,0.0298,0.9550,-0.630,-1.995,1.190,404,423,373,382,379,2025-05-27T22:26:48.553960
624,-0.3982,0.0244,0.9565,-0.420,-2.205,1.085,429,422,387,395,393,2025-05-27T22:26:48.553960
625,-0.3997,0.0205,0.9594,-0.210,-2.625,1.155,345,425,346,349,387,2025-05-27T22:26:48.553960
626,-0.3987,0.0185,0.9614,-0.105,-2.835,1.050,407,416,337,381,409,2025-05-27T22:26:48.553960
627,-0.3977,0.0190,0.9594,0.175,-3.150,0.840,385,407,316,355,391,2025-05-27T22:26:48.553960
628,-0.3938,0.0161,0.9570,0.175,-3.185,0.525,415,394,352,391,387,2025-05-27T22:26:48.553960
629,-0.3924,0.0146,0.9570,0.070,-2.800,0.210,395,422,366,346,407,2025-05-27T22:26:48.553960
630,-0.3894,0.0146,0.9521,0.175,-2.275,-0.385,394,305,374,333,396,2025-05-27T22:26:48.553960
631,-0.3894,0.0161,0.9540,0.175,-1.855,-1.050,414,329,369,361,394,2025-05-27T22:26:48.553960
632,-0.3904,0.0190,0.9575,0.140,-1.435,-1.540,424,385,372,381,390,2025-05-27T22:26:48.553960
633,-0.3924,0.0156,0.9570,0.245,-1.330,-2.170,421,414,388,365,405,2025-05-27T22:26:48.553960
634,-0.3948,0.0205,0.9579,0.420,-1.330,-2.520,406,403,386,382,358,2025-05-27T22:26:48.553960
635,-0.3992,0.0195,0.9560,0.525,-1.295,-2.520,355,409,385,402,340,2025-05-27T22:26:48.553960
636,-0.3992,0.0229,0.9570,0.805,-1.505,-2.800,331,407,383,347,379,2025-05-27T22:26:48.553960
637,-0.3967,0.0259,0.9550,1.015,-1.470,-2.765,394,414,349,378,387,2025-05-27T22:26:48.553960
638,-0.3982,0.0312,0.9550,0.945,-1.260,-2.800,419,429,365,406,396,2025-05-27T22:26:48.553960
639,-0.3904,0.0322,0.9555,0.805,-1.120,-2.800,414,354,343,348,365,2025-05-27T22:26:48.553960
640,-0.3919,0.0337,0.9560,0.945,-1.085,-2.695,414,417,372,360,402,2025-05-27T22:26:48.553960
641,-0.3938,0.0386,0.9521,0.980,-0.805,-2.450,415,430,342,339,409,2025-05-27T22:26:48.553960
642,-0.3938,0.0415,0.9536,0.910,-0.875,-2.065,406,407,366,404,417,2025-05-27T22:26:48.553960
643,-0.3953,0.0415,0.9584,0.630,-0.875,-1.400,418,416,331,407,409,2025-05-27T22:26:48.553960
644,-0.3992,0.0410,0.9623,0.595,-1.050,-0.630,430,430,360,373,388,2025-05-27T22:26:48.603234
645,-0.3987,0.0381,0.9638,0.630,-1.960,0.000,365,427,374,390,398,2025-05-27T22:26:48.603234
646,-0.3982,0.0356,0.9633,0.525,-2.240,0.770,420,355,364,385,349,2025-05-27T22:26:48.603234
647,-0.3948,0.0337,0.9628,0.420,-2.625,1.085,387,376,346,389,370,2025-05-27T22:26:48.603234
648,-0.3899,0.0322,0.9638,0.140,-2.870,1.470,389,406,326,413,390,2025-05-27T22:26:48.603234
649,-0.3875,0.0283,0.9658,-0.070,-2.800,1.505,412,384,322,375,381,2025-05-27T22:26:48.655038
650,-0.3904,0.0264,0.9653,-0.245,-2.800,1.435,422,392,359,396,347,2025-05-27T22:26:48.655038
651,-0.3894,0.0244,0.9648,-0.350,-2.555,1.295,413,400,373,402,384,2025-05-27T22:26:48.879856
652,-0.3924,0.0234,0.9672,-0.560,-2.485,1.085,412,403,335,346,382,2025-05-27T22:26:48.879856
653,-0.3967,0.0239,0.9677,-0.420,-2.590,0.980,357,420,328,397,382,2025-05-27T22:26:48.879856
654,-0.3958,0.0239,0.9653,-0.350,-2.870,1.120,384,396,285,394,303,2025-05-27T22:26:48.879856
655,-0.3977,0.0249,0.9638,-0.420,-3.080,0.980,408,396,336,409,363,2025-05-27T22:26:48.879856
656,-0.3987,0.0283,0.9609,-0.525,-3.290,0.840,406,380,369,353,386,2025-05-27T22:26:48.879856
657,-0.3953,0.0264,0.9594,-0.665,-3.465,0.840,432,342,339,389,386,2025-05-27T22:26:48.879856
658,-0.3963,0.0283,0.9550,-0.665,-3.430,0.735,410,372,360,413,397,2025-05-27T22:26:48.879856
659,-0.3982,0.0278,0.9550,-0.595,-3.465,0.490,400,340,333,407,350,2025-05-27T22:26:48.879856
660,-0.3972,0.0268,0.9536,-0.595,-3.500,0.385,426,391,347,412,363,2025-05-27T22:26:48.879856
661,-0.3982,0.0273,0.9540,-0.455,-3.430,0.420,391,401,370,419,390,2025-05-27T22:26:48.879856
662,-0.3992,0.0259,0.9511,-0.280,-3.395,0.210,414,391,372,400,368,2025-05-27T22:26:48.879856
663,-0.3958,0.0307,0.9511,-0.245,-3.115,0.175,413,398,383,390,347,2025-05-27T22:26:48.879856
664,-0.3977,0.0298,0.9531,-0.175,-2.765,0.140,427,421,374,363,377,2025-05-27T22:26:48.879856
665,-0.3977,0.0278,0.9521,-0.035,-2.765,0.105,432,431,371,393,384,2025-05-27T22:26:48.879856
666,-0.3977,0.0273,0.9536,0.105,-3.045,0.105,435,422,367,379,394,2025-05-27T22:26:48.879856
667,-0.3982,0.0259,0.9540,0.245,-3.010,0.210,437,435,378,397,411,2025-05-27T22:26:48.884954
668,-0.4011,0.0220,0.9540,0.420,-3.010,0.140,398,383,377,404,370,2025-05-27T22:26:48.884954
669,-0.3977,0.0234,0.9536,0.595,-3.150,0.035,419,417,368,401,392,2025-05-27T22:26:48.884954
670,-0.3972,0.0259,0.9516,0.630,-3.115,0.140,425,415,363,416,415,2025-05-27T22:26:48.908637
671,-0.3938,0.0249,0.9540,0.700,-2.695,-0.350,422,384,345,421,407,2025-05-27T22:26:48.908637
672,-0.3894,0.0259,0.9531,0.770,-2.240,-0.630,421,388,362,373,395,2025-05-27T22:26:48.908637
673,-0.3914,0.0259,0.9555,0.735,-1.960,-0.945,416,416,363,385,396,2025-05-27T22:26:48.908637
674,-0.3943,0.0254,0.9579,0.770,-1.785,-1.120,415,400,381,377,383,2025-05-27T22:26:49.019071
675,-0.3914,0.0278,0.9614,0.770,-1.855,-1.260,405,422,346,343,385,2025-05-27T22:26:49.019180
676,-0.3943,0.0298,0.9648,0.630,-2.030,-1.330,419,430,364,356,357,2025-05-27T22:26:49.019420
677,-0.3948,0.0278,0.9638,0.525,-2.135,-1.295,421,414,385,395,400,2025-05-27T22:26:49.019420
678,-0.3963,0.0268,0.9643,0.560,-2.555,-1.225,433,421,381,391,398,2025-05-27T22:26:49.019622
679,-0.3924,0.0293,0.9614,0.595,-2.590,-0.910,428,379,336,374,308,2025-05-27T22:26:49.019622
680,-0.3924,0.0317,0.9614,0.595,-2.380,-0.700,372,374,326,354,371,2025-05-27T22:26:49.019804
681,-0.3953,0.0342,0.9599,0.595,-2.100,-0.525,415,396,347,377,385,2025-05-27T22:26:49.019804
682,-0.3972,0.0356,0.9618,0.210,-2.485,-0.490,337,419,361,400,405,2025-05-27T22:26:49.019804
683,-0.3972,0.0356,0.9584,-0.105,-2.975,0.070,379,415,378,414,355,2025-05-27T22:26:49.149326
684,-0.3967,0.0351,0.9584,-0.245,-3.255,0.315,403,398,391,392,378,2025-05-27T22:26:49.149326
685,-0.3972,0.0346,0.9565,-0.385,-3.255,0.420,371,396,349,407,400,2025-05-27T22:26:49.149326
686,-0.3967,0.0351,0.9609,-0.700,-3.430,0.560,420,397,360,417,394,2025-05-27T22:26:49.149326
687,-0.3958,0.0361,0.9633,-1.015,-3.640,1.050,392,381,366,420,408,2025-05-27T22:26:49.149326
688,-0.3972,0.0337,0.9609,-0.910,-3.815,1.470,429,410,382,404,413,2025-05-27T22:26:49.149326
689,-0.3987,0.0361,0.9589,-0.945,-3.955,1.820,420,362,383,401,403,2025-05-27T22:26:49.149326
690,-0.3972,0.0337,0.9609,-0.945,-3.990,1.960,389,398,380,406,409,2025-05-27T22:26:49.149326
691,-0.3948,0.0332,0.9584,-1.050,-3.990,1.750,332,373,378,424,358,2025-05-27T22:26:49.149326
692,-0.3928,0.0307,0.9560,-1.085,-3.850,1.855,406,407,383,416,388,2025-05-27T22:26:49.149326
693,-0.3924,0.0283,0.9570,-1.085,-3.990,1.995,412,364,309,412,409,2025-05-27T22:26:49.149326
694,-0.3958,0.0264,0.9550,-0.980,-3.955,2.345,414,425,352,400,408,2025-05-27T22:26:49.219501
695,-0.3972,0.0234,0.9609,-1.120,-3.885,2.485,357,416,327,405,403,2025-05-27T22:26:49.219501
696,-0.3972,0.0249,0.9584,-1.015,-4.025,2.730,399,420,326,354,310,2025-05-27T22:26:49.219501
697,-0.3963,0.0220,0.9579,-0.665,-4.375,2.765,398,417,353,375,357,2025-05-27T22:26:49.219501
698,-0.3948,0.0185,0.9550,-0.420,-4.480,2.660,421,423,369,381,367,2025-05-27T22:26:49.219501
699,-0.3870,0.0190,0.9511,-0.070,-4.480,2.310,410,435,362,406,397,2025-05-27T22:26:49.219501
700,-0.3875,0.0171,0.9521,0.140,-4.060,1.680,399,400,345,390,415,2025-05-27T22:26:49.270950
701,-0.3865,0.0176,0.9550,0.245,-3.675,0.945,411,424,290,415,402,2025-05-27T22:26:49.270950
702,-0.3904,0.0176,0.9584,0.350,-3.255,0.070,406,428,344,312,357,2025-05-27T22:26:49.270950
703,-0.3904,0.0181,0.9545,0.315,-2.800,-0.630,394,434,332,365,393,2025-05-27T22:26:49.270950
704,-0.3938,0.0195,0.9565,0.420,-2.345,-1.225,402,357,350,337,395,2025-05-27T22:26:49.270950
705,-0.3958,0.0259,0.9550,0.245,-1.820,-1.715,384,407,362,394,412,2025-05-27T22:26:49.386306
706,-0.3953,0.0317,0.9579,0.000,-1.540,-1.820,418,396,351,344,408,2025-05-27T22:26:49.386306
707,-0.3958,0.0332,0.9589,-0.210,-1.400,-1.820,410,397,358,337,392,2025-05-27T22:26:49.386306
708,-0.3938,0.0356,0.9604,-0.140,-1.435,-1.925,388,348,362,377,381,2025-05-27T22:26:49.386306
709,-0.3919,0.0395,0.9638,-0.035,-1.785,-1.540,404,385,375,400,364,2025-05-27T22:26:49.386306
710,-0.3948,0.0420,0.9594,0.000,-2.310,-1.015,419,391,339,404,341,2025-05-27T22:26:49.386306
711,-0.3933,0.0429,0.9550,0.210,-2.450,-0.280,339,418,371,393,381,2025-05-27T22:26:49.386306
712,-0.3958,0.0439,0.9599,0.070,-2.940,0.315,406,436,345,381,385,2025-05-27T22:26:49.386306
713,-0.3899,0.0420,0.9579,-0.595,-3.430,1.050,392,378,361,392,399,2025-05-27T22:26:49.386306
714,-0.3889,0.0366,0.9575,-0.910,-3.640,1.330,402,369,362,395,405,2025-05-27T22:26:49.386306
715,-0.3865,0.0303,0.9575,-0.735,-3.500,1.330,417,416,341,387,396,2025-05-27T22:26:49.728171
716,-0.3855,0.0244,0.9565,-0.560,-3.325,1.085,435,432,359,399,394,2025-05-27T22:26:49.728171
717,-0.3884,0.0190,0.9594,-0.455,-2.765,0.805,421,420,370,359,399,2025-05-27T22:26:49.728171
718,-0.3919,0.0146,0.9618,-0.140,-2.590,0.420,390,434,371,390,407,2025-05-27T22:26:49.728171
719,-0.3958,0.0151,0.9638,-0.070,-2.590,0.000,413,433,373,402,412,2025-05-27T22:26:49.728171
720,-0.3904,0.0151,0.9658,0.000,-2.730,-0.525,422,437,369,407,399,2025-05-27T22:26:49.728171
721,-0.3909,0.0181,0.9614,0.000,-2.450,-0.770,405,389,371,410,404,2025-05-27T22:26:49.728171
722,-0.3884,0.0205,0.9614,0.105,-2.205,-1.225,403,395,378,418,416,2025-05-27T22:26:49.728171
723,-0.3899,0.0205,0.9560,0.175,-1.820,-1.505,418,414,375,413,410,2025-05-27T22:26:49.728171
724,-0.3933,0.0205,0.9560,0.210,-1.750,-1.645,433,424,389,401,396,2025-05-27T22:26:49.728171
725,-0.3967,0.0249,0.9521,0.280,-1.750,-1.750,408,437,390,369,405,2025-05-27T22:26:49.728171
726,-0.3972,0.0293,0.9511,0.070,-1.820,-1.470,415,404,350,403,404,2025-05-27T22:26:49.728171
727,-0.3982,0.0254,0.9560,-0.035,-1.785,-1.260,417,402,373,395,412,2025-05-27T22:26:49.728171
728,-0.3958,0.0293,0.9584,-0.140,-1.890,-0.910,301,417,369,415,407,2025-05-27T22:26:49.728171
729,-0.4011,0.0268,0.9589,-0.070,-1.925,-0.910,375,399,375,393,407,2025-05-27T22:26:49.728171
730,-0.4031,0.0298,0.9570,-0.175,-2.030,-1.015,330,426,391,390,415,2025-05-27T22:26:49.728171
731,-0.4002,0.0307,0.9545,-0.385,-2.275,-0.910,380,350,379,402,414,2025-05-27T22:26:49.728171
732,-0.4002,0.0327,0.9550,-0.280,-2.275,-0.910,391,411,389,345,413,2025-05-27T22:26:49.728171
733,-0.4026,0.0317,0.9584,-0.175,-2.275,-0.770,408,434,394,381,403,2025-05-27T22:26:49.728171
734,-0.4021,0.0317,0.9618,-0.175,-2.625,-0.280,411,427,389,390,395,2025-05-27T22:26:49.728171
735,-0.4002,0.0303,0.9643,-0.210,-2.905,0.315,398,431,378,400,411,2025-05-27T22:26:49.728171
736,-0.3963,0.0303,0.9628,-0.210,-3.290,0.665,401,416,374,408,403,2025-05-27T22:26:49.854792
737,-0.3953,0.0264,0.9614,-0.245,-3.675,0.840,387,402,373,415,404,2025-05-27T22:26:49.854792
738,-0.3909,0.0244,0.9584,-0.315,-3.955,0.980,429,346,376,409,391,2025-05-27T22:26:49.854792
739,-0.3875,0.0215,0.9579,-0.035,-4.200,1.050,428,357,381,413,349,2025-05-27T22:26:49.854792
740,-0.3850,0.0205,0.9579,0.105,-4.130,0.805,414,391,367,346,374,2025-05-27T22:26:49.854792
741,-0.3821,0.0229,0.9584,0.140,-3.605,0.490,422,356,372,356,362,2025-05-27T22:26:49.854792
742,-0.3831,0.0220,0.9589,0.280,-2.940,0.245,421,383,377,388,387,2025-05-27T22:26:49.854792
743,-0.3933,0.0210,0.9618,0.280,-2.625,-0.140,412,399,388,412,363,2025-05-27T22:26:49.854792
744,-0.3992,0.0215,0.9628,0.490,-2.730,-0.280,342,388,396,374,373,2025-05-27T22:26:49.854792
745,-0.4041,0.0244,0.9604,0.420,-2.905,-0.455,389,413,376,405,396,2025-05-27T22:26:49.854792
746,-0.4026,0.0249,0.9589,0.315,-3.115,-0.420,407,418,351,409,401,2025-05-27T22:26:49.854792
747,-0.3977,0.0229,0.9570,0.210,-3.465,-0.315,339,402,374,407,403,2025-05-27T22:26:49.854792
748,-0.3919,0.0268,0.9540,0.140,-3.150,-0.420,377,422,305,347,382,2025-05-27T22:26:49.854792
749,-0.3919,0.0273,0.9550,-0.035,-2.730,-0.420,393,396,344,396,404,2025-05-27T22:26:49.854792
750,-0.3924,0.0259,0.9570,-0.070,-2.835,-0.350,422,427,353,406,409,2025-05-27T22:26:49.854792
751,-0.3938,0.0264,0.9575,-0.070,-3.080,-0.140,407,424,373,407,410,2025-05-27T22:26:49.854792
752,-0.3967,0.0268,0.9570,0.070,-3.080,-0.035,342,409,384,423,409,2025-05-27T22:26:49.854792
753,-0.3982,0.0234,0.9584,0.140,-3.220,-0.140,412,439,378,414,411,2025-05-27T22:26:49.939911
754,-0.4002,0.0268,0.9531,0.175,-3.395,-0.210,409,394,390,399,355,2025-05-27T22:26:49.939911
755,-0.3997,0.0283,0.9492,0.560,-3.325,-0.175,408,412,347,385,394,2025-05-27T22:26:49.939911
756,-0.3963,0.0268,0.9501,0.805,-2.975,-0.140,407,418,375,409,404,2025-05-27T22:26:49.940905
757,-0.4002,0.0298,0.9560,0.770,-2.730,0.105,394,412,379,412,410,2025-05-27T22:26:49.940905
758,-0.4021,0.0273,0.9589,0.840,-3.080,0.175,404,408,384,376,350,2025-05-27T22:26:49.940905
759,-0.4031,0.0259,0.9555,0.875,-3.535,0.385,418,407,381,389,383,2025-05-27T22:26:49.940905
760,-0.3997,0.0249,0.9516,0.840,-3.465,0.630,403,414,387,408,384,2025-05-27T22:26:49.986906
761,-0.3914,0.0259,0.9516,1.015,-3.255,0.840,405,398,345,348,394,2025-05-27T22:26:49.986906
762,-0.3914,0.0254,0.9531,1.155,-3.115,1.050,420,348,369,396,405,2025-05-27T22:26:49.986906
763,-0.3880,0.0278,0.9550,1.260,-2.800,1.400,410,412,389,409,410,2025-05-27T22:26:49.986906
764,-0.3904,0.0288,0.9589,1.190,-2.730,1.365,379,419,385,396,314,2025-05-27T22:26:49.986906
