SeqNum,AccX,AccY,AccZ,GyroX,GyroY,GyroZ,Flex,Force1,Force2,Force3,Force4,TimestampReception
14341,-0.2630,-1.1209,0.2957,-23.695,20.790,-58.695,0.01,16.0028,37.0617,13.6131,3.3647,2025-06-12T14:14:40.092246
14342,-0.0547,-0.9477,0.2874,-26.705,-44.170,30.310,0.00,16.0028,46.9713,47.5799,4.3941,2025-06-12T14:14:40.092246
14343,-0.0537,-0.9560,0.2830,-28.595,-41.615,28.140,0.00,16.0028,46.9713,50.5024,5.4240,2025-06-12T14:14:40.092246
14344,-0.0688,-0.9428,0.2791,-30.065,-40.215,26.250,0.00,19.4317,51.8904,50.5024,4.3941,2025-06-12T14:14:40.093241
14345,-0.0917,-0.9496,0.2889,-29.820,-39.760,24.220,0.00,16.0028,51.8904,51.9617,4.3941,2025-06-12T14:14:40.093241
14346,-0.0937,-0.9492,0.2899,-29.435,-40.355,21.595,0.00,19.4317,51.8904,56.3323,4.3941,2025-06-12T14:14:40.094236
14347,-0.0971,-0.9311,0.3050,-27.510,-39.620,17.920,0.01,16.0028,46.9713,50.5024,4.3941,2025-06-12T14:14:40.094236
14348,-0.0878,-0.9326,0.2977,-27.860,-37.205,15.155,0.01,19.4317,46.9713,53.4198,4.3941,2025-06-12T14:14:40.094236
14349,-0.0688,-0.9335,0.2899,-26.985,-34.265,11.585,0.01,19.4317,42.0284,54.8767,4.3941,2025-06-12T14:14:40.094236
14350,-0.0468,-0.9262,0.3133,-26.285,-29.365,8.925,0.01,19.4317,46.9713,54.8767,3.3647,2025-06-12T14:14:40.094236
14351,-0.0395,-0.9331,0.3050,-26.775,-21.560,5.985,0.00,16.0028,42.0284,51.9617,3.3647,2025-06-12T14:14:40.096230
14352,-0.0791,-0.9448,0.2982,-27.300,-16.100,2.205,0.00,16.0028,46.9713,53.4198,3.3647,2025-06-12T14:14:40.096230
14353,-0.1044,-0.9438,0.2855,-27.615,-10.955,-0.875,0.00,16.0028,46.9713,54.8767,4.3941,2025-06-12T14:14:40.097227
14354,-0.0883,-0.9726,0.2845,-25.235,-6.510,-3.360,0.01,16.0028,42.0284,56.3323,4.3941,2025-06-12T14:14:40.195026
14355,-0.0947,-1.0067,0.2972,-22.925,-5.145,-4.830,0.00,22.8498,46.9713,59.2398,4.3941,2025-06-12T14:14:40.195026
14356,-0.1298,-1.0214,0.2918,-20.965,-4.795,-7.210,0.00,16.0028,46.9713,63.5916,4.3941,2025-06-12T14:14:40.195026
14357,-0.1205,-1.0341,0.2850,-18.200,-4.655,-9.520,0.01,19.4317,42.0284,62.1422,3.3647,2025-06-12T14:14:40.195026
14358,-0.1025,-1.0741,0.3187,-14.805,-3.535,-11.900,0.01,19.4317,46.9713,53.4198,4.3941,2025-06-12T14:14:40.195026
14359,-0.0996,-1.1058,0.3094,-11.270,-2.485,-14.140,0.01,19.4317,42.0284,59.2398,3.3647,2025-06-12T14:14:40.195026
14360,-0.0947,-1.0980,0.2747,-6.790,0.315,-15.470,0.00,16.0028,42.0284,62.1422,4.3941,2025-06-12T14:14:40.195026
14361,-0.0498,-1.1351,0.2552,-4.270,8.190,-15.015,0.01,19.4317,46.9713,59.2398,3.3647,2025-06-12T14:14:40.295899
14362,-0.0146,-1.1619,0.2401,0.315,15.820,-16.170,0.01,19.4317,46.9713,66.4866,4.3941,2025-06-12T14:14:40.295899
14363,-0.0415,-1.1414,0.2430,3.745,24.430,-15.925,0.01,19.4317,42.0284,62.1422,4.3941,2025-06-12T14:14:40.295899
14364,-0.0088,-1.1395,0.2455,8.960,37.135,-15.015,0.00,19.4317,42.0284,57.7867,4.3941,2025-06-12T14:14:40.295899
14365,-0.0112,-1.1610,0.2225,11.970,52.115,-13.020,0.00,22.8498,46.9713,59.2398,3.3647,2025-06-12T14:14:40.295899
14366,-0.0805,-1.1087,0.1893,15.785,61.740,-12.285,0.00,19.4317,42.0284,62.1422,4.3941,2025-06-12T14:14:40.295899
14367,-0.0717,-1.1009,0.2059,19.005,76.405,-10.395,0.01,19.4317,42.0284,62.1422,3.3647,2025-06-12T14:14:40.295899
14368,-0.0312,-1.0965,0.2050,23.485,86.030,-9.380,0.01,22.8498,42.0284,59.2398,4.3941,2025-06-12T14:14:40.295899
14369,-0.0586,-1.1053,0.1942,25.760,95.795,-7.980,0.00,19.4317,42.0284,59.2398,4.3941,2025-06-12T14:14:40.398182
14370,-0.1039,-1.0721,0.2030,26.075,98.630,-9.100,0.00,19.4317,37.0617,59.2398,4.3941,2025-06-12T14:14:40.398182
14371,-0.1684,-1.0321,0.2191,29.225,101.710,-10.675,0.00,22.8498,37.0617,63.5916,4.3941,2025-06-12T14:14:40.398182
14372,-0.1088,-1.0760,0.2245,29.785,102.060,-11.970,0.00,22.8498,42.0284,63.5916,4.3941,2025-06-12T14:14:40.398182
14373,-0.1908,-1.0336,0.1923,29.820,97.860,-14.805,0.00,22.8498,42.0284,60.6916,4.3941,2025-06-12T14:14:40.398182
14374,-0.2679,-1.0243,0.2064,31.605,89.880,-18.900,0.00,22.8498,42.0284,56.3323,3.3647,2025-06-12T14:14:40.398182
14375,-0.2991,-1.0472,0.2284,31.395,82.005,-24.290,0.00,22.8498,42.0284,57.7867,3.3647,2025-06-12T14:14:40.398182
14376,-0.3138,-1.0458,0.2411,32.690,64.960,-32.235,0.00,22.8498,42.0284,63.5916,4.3941,2025-06-12T14:14:40.502376
14377,-0.3377,-1.0136,0.2225,33.985,47.845,-38.465,0.00,22.8498,46.9713,59.2398,4.3941,2025-06-12T14:14:40.502376
14378,-0.2835,-1.0111,0.2167,34.720,31.605,-46.445,0.00,19.4317,42.0284,63.5916,4.3941,2025-06-12T14:14:40.502376
14379,-0.2445,-1.0102,0.2298,31.395,24.220,-54.635,0.01,22.8498,46.9713,62.1422,4.3941,2025-06-12T14:14:40.502376
14380,-0.2274,-0.9892,0.1810,28.455,17.605,-60.235,0.00,22.8498,42.0284,65.0397,4.3941,2025-06-12T14:14:40.502376
14381,-0.1967,-0.9326,0.1884,26.110,15.015,-64.365,0.01,22.8498,42.0284,62.1422,3.3647,2025-06-12T14:14:40.502376
14382,-0.1757,-0.9248,0.1991,21.770,17.570,-69.055,0.01,19.4317,42.0284,63.5916,4.3941,2025-06-12T14:14:40.502376
14383,-0.1464,-0.8916,0.2391,18.795,23.555,-72.870,0.00,22.8498,37.0617,60.6916,4.3941,2025-06-12T14:14:40.502376
14384,-0.1093,-0.9648,0.2113,12.810,30.520,-75.600,0.01,19.4317,32.0711,51.9617,4.3941,2025-06-12T14:14:40.634201
14385,-0.0971,-1.0165,0.2489,10.115,34.405,-77.000,0.00,19.4317,32.0711,54.8767,4.3941,2025-06-12T14:14:40.634201
14386,-0.0932,-0.9858,0.2562,11.130,34.685,-75.705,0.01,22.8498,32.0711,51.9617,3.3647,2025-06-12T14:14:40.634201
14387,-0.1181,-1.0624,0.2650,8.190,39.410,-75.915,0.00,19.4317,37.0617,43.1869,3.3647,2025-06-12T14:14:40.634201
14388,-0.1025,-1.0326,0.2313,6.160,46.480,-74.340,0.00,16.0028,32.0711,47.5799,3.3647,2025-06-12T14:14:40.634201
14389,-0.1362,-1.0546,0.2176,4.445,49.665,-71.995,0.00,19.4317,32.0711,41.7201,3.3647,2025-06-12T14:14:40.634201
14390,-0.0849,-1.0448,0.2040,5.005,54.110,-68.530,0.00,19.4317,32.0711,35.8403,3.3647,2025-06-12T14:14:40.634201
14391,-0.1049,-1.0712,0.2435,5.495,57.925,-62.965,0.00,19.4317,32.0711,35.8403,3.3647,2025-06-12T14:14:40.634201
14392,-0.1005,-1.0526,0.2279,6.125,66.535,-57.855,0.00,22.8498,32.0711,32.8929,3.3647,2025-06-12T14:14:40.634201
14393,-0.0952,-1.0053,0.2025,6.405,72.450,-54.600,0.00,19.4317,32.0711,32.8929,4.3941,2025-06-12T14:14:40.684596
14394,-0.1327,-1.0258,0.2035,5.600,76.510,-50.190,0.00,22.8498,32.0711,31.4173,3.3647,2025-06-12T14:14:40.684596
14395,-0.1801,-1.0370,0.2240,4.830,80.570,-46.760,0.01,22.8498,32.0711,32.8929,3.3647,2025-06-12T14:14:40.684596
14396,-0.1391,-0.9882,0.2259,2.100,83.650,-44.345,0.00,16.0028,32.0711,31.4173,3.3647,2025-06-12T14:14:40.684596
14397,-0.1571,-1.0019,0.2591,2.135,83.510,-41.755,0.01,19.4317,32.0711,31.4173,3.3647,2025-06-12T14:14:40.818100
14398,-0.1352,-0.9794,0.2269,1.750,81.375,-39.725,0.01,19.4317,32.0711,31.4173,3.3647,2025-06-12T14:14:40.818100
14399,-0.2406,-1.0180,0.2020,-1.540,79.870,-36.015,0.01,22.8498,32.0711,34.3672,3.3647,2025-06-12T14:14:40.818100
14400,-0.1825,-0.9765,0.2230,-3.850,73.885,-36.120,0.00,19.4317,32.0711,29.9405,4.3941,2025-06-12T14:14:40.818100
14401,-0.1898,-0.9643,0.1991,-5.810,68.600,-35.280,0.00,16.0028,32.0711,32.8929,3.3647,2025-06-12T14:14:40.818100
14402,-0.2123,-1.0033,0.1791,-9.975,63.035,-33.670,0.00,19.4317,32.0711,34.3672,3.3647,2025-06-12T14:14:40.818100
14403,-0.2245,-0.9975,0.1957,-12.635,55.790,-34.125,0.00,19.4317,27.0568,34.3672,3.3647,2025-06-12T14:14:40.818100
14404,-0.2240,-1.0077,0.1854,-16.240,50.295,-35.000,0.00,19.4317,32.0711,34.3672,3.3647,2025-06-12T14:14:40.818674
14405,-0.2235,-1.0097,0.1801,-19.460,44.240,-35.595,0.00,22.8498,32.0711,32.8929,3.3647,2025-06-12T14:14:40.818674
14406,-0.1928,-0.9970,0.2240,-21.175,41.370,-35.280,0.01,22.8498,32.0711,29.9405,4.3941,2025-06-12T14:14:40.906014
14407,-0.1654,-0.9755,0.2425,-24.885,40.810,-33.845,0.00,22.8498,32.0711,29.9405,3.3647,2025-06-12T14:14:40.906014
14408,-0.1552,-0.9628,0.2386,-27.335,40.250,-30.380,0.00,22.8498,32.0711,32.8929,3.3647,2025-06-12T14:14:40.906014
14409,-0.2699,-0.9487,0.2313,-28.665,40.005,-25.725,0.01,19.4317,32.0711,32.8929,3.3647,2025-06-12T14:14:40.906014
14410,-0.1337,-0.9384,0.2572,-30.695,39.655,-21.490,0.01,19.4317,32.0711,34.3672,4.3941,2025-06-12T14:14:41.013315
14411,-0.1708,-0.9135,0.2518,-31.360,35.595,-15.260,0.00,16.0028,27.0568,29.9405,3.3647,2025-06-12T14:14:41.013315
14412,-0.1835,-0.9165,0.2801,-31.080,32.375,-10.745,0.01,19.4317,32.0711,26.9831,3.3647,2025-06-12T14:14:41.014314
14413,-0.1244,-0.9165,0.2840,-32.130,30.975,-4.095,0.00,19.4317,32.0711,29.9405,3.3647,2025-06-12T14:14:41.014314
14414,-0.1166,-0.9199,0.3001,-31.675,28.420,0.350,0.00,19.4317,32.0711,29.9405,3.3647,2025-06-12T14:14:41.014314
14415,-0.0903,-0.9316,0.3104,-30.345,24.045,5.600,0.00,16.0028,32.0711,31.4173,3.3647,2025-06-12T14:14:41.014314
14416,-0.0937,-0.9570,0.3084,-28.455,22.050,10.185,0.00,16.0028,32.0711,26.9831,4.3941,2025-06-12T14:14:41.014314
14417,-0.0673,-0.9755,0.3172,-26.460,21.175,14.245,0.00,19.4317,27.0568,28.4624,3.3647,2025-06-12T14:14:41.014314
14418,-0.0351,-0.9999,0.3348,-24.885,22.050,17.920,0.00,19.4317,32.0711,28.4624,3.3647,2025-06-12T14:14:41.014314
14419,0.0444,-1.0155,0.3460,-22.715,29.820,18.025,0.00,16.0028,27.0568,25.5025,3.3647,2025-06-12T14:14:41.014314
14420,0.1474,-1.0316,0.3645,-20.090,44.380,16.555,0.00,16.0028,32.0711,28.4624,4.3941,2025-06-12T14:14:41.014314
14421,0.3714,-1.0302,0.3933,-18.165,70.490,5.180,0.00,19.4317,32.0711,25.5025,3.3647,2025-06-12T14:14:41.117366
14422,0.5153,-1.0209,0.4587,-15.260,116.760,-8.820,0.00,19.4317,32.0711,26.9831,3.3647,2025-06-12T14:14:41.117366
14423,0.4729,-0.9970,0.4860,-11.480,154.910,-21.945,0.00,19.4317,37.0617,28.4624,4.3941,2025-06-12T14:14:41.117366
14424,0.2996,-0.9667,0.4924,-8.785,170.030,-27.755,0.00,16.0028,27.0568,29.9405,3.3647,2025-06-12T14:14:41.117869
14425,0.0576,-0.9545,0.4626,-11.865,170.590,-33.810,0.01,16.0028,27.0568,29.9405,3.3647,2025-06-12T14:14:41.117869
14426,-0.0937,-0.9721,0.4133,-16.380,158.795,-37.345,0.00,16.0028,32.0711,31.4173,3.3647,2025-06-12T14:14:41.117869
14427,-0.2377,-0.9838,0.4036,-20.860,132.055,-37.555,0.00,22.8498,32.0711,31.4173,3.3647,2025-06-12T14:14:41.117869
14428,-0.3284,-0.9906,0.4285,-23.240,103.110,-36.190,0.01,16.0028,27.0568,29.9405,3.3647,2025-06-12T14:14:41.217440
14429,-0.4216,-1.0136,0.4407,-24.850,61.565,-33.985,0.01,16.0028,32.0711,28.4624,3.3647,2025-06-12T14:14:41.217440
14430,-0.4104,-1.0067,0.4504,-25.690,18.795,-32.760,0.01,19.4317,32.0711,28.4624,3.3647,2025-06-12T14:14:41.217440
14431,-0.3733,-0.9970,0.4519,-27.965,-12.495,-32.690,0.01,19.4317,32.0711,26.9831,3.3647,2025-06-12T14:14:41.217440
14432,-0.3026,-1.0077,0.4519,-30.660,-41.545,-32.865,0.00,16.0028,32.0711,25.5025,4.3941,2025-06-12T14:14:41.217440
14433,-0.2713,-0.9911,0.4431,-32.900,-63.140,-33.460,0.00,19.4317,32.0711,26.9831,3.3647,2025-06-12T14:14:41.217440
14434,-0.2098,-0.9853,0.4382,-35.455,-79.030,-33.600,0.00,22.8498,27.0568,25.5025,3.3647,2025-06-12T14:14:41.217440
14435,-0.1498,-0.9848,0.4275,-38.465,-86.240,-33.915,0.01,19.4317,32.0711,28.4624,3.3647,2025-06-12T14:14:41.355166
14436,-0.1069,-0.9780,0.4260,-40.670,-88.970,-34.475,0.00,19.4317,32.0711,26.9831,3.3647,2025-06-12T14:14:41.355166
14437,-0.0688,-0.9770,0.4226,-42.665,-86.485,-34.965,0.01,16.0028,32.0711,28.4624,3.3647,2025-06-12T14:14:41.355166
14438,-0.0312,-0.9921,0.4309,-43.225,-81.585,-34.825,0.00,19.4317,32.0711,28.4624,3.3647,2025-06-12T14:14:41.355166
14439,-0.0156,-0.9960,0.4333,-42.070,-75.145,-34.860,0.01,22.8498,32.0711,26.9831,3.3647,2025-06-12T14:14:41.355166
14440,-0.0166,-0.9989,0.4451,-38.885,-69.510,-34.545,0.00,19.4317,32.0711,26.9831,3.3647,2025-06-12T14:14:41.355166
14441,-0.0190,-1.0033,0.4514,-34.160,-61.670,-33.460,0.00,16.0028,32.0711,26.9831,3.3647,2025-06-12T14:14:41.355166
14442,-0.0190,-1.0102,0.4494,-29.155,-57.085,-31.290,0.01,19.4317,32.0711,28.4624,3.3647,2025-06-12T14:14:41.355166
14443,-0.0259,-1.0024,0.4465,-21.455,-52.570,-28.770,0.00,19.4317,32.0711,25.5025,3.3647,2025-06-12T14:14:41.356232
14444,-0.0249,-0.9916,0.4441,-15.015,-48.965,-24.745,0.01,19.4317,32.0711,28.4624,3.3647,2025-06-12T14:14:41.356232
14445,-0.0176,-0.9789,0.4358,-7.455,-45.465,-20.790,0.01,19.4317,32.0711,28.4624,3.3647,2025-06-12T14:14:41.402109
14446,-0.0102,-0.9658,0.4397,-0.455,-41.930,-14.700,0.01,19.4317,32.0711,29.9405,3.3647,2025-06-12T14:14:41.402109
14447,-0.0151,-0.9555,0.4294,7.315,-39.165,-9.205,0.01,19.4317,32.0711,24.0207,3.3647,2025-06-12T14:14:41.402109
14448,-0.0054,-0.9565,0.4280,15.750,-34.825,-2.135,0.00,16.0028,32.0711,24.0207,4.3941,2025-06-12T14:14:41.402109
14449,-0.0068,-0.9809,0.4128,22.330,-31.465,4.060,0.01,19.4317,32.0711,25.5025,4.3941,2025-06-12T14:14:41.452608
14450,-0.0029,-1.0165,0.4128,32.025,-27.650,12.040,0.00,16.0028,37.0617,25.5025,3.3647,2025-06-12T14:14:41.452608
14451,0.0190,-1.0433,0.4002,40.355,-24.535,19.740,0.00,19.4317,32.0711,24.0207,3.3647,2025-06-12T14:14:41.452608
14452,0.0351,-1.0560,0.3772,50.470,-19.180,26.285,0.01,19.4317,32.0711,22.5376,3.3647,2025-06-12T14:14:41.629540
14453,0.0551,-1.0770,0.3479,58.310,-11.760,35.315,0.00,19.4317,37.0617,25.5025,3.3647,2025-06-12T14:14:41.629540
14454,0.0703,-1.1009,0.3348,66.500,-2.450,42.175,0.00,19.4317,32.0711,22.5376,3.3647,2025-06-12T14:14:41.629540
14455,0.0859,-1.1170,0.3338,71.540,10.395,49.350,0.01,16.0028,32.0711,21.0533,4.3941,2025-06-12T14:14:41.629540
14456,0.0732,-1.2468,0.3387,75.110,22.050,54.390,0.01,16.0028,37.0617,21.0533,3.3647,2025-06-12T14:14:41.629540
14457,0.0293,-1.1151,0.3328,75.075,33.565,58.240,0.00,19.4317,32.0711,22.5376,3.3647,2025-06-12T14:14:41.629540
14458,-0.0146,-1.0887,0.3240,74.235,40.670,60.270,0.00,16.0028,32.0711,21.0533,2.3358,2025-06-12T14:14:41.629540
14459,-0.0703,-1.0599,0.3109,71.820,41.265,61.250,0.00,16.0028,27.0568,22.5376,3.3647,2025-06-12T14:14:41.629540
14460,-0.1132,-1.0248,0.3070,68.740,38.675,61.950,0.00,16.0028,27.0568,24.0207,3.3647,2025-06-12T14:14:41.629540
14461,-0.1566,-1.0004,0.3094,64.505,29.155,62.160,0.00,16.0028,32.0711,24.0207,3.3647,2025-06-12T14:14:41.629540
14462,-0.1835,-0.9736,0.3265,62.370,17.150,62.160,0.00,16.0028,27.0568,18.0810,3.3647,2025-06-12T14:14:41.629540
14463,-0.2123,-0.9584,0.3201,59.080,-0.665,61.915,0.00,16.0028,32.0711,21.0533,3.3647,2025-06-12T14:14:41.629540
14464,-0.2035,-0.9628,0.3182,57.715,-18.725,61.635,0.00,19.4317,27.0568,22.5376,3.3647,2025-06-12T14:14:41.629540
14465,-0.1571,-0.9648,0.3011,55.825,-35.595,62.020,0.00,16.0028,32.0711,22.5376,3.3647,2025-06-12T14:14:41.729444
14466,-0.1391,-0.9697,0.2850,53.585,-49.105,61.810,0.00,16.0028,32.0711,22.5376,3.3647,2025-06-12T14:14:41.729444
14467,-0.1601,-0.9882,0.2733,53.445,-61.075,60.200,0.01,16.0028,27.0568,21.0533,3.3647,2025-06-12T14:14:41.729444
14468,-0.0654,-0.9955,0.2699,51.660,-70.455,58.100,0.00,16.0028,32.0711,19.5678,3.3647,2025-06-12T14:14:41.729444
14469,0.0078,-1.0028,0.2743,50.225,-65.415,57.225,0.00,16.0028,27.0568,21.0533,3.3647,2025-06-12T14:14:41.730439
14470,0.0420,-0.9862,0.2899,46.725,-56.210,56.035,0.00,16.0028,27.0568,19.5678,2.3358,2025-06-12T14:14:41.730439
14471,0.0371,-0.9731,0.2767,43.295,-43.925,55.335,0.00,16.0028,32.0711,18.0810,3.3647,2025-06-12T14:14:41.730439
14472,0.0307,-0.9726,0.2669,37.065,-29.680,54.145,0.00,16.0028,32.0711,19.5678,4.3941,2025-06-12T14:14:41.829738
14473,0.0185,-0.9848,0.2733,33.845,-17.115,52.815,0.01,16.0028,32.0711,19.5678,3.3647,2025-06-12T14:14:41.829738
14474,0.0024,-0.9740,0.2884,28.770,-8.890,51.590,0.00,16.0028,32.0711,19.5678,3.3647,2025-06-12T14:14:41.829738
14475,-0.0420,-0.9594,0.2962,24.570,-3.150,49.035,0.01,16.0028,32.0711,21.0533,3.3647,2025-06-12T14:14:41.829738
14476,-0.0727,-0.9565,0.2913,20.825,-1.470,46.830,0.00,19.4317,32.0711,19.5678,3.3647,2025-06-12T14:14:41.829738
14477,-0.1039,-0.9565,0.2918,17.535,-4.585,43.575,0.01,19.4317,37.0617,21.0533,4.3941,2025-06-12T14:14:41.829738
14478,-0.1264,-0.9492,0.2933,15.645,-10.570,40.705,0.00,16.0028,32.0711,21.0533,3.3647,2025-06-12T14:14:41.829738
14479,-0.1425,-0.9355,0.2977,13.230,-20.440,36.855,0.00,16.0028,32.0711,19.5678,3.3647,2025-06-12T14:14:41.829738
14480,-0.1303,-0.9238,0.3030,11.480,-30.765,33.215,0.01,19.4317,32.0711,22.5376,4.3941,2025-06-12T14:14:41.935170
14481,-0.1225,-0.9209,0.3011,8.960,-38.465,29.960,0.01,16.0028,32.0711,22.5376,3.3647,2025-06-12T14:14:41.935170
14482,-0.1127,-0.9340,0.3055,5.145,-45.570,25.620,0.01,19.4317,32.0711,25.5025,3.3647,2025-06-12T14:14:41.935942
14483,-0.0961,-0.9170,0.3250,2.555,-48.405,20.580,0.00,19.4317,32.0711,25.5025,3.3647,2025-06-12T14:14:41.935942
14484,-0.0600,-0.9194,0.3475,-1.645,-48.895,17.255,0.00,16.0028,27.0568,25.5025,3.3647,2025-06-12T14:14:41.939549
14485,-0.0581,-0.9130,0.3328,-5.740,-45.780,13.090,0.00,19.4317,32.0711,29.9405,3.3647,2025-06-12T14:14:41.939549
14486,-0.0244,-0.9233,0.3348,-9.345,-42.000,10.395,0.00,19.4317,27.0568,31.4173,3.3647,2025-06-12T14:14:41.939549
14487,-0.0288,-0.9292,0.3274,-12.250,-38.780,9.170,0.00,19.4317,32.0711,32.8929,3.3647,2025-06-12T14:14:42.034194
14488,-0.0171,-0.9409,0.3475,-15.960,-34.405,7.910,0.01,19.4317,32.0711,25.5025,4.3941,2025-06-12T14:14:42.034194
14489,-0.0137,-0.9438,0.3694,-19.250,-28.455,5.985,0.00,19.4317,32.0711,26.9831,3.3647,2025-06-12T14:14:42.034194
14490,-0.0068,-0.9536,0.3616,-23.205,-24.465,4.655,0.01,19.4317,27.0568,28.4624,3.3647,2025-06-12T14:14:42.034194
14491,-0.0459,-0.9545,0.3719,-25.445,-22.260,2.415,0.00,16.0028,32.0711,28.4624,3.3647,2025-06-12T14:14:42.034194
14492,-0.0332,-0.9394,0.3889,-28.280,-19.775,-0.350,0.00,19.4317,32.0711,31.4173,3.3647,2025-06-12T14:14:42.034194
14493,-0.0566,-0.9750,0.3714,-29.680,-21.630,-2.485,0.00,22.8498,42.0284,31.4173,3.3647,2025-06-12T14:14:42.034194
14494,-0.0376,-0.9648,0.3836,-30.205,-24.115,-5.110,0.00,22.8498,51.8904,29.9405,4.3941,2025-06-12T14:14:42.165743
14495,-0.0220,-0.9618,0.3982,-31.045,-22.960,-8.435,0.01,22.8498,46.9713,29.9405,4.3941,2025-06-12T14:14:42.165743
14496,0.1093,-0.9916,0.4607,-27.685,-12.250,-15.365,0.00,22.8498,46.9713,28.4624,4.3941,2025-06-12T14:14:42.166206
14497,0.1728,-1.0024,0.5666,-21.385,13.650,-20.160,0.01,19.4317,51.8904,34.3672,4.3941,2025-06-12T14:14:42.166206
14498,0.1625,-1.0024,0.6242,-14.315,37.835,-26.985,0.00,19.4317,46.9713,25.5025,4.3941,2025-06-12T14:14:42.166206
14499,0.1415,-0.9862,0.6627,-6.125,55.825,-33.985,0.00,19.4317,46.9713,34.3672,3.3647,2025-06-12T14:14:42.166206
14500,0.0766,-0.9609,0.6368,-1.505,71.925,-40.180,0.00,19.4317,51.8904,35.8403,4.3941,2025-06-12T14:14:42.166206
14501,0.0020,-0.9453,0.5695,2.065,76.615,-43.330,0.01,19.4317,46.9713,32.8929,4.3941,2025-06-12T14:14:42.166206
14502,-0.0805,-0.9389,0.5178,2.310,74.550,-44.450,0.00,19.4317,46.9713,34.3672,4.3941,2025-06-12T14:14:42.166206
14503,-0.1283,-0.9414,0.5012,2.135,67.935,-44.205,0.00,22.8498,51.8904,35.8403,4.3941,2025-06-12T14:14:42.166206
14504,-0.1669,-0.9370,0.4914,1.330,56.875,-43.610,0.01,22.8498,46.9713,32.8929,4.3941,2025-06-12T14:14:42.253548
14505,-0.2391,-0.9433,0.4670,1.085,42.070,-41.195,0.01,19.4317,46.9713,38.7827,4.3941,2025-06-12T14:14:42.253548
14506,-0.2694,-0.9448,0.4446,0.770,20.020,-39.340,0.00,19.4317,46.9713,34.3672,4.3941,2025-06-12T14:14:42.253548
14507,-0.2757,-0.9394,0.4236,0.175,-8.785,-36.925,0.00,19.4317,51.8904,29.9405,5.4240,2025-06-12T14:14:42.253548
14508,-0.2406,-0.9306,0.4187,-0.035,-20.335,-34.510,0.00,19.4317,46.9713,32.8929,3.3647,2025-06-12T14:14:42.253548
14509,-0.1586,-0.9140,0.4050,-1.050,-33.530,-31.675,0.00,19.4317,46.9713,31.4173,4.3941,2025-06-12T14:14:42.253548
14510,-0.1030,-0.9052,0.3889,-2.870,-36.330,-28.945,0.00,19.4317,46.9713,31.4173,5.4240,2025-06-12T14:14:42.543653
14511,-0.0410,-0.8877,0.3841,-5.005,-28.735,-26.810,0.00,22.8498,46.9713,34.3672,5.4240,2025-06-12T14:14:42.543653
14512,0.0098,-0.9018,0.3733,-8.085,-15.995,-25.795,0.01,19.4317,46.9713,41.7201,4.3941,2025-06-12T14:14:42.543653
14513,0.0107,-0.9013,0.3655,-10.325,2.205,-24.955,0.00,19.4317,46.9713,34.3672,4.3941,2025-06-12T14:14:42.543653
14514,-0.0024,-0.9091,0.3860,-10.850,15.820,-24.640,0.00,19.4317,42.0284,28.4624,4.3941,2025-06-12T14:14:42.543653
14515,-0.0229,-0.9038,0.4070,-10.080,29.750,-24.465,0.00,19.4317,37.0617,28.4624,4.3941,2025-06-12T14:14:42.543653
14516,-0.0576,-0.8930,0.4060,-9.100,38.010,-24.535,0.00,22.8498,46.9713,26.9831,4.3941,2025-06-12T14:14:42.543653
14517,-0.0649,-0.9018,0.4094,-7.210,43.330,-23.800,0.01,19.4317,42.0284,28.4624,3.3647,2025-06-12T14:14:42.543653
14518,-0.0737,-0.8784,0.4226,-5.985,48.300,-22.365,0.00,16.0028,46.9713,34.3672,4.3941,2025-06-12T14:14:42.543653
14519,-0.0893,-0.8740,0.4192,-5.075,53.585,-21.770,0.00,19.4317,42.0284,26.9831,4.3941,2025-06-12T14:14:42.544498
14520,-0.1054,-0.8813,0.4290,-4.410,57.085,-20.685,0.00,19.4317,42.0284,29.9405,4.3941,2025-06-12T14:14:42.544498
14521,-0.1127,-0.8916,0.4490,-2.765,58.730,-17.535,0.00,22.8498,37.0617,29.9405,3.3647,2025-06-12T14:14:42.544498
14522,-0.1513,-0.8955,0.4631,-1.645,59.185,-13.125,0.00,19.4317,42.0284,28.4624,3.3647,2025-06-12T14:14:42.544498
14523,-0.1596,-0.8906,0.4709,0.665,57.155,-9.940,0.00,19.4317,42.0284,26.9831,4.3941,2025-06-12T14:14:42.544498
14524,-0.1830,-0.8999,0.4729,2.275,52.220,-4.900,0.01,22.8498,46.9713,34.3672,4.3941,2025-06-12T14:14:42.652108
14525,-0.1854,-0.8818,0.5168,4.165,50.015,-1.015,0.00,22.8498,46.9713,31.4173,5.4240,2025-06-12T14:14:42.652215
14526,-0.1283,-0.8804,0.5061,4.690,50.645,2.800,0.00,22.8498,42.0284,29.9405,4.3941,2025-06-12T14:14:42.652215
14527,-0.1688,-0.8721,0.4987,4.515,46.830,5.425,0.01,22.8498,42.0284,29.9405,5.4240,2025-06-12T14:14:42.652215
14528,-0.1884,-0.8647,0.5329,6.440,44.415,6.965,0.00,22.8498,46.9713,29.9405,4.3941,2025-06-12T14:14:42.652215
14529,-0.1947,-0.8496,0.5417,6.895,43.540,9.135,0.00,22.8498,42.0284,31.4173,4.3941,2025-06-12T14:14:42.652215
14530,-0.2054,-0.8516,0.5314,7.805,41.965,10.360,0.01,19.4317,46.9713,29.9405,4.3941,2025-06-12T14:14:42.652215
14531,-0.2274,-0.8603,0.5241,8.680,38.185,11.235,0.01,22.8498,42.0284,26.9831,3.3647,2025-06-12T14:14:42.652215
14532,-0.2259,-0.8774,0.5056,8.820,34.580,11.760,0.00,19.4317,42.0284,31.4173,4.3941,2025-06-12T14:14:42.653212
14533,-0.2118,-0.8769,0.5173,9.415,31.045,12.005,0.00,19.4317,42.0284,29.9405,3.3647,2025-06-12T14:14:42.653212
14534,-0.1908,-0.8833,0.5251,11.095,30.590,12.495,0.00,22.8498,46.9713,26.9831,4.3941,2025-06-12T14:14:42.653212
14535,-0.1732,-0.8813,0.5236,12.530,31.745,13.230,0.00,19.4317,46.9713,31.4173,4.3941,2025-06-12T14:14:42.653753
14536,-0.1620,-0.8930,0.5119,13.195,35.385,14.035,0.00,19.4317,42.0284,25.5025,3.3647,2025-06-12T14:14:42.653753
14537,-0.2084,-0.8808,0.5007,15.260,36.645,14.770,0.01,22.8498,42.0284,24.0207,4.3941,2025-06-12T14:14:42.653753
14538,-0.1698,-0.8789,0.5363,15.715,35.910,15.925,0.00,19.4317,42.0284,28.4624,4.3941,2025-06-12T14:14:42.654211
14539,-0.1947,-0.8633,0.5266,15.365,35.350,16.345,0.00,19.4317,42.0284,25.5025,4.3941,2025-06-12T14:14:42.753145
14540,-0.2767,-0.8789,0.4597,14.210,30.345,17.430,0.01,19.4317,46.9713,24.0207,4.3941,2025-06-12T14:14:42.753145
14541,-0.3133,-0.8599,0.4270,13.475,14.105,17.605,0.00,19.4317,46.9713,22.5376,4.3941,2025-06-12T14:14:43.061758
14542,-0.2586,-0.8760,0.3943,13.440,-0.945,18.935,0.01,19.4317,46.9713,21.0533,4.3941,2025-06-12T14:14:43.061758
14543,-0.2074,-0.8564,0.5412,11.305,-6.650,17.570,0.01,22.8498,46.9713,21.0533,3.3647,2025-06-12T14:14:43.061758
14544,-0.1874,-0.8569,0.4729,8.120,-6.160,13.370,0.00,19.4317,46.9713,22.5376,4.3941,2025-06-12T14:14:43.061758
14545,-0.1952,-0.8930,0.4182,4.445,-6.510,12.670,0.00,19.4317,46.9713,22.5376,3.3647,2025-06-12T14:14:43.061758
14546,-0.2157,-0.9170,0.4006,1.715,-9.065,9.205,0.00,22.8498,46.9713,24.0207,4.3941,2025-06-12T14:14:43.061758
14547,-0.1615,-0.9091,0.3821,-0.560,-13.370,6.195,0.00,19.4317,46.9713,21.0533,4.3941,2025-06-12T14:14:43.061758
14548,-0.1518,-0.9252,0.3445,-2.730,-15.715,4.585,0.01,22.8498,51.8904,19.5678,4.3941,2025-06-12T14:14:43.061758
14549,-0.1171,-0.9399,0.3445,-3.745,-16.520,1.050,0.01,22.8498,46.9713,19.5678,4.3941,2025-06-12T14:14:43.061758
14550,-0.1127,-0.9301,0.3611,-5.915,-16.065,-2.590,0.01,19.4317,46.9713,19.5678,4.3941,2025-06-12T14:14:43.061758
14551,-0.1074,-0.9355,0.3723,-7.490,-12.530,-7.455,0.00,19.4317,51.8904,19.5678,4.3941,2025-06-12T14:14:43.061758
14552,-0.0820,-0.9531,0.3436,-10.990,-11.025,-11.690,0.00,16.0028,51.8904,18.0810,4.3941,2025-06-12T14:14:43.061758
14553,-0.1093,-0.9394,0.3357,-13.300,-10.045,-15.750,0.00,19.4317,51.8904,21.0533,4.3941,2025-06-12T14:14:43.061758
14554,-0.1054,-0.9618,0.3167,-15.435,-8.645,-17.780,0.01,19.4317,46.9713,21.0533,4.3941,2025-06-12T14:14:43.061758
14555,-0.1225,-0.9775,0.3338,-18.550,-9.240,-20.125,0.00,22.8498,51.8904,21.0533,4.3941,2025-06-12T14:14:43.062781
14556,-0.1137,-1.0072,0.3026,-20.265,-12.915,-22.225,0.00,19.4317,56.7857,22.5376,3.3647,2025-06-12T14:14:43.062781
14557,-0.0834,-1.0155,0.3206,-20.370,-17.850,-21.350,0.01,19.4317,56.7857,18.0810,4.3941,2025-06-12T14:14:43.062781
14558,-0.0844,-1.0272,0.3172,-21.910,-17.430,-22.505,0.00,19.4317,51.8904,28.4624,4.3941,2025-06-12T14:14:43.062781
14559,-0.0298,-1.0316,0.3152,-22.890,-14.140,-22.785,0.00,19.4317,46.9713,21.0533,4.3941,2025-06-12T14:14:43.062781
14560,-0.0249,-1.0307,0.2850,-24.535,-8.330,-22.400,0.00,16.0028,46.9713,21.0533,3.3647,2025-06-12T14:14:43.062781
14561,0.0063,-1.0429,0.2786,-24.850,-1.225,-22.085,0.01,19.4317,46.9713,21.0533,4.3941,2025-06-12T14:14:43.062781
14562,-0.0132,-1.0365,0.2874,-25.130,5.565,-21.840,0.01,19.4317,51.8904,25.5025,4.3941,2025-06-12T14:14:43.262037
14563,-0.0434,-1.0219,0.2713,-23.835,10.430,-20.440,0.01,19.4317,46.9713,22.5376,4.3941,2025-06-12T14:14:43.262037
14564,-0.0551,-1.0097,0.2772,-23.870,16.555,-19.740,0.00,22.8498,46.9713,22.5376,4.3941,2025-06-12T14:14:43.262037
14565,-0.1030,-0.9838,0.2786,-22.120,17.395,-18.130,0.00,19.4317,46.9713,22.5376,4.3941,2025-06-12T14:14:43.262037
14566,-0.0913,-0.9892,0.3172,-19.705,13.475,-15.890,0.00,22.8498,46.9713,25.5025,4.3941,2025-06-12T14:14:43.262037
14567,-0.0830,-0.9540,0.3274,-18.515,13.895,-14.105,0.01,16.0028,27.0568,25.5025,3.3647,2025-06-12T14:14:43.262037
14568,-0.0913,-0.9623,0.2577,-19.145,14.595,-12.705,0.00,19.4317,32.0711,25.5025,3.3647,2025-06-12T14:14:43.262037
14569,-0.0976,-0.9545,0.2445,-17.640,14.630,-10.045,0.00,12.5632,32.0711,29.9405,3.3647,2025-06-12T14:14:43.262037
14570,-0.1176,-0.9453,0.2908,-18.130,15.155,-9.625,0.00,19.4317,32.0711,28.4624,3.3647,2025-06-12T14:14:43.262037
14571,-0.1161,-0.9623,0.2713,-16.940,12.495,-9.100,0.00,16.0028,27.0568,29.9405,3.3647,2025-06-12T14:14:43.263105
14572,-0.1581,-0.9736,0.2855,-15.190,8.400,-9.590,0.00,16.0028,32.0711,31.4173,4.3941,2025-06-12T14:14:43.263105
14573,-0.1352,-0.9687,0.2508,-13.230,5.180,-10.360,0.00,16.0028,32.0711,29.9405,3.3647,2025-06-12T14:14:43.263105
14574,-0.1298,-0.9984,0.2674,-11.025,0.665,-11.270,0.01,16.0028,32.0711,32.8929,3.3647,2025-06-12T14:14:43.263105
14575,-0.1020,-0.9545,0.3314,-10.255,0.000,-12.845,0.00,16.0028,32.0711,32.8929,3.3647,2025-06-12T14:14:43.263105
14576,-0.1122,-0.9819,0.2621,-11.690,-1.995,-12.740,0.00,19.4317,32.0711,29.9405,4.3941,2025-06-12T14:14:43.369430
14577,-0.1386,-1.0019,0.2469,-10.150,-4.480,-13.825,0.01,19.4317,32.0711,31.4173,4.3941,2025-06-12T14:14:43.369430
14578,-0.1688,-1.0048,0.2684,-8.995,-10.395,-16.520,0.01,19.4317,32.0711,34.3672,4.3941,2025-06-12T14:14:43.369430
14579,-0.0195,-1.0243,0.2752,-7.595,-16.520,-19.355,0.01,19.4317,32.0711,32.8929,4.3941,2025-06-12T14:14:43.369430
14580,-0.1274,-1.0463,0.2542,-6.580,-18.165,-20.440,0.01,19.4317,32.0711,32.8929,4.3941,2025-06-12T14:14:43.369430
14581,-0.1025,-1.0146,0.2586,-7.105,-18.130,-21.980,0.00,19.4317,32.0711,37.3121,3.3647,2025-06-12T14:14:43.369430
14582,-0.0551,-1.0731,0.2572,-7.945,-15.540,-21.875,0.00,16.0028,32.0711,37.3121,3.3647,2025-06-12T14:14:43.369430
14583,-0.0698,-1.1082,0.2479,-8.680,-12.145,-23.975,0.00,16.0028,32.0711,35.8403,3.3647,2025-06-12T14:14:43.369430
14584,-0.0634,-1.1000,0.2435,-9.835,-8.190,-25.550,0.00,16.0028,27.0568,43.1869,3.3647,2025-06-12T14:14:43.369430
14585,-0.0488,-1.1009,0.2484,-10.465,-2.450,-26.110,0.00,16.0028,32.0711,44.6525,3.3647,2025-06-12T14:14:43.369430
14586,-0.0693,-1.0785,0.2455,-12.215,2.100,-25.935,0.00,19.4317,27.0568,43.1869,3.3647,2025-06-12T14:14:43.370497
14587,-0.0571,-1.0624,0.2503,-12.565,6.650,-25.130,0.00,19.4317,27.0568,38.7827,3.3647,2025-06-12T14:14:43.370497
14588,-0.0649,-1.0282,0.2538,-13.545,8.575,-24.220,0.00,16.0028,32.0711,37.3121,2.3358,2025-06-12T14:14:43.370497
14589,-0.0703,-1.0136,0.2240,-15.260,10.115,-22.435,0.00,16.0028,32.0711,37.3121,3.3647,2025-06-12T14:14:43.370497
14590,-0.0966,-0.9945,0.2264,-15.855,9.940,-22.120,0.00,16.0028,32.0711,41.7201,3.3647,2025-06-12T14:14:43.370497
14591,-0.0791,-0.9667,0.2220,-16.135,8.855,-20.580,0.00,19.4317,37.0617,38.7827,4.3941,2025-06-12T14:14:43.471007
14592,-0.1220,-0.9326,0.2298,-16.485,7.070,-20.685,0.00,22.8498,42.0284,37.3121,4.3941,2025-06-12T14:14:43.471007
14593,-0.1118,-0.9355,0.2103,-17.570,2.800,-20.825,0.01,19.4317,42.0284,38.7827,4.3941,2025-06-12T14:14:43.471007
14594,-0.1142,-0.9428,0.2791,-16.450,-0.980,-22.540,0.01,19.4317,51.8904,41.7201,3.3647,2025-06-12T14:14:43.471007
14595,-0.0761,-0.9384,0.2562,-15.750,-5.460,-22.050,0.01,19.4317,46.9713,43.1869,4.3941,2025-06-12T14:14:43.471007
14596,-0.0410,-0.9706,0.2328,-15.645,-4.760,-22.995,0.01,16.0028,46.9713,41.7201,3.3647,2025-06-12T14:14:43.471007
14597,-0.0503,-1.0175,0.2113,-15.820,-1.575,-24.745,0.01,19.4317,42.0284,41.7201,3.3647,2025-06-12T14:14:43.471007
14598,-0.0322,-1.0673,0.2401,-13.720,1.785,-28.105,0.01,19.4317,46.9713,43.1869,4.3941,2025-06-12T14:14:43.604515
14599,-0.0244,-1.0751,0.2747,-10.010,6.580,-31.010,0.01,19.4317,46.9713,38.7827,4.3941,2025-06-12T14:14:43.604515
14600,0.0254,-1.0892,0.2484,-8.050,13.475,-32.025,0.01,19.4317,51.8904,44.6525,4.3941,2025-06-12T14:14:43.604515
14601,0.0312,-1.0751,0.1981,-6.860,22.330,-30.695,0.01,22.8498,46.9713,40.2520,4.3941,2025-06-12T14:14:43.604515
14602,0.0122,-1.0809,0.2098,-5.530,32.655,-29.715,0.00,22.8498,51.8904,40.2520,3.3647,2025-06-12T14:14:43.604515
14603,0.0083,-1.0878,0.2142,-3.010,35.945,-27.615,0.00,22.8498,51.8904,41.7201,3.3647,2025-06-12T14:14:43.604515
14604,-0.0039,-1.0541,0.2425,0.700,39.025,-24.290,0.00,19.4317,46.9713,44.6525,3.3647,2025-06-12T14:14:43.604515
14605,-0.0346,-1.0385,0.2377,1.225,41.510,-21.770,0.00,22.8498,51.8904,41.7201,4.3941,2025-06-12T14:14:43.604515
14606,-0.0234,-1.0492,0.2367,3.220,41.475,-19.880,0.00,22.8498,46.9713,41.7201,4.3941,2025-06-12T14:14:43.605581
14607,-0.0776,-1.0321,0.2396,5.495,35.910,-18.830,0.00,19.4317,51.8904,46.1168,3.3647,2025-06-12T14:14:43.605581
14608,-0.0976,-1.0365,0.2523,7.980,28.910,-18.480,0.00,22.8498,46.9713,44.6525,3.3647,2025-06-12T14:14:43.691843
14609,-0.0693,-1.0365,0.2704,10.430,18.095,-18.305,0.01,19.4317,46.9713,43.1869,3.3647,2025-06-12T14:14:43.691843
14610,-0.0137,-1.0399,0.2884,11.060,13.930,-17.290,0.01,19.4317,46.9713,50.5024,4.3941,2025-06-12T14:14:43.691843
14611,0.0068,-1.0385,0.3104,10.570,15.295,-17.675,0.00,22.8498,46.9713,46.1168,4.3941,2025-06-12T14:14:43.691843
14612,0.0234,-1.0350,0.2801,8.470,20.265,-18.515,0.00,19.4317,51.8904,41.7201,4.3941,2025-06-12T14:14:43.784626
14613,0.0059,-1.0775,0.2826,6.020,27.825,-19.425,0.01,22.8498,46.9713,46.1168,4.3941,2025-06-12T14:14:43.784734
14614,-0.0190,-1.1078,0.3040,5.950,29.365,-22.330,0.01,19.4317,51.8904,44.6525,3.3647,2025-06-12T14:14:43.784734
14615,-0.0493,-1.1175,0.3133,6.300,27.195,-23.135,0.00,19.4317,46.9713,43.1869,4.3941,2025-06-12T14:14:43.784734
14616,-0.0303,-1.1448,0.3411,5.250,26.705,-24.710,0.00,16.0028,37.0617,43.1869,3.3647,2025-06-12T14:14:43.785247
14617,0.0878,-1.1131,0.3899,6.160,30.485,-22.295,0.00,19.4317,37.0617,38.7827,3.3647,2025-06-12T14:14:43.785332
14618,0.0903,-1.0887,0.3787,3.745,41.650,-19.915,0.00,16.0028,32.0711,35.8403,3.3647,2025-06-12T14:14:43.785332
14619,0.0947,-1.0702,0.3479,0.630,52.850,-18.165,0.00,16.0028,32.0711,35.8403,3.3647,2025-06-12T14:14:43.785332
14620,0.0542,-1.0609,0.3528,-0.630,62.860,-13.860,0.01,16.0028,32.0711,26.9831,3.3647,2025-06-12T14:14:43.785332
14621,0.0054,-1.0238,0.3831,1.505,64.260,-11.970,0.01,19.4317,32.0711,26.9831,4.3941,2025-06-12T14:14:43.997036
14622,-0.0005,-1.0170,0.4270,6.720,61.005,-9.135,0.01,19.4317,32.0711,25.5025,3.3647,2025-06-12T14:14:43.997036
14623,-0.0234,-0.9721,0.4480,11.165,57.050,-6.090,0.00,19.4317,32.0711,24.0207,4.3941,2025-06-12T14:14:43.997036
14624,0.0195,-0.9653,0.4587,17.955,53.445,-4.970,0.00,16.0028,32.0711,26.9831,3.3647,2025-06-12T14:14:43.997036
14625,0.0102,-0.9799,0.4343,24.290,51.275,-1.015,0.00,16.0028,32.0711,25.5025,3.3647,2025-06-12T14:14:43.997036
14626,0.0288,-0.9721,0.4451,31.395,47.600,3.185,0.01,16.0028,32.0711,24.0207,3.3647,2025-06-12T14:14:43.997654
14627,0.0468,-0.9765,0.4392,36.015,41.545,7.910,0.00,19.4317,27.0568,22.5376,4.3941,2025-06-12T14:14:43.997654
14628,0.0317,-0.9384,0.4119,42.210,40.635,11.305,0.00,19.4317,27.0568,25.5025,3.3647,2025-06-12T14:14:43.997654
14629,0.0307,-0.9204,0.4075,47.530,43.680,14.490,0.00,16.0028,32.0711,22.5376,3.3647,2025-06-12T14:14:43.997654
14630,0.0107,-0.9150,0.3811,50.925,45.045,16.555,0.00,12.5632,32.0711,25.5025,3.3647,2025-06-12T14:14:43.997654
14631,-0.0434,-0.9370,0.3460,54.145,41.230,19.425,0.00,16.0028,32.0711,28.4624,3.3647,2025-06-12T14:14:43.997654
14632,-0.0576,-0.9213,0.3514,58.135,36.295,19.110,0.00,16.0028,32.0711,22.5376,3.3647,2025-06-12T14:14:43.997654
14633,-0.0449,-0.8930,0.3582,61.215,26.670,21.560,0.00,16.0028,32.0711,21.0533,3.3647,2025-06-12T14:14:43.997654
14634,-0.0420,-0.8867,0.3684,64.645,19.460,23.170,0.00,16.0028,32.0711,22.5376,3.3647,2025-06-12T14:14:43.997654
14635,-0.0044,-0.8823,0.3919,64.330,15.610,23.940,0.01,19.4317,32.0711,24.0207,4.3941,2025-06-12T14:14:44.058348
14636,0.0122,-0.8696,0.4211,63.280,16.275,23.695,0.00,16.0028,32.0711,28.4624,3.3647,2025-06-12T14:14:44.058348
14637,0.0376,-0.9043,0.4343,59.990,18.690,23.345,0.01,19.4317,32.0711,28.4624,3.3647,2025-06-12T14:14:44.058348
14638,0.0542,-0.9052,0.4314,57.505,22.120,22.365,0.01,19.4317,32.0711,26.9831,4.3941,2025-06-12T14:14:44.058348
14639,0.0239,-0.9306,0.4226,56.175,26.040,23.310,0.01,16.0028,32.0711,24.0207,3.3647,2025-06-12T14:14:44.058348
14640,-0.0161,-0.9257,0.4382,55.825,23.905,24.430,0.01,16.0028,32.0711,21.0533,4.3941,2025-06-12T14:14:44.058348
14641,-0.0688,-0.9004,0.4514,55.440,17.640,25.585,0.00,19.4317,27.0568,21.0533,3.3647,2025-06-12T14:14:44.146090
14642,-0.0888,-0.9106,0.4363,52.535,11.130,28.420,0.00,16.0028,37.0617,22.5376,3.3647,2025-06-12T14:14:44.146090
14643,-0.1474,-0.9096,0.4255,50.995,-6.020,33.250,0.01,19.4317,32.0711,21.0533,4.3941,2025-06-12T14:14:44.146090
14644,-0.1415,-0.8735,0.4558,49.910,-21.420,36.645,0.00,16.0028,32.0711,21.0533,3.3647,2025-06-12T14:14:44.324309
14645,-0.1137,-0.8721,0.4724,46.550,-34.895,41.230,0.01,16.0028,27.0568,19.5678,3.3647,2025-06-12T14:14:44.324309
14646,-0.1161,-0.8369,0.5090,42.770,-43.050,42.035,0.00,16.0028,27.0568,24.0207,3.3647,2025-06-12T14:14:44.324309
14647,-0.0932,-0.8130,0.5436,39.480,-50.050,43.400,0.01,16.0028,27.0568,25.5025,3.3647,2025-06-12T14:14:44.324309
14648,-0.0361,-0.7759,0.5944,37.940,-50.645,45.045,0.01,19.4317,32.0711,28.4624,3.3647,2025-06-12T14:14:44.324309
14649,-0.0449,-0.7457,0.6466,35.945,-44.135,45.360,0.01,19.4317,32.0711,26.9831,3.3647,2025-06-12T14:14:44.324309
14650,-0.0400,-0.7300,0.6632,33.355,-31.850,44.520,0.00,19.4317,32.0711,28.4624,3.3647,2025-06-12T14:14:44.324309
14651,-0.0517,-0.7422,0.7330,33.915,-18.760,44.730,0.00,16.0028,32.0711,31.4173,3.3647,2025-06-12T14:14:44.324309
14652,-0.1371,-0.7261,0.8169,36.365,-1.085,45.220,0.00,19.4317,42.0284,28.4624,4.3941,2025-06-12T14:14:44.324309
14653,-0.1723,-0.7071,0.8574,38.010,10.850,46.690,0.00,12.5632,51.8904,28.4624,4.3941,2025-06-12T14:14:44.324309
14654,-0.2118,-0.7056,0.8286,41.650,21.105,51.310,0.00,16.0028,51.8904,44.6525,4.3941,2025-06-12T14:14:44.324309
14655,-0.3045,-0.7032,0.8111,43.575,26.145,58.590,0.00,19.4317,56.7857,34.3672,4.3941,2025-06-12T14:14:44.324309
14656,-0.3616,-0.7105,0.8164,47.740,26.390,65.240,0.00,19.4317,56.7857,41.7201,4.3941,2025-06-12T14:14:44.324309
14657,-0.4499,-0.7183,0.8403,50.680,22.785,72.870,0.01,19.4317,56.7857,44.6525,4.3941,2025-06-12T14:14:44.324309
14658,-0.4470,-0.7427,0.8633,53.830,14.385,88.620,0.01,16.0028,56.7857,46.1168,4.3941,2025-06-12T14:14:44.324309
14659,-0.4250,-0.7525,0.8506,59.500,2.345,90.090,0.00,19.4317,56.7857,56.3323,4.3941,2025-06-12T14:14:44.324309
14660,-0.4299,-0.8057,0.8428,60.200,-2.415,101.220,0.01,19.4317,56.7857,53.4198,4.3941,2025-06-12T14:14:44.370324
14661,-0.4480,-0.8067,0.7910,63.035,-6.090,108.675,0.01,19.4317,56.7857,60.6916,4.3941,2025-06-12T14:14:44.370324
14662,-0.5383,-0.8091,0.8106,69.860,-17.640,119.700,0.00,19.4317,56.7857,66.4866,5.4240,2025-06-12T14:14:44.370324
14663,-0.5446,-0.8486,0.8511,73.150,-29.435,123.410,0.00,22.8498,56.7857,62.1422,4.3941,2025-06-12T14:14:44.419367
14664,-0.6144,-0.8545,0.8935,79.030,-43.085,126.770,0.00,19.4317,56.7857,76.5797,4.3941,2025-06-12T14:14:44.419367
14665,-0.4929,-0.8701,0.8974,87.185,-51.310,132.685,0.01,16.0028,56.7857,72.2616,4.3941,2025-06-12T14:14:44.419367
14666,-0.4031,-0.8696,0.9072,91.315,-50.575,138.915,0.00,22.8498,56.7857,75.1416,4.3941,2025-06-12T14:14:44.419367
14667,-0.3484,-0.8706,0.9374,96.495,-42.735,146.650,0.00,19.4317,51.8904,78.0166,4.3941,2025-06-12T14:14:44.598455
14668,-0.3592,-0.8691,0.9862,101.955,-32.445,150.290,0.00,22.8498,51.8904,72.2616,4.3941,2025-06-12T14:14:44.598455
14669,-0.4128,-0.8628,1.0004,104.965,-18.305,151.620,0.01,19.4317,51.8904,78.0166,4.3941,2025-06-12T14:14:44.598455
14670,-0.3987,-0.9116,1.0277,113.085,-8.925,156.065,0.01,22.8498,51.8904,69.3766,4.3941,2025-06-12T14:14:44.598455
14671,-0.4333,-0.9350,1.0804,123.795,-1.295,157.640,0.00,19.4317,46.9713,57.7867,3.3647,2025-06-12T14:14:44.598455
14672,-0.4416,-0.9018,1.1522,133.980,8.260,158.620,0.00,19.4317,46.9713,59.2398,3.3647,2025-06-12T14:14:44.598455
14673,-0.4314,-0.8886,1.1858,145.705,21.315,163.730,0.00,22.8498,42.0284,59.2398,3.3647,2025-06-12T14:14:44.598455
14674,-0.4646,-0.8682,1.1917,154.945,34.685,170.345,0.00,26.2573,42.0284,56.3323,3.3647,2025-06-12T14:14:44.598953
14675,-0.4880,-0.8262,1.2342,166.740,43.645,177.345,0.00,19.4317,37.0617,53.4198,4.3941,2025-06-12T14:14:44.598953
14676,-0.5280,-0.7745,1.2410,176.295,51.765,183.680,0.00,19.4317,37.0617,51.9617,3.3647,2025-06-12T14:14:44.598953
14677,-0.5632,-0.7139,1.1780,182.175,56.875,188.615,0.00,22.8498,37.0617,49.0418,3.3647,2025-06-12T14:14:44.598953
14678,-0.5739,-0.6500,1.1224,186.760,61.670,193.690,0.01,19.4317,46.9713,44.6525,3.3647,2025-06-12T14:14:44.598953
14679,-0.6730,-0.5773,1.0921,187.425,63.210,198.835,0.00,26.2573,56.7857,46.1168,4.3941,2025-06-12T14:14:44.598953
14680,-0.7252,-0.5505,1.0721,187.845,57.260,200.410,0.01,22.8498,51.8904,44.6525,3.3647,2025-06-12T14:14:44.699397
14681,-0.7496,-0.5104,1.0472,191.380,44.905,203.105,0.01,22.8498,56.7857,43.1869,4.3941,2025-06-12T14:14:44.699397
14682,-0.7364,-0.4416,0.9945,193.690,33.775,205.975,0.01,26.2573,56.7857,44.6525,4.3941,2025-06-12T14:14:44.699397
14683,-0.6934,-0.3899,0.9209,195.370,20.755,208.705,0.01,22.8498,56.7857,44.6525,4.3941,2025-06-12T14:14:44.699397
14684,-0.6525,-0.3011,0.8550,195.230,9.625,209.265,0.01,22.8498,56.7857,43.1869,4.3941,2025-06-12T14:14:44.699397
14685,-0.5880,-0.2118,0.7666,194.600,6.510,208.740,0.00,19.4317,51.8904,40.2520,4.3941,2025-06-12T14:14:44.699397
14686,-0.5900,-0.1444,0.6622,190.750,7.875,205.450,0.00,22.8498,56.7857,41.7201,3.3647,2025-06-12T14:14:44.699397
14687,-0.5207,-0.0830,0.6129,186.515,8.260,198.625,0.01,22.8498,56.7857,41.7201,4.3941,2025-06-12T14:14:44.805682
14688,-0.4397,-0.0273,0.5456,182.035,6.580,193.585,0.00,22.8498,56.7857,40.2520,4.3941,2025-06-12T14:14:44.805682
14689,-0.4080,0.0322,0.4812,176.785,5.005,185.045,0.01,22.8498,56.7857,44.6525,4.3941,2025-06-12T14:14:44.805682
14690,-0.3416,0.0820,0.3650,166.740,0.910,175.910,0.01,22.8498,56.7857,47.5799,3.3647,2025-06-12T14:14:44.805682
14691,-0.2381,0.1332,0.2967,158.305,-0.280,164.220,0.00,22.8498,56.7857,46.1168,4.3941,2025-06-12T14:14:45.075105
14692,-0.1420,0.1884,0.2328,143.535,6.370,153.860,0.01,22.8498,61.6572,43.1869,4.3941,2025-06-12T14:14:45.075105
14693,-0.0737,0.2425,0.1718,120.995,15.190,142.975,0.00,22.8498,56.7857,44.6525,4.3941,2025-06-12T14:14:45.075105
14694,-0.0146,0.2826,0.2157,103.880,25.550,130.795,0.00,26.2573,56.7857,43.1869,4.3941,2025-06-12T14:14:45.075105
14695,-0.0029,0.3211,0.2635,82.250,28.000,123.970,0.01,26.2573,56.7857,43.1869,4.3941,2025-06-12T14:14:45.075105
14696,-0.1025,0.3523,0.1991,61.705,23.275,118.475,0.01,22.8498,56.7857,44.6525,3.3647,2025-06-12T14:14:45.075105
14697,-0.1327,0.3689,0.1069,38.255,13.335,111.335,0.00,22.8498,56.7857,47.5799,4.3941,2025-06-12T14:14:45.076083
14698,-0.1947,0.3797,0.1122,16.835,-0.910,103.425,0.01,22.8498,56.7857,44.6525,4.3941,2025-06-12T14:14:45.076083
14699,-0.1815,0.3963,0.0888,0.175,-14.490,94.990,0.00,22.8498,56.7857,43.1869,3.3647,2025-06-12T14:14:45.076083
14700,-0.1659,0.4070,0.1288,-16.905,-24.430,88.725,0.00,22.8498,56.7857,43.1869,3.3647,2025-06-12T14:14:45.076083
14701,-0.0200,0.3499,0.1513,-31.780,-22.540,75.040,0.01,22.8498,56.7857,46.1168,4.3941,2025-06-12T14:14:45.076083
14702,0.2211,0.4382,0.3704,-41.685,24.430,63.595,0.00,22.8498,56.7857,44.6525,4.3941,2025-06-12T14:14:45.076083
14703,0.4519,0.4109,0.3675,-52.255,98.000,46.655,0.00,22.8498,56.7857,43.1869,4.3941,2025-06-12T14:14:45.076083
14704,-0.0278,0.3045,0.5300,-46.690,127.015,28.525,0.00,19.4317,56.7857,41.7201,3.3647,2025-06-12T14:14:45.076083
14705,-0.2147,0.2621,0.6349,-34.335,80.255,13.370,0.00,22.8498,51.8904,44.6525,3.3647,2025-06-12T14:14:45.076083
14706,-0.4836,0.5178,0.6895,-13.790,15.050,4.445,0.01,19.4317,42.0284,44.6525,3.3647,2025-06-12T14:14:45.076083
14707,-0.3055,0.7652,0.6056,-8.540,-16.100,-10.920,0.01,19.4317,42.0284,43.1869,3.3647,2025-06-12T14:14:45.076083
14708,0.0630,0.7584,0.4343,-13.265,2.660,-20.160,0.00,22.8498,46.9713,44.6525,3.3647,2025-06-12T14:14:45.076083
14709,0.0776,0.8540,0.4055,-24.605,31.990,-24.710,0.00,19.4317,42.0284,47.5799,3.3647,2025-06-12T14:14:45.133747
14710,-0.0669,0.7593,0.4207,-35.770,57.190,-33.425,0.01,22.8498,42.0284,46.1168,3.3647,2025-06-12T14:14:45.133747
14711,-0.1337,0.7544,0.4089,-41.300,57.295,-41.825,0.00,22.8498,42.0284,51.9617,4.3941,2025-06-12T14:14:45.133747
14712,-0.1571,0.7261,0.4724,-46.130,49.280,-49.385,0.00,22.8498,37.0617,50.5024,3.3647,2025-06-12T14:14:45.133747
14713,-0.1118,0.7149,0.5134,-47.915,40.635,-57.960,0.00,22.8498,42.0284,50.5024,3.3647,2025-06-12T14:14:45.133747
14714,-0.1264,0.7242,0.5305,-48.020,34.580,-64.540,0.00,22.8498,37.0617,50.5024,3.3647,2025-06-12T14:14:45.133747
14715,-0.1054,0.7422,0.4909,-50.225,33.495,-73.780,0.01,19.4317,37.0617,50.5024,3.3647,2025-06-12T14:14:45.133747
14716,-0.0937,0.7320,0.4519,-53.830,37.905,-81.305,0.01,22.8498,42.0284,50.5024,3.3647,2025-06-12T14:14:45.133747
14717,-0.1181,0.7052,0.3919,-58.485,45.745,-89.740,0.00,22.8498,42.0284,47.5799,4.3941,2025-06-12T14:14:45.133747
14718,-0.1508,0.6661,0.3450,-64.155,50.750,-96.215,0.01,22.8498,42.0284,44.6525,4.3941,2025-06-12T14:14:45.185542
14719,-0.2723,0.6437,0.3714,-71.120,56.210,-102.970,0.01,22.8498,37.0617,46.1168,4.3941,2025-06-12T14:14:45.185542
14720,-0.4138,0.5632,0.4353,-74.375,58.135,-110.810,0.01,19.4317,37.0617,49.0418,3.3647,2025-06-12T14:14:45.185542
14721,-0.4895,0.5212,0.5002,-74.760,56.035,-117.215,0.01,26.2573,37.0617,50.5024,3.3647,2025-06-12T14:14:45.185542
14722,-0.6139,0.5192,0.5422,-73.010,52.990,-124.355,0.01,26.2573,32.0711,51.9617,3.3647,2025-06-12T14:14:45.329958
14723,-0.6427,0.5075,0.5719,-71.365,53.970,-129.255,0.00,22.8498,42.0284,53.4198,3.3647,2025-06-12T14:14:45.329958
14724,-0.6842,0.5022,0.6032,-72.065,63.735,-135.310,0.00,19.4317,42.0284,50.5024,3.3647,2025-06-12T14:14:45.329958
14725,-0.7227,0.4792,0.5934,-73.430,75.390,-138.950,0.00,19.4317,42.0284,57.7867,3.3647,2025-06-12T14:14:45.329958
14726,-0.8194,0.4685,0.5856,-73.255,88.900,-139.615,0.00,19.4317,42.0284,57.7867,4.3941,2025-06-12T14:14:45.329958
14727,-0.9379,0.4480,0.6490,-71.960,101.290,-138.285,0.00,19.4317,37.0617,51.9617,3.3647,2025-06-12T14:14:45.329958
14728,-0.9945,0.4280,0.7032,-68.145,110.985,-133.560,0.00,19.4317,42.0284,54.8767,3.3647,2025-06-12T14:14:45.329958
14729,-1.1146,0.4050,0.7159,-61.950,112.455,-125.265,0.00,19.4317,42.0284,53.4198,3.3647,2025-06-12T14:14:45.329958
14730,-1.1483,0.3958,0.7569,-55.125,105.490,-114.380,0.00,22.8498,42.0284,53.4198,3.3647,2025-06-12T14:14:45.329958
14731,-1.1522,0.4133,0.8013,-45.325,93.485,-104.510,0.01,22.8498,42.0284,54.8767,3.3647,2025-06-12T14:14:45.330549
14732,-1.1112,0.4143,0.8047,-36.295,83.370,-92.785,0.01,26.2573,46.9713,49.0418,3.3647,2025-06-12T14:14:45.415009
14733,-1.1009,0.4309,0.8003,-23.555,68.740,-84.350,0.01,26.2573,51.8904,49.0418,4.3941,2025-06-12T14:14:45.415009
14734,-1.0355,0.4329,0.7847,-14.945,54.950,-76.545,0.00,29.6540,51.8904,49.0418,4.3941,2025-06-12T14:14:45.416080
14735,-0.9414,0.4553,0.7725,-8.050,45.115,-69.860,0.00,29.6540,46.9713,43.1869,4.3941,2025-06-12T14:14:45.416080
14736,-0.8623,0.4987,0.7408,-3.885,41.440,-65.975,0.00,29.6540,46.9713,49.0418,4.3941,2025-06-12T14:14:45.416080
14737,-0.8057,0.5373,0.7281,-1.015,43.120,-61.880,0.01,22.8498,46.9713,41.7201,4.3941,2025-06-12T14:14:45.416080
14738,-0.8208,0.5417,0.7100,1.715,44.450,-58.030,0.01,22.8498,42.0284,44.6525,4.3941,2025-06-12T14:14:45.416080
14739,-0.8364,0.5090,0.6686,5.495,39.935,-54.005,0.00,19.4317,42.0284,37.3121,3.3647,2025-06-12T14:14:45.518578
14740,-0.8652,0.5046,0.6139,9.555,34.755,-48.125,0.00,22.8498,42.0284,41.7201,3.3647,2025-06-12T14:14:45.518578
14741,-0.8960,0.5129,0.5866,13.020,28.630,-44.275,0.01,22.8498,46.9713,40.2520,4.3941,2025-06-12T14:14:45.518578
14742,-0.9287,0.5207,0.5846,14.560,23.835,-40.320,0.00,22.8498,42.0284,35.8403,4.3941,2025-06-12T14:14:45.518578
14743,-1.0126,0.5466,0.5329,14.070,20.860,-36.470,0.01,26.2573,37.0617,31.4173,3.3647,2025-06-12T14:14:45.518578
14744,-1.0272,0.5407,0.5256,13.860,12.600,-33.635,0.00,22.8498,42.0284,35.8403,3.3647,2025-06-12T14:14:45.518578
14745,-1.0429,0.5392,0.5114,15.295,1.505,-31.780,0.00,19.4317,37.0617,29.9405,4.3941,2025-06-12T14:14:45.518578
14746,-1.0716,0.5100,0.4982,15.015,-6.860,-29.575,0.00,22.8498,42.0284,31.4173,4.3941,2025-06-12T14:14:45.626461
14747,-1.0380,0.4846,0.4714,15.400,-13.265,-27.755,0.00,19.4317,42.0284,35.8403,4.3941,2025-06-12T14:14:45.626461
14748,-0.9745,0.4612,0.4397,14.665,-16.345,-25.095,0.00,19.4317,37.0617,37.3121,4.3941,2025-06-12T14:14:45.626461
14749,-0.9521,0.4446,0.4094,12.075,-17.780,-24.780,0.01,22.8498,37.0617,37.3121,3.3647,2025-06-12T14:14:45.626461
14750,-0.8857,0.4128,0.3928,8.645,-16.310,-24.500,0.01,22.8498,42.0284,40.2520,4.3941,2025-06-12T14:14:45.626461
14751,-0.8706,0.3865,0.3660,4.900,-12.775,-24.850,0.00,26.2573,46.9713,40.2520,4.3941,2025-06-12T14:14:45.626461
14752,-0.8369,0.3855,0.3518,-0.105,-6.790,-26.180,0.00,26.2573,46.9713,40.2520,4.3941,2025-06-12T14:14:45.626461
14753,-0.8081,0.3738,0.3411,-5.075,0.035,-27.510,0.01,22.8498,46.9713,38.7827,5.4240,2025-06-12T14:14:45.723409
14754,-0.7857,0.3406,0.3357,-11.515,5.950,-29.925,0.00,22.8498,46.9713,38.7827,4.3941,2025-06-12T14:14:45.723409
14755,-0.7598,0.3211,0.3279,-18.585,13.545,-33.145,0.00,22.8498,42.0284,37.3121,3.3647,2025-06-12T14:14:45.723409
14756,-0.7515,0.3055,0.3445,-24.430,23.800,-38.185,0.00,22.8498,37.0617,37.3121,3.3647,2025-06-12T14:14:45.723409
14757,-0.7359,0.2791,0.3733,-31.850,32.515,-44.520,0.00,22.8498,37.0617,35.8403,3.3647,2025-06-12T14:14:45.723409
14758,-0.7144,0.2352,0.3787,-37.100,44.135,-52.710,0.00,19.4317,37.0617,35.8403,3.3647,2025-06-12T14:14:45.723409
14759,-0.6832,0.1718,0.3704,-43.085,55.860,-59.010,0.00,19.4317,37.0617,37.3121,3.3647,2025-06-12T14:14:45.723409
14760,-0.7042,0.1366,0.3792,-49.490,72.310,-66.570,0.01,19.4317,37.0617,34.3672,3.3647,2025-06-12T14:14:45.723409
14761,-0.7828,0.0405,0.3328,-57.295,82.005,-70.455,0.01,19.4317,32.0711,35.8403,3.3647,2025-06-12T14:14:45.859182
14762,-0.8408,0.0478,0.3060,-59.850,79.835,-72.240,0.00,19.4317,37.0617,28.4624,4.3941,2025-06-12T14:14:45.859182
14763,-0.8867,-0.0054,0.2464,-66.325,73.080,-71.680,0.00,19.4317,37.0617,29.9405,3.3647,2025-06-12T14:14:45.859182
14764,-0.8613,-0.0229,0.2777,-64.330,63.210,-70.595,0.00,19.4317,32.0711,31.4173,3.3647,2025-06-12T14:14:45.859182
14765,-0.8438,-0.0810,0.2874,-67.550,65.625,-66.955,0.01,19.4317,37.0617,31.4173,3.3647,2025-06-12T14:14:45.859182
14766,-0.9209,-0.1313,0.2352,-69.720,62.790,-67.550,0.00,19.4317,46.9713,28.4624,3.3647,2025-06-12T14:14:45.859182
14767,-1.0014,-0.1893,0.2089,-68.460,50.785,-67.165,0.00,22.8498,46.9713,31.4173,4.3941,2025-06-12T14:14:45.859182
14768,-1.0531,-0.2474,0.2123,-65.940,39.130,-66.430,0.00,19.4317,51.8904,31.4173,4.3941,2025-06-12T14:14:45.859182
14769,-1.0721,-0.2757,0.2430,-61.390,27.020,-66.535,0.01,19.4317,51.8904,35.8403,4.3941,2025-06-12T14:14:45.859182
14770,-1.0736,-0.2982,0.2557,-56.980,17.080,-65.485,0.01,22.8498,51.8904,31.4173,3.3647,2025-06-12T14:14:45.945815
14771,-1.0756,-0.3089,0.2835,-51.030,12.075,-65.030,0.01,22.8498,46.9713,29.9405,4.3941,2025-06-12T14:14:45.945815
14772,-1.0619,-0.3196,0.2982,-46.515,10.395,-62.895,0.00,22.8498,46.9713,34.3672,3.3647,2025-06-12T14:14:45.945815
14773,-1.0575,-0.3367,0.3255,-40.565,9.975,-58.240,0.01,22.8498,51.8904,32.8929,3.3647,2025-06-12T14:14:45.945815
14774,-1.0477,-0.3284,0.3597,-32.445,9.240,-53.130,0.01,22.8498,51.8904,32.8929,4.3941,2025-06-12T14:14:45.945815
14775,-1.0433,-0.3353,0.4133,-25.725,8.645,-45.430,0.01,22.8498,46.9713,31.4173,4.3941,2025-06-12T14:14:45.945815
14776,-1.0497,-0.3411,0.4734,-16.555,8.015,-37.905,0.01,22.8498,51.8904,31.4173,4.3941,2025-06-12T14:14:45.945815
14777,-1.0707,-0.3460,0.5022,-8.610,7.280,-28.210,0.01,22.8498,56.7857,25.5025,3.3647,2025-06-12T14:14:46.036900
14778,-1.0751,-0.3689,0.5412,1.960,4.480,-19.355,0.01,19.4317,51.8904,29.9405,4.3941,2025-06-12T14:14:46.036900
14779,-1.0653,-0.3587,0.5739,11.725,2.380,-7.875,0.00,22.8498,51.8904,28.4624,3.3647,2025-06-12T14:14:46.036900
14780,-1.1165,-0.3670,0.5534,22.470,0.805,1.995,0.01,22.8498,51.8904,28.4624,3.3647,2025-06-12T14:14:46.036900
14781,-1.1653,-0.3709,0.5407,32.060,-2.380,13.125,0.00,19.4317,42.0284,28.4624,3.3647,2025-06-12T14:14:46.036900
14782,-1.2210,-0.3728,0.5412,39.550,-9.590,23.030,0.00,19.4317,42.0284,28.4624,4.3941,2025-06-12T14:14:46.036900
14783,-1.2649,-0.3660,0.5622,48.160,-20.090,32.375,0.01,22.8498,46.9713,26.9831,3.3647,2025-06-12T14:14:46.132123
14784,-1.2732,-0.3377,0.5958,54.005,-29.820,43.645,0.00,22.8498,51.8904,28.4624,4.3941,2025-06-12T14:14:46.132123
14785,-1.2683,-0.3113,0.6105,60.690,-38.500,53.515,0.01,19.4317,51.8904,26.9831,4.3941,2025-06-12T14:14:46.132123
14786,-1.2317,-0.2777,0.6359,67.865,-46.375,65.940,0.01,19.4317,51.8904,26.9831,4.3941,2025-06-12T14:14:46.132123
14787,-1.2356,-0.2440,0.6198,70.175,-49.980,78.050,0.00,22.8498,51.8904,29.9405,4.3941,2025-06-12T14:14:46.132123
14788,-1.2556,-0.2094,0.6100,73.570,-57.575,87.605,0.00,22.8498,51.8904,31.4173,4.3941,2025-06-12T14:14:46.132123
14789,-1.2869,-0.1854,0.5895,75.845,-64.960,98.420,0.01,26.2573,51.8904,31.4173,3.3647,2025-06-12T14:14:46.132123
14790,-1.2917,-0.1679,0.5778,77.455,-72.520,106.295,0.00,22.8498,51.8904,28.4624,4.3941,2025-06-12T14:14:46.235276
14791,-1.2766,-0.1503,0.5714,77.630,-78.085,115.990,0.00,22.8498,51.8904,25.5025,4.3941,2025-06-12T14:14:46.235276
14792,-1.2786,-0.1469,0.5880,78.330,-80.045,123.690,0.01,22.8498,51.8904,29.9405,3.3647,2025-06-12T14:14:46.235276
14793,-1.2873,-0.1562,0.5929,79.975,-82.670,132.475,0.01,22.8498,56.7857,28.4624,4.3941,2025-06-12T14:14:46.235276
14794,-1.2942,-0.1776,0.5700,81.935,-85.785,141.225,0.01,22.8498,51.8904,31.4173,4.3941,2025-06-12T14:14:46.235276
14795,-1.2922,-0.1640,0.5558,85.015,-86.100,149.310,0.00,22.8498,51.8904,32.8929,4.3941,2025-06-12T14:14:46.235276
14796,-1.2888,-0.1669,0.5173,87.255,-86.100,158.935,0.00,26.2573,51.8904,35.8403,3.3647,2025-06-12T14:14:46.235276
14797,-1.2991,-0.1625,0.4929,88.655,-87.640,167.580,0.00,26.2573,51.8904,32.8929,4.3941,2025-06-12T14:14:46.235276
14798,-1.2961,-0.1420,0.4943,89.705,-92.540,178.500,0.01,22.8498,56.7857,32.8929,4.3941,2025-06-12T14:14:46.336930
14799,-1.1917,-0.1235,0.5236,91.070,-96.775,186.865,0.00,22.8498,51.8904,32.8929,4.3941,2025-06-12T14:14:46.336930
14800,-1.2683,-0.0712,0.5339,92.575,-99.155,198.065,0.00,22.8498,56.7857,34.3672,4.3941,2025-06-12T14:14:46.336930
14801,-1.2049,-0.0752,0.5295,93.065,-100.765,206.150,0.01,22.8498,51.8904,32.8929,4.3941,2025-06-12T14:14:46.336930
14802,-1.1541,-0.0542,0.5070,95.865,-106.015,212.765,0.00,19.4317,56.7857,34.3672,3.3647,2025-06-12T14:14:46.336930
14803,-0.9819,-0.0439,0.4656,95.830,-108.710,218.610,0.01,22.8498,51.8904,31.4173,3.3647,2025-06-12T14:14:46.336930
14804,-0.8779,-0.0185,0.4494,96.740,-104.160,222.495,0.00,19.4317,56.7857,32.8929,4.3941,2025-06-12T14:14:46.336930
14805,-0.7525,0.0176,0.6168,101.990,-98.385,225.750,0.00,22.8498,51.8904,31.4173,3.3647,2025-06-12T14:14:46.440083
14806,-0.6202,0.0654,0.5783,106.400,-87.220,228.095,0.00,19.4317,51.8904,32.8929,4.3941,2025-06-12T14:14:46.440083
14807,-0.5592,0.1039,0.5524,110.845,-80.360,226.310,0.01,22.8498,56.7857,31.4173,5.4240,2025-06-12T14:14:46.440083
14808,-0.4099,0.1283,0.5217,114.450,-71.750,222.215,0.00,22.8498,51.8904,31.4173,4.3941,2025-06-12T14:14:46.440083
14809,-0.3138,0.1718,0.4924,117.635,-61.355,216.755,0.00,22.8498,51.8904,31.4173,3.3647,2025-06-12T14:14:46.440083
14810,-0.1850,0.1942,0.4656,116.970,-47.460,206.360,0.00,19.4317,51.8904,31.4173,4.3941,2025-06-12T14:14:46.440083
14811,-0.0859,0.2211,0.3894,114.590,-36.155,194.040,0.00,22.8498,56.7857,29.9405,4.3941,2025-06-12T14:14:46.440083
14812,-0.0327,0.2479,0.3109,109.795,-24.430,182.665,0.01,19.4317,56.7857,32.8929,4.3941,2025-06-12T14:14:46.574777
14813,-0.0024,0.2557,0.2464,103.775,-16.345,167.335,0.00,22.8498,56.7857,29.9405,4.3941,2025-06-12T14:14:46.574777
14814,0.0249,0.2621,0.1669,98.070,-13.615,149.450,0.00,22.8498,51.8904,29.9405,4.3941,2025-06-12T14:14:46.574777
14815,0.0434,0.2616,0.0703,90.860,-16.835,133.315,0.01,22.8498,56.7857,31.4173,4.3941,2025-06-12T14:14:46.574777
14816,0.1005,0.2645,0.0151,84.805,-24.885,112.735,0.00,22.8498,56.7857,31.4173,4.3941,2025-06-12T14:14:46.574777
14817,0.1469,0.2923,-0.0156,76.370,-31.010,94.185,0.00,22.8498,51.8904,29.9405,4.3941,2025-06-12T14:14:46.574777
14818,0.2089,0.3304,-0.0669,68.530,-33.320,69.090,0.00,22.8498,51.8904,29.9405,4.3941,2025-06-12T14:14:46.575452
14819,0.2738,0.3860,-0.1332,57.155,-30.065,46.830,0.01,22.8498,56.7857,31.4173,4.3941,2025-06-12T14:14:46.575452
14820,0.3157,0.4543,-0.1547,44.380,-20.580,19.810,0.01,26.2573,56.7857,31.4173,4.3941,2025-06-12T14:14:46.575452
14821,0.3279,0.5334,-0.1532,33.565,-8.400,-7.280,0.01,22.8498,51.8904,31.4173,4.3941,2025-06-12T14:14:46.575452
14822,0.3177,0.5807,-0.1498,21.945,7.560,-29.120,0.00,22.8498,56.7857,32.8929,4.3941,2025-06-12T14:14:46.670196
14823,0.2830,0.6803,-0.1049,12.985,21.560,-54.320,0.00,22.8498,56.7857,35.8403,4.3941,2025-06-12T14:14:46.670196
14824,0.1889,0.7369,-0.0307,3.045,34.020,-72.450,0.00,22.8498,56.7857,35.8403,3.3647,2025-06-12T14:14:46.670196
14825,0.0288,0.8096,0.0459,-2.450,33.040,-89.145,0.01,26.2573,56.7857,38.7827,4.3941,2025-06-12T14:14:46.670196
14826,-0.0800,0.9043,0.1654,-4.970,21.910,-97.440,0.00,22.8498,51.8904,38.7827,4.3941,2025-06-12T14:14:46.670196
14827,-0.1976,0.9862,0.2352,-4.025,2.135,-101.500,0.00,29.6540,51.8904,41.7201,4.3941,2025-06-12T14:14:46.670196
14828,-0.2245,1.0785,0.2962,-0.385,-11.165,-102.235,0.01,22.8498,51.8904,44.6525,3.3647,2025-06-12T14:14:46.670196
14829,-0.2255,1.1644,0.3192,4.970,-14.490,-101.745,0.01,22.8498,56.7857,46.1168,4.3941,2025-06-12T14:14:46.752977
14830,-0.2274,1.2659,0.3050,6.475,-2.905,-99.400,0.01,22.8498,56.7857,46.1168,4.3941,2025-06-12T14:14:46.752977
14831,-0.2611,1.3347,0.3626,6.755,15.120,-93.870,0.00,22.8498,56.7857,46.1168,5.4240,2025-06-12T14:14:46.752977
14832,-0.3714,1.4025,0.4197,7.280,38.850,-82.040,0.01,19.4317,56.7857,46.1168,4.3941,2025-06-12T14:14:46.853740
14833,-0.5339,1.4645,0.4304,8.330,50.365,-67.375,0.01,22.8498,51.8904,47.5799,4.3941,2025-06-12T14:14:46.853740
14834,-0.7188,1.5265,0.4290,10.080,48.650,-45.360,0.01,22.8498,61.6572,49.0418,4.3941,2025-06-12T14:14:46.853740
14835,-0.8247,1.5572,0.4348,11.900,36.610,-19.670,0.00,22.8498,56.7857,49.0418,4.3941,2025-06-12T14:14:46.853740
14836,-0.8418,1.5636,0.4460,13.055,16.240,1.995,0.01,22.8498,56.7857,44.6525,4.3941,2025-06-12T14:14:46.853740
14837,-0.7832,1.5265,0.4177,12.915,-8.085,26.285,0.00,22.8498,56.7857,47.5799,4.3941,2025-06-12T14:14:46.853740
14838,-0.6886,1.4757,0.3787,12.005,-12.215,44.030,0.00,26.2573,51.8904,47.5799,4.3941,2025-06-12T14:14:46.853740
14839,-0.5514,1.3967,0.3372,10.745,-17.745,60.900,0.00,22.8498,56.7857,47.5799,3.3647,2025-06-12T14:14:46.853740
14840,-0.4577,1.3034,0.2791,8.750,-19.635,72.170,0.01,22.8498,56.7857,49.0418,3.3647,2025-06-12T14:14:46.853740
14841,-0.3665,1.1912,0.2460,7.560,-20.300,82.565,0.00,22.8498,56.7857,49.0418,4.3941,2025-06-12T14:14:47.174137
14842,-0.3192,1.0677,0.1967,6.510,-21.070,87.010,0.00,22.8498,56.7857,50.5024,4.3941,2025-06-12T14:14:47.174137
14843,-0.2826,0.9633,0.1449,5.845,-26.495,88.480,0.00,22.8498,56.7857,50.5024,4.3941,2025-06-12T14:14:47.174137
14844,-0.2430,0.8057,0.0854,5.915,-33.285,84.875,0.00,26.2573,56.7857,50.5024,4.3941,2025-06-12T14:14:47.174137
14845,-0.1869,0.6564,0.0566,4.270,-42.105,76.545,0.01,26.2573,56.7857,50.5024,4.3941,2025-06-12T14:14:47.174137
14846,-0.1240,0.4407,-0.0098,2.520,-49.280,59.850,0.01,26.2573,56.7857,47.5799,4.3941,2025-06-12T14:14:47.174137
14847,-0.1039,0.2245,-0.1044,-1.470,-54.600,38.290,0.00,22.8498,56.7857,46.1168,4.3941,2025-06-12T14:14:47.174137
14848,-0.0376,-0.0659,-0.2616,-4.900,-54.740,4.655,0.00,22.8498,56.7857,40.2520,3.3647,2025-06-12T14:14:47.174137
14849,0.0434,-0.2689,-0.4270,-11.725,-41.405,-28.945,0.00,26.2573,56.7857,46.1168,4.3941,2025-06-12T14:14:47.174137
14850,0.1996,-0.4397,-0.4402,-18.585,-5.215,-76.195,0.01,26.2573,56.7857,47.5799,4.3941,2025-06-12T14:14:47.174137
14851,0.1708,-0.6256,-0.5407,-36.540,34.370,-116.620,0.01,29.6540,56.7857,46.1168,4.3941,2025-06-12T14:14:47.174137
14852,0.0190,-0.6939,-0.6188,-54.635,65.380,-162.960,0.01,26.2573,51.8904,43.1869,3.3647,2025-06-12T14:14:47.174137
14853,-0.2011,-0.7847,-0.5022,-64.610,74.515,-205.380,0.01,22.8498,56.7857,46.1168,4.3941,2025-06-12T14:14:47.174137
14854,-0.3514,-0.7989,-0.4046,-70.280,64.120,-241.675,0.01,26.2573,56.7857,43.1869,4.3941,2025-06-12T14:14:47.174137
14855,-0.5231,-0.6993,-0.2821,-71.785,42.315,-287.665,0.00,26.2573,56.7857,47.5799,4.3941,2025-06-12T14:14:47.174137
14856,-0.6368,-0.5470,-0.1908,-69.545,7.770,-326.620,0.00,26.2573,56.7857,46.1168,4.3941,2025-06-12T14:14:47.174137
14857,-0.6910,-0.2723,-0.0854,-67.655,-21.700,-372.470,0.01,29.6540,56.7857,49.0418,4.3941,2025-06-12T14:14:47.174137
14858,-0.7598,-0.0952,0.0224,-65.415,-35.875,-408.205,0.01,22.8498,56.7857,51.9617,4.3941,2025-06-12T14:14:47.174137
14859,-0.8369,-0.1215,0.1132,-59.395,-44.695,-441.910,0.00,26.2573,51.8904,63.5916,4.3941,2025-06-12T14:14:47.175133
14860,-0.9936,-0.1981,0.3016,-48.055,-51.275,-465.955,0.01,19.4317,46.9713,63.5916,4.3941,2025-06-12T14:14:47.175133
14861,-1.3503,-0.2333,0.7779,-28.595,-33.950,-484.435,0.01,22.8498,56.7857,73.7022,4.3941,2025-06-12T14:14:47.175133
14862,-1.7378,-0.2874,1.0048,-16.100,-6.580,-498.820,0.00,19.4317,56.7857,75.1416,4.3941,2025-06-12T14:14:47.175133
14863,-2.1155,-0.1415,1.1893,13.020,12.565,-508.270,0.00,19.4317,56.7857,85.1823,3.3647,2025-06-12T14:14:47.175133
14864,-2.5054,0.0429,1.3474,43.575,29.820,-503.860,0.01,19.4317,51.8904,88.0399,4.3941,2025-06-12T14:14:47.289472
14865,-2.8045,0.1493,1.5543,58.065,49.560,-472.605,0.01,26.2573,56.7857,85.1823,4.3941,2025-06-12T14:14:47.289472
14866,-3.0988,0.2201,1.6982,75.495,75.810,-420.140,0.01,26.2573,56.7857,86.6117,4.3941,2025-06-12T14:14:47.289472
14867,-3.6976,0.4685,1.8022,82.215,90.440,-336.140,0.00,26.2573,56.7857,89.4668,4.3941,2025-06-12T14:14:47.289472
14868,-4.0226,0.9189,1.8217,72.520,73.640,-267.855,0.01,29.6540,46.9713,88.0399,3.3647,2025-06-12T14:14:47.289472
14869,-4.2095,1.4381,1.8290,57.715,13.475,-189.315,0.00,19.4317,42.0284,88.0399,4.3941,2025-06-12T14:14:47.289472
14870,-4.3588,1.6938,1.8568,39.585,-71.715,-119.595,0.00,22.8498,46.9713,90.8924,3.3647,2025-06-12T14:14:47.290468
14871,-4.4720,1.8900,1.9481,20.125,-184.240,-31.570,0.00,22.8498,46.9713,89.4668,4.3941,2025-06-12T14:14:47.387503
14872,-4.0480,2.1394,1.9510,1.435,-266.105,53.865,0.00,26.2573,51.8904,100.8371,4.3941,2025-06-12T14:14:47.387503
14873,-3.8742,2.3551,1.8607,-25.340,-343.245,120.295,0.01,26.2573,61.6572,106.4923,4.3941,2025-06-12T14:14:47.387503
14874,-3.3550,2.5425,1.5411,-46.655,-406.385,196.000,0.00,29.6540,61.6572,107.9030,4.3941,2025-06-12T14:14:47.387503
14875,-3.2920,2.8187,1.4674,-62.475,-462.525,257.950,0.01,22.8498,61.6572,112.1275,4.3941,2025-06-12T14:14:47.387503
14876,-3.1086,3.3018,1.0121,-72.940,-530.425,320.460,0.01,19.4317,61.6572,106.4923,4.3941,2025-06-12T14:14:47.387503
14877,-2.8343,4.0719,0.0947,-55.335,-566.580,363.615,0.01,22.8498,61.6572,103.6672,4.3941,2025-06-12T14:14:47.387503
14878,-2.5166,4.4462,-0.9374,-28.210,-558.145,389.900,0.01,29.6540,61.6572,110.7206,5.4240,2025-06-12T14:14:47.387503
14879,-1.9901,4.3739,-2.0969,9.835,-509.845,426.475,0.01,26.2573,61.6572,102.2527,4.3941,2025-06-12T14:14:47.387503
14880,-2.4732,4.2246,-2.1940,12.110,-419.265,433.930,0.01,26.2573,56.7857,98.0020,4.3941,2025-06-12T14:14:47.387503
14881,-2.9797,4.0323,-1.8300,-13.615,-375.760,411.110,0.01,22.8498,56.7857,92.3168,4.3941,2025-06-12T14:14:47.471840
14882,-3.5077,2.4781,-2.0091,-69.545,-373.205,300.020,0.00,26.2573,66.5049,89.4668,4.3941,2025-06-12T14:14:47.471840
14883,-4.5565,-0.5919,-2.0930,-137.830,-366.835,104.615,0.00,26.2573,61.6572,78.0166,5.4240,2025-06-12T14:14:47.471840
14884,0.5173,-15.9888,-1.5406,-482.195,-264.950,1.645,0.01,56.4416,32.0711,375.3490,3.3647,2025-06-12T14:14:47.567923
14885,-5.9878,-15.8356,2.0262,-528.465,86.940,325.500,0.00,46.4766,66.5049,78.0166,4.3941,2025-06-12T14:14:47.567923
14886,4.4515,4.1880,1.6470,54.075,-113.540,-130.305,0.01,36.4152,51.8904,83.7517,3.3647,2025-06-12T14:14:47.567923
14887,0.8111,-2.9719,-1.8656,653.940,-194.040,-219.100,0.01,43.1335,71.3288,103.6672,5.4240,2025-06-12T14:14:47.567923
14888,3.5112,4.3930,-0.2786,-196.455,-45.360,-315.490,0.00,43.1335,61.6572,80.8867,4.3941,2025-06-12T14:14:47.567923
14889,-0.4153,-0.1313,1.4855,94.045,505.050,-192.080,0.00,26.2573,46.9713,78.0166,4.3941,2025-06-12T14:14:47.567923
14890,-3.2462,-0.4368,0.9062,-224.245,483.910,106.995,0.00,26.2573,56.7857,80.8867,4.3941,2025-06-12T14:14:47.567923
14891,-2.5552,-0.2054,1.4181,64.505,49.560,-96.670,0.00,29.6540,61.6572,80.8867,4.3941,2025-06-12T14:14:47.567923
14892,-1.2839,0.2708,1.4498,221.760,1.505,-32.340,0.00,26.2573,56.7857,76.5797,3.3647,2025-06-12T14:14:47.567923
14893,-0.6661,0.3977,1.2912,218.435,-10.640,-36.015,0.01,29.6540,61.6572,67.9322,4.3941,2025-06-12T14:14:47.567923
14894,-0.6549,0.7022,1.2278,56.280,111.965,61.005,0.01,26.2573,56.7857,66.4866,3.3647,2025-06-12T14:14:47.668463
14895,-0.8491,0.5646,1.4010,62.615,93.450,92.330,0.01,29.6540,61.6572,65.0397,4.3941,2025-06-12T14:14:47.668463
14896,-0.5402,0.5378,1.4869,111.440,35.910,98.560,0.00,29.6540,56.7857,63.5916,4.3941,2025-06-12T14:14:47.668463
14897,-0.1942,0.5251,1.4986,203.945,3.920,105.910,0.00,29.6540,61.6572,65.0397,4.3941,2025-06-12T14:14:47.668463
14898,-0.0483,0.6237,1.4801,212.695,18.620,115.010,0.00,29.6540,51.8904,60.6916,3.3647,2025-06-12T14:14:47.668463
14899,0.2133,0.6549,1.4391,199.360,48.300,125.020,0.00,26.2573,51.8904,54.8767,3.3647,2025-06-12T14:14:47.668463
14900,0.2704,0.6495,1.2742,214.375,75.635,129.990,0.00,22.8498,51.8904,50.5024,4.3941,2025-06-12T14:14:47.669498
14901,-0.0332,0.6666,1.1614,224.945,76.055,133.525,0.01,22.8498,56.7857,51.9617,5.4240,2025-06-12T14:14:47.777529
14902,0.0678,0.6793,1.1102,229.845,64.085,133.070,0.00,22.8498,61.6572,46.1168,4.3941,2025-06-12T14:14:47.777529
14903,0.1030,0.6788,1.0697,227.115,47.705,132.650,0.00,26.2573,61.6572,46.1168,4.3941,2025-06-12T14:14:47.777529
14904,0.1332,0.6754,1.0282,229.915,31.780,131.180,0.01,22.8498,61.6572,47.5799,4.3941,2025-06-12T14:14:47.777529
14905,0.1444,0.6778,0.9623,228.095,13.475,127.015,0.01,22.8498,61.6572,40.2520,4.3941,2025-06-12T14:14:47.777529
14906,0.1674,0.6476,0.8511,221.340,2.205,122.080,0.01,22.8498,61.6572,41.7201,4.3941,2025-06-12T14:14:47.777529
14907,0.1898,0.6329,0.8003,215.215,-7.875,115.500,0.00,19.4317,61.6572,38.7827,3.3647,2025-06-12T14:14:47.777529
14908,0.2303,0.6110,0.7344,208.565,-9.905,105.665,0.01,22.8498,56.7857,38.7827,5.4240,2025-06-12T14:14:47.875331
14909,0.2323,0.5866,0.6393,196.455,-6.650,96.740,0.01,22.8498,61.6572,43.1869,4.3941,2025-06-12T14:14:47.875331
14910,0.2918,0.5866,0.6022,186.095,-2.905,86.520,0.01,22.8498,61.6572,40.2520,4.3941,2025-06-12T14:14:47.875331
14911,0.3367,0.5910,0.5754,175.245,4.165,78.330,0.00,22.8498,61.6572,38.7827,4.3941,2025-06-12T14:14:47.876320
14912,0.3353,0.5890,0.5119,159.600,16.730,67.480,0.00,22.8498,66.5049,43.1869,4.3941,2025-06-12T14:14:47.876320
14913,0.3601,0.5963,0.4402,146.055,29.120,57.155,0.00,19.4317,61.6572,38.7827,4.3941,2025-06-12T14:14:47.876320
14914,0.3582,0.5832,0.3997,127.120,45.570,47.180,0.00,19.4317,61.6572,40.2520,3.3647,2025-06-12T14:14:47.876320
14915,0.3045,0.5705,0.3235,111.475,57.330,36.540,0.00,22.8498,61.6572,38.7827,4.3941,2025-06-12T14:14:47.876320
14916,0.2865,0.5758,0.2816,91.105,68.495,28.140,0.00,19.4317,61.6572,43.1869,4.3941,2025-06-12T14:14:47.975051
14917,0.2499,0.5671,0.2855,75.110,78.085,15.715,0.01,19.4317,61.6572,37.3121,4.3941,2025-06-12T14:14:47.975051
14918,0.2128,0.5529,0.2767,54.145,82.880,6.860,0.01,22.8498,61.6572,34.3672,4.3941,2025-06-12T14:14:47.975051
14919,0.1152,0.5397,0.3026,37.030,80.990,-4.585,0.00,22.8498,66.5049,38.7827,3.3647,2025-06-12T14:14:47.975051
14920,0.0468,0.5144,0.3338,25.550,71.260,-15.190,0.01,22.8498,66.5049,40.2520,4.3941,2025-06-12T14:14:47.975051
14921,0.0098,0.5017,0.3470,15.190,55.230,-27.895,0.00,22.8498,66.5049,34.3672,4.3941,2025-06-12T14:14:47.975051
14922,0.0449,0.5129,0.3577,6.685,46.690,-41.895,0.00,22.8498,66.5049,34.3672,4.3941,2025-06-12T14:14:47.975051
14923,0.0781,0.5470,0.3806,-3.150,46.445,-55.090,0.00,19.4317,66.5049,32.8929,4.3941,2025-06-12T14:14:48.104700
14924,0.1044,0.5939,0.4207,-13.020,58.135,-71.610,0.01,19.4317,66.5049,32.8929,4.3941,2025-06-12T14:14:48.104700
14925,0.0844,0.6154,0.4446,-24.045,78.470,-85.540,0.01,22.8498,61.6572,34.3672,4.3941,2025-06-12T14:14:48.104700
14926,-0.0137,0.6349,0.4812,-29.295,95.900,-101.395,0.01,19.4317,66.5049,35.8403,4.3941,2025-06-12T14:14:48.104700
14927,-0.1083,0.6583,0.5754,-34.615,101.710,-112.105,0.00,22.8498,61.6572,37.3121,4.3941,2025-06-12T14:14:48.104700
14928,-0.2342,0.6886,0.6188,-34.300,96.600,-120.610,0.00,22.8498,61.6572,37.3121,4.3941,2025-06-12T14:14:48.104700
14929,-0.2928,0.7237,0.6656,-31.220,89.950,-125.440,0.00,19.4317,61.6572,35.8403,4.3941,2025-06-12T14:14:48.104700
14930,-0.3523,0.7613,0.6495,-29.470,89.215,-127.365,0.00,19.4317,66.5049,38.7827,3.3647,2025-06-12T14:14:48.104700
14931,-0.4163,0.8408,0.7096,-27.965,94.500,-128.065,0.00,22.8498,61.6572,38.7827,4.3941,2025-06-12T14:14:48.104700
14932,-0.5466,0.8960,0.7808,-22.050,96.005,-126.140,0.01,26.2573,61.6572,38.7827,5.4240,2025-06-12T14:14:48.152930
14933,-0.6793,0.9726,0.7915,-12.460,85.120,-120.015,0.00,22.8498,61.6572,41.7201,4.3941,2025-06-12T14:14:48.152930
14934,-0.7325,1.0756,0.7964,-0.840,72.520,-112.805,0.01,22.8498,56.7857,46.1168,3.3647,2025-06-12T14:14:48.152930
14935,-0.7017,1.1292,0.7969,9.450,64.505,-99.645,0.00,22.8498,61.6572,40.2520,4.3941,2025-06-12T14:14:48.152930
14936,-0.6412,1.1751,0.8233,13.650,65.415,-80.535,0.00,22.8498,61.6572,40.2520,3.3647,2025-06-12T14:14:48.198120
14937,-0.5456,1.1483,0.9453,17.745,71.330,-60.025,0.00,19.4317,56.7857,44.6525,4.3941,2025-06-12T14:14:48.198120
14938,-0.6144,1.0829,1.0194,20.825,73.920,-35.070,0.00,22.8498,61.6572,40.2520,4.3941,2025-06-12T14:14:48.198120
14939,-0.7364,1.1893,0.8764,18.270,62.300,-20.615,0.00,22.8498,61.6572,37.3121,4.3941,2025-06-12T14:14:48.283022
14940,-0.7061,1.2132,0.8730,16.975,39.270,0.385,0.00,26.2573,61.6572,38.7827,4.3941,2025-06-12T14:14:48.283022
14941,-0.7071,1.1741,0.7632,12.005,22.575,21.560,0.00,22.8498,56.7857,41.7201,4.3941,2025-06-12T14:14:48.283022
14942,-0.6788,1.1370,0.7388,9.205,3.325,35.910,0.01,26.2573,61.6572,35.8403,4.3941,2025-06-12T14:14:48.283022
14943,-0.6573,1.0663,0.6681,6.475,-12.845,50.785,0.01,26.2573,56.7857,35.8403,4.3941,2025-06-12T14:14:48.283022
14944,-0.6295,0.9960,0.5817,3.850,-23.310,59.745,0.00,26.2573,61.6572,38.7827,3.3647,2025-06-12T14:14:48.283978
14945,-0.5793,0.9145,0.5222,1.260,-31.885,67.165,0.01,26.2573,61.6572,38.7827,4.3941,2025-06-12T14:14:48.386532
14946,-0.5422,0.8535,0.4743,0.840,-35.840,71.085,0.00,22.8498,61.6572,35.8403,4.3941,2025-06-12T14:14:48.386532
14947,-0.4885,0.8091,0.4368,0.315,-34.335,72.905,0.01,22.8498,61.6572,38.7827,3.3647,2025-06-12T14:14:48.387535
14948,-0.4524,0.7462,0.3870,-0.210,-29.680,71.820,0.00,22.8498,56.7857,38.7827,3.3647,2025-06-12T14:14:48.387535
14949,-0.4226,0.6959,0.3558,-0.350,-23.170,68.985,0.01,22.8498,56.7857,38.7827,3.3647,2025-06-12T14:14:48.387535
14950,-0.4006,0.6486,0.3231,-0.805,-18.060,64.015,0.00,22.8498,56.7857,41.7201,4.3941,2025-06-12T14:14:48.387535
14951,-0.3972,0.6159,0.2918,-1.890,-12.845,58.415,0.00,22.8498,56.7857,40.2520,3.3647,2025-06-12T14:14:48.387535
14952,-0.3977,0.5768,0.2747,-2.765,-9.765,49.910,0.01,26.2573,56.7857,37.3121,4.3941,2025-06-12T14:14:48.387535
14953,-0.3733,0.5529,0.2503,-4.620,-6.545,41.860,0.01,22.8498,56.7857,37.3121,4.3941,2025-06-12T14:14:48.487666
14954,-0.3845,0.5207,0.2269,-6.825,-3.990,31.850,0.01,19.4317,56.7857,34.3672,4.3941,2025-06-12T14:14:48.487666
14955,-0.3626,0.5144,0.2230,-9.800,-2.625,22.575,0.00,22.8498,56.7857,37.3121,4.3941,2025-06-12T14:14:48.487666
14956,-0.3533,0.5104,0.2108,-12.215,-0.490,11.200,0.00,26.2573,56.7857,38.7827,4.3941,2025-06-12T14:14:48.487666
14957,-0.3509,0.5017,0.1796,-16.170,2.590,1.715,0.00,26.2573,56.7857,37.3121,4.3941,2025-06-12T14:14:48.487666
14958,-0.3484,0.4978,0.1825,-19.495,11.620,-10.220,0.01,22.8498,56.7857,37.3121,4.3941,2025-06-12T14:14:48.487666
14959,-0.3416,0.5168,0.2133,-21.525,21.875,-21.350,0.00,22.8498,56.7857,35.8403,3.3647,2025-06-12T14:14:48.487666
14960,-0.3928,0.5241,0.2352,-22.645,33.425,-29.645,0.00,22.8498,56.7857,34.3672,4.3941,2025-06-12T14:14:48.589995
14961,-0.4773,0.5402,0.2489,-22.050,37.870,-38.325,0.00,22.8498,56.7857,31.4173,3.3647,2025-06-12T14:14:48.589995
14962,-0.5475,0.5592,0.2611,-20.685,37.695,-44.660,0.00,22.8498,56.7857,34.3672,4.3941,2025-06-12T14:14:48.589995
14963,-0.6056,0.5998,0.2869,-18.865,35.280,-51.660,0.01,22.8498,56.7857,34.3672,4.3941,2025-06-12T14:14:48.589995
14964,-0.6290,0.6344,0.3138,-15.470,32.655,-57.400,0.01,22.8498,56.7857,31.4173,4.3941,2025-06-12T14:14:48.589995
14965,-0.6476,0.6564,0.3240,-11.200,31.290,-60.690,0.01,22.8498,51.8904,34.3672,3.3647,2025-06-12T14:14:48.590995
14966,-0.6486,0.6827,0.3470,-7.280,34.160,-63.000,0.00,22.8498,61.6572,43.1869,3.3647,2025-06-12T14:14:48.591070
14967,-0.6427,0.7042,0.3806,-2.240,41.265,-63.385,0.01,22.8498,56.7857,32.8929,4.3941,2025-06-12T14:14:48.731039
14968,-0.6554,0.7359,0.4114,4.550,49.945,-62.020,0.00,26.2573,56.7857,35.8403,4.3941,2025-06-12T14:14:48.731039
14969,-0.7022,0.7745,0.4431,11.480,54.425,-59.780,0.01,26.2573,56.7857,26.9831,4.3941,2025-06-12T14:14:48.731039
14970,-0.7359,0.8247,0.4919,21.700,52.640,-57.715,0.00,26.2573,56.7857,29.9405,4.3941,2025-06-12T14:14:48.731039
14971,-0.7627,0.8501,0.4900,29.715,40.075,-54.950,0.00,26.2573,56.7857,28.4624,3.3647,2025-06-12T14:14:48.731039
14972,-0.7720,0.8613,0.4651,39.795,22.470,-52.360,0.00,26.2573,61.6572,35.8403,4.3941,2025-06-12T14:14:48.731039
14973,-0.7613,0.8594,0.4363,53.305,1.225,-48.020,0.00,22.8498,51.8904,32.8929,3.3647,2025-06-12T14:14:48.731039
14974,-0.7135,0.8638,0.4133,48.545,-12.075,-44.695,0.00,22.8498,56.7857,29.9405,4.3941,2025-06-12T14:14:48.731597
14975,-0.6622,0.8520,0.4041,50.715,-21.735,-40.880,0.01,26.2573,61.6572,34.3672,4.3941,2025-06-12T14:14:48.928043
14976,-0.6364,0.8364,0.4060,51.660,-25.900,-36.820,0.00,22.8498,56.7857,34.3672,3.3647,2025-06-12T14:14:48.928043
14977,-0.6285,0.8203,0.4114,53.445,-29.610,-33.390,0.01,22.8498,61.6572,29.9405,4.3941,2025-06-12T14:14:48.928043
14978,-0.6456,0.8101,0.4119,55.055,-34.825,-29.540,0.00,22.8498,61.6572,29.9405,4.3941,2025-06-12T14:14:48.928043
14979,-0.6622,0.7881,0.4494,58.275,-42.000,-26.320,0.01,22.8498,56.7857,31.4173,4.3941,2025-06-12T14:14:48.928043
14980,-0.6920,0.7745,0.4407,61.425,-56.000,-23.695,0.00,22.8498,56.7857,29.9405,4.3941,2025-06-12T14:14:48.928980
14981,-0.7232,0.7515,0.3938,63.350,-71.295,-21.770,0.00,22.8498,56.7857,34.3672,4.3941,2025-06-12T14:14:48.928980
14982,-0.7149,0.7442,0.3548,64.050,-88.725,-20.930,0.00,22.8498,56.7857,34.3672,3.3647,2025-06-12T14:14:48.928980
14983,-0.6978,0.7359,0.3245,63.315,-99.750,-21.105,0.00,22.8498,56.7857,31.4173,4.3941,2025-06-12T14:14:48.928980
14984,-0.6827,0.7310,0.2840,61.775,-109.095,-22.330,0.01,22.8498,56.7857,32.8929,4.3941,2025-06-12T14:14:48.928980
14985,-0.6852,0.7315,0.2752,59.920,-114.660,-24.850,0.01,26.2573,56.7857,32.8929,3.3647,2025-06-12T14:14:48.928980
14986,-0.6822,0.7271,0.2762,56.945,-117.110,-28.210,0.00,22.8498,61.6572,35.8403,3.3647,2025-06-12T14:14:48.928980
14987,-0.6891,0.7188,0.2762,54.425,-118.755,-32.480,0.00,22.8498,56.7857,34.3672,4.3941,2025-06-12T14:14:48.928980
14988,-0.7227,0.7056,0.2655,52.465,-120.575,-37.240,0.00,22.8498,61.6572,32.8929,3.3647,2025-06-12T14:14:48.928980
14989,-0.7574,0.7013,0.2625,50.435,-123.690,-41.335,0.01,22.8498,61.6572,37.3121,4.3941,2025-06-12T14:14:48.928980
14990,-0.7740,0.6969,0.2660,49.105,-126.805,-46.025,0.00,26.2573,56.7857,35.8403,4.3941,2025-06-12T14:14:48.928980
14991,-0.7881,0.6944,0.2723,47.740,-129.570,-50.190,0.01,26.2573,56.7857,32.8929,4.3941,2025-06-12T14:14:49.260133
14992,-0.7818,0.6783,0.2733,46.410,-131.040,-54.950,0.01,26.2573,61.6572,35.8403,3.3647,2025-06-12T14:14:49.636277
14993,-0.7603,0.6647,0.2860,45.675,-130.655,-59.570,0.00,26.2573,61.6572,35.8403,4.3941,2025-06-12T14:14:49.959981
14994,-0.7354,0.6544,0.3011,44.765,-127.365,-63.560,0.00,26.2573,61.6572,32.8929,3.3647,2025-06-12T14:14:50.370004
14995,-0.6895,0.6446,0.2952,43.575,-120.610,-67.655,0.00,26.2573,61.6572,37.3121,4.3941,2025-06-12T14:14:50.572237
14996,-0.6432,0.6329,0.3148,43.400,-113.050,-70.700,0.00,22.8498,66.5049,37.3121,4.3941,2025-06-12T14:14:50.907624
14997,-0.6202,0.6354,0.3309,42.805,-102.795,-74.375,0.00,26.2573,61.6572,29.9405,3.3647,2025-06-12T14:14:51.175336
14998,-0.6037,0.6383,0.3396,42.350,-93.835,-77.385,0.00,26.2573,56.7857,29.9405,3.3647,2025-06-12T14:14:51.606147
14999,-0.6217,0.6407,0.3528,42.420,-86.835,-80.675,0.00,22.8498,61.6572,29.9405,3.3647,2025-06-12T14:14:51.967182
15000,-0.6163,0.6368,0.3616,43.610,-83.125,-83.160,0.00,26.2573,56.7857,28.4624,4.3941,2025-06-12T14:14:52.324914
15001,-0.6149,0.6339,0.3875,46.130,-80.465,-85.050,0.00,22.8498,56.7857,31.4173,4.3941,2025-06-12T14:14:52.649792
15002,-0.6134,0.6227,0.3958,48.615,-79.800,-87.115,0.01,22.8498,61.6572,29.9405,3.3647,2025-06-12T14:14:52.928701
15003,-0.6046,0.6105,0.4036,51.975,-79.380,-88.480,0.01,26.2573,56.7857,29.9405,4.3941,2025-06-12T14:14:53.296633
15004,-0.5856,0.5871,0.4046,54.950,-78.645,-89.390,0.00,26.2573,61.6572,29.9405,4.3941,2025-06-12T14:14:53.640303
15005,-0.5656,0.5783,0.3963,58.030,-77.280,-89.600,0.00,26.2573,61.6572,29.9405,4.3941,2025-06-12T14:14:53.935189
15006,-0.5470,0.5685,0.3821,60.865,-75.670,-89.215,0.01,29.6540,61.6572,31.4173,4.3941,2025-06-12T14:14:54.240865
15007,-0.5383,0.5714,0.3650,61.985,-74.515,-88.585,0.00,26.2573,56.7857,28.4624,4.3941,2025-06-12T14:14:54.488084
15008,-0.5383,0.5871,0.3470,62.160,-73.360,-88.690,0.00,26.2573,56.7857,32.8929,3.3647,2025-06-12T14:14:54.780427
15009,-0.5534,0.6100,0.3406,61.320,-72.520,-89.390,0.01,26.2573,61.6572,32.8929,3.3647,2025-06-12T14:14:55.091762
15010,-0.5754,0.6251,0.3401,60.235,-72.485,-90.125,0.00,22.8498,56.7857,29.9405,4.3941,2025-06-12T14:14:55.432527
15011,-0.6061,0.6324,0.3499,58.170,-72.135,-91.980,0.00,26.2573,61.6572,32.8929,4.3941,2025-06-12T14:14:55.693922
15012,-0.6251,0.6198,0.3650,57.225,-70.350,-93.520,0.01,26.2573,56.7857,31.4173,3.3647,2025-06-12T14:14:55.991925
15013,-0.6564,0.5968,0.3889,56.280,-68.460,-94.045,0.01,26.2573,56.7857,35.8403,4.3941,2025-06-12T14:14:56.294231
15014,-0.6939,0.5817,0.4075,55.860,-66.990,-93.940,0.01,22.8498,61.6572,35.8403,4.3941,2025-06-12T14:14:56.573037
15015,-0.7174,0.5797,0.4290,56.070,-67.200,-93.730,0.00,26.2573,61.6572,31.4173,4.3941,2025-06-12T14:14:56.805176
15016,-0.7271,0.5793,0.4329,55.475,-67.480,-93.520,0.00,22.8498,56.7857,29.9405,4.3941,2025-06-12T14:14:57.076547
15017,-0.7218,0.5919,0.4626,55.195,-66.850,-94.115,0.00,26.2573,61.6572,31.4173,4.3941,2025-06-12T14:14:57.323717
15018,-0.6856,0.6012,0.4817,53.095,-64.260,-94.325,0.00,22.8498,56.7857,32.8929,4.3941,2025-06-12T14:14:57.520396
15019,-0.6769,0.5919,0.4900,51.765,-59.780,-92.960,0.01,22.8498,61.6572,32.8929,4.3941,2025-06-12T14:14:57.812109
15020,-0.5983,0.6037,0.5412,46.270,-52.605,-91.420,0.01,26.2573,66.5049,34.3672,4.3941,2025-06-12T14:14:58.143671
15021,-0.5680,0.6212,0.5944,42.385,-41.825,-89.460,0.00,26.2573,56.7857,32.8929,4.3941,2025-06-12T14:14:58.396364
15022,-0.5339,0.6295,0.6373,38.535,-29.225,-85.575,0.00,22.8498,61.6572,34.3672,4.3941,2025-06-12T14:14:58.709742
15023,-0.5334,0.6310,0.6656,36.330,-23.905,-81.200,0.00,22.8498,61.6572,26.9831,3.3647,2025-06-12T14:14:59.044499
15024,-0.5915,0.6671,0.6969,33.915,-25.340,-75.145,0.00,22.8498,61.6572,28.4624,3.3647,2025-06-12T14:14:59.253568
15025,-0.6085,0.6847,0.7569,33.390,-31.605,-69.930,0.00,29.6540,61.6572,29.9405,3.3647,2025-06-12T14:14:59.547085
15026,-0.6686,0.6905,0.7569,34.440,-42.490,-63.875,0.00,26.2573,61.6572,25.5025,4.3941,2025-06-12T14:14:59.767825
15027,-0.6720,0.6891,0.7266,36.365,-50.190,-57.820,0.00,22.8498,61.6572,32.8929,4.3941,2025-06-12T14:15:00.095262
15028,-0.6242,0.6852,0.7437,41.580,-51.660,-51.905,0.00,26.2573,61.6572,29.9405,4.3941,2025-06-12T14:15:00.420839
15029,-0.6461,0.6759,0.6954,43.785,-45.430,-44.135,0.01,22.8498,61.6572,32.8929,4.3941,2025-06-12T14:15:00.725274
15030,-0.6856,0.6588,0.6378,45.010,-41.615,-38.080,0.01,22.8498,61.6572,29.9405,3.3647,2025-06-12T14:15:01.044238
15031,-0.6895,0.6349,0.6066,45.395,-40.355,-30.555,0.00,22.8498,61.6572,29.9405,4.3941,2025-06-12T14:15:01.394008
15032,-0.6754,0.6071,0.5846,44.730,-39.865,-23.905,0.00,22.8498,61.6572,29.9405,3.3647,2025-06-12T14:15:01.783724
15033,-0.6417,0.5817,0.5470,43.225,-38.955,-19.740,0.01,22.8498,61.6572,29.9405,4.3941,2025-06-12T14:15:02.080770
15034,-0.6090,0.5592,0.5300,41.475,-36.925,-15.610,0.00,22.8498,56.7857,29.9405,4.3941,2025-06-12T14:15:02.353172
15035,-0.5705,0.5480,0.5456,38.605,-32.725,-13.685,0.00,22.8498,56.7857,32.8929,3.3647,2025-06-12T14:15:02.714497
15036,-0.5285,0.5295,0.5534,27.300,-26.215,-12.180,0.01,22.8498,61.6572,29.9405,4.3941,2025-06-12T14:15:03.007578
15037,-0.5261,0.5022,0.5388,33.565,-21.665,-11.795,0.00,22.8498,61.6572,28.4624,3.3647,2025-06-12T14:15:03.384636
15038,-0.5163,0.4831,0.5280,31.045,-18.130,-11.935,0.00,26.2573,66.5049,28.4624,4.3941,2025-06-12T14:15:03.682024
15039,-0.5085,0.4841,0.5534,29.120,-14.595,-13.125,0.00,26.2573,61.6572,25.5025,3.3647,2025-06-12T14:15:03.973818
15040,-0.5046,0.4821,0.5602,26.530,-9.135,-14.350,0.00,26.2573,61.6572,28.4624,3.3647,2025-06-12T14:15:04.201470
15041,-0.5100,0.4836,0.5578,24.675,-3.850,-15.260,0.01,26.2573,61.6572,32.8929,4.3941,2025-06-12T14:15:04.543542
