SeqNum,AccX,AccY,AccZ,GyroX,GyroY,GyroZ,Flex,Force1,Force2,Force3,Force4,TimestampReception
16706,-0.5178,0.0669,0.8725,0.140,-4.550,-0.350,482,444,299,410,385,2025-05-24T00:08:17.030332
16707,-0.8028,0.3182,0.5378,-50.120,-29.680,-23.520,478,424,264,398,377,2025-05-24T00:08:17.030450
16708,-0.7764,0.3245,0.5383,-48.300,-31.570,-23.100,409,409,282,362,382,2025-05-24T00:08:17.030474
16709,-0.7427,0.3182,0.5329,-46.830,-30.590,-22.610,362,408,338,341,390,2025-05-24T00:08:17.030491
16710,-0.6788,0.3284,0.5427,-48.090,-20.440,-23.660,392,383,365,373,406,2025-05-24T00:08:17.030503
16711,-0.6749,0.3314,0.5675,-51.170,-6.580,-23.100,424,395,359,380,413,2025-05-24T00:08:17.030521
16712,-0.7218,0.2826,0.5949,-56.140,17.850,-22.960,343,417,376,406,404,2025-05-24T00:08:17.030533
16713,-0.7379,0.2577,0.5978,-59.290,5.600,-25.340,379,422,391,413,400,2025-05-24T00:08:17.030542
16714,-0.7413,0.2552,0.6007,-60.480,8.540,-23.380,422,407,375,392,361,2025-05-24T00:08:17.030552
16715,-0.7081,0.2430,0.6056,-61.880,10.150,-19.880,418,429,382,407,380,2025-05-24T00:08:17.030565
16716,-0.6773,0.2523,0.6085,-65.240,22.820,-17.080,394,421,375,386,393,2025-05-24T00:08:17.030574
16717,-0.6642,0.2372,0.6115,-68.950,35.700,-14.630,402,408,334,387,401,2025-05-24T00:08:17.030583
16718,-0.6500,0.2445,0.6168,-72.100,49.980,-10.570,398,422,332,409,410,2025-05-24T00:08:17.030592
16719,-0.6720,0.1996,0.6178,-76.720,62.510,-8.960,421,421,360,369,392,2025-05-24T00:08:17.030602
16720,-0.7081,0.1762,0.5900,-89.460,75.600,-13.020,409,433,374,362,388,2025-05-24T00:08:17.030611
16721,-0.7813,0.1581,0.5714,-86.660,83.790,-9.730,405,393,375,382,401,2025-05-24T00:08:17.030655
16722,-0.8286,0.1059,0.5549,-87.500,79.310,-8.470,401,416,381,407,407,2025-05-24T00:08:17.030665
16723,-0.8633,0.1171,0.5588,-79.800,73.850,-8.610,412,409,380,375,406,2025-05-24T00:08:17.030674
16724,-0.9267,0.0922,0.5592,-62.720,64.890,-9.870,427,343,379,387,394,2025-05-24T00:08:17.089306
16725,-0.9492,0.1386,0.5348,-38.290,52.570,-8.400,408,336,388,410,361,2025-05-24T00:08:17.089332
16726,-0.9443,0.1415,0.5241,-16.170,42.910,-9.940,413,377,385,399,396,2025-05-24T00:08:17.089348
16727,-0.9179,0.1952,0.5109,-11.690,25.830,-10.080,420,396,390,416,395,2025-05-24T00:08:17.089352
16728,-0.8662,0.1835,0.4856,-19.040,17.990,-12.670,388,344,392,396,396,2025-05-24T00:08:17.089357
16729,-0.8511,0.2020,0.4758,-23.520,15.470,-14.910,395,415,391,391,403,2025-05-24T00:08:17.247540
16730,-0.8535,0.1957,0.4763,-19.390,13.370,-14.490,396,419,382,394,409,2025-05-24T00:08:17.247593
16731,-0.8740,0.1718,0.4929,-14.560,13.090,-15.400,383,409,374,412,374,2025-05-24T00:08:17.247639
16732,-0.9121,0.1352,0.5134,-11.200,9.100,-15.400,408,427,378,406,391,2025-05-24T00:08:17.247650
16733,-0.9179,0.1127,0.5334,-8.610,2.100,-14.840,427,430,388,406,405,2025-05-24T00:08:17.247661
16734,-0.9374,0.1005,0.5441,-4.970,-4.130,-13.090,417,431,372,418,398,2025-05-24T00:08:17.247669
16735,-0.9179,0.0956,0.5466,-0.140,-9.520,-11.690,416,408,369,421,386,2025-05-24T00:08:17.247679
16736,-0.8989,0.1000,0.5383,-1.050,-12.180,-11.690,407,388,385,401,376,2025-05-24T00:08:17.247686
16737,-0.8818,0.0634,0.5070,0.630,-11.270,-12.880,375,391,343,401,397,2025-05-24T00:08:17.247693
16738,-0.8447,0.0947,0.5178,3.290,-6.020,-10.500,422,348,336,410,394,2025-05-24T00:08:17.247700
16739,-0.8672,0.0815,0.5065,1.540,-1.120,-7.840,417,383,349,425,405,2025-05-24T00:08:17.247707
16740,-0.8735,0.0761,0.5041,0.490,1.470,-6.160,410,416,378,421,414,2025-05-24T00:08:17.247717
16741,-0.8818,0.0859,0.4900,2.800,4.690,-6.230,428,398,346,410,394,2025-05-24T00:08:17.247723
16742,-0.9257,0.0742,0.4817,4.550,-1.260,-6.510,384,397,358,400,404,2025-05-24T00:08:17.247730
16743,-0.9477,0.0698,0.4699,7.140,-10.640,-7.280,374,427,375,407,404,2025-05-24T00:08:17.297255
16744,-0.9335,0.0756,0.4563,10.360,-18.620,-9.170,403,348,339,411,384,2025-05-24T00:08:17.297299
16745,-0.8823,0.0971,0.4592,10.360,-22.260,-8.610,421,329,349,404,388,2025-05-24T00:08:17.297309
16746,-0.8564,0.1020,0.4612,10.780,-21.000,-7.630,408,389,361,394,350,2025-05-24T00:08:17.297319
16747,-0.8252,0.1200,0.4748,9.940,-14.000,-6.440,412,298,365,388,334,2025-05-24T00:08:17.516797
16748,-0.8067,0.1405,0.4890,6.720,-8.400,-4.480,370,377,380,400,385,2025-05-24T00:08:17.516850
16749,-0.8145,0.1288,0.4953,3.710,-2.310,-4.900,332,355,369,349,390,2025-05-24T00:08:17.516865
16750,-0.7940,0.1357,0.5090,1.960,1.540,-7.280,415,403,378,381,392,2025-05-24T00:08:17.516877
16751,-0.8189,0.1332,0.5075,3.780,6.790,-7.280,353,424,390,398,385,2025-05-24T00:08:17.516888
16752,-0.8164,0.1176,0.4997,0.980,10.990,-8.260,391,401,380,346,348,2025-05-24T00:08:17.516898
16753,-0.8418,0.1269,0.5022,-1.820,7.910,-9.380,409,419,384,401,381,2025-05-24T00:08:17.516909
16754,-0.8618,0.1000,0.5022,-1.470,0.490,-10.500,403,420,376,413,400,2025-05-24T00:08:17.516937
16755,-0.8603,0.1020,0.5017,2.030,-3.290,-11.970,402,411,384,410,373,2025-05-24T00:08:17.516948
16756,-0.8511,0.0859,0.4982,8.330,-4.900,-13.580,387,409,372,405,395,2025-05-24T00:08:17.516958
16757,-0.8379,0.1078,0.5070,9.660,-7.420,-12.110,411,399,372,405,404,2025-05-24T00:08:17.516969
16758,-0.8042,0.1122,0.5026,6.230,-1.400,-10.150,418,378,382,395,400,2025-05-24T00:08:17.641126
16759,-0.7930,0.1308,0.5129,0.560,7.210,-6.930,374,389,384,350,415,2025-05-24T00:08:17.641171
16760,-0.7945,0.1127,0.5026,-1.750,19.180,-4.900,412,408,388,402,421,2025-05-24T00:08:17.641182
16761,-0.8242,0.1049,0.5007,-4.410,28.210,-5.110,421,421,396,395,414,2025-05-24T00:08:17.641204
16762,-0.8677,0.0947,0.4997,-7.630,27.230,-6.720,425,415,376,394,408,2025-05-24T00:08:17.641214
16763,-0.8867,0.0761,0.4821,-7.210,21.910,-9.030,424,415,380,354,403,2025-05-24T00:08:17.641224
16764,-0.8940,0.0776,0.4758,-2.730,20.510,-9.870,427,422,387,377,396,2025-05-24T00:08:17.641239
16765,-0.8735,0.0908,0.4758,4.200,20.230,-8.190,425,408,391,378,398,2025-05-24T00:08:17.641251
16766,-0.8784,0.0859,0.4670,8.260,22.680,-6.090,390,347,350,384,397,2025-05-24T00:08:17.641262
16767,-0.8916,0.0917,0.4763,11.340,23.730,-4.970,412,390,360,407,405,2025-05-24T00:08:17.641274
16768,-0.9004,0.1044,0.4870,12.810,22.680,-3.850,419,419,360,355,395,2025-05-24T00:08:17.641284
16769,-0.8930,0.0947,0.4826,15.680,22.750,-3.990,420,399,364,358,354,2025-05-24T00:08:17.641292
16770,-0.9023,0.1069,0.4768,18.270,21.980,-7.140,418,403,377,390,344,2025-05-24T00:08:17.641300
16771,-0.9174,0.1015,0.4665,18.900,17.150,-8.820,409,397,338,410,338,2025-05-24T00:08:17.641310
16772,-0.9204,0.1098,0.4412,19.530,13.790,-8.890,415,396,360,407,366,2025-05-24T00:08:17.641344
16773,-0.8862,0.1303,0.4275,18.900,16.030,-8.330,432,422,376,419,394,2025-05-24T00:08:17.641353
16774,-0.8882,0.1352,0.4104,15.470,22.680,-8.120,424,383,385,422,411,2025-05-24T00:08:17.641361
16775,-0.9004,0.1308,0.4119,12.040,25.970,-10.220,419,395,385,418,418,2025-05-24T00:08:17.878132
16776,-0.9130,0.1186,0.4280,5.040,23.940,-12.250,407,398,392,366,412,2025-05-24T00:08:17.878182
16777,-0.9282,0.0986,0.4290,1.960,23.870,-12.250,409,404,359,400,423,2025-05-24T00:08:17.878196
16778,-0.9560,0.0791,0.4250,2.100,18.970,-13.510,419,412,333,420,411,2025-05-24T00:08:17.878206
16779,-0.9633,0.0742,0.4138,7.560,13.090,-12.320,405,348,362,316,396,2025-05-24T00:08:17.878217
16780,-0.9360,0.0820,0.4163,13.510,8.820,-11.410,376,387,365,379,410,2025-05-24T00:08:17.878228
16781,-0.9116,0.0922,0.4094,18.270,7.910,-8.540,409,416,346,343,409,2025-05-24T00:08:17.878239
16782,-0.8657,0.1122,0.4085,20.300,12.810,-7.210,390,422,361,333,389,2025-05-24T00:08:17.878266
16783,-0.8823,0.1230,0.4124,17.500,19.740,-7.700,423,404,379,380,393,2025-05-24T00:08:17.878280
16784,-0.9111,0.0952,0.4177,12.600,21.280,-9.310,396,413,342,403,403,2025-05-24T00:08:17.878290
16785,-0.9599,0.0752,0.4197,9.310,14.560,-11.550,403,406,357,404,409,2025-05-24T00:08:17.878306
16786,-0.9804,0.0547,0.4089,10.080,7.910,-12.110,389,414,378,398,356,2025-05-24T00:08:17.878316
16787,-0.9848,0.0425,0.3860,12.950,0.910,-13.090,393,394,386,417,385,2025-05-24T00:08:17.878325
16788,-0.9784,0.0561,0.3670,18.690,-2.380,-14.000,416,430,396,407,401,2025-05-24T00:08:17.878335
16789,-0.9653,0.0737,0.3558,20.440,-7.350,-12.250,418,393,388,366,417,2025-05-24T00:08:17.878348
16790,-0.9233,0.0825,0.3470,21.280,-8.260,-12.110,421,426,392,401,414,2025-05-24T00:08:17.878389
16791,-0.9121,0.0971,0.3562,18.760,-5.880,-12.180,403,421,385,412,412,2025-05-24T00:08:17.882802
16792,-0.8823,0.0956,0.3567,14.000,-0.770,-10.990,362,357,376,378,416,2025-05-24T00:08:18.060814
16793,-0.9282,0.0683,0.3562,7.840,-0.840,-10.360,408,405,340,412,403,2025-05-24T00:08:18.060908
16794,-0.9277,0.0410,0.3518,8.050,-3.710,-10.500,402,401,362,373,401,2025-05-24T00:08:18.060927
16795,-0.9252,0.0181,0.3606,10.780,-2.940,-9.310,339,412,374,405,390,2025-05-24T00:08:18.060943
16796,-0.9414,0.0005,0.3836,15.050,-1.960,-7.700,354,422,392,400,411,2025-05-24T00:08:18.060962
16797,-0.9316,0.0083,0.3904,20.930,-1.960,-5.180,327,385,382,404,404,2025-05-24T00:08:18.060977
16798,-0.9209,0.0239,0.4026,27.650,-1.050,-3.500,331,424,380,355,407,2025-05-24T00:08:18.060991
16799,-0.9048,0.0390,0.4026,30.450,-1.750,-3.500,388,428,388,388,367,2025-05-24T00:08:18.061009
16800,-0.8852,0.0654,0.4133,33.250,-1.120,-4.200,392,416,385,381,373,2025-05-24T00:08:18.061023
16801,-0.8813,0.0693,0.4094,35.490,-3.080,-4.760,394,427,377,405,401,2025-05-24T00:08:18.061035
16802,-0.8974,0.0761,0.3889,38.010,-5.740,-6.160,402,415,385,410,417,2025-05-24T00:08:18.061048
16803,-0.9091,0.0776,0.3684,40.600,-9.380,-8.260,424,416,311,396,319,2025-05-24T00:08:18.061062
16804,-0.8950,0.0830,0.3562,42.210,-11.970,-10.080,399,397,333,392,363,2025-05-24T00:08:18.061081
16805,-0.9082,0.0864,0.3572,43.750,-11.550,-11.270,389,338,352,365,390,2025-05-24T00:08:18.061095
16806,-0.9145,0.0952,0.3675,45.080,-14.000,-12.600,412,414,366,343,401,2025-05-24T00:08:18.061107
16807,-0.8994,0.0942,0.3689,43.540,-10.360,-12.460,404,414,342,396,409,2025-05-24T00:08:18.061160
16808,-0.9082,0.0976,0.3631,42.560,-6.580,-10.780,422,363,364,415,396,2025-05-24T00:08:18.061174
16809,0.0000,0.0000,0.0000,0.000,0.000,-9.940,424,398,381,396,353,2025-05-24T00:08:18.061185
16810,-0.9643,0.1122,0.3475,38.360,-6.440,-10.710,399,400,389,377,368,2025-05-24T00:08:18.061197
16811,-0.8965,0.1493,0.3445,28.140,-5.670,-11.410,371,411,388,393,375,2025-05-24T00:08:18.107228
16812,0.0000,0.0000,0.0000,0.000,0.000,0.000,404,427,373,389,402,2025-05-24T00:08:18.107428
16813,0.0000,0.0000,0.0000,0.000,0.000,0.000,401,428,386,406,410,2025-05-24T00:08:18.107444
16814,0.0000,0.0000,0.0000,0.000,0.000,0.000,396,430,378,310,401,2025-05-24T00:08:18.107454
16815,0.0000,0.0000,0.0000,0.000,0.000,0.000,392,400,350,383,409,2025-05-24T00:08:18.107467
16816,0.0000,0.0000,0.0000,0.000,0.000,0.000,396,421,364,391,412,2025-05-24T00:08:18.255135
16817,0.0000,0.0000,0.0000,0.000,0.000,0.000,405,395,375,399,353,2025-05-24T00:08:18.255209
16818,0.0000,0.0000,0.0000,0.000,0.000,0.000,399,390,382,409,395,2025-05-24T00:08:18.255228
16819,0.0000,0.0000,0.0000,0.000,0.000,0.000,408,408,382,347,381,2025-05-24T00:08:18.255240
16820,0.0000,0.0000,0.0000,0.000,0.000,0.000,391,421,373,385,389,2025-05-24T00:08:18.255251
16821,0.0000,0.0000,0.0000,0.000,0.000,0.000,412,418,373,392,358,2025-05-24T00:08:18.255263
16822,0.0000,0.0000,0.0000,0.000,0.000,0.000,397,404,382,417,376,2025-05-24T00:08:18.255273
16823,0.0000,0.0000,0.0000,0.000,0.000,0.000,396,415,382,405,385,2025-05-24T00:08:18.255284
16824,0.0000,0.0000,0.0000,0.000,0.000,0.000,416,353,389,414,347,2025-05-24T00:08:18.255295
16825,0.0000,0.0000,0.0000,0.000,0.000,0.000,299,396,360,404,388,2025-05-24T00:08:18.255309
16826,0.0000,0.0000,0.0000,0.000,0.000,0.000,320,411,378,404,350,2025-05-24T00:08:18.255321
16827,0.0000,0.0000,0.0000,0.000,0.000,0.000,397,418,392,401,375,2025-05-24T00:08:18.255332
16828,0.0000,0.0000,0.0000,0.000,0.000,0.000,410,417,377,399,388,2025-05-24T00:08:18.255342
16829,0.0000,0.0000,0.0000,0.000,0.000,0.000,416,413,383,408,386,2025-05-24T00:08:18.255352
16830,0.0000,0.0000,0.0000,0.000,0.000,0.000,410,432,383,398,349,2025-05-24T00:08:18.462572
16831,0.0000,0.0000,0.0000,0.000,0.000,0.000,420,438,389,396,368,2025-05-24T00:08:18.462617
16832,0.0000,0.0000,0.0000,0.000,0.000,0.000,431,429,391,406,359,2025-05-24T00:08:18.462644
16833,-0.9589,0.3250,0.3699,98.700,-40.810,54.880,401,426,382,360,334,2025-05-24T00:08:18.462654
16834,-0.8935,0.3309,0.3597,87.850,-26.390,52.150,421,427,376,385,359,2025-05-24T00:08:18.462664
16835,-0.8847,0.3567,0.3548,80.220,-7.770,52.220,397,421,340,351,384,2025-05-24T00:08:18.462677
16836,-0.9033,0.3367,0.3548,71.540,4.900,50.960,406,425,373,373,402,2025-05-24T00:08:18.462685
16837,-0.9867,0.3055,0.4148,67.690,7.210,41.300,421,431,370,386,415,2025-05-24T00:08:18.462695
16838,-1.0551,0.3426,0.4211,68.600,-11.340,35.070,416,411,369,404,425,2025-05-24T00:08:18.462703
16839,-1.0097,0.3802,0.4128,67.340,-33.180,32.480,406,424,374,406,407,2025-05-24T00:08:18.462718
16840,-0.9414,0.3704,0.4207,66.430,-42.700,29.890,410,424,340,416,419,2025-05-24T00:08:18.462727
16841,-0.8901,0.3982,0.4241,65.590,-47.250,28.000,418,380,365,414,409,2025-05-24T00:08:18.462735
16842,-0.8520,0.4168,0.4226,66.080,-48.440,28.910,422,341,366,413,401,2025-05-24T00:08:18.462743
16843,-0.8028,0.4499,0.4465,65.100,-46.060,32.830,403,380,374,404,409,2025-05-24T00:08:18.462751
16844,-0.7701,0.4499,0.4392,61.530,-35.210,35.910,398,393,383,409,415,2025-05-24T00:08:18.462788
16845,-0.8389,0.4026,0.4148,59.010,-30.730,33.390,409,419,373,384,400,2025-05-24T00:08:18.462797
16846,-0.8706,0.4006,0.4280,57.820,-37.100,29.750,356,361,382,391,407,2025-05-24T00:08:18.462808
16847,-0.8794,0.4294,0.4138,54.600,-53.620,24.710,395,333,390,401,416,2025-05-24T00:08:18.462816
16848,-0.8242,0.4646,0.4441,53.060,-65.590,16.870,361,375,381,409,405,2025-05-24T00:08:18.513203
16849,-0.7823,0.4924,0.4070,45.010,-63.910,12.670,406,415,372,372,355,2025-05-24T00:08:18.513261
16850,-0.7652,0.5412,0.4168,34.440,-64.820,10.080,386,346,383,402,360,2025-05-24T00:08:18.513272
16851,-0.7257,0.5070,0.3845,25.900,-58.730,9.030,416,408,382,405,336,2025-05-24T00:08:18.513281
16852,-0.7349,0.5466,0.3924,29.260,-43.260,17.500,413,411,343,391,359,2025-05-24T00:08:18.688089
16853,-0.7788,0.4621,0.4168,23.170,-32.200,23.100,398,409,364,360,351,2025-05-24T00:08:18.688152
16854,-0.7618,0.4426,0.4172,21.630,-31.150,24.080,419,396,376,345,384,2025-05-24T00:08:18.688165
16855,-0.7696,0.4734,0.4207,24.850,-19.740,24.850,425,405,382,389,393,2025-05-24T00:08:18.688180
16856,-0.7544,0.4934,0.4329,23.940,-13.510,22.890,395,417,381,401,387,2025-05-24T00:08:18.688195
16857,-0.7784,0.5075,0.4451,24.570,-10.640,19.390,384,426,390,420,409,2025-05-24T00:08:18.688205
16858,-0.7803,0.5153,0.4602,0.000,0.000,0.000,392,385,391,401,401,2025-05-24T00:08:18.688215
16859,0.0000,0.0000,0.0000,0.000,0.000,0.000,398,373,376,376,352,2025-05-24T00:08:18.688224
16860,0.0000,0.0000,0.0000,0.000,0.000,0.000,396,389,385,391,368,2025-05-24T00:08:18.688244
16861,0.0000,0.0000,0.0000,0.000,0.000,0.000,376,382,381,386,399,2025-05-24T00:08:18.688253
16862,0.0000,0.0000,0.0000,0.000,0.000,0.000,382,423,375,405,354,2025-05-24T00:08:18.688262
16863,0.0000,0.0000,0.0000,0.000,0.000,0.000,403,401,367,399,372,2025-05-24T00:08:18.688271
16864,0.0000,0.0000,0.0000,0.000,0.000,0.000,413,395,381,407,373,2025-05-24T00:08:18.688279
16865,0.0000,0.0000,0.0000,0.000,0.000,0.000,417,396,389,392,406,2025-05-24T00:08:18.688287
16866,0.0000,0.0000,0.0000,0.000,0.000,0.000,419,398,389,408,414,2025-05-24T00:08:18.688295
16867,0.0000,0.0000,0.0000,0.000,0.000,0.000,405,414,392,400,416,2025-05-24T00:08:18.688339
16868,0.0000,0.0000,0.0000,0.000,0.000,0.000,380,425,392,415,415,2025-05-24T00:08:18.874735
16869,0.0000,0.0000,0.0000,0.000,0.000,0.000,336,303,382,370,412,2025-05-24T00:08:18.874809
16870,0.0000,0.0000,0.0000,0.000,0.000,0.000,336,276,352,361,410,2025-05-24T00:08:18.874824
16871,0.0000,0.0000,0.0000,0.000,0.000,0.000,342,369,365,370,394,2025-05-24T00:08:18.874837
16872,0.0000,0.0000,0.0000,0.000,0.000,0.000,331,408,378,395,389,2025-05-24T00:08:18.874849
16873,0.0000,0.0000,0.0000,0.000,0.000,0.000,377,402,387,405,394,2025-05-24T00:08:18.874860
16874,0.0000,0.0000,0.0000,0.000,0.000,0.000,338,394,387,393,400,2025-05-24T00:08:18.874876
16875,0.0000,0.0000,0.0000,0.000,0.000,0.000,398,402,348,356,405,2025-05-24T00:08:18.874891
16876,0.0000,0.0000,0.0000,0.000,0.000,0.000,420,409,365,402,417,2025-05-24T00:08:18.874901
16877,0.0000,0.0000,0.0000,0.000,0.000,0.000,392,431,371,410,404,2025-05-24T00:08:18.875371
16878,0.0000,0.0000,0.0000,0.000,0.000,0.000,410,433,369,407,410,2025-05-24T00:08:18.875386
16879,0.0000,0.0000,0.0000,0.000,0.000,0.000,425,422,382,409,411,2025-05-24T00:08:18.875402
16880,0.0000,0.0000,0.0000,0.000,0.000,0.000,399,430,351,504,494,2025-05-24T00:08:18.875412
16881,0.0000,0.0000,0.0000,0.000,0.000,0.000,421,405,370,500,494,2025-05-24T00:08:18.875427
16882,0.0000,0.0000,0.0000,0.000,0.000,0.000,431,347,490,489,479,2025-05-24T00:08:18.875436
16883,0.0000,0.0000,0.0000,0.000,0.000,0.000,404,415,484,490,481,2025-05-24T00:08:18.875484
16884,0.0000,0.0000,0.0000,0.000,0.000,0.000,409,398,489,491,471,2025-05-24T00:08:18.875494
16885,0.0000,0.0000,0.0000,0.000,0.000,0.000,410,361,480,487,475,2025-05-24T00:08:18.875503
16886,0.0000,0.0000,0.0000,0.000,0.000,0.000,421,409,493,491,475,2025-05-24T00:08:19.270438
16887,0.0000,0.0000,0.0000,0.000,0.000,0.000,400,356,492,494,486,2025-05-24T00:08:19.270490
16888,0.0000,0.0000,0.0000,0.000,0.000,0.000,398,419,489,484,469,2025-05-24T00:08:19.270504
16889,0.0000,0.0000,0.0000,0.000,0.000,0.000,392,485,485,489,479,2025-05-24T00:08:19.270517
16890,0.0000,0.0000,0.0000,0.000,0.000,0.000,418,493,489,488,473,2025-05-24T00:08:19.270527
16891,0.0000,0.0000,0.0000,0.000,0.000,0.000,420,499,499,501,492,2025-05-24T00:08:19.270538
16892,0.0000,0.0000,0.0000,0.000,0.000,0.000,425,489,485,482,470,2025-05-24T00:08:19.270549
16893,0.0000,0.0000,0.0000,0.000,0.000,0.000,433,500,504,502,489,2025-05-24T00:08:19.270559
16894,0.0000,0.0000,0.0000,0.000,0.000,0.000,413,478,479,478,463,2025-05-24T00:08:19.270569
16895,0.0000,0.0000,0.0000,0.000,0.000,0.000,393,498,497,493,470,2025-05-24T00:08:19.270578
16896,0.0000,0.0000,0.0000,0.000,0.000,0.000,398,465,466,468,456,2025-05-24T00:08:19.270588
16897,0.0000,0.0000,0.0000,0.000,0.000,0.000,412,491,485,479,458,2025-05-24T00:08:19.270597
16898,0.0000,0.0000,0.0000,0.000,0.000,0.000,414,469,470,471,461,2025-05-24T00:08:19.270606
16899,0.0000,0.0000,0.0000,0.000,0.000,0.000,405,484,476,466,445,2025-05-24T00:08:19.270615
16900,0.0000,0.0000,0.0000,0.000,0.000,0.000,417,478,479,481,468,2025-05-24T00:08:19.270624
16901,0.0000,0.0000,0.0000,0.000,0.000,0.000,392,476,463,458,443,2025-05-24T00:08:19.270674
16902,0.0000,0.0000,0.0000,0.000,0.000,0.000,414,493,493,493,483,2025-05-24T00:08:19.270684
16903,0.0000,0.0000,0.0000,0.000,0.000,0.000,340,465,456,449,430,2025-05-24T00:08:19.270710
16904,0.0000,0.0000,0.0000,0.000,0.000,0.000,418,531,532,536,518,2025-05-24T00:08:19.321443
16905,0.0000,0.0000,0.0000,0.000,0.000,0.000,424,470,458,461,450,2025-05-24T00:08:19.321494
16906,0.0000,0.0000,0.0000,0.000,0.000,0.000,437,557,546,528,510,2025-05-24T00:08:19.481839
16907,0.0000,0.0000,0.0000,0.000,0.000,0.000,396,476,473,472,467,2025-05-24T00:08:19.481874
16908,0.0000,0.0000,0.0000,0.000,0.000,0.000,401,556,543,535,508,2025-05-24T00:08:19.481887
16909,0.0000,0.0000,0.0000,0.000,0.000,0.000,359,502,503,508,497,2025-05-24T00:08:19.481900
16910,0.0000,0.0000,0.0000,0.000,0.000,0.000,381,561,540,526,500,2025-05-24T00:08:19.481922
16911,0.0000,0.0000,0.0000,0.000,0.000,0.000,390,521,518,525,520,2025-05-24T00:08:19.481933
16912,0.0000,0.0000,0.0000,0.000,0.000,0.000,412,546,527,509,488,2025-05-24T00:08:19.481942
16913,0.0000,0.0000,0.0000,0.000,0.000,0.000,415,552,557,561,547,2025-05-24T00:08:19.481954
16914,0.0000,0.0000,0.0000,0.000,0.000,0.000,413,528,515,511,494,2025-05-24T00:08:19.481962
16915,0.0000,0.0000,0.0000,0.000,0.000,0.000,408,575,571,574,568,2025-05-24T00:08:19.481971
16916,0.0000,0.0000,0.0000,0.000,0.000,0.000,380,524,512,500,490,2025-05-24T00:08:19.481980
16917,0.0000,0.0000,0.0000,0.000,0.000,0.000,399,594,593,587,564,2025-05-24T00:08:19.481989
16918,0.0000,0.0000,0.0000,0.000,0.000,0.000,387,521,516,513,506,2025-05-24T00:08:19.481998
16919,0.0000,0.0000,0.0000,0.000,0.000,0.000,409,605,589,579,558,2025-05-24T00:08:19.482067
16920,0.0000,0.0000,0.0000,0.000,0.000,0.000,415,531,529,530,525,2025-05-24T00:08:19.482079
16921,0.0000,0.0000,0.0000,0.000,0.000,0.000,420,604,585,571,548,2025-05-24T00:08:19.482087
16922,0.0000,0.0000,0.0000,0.000,0.000,0.000,398,548,545,549,545,2025-05-24T00:08:19.482094
16923,0.0000,0.0000,0.0000,0.000,0.000,0.000,417,593,577,560,534,2025-05-24T00:08:19.482101
16924,0.0000,0.0000,0.0000,0.000,0.000,0.000,424,574,572,577,570,2025-05-24T00:08:19.482109
16925,0.0000,0.0000,0.0000,0.000,0.000,0.000,426,582,558,546,530,2025-05-24T00:08:19.482116
16926,0.0000,0.0000,0.0000,0.000,0.000,0.000,427,599,598,598,590,2025-05-24T00:08:19.482123
16927,0.0000,0.0000,0.0000,0.000,0.000,0.000,406,565,554,544,525,2025-05-24T00:08:19.482132
16928,0.0000,0.0000,0.0000,0.000,0.000,0.000,407,617,615,615,599,2025-05-24T00:08:19.482139
16929,0.0000,0.0000,0.0000,0.000,0.000,0.000,394,556,541,541,534,2025-05-24T00:08:19.482146
16930,0.0000,0.0000,0.0000,0.000,0.000,0.000,351,634,622,610,590,2025-05-24T00:08:19.482154
16931,0.0000,0.0000,0.0000,0.000,0.000,0.000,407,562,558,559,551,2025-05-24T00:08:19.497891
16932,0.0000,0.0000,0.0000,0.000,0.000,0.000,404,631,615,604,579,2025-05-24T00:08:19.497958
16933,0.0000,0.0000,0.0000,0.000,0.000,0.000,414,582,579,583,572,2025-05-24T00:08:19.497976
16934,0.0000,0.0000,0.0000,0.000,0.000,0.000,418,622,603,590,565,2025-05-24T00:08:19.497992
16935,0.0000,0.0000,0.0000,0.000,0.000,0.000,405,600,597,598,592,2025-05-24T00:08:19.498029
16936,0.0000,0.0000,0.0000,0.000,0.000,0.000,430,613,593,577,555,2025-05-24T00:08:19.498042
16937,0.0000,0.0000,0.0000,0.000,0.000,0.000,411,620,610,616,605,2025-05-24T00:08:19.498056
16938,0.0000,0.0000,0.0000,0.000,0.000,0.000,391,596,578,573,553,2025-05-24T00:08:19.498069
16939,0.0000,0.0000,0.0000,0.000,0.000,0.000,428,638,630,633,624,2025-05-24T00:08:19.498081
16940,0.0000,0.0000,0.0000,0.000,0.000,0.000,425,592,578,569,555,2025-05-24T00:08:19.498093
16941,0.0000,0.0000,0.0000,0.000,0.000,0.000,421,651,645,641,618,2025-05-24T00:08:19.498105
16942,0.0000,0.0000,0.0000,0.000,0.000,0.000,426,585,575,576,568,2025-05-24T00:08:19.498124
16943,0.0000,0.0000,0.0000,0.000,0.000,0.000,421,659,641,632,608,2025-05-24T00:08:19.693354
16944,0.0000,0.0000,0.0000,0.000,0.000,0.000,386,600,591,594,587,2025-05-24T00:08:19.693403
16945,0.0000,0.0000,0.0000,0.000,0.000,0.000,390,647,625,610,586,2025-05-24T00:08:19.693418
16946,0.0000,0.0000,0.0000,0.000,0.000,0.000,340,613,609,610,604,2025-05-24T00:08:19.693443
16947,0.0000,0.0000,0.0000,0.000,0.000,0.000,395,631,612,595,570,2025-05-24T00:08:19.693453
16948,0.0000,0.0000,0.0000,0.000,0.000,0.000,407,628,624,631,621,2025-05-24T00:08:19.693463
16949,0.0000,0.0000,0.0000,0.000,0.000,0.000,415,619,598,586,569,2025-05-24T00:08:19.693475
16950,0.0000,0.0000,0.0000,0.000,0.000,0.000,429,650,644,642,634,2025-05-24T00:08:19.693484
16951,0.0000,0.0000,0.0000,0.000,0.000,0.000,350,608,592,585,568,2025-05-24T00:08:19.693492
16952,0.0000,0.0000,0.0000,0.000,0.000,0.000,341,664,660,655,635,2025-05-24T00:08:19.693500
16953,0.0000,0.0000,0.0000,0.000,0.000,0.000,394,607,594,593,583,2025-05-24T00:08:19.693510
16954,0.0000,0.0000,0.0000,0.000,0.000,0.000,425,682,663,648,628,2025-05-24T00:08:19.693520
16955,0.0000,0.0000,0.0000,0.000,0.000,0.000,412,613,607,606,599,2025-05-24T00:08:19.693651
16956,0.0000,0.0000,0.0000,0.000,0.000,0.000,405,675,656,644,620,2025-05-24T00:08:19.693664
16957,0.0000,0.0000,0.0000,0.000,0.000,0.000,420,624,618,617,612,2025-05-24T00:08:19.693672
16958,0.0000,0.0000,0.0000,0.000,0.000,0.000,407,666,645,630,606,2025-05-24T00:08:19.693769
16959,0.0000,0.0000,0.0000,0.000,0.000,0.000,407,642,637,640,634,2025-05-24T00:08:19.693782
16960,0.0000,0.0000,0.0000,0.000,0.000,0.000,424,649,626,611,591,2025-05-24T00:08:19.693790
16961,0.0000,0.0000,0.0000,0.000,0.000,0.000,425,658,656,651,640,2025-05-24T00:08:19.891988
16962,0.0000,0.0000,0.0000,0.000,0.000,0.000,417,630,618,609,591,2025-05-24T00:08:19.892042
16963,0.0000,0.0000,0.0000,0.000,0.000,0.000,423,678,671,671,658,2025-05-24T00:08:19.892075
16964,0.0000,0.0000,0.0000,0.000,0.000,0.000,424,627,612,607,595,2025-05-24T00:08:19.892088
16965,0.0000,0.0000,0.0000,0.000,0.000,0.000,426,692,683,670,645,2025-05-24T00:08:19.892099
16966,0.0000,0.0000,0.0000,0.000,0.000,0.000,418,624,618,620,610,2025-05-24T00:08:19.892250
16967,0.0000,0.0000,0.0000,0.000,0.000,0.000,419,694,674,663,639,2025-05-24T00:08:19.892265
16968,0.0000,0.0000,0.0000,0.000,0.000,0.000,403,638,633,635,624,2025-05-24T00:08:19.892278
16969,0.0000,0.0000,0.0000,0.000,0.000,0.000,380,688,667,653,627,2025-05-24T00:08:19.892292
16970,0.0000,0.0000,0.0000,0.000,0.000,0.000,408,651,647,649,641,2025-05-24T00:08:19.892309
16971,0.0000,0.0000,0.0000,0.000,0.000,0.000,428,674,656,639,614,2025-05-24T00:08:19.892321
16972,0.0000,0.0000,0.0000,0.000,0.000,0.000,426,662,660,664,654,2025-05-24T00:08:19.892332
16973,0.0000,0.0000,0.0000,0.000,0.000,0.000,424,658,637,625,611,2025-05-24T00:08:19.892344
16974,0.0000,0.0000,0.0000,0.000,0.000,0.000,421,682,673,671,664,2025-05-24T00:08:19.892355
16975,0.0000,0.0000,0.0000,0.000,0.000,0.000,425,643,633,622,606,2025-05-24T00:08:19.892366
16976,0.0000,0.0000,0.0000,0.000,0.000,0.000,428,696,689,690,673,2025-05-24T00:08:19.892424
16977,0.0000,0.0000,0.0000,0.000,0.000,0.000,422,643,630,627,617,2025-05-24T00:08:19.892435
16978,0.0000,0.0000,0.0000,0.000,0.000,0.000,407,710,695,681,662,2025-05-24T00:08:19.892447
16979,0.0000,0.0000,0.0000,0.000,0.000,0.000,408,640,634,633,625,2025-05-24T00:08:19.892458
16980,0.0000,0.0000,0.0000,0.000,0.000,0.000,425,696,680,663,639,2025-05-24T00:08:20.124731
16981,0.0000,0.0000,0.0000,0.000,0.000,0.000,410,658,654,657,648,2025-05-24T00:08:20.124783
16982,0.0000,0.0000,0.0000,0.000,0.000,0.000,430,683,659,647,622,2025-05-24T00:08:20.124812
16983,0.0000,0.0000,0.0000,0.000,0.000,0.000,430,669,666,671,660,2025-05-24T00:08:20.124824
16984,0.0000,0.0000,0.0000,0.000,0.000,0.000,415,669,644,632,616,2025-05-24T00:08:20.124834
16985,0.0000,0.0000,0.0000,0.000,0.000,0.000,415,685,683,682,671,2025-05-24T00:08:20.124845
16986,0.0000,0.0000,0.0000,0.000,0.000,0.000,417,649,636,627,609,2025-05-24T00:08:20.124855
16987,0.0000,0.0000,0.0000,0.000,0.000,0.000,391,699,692,693,678,2025-05-24T00:08:20.124864
16988,0.0000,0.0000,0.0000,0.000,0.000,0.000,407,641,626,623,614,2025-05-24T00:08:20.124874
16989,0.0000,0.0000,0.0000,0.000,0.000,0.000,427,708,697,681,658,2025-05-24T00:08:20.124883
16990,0.0000,0.0000,0.0000,0.000,0.000,0.000,384,633,627,626,616,2025-05-24T00:08:20.124892
16991,0.0000,0.0000,0.0000,0.000,0.000,0.000,375,698,679,667,641,2025-05-24T00:08:20.124905
16992,0.0000,0.0000,0.0000,0.000,0.000,0.000,400,641,634,636,625,2025-05-24T00:08:20.124914
16993,0.0000,0.0000,0.0000,0.000,0.000,0.000,407,682,664,650,624,2025-05-24T00:08:20.124923
16994,0.0000,0.0000,0.0000,0.000,0.000,0.000,404,655,650,649,642,2025-05-24T00:08:20.124931
16995,0.0000,0.0000,0.0000,0.000,0.000,0.000,417,675,656,641,617,2025-05-24T00:08:20.124976
16996,0.0000,0.0000,0.0000,0.000,0.000,0.000,409,693,692,696,685,2025-05-24T00:08:20.124985
16997,0.0000,0.0000,0.0000,0.000,0.000,0.000,424,692,668,662,645,2025-05-24T00:08:20.124995
16998,0.0000,0.0000,0.0000,0.000,0.000,0.000,426,724,717,714,700,2025-05-24T00:08:20.316959
16999,0.0000,0.0000,0.0000,0.000,0.000,0.000,394,692,676,666,651,2025-05-24T00:08:20.317021
17000,0.0000,0.0000,0.0000,0.000,0.000,0.000,393,738,727,714,687,2025-05-24T00:08:20.317037
17001,0.0000,0.0000,0.0000,0.000,0.000,0.000,408,672,663,659,645,2025-05-24T00:08:20.317056
17002,0.0000,0.0000,0.0000,0.000,0.000,0.000,421,725,703,692,666,2025-05-24T00:08:20.317068
17003,0.0000,0.0000,0.0000,0.000,0.000,0.000,426,683,672,671,658,2025-05-24T00:08:20.317081
17004,0.0000,0.0000,0.0000,0.000,0.000,0.000,419,718,701,688,668,2025-05-24T00:08:20.317093
17005,0.0000,0.0000,0.0000,0.000,0.000,0.000,425,698,687,683,671,2025-05-24T00:08:20.317126
17006,0.0000,0.0000,0.0000,0.000,0.000,0.000,433,712,688,676,657,2025-05-24T00:08:20.317139
17007,0.0000,0.0000,0.0000,0.000,0.000,0.000,421,714,704,697,684,2025-05-24T00:08:20.317151
17008,0.0000,0.0000,0.0000,0.000,0.000,0.000,416,716,696,687,671,2025-05-24T00:08:20.317163
17009,0.0000,0.0000,0.0000,0.000,0.000,0.000,405,724,712,703,690,2025-05-24T00:08:20.317174
17010,0.0000,0.0000,0.0000,0.000,0.000,0.000,417,712,693,686,670,2025-05-24T00:08:20.317186
17011,0.0000,0.0000,0.0000,0.000,0.000,0.000,414,739,726,720,704,2025-05-24T00:08:20.317197
17012,0.0000,0.0000,0.0000,0.000,0.000,0.000,405,729,713,704,695,2025-05-24T00:08:20.317213
17013,0.0000,0.0000,0.0000,0.000,0.000,0.000,422,750,737,724,702,2025-05-24T00:08:20.317264
17014,0.0000,0.0000,0.0000,0.000,0.000,0.000,353,715,703,696,681,2025-05-24T00:08:20.317276
17015,0.0000,0.0000,0.0000,0.000,0.000,0.000,411,728,709,697,670,2025-05-24T00:08:20.317288
17016,0.0000,0.0000,0.0000,0.000,0.000,0.000,407,691,681,676,662,2025-05-24T00:08:20.317298
17017,0.0000,0.0000,0.0000,0.000,0.000,0.000,421,690,671,661,634,2025-05-24T00:08:20.317313
17018,0.0000,0.0000,0.0000,0.000,0.000,0.000,424,660,650,646,631,2025-05-24T00:08:20.420146
17019,0.0000,0.0000,0.0000,0.000,0.000,0.000,427,646,630,620,603,2025-05-24T00:08:20.420204
17020,0.0000,0.0000,0.0000,0.000,0.000,0.000,417,647,637,631,615,2025-05-24T00:08:20.420239
17021,0.0000,0.0000,0.0000,0.000,0.000,0.000,424,618,604,598,579,2025-05-24T00:08:20.420251
17022,0.0000,0.0000,0.0000,0.000,0.000,0.000,423,637,626,623,609,2025-05-24T00:08:20.420262
17023,0.0000,0.0000,0.0000,0.000,0.000,0.000,424,605,588,577,564,2025-05-24T00:08:20.420273
17024,0.0000,0.0000,0.0000,0.000,0.000,0.000,382,640,631,623,604,2025-05-24T00:08:20.420284
17025,0.0000,0.0000,0.0000,0.000,0.000,0.000,392,594,582,582,568,2025-05-24T00:08:20.420296
17026,0.0000,0.0000,0.0000,0.000,0.000,0.000,398,644,619,610,593,2025-05-24T00:08:20.420306
17027,0.0000,0.0000,0.0000,0.000,0.000,0.000,409,590,583,580,573,2025-05-24T00:08:20.420323
17028,0.0000,0.0000,0.0000,0.000,0.000,0.000,425,627,607,592,565,2025-05-24T00:08:20.509689
17029,0.0000,0.0000,0.0000,0.000,0.000,0.000,399,592,584,586,578,2025-05-24T00:08:20.509730
17030,0.0000,0.0000,0.0000,0.000,0.000,0.000,416,609,588,573,550,2025-05-24T00:08:20.509740
17031,0.0000,0.0000,0.0000,0.000,0.000,0.000,411,602,600,601,592,2025-05-24T00:08:20.509750
17032,0.0000,0.0000,0.0000,0.000,0.000,0.000,427,588,563,555,540,2025-05-24T00:08:20.509758
17033,0.0000,0.0000,0.0000,0.000,0.000,0.000,370,617,608,605,597,2025-05-24T00:08:20.509765
17034,0.0000,0.0000,0.0000,0.000,0.000,0.000,409,578,560,553,537,2025-05-24T00:08:20.509789
17035,0.0000,0.0000,0.0000,0.000,0.000,0.000,403,634,630,628,607,2025-05-24T00:08:20.509796
17036,0.0000,0.0000,0.0000,0.000,0.000,0.000,414,576,559,560,551,2025-05-24T00:08:20.716629
17037,0.0000,0.0000,0.0000,0.000,0.000,0.000,412,645,628,619,598,2025-05-24T00:08:20.716674
17038,0.0000,0.0000,0.0000,0.000,0.000,0.000,375,584,579,580,572,2025-05-24T00:08:20.716686
17039,0.0000,0.0000,0.0000,0.000,0.000,0.000,356,639,619,605,582,2025-05-24T00:08:20.716696
17040,0.0000,0.0000,0.0000,0.000,0.000,0.000,410,590,585,586,578,2025-05-24T00:08:20.716705
17041,0.0000,0.0000,0.0000,0.000,0.000,0.000,433,612,595,576,553,2025-05-24T00:08:20.716730
17042,0.0000,0.0000,0.0000,0.000,0.000,0.000,423,591,584,587,580,2025-05-24T00:08:20.716739
17043,0.0000,0.0000,0.0000,0.000,0.000,0.000,427,594,572,554,537,2025-05-24T00:08:20.716750
17044,0.0000,0.0000,0.0000,0.000,0.000,0.000,397,598,595,594,585,2025-05-24T00:08:20.716759
17045,0.0000,0.0000,0.0000,0.000,0.000,0.000,413,566,553,544,527,2025-05-24T00:08:20.716767
17046,0.0000,0.0000,0.0000,0.000,0.000,0.000,420,605,600,601,586,2025-05-24T00:08:20.716775
17047,0.0000,0.0000,0.0000,0.000,0.000,0.000,424,555,538,535,526,2025-05-24T00:08:20.716784
17048,0.0000,0.0000,0.0000,0.000,0.000,0.000,432,609,601,589,567,2025-05-24T00:08:20.716798
17049,0.0000,0.0000,0.0000,0.000,0.000,0.000,396,543,538,538,529,2025-05-24T00:08:20.716806
17050,0.0000,0.0000,0.0000,0.000,0.000,0.000,397,606,588,577,555,2025-05-24T00:08:20.716813
17051,0.0000,0.0000,0.0000,0.000,0.000,0.000,404,544,540,544,538,2025-05-24T00:08:20.717179
17052,0.0000,0.0000,0.0000,0.000,0.000,0.000,420,592,573,561,538,2025-05-24T00:08:20.717214
17053,0.0000,0.0000,0.0000,0.000,0.000,0.000,403,558,555,556,550,2025-05-24T00:08:20.717229
17054,0.0000,0.0000,0.0000,0.000,0.000,0.000,426,581,561,547,524,2025-05-24T00:08:20.717248
17055,0.0000,0.0000,0.0000,0.000,0.000,0.000,423,573,568,566,552,2025-05-24T00:08:20.943706
17056,0.0000,0.0000,0.0000,0.000,0.000,0.000,419,564,540,527,517,2025-05-24T00:08:21.102520
17057,0.0000,0.0000,0.0000,0.000,0.000,0.000,426,592,585,586,576,2025-05-24T00:08:21.102552
17058,0.0000,0.0000,0.0000,0.000,0.000,0.000,419,559,547,540,525,2025-05-24T00:08:21.102564
17059,0.0000,0.0000,0.0000,0.000,0.000,0.000,425,610,606,603,580,2025-05-24T00:08:21.102574
17060,0.0000,0.0000,0.0000,0.000,0.000,0.000,425,558,549,549,538,2025-05-24T00:08:21.102584
17061,0.0000,0.0000,0.0000,0.000,0.000,0.000,373,625,610,601,581,2025-05-24T00:08:21.102593
17062,0.0000,0.0000,0.0000,0.000,0.000,0.000,372,566,563,564,557,2025-05-24T00:08:21.102603
17063,0.0000,0.0000,0.0000,0.000,0.000,0.000,382,622,605,593,570,2025-05-24T00:08:21.102612
17064,0.0000,0.0000,0.0000,0.000,0.000,0.000,365,583,579,577,567,2025-05-24T00:08:21.102621
17065,0.0000,0.0000,0.0000,0.000,0.000,0.000,387,614,594,585,558,2025-05-24T00:08:21.102630
17066,0.0000,0.0000,0.0000,0.000,0.000,0.000,391,598,593,594,585,2025-05-24T00:08:21.102638
17067,0.0000,0.0000,0.0000,0.000,0.000,0.000,391,603,583,569,552,2025-05-24T00:08:21.102647
17068,0.0000,0.0000,0.0000,0.000,0.000,0.000,415,611,605,607,594,2025-05-24T00:08:21.102655
17069,0.0000,0.0000,0.0000,0.000,0.000,0.000,414,589,572,568,550,2025-05-24T00:08:21.102664
17070,0.0000,0.0000,0.0000,0.000,0.000,0.000,429,627,618,619,609,2025-05-24T00:08:21.102737
17071,0.0000,0.0000,0.0000,0.000,0.000,0.000,431,588,574,566,555,2025-05-24T00:08:21.102748
17072,0.0000,0.0000,0.0000,0.000,0.000,0.000,431,641,633,625,603,2025-05-24T00:08:21.102758
17073,0.0000,0.0000,0.0000,0.000,0.000,0.000,412,582,572,576,565,2025-05-24T00:08:21.102768
17074,0.0000,0.0000,0.0000,0.000,0.000,0.000,423,644,627,618,597,2025-05-24T00:08:21.102777
17075,0.0000,0.0000,0.0000,0.000,0.000,0.000,419,593,587,588,579,2025-05-24T00:08:21.102787
17076,0.0000,0.0000,0.0000,0.000,0.000,0.000,408,639,622,610,587,2025-05-24T00:08:21.102795
17077,0.0000,0.0000,0.0000,0.000,0.000,0.000,415,611,603,599,589,2025-05-24T00:08:21.102804
17078,0.0000,0.0000,0.0000,0.000,0.000,0.000,401,629,610,594,565,2025-05-24T00:08:21.102812
17079,0.0000,0.0000,0.0000,0.000,0.000,0.000,414,621,615,619,608,2025-05-24T00:08:21.102822
17080,0.0000,0.0000,0.0000,0.000,0.000,0.000,424,616,595,589,571,2025-05-24T00:08:21.102831
17081,0.0000,0.0000,0.0000,0.000,0.000,0.000,434,643,633,634,619,2025-05-24T00:08:21.102839
17082,0.0000,0.0000,0.0000,0.000,0.000,0.000,397,607,594,587,570,2025-05-24T00:08:21.102847
17083,0.0000,0.0000,0.0000,0.000,0.000,0.000,427,657,648,647,626,2025-05-24T00:08:21.102856
17084,0.0000,0.0000,0.0000,0.000,0.000,0.000,414,605,593,593,583,2025-05-24T00:08:21.102865
17085,0.0000,0.0000,0.0000,0.000,0.000,0.000,421,666,648,637,616,2025-05-24T00:08:21.120351
17086,0.0000,0.0000,0.0000,0.000,0.000,0.000,394,615,606,605,595,2025-05-24T00:08:21.120400
17087,0.0000,0.0000,0.0000,0.000,0.000,0.000,391,656,636,625,600,2025-05-24T00:08:21.120412
17088,0.0000,0.0000,0.0000,0.000,0.000,0.000,350,625,613,618,609,2025-05-24T00:08:21.120422
17089,0.0000,0.0000,0.0000,0.000,0.000,0.000,399,645,625,610,586,2025-05-24T00:08:21.120432
17090,0.0000,0.0000,0.0000,0.000,0.000,0.000,396,640,631,634,622,2025-05-24T00:08:21.120441
17091,0.0000,0.0000,0.0000,0.000,0.000,0.000,405,634,612,604,588,2025-05-24T00:08:21.120449
17092,0.0000,0.0000,0.0000,0.000,0.000,0.000,407,655,648,642,631,2025-05-24T00:08:21.120458
17093,0.0000,0.0000,0.0000,0.000,0.000,0.000,414,625,608,601,585,2025-05-24T00:08:21.169739
17094,0.0000,0.0000,0.0000,0.000,0.000,0.000,406,670,660,654,635,2025-05-24T00:08:21.169782
17095,0.0000,0.0000,0.0000,0.000,0.000,0.000,391,620,607,607,596,2025-05-24T00:08:21.169795
17096,0.0000,0.0000,0.0000,0.000,0.000,0.000,414,683,662,651,630,2025-05-24T00:08:21.169805
17097,0.0000,0.0000,0.0000,0.000,0.000,0.000,403,626,618,620,608,2025-05-24T00:08:21.220187
17098,0.0000,0.0000,0.0000,0.000,0.000,0.000,426,674,656,642,619,2025-05-24T00:08:21.220253
17099,0.0000,0.0000,0.0000,0.000,0.000,0.000,395,641,634,634,627,2025-05-24T00:08:21.220270
17100,0.0000,0.0000,0.0000,0.000,0.000,0.000,398,665,644,631,606,2025-05-24T00:08:21.220284
17101,0.0000,0.0000,0.0000,0.000,0.000,0.000,405,658,652,652,640,2025-05-24T00:08:21.220296
17102,0.0000,0.0000,0.0000,0.000,0.000,0.000,393,655,632,618,599,2025-05-24T00:08:21.329650
17103,0.0000,0.0000,0.0000,0.000,0.000,0.000,388,669,660,658,650,2025-05-24T00:08:21.329694
17104,0.0000,0.0000,0.0000,0.000,0.000,0.000,424,634,622,615,598,2025-05-24T00:08:21.329704
17105,0.0000,0.0000,0.0000,0.000,0.000,0.000,409,676,668,668,652,2025-05-24T00:08:21.329714
17106,0.0000,0.0000,0.0000,0.000,0.000,0.000,384,628,615,613,600,2025-05-24T00:08:21.329723
17107,0.0000,0.0000,0.0000,0.000,0.000,0.000,354,686,673,662,643,2025-05-24T00:08:21.329731
17108,0.0000,0.0000,0.0000,0.000,0.000,0.000,324,625,620,621,608,2025-05-24T00:08:21.329740
17109,0.0000,0.0000,0.0000,0.000,0.000,0.000,333,679,665,656,626,2025-05-24T00:08:21.329749
17110,0.0000,0.0000,0.0000,0.000,0.000,0.000,392,641,634,635,623,2025-05-24T00:08:21.329756
17111,0.0000,0.0000,0.0000,0.000,0.000,0.000,392,675,651,640,616,2025-05-24T00:08:21.329766
17112,0.0000,0.0000,0.0000,0.000,0.000,0.000,414,653,643,643,632,2025-05-24T00:08:21.565116
17113,0.0000,0.0000,0.0000,0.000,0.000,0.000,411,659,638,622,605,2025-05-24T00:08:21.565162
17114,0.0000,0.0000,0.0000,0.000,0.000,0.000,403,666,656,658,645,2025-05-24T00:08:21.565174
17115,0.0000,0.0000,0.0000,0.000,0.000,0.000,421,646,626,623,605,2025-05-24T00:08:21.565184
17116,0.0000,0.0000,0.0000,0.000,0.000,0.000,404,679,668,669,657,2025-05-24T00:08:21.565193
17117,0.0000,0.0000,0.0000,0.000,0.000,0.000,417,643,627,620,604,2025-05-24T00:08:21.565203
17118,0.0000,0.0000,0.0000,0.000,0.000,0.000,414,692,684,679,657,2025-05-24T00:08:21.565213
17119,0.0000,0.0000,0.0000,0.000,0.000,0.000,428,642,632,627,616,2025-05-24T00:08:21.565222
17120,0.0000,0.0000,0.0000,0.000,0.000,0.000,407,700,680,671,649,2025-05-24T00:08:21.565232
17121,0.0000,0.0000,0.0000,0.000,0.000,0.000,415,646,638,640,625,2025-05-24T00:08:21.565241
17122,0.0000,0.0000,0.0000,0.000,0.000,0.000,418,692,668,655,633,2025-05-24T00:08:21.565249
17123,0.0000,0.0000,0.0000,0.000,0.000,0.000,347,657,648,651,641,2025-05-24T00:08:21.565258
17124,0.0000,0.0000,0.0000,0.000,0.000,0.000,408,678,658,648,623,2025-05-24T00:08:21.565267
17125,0.0000,0.0000,0.0000,0.000,0.000,0.000,405,667,659,660,651,2025-05-24T00:08:21.565275
17126,0.0000,0.0000,0.0000,0.000,0.000,0.000,397,666,643,630,610,2025-05-24T00:08:21.565283
17127,0.0000,0.0000,0.0000,0.000,0.000,0.000,409,675,668,668,650,2025-05-24T00:08:21.565332
17128,0.0000,0.0000,0.0000,0.000,0.000,0.000,419,643,628,624,607,2025-05-24T00:08:21.565342
17129,0.0000,0.0000,0.0000,0.000,0.000,0.000,397,686,676,675,664,2025-05-24T00:08:21.565350
17130,0.0000,0.0000,0.0000,0.000,0.000,0.000,399,645,628,621,611,2025-05-24T00:08:21.565359
17131,0.0000,0.0000,0.0000,0.000,0.000,0.000,399,700,677,670,651,2025-05-24T00:08:21.751247
17132,0.0000,0.0000,0.0000,0.000,0.000,0.000,410,650,642,643,630,2025-05-24T00:08:21.751303
17133,0.0000,0.0000,0.0000,0.000,0.000,0.000,429,696,677,666,641,2025-05-24T00:08:21.751315
17134,0.0000,0.0000,0.0000,0.000,0.000,0.000,429,662,656,652,639,2025-05-24T00:08:21.751326
17135,0.0000,0.0000,0.0000,0.000,0.000,0.000,412,692,668,654,630,2025-05-24T00:08:21.751336
17136,0.0000,0.0000,0.0000,0.000,0.000,0.000,421,678,671,672,664,2025-05-24T00:08:21.751346
17137,0.0000,0.0000,0.0000,0.000,0.000,0.000,436,680,657,645,626,2025-05-24T00:08:21.751355
17138,0.0000,0.0000,0.0000,0.000,0.000,0.000,403,692,686,685,670,2025-05-24T00:08:21.751365
17139,0.0000,0.0000,0.0000,0.000,0.000,0.000,398,663,650,645,626,2025-05-24T00:08:21.751374
17140,0.0000,0.0000,0.0000,0.000,0.000,0.000,429,709,695,694,683,2025-05-24T00:08:21.751382
17141,0.0000,0.0000,0.0000,0.000,0.000,0.000,424,661,649,642,631,2025-05-24T00:08:21.751392
17142,0.0000,0.0000,0.0000,0.000,0.000,0.000,436,720,709,699,678,2025-05-24T00:08:21.751401
17143,0.0000,0.0000,0.0000,0.000,0.000,0.000,422,662,653,654,642,2025-05-24T00:08:21.751410
17144,0.0000,0.0000,0.0000,0.000,0.000,0.000,409,720,698,690,666,2025-05-24T00:08:21.751527
17145,0.0000,0.0000,0.0000,0.000,0.000,0.000,420,671,661,662,647,2025-05-24T00:08:21.751537
17146,0.0000,0.0000,0.0000,0.000,0.000,0.000,417,708,688,675,652,2025-05-24T00:08:21.751578
17147,0.0000,0.0000,0.0000,0.000,0.000,0.000,422,679,669,669,660,2025-05-24T00:08:21.751588
17148,0.0000,0.0000,0.0000,0.000,0.000,0.000,440,688,669,658,634,2025-05-24T00:08:21.751596
17149,0.0000,0.0000,0.0000,0.000,0.000,0.000,431,682,674,673,663,2025-05-24T00:08:21.751605
17150,0.0000,0.0000,0.0000,0.000,0.000,0.000,424,671,651,642,629,2025-05-24T00:08:21.751614
17151,0.0000,0.0000,0.0000,0.000,0.000,0.000,349,697,686,687,676,2025-05-24T00:08:21.838706
17152,0.0000,0.0000,0.0000,0.000,0.000,0.000,386,667,653,646,629,2025-05-24T00:08:21.838755
17153,0.0000,0.0000,0.0000,0.000,0.000,0.000,422,712,702,699,682,2025-05-24T00:08:21.838766
17154,0.0000,0.0000,0.0000,0.000,0.000,0.000,420,667,651,648,639,2025-05-24T00:08:21.838775
17155,0.0000,0.0000,0.0000,0.000,0.000,0.000,397,723,708,695,674,2025-05-24T00:08:21.838785
17156,0.0000,0.0000,0.0000,0.000,0.000,0.000,386,667,659,662,649,2025-05-24T00:08:21.940853
17157,0.0000,0.0000,0.0000,0.000,0.000,0.000,392,713,694,687,663,2025-05-24T00:08:21.940899
17158,0.0000,0.0000,0.0000,0.000,0.000,0.000,378,681,669,670,660,2025-05-24T00:08:21.940911
17159,0.0000,0.0000,0.0000,0.000,0.000,0.000,420,710,688,678,652,2025-05-24T00:08:21.940922
17160,0.0000,0.0000,0.0000,0.000,0.000,0.000,417,692,683,681,672,2025-05-24T00:08:21.940931
17161,0.0000,0.0000,0.0000,0.000,0.000,0.000,380,696,671,662,641,2025-05-24T00:08:21.940940
17162,0.0000,0.0000,0.0000,0.000,0.000,0.000,396,700,693,694,682,2025-05-24T00:08:21.940950
17163,0.0000,0.0000,0.0000,0.000,0.000,0.000,403,684,664,656,639,2025-05-24T00:08:21.940959
17164,0.0000,0.0000,0.0000,0.000,0.000,0.000,392,714,705,705,693,2025-05-24T00:08:21.940968
17165,0.0000,0.0000,0.0000,0.000,0.000,0.000,421,678,658,653,640,2025-05-24T00:08:21.940976
17166,0.0000,0.0000,0.0000,0.000,0.000,0.000,386,725,714,709,688,2025-05-24T00:08:21.940984
17167,0.0000,0.0000,0.0000,0.000,0.000,0.000,405,675,661,663,650,2025-05-24T00:08:21.940993
17168,0.0000,0.0000,0.0000,0.000,0.000,0.000,393,730,709,694,673,2025-05-24T00:08:22.146796
17169,0.0000,0.0000,0.0000,0.000,0.000,0.000,397,679,668,670,659,2025-05-24T00:08:22.146845
17170,0.0000,0.0000,0.0000,0.000,0.000,0.000,421,719,696,685,660,2025-05-24T00:08:22.146859
17171,0.0000,0.0000,0.0000,0.000,0.000,0.000,407,686,679,679,670,2025-05-24T00:08:22.146869
17172,0.0000,0.0000,0.0000,0.000,0.000,0.000,404,704,684,669,645,2025-05-24T00:08:22.146879
17173,0.0000,0.0000,0.0000,0.000,0.000,0.000,398,698,691,693,682,2025-05-24T00:08:22.146889
17174,0.0000,0.0000,0.0000,0.000,0.000,0.000,407,691,667,656,639,2025-05-24T00:08:22.146899
17175,0.0000,0.0000,0.0000,0.000,0.000,0.000,412,707,699,698,685,2025-05-24T00:08:22.146913
17176,0.0000,0.0000,0.0000,0.000,0.000,0.000,343,676,662,655,637,2025-05-24T00:08:22.146922
17177,0.0000,0.0000,0.0000,0.000,0.000,0.000,384,726,715,715,698,2025-05-24T00:08:22.146932
17178,0.0000,0.0000,0.0000,0.000,0.000,0.000,388,675,658,657,646,2025-05-24T00:08:22.146941
17179,0.0000,0.0000,0.0000,0.000,0.000,0.000,410,735,720,706,684,2025-05-24T00:08:22.146950
17180,0.0000,0.0000,0.0000,0.000,0.000,0.000,419,670,663,663,650,2025-05-24T00:08:22.146959
17181,0.0000,0.0000,0.0000,0.000,0.000,0.000,420,719,699,689,661,2025-05-24T00:08:22.146967
17182,0.0000,0.0000,0.0000,0.000,0.000,0.000,429,670,660,663,651,2025-05-24T00:08:22.146976
17183,0.0000,0.0000,0.0000,0.000,0.000,0.000,418,700,677,665,639,2025-05-24T00:08:22.147016
17184,0.0000,0.0000,0.0000,0.000,0.000,0.000,399,671,661,664,650,2025-05-24T00:08:22.147027
17185,0.0000,0.0000,0.0000,0.000,0.000,0.000,394,676,652,635,613,2025-05-24T00:08:22.147036
17186,0.0000,0.0000,0.0000,0.000,0.000,0.000,392,675,666,667,656,2025-05-24T00:08:22.147044
17187,0.0000,0.0000,0.0000,0.000,0.000,0.000,403,647,624,620,603,2025-05-24T00:08:22.376886
17188,0.0000,0.0000,0.0000,0.000,0.000,0.000,397,684,674,675,664,2025-05-24T00:08:22.376933
17189,0.0000,0.0000,0.0000,0.000,0.000,0.000,374,637,619,614,601,2025-05-24T00:08:22.376946
17190,0.0000,0.0000,0.0000,0.000,0.000,0.000,396,690,683,678,654,2025-05-24T00:08:22.376957
17191,0.0000,0.0000,0.0000,0.000,0.000,0.000,424,630,616,616,606,2025-05-24T00:08:22.376967
17192,0.0000,0.0000,0.0000,0.000,0.000,0.000,431,697,674,663,640,2025-05-24T00:08:22.376977
17193,0.0000,0.0000,0.0000,0.000,0.000,0.000,436,635,626,627,618,2025-05-24T00:08:22.376987
17194,0.0000,0.0000,0.0000,0.000,0.000,0.000,420,678,659,645,622,2025-05-24T00:08:22.376997
17195,0.0000,0.0000,0.0000,0.000,0.000,0.000,421,639,631,633,625,2025-05-24T00:08:22.377005
17196,0.0000,0.0000,0.0000,0.000,0.000,0.000,427,661,637,621,597,2025-05-24T00:08:22.377014
17197,0.0000,0.0000,0.0000,0.000,0.000,0.000,433,642,633,638,629,2025-05-24T00:08:22.377023
17198,0.0000,0.0000,0.0000,0.000,0.000,0.000,427,637,610,596,578,2025-05-24T00:08:22.377035
17199,0.0000,0.0000,0.0000,0.000,0.000,0.000,425,646,638,641,632,2025-05-24T00:08:22.377221
17200,0.0000,0.0000,0.0000,0.000,0.000,0.000,421,609,594,588,571,2025-05-24T00:08:22.377234
17201,0.0000,0.0000,0.0000,0.000,0.000,0.000,410,655,645,650,639,2025-05-24T00:08:22.377242
17202,0.0000,0.0000,0.0000,0.000,0.000,0.000,401,601,583,577,567,2025-05-24T00:08:22.377289
17203,0.0000,0.0000,0.0000,0.000,0.000,0.000,407,662,654,646,624,2025-05-24T00:08:22.377300
17204,0.0000,0.0000,0.0000,0.000,0.000,0.000,357,588,579,582,573,2025-05-24T00:08:22.377308
17205,0.0000,0.0000,0.0000,0.000,0.000,0.000,400,661,640,629,605,2025-05-24T00:08:22.377317
17206,0.0000,0.0000,0.0000,0.000,0.000,0.000,388,584,581,583,577,2025-05-24T00:08:22.509913
17207,0.0000,0.0000,0.0000,0.000,0.000,0.000,421,635,615,599,568,2025-05-24T00:08:22.509941
17208,0.0000,0.0000,0.0000,0.000,0.000,0.000,411,589,584,587,581,2025-05-24T00:08:22.510006
17209,0.0000,0.0000,0.0000,0.000,0.000,0.000,407,607,587,569,547,2025-05-24T00:08:22.510049
17210,0.0000,0.0000,0.0000,0.000,0.000,0.000,394,602,597,602,594,2025-05-24T00:08:22.510060
17211,0.0000,0.0000,0.0000,0.000,0.000,0.000,393,586,564,557,540,2025-05-24T00:08:22.510070
17212,0.0000,0.0000,0.0000,0.000,0.000,0.000,384,618,612,617,608,2025-05-24T00:08:22.510080
17213,0.0000,0.0000,0.0000,0.000,0.000,0.000,408,575,558,549,536,2025-05-24T00:08:22.510090
17214,0.0000,0.0000,0.0000,0.000,0.000,0.000,416,638,626,623,601,2025-05-24T00:08:22.558971
17215,0.0000,0.0000,0.0000,0.000,0.000,0.000,421,565,557,561,551,2025-05-24T00:08:22.559024
17216,0.0000,0.0000,0.0000,0.000,0.000,0.000,427,646,625,614,591,2025-05-24T00:08:22.559039
17217,0.0000,0.0000,0.0000,0.000,0.000,0.000,339,584,578,582,576,2025-05-24T00:08:22.559052
17218,0.0000,0.0000,0.0000,0.000,0.000,0.000,404,651,630,617,592,2025-05-24T00:08:22.559063
17219,0.0000,0.0000,0.0000,0.000,0.000,0.000,399,610,605,605,598,2025-05-24T00:08:22.559074
17220,0.0000,0.0000,0.0000,0.000,0.000,0.000,399,626,605,589,563,2025-05-24T00:08:22.559086
17221,0.0000,0.0000,0.0000,0.000,0.000,0.000,419,598,591,594,586,2025-05-24T00:08:22.559100
17222,0.0000,0.0000,0.0000,0.000,0.000,0.000,409,577,550,535,520,2025-05-24T00:08:22.559111
17223,0.0000,0.0000,0.0000,0.000,0.000,0.000,407,577,569,572,564,2025-05-24T00:08:22.559121
17224,0.0000,0.0000,0.0000,0.000,0.000,0.000,399,525,511,505,485,2025-05-24T00:08:22.559131
17225,0.0000,0.0000,0.0000,0.000,0.000,0.000,418,558,553,555,540,2025-05-24T00:08:22.610516
17226,0.0000,0.0000,0.0000,0.000,0.000,0.000,415,489,480,483,476,2025-05-24T00:08:22.610574
17227,0.0000,0.0000,0.0000,0.000,0.000,0.000,415,552,534,525,504,2025-05-24T00:08:22.610589
17228,0.0000,0.0000,0.0000,0.000,0.000,0.000,407,473,468,467,464,2025-05-24T00:08:22.610602
17229,0.0000,0.0000,0.0000,0.000,0.000,0.000,421,516,499,485,463,2025-05-24T00:08:22.610616
17230,0.0000,0.0000,0.0000,0.000,0.000,0.000,391,459,454,459,447,2025-05-24T00:08:22.660105
17231,0.0000,0.0000,0.0000,0.000,0.000,0.000,389,472,454,443,422,2025-05-24T00:08:22.660151
17232,0.0000,0.0000,0.0000,0.000,0.000,0.000,406,445,442,447,441,2025-05-24T00:08:22.660162
17233,0.0000,0.0000,0.0000,0.000,0.000,0.000,423,436,413,405,392,2025-05-24T00:08:22.660368
17234,0.0000,0.0000,0.0000,0.000,0.000,0.000,359,444,439,443,438,2025-05-24T00:08:22.660379
17235,0.0000,0.0000,0.0000,0.000,0.000,0.000,328,401,392,388,374,2025-05-24T00:08:22.759869
17236,0.0000,0.0000,0.0000,0.000,0.000,0.000,371,437,434,436,425,2025-05-24T00:08:22.759915
17237,0.0000,0.0000,0.0000,0.000,0.000,0.000,399,375,363,364,354,2025-05-24T00:08:22.759927
17238,0.0000,0.0000,0.0000,0.000,0.000,0.000,418,424,412,407,390,2025-05-24T00:08:22.759937
17239,0.0000,0.0000,0.0000,0.000,0.000,0.000,415,352,347,353,348,2025-05-24T00:08:22.759946
17240,0.0000,0.0000,0.0000,0.000,0.000,0.000,391,399,388,377,360,2025-05-24T00:08:22.759955
17241,0.0000,0.0000,0.0000,0.000,0.000,0.000,404,342,340,341,340,2025-05-24T00:08:22.759965
17242,0.0000,0.0000,0.0000,0.000,0.000,0.000,398,375,361,353,335,2025-05-24T00:08:22.759974
17243,0.0000,0.0000,0.0000,0.000,0.000,0.000,382,339,339,346,342,2025-05-24T00:08:22.759983
17244,0.0000,0.0000,0.0000,0.000,0.000,0.000,412,345,332,324,302,2025-05-24T00:08:22.970990
17245,0.0000,0.0000,0.0000,0.000,0.000,0.000,402,339,337,345,340,2025-05-24T00:08:22.971042
17246,0.0000,0.0000,0.0000,0.000,0.000,0.000,418,313,304,301,286,2025-05-24T00:08:22.971054
17247,0.0000,0.0000,0.0000,0.000,0.000,0.000,357,344,336,345,342,2025-05-24T00:08:22.971064
17248,0.0000,0.0000,0.0000,0.000,0.000,0.000,390,296,285,287,280,2025-05-24T00:08:22.971074
17249,0.0000,0.0000,0.0000,0.000,0.000,0.000,374,336,330,331,313,2025-05-24T00:08:22.971087
17250,0.0000,0.0000,0.0000,0.000,0.000,0.000,375,293,296,308,306,2025-05-24T00:08:22.971098
17251,0.0000,0.0000,0.0000,0.000,0.000,0.000,365,385,377,373,360,2025-05-24T00:08:22.971107
17252,0.0000,0.0000,0.0000,0.000,0.000,0.000,386,355,354,361,358,2025-05-24T00:08:22.971116
17253,0.0000,0.0000,0.0000,0.000,0.000,0.000,424,416,403,397,381,2025-05-24T00:08:22.971125
17254,0.0000,0.0000,0.0000,0.000,0.000,0.000,390,396,397,402,400,2025-05-24T00:08:22.971134
17255,0.0000,0.0000,0.0000,0.000,0.000,0.000,415,441,426,420,402,2025-05-24T00:08:22.971142
17256,0.0000,0.0000,0.0000,0.000,0.000,0.000,395,435,436,442,437,2025-05-24T00:08:22.971151
17257,0.0000,0.0000,0.0000,0.000,0.000,0.000,408,449,434,425,412,2025-05-24T00:08:22.971160
17258,0.0000,0.0000,0.0000,0.000,0.000,0.000,401,472,466,469,458,2025-05-24T00:08:22.971169
17259,0.0000,0.0000,0.0000,0.000,0.000,0.000,411,459,448,445,430,2025-05-24T00:08:22.971204
17260,0.0000,0.0000,0.0000,0.000,0.000,0.000,428,510,505,509,494,2025-05-24T00:08:22.971213
17261,0.0000,0.0000,0.0000,0.000,0.000,0.000,428,480,467,465,457,2025-05-24T00:08:22.971223
17262,0.0000,0.0000,0.0000,0.000,0.000,0.000,407,540,530,523,506,2025-05-24T00:08:22.971233
17263,0.0000,0.0000,0.0000,0.000,0.000,0.000,401,491,485,488,478,2025-05-24T00:08:23.020886
17264,0.0000,0.0000,0.0000,0.000,0.000,0.000,398,554,536,531,509,2025-05-24T00:08:23.020940
17265,0.0000,0.0000,0.0000,0.000,0.000,0.000,402,521,513,518,512,2025-05-24T00:08:23.020953
17266,0.0000,0.0000,0.0000,0.000,0.000,0.000,395,563,544,536,517,2025-05-24T00:08:23.020966
17267,0.0000,0.0000,0.0000,0.000,0.000,0.000,408,551,547,545,540,2025-05-24T00:08:23.020978
17268,0.0000,0.0000,0.0000,0.000,0.000,0.000,426,571,552,542,524,2025-05-24T00:08:23.195370
17269,0.0000,0.0000,0.0000,0.000,0.000,0.000,373,578,573,574,564,2025-05-24T00:08:23.195420
17270,0.0000,0.0000,0.0000,0.000,0.000,0.000,347,568,551,548,530,2025-05-24T00:08:23.195450
17271,0.0000,0.0000,0.0000,0.000,0.000,0.000,380,605,596,600,590,2025-05-24T00:08:23.195462
17272,0.0000,0.0000,0.0000,0.000,0.000,0.000,398,576,560,553,536,2025-05-24T00:08:23.195473
17273,0.0000,0.0000,0.0000,0.000,0.000,0.000,408,627,617,615,593,2025-05-24T00:08:23.195485
17274,0.0000,0.0000,0.0000,0.000,0.000,0.000,389,576,565,567,556,2025-05-24T00:08:23.195496
17275,0.0000,0.0000,0.0000,0.000,0.000,0.000,358,638,621,612,591,2025-05-24T00:08:23.195507
17276,0.0000,0.0000,0.0000,0.000,0.000,0.000,386,588,578,581,573,2025-05-24T00:08:23.195517
17277,0.0000,0.0000,0.0000,0.000,0.000,0.000,408,641,621,612,592,2025-05-24T00:08:23.195527
17278,0.0000,0.0000,0.0000,0.000,0.000,0.000,347,612,605,606,599,2025-05-24T00:08:23.195538
17279,0.0000,0.0000,0.0000,0.000,0.000,0.000,405,644,623,612,590,2025-05-24T00:08:23.195548
17280,0.0000,0.0000,0.0000,0.000,0.000,0.000,391,634,625,628,619,2025-05-24T00:08:23.195557
17281,0.0000,0.0000,0.0000,0.000,0.000,0.000,415,634,612,602,584,2025-05-24T00:08:23.195570
17282,0.0000,0.0000,0.0000,0.000,0.000,0.000,431,648,640,639,627,2025-05-24T00:08:23.195580
17283,0.0000,0.0000,0.0000,0.000,0.000,0.000,430,613,601,597,576,2025-05-24T00:08:23.195623
17284,0.0000,0.0000,0.0000,0.000,0.000,0.000,404,658,649,651,637,2025-05-24T00:08:23.384054
17285,0.0000,0.0000,0.0000,0.000,0.000,0.000,387,614,600,598,590,2025-05-24T00:08:23.384104
17286,0.0000,0.0000,0.0000,0.000,0.000,0.000,426,675,661,649,628,2025-05-24T00:08:23.384120
17287,0.0000,0.0000,0.0000,0.000,0.000,0.000,399,592,581,577,567,2025-05-24T00:08:23.384136
17288,0.0000,0.0000,0.0000,0.000,0.000,0.000,417,597,573,559,534,2025-05-24T00:08:23.384146
17289,0.0000,0.0000,0.0000,0.000,0.000,0.000,370,397,381,376,364,2025-05-24T00:08:23.384156
17290,0.0000,0.0000,0.0000,0.000,0.000,0.000,516,501,487,484,470,2025-05-24T00:08:23.384166
17291,0.0000,0.0000,0.0000,0.000,0.000,0.000,542,535,535,545,546,2025-05-24T00:08:23.384176
17292,0.0000,0.0000,0.0000,0.000,0.000,0.000,655,634,615,606,584,2025-05-24T00:08:23.384185
17293,0.0000,0.0000,0.0000,0.000,0.000,0.000,678,666,661,664,657,2025-05-24T00:08:23.384193
17294,0.0000,0.0000,0.0000,0.000,0.000,0.000,673,637,609,597,579,2025-05-24T00:08:23.384202
17295,0.0000,0.0000,0.0000,0.000,0.000,0.000,638,625,617,617,608,2025-05-24T00:08:23.384211
17296,0.0000,0.0000,0.0000,0.000,0.000,0.000,577,553,538,530,517,2025-05-24T00:08:23.384220
17297,0.0000,0.0000,0.0000,0.000,0.000,0.000,600,589,582,580,559,2025-05-24T00:08:23.384229
17298,0.0000,0.0000,0.0000,0.000,0.000,0.000,544,523,508,509,497,2025-05-24T00:08:23.384238
17299,0.0000,0.0000,0.0000,0.000,0.000,0.000,585,584,566,560,542,2025-05-24T00:08:23.384278
17300,0.0000,0.0000,0.0000,0.000,0.000,0.000,467,521,514,514,509,2025-05-24T00:08:23.384288
17301,0.0000,0.0000,0.0000,0.000,0.000,0.000,425,557,535,530,513,2025-05-24T00:08:23.584548
17302,0.0000,0.0000,0.0000,0.000,0.000,0.000,401,527,521,520,509,2025-05-24T00:08:23.584600
17303,0.0000,0.0000,0.0000,0.000,0.000,0.000,424,548,531,522,506,2025-05-24T00:08:23.584614
17304,0.0000,0.0000,0.0000,0.000,0.000,0.000,414,542,533,535,526,2025-05-24T00:08:23.584625
17305,0.0000,0.0000,0.0000,0.000,0.000,0.000,405,543,526,518,504,2025-05-24T00:08:23.584637
17306,0.0000,0.0000,0.0000,0.000,0.000,0.000,424,553,544,541,530,2025-05-24T00:08:23.584649
17307,0.0000,0.0000,0.0000,0.000,0.000,0.000,421,526,511,506,496,2025-05-24T00:08:23.584660
17308,0.0000,0.0000,0.0000,0.000,0.000,0.000,391,559,547,545,534,2025-05-24T00:08:23.584670
17309,0.0000,0.0000,0.0000,0.000,0.000,0.000,407,551,536,527,519,2025-05-24T00:08:23.584679
17310,0.0000,0.0000,0.0000,0.000,0.000,0.000,411,569,557,551,533,2025-05-24T00:08:23.584691
17311,0.0000,0.0000,0.0000,0.000,0.000,0.000,416,526,513,512,499,2025-05-24T00:08:23.584701
17312,0.0000,0.0000,0.0000,0.000,0.000,0.000,412,521,507,502,486,2025-05-24T00:08:23.584710
17313,0.0000,0.0000,0.0000,0.000,0.000,0.000,355,480,464,467,457,2025-05-24T00:08:23.584719
17314,0.0000,0.0000,0.0000,0.000,0.000,0.000,385,477,463,455,437,2025-05-24T00:08:23.584728
17315,0.0000,0.0000,0.0000,0.000,0.000,0.000,408,443,434,437,427,2025-05-24T00:08:23.584737
17316,0.0000,0.0000,0.0000,0.000,0.000,0.000,397,437,425,419,402,2025-05-24T00:08:23.584781
17317,0.0000,0.0000,0.0000,0.000,0.000,0.000,356,423,420,425,416,2025-05-24T00:08:23.584790
17318,0.0000,0.0000,0.0000,0.000,0.000,0.000,403,416,398,398,387,2025-05-24T00:08:23.584799
17319,0.0000,0.0000,0.0000,0.000,0.000,0.000,414,435,428,422,417,2025-05-24T00:08:23.816140
17320,0.0000,0.0000,0.0000,0.000,0.000,0.000,422,410,401,402,395,2025-05-24T00:08:23.816194
17321,0.0000,0.0000,0.0000,0.000,0.000,0.000,425,451,445,443,429,2025-05-24T00:08:23.816209
17322,0.0000,0.0000,0.0000,0.000,0.000,0.000,413,415,406,412,403,2025-05-24T00:08:23.816593
17323,0.0000,0.0000,0.0000,0.000,0.000,0.000,399,461,445,440,425,2025-05-24T00:08:23.816608
17324,0.0000,0.0000,0.0000,0.000,0.000,0.000,335,421,417,420,415,2025-05-24T00:08:23.816619
17325,0.0000,0.0000,0.0000,0.000,0.000,0.000,386,460,449,441,426,2025-05-24T00:08:23.816636
17326,0.0000,0.0000,0.0000,0.000,0.000,0.000,413,442,438,442,438,2025-05-24T00:08:23.816647
17327,0.0000,0.0000,0.0000,0.000,0.000,0.000,405,468,452,442,424,2025-05-24T00:08:23.816660
17328,0.0000,0.0000,0.0000,0.000,0.000,0.000,366,463,457,463,453,2025-05-24T00:08:23.816671
17329,0.0000,0.0000,0.0000,0.000,0.000,0.000,390,463,445,437,421,2025-05-24T00:08:23.816682
17330,0.0000,0.0000,0.0000,0.000,0.000,0.000,388,475,468,473,461,2025-05-24T00:08:23.816692
17331,0.0000,0.0000,0.0000,0.000,0.000,0.000,415,446,437,433,419,2025-05-24T00:08:23.816704
17332,0.0000,0.0000,0.0000,0.000,0.000,0.000,413,483,477,479,468,2025-05-24T00:08:23.816715
17333,0.0000,0.0000,0.0000,0.000,0.000,0.000,361,441,431,429,422,2025-05-24T00:08:23.816725
17334,0.0000,0.0000,0.0000,0.000,0.000,0.000,408,487,476,468,447,2025-05-24T00:08:23.816736
17335,0.0000,0.0000,0.0000,0.000,0.000,0.000,387,418,414,418,410,2025-05-24T00:08:23.816784
17336,0.0000,0.0000,0.0000,0.000,0.000,0.000,411,461,447,439,420,2025-05-24T00:08:23.816795
17337,0.0000,0.0000,0.0000,0.000,0.000,0.000,410,405,401,406,393,2025-05-24T00:08:23.816805
17338,0.0000,0.0000,0.0000,0.000,0.000,0.000,427,434,421,412,387,2025-05-24T00:08:24.010603
17339,0.0000,0.0000,0.0000,0.000,0.000,0.000,395,403,397,406,404,2025-05-24T00:08:24.010649
17340,0.0000,0.0000,0.0000,0.000,0.000,0.000,344,412,393,388,374,2025-05-24T00:08:24.010662
17341,0.0000,0.0000,0.0000,0.000,0.000,0.000,405,416,397,390,373,2025-05-24T00:08:24.010673
17342,0.0000,0.0000,0.0000,0.000,0.000,0.000,390,306,295,294,281,2025-05-24T00:08:24.010682
17343,0.0000,0.0000,0.0000,0.000,0.000,0.000,331,310,303,309,305,2025-05-24T00:08:24.010692
17344,0.0000,0.0000,0.0000,0.000,0.000,0.000,392,245,240,240,236,2025-05-24T00:08:24.010702
17345,0.0000,0.0000,0.0000,0.000,0.000,0.000,410,287,289,291,279,2025-05-24T00:08:24.010716
17346,0.0000,0.0000,0.0000,0.000,0.000,0.000,388,227,225,230,226,2025-05-24T00:08:24.010725
17347,0.0000,0.0000,0.0000,0.000,0.000,0.000,406,285,278,276,262,2025-05-24T00:08:24.010735
17348,0.0000,0.0000,0.0000,0.000,0.000,0.000,426,224,221,230,225,2025-05-24T00:08:24.010744
17349,0.0000,0.0000,0.0000,0.000,0.000,0.000,423,261,252,242,231,2025-05-24T00:08:24.010753
17350,0.0000,0.0000,0.0000,0.000,0.000,0.000,405,209,215,223,222,2025-05-24T00:08:24.010762
17351,0.0000,0.0000,0.0000,0.000,0.000,0.000,395,227,219,214,200,2025-05-24T00:08:24.010771
17352,0.0000,0.0000,0.0000,0.000,0.000,0.000,410,198,204,215,204,2025-05-24T00:08:24.010780
17353,0.0000,0.0000,0.0000,0.000,0.000,0.000,407,187,173,175,169,2025-05-24T00:08:24.010823
17354,0.0000,0.0000,0.0000,0.000,0.000,0.000,370,192,200,210,208,2025-05-24T00:08:24.010832
17355,0.0000,0.0000,0.0000,0.000,0.000,0.000,404,163,161,164,152,2025-05-24T00:08:24.010841
17356,0.0000,0.0000,0.0000,0.000,0.000,0.000,423,197,203,214,211,2025-05-24T00:08:24.193803
17357,0.0000,0.0000,0.0000,0.000,0.000,0.000,408,141,142,144,148,2025-05-24T00:08:24.193838
17358,0.0000,0.0000,0.0000,0.000,0.000,0.000,413,194,198,196,186,2025-05-24T00:08:24.198409
17359,0.0000,0.0000,0.0000,0.000,0.000,0.000,392,127,133,145,141,2025-05-24T00:08:24.198528
17360,0.0000,0.0000,0.0000,0.000,0.000,0.000,407,171,168,162,153,2025-05-24T00:08:24.198541
17361,0.0000,0.0000,0.0000,0.000,0.000,0.000,401,124,123,138,137,2025-05-24T00:08:24.198551
17362,0.0000,0.0000,0.0000,0.000,0.000,0.000,415,145,140,140,124,2025-05-24T00:08:24.198561
17363,0.0000,0.0000,0.0000,0.000,0.000,0.000,416,126,137,151,153,2025-05-24T00:08:24.198572
17364,0.0000,0.0000,0.0000,0.000,0.000,0.000,382,141,132,136,133,2025-05-24T00:08:24.198581
17365,0.0000,0.0000,0.0000,0.000,0.000,0.000,416,157,161,174,175,2025-05-24T00:08:24.198591
17366,0.0000,0.0000,0.0000,0.000,0.000,0.000,376,135,136,141,134,2025-05-24T00:08:24.198599
17367,0.0000,0.0000,0.0000,0.000,0.000,0.000,419,173,180,193,194,2025-05-24T00:08:24.198609
17368,0.0000,0.0000,0.0000,0.000,0.000,0.000,399,137,137,140,135,2025-05-24T00:08:24.198618
17369,0.0000,0.0000,0.0000,0.000,0.000,0.000,406,185,187,193,186,2025-05-24T00:08:24.198627
17370,0.0000,0.0000,0.0000,0.000,0.000,0.000,405,133,133,142,146,2025-05-24T00:08:24.198636
17371,0.0000,0.0000,0.0000,0.000,0.000,0.000,413,195,191,192,177,2025-05-24T00:08:24.198645
17372,0.0000,0.0000,0.0000,0.000,0.000,0.000,374,164,191,217,228,2025-05-24T00:08:24.198653
17373,0.0000,0.0000,0.0000,0.000,0.000,0.000,424,327,321,321,303,2025-05-24T00:08:24.198700
17374,0.0000,0.0000,0.0000,0.000,0.000,0.000,426,344,347,354,353,2025-05-24T00:08:24.198708
17375,0.0000,0.0000,0.0000,0.000,0.000,0.000,394,393,380,375,360,2025-05-24T00:08:24.198718
17376,0.0000,0.0000,0.0000,0.000,0.000,0.000,395,399,400,402,399,2025-05-24T00:08:24.403984
17377,0.0000,0.0000,0.0000,0.000,0.000,0.000,423,413,397,397,386,2025-05-24T00:08:24.404032
17378,0.0000,0.0000,0.0000,0.000,0.000,0.000,400,448,447,452,446,2025-05-24T00:08:24.404045
17379,0.0000,0.0000,0.0000,0.000,0.000,0.000,398,440,425,423,412,2025-05-24T00:08:24.404058
17380,0.0000,0.0000,0.0000,0.000,0.000,0.000,404,491,485,487,474,2025-05-24T00:08:24.404068
17381,0.0000,0.0000,0.0000,0.000,0.000,0.000,415,457,446,447,441,2025-05-24T00:08:24.404078
17382,0.0000,0.0000,0.0000,0.000,0.000,0.000,392,510,503,497,482,2025-05-24T00:08:24.404088
17383,0.0000,0.0000,0.0000,0.000,0.000,0.000,394,477,473,474,462,2025-05-24T00:08:24.404097
17384,0.0000,0.0000,0.0000,0.000,0.000,0.000,420,534,517,508,482,2025-05-24T00:08:24.404108
17385,0.0000,0.0000,0.0000,0.000,0.000,0.000,408,498,490,497,486,2025-05-24T00:08:24.404117
17386,0.0000,0.0000,0.0000,0.000,0.000,0.000,306,535,515,506,485,2025-05-24T00:08:24.404127
17387,0.0000,0.0000,0.0000,0.000,0.000,0.000,383,516,512,515,507,2025-05-24T00:08:24.404136
17388,0.0000,0.0000,0.0000,0.000,0.000,0.000,405,531,512,504,481,2025-05-24T00:08:24.404145
17389,0.0000,0.0000,0.0000,0.000,0.000,0.000,414,535,531,528,521,2025-05-24T00:08:24.404154
17390,0.0000,0.0000,0.0000,0.000,0.000,0.000,427,518,507,503,489,2025-05-24T00:08:24.404163
17391,0.0000,0.0000,0.0000,0.000,0.000,0.000,409,556,546,549,538,2025-05-24T00:08:24.404202
17392,0.0000,0.0000,0.0000,0.000,0.000,0.000,423,524,510,501,492,2025-05-24T00:08:24.404211
17393,0.0000,0.0000,0.0000,0.000,0.000,0.000,410,567,560,557,536,2025-05-24T00:08:24.404220
17394,0.0000,0.0000,0.0000,0.000,0.000,0.000,400,521,510,500,492,2025-05-24T00:08:24.404228
17395,0.0000,0.0000,0.0000,0.000,0.000,0.000,341,478,457,443,422,2025-05-24T00:08:24.456809
17396,0.0000,0.0000,0.0000,0.000,0.000,0.000,323,361,357,357,350,2025-05-24T00:08:24.456853
17397,0.0000,0.0000,0.0000,0.000,0.000,0.000,380,373,361,353,335,2025-05-24T00:08:24.456864
17398,0.0000,0.0000,0.0000,0.000,0.000,0.000,399,310,310,313,310,2025-05-24T00:08:24.456873
17399,0.0000,0.0000,0.0000,0.000,0.000,0.000,410,324,312,304,285,2025-05-24T00:08:24.456884
17400,0.0000,0.0000,0.0000,0.000,0.000,0.000,415,289,290,296,296,2025-05-24T00:08:24.631302
17401,0.0000,0.0000,0.0000,0.000,0.000,0.000,403,269,258,256,247,2025-05-24T00:08:24.631570
17402,0.0000,0.0000,0.0000,0.000,0.000,0.000,383,285,283,292,291,2025-05-24T00:08:24.631586
17403,0.0000,0.0000,0.0000,0.000,0.000,0.000,396,241,236,234,229,2025-05-24T00:08:24.631597
17404,0.0000,0.0000,0.0000,0.000,0.000,0.000,393,278,280,286,275,2025-05-24T00:08:24.631607
17405,0.0000,0.0000,0.0000,0.000,0.000,0.000,414,220,219,226,226,2025-05-24T00:08:24.631617
17406,0.0000,0.0000,0.0000,0.000,0.000,0.000,416,274,264,265,254,2025-05-24T00:08:24.631626
17407,0.0000,0.0000,0.0000,0.000,0.000,0.000,409,210,214,217,219,2025-05-24T00:08:24.631635
17408,0.0000,0.0000,0.0000,0.000,0.000,0.000,405,257,252,250,235,2025-05-24T00:08:24.631644
17409,0.0000,0.0000,0.0000,0.000,0.000,0.000,402,215,216,227,227,2025-05-24T00:08:24.631653
17410,0.0000,0.0000,0.0000,0.000,0.000,0.000,405,235,229,225,212,2025-05-24T00:08:24.631662
17411,0.0000,0.0000,0.0000,0.000,0.000,0.000,404,216,221,231,232,2025-05-24T00:08:24.631788
17412,0.0000,0.0000,0.0000,0.000,0.000,0.000,363,221,205,203,197,2025-05-24T00:08:24.631798
17413,0.0000,0.0000,0.0000,0.000,0.000,0.000,402,223,228,236,234,2025-05-24T00:08:24.631807
17414,0.0000,0.0000,0.0000,0.000,0.000,0.000,412,194,193,194,188,2025-05-24T00:08:24.631816
17415,0.0000,0.0000,0.0000,0.000,0.000,0.000,422,230,233,242,239,2025-05-24T00:08:24.631860
17416,0.0000,0.0000,0.0000,0.000,0.000,0.000,392,180,174,180,174,2025-05-24T00:08:24.631869
17417,0.0000,0.0000,0.0000,0.000,0.000,0.000,372,227,232,235,225,2025-05-24T00:08:24.713744
17418,0.0000,0.0000,0.0000,0.000,0.000,0.000,405,174,179,188,187,2025-05-24T00:08:24.713789
17419,0.0000,0.0000,0.0000,0.000,0.000,0.000,346,231,226,225,213,2025-05-24T00:08:24.713800
17420,0.0000,0.0000,0.0000,0.000,0.000,0.000,398,180,180,192,190,2025-05-24T00:08:24.713810
17421,0.0000,0.0000,0.0000,0.000,0.000,0.000,302,215,207,209,196,2025-05-24T00:08:24.814652
17422,0.0000,0.0000,0.0000,0.000,0.000,0.000,355,184,192,205,205,2025-05-24T00:08:24.814699
17423,0.0000,0.0000,0.0000,0.000,0.000,0.000,400,205,191,188,178,2025-05-24T00:08:24.814711
17424,0.0000,0.0000,0.0000,0.000,0.000,0.000,422,196,204,205,209,2025-05-24T00:08:24.814722
17425,0.0000,0.0000,0.0000,0.000,0.000,0.000,426,183,172,178,173,2025-05-24T00:08:24.814732
17426,0.0000,0.0000,0.0000,0.000,0.000,0.000,396,208,202,216,210,2025-05-24T00:08:24.814742
17427,0.0000,0.0000,0.0000,0.000,0.000,0.000,416,176,172,174,170,2025-05-24T00:08:24.814752
17428,0.0000,0.0000,0.0000,0.000,0.000,0.000,427,216,224,231,220,2025-05-24T00:08:24.814761
17429,0.0000,0.0000,0.0000,0.000,0.000,0.000,408,167,166,177,175,2025-05-24T00:08:24.814770
17430,0.0000,0.0000,0.0000,0.000,0.000,0.000,395,225,223,222,208,2025-05-24T00:08:24.814779
17431,0.0000,0.0000,0.0000,0.000,0.000,0.000,408,169,169,179,180,2025-05-24T00:08:24.814789
17432,0.0000,0.0000,0.0000,0.000,0.000,0.000,408,210,205,205,191,2025-05-24T00:08:24.814797
17433,0.0000,0.0000,0.0000,0.000,0.000,0.000,406,168,173,179,183,2025-05-24T00:08:24.910856
17434,0.0000,0.0000,0.0000,0.000,0.000,0.000,400,193,184,182,173,2025-05-24T00:08:24.910907
17435,0.0000,0.0000,0.0000,0.000,0.000,0.000,376,184,193,206,204,2025-05-24T00:08:24.910919
17436,0.0000,0.0000,0.0000,0.000,0.000,0.000,412,179,166,169,160,2025-05-24T00:08:24.910930
17437,0.0000,0.0000,0.0000,0.000,0.000,0.000,423,198,199,210,212,2025-05-24T00:08:24.910939
17438,0.0000,0.0000,0.0000,0.000,0.000,0.000,425,166,160,163,150,2025-05-24T00:08:25.016879
17439,0.0000,0.0000,0.0000,0.000,0.000,0.000,426,202,211,218,213,2025-05-24T00:08:25.016908
17440,0.0000,0.0000,0.0000,0.000,0.000,0.000,391,156,153,160,157,2025-05-24T00:08:25.016914
17441,0.0000,0.0000,0.0000,0.000,0.000,0.000,426,215,212,211,201,2025-05-24T00:08:25.016919
17442,0.0000,0.0000,0.0000,0.000,0.000,0.000,338,156,156,165,170,2025-05-24T00:08:25.016924
17443,0.0000,0.0000,0.0000,0.000,0.000,0.000,396,209,204,203,189,2025-05-24T00:08:25.016930
17444,0.0000,0.0000,0.0000,0.000,0.000,0.000,413,167,174,181,186,2025-05-24T00:08:25.016937
17445,0.0000,0.0000,0.0000,0.000,0.000,0.000,349,200,193,191,178,2025-05-24T00:08:25.016943
17446,0.0000,0.0000,0.0000,0.000,0.000,0.000,348,178,183,191,194,2025-05-24T00:08:25.016950
17447,0.0000,0.0000,0.0000,0.000,0.000,0.000,411,184,177,171,164,2025-05-24T00:08:25.016955
17448,0.0000,0.0000,0.0000,0.000,0.000,0.000,424,184,188,202,202,2025-05-24T00:08:25.016961
17449,0.0000,0.0000,0.0000,0.000,0.000,0.000,362,162,163,166,162,2025-05-24T00:08:25.016966
17450,0.0000,0.0000,0.0000,0.000,0.000,0.000,379,201,205,216,204,2025-05-24T00:08:25.016971
17451,0.0000,0.0000,0.0000,0.000,0.000,0.000,335,157,156,160,159,2025-05-24T00:08:25.016979
17452,0.0000,0.0000,0.0000,0.000,0.000,0.000,399,211,205,205,197,2025-05-24T00:08:25.262714
17453,0.0000,0.0000,0.0000,0.000,0.000,0.000,388,148,157,168,163,2025-05-24T00:08:25.262762
17454,0.0000,0.0000,0.0000,0.000,0.000,0.000,417,206,195,197,186,2025-05-24T00:08:25.262775
17455,0.0000,0.0000,0.0000,0.000,0.000,0.000,377,159,164,177,177,2025-05-24T00:08:25.262787
17456,0.0000,0.0000,0.0000,0.000,0.000,0.000,413,197,189,189,175,2025-05-24T00:08:25.262798
17457,0.0000,0.0000,0.0000,0.000,0.000,0.000,417,168,174,189,191,2025-05-24T00:08:25.262808
17458,0.0000,0.0000,0.0000,0.000,0.000,0.000,410,186,174,173,165,2025-05-24T00:08:25.262816
17459,0.0000,0.0000,0.0000,0.000,0.000,0.000,385,184,190,198,197,2025-05-24T00:08:25.262825
17460,0.0000,0.0000,0.0000,0.000,0.000,0.000,394,170,160,162,157,2025-05-24T00:08:25.262834
17461,0.0000,0.0000,0.0000,0.000,0.000,0.000,383,193,197,203,206,2025-05-24T00:08:25.262842
17462,0.0000,0.0000,0.0000,0.000,0.000,0.000,394,161,157,160,154,2025-05-24T00:08:25.262850
17463,0.0000,0.0000,0.0000,0.000,0.000,0.000,417,197,206,214,201,2025-05-24T00:08:25.262858
17464,0.0000,0.0000,0.0000,0.000,0.000,0.000,401,152,150,160,163,2025-05-24T00:08:25.262867
17465,0.0000,0.0000,0.0000,0.000,0.000,0.000,412,207,202,206,197,2025-05-24T00:08:25.262875
17466,0.0000,0.0000,0.0000,0.000,0.000,0.000,393,156,159,169,161,2025-05-24T00:08:25.262883
17467,0.0000,0.0000,0.0000,0.000,0.000,0.000,404,201,196,196,185,2025-05-24T00:08:25.262926
17468,0.0000,0.0000,0.0000,0.000,0.000,0.000,410,162,164,176,172,2025-05-24T00:08:25.262934
17469,0.0000,0.0000,0.0000,0.000,0.000,0.000,376,192,179,175,166,2025-05-24T00:08:25.262942
17470,0.0000,0.0000,0.0000,0.000,0.000,0.000,359,166,171,179,183,2025-05-24T00:08:25.481322
17471,0.0000,0.0000,0.0000,0.000,0.000,0.000,338,166,158,154,152,2025-05-24T00:08:25.481368
17472,0.0000,0.0000,0.0000,0.000,0.000,0.000,327,186,191,202,202,2025-05-24T00:08:25.481379
17473,0.0000,0.0000,0.0000,0.000,0.000,0.000,386,155,155,156,151,2025-05-24T00:08:25.481389
17474,0.0000,0.0000,0.0000,0.000,0.000,0.000,383,195,196,203,199,2025-05-24T00:08:25.481399
17475,0.0000,0.0000,0.0000,0.000,0.000,0.000,390,150,149,157,157,2025-05-24T00:08:25.481412
17476,0.0000,0.0000,0.0000,0.000,0.000,0.000,394,208,208,204,191,2025-05-24T00:08:25.481423
17477,0.0000,0.0000,0.0000,0.000,0.000,0.000,389,150,153,162,163,2025-05-24T00:08:25.481431
17478,0.0000,0.0000,0.0000,0.000,0.000,0.000,423,202,199,198,187,2025-05-24T00:08:25.481441
17479,0.0000,0.0000,0.0000,0.000,0.000,0.000,414,160,160,173,174,2025-05-24T00:08:25.481449
17480,0.0000,0.0000,0.0000,0.000,0.000,0.000,418,196,187,188,174,2025-05-24T00:08:25.481459
17481,0.0000,0.0000,0.0000,0.000,0.000,0.000,403,162,167,181,186,2025-05-24T00:08:25.481467
17482,0.0000,0.0000,0.0000,0.000,0.000,0.000,344,181,173,169,160,2025-05-24T00:08:25.481476
17483,0.0000,0.0000,0.0000,0.000,0.000,0.000,381,179,185,198,197,2025-05-24T00:08:25.481484
17484,0.0000,0.0000,0.0000,0.000,0.000,0.000,415,158,155,161,157,2025-05-24T00:08:25.481523
17485,0.0000,0.0000,0.0000,0.000,0.000,0.000,418,194,192,204,205,2025-05-24T00:08:25.481533
17486,0.0000,0.0000,0.0000,0.000,0.000,0.000,399,157,153,158,157,2025-05-24T00:08:25.481574
17487,0.0000,0.0000,0.0000,0.000,0.000,0.000,397,199,204,205,197,2025-05-24T00:08:25.481585
17488,0.0000,0.0000,0.0000,0.000,0.000,0.000,409,148,147,153,157,2025-05-24T00:08:25.481594
17489,0.0000,0.0000,0.0000,0.000,0.000,0.000,415,201,198,200,191,2025-05-24T00:08:25.481603
17490,0.0000,0.0000,0.0000,0.000,0.000,0.000,415,149,154,165,169,2025-05-24T00:08:25.481611
17491,0.0000,0.0000,0.0000,0.000,0.000,0.000,406,198,187,186,171,2025-05-24T00:08:25.481624
17492,0.0000,0.0000,0.0000,0.000,0.000,0.000,333,155,163,174,170,2025-05-24T00:08:25.662351
17493,0.0000,0.0000,0.0000,0.000,0.000,0.000,385,182,174,174,157,2025-05-24T00:08:25.662395
17494,0.0000,0.0000,0.0000,0.000,0.000,0.000,383,167,175,187,189,2025-05-24T00:08:25.662407
17495,0.0000,0.0000,0.0000,0.000,0.000,0.000,333,169,162,164,154,2025-05-24T00:08:25.662417
17496,0.0000,0.0000,0.0000,0.000,0.000,0.000,389,182,189,196,192,2025-05-24T00:08:25.662427
17497,0.0000,0.0000,0.0000,0.000,0.000,0.000,390,150,153,157,149,2025-05-24T00:08:25.662437
17498,0.0000,0.0000,0.0000,0.000,0.000,0.000,405,184,183,192,189,2025-05-24T00:08:25.662462
17499,0.0000,0.0000,0.0000,0.000,0.000,0.000,385,147,144,146,146,2025-05-24T00:08:25.662471
17500,0.0000,0.0000,0.0000,0.000,0.000,0.000,418,193,199,201,188,2025-05-24T00:08:25.662576
17501,0.0000,0.0000,0.0000,0.000,0.000,0.000,420,137,147,157,155,2025-05-24T00:08:25.662586
17502,0.0000,0.0000,0.0000,0.000,0.000,0.000,416,195,191,192,184,2025-05-24T00:08:25.662595
17503,0.0000,0.0000,0.0000,0.000,0.000,0.000,391,152,159,171,172,2025-05-24T00:08:25.662607
17504,0.0000,0.0000,0.0000,0.000,0.000,0.000,399,193,185,184,175,2025-05-24T00:08:25.662616
17505,0.0000,0.0000,0.0000,0.000,0.000,0.000,395,162,167,180,183,2025-05-24T00:08:25.662628
17506,0.0000,0.0000,0.0000,0.000,0.000,0.000,355,181,175,173,155,2025-05-24T00:08:26.015483
17507,0.0000,0.0000,0.0000,0.000,0.000,0.000,375,167,171,186,187,2025-05-24T00:08:26.015575
17508,0.0000,0.0000,0.0000,0.000,0.000,0.000,399,160,148,154,149,2025-05-24T00:08:26.015590
17509,0.0000,0.0000,0.0000,0.000,0.000,0.000,416,181,187,191,188,2025-05-24T00:08:26.015601
17510,0.0000,0.0000,0.0000,0.000,0.000,0.000,344,145,146,150,148,2025-05-24T00:08:26.015611
17511,0.0000,0.0000,0.0000,0.000,0.000,0.000,331,190,191,202,197,2025-05-24T00:08:26.015621
17512,0.0000,0.0000,0.0000,0.000,0.000,0.000,401,139,143,153,154,2025-05-24T00:08:26.015630
17513,0.0000,0.0000,0.0000,0.000,0.000,0.000,423,203,200,196,189,2025-05-24T00:08:26.015640
17514,0.0000,0.0000,0.0000,0.000,0.000,0.000,340,136,145,152,151,2025-05-24T00:08:26.015650
17515,0.0000,0.0000,0.0000,0.000,0.000,0.000,402,188,181,182,173,2025-05-24T00:08:26.015659
17516,0.0000,0.0000,0.0000,0.000,0.000,0.000,409,150,156,168,168,2025-05-24T00:08:26.015668
17517,0.0000,0.0000,0.0000,0.000,0.000,0.000,375,186,173,173,163,2025-05-24T00:08:26.015677
17518,0.0000,0.0000,0.0000,0.000,0.000,0.000,369,163,169,176,181,2025-05-24T00:08:26.015686
17519,0.0000,0.0000,0.0000,0.000,0.000,0.000,399,174,166,166,157,2025-05-24T00:08:26.015695
17520,0.0000,0.0000,0.0000,0.000,0.000,0.000,412,174,182,189,190,2025-05-24T00:08:26.015703
17521,0.0000,0.0000,0.0000,0.000,0.000,0.000,401,158,154,160,147,2025-05-24T00:08:26.015712
17522,0.0000,0.0000,0.0000,0.000,0.000,0.000,396,183,189,201,198,2025-05-24T00:08:26.015720
17523,0.0000,0.0000,0.0000,0.000,0.000,0.000,384,152,149,152,151,2025-05-24T00:08:26.015746
17524,0.0000,0.0000,0.0000,0.000,0.000,0.000,420,196,198,206,197,2025-05-24T00:08:26.015755
17525,0.0000,0.0000,0.0000,0.000,0.000,0.000,389,145,140,154,157,2025-05-24T00:08:26.015764
17526,0.0000,0.0000,0.0000,0.000,0.000,0.000,341,196,189,193,184,2025-05-24T00:08:26.015772
17527,0.0000,0.0000,0.0000,0.000,0.000,0.000,342,143,150,160,160,2025-05-24T00:08:26.015780
17528,0.0000,0.0000,0.0000,0.000,0.000,0.000,409,188,182,180,166,2025-05-24T00:08:26.015788
17529,0.0000,0.0000,0.0000,0.000,0.000,0.000,411,150,153,162,166,2025-05-24T00:08:26.015798
17530,0.0000,0.0000,0.0000,0.000,0.000,0.000,419,174,170,169,158,2025-05-24T00:08:26.120356
17531,0.0000,0.0000,0.0000,0.000,0.000,0.000,401,158,169,180,183,2025-05-24T00:08:26.120419
17532,0.0000,0.0000,0.0000,0.000,0.000,0.000,397,156,152,155,146,2025-05-24T00:08:26.120437
17533,0.0000,0.0000,0.0000,0.000,0.000,0.000,411,179,182,187,190,2025-05-24T00:08:26.120453
17534,0.0000,0.0000,0.0000,0.000,0.000,0.000,403,148,148,151,145,2025-05-24T00:08:26.120470
17535,0.0000,0.0000,0.0000,0.000,0.000,0.000,408,188,188,201,197,2025-05-24T00:08:26.120485
17536,0.0000,0.0000,0.0000,0.000,0.000,0.000,391,146,145,149,150,2025-05-24T00:08:26.120500
17537,0.0000,0.0000,0.0000,0.000,0.000,0.000,396,200,190,193,182,2025-05-24T00:08:26.120512
17538,0.0000,0.0000,0.0000,0.000,0.000,0.000,392,141,148,158,159,2025-05-24T00:08:26.120526
17539,0.0000,0.0000,0.0000,0.000,0.000,0.000,415,196,186,189,173,2025-05-24T00:08:26.120539
17540,0.0000,0.0000,0.0000,0.000,0.000,0.000,403,149,154,162,166,2025-05-24T00:08:26.120550
17541,0.0000,0.0000,0.0000,0.000,0.000,0.000,415,187,181,174,161,2025-05-24T00:08:26.120561
17542,0.0000,0.0000,0.0000,0.000,0.000,0.000,376,158,159,173,172,2025-05-24T00:08:26.120570
17543,0.0000,0.0000,0.0000,0.000,0.000,0.000,421,168,162,161,152,2025-05-24T00:08:26.120580
17544,0.0000,0.0000,0.0000,0.000,0.000,0.000,402,169,176,187,188,2025-05-24T00:08:26.120588
17545,0.0000,0.0000,0.0000,0.000,0.000,0.000,393,157,153,151,146,2025-05-24T00:08:26.120656
17546,0.0000,0.0000,0.0000,0.000,0.000,0.000,419,183,181,191,189,2025-05-24T00:08:26.120665
17547,0.0000,0.0000,0.0000,0.000,0.000,0.000,421,146,144,148,145,2025-05-24T00:08:26.120674
17548,0.0000,0.0000,0.0000,0.000,0.000,0.000,362,189,197,199,191,2025-05-24T00:08:26.120683
17549,0.0000,0.0000,0.0000,0.000,0.000,0.000,386,142,142,148,151,2025-05-24T00:08:26.120693
17550,0.0000,0.0000,0.0000,0.000,0.000,0.000,393,199,191,192,183,2025-05-24T00:08:26.120702
17551,0.0000,0.0000,0.0000,0.000,0.000,0.000,387,140,147,153,158,2025-05-24T00:08:26.262667
17552,0.0000,0.0000,0.0000,0.000,0.000,0.000,413,182,174,169,163,2025-05-24T00:08:26.262808
17553,0.0000,0.0000,0.0000,0.000,0.000,0.000,407,149,155,167,164,2025-05-24T00:08:26.262816
17554,0.0000,0.0000,0.0000,0.000,0.000,0.000,370,170,162,157,142,2025-05-24T00:08:26.262822
17555,0.0000,0.0000,0.0000,0.000,0.000,0.000,350,161,169,178,181,2025-05-24T00:08:26.262828
17556,0.0000,0.0000,0.0000,0.000,0.000,0.000,389,156,152,154,151,2025-05-24T00:08:26.262833
17557,0.0000,0.0000,0.0000,0.000,0.000,0.000,405,176,182,186,190,2025-05-24T00:08:26.262838
17558,0.0000,0.0000,0.0000,0.000,0.000,0.000,396,147,145,151,136,2025-05-24T00:08:26.262842
17559,0.0000,0.0000,0.0000,0.000,0.000,0.000,398,187,193,202,198,2025-05-24T00:08:26.262846
17560,0.0000,0.0000,0.0000,0.000,0.000,0.000,401,145,134,146,145,2025-05-24T00:08:26.262851
17561,0.0000,0.0000,0.0000,0.000,0.000,0.000,392,199,198,194,186,2025-05-24T00:08:26.262857
17562,0.0000,0.0000,0.0000,0.000,0.000,0.000,360,141,148,153,157,2025-05-24T00:08:26.262861
17563,0.0000,0.0000,0.0000,0.000,0.000,0.000,389,195,190,186,172,2025-05-24T00:08:26.262865
17564,0.0000,0.0000,0.0000,0.000,0.000,0.000,383,151,154,165,167,2025-05-24T00:08:26.262870
17565,0.0000,0.0000,0.0000,0.000,0.000,0.000,336,177,165,168,160,2025-05-24T00:08:26.262875
17566,0.0000,0.0000,0.0000,0.000,0.000,0.000,324,154,161,173,172,2025-05-24T00:08:26.460870
17567,0.0000,0.0000,0.0000,0.000,0.000,0.000,359,167,155,152,145,2025-05-24T00:08:26.460919
17568,0.0000,0.0000,0.0000,0.000,0.000,0.000,384,159,170,182,184,2025-05-24T00:08:26.460934
17569,0.0000,0.0000,0.0000,0.000,0.000,0.000,422,152,144,147,141,2025-05-24T00:08:26.460945
17570,0.0000,0.0000,0.0000,0.000,0.000,0.000,401,181,179,195,193,2025-05-24T00:08:26.460956
17571,0.0000,0.0000,0.0000,0.000,0.000,0.000,399,144,143,144,144,2025-05-24T00:08:26.460967
17572,0.0000,0.0000,0.0000,0.000,0.000,0.000,371,189,193,197,188,2025-05-24T00:08:26.460977
17573,0.0000,0.0000,0.0000,0.000,0.000,0.000,363,140,141,151,151,2025-05-24T00:08:26.460987
17574,0.0000,0.0000,0.0000,0.000,0.000,0.000,407,190,191,192,179,2025-05-24T00:08:26.460997
17575,0.0000,0.0000,0.0000,0.000,0.000,0.000,400,149,154,164,162,2025-05-24T00:08:26.461006
17576,0.0000,0.0000,0.0000,0.000,0.000,0.000,393,188,185,185,176,2025-05-24T00:08:26.461016
17577,0.0000,0.0000,0.0000,0.000,0.000,0.000,422,159,166,173,175,2025-05-24T00:08:26.461030
17578,0.0000,0.0000,0.0000,0.000,0.000,0.000,417,189,175,174,160,2025-05-24T00:08:26.461040
17579,0.0000,0.0000,0.0000,0.000,0.000,0.000,377,173,179,191,192,2025-05-24T00:08:26.461049
17580,0.0000,0.0000,0.0000,0.000,0.000,0.000,413,178,168,167,158,2025-05-24T00:08:26.461058
17581,0.0000,0.0000,0.0000,0.000,0.000,0.000,375,187,189,201,200,2025-05-24T00:08:26.461092
17582,0.0000,0.0000,0.0000,0.000,0.000,0.000,374,163,160,163,151,2025-05-24T00:08:26.461101
17583,0.0000,0.0000,0.0000,0.000,0.000,0.000,378,200,204,209,207,2025-05-24T00:08:26.461108
17584,0.0000,0.0000,0.0000,0.000,0.000,0.000,392,154,149,156,160,2025-05-24T00:08:26.461115
17585,0.0000,0.0000,0.0000,0.000,0.000,0.000,383,218,220,223,209,2025-05-24T00:08:26.656004
17586,0.0000,0.0000,0.0000,0.000,0.000,0.000,402,173,173,184,186,2025-05-24T00:08:26.656056
17587,0.0000,0.0000,0.0000,0.000,0.000,0.000,404,220,219,218,199,2025-05-24T00:08:26.656069
17588,0.0000,0.0000,0.0000,0.000,0.000,0.000,406,193,196,203,205,2025-05-24T00:08:26.656082
17589,0.0000,0.0000,0.0000,0.000,0.000,0.000,303,228,221,217,207,2025-05-24T00:08:26.656229
17590,0.0000,0.0000,0.0000,0.000,0.000,0.000,387,212,214,220,220,2025-05-24T00:08:26.656242
17591,0.0000,0.0000,0.0000,0.000,0.000,0.000,421,227,217,216,199,2025-05-24T00:08:26.656256
17592,0.0000,0.0000,0.0000,0.000,0.000,0.000,403,233,236,243,242,2025-05-24T00:08:26.656270
17593,0.0000,0.0000,0.0000,0.000,0.000,0.000,422,217,210,218,207,2025-05-24T00:08:26.656280
17594,0.0000,0.0000,0.0000,0.000,0.000,0.000,397,238,241,249,250,2025-05-24T00:08:26.656291
17595,0.0000,0.0000,0.0000,0.000,0.000,0.000,408,226,221,222,216,2025-05-24T00:08:26.656301
17596,0.0000,0.0000,0.0000,0.000,0.000,0.000,357,252,246,252,246,2025-05-24T00:08:26.656311
17597,0.0000,0.0000,0.0000,0.000,0.000,0.000,341,215,213,218,220,2025-05-24T00:08:26.656321
17598,0.0000,0.0000,0.0000,0.000,0.000,0.000,356,234,223,227,218,2025-05-24T00:08:26.656332
17599,0.0000,0.0000,0.0000,0.000,0.000,0.000,411,184,178,181,180,2025-05-24T00:08:26.656341
17600,0.0000,0.0000,0.0000,0.000,0.000,0.000,238,197,182,184,173,2025-05-24T00:08:26.656392
17601,0.0000,0.0000,0.0000,0.000,0.000,0.000,171,208,225,242,252,2025-05-24T00:08:26.656406
17602,0.0000,0.0000,0.0000,0.000,0.000,0.000,302,282,269,266,255,2025-05-24T00:08:26.656416
17603,0.0000,0.0000,0.0000,0.000,0.000,0.000,254,246,245,251,253,2025-05-24T00:08:26.712110
17604,0.0000,0.0000,0.0000,0.000,0.000,0.000,255,238,227,225,218,2025-05-24T00:08:26.712163
17605,0.0000,0.0000,0.0000,0.000,0.000,0.000,243,240,244,251,255,2025-05-24T00:08:26.712174
17606,0.0000,0.0000,0.0000,0.000,0.000,0.000,238,224,216,211,208,2025-05-24T00:08:26.712184
17607,0.0000,0.0000,0.0000,0.000,0.000,0.000,283,277,283,298,300,2025-05-24T00:08:26.712193
17608,0.0000,0.0000,0.0000,0.000,0.000,0.000,260,245,236,240,237,2025-05-24T00:08:26.972096
17609,0.0000,0.0000,0.0000,0.000,0.000,0.000,350,347,336,332,323,2025-05-24T00:08:26.972130
17610,0.0000,0.0000,0.0000,0.000,0.000,0.000,276,272,277,287,289,2025-05-24T00:08:26.972137
17611,0.0000,0.0000,0.0000,0.000,0.000,0.000,374,364,347,341,328,2025-05-24T00:08:26.972143
17612,0.0000,0.0000,0.0000,0.000,0.000,0.000,332,335,337,349,349,2025-05-24T00:08:26.972148
17613,0.0000,0.0000,0.0000,0.000,0.000,0.000,414,400,386,377,365,2025-05-24T00:08:26.972154
17614,0.0000,0.0000,0.0000,0.000,0.000,0.000,411,409,408,416,416,2025-05-24T00:08:26.972160
17615,0.0000,0.0000,0.0000,0.000,0.000,0.000,430,413,395,391,382,2025-05-24T00:08:26.972165
17616,0.0000,0.0000,0.0000,0.000,0.000,0.000,427,428,421,422,420,2025-05-24T00:08:26.972169
17617,0.0000,0.0000,0.0000,0.000,0.000,0.000,415,410,403,400,389,2025-05-24T00:08:26.972174
17618,0.0000,0.0000,0.0000,0.000,0.000,0.000,423,408,394,387,380,2025-05-24T00:08:26.972179
17619,0.0000,0.0000,0.0000,0.000,0.000,0.000,331,325,315,314,307,2025-05-24T00:08:26.972184
17620,0.0000,0.0000,0.0000,0.000,0.000,0.000,340,337,325,322,313,2025-05-24T00:08:26.972188
17621,0.0000,0.0000,0.0000,0.000,0.000,0.000,287,275,265,270,266,2025-05-24T00:08:26.972193
17622,0.0000,0.0000,0.0000,0.000,0.000,0.000,303,297,289,282,278,2025-05-24T00:08:26.972198
17623,0.0000,0.0000,0.0000,0.000,0.000,0.000,260,258,256,261,261,2025-05-24T00:08:26.972224
17624,0.0000,0.0000,0.0000,0.000,0.000,0.000,282,273,263,261,255,2025-05-24T00:08:26.972229
17625,0.0000,0.0000,0.0000,0.000,0.000,0.000,235,227,231,240,244,2025-05-24T00:08:26.972235
17626,0.0000,0.0000,0.0000,0.000,0.000,0.000,252,240,231,229,221,2025-05-24T00:08:26.972240
17627,0.0000,0.0000,0.0000,0.000,0.000,0.000,219,208,208,221,215,2025-05-24T00:08:26.972244
17628,0.0000,0.0000,0.0000,0.000,0.000,0.000,349,195,187,181,181,2025-05-24T00:08:26.972248
17629,0.0000,0.0000,0.0000,0.000,0.000,0.000,386,203,203,210,206,2025-05-24T00:08:27.068292
17630,0.0000,0.0000,0.0000,0.000,0.000,0.000,418,165,163,165,162,2025-05-24T00:08:27.068344
17631,0.0000,0.0000,0.0000,0.000,0.000,0.000,409,190,193,199,196,2025-05-24T00:08:27.068359
17632,0.0000,0.0000,0.0000,0.000,0.000,0.000,397,145,143,153,151,2025-05-24T00:08:27.068502
17633,0.0000,0.0000,0.0000,0.000,0.000,0.000,410,185,178,183,180,2025-05-24T00:08:27.068514
17634,0.0000,0.0000,0.0000,0.000,0.000,0.000,343,143,148,160,160,2025-05-24T00:08:27.068527
17635,0.0000,0.0000,0.0000,0.000,0.000,0.000,339,183,180,178,175,2025-05-24T00:08:27.068537
17636,0.0000,0.0000,0.0000,0.000,0.000,0.000,393,155,162,174,179,2025-05-24T00:08:27.068547
17637,0.0000,0.0000,0.0000,0.000,0.000,0.000,404,187,181,182,173,2025-05-24T00:08:27.068557
17638,0.0000,0.0000,0.0000,0.000,0.000,0.000,410,176,181,193,197,2025-05-24T00:08:27.068566
17639,0.0000,0.0000,0.0000,0.000,0.000,0.000,402,165,161,163,160,2025-05-24T00:08:27.068575
17640,0.0000,0.0000,0.0000,0.000,0.000,0.000,422,173,173,182,184,2025-05-24T00:08:27.068584
17641,0.0000,0.0000,0.0000,0.000,0.000,0.000,352,144,139,147,143,2025-05-24T00:08:27.269494
17642,0.0000,0.0000,0.0000,0.000,0.000,0.000,399,179,178,192,196,2025-05-24T00:08:27.269564
17643,0.0000,0.0000,0.0000,0.000,0.000,0.000,414,146,144,149,151,2025-05-24T00:08:27.269585
17644,0.0000,0.0000,0.0000,0.000,0.000,0.000,389,195,199,196,190,2025-05-24T00:08:27.269600
17645,0.0000,0.0000,0.0000,0.000,0.000,0.000,418,143,146,151,156,2025-05-24T00:08:27.269615
17646,0.0000,0.0000,0.0000,0.000,0.000,0.000,382,195,190,193,186,2025-05-24T00:08:27.269629
17647,0.0000,0.0000,0.0000,0.000,0.000,0.000,401,148,156,166,171,2025-05-24T00:08:27.269643
17648,0.0000,0.0000,0.0000,0.000,0.000,0.000,342,187,181,173,167,2025-05-24T00:08:27.269657
17649,0.0000,0.0000,0.0000,0.000,0.000,0.000,395,147,149,164,169,2025-05-24T00:08:27.269670
17650,0.0000,0.0000,0.0000,0.000,0.000,0.000,422,162,160,162,154,2025-05-24T00:08:27.269682
17651,0.0000,0.0000,0.0000,0.000,0.000,0.000,413,158,160,177,179,2025-05-24T00:08:27.269694
17652,0.0000,0.0000,0.0000,0.000,0.000,0.000,426,152,147,146,147,2025-05-24T00:08:27.269707
17653,0.0000,0.0000,0.0000,0.000,0.000,0.000,421,169,176,188,191,2025-05-24T00:08:27.269724
17654,0.0000,0.0000,0.0000,0.000,0.000,0.000,427,142,144,144,137,2025-05-24T00:08:27.269738
17655,0.0000,0.0000,0.0000,0.000,0.000,0.000,421,183,183,199,198,2025-05-24T00:08:27.269750
17656,0.0000,0.0000,0.0000,0.000,0.000,0.000,351,144,143,146,154,2025-05-24T00:08:27.397634
17657,0.0000,0.0000,0.0000,0.000,0.000,0.000,395,202,203,205,198,2025-05-24T00:08:27.397666
17658,0.0000,0.0000,0.0000,0.000,0.000,0.000,390,135,143,154,153,2025-05-24T00:08:27.397677
17659,0.0000,0.0000,0.0000,0.000,0.000,0.000,405,191,180,185,175,2025-05-24T00:08:27.503967
17660,0.0000,0.0000,0.0000,0.000,0.000,0.000,393,147,142,165,164,2025-05-24T00:08:27.504015
17661,0.0000,0.0000,0.0000,0.000,0.000,0.000,399,181,175,175,158,2025-05-24T00:08:27.504027
17662,0.0000,0.0000,0.0000,0.000,0.000,0.000,405,162,164,182,187,2025-05-24T00:08:27.504038
17663,0.0000,0.0000,0.0000,0.000,0.000,0.000,406,165,146,151,151,2025-05-24T00:08:27.504048
17664,0.0000,0.0000,0.0000,0.000,0.000,0.000,387,175,185,193,197,2025-05-24T00:08:27.504058
17665,0.0000,0.0000,0.0000,0.000,0.000,0.000,407,151,145,146,146,2025-05-24T00:08:27.504067
17666,0.0000,0.0000,0.0000,0.000,0.000,0.000,397,190,198,210,212,2025-05-24T00:08:27.504078
17667,0.0000,0.0000,0.0000,0.000,0.000,0.000,367,146,139,148,153,2025-05-24T00:08:27.504089
17668,0.0000,0.0000,0.0000,0.000,0.000,0.000,398,202,202,203,193,2025-05-24T00:08:27.504097
17669,0.0000,0.0000,0.0000,0.000,0.000,0.000,384,140,143,155,152,2025-05-24T00:08:27.504106
17670,0.0000,0.0000,0.0000,0.000,0.000,0.000,374,204,198,201,190,2025-05-24T00:08:27.504115
17671,0.0000,0.0000,0.0000,0.000,0.000,0.000,331,150,155,170,173,2025-05-24T00:08:27.504124
17672,0.0000,0.0000,0.0000,0.000,0.000,0.000,370,199,190,185,178,2025-05-24T00:08:27.504133
17673,0.0000,0.0000,0.0000,0.000,0.000,0.000,408,159,161,177,182,2025-05-24T00:08:27.504141
17674,0.0000,0.0000,0.0000,0.000,0.000,0.000,422,181,172,165,157,2025-05-24T00:08:27.504149
17675,0.0000,0.0000,0.0000,0.000,0.000,0.000,398,177,176,186,195,2025-05-24T00:08:27.504189
17676,0.0000,0.0000,0.0000,0.000,0.000,0.000,397,166,160,165,159,2025-05-24T00:08:27.504198
17677,0.0000,0.0000,0.0000,0.000,0.000,0.000,419,192,194,205,209,2025-05-24T00:08:27.504207
17678,0.0000,0.0000,0.0000,0.000,0.000,0.000,398,154,152,156,151,2025-05-24T00:08:27.689350
17679,0.0000,0.0000,0.0000,0.000,0.000,0.000,390,200,205,212,203,2025-05-24T00:08:27.689399
17680,0.0000,0.0000,0.0000,0.000,0.000,0.000,418,134,135,140,149,2025-05-24T00:08:27.689411
17681,0.0000,0.0000,0.0000,0.000,0.000,0.000,430,210,202,204,187,2025-05-24T00:08:27.689422
17682,0.0000,0.0000,0.0000,0.000,0.000,0.000,417,329,142,158,159,2025-05-24T00:08:27.689432
17683,0.0000,0.0000,0.0000,0.000,0.000,0.000,402,390,181,178,173,2025-05-24T00:08:27.689442
17684,0.0000,0.0000,0.0000,0.000,0.000,0.000,384,400,135,151,164,2025-05-24T00:08:27.689454
17685,0.0000,0.0000,0.0000,0.000,0.000,0.000,414,355,163,165,154,2025-05-24T00:08:27.689463
17686,0.0000,0.0000,0.0000,0.000,0.000,0.000,403,386,156,174,182,2025-05-24T00:08:27.689472
17687,0.0000,0.0000,0.0000,0.000,0.000,0.000,399,404,139,144,144,2025-05-24T00:08:27.689481
17688,0.0000,0.0000,0.0000,0.000,0.000,0.000,352,348,167,184,183,2025-05-24T00:08:27.689490
17689,0.0000,0.0000,0.0000,0.000,0.000,0.000,393,402,133,141,140,2025-05-24T00:08:27.689498
17690,0.0000,0.0000,0.0000,0.000,0.000,0.000,418,430,175,196,197,2025-05-24T00:08:27.689507
17691,0.0000,0.0000,0.0000,0.000,0.000,0.000,419,391,124,137,147,2025-05-24T00:08:27.689515
17692,0.0000,0.0000,0.0000,0.000,0.000,0.000,417,399,192,202,201,2025-05-24T00:08:27.689523
17693,0.0000,0.0000,0.0000,0.000,0.000,0.000,406,402,123,141,155,2025-05-24T00:08:27.689563
17694,0.0000,0.0000,0.0000,0.000,0.000,0.000,390,346,174,181,183,2025-05-24T00:08:27.689573
17695,0.0000,0.0000,0.0000,0.000,0.000,0.000,408,337,121,142,163,2025-05-24T00:08:27.689584
17696,0.0000,0.0000,0.0000,0.000,0.000,0.000,391,402,166,167,290,2025-05-24T00:08:27.689592
17697,0.0000,0.0000,0.0000,0.000,0.000,0.000,393,399,133,149,340,2025-05-24T00:08:27.689601
17698,0.0000,0.0000,0.0000,0.000,0.000,0.000,386,426,136,137,373,2025-05-24T00:08:27.689610
17699,0.0000,0.0000,0.0000,0.000,0.000,0.000,412,421,141,162,409,2025-05-24T00:08:27.880954
17700,0.0000,0.0000,0.0000,0.000,0.000,0.000,417,422,113,124,392,2025-05-24T00:08:27.881004
17701,0.0000,0.0000,0.0000,0.000,0.000,0.000,435,351,147,164,315,2025-05-24T00:08:27.881018
17702,0.0000,0.0000,0.0000,0.000,0.000,0.000,404,408,258,102,369,2025-05-24T00:08:27.881029
17703,0.0000,0.0000,0.0000,0.000,0.000,0.000,415,395,331,159,385,2025-05-24T00:08:27.881041
17704,0.0000,0.0000,0.0000,0.000,0.000,0.000,342,340,362,288,394,2025-05-24T00:08:27.881052
17705,0.0000,0.0000,0.0000,0.000,0.000,0.000,390,423,390,381,400,2025-05-24T00:08:27.881067
17706,0.0000,0.0000,0.0000,0.000,0.000,0.000,405,401,377,380,364,2025-05-24T00:08:27.881077
17707,0.0000,0.0000,0.0000,0.000,0.000,0.000,431,391,389,393,381,2025-05-24T00:08:27.881087
17708,0.0000,0.0000,0.0000,0.000,0.000,0.000,426,345,386,410,396,2025-05-24T00:08:27.881096
17709,0.0000,0.0000,0.0000,0.000,0.000,0.000,393,323,382,356,389,2025-05-24T00:08:27.881105
17710,0.0000,0.0000,0.0000,0.000,0.000,0.000,331,387,384,387,399,2025-05-24T00:08:27.881115
17711,0.0000,0.0000,0.0000,0.000,0.000,0.000,401,409,392,385,349,2025-05-24T00:08:27.881129
17712,0.0000,0.0000,0.0000,0.000,0.000,0.000,385,423,381,404,361,2025-05-24T00:08:27.881139
17713,0.0000,0.0000,0.0000,0.000,0.000,0.000,398,425,374,416,340,2025-05-24T00:08:27.881148
17714,0.0000,0.0000,0.0000,0.000,0.000,0.000,355,410,348,361,385,2025-05-24T00:08:27.881190
17715,0.0000,0.0000,0.0000,0.000,0.000,0.000,381,421,360,385,381,2025-05-24T00:08:27.881200
17716,0.0000,0.0000,0.0000,0.000,0.000,0.000,406,418,371,390,386,2025-05-24T00:08:28.085869
17717,0.0000,0.0000,0.0000,0.000,0.000,0.000,399,392,369,338,344,2025-05-24T00:08:28.085915
17718,0.0000,0.0000,0.0000,0.000,0.000,0.000,412,422,383,366,390,2025-05-24T00:08:28.085927
17719,0.0000,0.0000,0.0000,0.000,0.000,0.000,428,389,389,406,354,2025-05-24T00:08:28.085940
17720,0.0000,0.0000,0.0000,0.000,0.000,0.000,380,428,396,392,378,2025-05-24T00:08:28.086192
17721,0.0000,0.0000,0.0000,0.000,0.000,0.000,371,405,392,368,392,2025-05-24T00:08:28.086203
17722,0.0000,0.0000,0.0000,0.000,0.000,0.000,403,404,359,395,391,2025-05-24T00:08:28.086214
17723,0.0000,0.0000,0.0000,0.000,0.000,0.000,411,407,360,367,397,2025-05-24T00:08:28.086225
17724,0.0000,0.0000,0.0000,0.000,0.000,0.000,395,406,371,398,414,2025-05-24T00:08:28.086235
17725,0.0000,0.0000,0.0000,0.000,0.000,0.000,403,412,379,394,409,2025-05-24T00:08:28.086244
17726,0.0000,0.0000,0.0000,0.000,0.000,0.000,402,425,384,365,387,2025-05-24T00:08:28.086253
17727,0.0000,0.0000,0.0000,0.000,0.000,0.000,401,415,386,381,401,2025-05-24T00:08:28.086263
17728,0.0000,0.0000,0.0000,0.000,0.000,0.000,410,403,378,408,409,2025-05-24T00:08:28.086272
17729,0.0000,0.0000,0.0000,0.000,0.000,0.000,397,408,379,404,396,2025-05-24T00:08:28.086281
17730,0.0000,0.0000,0.0000,0.000,0.000,0.000,415,386,375,401,391,2025-05-24T00:08:28.086290
17731,0.0000,0.0000,0.0000,0.000,0.000,0.000,343,408,358,400,407,2025-05-24T00:08:28.086337
17732,0.0000,0.0000,0.0000,0.000,0.000,0.000,381,427,372,365,396,2025-05-24T00:08:28.086347
17733,0.0000,0.0000,0.0000,0.000,0.000,0.000,393,423,366,387,413,2025-05-24T00:08:28.086357
17734,0.0000,0.0000,0.0000,0.000,0.000,0.000,396,410,379,400,374,2025-05-24T00:08:28.086366
17735,0.0000,0.0000,0.0000,0.000,0.000,0.000,363,407,387,391,395,2025-05-24T00:08:28.140599
17736,0.0000,0.0000,0.0000,0.000,0.000,0.000,415,423,386,412,410,2025-05-24T00:08:28.140648
17737,0.0000,0.0000,0.0000,0.000,0.000,0.000,419,393,375,397,406,2025-05-24T00:08:28.140660
17738,0.0000,0.0000,0.0000,0.000,0.000,0.000,406,400,343,398,397,2025-05-24T00:08:28.140670
17739,0.0000,0.0000,0.0000,0.000,0.000,0.000,427,413,362,395,392,2025-05-24T00:08:28.140680
17740,0.0000,0.0000,0.0000,0.000,0.000,0.000,426,406,379,410,410,2025-05-24T00:08:28.191645
17741,0.0000,0.0000,0.0000,0.000,0.000,0.000,405,390,338,348,405,2025-05-24T00:08:28.191678
17742,0.0000,0.0000,0.0000,0.000,0.000,0.000,387,420,372,349,407,2025-05-24T00:08:28.191685
17743,0.0000,0.0000,0.0000,0.000,0.000,0.000,390,428,335,322,362,2025-05-24T00:08:28.191693
17744,0.0000,0.0000,0.0000,0.000,0.000,0.000,415,419,361,386,400,2025-05-24T00:08:28.191699
17745,0.0000,0.0000,0.0000,0.000,0.000,0.000,435,415,374,382,411,2025-05-24T00:08:28.317986
17746,0.0000,0.0000,0.0000,0.000,0.000,0.000,415,398,346,347,388,2025-05-24T00:08:28.318045
17747,0.0000,0.0000,0.0000,0.000,0.000,0.000,422,377,367,374,405,2025-05-24T00:08:28.318059
17748,0.0000,0.0000,0.0000,0.000,0.000,0.000,427,399,377,378,353,2025-05-24T00:08:28.318071
17749,0.0000,0.0000,0.0000,0.000,0.000,0.000,412,398,393,389,375,2025-05-24T00:08:28.318082
17750,0.0000,0.0000,0.0000,0.000,0.000,0.000,394,423,372,345,370,2025-05-24T00:08:28.318092
17751,0.0000,0.0000,0.0000,0.000,0.000,0.000,416,360,371,383,399,2025-05-24T00:08:28.318105
17752,0.0000,0.0000,0.0000,0.000,0.000,0.000,389,326,349,379,380,2025-05-24T00:08:28.318115
17753,0.0000,0.0000,0.0000,0.000,0.000,0.000,405,411,330,387,401,2025-05-24T00:08:28.318125
17754,0.0000,0.0000,0.0000,0.000,0.000,0.000,419,387,343,396,351,2025-05-24T00:08:28.318169
17755,0.0000,0.0000,0.0000,0.000,0.000,0.000,393,398,364,407,382,2025-05-24T00:08:28.318188
17756,0.0000,0.0000,0.0000,0.000,0.000,0.000,338,424,338,392,384,2025-05-24T00:08:28.318198
17757,0.0000,0.0000,0.0000,0.000,0.000,0.000,407,422,380,403,401,2025-05-24T00:08:28.369839
17758,0.0000,0.0000,0.0000,0.000,0.000,0.000,395,415,372,412,392,2025-05-24T00:08:28.369885
17759,0.0000,0.0000,0.0000,0.000,0.000,0.000,344,359,371,386,386,2025-05-24T00:08:28.369897
17760,0.0000,0.0000,0.0000,0.000,0.000,0.000,383,400,347,378,400,2025-05-24T00:08:28.369906
17761,0.0000,0.0000,0.0000,0.000,0.000,0.000,396,414,360,389,400,2025-05-24T00:08:28.418510
17762,0.0000,0.0000,0.0000,0.000,0.000,0.000,340,423,373,389,406,2025-05-24T00:08:28.418559
17763,0.0000,0.0000,0.0000,0.000,0.000,0.000,333,388,381,378,396,2025-05-24T00:08:28.418571
17764,0.0000,0.0000,0.0000,0.000,0.000,0.000,401,338,376,406,416,2025-05-24T00:08:28.418581
17765,0.0000,0.0000,0.0000,0.000,0.000,0.000,407,398,372,401,416,2025-05-24T00:08:28.418591
17766,0.0000,0.0000,0.0000,0.000,0.000,0.000,399,398,387,399,419,2025-05-24T00:08:28.500733
17767,0.0000,0.0000,0.0000,0.000,0.000,0.000,395,416,392,374,366,2025-05-24T00:08:28.500898
17768,0.0000,0.0000,0.0000,0.000,0.000,0.000,414,430,388,396,350,2025-05-24T00:08:28.500911
17769,0.0000,0.0000,0.0000,0.000,0.000,0.000,422,427,387,405,379,2025-05-24T00:08:28.500922
17770,0.0000,0.0000,0.0000,0.000,0.000,0.000,402,409,393,392,395,2025-05-24T00:08:28.500932
17771,0.0000,0.0000,0.0000,0.000,0.000,0.000,383,341,384,350,369,2025-05-24T00:08:28.500940
17772,0.0000,0.0000,0.0000,0.000,0.000,0.000,334,396,393,386,400,2025-05-24T00:08:28.500949
17773,0.0000,0.0000,0.0000,0.000,0.000,0.000,406,429,389,405,351,2025-05-24T00:08:28.500957
17774,0.0000,0.0000,0.0000,0.000,0.000,0.000,416,434,378,409,389,2025-05-24T00:08:28.546834
17775,0.0000,0.0000,0.0000,0.000,0.000,0.000,401,403,391,414,356,2025-05-24T00:08:28.546879
17776,0.0000,0.0000,0.0000,0.000,0.000,0.000,354,428,343,342,330,2025-05-24T00:08:28.546890
17777,0.0000,0.0000,0.0000,0.000,0.000,0.000,406,428,369,393,385,2025-05-24T00:08:28.546899
17778,0.0000,0.0000,0.0000,0.000,0.000,0.000,403,402,385,386,395,2025-05-24T00:08:28.603935
17779,0.0000,0.0000,0.0000,0.000,0.000,0.000,412,376,398,415,383,2025-05-24T00:08:28.603968
17780,0.0000,0.0000,0.0000,0.000,0.000,0.000,400,397,388,371,385,2025-05-24T00:08:28.603974
17781,0.0000,0.0000,0.0000,0.000,0.000,0.000,398,359,389,383,377,2025-05-24T00:08:28.603979
17782,0.0000,0.0000,0.0000,0.000,0.000,0.000,420,337,381,402,382,2025-05-24T00:08:28.603984
17783,0.0000,0.0000,0.0000,0.000,0.000,0.000,421,409,394,390,304,2025-05-24T00:08:28.698510
17784,0.0000,0.0000,0.0000,0.000,0.000,0.000,387,409,386,400,322,2025-05-24T00:08:28.698553
17785,0.0000,0.0000,0.0000,0.000,0.000,0.000,423,410,386,386,353,2025-05-24T00:08:28.698564
17786,0.0000,0.0000,0.0000,0.000,0.000,0.000,418,427,376,398,398,2025-05-24T00:08:28.698573
17787,0.0000,0.0000,0.0000,0.000,0.000,0.000,435,405,338,406,400,2025-05-24T00:08:28.698581
17788,0.0000,0.0000,0.0000,0.000,0.000,0.000,433,396,366,422,418,2025-05-24T00:08:28.698590
17789,0.0000,0.0000,0.0000,0.000,0.000,0.000,431,404,343,405,399,2025-05-24T00:08:28.698598
17790,0.0000,0.0000,0.0000,0.000,0.000,0.000,407,394,365,414,413,2025-05-24T00:08:28.698606
17791,0.0000,0.0000,0.0000,0.000,0.000,0.000,400,424,385,409,407,2025-05-24T00:08:28.698614
17792,0.0000,0.0000,0.0000,0.000,0.000,0.000,395,405,388,378,400,2025-05-24T00:08:28.908690
17793,0.0000,0.0000,0.0000,0.000,0.000,0.000,361,405,376,397,407,2025-05-24T00:08:28.908739
17794,0.0000,0.0000,0.0000,0.000,0.000,0.000,381,401,390,407,409,2025-05-24T00:08:28.908752
17795,0.0000,0.0000,0.0000,0.000,0.000,0.000,397,425,343,413,399,2025-05-24T00:08:28.908763
17796,0.0000,0.0000,0.0000,0.000,0.000,0.000,411,416,368,398,393,2025-05-24T00:08:28.908773
17797,0.0000,0.0000,0.0000,0.000,0.000,0.000,412,420,348,390,417,2025-05-24T00:08:28.908783
17798,0.0000,0.0000,0.0000,0.000,0.000,0.000,391,404,376,392,407,2025-05-24T00:08:28.908793
17799,0.0000,0.0000,0.0000,0.000,0.000,0.000,412,419,372,357,396,2025-05-24T00:08:28.908803
17800,0.0000,0.0000,0.0000,0.000,0.000,0.000,410,385,376,384,361,2025-05-24T00:08:28.908812
17801,0.0000,0.0000,0.0000,0.000,0.000,0.000,421,425,387,388,391,2025-05-24T00:08:28.908821
17802,0.0000,0.0000,0.0000,0.000,0.000,0.000,410,433,379,376,384,2025-05-24T00:08:28.908830
17803,0.0000,0.0000,0.0000,0.000,0.000,0.000,419,414,390,393,381,2025-05-24T00:08:28.908842
17804,0.0000,0.0000,0.0000,0.000,0.000,0.000,420,416,392,365,388,2025-05-24T00:08:28.908851
17805,0.0000,0.0000,0.0000,0.000,0.000,0.000,308,429,393,378,362,2025-05-24T00:08:28.908860
17806,0.0000,0.0000,0.0000,0.000,0.000,0.000,377,432,348,343,334,2025-05-24T00:08:29.059262
17807,0.0000,0.0000,0.0000,0.000,0.000,0.000,386,411,366,334,346,2025-05-24T00:08:29.059355
17808,0.0000,0.0000,0.0000,0.000,0.000,0.000,423,399,360,350,387,2025-05-24T00:08:29.059395
17809,0.0000,0.0000,0.0000,0.000,0.000,0.000,429,414,339,323,394,2025-05-24T00:08:29.059406
17810,0.0000,0.0000,0.0000,0.000,0.000,0.000,408,430,327,386,419,2025-05-24T00:08:29.059415
17811,0.0000,0.0000,0.0000,0.000,0.000,0.000,394,399,312,395,406,2025-05-24T00:08:29.127565
17812,0.0000,0.0000,0.0000,0.000,0.000,0.000,395,409,356,410,367,2025-05-24T00:08:29.127616
17813,0.0000,0.0000,0.0000,0.000,0.000,0.000,416,408,339,383,369,2025-05-24T00:08:29.127628
17814,0.0000,0.0000,0.0000,0.000,0.000,0.000,408,426,364,369,382,2025-05-24T00:08:29.127640
17815,0.0000,0.0000,0.0000,0.000,0.000,0.000,397,407,364,389,396,2025-05-24T00:08:29.127650
17816,0.0000,0.0000,0.0000,0.000,0.000,0.000,359,419,338,374,412,2025-05-24T00:08:29.127661
17817,0.0000,0.0000,0.0000,0.000,0.000,0.000,407,419,365,392,412,2025-05-24T00:08:29.127672
17818,0.0000,0.0000,0.0000,0.000,0.000,0.000,396,390,333,407,402,2025-05-24T00:08:29.127682
17819,0.0000,0.0000,0.0000,0.000,0.000,0.000,408,422,367,384,389,2025-05-24T00:08:29.127692
17820,0.0000,0.0000,0.0000,0.000,0.000,0.000,399,393,376,404,390,2025-05-24T00:08:29.127702
17821,0.0000,0.0000,0.0000,0.000,0.000,0.000,420,379,379,411,394,2025-05-24T00:08:29.127713
17822,0.0000,0.0000,0.0000,0.000,0.000,0.000,422,426,343,388,346,2025-05-24T00:08:29.127723
17823,0.0000,0.0000,0.0000,0.000,0.000,0.000,423,404,358,408,355,2025-05-24T00:08:29.127732
17824,0.0000,0.0000,0.0000,0.000,0.000,0.000,402,414,364,372,386,2025-05-24T00:08:29.127980
17825,0.0000,0.0000,0.0000,0.000,0.000,0.000,379,425,370,390,411,2025-05-24T00:08:29.127990
17826,0.0000,0.0000,0.0000,0.000,0.000,0.000,334,417,367,401,413,2025-05-24T00:08:29.128038
17827,0.0000,0.0000,0.0000,0.000,0.000,0.000,380,437,370,420,377,2025-05-24T00:08:29.128049
17828,0.0000,0.0000,0.0000,0.000,0.000,0.000,389,399,366,400,398,2025-05-24T00:08:29.128058
17829,0.0000,0.0000,0.0000,0.000,0.000,0.000,363,336,375,397,390,2025-05-24T00:08:29.128069
17830,0.0000,0.0000,0.0000,0.000,0.000,0.000,391,385,366,386,404,2025-05-24T00:08:29.128078
17831,0.0000,0.0000,0.0000,0.000,0.000,0.000,425,424,377,409,404,2025-05-24T00:08:29.177183
17832,0.0000,0.0000,0.0000,0.000,0.000,0.000,405,413,379,397,393,2025-05-24T00:08:29.177235
17833,0.0000,0.0000,0.0000,0.000,0.000,0.000,415,403,384,392,401,2025-05-24T00:08:29.177247
17834,0.0000,0.0000,0.0000,0.000,0.000,0.000,414,380,363,345,388,2025-05-24T00:08:29.177258
17835,0.0000,0.0000,0.0000,0.000,0.000,0.000,386,352,382,376,359,2025-05-24T00:08:29.177268
17836,0.0000,0.0000,0.0000,0.000,0.000,0.000,336,404,346,391,393,2025-05-24T00:08:29.224733
17837,0.0000,0.0000,0.0000,0.000,0.000,0.000,329,401,368,404,383,2025-05-24T00:08:29.224763
17838,0.0000,0.0000,0.0000,0.000,0.000,0.000,398,383,371,410,413,2025-05-24T00:08:29.224769
17839,0.0000,0.0000,0.0000,0.000,0.000,0.000,412,367,367,350,388,2025-05-24T00:08:29.224774
17840,0.0000,0.0000,0.0000,0.000,0.000,0.000,411,397,378,399,389,2025-05-24T00:08:29.271916
17841,0.0000,0.0000,0.0000,0.000,0.000,0.000,419,404,385,389,387,2025-05-24T00:08:29.271950
17842,0.0000,0.0000,0.0000,0.000,0.000,0.000,408,360,398,353,388,2025-05-24T00:08:29.271957
17843,0.0000,0.0000,0.0000,0.000,0.000,0.000,298,366,358,406,394,2025-05-24T00:08:29.271964
17844,0.0000,0.0000,0.0000,0.000,0.000,0.000,370,392,342,406,412,2025-05-24T00:08:29.271972
17845,0.0000,0.0000,0.0000,0.000,0.000,0.000,415,400,364,428,403,2025-05-24T00:08:29.319662
17846,0.0000,0.0000,0.0000,0.000,0.000,0.000,398,396,365,389,388,2025-05-24T00:08:29.319707
17847,0.0000,0.0000,0.0000,0.000,0.000,0.000,398,393,383,415,419,2025-05-24T00:08:29.319719
17848,0.0000,0.0000,0.0000,0.000,0.000,0.000,388,376,372,400,406,2025-05-24T00:08:29.319729
17849,0.0000,0.0000,0.0000,0.000,0.000,0.000,407,383,384,417,395,2025-05-24T00:08:29.517482
17850,0.0000,0.0000,0.0000,0.000,0.000,0.000,386,423,340,409,341,2025-05-24T00:08:29.517548
17851,0.0000,0.0000,0.0000,0.000,0.000,0.000,411,351,325,394,356,2025-05-24T00:08:29.517568
17852,0.0000,0.0000,0.0000,0.000,0.000,0.000,345,393,353,386,370,2025-05-24T00:08:29.517585
17853,0.0000,0.0000,0.0000,0.000,0.000,0.000,421,336,360,411,375,2025-05-24T00:08:29.517601
17854,0.0000,0.0000,0.0000,0.000,0.000,0.000,405,327,362,407,391,2025-05-24T00:08:29.517617
17855,0.0000,0.0000,0.0000,0.000,0.000,0.000,401,375,367,411,382,2025-05-24T00:08:29.517631
17856,0.0000,0.0000,0.0000,0.000,0.000,0.000,415,333,364,419,399,2025-05-24T00:08:29.518007
17857,0.0000,0.0000,0.0000,0.000,0.000,0.000,390,386,370,410,412,2025-05-24T00:08:29.518026
17858,0.0000,0.0000,0.0000,0.000,0.000,0.000,367,330,384,404,413,2025-05-24T00:08:29.518042
17859,0.0000,0.0000,0.0000,0.000,0.000,0.000,406,344,377,411,395,2025-05-24T00:08:29.518058
17860,0.0000,0.0000,0.0000,0.000,0.000,0.000,394,360,387,397,412,2025-05-24T00:08:29.518072
17861,0.0000,0.0000,0.0000,0.000,0.000,0.000,386,403,382,407,405,2025-05-24T00:08:29.518093
17862,0.0000,0.0000,0.0000,0.000,0.000,0.000,340,408,378,352,398,2025-05-24T00:08:29.518107
17863,0.0000,0.0000,0.0000,0.000,0.000,0.000,398,379,375,372,392,2025-05-24T00:08:29.518121
17864,0.0000,0.0000,0.0000,0.000,0.000,0.000,353,403,368,399,405,2025-05-24T00:08:29.518183
17865,0.0000,0.0000,0.0000,0.000,0.000,0.000,327,421,385,390,361,2025-05-24T00:08:29.518204
17866,0.0000,0.0000,0.0000,0.000,0.000,0.000,396,414,357,342,388,2025-05-24T00:08:29.518222
17867,0.0000,0.0000,0.0000,0.000,0.000,0.000,354,402,363,386,354,2025-05-24T00:08:29.757574
17868,0.0000,0.0000,0.0000,0.000,0.000,0.000,408,420,380,361,368,2025-05-24T00:08:29.757624
17869,0.0000,0.0000,0.0000,0.000,0.000,0.000,404,379,367,383,394,2025-05-24T00:08:29.757638
17870,0.0000,0.0000,0.0000,0.000,0.000,0.000,427,416,378,405,408,2025-05-24T00:08:29.757649
17871,0.0000,0.0000,0.0000,0.000,0.000,0.000,369,424,395,399,390,2025-05-24T00:08:29.757659
17872,0.0000,0.0000,0.0000,0.000,0.000,0.000,333,393,372,394,355,2025-05-24T00:08:29.757670
17873,0.0000,0.0000,0.0000,0.000,0.000,0.000,395,398,340,359,371,2025-05-24T00:08:29.757681
17874,0.0000,0.0000,0.0000,0.000,0.000,0.000,401,339,346,393,340,2025-05-24T00:08:29.757691
17875,0.0000,0.0000,0.0000,0.000,0.000,0.000,397,381,377,392,339,2025-05-24T00:08:29.757701
17876,0.0000,0.0000,0.0000,0.000,0.000,0.000,412,414,378,389,379,2025-05-24T00:08:29.757710
17877,0.0000,0.0000,0.0000,0.000,0.000,0.000,404,387,371,406,404,2025-05-24T00:08:29.757719
17878,0.0000,0.0000,0.0000,0.000,0.000,0.000,412,364,376,393,408,2025-05-24T00:08:29.757729
17879,0.0000,0.0000,0.0000,0.000,0.000,0.000,345,328,372,392,397,2025-05-24T00:08:29.757738
17880,0.0000,0.0000,0.0000,0.000,0.000,0.000,402,337,387,412,412,2025-05-24T00:08:29.757746
17881,0.0000,0.0000,0.0000,0.000,0.000,0.000,411,385,345,410,395,2025-05-24T00:08:29.757758
17882,0.0000,0.0000,0.0000,0.000,0.000,0.000,406,343,361,418,396,2025-05-24T00:08:29.757799
17883,0.0000,0.0000,0.0000,0.000,0.000,0.000,362,417,380,410,397,2025-05-24T00:08:29.757809
17884,0.0000,0.0000,0.0000,0.000,0.000,0.000,381,402,381,412,402,2025-05-24T00:08:29.757818
17885,0.0000,0.0000,0.0000,0.000,0.000,0.000,393,425,383,400,347,2025-05-24T00:08:29.757827
17886,0.0000,0.0000,0.0000,0.000,0.000,0.000,395,420,355,403,365,2025-05-24T00:08:29.939602
17887,0.0000,0.0000,0.0000,0.000,0.000,0.000,406,414,342,352,393,2025-05-24T00:08:29.939654
17888,0.0000,0.0000,0.0000,0.000,0.000,0.000,404,379,356,339,394,2025-05-24T00:08:29.939668
17889,0.0000,0.0000,0.0000,0.000,0.000,0.000,398,334,366,396,406,2025-05-24T00:08:29.939680
17890,0.0000,0.0000,0.0000,0.000,0.000,0.000,341,398,381,390,409,2025-05-24T00:08:29.939691
17891,0.0000,0.0000,0.0000,0.000,0.000,0.000,329,400,383,393,413,2025-05-24T00:08:29.939702
17892,0.0000,0.0000,0.0000,0.000,0.000,0.000,375,406,379,418,396,2025-05-24T00:08:29.939713
17893,0.0000,0.0000,0.0000,0.000,0.000,0.000,367,415,342,397,402,2025-05-24T00:08:29.939723
17894,0.0000,0.0000,0.0000,0.000,0.000,0.000,422,395,366,416,398,2025-05-24T00:08:29.939733
17895,0.0000,0.0000,0.0000,0.000,0.000,0.000,424,422,387,392,391,2025-05-24T00:08:29.939742
17896,0.0000,0.0000,0.0000,0.000,0.000,0.000,419,417,373,394,409,2025-05-24T00:08:29.939752
17897,0.0000,0.0000,0.0000,0.000,0.000,0.000,341,400,370,411,395,2025-05-24T00:08:29.939762
17898,0.0000,0.0000,0.0000,0.000,0.000,0.000,367,408,380,377,385,2025-05-24T00:08:29.939772
17899,0.0000,0.0000,0.0000,0.000,0.000,0.000,406,364,334,356,307,2025-05-24T00:08:29.939781
17900,0.0000,0.0000,0.0000,0.000,0.000,0.000,409,415,345,390,362,2025-05-24T00:08:29.939790
17901,0.0000,0.0000,0.0000,0.000,0.000,0.000,403,406,359,405,374,2025-05-24T00:08:29.939834
17902,0.0000,0.0000,0.0000,0.000,0.000,0.000,421,400,364,419,400,2025-05-24T00:08:29.939845
17903,0.0000,0.0000,0.0000,0.000,0.000,0.000,406,407,377,427,393,2025-05-24T00:08:29.939855
17904,0.0000,0.0000,0.0000,0.000,0.000,0.000,415,407,382,410,346,2025-05-24T00:08:29.939865
17905,0.0000,0.0000,0.0000,0.000,0.000,0.000,416,388,386,399,371,2025-05-24T00:08:29.939877
17906,0.0000,0.0000,0.0000,0.000,0.000,0.000,426,376,397,415,394,2025-05-24T00:08:29.991689
17907,0.0000,0.0000,0.0000,0.000,0.000,0.000,360,356,399,406,412,2025-05-24T00:08:29.991736
17908,0.0000,0.0000,0.0000,0.000,0.000,0.000,365,406,389,392,365,2025-05-24T00:08:29.991748
17909,0.0000,0.0000,0.0000,0.000,0.000,0.000,388,425,387,401,393,2025-05-24T00:08:29.991757
17910,0.0000,0.0000,0.0000,0.000,0.000,0.000,405,395,383,408,400,2025-05-24T00:08:29.991767
17911,0.0000,0.0000,0.0000,0.000,0.000,0.000,370,417,383,390,349,2025-05-24T00:08:30.040043
17912,0.0000,0.0000,0.0000,0.000,0.000,0.000,417,420,393,382,383,2025-05-24T00:08:30.040068
17913,0.0000,0.0000,0.0000,0.000,0.000,0.000,421,402,359,412,306,2025-05-24T00:08:30.040073
17914,0.0000,0.0000,0.0000,0.000,0.000,0.000,404,423,376,412,369,2025-05-24T00:08:30.040077
17915,0.0000,0.0000,0.0000,0.000,0.000,0.000,428,423,389,423,373,2025-05-24T00:08:30.040081
17916,0.0000,0.0000,0.0000,0.000,0.000,0.000,423,408,400,380,394,2025-05-24T00:08:30.128996
17917,0.0000,0.0000,0.0000,0.000,0.000,0.000,415,404,350,408,358,2025-05-24T00:08:30.129316
17918,0.0000,0.0000,0.0000,0.000,0.000,0.000,431,393,360,412,354,2025-05-24T00:08:30.129343
17919,0.0000,0.0000,0.0000,0.000,0.000,0.000,369,416,346,423,374,2025-05-24T00:08:30.129355
17920,0.0000,0.0000,0.0000,0.000,0.000,0.000,394,415,355,351,384,2025-05-24T00:08:30.129365
17921,0.0000,0.0000,0.0000,0.000,0.000,0.000,346,426,360,336,358,2025-05-24T00:08:30.129377
17922,0.0000,0.0000,0.0000,0.000,0.000,0.000,391,417,369,386,400,2025-05-24T00:08:30.129386
17923,0.0000,0.0000,0.0000,0.000,0.000,0.000,357,398,385,394,406,2025-05-24T00:08:30.129396
17924,0.0000,0.0000,0.0000,0.000,0.000,0.000,404,420,358,408,357,2025-05-24T00:08:30.341523
17925,0.0000,0.0000,0.0000,0.000,0.000,0.000,415,424,334,397,382,2025-05-24T00:08:30.341575
17926,0.0000,0.0000,0.0000,0.000,0.000,0.000,406,424,353,404,359,2025-05-24T00:08:30.341587
17927,0.0000,0.0000,0.0000,0.000,0.000,0.000,397,419,361,403,332,2025-05-24T00:08:30.341598
17928,0.0000,0.0000,0.0000,0.000,0.000,0.000,358,434,366,409,365,2025-05-24T00:08:30.341608
17929,0.0000,0.0000,0.0000,0.000,0.000,0.000,400,417,385,411,381,2025-05-24T00:08:30.341618
17930,0.0000,0.0000,0.0000,0.000,0.000,0.000,391,415,376,375,376,2025-05-24T00:08:30.341627
17931,0.0000,0.0000,0.0000,0.000,0.000,0.000,382,351,374,355,396,2025-05-24T00:08:30.341636
17932,0.0000,0.0000,0.0000,0.000,0.000,0.000,401,404,391,398,372,2025-05-24T00:08:30.341645
17933,0.0000,0.0000,0.0000,0.000,0.000,0.000,413,393,396,420,382,2025-05-24T00:08:30.341656
17934,0.0000,0.0000,0.0000,0.000,0.000,0.000,354,429,394,378,384,2025-05-24T00:08:30.341665
17935,0.0000,0.0000,0.0000,0.000,0.000,0.000,366,387,379,342,386,2025-05-24T00:08:30.341674
17936,0.0000,0.0000,0.0000,0.000,0.000,0.000,406,415,382,375,399,2025-05-24T00:08:30.341683
17937,0.0000,0.0000,0.0000,0.000,0.000,0.000,388,427,370,401,407,2025-05-24T00:08:30.341692
17938,0.0000,0.0000,0.0000,0.000,0.000,0.000,392,423,382,415,413,2025-05-24T00:08:30.341700
17939,0.0000,0.0000,0.0000,0.000,0.000,0.000,404,429,386,428,420,2025-05-24T00:08:30.341737
17940,0.0000,0.0000,0.0000,0.000,0.000,0.000,374,403,384,361,408,2025-05-24T00:08:30.341746
17941,0.0000,0.0000,0.0000,0.000,0.000,0.000,349,418,389,385,411,2025-05-24T00:08:30.341755
17942,0.0000,0.0000,0.0000,0.000,0.000,0.000,391,398,384,391,416,2025-05-24T00:08:30.341763
17943,0.0000,0.0000,0.0000,0.000,0.000,0.000,361,388,347,379,413,2025-05-24T00:08:30.389479
17944,0.0000,0.0000,0.0000,0.000,0.000,0.000,383,413,366,404,420,2025-05-24T00:08:30.389525
17945,0.0000,0.0000,0.0000,0.000,0.000,0.000,417,412,303,409,408,2025-05-24T00:08:30.389651
17946,0.0000,0.0000,0.0000,0.000,0.000,0.000,427,404,300,412,395,2025-05-24T00:08:30.389661
17947,0.0000,0.0000,0.0000,0.000,0.000,0.000,412,421,304,408,388,2025-05-24T00:08:30.389671
17948,0.0000,0.0000,0.0000,0.000,0.000,0.000,379,395,345,424,406,2025-05-24T00:08:30.441847
17949,0.0000,0.0000,0.0000,0.000,0.000,0.000,404,431,369,403,396,2025-05-24T00:08:30.441894
17950,0.0000,0.0000,0.0000,0.000,0.000,0.000,344,383,335,389,398,2025-05-24T00:08:30.441905
17951,0.0000,0.0000,0.0000,0.000,0.000,0.000,392,372,356,347,406,2025-05-24T00:08:30.441915
17952,0.0000,0.0000,0.0000,0.000,0.000,0.000,411,412,349,380,403,2025-05-24T00:08:30.577305
17953,0.0000,0.0000,0.0000,0.000,0.000,0.000,401,407,352,389,351,2025-05-24T00:08:30.577355
17954,0.0000,0.0000,0.0000,0.000,0.000,0.000,419,412,360,363,328,2025-05-24T00:08:30.577369
17955,0.0000,0.0000,0.0000,0.000,0.000,0.000,406,399,370,399,373,2025-05-24T00:08:30.577381
17956,0.0000,0.0000,0.0000,0.000,0.000,0.000,417,420,382,358,382,2025-05-24T00:08:30.783294
17957,0.0000,0.0000,0.0000,0.000,0.000,0.000,419,395,381,381,406,2025-05-24T00:08:30.783370
17958,0.0000,0.0000,0.0000,0.000,0.000,0.000,412,420,388,409,351,2025-05-24T00:08:30.783384
17959,0.0000,0.0000,0.0000,0.000,0.000,0.000,415,431,378,420,353,2025-05-24T00:08:30.783393
17960,0.0000,0.0000,0.0000,0.000,0.000,0.000,418,425,383,410,383,2025-05-24T00:08:30.783402
17961,0.0000,0.0000,0.0000,0.000,0.000,0.000,407,407,379,396,392,2025-05-24T00:08:30.783411
17962,0.0000,0.0000,0.0000,0.000,0.000,0.000,354,420,357,409,388,2025-05-24T00:08:30.783419
17963,0.0000,0.0000,0.0000,0.000,0.000,0.000,369,417,360,401,379,2025-05-24T00:08:30.783428
17964,0.0000,0.0000,0.0000,0.000,0.000,0.000,380,402,377,404,359,2025-05-24T00:08:30.783438
17965,0.0000,0.0000,0.0000,0.000,0.000,0.000,384,426,373,399,372,2025-05-24T00:08:30.783498
17966,0.0000,0.0000,0.0000,0.000,0.000,0.000,370,430,376,393,401,2025-05-24T00:08:30.783510
17967,0.0000,0.0000,0.0000,0.000,0.000,0.000,415,425,385,343,380,2025-05-24T00:08:30.783521
17968,0.0000,0.0000,0.0000,0.000,0.000,0.000,372,375,385,389,386,2025-05-24T00:08:30.783531
17969,0.0000,0.0000,0.0000,0.000,0.000,0.000,373,397,386,369,398,2025-05-24T00:08:30.783540
17970,0.0000,0.0000,0.0000,0.000,0.000,0.000,412,423,380,359,390,2025-05-24T00:08:30.783550
17971,0.0000,0.0000,0.0000,0.000,0.000,0.000,426,408,386,401,386,2025-05-24T00:08:30.783560
17972,0.0000,0.0000,0.0000,0.000,0.000,0.000,388,401,382,400,409,2025-05-24T00:08:30.783569
17973,0.0000,0.0000,0.0000,0.000,0.000,0.000,414,425,380,416,358,2025-05-24T00:08:30.783579
17974,0.0000,0.0000,0.0000,0.000,0.000,0.000,408,433,385,397,389,2025-05-24T00:08:30.783588
17975,0.0000,0.0000,0.0000,0.000,0.000,0.000,410,447,385,400,307,2025-05-24T00:08:30.783597
17976,0.0000,0.0000,0.0000,0.000,0.000,0.000,390,438,392,406,369,2025-05-24T00:08:30.783605
17977,0.0000,0.0000,0.0000,0.000,0.000,0.000,392,415,389,415,372,2025-05-24T00:08:30.783614
17978,0.0000,0.0000,0.0000,0.000,0.000,0.000,380,402,393,421,398,2025-05-24T00:08:30.783624
17979,0.0000,0.0000,0.0000,0.000,0.000,0.000,401,410,398,318,410,2025-05-24T00:08:30.783636
17980,0.0000,0.0000,0.0000,0.000,0.000,0.000,374,343,381,362,395,2025-05-24T00:08:30.783663
17981,0.0000,0.0000,0.0000,0.000,0.000,0.000,402,336,347,380,408,2025-05-24T00:08:30.783672
17982,0.0000,0.0000,0.0000,0.000,0.000,0.000,358,416,367,379,392,2025-05-24T00:08:30.956867
17983,0.0000,0.0000,0.0000,0.000,0.000,0.000,386,438,343,394,351,2025-05-24T00:08:30.956980
17984,0.0000,0.0000,0.0000,0.000,0.000,0.000,391,426,365,343,373,2025-05-24T00:08:30.957000
17985,0.0000,0.0000,0.0000,0.000,0.000,0.000,395,430,382,385,384,2025-05-24T00:08:30.957012
17986,0.0000,0.0000,0.0000,0.000,0.000,0.000,419,402,383,398,392,2025-05-24T00:08:30.957025
17987,0.0000,0.0000,0.0000,0.000,0.000,0.000,429,413,390,407,379,2025-05-24T00:08:30.957037
17988,0.0000,0.0000,0.0000,0.000,0.000,0.000,421,417,395,387,387,2025-05-24T00:08:30.957048
17989,0.0000,0.0000,0.0000,0.000,0.000,0.000,408,382,393,379,392,2025-05-24T00:08:30.957059
17990,0.0000,0.0000,0.0000,0.000,0.000,0.000,343,409,393,408,367,2025-05-24T00:08:30.957070
17991,0.0000,0.0000,0.0000,0.000,0.000,0.000,400,375,392,414,389,2025-05-24T00:08:30.957080
17992,0.0000,0.0000,0.0000,0.000,0.000,0.000,412,354,389,413,405,2025-05-24T00:08:30.957090
17993,0.0000,0.0000,0.0000,0.000,0.000,0.000,398,406,400,424,398,2025-05-24T00:08:30.957100
17994,0.0000,0.0000,0.0000,0.000,0.000,0.000,421,401,385,412,414,2025-05-24T00:08:30.957110
17995,0.0000,0.0000,0.0000,0.000,0.000,0.000,411,418,392,411,397,2025-05-24T00:08:30.957124
17996,0.0000,0.0000,0.0000,0.000,0.000,0.000,403,404,350,350,385,2025-05-24T00:08:30.957134
17997,0.0000,0.0000,0.0000,0.000,0.000,0.000,387,396,341,397,393,2025-05-24T00:08:30.957185
17998,0.0000,0.0000,0.0000,0.000,0.000,0.000,408,371,321,409,410,2025-05-24T00:08:30.957196
17999,0.0000,0.0000,0.0000,0.000,0.000,0.000,427,417,310,409,392,2025-05-24T00:08:30.957207
18000,0.0000,0.0000,0.0000,0.000,0.000,0.000,371,400,317,397,389,2025-05-24T00:08:31.161385
18001,0.0000,0.0000,0.0000,0.000,0.000,0.000,329,395,338,401,385,2025-05-24T00:08:31.161435
