SeqNum,AccX,AccY,AccZ,GyroX,GyroY,GyroZ,Flex,Force1,Force2,Force3,Force4,TimestampReception
1,-0.3157,-0.0205,0.9882,-0.035,-3.500,0.350,489,439,332,355,395,2025-05-28T15:19:45.342406
2,-0.3104,-0.0220,0.9921,0.105,-3.045,0.210,439,407,355,387,397,2025-05-28T15:19:45.342406
3,-0.3104,-0.0224,0.9892,0.140,-2.870,0.315,412,373,358,415,409,2025-05-28T15:19:45.342406
4,-0.3133,-0.0224,0.9926,0.175,-2.660,0.245,422,357,361,353,408,2025-05-28T15:19:45.357603
5,-0.3118,-0.0195,0.9906,0.070,-2.450,0.210,368,342,343,392,417,2025-05-28T15:19:45.357603
6,-0.3167,-0.0195,0.9872,0.070,-2.695,0.105,385,377,364,401,403,2025-05-28T15:19:45.357603
7,-0.3201,-0.0215,0.9906,0.140,-2.905,0.000,393,339,357,405,409,2025-05-28T15:19:45.357603
8,-0.3167,-0.0185,0.9911,0.350,-3.430,0.105,412,393,373,391,387,2025-05-28T15:19:45.357603
9,-0.3099,-0.0185,0.9887,0.105,-3.395,0.000,408,393,366,348,348,2025-05-28T15:19:45.357603
10,-0.3099,-0.0205,0.9926,0.000,-3.290,0.070,383,412,379,373,397,2025-05-28T15:19:45.459004
11,-0.3109,-0.0205,0.9906,0.175,-3.325,0.175,389,407,380,414,362,2025-05-28T15:19:45.459004
12,-0.3079,-0.0205,0.9911,0.105,-2.800,0.175,339,410,348,401,391,2025-05-28T15:19:45.459004
13,-0.3089,-0.0220,0.9916,-0.070,-2.520,0.280,381,425,328,361,388,2025-05-28T15:19:45.459004
14,-0.3143,-0.0220,0.9911,0.175,-2.380,0.350,405,396,314,359,381,2025-05-28T15:19:45.459004
15,-0.3162,-0.0215,0.9916,0.245,-2.520,0.455,390,431,358,383,400,2025-05-28T15:19:45.459004
16,-0.3109,-0.0166,0.9853,0.070,-2.625,0.455,415,423,376,393,408,2025-05-28T15:19:45.459004
17,-0.3187,-0.0215,0.9906,0.140,-2.765,0.350,421,419,380,394,401,2025-05-28T15:19:45.459004
18,-0.3104,-0.0210,0.9892,0.350,-2.660,0.245,425,398,389,411,349,2025-05-28T15:19:45.558435
19,-0.3152,-0.0185,0.9862,0.175,-2.730,0.210,341,411,375,401,387,2025-05-28T15:19:45.558435
20,-0.3192,-0.0224,0.9931,0.280,-2.835,0.210,393,423,383,409,390,2025-05-28T15:19:45.558435
21,-0.3118,-0.0142,0.9950,0.140,-3.045,0.175,419,345,372,379,384,2025-05-28T15:19:45.558701
22,-0.3133,-0.0195,0.9926,0.070,-3.220,0.245,412,293,370,410,408,2025-05-28T15:19:45.558701
23,-0.3109,-0.0195,0.9960,-0.175,-3.115,0.245,426,403,371,354,356,2025-05-28T15:19:45.558701
24,-0.3074,-0.0205,0.9960,-0.245,-2.905,0.350,438,424,376,403,387,2025-05-28T15:19:45.558701
25,-0.3040,-0.0195,0.9941,-0.385,-2.310,0.420,428,363,388,308,381,2025-05-28T15:19:45.558701
26,-0.3074,-0.0200,0.9936,-0.420,-1.785,0.455,398,395,372,369,384,2025-05-28T15:19:45.558701
27,-0.3128,-0.0195,0.9902,-0.385,-1.575,0.385,378,422,380,338,407,2025-05-28T15:19:45.660341
28,-0.3206,-0.0220,0.9902,-0.420,-1.505,0.245,388,436,387,401,408,2025-05-28T15:19:45.660341
29,-0.3221,-0.0210,0.9872,-0.280,-2.275,0.140,373,401,372,348,354,2025-05-28T15:19:45.660341
30,-0.3240,-0.0224,0.9848,-0.140,-3.010,0.105,395,417,379,373,336,2025-05-28T15:19:45.660341
31,-0.3231,-0.0210,0.9843,0.070,-3.675,0.000,406,433,371,399,383,2025-05-28T15:19:45.660341
32,-0.3167,-0.0210,0.9862,0.175,-4.060,-0.070,400,431,385,394,305,2025-05-28T15:19:45.660341
33,-0.3123,-0.0224,0.9911,0.175,-4.060,-0.070,412,374,371,381,356,2025-05-28T15:19:45.660341
34,-0.3099,-0.0215,0.9921,0.210,-3.920,-0.070,421,404,334,391,377,2025-05-28T15:19:45.660341
35,-0.3104,-0.0210,0.9906,0.175,-3.500,0.035,388,430,370,416,390,2025-05-28T15:19:45.746009
36,-0.3074,-0.0200,0.9931,0.140,-3.010,-0.105,405,418,372,399,387,2025-05-28T15:19:45.746009
37,-0.3084,-0.0200,0.9902,0.035,-2.870,-0.105,408,432,382,398,347,2025-05-28T15:19:45.746009
38,-0.3094,-0.0220,0.9887,0.035,-2.730,0.070,339,364,345,390,332,2025-05-28T15:19:45.746009
39,-0.3143,-0.0210,0.9921,0.000,-2.800,0.140,283,406,328,350,322,2025-05-28T15:19:45.746009
40,-0.3133,-0.0205,0.9897,0.140,-2.940,0.070,396,413,353,395,368,2025-05-28T15:19:45.958582
41,-0.3143,-0.0210,0.9867,0.070,-2.975,0.140,417,425,378,420,398,2025-05-28T15:19:45.958582
42,-0.3148,-0.0210,0.9916,0.210,-3.080,0.175,425,428,391,406,397,2025-05-28T15:19:45.958582
43,-0.3143,-0.0224,0.9887,0.245,-3.150,0.210,423,441,400,416,406,2025-05-28T15:19:45.958582
44,-0.3133,-0.0239,0.9882,0.385,-3.080,0.175,403,349,388,411,404,2025-05-28T15:19:45.958582
45,-0.3113,-0.0244,0.9872,0.560,-2.870,0.105,389,399,383,416,412,2025-05-28T15:19:45.958582
46,-0.3143,-0.0215,0.9906,0.560,-2.695,0.070,345,411,385,405,401,2025-05-28T15:19:45.958582
47,-0.3172,-0.0181,0.9955,0.560,-2.835,0.175,392,425,380,361,405,2025-05-28T15:19:45.958582
48,-0.3138,-0.0171,0.9936,0.315,-2.940,0.035,426,447,380,388,393,2025-05-28T15:19:45.958582
49,-0.3133,-0.0181,0.9936,0.245,-2.940,0.070,408,442,390,410,392,2025-05-28T15:19:45.958582
50,-0.3099,-0.0205,0.9941,0.210,-2.695,0.210,400,422,380,381,394,2025-05-28T15:19:45.958582
51,-0.3060,-0.0224,0.9892,0.175,-2.450,0.140,362,428,387,405,406,2025-05-28T15:19:45.958582
52,-0.3172,-0.0239,0.9921,0.245,-2.240,0.210,392,425,383,406,391,2025-05-28T15:19:45.958582
53,-0.3128,-0.0200,0.9906,0.245,-2.205,0.350,398,403,369,411,394,2025-05-28T15:19:45.958582
54,-0.3187,-0.0195,0.9892,0.175,-2.695,0.350,376,406,351,406,404,2025-05-28T15:19:45.958582
55,-0.3196,-0.0176,0.9911,0.035,-2.940,0.420,406,402,332,353,395,2025-05-28T15:19:45.958582
56,-0.3177,-0.0181,0.9931,-0.035,-3.290,0.385,420,427,353,376,362,2025-05-28T15:19:45.958582
57,-0.3118,-0.0200,0.9897,-0.105,-3.325,0.315,430,389,371,406,397,2025-05-28T15:19:45.958582
58,-0.3113,-0.0215,0.9941,-0.245,-2.870,0.350,428,431,377,414,394,2025-05-28T15:19:45.958582
59,-0.3094,-0.0195,0.9941,-0.140,-2.520,0.455,429,402,376,407,408,2025-05-28T15:19:45.958582
60,-0.3104,-0.0220,0.9892,-0.105,-2.380,0.280,394,419,364,372,410,2025-05-28T15:19:45.958582
61,-0.3152,-0.0224,0.9892,0.000,-2.205,0.385,418,412,298,383,400,2025-05-28T15:19:46.072195
62,-0.3138,-0.0195,0.9848,0.035,-2.380,0.210,403,425,345,407,405,2025-05-28T15:19:46.072195
63,-0.3265,-0.0249,0.9882,0.210,-2.975,0.210,410,420,323,416,378,2025-05-28T15:19:46.072195
64,-0.3231,-0.0205,0.9921,0.420,-3.850,0.210,405,426,352,393,402,2025-05-28T15:19:46.072195
65,-0.3104,-0.0176,0.9867,0.245,-4.270,0.105,373,408,374,416,404,2025-05-28T15:19:46.072195
66,-0.3074,-0.0195,0.9926,0.000,-3.640,0.140,370,420,383,392,409,2025-05-28T15:19:46.072195
67,-0.3162,-0.0234,0.9984,0.315,-3.465,0.035,416,426,394,350,365,2025-05-28T15:19:46.072195
68,-0.3065,-0.0181,0.9921,0.315,-3.395,0.245,392,367,389,386,411,2025-05-28T15:19:46.072195
69,-0.3070,-0.0190,0.9853,-0.105,-2.660,0.105,418,297,382,365,405,2025-05-28T15:19:46.072195
70,-0.3099,-0.0205,0.9941,0.000,-2.205,0.175,409,382,378,399,392,2025-05-28T15:19:46.173717
71,-0.3172,-0.0215,0.9970,0.035,-2.415,0.210,365,380,375,393,406,2025-05-28T15:19:46.173717
72,-0.3099,-0.0166,0.9892,-0.140,-2.310,0.315,342,412,386,406,403,2025-05-28T15:19:46.173717
73,-0.3157,-0.0185,0.9902,-0.385,-2.415,0.210,401,421,378,420,397,2025-05-28T15:19:46.173717
74,-0.3177,-0.0161,0.9945,-0.210,-2.695,0.420,413,418,346,413,408,2025-05-28T15:19:46.173717
75,-0.3157,-0.0185,0.9877,-0.525,-3.150,0.490,415,352,322,405,400,2025-05-28T15:19:46.173717
76,-0.3143,-0.0215,0.9897,-0.490,-3.150,0.350,396,346,361,419,349,2025-05-28T15:19:46.173717
77,-0.3113,-0.0234,0.9926,-0.245,-2.765,0.350,408,351,381,416,375,2025-05-28T15:19:46.173717
78,-0.3070,-0.0224,0.9921,-0.210,-2.555,0.350,402,415,373,396,383,2025-05-28T15:19:46.274841
79,-0.3104,-0.0195,0.9911,-0.385,-2.380,0.455,417,410,374,371,341,2025-05-28T15:19:46.274841
80,-0.3157,-0.0200,0.9911,-0.350,-2.170,0.385,420,405,378,390,373,2025-05-28T15:19:46.274841
81,-0.3177,-0.0210,0.9916,-0.315,-2.170,0.490,422,346,343,412,387,2025-05-28T15:19:46.274841
82,-0.3152,-0.0205,0.9862,-0.420,-2.485,0.350,344,414,329,350,389,2025-05-28T15:19:46.274841
83,-0.3192,-0.0220,0.9862,-0.280,-2.800,0.315,386,432,324,404,407,2025-05-28T15:19:46.274841
84,-0.3167,-0.0234,0.9902,-0.140,-3.010,0.315,381,429,369,413,392,2025-05-28T15:19:46.274841
85,-0.3128,-0.0220,0.9916,-0.140,-3.185,0.315,386,435,375,393,406,2025-05-28T15:19:46.274841
86,-0.3089,-0.0205,0.9892,-0.105,-3.045,0.350,409,402,384,397,401,2025-05-28T15:19:46.274841
87,-0.3113,-0.0220,0.9892,0.105,-2.625,0.350,404,411,378,352,391,2025-05-28T15:19:46.411455
88,-0.3128,-0.0195,0.9882,0.035,-2.485,0.420,398,421,380,408,412,2025-05-28T15:19:46.411455
89,-0.3172,-0.0210,0.9931,0.175,-2.555,0.490,401,435,383,413,395,2025-05-28T15:19:46.411455
90,-0.3187,-0.0200,0.9882,0.210,-2.940,0.455,407,427,375,393,347,2025-05-28T15:19:46.411455
91,-0.3187,-0.0190,0.9892,0.070,-3.185,0.420,425,417,339,401,325,2025-05-28T15:19:46.411455
92,-0.3196,-0.0181,0.9916,0.070,-3.395,0.455,401,408,335,404,340,2025-05-28T15:19:46.411455
93,-0.3138,-0.0215,0.9916,-8.925,-3.640,0.280,396,300,323,388,393,2025-05-28T15:19:46.411455
94,-0.3094,-0.0239,0.9882,-0.070,-3.395,0.175,401,399,361,388,406,2025-05-28T15:19:46.411455
95,-0.3089,-0.0239,0.9892,-0.140,-2.870,0.210,345,415,372,411,391,2025-05-28T15:19:46.411455
96,-0.3138,-0.0254,0.9926,0.070,-2.835,0.315,381,347,378,419,384,2025-05-28T15:19:46.411455
97,-0.3152,-0.0210,0.9921,0.070,-2.905,0.280,337,402,387,414,346,2025-05-28T15:19:46.582701
98,-0.3167,-0.0166,0.9887,-0.140,-2.905,0.245,402,409,389,408,335,2025-05-28T15:19:46.582701
99,-0.3182,-0.0181,0.9931,-0.070,-3.045,0.210,414,365,387,411,376,2025-05-28T15:19:46.582701
100,-0.3143,-0.0185,0.9931,-0.035,-3.255,0.175,400,405,377,401,388,2025-05-28T15:19:46.582701
101,-0.3113,-0.0210,0.9887,-0.210,-3.325,0.140,358,418,388,408,346,2025-05-28T15:19:46.582701
102,-0.3113,-0.0254,0.9892,-0.140,-3.290,0.175,382,437,391,414,334,2025-05-28T15:19:46.582701
103,-0.3133,-0.0259,0.9902,0.000,-3.150,0.280,387,418,395,405,369,2025-05-28T15:19:46.582701
104,-0.3128,-0.0224,0.9916,0.000,-3.080,0.455,386,414,401,400,340,2025-05-28T15:19:46.582701
105,-0.3143,-0.0185,0.9936,-0.035,-3.115,0.420,340,400,400,393,364,2025-05-28T15:19:46.582701
106,-0.3148,-0.0190,0.9926,0.000,-3.220,0.385,411,418,388,400,380,2025-05-28T15:19:46.582701
107,-0.3089,-0.0215,0.9877,-0.105,-3.115,0.350,351,348,349,395,398,2025-05-28T15:19:46.582701
108,-0.3118,-0.0268,0.9872,0.070,-2.800,0.245,408,373,368,416,418,2025-05-28T15:19:46.582701
109,-0.3128,-0.0234,0.9916,0.245,-2.625,0.245,363,385,380,374,357,2025-05-28T15:19:46.582701
110,-0.3143,-0.0224,0.9911,0.210,-2.835,0.210,397,340,387,385,390,2025-05-28T15:19:46.582701
111,-0.3177,-0.0181,0.9936,-0.035,-3.115,0.175,340,365,389,393,402,2025-05-28T15:19:46.582701
112,-0.3157,-0.0161,0.9950,-0.175,-3.325,0.245,372,387,392,347,410,2025-05-28T15:19:46.582701
113,-0.3094,-0.0166,0.9941,-0.350,-3.325,0.420,400,412,400,353,395,2025-05-28T15:19:46.632934
114,-0.3050,-0.0224,0.9941,-0.665,-2.870,0.630,397,404,399,391,388,2025-05-28T15:19:46.632934
115,-0.3050,-0.0220,0.9931,-0.560,-2.380,0.700,417,432,365,400,352,2025-05-28T15:19:46.632934
116,-0.3070,-0.0254,0.9926,-0.490,-1.890,0.805,360,411,362,410,386,2025-05-28T15:19:46.632934
117,-0.3138,-0.0220,0.9906,-0.525,-1.715,0.980,390,402,388,392,365,2025-05-28T15:19:46.788416
118,-0.3206,-0.0244,0.9882,-0.455,-2.275,1.015,416,404,347,397,376,2025-05-28T15:19:46.788416
119,-0.3240,-0.0224,0.9848,-0.245,-2.975,0.665,425,422,372,411,393,2025-05-28T15:19:46.788416
120,-0.3221,-0.0229,0.9882,-0.140,-3.430,0.455,346,362,343,393,400,2025-05-28T15:19:46.788416
121,-0.3192,-0.0210,0.9882,-0.035,-3.885,0.315,344,401,370,405,401,2025-05-28T15:19:46.788416
122,-0.3152,-0.0215,0.9882,0.105,-4.200,0.140,401,396,385,404,367,2025-05-28T15:19:46.788416
123,-0.3060,-0.0185,0.9877,-0.035,-3.570,0.070,403,418,377,407,390,2025-05-28T15:19:46.788416
124,-0.3206,-0.0273,0.9955,0.350,-3.325,-0.035,398,411,386,419,406,2025-05-28T15:19:46.788416
125,-0.3040,-0.0181,0.9882,0.280,-3.080,-0.245,420,402,343,412,355,2025-05-28T15:19:46.788416
126,-0.3152,-0.0249,0.9877,0.175,-2.975,-0.245,419,406,377,344,336,2025-05-28T15:19:46.788416
127,-0.3143,-0.0234,0.9902,0.385,-2.835,-0.140,404,349,365,397,387,2025-05-28T15:19:46.788416
128,-0.3070,-0.0215,0.9858,0.315,-3.430,-0.070,405,394,366,419,385,2025-05-28T15:19:46.788416
129,-0.3143,-0.0195,0.9965,0.140,-3.080,-0.035,400,415,386,418,348,2025-05-28T15:19:46.788416
130,-0.3104,-0.0205,0.9916,0.035,-2.800,0.105,420,384,390,354,334,2025-05-28T15:19:46.922653
131,-0.3172,-0.0181,0.9916,0.280,-2.520,-0.140,400,302,390,349,371,2025-05-28T15:19:46.922653
132,-0.3094,-0.0200,0.9877,0.140,-2.030,-0.175,400,283,395,369,376,2025-05-28T15:19:46.922653
133,-0.3162,-0.0229,0.9877,0.140,-2.275,-0.455,415,393,379,380,399,2025-05-28T15:19:46.922653
134,-0.3167,-0.0224,0.9848,0.385,-2.520,-0.525,416,421,370,402,410,2025-05-28T15:19:46.922653
135,-0.3235,-0.0259,0.9862,0.420,-2.940,-0.560,303,425,379,413,413,2025-05-28T15:19:46.922653
136,-0.3240,-0.0273,0.9921,0.700,-3.360,-0.700,398,314,389,399,410,2025-05-28T15:19:46.922653
137,-0.3109,-0.0166,0.9848,0.630,-3.710,-1.015,340,390,399,383,398,2025-05-28T15:19:46.922653
138,-0.3050,-0.0185,0.9936,0.315,-3.360,-0.525,416,364,361,389,385,2025-05-28T15:19:46.922653
139,-0.3128,-0.0185,0.9994,0.385,-3.360,-0.245,419,390,372,415,388,2025-05-28T15:19:46.992270
140,-0.3016,-0.0190,0.9936,0.245,-3.150,-0.420,424,394,344,395,402,2025-05-28T15:19:46.992270
141,-0.3045,-0.0229,0.9931,0.105,-2.205,-0.280,423,420,339,377,402,2025-05-28T15:19:46.992270
142,-0.3128,-0.0264,0.9931,0.175,-1.820,-0.070,349,405,359,405,387,2025-05-28T15:19:46.992270
143,-0.3123,-0.0220,0.9892,0.280,-1.960,-0.175,396,416,332,405,394,2025-05-28T15:19:46.992270
144,-0.3172,-0.0224,0.9897,0.315,-2.030,-0.175,383,404,358,407,403,2025-05-28T15:19:46.992270
145,-0.3221,-0.0210,0.9902,0.280,-2.240,-0.175,407,388,330,404,354,2025-05-28T15:19:46.992270
146,-0.3192,-0.0190,0.9892,0.245,-3.045,-0.280,422,410,330,405,391,2025-05-28T15:19:46.992270
147,-0.3177,-0.0200,0.9921,0.175,-3.395,-0.385,426,408,333,408,414,2025-05-28T15:19:47.093584
148,-0.3143,-0.0195,0.9926,0.175,-3.290,-0.350,420,400,351,413,391,2025-05-28T15:19:47.093584
149,-0.3099,-0.0205,0.9921,0.105,-3.430,-0.350,428,419,362,401,389,2025-05-28T15:19:47.093584
150,-0.3070,-0.0220,0.9916,-0.175,-3.220,-0.315,426,416,344,415,387,2025-05-28T15:19:47.093584
151,-0.3065,-0.0210,0.9936,-0.175,-2.730,-0.245,412,371,356,423,389,2025-05-28T15:19:47.093584
152,-0.3060,-0.0229,0.9936,-0.105,-2.170,-0.210,416,345,362,426,390,2025-05-28T15:19:47.093584
153,-0.3104,-0.0239,0.9897,-0.105,-1.820,-0.070,416,403,379,424,392,2025-05-28T15:19:47.093584
154,-0.3138,-0.0224,0.9877,-0.105,-1.575,-0.140,402,423,390,358,395,2025-05-28T15:19:47.093584
155,-0.3167,-0.0215,0.9887,-0.140,-1.820,0.105,401,421,386,389,400,2025-05-28T15:19:47.093584
156,-0.3192,-0.0210,0.9877,-0.035,-2.240,0.210,417,406,384,371,403,2025-05-28T15:19:47.175767
157,-0.3206,-0.0200,0.9877,0.035,-3.045,0.140,419,413,342,392,416,2025-05-28T15:19:47.175767
158,-0.3162,-0.0224,0.9867,0.140,-3.395,0.175,375,421,370,357,400,2025-05-28T15:19:47.175767
159,-0.3104,-0.0205,0.9892,0.140,-3.430,0.245,409,408,379,374,353,2025-05-28T15:19:47.175767
160,-0.3143,-0.0239,0.9911,0.315,-3.325,0.315,341,399,369,398,342,2025-05-28T15:19:47.175767
161,-0.3094,-0.0234,0.9897,0.420,-3.045,0.210,362,351,373,405,384,2025-05-28T15:19:47.175767
162,-0.3128,-0.0239,0.9892,0.455,-2.695,0.245,360,373,378,398,388,2025-05-28T15:19:47.302414
163,-0.3128,-0.0220,0.9897,0.595,-2.625,0.315,391,334,371,412,405,2025-05-28T15:19:47.302414
164,-0.3118,-0.0210,0.9877,0.665,-2.590,0.175,400,374,396,426,414,2025-05-28T15:19:47.302414
165,-0.3187,-0.0200,0.9931,0.455,-2.660,0.245,410,394,385,400,316,2025-05-28T15:19:47.302414
166,-0.3128,-0.0215,0.9887,0.490,-2.625,0.245,422,395,372,369,367,2025-05-28T15:19:47.302414
167,-0.3138,-0.0215,0.9906,0.490,-2.625,0.175,409,420,381,400,381,2025-05-28T15:19:47.302414
168,-0.3118,-0.0224,0.9916,0.490,-2.520,0.420,425,415,386,417,379,2025-05-28T15:19:47.302414
169,-0.3118,-0.0210,0.9892,0.560,-2.590,0.385,429,415,381,393,399,2025-05-28T15:19:47.302414
170,-0.3123,-0.0205,0.9906,0.490,-2.590,0.525,418,402,377,340,406,2025-05-28T15:19:47.302414
171,-0.3157,-0.0229,0.9945,0.490,-2.625,0.595,362,345,363,371,414,2025-05-28T15:19:47.302414
172,-0.3123,-0.0190,0.9897,0.385,-2.625,0.735,405,419,380,387,409,2025-05-28T15:19:47.302414
173,-0.3109,-0.0200,0.9897,0.350,-2.450,0.525,338,426,376,386,417,2025-05-28T15:19:47.400811
174,-0.3167,-0.0200,0.9931,0.245,-2.205,0.665,387,354,344,346,369,2025-05-28T15:19:47.400811
175,-0.3143,-0.0215,0.9872,0.280,-2.555,0.595,404,362,324,396,394,2025-05-28T15:19:47.403913
176,-0.3162,-0.0234,0.9897,0.210,-2.695,0.665,393,387,316,353,400,2025-05-28T15:19:47.403913
177,-0.3206,-0.0220,0.9892,0.350,-2.870,0.665,428,416,363,386,378,2025-05-28T15:19:47.403913
178,-0.3167,-0.0215,0.9848,0.280,-3.010,0.490,424,418,345,384,345,2025-05-28T15:19:47.403913
179,-0.3148,-0.0195,0.9843,0.315,-3.080,0.490,398,374,380,409,393,2025-05-28T15:19:47.403913
180,-0.3182,-0.0249,0.9945,0.280,-3.570,0.455,385,334,376,357,392,2025-05-28T15:19:47.403913
181,-0.3143,-0.0161,0.9980,0.700,-3.955,0.455,398,399,385,382,414,2025-05-28T15:19:47.608026
182,-0.3104,-0.0088,0.9960,0.455,-3.815,0.420,427,412,342,302,400,2025-05-28T15:19:47.608026
183,-0.3079,-0.0112,0.9950,-0.105,-2.870,0.245,378,410,328,361,389,2025-05-28T15:19:47.608026
184,-0.3070,-0.0224,0.9921,-0.455,-2.415,0.140,405,424,359,396,367,2025-05-28T15:19:47.608026
185,-0.3152,-0.0293,0.9921,-0.280,-1.610,0.490,421,402,379,343,374,2025-05-28T15:19:47.608026
186,-0.3118,-0.0224,0.9843,-0.350,-1.820,0.630,400,400,382,399,385,2025-05-28T15:19:47.608026
187,-0.3250,-0.0249,0.9867,-0.175,-2.450,0.630,341,407,387,384,304,2025-05-28T15:19:47.608026
188,-0.3260,-0.0200,0.9921,-0.070,-3.430,0.560,403,409,392,406,379,2025-05-28T15:19:47.608026
189,-0.3177,-0.0142,0.9887,-0.070,-4.060,0.490,420,424,349,418,388,2025-05-28T15:19:47.608026
190,-0.3128,-0.0171,0.9906,-0.315,-3.955,0.420,409,426,363,404,365,2025-05-28T15:19:47.608026
191,-0.3089,-0.0224,0.9887,-0.420,-3.395,0.175,405,424,381,396,397,2025-05-28T15:19:47.608026
192,-0.3128,-0.0268,0.9882,-0.070,-2.660,-0.140,341,409,371,409,415,2025-05-28T15:19:47.608026
193,-0.3138,-0.0229,0.9877,0.140,-2.310,-0.035,404,375,382,419,410,2025-05-28T15:19:47.608026
194,-0.3231,-0.0215,0.9862,0.315,-2.835,-0.175,406,403,386,357,412,2025-05-28T15:19:47.608026
195,-0.3240,-0.0176,0.9902,0.350,-3.920,-0.280,345,385,371,397,417,2025-05-28T15:19:47.608026
196,-0.3182,-0.0161,0.9931,0.315,-4.620,-0.210,391,387,363,405,416,2025-05-28T15:19:47.608026
197,-0.3099,-0.0181,0.9950,-0.035,-4.480,-0.210,421,391,366,417,356,2025-05-28T15:19:47.608026
198,-0.3030,-0.0190,0.9989,-0.315,-3.745,-0.105,399,413,375,413,394,2025-05-28T15:19:47.608026
199,-0.2991,-0.0185,0.9989,-0.630,-2.975,0.000,400,381,374,421,390,2025-05-28T15:19:47.708670
200,-0.3045,-0.0190,0.9955,-0.700,-1.540,0.000,421,415,367,416,389,2025-05-28T15:19:47.708670
201,-0.3094,-0.0200,0.9902,-0.630,-1.015,-0.070,419,403,366,417,399,2025-05-28T15:19:47.857448
202,-0.3157,-0.0185,0.9897,-0.735,-1.260,0.000,412,421,374,416,410,2025-05-28T15:19:47.857448
203,-0.3231,-0.0220,0.9897,-0.665,-1.890,-0.070,399,414,376,374,353,2025-05-28T15:19:47.857448
204,-0.3177,-0.0224,0.9858,-0.700,-2.590,-0.175,397,410,374,378,354,2025-05-28T15:19:47.857448
205,-0.3162,-0.0264,0.9853,-0.490,-2.905,0.000,429,409,375,409,393,2025-05-28T15:19:47.857448
206,-0.3177,-0.0244,0.9862,-0.385,-2.975,-0.070,400,414,386,414,400,2025-05-28T15:19:47.857448
207,-0.3143,-0.0229,0.9867,-0.140,-3.115,0.000,393,404,390,412,366,2025-05-28T15:19:47.857448
208,-0.3143,-0.0215,0.9887,0.000,-3.010,0.000,392,401,381,411,391,2025-05-28T15:19:47.857448
209,-0.3113,-0.0229,0.9882,0.210,-2.905,0.105,397,419,391,394,383,2025-05-28T15:19:47.857448
210,-0.3104,-0.0215,0.9926,0.175,-3.045,0.140,420,425,386,412,410,2025-05-28T15:19:47.857448
211,-0.3089,-0.0224,0.9897,0.245,-2.590,0.175,418,436,360,356,419,2025-05-28T15:19:47.857448
212,-0.3089,-0.0210,0.9911,0.280,-2.275,0.315,422,420,337,384,373,2025-05-28T15:19:47.857448
213,-0.3143,-0.0224,0.9892,0.245,-2.030,0.490,402,434,366,386,408,2025-05-28T15:19:47.857448
214,-0.3177,-0.0220,0.9892,0.280,-2.065,0.385,413,431,367,396,403,2025-05-28T15:19:47.857448
215,-0.3187,-0.0200,0.9911,0.245,-2.310,0.525,399,433,369,381,395,2025-05-28T15:19:47.857448
216,-0.3182,-0.0190,0.9897,0.350,-2.695,0.525,393,418,374,395,403,2025-05-28T15:19:47.881101
217,-0.3157,-0.0215,0.9897,0.315,-3.150,0.595,389,419,367,407,382,2025-05-28T15:19:47.881101
218,-0.3109,-0.0200,0.9906,0.280,-3.150,0.630,397,393,378,400,400,2025-05-28T15:19:47.881101
219,-0.3109,-0.0229,0.9916,0.350,-2.835,0.630,407,418,388,355,394,2025-05-28T15:19:47.881101
220,-0.3104,-0.0205,0.9916,0.245,-2.450,0.805,360,412,382,384,418,2025-05-28T15:19:48.009875
221,-0.3157,-0.0195,0.9945,0.105,-2.100,0.910,383,415,375,386,404,2025-05-28T15:19:48.009875
222,-0.3162,-0.0220,0.9945,-0.070,-1.925,0.910,337,409,369,383,399,2025-05-28T15:19:48.009875
223,-0.3157,-0.0215,0.9897,0.070,-1.960,1.015,373,401,364,405,408,2025-05-28T15:19:48.009875
224,-0.3143,-0.0224,0.9887,0.035,-1.855,0.840,393,398,367,406,416,2025-05-28T15:19:48.009875
225,-0.3196,-0.0249,0.9887,0.280,-1.995,0.805,353,414,351,411,405,2025-05-28T15:19:48.009875
226,-0.3182,-0.0224,0.9887,0.420,-2.135,0.770,392,406,363,395,391,2025-05-28T15:19:48.009875
227,-0.3211,-0.0215,0.9892,0.490,-2.345,0.630,416,418,363,401,389,2025-05-28T15:19:48.009875
228,-0.3240,-0.0190,0.9902,0.595,-2.590,0.560,411,421,367,399,394,2025-05-28T15:19:48.009875
229,-0.3187,-0.0190,0.9872,0.490,-3.010,0.455,393,414,386,351,387,2025-05-28T15:19:48.009875
230,-0.3196,-0.0229,0.9911,0.490,-3.220,0.350,413,415,391,371,384,2025-05-28T15:19:48.009875
231,-0.3167,-0.0229,0.9877,0.490,-3.325,0.350,405,413,383,372,385,2025-05-28T15:19:48.009875
232,-0.3148,-0.0205,0.9911,0.560,-3.325,0.455,403,417,376,342,387,2025-05-28T15:19:48.009875
233,-0.3133,-0.0205,0.9897,0.490,-3.080,0.455,418,428,343,374,406,2025-05-28T15:19:48.167620
234,-0.3152,-0.0195,0.9955,0.560,-2.765,0.315,349,413,368,384,412,2025-05-28T15:19:48.167620
235,-0.3138,-0.0166,0.9936,0.315,-2.590,0.420,383,416,366,400,415,2025-05-28T15:19:48.167620
236,-0.3182,-0.0185,0.9931,0.035,-2.520,0.420,406,415,379,397,413,2025-05-28T15:19:48.167620
237,-0.3182,-0.0205,0.9936,-0.070,-2.485,0.420,410,431,340,398,358,2025-05-28T15:19:48.167620
238,-0.3157,-0.0171,0.9911,-0.070,-2.625,0.385,427,432,333,390,389,2025-05-28T15:19:48.167620
239,-0.3182,-0.0181,0.9906,-0.245,-2.660,0.245,403,406,354,350,405,2025-05-28T15:19:48.167620
240,-0.3196,-0.0200,0.9902,-0.105,-2.905,0.105,338,422,366,398,399,2025-05-28T15:19:48.167620
241,-0.3177,-0.0205,0.9941,-0.280,-3.080,0.000,405,425,380,416,414,2025-05-28T15:19:48.167620
242,-0.3177,-0.0215,0.9906,-0.385,-2.940,0.000,396,384,384,396,409,2025-05-28T15:19:48.167620
243,-0.3138,-0.0210,0.9887,-0.385,-2.905,-0.175,398,381,384,371,406,2025-05-28T15:19:48.167620
244,-0.3162,-0.0220,0.9887,-0.350,-2.695,-0.175,369,391,385,394,413,2025-05-28T15:19:48.167620
245,-0.3152,-0.0200,0.9882,-0.245,-2.555,-0.315,397,348,393,340,393,2025-05-28T15:19:48.213022
246,-0.3162,-0.0210,0.9916,-0.315,-2.625,-0.280,426,338,387,365,397,2025-05-28T15:19:48.213022
247,-0.3177,-0.0181,0.9916,-0.280,-2.765,-0.315,423,382,394,399,395,2025-05-28T15:19:48.213022
248,-0.3157,-0.0195,0.9921,-0.385,-2.730,-0.350,348,412,384,417,397,2025-05-28T15:19:48.213022
249,-0.3177,-0.0200,0.9945,-0.420,-2.765,-0.315,413,397,393,400,398,2025-05-28T15:19:48.213022
250,-0.3133,-0.0190,0.9906,-0.490,-2.240,-0.420,352,343,393,405,399,2025-05-28T15:19:48.269670
251,-0.3152,-0.0224,0.9916,-0.700,-1.890,-0.490,394,392,381,405,384,2025-05-28T15:19:48.269670
252,-0.3152,-0.0190,0.9941,-0.560,-1.575,-0.595,425,337,376,359,397,2025-05-28T15:19:48.269670
253,-0.3177,-0.0205,0.9911,-0.735,-1.330,-0.700,345,404,337,393,399,2025-05-28T15:19:48.269670
254,-0.3148,-0.0195,0.9902,-0.805,-1.085,-0.945,395,431,356,348,407,2025-05-28T15:19:48.319826
255,-0.3162,-0.0224,0.9897,-0.840,-0.735,-0.980,390,432,367,391,407,2025-05-28T15:19:48.319826
256,-0.3201,-0.0215,0.9911,-0.840,-0.700,-1.120,417,436,371,345,346,2025-05-28T15:19:48.319826
257,-0.3157,-0.0229,0.9887,-0.910,-0.350,-1.225,411,432,377,391,380,2025-05-28T15:19:48.319826
258,-0.3177,-0.0210,0.9867,-0.945,-0.210,-1.225,369,409,381,408,389,2025-05-28T15:19:48.319826
259,-0.3250,-0.0249,0.9887,-0.910,-0.280,-1.260,407,399,370,413,408,2025-05-28T15:19:48.424568
260,-0.3250,-0.0215,0.9858,-0.875,-0.840,-1.295,304,415,377,415,402,2025-05-28T15:19:48.424568
261,-0.3245,-0.0224,0.9867,-0.980,-1.260,-1.295,372,409,380,355,384,2025-05-28T15:19:48.424568
262,-0.3274,-0.0215,0.9897,-0.945,-1.505,-1.225,412,418,371,395,392,2025-05-28T15:19:48.424568
263,-0.3211,-0.0234,0.9902,-0.980,-1.820,-1.295,414,430,383,410,405,2025-05-28T15:19:48.424568
264,-0.3201,-0.0244,0.9897,-0.980,-1.645,-1.225,399,428,352,416,392,2025-05-28T15:19:48.424568
265,-0.3211,-0.0259,0.9887,-0.910,-1.260,-1.260,403,423,359,389,402,2025-05-28T15:19:48.424568
266,-0.3192,-0.0303,0.9936,-0.665,-1.085,-1.225,347,422,343,394,414,2025-05-28T15:19:48.424568
267,-0.3099,-0.0283,0.9902,-0.385,-0.770,-1.120,335,401,361,406,397,2025-05-28T15:19:48.525321
268,-0.3187,-0.0283,0.9872,-0.455,0.035,-1.295,377,406,372,393,348,2025-05-28T15:19:48.525321
269,-0.3177,-0.0288,0.9916,0.175,0.735,-1.295,350,424,339,338,340,2025-05-28T15:19:48.525321
270,-0.3157,-0.0307,0.9872,0.210,0.840,-1.330,336,400,331,366,383,2025-05-28T15:19:48.525321
271,-0.3231,-0.0317,0.9892,0.420,1.505,-0.770,402,430,326,395,382,2025-05-28T15:19:48.525321
272,-0.3231,-0.0327,0.9867,0.595,2.170,-0.735,420,431,363,410,389,2025-05-28T15:19:48.525321
273,-0.3152,-0.0361,0.9965,0.455,3.115,-0.210,434,411,363,391,385,2025-05-28T15:19:48.525321
274,-0.3123,-0.0346,1.0028,0.000,4.585,0.805,344,420,383,388,388,2025-05-28T15:19:48.525321
275,-0.3177,-0.0293,1.0092,-0.490,4.795,1.330,334,419,372,406,307,2025-05-28T15:19:48.525321
276,-0.3109,-0.0224,1.0024,-0.770,6.720,1.610,377,403,370,350,374,2025-05-28T15:19:48.624319
277,-0.3250,-0.0151,1.0009,0.035,7.140,1.190,392,384,305,367,339,2025-05-28T15:19:48.624319
278,-0.3226,-0.0122,1.0175,0.490,8.995,-0.420,335,383,306,368,386,2025-05-28T15:19:48.624319
279,-0.3206,-0.0107,1.0360,1.330,10.080,-1.540,411,392,306,343,383,2025-05-28T15:19:48.624319
280,-0.2996,0.0020,1.0497,1.540,13.685,-1.925,421,418,358,402,397,2025-05-28T15:19:48.624319
281,-0.2938,-0.0102,1.0468,0.840,17.150,-2.520,411,408,337,414,390,2025-05-28T15:19:48.624319
282,-0.2708,-0.0044,1.0224,0.035,24.220,-2.835,401,399,367,415,402,2025-05-28T15:19:48.624319
283,-0.2669,-0.0400,1.0189,1.085,34.300,-2.975,400,401,375,416,408,2025-05-28T15:19:48.624319
284,-0.2782,-0.0659,1.0038,1.015,42.805,-3.675,426,408,390,404,356,2025-05-28T15:19:48.674215
285,-0.3128,-0.1147,0.9955,0.630,52.815,-4.305,434,434,395,390,337,2025-05-28T15:19:48.674215
286,-0.1737,-0.1791,1.0463,-0.735,79.205,-1.820,370,418,396,367,382,2025-05-28T15:19:48.674215
287,-0.4002,-0.2879,0.9609,-2.100,98.000,1.365,415,429,384,413,399,2025-05-28T15:19:48.674215
288,-0.3967,-0.2918,0.9555,-0.525,111.545,7.700,389,400,393,399,397,2025-05-28T15:19:48.674215
289,-0.4778,-0.3177,0.8901,-2.555,127.820,13.895,335,346,399,383,397,2025-05-28T15:19:48.725162
290,-0.6959,-0.3850,0.9121,6.510,134.995,22.820,369,419,393,384,388,2025-05-28T15:19:48.725162
291,-0.8164,-0.3758,0.9823,17.955,115.500,26.670,382,391,393,396,364,2025-05-28T15:19:48.725162
292,-0.9062,-0.3538,1.0453,24.710,87.185,27.510,401,405,390,306,382,2025-05-28T15:19:48.725162
293,-0.8750,-0.3113,1.0590,33.005,63.210,29.505,342,420,391,384,394,2025-05-28T15:19:48.923996
294,-0.8325,-0.2762,1.0375,41.475,40.040,31.290,355,425,391,405,397,2025-05-28T15:19:48.923996
295,-0.7764,-0.2396,1.0487,49.595,29.820,33.355,406,401,386,407,388,2025-05-28T15:19:48.923996
296,-0.6910,-0.2191,1.0541,53.375,28.000,36.050,388,349,382,411,398,2025-05-28T15:19:48.923996
297,-0.5944,-0.2074,1.0307,56.280,37.765,43.155,412,402,393,409,410,2025-05-28T15:19:48.923996
298,-0.5275,-0.1972,1.0141,63.805,61.285,52.535,422,399,391,350,417,2025-05-28T15:19:48.923996
299,-0.4900,-0.1713,0.9521,66.045,93.345,62.405,406,304,341,390,401,2025-05-28T15:19:48.923996
300,-0.5519,-0.1820,0.9487,69.825,121.625,72.835,338,336,371,399,403,2025-05-28T15:19:48.923996
301,-0.5749,-0.1381,0.9213,74.655,147.770,82.810,375,403,335,405,409,2025-05-28T15:19:48.923996
302,-0.6383,-0.1069,0.8969,75.250,162.820,89.285,403,429,370,398,414,2025-05-28T15:19:48.923996
303,-0.7222,-0.0508,0.8423,76.825,168.175,98.595,402,437,373,389,411,2025-05-28T15:19:48.923996
304,-0.7706,-0.0044,0.7466,79.065,164.080,101.150,406,377,343,378,415,2025-05-28T15:19:48.923996
305,-0.8008,0.0605,0.6905,83.160,160.160,101.780,407,431,359,379,399,2025-05-28T15:19:48.923996
306,-0.7623,0.1391,0.6115,80.850,152.705,102.585,404,416,375,338,362,2025-05-28T15:19:48.923996
307,-0.7691,0.2269,0.5978,76.720,144.130,104.580,372,409,370,380,376,2025-05-28T15:19:48.923996
308,-0.7564,0.2743,0.5300,71.225,131.600,105.700,365,339,372,345,372,2025-05-28T15:19:48.923996
309,-0.7549,0.3387,0.5183,66.605,116.830,105.175,411,399,378,355,386,2025-05-28T15:19:48.923996
310,-0.7349,0.3841,0.4802,61.495,101.955,103.005,422,404,347,392,346,2025-05-28T15:19:49.045587
311,-0.7105,0.4485,0.4524,56.910,87.885,98.875,387,423,356,365,328,2025-05-28T15:19:49.045587
312,-0.6988,0.4880,0.4197,53.690,75.320,94.780,408,419,375,392,346,2025-05-28T15:19:49.045587
313,-0.6559,0.5422,0.3972,52.290,65.765,91.315,421,407,370,369,363,2025-05-28T15:19:49.045587
314,-0.6407,0.5832,0.3753,50.085,59.360,87.430,426,429,377,395,379,2025-05-28T15:19:49.045587
315,-0.5836,0.6149,0.3357,47.775,56.770,85.015,347,403,383,383,384,2025-05-28T15:19:49.045587
316,-0.5993,0.6427,0.3353,45.675,57.050,82.285,367,393,341,382,385,2025-05-28T15:19:49.045587
317,-0.5866,0.6837,0.3553,41.685,58.555,81.620,418,435,367,411,396,2025-05-28T15:19:49.045587
318,-0.5797,0.6915,0.3216,35.875,58.380,82.005,426,434,337,347,387,2025-05-28T15:19:49.091004
319,-0.6261,0.6925,0.2996,31.955,56.000,81.830,397,429,358,399,393,2025-05-28T15:19:49.091004
320,-0.6261,0.7081,0.2948,28.805,53.095,80.605,406,377,371,404,366,2025-05-28T15:19:49.091004
321,-0.6061,0.7213,0.2908,26.075,50.820,79.730,343,404,371,405,374,2025-05-28T15:19:49.091004
322,-0.6183,0.7393,0.2884,23.450,49.595,78.610,423,430,378,422,403,2025-05-28T15:19:49.091004
323,-0.6320,0.7344,0.2908,21.000,46.095,77.000,394,308,377,416,354,2025-05-28T15:19:49.240874
324,-0.6246,0.7325,0.3016,18.515,40.635,74.970,394,396,378,396,339,2025-05-28T15:19:49.240874
325,-0.6281,0.7305,0.3152,15.400,35.420,72.660,429,418,389,411,384,2025-05-28T15:19:49.240874
326,-0.6154,0.7130,0.3035,12.775,31.395,70.805,416,357,371,348,356,2025-05-28T15:19:49.240874
327,-0.6168,0.7042,0.3070,11.655,28.560,69.930,430,420,390,387,373,2025-05-28T15:19:49.240874
328,-0.6422,0.6905,0.3070,10.710,25.445,68.320,434,379,388,415,397,2025-05-28T15:19:49.240874
329,-0.6461,0.6978,0.3294,10.115,23.100,66.080,434,395,376,356,383,2025-05-28T15:19:49.240874
330,-0.6446,0.6915,0.3299,9.975,20.335,64.295,417,413,378,393,397,2025-05-28T15:19:49.240874
331,-0.6383,0.7032,0.3362,9.940,18.830,63.805,346,355,363,397,349,2025-05-28T15:19:49.240874
332,-0.6329,0.7349,0.3353,8.960,19.075,63.560,407,389,374,397,392,2025-05-28T15:19:49.240874
333,-0.6261,0.7486,0.3182,8.470,22.435,62.580,415,418,350,374,392,2025-05-28T15:19:49.240874
334,-0.6261,0.7720,0.2972,6.545,26.915,61.530,366,374,371,332,345,2025-05-28T15:19:49.240874
335,-0.6149,0.7828,0.3143,4.655,30.625,60.830,405,417,384,392,391,2025-05-28T15:19:49.290921
336,-0.6168,0.7828,0.3006,2.170,31.150,60.410,389,415,377,407,382,2025-05-28T15:19:49.290921
337,-0.6490,0.7979,0.3065,-0.035,27.650,59.185,416,415,377,393,382,2025-05-28T15:19:49.290921
338,-0.6564,0.8052,0.3148,-1.645,20.230,58.205,428,414,376,348,344,2025-05-28T15:19:49.290921
339,-0.6481,0.8228,0.3304,-3.430,10.080,57.050,390,373,371,379,377,2025-05-28T15:19:49.290921
340,-0.6251,0.8330,0.3465,-5.040,-0.280,55.720,412,301,369,408,387,2025-05-28T15:19:49.341538
341,-0.5783,0.8413,0.3445,-5.915,-8.050,53.865,402,382,377,405,343,2025-05-28T15:19:49.341538
342,-0.5270,0.8540,0.3484,-7.210,-12.110,51.625,429,409,387,412,390,2025-05-28T15:19:49.341538
343,-0.4860,0.8564,0.3518,-8.155,-14.875,49.770,433,417,387,420,388,2025-05-28T15:19:49.341538
344,-0.4499,0.8472,0.3514,-8.680,-16.625,47.670,428,430,380,422,361,2025-05-28T15:19:49.390975
345,-0.4431,0.8364,0.3582,-8.995,-18.830,44.765,424,385,386,428,378,2025-05-28T15:19:49.390975
346,-0.4133,0.8208,0.3645,-9.170,-22.295,42.105,404,418,392,355,378,2025-05-28T15:19:49.390975
347,-0.4006,0.7974,0.3494,-9.345,-26.215,39.165,366,426,379,391,376,2025-05-28T15:19:49.390975
348,-0.3865,0.7823,0.3553,-9.310,-28.700,35.245,413,407,375,402,346,2025-05-28T15:19:49.555757
349,-0.3572,0.7618,0.3445,-9.835,-30.240,32.340,402,420,379,389,389,2025-05-28T15:19:49.555757
350,-0.3450,0.7491,0.3499,-10.115,-29.575,28.490,431,416,383,409,390,2025-05-28T15:19:49.555757
351,-0.3421,0.7471,0.3226,-11.095,-24.325,27.265,431,402,392,413,397,2025-05-28T15:19:49.596842
352,-0.3567,0.7340,0.3582,-10.780,-27.125,22.400,417,415,386,400,385,2025-05-28T15:19:49.596842
353,-0.3655,0.6895,0.3484,-9.240,-21.980,19.530,420,417,378,367,380,2025-05-28T15:19:49.596842
354,-0.3460,0.6705,0.3314,-8.120,-19.950,16.380,416,388,373,329,338,2025-05-28T15:19:49.596842
355,-0.3450,0.6734,0.3348,-5.635,-15.820,13.825,420,402,359,358,389,2025-05-28T15:19:49.596842
356,-0.3655,0.6769,0.3357,-4.270,-10.640,12.425,414,377,372,398,374,2025-05-28T15:19:49.596842
357,-0.3821,0.6817,0.3284,-4.025,-7.210,10.605,417,389,392,350,385,2025-05-28T15:19:49.596842
358,-0.3992,0.6900,0.3338,-3.115,-4.655,9.660,421,391,389,397,402,2025-05-28T15:19:49.596842
359,-0.4192,0.6974,0.3196,-2.380,-3.080,8.470,365,391,392,406,417,2025-05-28T15:19:49.596842
360,-0.4358,0.7110,0.3162,-1.505,-2.940,6.755,405,413,395,350,355,2025-05-28T15:19:49.596842
361,-0.4441,0.7227,0.3148,-0.210,-3.290,5.600,409,401,384,347,389,2025-05-28T15:19:49.757541
362,-0.4524,0.7300,0.3065,1.610,-4.025,4.270,394,438,393,399,382,2025-05-28T15:19:49.757541
363,-0.4548,0.7379,0.3050,3.605,-3.325,2.940,428,436,395,413,385,2025-05-28T15:19:49.757541
364,-0.4548,0.7686,0.3177,4.480,-0.140,1.540,425,409,384,408,382,2025-05-28T15:19:49.757541
365,-0.4768,0.7818,0.3250,4.760,2.205,0.350,423,397,348,414,348,2025-05-28T15:19:49.757541
366,-0.4904,0.7857,0.3250,5.110,3.955,-0.770,365,409,356,355,362,2025-05-28T15:19:49.757541
367,-0.5158,0.7925,0.3367,5.145,4.200,-2.380,397,423,373,369,386,2025-05-28T15:19:49.757541
368,-0.5207,0.7950,0.3416,5.005,3.955,-3.885,427,408,373,377,398,2025-05-28T15:19:49.757541
369,-0.5334,0.7867,0.3450,5.320,2.590,-4.550,379,417,369,384,415,2025-05-28T15:19:49.757541
370,-0.4865,0.8115,0.3367,4.550,3.920,-3.080,384,406,382,406,408,2025-05-28T15:19:49.757541
371,-0.5622,0.7954,0.3914,4.725,-5.040,-4.725,369,408,370,352,348,2025-05-28T15:19:49.757541
372,-0.5876,0.7852,0.3845,5.145,-7.700,-5.880,378,411,376,334,382,2025-05-28T15:19:49.757541
373,-0.5656,0.7706,0.3782,5.040,-13.370,-6.755,394,376,373,371,393,2025-05-28T15:19:49.757541
374,-0.5485,0.7676,0.3880,4.935,-18.620,-7.630,399,428,387,381,391,2025-05-28T15:19:49.757541
375,-0.5280,0.7662,0.3865,4.340,-20.685,-8.225,397,427,384,348,405,2025-05-28T15:19:49.757541
376,-0.5139,0.7632,0.3875,3.430,-22.960,-8.470,417,341,379,383,395,2025-05-28T15:19:49.757541
377,-0.4900,0.7603,0.3723,3.325,-20.440,-8.260,413,408,354,405,399,2025-05-28T15:19:49.757541
378,-0.4734,0.7598,0.3714,3.150,-15.050,-8.085,418,420,330,395,384,2025-05-28T15:19:49.857610
379,-0.4656,0.7544,0.3743,2.170,-8.785,-7.735,424,372,315,402,386,2025-05-28T15:19:49.857610
380,-0.4875,0.7466,0.3758,2.100,-3.885,-6.825,404,412,345,415,385,2025-05-28T15:19:49.857610
381,-0.5173,0.7335,0.3743,2.660,-3.290,-6.545,401,344,358,412,305,2025-05-28T15:19:49.857610
382,-0.5383,0.7320,0.3792,4.025,-6.335,-6.895,400,369,370,399,365,2025-05-28T15:19:49.857610
383,-0.5397,0.7315,0.3792,5.495,-10.780,-7.630,425,416,306,414,382,2025-05-28T15:19:49.857610
384,-0.5246,0.7427,0.3728,7.070,-14.000,-8.120,434,418,354,422,404,2025-05-28T15:19:49.857610
385,-0.5012,0.7535,0.3626,8.155,-15.890,-7.770,415,432,366,409,390,2025-05-28T15:19:49.857610
386,-0.4924,0.7627,0.3645,9.135,-16.205,-7.525,405,422,372,401,401,2025-05-28T15:19:49.857610
387,-0.4660,0.7740,0.3621,9.905,-14.595,-6.580,408,428,352,407,385,2025-05-28T15:19:49.907264
388,-0.4616,0.7867,0.3621,10.430,-11.970,-5.845,428,383,364,392,387,2025-05-28T15:19:49.907264
389,-0.4563,0.7945,0.3601,10.780,-8.505,-5.425,400,404,376,410,352,2025-05-28T15:19:49.907264
390,-0.4646,0.7969,0.3553,11.130,-6.370,-5.005,401,423,386,411,374,2025-05-28T15:19:49.907264
391,-0.4719,0.7974,0.3601,11.795,-5.460,-4.375,366,408,346,370,375,2025-05-28T15:19:49.957271
392,-0.4753,0.8057,0.3684,12.075,-5.670,-3.710,426,415,368,394,347,2025-05-28T15:19:49.957271
393,-0.4753,0.8028,0.3650,12.810,-6.300,-3.220,396,390,374,349,371,2025-05-28T15:19:49.957271
394,-0.4802,0.7979,0.3660,13.650,-8.085,-2.870,395,392,388,388,400,2025-05-28T15:19:49.957271
395,-0.4821,0.7940,0.3650,14.595,-10.150,-2.590,399,417,390,411,409,2025-05-28T15:19:50.008156
396,-0.4841,0.7930,0.3806,14.700,-11.340,-2.730,409,415,390,414,406,2025-05-28T15:19:50.008156
397,-0.4817,0.7798,0.3806,14.140,-11.305,-2.450,382,428,361,410,419,2025-05-28T15:19:50.008156
398,-0.4763,0.7706,0.3762,13.650,-10.500,-2.205,391,417,368,407,404,2025-05-28T15:19:50.008156
399,-0.4826,0.7486,0.3699,13.895,-9.450,-2.065,399,417,371,408,394,2025-05-28T15:19:50.057894
400,-0.4924,0.7300,0.3719,14.175,-7.595,-2.835,424,432,356,404,394,2025-05-28T15:19:50.057894
401,-0.5090,0.7066,0.3611,14.735,-7.630,-3.535,421,406,366,413,409,2025-05-28T15:19:50.057894
402,-0.5334,0.6695,0.3528,15.960,-10.255,-4.795,432,383,375,353,400,2025-05-28T15:19:50.057894
403,-0.5466,0.6456,0.3494,17.430,-13.230,-6.685,385,395,376,359,406,2025-05-28T15:19:50.123960
404,-0.5671,0.6100,0.3382,18.340,-16.695,-9.380,413,427,384,400,418,2025-05-28T15:19:50.123960
405,-0.5754,0.5763,0.3211,19.215,-19.495,-11.830,430,430,393,410,373,2025-05-28T15:19:50.123960
406,-0.5768,0.5451,0.2899,20.615,-18.585,-14.665,425,408,351,416,348,2025-05-28T15:19:50.123960
407,-0.6144,0.5348,0.2855,21.805,-15.400,-17.290,407,414,383,394,338,2025-05-28T15:19:50.123960
408,-0.6515,0.5183,0.2664,22.540,-12.110,-19.950,398,309,376,401,365,2025-05-28T15:19:50.257398
409,-0.6954,0.4978,0.2425,23.765,-12.355,-23.520,417,387,363,409,390,2025-05-28T15:19:50.257398
410,-0.7413,0.5085,0.2450,25.970,-14.630,-27.930,430,407,363,401,391,2025-05-28T15:19:50.257398
411,-0.7535,0.5144,0.2601,28.525,-17.990,-33.320,396,401,359,389,400,2025-05-28T15:19:50.257398
412,-0.7398,0.5519,0.2713,30.135,-23.345,-38.465,307,413,380,414,355,2025-05-28T15:19:50.257398
413,-0.6925,0.6076,0.2699,33.180,-28.595,-43.295,400,422,379,404,339,2025-05-28T15:19:50.257398
414,-0.6617,0.6754,0.2728,36.155,-30.520,-49.770,403,417,381,405,371,2025-05-28T15:19:50.257398
415,-0.6217,0.7593,0.2801,38.640,-29.785,-56.140,404,415,382,395,391,2025-05-28T15:19:50.257398
416,-0.5788,0.8272,0.2928,40.530,-27.195,-64.085,415,417,372,417,407,2025-05-28T15:19:50.257398
417,-0.5505,0.9194,0.2835,41.475,-23.100,-71.330,427,422,389,407,398,2025-05-28T15:19:50.257398
418,-0.5290,1.0219,0.2806,42.280,-19.110,-77.000,424,431,376,413,381,2025-05-28T15:19:50.257398
419,-0.5305,1.1341,0.2826,41.055,-16.975,-80.430,423,401,372,393,375,2025-05-28T15:19:50.257398
420,-0.5256,1.2503,0.2743,36.890,-26.670,-80.745,401,392,347,401,399,2025-05-28T15:19:50.357445
421,-0.5305,1.3454,0.2552,30.730,-21.070,-78.715,390,401,329,391,405,2025-05-28T15:19:50.357445
422,-0.4939,1.4494,0.2430,20.720,-24.080,-72.730,407,419,317,408,392,2025-05-28T15:19:50.357445
423,-0.4407,1.5177,0.2474,6.685,-25.270,-61.670,427,424,354,425,402,2025-05-28T15:19:50.357445
424,-0.4153,1.5465,0.2128,-10.255,-23.975,-50.470,429,407,366,407,398,2025-05-28T15:19:50.357445
425,-0.4124,1.5509,0.2025,-27.265,-20.615,-36.365,364,389,376,407,403,2025-05-28T15:19:50.357445
426,-0.4128,1.5230,0.1981,-45.080,-16.730,-22.155,393,415,385,406,413,2025-05-28T15:19:50.357445
427,-0.4446,1.4479,0.1806,-58.520,-15.645,-8.575,403,400,387,418,413,2025-05-28T15:19:50.357445
428,-0.4656,1.3664,0.1518,-72.415,-16.485,3.535,425,422,353,412,366,2025-05-28T15:19:50.357445
429,-0.4763,1.2761,0.1220,-83.090,-16.870,14.770,413,410,324,371,397,2025-05-28T15:19:50.474734
430,-0.4753,1.1893,0.0922,-91.595,-15.680,25.340,403,406,358,415,389,2025-05-28T15:19:50.474734
431,-0.4797,1.1200,0.0776,-99.015,-11.760,33.355,345,344,373,412,399,2025-05-28T15:19:50.474734
432,-0.4865,1.0721,0.0698,-105.210,-3.885,41.895,397,417,384,423,409,2025-05-28T15:19:50.474734
433,-0.4729,1.0102,0.0551,-110.530,7.070,49.175,409,432,356,423,406,2025-05-28T15:19:50.474734
434,-0.4675,0.9682,0.0561,-113.645,20.125,55.790,399,425,363,416,371,2025-05-28T15:19:50.474734
435,-0.4953,0.9243,0.0610,-115.780,32.935,60.900,424,410,355,390,379,2025-05-28T15:19:50.474734
436,-0.5514,0.8755,0.0683,-116.165,40.250,63.910,422,411,356,406,402,2025-05-28T15:19:50.474734
437,-0.5978,0.8384,0.0800,-114.730,43.575,64.505,357,416,371,406,411,2025-05-28T15:19:50.474734
438,-0.6315,0.8106,0.0952,-111.755,42.175,64.785,413,439,337,403,391,2025-05-28T15:19:50.574876
439,-0.6583,0.7837,0.0942,-107.870,38.955,64.890,420,418,370,422,414,2025-05-28T15:19:50.574876
440,-0.6739,0.7544,0.1054,-104.020,35.175,64.295,418,435,381,411,409,2025-05-28T15:19:50.574876
441,-0.6676,0.7335,0.1083,-100.730,33.950,63.490,427,434,387,409,404,2025-05-28T15:19:50.574876
442,-0.6525,0.7081,0.1118,-98.315,36.260,63.385,423,426,396,400,416,2025-05-28T15:19:50.574876
443,-0.6285,0.6847,0.1103,-96.565,42.000,63.945,405,410,404,371,412,2025-05-28T15:19:50.574876
444,-0.6149,0.6671,0.1196,-94.920,48.020,63.980,419,416,366,396,399,2025-05-28T15:19:50.574876
445,-0.6202,0.6486,0.1230,-93.765,55.720,63.805,425,417,377,410,375,2025-05-28T15:19:50.574876
446,-0.6349,0.6359,0.1269,-92.925,60.760,63.245,405,418,380,381,388,2025-05-28T15:19:50.624011
447,-0.6847,0.6066,0.1230,-91.700,61.075,61.670,385,392,376,411,397,2025-05-28T15:19:50.624011
448,-0.7188,0.5812,0.1293,-89.320,57.470,59.780,400,363,386,415,392,2025-05-28T15:19:50.624011
449,-0.7247,0.5588,0.1337,-86.520,52.185,58.765,348,394,384,413,399,2025-05-28T15:19:50.624011
450,-0.7286,0.5510,0.1649,-83.965,50.365,57.750,395,403,346,355,394,2025-05-28T15:19:50.674853
451,-0.7252,0.5373,0.2020,-81.935,49.770,57.120,425,415,327,333,386,2025-05-28T15:19:50.674853
452,-0.7164,0.5183,0.2298,-80.815,50.645,56.910,430,425,345,383,407,2025-05-28T15:19:50.674853
453,-0.6939,0.5002,0.2547,-80.045,54.320,56.875,429,408,343,394,405,2025-05-28T15:19:50.674853
454,-0.6612,0.4758,0.2767,-79.030,60.795,57.295,413,396,356,396,350,2025-05-28T15:19:50.874601
455,-0.6534,0.4504,0.3050,-77.945,67.725,57.540,431,398,378,389,369,2025-05-28T15:19:50.874601
456,-0.6588,0.4363,0.3353,-76.580,72.940,57.120,432,386,355,344,378,2025-05-28T15:19:50.874601
457,-0.6881,0.4143,0.3748,-75.040,75.355,55.160,386,369,352,399,395,2025-05-28T15:19:50.874601
458,-0.7105,0.3816,0.3967,-72.520,74.620,52.290,395,406,302,389,382,2025-05-28T15:19:50.874601
459,-0.7442,0.3465,0.4299,-69.265,69.895,49.455,388,399,346,375,379,2025-05-28T15:19:50.874601
460,-0.7608,0.3245,0.4743,-64.960,62.125,45.710,413,433,370,403,397,2025-05-28T15:19:50.874601
461,-0.7505,0.3079,0.5017,-60.130,54.215,41.720,417,406,387,389,392,2025-05-28T15:19:50.874601
462,-0.6969,0.2908,0.5012,-56.350,50.330,38.325,414,404,389,403,401,2025-05-28T15:19:50.874601
463,-0.6349,0.2948,0.5207,-52.535,54.355,35.175,411,426,363,409,347,2025-05-28T15:19:50.874601
464,-0.5949,0.3040,0.5251,-50.820,61.530,32.235,419,343,357,419,331,2025-05-28T15:19:50.874601
465,-0.5968,0.2918,0.5480,-49.630,71.225,30.310,420,392,380,377,359,2025-05-28T15:19:50.874601
466,-0.6281,0.2830,0.5719,-46.900,75.740,28.350,345,410,392,410,387,2025-05-28T15:19:50.874601
467,-0.6471,0.2699,0.5632,-41.755,76.545,26.075,383,398,384,375,375,2025-05-28T15:19:50.874601
468,-0.6681,0.2708,0.5539,-27.475,75.950,22.330,421,422,315,401,392,2025-05-28T15:19:50.874601
469,-0.6364,0.2762,0.5246,-29.435,76.650,18.655,306,394,314,308,381,2025-05-28T15:19:50.874601
470,-0.6022,0.3040,0.4968,-23.625,79.660,15.890,396,405,348,333,395,2025-05-28T15:19:50.874601
471,-0.6412,0.3079,0.5217,-20.020,84.980,13.685,430,398,363,370,352,2025-05-28T15:19:51.074057
472,-0.7071,0.3055,0.5158,-15.120,83.685,10.220,367,415,365,389,378,2025-05-28T15:19:51.074057
473,-0.7491,0.2923,0.5207,-9.065,78.155,7.630,419,349,379,384,352,2025-05-28T15:19:51.074057
474,-0.8008,0.2821,0.5363,-1.575,71.330,5.250,421,421,383,388,344,2025-05-28T15:19:51.074057
475,-0.8394,0.2855,0.5636,5.775,62.510,4.165,440,401,383,405,372,2025-05-28T15:19:51.074057
476,-0.8794,0.2884,0.5876,11.970,52.290,3.570,431,413,372,359,396,2025-05-28T15:19:51.074057
477,-0.9101,0.2865,0.6071,20.720,45.185,2.800,422,349,363,376,411,2025-05-28T15:19:51.074057
478,-0.9326,0.2904,0.6329,29.610,38.500,2.030,403,409,372,363,363,2025-05-28T15:19:51.074057
479,-0.9536,0.2977,0.6656,37.590,33.215,1.750,412,359,382,405,383,2025-05-28T15:19:51.074057
480,-0.9765,0.2987,0.6710,44.975,28.140,1.785,345,389,394,352,391,2025-05-28T15:19:51.074057
481,-1.0019,0.2952,0.6622,51.135,22.365,1.470,384,425,389,406,403,2025-05-28T15:19:51.074057
482,-1.0111,0.3065,0.6666,58.870,17.185,1.505,398,435,380,424,390,2025-05-28T15:19:51.074057
483,-1.0189,0.3294,0.6734,64.540,9.170,1.435,404,424,386,411,383,2025-05-28T15:19:51.074057
484,-1.0277,0.3411,0.6593,69.510,0.175,0.945,389,420,380,393,405,2025-05-28T15:19:51.074057
485,-1.0414,0.3631,0.6583,74.025,-9.590,-0.490,417,399,389,406,357,2025-05-28T15:19:51.074057
486,-1.0424,0.4138,0.6525,76.475,-17.430,-1.050,399,426,394,411,391,2025-05-28T15:19:51.074057
487,-1.0253,0.3982,0.6676,78.330,-29.155,-3.255,397,416,389,415,385,2025-05-28T15:19:51.074057
488,-1.0346,0.4133,0.6398,80.920,-38.465,-4.375,430,436,398,412,404,2025-05-28T15:19:51.290638
489,-1.0268,0.4236,0.6159,83.160,-47.705,-5.110,427,412,391,417,403,2025-05-28T15:19:51.290638
490,-1.0282,0.4294,0.6134,85.715,-57.260,-4.970,428,431,387,385,386,2025-05-28T15:19:51.290638
491,-1.0224,0.4372,0.6071,87.815,-68.845,-4.095,432,438,390,357,391,2025-05-28T15:19:51.290638
492,-1.0082,0.4490,0.5797,89.530,-78.820,-3.885,406,416,392,402,365,2025-05-28T15:19:51.290638
493,-0.9653,0.4675,0.5485,92.330,-84.805,-3.185,428,423,399,385,371,2025-05-28T15:19:51.290638
494,-0.9233,0.4831,0.5100,93.870,-88.585,-2.030,420,420,358,365,384,2025-05-28T15:19:51.290638
495,-0.8901,0.5051,0.4807,95.340,-91.280,-0.805,412,414,372,342,402,2025-05-28T15:19:51.290638
496,-0.8647,0.5178,0.4382,96.495,-94.010,0.070,418,440,377,401,415,2025-05-28T15:19:51.290638
497,-0.8174,0.5324,0.3889,97.825,-97.125,0.910,421,418,386,414,401,2025-05-28T15:19:51.290638
498,-0.7720,0.5490,0.3465,98.910,-100.030,2.065,408,423,379,399,350,2025-05-28T15:19:51.290638
499,-0.7623,0.5749,0.3231,99.540,-104.510,2.905,422,403,372,354,346,2025-05-28T15:19:51.290638
500,-0.7159,0.5871,0.2865,98.945,-108.990,5.110,385,408,332,378,354,2025-05-28T15:19:51.290638
501,-0.6378,0.6193,0.2679,98.490,-123.970,3.080,417,419,351,413,386,2025-05-28T15:19:51.395056
502,-0.7544,0.6295,0.2489,99.435,-130.760,1.995,381,401,358,355,395,2025-05-28T15:19:51.395056
503,-0.7247,0.6544,0.2211,99.400,-135.730,0.560,407,415,372,397,394,2025-05-28T15:19:51.395056
504,-0.6398,0.6603,0.1991,99.715,-136.080,-0.175,417,425,382,412,395,2025-05-28T15:19:51.395056
505,-0.6373,0.6661,0.1942,100.590,-131.740,-1.925,421,419,371,396,382,2025-05-28T15:19:51.395056
506,-0.6393,0.6788,0.1810,101.290,-126.980,-3.115,432,350,374,414,348,2025-05-28T15:19:51.395056
507,-0.6559,0.6808,0.1615,102.060,-124.810,-4.060,353,405,375,346,381,2025-05-28T15:19:51.395056
508,-0.6637,0.6993,0.1566,102.480,-123.830,-5.600,385,425,383,371,405,2025-05-28T15:19:51.395056
509,-0.6500,0.7159,0.1425,102.830,-123.270,-7.175,415,416,381,383,407,2025-05-28T15:19:51.395056
510,-0.6378,0.7374,0.1240,102.935,-121.065,-8.470,426,430,389,386,399,2025-05-28T15:19:51.395056
511,-0.6300,0.7598,0.1298,101.885,-118.125,-10.710,419,406,393,392,373,2025-05-28T15:19:51.395056
512,-0.6149,0.7803,0.1269,100.030,-114.765,-12.670,419,399,392,394,400,2025-05-28T15:19:51.395056
513,-0.6144,0.7886,0.1240,97.370,-111.230,-15.540,369,423,388,405,400,2025-05-28T15:19:51.395056
514,-0.6178,0.8042,0.1293,94.605,-109.270,-18.935,423,413,390,396,407,2025-05-28T15:19:51.491198
515,-0.6364,0.8423,0.1405,92.435,-108.850,-22.435,425,415,387,378,401,2025-05-28T15:19:51.491198
516,-0.6486,0.8218,0.1425,89.215,-114.345,-27.475,393,435,392,345,391,2025-05-28T15:19:51.491198
517,-0.6598,0.8325,0.1342,87.675,-116.585,-32.585,393,353,384,383,396,2025-05-28T15:19:51.491198
518,-0.6368,0.8535,0.1313,85.225,-121.660,-37.660,420,339,344,406,398,2025-05-28T15:19:51.491198
519,-0.6217,0.8677,0.1279,82.320,-125.265,-41.615,415,383,370,419,411,2025-05-28T15:19:51.491198
520,-0.5924,0.8891,0.1244,79.660,-127.645,-45.780,415,392,388,428,354,2025-05-28T15:19:51.491198
521,-0.5641,0.9106,0.1147,76.195,-127.925,-49.595,401,346,352,409,382,2025-05-28T15:19:51.491198
522,-0.5417,0.9404,0.0942,72.380,-126.455,-52.570,419,387,365,419,385,2025-05-28T15:19:51.590677
523,-0.5285,0.9638,0.0776,68.250,-125.230,-55.580,418,362,348,365,372,2025-05-28T15:19:51.590677
524,-0.5139,0.9902,0.0542,64.750,-124.320,-58.030,411,336,357,373,382,2025-05-28T15:19:51.590677
525,-0.5007,1.0131,0.0234,60.830,-123.095,-60.165,361,396,360,379,383,2025-05-28T15:19:51.590677
526,-0.4851,1.0453,-0.0044,56.910,-119.875,-62.405,411,431,368,407,378,2025-05-28T15:19:51.590677
527,-0.4773,1.0658,-0.0307,52.710,-114.975,-64.295,430,434,389,408,386,2025-05-28T15:19:51.590677
528,-0.4704,1.0692,-0.0493,47.950,-110.180,-65.485,430,384,346,394,397,2025-05-28T15:19:51.590677
529,-0.4675,1.0848,-0.0478,42.385,-106.400,-65.520,390,421,358,356,367,2025-05-28T15:19:51.590677
530,-0.4690,1.0921,-0.0512,36.225,-102.970,-64.890,384,412,376,350,384,2025-05-28T15:19:51.590677
531,-0.4836,1.0868,-0.0537,31.745,-100.450,-63.910,376,427,387,384,411,2025-05-28T15:19:51.790737
532,-0.4875,1.0829,-0.0512,26.950,-98.210,-62.475,390,312,372,344,369,2025-05-28T15:19:51.790737
533,-0.4812,1.0834,-0.0356,22.050,-95.620,-59.955,409,410,382,392,401,2025-05-28T15:19:51.790737
534,-0.4782,1.0809,-0.0229,16.870,-90.615,-57.610,345,400,375,395,349,2025-05-28T15:19:51.790737
535,-0.4763,1.0756,0.0029,12.355,-84.700,-54.740,400,344,377,410,370,2025-05-28T15:19:51.790737
536,-0.4797,1.0653,0.0327,7.805,-78.470,-51.660,420,380,398,400,380,2025-05-28T15:19:51.790737
537,-0.4563,1.0390,0.0625,3.255,-72.205,-47.495,373,392,361,408,355,2025-05-28T15:19:51.790737
538,-0.4573,1.0512,0.0937,-0.980,-65.975,-43.925,415,398,376,412,392,2025-05-28T15:19:51.790737
539,-0.4690,1.0399,0.1293,-5.040,-61.495,-39.410,381,429,369,393,400,2025-05-28T15:19:51.790737
540,-0.4651,1.0326,0.1591,-9.450,-55.720,-35.245,418,408,381,402,399,2025-05-28T15:19:51.790737
541,-0.4690,1.0346,0.1767,-12.390,-50.890,-31.885,402,406,393,416,369,2025-05-28T15:19:51.790737
542,-0.4748,1.0516,0.2113,-14.525,-45.045,-26.915,397,408,393,393,398,2025-05-28T15:19:51.790737
543,-0.4880,1.0575,0.2338,-17.535,-37.940,-21.980,416,425,382,358,350,2025-05-28T15:19:51.790737
544,-0.4958,1.0702,0.2611,-20.090,-32.130,-16.485,403,408,380,401,376,2025-05-28T15:19:51.790737
545,-0.5231,1.0765,0.2948,-23.905,-28.105,-10.815,426,410,390,395,394,2025-05-28T15:19:51.790737
546,-0.5661,1.0838,0.3240,-28.175,-26.495,-5.950,383,421,400,398,411,2025-05-28T15:19:51.790737
547,-0.5929,1.0819,0.3396,-32.550,-28.770,-2.450,420,413,382,415,406,2025-05-28T15:19:51.790737
548,-0.6046,1.0834,0.3621,-37.135,-33.110,3.150,421,435,384,416,410,2025-05-28T15:19:51.907276
549,-0.5958,1.0780,0.3689,-42.070,-36.960,6.650,434,406,392,397,397,2025-05-28T15:19:51.907276
550,-0.5880,1.0765,0.3753,-47.635,-40.355,10.815,407,424,382,307,393,2025-05-28T15:19:51.907276
551,-0.5851,1.0551,0.3689,-52.990,-42.945,14.035,410,364,381,363,385,2025-05-28T15:19:51.907276
552,-0.5710,1.0365,0.3645,-57.295,-45.885,17.255,431,388,383,389,404,2025-05-28T15:19:51.907276
553,-0.5553,1.0189,0.3548,-62.335,-47.145,20.160,418,411,344,359,400,2025-05-28T15:19:51.907276
554,-0.5314,1.0019,0.3538,-67.305,-46.480,22.750,435,404,365,388,390,2025-05-28T15:19:51.907276
555,-0.5222,0.9804,0.3450,-71.750,-44.730,24.920,364,359,375,393,394,2025-05-28T15:19:51.907276
556,-0.4914,0.9638,0.3338,-75.635,-42.805,28.035,389,415,378,391,390,2025-05-28T15:19:52.007129
557,-0.4660,0.9457,0.3250,-80.010,-39.165,30.940,392,377,388,347,345,2025-05-28T15:19:52.007129
558,-0.4529,0.9277,0.2991,-84.385,-34.440,33.250,392,392,380,369,374,2025-05-28T15:19:52.007129
559,-0.4514,0.9091,0.2625,-87.185,-29.925,34.440,410,426,349,403,341,2025-05-28T15:19:52.007129
560,-0.4329,0.8862,0.2464,-90.895,-26.005,35.420,396,404,366,356,371,2025-05-28T15:19:52.007129
561,-0.4138,0.8682,0.2377,-93.660,-23.205,37.450,404,409,378,399,396,2025-05-28T15:19:52.007129
562,-0.4104,0.8452,0.2167,-98.770,-20.755,40.390,387,425,388,410,370,2025-05-28T15:19:52.007129
563,-0.4060,0.8228,0.1898,-103.145,-17.500,44.870,415,404,381,413,391,2025-05-28T15:19:52.007129
564,-0.3841,0.7954,0.1537,-106.750,-13.230,49.420,395,415,379,413,347,2025-05-28T15:19:52.107097
565,-0.3611,0.7662,0.1303,-109.200,-7.945,54.810,395,429,342,394,369,2025-05-28T15:19:52.107097
566,-0.3396,0.7520,0.1220,-111.860,-1.155,59.955,344,407,359,343,372,2025-05-28T15:19:52.107097
567,-0.3113,0.7315,0.1035,-114.100,7.245,65.170,340,409,359,398,394,2025-05-28T15:19:52.107097
568,-0.3045,0.7110,0.1015,-115.745,17.045,70.000,411,405,381,409,395,2025-05-28T15:19:52.107097
569,-0.3070,0.6822,0.1069,-117.040,27.370,74.340,426,430,392,366,391,2025-05-28T15:19:52.107097
570,-0.3065,0.6334,0.1059,-117.845,34.615,78.995,424,415,381,398,348,2025-05-28T15:19:52.107097
571,-0.3162,0.6002,0.1054,-116.970,42.385,82.495,432,429,382,392,381,2025-05-28T15:19:52.107097
572,-0.3348,0.5700,0.1210,-115.115,51.275,86.205,430,384,387,346,395,2025-05-28T15:19:52.107097
573,-0.3562,0.5300,0.1322,-112.805,59.885,89.285,413,405,376,395,407,2025-05-28T15:19:52.157300
574,-0.3816,0.4895,0.1601,-109.375,67.095,91.735,398,425,383,386,420,2025-05-28T15:19:52.157300
575,-0.3992,0.4568,0.1820,-104.370,73.850,93.940,387,417,375,384,418,2025-05-28T15:19:52.157300
576,-0.4085,0.4446,0.1942,-100.100,82.495,95.900,398,355,377,383,414,2025-05-28T15:19:52.157300
577,-0.4168,0.4407,0.2206,-93.800,93.485,98.105,420,386,377,398,369,2025-05-28T15:19:52.407179
578,-0.4192,0.4436,0.2484,-87.815,103.705,101.220,424,392,384,408,347,2025-05-28T15:19:52.407179
579,-0.4543,0.4416,0.2684,-81.970,116.900,103.845,432,424,381,392,340,2025-05-28T15:19:52.407179
580,-0.4865,0.4329,0.2879,-75.565,129.710,105.175,380,406,390,412,340,2025-05-28T15:19:52.407179
581,-0.5217,0.4348,0.3084,-68.460,140.980,106.050,377,422,381,419,369,2025-05-28T15:19:52.407179
582,-0.5597,0.4377,0.3348,-61.810,150.710,105.945,392,425,387,400,397,2025-05-28T15:19:52.407179
583,-0.5963,0.4421,0.3528,-55.790,158.620,105.735,394,399,387,388,364,2025-05-28T15:19:52.407179
584,-0.6588,0.4255,0.3728,-50.400,163.765,105.630,424,414,378,392,375,2025-05-28T15:19:52.407179
585,-0.7086,0.4221,0.3928,-45.430,166.040,105.700,407,415,373,402,369,2025-05-28T15:19:52.407179
586,-0.7637,0.4343,0.4138,-39.620,167.020,105.315,387,396,372,350,376,2025-05-28T15:19:52.407179
587,-0.7979,0.4485,0.4294,-35.070,168.420,104.195,380,424,386,394,404,2025-05-28T15:19:52.407179
588,-0.8213,0.4465,0.4431,-32.130,169.820,103.775,398,365,388,416,397,2025-05-28T15:19:52.407179
589,-0.8574,0.4402,0.4485,-29.960,171.290,103.810,419,407,381,397,403,2025-05-28T15:19:52.407179
590,-0.8633,0.4372,0.4563,-28.175,174.300,103.915,421,397,384,348,358,2025-05-28T15:19:52.407179
591,-0.8789,0.4314,0.4412,-26.005,178.185,103.635,417,339,367,367,385,2025-05-28T15:19:52.407179
592,-0.8994,0.4377,0.4294,-23.765,182.035,102.270,429,414,391,389,386,2025-05-28T15:19:52.407179
593,-0.9087,0.4368,0.4138,-20.965,184.905,99.750,427,423,388,408,307,2025-05-28T15:19:52.407179
594,-0.9453,0.4504,0.4285,-18.655,184.310,96.530,419,424,387,403,371,2025-05-28T15:19:52.407179
595,-0.9706,0.4426,0.4333,-15.890,179.095,93.415,413,403,384,400,390,2025-05-28T15:19:52.407179
596,-0.9872,0.4465,0.4387,-12.215,168.980,89.180,421,413,389,405,383,2025-05-28T15:19:52.407179
597,-0.9970,0.4524,0.4265,-8.155,158.480,83.720,403,431,389,412,405,2025-05-28T15:19:52.623819
598,-1.0331,0.4402,0.4270,-3.920,148.260,76.965,398,438,393,401,411,2025-05-28T15:19:52.623819
599,-1.0043,0.4324,0.4163,0.175,139.475,71.365,341,396,397,398,408,2025-05-28T15:19:52.623819
600,-0.9858,0.4280,0.4006,2.905,135.835,67.060,405,405,397,395,406,2025-05-28T15:19:52.623819
601,-0.9784,0.4343,0.3884,6.335,138.775,62.090,407,427,394,400,402,2025-05-28T15:19:52.623819
602,-0.9906,0.4553,0.3831,9.520,142.520,56.875,349,398,389,385,406,2025-05-28T15:19:52.623819
603,-1.0024,0.4656,0.3636,12.145,146.440,52.255,418,355,347,378,415,2025-05-28T15:19:52.623819
604,-1.0575,0.4573,0.3601,15.505,148.435,46.340,422,421,329,392,361,2025-05-28T15:19:52.623819
605,-1.1448,0.4216,0.3826,19.880,145.075,39.620,417,404,287,406,376,2025-05-28T15:19:52.623819
606,-1.2434,0.3753,0.3987,25.340,131.915,32.830,376,395,344,368,353,2025-05-28T15:19:52.623819
607,-1.2942,0.3294,0.4168,30.660,111.685,27.510,388,357,324,379,374,2025-05-28T15:19:52.623819
608,-1.3230,0.3182,0.4299,37.555,94.955,21.735,426,363,310,400,388,2025-05-28T15:19:52.623819
609,-1.3176,0.2996,0.4524,44.030,79.940,14.910,432,413,354,411,401,2025-05-28T15:19:52.623819
610,-1.3318,0.2689,0.4856,49.035,69.020,10.500,430,430,369,406,409,2025-05-28T15:19:52.623819
611,-1.3259,0.2489,0.5100,53.620,61.355,7.700,427,422,387,415,406,2025-05-28T15:19:52.623819
612,-1.3415,0.2103,0.5324,58.240,54.950,6.755,403,431,379,391,411,2025-05-28T15:19:52.623819
613,-1.3376,0.1840,0.5524,62.335,46.550,7.000,339,400,386,415,407,2025-05-28T15:19:52.623819
614,-1.3332,0.1757,0.5685,68.635,37.415,7.385,408,427,375,410,413,2025-05-28T15:19:52.623819
615,-1.3152,0.1752,0.5661,75.600,25.340,6.160,338,416,372,398,398,2025-05-28T15:19:52.673762
616,-1.2493,0.2011,0.5475,83.195,14.665,4.795,373,405,369,381,390,2025-05-28T15:19:52.673762
617,-1.1976,0.2303,0.5334,90.055,5.740,2.485,339,402,383,410,396,2025-05-28T15:19:52.673762
618,-1.1629,0.2582,0.5148,96.005,-3.185,-0.805,408,409,381,392,356,2025-05-28T15:19:52.673762
619,-1.1390,0.2840,0.4895,99.960,-12.950,-3.850,363,415,385,398,359,2025-05-28T15:19:52.673762
620,-1.1346,0.3016,0.4299,105.455,-20.720,-6.335,381,413,383,403,330,2025-05-28T15:19:52.923657
621,-1.1346,0.3323,0.3655,109.760,-29.785,-7.945,365,409,373,401,376,2025-05-28T15:19:52.923657
622,-1.1424,0.3611,0.2889,113.505,-38.640,-8.575,393,395,368,369,397,2025-05-28T15:19:52.923657
623,-1.1575,0.3894,0.2352,115.955,-48.020,-8.575,400,356,381,384,393,2025-05-28T15:19:52.923657
624,-1.1570,0.4324,0.1723,117.530,-58.275,-8.120,424,411,385,394,387,2025-05-28T15:19:52.923657
625,-1.1800,0.4626,0.1059,118.125,-69.335,-7.140,349,348,395,389,406,2025-05-28T15:19:52.923657
626,-1.1746,0.5056,0.0547,117.600,-80.745,-5.670,386,398,389,388,369,2025-05-28T15:19:52.923657
627,-1.1785,0.5456,0.0005,116.445,-90.825,-3.710,414,409,391,405,375,2025-05-28T15:19:52.923657
628,-1.1966,0.5788,-0.0410,115.115,-104.650,-2.310,409,431,380,355,393,2025-05-28T15:19:52.923657
629,-1.2015,0.6032,-0.0776,114.695,-121.940,-1.540,343,425,374,347,398,2025-05-28T15:19:52.923657
630,-1.2029,0.6320,-0.1078,114.345,-141.435,-1.610,334,357,378,393,385,2025-05-28T15:19:52.923657
631,-1.1780,0.6432,-0.1274,114.590,-160.370,-1.505,377,410,384,348,362,2025-05-28T15:19:52.923657
632,-1.1356,0.6608,-0.1337,114.730,-176.925,-0.315,389,428,391,399,381,2025-05-28T15:19:52.923657
633,-1.0780,0.6656,-0.1615,114.030,-187.495,0.665,386,407,389,388,403,2025-05-28T15:19:52.923657
634,-1.0204,0.6739,-0.1654,112.665,-191.065,1.050,394,441,383,388,392,2025-05-28T15:19:52.923657
635,-0.9740,0.6715,-0.1728,111.405,-190.435,1.470,396,375,380,352,360,2025-05-28T15:19:52.923657
636,-0.9311,0.6812,-0.1732,108.640,-184.100,2.030,418,361,365,371,376,2025-05-28T15:19:52.923657
637,-0.8921,0.6881,-0.1688,104.300,-172.935,3.465,357,396,382,406,394,2025-05-28T15:19:52.923657
638,-0.9067,0.6817,-0.1698,99.575,-164.605,5.810,366,437,378,397,387,2025-05-28T15:19:52.923657
639,-0.9311,0.6788,-0.1737,95.620,-160.720,7.595,406,444,385,384,408,2025-05-28T15:19:52.923657
640,-0.9482,0.6905,-0.1640,90.755,-160.685,9.065,357,432,383,404,401,2025-05-28T15:19:53.024175
641,-0.9701,0.6998,-0.1581,85.855,-164.395,10.010,381,426,354,409,408,2025-05-28T15:19:53.024175
642,-0.9721,0.7037,-0.1708,81.375,-170.695,10.780,373,419,363,399,389,2025-05-28T15:19:53.024175
643,-0.9575,0.7178,-0.1669,77.035,-175.665,11.095,402,428,380,370,350,2025-05-28T15:19:53.024175
644,-0.9379,0.7344,-0.1649,72.555,-180.530,10.675,343,343,378,377,381,2025-05-28T15:19:53.024175
645,-0.8989,0.7442,-0.1601,68.250,-181.440,10.150,396,358,358,407,397,2025-05-28T15:19:53.024175
646,-0.8701,0.7613,-0.1464,63.735,-178.500,9.555,393,413,377,401,403,2025-05-28T15:19:53.024175
647,-0.8540,0.7774,-0.1362,59.185,-173.565,8.330,423,407,376,410,397,2025-05-28T15:19:53.024175
648,-0.8462,0.7881,-0.1186,55.580,-169.015,6.510,401,412,378,396,351,2025-05-28T15:19:53.024175
649,-0.8491,0.7881,-0.1054,51.625,-167.265,2.975,404,381,364,404,376,2025-05-28T15:19:53.123846
650,-0.8447,0.7798,-0.0981,49.350,-168.070,-1.995,423,429,370,421,399,2025-05-28T15:19:53.123846
651,-0.8306,0.7876,-0.0898,47.775,-171.185,-7.035,419,422,371,423,395,2025-05-28T15:19:53.164324
652,-0.8174,0.8052,-0.0908,46.235,-175.350,-14.875,397,417,365,396,409,2025-05-28T15:19:53.164324
653,-0.7720,0.8237,-0.0986,44.695,-178.640,-22.960,399,415,360,407,351,2025-05-28T15:19:53.164324
654,-0.7335,0.8281,-0.1025,42.840,-179.585,-31.570,393,403,369,394,376,2025-05-28T15:19:53.164324
655,-0.6861,0.8218,-0.0952,40.460,-177.240,-39.095,342,426,369,384,379,2025-05-28T15:19:53.164324
656,-0.6486,0.8281,-0.0805,36.645,-171.535,-45.535,374,435,378,384,396,2025-05-28T15:19:53.164324
657,-0.6212,0.8223,-0.0483,30.135,-165.620,-50.085,355,418,387,396,391,2025-05-28T15:19:53.164324
658,-0.6085,0.8257,-0.0254,22.890,-157.745,-52.465,408,358,349,415,393,2025-05-28T15:19:53.340772
659,-0.5714,0.8325,-0.0083,15.995,-149.730,-52.780,409,406,371,419,393,2025-05-28T15:19:53.340772
660,-0.5485,0.8394,0.0078,9.975,-141.505,-51.625,419,426,378,407,393,2025-05-28T15:19:53.340772
661,-0.5168,0.8506,0.0151,5.215,-131.950,-50.050,394,429,340,413,404,2025-05-28T15:19:53.340772
662,-0.4958,0.8633,0.0264,0.945,-122.465,-48.020,393,419,363,396,365,2025-05-28T15:19:53.340772
663,-0.4773,0.8730,0.0429,-1.995,-114.940,-44.345,429,400,378,419,373,2025-05-28T15:19:53.340772
664,-0.4734,0.8852,0.0649,-6.125,-111.195,-41.125,400,413,379,409,400,2025-05-28T15:19:53.340772
665,-0.4612,0.9013,0.0776,-10.640,-107.310,-38.010,348,410,392,393,389,2025-05-28T15:19:53.340772
666,-0.4416,0.9194,0.0849,-14.560,-103.320,-35.945,401,408,391,387,400,2025-05-28T15:19:53.340772
667,-0.4192,0.9345,0.1083,-19.180,-98.490,-33.530,397,402,380,398,414,2025-05-28T15:19:53.340772
668,-0.3924,0.9409,0.1215,-24.570,-92.610,-30.520,396,376,388,390,402,2025-05-28T15:19:53.340772
669,-0.3748,0.9506,0.1410,-28.945,-85.785,-26.425,427,392,398,347,386,2025-05-28T15:19:53.340772
670,-0.3611,0.9536,0.1620,-34.125,-78.400,-21.980,432,411,391,386,407,2025-05-28T15:19:53.340772
671,-0.3543,0.9487,0.1810,-38.815,-72.660,-17.570,412,376,391,405,411,2025-05-28T15:19:53.340772
672,-0.3543,0.9662,0.2040,-43.610,-65.205,-14.770,341,338,388,351,404,2025-05-28T15:19:53.340772
673,-0.3401,0.9711,0.2264,-48.720,-56.700,-12.005,397,387,393,394,422,2025-05-28T15:19:53.340772
674,-0.3465,0.9740,0.2567,-54.180,-47.460,-8.995,301,413,393,406,407,2025-05-28T15:19:53.340772
675,-0.3558,0.9726,0.2908,-59.605,-39.760,-5.180,324,354,391,406,412,2025-05-28T15:19:53.440449
676,-0.3870,0.9672,0.3177,-64.365,-34.335,-0.875,405,388,357,350,403,2025-05-28T15:19:53.440449
677,-0.4304,0.9658,0.3631,-68.320,-33.005,3.710,418,427,377,375,388,2025-05-28T15:19:53.440449
678,-0.4426,0.9658,0.3967,-71.050,-34.405,9.310,379,404,358,400,365,2025-05-28T15:19:53.440449
679,-0.4494,0.9667,0.4338,-73.990,-34.825,15.995,391,411,374,352,381,2025-05-28T15:19:53.440449
680,-0.4699,0.9648,0.4826,-76.370,-34.580,21.875,402,430,390,348,404,2025-05-28T15:19:53.440449
681,-0.4690,0.9550,0.4978,-77.945,-34.265,29.120,422,355,370,336,407,2025-05-28T15:19:53.440449
682,-0.4773,0.9477,0.5309,-78.820,-32.375,36.575,415,389,379,370,397,2025-05-28T15:19:53.440449
683,-0.4924,0.9311,0.5519,-79.590,-29.925,44.660,397,403,390,382,391,2025-05-28T15:19:53.524445
684,-0.4909,0.9252,0.5695,-80.745,-27.895,53.515,391,397,385,391,408,2025-05-28T15:19:53.524445
685,-0.4924,0.9174,0.5714,-82.670,-24.745,62.335,422,420,313,382,399,2025-05-28T15:19:53.524445
686,-0.4860,0.9140,0.5680,-85.085,-21.840,71.190,393,400,354,405,406,2025-05-28T15:19:53.524445
687,-0.4787,0.9130,0.5568,-88.200,-19.040,78.505,373,412,361,406,413,2025-05-28T15:19:53.573976
688,-0.4695,0.8843,0.5348,-92.435,-17.395,89.320,395,401,378,371,407,2025-05-28T15:19:53.573976
689,-0.4538,0.8286,0.5046,-95.515,-16.975,96.425,391,408,346,395,389,2025-05-28T15:19:53.573976
690,-0.4324,0.7788,0.4646,-97.440,-15.890,105.350,388,418,376,395,401,2025-05-28T15:19:53.573976
691,-0.3928,0.7344,0.4192,-97.895,-12.005,112.315,400,412,394,420,356,2025-05-28T15:19:53.573976
692,-0.3675,0.6939,0.3797,-97.265,-5.250,115.675,417,398,390,420,375,2025-05-28T15:19:53.573976
693,-0.3396,0.6466,0.3323,-95.725,3.745,116.480,414,361,376,384,387,2025-05-28T15:19:53.573976
694,-0.3006,0.6002,0.3001,-93.590,13.580,116.690,406,389,372,406,407,2025-05-28T15:19:53.623722
695,-0.2625,0.5495,0.2835,-91.350,23.030,118.055,409,415,369,391,398,2025-05-28T15:19:53.623722
696,-0.2489,0.4997,0.2801,-89.775,31.850,119.700,424,411,370,410,398,2025-05-28T15:19:53.623722
697,-0.2479,0.4485,0.2855,-87.430,36.960,120.540,411,399,378,400,348,2025-05-28T15:19:53.623722
698,-0.2406,0.3855,0.2762,-83.615,41.195,120.750,438,423,395,382,291,2025-05-28T15:19:53.740529
699,-0.2489,0.3436,0.2601,-78.295,43.085,121.905,432,407,376,343,356,2025-05-28T15:19:53.740529
700,-0.2181,0.3372,0.2547,-71.645,48.055,122.010,360,430,376,398,392,2025-05-28T15:19:53.740529
701,-0.2059,0.3143,0.2606,-66.045,61.460,119.070,417,400,384,401,395,2025-05-28T15:19:53.740529
702,-0.1908,0.2962,0.2606,-61.040,79.870,114.940,415,426,379,404,391,2025-05-28T15:19:53.740529
703,-0.2089,0.2699,0.2635,-56.490,99.960,110.425,396,353,340,404,395,2025-05-28T15:19:53.740529
704,-0.2338,0.2625,0.2757,-53.060,120.260,106.610,412,355,372,392,358,2025-05-28T15:19:53.740529
705,-0.2816,0.2460,0.2928,-48.615,135.660,103.040,415,384,332,343,387,2025-05-28T15:19:53.740529
706,-0.3401,0.2391,0.3143,-42.735,151.060,99.050,433,419,360,393,393,2025-05-28T15:19:53.740529
707,-0.4216,0.2435,0.3426,-35.805,161.875,95.165,399,416,348,392,395,2025-05-28T15:19:53.740529
708,-0.5046,0.3719,0.3709,-27.930,168.490,89.565,420,356,341,404,359,2025-05-28T15:19:53.791278
709,-0.5675,0.2635,0.3816,-19.705,173.040,83.125,407,417,358,397,375,2025-05-28T15:19:53.791278
710,-0.6002,0.2767,0.3821,-11.760,179.760,77.000,421,398,374,407,402,2025-05-28T15:19:53.791278
711,-0.6822,0.2835,0.4353,-5.040,188.440,72.240,428,421,389,417,404,2025-05-28T15:19:53.791278
712,-0.7720,0.2650,0.4524,0.840,195.825,68.390,422,365,387,351,390,2025-05-28T15:19:53.840478
713,-0.8867,0.2557,0.4738,8.470,200.270,64.155,434,417,372,343,380,2025-05-28T15:19:53.840478
714,-0.9472,0.2474,0.4646,15.645,207.725,60.235,441,416,391,380,399,2025-05-28T15:19:53.840478
715,-1.0126,0.2411,0.4577,20.755,217.070,58.380,420,407,370,384,388,2025-05-28T15:19:53.840478
716,-1.1180,0.2298,0.4763,23.800,226.275,57.610,403,427,371,383,401,2025-05-28T15:19:53.891361
717,-1.2708,0.1918,0.5202,27.230,228.480,56.525,413,400,342,386,416,2025-05-28T15:19:53.891361
718,-1.3610,0.1703,0.5607,30.030,221.865,55.685,408,410,364,397,397,2025-05-28T15:19:53.891361
719,-1.4084,0.1596,0.5788,34.300,212.625,54.005,392,428,371,379,406,2025-05-28T15:19:53.891361
720,-1.4176,0.1610,0.6222,38.745,202.825,50.995,340,354,368,402,417,2025-05-28T15:19:54.056908
721,-1.3859,0.1776,0.6510,44.030,191.625,47.320,383,340,350,396,414,2025-05-28T15:19:54.056908
722,-1.3820,0.2015,0.6925,47.985,180.320,43.540,419,398,368,387,355,2025-05-28T15:19:54.056908
723,-1.3727,0.2318,0.7330,50.365,162.470,39.620,423,403,361,388,395,2025-05-28T15:19:54.056908
724,-1.3635,0.2484,0.7501,52.605,139.090,33.530,407,402,371,397,401,2025-05-28T15:19:54.057077
725,-1.3288,0.2645,0.7340,57.015,114.135,25.095,414,424,375,390,395,2025-05-28T15:19:54.057077
726,-1.2952,0.2830,0.7344,61.250,92.855,15.365,413,418,388,411,402,2025-05-28T15:19:54.057077
727,-1.2185,0.3192,0.7154,64.855,76.650,7.000,346,381,384,310,406,2025-05-28T15:19:54.057077
728,-1.1531,0.3645,0.6993,67.305,67.865,0.035,398,419,386,375,411,2025-05-28T15:19:54.057077
729,-1.1551,0.4207,0.6988,68.705,58.940,-5.495,421,433,375,393,388,2025-05-28T15:19:54.057077
730,-1.1746,0.4558,0.7105,68.775,47.145,-11.725,401,418,387,405,386,2025-05-28T15:19:54.057077
731,-1.2000,0.5309,0.7266,66.535,28.630,-16.065,425,426,352,418,355,2025-05-28T15:19:54.057077
732,-1.1888,0.6061,0.7178,63.980,8.120,-17.920,398,435,361,415,377,2025-05-28T15:19:54.057077
733,-1.1932,0.6769,0.7252,62.440,-11.725,-19.425,406,393,373,418,396,2025-05-28T15:19:54.057077
734,-1.1868,0.7549,0.7325,60.305,-27.965,-20.755,421,395,387,354,395,2025-05-28T15:19:54.156959
735,-1.1751,0.8257,0.7593,57.645,-48.440,-20.790,405,392,389,374,311,2025-05-28T15:19:54.156959
736,-1.1400,0.9130,0.7779,54.110,-67.935,-20.370,423,404,381,382,362,2025-05-28T15:19:54.156959
737,-1.0614,1.0014,0.8076,49.210,-82.705,-18.200,406,400,351,380,354,2025-05-28T15:19:54.156959
738,-1.0268,1.0892,0.8247,41.860,-93.450,-15.540,411,417,363,397,382,2025-05-28T15:19:54.156959
739,-0.9975,1.1458,0.8369,33.775,-105.280,-12.670,430,404,372,384,409,2025-05-28T15:19:54.156959
740,-0.9853,1.1732,0.8364,27.965,-121.940,-8.575,427,408,347,408,358,2025-05-28T15:19:54.156959
741,-0.9975,1.1317,0.7618,24.395,-137.060,-2.450,420,420,383,407,382,2025-05-28T15:19:54.156959
742,-0.9902,1.1102,0.6666,24.045,-154.315,2.520,418,406,393,399,340,2025-05-28T15:19:54.156959
743,-0.9399,1.0780,0.5710,24.710,-161.420,9.310,391,411,383,404,341,2025-05-28T15:19:54.207762
744,-0.8911,1.0214,0.4631,24.325,-157.395,17.395,376,311,388,350,329,2025-05-28T15:19:54.207762
745,-0.8028,0.9589,0.3738,23.485,-143.220,26.425,402,409,375,401,377,2025-05-28T15:19:54.207762
746,-0.8042,0.8403,0.2391,22.715,-119.315,34.650,428,430,393,390,345,2025-05-28T15:19:54.257433
747,-0.8511,0.7261,0.1200,22.470,-92.925,41.615,420,428,391,413,387,2025-05-28T15:19:54.257433
748,-0.9453,0.5700,-0.0020,22.085,-74.060,48.160,406,409,377,412,407,2025-05-28T15:19:54.257433
749,-1.0043,0.3953,-0.0898,20.615,-63.840,54.460,418,391,381,405,409,2025-05-28T15:19:54.257433
750,-1.0209,0.1064,-0.2157,21.875,-62.965,56.980,413,390,387,344,402,2025-05-28T15:19:54.257433
751,-1.0253,-0.1688,-0.3499,27.265,-63.595,51.975,416,374,376,394,416,2025-05-28T15:19:54.357167
752,-0.9428,-0.3157,-0.4626,33.670,-60.865,44.415,425,410,350,409,397,2025-05-28T15:19:54.357167
753,-0.8013,-0.3421,-0.4412,37.030,-53.690,34.930,422,355,372,419,403,2025-05-28T15:19:54.357167
754,-0.6076,-0.3270,-0.4465,36.190,-42.700,28.665,401,391,379,389,392,2025-05-28T15:19:54.357167
755,-0.4675,-0.2782,-0.3787,33.845,-27.930,21.420,346,392,337,385,384,2025-05-28T15:19:54.357167
756,-0.3548,-0.2181,-0.3216,32.235,-9.625,12.880,357,386,358,384,403,2025-05-28T15:19:54.357167
757,-0.3338,-0.1606,-0.2538,32.865,2.590,4.830,390,432,370,394,357,2025-05-28T15:19:54.357167
758,-0.3597,-0.1030,-0.1830,36.365,10.185,-2.170,396,401,379,397,379,2025-05-28T15:19:54.357167
759,-0.3953,-0.0615,-0.1181,42.000,7.665,-9.905,411,408,391,390,400,2025-05-28T15:19:54.507004
760,-0.4270,0.0190,-0.0488,47.495,0.000,-17.255,403,410,351,391,401,2025-05-28T15:19:54.507004
761,-0.4148,0.1469,0.0307,51.940,-7.000,-24.430,404,428,383,388,348,2025-05-28T15:19:54.507004
762,-0.3792,0.3026,0.0942,57.260,-8.435,-29.995,418,406,388,352,357,2025-05-28T15:19:54.507004
763,-0.3748,0.4509,0.1566,62.650,-2.835,-33.880,417,425,375,383,371,2025-05-28T15:19:54.656920
764,-0.3553,0.6198,0.2284,67.970,9.310,-36.890,421,411,373,401,380,2025-05-28T15:19:54.656920
765,-0.3762,0.7730,0.3221,72.170,25.060,-37.835,403,410,383,344,302,2025-05-28T15:19:54.656920
766,-0.4187,0.9726,0.4904,74.550,41.685,-36.190,416,405,383,367,354,2025-05-28T15:19:54.656920
767,-0.5212,1.1785,0.4446,74.620,53.515,-34.440,377,399,395,390,378,2025-05-28T15:19:54.656920
768,-0.6666,1.4054,0.5402,73.150,57.470,-32.795,387,415,378,352,377,2025-05-28T15:19:54.656920
769,-0.8198,1.6182,0.6364,66.885,51.975,-30.590,336,395,386,402,363,2025-05-28T15:19:54.656920
770,-0.9496,1.7832,0.7344,57.575,36.960,-28.735,395,393,389,388,398,2025-05-28T15:19:54.656920
771,-1.0712,1.8402,0.8252,44.590,14.560,-26.110,402,422,381,383,402,2025-05-28T15:19:54.656920
772,-1.1683,1.8559,0.8613,30.485,-12.670,-21.630,367,420,380,406,407,2025-05-28T15:19:54.656920
773,-1.2010,1.7802,0.8579,14.420,-42.770,-15.400,401,408,377,413,412,2025-05-28T15:19:54.656920
774,-1.1707,1.6265,0.8072,2.975,-69.510,-6.160,406,400,381,401,407,2025-05-28T15:19:54.656920
775,-1.1009,1.4367,0.7052,-8.085,-86.240,5.320,407,390,377,404,398,2025-05-28T15:19:54.656920
776,-1.0146,1.2503,0.5778,-14.525,-99.085,15.610,415,391,371,387,382,2025-05-28T15:19:54.656920
777,-0.8984,1.1141,0.4670,-20.230,-104.055,26.985,423,413,380,398,400,2025-05-28T15:19:54.656920
778,-0.7618,0.9609,0.2684,-26.740,-101.535,37.380,415,421,385,397,392,2025-05-28T15:19:54.656920
779,-0.6163,0.8081,0.2713,-31.990,-91.945,46.550,384,410,394,411,386,2025-05-28T15:19:54.656920
780,-0.5192,0.6749,0.1645,-34.685,-79.730,53.130,403,422,384,405,404,2025-05-28T15:19:54.656920
781,-0.4465,0.5768,0.0976,-36.260,-70.455,56.105,404,432,344,400,406,2025-05-28T15:19:54.656920
782,-0.3792,0.4841,0.0239,-35.315,-65.380,56.280,405,429,372,411,412,2025-05-28T15:19:54.656920
783,-0.3318,0.4143,-0.0151,-32.025,-60.760,54.635,416,376,374,409,411,2025-05-28T15:19:54.707165
784,-0.2694,0.3665,-0.0381,-27.265,-55.930,50.190,428,300,306,346,391,2025-05-28T15:19:54.707165
785,-0.2206,0.3367,-0.0600,-22.330,-50.960,46.620,418,416,360,396,397,2025-05-28T15:19:54.707165
786,-0.1742,0.3279,-0.0717,-17.605,-43.960,41.335,423,342,383,392,395,2025-05-28T15:19:54.707165
787,-0.1342,0.3304,-0.0815,-13.615,-32.655,35.455,343,414,380,348,366,2025-05-28T15:19:54.707165
788,-0.1147,0.3294,-0.0908,-10.745,-19.320,29.680,409,398,336,393,390,2025-05-28T15:19:54.757231
789,-0.1147,0.3353,-0.0976,-6.475,-6.020,24.395,424,421,361,391,398,2025-05-28T15:19:54.757231
790,-0.1288,0.3592,-0.0742,-2.100,5.250,18.060,416,424,369,402,410,2025-05-28T15:19:54.757231
791,-0.1674,0.4963,-0.0517,2.345,18.690,12.705,421,403,378,422,406,2025-05-28T15:19:54.757231
792,-0.2191,0.4138,-0.0181,7.490,28.735,6.265,402,407,373,406,414,2025-05-28T15:19:54.807736
793,-0.2704,0.4768,-0.0024,13.580,35.910,-0.140,347,412,388,413,392,2025-05-28T15:19:54.807736
794,-0.3382,0.5856,0.0439,18.935,44.170,-8.260,416,386,380,412,407,2025-05-28T15:19:54.807736
795,-0.4255,0.7105,0.0927,26.775,50.995,-18.375,396,393,375,391,401,2025-05-28T15:19:54.807736
796,-0.5148,0.8267,0.1527,35.245,58.205,-27.825,415,413,370,408,365,2025-05-28T15:19:54.856885
797,-0.6295,0.9028,0.2303,43.715,61.775,-39.200,416,351,380,366,396,2025-05-28T15:19:54.856885
798,-0.7462,1.0004,0.3392,50.680,60.095,-46.760,425,391,386,388,395,2025-05-28T15:19:54.856885
799,-0.8642,1.0912,0.4221,53.620,52.745,-49.560,413,418,361,396,353,2025-05-28T15:19:54.856885
800,-0.9321,1.2166,0.5246,51.485,42.700,-46.900,399,410,373,399,386,2025-05-28T15:19:54.907052
801,-0.9809,1.3464,0.6315,43.330,32.340,-38.360,421,413,340,387,386,2025-05-28T15:19:54.944834
802,-0.9897,1.4435,0.7022,30.030,21.980,-25.760,400,423,358,421,387,2025-05-28T15:19:54.944834
803,-0.9833,1.4933,0.7427,13.090,12.600,-10.605,417,397,367,411,404,2025-05-28T15:19:54.944834
804,-0.9501,1.4938,0.7261,-4.410,-0.490,2.345,406,419,382,395,402,2025-05-28T15:19:54.944834
805,-0.8999,1.4606,0.6686,-19.775,-14.945,17.500,420,427,339,389,406,2025-05-28T15:19:55.073618
806,-0.8242,1.3732,0.5900,-31.325,-29.540,30.030,421,396,356,414,356,2025-05-28T15:19:55.073618
807,-0.7174,1.2761,0.4939,-40.145,-41.265,40.110,417,405,366,396,354,2025-05-28T15:19:55.073618
808,-0.5973,1.1702,0.3836,-45.990,-46.900,48.300,409,393,361,391,391,2025-05-28T15:19:55.073618
809,-0.4997,1.0585,0.2713,-51.870,-46.830,54.040,408,425,384,412,388,2025-05-28T15:19:55.073618
810,-0.4187,0.9682,0.1698,-56.210,-41.440,58.170,361,398,376,401,399,2025-05-28T15:19:55.073618
811,-0.3597,0.8979,0.0844,-59.290,-32.340,60.270,384,405,376,349,381,2025-05-28T15:19:55.073618
812,-0.3172,0.8169,0.0273,-61.565,-22.715,61.285,403,416,392,335,387,2025-05-28T15:19:55.073618
813,-0.2991,0.7408,-0.0010,-62.475,-14.385,61.145,405,423,377,397,395,2025-05-28T15:19:55.073618
814,-0.2806,0.6647,-0.0273,-62.265,-7.455,59.675,419,417,377,343,392,2025-05-28T15:19:55.073618
815,-0.2523,0.5983,-0.0386,-61.040,-2.345,56.665,405,428,374,400,408,2025-05-28T15:19:55.073618
816,-0.2269,0.5378,-0.0312,-59.535,4.795,53.270,402,376,350,401,406,2025-05-28T15:19:55.073618
817,-0.1791,0.3758,-0.0107,-58.450,14.140,50.540,417,416,343,405,417,2025-05-28T15:19:55.073618
818,-0.1484,0.4446,0.0000,-57.015,25.795,46.410,423,428,363,348,406,2025-05-28T15:19:55.124488
819,-0.1303,0.3938,0.0083,-54.530,39.550,41.055,432,425,380,371,405,2025-05-28T15:19:55.124488
820,-0.1220,0.3601,0.0220,-51.030,54.285,34.755,431,428,385,381,392,2025-05-28T15:19:55.124488
821,-0.1435,0.3426,0.0478,-48.860,68.320,27.825,356,352,344,382,411,2025-05-28T15:19:55.124488
822,-0.1806,0.3426,0.0937,-46.410,79.695,20.755,385,412,375,396,410,2025-05-28T15:19:55.124488
823,-0.2435,0.3406,0.1327,-43.610,86.835,12.810,400,413,368,409,416,2025-05-28T15:19:55.290212
824,-0.2913,0.3528,0.1693,-39.025,92.960,6.125,412,428,378,396,416,2025-05-28T15:19:55.290212
825,-0.3548,0.3836,0.2162,-32.865,98.350,-2.485,413,398,347,385,402,2025-05-28T15:19:55.290212
826,-0.4270,0.4407,0.2577,-26.040,104.685,-11.970,303,405,325,386,412,2025-05-28T15:19:55.290212
827,-0.5466,0.4909,0.3450,-17.675,109.515,-23.065,415,396,324,404,407,2025-05-28T15:19:55.290212
828,-0.6866,0.5319,0.4304,-10.395,109.795,-35.000,396,405,347,405,400,2025-05-28T15:19:55.290212
829,-0.7857,0.5773,0.5139,-1.435,106.855,-44.660,413,416,361,388,358,2025-05-28T15:19:55.290212
830,-0.8398,0.6588,0.5793,5.775,102.900,-49.245,406,418,333,406,377,2025-05-28T15:19:55.290212
831,-0.9096,0.7300,0.6466,8.645,101.885,-51.485,428,303,355,408,404,2025-05-28T15:19:55.290212
832,-0.9941,0.8442,0.7188,6.440,101.255,-48.930,307,400,346,415,399,2025-05-28T15:19:55.290212
833,-1.0829,0.9531,0.7901,-2.135,97.615,-41.475,379,403,363,419,380,2025-05-28T15:19:55.290212
834,-1.1936,1.0175,0.8589,-11.480,87.465,-31.115,407,426,368,416,397,2025-05-28T15:19:55.290212
835,-1.2873,1.0658,0.8945,-24.150,70.980,-19.600,411,350,374,403,404,2025-05-28T15:19:55.290212
836,-1.3283,1.0653,0.9101,-34.825,42.455,-8.330,391,384,355,397,405,2025-05-28T15:19:55.374215
837,-1.3415,1.0365,0.9023,-41.755,9.380,0.245,411,413,377,417,410,2025-05-28T15:19:55.374215
838,-1.2668,0.9858,0.8579,-45.990,-24.325,9.100,424,399,368,356,390,2025-05-28T15:19:55.374215
839,-1.1385,0.9116,0.8003,-47.355,-49.490,18.025,427,396,340,356,407,2025-05-28T15:19:55.374215
840,-0.9945,0.8228,0.7052,-46.130,-62.860,26.495,402,409,363,395,413,2025-05-28T15:19:55.374215
841,-0.8442,0.7442,0.6090,-43.260,-66.500,33.915,414,413,375,396,412,2025-05-28T15:19:55.374215
842,-0.7383,0.6705,0.5080,-40.915,-62.370,39.655,425,434,396,419,411,2025-05-28T15:19:55.374215
843,-0.6695,0.6061,0.4260,-38.150,-53.550,43.400,424,407,394,422,404,2025-05-28T15:19:55.374215
844,-0.6364,0.5461,0.3426,-35.210,-46.270,46.060,420,423,384,378,387,2025-05-28T15:19:55.490217
845,-0.6134,0.4773,0.2611,-31.395,-42.770,46.340,404,388,380,363,385,2025-05-28T15:19:55.490217
846,-0.5895,0.4172,0.2094,-26.530,-43.015,44.835,388,419,384,385,382,2025-05-28T15:19:55.490217
847,-0.5553,0.3665,0.1679,-21.070,-43.820,41.720,415,424,383,407,388,2025-05-28T15:19:55.490217
848,-0.5134,0.3235,0.1322,-17.570,-44.310,37.625,423,405,372,378,408,2025-05-28T15:19:55.490217
849,-0.4543,0.2972,0.1030,-13.440,-43.505,33.390,439,389,370,395,412,2025-05-28T15:19:55.490217
850,-0.4168,0.2811,0.0766,-8.890,-39.375,29.330,412,348,338,393,399,2025-05-28T15:19:55.490217
851,-0.3680,0.2738,0.0527,-3.955,-31.010,22.540,389,401,373,411,403,2025-05-28T15:19:55.490217
852,-0.3231,0.2699,0.0503,1.715,-18.445,15.015,424,382,385,397,385,2025-05-28T15:19:55.591112
853,-0.3196,0.2816,0.0634,8.435,-4.025,4.410,424,424,340,359,376,2025-05-28T15:19:55.591112
854,-0.3436,0.3021,0.0991,16.310,9.485,-3.885,384,416,355,380,344,2025-05-28T15:19:55.591112
855,-0.3870,0.3499,0.1342,24.675,20.335,-15.225,426,422,342,398,394,2025-05-28T15:19:55.591112
856,-0.4768,0.4021,0.2011,34.230,25.865,-27.125,424,384,317,412,395,2025-05-28T15:19:55.591112
857,-0.5636,0.4538,0.2694,42.840,25.410,-38.815,345,387,351,408,349,2025-05-28T15:19:55.591112
858,-0.6490,0.5178,0.3504,53.830,21.910,-49.315,383,418,375,394,385,2025-05-28T15:19:55.591112
859,-0.7066,0.6066,0.4250,63.665,16.380,-56.140,409,405,380,401,377,2025-05-28T15:19:55.591112
860,-0.7657,0.6934,0.4973,70.840,10.815,-61.390,433,423,372,349,375,2025-05-28T15:19:55.591112
861,-0.8140,0.8301,0.5768,73.150,7.455,-62.405,405,405,371,327,397,2025-05-28T15:19:55.641072
862,-0.8862,0.9692,0.6427,70.280,5.670,-59.710,398,419,336,370,413,2025-05-28T15:19:55.641072
863,-0.9706,1.0707,0.7013,65.310,-0.070,-53.900,406,419,350,394,421,2025-05-28T15:19:55.641072
864,-1.0575,1.1312,0.7325,57.680,-9.765,-46.410,422,432,368,404,410,2025-05-28T15:19:55.641072
865,-1.0960,1.1536,0.7286,50.330,-27.685,-39.480,428,414,385,350,356,2025-05-28T15:19:55.890261
866,-1.1107,1.1278,0.6803,44.695,-49.035,-30.135,424,424,357,383,381,2025-05-28T15:19:55.890261
867,-1.0838,1.0921,0.6071,40.880,-70.455,-20.685,419,428,372,354,392,2025-05-28T15:19:55.890261
868,-1.0009,1.0341,0.5334,38.290,-87.850,-12.075,365,425,383,393,407,2025-05-28T15:19:55.890261
869,-0.8950,0.9672,0.4309,36.190,-99.330,-4.725,418,437,385,410,411,2025-05-28T15:19:55.890261
870,-0.7745,0.8891,0.3216,34.475,-104.265,1.505,395,428,366,416,409,2025-05-28T15:19:55.890261
871,-0.6378,0.8262,0.2245,31.780,-102.970,6.195,390,425,381,411,412,2025-05-28T15:19:55.890261
872,-0.5412,0.7632,0.1366,28.455,-95.690,9.065,420,425,376,402,368,2025-05-28T15:19:55.890261
873,-0.4558,0.7076,0.0532,25.865,-85.960,11.060,439,425,371,381,338,2025-05-28T15:19:55.890261
874,-0.4114,0.6510,0.0132,24.465,-78.330,11.235,412,403,361,402,383,2025-05-28T15:19:55.890261
875,-0.3601,0.6110,-0.0234,23.275,-73.605,10.185,421,404,374,418,404,2025-05-28T15:19:55.890261
876,-0.2991,0.5793,-0.0444,22.050,-68.075,7.280,376,355,365,351,398,2025-05-28T15:19:55.890261
877,-0.2523,0.5490,-0.0693,21.665,-63.000,3.500,395,401,375,375,403,2025-05-28T15:19:55.890261
878,-0.2157,0.5187,-0.0810,22.785,-55.405,0.035,396,404,389,383,389,2025-05-28T15:19:55.890261
879,-0.1781,0.5065,-0.0825,24.780,-45.850,-4.690,424,366,381,335,400,2025-05-28T15:19:55.890261
880,-0.1523,0.4958,-0.0698,27.195,-34.230,-10.500,421,419,379,389,394,2025-05-28T15:19:55.890261
881,-0.1586,0.4968,-0.0459,29.645,-21.665,-16.415,434,403,369,385,382,2025-05-28T15:19:55.890261
882,-0.1781,0.5178,-0.0278,33.110,-12.320,-22.085,435,425,381,377,381,2025-05-28T15:19:55.890261
883,-0.2196,0.5622,-0.0054,38.675,-1.855,-27.545,418,406,361,404,409,2025-05-28T15:19:55.890261
884,-0.2704,0.6266,0.0381,44.765,6.580,-31.605,413,420,378,361,348,2025-05-28T15:19:55.890261
885,-0.3030,0.7027,0.1127,49.315,15.540,-35.280,380,384,387,391,376,2025-05-28T15:19:55.941250
886,-0.3787,0.8067,0.2006,51.240,24.850,-37.520,351,387,388,357,335,2025-05-28T15:19:55.941250
887,-0.4582,0.9184,0.2679,52.220,31.850,-37.065,392,380,374,375,320,2025-05-28T15:19:55.941250
888,-0.5187,1.0292,0.3494,52.465,36.225,-33.635,389,397,344,364,387,2025-05-28T15:19:55.941250
889,-0.5949,1.1234,0.4138,51.065,39.095,-28.735,412,371,359,386,390,2025-05-28T15:19:55.941250
890,-0.6534,1.2029,0.5051,47.810,39.865,-23.275,425,423,377,396,362,2025-05-28T15:19:55.990798
891,-0.7413,1.2342,0.5417,42.280,32.900,-18.375,355,412,387,384,338,2025-05-28T15:19:55.990798
892,-0.7945,1.2532,0.5729,35.595,19.460,-12.460,361,431,384,360,371,2025-05-28T15:19:55.990798
893,-0.8106,1.2141,0.5690,28.035,2.695,-5.705,411,411,375,372,406,2025-05-28T15:19:55.990798
894,-0.7608,1.1883,0.5778,21.105,-12.600,2.310,401,397,375,390,396,2025-05-28T15:19:55.990798
895,-0.6871,1.1312,0.5207,9.800,-21.315,9.380,403,417,387,399,406,2025-05-28T15:19:56.052193
896,-0.6012,1.0546,0.4397,0.245,-28.140,14.700,416,430,381,389,393,2025-05-28T15:19:56.052193
897,-0.5012,0.9877,0.3499,-7.560,-28.280,15.260,400,398,382,410,417,2025-05-28T15:19:56.052193
898,-0.3811,0.9731,0.3245,-16.100,-23.415,15.540,422,412,391,409,396,2025-05-28T15:19:56.052193
899,-0.2699,0.9506,0.2713,-24.395,-17.640,13.440,416,404,387,348,394,2025-05-28T15:19:56.206806
900,-0.2098,0.9233,0.2601,-32.060,-13.090,5.320,354,397,392,402,407,2025-05-28T15:19:56.206806
901,-0.1893,0.9301,0.2679,-34.230,-10.815,-5.180,413,400,396,400,411,2025-05-28T15:19:56.206806
902,-0.0102,1.1507,0.3382,-34.545,-17.780,-23.590,404,424,358,388,355,2025-05-28T15:19:56.206806
903,0.0917,1.3562,0.4275,-35.175,-23.275,-42.420,413,396,367,340,396,2025-05-28T15:19:56.206806
904,0.1889,1.6553,0.5163,-37.835,-26.845,-57.330,417,413,371,332,402,2025-05-28T15:19:56.206806
905,0.2372,1.9681,0.5915,-42.770,-31.675,-74.655,419,432,389,377,399,2025-05-28T15:19:56.206806
906,0.1976,2.1989,0.6564,-52.045,-44.555,-86.800,400,423,379,396,402,2025-05-28T15:19:56.206806
907,0.1698,2.6147,0.7671,-69.335,-73.745,-89.670,405,349,373,388,394,2025-05-28T15:19:56.206806
908,0.2484,3.1071,0.8320,-96.425,-99.400,-79.345,345,421,369,401,390,2025-05-28T15:19:56.206806
909,0.2357,3.4521,0.6988,-121.975,-104.615,-68.880,407,391,365,405,402,2025-05-28T15:19:56.206806
910,0.2216,3.6688,0.4641,-147.840,-96.460,-63.070,430,395,372,397,401,2025-05-28T15:19:56.206806
911,0.0869,3.6117,0.1859,-161.875,-88.690,-65.415,407,404,373,396,403,2025-05-28T15:19:56.206806
912,-0.1166,3.3511,-0.0093,-167.090,-97.755,-78.610,403,413,366,412,406,2025-05-28T15:19:56.257329
913,-0.3802,3.0593,-0.1542,-172.445,-129.045,-115.815,425,407,381,402,397,2025-05-28T15:19:56.257329
914,-0.5910,2.3868,-0.3675,-171.570,-190.855,-168.665,426,377,379,381,387,2025-05-28T15:19:56.257329
915,-0.9335,1.5138,-0.3509,-171.955,-279.160,-244.825,395,397,385,394,404,2025-05-28T15:19:56.257329
916,-0.7842,0.5812,-0.4709,-186.620,-346.605,-337.015,392,429,379,391,403,2025-05-28T15:19:56.306899
917,0.1854,-0.4924,-0.5724,-222.915,-320.040,-409.255,386,348,345,396,391,2025-05-28T15:19:56.306899
918,0.8823,-2.2038,-0.7271,-267.120,-200.620,-439.285,340,388,376,364,354,2025-05-28T15:19:56.306899
919,0.3348,-4.4452,-0.7862,-267.505,-48.965,-465.570,386,433,383,392,393,2025-05-28T15:19:56.306899
920,-0.8872,-6.3943,-0.2103,-244.125,-8.820,-462.000,403,409,383,417,380,2025-05-28T15:19:56.357513
921,-1.8032,-6.1122,0.3309,-147.490,-51.765,-378.595,358,400,356,401,396,2025-05-28T15:19:56.357513
922,-1.8964,-4.6692,0.1586,-38.325,-236.215,-234.535,413,394,363,407,398,2025-05-28T15:19:56.357513
923,-0.7257,-3.4428,-0.0752,19.390,-340.235,-37.695,422,404,381,418,412,2025-05-28T15:19:56.357513
924,1.1190,-2.8270,0.0952,37.590,-229.145,116.340,380,379,376,374,411,2025-05-28T15:19:56.423628
925,1.8280,-2.3131,0.2660,48.895,69.405,319.515,385,390,383,402,403,2025-05-28T15:19:56.423628
926,1.0414,-2.3746,0.2250,51.030,306.180,371.280,409,423,375,395,413,2025-05-28T15:19:56.423628
927,0.0712,-2.4136,0.3509,52.745,363.335,396.305,417,419,383,339,394,2025-05-28T15:19:56.423628
928,-0.0498,-2.1955,0.4773,50.190,313.845,398.615,372,407,390,380,391,2025-05-28T15:19:56.423628
929,-0.3855,-1.7344,0.5436,44.695,261.940,386.435,393,401,388,405,408,2025-05-28T15:19:56.506652
930,-0.6422,-1.2908,0.4773,44.590,257.215,374.815,421,413,387,394,410,2025-05-28T15:19:56.506652
931,-0.9013,-0.7740,0.5051,64.820,263.130,362.705,432,378,347,410,396,2025-05-28T15:19:56.506652
932,-0.9345,-0.2723,0.5466,68.110,240.135,350.000,427,398,338,391,398,2025-05-28T15:19:56.506652
933,-0.9043,0.1225,0.5065,68.880,215.005,344.995,390,434,371,383,401,2025-05-28T15:19:56.506652
934,-0.9365,0.4538,0.6129,66.395,158.795,327.670,400,390,350,405,391,2025-05-28T15:19:56.506652
935,-0.8974,0.6393,0.5836,78.785,90.615,296.170,398,358,362,400,388,2025-05-28T15:19:56.506652
936,-0.7203,0.7559,0.5729,98.560,26.425,260.470,305,416,386,411,405,2025-05-28T15:19:56.506652
937,-0.3709,0.9453,0.5968,107.170,-33.740,229.565,390,364,389,402,354,2025-05-28T15:19:56.567604
938,-0.0903,1.1761,0.5988,117.285,-56.385,194.670,418,411,385,393,377,2025-05-28T15:19:56.567604
939,0.2186,1.3064,0.5924,115.150,-61.145,169.190,398,419,381,387,396,2025-05-28T15:19:56.567604
940,0.3045,1.3830,0.5661,107.835,-53.935,146.580,304,409,376,384,349,2025-05-28T15:19:56.567604
941,0.3479,1.4889,0.5592,100.135,-37.695,126.070,406,389,385,393,330,2025-05-28T15:19:56.706509
942,0.3035,1.3806,0.6149,91.280,-23.765,101.675,412,392,390,302,380,2025-05-28T15:19:56.706509
943,0.2264,1.4660,0.6046,84.980,-19.355,85.155,371,395,377,358,345,2025-05-28T15:19:56.706509
944,0.1152,1.4264,0.6378,79.065,-30.100,70.070,408,421,384,348,392,2025-05-28T15:19:56.706509
945,0.0883,1.3288,0.5744,75.320,-45.605,56.070,425,424,357,389,385,2025-05-28T15:19:56.706509
946,0.0654,1.2595,0.5397,74.025,-56.455,42.980,398,407,362,391,400,2025-05-28T15:19:56.706509
947,0.0698,1.2327,0.5212,72.695,-64.015,29.715,392,427,376,402,368,2025-05-28T15:19:56.706509
948,0.0922,1.2390,0.4836,68.530,-62.755,20.055,402,385,363,404,395,2025-05-28T15:19:56.706509
949,0.1401,1.2312,0.4709,60.760,-54.110,11.900,404,412,379,394,410,2025-05-28T15:19:56.706509
950,0.1215,1.1814,0.4460,52.920,-42.070,7.210,395,402,388,416,398,2025-05-28T15:19:56.706509
951,0.0366,1.1273,0.4260,47.845,-33.705,2.485,430,410,387,416,358,2025-05-28T15:19:56.844411
952,-0.0488,1.0917,0.4343,41.650,-32.585,-3.395,411,421,343,412,396,2025-05-28T15:19:56.844411
953,-0.0815,1.0585,0.4499,35.525,-35.000,-9.310,423,401,364,413,400,2025-05-28T15:19:56.844411
954,-0.1083,1.0331,0.4285,30.100,-38.815,-11.620,353,405,369,396,311,2025-05-28T15:19:56.844411
955,-0.1357,1.0194,0.4060,26.355,-41.265,-14.665,383,400,364,406,379,2025-05-28T15:19:56.844411
956,-0.1523,1.0180,0.4163,23.520,-41.055,-17.045,394,401,372,419,380,2025-05-28T15:19:56.844411
957,-0.1542,1.0175,0.4309,19.950,-38.150,-17.045,416,419,383,391,399,2025-05-28T15:19:56.844411
958,-0.1732,1.0004,0.4207,16.240,-34.475,-16.555,397,429,380,417,389,2025-05-28T15:19:56.923175
959,-0.1972,0.9941,0.4138,14.840,-30.240,-14.910,412,384,341,419,391,2025-05-28T15:19:56.923175
960,-0.1928,1.0009,0.4138,14.175,-22.050,-12.810,410,411,369,418,409,2025-05-28T15:19:56.923175
961,-0.2206,1.0067,0.4402,12.285,-12.075,-10.325,393,431,380,358,401,2025-05-28T15:19:56.923175
962,-0.2445,1.0082,0.4426,9.800,-3.955,-7.840,416,422,373,373,401,2025-05-28T15:19:56.923175
963,-0.2918,0.9799,0.4192,8.785,-1.995,-3.290,412,419,385,383,390,2025-05-28T15:19:56.923175
964,-0.3616,0.9653,0.3972,8.330,-4.235,-0.140,435,404,388,372,406,2025-05-28T15:19:56.923175
965,-0.3728,0.9487,0.4094,8.470,-7.210,2.380,411,341,385,375,350,2025-05-28T15:19:56.923175
966,-0.3636,0.9628,0.4094,6.300,-8.785,5.530,303,399,378,397,388,2025-05-28T15:19:56.923175
967,-0.3767,0.9355,0.4182,2.905,-7.595,7.420,331,412,392,403,384,2025-05-28T15:19:56.923175
968,-0.3479,0.9223,0.4114,-8.925,-5.250,10.920,393,432,385,402,400,2025-05-28T15:19:56.923175
969,-0.3675,0.8926,0.4021,-3.430,-2.380,12.530,376,425,395,416,403,2025-05-28T15:19:56.923175
970,-0.3592,0.8725,0.3958,-5.670,-0.140,13.300,409,425,392,422,363,2025-05-28T15:19:56.923175
971,-0.3460,0.8560,0.3928,-6.510,0.490,13.755,404,433,395,406,384,2025-05-28T15:19:57.023968
972,-0.3367,0.8257,0.3919,-6.895,2.240,13.965,341,419,390,402,305,2025-05-28T15:19:57.023968
973,-0.3206,0.8047,0.3826,-5.915,5.005,14.350,380,357,379,398,362,2025-05-28T15:19:57.023968
974,-0.3299,0.7945,0.3884,-5.005,7.840,13.125,410,400,388,400,390,2025-05-28T15:19:57.023968
975,-0.3333,0.7906,0.4138,-4.865,9.030,10.570,359,427,374,415,381,2025-05-28T15:19:57.023968
976,-0.3167,0.7676,0.3977,-4.795,7.805,9.870,416,384,389,416,390,2025-05-28T15:19:57.023968
977,-0.3094,0.7564,0.3860,-3.220,8.785,9.695,357,404,383,421,400,2025-05-28T15:19:57.023968
978,-0.3055,0.7623,0.3797,-1.820,12.985,6.510,424,382,349,396,397,2025-05-28T15:19:57.023968
979,-0.2791,0.7749,0.3860,-1.610,16.310,2.625,395,424,374,351,412,2025-05-28T15:19:57.023968
980,-0.3021,0.7862,0.4065,-1.890,17.150,-1.785,402,436,374,350,412,2025-05-28T15:19:57.073441
981,-0.2996,0.7671,0.3753,-2.590,17.430,-4.935,404,436,345,371,411,2025-05-28T15:19:57.073441
982,-0.3030,0.7632,0.3294,-0.595,18.060,-6.335,415,425,357,399,408,2025-05-28T15:19:57.073441
983,-0.3479,0.7715,0.3367,1.680,20.370,-10.045,384,385,332,345,343,2025-05-28T15:19:57.073441
984,-0.3680,0.7862,0.3640,1.505,21.105,-13.405,383,408,358,382,394,2025-05-28T15:19:57.124433
985,-0.4006,0.7764,0.3504,0.420,19.600,-15.120,397,415,365,394,401,2025-05-28T15:19:57.124433
986,-0.4392,0.7706,0.3436,1.190,16.625,-16.205,345,407,374,411,397,2025-05-28T15:19:57.124433
987,-0.4860,0.7832,0.3572,2.905,11.690,-17.605,377,401,372,355,386,2025-05-28T15:19:57.124433
988,-0.4900,0.7915,0.3758,3.255,5.250,-18.270,415,399,364,331,373,2025-05-28T15:19:57.224196
989,-0.4885,0.8106,0.3865,3.360,0.910,-18.130,402,404,382,391,395,2025-05-28T15:19:57.224196
990,-0.4656,0.8115,0.3762,3.395,1.575,-17.395,427,424,344,415,385,2025-05-28T15:19:57.224196
991,-0.4714,0.8096,0.3758,4.340,4.305,-15.610,420,385,372,410,392,2025-05-28T15:19:57.224196
992,-0.4709,0.8355,0.3967,4.725,8.400,-13.615,403,393,338,412,389,2025-05-28T15:19:57.224196
993,-0.5041,0.8301,0.4026,4.095,12.390,-11.305,398,434,374,376,361,2025-05-28T15:19:57.224196
994,-0.5295,0.8369,0.4104,4.515,13.335,-9.135,408,441,373,395,400,2025-05-28T15:19:57.224196
995,-0.5451,0.8496,0.4236,4.865,10.255,-7.175,352,419,385,393,401,2025-05-28T15:19:57.224196
996,-0.5534,0.8603,0.4275,4.970,5.845,-5.460,394,359,378,403,416,2025-05-28T15:19:57.224196
997,-0.5514,0.8560,0.4143,5.215,0.735,-4.095,412,369,382,392,407,2025-05-28T15:19:57.440990
998,-0.5436,0.8599,0.4138,5.600,-5.705,-3.990,412,425,390,411,404,2025-05-28T15:19:57.440990
999,-0.5139,0.8706,0.4226,5.285,-10.010,-3.150,382,426,387,394,391,2025-05-28T15:19:57.440990
1000,-0.4856,0.8706,0.4085,4.060,-12.495,-1.820,399,399,381,404,407,2025-05-28T15:19:57.440990
1001,-0.4826,0.8594,0.3889,3.850,-13.055,-1.015,388,407,376,405,387,2025-05-28T15:19:57.440990
1002,-0.4724,0.8579,0.3904,3.220,-12.600,-0.315,390,347,360,407,400,2025-05-28T15:19:57.440990
1003,-0.4612,0.8506,0.3904,1.995,-11.200,0.455,428,396,370,419,401,2025-05-28T15:19:57.440990
1004,-0.4577,0.8442,0.3782,0.490,-9.065,1.400,350,433,375,412,397,2025-05-28T15:19:57.440990
1005,-0.4558,0.8306,0.3709,0.105,-6.790,1.995,381,409,370,421,388,2025-05-28T15:19:57.440990
1006,-0.4607,0.8316,0.3782,-0.840,-5.285,2.170,413,406,376,428,408,2025-05-28T15:19:57.440990
1007,-0.4719,0.8096,0.3631,-1.785,-6.300,1.505,346,415,371,410,414,2025-05-28T15:19:57.440990
1008,-0.4729,0.8052,0.3631,-1.855,-9.590,0.910,415,423,366,400,369,2025-05-28T15:19:57.440990
1009,-0.4621,0.7901,0.3567,-1.750,-13.090,-0.700,394,401,373,406,400,2025-05-28T15:19:57.440990
1010,-0.4338,0.7769,0.3548,-1.680,-15.505,-1.540,397,425,370,369,345,2025-05-28T15:19:57.440990
1011,-0.4036,0.7735,0.3636,-1.785,-15.085,-1.750,416,422,372,399,384,2025-05-28T15:19:57.440990
1012,-0.3845,0.7637,0.3587,-2.135,-12.320,-1.400,426,429,385,409,396,2025-05-28T15:19:57.440990
1013,-0.3631,0.7657,0.3572,-2.555,-6.475,-1.085,391,421,378,414,396,2025-05-28T15:19:57.440990
1014,-0.3748,0.7515,0.3597,-3.080,-0.035,-1.400,377,344,376,405,411,2025-05-28T15:19:57.542960
1015,-0.4031,0.7496,0.3704,-2.730,3.990,-2.065,416,409,377,413,415,2025-05-28T15:19:57.542960
1016,-0.4158,0.7422,0.3704,-2.485,3.850,-2.800,393,401,383,411,418,2025-05-28T15:19:57.542960
1017,-0.4260,0.7437,0.3797,-1.680,2.310,-4.235,419,408,376,417,410,2025-05-28T15:19:57.542960
1018,-0.4192,0.7520,0.3797,-0.700,1.540,-5.775,428,421,376,359,397,2025-05-28T15:19:57.542960
1019,-0.4133,0.7574,0.3855,0.385,1.715,-7.035,421,419,380,395,411,2025-05-28T15:19:57.542960
1020,-0.4124,0.7671,0.3894,1.435,2.660,-8.120,395,403,377,398,372,2025-05-28T15:19:57.542960
1021,-0.4153,0.7764,0.3977,1.680,4.270,-9.625,368,376,394,397,397,2025-05-28T15:19:57.542960
1022,-0.4241,0.7808,0.4148,2.345,5.180,-10.535,385,410,398,412,411,2025-05-28T15:19:57.640096
1023,-0.4255,0.7910,0.4270,2.800,4.970,-10.605,389,416,395,390,396,2025-05-28T15:19:57.640096
1024,-0.4299,0.7915,0.4304,3.500,4.095,-10.500,398,428,354,419,410,2025-05-28T15:19:57.640096
1025,-0.4241,0.8052,0.4309,4.165,4.130,-10.115,423,429,375,393,386,2025-05-28T15:19:57.640096
1026,-0.4182,0.8213,0.4363,4.445,5.320,-9.030,381,351,368,408,394,2025-05-28T15:19:57.640096
1027,-0.4119,0.8296,0.4353,3.465,7.595,-7.350,338,377,380,399,400,2025-05-28T15:19:57.640096
1028,-0.4143,0.8384,0.4250,2.450,9.415,-5.810,411,389,345,417,403,2025-05-28T15:19:57.640096
1029,-0.4265,0.8384,0.4192,1.890,10.430,-4.410,394,424,372,403,413,2025-05-28T15:19:57.640096
1030,-0.4382,0.8369,0.4050,0.945,9.975,-3.430,384,425,373,390,420,2025-05-28T15:19:57.640096
1031,-0.4465,0.8286,0.3850,0.385,7.665,-3.150,395,409,382,349,412,2025-05-28T15:19:57.740806
1032,-0.4587,0.8189,0.3723,0.280,5.040,-3.325,390,410,378,393,398,2025-05-28T15:19:57.740806
1033,-0.4465,0.8179,0.3592,0.035,2.660,-3.465,427,425,377,410,399,2025-05-28T15:19:57.740806
1034,-0.4368,0.8096,0.3470,-0.735,1.960,-3.640,428,424,345,420,311,2025-05-28T15:19:57.740806
1035,-0.4372,0.8013,0.3338,-1.365,3.360,-4.375,419,410,368,365,366,2025-05-28T15:19:57.740806
1036,-0.4319,0.7925,0.3235,-1.750,5.355,-5.110,421,401,340,361,375,2025-05-28T15:19:57.740806
1037,-0.4387,0.7852,0.3221,-2.240,8.085,-6.440,346,380,354,394,395,2025-05-28T15:19:57.740806
1038,-0.4387,0.7784,0.3182,-2.555,10.395,-7.910,407,423,372,402,393,2025-05-28T15:19:57.740806
1039,-0.4494,0.7720,0.3177,-2.695,12.460,-10.150,417,403,381,395,387,2025-05-28T15:19:57.841162
1040,-0.4426,0.7662,0.3177,-2.870,13.825,-13.195,389,422,379,407,406,2025-05-28T15:19:57.841162
1041,-0.4431,0.7530,0.3104,-2.870,13.790,-16.030,401,400,375,396,400,2025-05-28T15:19:57.841162
1042,-0.4416,0.7432,0.3128,-2.520,12.915,-19.495,418,362,368,398,388,2025-05-28T15:19:57.841162
1043,-0.4348,0.7359,0.3206,-1.750,11.480,-22.295,307,408,382,350,359,2025-05-28T15:19:57.841162
1044,-0.4372,0.7393,0.3109,-1.505,9.870,-25.480,393,427,384,334,374,2025-05-28T15:19:57.841162
1045,-0.4133,0.7037,0.3035,-0.175,6.370,-29.925,424,395,384,392,361,2025-05-28T15:19:57.841162
1046,-0.4275,0.6954,0.2996,0.560,5.670,-34.965,396,418,399,407,335,2025-05-28T15:19:57.841162
1047,-0.4128,0.6827,0.2982,1.120,4.725,-39.900,410,360,400,396,338,2025-05-28T15:19:57.841162
1048,-0.4124,0.6627,0.2855,1.085,4.200,-43.680,422,409,400,349,376,2025-05-28T15:19:57.941135
1049,-0.4060,0.6525,0.2718,0.350,4.025,-49.840,409,419,396,391,343,2025-05-28T15:19:57.941135
1050,-0.4260,0.6627,0.2811,-0.280,7.175,-55.685,418,382,345,396,337,2025-05-28T15:19:57.941135
1051,-0.4358,0.6842,0.2894,-1.295,9.660,-60.200,426,344,358,412,373,2025-05-28T15:19:57.941135
1052,-0.4582,0.7003,0.3055,-2.415,13.125,-63.280,401,395,362,410,360,2025-05-28T15:19:57.941135
1053,-0.4997,0.7271,0.3279,-3.675,15.120,-66.220,407,401,368,423,379,2025-05-28T15:19:57.941135
1054,-0.5383,0.7427,0.3475,-3.430,18.375,-66.780,412,402,374,403,394,2025-05-28T15:19:57.941135
1055,-0.5832,0.7471,0.3548,-3.430,19.425,-65.590,425,433,383,407,380,2025-05-28T15:19:57.941135
1056,-0.6276,0.7442,0.3567,-2.275,18.480,-62.685,408,428,379,414,400,2025-05-28T15:19:57.990954
1057,-0.6876,0.7437,0.3645,-0.945,16.625,-59.815,342,432,342,405,390,2025-05-28T15:19:57.990954
1058,-0.7232,0.7466,0.3636,0.105,13.230,-56.595,344,436,324,367,399,2025-05-28T15:19:57.990954
1059,-0.7486,0.7505,0.3592,0.770,9.625,-52.710,405,430,363,340,346,2025-05-28T15:19:57.990954
1060,-0.7569,0.7398,0.3455,1.260,7.735,-48.825,350,310,376,387,385,2025-05-28T15:19:57.990954
1061,-0.7720,0.7530,0.3372,2.940,6.265,-45.920,386,385,371,380,393,2025-05-28T15:19:58.157861
1062,-0.7613,0.7437,0.3167,3.360,5.880,-43.120,395,404,349,400,408,2025-05-28T15:19:58.157861
1063,-0.7681,0.7349,0.3152,3.990,7.140,-40.880,364,349,372,410,406,2025-05-28T15:19:58.157861
1064,-0.7588,0.7213,0.3167,4.060,8.925,-39.445,416,400,354,417,409,2025-05-28T15:19:58.157861
1065,-0.7520,0.7037,0.3172,3.710,9.800,-38.115,427,389,373,416,394,2025-05-28T15:19:58.157861
1066,-0.7549,0.6793,0.3250,3.255,9.415,-37.275,377,403,379,350,390,2025-05-28T15:19:58.157861
1067,-0.7388,0.6578,0.3255,2.835,7.210,-36.960,403,339,362,341,400,2025-05-28T15:19:58.157861
1068,-0.7135,0.6442,0.3245,3.185,5.635,-36.260,349,412,305,329,393,2025-05-28T15:19:58.157861
1069,-0.7022,0.6456,0.3309,2.695,5.705,-37.275,389,388,347,362,395,2025-05-28T15:19:58.157861
1070,-0.6866,0.6407,0.3387,2.065,5.600,-38.255,415,395,351,371,398,2025-05-28T15:19:58.157861
1071,-0.6920,0.6310,0.3436,1.540,6.055,-39.515,384,375,360,395,406,2025-05-28T15:19:58.157861
1072,-0.6891,0.6344,0.3450,1.365,6.300,-40.355,395,412,342,347,396,2025-05-28T15:19:58.157861
1073,-0.6939,0.6290,0.3440,1.995,6.755,-41.580,436,430,335,387,397,2025-05-28T15:19:58.157861
1074,-0.7144,0.6281,0.3504,2.660,7.245,-42.595,410,306,355,407,389,2025-05-28T15:19:58.157861
1075,-0.7237,0.6256,0.3548,2.975,7.315,-42.945,411,380,360,416,348,2025-05-28T15:19:58.357647
1076,-0.7530,0.6207,0.3665,3.080,6.615,-41.790,380,388,379,413,393,2025-05-28T15:19:58.357647
1077,-0.7588,0.6188,0.3601,2.730,5.600,-40.215,396,343,373,408,398,2025-05-28T15:19:58.357647
1078,-0.7676,0.6163,0.3572,2.555,5.005,-38.500,409,395,378,396,385,2025-05-28T15:19:58.357647
1079,-0.7623,0.6100,0.3475,2.450,6.055,-35.980,415,407,376,415,378,2025-05-28T15:19:58.357647
1080,-0.7584,0.6105,0.3436,2.205,8.365,-32.410,425,396,378,354,384,2025-05-28T15:19:58.357647
1081,-0.7671,0.6134,0.3387,1.890,11.165,-29.015,366,303,391,379,342,2025-05-28T15:19:58.357647
1082,-0.7779,0.6144,0.3309,1.330,13.475,-26.355,415,398,350,383,377,2025-05-28T15:19:58.357647
1083,-0.7847,0.6149,0.3206,0.805,15.085,-24.010,429,420,370,397,395,2025-05-28T15:19:58.357647
1084,-0.7964,0.6198,0.3118,0.665,14.385,-21.700,429,425,372,399,397,2025-05-28T15:19:58.357647
1085,-0.8135,0.6217,0.2991,-0.035,13.020,-20.510,421,390,351,392,307,2025-05-28T15:19:58.357647
1086,-0.8159,0.6242,0.3006,-0.735,10.640,-19.530,391,405,374,386,359,2025-05-28T15:19:58.357647
1087,-0.8291,0.6159,0.2850,-1.610,7.560,-18.585,401,422,379,391,373,2025-05-28T15:19:58.357647
1088,-0.8418,0.6051,0.2772,-2.905,5.075,-17.640,412,379,368,352,387,2025-05-28T15:19:58.357647
1089,-0.8389,0.5973,0.2811,-3.675,2.310,-16.485,411,395,367,377,409,2025-05-28T15:19:58.357647
1090,-0.8413,0.5822,0.2743,-5.110,1.365,-14.700,422,410,379,395,392,2025-05-28T15:19:58.357647
1091,-0.8369,0.5666,0.2728,-6.335,1.540,-12.635,381,416,310,418,407,2025-05-28T15:19:58.457645
1092,-0.8350,0.5612,0.2796,-7.630,2.870,-10.500,391,407,352,401,410,2025-05-28T15:19:58.457645
1093,-0.8335,0.5500,0.2679,-8.855,5.355,-8.365,426,435,375,400,398,2025-05-28T15:19:58.457645
1094,-0.8398,0.5363,0.2674,-9.625,6.650,-6.580,411,410,375,396,362,2025-05-28T15:19:58.457645
1095,-0.8345,0.5290,0.2757,-10.185,7.175,-5.285,423,421,381,343,381,2025-05-28T15:19:58.457645
1096,-0.8394,0.5139,0.2762,-10.920,7.210,-4.235,347,396,383,386,358,2025-05-28T15:19:58.457645
1097,-0.8355,0.5065,0.2757,-11.585,6.230,-3.500,393,404,359,397,394,2025-05-28T15:19:58.457645
1098,-0.8237,0.5002,0.2752,-11.760,5.110,-3.290,401,425,378,399,389,2025-05-28T15:19:58.457645
1099,-0.8111,0.5012,0.2738,-12.145,5.075,-3.360,407,403,382,411,398,2025-05-28T15:19:58.507537
1100,-0.7993,0.4958,0.2650,-12.810,5.355,-3.535,384,395,342,409,394,2025-05-28T15:19:58.507537
1101,-0.8008,0.4909,0.2572,-13.230,5.985,-3.920,415,424,383,409,390,2025-05-28T15:19:58.565645
1102,-0.8023,0.4880,0.2557,-13.265,7.175,-4.585,423,434,386,420,358,2025-05-28T15:19:58.565645
1103,-0.8013,0.4890,0.2577,-13.440,8.085,-5.285,440,397,382,415,372,2025-05-28T15:19:58.565645
1104,-0.8106,0.4836,0.2606,-13.685,8.505,-6.405,422,383,345,401,376,2025-05-28T15:19:58.565645
1105,-0.8218,0.4753,0.2567,-13.475,8.085,-7.560,428,363,367,410,397,2025-05-28T15:19:58.565645
1106,-0.8301,0.4704,0.2557,-12.810,7.175,-8.960,427,339,383,404,350,2025-05-28T15:19:58.565645
1107,-0.8189,0.4651,0.2538,-11.970,5.915,-9.800,407,376,389,407,368,2025-05-28T15:19:58.565645
1108,-0.8154,0.4636,0.2518,-11.585,5.845,-10.710,405,402,353,412,388,2025-05-28T15:19:58.607372
1109,-0.8194,0.4612,0.2557,-11.270,6.580,-11.935,421,429,374,398,393,2025-05-28T15:19:58.607372
1110,-0.8223,0.4592,0.2586,-10.675,7.000,-12.950,411,345,381,412,358,2025-05-28T15:19:58.607372
1111,-0.8262,0.4553,0.2557,-9.800,7.665,-13.755,431,385,378,367,366,2025-05-28T15:19:58.607372
1112,-0.8311,0.4534,0.2645,-8.680,8.610,-14.315,409,399,384,392,375,2025-05-28T15:19:58.773896
1113,-0.8389,0.4573,0.2772,-7.525,9.415,-14.560,417,419,378,350,352,2025-05-28T15:19:58.773896
1114,-0.8477,0.4519,0.2733,-6.930,9.030,-14.560,417,407,382,336,393,2025-05-28T15:19:58.773896
1115,-0.8613,0.4485,0.2728,-6.055,8.120,-14.770,425,421,392,368,352,2025-05-28T15:19:58.773896
1116,-0.8652,0.4529,0.2762,-4.305,7.490,-14.875,413,430,401,371,374,2025-05-28T15:19:58.773896
1117,-0.8784,0.4475,0.2777,-3.185,6.370,-14.770,395,416,397,382,341,2025-05-28T15:19:58.773896
1118,-0.8828,0.4436,0.2816,-1.995,4.725,-14.175,391,428,394,408,342,2025-05-28T15:19:58.773896
1119,-0.8930,0.4416,0.2782,-1.190,3.150,-13.370,362,405,383,397,389,2025-05-28T15:19:58.773896
1120,-0.8945,0.4387,0.2747,0.035,2.660,-12.495,393,413,388,407,391,2025-05-28T15:19:58.773896
1121,-0.9013,0.4499,0.2806,1.120,2.870,-11.690,410,417,380,372,306,2025-05-28T15:19:58.773896
1122,-0.9170,0.4455,0.2762,1.890,2.800,-11.095,430,406,343,377,370,2025-05-28T15:19:58.773896
1123,-0.9267,0.4460,0.2713,3.150,2.275,-10.360,421,430,367,392,341,2025-05-28T15:19:58.773896
1124,-0.9482,0.4441,0.2718,4.340,1.330,-9.905,419,439,381,394,346,2025-05-28T15:19:58.773896
1125,-0.9609,0.4465,0.2786,5.005,-0.175,-9.310,351,414,372,407,383,2025-05-28T15:19:59.006525
1126,-0.9687,0.4451,0.2816,5.460,-2.730,-8.505,419,429,387,392,366,2025-05-28T15:19:59.006525
1127,-0.9731,0.4392,0.2835,5.985,-5.145,-7.490,371,403,371,403,394,2025-05-28T15:19:59.006525
1128,-0.9770,0.4294,0.2786,6.475,-7.665,-6.755,413,427,386,417,379,2025-05-28T15:19:59.006525
1129,-0.9662,0.4216,0.2796,6.895,-10.045,-5.180,427,414,380,395,399,2025-05-28T15:19:59.006525
1130,-0.9526,0.4207,0.2840,6.755,-11.830,-3.045,345,400,307,409,393,2025-05-28T15:19:59.006525
1131,-0.9311,0.4138,0.2728,6.020,-12.285,-0.875,407,424,317,386,365,2025-05-28T15:19:59.006525
1132,-0.9023,0.4119,0.2606,5.355,-11.585,0.875,396,389,352,412,382,2025-05-28T15:19:59.006525
1133,-0.8882,0.4202,0.2660,4.200,-9.730,2.065,431,400,376,413,392,2025-05-28T15:19:59.006525
1134,-0.8764,0.4163,0.2479,2.590,-8.470,2.870,425,400,386,426,403,2025-05-28T15:19:59.006525
1135,-0.8642,0.4143,0.2401,1.750,-8.540,2.730,394,421,385,397,399,2025-05-28T15:19:59.006525
1136,-0.8613,0.4197,0.2440,1.050,-9.030,2.065,340,369,383,399,399,2025-05-28T15:19:59.006525
1137,-0.8584,0.4172,0.2377,0.210,-9.800,1.050,322,410,376,386,390,2025-05-28T15:19:59.006525
1138,-0.8530,0.4172,0.2352,-0.175,-11.620,-0.210,345,436,343,391,397,2025-05-28T15:19:59.006525
1139,-0.8506,0.4216,0.2377,-0.420,-12.705,-1.855,373,412,372,370,394,2025-05-28T15:19:59.006525
1140,-0.8447,0.4221,0.2401,-0.420,-12.985,-3.150,345,405,333,393,393,2025-05-28T15:19:59.006525
1141,-0.8442,0.4172,0.2381,-0.630,-13.545,-4.340,407,417,370,351,384,2025-05-28T15:19:59.006525
1142,-0.8452,0.4138,0.2313,-0.280,-13.650,-5.390,417,431,378,401,383,2025-05-28T15:19:59.006525
1143,-0.8418,0.4158,0.2333,0.630,-12.810,-6.195,412,390,385,408,348,2025-05-28T15:19:59.006525
1144,-0.8418,0.4099,0.2298,1.225,-10.745,-7.105,406,404,391,390,392,2025-05-28T15:19:59.006525
1145,-0.8379,0.4153,0.2328,1.680,-8.505,-7.245,370,432,317,399,404,2025-05-28T15:19:59.173335
1146,-0.8408,0.4153,0.2303,1.750,-5.950,-7.140,362,408,360,370,353,2025-05-28T15:19:59.173335
1147,-0.8472,0.4241,0.2303,1.890,-3.675,-6.720,404,369,375,390,387,2025-05-28T15:19:59.173335
1148,-0.8589,0.4309,0.2342,2.240,-2.415,-6.230,429,403,383,346,404,2025-05-28T15:19:59.173335
1149,-0.8711,0.4353,0.2352,2.240,-1.575,-5.985,411,407,392,400,394,2025-05-28T15:19:59.173335
1150,-0.8711,0.4363,0.2406,2.415,-1.400,-5.145,420,401,378,402,406,2025-05-28T15:19:59.173335
1151,-0.8725,0.4392,0.2455,2.450,-0.910,-3.885,413,421,372,410,411,2025-05-28T15:19:59.173335
1152,-0.8784,0.4382,0.2460,2.695,-0.630,-2.450,417,412,372,404,417,2025-05-28T15:19:59.173335
1153,-0.8799,0.4436,0.2523,3.185,-0.525,-1.050,401,424,380,411,411,2025-05-28T15:19:59.173335
1154,-0.8764,0.4519,0.2625,3.465,-0.385,0.315,397,422,379,395,412,2025-05-28T15:19:59.173335
1155,-0.8764,0.4592,0.2660,3.395,-0.490,1.925,427,434,383,388,401,2025-05-28T15:19:59.173335
1156,-0.8706,0.4651,0.2762,3.255,-0.490,3.325,420,345,371,389,405,2025-05-28T15:19:59.173335
1157,-0.8667,0.4685,0.2826,3.150,-0.490,4.900,420,386,387,401,389,2025-05-28T15:19:59.173335
1158,-0.8657,0.4758,0.2845,3.430,-0.245,5.950,420,418,397,396,391,2025-05-28T15:19:59.173335
1159,-0.8701,0.4812,0.2874,3.605,-0.175,7.385,396,413,345,415,400,2025-05-28T15:19:59.273172
1160,-0.8647,0.4890,0.2840,3.605,-0.350,9.030,397,402,371,398,391,2025-05-28T15:19:59.273172
1161,-0.8662,0.4909,0.2777,3.430,-0.070,10.815,387,427,380,367,400,2025-05-28T15:19:59.273172
1162,-0.8706,0.4973,0.2782,3.115,0.315,12.355,296,395,365,391,387,2025-05-28T15:19:59.273172
1163,-0.8735,0.4953,0.2733,2.555,0.630,13.580,375,393,376,417,405,2025-05-28T15:19:59.273172
1164,-0.8867,0.4924,0.2718,1.645,0.105,15.015,404,420,377,399,386,2025-05-28T15:19:59.273172
1165,-0.8886,0.4851,0.2635,0.840,-1.120,16.170,355,423,373,411,399,2025-05-28T15:19:59.273172
1166,-0.8935,0.4724,0.2518,0.420,-2.765,17.080,388,401,382,364,363,2025-05-28T15:19:59.273172
1167,-0.8867,0.4709,0.2528,0.105,-3.850,18.200,392,399,368,397,385,2025-05-28T15:19:59.273172
1168,-0.8745,0.4699,0.2533,-0.805,-4.025,18.935,423,424,376,409,381,2025-05-28T15:19:59.389928
1169,-0.8760,0.4709,0.2542,-1.820,-2.940,19.320,391,422,387,417,387,2025-05-28T15:19:59.389928
1170,-0.8750,0.4729,0.2601,-2.415,-2.100,19.775,388,384,385,409,390,2025-05-28T15:19:59.389928
1171,-0.8916,0.4714,0.2582,-2.450,-1.540,19.635,295,398,382,417,395,2025-05-28T15:19:59.389928
1172,-0.8994,0.4758,0.2684,-2.450,-1.610,19.810,391,412,352,418,396,2025-05-28T15:19:59.389928
1173,-0.9257,0.4734,0.2806,-2.590,-2.345,20.265,394,412,340,398,403,2025-05-28T15:19:59.389928
1174,-0.9506,0.4656,0.2826,-1.680,-4.340,20.895,414,406,354,413,414,2025-05-28T15:19:59.389928
1175,-0.9648,0.4665,0.2908,-0.525,-7.035,22.225,402,437,368,397,401,2025-05-28T15:19:59.389928
1176,-0.9789,0.4695,0.2943,0.420,-8.890,24.325,338,390,377,388,361,2025-05-28T15:19:59.473204
1177,-0.9887,0.4753,0.3050,1.225,-10.395,27.195,386,435,379,405,386,2025-05-28T15:19:59.473204
1178,-0.9887,0.4758,0.3055,1.050,-11.200,30.765,344,389,387,397,389,2025-05-28T15:19:59.473204
1179,-0.9833,0.4846,0.3157,0.595,-11.060,35.245,398,404,346,410,351,2025-05-28T15:19:59.473204
1180,-0.9740,0.4841,0.3216,-0.805,-10.570,38.885,423,399,365,395,375,2025-05-28T15:19:59.473204
1181,-0.9638,0.4826,0.3221,-2.170,-11.095,43.155,346,346,337,408,363,2025-05-28T15:19:59.473204
1182,-0.9487,0.4880,0.3279,-3.290,-13.160,46.865,391,401,369,418,343,2025-05-28T15:19:59.473204
1183,-0.9243,0.4904,0.3260,-4.130,-16.240,49.770,407,422,342,366,370,2025-05-28T15:19:59.473204
1184,-0.8926,0.4973,0.3192,-4.795,-18.550,51.730,345,392,334,367,334,2025-05-28T15:19:59.473204
1185,-0.8672,0.5012,0.3109,-4.690,-20.825,52.990,397,424,317,385,327,2025-05-28T15:19:59.607949
1186,-0.8408,0.5036,0.3021,-4.305,-22.435,53.725,423,399,347,390,368,2025-05-28T15:19:59.607949
1187,-0.8111,0.5041,0.2869,-3.815,-23.485,53.480,399,410,341,403,338,2025-05-28T15:19:59.607949
1188,-0.7930,0.5070,0.2801,-2.905,-23.275,53.025,415,425,325,395,380,2025-05-28T15:19:59.608069
1189,-0.7803,0.5090,0.2689,-2.345,-22.785,52.290,305,426,370,411,388,2025-05-28T15:19:59.608069
1190,-0.7686,0.5080,0.2572,-1.715,-22.085,51.345,396,432,386,398,363,2025-05-28T15:19:59.608115
1191,-0.7574,0.5119,0.2450,-1.435,-20.685,50.155,423,415,384,384,386,2025-05-28T15:19:59.608115
1192,-0.7530,0.5119,0.2420,-1.085,-19.355,48.440,351,411,374,365,405,2025-05-28T15:19:59.608195
1193,-0.7462,0.5187,0.2420,-1.085,-18.445,46.340,389,414,372,341,402,2025-05-28T15:19:59.707355
1194,-0.7291,0.5187,0.2416,-1.295,-18.130,43.925,378,416,344,392,392,2025-05-28T15:19:59.707355
1195,-0.7183,0.5295,0.2503,-1.330,-17.430,41.020,372,423,355,406,353,2025-05-28T15:19:59.707355
1196,-0.7052,0.5388,0.2625,-1.610,-16.625,37.730,413,408,336,393,366,2025-05-28T15:19:59.707355
1197,-0.7061,0.5436,0.2747,-1.750,-16.205,35.000,411,409,356,390,384,2025-05-28T15:19:59.707355
1198,-0.7032,0.5441,0.2948,-1.295,-16.485,31.605,413,400,376,407,401,2025-05-28T15:19:59.707355
1199,-0.6959,0.5451,0.3109,-0.350,-17.185,28.350,387,406,387,402,418,2025-05-28T15:19:59.707355
1200,-0.6964,0.5461,0.3372,0.770,-18.515,24.220,397,418,349,396,373,2025-05-28T15:19:59.707355
1201,-0.6974,0.5368,0.3562,2.555,-20.160,20.300,425,400,366,392,397,2025-05-28T15:19:59.707355
1202,-0.6895,0.5280,0.3719,4.795,-22.925,17.045,410,349,367,411,347,2025-05-28T15:19:59.707355
1203,-0.6866,0.5100,0.3699,7.175,-24.675,14.700,414,363,374,408,392,2025-05-28T15:19:59.707355
1204,-0.6827,0.5022,0.3787,9.730,-26.005,12.915,415,402,389,413,399,2025-05-28T15:19:59.773358
1205,-0.6891,0.4943,0.3836,11.795,-27.265,12.005,393,411,349,398,367,2025-05-28T15:19:59.773358
1206,-0.6793,0.5026,0.3880,13.895,-29.155,11.585,388,430,384,413,398,2025-05-28T15:19:59.773358
1207,-0.6583,0.5178,0.3875,15.295,-30.555,10.885,399,417,389,416,414,2025-05-28T15:19:59.773358
1208,-0.6295,0.5544,0.3919,16.940,-30.975,9.835,404,369,381,401,353,2025-05-28T15:19:59.840314
1209,-0.6071,0.5900,0.3924,18.060,-31.465,8.925,418,415,387,407,374,2025-05-28T15:19:59.840314
1210,-0.5846,0.6359,0.3899,19.810,-33.075,8.715,425,427,383,409,380,2025-05-28T15:19:59.840314
1211,-0.5558,0.7003,0.3875,20.755,-33.845,8.015,361,421,387,400,406,2025-05-28T15:19:59.840314
1212,-0.5324,0.7671,0.3933,21.910,-33.425,7.385,422,403,373,410,410,2025-05-28T15:19:59.840314
1213,-0.5256,0.8154,0.3982,23.135,-34.195,6.510,412,425,373,397,385,2025-05-28T15:19:59.840314
1214,-0.5383,0.8584,0.4075,24.745,-36.085,5.845,430,409,383,389,385,2025-05-28T15:19:59.840314
1215,-0.5470,0.8994,0.4085,26.670,-39.515,5.565,397,346,394,404,403,2025-05-28T15:19:59.990819
1216,-0.5295,0.9170,0.4021,27.440,-41.335,5.740,424,395,387,404,390,2025-05-28T15:19:59.990819
1217,-0.5148,0.9365,0.3928,27.720,-39.690,6.965,417,403,382,414,403,2025-05-28T15:19:59.990819
1218,-0.5085,0.9340,0.3777,18.235,-36.295,9.380,430,382,352,393,402,2025-05-28T15:19:59.990819
1219,-0.5139,0.9218,0.3743,25.795,-33.180,12.915,348,391,361,407,389,2025-05-28T15:19:59.990819
1220,-0.5148,0.9174,0.3689,22.890,-31.710,17.010,412,424,373,416,407,2025-05-28T15:19:59.990819
1221,-0.5285,0.9062,0.3528,19.285,-31.010,20.265,419,421,380,417,401,2025-05-28T15:19:59.990819
1222,-0.5431,0.8940,0.3250,15.925,-31.780,23.240,415,405,373,405,384,2025-05-28T15:19:59.990819
1223,-0.5417,0.8828,0.2972,13.440,-32.620,26.075,413,346,389,408,362,2025-05-28T15:19:59.990819
1224,-0.5378,0.8769,0.2767,11.305,-32.025,28.455,400,400,395,392,388,2025-05-28T15:19:59.990819
1225,-0.5158,0.8760,0.2621,8.225,-30.170,30.065,361,413,388,417,405,2025-05-28T15:19:59.990819
1226,-0.3802,0.8686,0.2547,4.270,-27.790,31.675,402,430,383,425,388,2025-05-28T15:19:59.990819
1227,-0.4997,0.8520,0.2411,0.525,-24.745,32.410,420,423,375,392,346,2025-05-28T15:19:59.990819
1228,-0.4856,0.8486,0.2333,-3.045,-22.050,33.810,419,407,341,398,386,2025-05-28T15:20:00.140967
1229,-0.4826,0.8447,0.2372,-6.265,-18.970,35.035,397,415,350,405,383,2025-05-28T15:20:00.140967
1230,-0.4895,0.8306,0.2367,-8.330,-16.135,35.630,410,376,340,413,388,2025-05-28T15:20:00.140967
1231,-0.4934,0.8091,0.2347,-9.800,-14.735,35.420,414,366,375,392,397,2025-05-28T15:20:00.140967
1232,-0.4963,0.7915,0.2440,-10.675,-13.055,34.860,414,400,383,393,387,2025-05-28T15:20:00.140967
1233,-0.4968,0.7725,0.2557,-11.270,-11.515,34.195,415,419,377,406,383,2025-05-28T15:20:00.140967
1234,-0.4914,0.7540,0.2640,-11.305,-9.800,33.320,342,431,384,404,408,2025-05-28T15:20:00.140967
1235,-0.4880,0.7349,0.2752,-10.675,-7.105,32.095,359,396,354,413,405,2025-05-28T15:20:00.140967
1236,-0.4865,0.7154,0.2860,-9.800,-4.200,30.555,394,403,370,377,402,2025-05-28T15:20:00.140967
1237,-0.4773,0.7037,0.3045,-9.310,-1.225,28.945,420,427,373,378,394,2025-05-28T15:20:00.290831
1238,-0.4778,0.6856,0.3157,-8.890,0.980,27.020,443,423,387,406,397,2025-05-28T15:20:00.290831
1239,-0.4753,0.6769,0.3314,-8.435,3.745,25.410,413,397,385,401,407,2025-05-28T15:20:00.290831
1240,-0.4807,0.6744,0.3475,-7.665,5.600,22.785,394,417,384,399,408,2025-05-28T15:20:00.290831
1241,-0.4802,0.6744,0.3626,-7.070,6.475,19.810,398,308,391,349,403,2025-05-28T15:20:00.290831
1242,-0.4826,0.6769,0.3728,-6.510,6.475,16.695,410,417,396,389,393,2025-05-28T15:20:00.290831
1243,-0.4787,0.6866,0.3855,-5.740,5.880,13.300,419,422,349,402,387,2025-05-28T15:20:00.290831
1244,-0.4787,0.6886,0.3894,-5.215,4.865,10.605,414,400,366,410,391,2025-05-28T15:20:00.290831
1245,-0.4773,0.6993,0.4036,-4.305,3.570,7.245,407,426,382,376,389,2025-05-28T15:20:00.290831
1246,-0.4734,0.7096,0.4055,-3.430,2.450,4.270,427,409,389,400,364,2025-05-28T15:20:00.290831
1247,-0.4651,0.7242,0.4153,-2.940,2.205,1.680,409,395,384,367,379,2025-05-28T15:20:00.290831
1248,-0.4592,0.7330,0.4260,-2.415,2.555,-0.210,419,414,392,395,387,2025-05-28T15:20:00.290831
1249,-0.4646,0.7408,0.4255,-2.030,3.430,-1.715,406,419,350,411,385,2025-05-28T15:20:00.290831
1250,-0.4748,0.7491,0.4329,-1.435,4.025,-3.185,399,431,360,355,395,2025-05-28T15:20:00.290831
1251,-0.4807,0.7564,0.4343,-1.190,3.605,-4.305,410,355,374,379,397,2025-05-28T15:20:00.360336
1252,-0.4914,0.7603,0.4402,-0.875,2.835,-5.460,408,403,382,382,394,2025-05-28T15:20:00.360336
1253,-0.4929,0.7671,0.4353,-0.525,1.295,-6.335,434,354,379,399,402,2025-05-28T15:20:00.406015
1254,-0.4885,0.7740,0.4294,-0.210,-0.315,-7.350,409,394,387,406,314,2025-05-28T15:20:00.406015
1255,-0.4817,0.7847,0.4241,-0.210,-0.910,-8.190,408,405,393,381,362,2025-05-28T15:20:00.406015
1256,-0.4690,0.7954,0.4226,-0.525,-0.490,-9.030,367,410,354,406,403,2025-05-28T15:20:00.406015
1257,-0.4670,0.8072,0.4236,-1.085,0.035,-9.800,381,420,380,355,394,2025-05-28T15:20:00.406015
1258,-0.4646,0.8072,0.4172,-2.310,0.105,-10.325,374,434,356,396,370,2025-05-28T15:20:00.406015
1259,-0.4558,0.8076,0.4104,-3.080,-0.420,-11.130,339,413,361,389,376,2025-05-28T15:20:00.406015
1260,-0.4524,0.8067,0.4080,-3.605,-0.735,-11.795,383,417,376,404,397,2025-05-28T15:20:00.406015
1261,-0.4402,0.8047,0.4089,-3.675,-1.085,-12.005,385,423,343,390,365,2025-05-28T15:20:00.406015
1262,-0.4250,0.7998,0.4016,-4.270,-1.295,-12.530,401,394,369,409,372,2025-05-28T15:20:00.507752
1263,-0.4255,0.7945,0.3992,-4.830,-0.735,-13.125,415,423,382,419,381,2025-05-28T15:20:00.507752
1264,-0.4143,0.7920,0.3967,-4.480,-0.525,-13.720,403,394,387,398,360,2025-05-28T15:20:00.507752
1265,-0.4202,0.7910,0.4036,-4.585,-0.210,-14.420,421,418,361,404,382,2025-05-28T15:20:00.507752
