SeqNum,AccX,AccY,AccZ,GyroX,GyroY,GyroZ,Flex,Force1,Force2,Force3,Force4,TimestampReception
1,0.0000,0.0000,0.0000,-1.680,8.400,-4.900,0.00,0.0184,0.0254,0.0200,0.0174,2025-06-09T13:54:14.990802
2,0.0991,-0.3523,0.9599,0.210,-4.235,0.455,0.01,0.0368,0.0508,0.0100,0.0087,2025-06-09T13:54:14.990802
3,0.0981,-0.3558,0.9589,0.105,-3.780,0.630,0.01,0.0368,0.0254,0.0200,0.0174,2025-06-09T13:54:14.990802
4,0.0976,-0.3558,0.9584,-0.140,-3.360,0.420,0.01,0.0184,0.0254,0.0200,0.0087,2025-06-09T13:54:14.990802
5,0.0966,-0.3548,0.9667,-0.105,-2.800,0.175,0.01,0.0184,0.0508,0.0200,0.0174,2025-06-09T13:54:14.990802
6,0.0913,-0.3558,0.9677,-0.140,-2.625,0.035,0.00,0.0184,0.0254,0.0100,0.0087,2025-06-09T13:54:14.990802
7,0.0874,-0.3553,0.9672,0.140,-2.905,0.070,0.01,0.0184,0.0254,0.0200,0.0174,2025-06-09T13:54:15.099510
8,0.0839,-0.3582,0.9662,0.070,-3.220,0.000,0.00,0.0184,0.0508,0.0200,0.0087,2025-06-09T13:54:15.099510
9,0.0859,-0.3577,0.9653,-0.035,-3.430,0.280,0.00,0.0184,0.0254,0.0200,0.0087,2025-06-09T13:54:15.099510
10,0.0854,-0.3577,0.9658,-0.210,-4.200,0.385,0.00,0.0184,0.0508,0.0100,0.0174,2025-06-09T13:54:15.099510
11,0.0956,-0.3606,0.9672,-0.315,-4.305,0.245,0.00,0.0368,0.0254,0.0100,0.0087,2025-06-09T13:54:15.099510
12,0.0971,-0.3587,0.9682,-0.350,-3.885,0.350,0.01,0.0184,0.0254,0.0100,0.0000,2025-06-09T13:54:15.099510
13,0.0986,-0.3587,0.9692,-0.280,-3.605,0.140,0.00,0.0184,0.0254,0.0100,0.0087,2025-06-09T13:54:15.099510
14,0.0961,-0.3558,0.9653,-0.245,-3.535,0.245,0.00,0.0184,0.0508,0.0100,0.0087,2025-06-09T13:54:15.099510
15,0.0937,-0.3558,0.9618,-0.245,-3.745,0.385,0.01,0.0368,0.0254,0.0200,0.0174,2025-06-09T13:54:15.197273
16,0.0917,-0.3523,0.9628,-0.350,-3.745,0.350,0.00,0.0184,0.0508,0.0200,0.0087,2025-06-09T13:54:15.197273
17,0.0927,-0.3543,0.9599,-0.385,-3.535,0.350,0.00,0.0368,0.0254,0.0200,0.0087,2025-06-09T13:54:15.197273
18,0.0942,-0.3533,0.9628,-0.245,-3.290,0.175,0.01,0.0184,0.0508,0.0200,0.0087,2025-06-09T13:54:15.197273
19,0.0893,-0.3543,0.9658,-0.175,-3.220,0.105,0.01,0.0368,0.0508,0.0200,0.0087,2025-06-09T13:54:15.197273
20,0.0883,-0.3533,0.9658,0.000,-3.290,0.000,0.01,0.0184,0.0254,0.0100,0.0087,2025-06-09T13:54:15.197273
21,0.0869,-0.3523,0.9618,0.140,-3.605,0.000,0.01,0.0368,0.0254,0.0100,0.0087,2025-06-09T13:54:15.197273
22,0.0888,-0.3533,0.9628,0.245,-3.570,0.000,0.01,0.0184,0.0254,0.0100,0.0087,2025-06-09T13:54:15.197273
23,0.0874,-0.3518,0.9599,0.105,-3.150,-0.245,0.00,0.0368,0.0254,0.0200,0.0087,2025-06-09T13:54:15.295986
24,0.0864,-0.3558,0.9628,-0.035,-3.115,-0.175,0.00,0.0184,0.0254,0.0100,0.0087,2025-06-09T13:54:15.295986
25,0.0859,-0.3582,0.9692,-0.140,-3.570,-0.105,0.01,0.0184,0.0508,0.0200,0.0087,2025-06-09T13:54:15.295986
26,0.0859,-0.3582,0.9716,-0.035,-4.130,-0.035,0.01,0.0184,0.0508,0.0200,0.0087,2025-06-09T13:54:15.295986
27,0.0927,-0.3597,0.9736,-0.035,-4.655,-0.070,0.00,0.0368,0.0254,0.0100,0.0174,2025-06-09T13:54:15.295986
28,0.0942,-0.3577,0.9701,-0.070,-4.515,0.070,0.00,0.0368,0.0254,0.0100,0.0087,2025-06-09T13:54:15.295986
29,0.0947,-0.3562,0.9653,-0.245,-4.445,0.105,0.00,0.0184,0.0508,0.0100,0.0087,2025-06-09T13:54:15.295986
30,0.0996,-0.3597,0.9594,-0.280,-4.025,0.175,0.01,0.0184,0.0508,0.0200,0.0087,2025-06-09T13:54:15.399709
31,0.1044,-0.3567,0.9658,-0.560,-3.640,0.000,0.00,0.0184,0.0508,0.0200,0.0174,2025-06-09T13:54:15.399709
32,0.1010,-0.3553,0.9692,-0.630,-3.640,-0.035,0.01,0.0184,0.0508,0.0100,0.0087,2025-06-09T13:54:15.399709
33,0.0971,-0.3538,0.9726,-0.630,-3.675,-0.210,0.01,0.0368,0.0508,0.0200,0.0087,2025-06-09T13:54:15.399709
34,0.0971,-0.3533,0.9726,-0.595,-3.745,-0.035,0.01,0.0184,0.0254,0.0100,0.0087,2025-06-09T13:54:15.399709
35,0.0956,-0.3543,0.9697,-0.525,-3.710,0.105,0.00,0.0368,0.0508,0.0100,0.0087,2025-06-09T13:54:15.399709
36,0.0956,-0.3528,0.9653,-0.490,-3.920,0.245,0.00,0.0000,0.0254,0.0200,0.0174,2025-06-09T13:54:15.399709
37,0.0952,-0.3533,0.9623,-0.455,-4.165,0.210,0.00,0.0368,0.0254,0.0200,0.0087,2025-06-09T13:54:15.399709
38,0.0961,-0.3553,0.9628,-0.280,-4.515,0.385,0.00,0.0368,0.0508,0.0200,0.0174,2025-06-09T13:54:15.509413
39,0.0976,-0.3533,0.9653,-0.175,-4.445,0.385,0.00,0.0368,0.0254,0.0100,0.0174,2025-06-09T13:54:15.509413
40,0.0976,-0.3543,0.9633,-0.210,-3.885,0.280,0.00,0.0184,0.0508,0.0200,0.0174,2025-06-09T13:54:15.509413
41,0.0956,-0.3553,0.9643,-0.175,-3.255,0.000,0.01,0.0184,0.0508,0.0100,0.0087,2025-06-09T13:54:15.509413
42,0.0956,-0.3558,0.9687,-0.280,-3.010,-0.245,0.01,0.0184,0.0508,0.0100,0.0174,2025-06-09T13:54:15.509413
43,0.0942,-0.3616,0.9711,-0.245,-3.010,-0.350,0.01,0.0184,0.0254,0.0200,0.0087,2025-06-09T13:54:15.509413
44,0.0917,-0.3640,0.9711,-0.105,-3.500,-0.280,0.00,0.0184,0.0254,0.0200,0.0087,2025-06-09T13:54:15.510411
45,0.0986,-0.3616,0.9736,-0.245,-3.780,-0.105,0.01,0.0368,0.0254,0.0100,0.0087,2025-06-09T13:54:15.510411
46,0.1015,-0.3616,0.9711,-0.105,-3.745,-0.035,0.01,0.0368,0.0508,0.0200,0.0174,2025-06-09T13:54:15.604302
47,0.1049,-0.3592,0.9701,-0.455,-3.605,-0.105,0.00,0.0368,0.0254,0.0200,0.0174,2025-06-09T13:54:15.604302
48,0.1044,-0.3553,0.9677,-0.490,-3.500,-0.280,0.00,0.0368,0.0508,0.0200,0.0087,2025-06-09T13:54:15.604302
49,0.0986,-0.3528,0.9653,-0.665,-3.290,-0.175,0.00,0.0368,0.0508,0.0200,0.0174,2025-06-09T13:54:15.604302
50,0.0942,-0.3509,0.9687,-0.735,-3.570,-0.140,0.01,0.0368,0.0254,0.0100,0.0087,2025-06-09T13:54:15.604302
51,0.0922,-0.3514,0.9692,-0.700,-3.920,-0.070,0.00,0.0184,0.0254,0.0200,0.0087,2025-06-09T13:54:15.604302
52,0.0942,-0.3514,0.9736,-0.700,-4.095,0.210,0.00,0.0184,0.0254,0.0100,0.0174,2025-06-09T13:54:15.604302
53,0.0976,-0.3533,0.9706,-0.630,-3.815,0.245,0.01,0.0184,0.0254,0.0200,0.0087,2025-06-09T13:54:15.705034
54,0.0976,-0.3509,0.9653,-0.595,-3.535,0.070,0.00,0.0184,0.0508,0.0200,0.0087,2025-06-09T13:54:15.705034
55,0.0986,-0.3528,0.9648,-0.490,-3.395,0.245,0.00,0.0184,0.0508,0.0200,0.0087,2025-06-09T13:54:15.705034
56,0.0903,-0.3558,0.9618,-0.420,-3.920,0.175,0.01,0.0184,0.0508,0.0100,0.0174,2025-06-09T13:54:15.705034
57,0.0937,-0.3562,0.9614,-0.420,-4.235,0.350,0.00,0.0184,0.0254,0.0100,0.0087,2025-06-09T13:54:15.705034
58,0.0966,-0.3592,0.9658,-0.490,-4.340,0.630,0.00,0.0000,0.0254,0.0100,0.0087,2025-06-09T13:54:15.705034
59,0.0991,-0.3592,0.9658,-0.525,-3.990,0.420,0.00,0.0000,0.0508,0.0200,0.0087,2025-06-09T13:54:15.705034
60,0.1030,-0.3601,0.9677,-0.735,-3.675,0.385,0.00,0.0368,0.0508,0.0100,0.0174,2025-06-09T13:54:15.813766
61,0.1059,-0.3597,0.9677,-0.665,-3.360,0.315,0.01,0.0368,0.0254,0.0100,0.0087,2025-06-09T13:54:15.813766
62,0.1054,-0.3597,0.9648,-0.525,-3.185,0.245,0.01,0.0368,0.0254,0.0200,0.0087,2025-06-09T13:54:15.813766
63,0.1020,-0.3577,0.9604,-0.560,-3.115,0.210,0.01,0.0184,0.0508,0.0200,0.0087,2025-06-09T13:54:15.813766
64,0.1020,-0.3577,0.9643,-0.560,-3.150,0.280,0.00,0.0368,0.0254,0.0200,0.0087,2025-06-09T13:54:15.813766
65,0.0966,-0.3582,0.9648,-0.735,-3.115,0.350,0.01,0.0184,0.0508,0.0100,0.0174,2025-06-09T13:54:15.813766
66,0.0956,-0.3611,0.9672,-0.735,-3.220,0.385,0.00,0.0184,0.0254,0.0100,0.0087,2025-06-09T13:54:15.813766
67,0.0932,-0.3621,0.9731,-0.735,-3.675,0.525,0.00,0.0368,0.0508,0.0100,0.0087,2025-06-09T13:54:15.813766
68,0.0947,-0.3592,0.9755,-0.595,-4.375,0.560,0.00,0.0368,0.0508,0.0100,0.0174,2025-06-09T13:54:15.890561
69,0.1025,-0.3587,0.9716,-0.490,-4.480,0.490,0.01,0.0368,0.0508,0.0200,0.0087,2025-06-09T13:54:15.890561
70,0.1122,-0.3582,0.9711,-0.420,-3.430,0.245,0.01,0.0184,0.0508,0.0100,0.0087,2025-06-09T13:54:15.890561
71,0.1113,-0.3567,0.9643,-0.385,-2.625,0.140,0.00,0.0184,0.0508,0.0200,0.0087,2025-06-09T13:54:15.890561
72,0.1005,-0.3587,0.9599,-0.490,-2.275,0.070,0.01,0.0368,0.0508,0.0200,0.0174,2025-06-09T13:54:15.890561
73,0.0991,-0.3577,0.9604,-0.700,-2.695,0.280,0.00,0.0184,0.0508,0.0200,0.0087,2025-06-09T13:54:16.116931
74,0.0976,-0.3587,0.9701,-0.630,-3.115,0.560,0.00,0.0368,0.0508,0.0100,0.0087,2025-06-09T13:54:16.116931
75,0.0956,-0.3582,0.9736,-0.595,-3.185,0.525,0.01,0.0368,0.0254,0.0100,0.0087,2025-06-09T13:54:16.116931
76,0.0956,-0.3572,0.9711,-0.560,-3.430,0.490,0.00,0.0184,0.0254,0.0100,0.0087,2025-06-09T13:54:16.116931
77,0.0952,-0.3582,0.9677,-0.385,-3.710,0.630,0.00,0.0000,0.0254,0.0100,0.0174,2025-06-09T13:54:16.116931
78,0.1025,-0.3577,0.9643,-0.420,-3.640,0.700,0.00,0.0184,0.0508,0.0100,0.0087,2025-06-09T13:54:16.116931
79,0.1049,-0.3582,0.9623,-0.455,-2.940,0.455,0.00,0.0184,0.0254,0.0100,0.0087,2025-06-09T13:54:16.116931
80,0.1044,-0.3611,0.9643,-0.490,-2.170,0.105,0.00,0.0184,0.0508,0.0200,0.0087,2025-06-09T13:54:16.116931
81,0.0986,-0.3621,0.9628,-0.315,-1.855,0.035,0.00,0.0184,0.0254,0.0100,0.0087,2025-06-09T13:54:16.116931
82,0.0903,-0.3645,0.9653,-0.385,-2.415,0.105,0.00,0.0184,0.0254,0.0100,0.0087,2025-06-09T13:54:16.116931
83,0.0878,-0.3650,0.9667,0.000,-2.975,0.210,0.00,0.0184,0.0508,0.0100,0.0087,2025-06-09T13:54:16.116931
84,0.0908,-0.3636,0.9677,-0.035,-3.290,0.280,0.00,0.0184,0.0254,0.0100,0.0087,2025-06-09T13:54:16.116931
85,0.0937,-0.3631,0.9677,0.035,-3.115,0.210,0.00,0.0184,0.0254,0.0100,0.0087,2025-06-09T13:54:16.116931
86,0.0991,-0.3631,0.9658,0.105,-2.590,0.035,0.00,0.0184,0.0508,0.0100,0.0000,2025-06-09T13:54:16.117930
87,0.1005,-0.3626,0.9633,0.105,-2.415,-0.105,0.00,0.0184,0.0254,0.0100,0.0087,2025-06-09T13:54:16.117930
88,0.0996,-0.3636,0.9623,0.105,-2.415,-0.175,0.00,0.0368,0.0254,0.0100,0.0174,2025-06-09T13:54:16.117930
89,0.0986,-0.3645,0.9672,0.000,-2.450,-0.245,0.00,0.0184,0.0508,0.0200,0.0087,2025-06-09T13:54:16.117930
90,0.0991,-0.3640,0.9701,0.140,-2.380,-0.245,0.00,0.0184,0.0254,0.0200,0.0087,2025-06-09T13:54:16.117930
91,0.1005,-0.3636,0.9677,0.105,-2.030,-0.420,0.01,0.0368,0.0254,0.0200,0.0174,2025-06-09T13:54:16.320416
92,0.1010,-0.3631,0.9677,0.035,-1.680,-0.560,0.01,0.0184,0.0508,0.0200,0.0087,2025-06-09T13:54:16.320416
93,0.0976,-0.3636,0.9692,0.035,-1.610,-0.385,0.01,0.0368,0.0254,0.0200,0.0087,2025-06-09T13:54:16.320416
94,0.0883,-0.3616,0.9648,0.070,-2.345,0.000,0.01,0.0184,0.0508,0.0200,0.0087,2025-06-09T13:54:16.320416
95,0.0908,-0.3621,0.9706,0.175,-3.360,0.140,0.01,0.0184,0.0508,0.0100,0.0087,2025-06-09T13:54:16.320416
96,0.0966,-0.3582,0.9706,0.070,-3.255,0.315,0.00,0.0184,0.0254,0.0100,0.0087,2025-06-09T13:54:16.321385
97,0.0986,-0.3553,0.9697,0.105,-3.010,0.245,0.00,0.0184,0.0254,0.0000,0.0174,2025-06-09T13:54:16.321385
98,0.0996,-0.3548,0.9682,0.105,-2.870,0.175,0.00,0.0184,0.0508,0.0200,0.0087,2025-06-09T13:54:16.321385
99,0.1015,-0.3553,0.9648,0.175,-2.555,0.070,0.00,0.0184,0.0254,0.0200,0.0087,2025-06-09T13:54:16.321385
100,0.0981,-0.3567,0.9701,0.140,-2.275,0.105,0.01,0.0368,0.0254,0.0100,0.0087,2025-06-09T13:54:16.321385
101,0.0937,-0.3567,0.9687,0.280,-2.310,0.070,0.01,0.0184,0.0254,0.0100,0.0087,2025-06-09T13:54:16.321385
102,0.0903,-0.3572,0.9672,0.175,-2.380,0.070,0.00,0.0184,0.0254,0.0100,0.0087,2025-06-09T13:54:16.321385
103,0.0878,-0.3611,0.9677,0.315,-2.485,0.175,0.00,0.0184,0.0254,0.0200,0.0087,2025-06-09T13:54:16.321385
104,0.0908,-0.3626,0.9667,0.280,-2.765,0.210,0.00,0.0184,0.0508,0.0100,0.0087,2025-06-09T13:54:16.321385
105,0.0937,-0.3621,0.9667,0.245,-2.765,0.140,0.00,0.0184,0.0508,0.0100,0.0087,2025-06-09T13:54:16.321385
106,0.0956,-0.3621,0.9648,0.315,-2.940,0.105,0.01,0.0184,0.0254,0.0100,0.0087,2025-06-09T13:54:16.378255
107,0.0932,-0.3645,0.9677,0.350,-3.185,0.175,0.01,0.0184,0.0254,0.0200,0.0087,2025-06-09T13:54:16.378255
108,0.0961,-0.3650,0.9692,0.350,-3.290,0.140,0.00,0.0368,0.0254,0.0100,0.0087,2025-06-09T13:54:16.378255
109,0.0996,-0.3621,0.9697,0.245,-2.975,0.210,0.01,0.0368,0.0508,0.0200,0.0087,2025-06-09T13:54:16.378255
110,0.0966,-0.3631,0.9682,0.315,-2.905,0.070,0.01,0.0184,0.0254,0.0100,0.0174,2025-06-09T13:54:16.559760
111,0.0927,-0.3606,0.9682,0.420,-3.080,0.035,0.01,0.0368,0.0254,0.0200,0.0174,2025-06-09T13:54:16.559760
112,0.0937,-0.3597,0.9653,0.385,-3.080,0.035,0.00,0.0184,0.0508,0.0200,0.0174,2025-06-09T13:54:16.559760
113,0.0937,-0.3558,0.9672,0.385,-2.975,-0.210,0.00,0.0368,0.0508,0.0100,0.0174,2025-06-09T13:54:16.559760
114,0.0908,-0.3587,0.9677,0.280,-2.800,-0.140,0.00,0.0368,0.0254,0.0200,0.0087,2025-06-09T13:54:16.559760
115,0.0888,-0.3601,0.9682,0.210,-2.695,-0.385,0.00,0.0368,0.0254,0.0000,0.0087,2025-06-09T13:54:16.559760
116,0.0878,-0.3621,0.9687,0.245,-3.080,-0.315,0.00,0.0184,0.0254,0.0100,0.0174,2025-06-09T13:54:16.559760
117,0.0869,-0.3592,0.9721,0.175,-3.500,-0.140,0.00,0.0184,0.0254,0.0100,0.0087,2025-06-09T13:54:16.559760
118,0.0927,-0.3597,0.9721,0.175,-3.815,-0.210,0.00,0.0184,0.0508,0.0200,0.0087,2025-06-09T13:54:16.559760
119,0.0961,-0.3577,0.9740,0.140,-3.640,-0.315,0.01,0.0184,0.0254,0.0100,0.0087,2025-06-09T13:54:16.559760
120,0.1000,-0.3601,0.9726,0.140,-3.395,-0.490,0.00,0.0368,0.0254,0.0100,0.0087,2025-06-09T13:54:16.559760
121,0.1025,-0.3562,0.9692,0.000,-3.150,-0.490,0.00,0.0368,0.0254,0.0200,0.0174,2025-06-09T13:54:16.559760
122,0.1025,-0.3572,0.9667,-0.070,-2.940,-0.560,0.01,0.0184,0.0508,0.0100,0.0174,2025-06-09T13:54:16.559760
123,0.1000,-0.3567,0.9687,-0.210,-2.660,-0.280,0.00,0.0184,0.0508,0.0100,0.0087,2025-06-09T13:54:16.559760
124,0.0976,-0.3543,0.9697,-0.420,-2.870,-0.140,0.00,0.0184,0.0254,0.0200,0.0174,2025-06-09T13:54:16.733281
125,0.0952,-0.3543,0.9716,-0.385,-2.975,-0.070,0.00,0.0368,0.0254,0.0100,0.0087,2025-06-09T13:54:16.733281
126,0.0971,-0.3562,0.9721,-0.385,-2.905,0.070,0.01,0.0368,0.0254,0.0100,0.0174,2025-06-09T13:54:16.733281
127,0.0942,-0.3572,0.9677,-0.175,-3.010,0.245,0.01,0.0368,0.0254,0.0200,0.0087,2025-06-09T13:54:16.733281
128,0.0947,-0.3553,0.9628,0.035,-3.150,0.280,0.00,0.0184,0.0508,0.0100,0.0174,2025-06-09T13:54:16.733281
129,0.0947,-0.3577,0.9623,0.210,-2.905,0.175,0.01,0.0184,0.0254,0.0100,0.0174,2025-06-09T13:54:16.733281
130,0.0942,-0.3567,0.9658,0.245,-2.555,-0.140,0.00,0.0368,0.0254,0.0100,0.0087,2025-06-09T13:54:16.733281
131,0.0932,-0.3597,0.9672,0.350,-1.925,-0.455,0.00,0.0184,0.0508,0.0100,0.0087,2025-06-09T13:54:16.733281
132,0.0869,-0.3626,0.9682,0.560,-1.995,-0.630,0.00,0.0184,0.0254,0.0100,0.0087,2025-06-09T13:54:16.733281
133,0.0874,-0.3660,0.9672,0.770,-2.695,-0.385,0.00,0.0184,0.0254,0.0100,0.0087,2025-06-09T13:54:16.733281
134,0.0913,-0.3626,0.9687,0.945,-3.640,-0.175,0.00,0.0184,0.0000,0.0100,0.0087,2025-06-09T13:54:16.733281
135,0.0961,-0.3592,0.9716,0.805,-3.920,-0.035,0.01,0.0184,0.0254,0.0100,0.0174,2025-06-09T13:54:16.733281
136,0.1039,-0.3543,0.9706,0.700,-3.640,-8.890,0.00,0.0184,0.0254,0.0100,0.0087,2025-06-09T13:54:16.733281
137,0.1054,-0.3553,0.9706,0.665,-2.870,-0.210,0.00,0.0184,0.0254,0.0200,0.0087,2025-06-09T13:54:16.847001
138,0.1093,-0.3533,0.9726,0.350,-2.450,-0.210,0.00,0.0184,0.0254,0.0100,0.0174,2025-06-09T13:54:16.847001
139,0.0996,-0.3548,0.9731,0.385,-2.240,-0.350,0.00,0.0184,0.0254,0.0200,0.0174,2025-06-09T13:54:16.847001
140,0.0932,-0.3567,0.9736,0.315,-2.345,-0.490,0.00,0.0184,0.0508,0.0200,0.0087,2025-06-09T13:54:16.847001
141,0.0874,-0.3562,0.9750,0.245,-2.520,-0.105,0.00,0.0368,0.0508,0.0100,0.0087,2025-06-09T13:54:16.847001
142,0.0830,-0.3567,0.9731,0.210,-3.010,0.140,0.00,0.0184,0.0508,0.0000,0.0087,2025-06-09T13:54:16.847001
143,0.0854,-0.3567,0.9716,0.070,-3.430,0.455,0.00,0.0184,0.0254,0.0200,0.0087,2025-06-09T13:54:16.847001
144,0.0908,-0.3558,0.9672,0.000,-3.780,0.665,0.00,0.0184,0.0254,0.0100,0.0087,2025-06-09T13:54:16.847001
145,0.0971,-0.3548,0.9682,-0.210,-3.815,0.700,0.01,0.0184,0.0254,0.0100,0.0087,2025-06-09T13:54:16.847001
146,0.0976,-0.3582,0.9697,-0.245,-3.640,0.630,0.01,0.0368,0.0254,0.0200,0.0174,2025-06-09T13:54:16.897840
147,0.0976,-0.3611,0.9755,-0.210,-3.675,0.490,0.00,0.0368,0.0508,0.0200,0.0087,2025-06-09T13:54:16.897840
148,0.0986,-0.3621,0.9740,-0.280,-3.360,0.350,0.01,0.0368,0.0508,0.0100,0.0174,2025-06-09T13:54:16.897840
149,0.0952,-0.3606,0.9731,-0.210,-2.940,0.000,0.01,0.0184,0.0254,0.0100,0.0087,2025-06-09T13:54:16.949701
150,0.0898,-0.3601,0.9662,-0.105,-2.590,-0.140,0.00,0.0368,0.0508,0.0200,0.0087,2025-06-09T13:54:16.949701
151,0.0888,-0.3592,0.9594,-0.140,-2.555,-0.210,0.00,0.0184,0.0508,0.0200,0.0174,2025-06-09T13:54:16.949701
152,0.0864,-0.3606,0.9604,-0.105,-2.695,-0.245,0.00,0.0368,0.0508,0.0200,0.0087,2025-06-09T13:54:16.949701
153,0.0844,-0.3592,0.9638,-0.070,-3.080,-0.280,0.00,0.0368,0.0254,0.0100,0.0174,2025-06-09T13:54:17.010538
154,0.0898,-0.3621,0.9711,-0.140,-3.535,-0.245,0.00,0.0184,0.0508,0.0200,0.0087,2025-06-09T13:54:17.010538
155,0.0961,-0.3606,0.9765,-0.035,-3.640,-0.280,0.01,0.0184,0.0508,0.0100,0.0087,2025-06-09T13:54:17.013530
156,0.0986,-0.3601,0.9780,0.105,-3.080,-0.385,0.01,0.0368,0.0508,0.0200,0.0174,2025-06-09T13:54:17.013530
157,0.1010,-0.3592,0.9731,0.245,-2.765,-0.490,0.00,0.0184,0.0508,0.0100,0.0087,2025-06-09T13:54:17.013530
158,0.0981,-0.3562,0.9692,0.280,-2.625,-0.595,0.01,0.0184,0.0508,0.0200,0.0087,2025-06-09T13:54:17.146179
159,0.0908,-0.3538,0.9658,0.280,-2.905,-0.525,0.00,0.0184,0.0254,0.0100,0.0174,2025-06-09T13:54:17.146179
160,0.0883,-0.3538,0.9672,0.035,-3.395,-0.245,0.00,0.0184,0.0254,0.0100,0.0087,2025-06-09T13:54:17.146179
161,0.0883,-0.3523,0.9731,0.035,-4.025,0.035,0.01,0.0368,0.0508,0.0100,0.0087,2025-06-09T13:54:17.146179
162,0.0966,-0.3523,0.9770,0.035,-4.095,0.245,0.00,0.0184,0.0254,0.0200,0.0000,2025-06-09T13:54:17.146179
163,0.1030,-0.3523,0.9814,0.035,-3.570,0.105,0.00,0.0184,0.0254,0.0100,0.0000,2025-06-09T13:54:17.146179
164,0.1039,-0.3509,0.9765,-0.035,-3.010,0.070,0.00,0.0184,0.0254,0.0100,0.0087,2025-06-09T13:54:17.146179
165,0.0986,-0.3523,0.9750,-0.105,-2.940,0.105,0.01,0.0368,0.0254,0.0100,0.0087,2025-06-09T13:54:17.146179
166,0.0932,-0.3543,0.9672,-0.140,-3.500,0.350,0.00,0.0368,0.0254,0.0200,0.0087,2025-06-09T13:54:17.146179
167,0.0908,-0.3553,0.9701,-0.315,-3.990,0.595,0.01,0.0368,0.0508,0.0200,0.0174,2025-06-09T13:54:17.200033
168,0.0986,-0.3562,0.9721,-0.525,-3.640,0.525,0.01,0.0368,0.0508,0.0200,0.0087,2025-06-09T13:54:17.200033
169,0.1000,-0.3601,0.9736,-0.595,-3.045,0.280,0.01,0.0184,0.0508,0.0200,0.0174,2025-06-09T13:54:17.200033
170,0.0927,-0.3621,0.9721,-0.560,-2.975,0.140,0.01,0.0184,0.0254,0.0100,0.0087,2025-06-09T13:54:17.200033
171,0.0917,-0.3631,0.9726,-0.490,-3.255,0.210,0.00,0.0184,0.0254,0.0100,0.0174,2025-06-09T13:54:17.200033
172,0.0932,-0.3626,0.9701,-0.420,-3.115,0.280,0.00,0.0368,0.0254,0.0200,0.0087,2025-06-09T13:54:17.345667
173,0.0913,-0.3631,0.9667,-0.385,-3.325,0.210,0.00,0.0368,0.0254,0.0200,0.0087,2025-06-09T13:54:17.345667
174,0.0947,-0.3611,0.9653,-0.385,-3.255,0.000,0.00,0.0184,0.0508,0.0200,0.0087,2025-06-09T13:54:17.345667
175,0.0937,-0.3606,0.9614,-0.525,-3.115,-0.105,0.00,0.0184,0.0254,0.0200,0.0087,2025-06-09T13:54:17.345667
176,0.0913,-0.3587,0.9643,-0.490,-3.255,-0.070,0.01,0.0184,0.0254,0.0100,0.0087,2025-06-09T13:54:17.345667
177,0.0898,-0.3577,0.9682,-0.350,-3.850,-0.035,0.00,0.0368,0.0508,0.0100,0.0087,2025-06-09T13:54:17.345667
178,0.0932,-0.3572,0.9726,-0.315,-4.060,0.000,0.00,0.0368,0.0254,0.0200,0.0174,2025-06-09T13:54:17.345667
179,0.0996,-0.3577,0.9731,-0.175,-3.500,-0.070,0.00,0.0184,0.0254,0.0200,0.0087,2025-06-09T13:54:17.345667
180,0.1030,-0.3558,0.9726,-0.105,-2.870,-0.245,0.00,0.0184,0.0254,0.0100,0.0087,2025-06-09T13:54:17.345667
181,0.0991,-0.3558,0.9662,-0.035,-2.240,-0.490,0.00,0.0184,0.0508,0.0200,0.0087,2025-06-09T13:54:17.345667
182,0.0981,-0.3567,0.9672,-0.035,-2.205,-0.525,0.00,0.0368,0.0254,0.0200,0.0087,2025-06-09T13:54:17.345667
183,0.0908,-0.3577,0.9667,-0.105,-2.555,-0.280,0.01,0.0184,0.0508,0.0200,0.0087,2025-06-09T13:54:17.402520
184,0.0869,-0.3587,0.9716,-0.070,-3.185,-0.035,0.00,0.0184,0.0254,0.0200,0.0000,2025-06-09T13:54:17.402520
185,0.0913,-0.3577,0.9736,0.000,-3.745,0.175,0.01,0.0368,0.0508,0.0100,0.0087,2025-06-09T13:54:17.402520
186,0.0947,-0.3558,0.9731,0.070,-3.430,0.035,0.00,0.0184,0.0254,0.0100,0.0174,2025-06-09T13:54:17.402520
187,0.0991,-0.3543,0.9706,0.105,-3.045,-0.210,0.01,0.0368,0.0254,0.0100,0.0087,2025-06-09T13:54:17.549123
188,0.0961,-0.3592,0.9667,-0.070,-2.940,-0.315,0.01,0.0184,0.0508,0.0100,0.0087,2025-06-09T13:54:17.550097
189,0.0942,-0.3606,0.9677,-0.105,-3.080,-0.280,0.01,0.0184,0.0508,0.0200,0.0087,2025-06-09T13:54:17.550097
190,0.0893,-0.3650,0.9721,-0.105,-3.815,-0.070,0.01,0.0368,0.0508,0.0100,0.0087,2025-06-09T13:54:17.550097
191,0.0898,-0.3611,0.9740,-0.175,-4.130,0.070,0.01,0.0184,0.0508,0.0100,0.0087,2025-06-09T13:54:17.550097
192,0.0937,-0.3626,0.9726,-0.105,-4.130,0.035,0.00,0.0184,0.0254,0.0100,0.0087,2025-06-09T13:54:17.550097
193,0.0971,-0.3621,0.9711,-0.105,-3.885,0.140,0.01,0.0184,0.0254,0.0100,0.0000,2025-06-09T13:54:17.550097
194,0.1010,-0.3567,0.9721,-0.035,-3.570,-0.105,0.01,0.0184,0.0254,0.0100,0.0087,2025-06-09T13:54:17.550097
195,0.1030,-0.3582,0.9692,-0.070,-3.255,-0.245,0.00,0.0184,0.0254,0.0100,0.0087,2025-06-09T13:54:17.550097
196,0.1010,-0.3567,0.9687,-0.105,-3.080,-0.420,0.00,0.0368,0.0508,0.0100,0.0087,2025-06-09T13:54:17.550097
197,0.0956,-0.3597,0.9682,-0.210,-3.010,-0.490,0.01,0.0184,0.0254,0.0200,0.0087,2025-06-09T13:54:17.550097
198,0.0932,-0.3592,0.9711,-0.280,-3.255,-0.315,0.00,0.0184,0.0254,0.0200,0.0087,2025-06-09T13:54:17.652820
199,0.0908,-0.3587,0.9706,-0.350,-3.745,-0.140,0.01,0.0368,0.0508,0.0200,0.0087,2025-06-09T13:54:17.652820
200,0.0991,-0.3592,0.9721,-0.385,-3.675,0.000,0.00,0.0368,0.0254,0.0100,0.0087,2025-06-09T13:54:17.652820
201,0.0956,-0.3582,0.9736,-0.245,-3.500,-0.070,0.01,0.0184,0.0508,0.0100,0.0174,2025-06-09T13:54:17.801424
202,0.0961,-0.3587,0.9682,-0.280,-3.605,-0.070,0.01,0.0184,0.0254,0.0200,0.0087,2025-06-09T13:54:17.801424
203,0.0947,-0.3592,0.9662,-0.175,-3.885,0.000,0.00,0.0184,0.0254,0.0100,0.0174,2025-06-09T13:54:17.801424
204,0.0932,-0.3577,0.9667,-0.245,-4.130,0.140,0.00,0.0368,0.0254,0.0200,0.0174,2025-06-09T13:54:17.801424
205,0.0996,-0.3601,0.9701,-0.070,-3.990,0.175,0.00,0.0184,0.0508,0.0200,0.0174,2025-06-09T13:54:17.801424
206,0.0971,-0.3592,0.9692,0.035,-3.780,0.035,0.00,0.0184,0.0508,0.0200,0.0087,2025-06-09T13:54:17.801424
207,0.0971,-0.3606,0.9697,0.000,-3.710,-0.035,0.00,0.0368,0.0254,0.0200,0.0087,2025-06-09T13:54:17.801424
208,0.0966,-0.3582,0.9677,0.105,-3.640,-0.105,0.01,0.0368,0.0254,0.0100,0.0087,2025-06-09T13:54:17.801424
209,0.1010,-0.3597,0.9721,0.105,-3.430,-0.070,0.00,0.0368,0.0508,0.0200,0.0174,2025-06-09T13:54:17.801424
210,0.0986,-0.3597,0.9711,0.000,-3.220,-0.280,0.00,0.0184,0.0254,0.0100,0.0087,2025-06-09T13:54:17.801424
211,0.0956,-0.3606,0.9682,-0.175,-2.905,-0.420,0.00,0.0184,0.0254,0.0100,0.0000,2025-06-09T13:54:17.801424
212,0.0922,-0.3636,0.9682,-0.070,-3.045,-0.490,0.00,0.0184,0.0254,0.0100,0.0087,2025-06-09T13:54:17.801424
213,0.0898,-0.3621,0.9677,-0.070,-3.710,-0.315,0.00,0.0184,0.0508,0.0200,0.0087,2025-06-09T13:54:17.907198
214,0.0913,-0.3631,0.9682,-0.035,-4.305,-0.350,0.00,0.0184,0.0254,0.0100,0.0087,2025-06-09T13:54:17.907198
215,0.0971,-0.3636,0.9711,0.105,-3.990,-0.280,0.00,0.0368,0.0254,0.0200,0.0087,2025-06-09T13:54:17.907198
216,0.1030,-0.3626,0.9687,0.070,-3.640,-0.315,0.01,0.0368,0.0508,0.0100,0.0174,2025-06-09T13:54:17.907198
217,0.1010,-0.3592,0.9701,0.245,-3.500,-0.420,0.01,0.0368,0.0508,0.0100,0.0087,2025-06-09T13:54:17.907198
218,0.1025,-0.3597,0.9677,0.140,-3.360,-0.420,0.00,0.0000,0.0254,0.0100,0.0087,2025-06-09T13:54:17.907198
219,0.1005,-0.3592,0.9701,0.210,-3.395,-0.560,0.01,0.0368,0.0254,0.0200,0.0087,2025-06-09T13:54:17.907198
220,0.0981,-0.3577,0.9706,0.245,-3.640,-0.490,0.00,0.0184,0.0508,0.0100,0.0174,2025-06-09T13:54:18.079703
221,0.0981,-0.3567,0.9677,0.280,-3.535,-0.455,0.01,0.0368,0.0508,0.0100,0.0174,2025-06-09T13:54:18.079703
222,0.0971,-0.3572,0.9638,0.315,-3.290,-0.420,0.00,0.0368,0.0254,0.0100,0.0174,2025-06-09T13:54:18.079703
223,0.0996,-0.3562,0.9638,0.350,-2.940,-0.595,0.01,0.0184,0.0254,0.0200,0.0174,2025-06-09T13:54:18.079703
224,0.0996,-0.3597,0.9711,0.210,-2.660,-0.595,0.01,0.0184,0.0508,0.0200,0.0087,2025-06-09T13:54:18.079703
225,0.0996,-0.3587,0.9750,0.210,-2.975,-0.840,0.01,0.0184,0.0508,0.0100,0.0087,2025-06-09T13:54:18.079703
226,0.1025,-0.3626,0.9760,0.315,-2.975,-0.700,0.00,0.0184,0.0000,0.0100,0.0087,2025-06-09T13:54:18.079703
227,0.1010,-0.3621,0.9736,0.315,-3.220,-0.490,0.00,0.0184,0.0508,0.0200,0.0087,2025-06-09T13:54:18.079703
228,0.1000,-0.3597,0.9706,0.455,-3.570,-0.350,0.00,0.0368,0.0254,0.0100,0.0087,2025-06-09T13:54:18.079703
229,0.1064,-0.3582,0.9726,0.280,-3.430,-0.315,0.01,0.0368,0.0254,0.0100,0.0174,2025-06-09T13:54:18.079703
230,0.1049,-0.3558,0.9726,0.105,-3.430,-0.420,0.00,0.0184,0.0508,0.0200,0.0174,2025-06-09T13:54:18.079703
231,0.1059,-0.3543,0.9726,0.140,-3.395,-0.525,0.00,0.0184,0.0508,0.0100,0.0087,2025-06-09T13:54:18.080678
232,0.1035,-0.3504,0.9711,0.070,-3.115,-0.490,0.00,0.0184,0.0254,0.0100,0.0087,2025-06-09T13:54:18.080678
233,0.1000,-0.3514,0.9687,0.105,-3.150,-0.315,0.00,0.0184,0.0254,0.0100,0.0087,2025-06-09T13:54:18.080678
234,0.0942,-0.3533,0.9721,0.070,-3.675,8.890,0.00,0.0368,0.0254,0.0200,0.0000,2025-06-09T13:54:18.080678
235,0.0956,-0.3514,0.9726,0.140,-4.200,0.490,0.00,0.0368,0.0508,0.0100,0.0087,2025-06-09T13:54:18.080678
236,0.1005,-0.3523,0.9711,0.035,-4.515,0.525,0.00,0.0368,0.0508,0.0100,0.0087,2025-06-09T13:54:18.080678
237,0.1054,-0.3533,0.9701,0.105,-4.305,0.595,0.00,0.0184,0.0508,0.0100,0.0087,2025-06-09T13:54:18.080678
238,0.1108,-0.3548,0.9687,0.070,-3.500,0.455,0.00,0.0184,0.0254,0.0100,0.0087,2025-06-09T13:54:18.143533
239,0.1113,-0.3548,0.9667,0.210,-2.765,0.210,0.00,0.0184,0.0508,0.0100,0.0174,2025-06-09T13:54:18.143533
240,0.1059,-0.3567,0.9648,0.280,-2.135,0.070,0.01,0.0184,0.0508,0.0100,0.0087,2025-06-09T13:54:18.143533
241,0.0966,-0.3611,0.9623,0.245,-2.030,-0.105,0.01,0.0184,0.0508,0.0100,0.0087,2025-06-09T13:54:18.143533
242,0.0849,-0.3616,0.9614,0.455,-2.590,0.070,0.01,0.0368,0.0254,0.0200,0.0174,2025-06-09T13:54:18.278149
243,0.0859,-0.3626,0.9628,0.560,-3.745,0.385,0.01,0.0368,0.0508,0.0200,0.0087,2025-06-09T13:54:18.278149
244,0.0917,-0.3640,0.9711,0.455,-4.200,0.490,0.00,0.0368,0.0508,0.0100,0.0087,2025-06-09T13:54:18.278149
245,0.1074,-0.3597,0.9750,0.385,-4.095,0.455,0.00,0.0184,0.0508,0.0100,0.0087,2025-06-09T13:54:18.278149
246,0.1142,-0.3582,0.9726,0.385,-3.150,0.000,0.01,0.0184,0.0254,0.0100,0.0174,2025-06-09T13:54:18.278149
247,0.1122,-0.3592,0.9706,0.420,-2.345,-0.315,0.00,0.0184,0.0254,0.0100,0.0174,2025-06-09T13:54:18.278149
248,0.1064,-0.3597,0.9672,0.280,-2.065,-0.490,0.01,0.0184,0.0254,0.0200,0.0087,2025-06-09T13:54:18.278149
249,0.1000,-0.3592,0.9658,0.175,-2.240,-0.420,0.01,0.0368,0.0254,0.0200,0.0087,2025-06-09T13:54:18.278149
250,0.0961,-0.3592,0.9736,-0.035,-2.835,0.000,0.00,0.0368,0.0254,0.0200,0.0087,2025-06-09T13:54:18.278149
251,0.0991,-0.3548,0.9789,-0.070,-2.940,0.140,0.00,0.0184,0.0254,0.0100,0.0087,2025-06-09T13:54:18.278149
252,0.1010,-0.3538,0.9784,-0.140,-2.730,0.210,0.00,0.0184,0.0254,0.0200,0.0087,2025-06-09T13:54:18.278149
253,0.1054,-0.3504,0.9789,-0.070,-2.625,0.210,0.00,0.0368,0.0508,0.0100,0.0087,2025-06-09T13:54:18.369902
254,0.0986,-0.3504,0.9711,-0.035,-2.835,0.070,0.01,0.0368,0.0254,0.0100,0.0087,2025-06-09T13:54:18.369902
255,0.0971,-0.3509,0.9701,-0.140,-3.465,0.140,0.01,0.0368,0.0508,0.0200,0.0087,2025-06-09T13:54:18.369902
256,0.0976,-0.3523,0.9721,-0.245,-3.675,0.420,0.00,0.0184,0.0254,0.0200,0.0087,2025-06-09T13:54:18.369902
257,0.1015,-0.3543,0.9736,-0.350,-3.710,0.630,0.00,0.0184,0.0254,0.0100,0.0087,2025-06-09T13:54:18.369902
258,0.1020,-0.3538,0.9731,-0.280,-3.430,0.490,0.00,0.0184,0.0254,0.0200,0.0087,2025-06-09T13:54:18.369902
259,0.1064,-0.3548,0.9721,-0.210,-2.975,0.350,0.01,0.0368,0.0254,0.0200,0.0174,2025-06-09T13:54:18.475236
260,0.0996,-0.3558,0.9672,-0.175,-2.835,0.315,0.00,0.0368,0.0508,0.0200,0.0087,2025-06-09T13:54:18.475236
261,0.1005,-0.3562,0.9697,-0.175,-2.800,0.280,0.00,0.0368,0.0254,0.0100,0.0087,2025-06-09T13:54:18.475236
262,0.0966,-0.3597,0.9692,-0.210,-3.080,0.175,0.00,0.0184,0.0508,0.0100,0.0087,2025-06-09T13:54:18.475236
263,0.0952,-0.3582,0.9682,-0.140,-3.150,0.245,0.01,0.0184,0.0254,0.0100,0.0087,2025-06-09T13:54:18.475236
264,0.0986,-0.3606,0.9667,-0.245,-3.325,0.350,0.00,0.0184,0.0254,0.0100,0.0087,2025-06-09T13:54:18.475236
265,0.0976,-0.3597,0.9667,-0.210,-3.185,0.315,0.00,0.0184,0.0254,0.0100,0.0087,2025-06-09T13:54:18.475236
266,0.0956,-0.3621,0.9687,-0.175,-3.395,0.245,0.01,0.0184,0.0254,0.0200,0.0087,2025-06-09T13:54:18.475236
267,0.1025,-0.3606,0.9697,-0.070,-3.395,0.280,0.01,0.0368,0.0508,0.0100,0.0087,2025-06-09T13:54:18.571980
268,0.1025,-0.3553,0.9716,0.000,-2.905,0.000,0.01,0.0184,0.0508,0.0100,0.0174,2025-06-09T13:54:18.571980
269,0.1039,-0.3538,0.9672,-0.105,-2.520,-0.245,0.00,0.0368,0.0254,0.0200,0.0087,2025-06-09T13:54:18.571980
270,0.0976,-0.3562,0.9677,-0.070,-2.590,-0.175,0.00,0.0368,0.0508,0.0100,0.0087,2025-06-09T13:54:18.571980
271,0.0956,-0.3562,0.9701,-0.105,-2.870,-0.070,0.01,0.0184,0.0508,0.0200,0.0087,2025-06-09T13:54:18.571980
272,0.0991,-0.3553,0.9716,-0.035,-2.975,0.070,0.00,0.0184,0.0254,0.0100,0.0087,2025-06-09T13:54:18.571980
273,0.1005,-0.3558,0.9736,0.105,-2.730,-0.070,0.01,0.0184,0.0254,0.0100,0.0087,2025-06-09T13:54:18.571980
274,0.1015,-0.3548,0.9711,0.105,-2.450,-0.140,0.00,0.0368,0.0254,0.0100,0.0087,2025-06-09T13:54:18.637804
275,0.0986,-0.3562,0.9711,0.035,-2.695,-0.175,0.01,0.0184,0.0508,0.0100,0.0087,2025-06-09T13:54:18.637804
276,0.0952,-0.3548,0.9706,0.070,-3.045,-0.140,0.01,0.0184,0.0254,0.0200,0.0087,2025-06-09T13:54:18.637804
277,0.0981,-0.3562,0.9711,0.000,-3.010,0.000,0.00,0.0184,0.0254,0.0200,0.0174,2025-06-09T13:54:18.637804
278,0.0996,-0.3572,0.9721,-0.070,-3.010,0.035,0.01,0.0184,0.0254,0.0100,0.0087,2025-06-09T13:54:18.637804
279,0.1000,-0.3577,0.9731,0.035,-2.835,-0.070,0.01,0.0368,0.0508,0.0100,0.0087,2025-06-09T13:54:18.785406
280,0.1030,-0.3592,0.9711,0.070,-2.485,-0.350,0.00,0.0368,0.0508,0.0200,0.0087,2025-06-09T13:54:18.785406
281,0.0986,-0.3582,0.9687,0.105,-2.380,-0.350,0.00,0.0368,0.0254,0.0200,0.0174,2025-06-09T13:54:18.785406
282,0.0976,-0.3606,0.9701,0.140,-2.485,-0.350,0.00,0.0184,0.0254,0.0100,0.0087,2025-06-09T13:54:18.785406
283,0.0966,-0.3582,0.9692,0.280,-2.660,-0.455,0.01,0.0184,0.0254,0.0200,0.0174,2025-06-09T13:54:18.785406
284,0.1005,-0.3616,0.9701,0.525,-2.695,-0.560,0.00,0.0368,0.0254,0.0100,0.0087,2025-06-09T13:54:18.785406
285,0.1113,-0.3616,0.9677,0.840,-1.995,-1.015,0.00,0.0368,0.0254,0.0200,0.0087,2025-06-09T13:54:18.785406
286,0.1254,-0.3631,0.9687,1.435,-0.560,-1.575,0.00,0.0184,0.0254,0.0000,0.0087,2025-06-09T13:54:18.785406
287,0.1469,-0.3684,0.9706,2.520,1.960,-2.765,0.00,0.0184,0.0254,0.0100,0.0087,2025-06-09T13:54:18.785406
288,0.1957,-0.3855,0.9726,4.480,7.840,-5.635,0.00,0.0184,0.0508,0.0100,0.0087,2025-06-09T13:54:18.785406
289,0.2586,-0.3992,0.9745,7.350,16.030,-8.225,0.00,0.0184,0.0254,0.0200,0.0087,2025-06-09T13:54:18.785406
290,0.3045,-0.4285,0.9599,9.975,26.390,-11.095,0.01,0.0184,0.0254,0.0200,0.0087,2025-06-09T13:54:18.836285
291,0.3021,-0.4412,0.9565,15.960,40.390,-15.295,0.01,0.0184,0.0254,0.0100,0.0087,2025-06-09T13:54:18.836285
292,0.2904,-0.4690,0.9780,20.055,55.895,-23.275,0.00,0.0368,0.0254,0.0100,0.0087,2025-06-09T13:54:18.836285
293,0.2513,-0.4714,1.0019,25.585,73.220,-31.955,0.01,0.0184,0.0254,0.0200,0.0087,2025-06-09T13:54:18.836285
294,0.2089,-0.4773,1.0585,30.415,84.315,-43.225,0.01,0.0368,0.0254,0.0200,0.0174,2025-06-09T13:54:18.983904
295,0.1542,-0.5007,1.0941,39.445,92.890,-54.215,0.00,0.0368,0.0254,0.0100,0.0087,2025-06-09T13:54:18.983904
296,0.0268,-0.5031,1.1029,48.265,93.310,-69.055,0.00,0.0184,0.0254,0.0200,0.0087,2025-06-09T13:54:18.983904
297,-0.0068,-0.5090,1.1156,60.480,69.650,-81.550,0.00,0.0368,0.0508,0.0100,0.0087,2025-06-09T13:54:18.983904
298,0.0849,-0.4948,1.1258,68.985,48.510,-91.770,0.01,0.0184,0.0508,0.0100,0.0087,2025-06-09T13:54:18.983904
299,0.2552,-0.5031,1.1902,79.590,42.350,-101.325,0.00,0.0368,0.0254,0.0100,0.0087,2025-06-09T13:54:18.983904
300,0.3167,-0.4914,1.3371,89.565,56.560,-108.990,0.00,0.0184,0.0508,0.0100,0.0087,2025-06-09T13:54:18.983904
301,0.3250,-0.4743,1.4064,102.795,88.095,-119.280,0.01,0.0368,0.0254,0.0100,0.0087,2025-06-09T13:54:18.983904
302,0.2547,-0.4768,1.3806,117.215,116.515,-125.020,0.00,0.0368,0.0254,0.0100,0.0087,2025-06-09T13:54:18.983904
303,0.0800,-0.4573,1.3410,130.655,139.125,-125.475,0.00,0.0368,0.0254,0.0100,0.0087,2025-06-09T13:54:18.983904
304,-0.0625,-0.4221,1.3171,147.105,146.160,-120.505,0.00,0.0184,0.0254,0.0200,0.0174,2025-06-09T13:54:18.983904
305,-0.2201,-0.3655,1.2873,158.130,143.325,-111.580,0.00,0.0184,0.0254,0.0200,0.0087,2025-06-09T13:54:19.092585
306,-0.3479,-0.3065,1.2249,169.610,134.435,-103.705,0.00,0.0184,0.0254,0.0200,0.0174,2025-06-09T13:54:19.092585
307,-0.4221,-0.2450,1.1575,176.225,120.715,-93.380,0.01,0.0368,0.0254,0.0200,0.0174,2025-06-09T13:54:19.092585
308,-0.4338,-0.2147,1.1102,181.580,114.135,-83.930,0.00,0.0368,0.0508,0.0200,0.0087,2025-06-09T13:54:19.092585
309,-0.4597,-0.1898,1.0365,185.885,111.440,-72.415,0.00,0.0184,0.0254,0.0100,0.0087,2025-06-09T13:54:19.092585
310,-0.4773,-0.1293,0.9477,187.670,113.610,-62.300,0.00,0.0184,0.0000,0.0100,0.0174,2025-06-09T13:54:19.092585
311,-0.5065,-0.0981,0.8774,189.315,119.630,-48.895,0.00,0.0184,0.0254,0.0200,0.0087,2025-06-09T13:54:19.092585
312,-0.5197,-0.0654,0.8111,182.770,128.065,-36.120,0.00,0.0368,0.0508,0.0200,0.0087,2025-06-09T13:54:19.192344
313,-0.5388,-0.0283,0.7608,179.970,142.800,-19.040,0.01,0.0368,0.0508,0.0200,0.0087,2025-06-09T13:54:19.192344
314,-0.5578,0.0268,0.6754,174.790,141.680,-5.845,0.00,0.0368,0.0254,0.0100,0.0087,2025-06-09T13:54:19.192344
315,-0.6339,0.0766,0.5900,166.075,145.775,7.840,0.00,0.0368,0.0508,0.0100,0.0174,2025-06-09T13:54:19.192344
316,-0.6510,0.1249,0.5217,159.635,143.185,18.550,0.01,0.0184,0.0508,0.0200,0.0087,2025-06-09T13:54:19.192344
317,-0.6622,0.2001,0.4904,148.225,144.340,31.010,0.00,0.0368,0.0254,0.0100,0.0087,2025-06-09T13:54:19.192344
318,-0.6495,0.2342,0.4358,135.625,134.785,40.390,0.00,0.0184,0.0254,0.0100,0.0087,2025-06-09T13:54:19.192344
319,-0.6715,0.3201,0.4163,124.180,119.595,48.020,0.00,0.0184,0.0254,0.0100,0.0087,2025-06-09T13:54:19.192344
320,-0.7291,0.3421,0.3714,113.365,97.965,52.570,0.01,0.0368,0.0254,0.0200,0.0087,2025-06-09T13:54:19.293049
321,-0.7120,0.3938,0.3636,102.305,80.570,55.405,0.01,0.0368,0.0508,0.0200,0.0087,2025-06-09T13:54:19.293049
322,-0.6793,0.4275,0.3611,88.795,60.550,55.020,0.01,0.0184,0.0254,0.0100,0.0000,2025-06-09T13:54:19.293049
323,-0.6378,0.4690,0.3787,82.390,45.605,54.355,0.00,0.0368,0.0508,0.0200,0.0087,2025-06-09T13:54:19.293049
324,-0.5714,0.5100,0.3787,75.110,34.125,52.745,0.00,0.0184,0.0254,0.0200,0.0087,2025-06-09T13:54:19.293049
325,-0.5417,0.5095,0.3767,65.485,27.685,48.755,0.00,0.0184,0.0254,0.0100,0.0087,2025-06-09T13:54:19.293049
326,-0.4680,0.5539,0.3758,58.450,25.970,43.365,0.00,0.0368,0.0000,0.0100,0.0087,2025-06-09T13:54:19.293049
327,-0.4197,0.5924,0.4021,50.610,29.610,40.040,0.00,0.0368,0.0254,0.0100,0.0087,2025-06-09T13:54:19.391809
328,-0.4080,0.6037,0.4080,43.505,31.290,37.205,0.00,0.0368,0.0254,0.0200,0.0087,2025-06-09T13:54:19.391809
329,-0.4538,0.6202,0.4260,37.695,28.770,34.090,0.00,0.0184,0.0254,0.0100,0.0087,2025-06-09T13:54:19.391809
330,-0.5095,0.6354,0.4377,33.145,18.445,30.625,0.01,0.0368,0.0508,0.0200,0.0087,2025-06-09T13:54:19.391809
331,-0.5358,0.6388,0.4451,30.625,2.345,26.705,0.01,0.0368,0.0254,0.0200,0.0087,2025-06-09T13:54:19.391809
332,-0.5505,0.6505,0.4646,28.665,-12.775,23.625,0.00,0.0184,0.0254,0.0100,0.0087,2025-06-09T13:54:19.391809
333,-0.5114,0.6627,0.4909,27.055,-26.810,19.705,0.00,0.0184,0.0508,0.0200,0.0087,2025-06-09T13:54:19.391809
334,-0.4778,0.6647,0.5217,24.500,-34.090,16.870,0.00,0.0184,0.0254,0.0100,0.0174,2025-06-09T13:54:19.391809
335,-0.4377,0.6593,0.5285,23.380,-38.780,14.385,0.00,0.0368,0.0254,0.0200,0.0087,2025-06-09T13:54:19.620173
336,-0.4182,0.6583,0.5329,22.435,-38.535,12.355,0.00,0.0368,0.0508,0.0100,0.0087,2025-06-09T13:54:19.620173
337,-0.3997,0.6554,0.5519,21.455,-33.810,9.660,0.00,0.0368,0.0508,0.0200,0.0174,2025-06-09T13:54:19.620173
338,-0.3845,0.6642,0.5778,20.055,-24.885,8.085,0.01,0.0184,0.0254,0.0100,0.0174,2025-06-09T13:54:19.620173
339,-0.3841,0.6637,0.6012,19.005,-16.835,7.035,0.01,0.0368,0.0254,0.0100,0.0087,2025-06-09T13:54:19.620173
340,-0.4177,0.6529,0.5963,18.725,-10.255,6.580,0.00,0.0184,0.0254,0.0100,0.0087,2025-06-09T13:54:19.620173
341,-0.4714,0.6471,0.5866,19.425,-8.120,6.300,0.01,0.0368,0.0254,0.0100,0.0087,2025-06-09T13:54:19.620173
342,-0.5100,0.6481,0.6056,20.965,-10.115,5.600,0.00,0.0184,0.0254,0.0100,0.0087,2025-06-09T13:54:19.620173
343,-0.5275,0.6471,0.6173,22.575,-14.140,5.285,0.00,0.0184,0.0000,0.0100,0.0174,2025-06-09T13:54:19.620173
344,-0.5329,0.6471,0.6124,23.870,-18.235,5.390,0.00,0.0184,0.0254,0.0100,0.0174,2025-06-09T13:54:19.620173
345,-0.5158,0.6510,0.6198,25.165,-20.965,5.460,0.00,0.0184,0.0254,0.0100,0.0087,2025-06-09T13:54:19.620173
346,-0.5075,0.6446,0.6163,26.180,-21.035,5.460,0.01,0.0184,0.0508,0.0200,0.0087,2025-06-09T13:54:19.620173
347,-0.4953,0.6451,0.6051,27.125,-19.250,5.670,0.00,0.0184,0.0254,0.0100,0.0174,2025-06-09T13:54:19.620173
348,-0.4812,0.6471,0.5993,27.825,-15.645,6.405,0.00,0.0184,0.0254,0.0100,0.0087,2025-06-09T13:54:19.620173
349,-0.4865,0.6559,0.5885,28.070,-11.480,7.245,0.00,0.0184,0.0254,0.0200,0.0087,2025-06-09T13:54:19.620173
350,-0.4875,0.6676,0.5827,29.295,-7.175,7.840,0.01,0.0368,0.0254,0.0100,0.0087,2025-06-09T13:54:19.620173
351,-0.4812,0.6905,0.5724,28.980,-4.515,8.575,0.01,0.0368,0.0508,0.0200,0.0174,2025-06-09T13:54:19.784737
352,-0.4778,0.6949,0.5641,29.050,-2.030,9.170,0.01,0.0184,0.0508,0.0200,0.0174,2025-06-09T13:54:19.784737
353,-0.4817,0.7032,0.5392,28.700,-2.380,9.660,0.01,0.0368,0.0000,0.0200,0.0087,2025-06-09T13:54:19.784737
354,-0.4909,0.7178,0.5363,28.000,-4.585,9.660,0.00,0.0368,0.0254,0.0200,0.0087,2025-06-09T13:54:19.784737
355,-0.4797,0.7198,0.5290,27.335,-8.890,9.520,0.00,0.0368,0.0254,0.0100,0.0174,2025-06-09T13:54:19.784737
356,-0.4699,0.7403,0.5251,25.340,-12.950,9.590,0.00,0.0184,0.0254,0.0100,0.0087,2025-06-09T13:54:19.784737
357,-0.4514,0.7476,0.5231,23.310,-16.450,9.275,0.00,0.0368,0.0254,0.0100,0.0087,2025-06-09T13:54:19.784737
358,-0.4216,0.7520,0.5075,21.315,-17.185,8.750,0.00,0.0000,0.0254,0.0200,0.0087,2025-06-09T13:54:19.803684
359,-0.3884,0.7559,0.4953,18.865,-14.525,8.050,0.00,0.0368,0.0508,0.0200,0.0087,2025-06-09T13:54:19.803684
360,-0.3855,0.7569,0.4856,16.100,-11.585,7.700,0.01,0.0184,0.0254,0.0200,0.0087,2025-06-09T13:54:19.803684
361,-0.3855,0.7647,0.4939,13.615,-8.715,7.105,0.00,0.0368,0.0508,0.0200,0.0174,2025-06-09T13:54:19.803684
362,-0.3953,0.7696,0.4958,10.675,-6.160,6.755,0.00,0.0368,0.0254,0.0100,0.0087,2025-06-09T13:54:19.803684
363,-0.4080,0.7666,0.4904,8.120,-6.265,6.580,0.00,0.0368,0.0254,0.0100,0.0087,2025-06-09T13:54:19.803684
364,-0.4250,0.7715,0.4953,6.335,-8.680,7.105,0.00,0.0184,0.0254,0.0100,0.0087,2025-06-09T13:54:19.803684
365,-0.4348,0.7642,0.5007,4.060,-12.285,7.700,0.01,0.0368,0.0508,0.0200,0.0174,2025-06-09T13:54:19.907431
366,-0.4314,0.7515,0.4929,2.765,-16.135,7.840,0.01,0.0184,0.0508,0.0200,0.0174,2025-06-09T13:54:19.907431
367,-0.4275,0.7462,0.4860,2.590,-18.025,8.015,0.00,0.0368,0.0508,0.0100,0.0087,2025-06-09T13:54:19.907431
368,-0.3938,0.7457,0.4875,1.645,-17.115,7.770,0.01,0.0368,0.0254,0.0100,0.0087,2025-06-09T13:54:19.907431
369,-0.3621,0.7442,0.4841,0.980,-13.090,7.630,0.01,0.0368,0.0508,0.0200,0.0174,2025-06-09T13:54:19.907431
370,-0.3392,0.7481,0.4900,-0.105,-7.560,7.210,0.01,0.0184,0.0254,0.0100,0.0174,2025-06-09T13:54:19.907431
371,-0.3631,0.7588,0.4904,-0.525,-2.625,6.020,0.00,0.0184,0.0254,0.0200,0.0087,2025-06-09T13:54:19.907431
372,-0.3811,0.7627,0.4953,-0.560,-2.310,4.655,0.00,0.0184,0.0254,0.0200,0.0087,2025-06-09T13:54:19.907431
373,-0.3709,0.8032,0.5056,-0.980,-3.850,2.940,0.01,0.0368,0.0508,0.0200,0.0174,2025-06-09T13:54:20.011129
374,-0.3597,0.8286,0.5139,-2.100,-6.125,1.540,0.01,0.0184,0.0254,0.0100,0.0087,2025-06-09T13:54:20.011129
375,-0.3333,0.9072,0.5368,-4.025,-8.435,-0.560,0.01,0.0184,0.0254,0.0200,0.0087,2025-06-09T13:54:20.011129
376,-0.2840,0.9765,0.5651,-7.000,-11.200,-2.275,0.00,0.0368,0.0508,0.0100,0.0174,2025-06-09T13:54:20.011129
377,-0.2372,1.2283,0.5910,-12.530,-13.685,-3.360,0.01,0.0184,0.0254,0.0200,0.0087,2025-06-09T13:54:20.011129
378,-0.1449,1.3005,0.6281,-19.530,-18.235,-2.345,0.00,0.0368,0.0254,0.0200,0.0087,2025-06-09T13:54:20.011129
379,-0.1269,1.4767,0.6490,-32.165,-31.570,2.380,0.00,0.0184,0.0254,0.0200,0.0087,2025-06-09T13:54:20.011129
380,-0.1181,1.7792,0.6198,-42.175,-69.860,12.530,0.00,0.0184,0.0254,0.0200,0.0174,2025-06-09T13:54:20.011129
381,-0.0551,2.0496,0.5114,-56.910,-109.900,22.610,0.00,0.0184,0.0508,0.0200,0.0174,2025-06-09T13:54:20.116844
382,0.1191,2.3780,0.3967,-72.485,-146.230,34.685,0.00,0.0368,0.0254,0.0200,0.0087,2025-06-09T13:54:20.116844
383,0.3040,2.5659,0.1405,-95.340,-169.435,44.870,0.01,0.0368,0.0508,0.0200,0.0087,2025-06-09T13:54:20.116844
384,0.4738,2.6845,0.0259,-114.415,-168.140,53.690,0.00,0.0184,0.0254,0.0000,0.0087,2025-06-09T13:54:20.116844
385,0.4377,2.7333,-0.2245,-135.905,-153.090,52.955,0.00,0.0184,0.0254,0.0000,0.0087,2025-06-09T13:54:20.116844
386,0.3914,2.6342,-0.4821,-153.195,-136.990,40.355,0.01,0.0368,0.0254,0.0200,0.0087,2025-06-09T13:54:20.116844
387,0.2323,2.4854,-0.4939,-172.270,-107.065,3.045,0.00,0.0184,0.0254,0.0100,0.0087,2025-06-09T13:54:20.116844
388,0.0146,2.1531,-0.3894,-206.570,-89.600,-40.740,0.00,0.0368,0.0254,0.0100,0.0087,2025-06-09T13:54:20.168707
389,-0.3431,1.4991,-0.3392,-237.055,-108.780,-94.255,0.00,0.0184,0.0254,0.0200,0.0087,2025-06-09T13:54:20.168707
390,-0.5734,0.8301,-0.2128,-275.555,-153.055,-138.495,0.00,0.0368,0.0508,0.0100,0.0087,2025-06-09T13:54:20.168707
391,-0.5046,-0.2103,-0.0952,-298.305,-199.150,-187.810,0.00,0.0368,0.0508,0.0200,0.0087,2025-06-09T13:54:20.168707
392,-0.4094,-1.2171,0.1069,-327.565,-195.195,-222.635,0.01,0.0368,0.0508,0.0100,0.0087,2025-06-09T13:54:20.316311
393,-0.6256,-2.4132,0.5749,-337.680,-136.570,-265.685,0.01,0.0368,0.0254,0.0200,0.0087,2025-06-09T13:54:20.316311
394,-0.4553,-3.7566,1.1102,-316.260,-77.245,-302.540,0.00,0.0368,0.0508,0.0200,0.0087,2025-06-09T13:54:20.316311
395,-0.5124,-4.4476,1.1556,-262.115,-30.975,-283.430,0.00,0.0184,0.0508,0.0100,0.0087,2025-06-09T13:54:20.316311
396,-0.4002,-4.0040,0.7618,-159.845,-41.090,-184.485,0.01,0.0184,0.0508,0.0200,0.0087,2025-06-09T13:54:20.316311
397,0.1889,-3.2023,0.7496,-69.335,-76.580,34.825,0.00,0.0184,0.0254,0.0100,0.0174,2025-06-09T13:54:20.316311
398,0.1640,-2.9812,0.9784,77.910,-100.170,205.695,0.00,0.0184,0.0254,0.0100,0.0087,2025-06-09T13:54:20.316311
399,0.2796,-2.8446,1.1722,173.915,-72.135,296.275,0.00,0.0184,0.0254,0.0100,0.0087,2025-06-09T13:54:20.316311
400,0.3694,-2.7367,1.2595,239.260,-12.880,301.875,0.00,0.0184,0.0508,0.0100,0.0174,2025-06-09T13:54:20.316311
401,0.5139,-2.5054,1.1727,271.285,55.615,300.545,0.00,0.0184,0.0254,0.0100,0.0174,2025-06-09T13:54:20.316311
402,0.3997,-2.0433,1.0590,288.925,139.265,297.430,0.00,0.0368,0.0508,0.0100,0.0087,2025-06-09T13:54:20.316311
403,0.1796,-1.2405,0.9740,283.535,186.760,282.065,0.00,0.0368,0.0508,0.0100,0.0174,2025-06-09T13:54:20.418041
404,-0.0464,-0.5090,0.9179,265.090,203.595,252.035,0.01,0.0368,0.0508,0.0100,0.0174,2025-06-09T13:54:20.418041
405,-0.1581,0.1864,0.7540,254.240,175.210,221.375,0.01,0.0368,0.0508,0.0100,0.0087,2025-06-09T13:54:20.418041
406,-0.1113,0.5461,0.5553,243.915,105.455,178.920,0.00,0.0184,0.0508,0.0200,0.0087,2025-06-09T13:54:20.418041
407,0.2469,0.7935,0.2186,210.210,43.750,137.795,0.00,0.0368,0.0254,0.0200,0.0087,2025-06-09T13:54:20.418041
408,0.5197,1.0194,-0.0620,200.830,6.335,77.455,0.00,0.0368,0.0508,0.0200,0.0174,2025-06-09T13:54:20.418041
409,0.7066,1.3064,-0.1318,199.150,9.485,24.570,0.00,0.0368,0.0254,0.0200,0.0000,2025-06-09T13:54:20.418041
410,0.8291,1.5987,-0.0996,180.810,31.290,-26.425,0.01,0.0368,0.0254,0.0100,0.0087,2025-06-09T13:54:20.418041
411,0.8599,1.6299,-0.0815,153.895,61.670,-53.410,0.01,0.0368,0.0508,0.0100,0.0087,2025-06-09T13:54:20.628800
412,0.7315,1.6758,-0.0434,137.865,85.365,-74.795,0.00,0.0000,0.0508,0.0200,0.0087,2025-06-09T13:54:20.628800
413,0.5334,1.5904,-0.0049,116.445,92.540,-90.475,0.01,0.0184,0.0254,0.0100,0.0087,2025-06-09T13:54:20.628800
414,0.3099,1.4982,0.0527,96.810,86.415,-103.145,0.00,0.0184,0.0508,0.0200,0.0174,2025-06-09T13:54:20.628800
415,0.0825,1.4142,0.1259,81.655,62.965,-109.270,0.00,0.0184,0.0508,0.0100,0.0087,2025-06-09T13:54:20.628800
416,-0.1474,1.3679,0.1923,72.660,32.935,-113.015,0.00,0.0368,0.0508,0.0100,0.0087,2025-06-09T13:54:20.628800
417,-0.2840,1.2981,0.2713,67.060,-1.225,-114.275,0.00,0.0368,0.0254,0.0100,0.0174,2025-06-09T13:54:20.628800
418,-0.3040,1.2161,0.3377,59.640,-19.075,-113.470,0.00,0.0184,0.0254,0.0100,0.0174,2025-06-09T13:54:20.628800
419,-0.3143,1.1458,0.3426,50.050,-28.105,-110.075,0.00,0.0184,0.0508,0.0200,0.0174,2025-06-09T13:54:20.628800
420,-0.3431,1.0697,0.3572,43.680,-25.690,-105.420,0.00,0.0184,0.0254,0.0100,0.0087,2025-06-09T13:54:20.628800
421,-0.3562,1.0453,0.3977,37.135,-11.480,-97.825,0.00,0.0184,0.0254,0.0100,0.0087,2025-06-09T13:54:20.628800
422,-0.4031,1.0038,0.4314,27.860,3.780,-89.565,0.00,0.0184,0.0254,0.0100,0.0087,2025-06-09T13:54:20.628800
423,-0.4675,0.9760,0.4568,22.120,17.465,-75.390,0.00,0.0184,0.0254,0.0100,0.0087,2025-06-09T13:54:20.628800
424,-0.5714,0.9565,0.4680,15.750,22.120,-63.630,0.00,0.0184,0.0254,0.0200,0.0087,2025-06-09T13:54:20.628800
425,-0.6451,0.9404,0.4992,11.550,19.040,-50.820,0.00,0.0184,0.0254,0.0100,0.0174,2025-06-09T13:54:20.628800
426,-0.6495,0.9262,0.5100,7.385,9.240,-40.320,0.01,0.0184,0.0254,0.0100,0.0087,2025-06-09T13:54:20.728508
427,-0.5939,0.9048,0.5002,3.500,2.030,-29.365,0.01,0.0184,0.0508,0.0100,0.0174,2025-06-09T13:54:20.728508
428,-0.5334,0.8911,0.5061,-0.525,-0.315,-22.820,0.00,0.0184,0.0508,0.0200,0.0087,2025-06-09T13:54:20.728508
429,-0.4660,0.8916,0.5280,-2.940,3.465,-18.550,0.00,0.0184,0.0508,0.0200,0.0174,2025-06-09T13:54:20.728508
430,-0.3948,0.8760,0.5314,-5.915,14.490,-15.435,0.01,0.0184,0.0254,0.0100,0.0087,2025-06-09T13:54:20.728508
431,-0.3860,0.8755,0.5514,-9.660,23.380,-13.090,0.00,0.0000,0.0508,0.0100,0.0087,2025-06-09T13:54:20.728508
432,-0.4329,0.8706,0.5666,-11.130,27.930,-10.465,0.00,0.0184,0.0254,0.0100,0.0087,2025-06-09T13:54:20.728508
433,-0.4695,0.8696,0.5632,-12.320,25.935,-8.470,0.01,0.0368,0.0508,0.0100,0.0087,2025-06-09T13:54:20.728508
434,-0.5139,0.8642,0.5578,-13.300,20.055,-6.755,0.00,0.0184,0.0254,0.0100,0.0087,2025-06-09T13:54:20.778376
435,-0.5183,0.8584,0.5632,-13.160,10.360,-4.760,0.00,0.0368,0.0508,0.0100,0.0174,2025-06-09T13:54:20.778376
436,-0.4948,0.8511,0.5680,-13.195,2.730,-2.100,0.01,0.0368,0.0254,0.0100,0.0087,2025-06-09T13:54:20.779372
437,-0.4582,0.8384,0.5529,-13.335,-0.910,-0.315,0.01,0.0184,0.0254,0.0100,0.0087,2025-06-09T13:54:20.927975
438,-0.4250,0.8247,0.5553,-13.615,1.715,0.735,0.01,0.0184,0.0254,0.0200,0.0174,2025-06-09T13:54:20.927975
439,-0.3928,0.8213,0.5461,-14.455,9.275,2.485,0.00,0.0184,0.0254,0.0100,0.0087,2025-06-09T13:54:20.927975
440,-0.4128,0.8076,0.5251,-15.995,15.225,4.060,0.01,0.0184,0.0508,0.0100,0.0087,2025-06-09T13:54:20.927975
441,-0.4480,0.7974,0.5246,-17.325,19.215,5.670,0.00,0.0368,0.0508,0.0200,0.0087,2025-06-09T13:54:20.927975
442,-0.4680,0.7891,0.5246,-18.480,20.790,6.580,0.00,0.0368,0.0254,0.0200,0.0087,2025-06-09T13:54:20.927975
443,-0.4958,0.7662,0.5197,-19.775,19.005,7.770,0.00,0.0184,0.0508,0.0100,0.0087,2025-06-09T13:54:20.927975
444,-0.5124,0.7496,0.5158,-20.335,12.705,9.380,0.01,0.0368,0.0254,0.0100,0.0087,2025-06-09T13:54:20.927975
445,-0.5202,0.7325,0.5109,-20.160,5.740,10.010,0.00,0.0368,0.0508,0.0100,0.0087,2025-06-09T13:54:20.927975
446,-0.4943,0.7164,0.5144,-20.230,-0.420,10.115,0.00,0.0184,0.0254,0.0100,0.0087,2025-06-09T13:54:20.927975
447,-0.4538,0.7037,0.5217,-20.265,-1.015,9.695,0.00,0.0184,0.0254,0.0100,0.0087,2025-06-09T13:54:20.927975
448,-0.4226,0.6915,0.5183,-20.720,3.115,9.240,0.01,0.0184,0.0508,0.0100,0.0087,2025-06-09T13:54:20.991832
449,-0.4280,0.6793,0.5207,-20.405,9.520,8.820,0.01,0.0368,0.0508,0.0200,0.0087,2025-06-09T13:54:20.991832
450,-0.4509,0.6666,0.5178,-20.335,12.005,8.680,0.00,0.0184,0.0254,0.0200,0.0174,2025-06-09T13:54:20.991832
451,-0.4890,0.6578,0.5197,-19.390,10.780,8.575,0.01,0.0184,0.0508,0.0100,0.0087,2025-06-09T13:54:20.991832
452,-0.5090,0.6559,0.5266,-17.500,7.630,7.945,0.00,0.0184,0.0254,0.0100,0.0087,2025-06-09T13:54:21.041695
453,-0.5017,0.6529,0.5339,-16.135,4.900,6.545,0.00,0.0368,0.0254,0.0200,0.0174,2025-06-09T13:54:21.041695
454,-0.5036,0.6466,0.5348,-14.420,4.095,4.865,0.00,0.0184,0.0508,0.0200,0.0087,2025-06-09T13:54:21.041695
455,-0.5041,0.6383,0.5368,-13.545,4.095,2.660,0.00,0.0184,0.0508,0.0300,0.0174,2025-06-09T13:54:21.041695
456,-0.5109,0.6383,0.5495,-12.390,4.690,1.260,0.00,0.0184,0.0254,0.0100,0.0174,2025-06-09T13:54:21.041695
457,-0.5080,0.6354,0.5510,-11.620,5.635,-8.855,0.00,0.0368,0.0508,0.0200,0.0087,2025-06-09T13:54:21.134440
458,-0.5202,0.6242,0.5514,-11.270,6.475,-0.805,0.01,0.0368,0.0254,0.0200,0.0174,2025-06-09T13:54:21.134440
459,-0.5344,0.6202,0.5656,-10.710,6.580,-1.190,0.00,0.0368,0.0254,0.0100,0.0087,2025-06-09T13:54:21.134440
460,-0.5510,0.6163,0.5836,-9.765,5.215,-1.330,0.00,0.0184,0.0254,0.0200,0.0174,2025-06-09T13:54:21.134440
461,-0.5597,0.6163,0.5827,-8.785,3.080,-1.225,0.00,0.0184,0.0254,0.0100,0.0000,2025-06-09T13:54:21.134440
462,-0.5563,0.6198,0.5856,-7.875,1.365,-1.575,0.00,0.0184,0.0254,0.0100,0.0087,2025-06-09T13:54:21.134440
463,-0.5461,0.6183,0.5817,-7.245,-0.070,-1.820,0.01,0.0184,0.0254,0.0200,0.0174,2025-06-09T13:54:21.134440
464,-0.5348,0.6178,0.5915,-6.720,-0.385,-1.960,0.00,0.0184,0.0254,0.0100,0.0174,2025-06-09T13:54:21.184295
465,-0.5241,0.6212,0.5929,-6.300,0.140,-2.380,0.00,0.0184,0.0254,0.0200,0.0087,2025-06-09T13:54:21.184295
466,-0.5226,0.6173,0.5861,-6.125,0.700,-2.940,0.01,0.0184,0.0508,0.0200,0.0174,2025-06-09T13:54:21.184295
467,-0.5231,0.6207,0.5895,-5.565,0.490,-3.640,0.00,0.0368,0.0508,0.0100,0.0087,2025-06-09T13:54:21.343886
468,-0.5270,0.6227,0.5871,-5.250,0.245,-4.165,0.00,0.0368,0.0508,0.0200,0.0087,2025-06-09T13:54:21.343886
469,-0.5300,0.6281,0.6007,-5.250,-0.210,-4.830,0.01,0.0184,0.0254,0.0200,0.0087,2025-06-09T13:54:21.343886
470,-0.5334,0.6295,0.6002,-4.900,-1.995,-5.250,0.00,0.0368,0.0254,0.0100,0.0087,2025-06-09T13:54:21.343886
471,-0.5280,0.6281,0.5890,-4.725,-4.165,-5.215,0.01,0.0184,0.0508,0.0200,0.0087,2025-06-09T13:54:21.343886
472,-0.5266,0.6364,0.5827,-4.550,-6.125,-5.355,0.01,0.0184,0.0254,0.0200,0.0087,2025-06-09T13:54:21.343886
473,-0.5197,0.6407,0.5846,-4.550,-7.315,-5.810,0.00,0.0368,0.0254,0.0100,0.0087,2025-06-09T13:54:21.343886
474,-0.5095,0.6427,0.5851,-4.445,-7.210,-6.510,0.00,0.0000,0.0508,0.0100,0.0087,2025-06-09T13:54:21.343886
475,-0.5109,0.6412,0.5856,-4.375,-6.440,-6.860,0.00,0.0184,0.0254,0.0200,0.0087,2025-06-09T13:54:21.343886
476,-0.5153,0.6451,0.5924,-4.200,-6.020,-6.825,0.00,0.0368,0.0254,0.0200,0.0087,2025-06-09T13:54:21.343886
477,-0.5222,0.6461,0.5910,-4.095,-6.020,-6.720,0.00,0.0368,0.0254,0.0200,0.0087,2025-06-09T13:54:21.343886
478,-0.5261,0.6451,0.5812,-4.025,-6.615,-6.580,0.00,0.0184,0.0254,0.0100,0.0087,2025-06-09T13:54:21.343886
479,-0.5246,0.6481,0.5797,-3.920,-7.315,-6.580,0.00,0.0368,0.0508,0.0100,0.0087,2025-06-09T13:54:21.444595
480,-0.5285,0.6471,0.5817,-3.885,-8.260,-6.545,0.00,0.0368,0.0254,0.0100,0.0174,2025-06-09T13:54:21.444595
481,-0.5202,0.6466,0.5880,-3.675,-8.330,-6.580,0.00,0.0184,0.0254,0.0100,0.0174,2025-06-09T13:54:21.444595
482,-0.5134,0.6471,0.5885,-3.640,-7.420,-6.370,0.00,0.0368,0.0508,0.0100,0.0087,2025-06-09T13:54:21.444595
483,-0.5236,0.6476,0.5910,-3.395,-7.245,-6.020,0.00,0.0368,0.0508,0.0100,0.0087,2025-06-09T13:54:21.444595
484,-0.5261,0.6451,0.5954,-3.185,-7.350,-5.530,0.00,0.0184,0.0254,0.0100,0.0087,2025-06-09T13:54:21.444595
485,-0.5256,0.6471,0.5963,-3.080,-7.840,-4.830,0.00,0.0368,0.0254,0.0200,0.0087,2025-06-09T13:54:21.444595
486,-0.5226,0.6495,0.5939,-2.800,-8.365,-3.920,0.01,0.0184,0.0508,0.0200,0.0174,2025-06-09T13:54:21.497451
487,-0.5163,0.6466,0.5885,-2.660,-8.365,-3.080,0.00,0.0184,0.0508,0.0100,0.0087,2025-06-09T13:54:21.497451
488,-0.5119,0.6466,0.5876,-2.450,-7.980,-2.380,0.01,0.0368,0.0254,0.0200,0.0087,2025-06-09T13:54:21.497451
489,-0.4992,0.6466,0.5919,-2.345,-6.650,-1.575,0.00,0.0184,0.0508,0.0200,0.0087,2025-06-09T13:54:21.497451
490,-0.5031,0.6461,0.5934,-2.205,-5.250,-1.190,0.00,0.0184,0.0254,0.0100,0.0087,2025-06-09T13:54:21.655032
491,-0.5104,0.6432,0.5895,-2.135,-5.355,-0.840,0.00,0.0368,0.0508,0.0100,0.0087,2025-06-09T13:54:21.655032
492,-0.5095,0.6373,0.5832,-1.575,-6.545,-0.175,0.00,0.0184,0.0254,0.0100,0.0087,2025-06-09T13:54:21.655032
493,-0.5031,0.6383,0.5880,-1.575,-6.720,0.245,0.01,0.0368,0.0254,0.0200,0.0087,2025-06-09T13:54:21.655032
494,-0.4958,0.6383,0.5817,-1.575,-6.125,0.140,0.00,0.0368,0.0254,0.0200,0.0087,2025-06-09T13:54:21.655032
495,-0.4963,0.6359,0.5797,-1.715,-5.250,0.070,0.01,0.0184,0.0254,0.0200,0.0174,2025-06-09T13:54:21.655032
496,-0.5056,0.6334,0.5851,-1.435,-5.180,0.105,0.01,0.0184,0.0508,0.0100,0.0087,2025-06-09T13:54:21.655032
497,-0.5065,0.6300,0.5807,-1.085,-5.845,0.490,0.01,0.0184,0.0508,0.0100,0.0087,2025-06-09T13:54:21.655032
498,-0.5070,0.6285,0.5802,-0.805,-6.370,0.630,0.00,0.0368,0.0508,0.0200,0.0174,2025-06-09T13:54:21.655032
499,-0.4929,0.6276,0.5846,-0.490,-5.810,0.770,0.00,0.0184,0.0254,0.0100,0.0087,2025-06-09T13:54:21.655032
500,-0.4904,0.6300,0.5832,-0.700,-3.780,0.945,0.01,0.0184,0.0508,0.0100,0.0174,2025-06-09T13:54:21.655032
501,-0.4929,0.6305,0.5778,-0.875,-2.030,0.770,0.01,0.0368,0.0508,0.0200,0.0087,2025-06-09T13:54:21.802638
502,-0.4997,0.6315,0.5783,-1.050,-0.630,0.630,0.00,0.0368,0.0254,0.0100,0.0174,2025-06-09T13:54:21.802638
503,-0.5085,0.6364,0.5851,-1.330,-0.595,0.490,0.00,0.0368,0.0508,0.0200,0.0087,2025-06-09T13:54:21.802638
504,-0.5153,0.6324,0.5856,-1.645,-1.715,0.490,0.00,0.0368,0.0254,0.0100,0.0087,2025-06-09T13:54:21.802638
505,-0.5100,0.6315,0.5822,-1.925,-3.010,0.385,0.00,0.0368,0.0508,0.0200,0.0087,2025-06-09T13:54:21.802638
506,-0.5017,0.6310,0.5880,-2.275,-2.835,0.245,0.01,0.0368,0.0254,0.0200,0.0087,2025-06-09T13:54:21.802638
507,-0.5041,0.6271,0.5929,-2.905,-1.890,-0.140,0.00,0.0368,0.0254,0.0100,0.0087,2025-06-09T13:54:21.802638
508,-0.5061,0.6305,0.6002,-3.080,-1.540,-0.315,0.00,0.0368,0.0508,0.0100,0.0087,2025-06-09T13:54:21.802638
509,-0.5163,0.6271,0.6076,-3.220,-2.100,-0.490,0.00,0.0184,0.0508,0.0200,0.0087,2025-06-09T13:54:21.874445
510,-0.5231,0.6232,0.6085,-3.185,-4.130,-0.420,0.00,0.0184,0.0254,0.0200,0.0087,2025-06-09T13:54:21.874445
511,-0.5246,0.6183,0.6061,-3.010,-6.370,-0.210,0.01,0.0184,0.0762,0.0100,0.0087,2025-06-09T13:54:21.874445
512,-0.5119,0.6242,0.6041,-2.520,-7.980,-0.070,0.00,0.0184,0.0508,0.0200,0.0174,2025-06-09T13:54:21.874445
513,-0.5095,0.6217,0.6124,-2.100,-8.260,-0.105,0.01,0.0184,0.0508,0.0100,0.0087,2025-06-09T13:54:21.874445
514,-0.4982,0.6212,0.6159,-1.785,-7.770,-0.595,0.00,0.0184,0.0254,0.0100,0.0174,2025-06-09T13:54:21.874445
515,-0.4909,0.6188,0.6149,-1.120,-5.880,-0.840,0.00,0.0184,0.0254,0.0200,0.0087,2025-06-09T13:54:21.874445
516,-0.4939,0.6183,0.6129,-0.735,-3.780,-0.980,0.01,0.0184,0.0508,0.0100,0.0087,2025-06-09T13:54:21.874445
517,-0.5065,0.6188,0.6129,-0.175,-2.170,-1.155,0.01,0.0184,0.0508,0.0200,0.0087,2025-06-09T13:54:21.874445
518,-0.5178,0.6202,0.6105,0.455,-2.380,-1.015,0.00,0.0368,0.0508,0.0100,0.0087,2025-06-09T13:54:22.070921
519,-0.5226,0.6232,0.6076,0.840,-3.325,-0.490,0.01,0.0368,0.0254,0.0200,0.0087,2025-06-09T13:54:22.070921
520,-0.5222,0.6261,0.6046,0.700,-4.620,-0.105,0.00,0.0184,0.0254,0.0200,0.0174,2025-06-09T13:54:22.070921
521,-0.5139,0.6266,0.6012,0.700,-5.075,0.525,0.00,0.0368,0.0508,0.0200,0.0174,2025-06-09T13:54:22.070921
522,-0.5090,0.6300,0.6051,0.455,-4.690,0.770,0.00,0.0184,0.0254,0.0200,0.0087,2025-06-09T13:54:22.070921
523,-0.5061,0.6271,0.6037,0.525,-4.305,0.910,0.00,0.0184,0.0254,0.0100,0.0087,2025-06-09T13:54:22.070921
524,-0.5031,0.6290,0.6041,0.315,-4.410,0.910,0.01,0.0184,0.0508,0.0100,0.0087,2025-06-09T13:54:22.070921
525,-0.5085,0.6266,0.5978,0.105,-4.725,0.840,0.00,0.0184,0.0254,0.0100,0.0087,2025-06-09T13:54:22.070921
526,-0.5002,0.6300,0.5968,-0.070,-5.075,0.735,0.00,0.0184,0.0254,0.0100,0.0087,2025-06-09T13:54:22.070921
527,-0.4939,0.6285,0.5983,-0.490,-4.900,0.350,0.00,0.0184,0.0254,0.0100,0.0087,2025-06-09T13:54:22.070921
528,-0.4885,0.6315,0.5929,-0.700,-4.270,0.140,0.00,0.0184,0.0254,0.0100,0.0087,2025-06-09T13:54:22.070921
529,-0.4924,0.6320,0.5924,-1.260,-3.710,-0.490,0.00,0.0184,0.0508,0.0100,0.0087,2025-06-09T13:54:22.070921
530,-0.5002,0.6315,0.5968,-1.540,-3.745,-0.910,0.00,0.0184,0.0508,0.0200,0.0087,2025-06-09T13:54:22.070921
531,-0.5007,0.6295,0.5924,-2.205,-4.375,-1.225,0.01,0.0368,0.0254,0.0100,0.0087,2025-06-09T13:54:22.070921
532,-0.4987,0.6300,0.5910,-2.275,-4.900,-1.750,0.00,0.0184,0.0508,0.0200,0.0087,2025-06-09T13:54:22.159679
533,-0.4953,0.6281,0.6007,-2.485,-4.585,-2.065,0.01,0.0184,0.0508,0.0200,0.0087,2025-06-09T13:54:22.159679
534,-0.5012,0.6256,0.6046,-2.485,-4.270,-1.890,0.00,0.0184,0.0254,0.0100,0.0174,2025-06-09T13:54:22.159679
535,-0.5090,0.6266,0.6032,-2.555,-4.235,-1.750,0.01,0.0184,0.0254,0.0100,0.0087,2025-06-09T13:54:22.159679
536,-0.5124,0.6237,0.6076,-2.555,-4.235,-1.750,0.01,0.0184,0.0508,0.0100,0.0087,2025-06-09T13:54:22.159679
537,-0.5085,0.6256,0.6085,-1.960,-4.550,-1.190,0.00,0.0368,0.0508,0.0100,0.0087,2025-06-09T13:54:22.159679
538,-0.5104,0.6242,0.6027,-2.240,-4.690,-0.420,0.00,0.0184,0.0508,0.0100,0.0087,2025-06-09T13:54:22.159679
539,-0.5109,0.6242,0.6022,-1.995,-4.550,8.925,0.00,0.0184,0.0254,0.0200,0.0087,2025-06-09T13:54:22.159679
540,-0.5022,0.6261,0.6066,-1.785,-3.640,0.245,0.00,0.0368,0.0254,0.0200,0.0174,2025-06-09T13:54:22.209545
541,-0.5056,0.6276,0.6100,-1.750,-3.220,0.560,0.00,0.0368,0.0508,0.0200,0.0087,2025-06-09T13:54:22.209545
542,-0.5065,0.6232,0.6032,-1.435,-3.535,0.875,0.01,0.0368,0.0508,0.0200,0.0000,2025-06-09T13:54:22.209545
543,-0.5090,0.6261,0.6017,-1.120,-3.780,1.015,0.01,0.0368,0.0508,0.0100,0.0087,2025-06-09T13:54:22.209545
544,-0.5036,0.6242,0.6080,-0.805,-3.675,0.840,0.01,0.0184,0.0508,0.0200,0.0087,2025-06-09T13:54:22.263401
545,-0.5031,0.6227,0.6056,-0.735,-3.325,0.735,0.00,0.0368,0.0508,0.0100,0.0174,2025-06-09T13:54:22.263401
546,-0.5090,0.6232,0.6076,-0.700,-3.290,0.735,0.00,0.0184,0.0254,0.0200,0.0174,2025-06-09T13:54:22.263401
547,-0.5148,0.6251,0.6085,-0.595,-3.500,0.980,0.00,0.0368,0.0254,0.0100,0.0087,2025-06-09T13:54:22.372116
548,-0.5153,0.6227,0.6120,-0.700,-4.060,1.295,0.00,0.0184,0.0254,0.0200,0.0087,2025-06-09T13:54:22.372116
549,-0.5119,0.6251,0.6168,-0.350,-4.690,1.680,0.01,0.0368,0.0508,0.0200,0.0087,2025-06-09T13:54:22.372116
550,-0.5090,0.6256,0.6139,-0.315,-5.145,2.065,0.00,0.0368,0.0254,0.0200,0.0174,2025-06-09T13:54:22.372116
551,-0.5109,0.6256,0.6120,-0.315,-5.530,2.275,0.01,0.0184,0.0508,0.0200,0.0174,2025-06-09T13:54:22.372116
552,-0.5036,0.6281,0.6124,-0.245,-5.635,2.380,0.00,0.0368,0.0254,0.0100,0.0087,2025-06-09T13:54:22.372116
553,-0.4992,0.6222,0.6168,-0.210,-5.215,2.380,0.00,0.0184,0.0508,0.0100,0.0087,2025-06-09T13:54:22.372116
554,-0.5007,0.6222,0.6163,0.210,-4.655,2.345,0.00,0.0368,0.0254,0.0200,0.0000,2025-06-09T13:54:22.372116
555,-0.5026,0.6251,0.6163,0.420,-4.795,2.170,0.00,0.0368,0.0254,0.0200,0.0087,2025-06-09T13:54:22.479848
556,-0.5061,0.6261,0.6134,0.770,-5.355,1.820,0.00,0.0000,0.0508,0.0200,0.0087,2025-06-09T13:54:22.479848
557,-0.5051,0.6242,0.6159,0.770,-6.020,1.610,0.00,0.0368,0.0508,0.0200,0.0087,2025-06-09T13:54:22.479848
558,-0.5051,0.6232,0.6212,1.120,-6.755,1.575,0.01,0.0184,0.0508,0.0200,0.0174,2025-06-09T13:54:22.479848
559,-0.5090,0.6246,0.6139,1.400,-7.560,1.785,0.00,0.0184,0.0508,0.0100,0.0174,2025-06-09T13:54:22.479848
560,-0.5075,0.6256,0.6124,2.065,-7.665,1.785,0.00,0.0368,0.0254,0.0100,0.0087,2025-06-09T13:54:22.479848
561,-0.5017,0.6281,0.6159,2.415,-7.595,2.310,0.01,0.0184,0.0508,0.0200,0.0087,2025-06-09T13:54:22.479848
562,-0.5036,0.6276,0.6159,3.745,-7.070,2.905,0.00,0.0184,0.0254,0.0100,0.0087,2025-06-09T13:54:22.479848
563,-0.5085,0.6388,0.6159,4.305,-6.335,3.045,0.00,0.0184,0.0508,0.0200,0.0174,2025-06-09T13:54:22.479848
564,-0.5090,0.6510,0.6129,5.250,-5.985,3.605,0.00,0.0552,0.0508,0.0200,0.0087,2025-06-09T13:54:22.672310
565,-0.5207,0.6627,0.6232,6.720,-7.000,4.235,0.01,0.0368,0.0508,0.0200,0.0174,2025-06-09T13:54:22.672310
566,-0.5358,0.6647,0.6393,9.030,-7.840,5.110,0.00,0.0184,0.0508,0.0100,0.0174,2025-06-09T13:54:22.672310
567,-0.5612,0.6725,0.6476,10.990,-9.100,6.230,0.00,0.0368,0.0254,0.0100,0.0087,2025-06-09T13:54:22.672310
568,-0.5793,0.6710,0.6773,14.525,-10.080,7.595,0.01,0.0184,0.0254,0.0100,0.0087,2025-06-09T13:54:22.672310
569,-0.5929,0.6690,0.7159,17.885,-9.940,9.625,0.00,0.0184,0.0254,0.0200,0.0087,2025-06-09T13:54:22.672310
570,-0.6139,0.6564,0.7320,22.505,-10.010,11.900,0.00,0.0184,0.0254,0.0100,0.0087,2025-06-09T13:54:22.672310
571,-0.6432,0.6442,0.7379,27.055,-11.060,15.050,0.01,0.0184,0.0254,0.0200,0.0087,2025-06-09T13:54:22.672310
572,-0.6427,0.6134,0.7457,34.825,-11.165,17.850,0.00,0.0368,0.0508,0.0100,0.0087,2025-06-09T13:54:22.672310
573,-0.6627,0.6037,0.7584,40.740,-11.095,20.720,0.00,0.0184,0.0254,0.0200,0.0174,2025-06-09T13:54:22.672310
574,-0.6832,0.5934,0.7671,49.175,-12.915,23.030,0.00,0.0184,0.0254,0.0100,0.0087,2025-06-09T13:54:22.672310
575,-0.7013,0.5710,0.7530,55.825,-18.305,24.640,0.01,0.0368,0.0254,0.0100,0.0087,2025-06-09T13:54:22.672310
576,-0.6734,0.5705,0.7383,71.155,-26.005,25.270,0.00,0.0184,0.0254,0.0100,0.0174,2025-06-09T13:54:22.672310
577,-0.6612,0.5851,0.7379,66.675,-30.205,24.500,0.00,0.0368,0.0254,0.0200,0.0087,2025-06-09T13:54:22.672310
578,-0.6085,0.5841,0.7071,69.650,-34.300,22.645,0.01,0.0368,0.0508,0.0100,0.0087,2025-06-09T13:54:22.746126
579,-0.5822,0.5651,0.6568,71.435,-38.710,21.805,0.00,0.0184,0.0254,0.0200,0.0087,2025-06-09T13:54:22.746126
580,-0.5671,0.5656,0.6281,72.450,-45.325,20.755,0.00,0.0368,0.0254,0.0200,0.0087,2025-06-09T13:54:22.746126
581,-0.5383,0.5739,0.6178,72.275,-49.805,19.320,0.00,0.0184,0.0254,0.0100,0.0174,2025-06-09T13:54:22.746126
582,-0.5002,0.5968,0.5885,72.520,-54.530,16.975,0.00,0.0368,0.0508,0.0100,0.0087,2025-06-09T13:54:22.877760
583,-0.4743,0.5968,0.5324,68.355,-55.510,15.260,0.00,0.0368,0.0508,0.0200,0.0087,2025-06-09T13:54:22.877760
584,-0.4387,0.6061,0.5109,67.165,-57.120,12.915,0.00,0.0368,0.0254,0.0200,0.0087,2025-06-09T13:54:22.877760
585,-0.4158,0.6334,0.4807,64.715,-58.030,10.990,0.01,0.0368,0.0254,0.0100,0.0087,2025-06-09T13:54:22.877760
586,-0.4041,0.6466,0.4387,61.495,-58.625,8.995,0.01,0.0184,0.0508,0.0200,0.0087,2025-06-09T13:54:22.877760
587,-0.3963,0.6476,0.4119,57.995,-60.165,7.245,0.01,0.0368,0.0508,0.0200,0.0174,2025-06-09T13:54:22.877760
588,-0.3831,0.6803,0.3841,56.105,-62.440,5.740,0.00,0.0184,0.0254,0.0100,0.0087,2025-06-09T13:54:22.877760
589,-0.3440,0.6964,0.3675,53.620,-62.895,3.745,0.01,0.0184,0.0508,0.0200,0.0087,2025-06-09T13:54:22.877760
590,-0.3270,0.7193,0.3343,50.260,-62.020,1.960,0.00,0.0184,0.0254,0.0200,0.0087,2025-06-09T13:54:22.877760
591,-0.3045,0.7413,0.3138,47.670,-61.880,-0.805,0.00,0.0368,0.0254,0.0100,0.0087,2025-06-09T13:54:22.877760
592,-0.2713,0.7535,0.2801,44.800,-62.475,-2.310,0.00,0.0184,0.0254,0.0100,0.0087,2025-06-09T13:54:22.877760
593,-0.2401,0.7876,0.2694,41.720,-61.425,-4.515,0.01,0.0368,0.0508,0.0100,0.0174,2025-06-09T13:54:22.929619
594,-0.2133,0.8120,0.2733,38.675,-58.030,-6.580,0.00,0.0184,0.0508,0.0100,0.0174,2025-06-09T13:54:22.929619
595,-0.1820,0.8379,0.2777,34.685,-52.745,-8.785,0.01,0.0184,0.0508,0.0100,0.0174,2025-06-09T13:54:22.929619
596,-0.1498,0.8613,0.2655,31.185,-46.340,-9.520,0.00,0.0184,0.0254,0.0200,0.0087,2025-06-09T13:54:22.929619
597,-0.1532,0.8745,0.2567,28.245,-41.965,-9.555,0.01,0.0368,0.0508,0.0200,0.0087,2025-06-09T13:54:23.078247
598,-0.1474,0.8960,0.2582,25.235,-36.785,-9.800,0.01,0.0184,0.0508,0.0100,0.0174,2025-06-09T13:54:23.078247
599,-0.1405,0.9160,0.2777,22.085,-32.130,-9.730,0.01,0.0368,0.0254,0.0200,0.0087,2025-06-09T13:54:23.078247
600,-0.1298,0.9335,0.2889,19.705,-26.635,-9.380,0.01,0.0368,0.0254,0.0100,0.0087,2025-06-09T13:54:23.078247
601,-0.1303,0.9409,0.2835,16.625,-22.820,-8.505,0.00,0.0184,0.0254,0.0100,0.0087,2025-06-09T13:54:23.078247
602,-0.1410,0.9487,0.3118,15.540,-19.425,-7.420,0.00,0.0184,0.0254,0.0000,0.0087,2025-06-09T13:54:23.078247
603,-0.1464,0.9492,0.3167,13.300,-15.750,-6.055,0.00,0.0184,0.0254,0.0100,0.0174,2025-06-09T13:54:23.078247
604,-0.1537,0.9501,0.3323,11.970,-12.880,-4.970,0.00,0.0184,0.0254,0.0100,0.0087,2025-06-09T13:54:23.078247
605,-0.1684,0.9477,0.3484,10.395,-10.045,-3.675,0.01,0.0184,0.0508,0.0100,0.0087,2025-06-09T13:54:23.078247
606,-0.1645,0.9335,0.3328,8.680,-8.050,-2.380,0.01,0.0184,0.0254,0.0100,0.0174,2025-06-09T13:54:23.078247
607,-0.1786,0.9243,0.3523,7.910,-5.040,-1.610,0.01,0.0184,0.0254,0.0200,0.0174,2025-06-09T13:54:23.078247
608,-0.1728,0.9223,0.3548,6.790,0.280,-1.470,0.00,0.0184,0.0254,0.0100,0.0174,2025-06-09T13:54:23.138063
609,-0.1991,0.9170,0.3689,5.635,4.060,-1.295,0.00,0.0184,0.0254,0.0200,0.0174,2025-06-09T13:54:23.139061
610,-0.2255,0.9145,0.3816,4.865,6.090,-1.365,0.01,0.0184,0.0508,0.0200,0.0087,2025-06-09T13:54:23.139061
611,-0.2499,0.9057,0.3860,3.535,5.985,-1.505,0.01,0.0184,0.0508,0.0100,0.0174,2025-06-09T13:54:23.139061
612,-0.2723,0.9048,0.3806,2.205,4.585,-1.540,0.01,0.0184,0.0508,0.0100,0.0087,2025-06-09T13:54:23.288661
613,-0.2826,0.8974,0.3748,0.945,3.115,-1.435,0.00,0.0368,0.0254,0.0100,0.0087,2025-06-09T13:54:23.288661
614,-0.2801,0.8926,0.3831,0.280,3.325,-1.610,0.01,0.0184,0.0508,0.0200,0.0087,2025-06-09T13:54:23.288661
615,-0.2811,0.8857,0.3831,-0.805,5.390,-2.100,0.00,0.0368,0.0508,0.0200,0.0087,2025-06-09T13:54:23.288661
616,-0.2962,0.8808,0.3928,-1.330,8.190,-2.485,0.00,0.0184,0.0508,0.0200,0.0087,2025-06-09T13:54:23.288661
617,-0.3070,0.8784,0.4041,-1.645,10.570,-3.080,0.00,0.0184,0.0254,0.0100,0.0174,2025-06-09T13:54:23.288661
618,-0.3284,0.8745,0.4055,-2.135,10.535,-3.430,0.00,0.0184,0.0508,0.0100,0.0087,2025-06-09T13:54:23.288661
619,-0.3338,0.8750,0.4016,-2.835,9.975,-3.745,0.00,0.0184,0.0254,0.0100,0.0087,2025-06-09T13:54:23.288661
620,-0.3367,0.8657,0.3880,-3.955,9.170,-3.570,0.00,0.0368,0.0254,0.0200,0.0087,2025-06-09T13:54:23.288661
621,-0.3528,0.8574,0.3797,-4.795,7.840,-3.360,0.00,0.0184,0.0254,0.0100,0.0174,2025-06-09T13:54:23.288661
622,-0.3489,0.8599,0.3948,-5.460,6.370,-3.185,0.00,0.0184,0.0508,0.0200,0.0087,2025-06-09T13:54:23.288661
623,-0.3445,0.8550,0.4075,-5.845,6.195,-3.150,0.01,0.0368,0.0254,0.0200,0.0174,2025-06-09T13:54:23.412356
624,-0.3406,0.8525,0.4036,-6.195,5.320,-2.590,0.00,0.0184,0.0254,0.0100,0.0174,2025-06-09T13:54:23.412356
625,-0.3436,0.8506,0.3938,-6.020,3.570,-2.520,0.00,0.0368,0.0508,0.0100,0.0087,2025-06-09T13:54:23.412356
626,-0.3221,0.8467,0.3904,-6.300,2.380,-2.590,0.01,0.0184,0.0508,0.0100,0.0174,2025-06-09T13:54:23.412356
627,-0.2948,0.8467,0.3821,-6.615,3.045,-2.590,0.00,0.0368,0.0254,0.0200,0.0087,2025-06-09T13:54:23.412356
628,-0.2865,0.8403,0.3660,-7.070,4.445,-3.290,0.00,0.0368,0.0508,0.0100,0.0087,2025-06-09T13:54:23.412356
629,-0.2684,0.8364,0.3518,-7.945,6.405,-4.445,0.00,0.0184,0.0508,0.0100,0.0087,2025-06-09T13:54:23.412356
630,-0.2430,0.8320,0.3411,-9.135,8.925,-5.985,0.00,0.0184,0.0254,0.0100,0.0174,2025-06-09T13:54:23.412356
631,-0.2186,0.8237,0.3201,-10.745,11.795,-8.225,0.00,0.0368,0.0508,0.0200,0.0174,2025-06-09T13:54:23.531033
632,-0.1962,0.8076,0.2899,-12.845,13.545,-10.570,0.01,0.0368,0.0508,0.0200,0.0174,2025-06-09T13:54:23.531033
633,-0.1527,0.7915,0.2640,-15.470,16.275,-13.545,0.01,0.0368,0.0254,0.0100,0.0087,2025-06-09T13:54:23.531033
634,-0.1122,0.7818,0.2230,-19.775,19.530,-16.695,0.01,0.0184,0.0254,0.0100,0.0087,2025-06-09T13:54:23.531033
635,-0.0825,0.7686,0.1962,-22.820,23.485,-20.615,0.00,0.0184,0.0254,0.0100,0.0174,2025-06-09T13:54:23.531033
636,-0.0527,0.7784,0.1854,-27.230,30.310,-25.095,0.00,0.0184,0.0508,0.0100,0.0174,2025-06-09T13:54:23.531033
637,-0.0293,0.7940,0.1737,-30.520,37.905,-30.870,0.00,0.0368,0.0254,0.0100,0.0087,2025-06-09T13:54:23.531033
638,-0.0346,0.8115,0.1596,-33.810,48.755,-36.085,0.01,0.0184,0.0508,0.0100,0.0174,2025-06-09T13:54:23.531033
639,-0.0639,0.8457,0.1513,-36.855,57.330,-41.580,0.01,0.0368,0.0508,0.0100,0.0087,2025-06-09T13:54:23.531033
640,-0.1396,0.8706,0.1884,-40.495,64.260,-47.880,0.00,0.0368,0.0508,0.0100,0.0087,2025-06-09T13:54:23.531033
641,-0.2133,0.8847,0.2567,-43.085,66.465,-52.325,0.01,0.0184,0.0508,0.0200,0.0087,2025-06-09T13:54:23.728603
642,-0.3192,0.8872,0.3167,-45.325,64.050,-55.265,0.00,0.0184,0.0508,0.0200,0.0087,2025-06-09T13:54:23.728603
643,-0.4026,0.8857,0.3719,-46.410,59.115,-55.160,0.01,0.0184,0.0254,0.0100,0.0087,2025-06-09T13:54:23.728603
644,-0.4255,0.8891,0.4138,-47.250,55.650,-52.815,0.00,0.0368,0.0254,0.0200,0.0087,2025-06-09T13:54:23.728603
645,-0.4407,0.8955,0.4480,-47.985,57.925,-49.070,0.01,0.0184,0.0508,0.0100,0.0174,2025-06-09T13:54:23.728603
646,-0.4470,0.9116,0.4465,-49.910,67.095,-45.570,0.00,0.0184,0.0000,0.0100,0.0087,2025-06-09T13:54:23.728603
647,-0.4690,0.9218,0.4563,-51.520,77.070,-41.930,0.00,0.0184,0.0254,0.0100,0.0174,2025-06-09T13:54:23.728603
648,-0.5270,0.9384,0.4465,-54.110,85.435,-37.065,0.00,0.0368,0.0254,0.0200,0.0087,2025-06-09T13:54:23.728603
649,-0.6100,0.9482,0.4377,-56.280,84.385,-32.270,0.00,0.0184,0.0254,0.0100,0.0000,2025-06-09T13:54:23.728603
650,-0.6895,0.9472,0.4353,-58.625,77.210,-26.145,0.00,0.0368,0.0254,0.0100,0.0087,2025-06-09T13:54:23.728603
651,-0.7154,0.9296,0.4329,-61.530,65.310,-20.860,0.00,0.0184,0.0254,0.0200,0.0087,2025-06-09T13:54:23.877188
652,-0.7188,0.9033,0.4265,-64.400,57.120,-14.245,0.00,0.0184,0.0254,0.0100,0.0174,2025-06-09T13:54:23.877188
653,-0.7056,0.8608,0.4099,-67.375,52.570,-8.295,0.00,0.0368,0.0508,0.0100,0.0087,2025-06-09T13:54:23.877188
654,-0.7139,0.8174,0.3992,-69.195,51.415,-2.170,0.00,0.0184,0.0508,0.0200,0.0174,2025-06-09T13:54:23.877188
655,-0.7530,0.7867,0.3992,-71.155,50.540,4.830,0.00,0.0368,0.0508,0.0100,0.0087,2025-06-09T13:54:23.877188
656,-0.8096,0.7340,0.4031,-72.310,47.530,11.410,0.01,0.0368,0.0254,0.0200,0.0087,2025-06-09T13:54:23.897128
657,-0.8379,0.6900,0.4050,-72.345,40.950,16.590,0.01,0.0184,0.0254,0.0100,0.0174,2025-06-09T13:54:23.897128
658,-0.8408,0.6364,0.4041,-71.750,35.595,21.315,0.00,0.0184,0.0254,0.0200,0.0087,2025-06-09T13:54:23.897128
659,-0.8272,0.5949,0.4041,-70.420,30.485,25.760,0.00,0.0184,0.0254,0.0100,0.0174,2025-06-09T13:54:23.897128
660,-0.8106,0.5553,0.4065,-68.495,28.455,27.650,0.00,0.0368,0.0508,0.0200,0.0087,2025-06-09T13:54:23.897128
661,-0.7901,0.5217,0.4006,-66.885,28.105,27.790,0.00,0.0368,0.0254,0.0100,0.0087,2025-06-09T13:54:23.897128
662,-0.7886,0.4953,0.4114,-63.665,28.490,26.425,0.00,0.0184,0.0508,0.0100,0.0174,2025-06-09T13:54:23.897128
663,-0.7813,0.4656,0.4236,-60.550,28.000,24.255,0.00,0.0184,0.0254,0.0100,0.0087,2025-06-09T13:54:23.897128
664,-0.7647,0.4431,0.4221,-55.475,27.125,22.540,0.01,0.0184,0.0254,0.0100,0.0087,2025-06-09T13:54:23.897128
665,-0.7530,0.4265,0.4231,-50.750,26.740,20.510,0.00,0.0184,0.0254,0.0100,0.0087,2025-06-09T13:54:23.897128
666,-0.7408,0.4241,0.4324,-44.940,27.615,18.480,0.00,0.0184,0.0254,0.0100,0.0174,2025-06-09T13:54:23.897128
667,-0.7364,0.4236,0.4499,-40.320,28.315,16.345,0.01,0.0184,0.0254,0.0100,0.0087,2025-06-09T13:54:23.897128
668,-0.7442,0.4304,0.4592,-34.860,27.475,14.700,0.00,0.0368,0.0508,0.0200,0.0087,2025-06-09T13:54:23.952980
669,-0.7637,0.4250,0.4680,-30.590,24.990,12.250,0.00,0.0184,0.0508,0.0100,0.0174,2025-06-09T13:54:23.952980
670,-0.7706,0.4353,0.4865,-25.410,21.455,9.555,0.01,0.0184,0.0508,0.0100,0.0087,2025-06-09T13:54:23.952980
671,-0.7662,0.4338,0.4895,-21.595,19.250,5.915,0.00,0.0184,0.0508,0.0100,0.0174,2025-06-09T13:54:23.952980
672,-0.7559,0.4319,0.4963,-17.360,17.360,3.045,0.01,0.0368,0.0508,0.0200,0.0087,2025-06-09T13:54:24.107501
673,-0.7608,0.4338,0.4997,-14.490,15.680,-0.035,0.00,0.0184,0.0508,0.0100,0.0087,2025-06-09T13:54:24.107501
674,-0.7584,0.4416,0.5104,-10.990,13.440,-2.310,0.01,0.0184,0.0508,0.0100,0.0174,2025-06-09T13:54:24.107501
675,-0.7603,0.4382,0.5261,-8.260,10.640,-3.990,0.01,0.0184,0.0254,0.0100,0.0087,2025-06-09T13:54:24.107501
676,-0.7613,0.4460,0.5466,-5.460,7.245,-5.390,0.00,0.0368,0.0508,0.0200,0.0087,2025-06-09T13:54:24.107501
677,-0.7515,0.4582,0.5573,-2.975,5.775,-6.755,0.01,0.0368,0.0254,0.0100,0.0087,2025-06-09T13:54:24.107501
678,-0.7364,0.4748,0.5563,-1.960,5.390,-8.435,0.00,0.0184,0.0508,0.0100,0.0087,2025-06-09T13:54:24.107501
679,-0.7252,0.4895,0.5734,-1.680,5.180,-9.450,0.01,0.0368,0.0254,0.0100,0.0174,2025-06-09T13:54:24.107501
680,-0.7242,0.5065,0.5846,-1.995,3.745,-10.395,0.00,0.0184,0.0508,0.0100,0.0087,2025-06-09T13:54:24.107501
681,-0.7305,0.5202,0.5812,-2.380,-1.120,-11.375,0.01,0.0184,0.0254,0.0100,0.0087,2025-06-09T13:54:24.107501
682,-0.7159,0.5339,0.5773,-2.695,-5.880,-12.250,0.00,0.0184,0.0254,0.0100,0.0000,2025-06-09T13:54:24.107501
683,-0.6822,0.5534,0.5705,-3.570,-8.575,-13.335,0.00,0.0184,0.0508,0.0200,0.0087,2025-06-09T13:54:24.107501
684,-0.6505,0.5671,0.5558,-4.725,-9.800,-14.560,0.00,0.0184,0.0508,0.0200,0.0174,2025-06-09T13:54:24.208234
685,-0.6334,0.5758,0.5397,-6.195,-9.870,-15.680,0.01,0.0368,0.0254,0.0200,0.0087,2025-06-09T13:54:24.208234
686,-0.6051,0.5758,0.5388,-7.315,-10.430,-16.450,0.01,0.0184,0.0508,0.0200,0.0087,2025-06-09T13:54:24.208234
687,-0.5661,0.5851,0.5305,-8.260,-10.850,-16.310,0.00,0.0184,0.0254,0.0100,0.0087,2025-06-09T13:54:24.208234
688,-0.5178,0.5968,0.5109,-8.925,-9.730,-15.995,0.00,0.0184,0.0254,0.0100,0.0087,2025-06-09T13:54:24.208234
689,-0.4753,0.6188,0.5017,-9.275,-7.490,-15.715,0.00,0.0184,0.0254,0.0200,0.0087,2025-06-09T13:54:24.208234
690,-0.4221,0.6476,0.5056,-9.345,-4.550,-14.700,0.00,0.0368,0.0254,0.0100,0.0087,2025-06-09T13:54:24.208234
691,-0.4050,0.6647,0.5100,-10.080,-0.980,-13.405,0.01,0.0368,0.0508,0.0200,0.0087,2025-06-09T13:54:24.265088
692,-0.3914,0.6969,0.5236,-10.780,-0.280,-11.760,0.01,0.0368,0.0508,0.0200,0.0087,2025-06-09T13:54:24.265088
693,-0.3958,0.7178,0.5314,-13.020,-1.680,-9.660,0.00,0.0184,0.0508,0.0100,0.0087,2025-06-09T13:54:24.265088
694,-0.3880,0.7432,0.5392,-15.190,-4.025,-6.370,0.01,0.0368,0.0508,0.0200,0.0174,2025-06-09T13:54:24.265088
695,-0.3806,0.7666,0.5529,-26.495,-6.125,-3.255,0.00,0.0184,0.0254,0.0100,0.0174,2025-06-09T13:54:24.318963
696,-0.3748,0.8013,0.5729,-20.335,-7.280,-0.035,0.01,0.0368,0.0508,0.0200,0.0087,2025-06-09T13:54:24.318963
697,-0.3924,0.8247,0.5856,-22.995,-10.430,4.305,0.00,0.0184,0.0254,0.0100,0.0087,2025-06-09T13:54:24.318963
698,-0.4099,0.8447,0.5944,-24.360,-15.890,8.400,0.00,0.0368,0.0508,0.0100,0.0174,2025-06-09T13:54:24.318963
699,-0.4143,0.8789,0.6154,-25.515,-21.455,13.615,0.01,0.0184,0.0508,0.0200,0.0087,2025-06-09T13:54:24.318963
700,-0.4016,0.9116,0.6461,-26.775,-26.005,18.235,0.00,0.0184,0.0508,0.0100,0.0087,2025-06-09T13:54:24.367802
701,-0.3811,0.9370,0.6612,-28.245,-25.165,23.975,0.01,0.0368,0.0254,0.0200,0.0174,2025-06-09T13:54:24.367802
702,-0.3748,0.9482,0.6764,-30.520,-18.410,28.385,0.00,0.0184,0.0508,0.0100,0.0174,2025-06-09T13:54:24.367802
703,-0.4060,0.9555,0.6866,-32.410,-5.215,33.285,0.01,0.0368,0.0508,0.0100,0.0087,2025-06-09T13:54:24.517402
704,-0.4943,0.9301,0.6969,-34.685,3.920,37.310,0.00,0.0184,0.0254,0.0200,0.0087,2025-06-09T13:54:24.517402
705,-0.6281,0.8901,0.7061,-35.210,7.000,43.540,0.01,0.0184,0.0254,0.0200,0.0087,2025-06-09T13:54:24.517402
706,-0.7149,0.8467,0.7047,-34.090,5.285,49.490,0.01,0.0368,0.0254,0.0100,0.0174,2025-06-09T13:54:24.517402
707,-0.7662,0.8086,0.6964,-32.515,5.495,56.000,0.00,0.0184,0.0508,0.0200,0.0087,2025-06-09T13:54:24.517402
708,-0.7989,0.7847,0.6920,-31.430,10.045,60.340,0.00,0.0368,0.0254,0.0100,0.0087,2025-06-09T13:54:24.517402
709,-0.8398,0.7496,0.6534,-30.590,15.645,63.385,0.01,0.0184,0.0254,0.0100,0.0087,2025-06-09T13:54:24.517402
710,-0.8613,0.7320,0.6149,-30.870,22.575,64.295,0.00,0.0368,0.0508,0.0100,0.0087,2025-06-09T13:54:24.517402
711,-0.8667,0.7110,0.5739,-31.535,28.350,64.505,0.00,0.0184,0.0508,0.0100,0.0087,2025-06-09T13:54:24.517402
712,-0.9252,0.6954,0.5558,-32.235,33.320,63.455,0.00,0.0184,0.0254,0.0100,0.0087,2025-06-09T13:54:24.517402
713,-1.0053,0.6778,0.5529,-33.145,32.725,59.850,0.00,0.0184,0.0254,0.0200,0.0087,2025-06-09T13:54:24.517402
714,-1.1195,0.6598,0.5573,-34.090,24.920,53.270,0.01,0.0368,0.0508,0.0200,0.0174,2025-06-09T13:54:24.616163
715,-1.2010,0.6002,0.5578,-34.685,14.105,46.060,0.00,0.0368,0.0254,0.0200,0.0087,2025-06-09T13:54:24.616163
716,-1.1824,0.5207,0.5607,-35.455,2.205,38.150,0.00,0.0184,0.0508,0.0200,0.0174,2025-06-09T13:54:24.616163
717,-1.1112,0.4270,0.5549,-35.245,-2.485,33.530,0.00,0.0184,0.0508,0.0200,0.0087,2025-06-09T13:54:24.616163
718,-0.9692,0.3558,0.5212,-33.810,0.420,29.050,0.00,0.0184,0.0254,0.0200,0.0174,2025-06-09T13:54:24.616163
719,-0.8652,0.3309,0.4973,-33.950,13.720,22.645,0.01,0.0184,0.0254,0.0100,0.0087,2025-06-09T13:54:24.616163
720,-0.8120,0.3265,0.4753,-35.000,24.955,12.285,0.00,0.0000,0.0508,0.0100,0.0087,2025-06-09T13:54:24.616163
721,-0.8003,0.3348,0.4738,-37.240,30.730,2.450,0.01,0.0368,0.0254,0.0200,0.0087,2025-06-09T13:54:24.665007
722,-0.8091,0.3460,0.4768,-39.795,27.440,-8.085,0.00,0.0184,0.0254,0.0100,0.0174,2025-06-09T13:54:24.665007
723,-0.8091,0.3548,0.4768,-42.490,17.255,-21.315,0.01,0.0184,0.0254,0.0100,0.0174,2025-06-09T13:54:24.665007
724,-0.8111,0.3616,0.4943,-45.500,6.755,-31.955,0.00,0.0368,0.0254,0.0100,0.0174,2025-06-09T13:54:24.665007
725,-0.8140,0.3494,0.5061,-47.460,-5.985,-43.435,0.00,0.0184,0.0508,0.0100,0.0174,2025-06-09T13:54:24.818749
726,-0.8106,0.3167,0.5241,-49.945,-14.735,-51.590,0.00,0.0368,0.0254,0.0200,0.0087,2025-06-09T13:54:24.818749
727,-0.7886,0.2674,0.5451,-51.030,-20.685,-58.275,0.01,0.0184,0.0254,0.0200,0.0174,2025-06-09T13:54:24.818749
728,-0.7554,0.2328,0.5656,-50.330,-22.820,-61.600,0.01,0.0552,0.0508,0.0200,0.0087,2025-06-09T13:54:24.818749
729,-0.7300,0.1859,0.5817,-49.070,-21.630,-63.315,0.01,0.0368,0.0254,0.0200,0.0000,2025-06-09T13:54:24.818749
730,-0.7198,0.1562,0.6285,-46.340,-19.740,-63.140,0.00,0.0000,0.0254,0.0200,0.0087,2025-06-09T13:54:24.818749
731,-0.7105,0.1152,0.6617,-42.770,-19.705,-61.705,0.00,0.0184,0.0254,0.0200,0.0087,2025-06-09T13:54:24.818749
732,-0.6749,0.0815,0.6744,-38.430,-18.690,-59.150,0.00,0.0184,0.0508,0.0100,0.0087,2025-06-09T13:54:24.818749
733,-0.6212,0.0517,0.6817,-32.620,-15.365,-56.700,0.00,0.0184,0.0254,0.0100,0.0087,2025-06-09T13:54:24.819745
734,-0.5524,0.0332,0.6856,-27.265,-8.085,-53.865,0.00,0.0368,0.0508,0.0100,0.0087,2025-06-09T13:54:24.819745
735,-0.5056,0.0195,0.6749,-20.615,-0.420,-51.905,0.01,0.0184,0.0254,0.0100,0.0087,2025-06-09T13:54:24.819745
736,-0.4646,0.0151,0.6783,-14.700,7.875,-50.120,0.01,0.0368,0.0508,0.0200,0.0174,2025-06-09T13:54:24.936432
737,-0.4558,0.0181,0.6759,-7.385,16.170,-48.930,0.01,0.0368,0.0254,0.0200,0.0087,2025-06-09T13:54:24.936432
738,-0.4382,0.0478,0.6627,-1.855,21.595,-49.000,0.00,0.0368,0.0508,0.0200,0.0087,2025-06-09T13:54:24.936432
739,-0.4485,0.0956,0.6666,3.500,27.755,-50.645,0.00,0.0184,0.0254,0.0200,0.0174,2025-06-09T13:54:24.936432
740,-0.4343,0.1606,0.6398,6.685,31.605,-53.165,0.00,0.0184,0.0508,0.0200,0.0174,2025-06-09T13:54:24.936432
741,-0.4197,0.2294,0.6154,8.330,36.820,-55.720,0.00,0.0368,0.0508,0.0100,0.0174,2025-06-09T13:54:24.936432
742,-0.4016,0.3099,0.5968,8.890,41.755,-55.685,0.00,0.0368,0.0254,0.0100,0.0087,2025-06-09T13:54:24.936432
743,-0.4050,0.4065,0.5807,9.065,45.290,-52.675,0.00,0.0368,0.0254,0.0100,0.0087,2025-06-09T13:54:24.936432
744,-0.4397,0.4890,0.5573,8.925,45.150,-47.705,0.01,0.0184,0.0254,0.0100,0.0087,2025-06-09T13:54:25.024268
745,-0.4738,0.5719,0.5510,7.875,40.460,-38.675,0.00,0.0184,0.0508,0.0100,0.0087,2025-06-09T13:54:25.024268
746,-0.4919,0.6237,0.5549,6.720,30.660,-28.315,0.00,0.0368,0.0254,0.0200,0.0174,2025-06-09T13:54:25.024268
747,-0.5080,0.6359,0.5617,4.970,20.930,-15.785,0.01,0.0368,0.0508,0.0200,0.0174,2025-06-09T13:54:25.024268
748,-0.5168,0.6168,0.5636,3.815,7.875,1.470,0.01,0.0368,0.0508,0.0200,0.0087,2025-06-09T13:54:25.024268
749,-0.5241,0.5744,0.5266,3.920,-3.255,16.275,0.00,0.0184,0.0254,0.0100,0.0087,2025-06-09T13:54:25.024268
750,-0.5104,0.5134,0.4841,4.725,-13.930,33.040,0.00,0.0368,0.0254,0.0100,0.0087,2025-06-09T13:54:25.024268
751,-0.4904,0.4763,0.4329,6.055,-19.215,44.450,0.00,0.0368,0.0508,0.0200,0.0087,2025-06-09T13:54:25.024268
752,-0.4851,0.4455,0.3748,6.615,-22.400,54.425,0.00,0.0184,0.0254,0.0100,0.0087,2025-06-09T13:54:25.129985
753,-0.4963,0.4299,0.3274,6.580,-25.340,60.340,0.01,0.0368,0.0508,0.0200,0.0174,2025-06-09T13:54:25.129985
754,-0.5412,0.4094,0.3045,6.545,-30.660,66.045,0.01,0.0184,0.0508,0.0100,0.0087,2025-06-09T13:54:25.129985
755,-0.5846,0.3850,0.2752,7.700,-40.775,70.490,0.00,0.0368,0.0508,0.0200,0.0087,2025-06-09T13:54:25.129985
756,-0.6120,0.3728,0.2289,9.940,-49.595,74.690,0.01,0.0368,0.0508,0.0100,0.0087,2025-06-09T13:54:25.129985
757,-0.6227,0.3758,0.2176,14.175,-53.410,76.650,0.01,0.0184,0.0254,0.0200,0.0087,2025-06-09T13:54:25.129985
758,-0.6334,0.3709,0.2079,17.185,-49.280,77.315,0.00,0.0368,0.0508,0.0100,0.0087,2025-06-09T13:54:25.129985
759,-0.6676,0.3665,0.2108,20.230,-39.690,78.085,0.00,0.0184,0.0508,0.0200,0.0087,2025-06-09T13:54:25.181869
760,-0.7105,0.3523,0.2342,24.045,-30.870,78.785,0.00,0.0184,0.0508,0.0100,0.0174,2025-06-09T13:54:25.181869
761,-0.7784,0.3294,0.2469,27.335,-22.295,81.410,0.01,0.0368,0.0508,0.0200,0.0087,2025-06-09T13:54:25.181869
762,-0.8184,0.3157,0.2704,33.180,-17.885,85.260,0.00,0.0368,0.0254,0.0100,0.0174,2025-06-09T13:54:25.181869
763,-0.8462,0.3216,0.2991,38.640,-13.685,90.125,0.00,0.0184,0.0254,0.0200,0.0174,2025-06-09T13:54:25.329451
764,-0.8179,0.3260,0.3289,44.730,-7.910,91.665,0.01,0.0368,0.0254,0.0100,0.0087,2025-06-09T13:54:25.329451
765,-0.7457,0.3323,0.3470,49.875,3.815,91.455,0.01,0.0184,0.0508,0.0100,0.0087,2025-06-09T13:54:25.329451
766,-0.6676,0.3650,0.3845,57.470,20.440,89.180,0.00,0.0368,0.0508,0.0100,0.0087,2025-06-09T13:54:25.329451
767,-0.6061,0.4416,0.4280,62.475,43.855,81.865,0.00,0.0368,0.0254,0.0100,0.0000,2025-06-09T13:54:25.329451
768,-0.6315,0.5236,0.4797,66.430,76.405,71.295,0.00,0.0184,0.0254,0.0100,0.0174,2025-06-09T13:54:25.329451
769,-0.7022,0.6608,0.5602,67.235,102.165,47.215,0.00,0.0184,0.0254,0.0100,0.0087,2025-06-09T13:54:25.329451
770,-0.8477,0.7462,0.6300,63.980,126.315,35.000,0.00,0.0368,0.0508,0.0200,0.0000,2025-06-09T13:54:25.329451
771,-0.9980,0.8008,0.7261,58.205,135.310,17.815,0.00,0.0184,0.0508,0.0100,0.0087,2025-06-09T13:54:25.329451
772,-1.1263,0.8657,0.7950,51.730,136.745,-1.120,0.00,0.0184,0.0254,0.0200,0.0087,2025-06-09T13:54:25.329451
773,-1.2151,0.8979,0.8355,41.440,132.195,-14.210,0.01,0.0184,0.0508,0.0200,0.0087,2025-06-09T13:54:25.329451
774,-1.2678,0.9174,0.8901,33.425,118.650,-21.875,0.01,0.0368,0.0254,0.0200,0.0174,2025-06-09T13:54:25.436177
775,-1.2522,0.9257,0.9618,25.515,105.280,-20.265,0.00,0.0184,0.0508,0.0200,0.0174,2025-06-09T13:54:25.436177
776,-1.2254,0.9540,0.9833,20.265,81.865,-12.600,0.00,0.0184,0.0254,0.0100,0.0087,2025-06-09T13:54:25.436177
777,-1.1561,0.9658,0.9584,13.825,73.815,-3.850,0.01,0.0368,0.0508,0.0100,0.0087,2025-06-09T13:54:25.436177
778,-1.0033,0.9711,0.9121,10.640,64.855,7.910,0.00,0.0368,0.0254,0.0200,0.0174,2025-06-09T13:54:25.436177
779,-0.8857,0.9506,0.8721,8.155,59.535,17.675,0.00,0.0184,0.0254,0.0200,0.0174,2025-06-09T13:54:25.436177
780,-0.8076,0.9184,0.8159,6.440,54.145,27.265,0.01,0.0184,0.0254,0.0100,0.0000,2025-06-09T13:54:25.436177
781,-0.7379,0.8999,0.7296,6.930,47.355,36.225,0.00,0.0184,0.0254,0.0100,0.0087,2025-06-09T13:54:25.436177
782,-0.6803,0.8818,0.6398,5.600,43.750,40.565,0.00,0.0184,0.0254,0.0100,0.0087,2025-06-09T13:54:25.534899
783,-0.6427,0.8594,0.6198,1.785,39.270,46.340,0.00,0.0184,0.0254,0.0200,0.0087,2025-06-09T13:54:25.534899
784,-0.6324,0.8296,0.5573,-0.945,30.870,52.885,0.01,0.0184,0.0254,0.0200,0.0087,2025-06-09T13:54:25.534899
785,-0.6559,0.7828,0.5422,-3.815,19.285,61.145,0.00,0.0368,0.0508,0.0200,0.0087,2025-06-09T13:54:25.534899
786,-0.6490,0.7457,0.5280,-6.055,1.925,68.005,0.00,0.0184,0.0508,0.0200,0.0087,2025-06-09T13:54:25.534899
787,-0.6032,0.6969,0.5017,-5.250,-12.495,74.515,0.00,0.0184,0.0254,0.0100,0.0087,2025-06-09T13:54:25.534899
788,-0.5378,0.6793,0.4900,-8.085,-18.900,81.795,0.01,0.0368,0.0254,0.0100,0.0087,2025-06-09T13:54:25.534899
789,-0.4802,0.6671,0.4680,-8.505,-23.275,85.820,0.00,0.0184,0.0508,0.0100,0.0087,2025-06-09T13:54:25.641684
790,-0.4011,0.6651,0.4494,-7.000,-23.660,87.395,0.01,0.0368,0.0508,0.0200,0.0087,2025-06-09T13:54:25.641684
791,-0.3470,0.6632,0.4221,-7.105,-17.885,86.205,0.00,0.0368,0.0508,0.0200,0.0174,2025-06-09T13:54:25.641684
792,-0.3221,0.6676,0.4089,-6.370,-11.235,83.055,0.01,0.0368,0.0508,0.0100,0.0087,2025-06-09T13:54:25.641684
793,-0.3294,0.6661,0.3850,-4.970,-8.085,79.065,0.01,0.0368,0.0254,0.0200,0.0174,2025-06-09T13:54:25.641684
794,-0.3338,0.6715,0.3792,-4.480,-5.915,73.045,0.00,0.0368,0.0254,0.0100,0.0087,2025-06-09T13:54:25.641684
795,-0.3299,0.6749,0.3665,-3.185,-3.500,67.200,0.01,0.0000,0.0254,0.0100,0.0087,2025-06-09T13:54:25.641684
796,-0.3299,0.6778,0.3484,-3.045,-1.470,61.005,0.00,0.0184,0.0254,0.0100,0.0087,2025-06-09T13:54:25.641684
797,-0.3270,0.6783,0.3367,-2.625,1.225,53.725,0.00,0.0368,0.0254,0.0200,0.0087,2025-06-09T13:54:25.754358
798,-0.3255,0.6891,0.3226,-1.610,3.325,48.020,0.00,0.0184,0.0508,0.0200,0.0087,2025-06-09T13:54:25.754358
799,-0.3348,0.7125,0.3353,-1.505,6.055,41.230,0.01,0.0184,0.0254,0.0100,0.0174,2025-06-09T13:54:25.754358
800,-0.3494,0.7335,0.3353,-0.770,7.840,35.770,0.01,0.0184,0.0508,0.0100,0.0174,2025-06-09T13:54:25.754358
801,-0.3494,0.7549,0.3216,-0.105,8.820,30.555,0.00,0.0368,0.0254,0.0100,0.0087,2025-06-09T13:54:25.892989
802,-0.3743,0.7808,0.3509,0.595,9.415,24.640,0.00,0.0184,0.0254,0.0100,0.0087,2025-06-09T13:54:25.892989
803,-0.3933,0.7959,0.3665,0.840,8.260,20.475,0.00,0.0368,0.0254,0.0100,0.0087,2025-06-09T13:54:25.892989
804,-0.4172,0.8042,0.3748,1.190,2.800,16.905,0.00,0.0368,0.0254,0.0200,0.0087,2025-06-09T13:54:25.892989
805,-0.4294,0.8150,0.3816,2.065,-3.675,14.980,0.01,0.0184,0.0254,0.0100,0.0174,2025-06-09T13:54:25.946845
806,-0.4153,0.8174,0.3821,3.045,-9.380,13.790,0.00,0.0184,0.0508,0.0200,0.0087,2025-06-09T13:54:25.946845
807,-0.3933,0.8325,0.3938,3.290,-13.160,13.160,0.01,0.0184,0.0508,0.0200,0.0174,2025-06-09T13:54:25.946845
808,-0.3728,0.8355,0.3914,2.870,-14.350,13.055,0.00,0.0184,0.0254,0.0100,0.0087,2025-06-09T13:54:25.946845
809,-0.3689,0.8389,0.3889,3.360,-15.890,13.475,0.00,0.0184,0.0508,0.0100,0.0087,2025-06-09T13:54:25.946845
810,-0.3797,0.8408,0.3787,3.885,-18.550,13.895,0.00,0.0368,0.0508,0.0200,0.0087,2025-06-09T13:54:25.946845
811,-0.3733,0.8428,0.3753,4.550,-21.210,13.650,0.01,0.0184,0.0508,0.0200,0.0087,2025-06-09T13:54:25.947841
812,-0.3640,0.8330,0.3680,5.600,-24.115,13.720,0.00,0.0184,0.0254,0.0200,0.0087,2025-06-09T13:54:25.947841
813,-0.3626,0.8194,0.3440,7.070,-26.460,14.175,0.01,0.0000,0.0254,0.0100,0.0087,2025-06-09T13:54:25.947841
814,-0.3553,0.8130,0.3177,8.610,-27.965,13.650,0.01,0.0184,0.0254,0.0100,0.0087,2025-06-09T13:54:25.947841
815,-0.3328,0.8169,0.2991,10.290,-26.530,12.600,0.00,0.0184,0.0254,0.0100,0.0087,2025-06-09T13:54:25.947841
816,-0.3094,0.8252,0.2821,10.605,-21.105,10.815,0.00,0.0184,0.0254,0.0100,0.0087,2025-06-09T13:54:25.947841
817,-0.3040,0.8291,0.2552,9.870,-16.450,8.995,0.01,0.0184,0.0254,0.0100,0.0087,2025-06-09T13:54:25.947841
818,-0.3118,0.8345,0.2357,8.645,-13.965,6.860,0.00,0.0184,0.0508,0.0100,0.0087,2025-06-09T13:54:25.947841
819,-0.3177,0.8345,0.2284,7.560,-14.350,5.460,0.00,0.0184,0.0254,0.0100,0.0174,2025-06-09T13:54:25.947841
820,-0.3231,0.8398,0.2308,6.580,-16.450,4.095,0.01,0.0184,0.0254,0.0200,0.0087,2025-06-09T13:54:25.996709
821,-0.3231,0.8438,0.2342,5.145,-20.510,2.310,0.00,0.0184,0.0508,0.0200,0.0087,2025-06-09T13:54:25.997707
822,-0.3216,0.8403,0.2259,4.130,-24.325,0.490,0.01,0.0184,0.0508,0.0200,0.0174,2025-06-09T13:54:25.997707
823,-0.3050,0.8364,0.2196,2.730,-25.655,-2.240,0.00,0.0184,0.0254,0.0200,0.0087,2025-06-09T13:54:26.153292
824,-0.2767,0.8428,0.2367,1.260,-22.925,-5.040,0.01,0.0368,0.0254,0.0100,0.0087,2025-06-09T13:54:26.153292
825,-0.2767,0.8501,0.2499,-0.385,-16.170,-7.385,0.00,0.0368,0.0508,0.0100,0.0174,2025-06-09T13:54:26.153292
826,-0.2957,0.8520,0.2611,-0.910,-12.215,-8.680,0.00,0.0368,0.0254,0.0200,0.0174,2025-06-09T13:54:26.153292
827,-0.3372,0.8633,0.2830,-1.470,-12.985,-10.360,0.00,0.0184,0.0508,0.0100,0.0174,2025-06-09T13:54:26.153292
828,-0.3362,0.8716,0.2835,-1.855,-15.540,-12.110,0.01,0.0184,0.0254,0.0100,0.0087,2025-06-09T13:54:26.153292
829,-0.3104,0.8886,0.2869,-3.080,-16.905,-15.050,0.00,0.0368,0.0508,0.0100,0.0087,2025-06-09T13:54:26.153292
830,-0.2772,0.9101,0.2782,-6.125,-15.155,-18.270,0.00,0.0184,0.0254,0.0100,0.0087,2025-06-09T13:54:26.153292
831,-0.2464,0.9555,0.2874,-9.380,-11.935,-23.555,0.01,0.0184,0.0254,0.0100,0.0087,2025-06-09T13:54:26.153292
832,-0.2201,1.0063,0.3123,-16.380,-8.645,-29.225,0.00,0.0368,0.0254,0.0200,0.0087,2025-06-09T13:54:26.153292
833,-0.1937,1.1107,0.3421,-23.380,-10.710,-34.580,0.00,0.0184,0.0254,0.0000,0.0174,2025-06-09T13:54:26.153292
834,-0.1308,1.2605,0.3367,-32.340,-21.105,-41.965,0.00,0.0184,0.0254,0.0200,0.0087,2025-06-09T13:54:26.153292
835,-0.0883,1.6036,0.3543,-47.145,-40.775,-47.670,0.01,0.0184,0.0254,0.0200,0.0174,2025-06-09T13:54:26.258036
836,0.0473,1.8646,0.3240,-62.265,-79.765,-51.870,0.01,0.0368,0.0508,0.0100,0.0174,2025-06-09T13:54:26.258036
837,0.2547,2.2546,0.2313,-87.360,-116.200,-49.770,0.01,0.0184,0.0254,0.0100,0.0174,2025-06-09T13:54:26.258036
838,0.6080,2.7889,0.0239,-112.875,-148.820,-37.765,0.00,0.0368,0.0508,0.0100,0.0174,2025-06-09T13:54:26.258036
839,0.8472,3.2642,-0.2821,-134.925,-162.715,-21.980,0.00,0.0184,0.0508,0.0100,0.0087,2025-06-09T13:54:26.258036
840,1.0507,3.6702,-0.5724,-154.945,-156.205,-8.085,0.00,0.0184,0.0254,0.0000,0.0087,2025-06-09T13:54:26.258036
841,1.0341,3.7708,-0.8423,-178.885,-131.355,-13.755,0.00,0.0368,0.0508,0.0200,0.0087,2025-06-09T13:54:26.258036
842,0.7549,3.5107,-1.1761,-200.095,-122.465,-40.530,0.01,0.0184,0.0254,0.0100,0.0087,2025-06-09T13:54:26.310893
843,0.1103,2.9334,-0.9121,-231.175,-142.555,-83.650,0.01,0.0368,0.0508,0.0200,0.0087,2025-06-09T13:54:26.310893
844,-0.4485,2.0242,-0.6808,-264.985,-189.455,-155.050,0.00,0.0184,0.0254,0.0200,0.0087,2025-06-09T13:54:26.310893
845,-0.6188,0.9658,-0.4387,-306.390,-249.235,-218.190,0.01,0.0184,0.0508,0.0200,0.0087,2025-06-09T13:54:26.310893
846,-0.6920,-0.7315,-0.2030,-337.610,-274.015,-271.355,0.00,0.0184,0.0508,0.0200,0.0087,2025-06-09T13:54:26.462487
847,-0.5461,-2.0106,0.5012,-375.235,-229.215,-300.335,0.01,0.0184,0.0254,0.0200,0.0087,2025-06-09T13:54:26.462487
848,-0.9750,-5.0015,1.2971,-404.180,-153.335,-371.840,0.00,0.0184,0.0254,0.0100,0.0087,2025-06-09T13:54:26.462487
849,-0.9945,-6.3308,1.1668,-343.455,-150.640,-353.850,0.01,0.0184,0.0254,0.0200,0.0087,2025-06-09T13:54:26.462487
850,-1.1341,-5.4188,0.7027,-227.185,-238.490,-202.265,0.00,0.0368,0.0508,0.0200,0.0087,2025-06-09T13:54:26.462487
851,0.1054,-4.2485,0.7042,-98.280,-323.995,-0.455,0.01,0.0184,0.0508,0.0100,0.0087,2025-06-09T13:54:26.462487
852,1.3444,-3.7127,0.5656,80.360,-268.555,212.695,0.01,0.0184,0.0508,0.0100,0.0174,2025-06-09T13:54:26.462487
853,1.5670,-3.1681,0.8784,215.950,-86.625,277.585,0.00,0.0184,0.0254,0.0200,0.0087,2025-06-09T13:54:26.462487
854,1.3693,-2.7250,1.0887,255.885,66.955,273.735,0.00,0.0184,0.0508,0.0100,0.0087,2025-06-09T13:54:26.462487
855,1.0258,-2.4429,0.9721,285.285,189.770,274.645,0.00,0.0184,0.0254,0.0100,0.0087,2025-06-09T13:54:26.462487
856,0.3953,-1.8686,0.9213,294.910,229.180,279.510,0.00,0.0184,0.0508,0.0100,0.0087,2025-06-09T13:54:26.462487
857,-0.2137,-1.1004,0.9482,275.415,221.690,264.845,0.00,0.0368,0.0254,0.0200,0.0174,2025-06-09T13:54:26.566239
858,-0.3675,-0.1225,0.8140,262.080,189.910,229.390,0.01,0.0184,0.0254,0.0100,0.0087,2025-06-09T13:54:26.566239
859,-0.3016,0.3972,0.5714,230.475,153.895,191.730,0.01,0.0368,0.0254,0.0200,0.0087,2025-06-09T13:54:26.566239
860,-0.0283,0.7501,0.3070,216.160,126.665,158.725,0.01,0.0368,0.0508,0.0200,0.0087,2025-06-09T13:54:26.566239
861,0.2352,1.0658,0.1391,196.490,103.880,117.250,0.01,0.0368,0.0254,0.0200,0.0087,2025-06-09T13:54:26.566239
862,0.3528,1.1849,-0.1157,175.350,98.665,85.575,0.01,0.0184,0.0254,0.0200,0.0087,2025-06-09T13:54:26.566239
863,0.2772,1.4347,-0.1044,176.855,90.720,43.680,0.00,0.0184,0.0254,0.0100,0.0000,2025-06-09T13:54:26.566239
864,0.3133,1.5831,-0.0566,157.955,84.385,10.710,0.00,0.0184,0.0254,0.0200,0.0174,2025-06-09T13:54:26.566239
865,0.4597,1.6929,-0.0971,139.160,78.365,-16.415,0.00,0.0368,0.0508,0.0200,0.0087,2025-06-09T13:54:26.688857
866,0.4607,1.7334,-0.0610,122.360,70.315,-30.940,0.00,0.0184,0.0254,0.0100,0.0087,2025-06-09T13:54:26.689854
867,0.4016,1.7046,0.0137,106.050,58.170,-46.235,0.01,0.0368,0.0508,0.0100,0.0087,2025-06-09T13:54:26.689854
868,0.3099,1.6582,0.2098,86.065,48.020,-60.095,0.01,0.0368,0.0508,0.0200,0.0087,2025-06-09T13:54:26.689854
869,0.2308,1.5860,0.3211,76.335,39.340,-75.600,0.01,0.0368,0.0254,0.0200,0.0087,2025-06-09T13:54:26.689854
870,0.0625,1.4767,0.3553,66.920,25.830,-84.525,0.00,0.0368,0.0254,0.0100,0.0174,2025-06-09T13:54:26.689854
871,-0.1440,1.3625,0.3977,67.025,5.040,-86.975,0.01,0.0184,0.0254,0.0100,0.0087,2025-06-09T13:54:26.689854
872,-0.2503,1.3039,0.4538,67.270,-16.275,-84.455,0.01,0.0184,0.0254,0.0200,0.0087,2025-06-09T13:54:26.689854
873,-0.2635,1.2478,0.5061,64.575,-19.145,-81.585,0.01,0.0368,0.0254,0.0200,0.0174,2025-06-09T13:54:26.689854
874,-0.2108,1.1746,0.5124,61.600,-6.650,-77.210,0.01,0.0368,0.0508,0.0200,0.0174,2025-06-09T13:54:26.767676
875,-0.2728,1.0965,0.4880,56.770,14.140,-71.085,0.01,0.0184,0.0508,0.0100,0.0174,2025-06-09T13:54:26.767676
876,-0.3758,1.0609,0.4924,53.865,25.375,-64.400,0.00,0.0368,0.0508,0.0200,0.0087,2025-06-09T13:54:26.767676
877,-0.4914,1.0263,0.5022,50.470,28.525,-54.075,0.01,0.0368,0.0254,0.0200,0.0087,2025-06-09T13:54:26.767676
878,-0.5466,1.0126,0.4929,45.990,22.260,-44.100,0.01,0.0368,0.0254,0.0200,0.0087,2025-06-09T13:54:26.767676
879,-0.5563,0.9960,0.4631,42.210,13.370,-31.745,0.00,0.0368,0.0508,0.0000,0.0174,2025-06-09T13:54:26.767676
880,-0.5148,0.9780,0.4407,36.540,5.215,-22.400,0.00,0.0184,0.0508,0.0100,0.0087,2025-06-09T13:54:26.972198
881,-0.4738,0.9618,0.4543,31.500,3.535,-14.945,0.01,0.0368,0.0508,0.0200,0.0087,2025-06-09T13:54:26.972198
882,-0.4114,0.9492,0.4568,18.480,6.300,-7.665,0.01,0.0184,0.0254,0.0200,0.0087,2025-06-09T13:54:26.972198
883,-0.3880,0.9301,0.4451,21.980,9.905,-2.660,0.00,0.0368,0.0254,0.0200,0.0174,2025-06-09T13:54:26.972198
884,-0.3767,0.9052,0.4343,19.005,12.670,1.750,0.00,0.0184,0.0254,0.0100,0.0087,2025-06-09T13:54:26.972198
885,-0.3909,0.8857,0.4250,15.435,12.040,4.200,0.00,0.0184,0.0508,0.0100,0.0087,2025-06-09T13:54:26.972198
886,-0.3831,0.8725,0.4314,13.020,10.290,6.475,0.01,0.0184,0.0254,0.0100,0.0087,2025-06-09T13:54:26.972198
887,-0.3714,0.8652,0.4250,10.150,8.050,8.120,0.00,0.0368,0.0254,0.0100,0.0087,2025-06-09T13:54:26.972198
888,-0.3699,0.8569,0.4143,7.350,5.390,9.695,0.00,0.0184,0.0254,0.0100,0.0087,2025-06-09T13:54:26.972198
889,-0.3470,0.8730,0.4226,5.145,3.500,10.290,0.00,0.0184,0.0254,0.0100,0.0087,2025-06-09T13:54:26.972198
890,-0.3377,0.8667,0.4207,2.625,3.710,9.765,0.00,0.0368,0.0508,0.0100,0.0087,2025-06-09T13:54:26.972198
891,-0.3226,0.8691,0.4246,0.595,5.180,9.135,0.00,0.0184,0.0254,0.0100,0.0087,2025-06-09T13:54:26.972198
892,-0.3021,0.8667,0.4226,-1.505,8.365,8.610,0.01,0.0184,0.0254,0.0100,0.0087,2025-06-09T13:54:26.972198
893,-0.3177,0.8618,0.4187,-2.835,12.215,7.105,0.01,0.0184,0.0254,0.0100,0.0087,2025-06-09T13:54:26.972198
894,-0.3367,0.8696,0.4211,-4.620,15.470,5.180,0.00,0.0184,0.0254,0.0100,0.0087,2025-06-09T13:54:26.972198
895,-0.3431,0.8682,0.4207,-5.285,17.395,3.500,0.00,0.0368,0.0254,0.0200,0.0174,2025-06-09T13:54:27.127905
896,-0.3689,0.8662,0.4104,-6.440,18.060,1.540,0.01,0.0184,0.0508,0.0200,0.0174,2025-06-09T13:54:27.127905
897,-0.3904,0.8623,0.3972,-7.980,14.875,0.875,0.00,0.0368,0.0508,0.0200,0.0087,2025-06-09T13:54:27.127905
898,-0.4197,0.8525,0.3889,-8.505,9.765,0.350,0.00,0.0184,0.0254,0.0100,0.0087,2025-06-09T13:54:27.127905
899,-0.4270,0.8438,0.3987,-9.870,4.445,0.070,0.00,0.0184,0.0508,0.0100,0.0087,2025-06-09T13:54:27.127905
900,-0.4075,0.8291,0.4168,-10.745,3.045,0.560,0.01,0.0184,0.0254,0.0100,0.0087,2025-06-09T13:54:27.127905
901,-0.4148,0.8135,0.4163,-11.480,3.220,1.855,0.00,0.0184,0.0254,0.0200,0.0087,2025-06-09T13:54:27.127905
902,-0.4109,0.7974,0.4182,-12.040,5.250,2.800,0.00,0.0368,0.0508,0.0200,0.0174,2025-06-09T13:54:27.127905
903,-0.4050,0.7774,0.4329,-11.900,8.295,3.710,0.01,0.0368,0.0254,0.0200,0.0087,2025-06-09T13:54:27.127905
904,-0.4314,0.7662,0.4294,-11.025,10.045,4.830,0.00,0.0368,0.0254,0.0200,0.0087,2025-06-09T13:54:27.127905
905,-0.4490,0.7549,0.4211,-9.100,8.470,5.880,0.01,0.0368,0.0254,0.0200,0.0087,2025-06-09T13:54:27.341332
906,-0.4446,0.7447,0.4148,-7.840,5.110,7.000,0.01,0.0184,0.0254,0.0200,0.0087,2025-06-09T13:54:27.341332
907,-0.4221,0.7388,0.4177,-5.880,3.955,7.630,0.00,0.0184,0.0508,0.0200,0.0087,2025-06-09T13:54:27.341332
908,-0.3889,0.7418,0.4182,-5.355,5.600,7.420,0.01,0.0184,0.0508,0.0100,0.0087,2025-06-09T13:54:27.341332
909,-0.3714,0.7491,0.4172,-3.850,10.500,6.720,0.01,0.0184,0.0508,0.0100,0.0087,2025-06-09T13:54:27.341332
910,-0.3723,0.7447,0.3972,-3.535,15.540,5.705,0.01,0.0368,0.0508,0.0200,0.0087,2025-06-09T13:54:27.341332
911,-0.4050,0.7510,0.3924,-3.150,18.445,4.935,0.00,0.0368,0.0254,0.0100,0.0174,2025-06-09T13:54:27.341332
912,-0.4324,0.7540,0.3826,-3.010,18.375,4.130,0.00,0.0368,0.0254,0.0100,0.0087,2025-06-09T13:54:27.341332
913,-0.4465,0.7569,0.3802,-3.010,17.290,3.185,0.00,0.0184,0.0254,0.0100,0.0174,2025-06-09T13:54:27.341332
914,-0.4538,0.7574,0.3753,-3.430,16.065,2.380,0.00,0.0184,0.0254,0.0200,0.0087,2025-06-09T13:54:27.341332
915,-0.4680,0.7613,0.3826,-4.340,15.610,0.770,0.00,0.0368,0.0254,0.0100,0.0087,2025-06-09T13:54:27.341332
916,-0.4768,0.7715,0.3958,-4.760,16.030,-0.770,0.00,0.0184,0.0508,0.0100,0.0087,2025-06-09T13:54:27.341332
917,-0.4929,0.7681,0.4065,-5.740,16.100,-2.205,0.00,0.0184,0.0254,0.0200,0.0087,2025-06-09T13:54:27.341332
918,-0.4978,0.7666,0.4168,-6.090,15.540,-3.605,0.00,0.0368,0.0254,0.0100,0.0087,2025-06-09T13:54:27.341332
919,-0.5065,0.7696,0.4382,-6.405,14.875,-4.375,0.01,0.0184,0.0254,0.0100,0.0087,2025-06-09T13:54:27.341332
920,-0.5129,0.7608,0.4372,-6.685,13.895,-5.040,0.00,0.0184,0.0254,0.0100,0.0087,2025-06-09T13:54:27.341332
921,-0.5153,0.7564,0.4436,-6.965,12.950,-5.600,0.00,0.0184,0.0254,0.0100,0.0087,2025-06-09T13:54:27.341332
922,-0.5104,0.7603,0.4660,-7.350,13.370,-6.055,0.01,0.0368,0.0508,0.0100,0.0087,2025-06-09T13:54:27.400215
923,-0.5256,0.7569,0.4665,-7.945,13.510,-6.615,0.01,0.0184,0.0508,0.0200,0.0087,2025-06-09T13:54:27.400215
924,-0.5270,0.7549,0.4709,-8.575,12.530,-6.860,0.01,0.0184,0.0508,0.0100,0.0087,2025-06-09T13:54:27.400215
925,-0.5261,0.7505,0.4738,-9.030,10.815,-7.105,0.01,0.0368,0.0254,0.0200,0.0087,2025-06-09T13:54:27.400215
926,-0.5100,0.7535,0.4812,-9.660,9.310,-7.595,0.00,0.0184,0.0254,0.0200,0.0087,2025-06-09T13:54:27.400215
927,-0.5017,0.7554,0.4758,-10.185,7.910,-8.155,0.01,0.0184,0.0508,0.0200,0.0087,2025-06-09T13:54:27.586677
928,-0.4968,0.7598,0.4846,-11.060,6.195,-8.400,0.00,0.0368,0.0254,0.0200,0.0174,2025-06-09T13:54:27.586677
929,-0.4919,0.7584,0.4773,-11.445,4.375,-8.645,0.00,0.0184,0.0254,0.0100,0.0087,2025-06-09T13:54:27.586677
930,-0.4851,0.7530,0.4651,-12.145,2.135,-8.995,0.01,0.0184,0.0254,0.0200,0.0087,2025-06-09T13:54:27.586677
931,-0.4782,0.7486,0.4612,-12.215,1.400,-9.100,0.01,0.0368,0.0254,0.0100,0.0087,2025-06-09T13:54:27.586677
932,-0.4812,0.7418,0.4573,-12.705,1.365,-10.010,0.00,0.0184,0.0254,0.0200,0.0174,2025-06-09T13:54:27.586677
933,-0.4851,0.7408,0.4534,-12.775,0.525,-10.535,0.00,0.0368,0.0508,0.0100,0.0087,2025-06-09T13:54:27.586677
934,-0.4900,0.7369,0.4446,-12.775,-0.945,-10.780,0.00,0.0184,0.0254,0.0100,0.0087,2025-06-09T13:54:27.586677
935,-0.4802,0.7369,0.4431,-12.880,-1.785,-10.990,0.00,0.0368,0.0508,0.0100,0.0000,2025-06-09T13:54:27.586677
936,-0.4763,0.7364,0.4226,-12.985,-1.295,-11.480,0.00,0.0000,0.0254,0.0100,0.0087,2025-06-09T13:54:27.586677
937,-0.4734,0.7340,0.4168,-13.020,0.000,-12.215,0.00,0.0368,0.0254,0.0100,0.0087,2025-06-09T13:54:27.586677
938,-0.4724,0.7354,0.4216,-12.635,1.715,-12.635,0.00,0.0184,0.0254,0.0100,0.0087,2025-06-09T13:54:27.586677
939,-0.4919,0.7349,0.4265,-12.635,2.345,-13.055,0.00,0.0184,0.0508,0.0100,0.0174,2025-06-09T13:54:27.587676
940,-0.5061,0.7369,0.4329,-11.970,1.855,-13.335,0.00,0.0184,0.0508,0.0200,0.0087,2025-06-09T13:54:27.587676
941,-0.5144,0.7320,0.4319,-11.445,1.260,-13.475,0.01,0.0184,0.0508,0.0200,0.0087,2025-06-09T13:54:27.702396
942,-0.5178,0.7296,0.4265,-10.990,1.050,-13.825,0.01,0.0184,0.0254,0.0100,0.0087,2025-06-09T13:54:27.702396
943,-0.5187,0.7261,0.4319,-10.220,1.330,-14.000,0.01,0.0368,0.0508,0.0200,0.0174,2025-06-09T13:54:27.702396
944,-0.5197,0.7227,0.4397,-9.975,1.330,-14.035,0.01,0.0368,0.0508,0.0100,0.0174,2025-06-09T13:54:27.702396
945,-0.5226,0.7208,0.4397,-9.170,1.470,-13.825,0.01,0.0184,0.0254,0.0200,0.0087,2025-06-09T13:54:27.702396
946,-0.5202,0.7232,0.4455,-8.645,2.205,-13.370,0.00,0.0184,0.0254,0.0100,0.0087,2025-06-09T13:54:27.702396
947,-0.5290,0.7257,0.4455,-8.155,2.835,-12.915,0.00,0.0184,0.0254,0.0000,0.0087,2025-06-09T13:54:27.702396
948,-0.5388,0.7237,0.4499,-7.875,2.695,-12.145,0.01,0.0368,0.0254,0.0100,0.0174,2025-06-09T13:54:27.812073
949,-0.5510,0.7222,0.4616,-7.490,2.240,-11.165,0.00,0.0368,0.0508,0.0100,0.0087,2025-06-09T13:54:27.812073
950,-0.5602,0.7169,0.4680,-6.895,1.085,-10.150,0.01,0.0368,0.0508,0.0200,0.0087,2025-06-09T13:54:27.812073
951,-0.5534,0.7125,0.4660,-6.300,0.245,-8.610,0.00,0.0368,0.0254,0.0200,0.0087,2025-06-09T13:54:27.944723
952,-0.5539,0.7091,0.4724,-5.495,0.525,-7.840,0.01,0.0368,0.0254,0.0100,0.0174,2025-06-09T13:54:27.944723
953,-0.5588,0.7100,0.4782,-4.970,1.470,-7.210,0.00,0.0184,0.0508,0.0100,0.0174,2025-06-09T13:54:27.944723
954,-0.5685,0.7096,0.4763,-4.550,1.435,-6.755,0.00,0.0368,0.0254,0.0100,0.0087,2025-06-09T13:54:27.944723
955,-0.5690,0.7071,0.4734,-3.990,0.490,-6.475,0.00,0.0184,0.0254,0.0100,0.0087,2025-06-09T13:54:27.944723
956,-0.5705,0.7071,0.4773,-3.465,-0.770,-6.685,0.00,0.0368,0.0508,0.0200,0.0087,2025-06-09T13:54:27.998618
957,-0.5627,0.7037,0.4807,-3.045,-1.785,-6.580,0.01,0.0184,0.0508,0.0200,0.0087,2025-06-09T13:54:27.998618
958,-0.5661,0.7008,0.4802,-2.730,-2.520,-6.650,0.01,0.0184,0.0254,0.0200,0.0174,2025-06-09T13:54:27.998618
959,-0.5758,0.6978,0.4787,-2.520,-3.185,-7.140,0.01,0.0368,0.0508,0.0200,0.0174,2025-06-09T13:54:27.998618
960,-0.5734,0.6920,0.4865,-2.275,-4.200,-7.315,0.00,0.0368,0.0508,0.0100,0.0087,2025-06-09T13:54:27.998618
961,-0.5768,0.6866,0.4836,-2.065,-5.495,-7.350,0.00,0.0368,0.0508,0.0200,0.0087,2025-06-09T13:54:27.998618
962,-0.5685,0.6886,0.4919,-1.470,-6.265,-7.350,0.00,0.0368,0.0254,0.0200,0.0087,2025-06-09T13:54:27.998618
963,-0.5656,0.6827,0.4939,-1.540,-7.035,-7.350,0.00,0.0184,0.0254,0.0100,0.0087,2025-06-09T13:54:27.998618
964,-0.5602,0.6837,0.4890,-1.155,-7.350,-7.350,0.00,0.0184,0.0254,0.0100,0.0087,2025-06-09T13:54:27.998618
965,-0.5456,0.6822,0.4836,-1.225,-7.070,-7.595,0.01,0.0184,0.0254,0.0100,0.0087,2025-06-09T13:54:27.998618
966,-0.5427,0.6817,0.4787,-1.155,-6.545,-8.085,0.00,0.0184,0.0254,0.0100,0.0087,2025-06-09T13:54:27.998618
967,-0.5470,0.6866,0.4792,-1.330,-6.475,-8.645,0.00,0.0368,0.0508,0.0100,0.0087,2025-06-09T13:54:27.998618
968,-0.5500,0.6861,0.4724,-1.400,-7.455,-9.170,0.00,0.0184,0.0254,0.0100,0.0174,2025-06-09T13:54:27.998618
969,-0.5470,0.6905,0.4704,-1.400,-9.100,-9.450,0.01,0.0184,0.0508,0.0100,0.0087,2025-06-09T13:54:27.998618
970,-0.5431,0.6930,0.4641,-1.435,-9.415,-9.520,0.01,0.0184,0.0254,0.0100,0.0174,2025-06-09T13:54:27.998618
971,-0.5373,0.6915,0.4587,-1.540,-8.750,-9.660,0.00,0.0368,0.0508,0.0200,0.0087,2025-06-09T13:54:28.057428
972,-0.5427,0.6959,0.4709,-1.365,-7.735,-9.660,0.01,0.0184,0.0508,0.0200,0.0174,2025-06-09T13:54:28.057428
973,-0.5573,0.6944,0.4685,-1.085,-7.385,-9.520,0.00,0.0184,0.0254,0.0200,0.0087,2025-06-09T13:54:28.057428
974,-0.5622,0.6978,0.4636,-0.945,-8.365,-8.925,0.00,0.0184,0.0254,0.0100,0.0087,2025-06-09T13:54:28.057428
975,-0.5588,0.6998,0.4660,-0.560,-8.645,-8.435,0.00,0.0184,0.0254,0.0100,0.0174,2025-06-09T13:54:28.057428
976,-0.5495,0.7061,0.4704,0.035,-7.350,-7.560,0.00,0.0368,0.0508,0.0100,0.0174,2025-06-09T13:54:28.210008
977,-0.5514,0.7076,0.4670,-0.245,-5.915,-6.720,0.00,0.0368,0.0254,0.0100,0.0087,2025-06-09T13:54:28.210008
978,-0.5549,0.7110,0.4699,0.175,-4.760,-5.775,0.00,0.0368,0.0254,0.0100,0.0087,2025-06-09T13:54:28.210008
979,-0.5612,0.7100,0.4656,0.070,-4.480,-4.690,0.00,0.0368,0.0508,0.0200,0.0087,2025-06-09T13:54:28.210008
980,-0.5568,0.7086,0.4602,0.140,-4.480,-3.430,0.01,0.0184,0.0254,0.0200,0.0087,2025-06-09T13:54:28.210008
981,-0.5431,0.7100,0.4597,0.105,-3.920,-2.415,0.00,0.0184,0.0254,0.0100,0.0087,2025-06-09T13:54:28.210008
982,-0.5461,0.7096,0.4690,-0.070,-2.870,-1.400,0.00,0.0184,0.0254,0.0100,0.0174,2025-06-09T13:54:28.210008
983,-0.5480,0.7115,0.4695,-0.140,-1.680,-0.700,0.00,0.0184,0.0254,0.0100,0.0087,2025-06-09T13:54:28.210008
984,-0.5597,0.7096,0.4651,-0.595,-1.190,0.035,0.00,0.0184,0.0254,0.0000,0.0087,2025-06-09T13:54:28.210008
985,-0.5661,0.6988,0.4670,-0.700,-1.155,0.700,0.00,0.0184,0.0254,0.0100,0.0087,2025-06-09T13:54:28.210008
986,-0.5661,0.6964,0.4758,-1.120,-1.365,1.435,0.00,0.0368,0.0508,0.0100,0.0174,2025-06-09T13:54:28.414463
987,-0.5651,0.6876,0.4817,-1.155,-1.400,2.240,0.00,0.0368,0.0508,0.0100,0.0087,2025-06-09T13:54:28.414463
988,-0.5690,0.6817,0.4826,-1.470,-1.260,2.800,0.00,0.0184,0.0508,0.0100,0.0087,2025-06-09T13:54:28.414463
989,-0.5651,0.6783,0.4934,-1.540,-0.805,3.290,0.01,0.0368,0.0508,0.0200,0.0174,2025-06-09T13:54:28.414463
990,-0.5680,0.6720,0.4860,-1.960,-0.630,3.920,0.00,0.0368,0.0508,0.0100,0.0087,2025-06-09T13:54:28.414463
991,-0.5651,0.6666,0.4865,-1.925,-0.770,4.445,0.00,0.0184,0.0254,0.0100,0.0087,2025-06-09T13:54:28.414463
992,-0.5588,0.6656,0.4914,-1.855,-0.735,4.585,0.01,0.0184,0.0254,0.0100,0.0087,2025-06-09T13:54:28.414463
993,-0.5568,0.6656,0.4900,-1.610,-0.490,4.445,0.00,0.0184,0.0254,0.0100,0.0087,2025-06-09T13:54:28.414463
994,-0.5627,0.6671,0.4909,-1.260,-0.805,4.270,0.00,0.0368,0.0508,0.0200,0.0087,2025-06-09T13:54:28.414463
995,-0.5661,0.6671,0.4880,-0.910,-1.190,3.780,0.01,0.0184,0.0254,0.0100,0.0087,2025-06-09T13:54:28.414463
996,-0.5651,0.6666,0.4856,-0.595,-1.855,3.535,0.00,0.0184,0.0254,0.0200,0.0087,2025-06-09T13:54:28.414463
997,-0.5632,0.6637,0.4807,-0.490,-1.680,3.115,0.01,0.0184,0.0508,0.0100,0.0087,2025-06-09T13:54:28.414463
998,-0.5617,0.6617,0.4904,-0.280,-1.015,2.765,0.00,0.0184,0.0254,0.0100,0.0087,2025-06-09T13:54:28.414463
999,-0.5675,0.6622,0.4904,0.385,-0.490,2.730,0.00,0.0184,0.0508,0.0200,0.0087,2025-06-09T13:54:28.414463
1000,-0.5758,0.6627,0.4880,0.910,-0.560,3.010,0.00,0.0184,0.0254,0.0200,0.0087,2025-06-09T13:54:28.414463
1001,-0.5807,0.6661,0.4865,1.715,-1.050,3.325,0.01,0.0368,0.0508,0.0100,0.0174,2025-06-09T13:54:28.414463
1002,-0.5778,0.6695,0.4909,2.660,-1.225,3.605,0.00,0.0368,0.0508,0.0200,0.0174,2025-06-09T13:54:28.611291
1003,-0.5754,0.6681,0.4895,3.395,-1.400,4.375,0.00,0.0184,0.0508,0.0200,0.0087,2025-06-09T13:54:28.611291
1004,-0.5807,0.6690,0.4875,3.920,-1.715,4.970,0.01,0.0368,0.0254,0.0200,0.0174,2025-06-09T13:54:28.611291
1005,-0.5778,0.6705,0.4909,4.585,-2.625,5.495,0.00,0.0368,0.0508,0.0200,0.0087,2025-06-09T13:54:28.611291
1006,-0.5773,0.6769,0.4865,5.005,-3.430,5.565,0.01,0.0368,0.0254,0.0100,0.0174,2025-06-09T13:54:28.611291
1007,-0.5836,0.6808,0.4900,5.775,-4.270,5.530,0.01,0.0184,0.0508,0.0200,0.0087,2025-06-09T13:54:28.611291
1008,-0.5861,0.6827,0.4934,6.335,-5.320,5.600,0.00,0.0184,0.0508,0.0200,0.0087,2025-06-09T13:54:28.611291
1009,-0.6071,0.6764,0.5056,7.735,-6.895,5.915,0.00,0.0184,0.0254,0.0100,0.0087,2025-06-09T13:54:28.611291
1010,-0.6324,0.6720,0.5022,9.485,-9.590,7.175,0.00,0.0184,0.0254,0.0100,0.0087,2025-06-09T13:54:28.611291
1011,-0.6564,0.6710,0.5168,12.215,-14.245,7.945,0.00,0.0184,0.0254,0.0100,0.0087,2025-06-09T13:54:28.611291
1012,-0.6637,0.6705,0.5422,15.400,-16.345,8.645,0.00,0.0184,0.0254,0.0100,0.0087,2025-06-09T13:54:28.611291
1013,-0.6637,0.6627,0.5558,18.270,-17.745,9.800,0.00,0.0368,0.0254,0.0200,0.0087,2025-06-09T13:54:28.611291
1014,-0.6451,0.6471,0.5529,22.540,-18.550,11.795,0.01,0.0184,0.0508,0.0200,0.0087,2025-06-09T13:54:28.611291
1015,-0.6183,0.6466,0.5617,26.180,-16.905,13.335,0.00,0.0184,0.0254,0.0200,0.0087,2025-06-09T13:54:28.611291
1016,-0.5993,0.6476,0.5475,30.485,-14.385,14.455,0.00,0.0184,0.0254,0.0200,0.0087,2025-06-09T13:54:28.611291
1017,-0.5749,0.6486,0.5075,35.000,-14.350,15.855,0.00,0.0184,0.0508,0.0200,0.0087,2025-06-09T13:54:28.673125
1018,-0.5905,0.6481,0.4768,39.620,-17.885,16.310,0.00,0.0368,0.0508,0.0100,0.0174,2025-06-09T13:54:28.673125
1019,-0.5749,0.6622,0.4470,45.360,-25.025,17.010,0.01,0.0184,0.0254,0.0200,0.0087,2025-06-09T13:54:28.673125
1020,-0.5695,0.6812,0.4402,48.440,-37.520,17.640,0.00,0.0368,0.0254,0.0100,0.0174,2025-06-09T13:54:28.673125
1021,-0.6242,0.6915,0.4275,47.915,-57.295,16.660,0.00,0.0184,0.0508,0.0200,0.0087,2025-06-09T13:54:28.728001
1022,-0.5212,0.7359,0.4197,47.635,-78.155,15.085,0.01,0.0184,0.0508,0.0100,0.0087,2025-06-09T13:54:28.728001
1023,-0.4324,0.8189,0.3684,36.820,-91.945,10.780,0.01,0.0368,0.0508,0.0200,0.0087,2025-06-09T13:54:28.728001
1024,-0.2669,0.9726,0.3377,28.035,-103.530,4.970,0.01,0.0184,0.0508,0.0100,0.0174,2025-06-09T13:54:28.728001
1025,-0.1513,1.1361,0.2913,12.495,-105.735,0.175,0.00,0.0184,0.0254,0.0100,0.0087,2025-06-09T13:54:28.811753
1026,-0.0137,1.4089,0.2513,-2.660,-102.795,-4.515,0.00,0.0368,0.0254,0.0200,0.0174,2025-06-09T13:54:28.811753
1027,0.0600,1.7021,0.2196,-25.690,-101.255,-4.865,0.00,0.0184,0.0508,0.0200,0.0087,2025-06-09T13:54:28.812752
1028,0.2030,2.1818,0.1640,-47.880,-105.700,8.715,0.01,0.0368,0.0254,0.0200,0.0087,2025-06-09T13:54:28.812752
1029,0.2977,2.6045,-0.0742,-79.625,-122.885,12.915,0.00,0.0368,0.0508,0.0200,0.0087,2025-06-09T13:54:28.812752
1030,0.3626,3.1813,-0.3933,-88.935,-147.000,26.180,0.00,0.0184,0.0254,0.0100,0.0087,2025-06-09T13:54:28.812752
1031,0.4992,3.4882,-0.6500,-103.600,-179.410,46.865,0.00,0.0184,0.0508,0.0100,0.0087,2025-06-09T13:54:28.812752
1032,0.5036,3.7283,-0.9360,-125.300,-204.120,58.030,0.00,0.0368,0.0254,0.0200,0.0174,2025-06-09T13:54:28.937416
1033,0.2450,3.7708,-1.0297,-136.990,-225.575,40.600,0.00,0.0184,0.0254,0.0200,0.0174,2025-06-09T13:54:28.937416
1034,0.2035,3.2642,-1.2712,-182.140,-236.775,16.870,0.00,0.0184,0.0508,0.0200,0.0087,2025-06-09T13:54:28.938415
1035,-0.3118,2.8143,-1.0238,-238.455,-254.870,-25.235,0.00,0.0184,0.0254,0.0200,0.0087,2025-06-09T13:54:28.938415
1036,-0.5510,1.9066,-0.7379,-304.430,-272.895,-71.750,0.00,0.0184,0.0254,0.0100,0.0087,2025-06-09T13:54:28.938415
1037,-0.4573,0.6383,-0.5002,-370.440,-267.540,-128.380,0.00,0.0184,0.0000,0.0200,0.0087,2025-06-09T13:54:28.938415
1038,-0.4582,-0.6573,-0.1078,-428.155,-243.390,-155.190,0.01,0.0184,0.0508,0.0100,0.0087,2025-06-09T13:54:28.938415
1039,-0.9101,-3.3477,0.8540,-494.620,-192.360,-225.365,0.00,0.0184,0.0508,0.0200,0.0087,2025-06-09T13:54:29.017235
1040,-0.8511,-5.9058,1.6368,-468.965,-161.840,-239.960,0.00,0.0184,0.0508,0.0100,0.0087,2025-06-09T13:54:29.017235
1041,-1.2215,-6.4865,1.2595,-383.250,-238.070,-178.850,0.00,0.0184,0.0254,0.0200,0.0087,2025-06-09T13:54:29.017235
1042,-0.2738,-5.0747,0.6642,-310.275,-299.355,-41.580,0.00,0.0184,0.0254,0.0100,0.0087,2025-06-09T13:54:29.017235
1043,1.6641,-4.2846,0.7091,34.195,-244.160,123.095,0.01,0.0184,0.0508,0.0200,0.0087,2025-06-09T13:54:29.017235
1044,2.1599,-3.4121,1.3132,264.075,-3.570,125.160,0.01,0.0368,0.0254,0.0100,0.0087,2025-06-09T13:54:29.017235
1045,1.6660,-2.7362,0.9370,234.185,222.880,209.160,0.01,0.0184,0.0254,0.0100,0.0087,2025-06-09T13:54:29.017235
1046,-2.3312,-4.3066,1.5655,311.780,163.520,196.315,0.00,0.0184,0.0254,0.0200,0.0087,2025-06-09T13:54:29.017235
1047,0.2157,-2.3287,1.0965,380.660,310.135,238.980,0.01,0.0368,0.0508,0.0100,0.0087,2025-06-09T13:54:29.068096
1048,-0.6017,-1.4996,0.7442,408.800,205.905,227.325,0.00,0.0368,0.0508,0.0200,0.0087,2025-06-09T13:54:29.068096
1049,0.0761,-0.7213,0.6744,271.950,256.060,250.250,0.01,0.0368,0.0254,0.0200,0.0174,2025-06-09T13:54:29.068096
1050,0.3689,0.2157,0.3353,232.575,224.210,198.205,0.01,0.0184,0.0508,0.0100,0.0087,2025-06-09T13:54:29.068096
1051,0.2006,0.8394,0.0620,246.190,228.340,160.230,0.00,0.0368,0.0254,0.0100,0.0174,2025-06-09T13:54:29.250609
1052,-0.1161,1.1136,0.1210,176.435,237.440,128.345,0.00,0.0368,0.0508,0.0200,0.0174,2025-06-09T13:54:29.250609
1053,-0.0571,1.2517,0.0468,155.995,196.630,104.720,0.00,0.0184,0.0508,0.0100,0.0087,2025-06-09T13:54:29.250609
1054,-0.1493,1.3044,-0.0634,144.760,117.320,74.725,0.00,0.0368,0.0508,0.0100,0.0087,2025-06-09T13:54:29.250609
1055,-0.0327,1.5299,-0.0786,141.225,67.760,38.045,0.01,0.0184,0.0254,0.0100,0.0087,2025-06-09T13:54:29.251578
1056,0.2250,1.7163,-0.0224,117.495,30.030,17.745,0.00,0.0184,0.0254,0.0100,0.0087,2025-06-09T13:54:29.251578
1057,0.4050,1.7280,-0.0307,107.030,5.705,3.535,0.00,0.0368,0.0254,0.0100,0.0000,2025-06-09T13:54:29.251578
1058,0.4607,1.7358,0.0556,92.260,-4.375,-12.390,0.00,0.0368,0.0254,0.0100,0.0174,2025-06-09T13:54:29.251578
1059,0.4919,1.6826,0.1552,71.575,5.145,-26.670,0.00,0.0184,0.0254,0.0100,0.0087,2025-06-09T13:54:29.251578
1060,0.2503,1.5840,0.2596,53.130,7.350,-41.580,0.00,0.0184,0.0508,0.0200,0.0087,2025-06-09T13:54:29.251578
1061,0.2040,1.4723,0.2923,41.650,-9.310,-48.125,0.00,0.0184,0.0254,0.0100,0.0087,2025-06-09T13:54:29.251578
1062,0.0756,1.4079,0.2987,28.000,-26.425,-51.205,0.01,0.0368,0.0508,0.0200,0.0087,2025-06-09T13:54:29.330365
1063,0.1069,1.3454,0.3284,20.720,-29.855,-56.980,0.00,0.0184,0.0254,0.0200,0.0087,2025-06-09T13:54:29.330365
1064,0.0761,1.2820,0.3548,5.810,-16.625,-60.935,0.00,0.0368,0.0254,0.0200,0.0087,2025-06-09T13:54:29.330365
1065,-0.0307,1.2283,0.4314,-8.890,-1.050,-63.280,0.00,0.0184,0.0508,0.0100,0.0174,2025-06-09T13:54:29.330365
1066,0.0903,1.1204,0.4480,-43.225,5.810,-56.490,0.01,0.0368,0.0254,0.0100,0.0174,2025-06-09T13:54:29.330365
1067,-0.3279,1.0697,0.4939,7.770,8.470,-57.505,0.01,0.0368,0.0508,0.0200,0.0087,2025-06-09T13:54:29.330365
1068,-0.2918,1.0009,0.5797,-43.155,-0.700,-54.740,0.00,0.0184,0.0254,0.0100,0.0087,2025-06-09T13:54:29.330365
1069,-0.4207,0.8808,0.5427,-0.315,-8.120,-50.890,0.00,0.0368,0.0254,0.0100,0.0087,2025-06-09T13:54:29.330365
1070,-0.3889,0.8716,0.5973,-56.980,-14.770,-40.950,0.00,0.0184,0.0508,0.0100,0.0174,2025-06-09T13:54:29.382228
1071,-0.3577,0.7788,0.6188,-0.910,-19.250,-33.915,0.00,0.0184,0.0508,0.0100,0.0087,2025-06-09T13:54:29.382228
1072,-0.2006,0.7335,0.5846,-13.440,-4.305,-29.435,0.01,0.0368,0.0508,0.0200,0.0087,2025-06-09T13:54:29.382228
1073,-0.2547,0.7252,0.6159,-26.915,16.275,-26.215,0.00,0.0184,0.0254,0.0100,0.0174,2025-06-09T13:54:29.529540
1074,-0.3733,0.6925,0.5675,-13.580,20.685,-18.095,0.00,0.0184,0.0254,0.0200,0.0087,2025-06-09T13:54:29.529540
1075,-0.3792,0.7003,0.5529,-23.345,17.255,-8.995,0.01,0.0184,0.0508,0.0100,0.0087,2025-06-09T13:54:29.529540
1076,-0.4182,0.7096,0.5417,-22.050,1.540,0.350,0.00,0.0368,0.0508,0.0200,0.0174,2025-06-09T13:54:29.529540
1077,-0.3465,0.7701,0.5246,-19.355,-10.745,3.500,0.01,0.0368,0.0508,0.0200,0.0174,2025-06-09T13:54:29.529540
1078,-0.2913,0.8560,0.4817,-23.065,-10.080,1.645,0.01,0.0184,0.0254,0.0100,0.0087,2025-06-09T13:54:29.529540
1079,-0.2542,0.8677,0.4626,-30.940,-13.370,0.385,0.01,0.0368,0.0508,0.0100,0.0087,2025-06-09T13:54:29.529540
1080,-0.2342,0.9087,0.4948,-26.075,-12.950,1.960,0.01,0.0368,0.0508,0.0100,0.0087,2025-06-09T13:54:29.529540
1081,-0.2586,0.8965,0.5275,-38.010,-6.230,2.905,0.00,0.0184,0.0508,0.0100,0.0087,2025-06-09T13:54:29.529540
1082,-0.2884,0.8662,0.5710,-42.350,1.365,5.460,0.01,0.0184,0.0508,0.0200,0.0087,2025-06-09T13:54:29.529540
1083,-0.3294,0.8223,0.5836,-43.890,6.720,9.975,0.00,0.0184,0.0508,0.0100,0.0087,2025-06-09T13:54:29.529540
1084,-0.3543,0.7974,0.5983,-50.505,16.170,16.940,0.01,0.0184,0.0508,0.0200,0.0087,2025-06-09T13:54:29.529540
1085,-0.3845,0.7798,0.6017,-47.495,21.000,22.225,0.01,0.0368,0.0254,0.0200,0.0087,2025-06-09T13:54:29.645230
1086,-0.4226,0.7608,0.7008,-72.590,26.250,29.645,0.00,0.0368,0.0508,0.0100,0.0174,2025-06-09T13:54:29.645230
1087,-0.4743,0.7379,0.7261,-60.620,20.895,36.470,0.01,0.0184,0.0508,0.0200,0.0087,2025-06-09T13:54:29.645230
1088,-0.4607,0.7003,0.7300,-72.450,14.595,40.775,0.01,0.0368,0.0508,0.0100,0.0087,2025-06-09T13:54:29.645230
1089,-0.3802,0.7008,0.7427,-61.880,12.040,43.680,0.00,0.0368,0.0508,0.0200,0.0087,2025-06-09T13:54:29.645230
1090,-0.3143,0.6866,0.7530,-59.745,14.910,45.675,0.01,0.0184,0.0254,0.0200,0.0087,2025-06-09T13:54:29.645230
1091,-0.3099,0.6720,0.8032,-64.365,19.600,47.425,0.00,0.0184,0.0508,0.0100,0.0087,2025-06-09T13:54:29.645230
1092,-0.3318,0.6432,0.8208,-58.030,19.915,48.230,0.00,0.0368,0.0508,0.0100,0.0174,2025-06-09T13:54:29.645230
1093,-0.3172,0.6154,0.8184,-59.710,21.420,48.930,0.00,0.0368,0.0508,0.0100,0.0087,2025-06-09T13:54:29.839749
1094,-0.3235,0.5929,0.8447,-51.100,22.960,50.155,0.00,0.0368,0.0508,0.0100,0.0087,2025-06-09T13:54:29.839749
1095,-0.3509,0.5661,0.8657,-52.850,22.330,52.955,0.00,0.0368,0.0508,0.0100,0.0087,2025-06-09T13:54:29.839749
1096,-0.3684,0.5388,0.8706,-46.515,14.665,55.195,0.00,0.0368,0.0254,0.0100,0.0087,2025-06-09T13:54:29.839749
1097,-0.3201,0.5363,0.8716,-43.505,11.340,57.085,0.00,0.0368,0.0508,0.0100,0.0087,2025-06-09T13:54:29.839749
1098,-0.2679,0.5324,0.8550,-41.230,13.230,57.365,0.00,0.0000,0.0254,0.0100,0.0087,2025-06-09T13:54:29.839749
1099,-0.2455,0.5124,0.8413,-40.600,17.710,57.155,0.00,0.0184,0.0254,0.0100,0.0087,2025-06-09T13:54:29.839749
1100,-0.2552,0.5022,0.8433,-39.760,21.280,56.210,0.00,0.0368,0.0254,0.0200,0.0087,2025-06-09T13:54:29.839749
1101,-0.2679,0.4860,0.8111,-40.810,19.215,54.460,0.00,0.0184,0.0508,0.0200,0.0087,2025-06-09T13:54:29.966385
1102,-0.2699,0.4587,0.7998,-40.110,16.800,52.045,0.00,0.0184,0.0508,0.0100,0.0087,2025-06-09T13:54:29.966385
1103,-0.2469,0.4763,0.8111,-41.755,16.870,48.755,0.00,0.0184,0.0254,0.0200,0.0087,2025-06-09T13:54:29.966385
1104,-0.2396,0.4782,0.8008,-44.100,17.605,45.885,0.01,0.0184,0.0254,0.0100,0.0087,2025-06-09T13:54:29.966385
1105,-0.2586,0.4773,0.8028,-47.495,16.100,43.190,0.01,0.0184,0.0254,0.0100,0.0174,2025-06-09T13:54:29.966385
1106,-0.2660,0.4768,0.8335,-49.805,12.285,41.125,0.00,0.0000,0.0254,0.0100,0.0000,2025-06-09T13:54:29.966385
1107,-0.2845,0.4612,0.8340,-51.765,6.720,38.115,0.00,0.0368,0.0508,0.0200,0.0087,2025-06-09T13:54:29.966385
1108,-0.2679,0.4499,0.8442,-52.570,-0.140,35.385,0.01,0.0368,0.0508,0.0200,0.0087,2025-06-09T13:54:29.966385
1109,-0.2362,0.4221,0.8594,-53.445,-4.025,33.040,0.01,0.0368,0.0254,0.0100,0.0087,2025-06-09T13:54:29.966385
1110,-0.2142,0.4148,0.8838,-53.305,-4.445,30.800,0.01,0.0368,0.0254,0.0100,0.0174,2025-06-09T13:54:29.966385
1111,-0.2035,0.4089,0.8974,-53.410,-2.590,28.280,0.00,0.0368,0.0254,0.0200,0.0174,2025-06-09T13:54:29.966385
1112,-0.2045,0.4060,0.9023,-53.865,-0.280,25.340,0.00,0.0184,0.0254,0.0100,0.0087,2025-06-09T13:54:29.966385
1113,-0.2089,0.3977,0.9033,-53.480,-0.035,23.625,0.00,0.0184,0.0254,0.0100,0.0174,2025-06-09T13:54:29.966385
1114,-0.2289,0.3972,0.9150,-52.255,-2.695,22.225,0.00,0.0184,0.0254,0.0100,0.0087,2025-06-09T13:54:29.966385
1115,-0.2352,0.3948,0.9082,-51.240,-8.365,21.280,0.00,0.0368,0.0508,0.0200,0.0087,2025-06-09T13:54:29.996307
1116,-0.2245,0.4070,0.8974,-50.050,-12.775,20.720,0.00,0.0368,0.0508,0.0200,0.0174,2025-06-09T13:54:29.996307
1117,-0.1845,0.4187,0.8877,-49.420,-14.490,20.510,0.01,0.0184,0.0762,0.0100,0.0087,2025-06-09T13:54:29.996307
1118,-0.1776,0.4426,0.8901,-50.085,-12.495,20.090,0.00,0.0184,0.0254,0.0200,0.0087,2025-06-09T13:54:30.054154
