SeqNum,AccX,AccY,AccZ,GyroX,GyroY,GyroZ,Flex,Force1,Force2,Force3,Force4,TimestampReception
1,-0.0024,0.2611,1.0024,0.070,-3.150,0.070,470,415,251,383,380,2025-05-28T14:07:50.810618
2,-0.0029,0.2591,1.0024,0.035,-3.185,0.070,434,366,246,396,386,2025-05-28T14:07:50.810618
3,-0.0005,0.2606,1.0033,0.035,-3.115,0.105,436,366,323,376,399,2025-05-28T14:07:50.810618
4,-0.0034,0.2591,1.0014,-0.035,-3.185,0.035,406,392,319,391,405,2025-05-28T14:07:50.810618
5,-0.0015,0.2601,1.0019,0.070,-3.045,0.035,421,426,347,402,391,2025-05-28T14:07:50.810618
6,-0.0010,0.2630,1.0043,0.035,-3.115,0.140,427,427,362,388,369,2025-05-28T14:07:50.810618
7,0.0000,0.2591,1.0024,0.035,-3.115,0.035,415,432,371,393,337,2025-05-28T14:07:50.810618
8,-0.0015,0.2606,1.0019,0.000,-3.150,0.035,409,428,346,397,386,2025-05-28T14:07:50.810618
9,-0.0020,0.2582,1.0014,0.105,-3.150,0.070,396,402,351,403,382,2025-05-28T14:07:50.810618
10,-0.0010,0.2601,1.0038,0.035,-3.150,0.140,433,400,331,405,389,2025-05-28T14:07:50.810618
11,-0.0005,0.2625,1.0038,0.000,-3.185,0.000,421,426,368,390,345,2025-05-28T14:07:50.810618
12,-0.0005,0.2582,1.0028,0.070,-3.115,0.070,423,436,332,400,346,2025-05-28T14:07:50.810618
13,-0.0034,0.2611,1.0038,0.000,-3.115,0.070,421,420,325,410,386,2025-05-28T14:07:50.810618
14,0.0000,0.2640,1.0014,0.070,-3.115,0.105,363,410,361,416,384,2025-05-28T14:07:50.810618
15,-0.0005,0.2616,1.0038,0.000,-3.185,0.140,365,400,366,407,383,2025-05-28T14:07:50.810618
16,-0.0024,0.2591,1.0038,0.035,-3.185,0.070,403,348,378,364,398,2025-05-28T14:07:50.810618
17,-0.0024,0.2591,1.0024,0.000,-3.185,0.105,421,386,369,371,389,2025-05-28T14:07:50.810618
18,-0.0020,0.2616,1.0028,0.105,-3.150,0.070,424,355,371,384,347,2025-05-28T14:07:50.810618
19,-0.0029,0.2630,1.0028,0.035,-3.115,0.070,399,388,375,394,380,2025-05-28T14:07:50.810618
20,-0.0010,0.2596,1.0043,0.035,-3.150,0.105,403,412,347,403,378,2025-05-28T14:07:50.810618
21,-0.0010,0.2601,1.0033,0.000,-3.115,0.140,422,405,363,391,386,2025-05-28T14:07:50.810618
22,0.0000,0.2606,1.0014,0.035,-3.185,0.105,418,418,368,410,395,2025-05-28T14:07:50.810618
23,0.0010,0.2591,1.0014,0.035,-3.220,0.105,404,399,327,420,355,2025-05-28T14:07:50.810618
24,0.0000,0.2611,1.0038,0.070,-3.045,0.105,394,428,351,389,365,2025-05-28T14:07:51.064437
25,-0.0015,0.2606,1.0028,-0.035,-3.115,-0.035,408,429,370,417,396,2025-05-28T14:07:51.064437
26,0.0005,0.2596,1.0019,0.070,-3.080,0.105,355,397,373,404,374,2025-05-28T14:07:51.064437
27,-0.0029,0.2606,1.0014,0.070,-3.115,0.070,397,410,383,412,357,2025-05-28T14:07:51.068802
28,-0.0015,0.2596,1.0043,8.925,-3.150,0.105,405,401,377,345,375,2025-05-28T14:07:51.068802
29,-0.0034,0.2591,1.0043,0.070,-3.115,0.140,411,396,372,390,342,2025-05-28T14:07:51.068802
30,-0.0010,0.2606,1.0033,0.070,-3.115,0.175,407,338,370,389,363,2025-05-28T14:07:51.068802
31,-0.0024,0.2611,1.0024,0.070,-3.115,0.140,399,390,345,413,336,2025-05-28T14:07:51.068802
32,-0.0005,0.2601,1.0014,0.035,-3.185,0.070,419,406,357,411,368,2025-05-28T14:07:51.068802
33,-0.0010,0.2601,1.0033,0.070,-3.080,0.000,429,389,364,353,369,2025-05-28T14:07:51.068802
34,-0.0034,0.2621,1.0033,0.000,-3.010,0.070,419,428,298,377,374,2025-05-28T14:07:51.068802
35,-0.0039,0.2582,1.0024,0.000,-3.115,0.000,419,424,347,339,380,2025-05-28T14:07:51.068802
36,-0.0015,0.2606,1.0063,0.000,-3.185,0.105,426,403,367,386,388,2025-05-28T14:07:51.068802
37,-0.0010,0.2596,1.0004,0.035,-3.255,0.105,409,421,368,389,379,2025-05-28T14:07:51.068802
38,0.0010,0.2616,1.0053,0.035,-3.115,0.140,411,392,377,386,378,2025-05-28T14:07:51.068802
39,-0.0005,0.2611,1.0028,-0.035,-3.150,0.035,379,405,367,382,378,2025-05-28T14:07:51.069795
40,-0.0005,0.2616,1.0024,0.000,-3.080,0.035,303,405,367,381,395,2025-05-28T14:07:51.069795
41,-0.0015,0.2606,1.0004,0.035,-3.080,0.070,385,410,364,404,408,2025-05-28T14:07:51.069795
42,-0.0005,0.2635,1.0048,0.105,-3.150,0.070,411,419,373,403,407,2025-05-28T14:07:51.069795
43,-0.0029,0.2591,1.0024,0.140,-3.115,0.000,424,437,376,412,406,2025-05-28T14:07:51.069795
44,-0.0015,0.2621,1.0043,0.000,-3.115,0.105,368,414,371,404,412,2025-05-28T14:07:51.070288
45,-0.0029,0.2591,1.0048,0.035,-3.115,0.000,413,397,376,404,357,2025-05-28T14:07:51.070288
46,-0.0010,0.2621,1.0048,-0.035,-3.150,0.105,431,424,349,383,394,2025-05-28T14:07:51.296957
47,-0.0005,0.2611,1.0033,0.000,-3.185,0.140,422,407,353,383,387,2025-05-28T14:07:51.296957
48,-0.0034,0.2611,1.0033,0.035,-3.115,0.000,412,430,339,388,364,2025-05-28T14:07:51.296957
49,-0.0024,0.2596,1.0014,0.000,-3.080,0.070,380,380,327,408,334,2025-05-28T14:07:51.296957
50,0.0005,0.2591,1.0033,0.035,-3.080,0.105,417,411,342,401,376,2025-05-28T14:07:51.296957
51,-0.0020,0.2601,1.0058,0.035,-3.150,0.070,403,396,359,388,397,2025-05-28T14:07:51.296957
52,-0.0005,0.2586,1.0019,0.035,-3.150,0.035,343,399,357,402,410,2025-05-28T14:07:51.296957
53,-0.0005,0.2586,1.0019,0.105,-3.150,0.035,404,351,363,410,366,2025-05-28T14:07:51.296957
54,-0.0029,0.2606,1.0033,0.035,-3.150,-0.035,379,382,375,403,386,2025-05-28T14:07:51.297956
55,-0.0015,0.2601,1.0009,0.070,-3.115,0.070,415,398,384,401,377,2025-05-28T14:07:51.297956
56,-0.0024,0.2601,1.0024,0.070,-3.080,0.070,413,421,377,391,378,2025-05-28T14:07:51.297956
57,-0.0020,0.2596,1.0028,0.035,-3.220,0.070,397,399,377,409,381,2025-05-28T14:07:51.297956
58,-0.0015,0.2611,1.0028,-0.035,-3.220,0.035,400,426,303,409,386,2025-05-28T14:07:51.297956
59,-0.0020,0.2621,1.0019,0.070,-3.150,0.105,399,429,348,355,375,2025-05-28T14:07:51.297956
60,-0.0020,0.2630,1.0024,0.070,-3.115,0.035,402,429,360,396,384,2025-05-28T14:07:51.297956
61,-0.0005,0.2601,1.0019,0.000,-3.080,0.000,353,407,324,303,386,2025-05-28T14:07:51.297956
62,-0.0010,0.2611,1.0019,0.035,-3.045,0.035,396,400,341,373,397,2025-05-28T14:07:51.297956
63,-0.0020,0.2611,1.0038,0.175,-3.150,0.070,345,412,358,342,398,2025-05-28T14:07:51.297956
64,-0.0010,0.2611,1.0033,0.000,-3.290,0.035,388,413,353,373,381,2025-05-28T14:07:51.297956
65,-0.0024,0.2591,1.0048,0.035,-3.255,0.175,402,429,373,373,404,2025-05-28T14:07:51.297956
66,-0.0005,0.2591,1.0024,0.035,-3.360,0.140,426,441,374,405,401,2025-05-28T14:07:51.297956
67,-0.0010,0.2601,1.0004,0.035,-3.080,0.070,394,411,369,398,406,2025-05-28T14:07:51.297956
68,0.0000,0.2582,1.0028,0.070,-3.045,0.035,395,413,358,348,406,2025-05-28T14:07:51.420682
69,-0.0005,0.2601,1.0024,0.000,-3.010,0.035,424,378,373,386,415,2025-05-28T14:07:51.420682
70,-0.0029,0.2625,1.0028,0.035,-3.045,0.000,407,385,375,381,385,2025-05-28T14:07:51.420682
71,-0.0024,0.2596,1.0033,0.000,-3.220,0.105,400,390,373,390,408,2025-05-28T14:07:51.420682
72,-0.0020,0.2611,1.0019,0.000,-3.150,0.035,423,411,362,405,393,2025-05-28T14:07:51.420682
73,-0.0020,0.2606,1.0033,0.035,-3.185,0.105,404,423,329,385,385,2025-05-28T14:07:51.421674
74,-0.0020,0.2601,1.0009,0.000,-3.255,0.105,416,439,360,397,390,2025-05-28T14:07:51.421674
75,0.0000,0.2616,1.0038,0.035,-3.080,0.070,408,361,358,350,355,2025-05-28T14:07:51.421674
76,-0.0010,0.2606,1.0019,0.035,-3.010,0.035,409,412,362,374,391,2025-05-28T14:07:51.421674
77,-0.0015,0.2591,1.0019,-0.035,-3.010,0.000,424,436,378,382,347,2025-05-28T14:07:51.421674
78,-0.0020,0.2606,1.0024,0.000,-3.080,0.105,423,419,384,413,382,2025-05-28T14:07:51.421674
79,-0.0029,0.2586,1.0033,0.000,-3.115,0.070,412,354,387,413,383,2025-05-28T14:07:51.697370
80,-0.0029,0.2611,1.0024,0.000,-3.150,0.105,396,373,379,420,347,2025-05-28T14:07:51.697370
81,-0.0024,0.2611,1.0019,0.000,-3.220,0.105,413,389,372,358,394,2025-05-28T14:07:51.697370
82,-0.0024,0.2616,1.0028,0.140,-3.185,0.175,423,399,361,399,393,2025-05-28T14:07:51.697370
83,0.0015,0.2606,1.0033,0.035,-3.150,0.210,431,421,374,349,339,2025-05-28T14:07:51.697370
84,-0.0024,0.2630,1.0019,-0.035,-3.150,0.105,353,422,368,377,379,2025-05-28T14:07:51.697370
85,-0.0005,0.2596,1.0028,0.105,-3.115,0.000,406,395,375,401,388,2025-05-28T14:07:51.697370
86,0.0010,0.2601,1.0019,0.035,-3.010,-0.035,423,425,375,392,358,2025-05-28T14:07:51.697370
87,-0.0029,0.2596,1.0028,0.000,-3.010,0.000,409,387,374,303,377,2025-05-28T14:07:51.697370
88,-0.0015,0.2591,1.0038,0.070,-3.115,0.070,401,422,369,388,391,2025-05-28T14:07:51.697370
89,-0.0015,0.2601,1.0009,0.070,-3.255,0.105,407,431,362,404,368,2025-05-28T14:07:51.697370
90,-0.0029,0.2591,1.0028,0.035,-3.115,0.105,350,421,355,407,378,2025-05-28T14:07:51.698367
91,-0.0024,0.2611,1.0028,0.035,-3.115,0.035,413,407,360,359,393,2025-05-28T14:07:51.698367
92,-0.0005,0.2616,1.0038,0.035,-3.150,0.105,343,386,330,338,403,2025-05-28T14:07:51.698367
93,-0.0024,0.2591,1.0014,0.070,-3.150,0.070,392,420,356,384,364,2025-05-28T14:07:51.698367
94,-0.0010,0.2611,1.0014,0.035,-3.045,0.000,305,430,374,399,393,2025-05-28T14:07:51.698367
95,0.0000,0.2601,1.0038,0.000,-3.080,0.070,407,415,377,393,393,2025-05-28T14:07:51.698367
96,-0.0020,0.2596,1.0053,0.035,-3.185,-0.070,399,427,364,391,400,2025-05-28T14:07:51.698367
97,-0.0029,0.2601,1.0033,0.070,-3.185,0.035,405,428,341,379,402,2025-05-28T14:07:51.698367
98,-0.0020,0.2611,1.0028,0.035,-3.185,0.070,404,421,352,391,413,2025-05-28T14:07:51.699364
99,-0.0020,0.2601,1.0028,0.000,-3.115,0.000,415,349,366,421,405,2025-05-28T14:07:51.699444
100,-0.0020,0.2616,1.0024,0.035,-3.115,0.140,399,392,343,388,348,2025-05-28T14:07:51.699444
101,-0.0024,0.2601,1.0033,0.035,-3.185,0.035,386,383,358,406,385,2025-05-28T14:07:51.965945
102,0.0005,0.2601,1.0053,0.105,-3.150,0.105,394,344,335,406,404,2025-05-28T14:07:51.965945
103,-0.0024,0.2621,1.0048,-0.035,-3.185,0.035,420,382,370,407,386,2025-05-28T14:07:51.969303
104,-0.0005,0.2611,1.0004,0.000,-3.220,0.000,412,421,377,408,401,2025-05-28T14:07:51.969303
105,-0.0010,0.2591,1.0028,0.070,-3.080,0.070,422,408,334,372,405,2025-05-28T14:07:51.969303
106,-0.0005,0.2582,1.0024,0.105,-3.150,0.000,437,421,357,337,387,2025-05-28T14:07:51.969303
107,-0.0029,0.2606,1.0033,0.000,-3.080,-0.035,414,423,365,387,407,2025-05-28T14:07:51.969303
108,-0.0024,0.2601,1.0014,0.070,-3.045,0.035,419,415,370,408,398,2025-05-28T14:07:51.969303
109,-0.0020,0.2611,1.0033,0.000,-3.080,0.105,415,340,300,410,404,2025-05-28T14:07:51.969303
110,-0.0029,0.2591,1.0019,-0.070,-3.185,0.070,364,417,335,392,409,2025-05-28T14:07:51.969303
111,-0.0039,0.2611,1.0043,0.035,-3.150,0.175,421,425,354,408,373,2025-05-28T14:07:51.969303
112,-0.0024,0.2601,1.0019,0.035,-3.115,0.000,431,410,329,408,339,2025-05-28T14:07:51.969303
113,0.0005,0.2621,1.0033,0.000,-3.220,0.140,411,417,339,407,374,2025-05-28T14:07:51.969303
114,-0.0029,0.2601,1.0014,0.035,-3.255,0.070,402,399,320,418,378,2025-05-28T14:07:51.969303
115,-0.0010,0.2596,1.0053,0.105,-3.115,0.140,424,383,343,405,376,2025-05-28T14:07:51.970298
116,-0.0005,0.2616,1.0028,0.035,-3.080,0.105,360,405,351,389,377,2025-05-28T14:07:51.970298
117,-0.0015,0.2625,1.0014,0.000,-3.115,0.035,422,360,316,366,379,2025-05-28T14:07:51.970298
118,-0.0010,0.2616,1.0014,0.000,-3.185,0.105,427,414,341,397,376,2025-05-28T14:07:51.970298
119,0.0000,0.2591,1.0019,0.000,-3.080,0.140,365,396,368,372,398,2025-05-28T14:07:51.970298
120,-0.0020,0.2616,1.0028,0.070,-3.010,0.070,412,405,375,333,390,2025-05-28T14:07:51.970298
121,-0.0010,0.2596,1.0033,-0.035,-3.115,0.035,419,395,373,382,392,2025-05-28T14:07:51.970298
122,0.0000,0.2591,1.0028,0.070,-3.115,0.035,406,397,361,388,402,2025-05-28T14:07:52.168283
123,-0.0020,0.2616,1.0028,0.000,-3.150,0.140,359,411,375,382,417,2025-05-28T14:07:52.168283
124,-0.0015,0.2601,1.0019,0.000,-3.185,0.175,333,410,340,389,389,2025-05-28T14:07:52.168283
125,-0.0005,0.2601,1.0024,0.070,-3.220,0.070,407,412,353,381,398,2025-05-28T14:07:52.168283
126,-0.0029,0.2582,1.0024,0.035,-3.115,0.105,381,398,372,367,384,2025-05-28T14:07:52.168283
127,0.0005,0.2606,1.0024,0.105,-3.150,0.070,379,423,375,376,398,2025-05-28T14:07:52.168283
128,-0.0020,0.2601,1.0038,0.035,-3.115,0.070,413,418,386,407,397,2025-05-28T14:07:52.168283
129,0.0005,0.2591,1.0038,0.000,-3.150,0.035,394,438,379,410,406,2025-05-28T14:07:52.168283
130,-0.0020,0.2621,1.0014,0.070,-3.150,0.035,405,413,337,411,398,2025-05-28T14:07:52.168283
131,-0.0024,0.2621,1.0033,-0.035,-3.185,0.070,428,422,368,410,403,2025-05-28T14:07:52.168283
132,-0.0010,0.2635,1.0033,-0.035,-3.220,0.105,425,408,328,406,362,2025-05-28T14:07:52.168283
133,-0.0005,0.2577,1.0028,0.070,-3.185,0.140,425,429,353,415,381,2025-05-28T14:07:52.168283
134,-0.0020,0.2591,1.0019,0.070,-3.185,0.105,433,430,375,401,383,2025-05-28T14:07:52.168283
135,-0.0010,0.2601,1.0024,0.000,-3.045,0.070,409,403,360,358,386,2025-05-28T14:07:52.168283
136,-0.0024,0.2601,1.0033,0.000,-2.975,0.000,380,425,329,385,383,2025-05-28T14:07:52.168283
137,-0.0034,0.2616,1.0043,0.000,-3.080,0.070,406,441,341,399,385,2025-05-28T14:07:52.168283
138,-0.0005,0.2601,1.0033,0.035,-3.150,0.070,428,388,363,383,384,2025-05-28T14:07:52.379461
139,-0.0005,0.2611,1.0033,-0.035,-3.290,0.070,421,391,369,404,393,2025-05-28T14:07:52.379461
140,-0.0020,0.2591,1.0038,0.035,-3.255,0.105,413,411,362,409,387,2025-05-28T14:07:52.379461
141,0.0010,0.2596,1.0024,0.105,-3.255,0.175,398,414,297,403,402,2025-05-28T14:07:52.379461
142,0.0000,0.2611,1.0024,0.070,-3.150,0.035,409,418,309,384,349,2025-05-28T14:07:52.379461
143,-0.0024,0.2625,1.0009,0.000,-3.080,-0.035,372,402,307,380,332,2025-05-28T14:07:52.379461
144,0.0000,0.2611,1.0043,0.000,-3.010,0.035,341,399,346,410,343,2025-05-28T14:07:52.379461
145,-0.0005,0.2596,1.0028,0.000,-3.080,0.035,393,394,354,389,381,2025-05-28T14:07:52.379461
146,-0.0010,0.2611,1.0033,0.035,-3.220,0.035,424,381,366,393,376,2025-05-28T14:07:52.379461
147,-0.0010,0.2586,1.0038,0.000,-3.220,0.210,433,402,369,392,399,2025-05-28T14:07:52.379461
148,-0.0005,0.2611,1.0028,0.105,-3.220,0.070,402,411,373,404,403,2025-05-28T14:07:52.379461
149,-0.0024,0.2596,1.0024,0.070,-3.150,0.105,410,403,364,401,399,2025-05-28T14:07:52.379461
150,-0.0029,0.2596,1.0033,0.035,-3.115,0.105,403,422,381,388,348,2025-05-28T14:07:52.379461
151,0.0010,0.2601,1.0028,0.070,-3.045,0.035,422,420,370,381,372,2025-05-28T14:07:52.604664
152,-0.0015,0.2625,1.0019,0.000,-3.010,0.035,401,422,342,407,380,2025-05-28T14:07:52.604664
153,-0.0029,0.2616,1.0053,0.035,-3.080,0.070,369,435,318,410,366,2025-05-28T14:07:52.604788
154,-0.0020,0.2596,1.0043,0.105,-3.115,-0.070,398,410,341,422,394,2025-05-28T14:07:52.604788
155,-0.0024,0.2611,1.0009,0.035,-3.150,0.140,399,394,350,318,391,2025-05-28T14:07:52.604788
156,-0.0020,0.2630,1.0028,-0.070,-3.220,0.105,399,422,367,381,402,2025-05-28T14:07:52.604788
157,-0.0010,0.2606,1.0038,0.000,-3.115,0.070,424,426,373,409,412,2025-05-28T14:07:52.604788
158,0.0000,0.2577,1.0038,-0.035,-3.185,0.070,383,404,380,308,409,2025-05-28T14:07:52.604788
159,-0.0005,0.2606,1.0024,0.105,-3.115,0.105,410,430,378,381,402,2025-05-28T14:07:52.604788
160,-0.0029,0.2611,1.0028,0.000,-3.115,0.175,407,416,346,402,355,2025-05-28T14:07:52.604788
161,0.0000,0.2601,1.0009,-0.070,-3.080,0.070,409,429,369,384,384,2025-05-28T14:07:52.604788
162,-0.0034,0.2596,1.0043,0.000,-3.150,-0.035,396,408,368,403,402,2025-05-28T14:07:52.604788
163,-0.0010,0.2621,1.0019,0.000,-3.185,0.035,417,421,379,401,397,2025-05-28T14:07:52.604788
164,-0.0034,0.2606,1.0028,0.070,-3.115,0.070,414,410,337,386,410,2025-05-28T14:07:52.604788
165,0.0010,0.2606,1.0028,0.000,-3.150,0.070,397,391,315,340,387,2025-05-28T14:07:52.604788
166,0.0000,0.2586,1.0028,0.105,-3.115,0.035,429,412,319,396,388,2025-05-28T14:07:52.604788
167,0.0000,0.2601,1.0043,0.035,-3.150,0.070,419,387,355,410,401,2025-05-28T14:07:52.604788
168,-0.0034,0.2606,1.0004,0.035,-3.220,0.070,399,407,365,393,404,2025-05-28T14:07:52.604788
169,-0.0024,0.2611,1.0024,0.070,-3.080,0.140,395,424,343,400,374,2025-05-28T14:07:52.604788
170,-0.0029,0.2591,1.0038,0.070,-3.115,0.070,431,426,360,416,351,2025-05-28T14:07:52.604788
171,-0.0020,0.2596,1.0033,-0.070,-3.220,0.035,352,402,376,394,391,2025-05-28T14:07:52.604788
172,-0.0034,0.2591,1.0028,0.000,-3.115,0.175,407,422,385,391,389,2025-05-28T14:07:52.604788
173,-0.0020,0.2616,1.0024,0.070,-3.150,0.105,345,413,384,399,388,2025-05-28T14:07:52.604788
174,-0.0005,0.2616,1.0028,0.105,-3.255,0.140,363,393,387,387,399,2025-05-28T14:07:52.604788
175,-0.0010,0.2586,1.0009,0.105,-3.185,0.035,417,400,389,390,359,2025-05-28T14:07:52.604788
176,0.0000,0.2611,1.0033,0.035,-3.045,0.070,414,408,383,399,380,2025-05-28T14:07:52.604788
177,0.0000,0.2611,1.0024,0.105,-3.185,0.070,421,391,385,399,397,2025-05-28T14:07:52.604788
178,-0.0005,0.2601,1.0024,-0.070,-3.150,0.035,392,373,377,394,410,2025-05-28T14:07:52.811124
179,0.0010,0.2601,1.0019,0.105,-3.115,0.105,422,339,382,410,414,2025-05-28T14:07:52.811124
180,-0.0010,0.2591,1.0038,0.035,-3.115,0.105,425,384,348,411,403,2025-05-28T14:07:52.811124
181,-0.0029,0.2601,1.0033,-0.035,-3.220,0.035,410,423,358,397,384,2025-05-28T14:07:52.811124
182,-0.0015,0.2616,1.0028,0.035,-3.115,0.140,428,437,357,414,347,2025-05-28T14:07:52.811124
183,-0.0010,0.2606,1.0028,0.035,-3.080,0.000,411,424,371,399,385,2025-05-28T14:07:52.811124
184,-0.0029,0.2611,1.0033,0.070,-3.080,0.140,419,404,379,346,378,2025-05-28T14:07:52.811124
185,-0.0015,0.2601,1.0009,-0.035,-3.220,0.105,382,346,376,379,400,2025-05-28T14:07:52.811124
186,-0.0024,0.2606,1.0058,0.035,-3.115,0.070,399,407,369,381,393,2025-05-28T14:07:52.811124
187,-0.0005,0.2586,0.9999,0.070,-2.975,0.105,411,401,361,392,390,2025-05-28T14:07:52.811124
188,-0.0015,0.2616,1.0019,0.035,-3.045,0.070,406,432,375,388,405,2025-05-28T14:07:52.811124
189,-0.0029,0.2591,1.0043,-0.035,-3.080,0.035,404,426,368,415,390,2025-05-28T14:07:52.811124
190,0.1225,0.2606,1.0028,0.070,-3.115,-0.035,426,352,345,392,397,2025-05-28T14:07:52.811124
191,-0.0010,0.2596,1.0028,0.035,-3.080,0.140,409,396,322,411,383,2025-05-28T14:07:52.811124
192,-0.0020,0.2635,1.0024,0.035,-3.220,0.070,424,410,347,411,402,2025-05-28T14:07:52.811124
193,-0.0010,0.2606,1.0024,-0.035,-3.185,0.070,430,426,367,409,389,2025-05-28T14:07:52.931109
194,0.0005,0.2616,1.0024,0.070,-3.255,0.035,410,428,332,378,400,2025-05-28T14:07:52.931109
195,-0.0005,0.2616,1.0028,0.000,-3.185,0.070,424,385,342,405,386,2025-05-28T14:07:52.931109
196,-0.0005,0.2591,1.0033,0.035,-3.080,0.000,414,423,358,359,401,2025-05-28T14:07:52.931109
197,-0.0020,0.2582,1.0019,0.070,-3.115,0.000,410,409,365,381,384,2025-05-28T14:07:52.931109
198,-0.0024,0.2616,1.0028,0.105,-3.080,0.070,385,411,361,402,306,2025-05-28T14:07:52.931109
199,0.0000,0.2601,1.0028,0.105,-3.150,0.105,421,402,379,406,363,2025-05-28T14:07:52.931109
200,-0.0020,0.2621,1.0028,0.000,-3.220,0.105,429,401,367,413,393,2025-05-28T14:07:52.931109
201,-0.0015,0.2606,1.0033,0.105,-3.185,0.175,421,403,370,419,383,2025-05-28T14:07:52.931109
202,-0.0034,0.2591,1.0033,0.105,-3.185,0.035,409,415,377,401,398,2025-05-28T14:07:52.931109
203,-0.0020,0.2606,1.0014,0.035,-3.080,0.035,419,424,371,406,392,2025-05-28T14:07:52.931109
204,-0.0015,0.2596,1.0009,0.000,-3.150,0.105,362,424,337,405,402,2025-05-28T14:07:52.931109
205,-0.0020,0.2596,1.0033,0.070,-3.080,0.035,416,365,354,404,349,2025-05-28T14:07:52.935918
206,-0.0024,0.2616,1.0028,0.070,-3.150,0.070,405,383,369,413,366,2025-05-28T14:07:52.935918
207,-0.0010,0.2616,1.0028,0.000,-3.185,0.070,417,410,384,374,373,2025-05-28T14:07:52.935918
208,-0.0015,0.2606,1.0033,-0.035,-3.115,0.105,352,410,371,371,376,2025-05-28T14:07:53.115251
209,-0.0029,0.2596,1.0028,0.035,-3.045,0.035,374,407,374,394,396,2025-05-28T14:07:53.115251
210,-0.0015,0.2596,1.0014,0.000,-3.080,0.105,396,427,373,409,401,2025-05-28T14:07:53.115551
211,-0.0015,0.2591,1.0028,0.035,-3.185,0.000,419,401,375,407,405,2025-05-28T14:07:53.115551
212,-0.0005,0.2621,1.0038,0.000,-3.150,0.105,410,347,370,308,370,2025-05-28T14:07:53.115551
213,0.0010,0.2616,1.0033,0.140,-3.150,0.000,386,416,341,317,337,2025-05-28T14:07:53.115551
214,-0.0024,0.2596,1.0019,0.070,-3.150,0.105,385,406,366,367,384,2025-05-28T14:07:53.115551
215,-0.0015,0.2601,1.0019,0.105,-3.115,0.105,414,350,336,376,390,2025-05-28T14:07:53.115551
216,-0.0024,0.2606,1.0028,0.070,-3.115,0.105,427,329,357,338,391,2025-05-28T14:07:53.115551
217,-0.0024,0.2616,1.0038,0.035,-3.150,0.035,396,406,332,390,350,2025-05-28T14:07:53.324445
218,-0.0029,0.2611,1.0038,0.070,-3.115,0.105,425,402,326,388,398,2025-05-28T14:07:53.324445
219,-0.0034,0.2625,1.0014,0.000,-3.080,0.105,406,397,349,392,411,2025-05-28T14:07:53.324445
220,-0.0029,0.2611,1.0028,0.000,-3.185,0.035,422,397,356,395,406,2025-05-28T14:07:53.324445
221,-0.0029,0.2611,1.0058,0.105,-3.150,0.140,429,404,376,306,415,2025-05-28T14:07:53.324445
222,-0.0015,0.2591,1.0038,0.070,-3.185,0.105,419,419,374,375,400,2025-05-28T14:07:53.324445
223,-0.0024,0.2630,1.0038,0.070,-3.115,0.035,382,428,380,403,390,2025-05-28T14:07:53.324445
224,-0.0015,0.2625,1.0009,0.000,-3.115,0.140,346,407,366,400,390,2025-05-28T14:07:53.324445
225,-0.0005,0.2601,1.0024,0.035,-3.115,0.070,354,399,332,389,402,2025-05-28T14:07:53.324445
226,-0.0024,0.2601,1.0043,0.105,-3.115,0.140,402,402,348,408,414,2025-05-28T14:07:53.324445
227,-0.0029,0.2611,1.0024,0.035,-3.115,0.140,414,430,369,396,391,2025-05-28T14:07:53.324445
228,-0.0024,0.2601,1.0033,-0.070,-3.185,0.140,421,424,367,403,404,2025-05-28T14:07:53.324445
229,0.0000,0.2616,1.0009,0.035,-3.115,0.035,365,407,329,340,307,2025-05-28T14:07:53.324445
230,-0.0029,0.2601,1.0053,-0.035,-3.115,0.070,411,410,358,365,373,2025-05-28T14:07:53.324445
231,0.0029,0.2674,1.0014,-8.890,-2.975,0.105,421,402,379,399,390,2025-05-28T14:07:53.324445
232,-0.0098,0.2479,1.0058,0.035,-2.975,0.070,407,382,339,403,395,2025-05-28T14:07:53.324445
233,-0.0020,0.2640,1.0019,0.105,-3.150,0.035,414,395,351,390,348,2025-05-28T14:07:53.324445
234,-0.0005,0.2616,1.0014,0.140,-3.115,0.105,428,383,363,396,353,2025-05-28T14:07:53.324445
235,-0.0029,0.2606,1.0038,-0.070,-3.115,0.105,428,391,355,399,382,2025-05-28T14:07:53.324445
236,-0.0024,0.2577,1.0019,0.035,-3.185,0.140,392,393,322,350,388,2025-05-28T14:07:53.324445
237,-0.0015,0.2625,1.0043,0.175,-3.430,0.175,398,300,346,335,402,2025-05-28T14:07:53.324445
238,-0.0010,0.2606,1.0014,0.000,-3.290,0.140,424,362,370,350,411,2025-05-28T14:07:53.460363
239,0.0034,0.2664,1.0087,0.070,-3.185,0.315,432,378,344,394,405,2025-05-28T14:07:53.460363
240,-0.0054,0.2464,0.9960,0.035,-3.185,-0.105,413,411,354,387,404,2025-05-28T14:07:53.460363
241,0.0015,0.2689,1.0053,0.105,-2.835,0.175,388,422,363,377,405,2025-05-28T14:07:53.460363
242,-0.0039,0.2596,1.0038,0.000,-3.045,0.105,419,418,372,398,357,2025-05-28T14:07:53.460363
243,-0.0039,0.2621,1.0033,0.070,-3.220,0.035,423,412,348,374,373,2025-05-28T14:07:53.460363
244,-0.0020,0.2621,1.0024,0.175,-3.080,0.105,402,409,358,396,342,2025-05-28T14:07:53.460363
245,-0.0024,0.2635,1.0043,0.000,-3.290,0.140,405,420,327,360,344,2025-05-28T14:07:53.460363
246,-0.0015,0.2582,0.9999,0.105,-3.465,0.105,426,410,314,354,391,2025-05-28T14:07:53.460363
247,0.0000,0.2635,1.0038,0.105,-3.290,0.140,349,413,347,376,399,2025-05-28T14:07:53.460363
248,-0.0010,0.2601,1.0009,0.035,-3.115,0.175,404,416,372,380,387,2025-05-28T14:07:53.460363
249,0.0005,0.2577,1.0033,0.175,-3.255,0.105,405,422,338,380,395,2025-05-28T14:07:53.460363
250,-0.0020,0.2621,1.0024,0.175,-3.255,0.175,415,397,359,410,415,2025-05-28T14:07:53.460363
251,-0.0015,0.2616,1.0033,0.070,-3.220,0.070,415,397,372,420,399,2025-05-28T14:07:53.460363
252,-0.0034,0.2601,1.0024,0.070,-3.395,0.175,396,411,332,418,411,2025-05-28T14:07:53.460363
253,-0.0010,0.2601,1.0033,0.035,-3.395,0.210,425,411,354,404,350,2025-05-28T14:07:53.549977
254,0.0005,0.2621,1.0033,0.000,-3.255,0.175,430,397,372,411,371,2025-05-28T14:07:53.549977
255,-0.0020,0.2586,1.0014,0.070,-3.220,0.105,395,399,376,354,383,2025-05-28T14:07:53.549977
256,-0.0015,0.2616,1.0028,0.140,-3.220,0.070,416,420,370,392,371,2025-05-28T14:07:53.549977
257,-0.0015,0.2601,1.0028,0.175,-3.185,0.210,430,401,378,410,388,2025-05-28T14:07:53.549977
258,-0.0034,0.2601,1.0024,0.210,-3.360,0.070,365,424,348,353,373,2025-05-28T14:07:53.549977
259,-0.0024,0.2640,1.0024,0.280,-3.605,0.350,413,419,356,354,391,2025-05-28T14:07:53.549977
260,0.0020,0.2655,0.9931,-0.770,-3.220,0.035,426,363,321,403,387,2025-05-28T14:07:53.871182
261,0.0034,0.2611,0.9897,-0.350,-2.975,0.070,395,414,351,396,384,2025-05-28T14:07:53.871182
262,0.0024,0.2533,1.0224,0.455,-2.835,-0.105,423,425,357,388,347,2025-05-28T14:07:53.872391
263,-0.0024,0.2591,0.9994,0.175,-2.380,-0.210,419,344,360,363,363,2025-05-28T14:07:53.872391
264,-0.0015,0.2704,0.9984,-0.070,-2.835,0.035,416,414,370,385,378,2025-05-28T14:07:53.872391
265,-0.0005,0.2625,1.0082,-0.280,-3.010,-0.105,433,398,369,340,396,2025-05-28T14:07:53.873386
266,-0.0015,0.2518,1.0082,-0.175,-2.765,-0.035,391,405,365,375,347,2025-05-28T14:07:53.873386
267,0.0000,0.2586,1.0053,0.070,-2.660,-0.105,418,430,369,384,392,2025-05-28T14:07:53.873386
268,-0.0029,0.2635,0.9999,0.280,-3.045,-0.140,399,396,371,394,390,2025-05-28T14:07:53.873386
269,-0.0020,0.2616,1.0014,-0.315,-2.940,-0.035,359,388,381,405,405,2025-05-28T14:07:53.873386
270,-0.0034,0.2596,1.0058,-0.035,-2.975,0.000,415,418,342,412,405,2025-05-28T14:07:53.873386
271,-0.0029,0.2586,1.0072,0.140,-3.220,0.070,416,380,370,418,369,2025-05-28T14:07:53.873386
272,-0.0024,0.2601,1.0004,-0.035,-3.150,8.925,422,387,367,396,342,2025-05-28T14:07:53.873386
273,0.0000,0.2645,0.9980,-0.140,-3.080,0.070,427,418,362,393,372,2025-05-28T14:07:53.873386
274,0.0010,0.2611,1.0014,-0.105,-2.835,-0.140,431,415,369,391,367,2025-05-28T14:07:53.873386
275,-0.0005,0.2582,1.0067,0.035,-2.625,0.000,349,403,374,409,384,2025-05-28T14:07:53.873386
276,-0.0029,0.2577,1.0077,0.140,-2.765,-0.035,400,353,337,418,401,2025-05-28T14:07:53.873386
277,-0.0063,0.2625,1.0004,0.140,-3.045,0.035,418,408,352,394,390,2025-05-28T14:07:53.873386
278,-0.0010,0.2621,1.0014,-0.140,-3.185,0.210,423,414,373,389,396,2025-05-28T14:07:53.876572
279,-0.0020,0.2586,1.0014,-0.035,-3.395,0.035,419,429,379,392,406,2025-05-28T14:07:53.952544
280,-0.0020,0.2621,1.0058,0.140,-3.290,0.140,421,397,364,366,388,2025-05-28T14:07:53.952544
281,-0.0005,0.2616,1.0014,0.000,-3.150,0.070,422,420,377,377,381,2025-05-28T14:07:53.952544
282,0.0005,0.2606,0.9989,-0.140,-3.185,0.035,412,430,368,360,345,2025-05-28T14:07:53.952544
283,-0.0010,0.2582,1.0063,0.000,-3.010,0.035,418,407,380,336,381,2025-05-28T14:07:53.952544
284,-0.0044,0.2586,1.0038,0.035,-2.940,0.035,426,344,381,370,346,2025-05-28T14:07:53.952544
285,-0.0029,0.2577,1.0014,0.105,-2.975,0.035,377,390,378,405,389,2025-05-28T14:07:53.952544
286,-0.0034,0.2635,1.0014,0.035,-3.150,0.105,401,386,383,416,348,2025-05-28T14:07:53.952544
287,-0.0039,0.2621,1.0048,0.000,-3.150,0.105,368,389,380,400,346,2025-05-28T14:07:53.952544
288,-0.0029,0.2567,1.0048,-0.035,-3.220,0.070,409,399,375,397,380,2025-05-28T14:07:53.952544
289,-0.0020,0.2606,1.0024,0.105,-3.290,0.175,422,423,384,414,400,2025-05-28T14:07:53.952544
290,0.0015,0.2606,1.0014,-0.035,-3.080,0.105,416,415,380,372,367,2025-05-28T14:07:53.952544
291,-0.0029,0.2586,1.0019,0.035,-3.045,0.000,413,421,374,335,375,2025-05-28T14:07:53.952544
292,-0.0010,0.2625,1.0038,0.070,-2.940,0.070,403,421,378,396,401,2025-05-28T14:07:53.952544
293,-0.0029,0.2591,1.0043,0.070,-2.940,0.105,416,375,374,402,407,2025-05-28T14:07:53.952544
294,-0.0034,0.2596,1.0038,0.070,-3.185,-0.035,426,426,371,391,402,2025-05-28T14:07:54.305258
295,-0.0054,0.2606,1.0019,0.210,-3.220,0.105,352,369,372,412,402,2025-05-28T14:07:54.305258
296,-0.0049,0.2572,1.0028,0.175,-3.465,0.210,411,413,378,422,398,2025-05-28T14:07:54.306154
297,-0.0010,0.2669,1.0116,0.175,-3.535,0.315,399,417,388,425,412,2025-05-28T14:07:54.306154
298,-0.0073,0.2523,0.9994,0.175,-3.745,0.245,359,415,343,400,375,2025-05-28T14:07:54.306154
299,-0.0015,0.2660,1.0033,0.210,-3.605,0.420,415,428,352,392,344,2025-05-28T14:07:54.306154
300,0.0000,0.2621,1.0009,0.140,-3.500,0.315,404,424,371,388,379,2025-05-28T14:07:54.306154
301,0.1244,0.2582,1.0019,0.175,-3.465,0.140,393,397,373,391,382,2025-05-28T14:07:54.481796
302,0.0010,0.2586,1.0033,0.175,-3.325,0.140,416,402,377,344,351,2025-05-28T14:07:54.481796
303,-0.0015,0.2621,1.0028,0.245,-3.290,0.210,415,389,363,370,371,2025-05-28T14:07:54.481796
304,-0.0010,0.2596,1.0048,0.140,-3.360,0.140,406,406,334,408,368,2025-05-28T14:07:54.481796
305,-0.0005,0.2586,1.0033,0.210,-3.325,0.000,390,394,365,412,342,2025-05-28T14:07:54.481796
306,0.0000,0.2650,1.0014,-0.140,-3.045,0.140,387,399,367,394,392,2025-05-28T14:07:54.481796
307,-0.0005,0.2596,1.0028,-0.210,-2.870,0.000,373,411,379,404,408,2025-05-28T14:07:54.481796
308,0.0000,0.2586,1.0014,-0.035,-2.765,-0.070,392,360,382,413,409,2025-05-28T14:07:54.481796
309,0.0000,0.2586,1.0028,-0.070,-2.590,-0.105,408,340,371,394,400,2025-05-28T14:07:54.481796
310,-0.0005,0.2621,0.9994,-0.105,-2.520,-0.175,374,337,369,392,366,2025-05-28T14:07:54.481796
311,-0.0010,0.2630,1.0043,-0.140,-2.695,-0.140,418,332,363,403,372,2025-05-28T14:07:54.482956
312,-0.0044,0.2577,1.0048,-0.105,-2.835,-0.070,379,391,371,409,387,2025-05-28T14:07:54.482956
313,-0.0044,0.2611,1.0009,0.000,-2.800,-0.035,405,392,332,412,389,2025-05-28T14:07:54.482956
314,-0.0034,0.2630,1.0038,0.000,-3.080,0.105,422,355,351,349,401,2025-05-28T14:07:54.482956
315,-0.0024,0.2591,1.0028,-0.070,-3.290,0.000,403,406,323,376,409,2025-05-28T14:07:54.531770
316,-0.0020,0.2562,1.0033,-0.035,-3.115,0.105,347,390,358,385,398,2025-05-28T14:07:54.531770
317,0.0024,0.2635,0.9999,-0.070,-3.045,-0.035,390,435,358,403,391,2025-05-28T14:07:54.531770
318,0.0024,0.2611,1.0024,-0.385,-2.800,-0.070,398,416,373,406,383,2025-05-28T14:07:54.531770
319,-0.0039,0.2542,1.0048,0.210,-2.905,0.035,418,419,330,416,404,2025-05-28T14:07:54.531770
320,-0.0054,0.2606,1.0053,0.280,-2.800,-0.070,409,423,346,412,375,2025-05-28T14:07:54.531770
321,-0.0049,0.2655,0.9965,-0.105,-3.045,0.035,413,423,359,404,399,2025-05-28T14:07:54.531770
322,-0.0039,0.2596,1.0038,-0.175,-3.465,0.070,340,379,327,382,395,2025-05-28T14:07:54.531770
323,-0.0024,0.2562,1.0087,0.175,-3.500,0.140,405,392,312,384,309,2025-05-28T14:07:54.531770
324,0.0005,0.2596,1.0048,0.105,-3.325,0.210,416,431,338,361,363,2025-05-28T14:07:54.531770
325,0.0015,0.2621,0.9975,0.000,-3.255,0.105,418,424,284,336,389,2025-05-28T14:07:54.531770
326,0.0010,0.2611,1.0033,0.000,-3.150,0.035,410,390,330,384,371,2025-05-28T14:07:54.531770
327,-0.0015,0.2582,1.0077,-0.105,-2.835,8.925,395,396,362,380,344,2025-05-28T14:07:54.531770
328,-0.0020,0.2582,1.0019,0.175,-2.800,0.035,415,415,355,402,391,2025-05-28T14:07:54.531770
329,-0.0049,0.2611,1.0038,0.140,-3.080,0.105,417,422,371,396,347,2025-05-28T14:07:54.531770
330,-0.0054,0.2596,1.0024,0.105,-3.220,0.140,419,433,358,391,371,2025-05-28T14:07:54.531770
331,-0.0049,0.2567,1.0033,0.245,-3.570,0.245,349,431,369,393,398,2025-05-28T14:07:54.531770
332,-0.0024,0.2645,1.0077,0.175,-3.570,0.385,385,413,376,417,409,2025-05-28T14:07:54.531770
333,-0.0034,0.2586,0.9984,0.210,-3.780,0.210,390,414,376,358,414,2025-05-28T14:07:54.531770
334,-0.0005,0.2635,1.0053,0.175,-3.535,0.385,383,410,381,398,403,2025-05-28T14:07:54.531770
335,0.0015,0.2586,1.0028,-0.105,-3.430,0.210,422,410,376,376,394,2025-05-28T14:07:54.531770
336,0.0029,0.2606,0.9999,0.140,-3.185,0.035,417,425,334,341,400,2025-05-28T14:07:54.765225
337,0.0005,0.2611,1.0024,0.070,-2.905,-0.035,428,415,361,367,403,2025-05-28T14:07:54.765225
338,-0.0024,0.2582,1.0009,0.070,-2.765,-0.105,394,419,375,376,352,2025-05-28T14:07:54.765225
339,-0.0059,0.2591,1.0033,0.070,-2.940,0.070,365,418,379,389,390,2025-05-28T14:07:54.765225
340,-0.0068,0.2586,1.0063,0.035,-3.150,0.035,390,380,384,365,377,2025-05-28T14:07:54.765225
341,-0.0029,0.2611,1.0019,0.000,-3.290,0.070,386,419,373,385,384,2025-05-28T14:07:54.765225
342,-0.0010,0.2606,1.0014,-0.175,-3.185,0.035,422,427,380,389,377,2025-05-28T14:07:54.765225
343,0.0005,0.2611,0.9989,-0.315,-3.045,-0.105,402,430,385,402,358,2025-05-28T14:07:54.765225
344,0.0020,0.2582,1.0028,0.000,-2.625,-0.070,423,408,343,398,340,2025-05-28T14:07:54.765225
345,-0.0039,0.2582,1.0063,0.140,-2.520,-0.315,367,419,349,408,325,2025-05-28T14:07:54.765225
346,-0.0020,0.2616,0.9999,0.070,-2.590,-0.210,338,401,353,393,383,2025-05-28T14:07:54.765225
347,-0.0059,0.2625,0.9999,-0.035,-2.835,0.035,408,380,324,414,398,2025-05-28T14:07:54.765225
348,-0.0039,0.2606,1.0072,-0.070,-3.220,0.035,396,357,349,416,366,2025-05-28T14:07:54.765225
349,-0.0024,0.2577,1.0024,-0.105,-3.325,0.140,419,408,334,362,378,2025-05-28T14:07:54.765225
350,0.0010,0.2601,1.0024,0.105,-3.115,0.140,426,395,352,384,391,2025-05-28T14:07:54.765225
351,-0.0024,0.2596,1.0038,0.000,-3.185,0.035,404,348,375,398,392,2025-05-28T14:07:54.765225
352,-0.0010,0.2577,1.0004,-0.070,-3.150,0.140,420,390,339,408,404,2025-05-28T14:07:54.765225
353,-0.1244,0.2616,1.0014,0.035,-3.080,0.070,401,386,353,393,390,2025-05-28T14:07:54.765225
354,-0.0005,0.2606,1.0038,0.070,-2.905,0.105,405,416,326,403,400,2025-05-28T14:07:54.765225
355,-0.0015,0.2601,1.0033,0.140,-3.010,-0.070,429,404,359,406,404,2025-05-28T14:07:54.765225
356,-0.0039,0.2596,1.0043,0.105,-3.150,0.000,423,421,362,395,397,2025-05-28T14:07:54.765225
357,-0.0034,0.2625,1.0004,-0.035,-3.045,0.105,423,412,370,411,393,2025-05-28T14:07:54.765225
358,-0.0020,0.2606,1.0067,-0.035,-3.220,0.140,417,412,374,418,400,2025-05-28T14:07:55.019027
359,-0.0044,0.2577,1.0028,0.105,-3.360,0.175,414,428,370,419,384,2025-05-28T14:07:55.019027
360,0.0000,0.2606,1.0014,0.070,-3.360,0.210,385,423,371,401,397,2025-05-28T14:07:55.019027
361,-0.0020,0.2621,1.0009,0.000,-3.255,0.070,395,403,375,388,384,2025-05-28T14:07:55.019027
362,0.0000,0.2611,1.0024,-0.035,-3.255,0.105,359,386,304,341,384,2025-05-28T14:07:55.019027
363,-0.0039,0.2596,1.0038,0.035,-3.080,0.070,417,396,346,396,389,2025-05-28T14:07:55.019027
364,-0.0034,0.2572,1.0028,0.105,-3.010,0.070,408,382,369,414,347,2025-05-28T14:07:55.019027
365,-0.0024,0.2616,1.0024,0.070,-3.080,0.035,399,402,380,370,385,2025-05-28T14:07:55.019027
366,-0.0034,0.2611,1.0048,-0.035,-3.150,0.070,400,346,373,375,386,2025-05-28T14:07:55.019027
367,-0.0020,0.2596,1.0033,0.070,-3.220,0.105,358,394,387,386,414,2025-05-28T14:07:55.019027
368,-0.0034,0.2591,1.0019,0.070,-3.360,0.105,386,431,373,405,399,2025-05-28T14:07:55.019027
369,0.0010,0.2621,1.0033,0.070,-3.290,0.210,393,421,371,390,408,2025-05-28T14:07:55.019027
370,-0.0005,0.2586,1.0038,0.000,-3.220,0.105,399,404,380,368,372,2025-05-28T14:07:55.019027
371,0.0005,0.2601,1.0019,0.035,-3.080,0.035,409,410,375,369,338,2025-05-28T14:07:55.019027
372,-0.0010,0.2611,1.0024,0.035,-3.045,0.070,422,414,387,378,372,2025-05-28T14:07:55.019027
373,-0.0020,0.2621,1.0014,0.035,-2.975,0.000,403,420,394,406,378,2025-05-28T14:07:55.019027
374,-0.0034,0.2611,1.0048,-0.070,-3.115,8.925,399,408,384,418,390,2025-05-28T14:07:55.019027
375,-0.0024,0.2596,1.0028,-0.035,-3.115,0.105,399,422,393,411,380,2025-05-28T14:07:55.019027
376,-0.0024,0.2601,1.0028,0.140,-3.185,0.105,358,402,383,403,383,2025-05-28T14:07:55.019027
377,-0.0049,0.2606,1.0028,0.000,-3.150,0.070,394,350,376,405,396,2025-05-28T14:07:55.019027
378,-0.0010,0.2596,1.0028,0.035,-3.255,0.070,419,408,377,396,408,2025-05-28T14:07:55.019027
379,-0.0010,0.2582,1.0043,0.105,-3.255,0.105,418,424,378,394,416,2025-05-28T14:07:55.019027
380,-0.0010,0.2601,1.0038,0.140,-3.115,0.000,418,407,374,392,398,2025-05-28T14:07:55.180485
381,0.0020,0.2611,1.0014,0.000,-3.115,0.000,422,426,388,390,407,2025-05-28T14:07:55.180485
382,-0.0024,0.2616,1.0019,0.000,-3.080,0.035,406,365,372,348,363,2025-05-28T14:07:55.180485
383,-0.0029,0.2601,1.0043,0.000,-2.905,0.105,411,410,377,381,397,2025-05-28T14:07:55.180485
384,-0.0049,0.2606,1.0038,-0.035,-3.080,0.070,346,421,371,403,394,2025-05-28T14:07:55.180485
385,-0.0034,0.2606,1.0058,0.070,-3.185,0.070,414,352,340,374,389,2025-05-28T14:07:55.180485
386,-0.0024,0.2616,1.0038,0.070,-3.255,0.140,404,396,357,383,398,2025-05-28T14:07:55.180485
387,-0.0020,0.2616,1.0009,0.070,-3.325,0.070,375,413,360,302,408,2025-05-28T14:07:55.180485
388,-0.0015,0.2625,1.0009,0.035,-3.185,0.035,406,387,359,371,378,2025-05-28T14:07:55.180485
389,-0.0020,0.2586,1.0019,0.070,-3.010,0.000,401,401,361,401,391,2025-05-28T14:07:55.180485
390,-0.0024,0.2611,1.0038,0.000,-3.045,0.105,407,418,367,406,347,2025-05-28T14:07:55.180485
391,-0.0015,0.2606,1.0048,0.105,-3.150,0.000,399,399,359,397,385,2025-05-28T14:07:55.180485
392,-0.0015,0.2606,1.0053,0.070,-3.150,0.105,414,418,363,400,403,2025-05-28T14:07:55.181485
393,-0.0015,0.2577,1.0043,0.000,-3.185,0.105,408,405,364,415,407,2025-05-28T14:07:55.181485
394,-0.0005,0.2591,1.0028,0.105,-3.150,0.070,400,428,370,427,398,2025-05-28T14:07:55.181485
395,-0.0020,0.2596,1.0019,0.035,-3.080,0.035,388,366,377,411,386,2025-05-28T14:07:55.181485
396,-0.0034,0.2611,1.0048,0.035,-3.045,0.105,400,397,338,401,376,2025-05-28T14:07:55.181485
397,0.0005,0.2601,1.0028,0.035,-3.115,0.070,395,411,362,360,342,2025-05-28T14:07:55.181485
398,-0.0020,0.2606,1.0019,0.070,-3.080,0.105,421,410,374,387,375,2025-05-28T14:07:55.347722
399,-0.0015,0.2611,1.0038,0.000,-3.185,0.140,418,382,331,402,360,2025-05-28T14:07:55.347722
400,-0.0024,0.2606,1.0033,-0.035,-3.255,0.175,417,412,283,403,375,2025-05-28T14:07:55.347722
401,-0.0020,0.2601,1.0019,0.140,-3.185,0.070,403,418,337,396,394,2025-05-28T14:07:55.348724
402,0.0005,0.2601,1.0028,0.070,-3.115,0.140,376,412,362,393,390,2025-05-28T14:07:55.348724
403,-0.0024,0.2606,1.0024,0.035,-2.905,-0.035,424,383,374,405,393,2025-05-28T14:07:55.348724
404,-0.0015,0.2611,1.0019,0.035,-2.975,-0.035,396,374,343,400,384,2025-05-28T14:07:55.348724
405,-0.0015,0.2582,1.0019,0.070,-3.045,0.070,422,427,364,422,393,2025-05-28T14:07:55.348724
406,-0.0015,0.2596,1.0038,0.000,-3.045,0.070,435,407,361,416,403,2025-05-28T14:07:55.348724
407,-0.0039,0.2586,1.0038,-0.105,-3.220,0.105,400,351,370,421,387,2025-05-28T14:07:55.573111
408,-0.0020,0.2611,1.0038,0.000,-3.150,0.070,426,405,374,415,390,2025-05-28T14:07:55.573111
409,-0.0024,0.2552,0.9994,0.105,-3.045,-0.140,393,427,378,400,408,2025-05-28T14:07:55.573111
410,-0.0039,0.2640,1.0087,-0.035,-2.835,0.140,398,407,363,387,387,2025-05-28T14:07:55.573111
411,-0.0029,0.2562,1.0033,0.000,-3.150,-0.035,407,390,374,399,399,2025-05-28T14:07:55.573111
412,0.0005,0.2611,1.0009,0.210,-3.115,0.105,426,419,362,368,394,2025-05-28T14:07:55.573111
413,-0.0068,0.2655,1.0063,0.140,-3.185,0.140,406,407,364,336,362,2025-05-28T14:07:55.573111
414,-0.0005,0.2572,1.0033,-0.035,-3.535,0.175,436,410,366,317,393,2025-05-28T14:07:55.573111
415,-0.0010,0.2586,0.9989,0.105,-3.465,0.210,401,412,373,378,414,2025-05-28T14:07:55.573111
416,0.0024,0.2664,1.0087,-0.035,-3.080,0.175,402,372,365,389,406,2025-05-28T14:07:55.573111
417,-0.0020,0.2538,0.9989,0.070,-3.220,-0.105,424,419,362,345,403,2025-05-28T14:07:55.573111
418,-0.0010,0.2616,1.0033,0.070,-2.835,0.000,410,407,360,333,407,2025-05-28T14:07:55.573111
419,-0.0044,0.2611,1.0072,-0.070,-2.695,-0.035,411,397,370,327,384,2025-05-28T14:07:55.573111
420,-0.0024,0.2562,1.0033,0.035,-3.045,0.000,404,393,362,324,404,2025-05-28T14:07:55.573111
421,-0.0020,0.2611,1.0033,0.175,-3.290,0.140,398,434,383,380,413,2025-05-28T14:07:55.573111
422,-0.0054,0.2621,1.0043,-0.140,-3.255,0.070,429,435,386,383,407,2025-05-28T14:07:55.573111
423,-0.0015,0.2611,1.0024,-0.035,-3.325,0.140,426,422,338,340,309,2025-05-28T14:07:55.573111
424,-0.0020,0.2606,1.0028,0.175,-3.290,0.000,431,428,365,379,359,2025-05-28T14:07:55.573111
425,0.0000,0.2601,1.0019,-0.035,-2.975,0.070,424,411,357,408,391,2025-05-28T14:07:55.573111
426,-0.0020,0.2606,1.0033,0.035,-2.975,0.035,349,415,359,411,378,2025-05-28T14:07:55.573111
427,-0.0029,0.2586,1.0053,0.105,-3.115,0.035,418,416,298,409,381,2025-05-28T14:07:55.573111
428,-0.0024,0.2616,1.0043,-0.035,-3.115,0.035,431,405,341,409,396,2025-05-28T14:07:55.573111
429,-0.0024,0.2606,1.0024,0.070,-3.080,0.035,419,408,372,362,400,2025-05-28T14:07:55.630073
430,-0.0059,0.2625,1.0024,0.070,-3.220,0.000,427,419,373,379,387,2025-05-28T14:07:55.630073
431,-0.0005,0.2601,1.0009,0.070,-3.045,0.070,417,389,374,403,398,2025-05-28T14:07:55.630073
432,-0.0010,0.2601,1.0053,0.035,-3.010,0.000,425,420,385,390,391,2025-05-28T14:07:55.630073
433,-0.0020,0.2591,1.0043,-0.035,-3.150,-8.960,413,404,351,342,401,2025-05-28T14:07:55.630073
434,-0.0024,0.2606,1.0033,0.070,-3.080,0.000,410,438,377,370,404,2025-05-28T14:07:55.630073
435,-0.0015,0.2616,1.0053,-0.035,-2.975,-0.035,370,417,361,380,351,2025-05-28T14:07:55.880513
436,-0.0029,0.2591,1.0009,-0.070,-2.940,-0.035,392,354,369,395,388,2025-05-28T14:07:55.880513
437,-0.0039,0.2630,1.0033,0.070,-2.870,-0.035,410,401,331,378,349,2025-05-28T14:07:55.880513
438,-0.0024,0.2606,1.0053,0.245,-3.010,0.210,370,417,356,394,375,2025-05-28T14:07:55.880513
439,-0.0063,0.2582,1.0092,0.175,-3.150,0.070,385,425,377,417,391,2025-05-28T14:07:55.880513
440,-0.0034,0.2655,0.9994,-0.105,-3.255,0.140,396,433,377,410,405,2025-05-28T14:07:55.880513
441,-0.0015,0.2635,1.0009,-0.140,-3.220,0.140,401,404,384,356,392,2025-05-28T14:07:55.880513
442,-0.0010,0.2547,1.0048,0.175,-3.255,0.000,399,390,385,381,392,2025-05-28T14:07:55.880513
443,-0.0020,0.2567,1.0043,0.245,-2.905,0.070,306,420,373,377,399,2025-05-28T14:07:55.880513
444,0.0000,0.2650,0.9999,-0.035,-2.800,0.035,322,349,371,395,383,2025-05-28T14:07:55.880513
445,-0.0005,0.2616,1.0072,-0.105,-2.835,0.000,323,404,347,400,344,2025-05-28T14:07:55.880513
446,-0.0020,0.2513,1.0009,-0.070,-2.870,-0.035,361,395,364,350,389,2025-05-28T14:07:55.880513
447,-0.0015,0.2635,1.0019,0.070,-2.520,0.105,397,338,369,377,401,2025-05-28T14:07:55.880513
448,-0.0073,0.2621,0.9999,-0.070,-2.765,0.035,396,347,358,412,410,2025-05-28T14:07:55.880513
449,-0.0029,0.2582,1.0019,-0.140,-2.940,0.035,401,374,364,375,395,2025-05-28T14:07:55.880513
450,-0.0029,0.2596,1.0033,0.000,-2.800,0.035,415,391,372,403,401,2025-05-28T14:07:55.880513
451,-0.0044,0.2606,1.0067,0.070,-2.835,0.105,426,403,376,401,392,2025-05-28T14:07:56.087716
452,-0.0029,0.2611,1.0014,0.070,-3.080,0.140,436,417,368,349,398,2025-05-28T14:07:56.088027
453,-0.0054,0.2572,1.0058,0.175,-3.605,0.245,425,400,333,390,387,2025-05-28T14:07:56.088027
454,0.0000,0.2645,0.9950,-0.070,-3.640,0.490,428,397,363,395,404,2025-05-28T14:07:56.088027
455,-0.0073,0.2645,1.0126,0.420,-3.920,0.175,418,432,329,340,361,2025-05-28T14:07:56.088027
456,0.0029,0.2577,0.8833,0.105,-3.815,-0.035,394,389,345,327,373,2025-05-28T14:07:56.088027
457,0.0000,0.2674,0.9970,-8.540,-2.345,0.105,417,410,320,330,341,2025-05-28T14:07:56.088027
458,-0.0020,0.2591,1.0146,0.000,-2.660,-0.035,430,414,354,387,372,2025-05-28T14:07:56.088027
459,-0.0063,0.2313,1.0067,0.070,-3.605,-0.140,402,408,361,405,399,2025-05-28T14:07:56.088027
460,0.0073,0.2694,0.9955,0.280,-2.660,0.035,404,405,367,410,360,2025-05-28T14:07:56.088027
461,0.0000,0.2704,1.0141,-0.315,-1.925,0.000,358,414,361,405,374,2025-05-28T14:07:56.088027
462,-0.0117,0.2523,0.9970,-0.245,-2.975,-0.210,353,418,377,400,390,2025-05-28T14:07:56.088027
463,-0.0083,0.2479,1.0102,1.015,-3.990,0.105,353,424,375,403,377,2025-05-28T14:07:56.088027
464,-0.0059,0.2679,1.0180,0.665,-3.640,0.280,393,406,335,402,393,2025-05-28T14:07:56.088027
465,-0.0020,0.2591,0.9960,-0.070,-4.235,0.140,346,366,321,402,389,2025-05-28T14:07:56.088027
466,0.0054,0.2679,0.9984,-0.175,-4.095,0.420,389,384,357,345,373,2025-05-28T14:07:56.088027
467,0.0024,0.2557,1.0033,-0.455,-3.150,0.210,392,423,362,377,337,2025-05-28T14:07:56.088027
468,0.0029,0.2538,1.0019,-0.035,-2.450,-0.210,373,348,381,385,373,2025-05-28T14:07:56.088027
469,-0.0015,0.2606,0.9980,0.455,-2.520,-0.525,387,398,332,386,354,2025-05-28T14:07:56.270072
470,-0.0010,0.2689,1.0038,0.070,-2.170,-0.350,426,431,352,416,394,2025-05-28T14:07:56.270072
471,-0.0005,0.2664,0.9931,-0.595,-1.820,0.000,349,412,330,417,398,2025-05-28T14:07:56.271246
472,-0.0146,0.2596,1.0077,-0.105,-2.520,0.245,417,409,351,391,397,2025-05-28T14:07:56.271246
473,-0.0112,0.2494,1.0165,0.455,-4.095,-0.035,419,423,366,404,408,2025-05-28T14:07:56.271246
474,-0.0010,0.2611,1.0067,0.385,-4.060,0.420,421,427,374,406,397,2025-05-28T14:07:56.271246
475,-0.0029,0.2645,0.9936,0.070,-3.640,0.210,420,431,368,353,388,2025-05-28T14:07:56.271246
476,0.0029,0.2640,0.9994,-0.175,-3.185,0.140,384,401,371,395,388,2025-05-28T14:07:56.271246
477,0.0024,0.2611,1.0063,-0.140,-2.835,0.105,404,372,378,400,385,2025-05-28T14:07:56.271246
478,-0.0029,0.2572,1.0058,0.035,-2.765,-0.140,411,413,336,411,394,2025-05-28T14:07:56.271246
479,-0.0024,0.2611,0.9999,0.210,-2.765,-0.070,394,423,355,405,403,2025-05-28T14:07:56.271246
480,-0.0063,0.2611,1.0058,0.140,-3.080,0.000,393,422,366,374,405,2025-05-28T14:07:56.271246
481,-0.0049,0.2586,1.0053,-0.070,-3.185,0.070,398,430,373,374,391,2025-05-28T14:07:56.271246
482,-0.0049,0.2601,1.0004,0.105,-3.290,0.035,337,422,379,392,394,2025-05-28T14:07:56.271246
483,-0.0024,0.2635,1.0019,-0.035,-3.045,0.210,407,434,342,349,398,2025-05-28T14:07:56.271246
484,-0.0029,0.2621,1.0024,-0.105,-3.150,0.105,409,423,359,383,387,2025-05-28T14:07:56.271246
485,-0.0024,0.2591,1.0043,0.140,-3.395,0.105,417,403,369,377,390,2025-05-28T14:07:56.469005
486,-0.0029,0.2591,1.0024,0.105,-3.220,0.000,418,402,368,350,401,2025-05-28T14:07:56.469005
487,-0.0029,0.2616,1.0009,0.000,-3.045,0.000,342,396,375,369,385,2025-05-28T14:07:56.469005
488,-0.0005,0.2616,1.0024,-0.035,-2.870,0.035,404,410,373,395,396,2025-05-28T14:07:56.469005
489,-0.0049,0.2606,1.0053,-0.070,-2.975,0.000,392,377,378,397,381,2025-05-28T14:07:56.469005
490,-0.0029,0.2582,1.0033,0.000,-3.115,0.175,395,341,376,412,383,2025-05-28T14:07:56.469005
491,-0.0029,0.2611,1.0019,0.140,-3.290,0.105,402,412,382,402,385,2025-05-28T14:07:56.469005
492,0.0010,0.2616,1.0043,0.000,-3.325,0.140,404,428,343,393,394,2025-05-28T14:07:56.469005
493,-0.0005,0.2582,1.0033,0.035,-3.220,0.070,422,403,364,393,400,2025-05-28T14:07:56.469005
494,-0.0010,0.2616,1.0019,0.070,-3.080,0.070,359,406,371,397,392,2025-05-28T14:07:56.469005
495,-0.0024,0.2586,1.0019,-0.035,-2.940,0.000,369,396,337,408,407,2025-05-28T14:07:56.469005
496,-0.0034,0.2621,1.0014,0.105,-2.975,0.000,403,381,360,367,407,2025-05-28T14:07:56.469005
497,-0.0034,0.2606,1.0053,0.035,-3.115,0.000,425,385,367,397,403,2025-05-28T14:07:56.469005
498,-0.0034,0.2616,1.0024,0.035,-3.115,0.035,420,422,371,403,409,2025-05-28T14:07:56.469005
499,-0.0054,0.2596,1.0043,0.105,-3.115,0.070,424,409,372,408,371,2025-05-28T14:07:56.469005
500,-0.0029,0.2611,1.0063,-0.035,-3.220,0.070,428,357,376,369,394,2025-05-28T14:07:56.469005
501,-0.0034,0.2567,1.0033,-0.070,-3.255,0.105,399,394,347,373,386,2025-05-28T14:07:56.469005
502,-0.0015,0.2591,1.0038,0.175,-3.185,0.035,429,402,373,399,343,2025-05-28T14:07:56.469005
503,-0.0005,0.2596,1.0024,0.035,-3.220,0.140,415,394,380,398,335,2025-05-28T14:07:56.469005
504,-0.0020,0.2621,1.0033,-0.070,-3.080,0.035,425,403,365,398,329,2025-05-28T14:07:56.469005
505,0.0000,0.2596,1.0024,0.000,-3.045,0.105,418,408,382,421,380,2025-05-28T14:07:56.469005
506,-0.0010,0.2621,1.0033,0.070,-3.010,0.070,423,398,385,417,380,2025-05-28T14:07:56.621856
507,-0.0020,0.2606,1.0014,0.000,-3.080,0.105,426,420,371,409,398,2025-05-28T14:07:56.621856
508,-0.0034,0.2606,1.0014,0.035,-3.150,0.105,391,418,343,409,402,2025-05-28T14:07:56.621856
509,-0.0010,0.2596,1.0038,0.000,-3.115,0.035,418,404,330,407,405,2025-05-28T14:07:56.621856
510,-0.0034,0.2586,1.0043,0.000,-3.220,0.035,343,340,364,400,351,2025-05-28T14:07:56.621856
511,-0.0034,0.2606,1.0004,0.070,-3.220,0.035,402,379,328,394,369,2025-05-28T14:07:56.621856
512,-0.0034,0.2616,1.0033,0.035,-3.115,0.105,395,390,362,400,344,2025-05-28T14:07:56.621856
513,-0.0020,0.2596,1.0028,0.000,-3.080,0.105,374,399,356,405,392,2025-05-28T14:07:56.621856
514,-0.0029,0.2596,1.0024,0.070,-3.045,0.000,400,393,362,403,398,2025-05-28T14:07:56.621856
515,-0.0034,0.2596,1.0033,0.070,-3.115,0.105,422,396,345,348,357,2025-05-28T14:07:56.621856
516,-0.0029,0.2616,1.0033,0.000,-3.010,0.105,419,399,345,366,372,2025-05-28T14:07:56.621856
517,-0.0024,0.2611,1.0014,0.035,-3.150,-0.035,380,383,370,343,332,2025-05-28T14:07:56.621856
518,-0.0044,0.2621,1.0024,0.035,-3.115,8.925,415,418,377,386,387,2025-05-28T14:07:56.621856
519,-0.0020,0.2601,1.0033,0.105,-3.080,0.140,397,433,378,403,400,2025-05-28T14:07:56.884842
520,-0.0049,0.2596,1.0038,-0.035,-3.220,0.070,344,410,373,403,387,2025-05-28T14:07:56.884842
521,-0.0015,0.2635,1.0033,0.035,-3.185,0.105,379,405,368,358,302,2025-05-28T14:07:56.884842
522,-0.0015,0.2606,1.0014,0.035,-3.115,0.035,408,379,356,337,374,2025-05-28T14:07:56.884842
523,-0.0015,0.2616,1.0033,0.035,-3.045,0.105,403,419,355,392,398,2025-05-28T14:07:56.884842
524,-0.0024,0.2621,1.0063,0.035,-3.150,-0.035,411,421,328,388,362,2025-05-28T14:07:56.884842
525,-0.0049,0.2611,1.0043,0.035,-3.150,0.035,395,410,359,409,391,2025-05-28T14:07:56.884842
526,-0.0020,0.2621,1.0028,0.035,-3.115,0.035,419,399,357,401,377,2025-05-28T14:07:56.887311
527,-0.0034,0.2616,1.0024,0.035,-3.115,0.140,402,412,360,390,390,2025-05-28T14:07:56.887311
528,-0.0039,0.2606,1.0033,0.070,-3.185,0.000,390,407,352,384,404,2025-05-28T14:07:56.887311
529,-0.0039,0.2621,1.0028,-0.035,-3.150,0.070,357,347,359,407,414,2025-05-28T14:07:56.888308
530,-0.0020,0.2582,1.0019,0.070,-3.185,0.140,395,400,370,412,409,2025-05-28T14:07:56.888308
531,-0.0039,0.2616,1.0038,0.000,-3.115,0.070,418,422,367,403,404,2025-05-28T14:07:56.888308
532,-0.0020,0.2596,1.0009,0.000,-3.010,0.000,365,349,371,405,396,2025-05-28T14:07:56.888308
533,0.1049,0.2499,0.7735,-7.280,4.585,-2.135,410,411,372,401,377,2025-05-28T14:07:56.888308
534,0.0766,0.2796,1.0624,-3.535,26.110,-6.335,419,400,303,384,385,2025-05-28T14:07:56.888308
535,0.0268,0.0961,1.2952,1.295,19.180,-13.265,418,394,342,409,394,2025-05-28T14:07:56.888308
536,-0.0249,0.2406,0.9091,3.185,15.680,-12.250,428,402,359,411,341,2025-05-28T14:07:56.888308
537,-0.1244,0.3392,0.9677,1.365,8.400,-6.090,430,400,341,403,385,2025-05-28T14:07:56.888308
538,-0.1171,0.3431,0.9487,-3.150,0.245,-2.205,423,340,320,364,384,2025-05-28T14:07:57.090383
539,-0.0903,0.2196,1.0648,-2.240,-8.785,0.175,367,387,351,405,391,2025-05-28T14:07:57.090383
540,-0.0517,0.2264,1.0585,0.210,-8.575,2.555,383,395,368,367,381,2025-05-28T14:07:57.090383
541,-0.0264,0.2650,0.9975,1.365,-8.295,3.045,424,398,367,404,393,2025-05-28T14:07:57.090383
542,-0.0039,0.2889,0.9628,-1.050,-10.885,2.590,428,379,381,408,405,2025-05-28T14:07:57.090383
543,-0.0117,0.2738,0.9984,-2.100,-10.395,2.240,398,403,364,394,348,2025-05-28T14:07:57.090383
544,0.0322,0.2440,0.9033,-14.490,18.410,0.665,430,401,358,409,371,2025-05-28T14:07:57.090383
545,-0.0234,0.2440,1.0497,-1.085,10.290,0.980,420,398,327,391,383,2025-05-28T14:07:57.090383
546,0.0400,0.2889,0.9355,-3.570,14.105,-3.010,413,413,358,415,402,2025-05-28T14:07:57.090383
547,-0.0049,0.2386,0.9780,-0.805,12.985,1.225,427,421,372,411,410,2025-05-28T14:07:57.090383
548,-0.0815,0.2577,1.1087,-5.250,23.660,-4.060,409,410,365,409,347,2025-05-28T14:07:57.090383
549,0.0449,0.2967,0.9506,-4.165,8.470,0.490,429,422,366,370,380,2025-05-28T14:07:57.090383
550,-0.0415,0.1684,1.1058,-4.445,11.060,-3.990,363,402,358,388,399,2025-05-28T14:07:57.090383
551,0.0264,0.2547,0.9618,-3.500,14.000,-2.765,408,303,372,387,403,2025-05-28T14:07:57.090383
552,-0.0527,0.2338,1.0180,-0.175,10.045,-5.040,414,356,369,386,409,2025-05-28T14:07:57.090383
553,-0.0766,0.2645,1.0297,-3.570,9.835,-4.305,417,403,371,408,388,2025-05-28T14:07:57.342789
554,-0.0742,0.2035,0.9789,-3.115,10.850,-2.485,435,410,340,378,369,2025-05-28T14:07:57.350789
555,-0.1210,0.2201,1.0560,-0.525,3.500,-1.610,414,356,282,344,332,2025-05-28T14:07:57.350789
556,-0.0839,0.2518,1.0072,-1.155,1.085,0.210,429,390,340,387,364,2025-05-28T14:07:57.350789
557,-0.1044,0.2777,0.9443,-1.400,0.035,1.260,398,399,354,394,384,2025-05-28T14:07:57.350789
558,-0.0605,0.2625,0.9833,-1.540,-6.405,1.435,429,387,360,389,390,2025-05-28T14:07:57.350789
559,-0.0503,0.2518,1.0038,-3.290,-1.120,1.715,389,413,370,415,385,2025-05-28T14:07:57.350789
560,-0.0098,0.2567,1.0355,-3.010,-5.390,1.785,405,406,369,397,385,2025-05-28T14:07:57.350789
561,-0.0444,0.2572,1.0185,-2.870,-0.560,-0.070,411,412,343,405,395,2025-05-28T14:07:57.350789
562,-0.0288,0.2503,0.9980,-1.540,1.295,-2.170,399,424,340,355,399,2025-05-28T14:07:57.350789
563,-0.0063,0.2386,0.9970,-0.560,1.680,-1.750,400,425,366,403,389,2025-05-28T14:07:57.350789
564,-0.0742,0.2694,1.0092,-0.910,5.040,-4.830,416,407,368,415,391,2025-05-28T14:07:57.350789
565,-0.0483,0.2503,0.9687,-0.140,6.160,-2.520,396,424,332,355,394,2025-05-28T14:07:57.350789
566,-0.0869,0.2264,0.9828,-0.035,3.115,-0.665,431,399,344,401,387,2025-05-28T14:07:57.350789
567,-0.0737,0.2420,1.0014,0.245,1.050,0.980,340,419,357,346,400,2025-05-28T14:07:57.350789
568,-0.0781,0.2547,1.0067,-0.700,-4.025,1.925,399,402,330,396,364,2025-05-28T14:07:57.350789
569,-0.1283,0.2503,0.9867,-2.625,-17.710,3.570,435,403,348,364,388,2025-05-28T14:07:57.350789
570,-0.0732,0.2294,1.0292,-0.525,-10.430,2.800,432,300,318,405,393,2025-05-28T14:07:57.350789
571,-0.0654,0.2386,1.0067,-0.560,-10.150,3.535,405,398,353,411,388,2025-05-28T14:07:57.350789
572,-0.0473,0.2547,1.0170,-0.525,-8.015,2.975,362,398,376,405,400,2025-05-28T14:07:57.350789
573,-0.0327,0.2669,0.9955,-1.295,-4.935,1.645,379,390,383,384,347,2025-05-28T14:07:57.526493
574,-0.0346,0.2499,1.0248,-0.455,-0.385,0.210,428,375,376,343,391,2025-05-28T14:07:57.526493
575,-0.0420,0.2225,1.0258,1.050,2.135,-0.455,346,409,379,369,384,2025-05-28T14:07:57.526878
576,-0.0639,0.2352,1.0097,2.345,6.615,-1.330,402,439,382,339,389,2025-05-28T14:07:57.526878
577,-0.0161,0.2621,0.9926,2.100,9.240,-1.890,418,406,373,364,401,2025-05-28T14:07:57.526878
578,-0.0371,0.2611,0.9872,1.505,5.950,-2.660,429,423,368,398,368,2025-05-28T14:07:57.526878
579,-0.0337,0.2435,0.9975,0.140,7.455,-2.380,427,347,375,393,335,2025-05-28T14:07:57.526878
580,-0.0669,0.2274,0.9950,0.595,6.475,-1.820,393,411,368,340,363,2025-05-28T14:07:57.526878
581,-0.1074,0.2196,1.0331,2.100,5.425,1.575,420,387,359,365,378,2025-05-28T14:07:57.527377
582,-0.0366,0.2664,1.0287,3.780,9.240,2.520,382,424,367,371,374,2025-05-28T14:07:57.527377
583,-0.0932,0.2704,0.9736,3.395,9.310,2.170,398,388,295,371,396,2025-05-28T14:07:57.527587
584,-0.0786,0.2962,1.0136,0.595,19.040,2.030,423,396,338,408,348,2025-05-28T14:07:57.527897
585,-0.0737,0.2474,0.9570,-0.560,15.750,5.005,371,415,352,367,363,2025-05-28T14:07:57.527897
586,-0.1049,0.2523,0.9887,-2.695,6.440,8.225,417,350,354,341,332,2025-05-28T14:07:57.527897
587,-0.1025,0.2616,0.9887,-4.760,0.910,9.905,408,404,357,369,388,2025-05-28T14:07:57.527897
588,-0.1186,0.2518,1.0111,-5.145,-8.015,8.190,428,424,339,385,391,2025-05-28T14:07:57.527897
589,-0.0698,0.2591,1.0385,-4.550,-8.295,8.225,428,365,358,404,410,2025-05-28T14:07:57.527897
590,-0.0761,0.2689,1.0058,-4.410,-7.595,8.015,425,382,372,392,413,2025-05-28T14:07:57.527897
591,-0.0771,0.2586,1.0307,-3.780,-7.805,5.950,412,345,368,346,413,2025-05-28T14:07:57.527897
592,-0.0659,0.2821,0.9911,-4.025,-5.845,9.240,387,378,375,384,368,2025-05-28T14:07:57.529193
593,-0.0205,0.3265,0.9902,-2.695,-1.610,4.305,428,419,363,400,378,2025-05-28T14:07:57.529193
594,-0.0317,0.2147,1.0150,-0.945,-1.680,1.260,415,410,380,412,359,2025-05-28T14:07:57.627252
595,-0.0322,0.1771,1.0258,-0.630,-1.435,1.505,424,350,380,306,368,2025-05-28T14:07:57.627252
596,-0.0605,0.1723,1.0131,0.840,-0.770,3.395,354,340,381,358,389,2025-05-28T14:07:57.627252
597,-0.1078,0.2050,1.0194,1.330,-0.280,5.600,405,391,378,373,399,2025-05-28T14:07:57.627252
598,-0.1186,0.1952,0.9906,1.190,-4.655,6.825,397,395,377,337,399,2025-05-28T14:07:57.627252
599,-0.1264,0.2050,1.0072,1.680,-8.085,11.690,419,417,377,371,406,2025-05-28T14:07:57.627252
600,-0.1635,0.2591,1.0024,1.855,-10.570,12.600,358,391,364,340,390,2025-05-28T14:07:57.627252
601,-0.1444,0.2630,0.9584,-1.470,-12.495,11.935,415,409,369,389,383,2025-05-28T14:07:57.748283
602,-0.0678,0.2777,1.0082,-4.830,-11.830,8.085,416,397,375,387,339,2025-05-28T14:07:57.748283
603,-0.0605,0.2562,1.0204,-5.985,-10.815,4.410,400,375,361,379,385,2025-05-28T14:07:57.748283
604,-0.0883,0.2381,1.0219,-6.195,-7.980,6.335,406,343,374,414,391,2025-05-28T14:07:57.865979
605,-0.0752,0.2572,1.0341,-3.850,-7.630,8.295,405,412,376,415,402,2025-05-28T14:07:57.865979
606,-0.0996,0.2621,1.0302,-2.590,-4.410,8.050,427,402,382,410,397,2025-05-28T14:07:57.865979
607,-0.1020,0.2704,0.9814,-0.875,-4.025,5.460,425,395,376,419,401,2025-05-28T14:07:57.865979
608,-0.1410,0.2718,1.0185,1.855,7.630,8.015,426,414,383,401,379,2025-05-28T14:07:57.865979
609,-0.0786,0.2050,1.0268,6.790,18.025,7.035,415,418,370,412,400,2025-05-28T14:07:57.865979
610,-0.0473,0.2284,1.0238,10.815,23.730,2.870,406,409,361,393,389,2025-05-28T14:07:57.865979
611,-0.0137,0.2445,0.9941,13.580,25.235,-6.055,416,405,358,412,346,2025-05-28T14:07:57.865979
612,0.0293,0.2220,0.9667,15.260,25.130,-18.165,417,413,358,404,288,2025-05-28T14:07:57.865979
613,0.0264,0.2503,0.9877,9.205,18.760,-18.060,378,418,332,396,353,2025-05-28T14:07:57.865979
614,-0.0254,0.2391,0.9862,6.160,16.975,-11.725,392,368,351,396,294,2025-05-28T14:07:57.865979
615,-0.0712,0.2377,1.0150,4.760,13.230,-5.950,393,381,317,405,308,2025-05-28T14:07:57.865979
616,-0.1025,0.2508,1.0033,4.900,11.060,-3.850,427,409,347,408,318,2025-05-28T14:07:57.865979
617,-0.1166,0.2572,0.9926,4.725,8.260,-1.575,429,424,329,410,322,2025-05-28T14:07:57.865979
618,-0.1415,0.2621,0.9848,4.795,7.070,1.155,367,398,315,414,339,2025-05-28T14:07:57.865979
619,-0.1288,0.2747,0.9745,2.940,2.940,2.905,401,427,358,409,364,2025-05-28T14:07:57.865979
620,-0.1157,0.2943,1.0263,1.120,-2.450,1.610,401,409,370,401,389,2025-05-28T14:07:57.865979
621,-0.1288,0.2806,0.9984,-1.820,-4.060,1.890,427,425,362,373,386,2025-05-28T14:07:57.865979
622,-0.1479,0.2987,0.9823,-3.990,-9.625,3.500,379,398,368,398,406,2025-05-28T14:07:57.865979
623,-0.1176,0.2542,0.9931,-3.360,-10.255,4.865,401,415,373,391,386,2025-05-28T14:07:57.865979
624,-0.1030,0.2420,1.0121,-3.150,-10.990,5.810,361,393,366,414,372,2025-05-28T14:07:58.094395
625,-0.1054,0.2782,0.9989,-3.185,-12.040,4.340,405,412,379,412,396,2025-05-28T14:07:58.094395
626,0.0332,0.3152,1.0077,-1.960,-14.350,5.950,385,426,382,374,357,2025-05-28T14:07:58.094395
627,-0.1176,0.3240,0.9794,-2.730,-18.795,-2.940,412,422,386,390,397,2025-05-28T14:07:58.094395
628,-0.0600,0.3070,0.9555,2.170,-20.405,10.640,402,387,381,385,384,2025-05-28T14:07:58.094395
629,-0.0576,0.2137,1.0321,0.175,-19.985,9.380,401,423,378,410,412,2025-05-28T14:07:58.094395
630,-0.1620,0.2391,1.0033,-0.875,-18.270,10.710,415,415,366,404,403,2025-05-28T14:07:58.094395
631,-0.1376,0.2596,0.9526,-4.655,-13.755,11.200,422,433,375,388,398,2025-05-28T14:07:58.094395
632,-0.0913,0.2250,1.0063,-6.370,-13.685,11.165,421,392,337,394,402,2025-05-28T14:07:58.094395
633,-0.0747,0.2220,1.0482,-4.655,-10.955,8.295,352,390,367,384,398,2025-05-28T14:07:58.094395
634,-0.0717,0.2298,1.0087,-3.885,-9.800,5.285,388,361,378,345,348,2025-05-28T14:07:58.096327
635,-0.0771,0.2142,1.0053,-2.345,-9.030,3.815,343,406,385,379,369,2025-05-28T14:07:58.096327
636,-0.0669,0.1879,1.0170,-2.135,-8.295,2.345,412,391,381,384,379,2025-05-28T14:07:58.096327
637,-0.0732,0.2230,0.9965,-2.765,-7.945,1.190,401,418,381,405,380,2025-05-28T14:07:58.096327
638,-0.0747,0.2494,0.9736,-4.340,-6.125,1.995,385,409,384,402,393,2025-05-28T14:07:58.096327
639,-0.0683,0.2430,1.0150,-5.530,-2.065,2.835,409,422,391,410,400,2025-05-28T14:07:58.096327
640,-0.0181,0.2445,1.0404,-0.945,3.010,1.190,406,412,389,391,387,2025-05-28T14:07:58.352390
641,-0.0093,0.2782,1.0106,0.175,8.645,-2.590,426,416,358,408,392,2025-05-28T14:07:58.352390
642,-0.0654,0.3089,1.0292,0.805,11.515,-12.530,428,422,372,384,353,2025-05-28T14:07:58.352390
643,0.4031,-1.3469,2.3741,-326.445,119.490,71.820,407,428,367,387,392,2025-05-28T14:07:58.352390
644,0.1903,0.4211,1.9954,-42.840,19.425,1.785,421,425,360,351,386,2025-05-28T14:07:58.352390
645,-0.3123,0.0200,0.6842,-19.740,15.435,5.565,381,407,366,398,365,2025-05-28T14:07:58.352390
646,-0.3187,0.1474,1.0648,5.565,11.305,14.805,386,350,333,393,398,2025-05-28T14:07:58.352390
647,-0.1976,0.1889,1.0604,3.815,-3.010,22.400,365,383,347,397,384,2025-05-28T14:07:58.352390
648,-0.0400,0.4558,0.9370,2.905,-11.095,16.380,390,365,363,409,383,2025-05-28T14:07:58.352390
649,0.0112,0.4612,0.9257,5.880,-13.545,5.845,419,416,361,393,399,2025-05-28T14:07:58.352390
650,0.0439,0.4431,0.9980,2.205,-11.900,0.315,397,420,366,403,406,2025-05-28T14:07:58.352390
651,0.0342,0.3616,0.9980,-0.105,-5.810,-0.455,344,399,356,411,397,2025-05-28T14:07:58.352390
652,-0.0376,0.2308,1.0214,-3.675,0.105,-4.585,411,402,372,420,367,2025-05-28T14:07:58.352390
653,-0.0015,0.2259,1.0580,-4.550,3.290,-7.210,415,408,370,419,379,2025-05-28T14:07:58.352390
654,-0.0020,0.2206,1.0697,-3.535,5.215,-12.215,390,354,343,397,380,2025-05-28T14:07:58.352390
655,-0.0996,0.1932,1.0799,5.495,8.645,-18.725,391,381,358,402,380,2025-05-28T14:07:58.352390
656,-0.0698,0.2284,0.9945,10.325,10.185,-17.360,421,396,361,396,397,2025-05-28T14:07:58.352390
657,-0.1240,0.2152,1.0121,10.640,11.025,-15.260,413,406,375,345,388,2025-05-28T14:07:58.352390
658,-0.1362,0.2001,1.0146,10.570,9.800,-13.440,397,415,378,373,378,2025-05-28T14:07:58.352390
659,-0.1742,0.1810,1.0277,10.955,7.490,-9.625,382,351,364,296,384,2025-05-28T14:07:58.352390
660,-0.1776,0.2006,0.9950,8.225,5.250,-6.475,354,409,374,384,393,2025-05-28T14:07:58.352390
661,-0.1737,0.2172,1.0038,9.030,2.450,-3.605,405,429,380,384,397,2025-05-28T14:07:58.352390
662,-0.1620,0.2059,1.0058,8.505,-1.050,-0.910,410,366,353,396,393,2025-05-28T14:07:58.474995
663,-0.1327,0.2303,0.9804,5.880,-8.085,-0.035,415,393,325,342,347,2025-05-28T14:07:58.476898
664,-0.1459,0.2357,0.9911,3.535,-16.030,0.945,431,418,316,384,389,2025-05-28T14:07:58.476898
665,-0.1269,0.2259,1.0004,0.035,-19.180,1.575,437,419,309,392,309,2025-05-28T14:07:58.476898
666,-0.1122,0.2152,1.0028,-2.415,-20.335,3.220,426,405,346,385,362,2025-05-28T14:07:58.476898
667,-0.0996,0.2133,1.0097,-2.100,-18.060,3.465,434,400,334,417,373,2025-05-28T14:07:58.476898
668,-0.0795,0.2211,1.0082,-1.785,-17.220,3.220,428,394,316,393,374,2025-05-28T14:07:58.476898
669,-0.0708,0.2186,1.0063,0.350,-17.745,3.150,414,342,336,406,356,2025-05-28T14:07:58.476898
670,-0.0669,0.2172,1.0106,0.595,-19.355,1.820,437,398,351,388,293,2025-05-28T14:07:58.476898
671,-0.0659,0.2152,1.0072,1.400,-21.280,1.610,398,423,356,344,372,2025-05-28T14:07:58.476898
672,-0.0722,0.2245,0.9970,1.960,-16.450,0.140,429,428,358,340,377,2025-05-28T14:07:58.476898
673,-0.0610,0.2318,0.9911,-0.105,-23.275,1.540,419,416,325,374,405,2025-05-28T14:07:58.696267
674,-0.0708,0.2342,0.9980,0.840,-25.550,-1.645,404,377,349,380,386,2025-05-28T14:07:58.696267
675,-0.0415,0.2123,0.9999,0.070,-12.075,0.070,422,430,333,402,389,2025-05-28T14:07:58.696267
676,-0.0673,0.2133,1.0067,0.315,-10.675,-0.700,410,407,345,387,345,2025-05-28T14:07:58.698991
677,-0.0703,0.2269,1.0077,-0.840,-7.630,-1.715,425,396,354,398,372,2025-05-28T14:07:58.698991
678,-0.0688,0.2289,1.0121,-1.540,-3.045,-0.735,418,420,361,408,389,2025-05-28T14:07:58.698991
679,-0.1083,0.2206,1.0146,2.415,-12.110,-0.910,423,415,329,412,359,2025-05-28T14:07:58.698991
680,-0.0698,0.2196,1.0165,2.975,-9.695,0.385,424,424,349,401,368,2025-05-28T14:07:58.698991
681,-0.0610,0.2352,1.0053,0.175,-2.940,1.785,432,403,359,392,379,2025-05-28T14:07:58.698991
682,-0.0771,0.2264,1.0072,0.245,-7.665,0.490,405,400,376,386,400,2025-05-28T14:07:58.700035
683,-0.0454,0.2186,1.0131,0.595,-6.300,0.210,421,395,378,345,340,2025-05-28T14:07:58.700035
684,-0.0581,0.2216,1.0116,0.525,-3.255,0.350,407,383,368,346,365,2025-05-28T14:07:58.700035
685,-0.0644,0.2274,1.0106,0.490,-3.675,-0.245,346,396,369,385,397,2025-05-28T14:07:58.700035
686,-0.0620,0.2264,1.0087,0.525,-4.060,0.175,384,374,329,399,378,2025-05-28T14:07:58.700035
687,-0.0654,0.2240,1.0155,0.210,-3.990,0.350,358,338,364,406,397,2025-05-28T14:07:58.700035
688,-0.0639,0.2230,1.0082,0.350,-4.515,0.385,409,408,343,384,405,2025-05-28T14:07:59.033145
689,-0.0595,0.2230,1.0072,0.455,-4.480,0.350,411,422,367,401,395,2025-05-28T14:07:59.033145
690,-0.0576,0.2264,1.0116,0.175,-3.885,0.140,417,426,335,386,404,2025-05-28T14:07:59.033145
691,-0.0605,0.2230,1.0106,0.280,-3.640,0.035,311,411,360,409,402,2025-05-28T14:07:59.033145
692,-0.0625,0.2250,1.0116,0.350,-3.640,0.070,380,423,374,393,383,2025-05-28T14:07:59.033145
693,-0.0600,0.2269,1.0102,0.280,-3.815,0.140,397,427,364,409,385,2025-05-28T14:07:59.033145
694,-0.0610,0.2235,1.0097,0.245,-3.850,0.350,397,399,363,408,386,2025-05-28T14:07:59.033145
695,-0.0600,0.2235,1.0126,0.315,-3.850,0.280,361,339,373,396,379,2025-05-28T14:07:59.033145
696,-0.0605,0.2235,1.0092,0.280,-3.815,0.210,402,399,372,380,397,2025-05-28T14:07:59.033145
697,-0.0600,0.2245,1.0097,0.280,-3.535,0.140,430,419,371,397,401,2025-05-28T14:07:59.033145
698,-0.0610,0.2264,1.0121,0.245,-3.640,0.140,413,346,373,404,400,2025-05-28T14:07:59.033145
699,-0.0590,0.2274,1.0102,0.175,-3.640,0.175,433,388,340,410,403,2025-05-28T14:07:59.033145
700,-0.0605,0.2240,1.0131,0.245,-3.745,0.280,425,410,373,391,392,2025-05-28T14:07:59.033145
1,-0.0073,0.2606,1.0014,0.070,-3.220,0.035,461,411,293,390,349,2025-05-28T14:07:21.796534
2,-0.0034,0.2606,1.0014,0.105,-3.325,0.140,421,433,299,384,382,2025-05-28T14:07:21.796534
3,-0.0049,0.2611,1.0033,0.070,-3.325,0.140,431,413,332,363,397,2025-05-28T14:07:21.796534
4,-0.0078,0.2601,1.0014,0.035,-3.255,0.140,425,395,359,391,399,2025-05-28T14:07:21.796534
5,-0.0063,0.2591,1.0014,0.000,-3.290,0.105,406,406,379,341,401,2025-05-28T14:07:21.796534
6,-0.0063,0.2606,1.0048,0.000,-3.290,0.070,428,305,376,380,412,2025-05-28T14:07:21.796534
7,-0.0059,0.2606,1.0024,0.070,-3.290,0.140,357,387,380,407,409,2025-05-28T14:07:21.796534
8,-0.0068,0.2616,1.0028,0.105,-3.220,0.035,422,412,376,399,349,2025-05-28T14:07:21.796534
9,-0.0068,0.2621,1.0024,0.035,-3.360,0.140,396,380,370,410,380,2025-05-28T14:07:22.064529
10,-0.0039,0.2621,1.0033,0.035,-3.255,0.175,406,417,364,407,376,2025-05-28T14:07:22.071114
11,-0.0073,0.2621,1.0028,0.105,-3.255,0.175,361,391,327,394,391,2025-05-28T14:07:22.071114
12,-0.0054,0.2635,1.0028,0.070,-3.290,0.140,417,413,315,383,383,2025-05-28T14:07:22.071114
13,-0.0063,0.2591,1.0014,0.105,-3.325,0.070,419,400,319,376,392,2025-05-28T14:07:22.071114
14,-0.0049,0.2616,1.0014,0.070,-3.290,0.140,436,405,352,345,400,2025-05-28T14:07:22.071114
15,-0.0063,0.2621,1.0024,0.035,-3.185,0.105,390,403,366,351,394,2025-05-28T14:07:22.071114
16,-0.0049,0.2606,1.0033,0.035,-3.185,0.035,394,404,364,396,392,2025-05-28T14:07:22.071114
17,-0.0059,0.2577,1.0038,-0.035,-3.185,0.070,412,423,365,397,398,2025-05-28T14:07:22.071114
18,-0.0049,0.2591,1.0024,0.070,-3.150,0.000,415,410,379,405,401,2025-05-28T14:07:22.071114
19,-0.0068,0.2596,1.0019,-0.035,-3.220,0.000,428,419,362,413,394,2025-05-28T14:07:22.071114
20,-0.0068,0.2625,1.0014,0.000,-3.290,0.000,408,423,364,399,407,2025-05-28T14:07:22.071114
21,-0.0059,0.2601,1.0024,0.105,-3.185,0.105,425,422,341,399,405,2025-05-28T14:07:22.071114
22,-0.0063,0.2596,1.0028,0.070,-3.255,0.105,428,415,349,386,389,2025-05-28T14:07:22.071114
23,-0.0068,0.2611,1.0033,0.105,-3.150,0.105,404,426,358,390,406,2025-05-28T14:07:22.071114
24,-0.0078,0.2596,1.0024,-0.035,-3.185,0.070,421,401,328,361,388,2025-05-28T14:07:22.071114
25,-0.0063,0.2591,1.0043,-0.035,-3.115,0.105,413,398,327,393,349,2025-05-28T14:07:22.071114
26,-0.0068,0.2606,1.0004,0.035,-2.940,0.035,428,409,311,411,391,2025-05-28T14:07:22.262326
27,-0.0054,0.2630,1.0019,-0.070,-2.905,-0.035,423,396,355,405,397,2025-05-28T14:07:22.262326
28,-0.0054,0.2596,1.0033,-0.035,-2.975,-0.070,349,405,327,408,363,2025-05-28T14:07:22.262326
29,-0.0078,0.2616,1.0019,0.000,-2.870,-0.105,402,353,354,401,384,2025-05-28T14:07:22.262326
30,-0.0068,0.2606,1.0038,0.000,-2.975,0.000,414,385,368,408,405,2025-05-28T14:07:22.262326
31,-0.0073,0.2601,1.0038,-0.035,-3.115,0.035,396,393,361,393,393,2025-05-28T14:07:22.262650
32,-0.0078,0.2606,1.0024,0.070,-3.150,0.070,418,413,364,354,346,2025-05-28T14:07:22.262650
33,-0.0083,0.2601,1.0024,0.105,-3.360,0.105,405,396,365,401,375,2025-05-28T14:07:22.262650
34,-0.0063,0.2596,1.0019,0.140,-3.290,0.070,422,406,374,400,385,2025-05-28T14:07:22.262650
35,-0.0083,0.2606,1.0024,0.105,-3.465,0.175,416,375,364,364,349,2025-05-28T14:07:22.262650
36,-0.0034,0.2596,1.0033,0.035,-3.395,0.105,427,342,376,403,380,2025-05-28T14:07:22.262650
37,-0.0054,0.2596,1.0014,0.070,-3.360,0.140,371,410,371,403,392,2025-05-28T14:07:22.262650
38,-0.0044,0.2611,1.0019,0.105,-3.185,0.070,365,430,377,412,309,2025-05-28T14:07:22.262650
39,-0.0044,0.2606,1.0019,0.035,-3.045,0.070,374,429,379,397,365,2025-05-28T14:07:22.262650
40,-0.0068,0.2591,1.0004,-0.070,-2.975,0.000,392,410,373,411,378,2025-05-28T14:07:22.262650
41,-0.0078,0.2616,1.0028,0.070,-2.905,-0.070,424,431,380,407,401,2025-05-28T14:07:22.262650
42,-0.0059,0.2616,1.0033,-0.035,-2.835,-0.035,400,418,386,407,380,2025-05-28T14:07:22.262650
43,-0.0093,0.2606,1.0009,0.000,-3.045,0.000,411,410,345,384,387,2025-05-28T14:07:22.262650
44,-0.0073,0.2572,1.0028,0.035,-3.185,0.035,407,411,360,389,401,2025-05-28T14:07:22.262650
45,-0.0059,0.2616,1.0028,-0.070,-3.220,0.140,421,400,376,406,372,2025-05-28T14:07:22.262650
46,-0.0068,0.2630,1.0033,0.105,-3.220,0.210,420,374,385,349,333,2025-05-28T14:07:22.434262
47,-0.0063,0.2606,1.0024,0.000,-3.220,0.035,429,338,387,394,379,2025-05-28T14:07:22.434262
48,-0.0054,0.2586,1.0009,0.070,-3.150,0.035,392,345,378,347,388,2025-05-28T14:07:22.434262
49,-0.0059,0.2601,1.0019,0.105,-3.150,0.140,359,403,380,378,351,2025-05-28T14:07:22.434262
50,-0.0078,0.2601,1.0038,-0.035,-3.220,-0.035,415,406,381,336,380,2025-05-28T14:07:22.434262
51,-0.0073,0.2601,1.0033,0.035,-3.220,0.140,381,411,383,375,385,2025-05-28T14:07:22.434262
52,-0.0068,0.2601,1.0028,0.105,-3.185,0.070,423,426,348,383,395,2025-05-28T14:07:22.434262
53,-0.0063,0.2606,1.0014,0.105,-3.220,0.105,399,426,371,339,395,2025-05-28T14:07:22.434262
54,-0.0073,0.2625,1.0024,0.035,-3.220,0.105,424,413,362,375,344,2025-05-28T14:07:22.434262
55,-0.0068,0.2582,1.0024,0.000,-3.185,0.035,311,355,329,380,351,2025-05-28T14:07:22.434262
56,-0.0068,0.2586,1.0028,0.070,-3.290,0.070,325,386,367,375,379,2025-05-28T14:07:22.434262
57,-0.0059,0.2596,1.0014,0.035,-3.220,0.140,393,422,362,404,393,2025-05-28T14:07:22.434262
58,-0.0083,0.2591,1.0024,0.035,-3.255,0.035,392,434,327,401,384,2025-05-28T14:07:22.434262
59,-0.0068,0.2586,1.0014,0.000,-3.255,0.035,428,434,345,406,385,2025-05-28T14:07:22.434262
60,-0.0083,0.2586,1.0033,0.035,-3.185,0.105,406,425,367,411,344,2025-05-28T14:07:22.434262
61,-0.0059,0.2621,1.0019,0.140,-3.325,0.070,402,414,377,412,372,2025-05-28T14:07:22.434262
62,-0.0073,0.2621,1.0024,0.000,-3.220,0.140,416,398,383,398,388,2025-05-28T14:07:22.480510
63,-0.0078,0.2601,1.0019,0.035,-3.185,0.070,424,410,392,399,387,2025-05-28T14:07:22.480510
64,-0.0068,0.2601,0.9999,-0.035,-3.185,0.070,419,391,386,409,400,2025-05-28T14:07:22.480510
65,-0.0068,0.2586,1.0019,-0.035,-3.220,0.035,426,418,338,415,389,2025-05-28T14:07:22.480510
66,-0.0083,0.2621,1.0024,8.925,-3.185,0.070,414,415,359,393,397,2025-05-28T14:07:22.480510
67,-0.0054,0.2611,1.0043,0.000,-3.185,0.105,419,410,376,347,379,2025-05-28T14:07:22.534428
68,-0.0088,0.2601,1.0038,-0.070,-3.115,0.105,396,347,376,388,394,2025-05-28T14:07:22.534428
69,-0.0083,0.2601,1.0024,0.000,-3.185,0.000,359,410,389,398,349,2025-05-28T14:07:22.534428
70,-0.0088,0.2621,1.0028,-0.070,-3.290,0.035,333,405,384,410,385,2025-05-28T14:07:22.534428
71,-0.0073,0.2611,1.0004,0.035,-3.080,0.035,413,417,369,394,404,2025-05-28T14:07:22.582908
72,-0.0068,0.2611,1.0019,0.070,-3.115,0.070,379,416,343,383,386,2025-05-28T14:07:22.584334
73,-0.0068,0.2611,1.0024,0.000,-3.080,-0.035,417,429,352,392,397,2025-05-28T14:07:22.584575
74,-0.0063,0.2625,1.0004,0.000,-3.080,-0.035,407,434,321,410,407,2025-05-28T14:07:22.584694
75,-0.0073,0.2611,1.0038,0.000,-3.045,0.000,423,404,349,413,404,2025-05-28T14:07:22.920230
76,-0.0068,0.2572,1.0024,0.105,-3.220,0.140,387,430,365,352,359,2025-05-28T14:07:22.920230
77,-0.0078,0.2611,1.0028,0.140,-3.290,0.070,417,438,374,387,372,2025-05-28T14:07:22.920230
78,-0.0049,0.2621,1.0024,0.000,-3.220,0.070,421,413,366,408,300,2025-05-28T14:07:22.920230
79,-0.0059,0.2596,1.0009,0.000,-3.220,0.035,427,423,362,402,365,2025-05-28T14:07:22.920230
80,-0.0054,0.2601,1.0043,0.140,-3.185,0.070,417,395,371,413,372,2025-05-28T14:07:22.920230
81,-0.0088,0.2611,1.0028,0.070,-3.220,0.070,355,411,368,408,388,2025-05-28T14:07:22.920230
82,-0.0073,0.2611,1.0004,0.035,-3.220,0.070,361,421,373,411,392,2025-05-28T14:07:22.920230
83,-0.0073,0.2616,1.0028,0.070,-3.290,0.105,405,427,374,353,380,2025-05-28T14:07:22.920230
84,-0.0078,0.2601,1.0028,0.175,-3.325,0.105,383,429,370,362,400,2025-05-28T14:07:22.920230
85,-0.0098,0.2606,1.0019,0.070,-3.360,0.105,372,413,377,404,405,2025-05-28T14:07:22.920230
86,-0.0063,0.2601,1.0019,0.105,-3.325,0.175,389,430,373,413,404,2025-05-28T14:07:22.920230
87,-0.0049,0.2616,1.0028,0.070,-3.430,0.175,373,413,363,413,399,2025-05-28T14:07:22.920230
88,-0.0059,0.2606,1.0014,0.070,-3.185,0.035,417,434,361,407,410,2025-05-28T14:07:22.920230
701,-0.0590,0.2255,1.0106,0.245,-3.640,0.245,432,417,367,401,343,2025-05-28T14:07:59.033145
702,-0.0600,0.2245,1.0106,0.210,-3.500,0.245,423,403,369,403,385,2025-05-28T14:07:59.033145
703,-0.0590,0.2255,1.0097,0.245,-3.395,0.070,419,394,362,412,359,2025-05-28T14:07:59.033145
704,-0.0605,0.2269,1.0116,0.245,-3.360,0.175,421,417,363,396,394,2025-05-28T14:07:59.033145
705,-0.0610,0.2274,1.0092,0.175,-3.500,0.175,422,419,362,407,386,2025-05-28T14:07:59.033145
706,-0.0595,0.2235,1.0092,0.210,-3.570,0.245,438,377,356,407,390,2025-05-28T14:07:59.033145
707,-0.0610,0.2259,1.0106,0.210,-3.570,0.245,417,405,373,405,403,2025-05-28T14:07:59.033145
708,-0.0581,0.2255,1.0102,0.210,-3.500,0.245,417,397,371,396,346,2025-05-28T14:07:59.033145
709,-0.0586,0.2255,1.0102,0.245,-3.395,0.210,433,421,363,402,370,2025-05-28T14:07:59.243416
710,-0.0615,0.2264,1.0097,0.210,-3.360,0.105,407,395,370,415,399,2025-05-28T14:07:59.243970
711,-0.0615,0.2284,1.0126,0.140,-3.360,0.175,409,400,372,374,408,2025-05-28T14:07:59.243970
712,-0.0605,0.2250,1.0097,0.210,-3.465,0.175,349,416,335,394,403,2025-05-28T14:07:59.243970
713,-0.0610,0.2274,1.0111,0.280,-3.535,0.245,406,407,360,357,402,2025-05-28T14:07:59.243970
714,-0.0576,0.2250,1.0106,0.105,-3.465,0.175,408,383,367,378,361,2025-05-28T14:07:59.243970
715,-0.0595,0.2250,1.0092,0.175,-3.395,0.175,399,394,367,333,385,2025-05-28T14:07:59.243970
716,-0.0600,0.2250,1.0092,0.175,-3.360,0.140,408,393,367,380,408,2025-05-28T14:07:59.243970
717,-0.0595,0.2259,1.0116,0.175,-3.325,0.140,398,419,363,395,410,2025-05-28T14:07:59.243970
718,-0.0605,0.2269,1.0111,0.105,-3.430,0.105,419,426,364,389,412,2025-05-28T14:07:59.243970
719,-0.0595,0.2240,1.0102,0.175,-3.395,0.245,433,413,371,408,359,2025-05-28T14:07:59.243970
720,-0.0590,0.2255,1.0126,0.105,-3.395,0.210,408,430,371,402,379,2025-05-28T14:07:59.243970
721,-0.0566,0.2259,1.0102,0.105,-3.360,0.140,427,413,386,392,354,2025-05-28T14:07:59.243970
722,-0.0581,0.2225,1.0116,0.175,-3.220,0.140,429,390,384,408,383,2025-05-28T14:07:59.243970
723,-0.0610,0.2269,1.0111,0.105,-3.255,0.210,413,406,379,415,379,2025-05-28T14:07:59.243970
724,-0.0590,0.2255,1.0092,0.175,-3.360,0.140,405,403,370,393,381,2025-05-28T14:07:59.243970
725,-0.0581,0.2269,1.0116,0.140,-3.325,0.175,409,406,364,345,381,2025-05-28T14:07:59.243970
726,-0.0566,0.2269,1.0092,0.175,-3.290,0.105,413,403,362,393,395,2025-05-28T14:07:59.243970
727,-0.0586,0.2240,1.0106,0.210,-3.255,0.105,415,341,358,392,403,2025-05-28T14:07:59.243970
728,-0.0586,0.2269,1.0092,0.140,-3.255,0.175,428,341,357,404,361,2025-05-28T14:07:59.243970
729,-0.0590,0.2255,1.0106,0.105,-3.290,0.210,425,386,364,394,392,2025-05-28T14:07:59.243970
730,-0.0600,0.2259,1.0097,0.105,-3.325,0.280,387,387,374,349,398,2025-05-28T14:07:59.244967
731,-0.0581,0.2255,1.0102,0.105,-3.360,0.245,403,390,344,380,410,2025-05-28T14:07:59.423104
732,-0.0581,0.2255,1.0102,0.070,-3.395,0.175,407,415,347,404,407,2025-05-28T14:07:59.423104
733,-0.0581,0.2259,1.0097,0.210,-3.185,0.210,342,419,355,400,407,2025-05-28T14:07:59.423104
734,-0.0605,0.2255,1.0121,0.070,-3.290,0.035,425,396,336,385,398,2025-05-28T14:07:59.423104
735,-0.0590,0.2264,1.0102,0.070,-3.325,0.140,388,358,355,384,367,2025-05-28T14:07:59.423104
736,-0.0566,0.2255,1.0126,0.105,-3.430,0.210,399,391,352,409,378,2025-05-28T14:07:59.423104
737,-0.0576,0.2279,1.0111,0.070,-3.395,0.245,432,399,368,417,381,2025-05-28T14:07:59.423104
738,-0.0576,0.2245,1.0111,0.105,-3.325,0.245,406,396,338,417,387,2025-05-28T14:07:59.423104
739,-0.0576,0.2274,1.0106,0.105,-3.150,0.175,426,341,357,399,381,2025-05-28T14:07:59.423104
740,-0.0517,0.2328,1.0063,-0.735,-3.045,0.630,403,397,361,388,399,2025-05-28T14:07:59.423104
741,-0.0527,0.2274,1.0116,-2.590,-3.255,0.560,417,407,358,362,402,2025-05-28T14:07:59.423104
742,-0.0605,0.2284,1.0224,-3.745,-3.640,0.280,383,402,356,406,406,2025-05-28T14:07:59.423104
743,-0.0488,0.2230,1.0141,-3.815,-3.500,0.630,346,412,374,395,408,2025-05-28T14:07:59.423104
744,-0.0527,0.2245,1.0155,-3.290,-2.835,0.630,411,344,330,410,361,2025-05-28T14:07:59.423104
745,-0.0654,0.2167,1.0111,-3.150,-3.185,-0.175,427,406,356,398,349,2025-05-28T14:07:59.423104
746,-0.1030,0.1850,0.9950,2.765,-4.550,-2.485,409,390,364,349,329,2025-05-28T14:07:59.423104
747,-0.0415,0.2162,1.0292,3.150,-6.160,-0.945,403,421,365,371,364,2025-05-28T14:07:59.423104
748,-0.0517,0.2401,1.0082,2.415,-2.835,0.910,420,377,374,405,378,2025-05-28T14:07:59.423104
749,-0.0669,0.2401,0.9994,0.385,-4.165,-0.070,412,363,369,393,389,2025-05-28T14:07:59.424103
750,-0.0439,0.2259,1.0111,0.035,-4.690,0.175,419,411,372,370,398,2025-05-28T14:07:59.424103
751,-0.0498,0.2176,1.0180,0.385,-3.430,0.665,360,414,381,398,411,2025-05-28T14:07:59.514188
752,-0.0522,0.2118,0.9989,0.595,-1.540,1.680,396,416,377,383,397,2025-05-28T14:07:59.514188
753,-0.1801,0.2455,1.0653,3.500,-5.495,6.440,420,426,384,416,410,2025-05-28T14:07:59.577911
754,-0.0996,0.2152,1.0175,-0.385,-16.555,4.550,405,408,307,397,406,2025-05-28T14:07:59.577911
755,-0.0693,0.2489,1.0253,-1.365,-19.355,6.300,362,421,349,342,401,2025-05-28T14:07:59.577911
756,-0.0434,0.2235,1.0106,-0.980,-19.845,6.335,420,426,320,390,395,2025-05-28T14:07:59.577911
757,-0.0039,0.2396,0.9984,-1.050,-16.975,4.900,412,423,352,398,389,2025-05-28T14:07:59.577911
758,-0.0234,0.2050,0.9892,-3.955,-14.945,1.050,397,398,353,405,380,2025-05-28T14:07:59.577911
759,0.0449,0.2142,0.9994,-2.450,-9.835,0.140,349,393,365,407,406,2025-05-28T14:07:59.577911
760,0.0390,0.2118,0.9965,1.400,-2.310,1.120,420,410,341,403,350,2025-05-28T14:07:59.577911
761,-0.0171,0.2176,0.9819,1.750,1.785,-1.225,438,430,367,412,372,2025-05-28T14:07:59.577911
762,0.0220,0.2381,0.9931,1.925,5.460,-2.065,380,435,377,398,382,2025-05-28T14:07:59.577911
763,0.0020,0.2425,0.9989,3.360,10.500,-2.625,426,409,369,393,380,2025-05-28T14:07:59.577911
764,-0.0444,0.2274,0.9838,1.715,11.550,-6.300,437,340,341,382,407,2025-05-28T14:07:59.577911
765,0.0244,0.2552,0.8584,9.905,13.545,-4.830,406,395,348,396,402,2025-05-28T14:07:59.577911
766,-0.1649,0.1728,1.2190,2.800,13.755,-6.195,432,372,334,343,396,2025-05-28T14:07:59.644132
767,-0.1035,0.2660,0.9433,6.090,-1.225,-9.835,377,387,347,389,402,2025-05-28T14:07:59.644132
768,-0.1405,0.2040,1.0873,2.625,-6.055,-0.280,412,408,370,413,402,2025-05-28T14:07:59.644132
769,-0.1454,0.2645,0.9662,0.700,-13.160,1.890,390,424,364,418,402,2025-05-28T14:07:59.644132
770,-0.0659,0.2338,1.0072,1.855,-14.140,4.095,421,350,339,406,399,2025-05-28T14:07:59.644132
771,-0.0581,0.2216,1.0277,2.275,-16.800,3.185,415,413,357,420,408,2025-05-28T14:07:59.978397
772,0.0029,0.2162,1.0097,2.800,-12.355,2.625,428,407,325,412,367,2025-05-28T14:07:59.978397
773,-0.0039,0.2279,0.9989,3.045,-9.310,0.245,428,421,359,400,395,2025-05-28T14:07:59.978397
774,-0.0024,0.2308,0.9960,2.170,-5.180,-1.820,405,342,326,417,391,2025-05-28T14:07:59.978397
775,-0.0112,0.2352,1.0053,0.840,-1.750,-1.960,412,420,347,349,338,2025-05-28T14:07:59.978397
776,-0.0415,0.2313,1.0092,0.910,-1.820,-2.695,389,422,354,335,377,2025-05-28T14:07:59.978397
777,-0.0605,0.2342,1.0160,1.050,-2.240,-2.100,415,408,357,391,380,2025-05-28T14:07:59.978397
778,-0.0634,0.2416,1.0199,-0.070,-3.675,-0.630,389,425,328,406,402,2025-05-28T14:07:59.978397
779,-0.0605,0.2367,1.0146,-0.770,-5.390,0.595,423,424,324,412,388,2025-05-28T14:07:59.978397
780,-0.0342,0.2294,1.0097,-0.560,-5.495,1.645,415,404,358,418,398,2025-05-28T14:07:59.978397
781,-0.0327,0.2269,1.0097,-0.140,-3.920,1.575,368,434,370,369,381,2025-05-28T14:07:59.978397
782,-0.0273,0.2274,1.0053,-0.280,-2.625,0.420,392,371,367,379,343,2025-05-28T14:07:59.978397
783,-0.0312,0.2318,1.0082,-0.560,-1.645,-0.490,403,417,379,333,370,2025-05-28T14:07:59.978397
784,-0.0381,0.2323,1.0014,-0.350,-1.155,-0.595,354,396,332,326,382,2025-05-28T14:07:59.978397
785,-0.0508,0.2279,1.0082,0.385,-0.945,-0.560,374,426,348,376,406,2025-05-28T14:07:59.978397
786,-0.0654,0.2303,1.0238,0.070,-2.625,-0.630,426,416,369,399,381,2025-05-28T14:07:59.978397
787,-0.0649,0.2298,1.0150,-0.210,-4.375,-0.175,423,413,358,384,339,2025-05-28T14:07:59.978397
788,-0.0542,0.2377,1.0160,-0.455,-5.320,0.385,346,395,323,382,342,2025-05-28T14:07:59.978397
789,-0.0464,0.2367,1.0063,-0.770,-5.285,0.840,395,418,363,401,364,2025-05-28T14:07:59.978397
790,-0.0444,0.2323,1.0121,-1.050,-5.600,0.595,427,424,346,419,384,2025-05-28T14:07:59.978397
791,-0.0356,0.2284,1.0146,-1.295,-5.495,0.315,429,418,371,398,386,2025-05-28T14:07:59.978397
792,-0.0307,0.2269,1.0048,-1.120,-3.955,0.700,428,433,374,400,392,2025-05-28T14:08:00.229904
793,-0.0381,0.2298,0.9999,-0.560,-2.870,0.175,427,350,342,393,377,2025-05-28T14:08:00.229904
794,-0.0317,0.2308,1.0038,-0.455,-1.995,0.070,407,407,356,388,358,2025-05-28T14:08:00.229904
795,-0.0332,0.2294,1.0165,-0.665,-1.400,0.035,418,407,363,404,377,2025-05-28T14:08:00.229904
796,-0.0449,0.2279,1.0111,-0.490,-0.840,0.105,400,422,335,416,385,2025-05-28T14:08:00.229904
797,-0.0517,0.2318,1.0102,-0.175,-1.680,-0.035,398,412,315,411,398,2025-05-28T14:08:00.229904
798,-0.0488,0.2357,1.0160,-0.770,-2.415,0.210,348,409,335,412,349,2025-05-28T14:08:00.229904
799,-0.0429,0.2313,1.0228,-2.310,-2.695,0.665,420,417,358,375,369,2025-05-28T14:08:00.229904
800,-0.0420,0.2274,1.0097,-2.415,-2.310,1.225,396,432,373,404,396,2025-05-28T14:08:00.229904
801,-0.0327,0.2240,1.0063,-1.680,-1.085,1.435,369,423,331,416,385,2025-05-28T14:08:00.229904
802,-0.0303,0.2176,0.9936,-0.140,0.210,0.945,421,423,354,381,404,2025-05-28T14:08:00.229904
803,-0.0390,0.2255,1.0106,0.560,1.365,-0.175,428,422,362,398,396,2025-05-28T14:08:00.229904
804,-0.0439,0.2347,1.0150,0.315,0.735,-1.365,384,424,374,305,401,2025-05-28T14:08:00.229904
805,-0.0483,0.2323,1.0048,-0.525,0.665,-0.910,421,405,374,384,399,2025-05-28T14:08:00.229904
806,-0.0708,0.2367,1.0243,-1.435,-0.385,-0.525,395,404,339,392,406,2025-05-28T14:08:00.229904
807,-0.0717,0.2186,1.0072,-1.120,-2.030,0.175,359,388,363,383,391,2025-05-28T14:08:00.229904
808,-0.0639,0.2235,1.0150,-0.280,-2.975,0.840,339,403,373,393,406,2025-05-28T14:08:00.229904
809,-0.0581,0.2308,1.0165,-0.420,-3.920,1.015,414,349,371,384,356,2025-05-28T14:08:00.229904
810,-0.0395,0.2294,0.9999,8.715,-3.850,1.120,356,390,369,387,372,2025-05-28T14:08:00.229904
811,-0.0361,0.2240,1.0067,0.315,-2.800,0.700,427,423,375,387,399,2025-05-28T14:08:00.229904
812,-0.0366,0.2255,1.0097,0.455,-1.645,0.105,412,409,363,408,350,2025-05-28T14:08:00.230900
813,-0.0405,0.2235,1.0072,0.490,-0.945,-0.420,416,383,368,364,332,2025-05-28T14:08:00.395244
814,-0.0468,0.2274,1.0106,0.280,-0.700,-0.420,412,408,366,398,391,2025-05-28T14:08:00.395244
815,-0.0498,0.2294,1.0214,0.175,-1.190,-0.105,401,422,372,391,393,2025-05-28T14:08:00.395244
816,-0.0590,0.2284,1.0111,-0.175,-1.645,0.210,423,421,373,395,391,2025-05-28T14:08:00.395244
817,-0.0595,0.2274,1.0126,-0.245,-2.205,0.455,394,355,358,410,403,2025-05-28T14:08:00.395244
818,-0.0547,0.2303,1.0082,-0.490,-2.765,0.560,340,361,371,392,348,2025-05-28T14:08:00.395244
819,-0.0522,0.2284,1.0111,-0.525,-2.870,0.665,386,342,338,414,398,2025-05-28T14:08:00.395244
820,-0.0444,0.2347,0.9994,-1.015,-2.835,0.735,419,397,318,410,406,2025-05-28T14:08:00.395244
821,-0.0366,0.2255,1.0116,-0.770,-1.610,0.770,392,358,350,416,352,2025-05-28T14:08:00.395244
822,-0.0581,0.2211,1.0155,-0.735,-1.785,-0.245,424,383,355,405,389,2025-05-28T14:08:00.395244
823,-0.0400,0.2186,1.0038,0.595,-1.365,-0.210,419,399,367,417,394,2025-05-28T14:08:00.395244
824,-0.0288,0.1537,1.0326,1.820,0.105,-0.980,427,415,369,421,384,2025-05-28T14:08:00.395244
825,0.0303,0.2113,0.9233,-1.225,2.520,-4.375,388,424,345,399,335,2025-05-28T14:08:00.395244
826,-0.0102,0.3060,0.7793,-13.755,9.345,-7.385,411,405,361,417,367,2025-05-28T14:08:00.398930
827,-0.0795,0.3235,1.3220,0.630,8.925,-8.260,393,392,365,412,377,2025-05-28T14:08:00.398930
828,-0.0820,0.0986,1.1283,9.205,5.810,-5.915,413,411,370,349,334,2025-05-28T14:08:00.398930
829,-0.0883,0.2528,0.9931,10.255,3.325,-5.845,413,401,360,377,373,2025-05-28T14:08:00.398930
830,-0.1044,0.2562,0.9902,8.400,1.015,-6.930,389,415,358,387,377,2025-05-28T14:08:00.398930
831,-0.0869,0.2484,0.9789,5.460,-1.890,-5.425,384,427,372,339,380,2025-05-28T14:08:00.398930
832,-0.1240,0.2528,0.9911,1.645,-4.900,-1.575,391,392,329,324,340,2025-05-28T14:08:00.398930
833,-0.0976,0.2367,0.9999,-0.280,-7.980,1.680,414,420,368,326,384,2025-05-28T14:08:00.399961
834,-0.0747,0.2269,1.0077,-0.805,-9.380,2.660,356,359,356,372,390,2025-05-28T14:08:00.502026
835,-0.0590,0.2338,0.9941,-2.030,-9.555,3.115,410,388,376,392,350,2025-05-28T14:08:00.502026
836,-0.0561,0.2391,0.9721,-4.060,-9.870,3.255,428,346,380,396,381,2025-05-28T14:08:00.502026
837,-0.0449,0.2318,1.0214,-3.920,-8.750,2.730,384,356,379,388,381,2025-05-28T14:08:00.502026
838,-0.0381,0.2191,1.0063,-3.605,-6.965,2.485,393,331,362,390,381,2025-05-28T14:08:00.502026
839,-0.0439,0.2167,1.0341,-1.855,-5.460,1.645,388,382,361,400,383,2025-05-28T14:08:00.502026
840,-0.0537,0.2079,1.0307,-0.350,-5.180,1.295,409,412,363,397,390,2025-05-28T14:08:00.502026
841,-0.0473,0.2079,1.0409,1.995,-5.215,0.700,403,399,331,406,395,2025-05-28T14:08:00.502026
842,-0.0512,0.2235,1.0009,2.415,-4.725,0.630,396,345,345,411,388,2025-05-28T14:08:00.502026
843,-0.0654,0.2430,0.9950,1.085,-5.320,1.120,406,390,365,396,404,2025-05-28T14:08:00.746040
844,-0.0581,0.2445,0.9867,-0.315,-5.775,1.470,411,391,370,391,405,2025-05-28T14:08:00.750249
845,-0.0522,0.2460,0.9799,-2.835,-5.985,1.260,402,406,380,397,386,2025-05-28T14:08:00.750249
846,-0.0542,0.2342,0.9838,-5.635,-6.405,0.980,409,426,371,404,395,2025-05-28T14:08:00.750249
847,-0.0488,0.2289,1.0087,-6.825,-6.930,0.420,409,414,383,341,398,2025-05-28T14:08:00.750249
848,-0.0512,0.2289,1.0131,-7.525,-6.965,0.385,394,424,375,376,363,2025-05-28T14:08:00.750249
849,-0.0503,0.2342,1.0028,-7.735,-7.175,0.210,393,391,370,343,327,2025-05-28T14:08:00.750249
850,-0.0429,0.2391,0.9931,-8.470,-7.315,0.070,402,420,378,387,379,2025-05-28T14:08:00.750249
851,-0.0444,0.2381,0.9921,-11.165,-7.700,-0.245,411,404,389,401,396,2025-05-28T14:08:00.750249
852,-0.0317,0.2284,1.0048,-12.355,-6.300,-1.470,410,417,380,404,367,2025-05-28T14:08:00.750249
853,-0.0337,0.2357,1.0024,-12.880,-3.745,-2.660,413,417,380,348,375,2025-05-28T14:08:00.750249
854,-0.0468,0.2455,0.9692,-15.750,-2.660,-2.555,403,390,366,393,396,2025-05-28T14:08:00.750249
