SeqNum,AccX,AccY,AccZ,GyroX,GyroY,GyroZ,Flex,Force1,Force2,Force3,Force4,TimestampReception
21120,-0.5588,0.8672,0.3680,-5.495,3.570,-5.075,461,405,247,415,364,2025-05-27T11:38:10.173896
21121,-0.5690,0.8374,0.3616,-4.690,-4.340,-2.240,414,397,314,401,338,2025-05-27T11:38:10.173896
21122,-0.5588,0.8228,0.3592,-3.955,-7.630,-1.190,413,421,351,409,382,2025-05-27T11:38:10.173896
21123,-0.5485,0.8091,0.3616,-3.815,-9.660,-0.175,381,403,369,411,373,2025-05-27T11:38:10.173896
21124,-0.5353,0.7959,0.3533,-3.745,-10.710,0.945,390,373,372,401,381,2025-05-27T11:38:10.226906
21125,-0.5256,0.7871,0.3533,-3.255,-11.130,1.995,390,402,342,415,386,2025-05-27T11:38:10.226906
21126,-0.5104,0.7784,0.3538,-2.625,-10.955,2.765,367,383,355,408,404,2025-05-27T11:38:10.226906
21127,-0.5007,0.7759,0.3533,-1.925,-10.080,3.535,421,411,366,372,311,2025-05-27T11:38:10.226906
21128,-0.4890,0.7706,0.3436,-1.085,-9.310,4.200,400,417,360,400,383,2025-05-27T11:38:10.271962
21129,-0.4797,0.7706,0.3367,-0.280,-8.715,4.165,400,405,378,424,392,2025-05-27T11:38:10.271962
21130,-0.4670,0.7657,0.3382,0.560,-7.910,3.605,397,403,336,405,399,2025-05-27T11:38:10.271962
21131,-0.4558,0.7686,0.3328,1.365,-6.405,2.905,418,403,320,414,399,2025-05-27T11:38:10.271962
21132,-0.4412,0.7652,0.3216,2.310,-5.005,2.170,341,407,356,358,361,2025-05-27T11:38:10.271962
21133,-0.4402,0.7818,0.3426,2.765,-2.625,1.120,287,411,371,370,391,2025-05-27T11:38:10.405307
21134,-0.4407,0.7828,0.3416,1.855,-0.280,-0.280,359,415,337,379,385,2025-05-27T11:38:10.405307
21135,-0.4499,0.7862,0.3270,1.225,0.315,-1.435,404,404,323,401,401,2025-05-27T11:38:10.405307
21136,-0.4553,0.7871,0.3289,1.260,-0.280,-2.310,409,413,361,395,410,2025-05-27T11:38:10.405307
21137,-0.4626,0.7896,0.3314,1.400,-1.505,-3.080,435,421,364,363,396,2025-05-27T11:38:10.405307
21138,-0.4626,0.7940,0.3357,1.540,-2.835,-3.710,436,404,385,395,397,2025-05-27T11:38:10.405307
21139,-0.4646,0.8028,0.3504,1.400,-3.605,-4.515,423,408,384,399,391,2025-05-27T11:38:10.405307
21140,-0.4636,0.8150,0.3626,0.490,-3.430,-5.495,418,434,397,414,418,2025-05-27T11:38:10.405307
21141,-0.4763,0.8032,0.3416,-0.105,-3.955,-6.055,403,426,351,416,352,2025-05-27T11:38:10.405307
21142,-0.4865,0.8013,0.3396,0.595,-5.670,-6.510,418,383,327,405,394,2025-05-27T11:38:10.405307
21143,-0.4875,0.8081,0.3475,1.855,-7.245,-6.650,391,396,330,417,392,2025-05-27T11:38:10.405307
21144,-0.4880,0.8101,0.3528,2.450,-7.525,-6.755,405,418,365,422,391,2025-05-27T11:38:10.471959
21145,-0.4812,0.8130,0.3538,2.765,-7.175,-6.475,415,432,339,418,406,2025-05-27T11:38:10.471959
21146,-0.4807,0.8154,0.3504,3.255,-5.670,-6.265,362,419,357,403,397,2025-05-27T11:38:10.471959
21147,-0.4821,0.8174,0.3465,3.710,-3.500,-5.880,399,395,361,398,409,2025-05-27T11:38:10.471959
21148,-0.4880,0.8184,0.3494,4.270,-1.575,-5.320,424,366,371,346,361,2025-05-27T11:38:10.621811
21149,-0.4968,0.8125,0.3509,4.585,-0.630,-4.375,404,396,333,373,394,2025-05-27T11:38:10.621811
21150,-0.5109,0.8111,0.3494,4.865,-0.560,-3.710,428,343,355,342,372,2025-05-27T11:38:10.621811
21151,-0.5148,0.8101,0.3484,4.865,-1.225,-3.430,424,365,379,392,358,2025-05-27T11:38:10.621811
21152,-0.5168,0.8096,0.3475,4.725,-2.625,-3.045,426,394,395,404,354,2025-05-27T11:38:10.621811
21153,-0.5178,0.8096,0.3392,4.760,-4.165,-2.450,406,355,383,386,337,2025-05-27T11:38:10.621811
21154,-0.5153,0.8135,0.3372,4.550,-5.180,-1.960,420,412,373,336,383,2025-05-27T11:38:10.621811
21155,-0.5080,0.8169,0.3323,4.130,-5.740,-1.750,422,388,373,382,409,2025-05-27T11:38:10.621811
21156,-0.4997,0.8120,0.3255,3.570,-5.460,-1.330,428,353,366,397,352,2025-05-27T11:38:10.621811
21157,-0.4997,0.8096,0.3245,3.535,-5.215,-1.050,360,384,339,404,347,2025-05-27T11:38:10.621811
21158,-0.4963,0.8086,0.3294,3.395,-5.145,-0.735,415,392,366,404,293,2025-05-27T11:38:10.621811
21159,-0.4929,0.8067,0.3353,3.010,-5.180,-0.490,394,345,376,419,353,2025-05-27T11:38:10.621811
21160,-0.4924,0.8052,0.3323,2.380,-5.320,-0.420,399,391,368,399,378,2025-05-27T11:38:10.621811
21161,-0.4948,0.8052,0.3284,2.135,-5.810,-0.770,422,424,337,389,398,2025-05-27T11:38:10.821813
21162,-0.4880,0.8052,0.3226,2.065,-6.650,-0.980,429,413,360,387,394,2025-05-27T11:38:10.821813
21163,-0.4865,0.8067,0.3206,2.065,-7.140,-1.260,441,427,361,376,349,2025-05-27T11:38:10.821813
21164,-0.4802,0.8086,0.3270,2.205,-7.000,-1.610,406,361,364,355,331,2025-05-27T11:38:10.821813
21165,-0.4807,0.8091,0.3338,1.890,-6.545,-1.680,404,366,364,396,348,2025-05-27T11:38:10.821813
21166,-0.4807,0.8067,0.3270,1.680,-5.985,-1.820,399,399,378,413,390,2025-05-27T11:38:10.821813
21167,-0.4856,0.8042,0.3216,2.170,-5.845,-1.680,411,386,381,418,394,2025-05-27T11:38:10.821813
21168,-0.4836,0.8067,0.3245,2.660,-5.880,-1.785,407,411,391,412,365,2025-05-27T11:38:10.821813
21169,-0.4856,0.8115,0.3289,2.940,-5.705,-1.890,421,407,385,387,394,2025-05-27T11:38:10.821813
21170,-0.4841,0.8159,0.3279,2.800,-5.285,-1.785,417,390,341,391,394,2025-05-27T11:38:10.821813
21171,-0.4817,0.8140,0.3250,2.555,-4.970,-1.365,299,416,290,408,388,2025-05-27T11:38:10.821813
21172,-0.4826,0.8150,0.3240,2.380,-4.795,-0.980,370,437,335,412,398,2025-05-27T11:38:10.821813
21173,-0.4846,0.8164,0.3226,2.065,-4.795,-0.910,406,430,370,402,369,2025-05-27T11:38:10.821813
21174,-0.4821,0.8184,0.3167,2.030,-4.550,-1.015,398,309,339,406,382,2025-05-27T11:38:10.821813
21175,-0.4831,0.8179,0.3216,2.135,-4.165,-0.840,400,390,375,401,379,2025-05-27T11:38:10.821813
21176,-0.4792,0.8252,0.3211,1.610,-3.465,-0.525,412,349,379,404,339,2025-05-27T11:38:10.821813
21177,-0.4826,0.8213,0.3162,1.225,-2.835,-0.280,343,405,385,402,334,2025-05-27T11:38:10.821813
21178,-0.4870,0.8213,0.3187,0.945,-2.485,-0.035,412,304,386,394,326,2025-05-27T11:38:10.888743
21179,-0.4875,0.8223,0.3152,0.700,-2.450,0.210,344,409,384,415,376,2025-05-27T11:38:10.888743
21180,-0.4904,0.8252,0.3265,0.315,-2.485,0.595,364,370,390,404,350,2025-05-27T11:38:10.888743
21181,-0.4870,0.8355,0.3260,-0.665,-2.310,1.050,333,392,352,411,387,2025-05-27T11:38:10.888743
21182,-0.4900,0.8398,0.3206,-1.365,-2.590,1.820,407,423,327,387,402,2025-05-27T11:38:10.888743
21183,-0.4934,0.8442,0.3235,-1.995,-2.940,2.310,397,411,355,412,406,2025-05-27T11:38:10.946427
21184,-0.4948,0.8423,0.3309,-2.730,-3.605,2.730,343,424,365,410,405,2025-05-27T11:38:10.946427
21185,-0.4973,0.8438,0.3309,-3.710,-4.515,3.290,382,404,370,402,397,2025-05-27T11:38:10.946427
21186,-0.4997,0.8355,0.3304,-4.200,-5.635,3.885,405,418,383,388,392,2025-05-27T11:38:10.946427
21187,-0.4978,0.8281,0.3328,-4.550,-6.440,4.340,432,409,375,388,368,2025-05-27T11:38:10.946427
21188,-0.5002,0.8252,0.3377,-4.830,-6.720,4.340,386,433,379,397,397,2025-05-27T11:38:10.946427
21189,-0.4934,0.8169,0.3353,-5.180,-7.455,4.830,389,428,391,421,382,2025-05-27T11:38:10.988776
21190,-0.4900,0.8101,0.3318,-4.970,-8.120,5.250,420,414,379,353,384,2025-05-27T11:38:10.988776
21191,-0.4885,0.8023,0.3274,-4.410,-8.400,5.635,415,420,340,379,393,2025-05-27T11:38:10.988776
21192,-0.4787,0.8013,0.3314,-3.780,-8.190,5.810,418,402,361,406,395,2025-05-27T11:38:10.988776
21193,-0.4724,0.7979,0.3328,-3.325,-7.420,5.530,418,402,375,405,387,2025-05-27T11:38:11.121905
21194,-0.4607,0.7954,0.3328,-2.835,-6.160,5.215,426,414,383,399,405,2025-05-27T11:38:11.121905
21195,-0.4558,0.7920,0.3304,-2.310,-4.130,4.865,420,371,378,372,347,2025-05-27T11:38:11.121905
21196,-0.4529,0.7906,0.3333,-1.925,-1.820,4.235,417,390,353,374,389,2025-05-27T11:38:11.121905
21197,-0.4534,0.7857,0.3314,-1.610,-0.035,3.850,417,409,361,388,384,2025-05-27T11:38:11.121905
21198,-0.4597,0.7837,0.3314,-1.400,0.980,3.185,404,403,355,400,405,2025-05-27T11:38:11.121905
21199,-0.4631,0.7847,0.3362,-1.260,1.155,2.625,400,364,329,408,409,2025-05-27T11:38:11.121905
21200,-0.4631,0.7857,0.3353,-1.190,0.875,2.275,410,392,356,411,408,2025-05-27T11:38:11.121905
21201,-0.4631,0.7857,0.3348,-1.295,0.385,1.680,421,394,326,353,401,2025-05-27T11:38:11.121905
21202,-0.4587,0.7940,0.3338,-1.365,0.035,0.840,417,334,345,392,413,2025-05-27T11:38:11.121905
21203,-0.4534,0.7993,0.3314,-1.435,0.210,0.070,416,405,365,399,397,2025-05-27T11:38:11.121905
21204,-0.4543,0.8032,0.3343,-1.785,0.140,-0.665,394,401,378,398,406,2025-05-27T11:38:11.222082
21205,-0.4573,0.8072,0.3411,-2.345,-0.035,-1.225,422,424,376,392,369,2025-05-27T11:38:11.222082
21206,-0.4621,0.8076,0.3470,-3.045,-0.245,-2.030,402,405,381,399,336,2025-05-27T11:38:11.222082
21207,-0.4680,0.8028,0.3489,-3.535,-1.015,-2.310,375,410,378,404,346,2025-05-27T11:38:11.222082
21208,-0.4695,0.8057,0.3509,-3.640,-1.960,-2.485,391,431,369,416,386,2025-05-27T11:38:11.222082
21209,-0.4699,0.8076,0.3528,-3.500,-2.240,-2.660,370,422,372,396,394,2025-05-27T11:38:11.222082
21210,-0.4670,0.8096,0.3567,-3.220,-1.960,-3.010,399,425,377,411,392,2025-05-27T11:38:11.222082
21211,-0.4646,0.8135,0.3548,-3.045,-1.295,-3.325,399,401,372,400,408,2025-05-27T11:38:11.222082
21212,-0.4670,0.8154,0.3528,-2.730,-0.840,-3.570,374,396,382,412,360,2025-05-27T11:38:11.222082
21213,-0.4748,0.8184,0.3562,-2.485,-0.665,-3.675,394,422,384,390,398,2025-05-27T11:38:11.321743
21214,-0.4802,0.8198,0.3572,-2.205,-0.560,-3.675,341,400,372,355,406,2025-05-27T11:38:11.321743
21215,-0.4846,0.8198,0.3577,-2.100,-0.700,-3.430,403,398,378,398,414,2025-05-27T11:38:11.321743
21216,-0.4895,0.8164,0.3528,-1.680,-1.190,-3.010,411,338,333,415,397,2025-05-27T11:38:11.321743
21217,-0.4909,0.8164,0.3543,-1.225,-1.610,-2.450,421,392,336,417,405,2025-05-27T11:38:11.321743
21218,-0.4953,0.8125,0.3587,-1.015,-1.785,-1.925,431,387,349,356,397,2025-05-27T11:38:11.321743
21219,-0.4929,0.8111,0.3548,-1.155,-1.960,-1.225,429,391,358,405,397,2025-05-27T11:38:11.321743
21220,-0.4963,0.8062,0.3499,-1.190,-2.030,-0.700,347,421,369,411,401,2025-05-27T11:38:11.321743
21221,-0.4958,0.8037,0.3509,-1.085,-2.135,-0.175,385,350,338,413,397,2025-05-27T11:38:11.437503
21222,-0.4948,0.8042,0.3494,-1.155,-2.485,0.035,331,401,361,393,378,2025-05-27T11:38:11.437503
21223,-0.4929,0.8037,0.3504,-1.505,-2.800,0.280,403,423,365,393,344,2025-05-27T11:38:11.437503
21224,-0.4890,0.8037,0.3484,-1.645,-3.185,0.420,301,336,383,406,374,2025-05-27T11:38:11.437503
21225,-0.4885,0.8037,0.3518,-1.890,-3.465,0.350,372,404,391,400,380,2025-05-27T11:38:11.437503
21226,-0.4821,0.8072,0.3514,-2.205,-3.395,0.350,373,415,390,407,378,2025-05-27T11:38:11.437503
21227,-0.4802,0.8086,0.3494,-2.555,-3.220,0.175,418,430,384,399,398,2025-05-27T11:38:11.437503
21228,-0.4773,0.8086,0.3479,-2.975,-3.080,0.245,426,406,360,366,386,2025-05-27T11:38:11.437503
21229,-0.4807,0.8052,0.3475,-3.150,-3.045,0.385,423,407,362,337,393,2025-05-27T11:38:11.437503
21230,-0.4817,0.8091,0.3504,-3.290,-3.255,0.560,423,340,377,380,391,2025-05-27T11:38:11.538586
21231,-0.4841,0.8057,0.3499,-3.290,-3.955,0.525,419,398,386,384,390,2025-05-27T11:38:11.538586
21232,-0.4812,0.8081,0.3567,-3.360,-4.760,0.455,350,423,379,385,391,2025-05-27T11:38:11.538586
21233,-0.4812,0.8018,0.3533,-3.255,-5.250,0.175,392,412,382,408,352,2025-05-27T11:38:11.538586
21234,-0.4782,0.7989,0.3558,-2.800,-5.670,0.175,374,405,387,400,372,2025-05-27T11:38:11.538586
21235,-0.4714,0.7974,0.3592,-2.275,-5.670,0.245,414,425,378,402,402,2025-05-27T11:38:11.538586
21236,-0.4690,0.8003,0.3631,-1.960,-4.900,0.280,410,405,385,391,409,2025-05-27T11:38:11.538586
21237,-0.4685,0.7993,0.3597,-1.645,-4.235,0.175,396,425,372,361,412,2025-05-27T11:38:11.538586
21238,-0.4724,0.7984,0.3606,-0.980,-4.060,0.385,422,397,377,332,371,2025-05-27T11:38:11.605307
21239,-0.4758,0.7979,0.3626,-0.280,-3.780,0.455,423,403,368,395,389,2025-05-27T11:38:11.605307
21240,-0.4729,0.7945,0.3601,0.140,-3.535,0.350,414,417,377,392,402,2025-05-27T11:38:11.605307
21241,-0.4690,0.7954,0.3592,0.420,-3.220,0.105,397,400,348,402,395,2025-05-27T11:38:11.605307
21242,-0.4685,0.7974,0.3582,0.910,-2.625,0.000,409,425,369,396,351,2025-05-27T11:38:11.605307
21243,-0.4704,0.7945,0.3562,1.015,-2.100,-0.140,411,425,363,390,334,2025-05-27T11:38:11.655429
21244,-0.4714,0.7974,0.3548,0.875,-1.575,-0.455,433,398,369,340,375,2025-05-27T11:38:11.655429
21245,-0.4743,0.7979,0.3533,0.595,-1.015,-0.630,420,377,363,382,401,2025-05-27T11:38:11.655429
21246,-0.4773,0.8003,0.3597,0.105,-1.085,-0.770,416,365,377,400,394,2025-05-27T11:38:11.655429
21247,-0.4821,0.8028,0.3562,-0.735,-1.680,-0.700,403,412,349,395,386,2025-05-27T11:38:11.655429
21248,-0.4841,0.7993,0.3499,-0.945,-2.555,-0.700,411,341,370,390,308,2025-05-27T11:38:11.714916
21249,-0.4865,0.8003,0.3514,-1.155,-3.605,-0.910,423,416,340,404,321,2025-05-27T11:38:11.714916
21250,-0.4792,0.8008,0.3548,-1.120,-4.305,-1.050,425,397,322,392,378,2025-05-27T11:38:11.714916
21251,-0.4782,0.7969,0.3577,-1.050,-4.585,-0.700,413,413,338,403,383,2025-05-27T11:38:11.714916
21252,-0.4753,0.7993,0.3684,-1.190,-3.885,-0.700,413,417,349,387,386,2025-05-27T11:38:11.714916
21253,-0.4778,0.7945,0.3592,-1.155,-3.080,-0.840,411,403,374,389,379,2025-05-27T11:38:11.838547
21254,-0.4782,0.7930,0.3548,-0.875,-2.870,-1.015,401,417,381,394,339,2025-05-27T11:38:11.838547
21255,-0.4763,0.7920,0.3606,-0.210,-2.660,-1.050,414,431,380,352,392,2025-05-27T11:38:11.838547
21256,-0.4773,0.7974,0.3694,0.070,-2.135,-1.085,380,418,383,382,370,2025-05-27T11:38:11.838547
21257,-0.4758,0.7954,0.3631,-0.035,-1.400,-0.875,420,428,391,397,382,2025-05-27T11:38:11.838547
21258,-0.4802,0.7969,0.3597,0.070,-1.050,-0.665,362,421,387,411,403,2025-05-27T11:38:11.838547
21259,-0.4802,0.7998,0.3587,0.315,-1.120,-0.735,386,414,342,422,401,2025-05-27T11:38:11.838547
21260,-0.4807,0.7998,0.3597,0.525,-1.365,-0.770,394,436,368,379,391,2025-05-27T11:38:11.838547
21261,-0.4778,0.8003,0.3548,0.420,-1.435,-0.875,337,416,374,391,400,2025-05-27T11:38:11.838547
21262,-0.4753,0.8028,0.3592,0.210,-1.225,-0.910,363,403,380,361,413,2025-05-27T11:38:11.838547
21263,-0.4753,0.8052,0.3670,-0.315,-0.770,-1.260,398,423,371,332,413,2025-05-27T11:38:11.838547
21264,-0.4821,0.8062,0.3616,-0.945,-0.630,-1.470,404,412,377,384,421,2025-05-27T11:38:11.938652
21265,-0.4841,0.7993,0.3528,-0.910,-1.050,-1.295,389,420,387,412,368,2025-05-27T11:38:11.938652
21266,-0.4885,0.7974,0.3543,-0.350,-1.960,-1.050,358,349,376,368,396,2025-05-27T11:38:11.938652
21267,-0.4919,0.7989,0.3640,-0.210,-2.520,-1.085,365,397,372,337,397,2025-05-27T11:38:11.938652
21268,-0.4914,0.7993,0.3680,-0.350,-2.870,-1.155,405,412,377,385,404,2025-05-27T11:38:11.938652
21269,-0.4875,0.8003,0.3626,-0.700,-3.185,-0.840,425,341,385,396,402,2025-05-27T11:38:11.938652
21270,-0.4875,0.7993,0.3577,-0.350,-3.465,-0.490,391,403,380,414,405,2025-05-27T11:38:11.938652
21271,-0.4885,0.7979,0.3558,-0.070,-3.570,-0.350,396,393,367,395,403,2025-05-27T11:38:11.938652
21272,-0.4846,0.7998,0.3558,0.315,-3.360,-0.280,391,407,380,416,390,2025-05-27T11:38:11.938652
21273,-0.4802,0.8052,0.3631,0.455,-2.520,-0.175,406,416,377,398,387,2025-05-27T11:38:12.055284
21274,-0.4821,0.8028,0.3665,-0.105,-1.505,-0.245,421,402,392,371,373,2025-05-27T11:38:12.055284
21275,-0.4885,0.7974,0.3543,-0.105,-1.540,0.035,414,422,396,403,377,2025-05-27T11:38:12.055284
21276,-0.4919,0.7945,0.3577,0.350,-2.100,0.315,408,405,379,391,394,2025-05-27T11:38:12.055284
21277,-0.4939,0.7974,0.3606,0.700,-2.870,0.420,352,344,385,387,391,2025-05-27T11:38:12.055284
21278,-0.4900,0.8003,0.3680,0.770,-3.325,0.630,407,406,382,345,400,2025-05-27T11:38:12.055284
21279,-0.4817,0.8052,0.3660,0.490,-3.290,0.945,421,407,375,326,393,2025-05-27T11:38:12.055284
21280,-0.4851,0.8028,0.3582,0.420,-3.010,0.910,398,404,345,325,380,2025-05-27T11:38:12.055284
21281,-0.4812,0.8008,0.3572,0.770,-2.730,0.805,415,418,325,322,399,2025-05-27T11:38:12.155285
21282,-0.4797,0.8003,0.3582,1.015,-2.695,0.910,409,429,356,333,381,2025-05-27T11:38:12.155285
21283,-0.4787,0.8028,0.3636,0.910,-2.415,0.875,389,429,373,381,341,2025-05-27T11:38:12.155430
21284,-0.4768,0.8037,0.3621,0.805,-2.345,0.910,397,409,383,400,388,2025-05-27T11:38:12.155430
21285,-0.4802,0.8008,0.3577,0.805,-2.660,0.840,388,409,388,402,407,2025-05-27T11:38:12.155475
21286,-0.4821,0.8028,0.3601,0.735,-2.940,0.490,390,356,343,343,392,2025-05-27T11:38:12.155475
21287,-0.4802,0.8037,0.3562,0.805,-3.675,0.385,414,413,360,328,358,2025-05-27T11:38:12.155475
21288,-0.4802,0.8032,0.3558,1.015,-4.235,0.455,419,425,370,383,337,2025-05-27T11:38:12.155475
21289,-0.4812,0.8008,0.3606,0.980,-4.305,0.560,405,429,375,391,388,2025-05-27T11:38:12.155475
21290,-0.4782,0.8028,0.3631,0.805,-3.885,0.560,352,432,351,405,401,2025-05-27T11:38:12.257316
21291,-0.4763,0.7998,0.3528,0.945,-3.255,0.700,388,360,322,361,345,2025-05-27T11:38:12.260558
21292,-0.4797,0.8018,0.3572,1.190,-2.905,0.980,331,403,352,352,379,2025-05-27T11:38:12.260558
21293,-0.4807,0.8032,0.3548,1.295,-2.345,0.980,398,414,328,394,382,2025-05-27T11:38:12.260558
21294,-0.4836,0.8028,0.3567,1.155,-2.030,0.875,405,391,350,406,392,2025-05-27T11:38:12.260558
21295,-0.4846,0.8023,0.3523,1.085,-2.170,0.980,349,411,327,415,397,2025-05-27T11:38:12.260558
21296,-0.4836,0.8042,0.3553,1.050,-2.590,1.050,375,404,348,408,346,2025-05-27T11:38:12.260558
21297,-0.4821,0.8013,0.3514,0.840,-3.045,0.980,392,431,368,350,394,2025-05-27T11:38:12.260558
21298,-0.4802,0.7989,0.3514,0.455,-3.220,0.875,417,418,369,389,390,2025-05-27T11:38:12.360580
21299,-0.4773,0.7984,0.3489,0.490,-3.115,0.665,421,422,388,387,345,2025-05-27T11:38:12.360580
21300,-0.4738,0.7964,0.3504,0.525,-2.800,0.560,393,407,344,395,388,2025-05-27T11:38:12.360580
21301,-0.4729,0.7979,0.3577,0.630,-2.310,0.560,430,417,363,405,398,2025-05-27T11:38:12.360580
21302,-0.4743,0.7969,0.3548,0.385,-1.540,0.385,428,410,385,399,388,2025-05-27T11:38:12.360580
21303,-0.4797,0.7964,0.3538,0.420,-1.225,0.385,355,340,350,411,399,2025-05-27T11:38:12.360580
21304,-0.4812,0.7950,0.3523,0.630,-1.575,0.140,398,337,372,356,387,2025-05-27T11:38:12.360580
21305,-0.4763,0.7964,0.3543,0.910,-1.785,0.070,421,389,375,397,405,2025-05-27T11:38:12.360580
21306,-0.4797,0.7979,0.3592,0.945,-1.785,0.140,344,366,371,412,410,2025-05-27T11:38:12.360580
21307,-0.4797,0.8008,0.3606,0.700,-1.995,0.000,384,339,381,399,406,2025-05-27T11:38:12.471571
21308,-0.4802,0.7998,0.3504,0.525,-2.485,0.105,407,385,389,413,405,2025-05-27T11:38:12.471571
21309,-0.4792,0.8018,0.3470,0.735,-2.870,-0.175,424,414,394,404,396,2025-05-27T11:38:12.471571
21310,-0.4758,0.7969,0.3470,1.260,-3.220,-0.280,426,437,392,418,395,2025-05-27T11:38:12.471571
21311,-0.4738,0.7969,0.3509,1.505,-3.115,-0.035,398,399,375,400,359,2025-05-27T11:38:12.471571
21312,-0.4753,0.8032,0.3553,1.470,-2.485,-0.420,412,393,363,386,339,2025-05-27T11:38:12.471571
21313,-0.4743,0.8042,0.3523,1.120,-1.610,-0.910,409,423,365,402,332,2025-05-27T11:38:12.471571
21314,-0.4768,0.8052,0.3509,0.980,-1.435,-1.155,371,419,363,398,345,2025-05-27T11:38:12.471571
21315,-0.4836,0.8057,0.3509,1.015,-1.785,-1.050,389,396,373,389,387,2025-05-27T11:38:12.471571
21316,-0.4851,0.8057,0.3489,1.050,-2.520,-0.735,409,435,375,383,391,2025-05-27T11:38:12.564659
21317,-0.4885,0.8086,0.3484,1.085,-3.010,-0.560,400,425,367,408,392,2025-05-27T11:38:12.564659
21318,-0.4856,0.8145,0.3562,0.910,-3.080,-0.385,407,396,349,398,347,2025-05-27T11:38:12.564659
21319,-0.4851,0.8115,0.3518,0.805,-3.045,-0.070,401,393,321,406,373,2025-05-27T11:38:12.564659
21320,-0.4846,0.8111,0.3523,0.805,-3.010,0.175,394,401,354,354,382,2025-05-27T11:38:12.689007
21321,-0.4826,0.8115,0.3504,1.050,-2.835,0.455,385,430,373,397,393,2025-05-27T11:38:12.689007
21322,-0.4826,0.8086,0.3538,1.120,-2.345,0.665,419,399,372,350,409,2025-05-27T11:38:12.689007
21323,-0.4831,0.8086,0.3479,1.155,-2.135,1.050,400,343,368,399,355,2025-05-27T11:38:12.689007
21324,-0.4860,0.8101,0.3514,1.330,-1.960,1.120,418,407,364,388,347,2025-05-27T11:38:12.689007
21325,-0.4880,0.8130,0.3538,1.120,-1.925,1.015,419,347,328,373,362,2025-05-27T11:38:12.689007
21326,-0.4880,0.8091,0.3470,0.980,-2.030,1.050,345,403,359,381,390,2025-05-27T11:38:12.689007
21327,-0.4875,0.8076,0.3475,0.980,-2.800,1.365,393,395,369,381,381,2025-05-27T11:38:12.689007
21328,-0.4841,0.8057,0.3514,1.050,-3.395,1.750,407,417,378,397,382,2025-05-27T11:38:12.689007
21329,-0.4826,0.8023,0.3499,0.875,-3.640,1.750,409,417,386,407,397,2025-05-27T11:38:12.689007
21330,-0.4729,0.8037,0.3475,0.665,-3.675,1.680,426,425,369,405,383,2025-05-27T11:38:12.689007
21331,-0.4724,0.8028,0.3465,0.595,-3.535,1.190,412,406,346,412,404,2025-05-27T11:38:12.689007
21332,-0.4695,0.8028,0.3479,0.525,-3.290,0.630,411,427,327,411,387,2025-05-27T11:38:12.689007
21333,-0.4719,0.8003,0.3475,0.525,-3.325,0.385,410,430,353,398,346,2025-05-27T11:38:12.873274
21334,-0.4748,0.8018,0.3494,0.595,-3.605,0.105,396,433,367,388,339,2025-05-27T11:38:12.873274
21335,-0.4729,0.8023,0.3523,0.490,-3.535,-0.105,385,399,370,408,372,2025-05-27T11:38:12.873274
21336,-0.4758,0.8018,0.3533,0.420,-3.710,-0.280,395,343,375,405,394,2025-05-27T11:38:12.873274
21337,-0.4748,0.8047,0.3553,0.455,-3.780,-0.385,387,413,369,406,407,2025-05-27T11:38:12.873274
21338,-0.4773,0.8072,0.3533,0.350,-3.885,-0.350,395,417,336,398,403,2025-05-27T11:38:12.873274
21339,-0.4792,0.8067,0.3543,0.280,-4.165,-0.385,398,381,353,400,369,2025-05-27T11:38:12.873274
21340,-0.4763,0.8135,0.3558,0.420,-4.550,-0.210,407,403,356,367,334,2025-05-27T11:38:12.873274
21341,-0.4729,0.8135,0.3592,0.420,-4.480,-0.070,403,429,330,340,336,2025-05-27T11:38:12.873274
21342,-0.4724,0.8154,0.3558,0.700,-4.130,0.210,416,429,346,394,336,2025-05-27T11:38:12.873274
21343,-0.4709,0.8154,0.3567,1.120,-3.570,0.560,410,366,358,394,382,2025-05-27T11:38:12.873274
21344,-0.4724,0.8223,0.3601,1.190,-2.870,0.840,405,417,379,413,394,2025-05-27T11:38:12.873274
21345,-0.4787,0.8233,0.3631,0.770,-2.520,0.910,396,397,379,409,403,2025-05-27T11:38:12.873274
21346,-0.4812,0.8267,0.3572,0.525,-2.695,1.120,409,424,338,422,403,2025-05-27T11:38:12.873274
21347,-0.4817,0.8276,0.3518,0.385,-3.255,1.470,417,412,357,399,399,2025-05-27T11:38:12.873274
21348,-0.4851,0.8301,0.3567,0.315,-4.305,1.750,404,425,379,417,400,2025-05-27T11:38:12.873274
21349,-0.4841,0.8301,0.3558,-0.035,-5.110,1.680,405,423,374,400,399,2025-05-27T11:38:12.873274
21350,-0.4817,0.8247,0.3489,-0.350,-5.600,1.505,396,433,381,399,409,2025-05-27T11:38:12.971702
21351,-0.4797,0.8213,0.3465,-0.245,-5.950,1.610,414,352,385,411,405,2025-05-27T11:38:12.971702
21352,-0.4768,0.8135,0.3465,-0.140,-5.985,1.890,390,410,392,427,350,2025-05-27T11:38:12.971702
21353,-0.4787,0.8135,0.3455,-0.140,-5.775,2.100,390,427,374,425,372,2025-05-27T11:38:12.971702
21354,-0.4763,0.8057,0.3372,-0.070,-5.635,2.415,355,393,339,421,397,2025-05-27T11:38:12.971702
21355,-0.4753,0.7950,0.3348,0.210,-5.600,2.555,388,401,369,420,409,2025-05-27T11:38:12.971702
21356,-0.4699,0.7954,0.3357,0.525,-5.285,2.730,389,426,378,398,396,2025-05-27T11:38:12.971702
21357,-0.4656,0.7945,0.3343,0.910,-4.795,2.870,374,400,387,389,398,2025-05-27T11:38:12.971702
21358,-0.4670,0.7930,0.3372,1.015,-3.885,2.800,344,358,393,388,400,2025-05-27T11:38:13.071701
21359,-0.4665,0.7920,0.3362,1.015,-3.255,2.380,393,416,385,402,353,2025-05-27T11:38:13.071701
21360,-0.4641,0.7925,0.3396,0.945,-2.870,1.785,387,393,375,408,398,2025-05-27T11:38:13.071701
21361,-0.4651,0.7881,0.3401,0.420,-3.045,1.610,388,364,369,400,366,2025-05-27T11:38:13.071701
21362,-0.4660,0.7886,0.3411,0.035,-3.290,1.225,408,411,378,418,398,2025-05-27T11:38:13.071701
21363,-0.4626,0.7862,0.3421,-0.455,-3.675,0.630,407,427,381,412,419,2025-05-27T11:38:13.071701
21364,-0.4651,0.7901,0.3479,-0.875,-3.745,-0.035,412,428,359,412,424,2025-05-27T11:38:13.071701
21365,-0.4660,0.7959,0.3514,-1.330,-3.710,-0.805,352,390,379,416,410,2025-05-27T11:38:13.071701
21366,-0.4651,0.7945,0.3479,-1.785,-3.815,-1.295,401,417,377,349,404,2025-05-27T11:38:13.071701
21367,-0.4675,0.7935,0.3548,-1.890,-3.955,-1.680,341,392,334,377,409,2025-05-27T11:38:13.171698
21368,-0.4651,0.7974,0.3587,-1.960,-4.130,-2.135,407,424,351,399,405,2025-05-27T11:38:13.171698
21369,-0.4651,0.7979,0.3626,-2.170,-4.130,-2.485,398,400,334,343,383,2025-05-27T11:38:13.171698
21370,-0.4646,0.7989,0.3606,-2.205,-4.200,-2.765,410,431,368,397,347,2025-05-27T11:38:13.171698
21371,-0.4646,0.8047,0.3636,-2.170,-4.305,-2.975,420,403,370,395,388,2025-05-27T11:38:13.171698
21372,-0.4607,0.8018,0.3650,-1.995,-4.270,-3.010,347,384,351,395,407,2025-05-27T11:38:13.171698
21373,-0.4582,0.8096,0.3670,-1.820,-4.025,-3.080,389,341,368,347,347,2025-05-27T11:38:13.171698
21374,-0.4616,0.8081,0.3631,-1.470,-3.850,-3.150,392,386,382,379,389,2025-05-27T11:38:13.171698
21375,-0.4607,0.8111,0.3611,-1.050,-3.710,-3.220,387,413,369,397,384,2025-05-27T11:38:13.388377
21376,-0.4592,0.8135,0.3562,-0.315,-3.675,-3.290,424,351,377,341,395,2025-05-27T11:38:13.388377
21377,-0.4670,0.8096,0.3567,0.245,-3.500,-3.430,408,372,342,288,357,2025-05-27T11:38:13.388377
21378,-0.4660,0.8096,0.3587,0.490,-2.905,-3.395,399,413,361,351,384,2025-05-27T11:38:13.388377
21379,-0.4699,0.8062,0.3553,0.420,-2.555,-3.255,423,394,369,392,405,2025-05-27T11:38:13.388377
21380,-0.4743,0.8052,0.3548,0.315,-2.205,-2.940,424,424,339,405,391,2025-05-27T11:38:13.388377
21381,-0.4758,0.8067,0.3514,0.315,-2.030,-2.485,427,402,340,365,380,2025-05-27T11:38:13.388377
21382,-0.4792,0.8042,0.3523,0.490,-1.995,-2.030,429,336,332,383,345,2025-05-27T11:38:13.388377
21383,-0.4807,0.8091,0.3533,0.560,-1.995,-1.715,416,408,357,388,387,2025-05-27T11:38:13.388377
21384,-0.4778,0.8081,0.3543,0.490,-1.610,-1.295,414,405,376,388,392,2025-05-27T11:38:13.388377
21385,-0.4792,0.8091,0.3533,0.525,-1.645,-0.805,366,394,385,410,410,2025-05-27T11:38:13.388377
21386,-0.4802,0.8106,0.3548,0.525,-1.750,-0.350,409,392,353,410,410,2025-05-27T11:38:13.388377
21387,-0.4768,0.8096,0.3538,0.385,-1.925,-0.175,413,421,330,399,391,2025-05-27T11:38:13.388377
21388,-0.4738,0.8145,0.3518,0.245,-1.890,-0.280,417,422,319,407,402,2025-05-27T11:38:13.388377
21389,-0.4719,0.8115,0.3533,0.350,-1.820,-0.560,432,424,350,395,408,2025-05-27T11:38:13.388377
21390,-0.4709,0.8096,0.3538,0.245,-1.750,-0.910,363,414,371,390,411,2025-05-27T11:38:13.388377
21391,-0.4714,0.8067,0.3572,0.245,-1.890,-1.155,376,381,334,415,413,2025-05-27T11:38:13.388377
21392,-0.4685,0.8067,0.3616,0.070,-1.960,-1.365,394,392,367,387,408,2025-05-27T11:38:13.388377
21393,-0.4660,0.8037,0.3606,-0.315,-2.030,-1.680,416,426,348,396,377,2025-05-27T11:38:13.471626
21394,-0.4680,0.7998,0.3621,-0.560,-2.345,-1.925,408,425,372,407,398,2025-05-27T11:38:13.471626
21395,-0.4690,0.7993,0.3616,-0.560,-2.905,-2.275,418,429,375,389,348,2025-05-27T11:38:13.471626
21396,-0.4695,0.7954,0.3601,-0.350,-3.675,-2.555,401,400,383,388,390,2025-05-27T11:38:13.471626
21397,-0.4685,0.7906,0.3577,0.035,-4.270,-2.870,404,408,354,410,398,2025-05-27T11:38:13.471626
21398,-0.4699,0.7940,0.3616,0.385,-4.585,-3.255,418,419,358,400,387,2025-05-27T11:38:13.471626
21399,-0.4660,0.7979,0.3616,0.735,-4.340,-3.885,340,344,337,404,350,2025-05-27T11:38:13.471626
21400,-0.4665,0.7969,0.3645,0.805,-3.675,-4.550,329,398,360,367,386,2025-05-27T11:38:13.471626
21401,-0.4685,0.7964,0.3606,0.770,-3.010,-5.180,398,397,375,379,399,2025-05-27T11:38:13.588407
21402,-0.4724,0.7959,0.3548,0.875,-2.450,-5.390,394,423,375,379,389,2025-05-27T11:38:13.588407
21403,-0.4782,0.7950,0.3523,0.910,-2.240,-5.215,419,425,382,357,390,2025-05-27T11:38:13.588407
21404,-0.4875,0.8013,0.3558,1.050,-2.485,-5.180,396,426,353,394,408,2025-05-27T11:38:13.588407
21405,-0.4987,0.8018,0.3582,0.910,-3.080,-4.865,340,373,370,396,318,2025-05-27T11:38:13.588407
21406,-0.5012,0.8081,0.3582,0.875,-3.570,-4.690,407,426,381,404,374,2025-05-27T11:38:13.588407
21407,-0.5017,0.8081,0.3621,0.840,-3.815,-4.305,418,427,366,425,387,2025-05-27T11:38:13.588407
21408,-0.4978,0.8062,0.3528,0.735,-3.640,-3.675,427,428,373,407,397,2025-05-27T11:38:13.588407
21409,-0.4992,0.8072,0.3577,0.735,-3.290,-2.625,434,416,349,417,399,2025-05-27T11:38:13.588407
21410,-0.4963,0.8096,0.3645,0.525,-2.870,-1.785,393,411,360,354,407,2025-05-27T11:38:13.788438
21411,-0.5002,0.8096,0.3631,0.280,-2.695,-1.155,400,346,376,384,409,2025-05-27T11:38:13.788438
21412,-0.5031,0.8072,0.3582,0.175,-2.905,-0.700,404,382,352,388,394,2025-05-27T11:38:13.788438
21413,-0.5017,0.8052,0.3626,0.385,-3.745,-0.245,400,414,379,385,382,2025-05-27T11:38:13.788438
21414,-0.5012,0.8042,0.3626,0.525,-4.270,0.175,423,399,380,344,399,2025-05-27T11:38:13.788438
21415,-0.4939,0.8028,0.3640,0.490,-4.585,0.385,425,399,384,292,397,2025-05-27T11:38:13.788438
21416,-0.4885,0.8062,0.3640,0.385,-4.410,0.735,396,422,357,371,391,2025-05-27T11:38:13.788438
21417,-0.4885,0.8067,0.3640,0.385,-4.025,0.945,335,409,376,382,416,2025-05-27T11:38:13.788438
21418,-0.4865,0.8042,0.3611,0.455,-3.990,1.015,375,403,381,383,401,2025-05-27T11:38:13.788438
21419,-0.4856,0.8028,0.3621,0.630,-4.410,1.050,330,424,395,391,391,2025-05-27T11:38:13.788438
21420,-0.4846,0.8018,0.3650,0.805,-4.690,1.015,399,404,353,403,380,2025-05-27T11:38:13.788438
21421,-0.4841,0.7998,0.3645,0.875,-4.655,1.085,393,394,373,411,401,2025-05-27T11:38:13.788438
21422,-0.4797,0.7989,0.3626,0.980,-4.620,1.050,393,399,366,413,402,2025-05-27T11:38:13.788438
21423,-0.4753,0.7979,0.3587,1.225,-4.375,1.260,418,344,379,396,366,2025-05-27T11:38:13.788438
21424,-0.4748,0.7984,0.3567,1.470,-3.850,1.225,400,409,386,400,380,2025-05-27T11:38:13.788438
21425,-0.4734,0.8003,0.3553,1.750,-3.640,1.190,379,403,376,349,386,2025-05-27T11:38:13.788438
21426,-0.4763,0.7993,0.3640,1.855,-3.325,0.700,336,407,382,387,400,2025-05-27T11:38:13.788438
21427,-0.4763,0.7998,0.3538,1.470,-3.045,0.595,381,426,392,411,389,2025-05-27T11:38:13.788438
21428,-0.4802,0.7959,0.3406,1.470,-3.150,0.805,383,432,379,392,387,2025-05-27T11:38:13.888569
21429,-0.4826,0.7993,0.3450,1.785,-3.360,0.770,413,410,391,395,407,2025-05-27T11:38:13.888569
21430,-0.4782,0.8003,0.3436,1.785,-3.360,0.595,401,398,392,369,397,2025-05-27T11:38:13.888569
21431,-0.4753,0.8032,0.3431,1.715,-2.940,0.490,411,410,394,398,365,2025-05-27T11:38:13.888569
21432,-0.4734,0.8018,0.3436,1.365,-2.415,0.350,418,403,380,400,391,2025-05-27T11:38:13.888569
21433,-0.4729,0.8028,0.3484,0.875,-1.645,0.420,415,406,375,392,406,2025-05-27T11:38:13.888569
21434,-0.4782,0.8023,0.3484,0.035,-0.910,0.245,428,404,375,415,349,2025-05-27T11:38:13.888569
21435,-0.4841,0.8003,0.3436,-0.035,-1.435,0.280,417,416,390,419,386,2025-05-27T11:38:13.888569
21436,-0.4865,0.7979,0.3484,0.105,-2.415,0.420,427,408,358,406,345,2025-05-27T11:38:13.988332
21437,-0.4865,0.7989,0.3509,0.140,-3.395,0.385,400,413,372,415,380,2025-05-27T11:38:13.988332
21438,-0.4836,0.8013,0.3558,0.035,-3.745,0.140,299,417,375,414,388,2025-05-27T11:38:13.988332
21439,-0.4758,0.7974,0.3514,-0.175,-3.430,0.035,394,410,391,397,382,2025-05-27T11:38:13.988332
21440,-0.4763,0.7945,0.3489,-0.140,-2.695,0.210,399,349,390,420,391,2025-05-27T11:38:13.988332
21441,-0.4748,0.7935,0.3528,0.140,-2.030,0.455,406,406,385,419,385,2025-05-27T11:38:13.988332
21442,-0.4797,0.7969,0.3587,0.245,-1.470,0.455,338,421,369,412,347,2025-05-27T11:38:13.988332
21443,-0.4792,0.7974,0.3592,0.420,-0.910,0.280,382,424,381,391,367,2025-05-27T11:38:13.988332
21444,-0.4831,0.7969,0.3597,0.665,-0.560,0.175,389,394,383,347,379,2025-05-27T11:38:14.038161
21445,-0.4812,0.7959,0.3606,0.770,-0.665,0.245,385,412,379,377,391,2025-05-27T11:38:14.038161
21446,-0.4817,0.7998,0.3601,0.840,-1.050,0.525,411,414,387,399,404,2025-05-27T11:38:14.038161
21447,-0.4836,0.8023,0.3606,0.945,-1.435,0.525,419,341,371,386,405,2025-05-27T11:38:14.038161
21448,-0.4831,0.8037,0.3577,0.910,-1.925,0.245,419,388,375,399,401,2025-05-27T11:38:14.188251
21449,-0.4768,0.8042,0.3587,0.910,-2.205,0.210,342,408,338,362,346,2025-05-27T11:38:14.188251
21450,-0.4753,0.8042,0.3582,0.840,-2.415,0.210,382,365,356,382,370,2025-05-27T11:38:14.188251
21451,-0.4738,0.7998,0.3582,1.120,-2.695,0.245,399,385,376,402,388,2025-05-27T11:38:14.188251
21452,-0.4753,0.8023,0.3626,1.225,-2.555,0.000,367,415,377,397,389,2025-05-27T11:38:14.188251
21453,-0.4734,0.8052,0.3597,1.155,-2.310,-0.315,415,426,377,411,346,2025-05-27T11:38:14.188251
21454,-0.4773,0.8096,0.3626,1.155,-2.240,-0.560,402,301,365,399,326,2025-05-27T11:38:14.188251
21455,-0.4797,0.8115,0.3587,1.085,-2.240,-0.525,338,374,374,398,286,2025-05-27T11:38:14.188251
21456,-0.4792,0.8140,0.3592,0.945,-2.345,-0.350,329,392,382,373,355,2025-05-27T11:38:14.188251
21457,-0.4773,0.8179,0.3626,0.805,-2.905,0.000,396,401,373,401,375,2025-05-27T11:38:14.188251
21458,-0.4787,0.8218,0.3636,0.595,-3.325,0.210,386,395,383,417,397,2025-05-27T11:38:14.188251
21459,-0.4778,0.8286,0.3650,0.105,-3.570,0.455,400,344,388,379,408,2025-05-27T11:38:14.188251
21460,-0.4782,0.8272,0.3592,-0.070,-3.535,0.630,424,406,385,407,418,2025-05-27T11:38:14.188251
21461,-0.4802,0.8306,0.3562,0.070,-3.710,0.665,405,397,368,395,388,2025-05-27T11:38:14.305177
21462,-0.4812,0.8340,0.3587,0.385,-3.675,1.050,430,302,379,347,393,2025-05-27T11:38:14.305177
21463,-0.4846,0.8374,0.3611,0.490,-3.640,1.575,341,402,389,378,415,2025-05-27T11:38:14.305177
21464,-0.4875,0.8379,0.3611,0.595,-3.710,2.065,401,396,397,384,318,2025-05-27T11:38:14.305177
21465,-0.4924,0.8359,0.3621,0.735,-3.815,2.695,407,398,359,379,363,2025-05-27T11:38:14.305177
21466,-0.4924,0.8413,0.3645,0.595,-4.025,3.535,387,392,373,391,388,2025-05-27T11:38:14.305177
21467,-0.4909,0.8462,0.3689,0.175,-4.480,4.480,353,428,375,380,364,2025-05-27T11:38:14.305177
21468,-0.4880,0.8579,0.3758,-0.980,-4.480,5.915,360,404,341,397,375,2025-05-27T11:38:14.305177
21469,-0.4817,0.8623,0.3836,-2.240,-4.585,7.350,402,397,354,350,355,2025-05-27T11:38:14.305177
21470,-0.4807,0.8701,0.3943,-3.885,-4.970,8.820,395,410,375,390,336,2025-05-27T11:38:14.493916
21471,-0.4851,0.8638,0.3865,-5.180,-6.405,10.010,360,415,366,405,371,2025-05-27T11:38:14.493916
21472,-0.4856,0.8516,0.3880,-4.900,-8.575,10.675,405,428,380,421,382,2025-05-27T11:38:14.493916
21473,-0.4856,0.8428,0.3767,-4.760,-11.060,10.920,410,414,390,405,397,2025-05-27T11:38:14.493916
21474,-0.4802,0.8276,0.3855,-4.060,-12.915,11.095,393,436,357,406,390,2025-05-27T11:38:14.493916
21475,-0.4665,0.8150,0.3919,-3.920,-13.650,11.795,426,410,377,410,391,2025-05-27T11:38:14.493916
21476,-0.4553,0.8081,0.3860,-3.920,-13.790,12.460,410,379,386,378,400,2025-05-27T11:38:14.493916
21477,-0.4524,0.7891,0.3831,-4.025,-13.685,12.740,398,419,388,412,378,2025-05-27T11:38:14.493916
21478,-0.4416,0.7823,0.3811,-4.165,-13.650,12.565,354,387,373,386,401,2025-05-27T11:38:14.509203
21479,-0.4319,0.7803,0.3787,-4.620,-12.950,12.040,408,299,350,351,384,2025-05-27T11:38:14.509203
21480,-0.4216,0.7784,0.3665,-4.830,-11.725,11.760,353,391,376,397,402,2025-05-27T11:38:14.509203
21481,-0.4187,0.7857,0.3689,-4.760,-10.430,10.570,407,395,376,358,397,2025-05-27T11:38:14.509203
21482,-0.4148,0.7910,0.3655,-4.830,-9.100,8.995,398,429,371,390,415,2025-05-27T11:38:14.509203
21483,-0.4241,0.7964,0.3597,-4.515,-8.750,6.965,413,432,385,389,396,2025-05-27T11:38:14.509203
21484,-0.4343,0.7886,0.3606,-3.850,-9.380,5.005,386,435,373,390,360,2025-05-27T11:38:14.509203
21485,-0.4314,0.7979,0.3704,-2.975,-11.025,4.165,412,383,380,352,360,2025-05-27T11:38:14.509203
21486,-0.4246,0.7954,0.3753,-2.625,-11.970,4.025,384,410,376,401,382,2025-05-27T11:38:14.509203
21487,-0.4236,0.8023,0.3753,-2.205,-12.180,4.445,426,439,365,408,395,2025-05-27T11:38:14.611972
21488,-0.4143,0.8125,0.3792,-1.925,-11.550,4.515,412,409,371,397,392,2025-05-27T11:38:14.611972
21489,-0.4075,0.8154,0.3816,-1.645,-10.010,4.305,402,398,382,399,401,2025-05-27T11:38:14.611972
21490,-0.4060,0.8106,0.3884,-1.330,-8.085,4.270,394,418,344,409,399,2025-05-27T11:38:14.611972
21491,-0.4026,0.8174,0.3948,-0.840,-6.860,4.515,392,395,366,402,408,2025-05-27T11:38:14.611972
21492,-0.4011,0.8418,0.4050,-0.595,-5.425,4.620,377,412,382,391,412,2025-05-27T11:38:14.611972
21493,-0.4080,0.8560,0.3992,-0.245,-5.040,4.655,387,422,345,403,412,2025-05-27T11:38:14.611972
21494,-0.4177,0.8740,0.4197,0.245,-6.195,4.725,388,393,369,404,399,2025-05-27T11:38:14.611972
21495,-0.4221,0.8799,0.4358,0.525,-9.380,4.585,381,389,378,414,356,2025-05-27T11:38:14.611972
21496,-0.4216,0.8779,0.4338,1.015,-13.335,4.725,382,425,388,372,399,2025-05-27T11:38:14.721468
21497,-0.4119,0.8882,0.4265,1.890,-17.185,4.970,399,411,387,339,346,2025-05-27T11:38:14.721468
21498,-0.4026,0.8838,0.4133,3.885,-19.635,5.285,383,428,377,385,386,2025-05-27T11:38:14.721468
21499,-0.3904,0.8716,0.4026,6.055,-20.440,6.510,392,397,385,397,343,2025-05-27T11:38:14.721468
21500,-0.3884,0.8701,0.4080,8.820,-19.670,7.980,387,404,382,397,380,2025-05-27T11:38:14.721468
21501,-0.3899,0.8560,0.4099,11.130,-17.185,9.485,425,427,341,396,399,2025-05-27T11:38:14.721468
21502,-0.3933,0.8496,0.4177,12.425,-12.670,10.290,418,409,364,349,399,2025-05-27T11:38:14.721468
21503,-0.3967,0.8364,0.4036,13.055,-8.085,11.550,405,391,373,373,401,2025-05-27T11:38:14.721468
21504,-0.4085,0.8081,0.3806,14.315,-5.075,13.580,392,419,379,375,410,2025-05-27T11:38:14.772648
21505,-0.4119,0.7901,0.3748,15.680,-3.220,15.435,393,399,370,392,372,2025-05-27T11:38:14.772648
21506,-0.4050,0.7823,0.3719,16.940,-1.505,16.660,410,396,347,400,384,2025-05-27T11:38:14.772648
21507,-0.3987,0.7706,0.3504,17.395,1.085,17.500,422,399,358,371,384,2025-05-27T11:38:14.772648
21508,-0.3787,0.7642,0.3294,17.955,3.185,18.445,411,390,377,393,386,2025-05-27T11:38:14.772648
21509,-0.3723,0.7598,0.3201,18.550,5.110,18.760,345,412,338,395,404,2025-05-27T11:38:14.821349
21510,-0.3694,0.7652,0.3260,18.060,6.825,17.990,411,399,357,394,357,2025-05-27T11:38:14.821349
21511,-0.3538,0.7842,0.3348,16.590,7.490,17.045,410,402,376,386,378,2025-05-27T11:38:14.821349
21512,-0.3445,0.7959,0.3260,14.525,7.455,16.485,409,406,304,361,378,2025-05-27T11:38:14.821349
21513,-0.3431,0.8223,0.3343,12.250,6.965,16.135,430,405,347,406,307,2025-05-27T11:38:14.921496
21514,-0.3392,0.8281,0.3392,9.590,5.950,15.015,421,392,323,394,385,2025-05-27T11:38:14.921496
21515,-0.3284,0.8345,0.3392,6.650,3.920,14.175,424,412,354,410,416,2025-05-27T11:38:14.921496
21516,-0.3235,0.8467,0.3470,3.675,1.295,13.370,432,401,357,408,356,2025-05-27T11:38:14.921496
21517,-0.3231,0.8725,0.3597,0.945,-1.960,12.635,420,425,363,402,354,2025-05-27T11:38:14.921496
21518,-0.3109,0.9199,0.3743,-3.290,-4.830,12.110,409,407,376,411,373,2025-05-27T11:38:14.921496
21519,-0.3050,0.9755,0.3889,-7.210,-7.455,11.865,388,423,339,404,352,2025-05-27T11:38:14.921496
21520,-0.3192,1.0067,0.4085,-10.465,-9.100,10.500,397,418,373,395,384,2025-05-27T11:38:14.921496
21521,-0.3460,1.0521,0.4299,-12.530,-10.465,8.085,420,430,386,360,349,2025-05-27T11:38:15.121478
21522,-0.3606,1.0790,0.4509,-13.510,-12.985,6.790,431,402,339,378,336,2025-05-27T11:38:15.121478
21523,-0.3553,1.0921,0.4436,-12.670,-14.805,7.420,427,394,338,388,328,2025-05-27T11:38:15.121478
21524,-0.3899,1.1029,0.4558,-10.955,-14.805,9.205,410,417,320,353,376,2025-05-27T11:38:15.121478
21525,-0.3982,1.0477,0.4724,-8.995,-13.440,10.605,419,410,316,402,342,2025-05-27T11:38:15.121478
21526,-0.4392,0.9984,0.4534,-6.965,-14.000,13.090,419,398,349,406,381,2025-05-27T11:38:15.121478
21527,-0.4846,0.8999,0.4265,-3.885,-17.955,17.430,408,395,368,378,390,2025-05-27T11:38:15.121478
21528,-0.4724,0.7779,0.4041,-0.735,-22.785,22.295,426,410,372,344,402,2025-05-27T11:38:15.121478
21529,-0.3772,0.5924,0.3270,0.840,-21.070,24.780,428,414,376,292,388,2025-05-27T11:38:15.121478
21530,-0.2064,0.3318,0.1898,2.100,-10.290,22.610,400,392,376,376,406,2025-05-27T11:38:15.121478
21531,-0.0366,0.0517,0.0312,3.780,18.690,16.345,423,410,385,399,350,2025-05-27T11:38:15.121478
21532,0.1342,-0.1864,-0.1635,5.285,63.560,2.240,378,383,387,379,374,2025-05-27T11:38:15.121478
21533,0.2216,-0.4670,-0.3187,7.245,118.020,-19.145,349,415,371,382,343,2025-05-27T11:38:15.121478
21534,0.2557,-0.7569,-0.4826,9.310,171.465,-48.965,392,428,384,389,387,2025-05-27T11:38:15.121478
21535,0.1391,-0.9609,-0.5651,10.745,210.175,-84.490,390,401,367,399,390,2025-05-27T11:38:15.121478
21536,-0.2054,-1.0985,-0.4978,11.970,233.905,-121.135,414,400,369,394,402,2025-05-27T11:38:15.121478
21537,-0.4343,-1.1190,-0.3914,17.605,212.275,-147.770,407,409,366,407,410,2025-05-27T11:38:15.121478
21538,-0.6744,-1.0736,-0.2708,27.230,155.785,-176.050,422,439,363,394,369,2025-05-27T11:38:15.221817
21539,-0.7798,-0.9994,-0.1854,42.770,91.665,-202.895,421,408,378,368,339,2025-05-27T11:38:15.221817
21540,-0.6690,-0.8111,-0.1225,60.410,53.620,-229.215,393,340,338,335,359,2025-05-27T11:38:15.221817
21541,-0.6012,-0.6061,-0.0522,71.960,60.375,-253.435,405,328,314,383,388,2025-05-27T11:38:15.221817
21542,-0.5876,-0.4338,-0.0059,82.460,98.980,-271.145,363,387,355,395,401,2025-05-27T11:38:15.221817
21543,-0.7598,-0.2879,0.0244,89.985,139.860,-279.195,378,403,358,419,405,2025-05-27T11:38:15.221817
21544,-0.9721,-0.0756,0.0039,98.630,182.805,-276.535,405,403,356,374,393,2025-05-27T11:38:15.221817
21545,-1.2137,0.1220,-0.0639,109.690,203.945,-268.135,413,389,374,410,416,2025-05-27T11:38:15.221817
21546,-1.4435,0.3060,-0.1469,119.980,206.255,-258.650,403,409,390,418,403,2025-05-27T11:38:15.221817
21547,-1.5470,0.6476,-0.3797,132.020,205.975,-260.435,388,416,383,410,391,2025-05-27T11:38:15.282824
21548,-1.6294,0.9706,-0.5924,146.720,211.890,-270.165,338,400,381,412,389,2025-05-27T11:38:15.282824
21549,-1.6460,1.4274,-0.8447,162.470,226.030,-292.635,323,392,389,396,361,2025-05-27T11:38:15.282824
21550,-1.6577,1.8895,-1.0687,151.200,250.460,-301.420,404,370,377,381,383,2025-05-27T11:38:15.421481
21551,-1.7627,2.1223,-1.2708,139.755,278.285,-293.615,409,338,343,404,391,2025-05-27T11:38:15.421481
21552,-1.9335,2.3936,-1.5435,119.490,298.165,-264.215,387,392,371,346,350,2025-05-27T11:38:15.421481
21553,-2.0774,2.7601,-1.8232,89.740,300.335,-228.795,377,386,349,363,378,2025-05-27T11:38:15.421481
21554,-1.7344,3.3677,-2.0398,36.925,298.690,-188.510,414,413,365,401,384,2025-05-27T11:38:15.421481
21555,-1.2849,3.9777,-2.2316,-18.515,336.595,-147.945,360,431,376,391,393,2025-05-27T11:38:15.421481
21556,-1.2112,4.2910,-2.3439,-105.000,390.285,-110.985,408,428,383,387,349,2025-05-27T11:38:15.421481
21557,-1.8017,4.4593,-2.1531,-188.580,397.880,-70.105,411,401,383,403,374,2025-05-27T11:38:15.421481
21558,-2.1921,4.6824,-1.8915,-280.980,322.000,-32.935,422,408,390,416,359,2025-05-27T11:38:15.421481
21559,-2.4971,4.7643,-1.8461,-377.125,205.590,-7.560,413,401,368,408,390,2025-05-27T11:38:15.421481
21560,-2.1628,4.6609,-2.2907,-466.340,117.180,17.990,412,365,381,394,383,2025-05-27T11:38:15.421481
21561,-1.7812,4.4950,-2.7787,-536.270,99.505,71.400,339,407,391,395,344,2025-05-27T11:38:15.421481
21562,-1.6616,4.1456,-3.2735,-585.200,133.735,116.795,363,420,377,380,371,2025-05-27T11:38:15.421481
21563,-1.9291,3.8371,-3.7722,-612.710,161.105,154.420,406,428,335,396,359,2025-05-27T11:38:15.521391
21564,-2.5888,3.2862,-4.5360,-613.340,126.000,179.480,425,395,361,400,375,2025-05-27T11:38:15.521391
21565,-3.1857,2.6567,-4.7731,-605.430,17.430,213.465,407,414,378,411,404,2025-05-27T11:38:15.521391
21566,-3.2584,1.6309,-5.2714,-568.540,-94.045,239.190,353,401,369,403,395,2025-05-27T11:38:15.521391
21567,-2.8382,0.2362,-5.5705,-503.720,-124.390,270.270,394,388,379,391,401,2025-05-27T11:38:15.521391
21568,-2.4244,-1.0380,-5.4944,-419.370,-76.860,306.355,402,398,371,346,411,2025-05-27T11:38:15.521391
21569,-1.5884,-1.9954,-4.9581,-339.500,75.880,334.005,421,416,387,391,410,2025-05-27T11:38:15.521391
21570,-1.4982,-3.4028,-4.1748,-301.735,253.365,305.865,380,426,388,413,386,2025-05-27T11:38:15.521391
21571,-2.1418,-4.1929,-3.3604,-257.250,303.485,280.560,340,401,386,354,389,2025-05-27T11:38:15.521391
21572,-2.4049,-4.6980,-2.2487,-218.295,126.455,264.005,385,341,378,396,389,2025-05-27T11:38:15.638360
21573,-1.0985,-4.6419,-1.2586,-195.020,-91.070,248.465,392,288,373,387,382,2025-05-27T11:38:15.638360
21574,0.0307,-4.5623,-0.7857,-179.200,-128.975,200.305,383,403,374,400,396,2025-05-27T11:38:15.638360
21575,0.7369,-3.8772,-0.0156,-164.710,-20.615,124.425,419,417,383,403,403,2025-05-27T11:38:15.638360
21576,0.4075,-3.1881,0.6510,-112.070,85.610,52.605,428,372,375,388,351,2025-05-27T11:38:15.638360
21577,0.0224,-2.6367,1.0277,-57.680,78.995,7.315,398,394,387,404,378,2025-05-27T11:38:15.638360
21578,-0.0571,-2.2004,0.9374,-7.980,3.500,-44.520,425,411,373,415,344,2025-05-27T11:38:15.638360
21579,-0.0220,-1.5767,0.7886,35.770,-29.295,-86.415,412,377,371,395,374,2025-05-27T11:38:15.638360
21580,-0.1444,-1.0043,0.5436,70.035,-19.670,-121.415,401,391,367,395,386,2025-05-27T11:38:15.737272
21581,-0.3914,-0.5085,0.2601,94.010,2.275,-142.310,374,415,367,390,403,2025-05-27T11:38:15.737848
21582,-0.6422,-0.1191,0.0244,119.980,2.450,-153.335,380,419,364,415,387,2025-05-27T11:38:15.737902
21583,-0.8218,0.2347,-0.2172,144.025,1.155,-153.370,336,426,368,417,384,2025-05-27T11:38:15.737902
21584,-1.0531,0.4182,-0.4216,163.905,-11.760,-149.380,366,409,378,410,362,2025-05-27T11:38:15.737941
21585,-1.1795,0.7520,-0.6159,179.445,-35.770,-147.490,394,357,381,411,386,2025-05-27T11:38:15.737941
21586,-1.2586,1.0585,-0.6876,178.815,-73.675,-153.055,392,289,373,414,364,2025-05-27T11:38:15.737941
21587,-1.3640,1.2556,-0.7139,163.170,-116.830,-158.060,419,372,340,418,396,2025-05-27T11:38:15.738018
21588,-1.3601,1.2698,-0.7862,148.960,-160.685,-162.085,403,402,359,397,412,2025-05-27T11:38:15.738018
21589,-1.3908,1.3103,-0.7847,132.265,-194.880,-167.230,348,421,366,404,413,2025-05-27T11:38:15.839165
21590,-1.3693,1.3098,-0.7725,127.855,-220.395,-170.940,403,424,371,384,392,2025-05-27T11:38:15.839165
21591,-1.2927,1.3971,-0.7447,124.740,-240.940,-172.025,393,412,380,392,349,2025-05-27T11:38:15.839165
21592,-1.2668,1.5494,-0.7100,114.660,-267.365,-172.690,380,425,378,395,385,2025-05-27T11:38:15.839165
21593,-1.1039,1.7344,-0.5578,94.640,-268.800,-171.220,404,306,377,391,397,2025-05-27T11:38:15.839165
21594,-1.2019,1.8471,-0.2499,67.970,-257.110,-161.840,390,331,383,405,395,2025-05-27T11:38:15.839165
21595,-1.1902,1.8051,-0.2396,50.505,-256.305,-141.225,378,406,395,403,395,2025-05-27T11:38:15.839165
21596,-1.2727,1.7056,-0.2899,46.760,-272.545,-117.915,330,360,396,398,398,2025-05-27T11:38:15.839165
21597,-1.2429,1.6553,-0.4006,55.720,-290.500,-102.410,396,339,391,348,362,2025-05-27T11:38:15.938192
21598,-1.0892,1.7597,-0.3553,51.485,-288.855,-101.010,418,408,390,398,358,2025-05-27T11:38:15.938192
21599,-0.9248,1.9637,-0.0459,37.310,-263.445,-91.385,423,421,377,383,392,2025-05-27T11:38:15.938192
21600,-0.8764,1.9222,0.3231,20.615,-239.995,-60.585,368,373,383,409,385,2025-05-27T11:38:15.938192
21601,-0.9140,1.7295,0.4333,18.795,-238.140,-25.445,415,397,377,384,383,2025-05-27T11:38:15.938192
21602,-0.9653,1.6856,0.2425,20.510,-246.960,5.845,344,338,385,338,384,2025-05-27T11:38:15.938192
21603,-0.9536,1.6504,0.0366,30.275,-255.955,9.345,354,423,375,328,350,2025-05-27T11:38:15.938192
21604,-0.8301,1.5777,0.0439,38.920,-260.155,7.700,335,430,375,368,378,2025-05-27T11:38:15.938192
21605,-0.7632,1.5577,0.1962,36.540,-269.570,5.075,385,413,384,349,394,2025-05-27T11:38:16.171322
21606,-0.7013,1.4567,0.3113,25.830,-287.070,8.015,338,413,378,372,416,2025-05-27T11:38:16.171322
21607,-0.6315,1.3171,0.3406,18.585,-305.515,13.720,408,404,351,335,415,2025-05-27T11:38:16.171322
21608,-0.5266,1.2717,0.3099,14.840,-312.970,18.445,412,411,364,347,389,2025-05-27T11:38:16.171322
21609,-0.4046,1.2000,0.2001,18.305,-308.420,21.595,420,401,379,382,394,2025-05-27T11:38:16.171322
21610,-0.3113,1.0638,0.0386,23.975,-288.750,24.185,406,429,383,387,345,2025-05-27T11:38:16.171322
21611,-0.2616,0.9355,0.0005,27.615,-271.355,26.495,410,432,354,397,392,2025-05-27T11:38:16.171322
21612,-0.2279,0.8608,0.1074,25.900,-254.310,28.420,425,435,368,415,411,2025-05-27T11:38:16.171322
21613,-0.1654,0.7969,0.2259,19.180,-233.765,32.550,397,425,374,382,403,2025-05-27T11:38:16.171322
21614,-0.1035,0.7091,0.2855,10.220,-212.275,38.675,405,427,382,399,406,2025-05-27T11:38:16.171322
21615,-0.0947,0.6256,0.2469,6.965,-195.195,45.045,409,406,378,409,403,2025-05-27T11:38:16.171322
21616,-0.1103,0.5031,0.1630,7.350,-174.440,48.930,337,405,372,371,404,2025-05-27T11:38:16.171322
21617,-0.1352,0.4143,0.0952,12.530,-157.745,50.540,401,340,378,346,391,2025-05-27T11:38:16.171322
21618,-0.1352,0.3489,0.0961,19.565,-145.950,50.155,329,377,375,380,409,2025-05-27T11:38:16.171322
21619,-0.0717,0.3070,0.0878,23.485,-132.790,48.405,373,404,374,365,410,2025-05-27T11:38:16.171322
21620,-0.0181,0.2572,0.0834,25.375,-113.855,45.745,414,418,348,386,406,2025-05-27T11:38:16.720510
21621,0.0693,0.2533,0.0903,28.630,-92.155,41.300,404,437,360,408,402,2025-05-27T11:38:16.720510
21622,0.0898,0.2708,0.0620,31.605,-59.780,36.225,400,434,337,403,397,2025-05-27T11:38:16.720510
21623,0.0678,0.2567,0.0254,33.985,-28.665,27.615,406,413,368,417,396,2025-05-27T11:38:16.720510
21624,0.0068,0.2352,-0.0010,38.745,-7.455,16.940,380,372,378,399,391,2025-05-27T11:38:16.720510
21625,-0.0556,0.2401,0.0098,44.520,1.505,6.895,383,410,339,384,405,2025-05-27T11:38:16.720510
21626,-0.0834,0.3143,0.0112,49.140,1.435,0.735,391,421,369,405,406,2025-05-27T11:38:16.721146
21627,-0.1200,0.4504,0.0693,52.325,-0.315,-6.020,407,435,379,411,404,2025-05-27T11:38:16.721146
21628,-0.1000,0.5754,0.1269,52.325,-0.665,-12.495,424,404,370,412,401,2025-05-27T11:38:16.721186
21629,-0.0712,0.7008,0.1527,51.940,2.415,-18.725,427,396,370,413,405,2025-05-27T11:38:16.721186
21630,-0.0669,0.8481,0.1586,51.905,6.300,-21.630,418,402,378,404,364,2025-05-27T11:38:16.721266
21631,-0.0805,1.0448,0.1850,50.715,8.260,-21.350,425,415,370,413,380,2025-05-27T11:38:16.721266
21632,-0.0722,1.2517,0.2645,47.670,11.270,-17.255,377,338,381,409,387,2025-05-27T11:38:16.721266
21633,-0.0781,1.4176,0.3611,41.195,15.120,-11.025,405,406,360,373,343,2025-05-27T11:38:16.721266
21634,-0.0839,1.5099,0.4041,36.435,20.300,-4.655,341,396,332,350,379,2025-05-27T11:38:16.721266
21635,-0.1293,1.5748,0.3875,32.935,23.660,-0.630,324,395,356,351,374,2025-05-27T11:38:16.721266
21636,-0.1640,1.6631,0.3865,28.945,25.165,3.885,396,381,365,374,389,2025-05-27T11:38:16.721266
21637,-0.1742,1.6787,0.4080,23.275,26.285,9.730,387,416,373,403,398,2025-05-27T11:38:16.721266
21638,-0.1928,1.6533,0.4465,18.060,26.250,16.625,345,430,343,390,403,2025-05-27T11:38:16.721266
21639,-0.2157,1.5743,0.4558,10.640,24.220,24.710,398,435,358,412,367,2025-05-27T11:38:16.721266
21640,-0.2460,1.4567,0.4514,2.310,18.795,30.730,414,373,371,414,386,2025-05-27T11:38:16.721266
21641,-0.2738,1.3381,0.4226,-5.635,9.205,37.030,371,378,341,397,398,2025-05-27T11:38:16.721266
21642,-0.2455,1.1507,0.3689,-11.970,-2.905,40.915,370,400,328,360,307,2025-05-27T11:38:16.721266
21643,-0.1713,0.9555,0.3040,-17.675,-11.235,40.180,390,396,349,373,370,2025-05-27T11:38:16.721266
21644,-0.0381,0.6793,0.2157,-20.440,-13.195,34.160,401,403,359,400,382,2025-05-27T11:38:16.721266
21645,0.1449,0.3699,0.1298,-24.395,-6.790,20.580,411,428,370,416,364,2025-05-27T11:38:16.721266
21646,0.3470,-0.0483,-0.0181,-26.145,13.755,-1.715,302,406,384,366,388,2025-05-27T11:38:16.721266
21647,0.5514,-0.5919,-0.2206,-22.190,42.280,-34.265,410,391,391,403,401,2025-05-27T11:38:16.721266
21648,0.6895,-1.1268,-0.4475,-16.275,98.630,-66.745,415,398,361,401,352,2025-05-27T11:38:16.721266
21649,0.7808,-1.5079,-0.6271,-7.875,172.795,-113.085,346,423,364,366,333,2025-05-27T11:38:16.721266
21650,0.7017,-1.9296,-0.7139,-4.900,259.000,-165.235,381,424,378,382,353,2025-05-27T11:38:16.721266
21651,0.4421,-2.3175,-0.7149,4.130,340.935,-222.600,406,304,374,385,385,2025-05-27T11:38:16.721266
21652,-0.0415,-2.3400,-0.7647,17.570,382.690,-271.180,408,402,390,393,345,2025-05-27T11:38:16.721266
21653,-0.7052,-2.3136,-0.7974,44.240,382.375,-308.175,423,391,380,341,382,2025-05-27T11:38:16.721266
21654,-1.0687,-2.0969,-0.6622,75.530,336.805,-326.900,398,372,379,396,403,2025-05-27T11:38:16.721266
21655,-1.2981,-1.7339,-0.5724,116.165,272.580,-332.885,413,395,365,409,402,2025-05-27T11:38:16.721266
21656,-1.5060,-1.4030,-0.6178,154.140,218.505,-346.465,433,402,370,402,361,2025-05-27T11:38:16.721266
21657,-1.7109,-0.8242,-0.6373,186.655,206.640,-358.365,416,412,383,417,370,2025-05-27T11:38:16.721266
21658,-1.6846,-0.5075,-0.7496,217.875,229.005,-362.250,359,393,389,391,378,2025-05-27T11:38:16.721266
21659,-1.8686,-0.3665,-0.9501,242.935,273.210,-355.355,420,426,400,399,384,2025-05-27T11:38:16.721266
21660,-2.1257,-0.2508,-1.1058,258.090,303.065,-336.665,403,398,395,402,394,2025-05-27T11:38:16.721266
21661,-2.4854,0.1654,-1.2415,277.515,296.625,-311.500,401,339,371,401,405,2025-05-27T11:38:16.721266
21662,-2.7733,0.5056,-1.4874,288.960,256.060,-286.895,396,413,369,411,389,2025-05-27T11:38:16.721266
21663,-2.5420,1.0985,-1.7939,281.400,223.370,-263.200,402,424,366,401,386,2025-05-27T11:38:16.721266
21664,-2.2482,1.8632,-2.0442,273.875,225.470,-255.465,376,401,378,410,396,2025-05-27T11:38:16.721266
21665,-1.9291,2.6962,-2.5127,256.200,276.535,-242.340,293,424,382,404,353,2025-05-27T11:38:16.762245
21666,-1.6943,3.5097,-2.9353,221.830,356.860,-234.430,313,408,391,384,372,2025-05-27T11:38:16.762245
21667,-1.7426,3.9499,-3.1149,157.010,432.320,-207.060,406,422,364,392,364,2025-05-27T11:38:16.762245
21668,-2.0042,4.3998,-2.9031,59.535,462.385,-159.460,412,419,383,390,379,2025-05-27T11:38:16.762245
21669,-2.4644,4.8205,-2.7592,-52.290,409.640,-106.470,342,401,395,396,361,2025-05-27T11:38:16.762245
21670,-2.6454,5.0645,-2.5742,-161.805,284.340,-76.930,325,395,389,402,380,2025-05-27T11:38:16.762245
21671,-1.9852,5.2665,-2.5342,-241.675,163.170,-55.265,406,408,350,391,380,2025-05-27T11:38:16.762245
21672,-1.5636,5.2553,-2.6489,-348.005,120.330,-33.180,418,405,360,365,382,2025-05-27T11:38:16.762245
21673,-1.4889,4.9683,-3.0100,-447.860,118.860,-7.560,403,417,358,379,390,2025-05-27T11:38:17.006673
21674,-1.8651,4.3574,-3.3267,-535.605,105.980,23.310,401,405,361,381,379,2025-05-27T11:38:17.006673
21675,-2.2804,3.9855,-3.7127,-598.535,12.460,62.405,405,430,379,385,379,2025-05-27T11:38:17.006673
21676,-2.2258,3.6415,-4.3813,-639.380,-107.520,123.340,407,430,352,388,400,2025-05-27T11:38:17.006673
21677,-1.6045,3.2647,-5.0825,-645.890,-169.400,187.705,418,426,379,340,398,2025-05-27T11:38:17.006673
21678,-1.2864,2.5610,-5.8233,-630.735,-135.205,236.775,423,405,367,385,409,2025-05-27T11:38:17.006673
21679,-1.7788,1.5079,-6.3406,-610.435,-40.145,262.255,425,413,377,408,411,2025-05-27T11:38:17.006673
21680,-2.6411,-0.0854,-6.6612,-563.150,23.135,277.655,424,406,343,406,415,2025-05-27T11:38:17.006673
21681,-2.6201,-1.4572,-6.2240,-497.770,40.985,329.105,416,427,352,399,395,2025-05-27T11:38:17.006673
21682,-1.9427,-2.4649,-6.0741,-436.415,89.740,334.145,418,411,372,411,390,2025-05-27T11:38:17.006673
21683,-1.8593,-2.9607,-4.5843,-433.125,233.275,305.970,377,398,373,412,308,2025-05-27T11:38:17.006673
21684,-1.8827,-3.3257,-3.0383,-424.060,253.015,314.825,336,351,369,402,372,2025-05-27T11:38:17.006673
21685,-1.4694,-4.3193,-2.1540,-369.495,154.980,268.450,379,405,368,368,396,2025-05-27T11:38:17.006673
21686,-0.9633,-5.6598,-1.9247,-272.685,-33.880,143.535,395,421,371,376,409,2025-05-27T11:38:17.006673
21687,-0.1918,-5.0732,-0.8799,-210.525,-91.525,58.380,392,414,378,405,396,2025-05-27T11:38:17.006673
21688,-0.0581,-4.3852,-0.0244,-200.830,-21.105,-12.530,295,404,390,408,351,2025-05-27T11:38:17.006673
21689,-0.2469,-3.8898,0.7032,-170.555,-3.500,-60.550,387,343,380,403,375,2025-05-27T11:38:17.006673
21690,-0.2206,-3.3965,1.4508,-116.900,-59.255,-80.570,408,383,382,419,399,2025-05-27T11:38:17.006673
21691,-0.1581,-3.0422,1.3654,-37.065,-148.470,-120.015,407,341,387,418,312,2025-05-27T11:38:17.006673
21692,0.3026,-2.5147,1.0277,51.380,-141.645,-142.275,401,393,343,344,376,2025-05-27T11:38:17.171331
21693,0.5168,-1.7026,0.5754,143.710,-45.850,-139.510,400,424,359,334,381,2025-05-27T11:38:17.171331
21694,0.0673,-0.8560,0.2791,201.915,55.860,-131.810,396,394,376,401,401,2025-05-27T11:38:17.171331
21695,-0.5866,-0.0976,-0.0586,226.520,73.605,-122.255,395,427,383,399,408,2025-05-27T11:38:17.171331
21696,-1.1566,0.3894,-0.2972,249.795,43.050,-110.670,376,375,384,414,412,2025-05-27T11:38:17.171331
21697,-1.6167,0.7193,-0.3875,250.145,-24.535,-109.725,370,410,390,400,361,2025-05-27T11:38:17.171331
21698,-1.6099,0.8530,-0.5993,248.675,-105.245,-108.185,396,406,349,385,365,2025-05-27T11:38:17.171331
21699,-1.5894,0.9023,-0.9345,250.530,-167.440,-111.195,401,340,361,381,368,2025-05-27T11:38:17.171331
21700,-1.1556,1.0526,-1.2117,250.145,-192.220,-122.185,400,399,375,380,397,2025-05-27T11:38:17.171331
21701,-0.8750,1.3596,-1.2732,237.125,-163.555,-132.580,425,415,380,412,369,2025-05-27T11:38:17.171331
21702,-0.9614,1.7470,-1.1219,206.255,-116.060,-129.605,415,408,389,405,398,2025-05-27T11:38:17.171331
21703,-1.4591,1.7187,-1.0004,174.125,-119.280,-115.500,411,413,394,402,390,2025-05-27T11:38:17.171331
21704,-1.8207,1.5065,-1.0443,151.340,-173.915,-109.305,426,421,389,396,410,2025-05-27T11:38:17.171331
21705,-1.6602,1.3132,-1.1248,138.740,-271.880,-111.895,417,410,395,407,352,2025-05-27T11:38:17.171331
21706,-1.5304,1.4162,-1.0809,128.520,-327.635,-115.780,422,428,393,403,390,2025-05-27T11:38:17.171331
21707,-1.2229,1.5992,-0.9682,112.735,-332.920,-119.840,423,419,390,416,368,2025-05-27T11:38:17.371643
21708,-0.9252,1.8027,-0.9018,93.905,-307.720,-112.630,382,430,392,415,397,2025-05-27T11:38:17.371643
21709,-0.8769,1.8759,-0.7852,72.975,-285.320,-109.445,403,350,385,411,403,2025-05-27T11:38:17.371643
21710,-0.8574,1.8168,-0.6725,54.670,-263.410,-101.500,391,412,343,412,406,2025-05-27T11:38:17.371643
21711,-0.9960,1.6011,-0.5109,43.820,-243.040,-95.655,417,422,374,357,387,2025-05-27T11:38:17.371643
21712,-1.0063,1.4498,-0.4124,33.040,-229.040,-87.500,391,393,366,378,404,2025-05-27T11:38:17.371643
21713,-1.0477,1.4786,-0.2645,21.910,-219.870,-75.495,426,405,378,390,408,2025-05-27T11:38:17.371643
21714,-1.0897,1.6729,-0.0971,10.045,-217.770,-60.690,360,296,373,387,398,2025-05-27T11:38:17.371643
21715,-1.0731,1.7090,-0.1098,2.730,-222.600,-37.205,384,381,377,389,404,2025-05-27T11:38:17.371643
21716,-0.9711,1.6206,-0.1879,-6.615,-229.810,-14.035,417,397,384,407,392,2025-05-27T11:38:17.371643
21717,-0.8223,1.5084,-0.2611,-6.055,-217.595,6.020,384,405,384,404,409,2025-05-27T11:38:17.371643
21718,-0.8042,1.4123,-0.0512,-9.275,-186.865,18.235,403,402,341,393,390,2025-05-27T11:38:17.371643
21719,-0.8403,1.3581,0.2142,-15.260,-167.475,26.285,374,399,362,366,348,2025-05-27T11:38:17.371643
21720,-0.8677,1.2942,0.4085,-12.425,-162.750,36.295,410,356,330,385,378,2025-05-27T11:38:17.371643
21721,-0.8691,1.2649,0.2987,-10.675,-173.180,53.375,361,405,352,403,386,2025-05-27T11:38:17.371643
21722,-0.8296,1.2088,0.1298,-1.820,-188.825,70.350,346,363,352,345,388,2025-05-27T11:38:17.371643
21723,-0.7105,1.1380,0.0429,10.920,-203.350,81.340,389,409,370,392,371,2025-05-27T11:38:17.371643
21724,-0.5241,1.0531,0.0210,17.990,-205.205,85.330,422,386,370,415,387,2025-05-27T11:38:17.471272
21725,-0.3201,1.0414,0.0049,15.820,-190.960,85.225,428,421,388,366,379,2025-05-27T11:38:17.471272
21726,-0.1420,1.0570,0.0264,5.180,-170.135,84.245,428,433,389,380,398,2025-05-27T11:38:17.471272
21727,-0.0927,1.1258,0.1444,-9.345,-137.515,81.550,403,401,374,401,402,2025-05-27T11:38:17.471272
21728,-0.1532,1.0555,0.1874,-22.890,-105.315,77.315,390,420,392,414,353,2025-05-27T11:38:17.471272
21729,-0.2367,0.9570,0.1298,-34.615,-89.320,73.430,404,425,375,390,383,2025-05-27T11:38:17.471272
21730,-0.3250,0.8096,0.0644,-39.480,-88.165,70.350,404,383,383,406,398,2025-05-27T11:38:17.471272
21731,-0.4065,0.7056,0.0244,-38.815,-99.155,68.600,398,405,385,415,405,2025-05-27T11:38:17.471272
21732,-0.4412,0.6281,0.0478,-35.315,-117.320,66.815,425,391,340,310,349,2025-05-27T11:38:17.571255
21733,-0.4168,0.5900,0.0551,-30.485,-135.030,65.520,413,415,351,372,338,2025-05-27T11:38:17.571255
21734,-0.3367,0.5353,0.0381,-25.375,-142.660,65.065,435,422,374,352,381,2025-05-27T11:38:17.571255
21735,-0.2167,0.5226,0.0054,-18.305,-140.490,65.450,409,408,306,351,389,2025-05-27T11:38:17.571255
21736,-0.1098,0.4631,-0.0220,-11.270,-124.810,62.545,395,406,341,391,388,2025-05-27T11:38:17.571255
21737,-0.0122,0.4255,-0.0264,-4.165,-100.625,57.260,365,412,356,354,392,2025-05-27T11:38:17.571255
21738,0.0454,0.3806,0.0215,2.135,-75.530,53.095,397,407,359,385,403,2025-05-27T11:38:17.571255
21739,0.0952,0.3787,0.0581,6.615,-53.935,51.905,413,406,368,415,387,2025-05-27T11:38:17.571255
21740,0.0898,0.3631,0.0332,12.670,-40.250,52.290,413,427,379,391,399,2025-05-27T11:38:17.571255
21741,0.0844,0.3577,0.0029,19.880,-27.685,51.625,404,374,386,392,404,2025-05-27T11:38:17.704545
21742,0.0673,0.3323,0.0264,26.950,-17.150,49.035,419,386,310,358,404,2025-05-27T11:38:17.704545
21743,0.0581,0.3172,0.0395,31.570,-6.685,44.345,409,386,358,402,412,2025-05-27T11:38:17.704545
21744,0.0034,0.3221,0.0556,35.035,1.610,37.590,415,337,330,403,402,2025-05-27T11:38:17.704545
21745,-0.0332,0.3309,0.0732,37.975,5.880,30.520,410,401,351,394,352,2025-05-27T11:38:17.704545
21746,-0.0673,0.3392,0.0566,41.615,6.615,23.240,357,402,365,382,376,2025-05-27T11:38:17.704545
21747,-0.1015,0.3977,0.0561,44.695,6.265,16.415,335,393,378,386,338,2025-05-27T11:38:17.704545
21748,-0.1283,0.4582,0.1010,46.200,3.605,7.910,361,421,373,343,338,2025-05-27T11:38:17.704545
21749,-0.1615,0.5441,0.1684,45.290,-0.210,0.490,413,423,377,383,372,2025-05-27T11:38:17.704545
21750,-0.1781,0.6398,0.2176,43.505,-4.095,-6.195,379,403,342,299,380,2025-05-27T11:38:17.704545
21751,-0.1747,0.8247,0.2396,43.855,-5.530,-10.815,412,435,364,382,408,2025-05-27T11:38:17.704545
21752,-0.1742,1.0555,0.2333,45.010,-4.760,-15.295,425,409,381,377,403,2025-05-27T11:38:17.888204
21753,-0.1596,1.3293,0.2479,42.455,-2.485,-26.810,388,419,388,364,416,2025-05-27T11:38:17.888204
21754,-0.1484,1.5226,0.3416,34.930,0.490,-18.200,416,352,348,345,386,2025-05-27T11:38:17.888204
21755,-0.1444,1.6875,0.4392,23.065,2.555,-15.855,375,399,374,399,413,2025-05-27T11:38:17.888204
21756,-0.1493,1.7812,0.4997,9.625,3.885,-11.585,411,426,350,350,370,2025-05-27T11:38:17.888204
21757,-0.1742,1.8076,0.4890,1.540,4.970,-6.930,363,408,374,386,340,2025-05-27T11:38:17.888204
21758,-0.1576,1.8090,0.4475,-6.510,5.285,-0.560,390,384,379,382,368,2025-05-27T11:38:17.888204
21759,-0.1542,1.7617,0.4207,-13.720,5.005,5.880,408,365,381,403,387,2025-05-27T11:38:17.888204
21760,-0.1693,1.6612,0.4182,-21.595,1.610,14.035,426,393,386,395,392,2025-05-27T11:38:17.888204
21761,-0.2074,1.5113,0.4407,-27.230,-4.760,19.950,384,357,344,397,391,2025-05-27T11:38:17.888204
21762,-0.2294,1.3400,0.4270,-30.555,-12.460,23.870,413,409,353,387,401,2025-05-27T11:38:17.888204
21763,-0.2118,1.1551,0.3880,-33.740,-17.955,26.880,422,429,371,383,405,2025-05-27T11:38:17.888204
21764,-0.1645,0.9804,0.3396,-35.525,-21.665,28.875,406,361,366,386,408,2025-05-27T11:38:17.888204
21765,-0.1147,0.8657,0.3060,-35.630,-20.475,27.895,422,412,345,382,414,2025-05-27T11:38:17.888204
21766,-0.0425,0.7188,0.2430,-36.400,-13.405,24.255,410,421,351,393,410,2025-05-27T11:38:17.888204
21767,-0.0146,0.5519,0.1928,-35.805,-3.710,17.360,344,413,365,399,411,2025-05-27T11:38:17.971104
21768,-0.0185,0.3787,0.1362,-33.005,6.335,6.965,404,406,336,406,422,2025-05-27T11:38:17.971104
21769,0.0146,0.1635,0.0752,-29.925,16.905,-7.035,414,378,353,405,412,2025-05-27T11:38:17.971104
21770,0.0254,-0.0752,0.0156,-25.445,26.635,-25.865,414,394,364,413,403,2025-05-27T11:38:18.520344
21771,0.0020,-0.3450,-0.0249,-19.880,40.040,-44.555,423,407,382,416,358,2025-05-27T11:38:18.520344
21772,-0.0132,-0.5275,-0.0771,-12.740,52.080,-70.000,402,427,376,418,400,2025-05-27T11:38:18.520344
21773,0.0146,-0.7242,-0.1752,-4.935,67.235,-94.395,395,349,382,367,383,2025-05-27T11:38:18.520344
21774,0.0849,-0.9023,-0.2460,1.470,93.520,-117.600,389,419,387,377,380,2025-05-27T11:38:18.520344
21775,0.2059,-1.0560,-0.3562,5.705,140.280,-141.470,399,412,311,389,380,2025-05-27T11:38:18.520344
21776,0.1664,-1.1727,-0.4329,11.095,200.165,-163.275,343,415,350,410,399,2025-05-27T11:38:18.520344
21777,0.0527,-1.2625,-0.4968,16.975,252.105,-184.590,400,408,358,403,392,2025-05-27T11:38:18.520344
21778,-0.2318,-1.2673,-0.5724,27.755,291.690,-201.880,415,417,376,372,382,2025-05-27T11:38:18.520344
21779,-0.5114,-1.2361,-0.5744,47.180,300.930,-225.295,429,343,370,390,395,2025-05-27T11:38:18.520344
21780,-0.6466,-1.1087,-0.5461,70.840,291.690,-245.070,405,402,348,409,390,2025-05-27T11:38:18.520344
21781,-0.7213,-0.9516,-0.5563,93.905,286.125,-266.245,413,424,371,411,384,2025-05-27T11:38:18.520344
21782,-0.7920,-0.8638,-0.5900,124.075,292.180,-288.540,409,403,372,399,376,2025-05-27T11:38:18.520344
21783,-0.9965,-0.6769,-0.7183,139.930,299.425,-302.540,387,404,338,401,388,2025-05-27T11:38:18.520344
21784,-1.2981,-0.6476,-0.8208,173.565,295.190,-311.745,419,428,369,400,362,2025-05-27T11:38:18.520344
21785,-1.3937,-0.4753,-0.8301,213.150,281.155,-318.115,406,427,364,303,388,2025-05-27T11:38:18.520344
21786,-1.5450,-0.1913,-0.8886,245.770,274.330,-320.495,408,401,374,377,407,2025-05-27T11:38:18.520344
21787,-1.6226,0.0176,-1.1307,276.045,281.890,-313.390,397,394,374,339,408,2025-05-27T11:38:18.520344
21788,-1.7412,0.2977,-1.4738,286.510,287.735,-303.100,404,425,381,379,413,2025-05-27T11:38:18.520344
21789,-1.9203,0.8237,-1.7895,307.580,297.815,-298.410,424,382,385,340,392,2025-05-27T11:38:18.520344
21790,-1.8329,1.6577,-2.3063,324.730,324.205,-285.320,415,398,345,378,350,2025-05-27T11:38:18.520344
21791,-1.7949,2.2814,-2.5464,318.885,372.820,-261.590,412,408,375,380,334,2025-05-27T11:38:18.520344
21792,-1.8983,2.7601,-2.7172,282.765,414.890,-227.150,404,350,387,389,383,2025-05-27T11:38:18.520344
21793,-2.2780,3.0471,-2.9456,230.055,405.790,-190.785,423,379,395,392,385,2025-05-27T11:38:18.520344
21794,-2.2912,3.6068,-3.0319,176.575,371.735,-153.755,426,421,389,384,354,2025-05-27T11:38:18.520344
21795,-2.0847,4.3988,-2.8109,96.950,315.175,-108.675,382,417,374,403,392,2025-05-27T11:38:18.520344
21796,-1.8939,4.8458,-2.7269,0.140,278.915,-78.470,370,427,339,411,411,2025-05-27T11:38:18.520344
21797,-1.2117,3.9079,-2.6723,-115.465,212.135,-135.695,405,426,357,421,354,2025-05-27T11:38:18.521340
21798,-1.0292,5.4002,-2.8543,-210.840,202.195,-39.305,435,427,330,400,342,2025-05-27T11:38:18.521340
21799,-0.8247,5.5227,-2.8036,-332.500,226.730,-49.070,430,368,355,412,343,2025-05-27T11:38:18.521340
21800,-1.0546,5.3177,-3.2369,-428.505,211.505,-76.475,344,412,371,392,370,2025-05-27T11:38:18.521340
21801,-1.2561,4.8722,-3.9299,-533.015,118.825,-105.455,387,415,359,387,332,2025-05-27T11:38:18.521340
21802,-0.9945,4.4301,-4.7790,-617.505,-1.295,-113.820,348,293,364,368,377,2025-05-27T11:38:18.521340
21803,-0.7969,3.9596,-5.8209,-677.600,-75.985,-92.190,403,319,327,334,378,2025-05-27T11:38:18.521340
21804,-0.8872,3.2989,-6.9330,-710.570,-141.820,-57.540,394,404,356,369,401,2025-05-27T11:38:18.521340
21805,-1.1702,2.7567,-7.6069,-713.335,-174.300,7.210,423,391,364,374,416,2025-05-27T11:38:18.521340
21806,-1.9012,1.6553,-8.1745,-686.175,-179.760,72.870,370,344,374,351,391,2025-05-27T11:38:18.521340
21807,-2.5420,0.1479,-8.2326,-645.365,-175.595,160.790,382,392,384,395,387,2025-05-27T11:38:18.521340
21808,-2.5313,-1.4674,-7.5176,-577.885,-163.100,266.525,431,408,379,384,358,2025-05-27T11:38:18.521340
21809,-1.7719,-2.6274,-6.8008,-508.970,-93.660,342.055,407,399,384,391,386,2025-05-27T11:38:18.521340
21810,-1.2215,-3.6444,-5.5408,-448.000,36.050,353.990,394,400,378,396,388,2025-05-27T11:38:18.521340
21811,-1.3025,-4.5926,-4.6160,-400.960,160.195,350.245,374,413,380,403,387,2025-05-27T11:38:18.621334
21812,-1.5982,-5.7091,-2.8812,-355.600,187.180,313.355,414,381,374,403,383,2025-05-27T11:38:18.621334
21813,-1.1941,-6.4597,-1.9061,-315.805,39.340,243.950,398,379,380,408,404,2025-05-27T11:38:18.621334
21814,-0.3689,-6.1927,-0.6974,-262.220,-86.590,149.835,375,378,379,404,411,2025-05-27T11:38:18.621334
21815,0.3348,-5.6447,0.2240,-228.375,-93.870,57.820,414,422,389,388,400,2025-05-27T11:38:18.621334
21816,0.4358,-5.2265,0.8969,-180.880,-47.635,-21.560,429,392,350,408,370,2025-05-27T11:38:18.621334
21817,0.5358,-4.7931,1.5055,-131.985,-60.095,-96.110,413,385,364,309,392,2025-05-27T11:38:18.621334
21818,0.4992,-4.2261,1.5592,-52.325,-93.345,-159.705,381,413,363,373,392,2025-05-27T11:38:18.621334
21819,0.3475,-3.3130,1.4157,66.360,-116.795,-208.950,368,383,383,403,385,2025-05-27T11:38:18.621334
21820,0.2484,-2.3365,0.7242,148.190,-34.790,-218.855,375,421,342,410,393,2025-05-27T11:38:18.621334
21821,-0.0483,-1.4821,0.2406,203.035,31.325,-231.770,390,381,361,395,378,2025-05-27T11:38:18.621334
21822,-0.5734,-0.8154,-0.2752,236.180,79.695,-227.080,415,392,382,349,391,2025-05-27T11:38:18.621334
21823,-1.4913,-0.2308,-0.5485,261.520,80.780,-207.550,423,390,370,389,403,2025-05-27T11:38:18.621334
21824,-1.8368,0.2503,-0.8618,278.215,24.010,-173.495,412,417,385,412,397,2025-05-27T11:38:18.621334
21825,-1.8261,0.4177,-1.3239,299.005,-33.180,-142.310,346,409,377,399,350,2025-05-27T11:38:18.621334
21826,-1.6538,0.7017,-1.6392,311.115,-60.690,-127.645,415,388,386,409,388,2025-05-27T11:38:18.804644
21827,-1.5538,1.0980,-1.6050,305.655,-60.025,-125.020,396,428,361,387,402,2025-05-27T11:38:18.804644
21828,-1.6548,1.2800,-1.5348,278.775,-84.840,-130.305,414,427,373,346,385,2025-05-27T11:38:18.804644
21829,-1.6221,1.3630,-1.5733,244.195,-120.155,-141.820,415,421,369,384,389,2025-05-27T11:38:18.804644
21830,-1.5289,1.3752,-1.5631,210.980,-132.580,-153.510,422,306,370,404,390,2025-05-27T11:38:18.804644
21831,-1.7329,1.3064,-1.5172,190.015,-122.115,-149.415,411,374,340,395,384,2025-05-27T11:38:18.804644
21832,-2.0964,1.2586,-1.4328,185.010,-159.740,-144.130,408,384,326,400,359,2025-05-27T11:38:18.804644
21833,-2.3487,1.2468,-1.3479,189.525,-255.115,-140.560,419,390,353,393,390,2025-05-27T11:38:18.804644
21834,-2.1667,1.4811,-1.1951,191.135,-346.605,-137.130,408,422,333,403,387,2025-05-27T11:38:18.804644
21835,-1.6324,1.7724,-1.1346,177.415,-415.940,-133.280,406,351,360,403,405,2025-05-27T11:38:18.804644
21836,-1.3122,1.9500,-0.9565,147.875,-393.855,-130.655,415,410,328,401,392,2025-05-27T11:38:18.804644
21837,-1.1810,1.9461,-0.7803,116.410,-321.125,-122.115,424,352,311,405,397,2025-05-27T11:38:18.804644
21838,-1.3527,1.8124,-0.5929,93.275,-256.165,-106.015,409,385,353,391,388,2025-05-27T11:38:18.804644
21839,-1.6128,1.6665,-0.5012,85.645,-242.165,-87.290,419,407,352,348,405,2025-05-27T11:38:18.804644
21840,-1.6665,1.5884,-0.4709,83.545,-254.310,-67.830,421,431,328,374,412,2025-05-27T11:38:18.804644
21841,-1.5504,1.7402,-0.2933,72.835,-255.535,-50.295,397,422,328,390,398,2025-05-27T11:38:18.804644
21842,-1.3552,1.9910,-0.0576,57.470,-239.015,-23.730,415,428,358,413,391,2025-05-27T11:38:18.804644
21843,-1.3005,1.8793,0.1513,46.760,-211.960,4.095,398,408,340,405,405,2025-05-27T11:38:18.904545
21844,-1.3815,1.7495,0.1625,38.535,-211.085,31.920,411,402,373,394,367,2025-05-27T11:38:18.904545
21845,-1.4191,1.5943,0.0869,37.450,-223.755,59.815,337,389,372,406,394,2025-05-27T11:38:18.904545
21846,-1.3474,1.5548,-0.0337,36.680,-238.210,68.180,328,378,337,405,390,2025-05-27T11:38:18.904545
21847,-1.1366,1.5304,-0.0268,31.465,-240.170,81.270,396,401,369,413,382,2025-05-27T11:38:18.904545
21848,-1.0692,1.4581,0.0498,20.580,-232.470,93.660,353,395,376,420,393,2025-05-27T11:38:18.904545
21849,-1.0399,1.2644,0.1874,12.355,-234.500,107.835,384,345,381,415,384,2025-05-27T11:38:18.904545
21850,-0.9560,1.0829,0.1972,9.730,-247.905,122.185,385,399,374,406,390,2025-05-27T11:38:18.904545
21851,-0.8423,1.0624,0.0903,9.730,-256.410,131.775,392,300,382,400,387,2025-05-27T11:38:19.004498
21852,-0.7266,1.0892,-0.0278,13.160,-254.870,132.755,417,391,372,389,391,2025-05-27T11:38:19.004498
21853,-0.4909,0.9462,-0.0742,16.240,-238.280,126.140,415,415,363,398,407,2025-05-27T11:38:19.004498
21854,-0.2894,0.8511,-0.0434,14.070,-207.305,117.110,390,429,372,363,403,2025-05-27T11:38:19.004498
21855,-0.2108,0.7130,0.0015,7.070,-176.785,108.465,398,384,384,393,419,2025-05-27T11:38:19.004498
21856,-0.1415,0.6334,0.0615,2.695,-157.080,104.930,404,360,346,407,416,2025-05-27T11:38:19.004498
21857,-0.1459,0.6300,0.0698,0.700,-148.785,103.740,381,331,365,407,394,2025-05-27T11:38:19.004498
21858,-0.1357,0.5900,0.0078,0.735,-146.230,100.625,409,386,381,395,380,2025-05-27T11:38:19.004498
21859,-0.1479,0.5022,-0.0571,2.135,-143.885,95.445,403,338,380,390,405,2025-05-27T11:38:19.137829
21860,-0.1342,0.4260,-0.0630,4.340,-144.165,86.590,419,326,381,402,403,2025-05-27T11:38:19.137829
21861,-0.1000,0.3538,-0.0571,6.580,-144.445,78.225,408,339,383,387,386,2025-05-27T11:38:19.137829
21862,-0.0590,0.2913,-0.0566,8.435,-141.260,71.575,394,381,372,367,374,2025-05-27T11:38:19.137829
21863,-0.0503,0.2523,-0.0556,11.130,-135.590,66.780,421,424,382,393,379,2025-05-27T11:38:19.137829
21864,-0.0278,0.2128,-0.0669,15.400,-119.140,62.895,404,439,383,389,374,2025-05-27T11:38:19.137829
21865,0.0029,0.1859,-0.0937,19.845,-111.440,58.940,424,425,389,409,339,2025-05-27T11:38:19.137829
21866,0.0346,0.1708,-0.0732,24.570,-88.970,55.440,420,371,377,418,340,2025-05-27T11:38:19.137829
21867,0.0712,0.1674,-0.0395,29.225,-64.855,51.835,418,424,377,395,380,2025-05-27T11:38:19.137829
21868,0.0864,0.1742,-0.0185,33.040,-38.850,48.790,418,404,343,389,386,2025-05-27T11:38:19.137829
21869,0.0581,0.2367,0.0122,35.105,-12.635,45.045,378,409,353,413,387,2025-05-27T11:38:19.137829
21870,0.0000,0.2879,0.0659,36.155,4.515,39.445,406,423,360,412,349,2025-05-27T11:38:19.137829
21871,-0.0322,0.3806,0.0864,38.045,19.075,33.985,418,406,381,409,383,2025-05-27T11:38:19.421122
21872,-0.0600,0.4812,0.0839,39.095,28.700,25.200,405,410,388,416,391,2025-05-27T11:38:19.421122
21873,-0.1132,0.5929,0.1098,39.830,33.355,15.050,395,404,314,401,395,2025-05-27T11:38:19.421122
21874,-0.1264,0.7422,0.1347,40.180,35.105,4.515,385,416,358,350,407,2025-05-27T11:38:19.421122
21875,-0.1693,0.9101,0.2225,37.940,37.310,-6.650,403,342,365,373,381,2025-05-27T11:38:19.421122
21876,-0.2059,1.0956,0.2948,34.230,37.205,-15.960,416,365,370,388,390,2025-05-27T11:38:19.421122
21877,-0.1981,1.2820,0.3475,29.120,33.285,-19.215,354,417,362,389,394,2025-05-27T11:38:19.421122
21878,-0.1976,1.4337,0.4280,21.420,28.210,-16.940,417,430,383,399,389,2025-05-27T11:38:19.421122
21879,-0.1635,1.5333,0.4934,12.740,22.365,-9.135,393,403,376,407,395,2025-05-27T11:38:19.421122
21880,-0.1464,1.5875,0.5051,4.095,16.765,1.155,402,394,383,397,387,2025-05-27T11:38:19.421122
21881,-0.1269,1.6006,0.5134,-1.505,12.495,11.200,408,420,340,399,401,2025-05-27T11:38:19.421122
21882,-0.1283,1.6060,0.5065,-7.105,11.165,18.865,397,390,369,407,388,2025-05-27T11:38:19.421122
21883,-0.1171,1.5533,0.5017,-11.235,11.130,23.135,406,404,371,391,408,2025-05-27T11:38:19.421122
21884,-0.1025,1.4772,0.5002,-15.470,12.495,24.570,395,425,382,413,392,2025-05-27T11:38:19.421122
21885,-0.0781,1.3605,0.4675,-18.550,14.105,26.810,419,428,376,408,389,2025-05-27T11:38:19.421122
21886,-0.0825,1.2293,0.4534,-21.140,15.330,29.295,424,381,367,417,396,2025-05-27T11:38:19.421122
21887,-0.1059,1.0892,0.4514,-23.205,14.630,30.170,419,410,385,393,392,2025-05-27T11:38:19.421122
21888,-0.1313,0.9492,0.4519,-25.935,11.970,29.295,397,397,389,393,405,2025-05-27T11:38:19.421122
21889,-0.1435,0.8037,0.4363,-27.615,5.915,26.880,398,349,392,399,407,2025-05-27T11:38:19.421122
21890,-0.1503,0.6754,0.4055,-26.390,-2.030,23.520,405,418,361,402,396,2025-05-27T11:38:19.421122
21891,-0.1264,0.5451,0.3479,-22.680,-7.420,17.395,405,421,367,397,408,2025-05-27T11:38:19.504407
21892,-0.0532,0.4299,0.2679,-17.745,-6.090,10.500,401,421,382,395,396,2025-05-27T11:38:19.504407
21893,0.1479,0.2850,0.1884,-13.090,6.510,3.395,374,410,376,419,397,2025-05-27T11:38:19.504407
21894,0.3958,0.0273,-0.0044,-5.425,35.980,-9.835,331,417,374,312,345,2025-05-27T11:38:19.504407
21895,0.6412,-0.1610,-0.2142,2.135,74.795,-28.210,408,353,375,363,375,2025-05-27T11:38:19.504407
21896,0.6105,-0.4748,-0.3079,8.750,139.860,-65.170,408,415,376,397,404,2025-05-27T11:38:19.504407
21897,0.4714,-0.8350,-0.3260,4.270,209.580,-103.740,357,408,388,411,394,2025-05-27T11:38:19.504407
21898,0.1732,-1.1610,-0.3421,1.925,255.115,-147.700,337,420,395,394,392,2025-05-27T11:38:19.621215
21899,-0.0742,-1.5279,-0.4885,8.855,253.820,-183.330,383,395,382,410,390,2025-05-27T11:38:19.621215
21900,-0.3884,-1.7222,-0.5431,18.305,225.960,-213.500,416,348,377,399,397,2025-05-27T11:38:19.621215
21901,-0.5383,-1.7241,-0.5407,29.260,196.455,-242.935,431,406,376,409,403,2025-05-27T11:38:19.621215
21902,-0.4695,-1.6275,-0.5519,29.120,190.400,-271.775,394,419,370,365,402,2025-05-27T11:38:19.621215
21903,-0.3719,-1.4664,-0.5958,32.585,208.390,-294.805,349,412,370,406,356,2025-05-27T11:38:19.621215
21904,-0.4704,-1.3562,-0.6930,38.815,247.485,-325.290,411,428,377,382,393,2025-05-27T11:38:19.621215
21905,-0.7252,-1.3503,-0.7954,67.130,275.695,-353.500,409,426,344,396,369,2025-05-27T11:38:19.621215
21906,-1.0799,-1.2546,-0.8003,110.215,283.745,-377.965,392,413,364,407,392,2025-05-27T11:38:19.621215
21907,-1.4523,-1.1888,-0.8872,157.500,274.015,-388.815,419,401,363,413,407,2025-05-27T11:38:19.621215
21908,-1.7773,-1.0336,-0.8886,193.760,267.750,-391.055,394,429,373,396,413,2025-05-27T11:38:19.621215
21909,-1.9115,-0.9179,-1.1122,218.470,280.805,-382.865,418,402,385,392,415,2025-05-27T11:38:19.621215
21910,-2.1169,-0.8589,-1.3054,243.320,317.905,-365.155,399,426,389,386,403,2025-05-27T11:38:19.871292
21911,-2.3097,-0.6120,-1.5416,263.725,362.180,-339.360,429,417,369,406,410,2025-05-27T11:38:19.871292
21912,-2.4156,-0.3670,-1.7949,283.465,379.330,-309.400,408,415,381,408,409,2025-05-27T11:38:19.871292
21913,-2.6298,0.1015,-1.9613,297.150,389.480,-285.950,420,413,379,390,407,2025-05-27T11:38:19.871292
21914,-2.5083,0.5744,-2.0847,306.355,392.875,-249.550,403,392,383,339,391,2025-05-27T11:38:19.871292
21915,-2.5327,1.2468,-2.3102,304.745,398.895,-221.410,347,403,372,287,385,2025-05-27T11:38:19.871292
21916,-2.6069,1.8568,-2.5127,298.340,395.010,-195.615,403,404,382,369,399,2025-05-27T11:38:19.871292
21917,-2.5327,2.5844,-2.5620,275.555,356.615,-163.205,341,405,376,353,406,2025-05-27T11:38:19.871292
21918,-2.3326,3.2130,-2.6069,230.405,314.895,-137.970,385,344,383,364,411,2025-05-27T11:38:19.871292
21919,-1.9530,2.2448,-2.7094,171.325,276.710,-150.255,399,399,367,377,351,2025-05-27T11:38:19.871292
21920,-1.8822,4.0114,-2.7948,35.385,269.850,-138.810,418,374,370,402,358,2025-05-27T11:38:20.670940
21921,-1.8671,4.5477,-2.7040,-46.305,287.280,-78.470,423,420,350,391,330,2025-05-27T11:38:20.670940
21922,-1.8305,4.5364,-2.6196,-132.090,232.890,-54.740,434,406,366,370,391,2025-05-27T11:38:20.670940
21923,-1.6289,4.5935,-2.5835,-209.195,143.885,-33.775,427,413,384,399,390,2025-05-27T11:38:20.670940
21924,-1.0209,4.6414,-2.9051,-298.410,84.490,-19.565,380,364,347,347,386,2025-05-27T11:38:20.670940
21925,-0.3928,4.6048,-3.4794,-394.800,94.640,-1.330,403,387,364,403,393,2025-05-27T11:38:20.670940
21926,0.0698,4.2358,-4.1797,-470.855,141.925,-6.300,395,401,372,398,406,2025-05-27T11:38:20.670940
21927,-0.2674,3.6005,-5.0040,-556.990,177.975,-49.700,417,410,374,401,405,2025-05-27T11:38:20.670940
21928,-0.9252,3.1217,-5.6091,-617.645,121.695,-54.355,390,419,364,393,401,2025-05-27T11:38:20.670940
21929,-0.8457,2.9382,-6.3547,-643.790,1.960,-8.155,411,423,373,389,402,2025-05-27T11:38:20.670940
21930,-0.3709,2.6464,-7.6592,-646.065,-119.560,61.670,390,342,371,398,400,2025-05-27T11:38:20.670940
21931,-0.1523,2.0384,-8.6630,-648.305,-132.860,127.820,372,375,376,374,406,2025-05-27T11:38:20.670940
21932,-0.7603,1.2371,-9.3359,-676.585,-12.810,166.320,335,408,335,377,402,2025-05-27T11:38:20.670940
21933,-1.4928,-0.1771,-9.3481,-761.670,108.815,80.920,425,440,364,350,396,2025-05-27T11:38:20.670940
21934,-2.3014,-1.3786,-8.7025,-734.755,113.960,122.115,412,386,386,393,384,2025-05-27T11:38:20.670940
21935,-2.3512,-2.3092,-7.7192,-687.295,-49.070,186.025,417,417,389,404,385,2025-05-27T11:38:20.670940
21936,-1.8510,-3.2798,-6.8486,-621.845,-86.590,224.630,402,424,346,390,351,2025-05-27T11:38:20.670940
21937,-1.3381,-3.4643,-5.4993,-598.780,16.730,233.590,423,411,357,405,394,2025-05-27T11:38:20.670940
21938,-1.8905,-4.0138,-3.9094,-566.650,138.285,232.330,427,408,370,405,396,2025-05-27T11:38:20.670940
21939,-1.7636,-4.8292,-2.4912,-509.005,121.905,218.645,401,411,366,409,395,2025-05-27T11:38:20.670940
21940,-1.4010,-5.7330,-1.6099,-425.040,-81.025,144.725,416,357,365,412,406,2025-05-27T11:38:20.670940
21941,-0.3089,-5.4227,-0.7247,-340.340,-169.925,95.585,424,384,378,412,401,2025-05-27T11:38:20.670940
21942,0.2518,-5.4998,-0.1113,-264.635,-126.910,22.295,409,329,381,412,389,2025-05-27T11:38:20.670940
21943,0.6764,-5.2675,0.5646,-210.070,-56.875,-43.225,340,367,365,409,400,2025-05-27T11:38:20.670940
21944,0.5724,-4.9849,1.2400,-139.930,-46.655,-97.020,387,329,369,412,358,2025-05-27T11:38:20.670940
21945,0.6490,-4.7575,1.5323,-36.050,-143.570,-151.130,402,287,375,413,396,2025-05-27T11:38:20.670940
21946,0.9087,-4.1436,1.2995,39.480,-75.495,-171.115,421,404,376,383,411,2025-05-27T11:38:20.670940
21947,0.9677,-3.5346,0.9618,139.860,14.700,-193.340,404,427,383,392,398,2025-05-27T11:38:20.670940
21948,0.1240,-2.8011,0.4343,233.870,91.455,-201.495,409,407,387,393,390,2025-05-27T11:38:20.670940
21949,-0.7681,-2.0764,0.0649,296.905,79.310,-204.155,408,397,341,397,394,2025-05-27T11:38:20.670940
21950,-0.9462,-1.4181,-0.6159,338.240,43.365,-199.850,409,416,371,399,401,2025-05-27T11:38:20.670940
21951,-1.3254,-0.8140,-1.0063,343.630,23.380,-193.725,402,405,375,406,415,2025-05-27T11:38:20.670940
21952,-1.5562,-0.0878,-1.2464,348.355,2.275,-184.485,393,411,372,417,412,2025-05-27T11:38:20.670940
21953,-1.7568,0.5602,-1.4308,358.995,-48.475,-186.760,421,428,347,398,410,2025-05-27T11:38:20.670940
21954,-1.6533,1.0277,-1.5401,361.585,-111.440,-195.965,432,419,364,410,396,2025-05-27T11:38:20.670940
21955,-1.4689,1.0497,-1.8251,339.500,-137.165,-206.535,431,404,378,388,370,2025-05-27T11:38:20.670940
21956,-1.1629,0.8969,-1.9866,310.415,-88.480,-219.380,432,429,384,402,394,2025-05-27T11:38:20.670940
21957,-1.4899,0.8711,-1.9632,288.330,-19.950,-215.320,436,396,351,343,396,2025-05-27T11:38:20.670940
21958,-2.0437,1.1888,-1.7636,278.180,-19.110,-194.250,394,419,363,387,405,2025-05-27T11:38:20.670940
21959,-2.7011,1.4464,-1.6026,266.245,-123.795,-178.220,416,424,301,389,391,2025-05-27T11:38:20.670940
21960,-2.8319,1.5445,-1.5758,262.640,-240.625,-166.425,405,419,340,409,393,2025-05-27T11:38:20.670940
21961,-2.6352,1.5279,-1.5865,251.860,-386.855,-166.530,395,433,355,386,409,2025-05-27T11:38:20.670940
21962,-2.2082,1.4059,-1.6802,232.645,-451.430,-167.930,396,406,336,418,422,2025-05-27T11:38:20.670940
21963,-1.7231,1.4552,-1.5899,205.310,-434.420,-172.830,386,402,350,405,410,2025-05-27T11:38:20.670940
21964,-1.2542,1.6934,-1.1009,174.405,-351.015,-164.255,349,416,293,399,408,2025-05-27T11:38:20.670940
21965,-1.2410,1.8593,-0.7491,142.590,-246.750,-138.495,407,431,342,420,399,2025-05-27T11:38:20.670940
21966,-1.5172,1.8149,-0.5778,116.760,-191.730,-110.005,420,435,371,414,395,2025-05-27T11:38:20.670940
21967,-1.7763,1.6660,-0.4900,104.790,-189.595,-91.070,421,426,375,402,367,2025-05-27T11:38:20.670940
21968,-1.8383,1.5621,-0.3665,83.370,-203.770,-78.190,388,383,364,371,392,2025-05-27T11:38:20.670940
21969,-1.6724,1.4899,-0.2059,82.285,-205.660,-63.245,412,398,337,386,369,2025-05-27T11:38:20.670940
21970,-1.7041,1.5470,0.0254,68.915,-197.155,-41.510,386,391,348,404,383,2025-05-27T11:38:20.670940
21971,-1.7334,1.6753,0.1825,65.555,-203.350,-17.395,414,341,327,400,408,2025-05-27T11:38:20.670940
21972,-1.7812,1.6738,0.1869,65.380,-227.815,3.115,381,382,348,414,393,2025-05-27T11:38:20.670940
21973,-1.6592,1.6426,0.1064,62.580,-253.540,25.830,403,390,340,358,406,2025-05-27T11:38:20.670940
21974,-1.4450,1.6416,0.0883,53.060,-261.800,43.820,395,394,331,372,397,2025-05-27T11:38:20.670940
21975,-1.2961,1.6480,0.2059,40.215,-251.020,57.750,405,397,357,391,390,2025-05-27T11:38:20.670940
21976,-1.1902,1.5943,0.3104,26.915,-238.280,74.340,424,352,344,394,411,2025-05-27T11:38:20.670940
21977,-1.3103,1.4254,0.4065,14.595,-239.330,90.370,389,403,366,395,409,2025-05-27T11:38:20.670940
21978,-1.3410,1.2522,0.3640,13.440,-257.635,103.215,396,400,374,393,393,2025-05-27T11:38:20.670940
21979,-1.2361,1.0873,0.2552,18.515,-278.425,109.760,334,344,336,355,390,2025-05-27T11:38:20.670940
21980,-1.0248,1.0399,0.1845,23.695,-284.235,114.905,403,405,360,346,396,2025-05-27T11:38:20.670940
21981,-0.8281,0.9501,0.1274,23.205,-273.315,116.760,411,422,366,379,350,2025-05-27T11:38:20.670940
21982,-0.6793,0.8154,0.1322,19.985,-256.235,117.635,355,340,380,409,332,2025-05-27T11:38:20.670940
21983,-0.5758,0.7681,0.1420,14.735,-237.895,117.635,286,387,375,404,340,2025-05-27T11:38:20.670940
21984,-0.5392,0.6505,0.1371,9.555,-221.130,116.515,395,409,383,399,382,2025-05-27T11:38:20.670940
21985,-0.4714,0.6002,0.0864,5.460,-211.785,114.695,400,421,389,385,344,2025-05-27T11:38:20.670940
21986,-0.2669,0.5617,0.0102,4.095,-199.150,112.175,416,432,356,366,330,2025-05-27T11:38:20.670940
21987,-0.2874,0.4948,-0.0454,5.740,-181.825,108.605,346,428,376,385,378,2025-05-27T11:38:20.670940
21988,-0.2123,0.4451,-0.0771,8.925,-161.840,104.440,392,376,306,341,372,2025-05-27T11:38:20.670940
21989,-0.1703,0.3782,-0.0815,10.675,-148.820,101.465,372,414,349,387,380,2025-05-27T11:38:20.670940
21990,-0.1830,0.3201,-0.0688,11.620,-141.400,97.475,383,411,369,403,381,2025-05-27T11:38:20.670940
21991,-0.1449,0.2708,-0.0888,11.410,-139.790,93.485,398,384,381,399,383,2025-05-27T11:38:20.670940
21992,-0.0947,0.2186,-0.0952,11.865,-136.675,89.740,414,395,370,374,386,2025-05-27T11:38:20.670940
21993,-0.0332,0.1591,-0.1596,14.420,-128.030,87.465,407,404,340,405,388,2025-05-27T11:38:20.670940
21994,0.0459,0.1181,-0.2025,19.705,-111.930,84.595,373,397,367,393,405,2025-05-27T11:38:20.670940
21995,0.1386,0.0971,-0.2089,25.865,-87.465,81.410,386,382,340,391,393,2025-05-27T11:38:20.670940
21996,0.2098,0.0825,-0.1796,29.365,-57.505,79.450,410,401,370,391,385,2025-05-27T11:38:20.670940
21997,0.2172,0.0786,-0.1279,30.835,-25.585,76.685,420,379,377,408,369,2025-05-27T11:38:20.723455
21998,0.1976,0.0590,-0.0795,31.080,0.560,71.925,404,417,377,384,357,2025-05-27T11:38:20.723455
21999,0.1708,0.0830,-0.0600,29.960,17.745,64.925,393,407,382,350,369,2025-05-27T11:38:20.723455
22000,0.1142,0.1405,-0.0512,29.365,39.970,55.965,337,414,395,381,397,2025-05-27T11:38:20.723455
22001,0.0478,0.2147,-0.0307,30.415,61.530,39.130,392,409,390,408,352,2025-05-27T11:38:20.775709
22002,-0.0512,0.3406,-0.0137,32.795,79.345,18.270,372,421,388,363,374,2025-05-27T11:38:20.775709
22003,-0.1986,0.4743,0.0259,36.785,89.250,-3.605,363,407,374,379,381,2025-05-27T11:38:20.775709
22004,-0.3528,0.6076,0.1771,40.145,85.715,-22.855,416,431,366,413,397,2025-05-27T11:38:20.775709
22005,-0.4612,0.8525,0.3645,42.000,72.975,-34.440,404,434,383,413,400,2025-05-27T11:38:20.859088
22006,-0.4978,1.1444,0.4934,41.615,53.760,-35.385,393,426,373,415,383,2025-05-27T11:38:20.859088
22007,-0.4865,1.4225,0.6027,37.975,38.535,-30.730,389,392,353,391,408,2025-05-27T11:38:20.859088
22008,-0.4231,1.6202,0.6720,33.180,28.875,-20.405,389,420,375,411,410,2025-05-27T11:38:20.859088
22009,-0.4036,1.7651,0.7330,26.005,26.285,-10.465,363,390,392,374,368,2025-05-27T11:38:20.954394
22010,-0.4104,1.8354,0.7969,18.795,23.030,-0.630,391,412,382,411,380,2025-05-27T11:38:20.954394
22011,-0.4304,1.8290,0.8525,14.175,13.440,11.270,402,401,389,395,383,2025-05-27T11:38:20.954394
22012,-0.4275,1.7509,0.8618,10.955,-6.195,23.275,341,402,388,410,399,2025-05-27T11:38:20.954394
22013,-0.4158,1.6226,0.8267,9.835,-10.360,33.390,408,377,382,419,391,2025-05-27T11:38:20.954394
22014,-0.3831,1.4967,0.7476,9.940,-22.120,39.480,422,407,386,425,388,2025-05-27T11:38:20.954394
22015,-0.3143,1.3303,0.6793,11.200,-32.760,45.395,403,402,386,420,348,2025-05-27T11:38:20.954394
22016,-0.2338,1.1653,0.5856,12.845,-39.410,49.630,345,421,381,416,349,2025-05-27T11:38:20.954394
22017,-0.1728,1.0014,0.5031,14.315,-42.385,51.135,393,409,385,396,339,2025-05-27T11:38:20.954394
22018,-0.0634,0.8623,0.4177,15.435,-41.790,49.805,404,433,375,389,384,2025-05-27T11:38:20.954394
22019,0.0288,0.7432,0.3279,14.805,-34.790,46.620,411,403,384,413,393,2025-05-27T11:38:20.954394
22020,0.1347,0.6295,0.2523,12.775,-18.550,38.360,344,430,387,404,403,2025-05-27T11:38:21.070963
22021,0.1771,0.4973,0.2108,9.835,0.805,26.355,377,401,379,403,411,2025-05-27T11:38:21.070963
22022,0.1527,0.3699,0.1698,7.140,16.555,11.935,392,405,367,415,415,2025-05-27T11:38:21.070963
22023,0.0913,0.2211,0.1181,6.370,22.470,-2.940,408,358,368,368,358,2025-05-27T11:38:21.070963
22024,0.0805,0.0556,0.0527,7.595,20.720,-17.675,372,385,382,339,378,2025-05-27T11:38:21.070963
22025,0.1205,-0.1547,-0.0439,10.920,18.900,-30.345,416,370,374,380,387,2025-05-27T11:38:21.070963
22026,0.1810,-0.3475,-0.1703,14.770,23.870,-47.740,393,408,384,340,304,2025-05-27T11:38:21.070963
22027,0.3250,-0.5817,-0.2987,18.655,42.385,-65.730,353,401,373,372,319,2025-05-27T11:38:21.070963
22028,0.4431,-0.8003,-0.3997,19.600,83.020,-86.275,405,421,381,396,375,2025-05-27T11:38:21.070963
22029,0.4685,-1.0048,-0.4939,19.460,143.570,-112.840,420,352,393,403,382,2025-05-27T11:38:21.154355
22030,0.3650,-1.1800,-0.5836,19.705,212.485,-145.390,360,415,396,353,385,2025-05-27T11:38:21.154355
22031,-0.0029,-1.3371,-0.6178,17.605,263.760,-186.865,394,420,386,397,392,2025-05-27T11:38:21.154355
22032,-0.2811,-1.4450,-0.6090,19.565,303.240,-227.710,399,421,373,416,397,2025-05-27T11:38:21.154355
22033,-0.4904,-1.4396,-0.6310,28.105,318.430,-250.635,425,390,379,415,389,2025-05-27T11:38:21.154355
22034,-0.7096,-1.4435,-0.6398,45.080,323.330,-270.935,426,383,336,421,404,2025-05-27T11:38:21.154355
22035,-0.9399,-1.3962,-0.6207,67.270,321.020,-293.930,425,399,367,358,405,2025-05-27T11:38:21.154355
22036,-1.2171,-1.2605,-0.6017,96.950,312.340,-317.205,407,415,367,400,392,2025-05-27T11:38:21.154355
22037,-1.5772,-1.0897,-0.6534,125.335,292.390,-345.030,425,432,373,410,410,2025-05-27T11:38:21.401330
22038,-1.8524,-0.9501,-0.7130,161.770,270.620,-374.500,421,426,369,417,395,2025-05-27T11:38:21.401330
22039,-2.0003,-0.7950,-0.6974,195.545,260.505,-397.355,430,409,361,396,391,2025-05-27T11:38:21.401330
22040,-2.0452,-0.7139,-0.7398,223.020,268.100,-401.730,413,405,335,406,395,2025-05-27T11:38:21.401330
22041,-2.1989,-0.6354,-0.9414,245.945,294.945,-395.185,412,371,349,402,389,2025-05-27T11:38:21.401330
22042,-2.6445,-0.4177,-1.2166,265.370,325.290,-380.205,424,421,364,411,408,2025-05-27T11:38:21.401330
22043,-2.8660,-0.1215,-1.5050,286.860,328.300,-362.950,409,432,388,419,420,2025-05-27T11:38:21.401330
22044,-2.7245,0.5431,-1.6773,306.215,319.305,-335.825,419,426,382,420,405,2025-05-27T11:38:21.401330
22045,-2.6337,1.2302,-1.7832,307.790,316.540,-306.005,424,424,374,420,399,2025-05-27T11:38:21.401330
22046,-2.7245,1.7265,-1.9998,298.620,305.550,-285.635,403,419,376,408,393,2025-05-27T11:38:21.401330
22047,-3.0168,2.0857,-2.2243,280.630,265.125,-262.745,395,416,372,423,351,2025-05-27T11:38:21.401330
22048,-2.3971,2.8792,-2.3336,240.100,227.780,-236.810,389,430,386,414,386,2025-05-27T11:38:21.401330
22049,-1.9359,3.6073,-2.6171,176.050,219.590,-219.695,391,425,382,373,390,2025-05-27T11:38:21.401330
22050,-1.3459,4.1246,-2.8138,78.400,287.350,-194.950,376,422,388,358,409,2025-05-27T11:38:21.401330
22051,-1.7568,5.3324,-2.9900,-25.760,353.850,-148.680,411,422,382,394,395,2025-05-27T11:38:21.401330
22052,-2.1955,4.4462,-2.7162,-113.155,293.020,-116.795,427,403,372,403,406,2025-05-27T11:38:21.401330
22053,-2.0125,4.6394,-2.7879,-201.180,168.560,-87.430,428,352,340,415,409,2025-05-27T11:38:21.401330
22054,-1.4132,4.6916,-2.8704,-279.090,94.290,-64.365,422,290,364,411,390,2025-05-27T11:38:21.401330
22055,-1.0985,4.5194,-3.2535,-382.620,110.985,-48.510,416,386,341,397,401,2025-05-27T11:38:21.401330
22056,-1.2854,4.2358,-3.6688,-469.350,134.155,-40.530,410,391,349,389,391,2025-05-27T11:38:21.451457
22057,-1.6646,3.8679,-4.2241,-531.930,112.735,-30.870,418,380,361,385,389,2025-05-27T11:38:21.451457
22058,-2.1438,3.4018,-5.0415,-571.305,28.875,-5.635,410,397,374,390,395,2025-05-27T11:38:21.451457
22059,-2.1262,3.0490,-5.8848,-591.710,-90.720,41.230,404,419,385,392,409,2025-05-27T11:38:21.451457
22060,-1.6172,2.7567,-6.9477,-607.950,-147.315,112.840,411,431,385,343,407,2025-05-27T11:38:21.451457
22061,-1.6343,2.0198,-8.0100,-625.240,-108.255,175.140,411,402,382,394,399,2025-05-27T11:38:21.587887
22062,-2.2326,0.9672,-8.5868,-653.100,-15.330,212.065,342,420,356,364,361,2025-05-27T11:38:21.587887
22063,-2.9065,-0.3328,-8.6513,-662.655,10.360,249.760,403,415,366,388,388,2025-05-27T11:38:21.587887
22064,-3.3335,-1.8383,-8.3956,-661.395,-15.015,308.245,383,418,370,359,392,2025-05-27T11:38:21.587887
22065,-2.8982,-2.7123,-7.0902,-632.975,-66.465,394.275,379,406,337,395,394,2025-05-27T11:38:21.587887
22066,-2.0008,-3.7122,-6.4177,-559.265,-39.935,437.920,407,394,336,350,388,2025-05-27T11:38:21.587887
22067,-1.1907,-3.6990,-5.0313,-500.115,102.410,395.080,408,407,368,388,366,2025-05-27T11:38:21.587887
22068,-1.1429,-4.2461,-3.5112,-478.310,258.300,359.100,425,405,383,386,385,2025-05-27T11:38:21.587887
22069,-1.7329,-5.2846,-2.2155,-444.745,283.185,316.050,416,437,379,338,359,2025-05-27T11:38:21.587887
22070,-1.4694,-6.6065,-1.3771,-369.075,68.040,200.480,420,353,368,381,389,2025-05-27T11:38:22.120685
22071,-0.3841,-6.4919,-0.4714,-285.250,-119.665,101.290,416,399,362,419,396,2025-05-27T11:38:22.120685
22072,0.5788,-5.4407,0.7257,-243.250,-106.820,20.265,378,424,337,413,387,2025-05-27T11:38:22.120842
22073,0.5324,-4.8000,1.2766,-195.125,22.155,-51.170,385,428,324,375,405,2025-05-27T11:38:22.120842
22074,0.2884,-4.6204,1.8222,-134.925,35.840,-122.955,394,402,324,393,400,2025-05-27T11:38:22.120874
22075,0.0903,-4.0929,1.8910,-51.520,-58.240,-182.210,350,424,329,412,393,2025-05-27T11:38:22.120874
22076,-0.2113,-3.2681,1.7509,93.695,-85.225,-223.125,397,403,348,372,398,2025-05-27T11:38:22.120874
22077,-0.2801,-2.5474,1.1385,188.510,-70.805,-243.215,394,365,362,406,372,2025-05-27T11:38:22.120874
22078,-0.3304,-1.8637,0.4211,247.100,-23.170,-249.760,411,339,328,395,376,2025-05-27T11:38:22.120874
22079,-0.3904,-1.4264,-0.3294,289.660,25.025,-258.965,365,380,322,348,393,2025-05-27T11:38:22.120874
22080,-0.7749,-0.8994,-0.8608,306.425,98.770,-252.700,383,389,354,395,402,2025-05-27T11:38:22.120874
22081,-1.6563,-0.5148,-1.0648,314.860,122.570,-226.625,423,407,358,347,371,2025-05-27T11:38:22.120874
22082,-2.3605,-0.2791,-1.1951,325.535,40.495,-197.960,402,411,359,372,357,2025-05-27T11:38:22.120874
22083,-2.3727,-0.1884,-1.4904,338.065,-104.930,-180.600,382,417,361,398,356,2025-05-27T11:38:22.120874
22084,-2.2458,-0.0503,-1.7187,341.145,-195.790,-181.685,416,412,381,393,389,2025-05-27T11:38:22.120874
22085,-1.7822,0.3455,-1.9657,336.035,-240.345,-194.460,429,389,383,398,414,2025-05-27T11:38:22.120874
22086,-1.2034,0.7364,-2.1208,332.500,-238.595,-213.500,429,395,370,407,411,2025-05-27T11:38:22.120874
22087,-1.2361,1.0219,-1.9710,296.835,-163.240,-227.850,396,409,375,395,394,2025-05-27T11:38:22.120874
22088,-1.6558,1.0878,-1.7475,258.720,-113.750,-222.635,397,390,385,389,345,2025-05-27T11:38:22.120874
22089,-2.2482,0.9648,-1.6177,235.585,-135.205,-212.100,422,421,343,387,365,2025-05-27T11:38:22.120874
22090,-2.5625,0.9306,-1.5914,223.615,-224.840,-202.195,421,419,350,408,351,2025-05-27T11:38:22.120874
22091,-2.4751,1.0687,-1.6011,218.575,-316.855,-193.445,413,398,340,414,348,2025-05-27T11:38:22.120874
22092,-2.0242,1.4006,-1.5514,199.745,-349.860,-184.520,382,376,334,420,382,2025-05-27T11:38:22.120874
22093,-1.9125,1.6841,-1.2859,162.225,-327.600,-176.785,415,411,363,403,402,2025-05-27T11:38:22.120874
22094,-1.7836,1.6314,-1.0677,129.465,-289.170,-167.125,438,430,327,412,416,2025-05-27T11:38:22.120874
22095,-1.7651,1.4762,-0.8833,109.130,-249.340,-150.045,400,304,355,414,413,2025-05-27T11:38:22.120874
22096,-1.6577,1.4220,-0.7540,97.370,-194.950,-133.140,384,369,366,421,403,2025-05-27T11:38:22.120874
22097,-1.7466,1.4630,-0.5724,86.380,-134.820,-110.915,337,407,378,315,394,2025-05-27T11:38:22.120874
22098,-1.8564,1.5562,-0.4187,80.185,-97.685,-80.010,402,400,354,380,363,2025-05-27T11:38:22.120874
22099,-1.9964,1.6011,-0.1630,70.805,-90.825,-48.440,403,418,379,379,399,2025-05-27T11:38:22.120874
22100,-2.0877,1.6768,-0.0224,67.935,-108.290,-16.905,412,428,307,384,410,2025-05-27T11:38:22.120874
22101,-2.1267,1.6616,-0.0220,67.480,-146.055,16.100,411,414,342,349,385,2025-05-27T11:38:22.120874
22102,-2.0286,1.6485,-0.0996,64.225,-193.725,30.380,402,429,367,402,367,2025-05-27T11:38:22.120874
22103,-1.7710,1.6016,-0.1801,56.175,-222.670,49.455,390,401,333,391,372,2025-05-27T11:38:22.120874
22104,-1.4611,1.5069,-0.1366,39.165,-221.165,65.380,419,402,359,402,401,2025-05-27T11:38:22.120874
22105,-1.2947,1.4074,0.0200,23.030,-193.200,83.790,427,395,371,409,389,2025-05-27T11:38:22.120874
22106,-1.2234,1.2649,0.1122,9.135,-169.680,103.180,391,399,385,412,361,2025-05-27T11:38:22.120874
22107,-1.3113,1.1849,0.1264,3.780,-162.400,122.220,380,401,374,407,381,2025-05-27T11:38:22.120874
22108,-1.4137,1.0204,0.0512,0.210,-173.915,138.075,387,399,372,402,402,2025-05-27T11:38:22.120874
22109,-1.2522,0.8560,-0.0020,6.965,-202.790,149.310,380,425,366,412,412,2025-05-27T11:38:22.120874
22110,-1.2029,0.7774,-0.0425,15.995,-231.350,156.835,342,428,334,359,385,2025-05-27T11:38:22.120874
22111,-0.9784,0.7442,-0.0556,22.575,-244.160,163.065,410,430,326,381,383,2025-05-27T11:38:22.120874
22112,-0.7676,0.6934,-0.0468,22.435,-239.960,165.970,414,435,355,404,401,2025-05-27T11:38:22.120874
22113,-0.5841,0.6500,0.0117,22.680,-225.995,165.725,389,417,380,393,349,2025-05-27T11:38:22.120874
22114,-0.4226,0.6573,0.0854,22.820,-202.440,163.275,398,438,385,406,393,2025-05-27T11:38:22.120874
22115,-0.2547,0.6915,0.0766,20.720,-171.640,159.040,403,349,384,360,369,2025-05-27T11:38:22.120874
22116,-0.1508,0.6734,0.0259,15.050,-137.970,153.160,403,333,341,388,359,2025-05-27T11:38:22.213683
22117,-0.1347,0.6095,-0.0176,9.730,-93.240,145.355,400,352,337,392,387,2025-05-27T11:38:22.213683
22118,-0.1728,0.5558,-0.0415,7.175,-61.215,139.160,337,381,355,395,398,2025-05-27T11:38:22.213683
22119,-0.2347,0.5378,0.0029,5.600,-46.865,133.700,399,392,368,408,353,2025-05-27T11:38:22.213683
22120,-0.3050,0.5358,0.0298,2.730,-43.470,128.100,395,403,384,394,349,2025-05-27T11:38:22.303765
22121,-0.3616,0.5056,0.0278,2.625,-47.635,120.820,418,347,381,347,373,2025-05-27T11:38:22.303765
22122,-0.3396,0.4538,0.0015,4.970,-54.110,113.820,392,334,375,386,361,2025-05-27T11:38:22.303765
22123,-0.3060,0.3982,-0.0288,7.875,-59.045,107.870,335,327,372,412,393,2025-05-27T11:38:22.303765
22124,-0.2635,0.3494,-0.0459,12.635,-61.355,102.200,400,358,343,387,398,2025-05-27T11:38:22.303765
22125,-0.2191,0.3206,-0.0322,16.590,-62.055,96.110,369,412,376,414,419,2025-05-27T11:38:22.303765
22126,-0.2084,0.2977,0.0034,19.845,-59.255,91.490,397,410,387,351,390,2025-05-27T11:38:22.303765
22127,-0.2020,0.2767,0.0142,24.185,-57.470,86.170,402,411,382,390,403,2025-05-27T11:38:22.303765
22128,-0.1864,0.2499,0.0122,30.310,-56.315,80.675,411,402,392,409,381,2025-05-27T11:38:22.303765
22129,-0.1576,0.2474,-0.0044,36.085,-52.290,74.165,340,405,394,417,406,2025-05-27T11:38:22.303765
22130,-0.1020,0.2572,-0.0117,43.750,-44.310,67.480,395,414,353,411,399,2025-05-27T11:38:22.303765
22131,-0.0600,0.2538,0.0005,49.140,-34.405,60.200,394,366,323,414,416,2025-05-27T11:38:22.398518
22132,0.0102,0.2777,0.0244,51.835,-15.435,53.270,416,398,348,373,395,2025-05-27T11:38:22.398518
22133,0.0239,0.3143,0.0171,52.955,7.840,43.855,428,356,358,339,380,2025-05-27T11:38:22.398518
22134,0.0107,0.3548,0.0268,53.235,28.910,34.265,418,393,367,374,406,2025-05-27T11:38:22.398518
22135,-0.0259,0.4314,0.0483,53.060,43.610,26.075,400,343,377,380,364,2025-05-27T11:38:22.398518
22136,-0.0805,0.4978,0.0561,53.620,51.030,19.320,424,337,387,334,402,2025-05-27T11:38:22.398518
22137,-0.1435,0.5685,0.0664,55.370,51.380,13.230,421,326,395,393,397,2025-05-27T11:38:22.398518
22138,-0.2255,0.6842,0.1010,56.945,44.695,7.560,417,387,390,368,398,2025-05-27T11:38:22.398518
22139,-0.2840,0.7852,0.1610,56.350,30.800,0.105,404,403,383,393,398,2025-05-27T11:38:22.487438
22140,-0.3235,0.9379,0.2147,52.990,13.230,-7.490,419,392,338,399,406,2025-05-27T11:38:22.487438
22141,-0.3089,1.0804,0.2469,47.355,-4.445,-14.280,385,417,361,417,412,2025-05-27T11:38:22.487438
22142,-0.2528,1.2229,0.2611,42.455,-16.450,-20.020,347,412,379,394,421,2025-05-27T11:38:22.487438
22143,-0.1918,1.3371,0.2513,35.280,-20.055,-23.555,397,396,347,385,410,2025-05-27T11:38:22.487438
22144,-0.1474,1.4357,0.2430,27.055,-18.200,-24.325,370,404,337,390,421,2025-05-27T11:38:22.487438
22145,-0.1376,1.4703,0.2991,17.395,-13.685,-23.170,388,402,326,367,415,2025-05-27T11:38:22.487438
22146,-0.1581,1.4738,0.3362,8.925,-8.505,-20.440,425,425,362,384,398,2025-05-27T11:38:22.487438
22147,-0.1659,1.4318,0.3670,0.945,-2.520,-16.870,416,358,362,409,404,2025-05-27T11:38:22.754181
22148,-0.1947,1.3766,0.3782,-4.340,5.845,-13.685,421,384,380,350,388,2025-05-27T11:38:22.754181
22149,-0.2289,1.3191,0.3689,-8.960,13.090,-10.325,407,384,347,387,406,2025-05-27T11:38:22.754181
22150,-0.2547,1.2503,0.3357,-11.480,15.750,-6.020,413,334,330,391,351,2025-05-27T11:38:22.754181
22151,-0.3226,1.1897,0.2957,-11.760,13.825,-1.750,415,398,330,412,389,2025-05-27T11:38:22.754181
22152,-0.3831,1.0931,0.2889,-9.940,6.825,3.010,436,405,361,425,401,2025-05-27T11:38:22.754181
22153,-0.4202,1.0160,0.2869,-8.190,-2.205,6.055,429,406,366,318,401,2025-05-27T11:38:22.754181
22154,-0.3987,0.9565,0.2704,-7.700,-9.380,8.820,414,425,362,396,401,2025-05-27T11:38:22.754181
22155,-0.3860,0.8955,0.2582,-8.015,-12.950,12.075,418,428,366,415,404,2025-05-27T11:38:22.754181
22156,-0.3597,0.8530,0.2489,-8.505,-16.310,14.700,407,417,371,400,404,2025-05-27T11:38:22.754181
22157,-0.3465,0.8067,0.2386,-9.030,-19.285,17.185,418,407,364,403,409,2025-05-27T11:38:22.754181
22158,-0.3206,0.7818,0.2264,-8.890,-21.910,18.130,404,430,384,419,408,2025-05-27T11:38:22.754181
22159,-0.2860,0.7920,0.2054,-7.945,-22.435,17.290,406,349,371,413,404,2025-05-27T11:38:22.754181
22160,-0.2425,0.7974,0.1815,-6.125,-20.895,14.980,355,401,368,394,347,2025-05-27T11:38:22.754181
22161,-0.2040,0.7974,0.1893,-5.110,-16.205,12.390,408,385,356,363,371,2025-05-27T11:38:22.754181
22162,-0.1606,0.7915,0.2079,-5.040,-9.275,9.170,409,421,370,401,394,2025-05-27T11:38:22.754181
22163,-0.1444,0.7706,0.2216,-5.565,-2.170,5.810,428,430,374,411,396,2025-05-27T11:38:22.754181
22164,-0.1376,0.7427,0.2333,-6.125,3.255,1.820,424,357,379,394,400,2025-05-27T11:38:22.933616
22165,-0.1454,0.7052,0.2357,-6.335,5.495,-3.920,360,334,354,412,394,2025-05-27T11:38:22.933616
22166,-0.1279,0.6637,0.2430,-6.370,6.510,-11.375,383,404,359,410,353,2025-05-27T11:38:22.933616
22167,-0.0878,0.5719,0.2660,-7.280,9.625,-18.445,397,428,367,407,373,2025-05-27T11:38:22.933616
22168,-0.0551,0.4568,0.2640,-9.310,14.315,-29.575,395,412,366,402,400,2025-05-27T11:38:22.933616
22169,-0.0454,0.2860,0.2528,-11.690,20.895,-46.095,418,435,376,422,395,2025-05-27T11:38:22.933616
22170,-0.0273,0.0913,0.2181,-13.860,30.135,-69.440,412,424,376,402,413,2025-05-27T11:38:22.933616
22171,0.0210,-0.0717,0.1474,-16.310,41.265,-96.110,413,394,387,393,414,2025-05-27T11:38:22.933616
22172,0.0639,-0.2523,0.0478,-17.640,60.515,-117.880,406,410,356,403,406,2025-05-27T11:38:22.933616
22173,0.1279,-0.4002,-0.0322,-18.235,86.240,-143.885,419,402,381,406,363,2025-05-27T11:38:22.933616
22174,0.1269,-0.5524,-0.1039,-16.870,114.940,-168.315,346,344,357,388,376,2025-05-27T11:38:22.933616
22175,0.0727,-0.7096,-0.1279,-13.195,144.585,-192.220,366,374,376,411,396,2025-05-27T11:38:22.933616
22176,0.0000,-0.8345,-0.1703,-7.350,170.800,-217.945,368,380,376,408,396,2025-05-27T11:38:22.933616
22177,-0.0688,-0.9487,-0.1898,6.440,191.520,-243.250,418,426,380,372,392,2025-05-27T11:38:22.933616
22178,-0.2640,-0.8823,-0.2606,23.240,211.470,-270.305,429,429,379,392,408,2025-05-27T11:38:22.933616
22179,-0.5378,-0.7803,-0.3465,46.200,224.980,-302.365,412,442,385,410,399,2025-05-27T11:38:22.933616
22180,-0.6368,-0.9272,-0.4216,74.340,218.015,-331.415,403,410,349,402,358,2025-05-27T11:38:22.933616
22181,-0.6876,-0.8384,-0.5134,111.580,215.705,-352.695,411,420,339,404,336,2025-05-27T11:38:22.933616
22182,-0.6676,-0.8213,-0.5822,146.405,235.025,-361.550,408,408,338,372,385,2025-05-27T11:38:22.933616
22183,-0.8574,-0.7749,-0.7096,170.415,269.150,-358.050,399,399,363,395,402,2025-05-27T11:38:23.020841
22184,-1.1214,-0.7891,-0.8789,200.375,288.435,-343.560,421,433,371,403,396,2025-05-27T11:38:23.020841
22185,-1.4235,-0.6642,-0.9682,238.910,283.955,-326.550,438,422,371,387,391,2025-05-27T11:38:23.020841
22186,-1.5928,-0.5168,-1.1039,270.655,271.110,-306.215,428,384,340,368,370,2025-05-27T11:38:23.020841
22187,-1.6197,-0.2660,-1.2249,287.560,266.490,-281.645,436,421,357,397,404,2025-05-27T11:38:23.020841
22188,-1.5396,0.0068,-1.4747,287.245,277.165,-243.355,320,409,365,400,410,2025-05-27T11:38:23.020841
22189,-1.3415,0.3270,-1.6968,281.260,313.915,-209.055,405,403,373,414,406,2025-05-27T11:38:23.020841
22190,-1.4201,0.6891,-2.0057,279.300,357.035,-189.245,403,336,371,386,396,2025-05-27T11:38:23.104137
22191,-1.4318,1.1117,-2.2873,248.885,388.990,-180.810,381,382,336,407,391,2025-05-27T11:38:23.104137
22192,-1.4601,1.7773,-2.5298,220.885,385.455,-180.880,424,367,365,394,400,2025-05-27T11:38:23.104137
22193,-1.7217,2.6181,-2.6401,190.610,349.930,-180.705,390,420,365,396,387,2025-05-27T11:38:23.104137
22194,-1.7768,2.7645,-2.7792,150.500,282.345,-175.770,383,377,362,373,398,2025-05-27T11:38:23.104137
22195,-1.3161,2.2267,-3.1032,118.405,204.855,-183.995,353,407,363,403,402,2025-05-27T11:38:23.104137
22196,-0.9662,3.8723,-3.4262,58.555,197.365,-161.840,383,398,368,361,382,2025-05-27T11:38:23.104137
22197,-0.4699,4.0036,-3.7825,-50.645,281.680,-141.365,420,406,375,401,394,2025-05-27T11:38:23.104137
22198,-0.5427,4.0284,-4.0704,-168.945,363.230,-142.695,391,401,373,412,377,2025-05-27T11:38:23.220886
22199,-1.2742,3.8733,-4.0436,-278.285,365.960,-164.430,404,433,379,397,337,2025-05-27T11:38:23.220886
22200,-1.4591,3.7376,-4.0855,-358.610,226.695,-171.500,405,426,374,375,382,2025-05-27T11:38:23.220886
22201,-1.4103,3.7386,-4.4223,-437.780,52.780,-177.520,415,430,379,396,398,2025-05-27T11:38:23.220886
22202,-0.8057,3.6781,-5.0664,-519.015,-45.010,-152.565,420,409,384,411,350,2025-05-27T11:38:23.220886
22203,-0.3728,3.4511,-5.6091,-591.815,-68.985,-96.110,373,396,386,403,385,2025-05-27T11:38:23.220886
22204,-0.4094,3.1144,-6.3035,-645.085,-40.950,-54.600,405,418,381,394,407,2025-05-27T11:38:23.220886
22205,-0.6076,2.6298,-7.0882,-671.860,-31.290,-6.160,394,413,367,394,353,2025-05-27T11:38:23.220886
22206,-1.2664,1.5616,-8.3916,-667.310,-66.920,27.930,417,420,370,415,378,2025-05-27T11:38:23.304226
22207,-1.7231,0.6554,-8.8958,-690.235,-104.580,102.620,423,422,388,357,381,2025-05-27T11:38:23.304226
22208,-2.0681,-0.7037,-9.4252,-712.180,-101.955,200.865,437,424,359,394,405,2025-05-27T11:38:23.304226
22209,-2.7104,-2.1838,-9.0807,-731.850,-51.800,239.190,427,409,368,353,398,2025-05-27T11:38:23.304226
22210,-2.8289,-2.9695,-7.6928,-714.070,-19.145,312.865,415,412,367,383,396,2025-05-27T11:38:23.304226
22211,-2.3780,-3.4672,-6.7110,-665.175,-1.435,376.950,435,425,366,405,394,2025-05-27T11:38:23.304226
22212,-1.9622,-4.0748,-5.6198,-573.230,72.450,331.660,358,409,367,391,401,2025-05-27T11:38:23.304226
22213,-1.7304,-4.1129,-3.9865,-512.295,179.025,308.280,384,404,382,417,401,2025-05-27T11:38:23.304226
22214,-2.0159,-5.4090,-2.6274,-473.970,192.885,269.395,416,405,383,408,390,2025-05-27T11:38:23.304226
22215,-1.4757,-6.8169,-1.9213,-409.920,37.905,178.990,441,409,387,409,403,2025-05-27T11:38:23.420336
22216,-0.2518,-7.2297,-0.8828,-332.080,-87.325,90.125,416,374,383,395,405,2025-05-27T11:38:23.420336
22217,0.3172,-6.7500,0.0971,-270.165,-122.010,-1.855,414,343,385,345,388,2025-05-27T11:38:23.420336
22218,0.7286,-6.3352,1.0838,-202.195,-78.365,-61.635,418,357,374,400,350,2025-05-27T11:38:23.420336
22219,0.7584,-5.5002,1.8578,-143.325,-84.840,-126.280,425,410,356,409,373,2025-05-27T11:38:23.420336
22220,0.6993,-4.5696,2.0418,-74.550,-102.270,-190.680,394,423,357,410,381,2025-05-27T11:38:23.920706
22221,0.2333,-3.9079,1.8617,30.030,-80.570,-226.345,405,429,372,352,363,2025-05-27T11:38:23.920706
22222,-0.0034,-3.0114,1.4523,114.520,-62.335,-245.945,301,419,375,386,378,2025-05-27T11:38:23.920706
22223,0.1108,-2.2180,0.6969,228.060,-48.720,-253.050,393,353,366,399,407,2025-05-27T11:38:23.920706
22224,-0.3680,-1.5157,0.0517,299.635,26.320,-250.810,390,394,369,400,399,2025-05-27T11:38:23.920706
22225,-0.8969,-0.8896,-0.5788,339.850,79.870,-239.225,396,402,370,418,397,2025-05-27T11:38:23.920706
22226,-1.6968,-0.4900,-0.9355,371.315,55.265,-228.970,403,389,335,397,405,2025-05-27T11:38:23.920706
22227,-2.0833,-0.1127,-1.3967,385.805,-55.020,-223.090,393,382,373,391,403,2025-05-27T11:38:23.920706
22228,-2.1877,0.0786,-1.7875,384.055,-159.040,-228.235,393,385,385,411,403,2025-05-27T11:38:23.920706
22229,-1.8451,0.3982,-1.9701,357.140,-187.845,-228.970,415,391,346,356,399,2025-05-27T11:38:23.920706
22230,-1.6533,0.6017,-2.1516,331.030,-150.570,-221.865,423,421,354,402,356,2025-05-27T11:38:23.920706
22231,-1.8349,0.8716,-2.1208,301.525,-114.975,-215.250,399,401,368,406,399,2025-05-27T11:38:23.920706
22232,-2.0594,1.1092,-1.9823,278.565,-123.480,-207.060,414,418,383,418,404,2025-05-27T11:38:23.920706
22233,-2.3195,1.3430,-1.6909,256.795,-169.575,-200.935,367,418,387,354,350,2025-05-27T11:38:23.920706
22234,-2.1145,1.4552,-1.6587,246.960,-224.105,-189.805,386,362,352,374,377,2025-05-27T11:38:23.920706
22235,-2.0130,1.5675,-1.5792,230.090,-252.875,-190.995,381,402,360,390,396,2025-05-27T11:38:23.920706
22236,-2.1340,1.6460,-1.4030,202.055,-254.590,-191.450,302,336,363,404,356,2025-05-27T11:38:23.920706
22237,-2.4112,1.6363,-1.1673,173.110,-281.295,-176.190,356,334,381,393,396,2025-05-27T11:38:23.920706
22238,-2.4312,1.7192,-1.0189,163.870,-341.635,-148.890,381,401,386,405,391,2025-05-27T11:38:23.920706
22239,-1.9784,1.8134,-1.0516,147.280,-371.665,-126.525,396,425,373,404,347,2025-05-27T11:38:23.920706
22240,-1.5470,1.9325,-0.9584,118.720,-336.280,-113.120,413,399,384,398,387,2025-05-27T11:38:23.920706
22241,-1.3527,2.0638,-0.5480,88.865,-250.145,-98.280,411,417,391,412,363,2025-05-27T11:38:23.920706
22242,-1.4416,1.9715,-0.2650,68.005,-168.035,-67.165,391,408,380,377,334,2025-05-27T11:38:23.920706
22243,-1.8642,1.7675,-0.1215,57.260,-150.290,-33.320,389,421,389,389,370,2025-05-27T11:38:23.920706
22244,-2.0208,1.7212,-0.1801,64.505,-180.740,-6.090,380,393,380,412,378,2025-05-27T11:38:23.920706
22245,-1.8734,1.7597,-0.2508,70.630,-212.800,14.245,393,408,353,400,387,2025-05-27T11:38:23.920706
22246,-1.4645,1.8451,-0.2772,64.645,-213.885,30.695,418,400,338,407,404,2025-05-27T11:38:23.920706
22247,-1.2346,1.8246,-0.0888,47.145,-185.080,50.260,378,346,369,422,374,2025-05-27T11:38:23.920706
22248,-1.1580,1.6402,0.0698,23.380,-165.970,73.640,369,382,338,397,377,2025-05-27T11:38:23.920706
22249,-1.2029,1.5138,0.0927,10.745,-160.195,95.795,378,419,353,409,385,2025-05-27T11:38:23.920706
22250,-1.1644,1.4254,0.0342,0.385,-169.540,109.900,407,401,363,395,387,2025-05-27T11:38:23.937060
22251,-1.1161,1.2820,-0.0215,-5.670,-181.685,119.140,416,343,367,398,412,2025-05-27T11:38:23.937060
22252,-0.9643,1.1175,-0.0200,-8.260,-195.895,122.220,426,415,364,403,388,2025-05-27T11:38:23.937203
22253,-0.7457,0.9804,-0.0059,-6.650,-201.670,123.690,430,416,363,407,397,2025-05-27T11:38:23.937229
22254,-0.5793,0.8403,0.0532,-2.205,-192.150,125.650,416,304,325,401,405,2025-05-27T11:38:23.937229
22255,-0.4368,0.7457,0.0512,0.945,-178.990,127.995,333,393,349,398,418,2025-05-27T11:38:23.937229
22256,-0.4124,0.6407,0.0063,3.605,-159.425,127.400,414,408,362,369,402,2025-05-27T11:38:23.937305
22257,-0.3309,0.5954,-0.0146,7.280,-139.335,124.530,417,401,369,392,414,2025-05-27T11:38:23.937305
22258,-0.2684,0.5734,-0.0303,10.080,-117.530,119.910,429,413,361,388,409,2025-05-27T11:38:23.937380
22259,-0.2518,0.5436,-0.0220,9.695,-97.335,114.590,412,366,373,404,357,2025-05-27T11:38:23.937380
22260,-0.2723,0.5178,0.0215,7.980,-83.965,109.130,339,396,380,373,375,2025-05-27T11:38:23.937380
22261,-0.2313,0.4924,0.0166,8.330,-75.215,104.160,383,420,387,337,385,2025-05-27T11:38:23.937380
22262,-0.1957,0.4973,-0.0039,9.555,-67.095,98.700,402,409,371,396,408,2025-05-27T11:38:23.937380
22263,-0.1684,0.4714,-0.0459,11.690,-54.040,93.345,400,366,370,397,396,2025-05-27T11:38:23.937555
22264,-0.1649,0.4412,-0.0620,14.350,-43.085,85.715,408,412,345,384,349,2025-05-27T11:38:23.937628
22265,-0.1879,0.4431,-0.0590,16.555,-34.370,78.505,392,420,368,352,329,2025-05-27T11:38:24.050993
22266,-0.1932,0.4538,-0.0498,18.620,-29.120,73.570,415,421,370,399,368,2025-05-27T11:38:24.050993
22267,-0.2011,0.4768,-0.0327,19.005,-24.920,69.440,422,428,384,366,398,2025-05-27T11:38:24.050993
22268,-0.1996,0.4753,0.0005,8.995,-20.650,64.330,413,406,382,403,350,2025-05-27T11:38:24.050993
22269,-0.2103,0.4582,0.0220,16.695,-17.990,58.765,368,409,376,399,379,2025-05-27T11:38:24.050993
22270,-0.2098,0.4407,0.0249,16.940,-19.250,52.465,412,418,384,418,391,2025-05-27T11:38:24.050993
22271,-0.2118,0.4246,0.0161,18.620,-23.590,47.320,397,420,384,427,348,2025-05-27T11:38:24.050993
22272,-0.1830,0.4329,0.0093,21.735,-27.370,40.355,383,409,391,399,384,2025-05-27T11:38:24.050993
22273,-0.1552,0.4475,-0.0078,25.375,-28.875,33.285,297,418,396,413,389,2025-05-27T11:38:24.050993
22274,-0.1127,0.4797,-0.0098,28.805,-26.950,25.655,375,410,318,373,344,2025-05-27T11:38:24.237381
22275,-0.0961,0.5348,0.0185,29.995,-20.580,17.920,408,425,351,392,387,2025-05-27T11:38:24.237381
22276,-0.0942,0.5944,0.0590,28.805,-12.670,10.010,339,413,367,403,402,2025-05-27T11:38:24.237381
22277,-0.1288,0.6403,0.1049,24.955,-6.265,2.555,404,405,367,399,386,2025-05-27T11:38:24.237381
22278,-0.1474,0.7013,0.1386,20.335,0.490,-2.135,429,424,380,393,399,2025-05-27T11:38:24.237381
22279,-0.1601,0.8028,0.1254,17.605,6.930,-7.350,425,419,383,397,401,2025-05-27T11:38:24.237381
22280,-0.2084,0.9584,0.1083,17.150,12.985,-12.495,401,398,378,413,403,2025-05-27T11:38:24.237381
22281,-0.2621,1.0926,0.1405,16.310,15.225,-17.430,391,402,389,414,392,2025-05-27T11:38:24.237381
22282,-0.3416,1.1893,0.2079,14.280,11.620,-20.160,429,395,379,402,407,2025-05-27T11:38:24.237381
22283,-0.3953,1.2556,0.2752,12.075,5.180,-18.480,414,398,308,369,386,2025-05-27T11:38:24.237381
22284,-0.4221,1.3127,0.3216,10.500,-4.935,-14.840,347,424,345,407,411,2025-05-27T11:38:24.237381
22285,-0.4250,1.3562,0.3396,8.400,-14.910,-8.995,391,341,326,414,395,2025-05-27T11:38:24.237381
22286,-0.3972,1.3874,0.3538,5.110,-20.545,-2.765,389,412,362,420,404,2025-05-27T11:38:24.237381
22287,-0.3645,1.3971,0.3440,1.855,-21.875,3.325,395,347,361,402,353,2025-05-27T11:38:24.237381
22288,-0.3436,1.3576,0.3314,-2.310,-20.335,8.505,415,391,367,407,332,2025-05-27T11:38:24.237381
22289,-0.3221,1.2844,0.3035,-6.160,-16.170,11.480,423,391,378,417,321,2025-05-27T11:38:24.237381
22290,-0.3148,1.2127,0.2962,-8.750,-10.325,14.980,397,334,380,419,370,2025-05-27T11:38:24.237381
22291,-0.3182,1.1068,0.2899,-11.025,-5.530,17.325,429,379,387,416,357,2025-05-27T11:38:24.287385
22292,-0.3401,0.9984,0.2767,-13.055,-4.270,19.460,425,410,394,414,398,2025-05-27T11:38:24.287385
22293,-0.3484,0.8979,0.2503,-13.720,-6.685,21.945,410,380,352,396,374,2025-05-27T11:38:24.287385
22294,-0.3504,0.7871,0.2289,-13.125,-9.975,22.645,381,408,338,367,373,2025-05-27T11:38:24.287385
22295,-0.3172,0.6798,0.1869,-12.180,-11.200,20.860,398,356,356,365,392,2025-05-27T11:38:24.468219
22296,-0.2830,0.5885,0.1503,-11.900,-9.275,16.625,425,405,355,384,411,2025-05-27T11:38:24.468219
22297,-0.2630,0.5490,0.1469,-12.075,-6.055,10.360,429,391,366,411,417,2025-05-27T11:38:24.468219
22298,-0.2513,0.5549,0.1635,-12.425,-2.240,5.180,392,380,368,361,390,2025-05-27T11:38:24.468219
22299,-0.2508,0.5519,0.1552,-12.180,-0.210,-0.945,416,419,335,370,350,2025-05-27T11:38:24.468219
22300,-0.2489,0.5519,0.1479,-10.290,-0.035,-6.230,436,389,349,333,380,2025-05-27T11:38:24.468219
22301,-0.2499,0.5749,0.1659,-7.945,0.700,-11.410,411,408,327,327,372,2025-05-27T11:38:24.468219
22302,-0.2435,0.6281,0.2069,-5.880,2.345,-16.940,403,403,350,397,400,2025-05-27T11:38:24.468219
22303,-0.2621,0.6827,0.2377,-4.515,4.235,-20.930,342,404,344,413,383,2025-05-27T11:38:24.468219
22304,-0.2957,0.7354,0.2611,-2.660,3.185,-25.305,405,395,372,374,393,2025-05-27T11:38:24.468219
22305,-0.3245,0.8198,0.2869,-0.770,0.315,-28.560,417,405,371,381,386,2025-05-27T11:38:24.468219
22306,-0.3206,0.9130,0.3211,-0.035,-0.595,-29.820,397,404,341,379,400,2025-05-27T11:38:24.468219
22307,-0.3406,1.0111,0.3684,-0.525,1.155,-29.855,423,425,354,411,415,2025-05-27T11:38:24.468219
22308,-0.4992,1.1190,0.4099,-1.925,4.025,-30.065,403,408,362,403,412,2025-05-27T11:38:24.468219
22309,-0.4270,1.1961,0.4490,-4.445,6.930,-29.435,388,429,334,370,409,2025-05-27T11:38:24.468219
22310,-0.4616,1.2883,0.4851,-6.720,9.100,-26.705,399,415,349,383,405,2025-05-27T11:38:24.553747
22311,-0.4958,1.2947,0.4875,-8.995,11.305,-20.825,389,426,359,398,404,2025-05-27T11:38:24.553747
22312,-0.5344,1.2756,0.4817,-10.815,12.705,-14.210,406,442,375,347,400,2025-05-27T11:38:24.553747
22313,-0.5695,1.2180,0.4812,-11.550,12.880,-8.365,421,415,380,333,387,2025-05-27T11:38:24.553747
22314,-0.5934,1.1478,0.4787,-12.390,11.410,-3.535,401,405,383,367,384,2025-05-27T11:38:24.553747
22315,-0.5802,1.0238,0.4665,-13.615,8.785,-0.210,339,387,392,400,402,2025-05-27T11:38:24.553747
22316,-0.5305,0.8467,0.4290,-14.490,4.935,1.470,385,397,384,413,389,2025-05-27T11:38:24.553747
22317,-0.4148,0.5285,0.3680,-14.630,3.010,0.910,395,392,387,346,389,2025-05-27T11:38:24.637003
22318,-0.2113,0.3562,0.2582,-12.915,8.155,-4.060,409,395,369,388,390,2025-05-27T11:38:24.637003
22319,0.0732,-0.0283,0.1152,-8.715,26.005,-16.555,426,424,390,405,404,2025-05-27T11:38:24.637003
22320,0.3997,-0.4431,-0.1054,-4.655,64.225,-41.475,381,396,381,414,407,2025-05-27T11:38:24.637003
22321,0.6954,-0.8228,-0.3157,2.590,108.010,-74.410,417,395,381,413,398,2025-05-27T11:38:24.637003
22322,0.8355,-1.1292,-0.4836,7.140,177.275,-111.650,406,404,346,414,408,2025-05-27T11:38:24.637003
22323,0.8804,-1.4523,-0.6193,14.735,248.675,-140.490,422,369,372,405,406,2025-05-27T11:38:24.637003
22324,0.7906,-1.6192,-0.7691,30.450,306.250,-179.235,403,387,382,398,349,2025-05-27T11:38:24.637003
22325,0.4626,-1.8110,-0.8350,54.915,335.930,-222.250,396,421,373,394,345,2025-05-27T11:38:24.851749
22326,0.0952,-1.8320,-0.7828,85.330,334.880,-265.685,396,390,342,399,368,2025-05-27T11:38:24.851749
22327,-0.2655,-1.7070,-0.7169,120.190,309.050,-307.720,400,420,371,402,360,2025-05-27T11:38:24.851749
22328,-0.4738,-1.6124,-0.7403,148.540,268.660,-331.380,379,424,384,361,391,2025-05-27T11:38:24.851749
22329,-0.5944,-1.4479,-0.7481,188.545,231.245,-346.045,399,346,380,337,384,2025-05-27T11:38:24.851749
22330,-0.8764,-1.2171,-0.8525,229.110,216.265,-357.245,351,401,378,372,347,2025-05-27T11:38:24.851749
22331,-1.1600,-1.1234,-1.1546,268.695,220.500,-357.210,400,420,377,397,328,2025-05-27T11:38:24.851749
22332,-1.4006,-1.0902,-1.3640,301.665,230.895,-348.775,302,426,380,371,380,2025-05-27T11:38:24.851749
22333,-1.4498,-0.8164,-1.4479,323.750,261.065,-323.225,337,408,387,382,349,2025-05-27T11:38:24.851749
22334,-1.5562,-0.7183,-1.5299,315.840,315.840,-286.300,400,384,349,382,335,2025-05-27T11:38:24.851749
22335,-1.8686,-0.5441,-1.7309,304.640,369.845,-254.450,414,376,326,408,331,2025-05-27T11:38:24.851749
22336,-2.0559,-0.5295,-2.0677,293.545,386.610,-207.410,410,397,360,426,366,2025-05-27T11:38:24.851749
22337,-2.1345,-0.1479,-2.3385,301.315,369.635,-176.330,374,359,347,418,356,2025-05-27T11:38:24.851749
22338,-2.1428,0.2255,-2.5298,311.220,332.535,-150.220,399,378,369,396,376,2025-05-27T11:38:24.851749
22339,-2.0481,0.2660,-2.4922,332.780,296.135,-119.210,402,399,331,382,392,2025-05-27T11:38:24.851749
22340,-1.7597,1.2146,-2.5703,294.000,252.945,-128.485,369,392,318,407,384,2025-05-27T11:38:24.851749
22341,-1.6231,0.9887,-2.6220,270.620,227.990,-119.560,406,417,347,382,391,2025-05-27T11:38:24.851749
22342,-1.5313,1.3615,-2.8641,232.330,216.475,-112.665,358,401,351,387,386,2025-05-27T11:38:25.087215
22343,-1.4176,1.7666,-2.8860,197.890,194.215,-116.900,375,410,359,406,392,2025-05-27T11:38:25.087215
22344,-1.1043,2.2097,-3.0358,155.085,170.625,-132.720,410,420,330,410,406,2025-05-27T11:38:25.087215
