SeqNum,AccX,AccY,AccZ,GyroX,GyroY,GyroZ,Flex,Force1,Force2,Force3,Force4,TimestampReception
1,0.0000,0.0000,0.0000,1.015,10.465,-9.030,472,1,205,352,320,2025-06-03T10:35:02.985366
2,-0.0669,0.9111,0.3084,40.985,-139.020,-10.010,458,1,242,355,351,2025-06-03T10:35:02.985366
3,-0.0654,0.9121,0.3143,1.750,-8.575,-1.260,435,1,286,392,373,2025-06-03T10:35:02.985366
4,-0.0673,0.9116,0.3152,1.855,-8.400,-1.260,427,2,308,372,350,2025-06-03T10:35:02.985366
5,-0.0712,0.9116,0.3123,1.820,-8.575,-1.260,390,1,323,394,350,2025-06-03T10:35:02.985366
6,-0.0722,0.9101,0.3099,1.750,-8.925,-1.435,399,1,339,396,380,2025-06-03T10:35:02.985366
7,-0.0693,0.9096,0.3133,1.855,-8.925,-1.470,392,1,340,361,373,2025-06-03T10:35:02.985366
8,-0.0649,0.9116,0.3152,1.855,-8.575,-1.540,363,2,344,382,350,2025-06-03T10:35:02.985366
9,-0.0625,0.9101,0.3148,1.925,-7.770,-1.575,371,1,352,396,367,2025-06-03T10:35:02.985366
10,-0.0664,0.9111,0.3138,1.960,-7.735,-1.610,388,2,363,359,361,2025-06-03T10:35:02.985366
11,-0.0727,0.9101,0.3128,2.030,-7.840,-1.610,359,1,355,371,368,2025-06-03T10:35:02.985366
12,-0.0737,0.9082,0.3172,2.135,-8.225,-1.785,380,2,366,394,392,2025-06-03T10:35:02.985366
13,-0.0717,0.9077,0.3177,2.275,-8.505,-1.820,392,1,359,390,388,2025-06-03T10:35:02.985366
14,-0.0708,0.9096,0.3157,2.485,-8.505,-1.960,381,1,355,378,397,2025-06-03T10:35:03.276934
15,-0.0664,0.9111,0.3113,2.450,-8.400,-2.205,391,2,337,386,408,2025-06-03T10:35:03.276934
16,-0.0664,0.9165,0.3133,2.520,-8.120,-2.275,368,2,343,393,399,2025-06-03T10:35:03.276934
17,-0.0678,0.9160,0.3162,2.555,-7.665,-2.345,376,1,350,350,397,2025-06-03T10:35:03.276934
18,-0.0673,0.9155,0.3162,2.695,-7.560,-2.380,353,1,343,368,403,2025-06-03T10:35:03.276934
19,-0.0712,0.9179,0.3143,2.660,-7.735,-2.415,369,2,330,387,399,2025-06-03T10:35:03.276934
20,-0.0742,0.9174,0.3143,2.765,-8.120,-2.345,383,2,346,401,386,2025-06-03T10:35:03.276934
21,-0.0678,0.9184,0.3167,2.660,-8.015,-2.450,390,2,352,361,387,2025-06-03T10:35:03.276934
22,-0.0659,0.9194,0.3157,2.695,-7.770,-2.380,391,1,354,307,387,2025-06-03T10:35:03.276934
23,-0.0664,0.9189,0.3157,2.590,-7.455,-2.485,388,2,348,359,388,2025-06-03T10:35:03.276934
24,-0.0703,0.9228,0.3133,2.450,-7.245,-2.520,397,1,357,375,389,2025-06-03T10:35:03.276934
25,-0.0722,0.9252,0.3162,2.415,-7.420,-2.345,396,1,360,340,384,2025-06-03T10:35:03.276934
26,-0.0732,0.9228,0.3157,2.380,-7.595,-2.450,391,2,362,333,351,2025-06-03T10:35:03.276934
27,-0.0737,0.9238,0.3143,2.240,-7.665,-2.380,385,1,341,346,372,2025-06-03T10:35:03.276934
28,-0.0756,0.9204,0.3128,2.135,-7.735,-2.275,388,1,345,374,359,2025-06-03T10:35:03.276934
29,-0.0717,0.9209,0.3133,2.100,-7.560,-2.345,385,1,352,390,373,2025-06-03T10:35:03.276934
30,-0.0752,0.9218,0.3157,1.995,-7.350,-2.135,396,2,360,401,383,2025-06-03T10:35:03.276934
31,-0.0776,0.9218,0.3182,1.995,-7.350,-2.135,366,1,354,401,387,2025-06-03T10:35:03.276934
32,-0.0825,0.9209,0.3138,2.030,-7.700,-1.995,386,2,361,400,395,2025-06-03T10:35:03.276934
33,-0.0791,0.9189,0.3196,2.030,-7.770,-1.925,384,1,361,397,396,2025-06-03T10:35:03.276934
34,-0.0722,0.9252,0.3235,2.170,-7.910,-1.785,389,2,358,358,355,2025-06-03T10:35:03.276934
35,-0.0815,0.9248,0.3192,1.995,-7.455,-1.575,396,1,352,377,385,2025-06-03T10:35:03.276934
36,-0.0820,0.9199,0.3157,2.275,-7.245,-1.540,390,1,354,393,378,2025-06-03T10:35:03.276934
37,-0.0825,0.9199,0.3143,1.995,-7.980,-1.505,401,1,359,390,391,2025-06-03T10:35:03.395568
38,-0.0815,0.9209,0.3177,2.100,-8.365,-1.365,404,2,363,397,387,2025-06-03T10:35:03.395568
39,-0.0781,0.9189,0.3240,2.240,-8.190,-1.260,390,2,366,352,387,2025-06-03T10:35:03.395568
40,-0.0756,0.9223,0.3196,2.275,-8.120,-1.155,362,1,362,375,395,2025-06-03T10:35:03.395568
41,-0.0805,0.9223,0.3162,2.205,-8.190,-1.225,345,2,359,383,397,2025-06-03T10:35:03.395568
42,-0.0805,0.9204,0.3196,2.170,-8.400,-1.260,362,1,363,380,397,2025-06-03T10:35:03.395568
43,-0.0795,0.9209,0.3221,2.065,-8.645,-1.260,382,2,364,358,390,2025-06-03T10:35:03.395568
44,-0.0791,0.9213,0.3201,2.030,-8.820,-1.225,394,1,368,371,386,2025-06-03T10:35:03.395568
45,-0.0786,0.9228,0.3138,2.135,-8.750,-1.330,390,1,368,310,384,2025-06-03T10:35:03.395568
46,-0.0805,0.9228,0.3133,1.995,-8.680,-1.225,389,1,362,350,398,2025-06-03T10:35:03.395568
47,-0.0805,0.9218,0.3128,1.890,-8.680,-1.260,393,1,344,377,388,2025-06-03T10:35:03.395568
48,-0.0795,0.9213,0.3157,1.855,-8.855,-1.155,358,1,348,372,381,2025-06-03T10:35:03.395568
49,-0.0810,0.9194,0.3162,1.925,-8.890,-1.155,364,2,356,347,371,2025-06-03T10:35:03.608256
50,-0.0820,0.9184,0.3133,1.820,-8.925,-1.120,377,1,351,372,341,2025-06-03T10:35:03.608256
51,-0.0805,0.9165,0.3118,1.925,-8.855,-0.875,386,2,336,389,359,2025-06-03T10:35:03.608256
52,-0.0752,0.9209,0.3128,1.855,-8.610,-0.980,394,1,341,388,374,2025-06-03T10:35:03.608256
53,-0.0742,0.9189,0.3094,1.785,-8.400,-1.120,391,1,350,399,375,2025-06-03T10:35:03.608256
54,-0.0839,0.9179,0.3094,1.680,-8.995,-1.575,396,2,358,400,390,2025-06-03T10:35:03.608256
55,-0.0752,0.9130,0.3133,1.785,-10.640,-1.855,399,1,356,353,345,2025-06-03T10:35:03.608256
56,-0.0678,0.9165,0.3177,2.065,-10.955,-2.170,389,1,352,369,366,2025-06-03T10:35:03.608256
57,-0.0600,0.9140,0.3148,2.065,-10.430,-2.485,399,1,353,395,383,2025-06-03T10:35:03.608256
58,-0.0561,0.9170,0.3074,1.960,-9.695,-2.940,388,1,351,381,390,2025-06-03T10:35:03.608256
59,-0.0595,0.9096,0.3001,2.030,-8.820,-3.010,400,1,355,376,359,2025-06-03T10:35:03.608256
60,-0.0737,0.9165,0.3050,1.995,-8.260,-3.185,398,1,334,342,338,2025-06-03T10:35:03.608256
61,-0.0732,0.9209,0.3128,2.100,-7.350,-3.465,405,1,335,360,297,2025-06-03T10:35:03.608256
62,-0.0776,0.9233,0.3118,2.310,-6.860,-3.360,402,2,341,367,349,2025-06-03T10:35:03.608256
63,-0.0854,0.9257,0.3109,2.170,-7.455,-3.255,401,2,349,398,378,2025-06-03T10:35:03.608256
64,-0.0883,0.9243,0.3070,2.065,-7.770,-2.870,396,1,348,384,376,2025-06-03T10:35:03.608256
65,-0.0898,0.9306,0.3128,1.645,-8.260,-2.485,363,1,349,397,389,2025-06-03T10:35:03.608256
66,-0.0849,0.9306,0.3148,1.400,-8.715,-2.240,376,2,359,400,397,2025-06-03T10:35:03.804432
67,-0.0805,0.9301,0.3177,1.260,-8.540,-1.645,385,1,363,397,389,2025-06-03T10:35:03.804432
68,-0.0830,0.9292,0.3187,1.085,-7.980,-1.190,390,1,362,387,385,2025-06-03T10:35:03.804432
69,-0.0834,0.9306,0.3177,1.050,-7.735,-0.875,394,2,356,390,397,2025-06-03T10:35:03.804432
70,-0.0917,0.9287,0.3084,0.770,-7.945,-0.700,385,1,338,393,388,2025-06-03T10:35:03.804432
71,-0.0913,0.9257,0.3109,0.735,-8.610,-0.455,393,2,327,396,381,2025-06-03T10:35:03.804432
72,-0.0834,0.9243,0.3157,0.805,-8.785,-0.175,394,1,343,408,401,2025-06-03T10:35:03.804432
73,-0.0791,0.9233,0.3196,0.945,-8.120,-0.140,396,2,352,401,391,2025-06-03T10:35:03.804432
74,-0.0815,0.9189,0.3133,1.085,-7.840,0.035,400,1,352,353,384,2025-06-03T10:35:03.804432
75,-0.0815,0.9184,0.3196,1.225,-7.665,0.105,400,1,334,387,381,2025-06-03T10:35:03.804432
76,-0.0800,0.9170,0.3231,1.225,-7.805,0.210,405,1,343,377,374,2025-06-03T10:35:03.804432
77,-0.0800,0.9170,0.3206,1.575,-7.840,0.350,408,1,347,389,382,2025-06-03T10:35:03.804432
78,-0.0805,0.9165,0.3128,1.540,-8.155,0.315,374,1,354,393,383,2025-06-03T10:35:03.804432
79,-0.0795,0.9170,0.3060,1.610,-8.295,0.280,384,2,362,404,393,2025-06-03T10:35:03.804432
80,-0.0737,0.9179,0.3099,1.435,-8.050,0.035,360,1,360,398,400,2025-06-03T10:35:03.804432
81,-0.0781,0.9121,0.3128,1.645,-7.910,-0.105,372,1,353,407,388,2025-06-03T10:35:03.804432
82,-0.0766,0.9145,0.3099,1.435,-8.015,-0.385,380,1,360,410,354,2025-06-03T10:35:03.804432
83,-0.0771,0.9140,0.3148,1.470,-7.980,-0.630,392,2,360,403,333,2025-06-03T10:35:03.851695
84,-0.0717,0.9155,0.3074,1.540,-8.260,-0.665,389,1,361,391,358,2025-06-03T10:35:03.851695
85,-0.0747,0.9145,0.3050,1.435,-8.400,-0.840,380,1,354,403,380,2025-06-03T10:35:03.851695
86,-0.0722,0.9150,0.3079,1.225,-7.945,-1.050,383,2,365,413,382,2025-06-03T10:35:03.851695
87,-0.0678,0.9160,0.3128,1.155,-7.105,-1.120,395,2,360,375,383,2025-06-03T10:35:04.008867
88,-0.0776,0.9160,0.3143,1.330,-6.755,-1.190,391,1,361,386,403,2025-06-03T10:35:04.008867
89,-0.0786,0.9150,0.3084,1.190,-7.035,-1.365,392,2,369,356,400,2025-06-03T10:35:04.008867
90,-0.0839,0.9145,0.3070,1.330,-7.875,-1.295,401,1,357,386,403,2025-06-03T10:35:04.008867
91,-0.0776,0.9174,0.3138,1.295,-8.050,-1.435,393,1,360,351,398,2025-06-03T10:35:04.008867
92,-0.0717,0.9165,0.3172,1.330,-7.770,-1.435,388,2,354,385,391,2025-06-03T10:35:04.008867
93,-0.0712,0.9194,0.3177,1.505,-7.280,-1.470,386,1,357,379,392,2025-06-03T10:35:04.008867
94,-0.0742,0.9165,0.3148,1.470,-7.070,-1.505,393,1,358,398,388,2025-06-03T10:35:04.008867
95,-0.0791,0.9199,0.3167,1.330,-7.385,-1.400,400,1,360,365,389,2025-06-03T10:35:04.008867
96,-0.0791,0.9213,0.3187,1.400,-7.560,-1.470,406,1,364,389,400,2025-06-03T10:35:04.008867
97,-0.0756,0.9257,0.3182,1.400,-7.315,-1.610,404,2,361,394,404,2025-06-03T10:35:04.008867
98,-0.0791,0.9228,0.3162,1.435,-7.245,-1.575,379,1,334,346,358,2025-06-03T10:35:04.008867
99,-0.0805,0.9233,0.3162,1.470,-7.315,-1.540,387,1,335,371,383,2025-06-03T10:35:04.008867
100,-0.0844,0.9233,0.3196,1.435,-7.525,-1.505,386,2,349,383,394,2025-06-03T10:35:04.212327
101,-0.0820,0.9218,0.3216,1.505,-8.155,-1.330,399,2,350,387,396,2025-06-03T10:35:04.212327
102,-0.0830,0.9252,0.3201,1.365,-8.470,-1.085,397,1,351,378,353,2025-06-03T10:35:04.212327
103,-0.0805,0.9213,0.3177,1.295,-8.575,-0.980,396,1,355,375,364,2025-06-03T10:35:04.212327
104,-0.0737,0.9218,0.3148,1.260,-8.225,-0.910,365,2,357,375,377,2025-06-03T10:35:04.212327
105,-0.0771,0.9189,0.3216,1.365,-7.875,-0.805,369,1,363,376,395,2025-06-03T10:35:04.212327
106,-0.0747,0.9204,0.3177,1.365,-7.770,-0.875,375,1,358,376,393,2025-06-03T10:35:04.212327
107,-0.0771,0.9184,0.3167,1.575,-7.735,-0.840,352,1,363,383,387,2025-06-03T10:35:04.212327
108,-0.0791,0.9189,0.3192,1.540,-8.085,-0.910,379,1,365,384,393,2025-06-03T10:35:04.212327
109,-0.0810,0.9184,0.3172,1.505,-8.260,-0.980,392,1,368,387,385,2025-06-03T10:35:04.212327
110,-0.0771,0.9184,0.3201,1.540,-8.085,-0.980,382,2,362,348,376,2025-06-03T10:35:04.212327
111,-0.0795,0.9184,0.3187,1.470,-8.330,-0.945,387,1,355,376,384,2025-06-03T10:35:04.212327
112,-0.0820,0.9189,0.3143,1.540,-8.785,-1.085,401,2,356,395,389,2025-06-03T10:35:04.212327
113,-0.0800,0.9184,0.3089,1.330,-8.960,-1.365,402,1,363,400,385,2025-06-03T10:35:04.212327
114,-0.0756,0.9189,0.3094,1.120,-8.575,-1.540,404,2,357,385,376,2025-06-03T10:35:04.212327
115,-0.0664,0.9145,0.3006,1.050,-7.315,-1.715,372,1,355,391,388,2025-06-03T10:35:04.212327
116,-0.0703,0.9135,0.3123,0.980,-6.370,-1.785,360,1,358,403,353,2025-06-03T10:35:04.212327
117,-0.0717,0.9111,0.3133,1.155,-5.705,-1.820,344,1,354,390,369,2025-06-03T10:35:04.212327
118,-0.0834,0.9135,0.3070,1.295,-5.670,-1.890,357,2,356,387,341,2025-06-03T10:35:04.264355
119,-0.0849,0.9116,0.3079,1.120,-6.230,-1.960,343,1,351,390,381,2025-06-03T10:35:04.264355
120,-0.0825,0.9140,0.3196,1.365,-6.755,-1.960,369,1,352,388,381,2025-06-03T10:35:04.264355
121,-0.0756,0.9170,0.3274,1.610,-6.580,-1.925,375,2,362,363,383,2025-06-03T10:35:04.264355
122,-0.0776,0.9179,0.3196,1.785,-6.720,-1.960,387,2,358,349,377,2025-06-03T10:35:04.312782
123,-0.0839,0.9184,0.3138,1.680,-7.280,-2.100,361,2,354,327,375,2025-06-03T10:35:04.312782
124,-0.0825,0.9189,0.3157,1.645,-7.560,-2.100,379,1,359,360,384,2025-06-03T10:35:04.312782
125,-0.0771,0.9213,0.3109,1.610,-7.735,-2.240,375,2,360,351,398,2025-06-03T10:35:04.312782
126,-0.0791,0.9213,0.3094,1.330,-7.875,-2.380,380,1,357,335,396,2025-06-03T10:35:04.417514
127,-0.0756,0.9209,0.3123,1.260,-7.420,-2.450,389,1,360,373,402,2025-06-03T10:35:04.417514
128,-0.0752,0.9179,0.3172,1.330,-6.790,-2.275,388,1,369,378,361,2025-06-03T10:35:04.417514
129,-0.0815,0.9184,0.3196,1.435,-6.335,-2.205,391,2,365,338,344,2025-06-03T10:35:04.417514
130,-0.0844,0.9199,0.3211,1.540,-6.090,-1.960,366,1,362,326,372,2025-06-03T10:35:04.417514
131,-0.0908,0.9218,0.3211,1.820,-6.335,-1.890,359,1,359,353,387,2025-06-03T10:35:04.417514
132,-0.0913,0.9218,0.3157,1.855,-6.825,-1.680,380,2,370,386,389,2025-06-03T10:35:04.417514
133,-0.0883,0.9243,0.3192,2.065,-7.140,-1.400,387,1,364,398,389,2025-06-03T10:35:04.417514
134,-0.0844,0.9262,0.3182,1.995,-7.350,-1.330,391,1,364,404,393,2025-06-03T10:35:04.417514
135,-0.0888,0.9248,0.3148,2.100,-7.490,-1.365,380,1,364,403,398,2025-06-03T10:35:04.467826
136,-0.0839,0.9238,0.3162,2.100,-7.770,-1.225,364,2,365,387,397,2025-06-03T10:35:04.467826
137,-0.0844,0.9209,0.3172,2.135,-7.700,-1.120,371,2,364,350,386,2025-06-03T10:35:04.467826
138,-0.0825,0.9194,0.3167,2.030,-7.665,-1.050,383,2,365,369,375,2025-06-03T10:35:04.467826
139,-0.0869,0.9199,0.3143,1.925,-7.630,-1.190,383,2,370,389,389,2025-06-03T10:35:04.517104
140,-0.0849,0.9179,0.3133,1.715,-7.945,-1.225,384,1,372,384,382,2025-06-03T10:35:04.517104
141,-0.0854,0.9184,0.3133,1.610,-8.050,-1.295,386,2,374,402,400,2025-06-03T10:35:04.517104
142,-0.0839,0.9160,0.3138,1.470,-7.875,-1.295,358,2,375,355,350,2025-06-03T10:35:04.517104
143,-0.0810,0.9194,0.3118,1.225,-7.630,-1.330,351,2,345,355,373,2025-06-03T10:35:04.622441
144,-0.0849,0.9174,0.3104,1.120,-7.350,-1.400,363,1,347,387,373,2025-06-03T10:35:04.622441
145,-0.0878,0.9160,0.3133,1.050,-7.315,-1.330,380,1,355,381,374,2025-06-03T10:35:04.622441
146,-0.0903,0.9160,0.3187,1.225,-7.070,-1.330,390,1,361,382,388,2025-06-03T10:35:04.622441
147,-0.0922,0.9130,0.3182,1.365,-7.280,-1.400,400,2,357,350,393,2025-06-03T10:35:04.622441
148,-0.0917,0.9126,0.3172,1.575,-7.700,-1.400,397,2,356,344,356,2025-06-03T10:35:04.622441
149,-0.0849,0.9126,0.3162,1.715,-8.050,-1.540,370,1,357,364,382,2025-06-03T10:35:04.622441
150,-0.0825,0.9194,0.3128,1.750,-7.875,-1.715,377,1,362,377,389,2025-06-03T10:35:04.622441
151,-0.0805,0.9199,0.3113,1.680,-7.385,-2.065,386,1,358,399,386,2025-06-03T10:35:04.622441
152,-0.0839,0.9228,0.3152,1.540,-7.070,-2.100,333,2,358,387,387,2025-06-03T10:35:04.671144
153,-0.0849,0.9238,0.3231,1.330,-6.860,-2.240,355,2,336,383,387,2025-06-03T10:35:04.671144
154,-0.0888,0.9213,0.3177,1.190,-7.105,-2.100,360,2,350,386,384,2025-06-03T10:35:04.671144
155,-0.0917,0.9252,0.3128,1.190,-7.490,-2.030,368,1,350,387,389,2025-06-03T10:35:04.671144
156,-0.0937,0.9262,0.3118,0.840,-7.770,-1.820,384,2,359,386,397,2025-06-03T10:35:04.827341
157,-0.0966,0.9262,0.3099,0.805,-8.400,-1.750,389,1,367,388,360,2025-06-03T10:35:04.827341
158,-0.0888,0.9228,0.3079,0.665,-8.750,-1.645,401,1,362,348,371,2025-06-03T10:35:04.827341
159,-0.0888,0.9257,0.3118,0.665,-8.715,-1.470,403,1,364,385,387,2025-06-03T10:35:04.827341
160,-0.0839,0.9194,0.3079,0.980,-8.190,-1.120,408,1,370,348,385,2025-06-03T10:35:04.827341
161,-0.0776,0.9228,0.3109,1.470,-7.070,-1.120,410,2,368,377,386,2025-06-03T10:35:04.827341
162,-0.0766,0.9155,0.3138,1.750,-5.285,-0.875,415,1,346,390,391,2025-06-03T10:35:04.827341
163,-0.0903,0.9189,0.3099,1.785,-5.040,-0.700,404,1,349,392,399,2025-06-03T10:35:04.827341
164,-0.0971,0.9209,0.3123,1.680,-5.215,-0.560,394,1,358,402,391,2025-06-03T10:35:04.827341
165,-0.0947,0.9204,0.3231,2.380,-5.705,-0.315,398,1,356,404,349,2025-06-03T10:35:04.827341
166,-0.0996,0.9209,0.3152,2.625,-6.755,-0.245,397,1,363,390,346,2025-06-03T10:35:04.827341
167,-0.1015,0.9228,0.3182,2.940,-7.910,0.175,371,1,359,379,352,2025-06-03T10:35:04.827341
168,-0.0844,0.9204,0.3157,2.905,-8.610,0.420,388,1,366,361,368,2025-06-03T10:35:04.827341
169,-0.0830,0.9189,0.3109,3.255,-8.610,0.595,396,1,367,370,388,2025-06-03T10:35:05.083079
170,-0.0820,0.9228,0.3152,3.360,-7.525,0.630,401,2,372,353,374,2025-06-03T10:35:05.083079
171,-0.0893,0.9223,0.3094,3.325,-7.455,0.420,408,2,367,367,386,2025-06-03T10:35:05.083079
172,-0.0864,0.9189,0.3152,3.535,-7.700,0.630,404,2,363,385,397,2025-06-03T10:35:05.083079
173,-0.0859,0.9233,0.3123,3.640,-8.085,0.420,402,1,367,380,353,2025-06-03T10:35:05.083079
174,-0.0917,0.9213,0.3138,3.850,-8.400,0.420,394,1,369,383,380,2025-06-03T10:35:05.083079
175,-0.0893,0.9233,0.3143,3.570,-9.240,0.385,363,2,369,393,389,2025-06-03T10:35:05.083079
176,-0.0854,0.9243,0.3094,3.325,-9.275,0.140,368,1,374,401,395,2025-06-03T10:35:05.083079
177,-0.0947,0.9184,0.3113,2.940,-10.395,-0.070,382,1,373,389,392,2025-06-03T10:35:05.083079
178,-0.0844,0.9184,0.3133,2.835,-10.850,-0.280,386,1,373,402,389,2025-06-03T10:35:05.083079
179,-0.0952,0.9189,0.3133,3.080,-11.550,-0.560,394,2,349,383,386,2025-06-03T10:35:05.083079
180,-0.0888,0.9121,0.3172,2.975,-13.300,-0.385,373,1,359,390,363,2025-06-03T10:35:05.083079
181,-0.0854,0.9160,0.3148,2.695,-13.790,-0.840,388,1,362,390,386,2025-06-03T10:35:05.086372
182,-0.0869,0.9140,0.3113,2.345,-14.000,-0.805,372,1,364,355,385,2025-06-03T10:35:05.086372
183,-0.0756,0.9155,0.3099,2.135,-13.615,-0.875,389,2,368,380,395,2025-06-03T10:35:05.086372
184,-0.0874,0.9170,0.3050,1.785,-13.335,-1.155,393,1,368,392,402,2025-06-03T10:35:05.086372
185,-0.0742,0.9199,0.3026,1.855,-12.670,-1.575,371,1,363,400,394,2025-06-03T10:35:05.086372
186,-0.0849,0.9165,0.3026,1.295,-12.530,-1.680,349,2,360,401,385,2025-06-03T10:35:05.086372
187,-0.0752,0.9194,0.3128,1.855,-12.915,-1.750,361,1,363,403,392,2025-06-03T10:35:05.086372
188,-0.0683,0.9209,0.3099,2.240,-11.375,-1.995,374,2,362,413,379,2025-06-03T10:35:05.086372
189,-0.0830,0.9189,0.3099,2.520,-11.410,-1.750,374,1,367,399,369,2025-06-03T10:35:05.086372
190,-0.0708,0.9252,0.3148,2.485,-10.360,-1.750,383,2,373,388,384,2025-06-03T10:35:05.086372
191,-0.0752,0.9248,0.3109,2.695,-9.275,-1.820,388,1,372,391,397,2025-06-03T10:35:05.137845
192,-0.0839,0.9218,0.2977,2.870,-10.115,-1.400,390,1,371,394,405,2025-06-03T10:35:05.137845
193,-0.0766,0.9252,0.3094,2.660,-10.150,-1.295,393,2,366,407,359,2025-06-03T10:35:05.137845
194,-0.0795,0.9272,0.3016,2.625,-9.765,-1.225,393,1,363,400,383,2025-06-03T10:35:05.137845
195,-0.0742,0.9277,0.2991,2.555,-9.135,-0.910,400,2,371,397,398,2025-06-03T10:35:05.230214
196,-0.0727,0.9311,0.3060,2.310,-8.015,-0.735,395,2,371,402,396,2025-06-03T10:35:05.230214
197,-0.0669,0.9267,0.3065,2.205,-6.825,-1.050,400,1,364,373,391,2025-06-03T10:35:05.230214
198,-0.0678,0.9238,0.3070,2.695,-5.635,-0.665,367,2,366,390,358,2025-06-03T10:35:05.230214
199,-0.0771,0.9262,0.3128,2.835,-6.020,-0.770,381,1,368,348,368,2025-06-03T10:35:05.230214
200,-0.0795,0.9267,0.3128,3.290,-6.055,-0.840,378,1,363,381,344,2025-06-03T10:35:05.230214
201,-0.0732,0.9267,0.3021,3.395,-5.355,-1.015,395,1,358,400,377,2025-06-03T10:35:05.367728
202,-0.0717,0.9272,0.2982,3.290,-5.425,-0.945,388,1,367,402,339,2025-06-03T10:35:05.367728
203,-0.0771,0.9218,0.2996,3.115,-5.250,-1.015,383,1,358,388,332,2025-06-03T10:35:05.367728
204,-0.0869,0.9213,0.3089,3.325,-5.460,-0.875,387,2,362,394,360,2025-06-03T10:35:05.367728
205,-0.0698,0.9233,0.3138,3.045,-4.060,-0.840,389,0,344,385,362,2025-06-03T10:35:05.367728
206,-0.0590,0.9238,0.3216,3.045,-1.680,-1.015,363,1,355,396,378,2025-06-03T10:35:05.367728
207,-0.0810,0.9218,0.3201,3.290,-0.490,-0.840,372,1,358,410,352,2025-06-03T10:35:05.367728
208,-0.1039,0.9252,0.3104,3.290,-2.135,-0.910,388,2,357,398,366,2025-06-03T10:35:05.441000
209,-0.1142,0.9267,0.3094,2.835,-4.970,-0.770,396,2,358,388,373,2025-06-03T10:35:05.441000
210,-0.1025,0.9292,0.3118,2.835,-6.755,-0.980,404,2,364,362,376,2025-06-03T10:35:05.441000
211,-0.0859,0.9262,0.3128,2.800,-7.210,-1.050,376,2,358,392,395,2025-06-03T10:35:05.441000
212,-0.0942,0.9257,0.2957,2.625,-8.015,-1.015,375,1,363,383,394,2025-06-03T10:35:05.441000
213,-0.0893,0.9277,0.3011,1.890,-8.330,-1.120,386,2,365,393,381,2025-06-03T10:35:05.441000
214,-0.0859,0.9272,0.3079,1.645,-8.365,-1.295,389,1,365,391,388,2025-06-03T10:35:05.441000
215,-0.0932,0.9267,0.3011,1.330,-8.610,-1.190,391,1,367,388,396,2025-06-03T10:35:05.441000
216,-0.0966,0.9262,0.3055,0.735,-10.045,-1.120,398,1,361,385,395,2025-06-03T10:35:05.441000
217,-0.1039,0.9262,0.2982,0.490,-12.075,-1.295,406,1,358,399,384,2025-06-03T10:35:05.441000
218,-0.1035,0.9257,0.2952,0.105,-13.685,-1.610,399,2,356,402,386,2025-06-03T10:35:05.441000
219,-0.0927,0.9184,0.3035,-0.630,-15.225,-1.680,402,1,359,399,397,2025-06-03T10:35:05.441000
220,-0.0766,0.9252,0.2928,-0.945,-15.330,-1.610,396,2,356,361,387,2025-06-03T10:35:05.441000
221,-0.0625,0.9233,0.2850,-1.330,-13.685,-2.170,366,2,358,371,396,2025-06-03T10:35:05.495192
222,-0.0639,0.9194,0.2869,-1.925,-12.460,-2.240,353,2,358,392,361,2025-06-03T10:35:05.495192
223,-0.0673,0.9174,0.3006,-2.170,-11.340,-2.240,367,1,363,391,338,2025-06-03T10:35:05.495192
224,-0.0756,0.9213,0.3162,-2.065,-9.625,-2.240,375,2,360,383,356,2025-06-03T10:35:05.495192
225,-0.0854,0.9223,0.3201,-2.100,-8.645,-2.555,386,1,366,361,367,2025-06-03T10:35:05.646193
226,-0.0893,0.9194,0.3084,-1.925,-9.660,-2.730,395,2,346,387,385,2025-06-03T10:35:05.646193
227,-0.0815,0.9130,0.2811,-1.820,-12.250,-2.765,382,1,352,350,378,2025-06-03T10:35:05.646193
228,-0.0893,0.9174,0.3001,-1.400,-13.440,-2.415,381,2,353,364,392,2025-06-03T10:35:05.646193
229,-0.0839,0.9267,0.3187,-1.435,-13.300,-2.380,384,2,360,342,354,2025-06-03T10:35:05.646193
230,-0.0693,0.9267,0.3133,-1.295,-11.935,-2.275,392,1,356,374,377,2025-06-03T10:35:05.646193
231,-0.0561,0.9238,0.3011,-0.770,-10.185,-1.610,386,1,362,400,350,2025-06-03T10:35:05.646193
232,-0.0644,0.9179,0.2996,-0.805,-8.435,-1.225,385,1,360,359,371,2025-06-03T10:35:05.646193
233,-0.0766,0.9267,0.3109,-0.665,-6.580,-1.190,392,1,362,388,378,2025-06-03T10:35:05.646193
234,-0.0859,0.9213,0.3070,-0.385,-4.935,-1.505,399,1,342,397,388,2025-06-03T10:35:05.646193
235,-0.0971,0.9155,0.3152,0.245,-6.160,-1.365,372,1,328,387,391,2025-06-03T10:35:05.646193
236,-0.1196,0.9062,0.3343,0.875,-7.910,-0.805,382,1,333,401,392,2025-06-03T10:35:05.646193
237,-0.0937,0.9218,0.3187,1.645,-8.085,-1.085,361,1,345,391,389,2025-06-03T10:35:05.646193
238,-0.0952,0.9257,0.3192,1.960,-9.240,-0.770,367,1,328,405,395,2025-06-03T10:35:05.696645
239,-0.0893,0.9209,0.3138,2.415,-11.095,-0.490,374,1,346,411,395,2025-06-03T10:35:05.696645
240,-0.0893,0.9267,0.3040,1.750,-10.850,-0.385,354,1,353,402,399,2025-06-03T10:35:05.696645
241,-0.0810,0.9282,0.3152,1.855,-9.940,-0.350,375,2,362,367,353,2025-06-03T10:35:05.696645
242,-0.0791,0.9287,0.3152,1.470,-9.345,-0.455,385,1,355,378,347,2025-06-03T10:35:05.745154
243,-0.0834,0.9252,0.2977,1.295,-9.625,-0.560,384,1,337,369,369,2025-06-03T10:35:05.745154
244,-0.0854,0.9213,0.3035,1.015,-9.555,-0.630,389,2,353,345,379,2025-06-03T10:35:05.745154
245,-0.0820,0.9248,0.3177,1.120,-9.275,-0.700,386,1,355,367,377,2025-06-03T10:35:05.745154
246,-0.0878,0.9218,0.3021,0.910,-9.590,-1.015,383,1,356,392,357,2025-06-03T10:35:05.851042
247,-0.0986,0.9228,0.2943,0.875,-10.745,-1.225,383,1,366,385,367,2025-06-03T10:35:05.851042
248,-0.0874,0.9248,0.3084,0.560,-11.865,-1.330,381,2,366,398,387,2025-06-03T10:35:05.851042
249,-0.0766,0.9170,0.3079,0.665,-11.865,-1.225,380,1,363,388,385,2025-06-03T10:35:05.851042
250,-0.0761,0.9233,0.2987,0.735,-10.990,-1.260,386,2,360,394,392,2025-06-03T10:35:05.851042
251,-0.0913,0.9150,0.3035,0.910,-11.095,-1.085,367,2,365,385,394,2025-06-03T10:35:05.851042
252,-0.0996,0.9150,0.2928,0.700,-13.510,-0.910,381,1,361,383,391,2025-06-03T10:35:05.851042
253,-0.1078,0.9184,0.3030,1.120,-15.365,-0.420,388,1,362,350,392,2025-06-03T10:35:05.851042
254,-0.1127,0.9067,0.3362,2.065,-18.480,-0.280,395,2,341,379,395,2025-06-03T10:35:05.851042
255,-0.0917,0.9140,0.3455,2.765,-19.565,-0.210,396,1,358,385,398,2025-06-03T10:35:06.079613
256,-0.0625,0.9321,0.3274,3.570,-20.510,-0.385,397,2,363,398,409,2025-06-03T10:35:06.079613
257,-0.0883,0.9223,0.3196,2.450,-20.860,-0.245,403,2,367,385,388,2025-06-03T10:35:06.079613
258,-0.0537,0.9394,0.3099,1.540,-19.355,-0.735,396,2,363,390,395,2025-06-03T10:35:06.079613
259,-0.0449,0.9233,0.2874,-0.035,-15.505,-1.085,403,1,369,399,399,2025-06-03T10:35:06.079613
260,-0.0181,0.9252,0.2987,-0.910,-9.660,-1.050,400,0,350,400,388,2025-06-03T10:35:06.079613
261,-0.0317,0.9228,0.3118,-1.680,-4.305,-1.085,401,1,348,351,383,2025-06-03T10:35:06.079613
262,-0.0556,0.9218,0.3070,-1.645,-1.540,-0.980,397,2,350,384,364,2025-06-03T10:35:06.079613
263,-0.0615,0.9213,0.3211,-2.275,-0.175,-1.190,399,1,360,385,383,2025-06-03T10:35:06.079613
264,-0.0722,0.9184,0.3235,-2.065,0.280,-1.050,396,2,364,353,377,2025-06-03T10:35:06.079613
265,-0.0878,0.9179,0.3113,-1.855,0.420,-0.700,364,1,361,381,375,2025-06-03T10:35:06.079613
266,-0.0859,0.9072,0.3187,-1.015,-0.980,-0.490,380,1,370,382,386,2025-06-03T10:35:06.079613
267,-0.0786,0.9160,0.3314,-0.350,-0.980,0.000,392,1,371,381,388,2025-06-03T10:35:06.079613
268,-0.0971,0.9038,0.3006,0.455,-1.750,-0.245,386,1,371,387,394,2025-06-03T10:35:06.079613
269,-0.1049,0.9057,0.3216,2.065,-3.465,0.105,372,1,367,397,397,2025-06-03T10:35:06.079613
270,-0.0888,0.9116,0.3231,2.765,-5.355,-0.105,389,1,371,385,397,2025-06-03T10:35:06.079613
271,-0.0927,0.9062,0.3245,3.745,-6.055,0.035,386,1,373,392,406,2025-06-03T10:35:06.079613
272,-0.0883,0.9087,0.3148,4.725,-6.860,-0.245,398,2,351,376,393,2025-06-03T10:35:06.079613
273,-0.0756,0.9155,0.3367,5.355,-7.840,-0.560,390,2,362,388,356,2025-06-03T10:35:06.259820
274,-0.0698,0.9155,0.3211,6.020,-7.420,-0.980,370,2,364,349,371,2025-06-03T10:35:06.259820
275,-0.0722,0.9165,0.3065,6.895,-8.015,-1.190,378,1,364,376,376,2025-06-03T10:35:06.259820
276,-0.0791,0.9252,0.2708,6.160,-9.870,-2.100,382,1,359,376,397,2025-06-03T10:35:06.259820
277,-0.0810,0.9160,0.2747,5.670,-10.955,-2.485,395,2,359,396,370,2025-06-03T10:35:06.259820
278,-0.0639,0.9189,0.2899,5.740,-9.380,-2.695,401,1,367,384,377,2025-06-03T10:35:06.259820
279,-0.0800,0.9184,0.2899,5.670,-8.435,-2.520,404,2,364,394,392,2025-06-03T10:35:06.259820
280,-0.1025,0.9189,0.2943,5.775,-9.100,-2.555,404,0,349,402,394,2025-06-03T10:35:06.259820
281,-0.1000,0.9130,0.3138,5.390,-11.655,-2.625,410,1,358,395,398,2025-06-03T10:35:06.259820
282,-0.0805,0.9184,0.3499,6.160,-14.350,-1.960,411,1,362,396,399,2025-06-03T10:35:06.259820
283,-0.0634,0.9189,0.3128,6.650,-14.910,-1.925,402,1,363,403,403,2025-06-03T10:35:06.259820
284,-0.0703,0.9228,0.3021,6.055,-14.840,-1.610,402,1,365,395,399,2025-06-03T10:35:06.259820
285,-0.0630,0.9306,0.3060,5.775,-14.315,-1.505,402,1,366,393,382,2025-06-03T10:35:06.259820
286,-0.0678,0.9184,0.3172,5.950,-13.090,-0.875,409,1,356,395,376,2025-06-03T10:35:06.259820
287,-0.0800,0.9418,0.3196,6.300,-11.095,-0.805,400,1,341,350,377,2025-06-03T10:35:06.259820
288,-0.0971,0.9350,0.2996,5.250,-12.145,-1.085,402,1,345,375,376,2025-06-03T10:35:06.259820
289,-0.0883,0.9453,0.3016,4.795,-13.055,-0.980,395,1,355,385,377,2025-06-03T10:35:06.465871
290,-0.0844,0.9487,0.3074,4.795,-11.795,-0.840,391,1,362,362,393,2025-06-03T10:35:06.465871
291,-0.0517,0.9296,0.2948,5.075,-12.425,-1.120,385,2,362,373,394,2025-06-03T10:35:06.465871
292,-0.0508,0.9496,0.3206,4.725,-12.215,-1.540,362,2,362,383,386,2025-06-03T10:35:06.465871
293,-0.0395,0.9365,0.3148,3.955,-11.130,-2.310,379,1,359,381,386,2025-06-03T10:35:06.465871
294,-0.0532,0.9384,0.3070,4.130,-9.030,-2.765,362,2,364,397,391,2025-06-03T10:35:06.465871
295,-0.0737,0.9394,0.3074,3.255,-8.470,-3.220,382,2,362,404,403,2025-06-03T10:35:06.465871
296,-0.0717,0.9370,0.2757,2.625,-8.785,-4.130,387,1,357,387,394,2025-06-03T10:35:06.465871
297,-0.0854,0.9350,0.2801,2.345,-9.345,-3.920,393,1,354,386,394,2025-06-03T10:35:06.465871
298,-0.0756,0.9326,0.2952,2.275,-8.820,-4.795,402,1,360,386,388,2025-06-03T10:35:06.465871
299,-0.0834,0.9272,0.2948,1.750,-8.295,-4.235,402,1,355,399,391,2025-06-03T10:35:06.465871
300,-0.0473,0.9204,0.2957,2.065,-5.565,-3.360,393,1,363,390,382,2025-06-03T10:35:06.465871
301,-0.0712,0.9213,0.2977,1.855,-3.150,-2.800,405,1,358,395,391,2025-06-03T10:35:06.465871
302,-0.1093,0.9233,0.2830,1.295,-1.820,-2.555,403,1,360,322,376,2025-06-03T10:35:06.465871
303,-0.1288,0.9301,0.2962,0.735,-3.430,-1.820,373,2,355,348,354,2025-06-03T10:35:06.465871
304,-0.1078,0.9228,0.2938,0.770,-6.090,-1.015,388,2,357,357,363,2025-06-03T10:35:06.465871
305,-0.1147,0.9252,0.2547,1.085,-8.715,0.315,394,1,352,347,380,2025-06-03T10:35:06.465871
306,-0.1220,0.9316,0.2645,0.630,-9.730,1.190,398,1,355,375,395,2025-06-03T10:35:06.670080
307,-0.0883,0.9252,0.3070,0.420,-8.855,1.750,390,2,359,380,389,2025-06-03T10:35:06.670080
308,-0.0678,0.9174,0.3157,0.840,-6.370,2.555,397,2,363,399,383,2025-06-03T10:35:06.670080
309,-0.0717,0.9174,0.3026,1.820,-4.550,3.325,398,1,359,404,386,2025-06-03T10:35:06.670080
310,-0.0825,0.9287,0.3040,1.575,-2.870,3.955,394,2,369,394,397,2025-06-03T10:35:06.670080
311,-0.0551,0.9326,0.3011,1.190,-0.665,4.585,399,2,371,387,386,2025-06-03T10:35:06.670080
312,-0.0844,0.9453,0.2987,1.995,0.490,5.040,407,1,370,391,399,2025-06-03T10:35:06.670080
313,-0.1030,0.9262,0.2699,1.960,-0.140,6.055,404,1,373,386,359,2025-06-03T10:35:06.670080
314,-0.1225,0.9340,0.2777,2.065,-4.480,7.140,405,1,372,382,382,2025-06-03T10:35:06.670080
315,-0.0952,0.9321,0.3338,1.400,-4.830,7.525,395,1,372,391,377,2025-06-03T10:35:06.670080
316,-0.1103,0.9272,0.3455,2.870,-3.500,7.595,398,1,372,356,338,2025-06-03T10:35:06.670080
317,-0.0991,0.9331,0.3270,3.325,-3.115,7.665,366,1,359,358,371,2025-06-03T10:35:06.670080
318,-0.1205,0.9287,0.3138,3.430,-5.180,7.455,373,1,357,339,372,2025-06-03T10:35:06.670080
319,-0.1054,0.9399,0.3143,3.150,-6.125,7.385,358,1,360,381,390,2025-06-03T10:35:06.670080
320,-0.1044,0.9121,0.3221,3.640,-9.835,7.665,375,1,357,345,376,2025-06-03T10:35:06.670080
321,-0.0952,0.9233,0.3270,3.535,-13.335,7.770,386,2,353,379,384,2025-06-03T10:35:06.670080
322,-0.0952,0.9262,0.3157,3.605,-16.625,7.595,395,1,356,392,395,2025-06-03T10:35:06.670080
323,-0.0551,0.9384,0.2752,2.450,-17.780,6.755,394,2,358,397,380,2025-06-03T10:35:06.670080
324,-0.0024,0.9438,0.2567,1.050,-16.765,5.635,400,1,337,345,384,2025-06-03T10:35:06.773290
325,0.0927,0.9184,0.2469,-0.595,-9.520,4.620,393,1,345,382,395,2025-06-03T10:35:06.773290
326,0.0673,0.9282,0.2635,-1.120,-0.350,2.905,389,1,351,393,384,2025-06-03T10:35:06.773290
327,0.0488,0.9204,0.2801,-2.380,10.290,1.400,368,2,355,396,361,2025-06-03T10:35:06.773290
328,-0.0151,0.9233,0.3460,-2.975,13.370,-1.190,371,2,357,392,369,2025-06-03T10:35:06.773290
329,-0.0405,0.9179,0.3670,-2.800,13.580,-4.165,392,1,357,402,390,2025-06-03T10:35:06.773290
330,-0.0893,0.9106,0.3987,-2.030,8.155,-6.440,396,2,365,405,381,2025-06-03T10:35:06.773290
331,-0.0634,0.9331,0.2816,-2.660,-0.245,-6.790,389,1,356,368,380,2025-06-03T10:35:06.773290
332,-0.0595,0.9067,0.1747,-3.150,-14.350,-7.105,384,2,357,381,379,2025-06-03T10:35:06.822821
333,-0.0937,0.9233,0.2635,-5.285,-19.250,-8.435,390,1,356,346,390,2025-06-03T10:35:06.822821
334,-0.0024,0.9233,0.3167,-5.320,-14.350,-11.270,404,2,352,334,387,2025-06-03T10:35:06.822821
335,-0.0005,0.9218,0.3553,-5.530,-6.825,-12.460,399,1,357,355,394,2025-06-03T10:35:06.822821
336,-0.0332,0.9018,0.2996,-4.270,-4.480,-12.565,395,2,363,364,391,2025-06-03T10:35:07.077461
337,-0.0903,0.9091,0.3035,-4.480,-5.320,-12.530,400,2,364,380,402,2025-06-03T10:35:07.077461
338,-0.1103,0.9189,0.3284,-4.130,-7.875,-12.880,402,1,344,348,399,2025-06-03T10:35:07.077461
339,-0.0586,0.9091,0.2806,-3.605,-8.645,-12.110,405,1,346,381,394,2025-06-03T10:35:07.077461
340,-0.1000,0.9140,0.2801,-2.555,-10.185,-10.990,401,2,356,384,399,2025-06-03T10:35:07.077461
341,-0.1157,0.9204,0.2943,-2.625,-9.800,-10.535,371,1,357,376,384,2025-06-03T10:35:07.077461
342,-0.1020,0.9184,0.3104,-1.435,-9.205,-9.590,391,1,362,380,388,2025-06-03T10:35:07.077461
343,-0.1230,0.9277,0.3192,-0.595,-7.770,-8.645,398,1,337,386,391,2025-06-03T10:35:07.077461
344,-0.1376,0.9355,0.3148,0.035,-7.735,-7.630,387,1,341,394,388,2025-06-03T10:35:07.077461
345,-0.1264,0.9384,0.3084,0.245,-9.310,-6.475,366,2,351,388,396,2025-06-03T10:35:07.077461
346,-0.1254,0.9370,0.3060,0.350,-10.675,-5.145,380,1,357,400,403,2025-06-03T10:35:07.077461
347,-0.1181,0.9404,0.3128,0.035,-11.060,-3.955,384,2,367,405,387,2025-06-03T10:35:07.077461
348,-0.1132,0.9418,0.3123,-0.805,-11.025,-3.080,383,1,362,410,348,2025-06-03T10:35:07.077461
349,-0.1020,0.9477,0.3016,-1.960,-11.480,-2.450,357,1,362,384,370,2025-06-03T10:35:07.077461
350,-0.1098,0.9472,0.3089,-3.220,-12.425,-2.625,369,1,339,381,386,2025-06-03T10:35:07.077461
351,-0.1230,0.9589,0.3362,-5.215,-12.810,-4.445,375,2,305,378,380,2025-06-03T10:35:07.229525
352,-0.1557,0.9604,0.3777,-7.910,-13.160,-7.735,376,1,325,395,391,2025-06-03T10:35:07.229525
353,-0.1835,0.9804,0.4216,-10.570,-15.715,-10.745,385,1,338,363,386,2025-06-03T10:35:07.229525
354,-0.1035,0.9482,0.3357,-12.215,-21.875,-13.825,363,2,345,383,388,2025-06-03T10:35:07.229525
355,-0.0761,0.9150,0.2816,-14.035,-33.460,-14.595,371,1,328,344,379,2025-06-03T10:35:07.229525
356,-0.0698,0.9121,0.2816,-16.800,-38.920,-12.670,389,1,337,373,381,2025-06-03T10:35:07.229525
357,-0.0810,0.9194,0.3382,-19.075,-36.820,-13.440,397,2,351,395,398,2025-06-03T10:35:07.229525
358,-0.0752,0.9209,0.4075,-19.460,-30.730,-13.545,403,1,352,399,385,2025-06-03T10:35:07.229525
359,-0.0576,0.9213,0.4250,-19.425,-24.395,-13.370,393,2,356,356,380,2025-06-03T10:35:07.229525
360,-0.0888,0.9184,0.4031,-18.725,-17.675,-12.810,396,2,363,385,383,2025-06-03T10:35:07.229525
361,-0.1327,0.9130,0.3660,-16.905,-15.295,-11.620,388,1,365,394,383,2025-06-03T10:35:07.229525
362,-0.1708,0.9038,0.3558,-15.190,-18.900,-10.290,391,1,365,380,397,2025-06-03T10:35:07.229525
363,-0.1688,0.8999,0.3675,-12.880,-24.150,-8.435,395,2,369,387,403,2025-06-03T10:35:07.229525
364,-0.1459,0.8935,0.3665,-10.500,-26.670,-6.545,399,2,372,403,399,2025-06-03T10:35:07.229525
365,-0.1269,0.8965,0.3636,-7.630,-25.690,-4.690,400,2,374,398,406,2025-06-03T10:35:07.229525
366,-0.1044,0.8945,0.3543,-5.285,-23.800,-3.465,393,2,375,397,391,2025-06-03T10:35:07.229525
367,-0.0874,0.8974,0.3382,-2.800,-20.335,-1.820,398,1,370,388,385,2025-06-03T10:35:07.303794
368,-0.0922,0.9048,0.3279,-1.050,-16.135,-0.140,388,1,368,386,388,2025-06-03T10:35:07.303794
369,-0.0932,0.9028,0.3353,0.455,-13.475,1.085,365,2,370,317,383,2025-06-03T10:35:07.303794
370,-0.0952,0.8989,0.3440,1.785,-11.410,2.240,371,1,341,354,354,2025-06-03T10:35:07.303794
371,-0.1005,0.8974,0.3562,2.765,-10.535,3.115,390,1,353,372,371,2025-06-03T10:35:07.303794
372,-0.0996,0.8926,0.3323,3.815,-11.655,3.815,393,1,354,377,374,2025-06-03T10:35:07.303794
373,-0.0986,0.8882,0.3294,4.235,-14.175,4.410,398,2,353,385,385,2025-06-03T10:35:07.303794
374,-0.0791,0.8974,0.3323,4.130,-15.785,4.865,390,1,361,376,351,2025-06-03T10:35:07.303794
375,-0.0561,0.9013,0.3348,4.130,-14.910,5.075,390,2,358,387,377,2025-06-03T10:35:07.303794
376,-0.0376,0.9087,0.3357,3.675,-12.355,5.005,387,2,362,388,348,2025-06-03T10:35:07.353031
377,-0.0410,0.8969,0.3143,3.115,-11.025,4.865,384,2,356,349,367,2025-06-03T10:35:07.353031
378,-0.0425,0.8911,0.3235,2.240,-10.290,4.865,382,2,336,377,370,2025-06-03T10:35:07.353031
379,-0.0464,0.8950,0.3382,1.680,-9.240,4.480,380,1,343,375,370,2025-06-03T10:35:07.353031
380,-0.0449,0.8877,0.3421,1.190,-8.540,4.060,330,2,343,392,380,2025-06-03T10:35:07.353031
381,-0.0586,0.8867,0.3465,1.260,-8.400,3.500,332,2,355,393,376,2025-06-03T10:35:07.400484
382,-0.0664,0.8843,0.3406,0.805,-8.680,2.485,356,2,361,390,397,2025-06-03T10:35:07.400484
383,-0.0664,0.8857,0.3582,0.560,-8.120,2.030,374,2,368,402,370,2025-06-03T10:35:07.400484
384,-0.0586,0.8877,0.3562,0.315,-7.315,0.875,358,1,360,385,383,2025-06-03T10:35:07.400484
385,-0.0659,0.8769,0.3509,0.175,-7.245,0.350,363,2,363,381,381,2025-06-03T10:35:07.451245
386,-0.0742,0.8794,0.3675,-0.035,-7.000,-0.245,379,2,362,381,388,2025-06-03T10:35:07.451245
387,-0.0732,0.8784,0.3821,0.000,-6.755,-1.330,394,2,367,394,387,2025-06-03T10:35:07.451245
388,-0.0820,0.8779,0.3904,-0.070,-6.230,-1.820,399,2,374,356,386,2025-06-03T10:35:07.708024
389,-0.0859,0.8813,0.3850,0.105,-7.350,-2.450,401,2,364,375,387,2025-06-03T10:35:07.708024
390,-0.0996,0.8843,0.3909,0.280,-8.715,-3.045,397,1,361,374,394,2025-06-03T10:35:07.708024
391,-0.0961,0.8896,0.3855,0.315,-9.590,-3.535,342,2,357,387,389,2025-06-03T10:35:07.708024
392,-0.0986,0.8916,0.3875,0.525,-10.255,-3.955,366,1,364,386,385,2025-06-03T10:35:07.708024
393,-0.0908,0.8945,0.3845,0.385,-11.165,-4.235,376,1,368,360,357,2025-06-03T10:35:07.708024
394,-0.0971,0.8930,0.3894,0.350,-11.900,-4.375,383,1,366,367,365,2025-06-03T10:35:07.708024
395,-0.0956,0.8935,0.3977,0.490,-11.865,-4.655,380,1,365,387,377,2025-06-03T10:35:07.708024
396,-0.1020,0.9028,0.3899,0.490,-12.005,-5.110,359,1,363,394,390,2025-06-03T10:35:07.708024
397,-0.1108,0.9062,0.3953,0.105,-13.090,-5.670,382,1,363,400,403,2025-06-03T10:35:07.708024
398,-0.1210,0.9077,0.3992,-0.035,-14.805,-5.950,392,1,363,391,358,2025-06-03T10:35:07.708024
399,-0.1244,0.9067,0.4011,-0.490,-16.100,-6.440,372,2,367,394,381,2025-06-03T10:35:07.708024
400,-0.1283,0.9101,0.4036,-1.610,-17.745,-7.000,378,2,370,350,384,2025-06-03T10:35:07.708024
401,-0.1405,0.9160,0.4216,-2.380,-19.495,-7.455,382,1,365,381,394,2025-06-03T10:35:07.708024
402,-0.1352,0.9150,0.4080,-3.255,-21.700,-7.630,368,2,372,358,397,2025-06-03T10:35:07.708024
403,-0.1274,0.9077,0.4060,-3.955,-23.450,-7.315,373,1,364,348,397,2025-06-03T10:35:07.708024
404,-0.1308,0.9160,0.4153,-5.040,-23.520,-7.350,386,1,362,380,411,2025-06-03T10:35:07.708024
405,-0.1366,0.9248,0.4260,-6.825,-22.890,-8.225,390,2,362,385,394,2025-06-03T10:35:07.708024
406,-0.1532,0.9228,0.4304,-8.750,-24.010,-8.890,388,1,364,375,399,2025-06-03T10:35:07.708024
407,-0.1684,0.9272,0.4426,-10.780,-26.215,-9.485,381,1,360,352,394,2025-06-03T10:35:07.708024
408,-0.1903,0.9389,0.4524,-13.370,-28.770,-9.975,382,1,361,380,358,2025-06-03T10:35:07.708024
409,-0.1850,0.9531,0.4587,-16.765,-32.620,-10.535,363,2,371,384,374,2025-06-03T10:35:07.761571
410,-0.1547,0.9784,0.4680,-22.085,-35.665,-11.725,382,2,349,378,388,2025-06-03T10:35:07.761571
411,-0.1176,1.0272,0.4885,-30.695,-36.715,-12.460,380,2,359,387,391,2025-06-03T10:35:07.761571
412,-0.0976,1.0760,0.5344,-43.470,-36.330,-13.405,393,2,358,360,390,2025-06-03T10:35:07.761571
413,-0.0337,1.1712,0.5983,-56.070,-39.830,-14.315,398,1,362,380,361,2025-06-03T10:35:07.761571
414,0.1610,1.3239,0.6032,-66.395,-49.140,-17.430,393,1,369,375,363,2025-06-03T10:35:07.900731
415,0.5729,1.6602,0.5173,-88.585,-66.955,-27.475,404,2,368,377,375,2025-06-03T10:35:07.900731
416,1.0848,2.3566,0.3558,-109.025,-92.330,-37.240,407,1,362,397,390,2025-06-03T10:35:07.900731
417,1.5484,3.1349,0.0693,-141.505,-119.385,-51.345,401,1,355,395,376,2025-06-03T10:35:07.900731
418,1.9300,3.7029,-0.3187,-187.600,-137.165,-73.640,389,2,355,379,369,2025-06-03T10:35:07.900731
419,2.1399,3.9752,-0.7232,-223.020,-160.405,-105.035,392,2,352,378,374,2025-06-03T10:35:07.900731
420,2.0228,4.0001,-0.9916,-254.205,-183.330,-154.070,386,1,354,350,384,2025-06-03T10:35:07.900731
421,1.8686,3.8816,-1.0858,-290.990,-205.660,-210.140,393,1,352,362,357,2025-06-03T10:35:07.900731
422,1.7114,3.4594,-1.2132,-334.075,-232.435,-268.590,382,1,358,386,368,2025-06-03T10:35:07.900731
423,1.4967,2.9075,-1.2444,-394.905,-254.555,-333.025,394,1,336,343,372,2025-06-03T10:35:07.900731
424,1.3659,2.0794,-1.3400,-437.710,-274.435,-398.440,360,1,336,380,376,2025-06-03T10:35:07.900731
425,1.2215,0.6891,-1.2141,-498.645,-282.450,-468.965,351,2,345,343,379,2025-06-03T10:35:07.900731
426,1.2971,-1.4474,-0.9087,-551.880,-270.375,-560.385,332,2,340,375,390,2025-06-03T10:35:08.113654
427,0.9677,-4.7839,-0.1200,-592.095,-222.005,-668.010,311,2,351,391,402,2025-06-03T10:35:08.113654
428,0.6281,-8.2121,0.6466,-517.440,-170.835,-701.960,357,2,357,404,384,2025-06-03T10:35:08.113654
429,-1.0219,-8.1506,0.9501,-276.115,-175.525,-597.800,360,2,377,375,387,2025-06-03T10:35:08.113654
430,-6.9272,-4.3632,1.3596,33.110,-480.095,-283.220,403,2,383,397,400,2025-06-03T10:35:08.113654
431,1.0907,-3.9831,-2.3795,265.265,-826.630,250.355,318,1,333,336,335,2025-06-03T10:35:08.113654
432,4.6223,-2.9851,-1.3059,208.215,-395.535,383.775,337,1,334,379,369,2025-06-03T10:35:08.113654
433,4.4491,-2.1311,1.6011,197.190,263.130,376.880,391,2,373,423,374,2025-06-03T10:35:08.113654
434,2.8216,-1.5323,0.0571,209.090,761.250,357.280,360,2,364,406,389,2025-06-03T10:35:08.113654
435,0.8725,-1.9110,-0.7671,212.485,883.890,382.130,348,2,353,383,364,2025-06-03T10:35:08.113654
436,-0.6622,-1.7490,0.0708,194.705,621.810,389.095,371,1,360,384,346,2025-06-03T10:35:08.113654
437,-1.4806,-1.7251,0.8330,226.800,373.555,383.705,346,2,337,368,369,2025-06-03T10:35:08.113654
438,-1.3069,-1.4723,0.9404,252.350,156.940,355.180,360,1,344,382,388,2025-06-03T10:35:08.113654
439,-0.6949,-1.0985,0.7398,257.915,1.610,305.795,382,1,348,387,393,2025-06-03T10:35:08.113654
440,-0.1620,-0.5636,0.6354,206.500,-118.930,245.875,382,1,348,381,388,2025-06-03T10:35:08.113654
441,0.1864,0.0766,0.4665,295.505,-119.105,183.995,370,2,351,351,377,2025-06-03T10:35:08.113654
442,0.5095,0.5241,0.3728,263.935,-66.430,128.870,391,1,356,387,380,2025-06-03T10:35:08.113654
443,0.5734,0.6925,0.4080,248.115,-17.780,99.505,362,2,365,404,389,2025-06-03T10:35:08.311056
444,0.6076,0.7564,0.4202,224.245,25.480,73.745,378,1,369,401,396,2025-06-03T10:35:08.311056
445,0.6676,0.9565,0.4490,206.990,98.105,58.310,386,2,368,405,396,2025-06-03T10:35:08.311056
446,0.5802,1.1946,0.4607,188.160,164.220,41.055,384,1,358,386,392,2025-06-03T10:35:08.311056
447,0.4416,1.3522,0.4211,167.265,205.170,28.630,359,1,361,383,350,2025-06-03T10:35:08.311056
448,0.0088,1.4259,0.3601,145.250,214.865,17.115,369,1,362,383,369,2025-06-03T10:35:08.311056
449,-0.3226,1.4791,0.3011,132.300,196.315,10.955,389,1,345,383,378,2025-06-03T10:35:08.311056
450,-0.5929,1.4977,0.2172,128.135,144.235,10.150,392,2,333,380,394,2025-06-03T10:35:08.311056
451,-0.7398,1.4855,0.2035,124.740,66.150,6.650,399,2,341,380,387,2025-06-03T10:35:08.311056
452,-0.4851,1.5684,0.1552,124.250,-3.675,5.600,392,2,348,383,378,2025-06-03T10:35:08.311056
453,-0.1288,1.5694,0.1035,118.090,-31.465,7.700,388,2,354,347,341,2025-06-03T10:35:08.311056
454,0.0620,1.5518,0.0966,109.970,-29.995,7.385,382,1,344,373,372,2025-06-03T10:35:08.311056
455,0.1791,1.6016,0.1625,95.935,-16.730,7.245,356,1,347,377,381,2025-06-03T10:35:08.311056
456,0.1952,1.5650,0.1586,80.710,3.885,8.050,375,1,346,360,356,2025-06-03T10:35:08.311056
457,0.2054,1.5318,0.1074,68.075,15.715,10.885,383,2,354,385,367,2025-06-03T10:35:08.311056
458,0.1615,1.4708,0.1444,55.475,23.170,11.585,391,1,358,373,380,2025-06-03T10:35:08.311056
459,0.1342,1.4020,0.1928,45.150,26.355,9.800,365,1,358,382,352,2025-06-03T10:35:08.311056
460,0.1127,1.3342,0.2313,37.660,28.070,8.645,373,2,358,395,373,2025-06-03T10:35:08.581022
461,0.1039,1.3337,0.2874,29.610,31.185,9.520,385,0,346,389,376,2025-06-03T10:35:08.581022
462,0.0883,1.3274,0.3382,21.840,34.545,10.780,366,1,349,391,344,2025-06-03T10:35:08.581022
463,0.0634,1.2844,0.3880,14.455,38.395,10.990,385,2,349,382,362,2025-06-03T10:35:08.581022
464,-0.0142,1.2273,0.4187,8.260,38.990,10.780,356,1,356,399,379,2025-06-03T10:35:08.581022
465,-0.0947,1.1741,0.4553,4.060,31.325,10.325,377,0,334,404,383,2025-06-03T10:35:08.581022
466,-0.1454,1.1219,0.4807,2.205,17.745,10.010,385,2,349,387,389,2025-06-03T10:35:08.581022
467,-0.1635,1.0585,0.4753,0.875,7.595,9.485,385,2,356,351,386,2025-06-03T10:35:08.581022
468,-0.1118,0.9975,0.4587,0.805,0.770,9.695,382,1,356,385,401,2025-06-03T10:35:08.581022
469,-0.0522,0.9618,0.4153,1.540,2.625,10.290,388,1,356,360,389,2025-06-03T10:35:08.581022
470,-0.0551,0.9306,0.4182,0.560,12.915,10.360,380,2,337,372,392,2025-06-03T10:35:08.581022
471,-0.0800,0.9091,0.4607,0.665,24.010,9.905,382,2,345,376,353,2025-06-03T10:35:08.581022
472,-0.2460,0.8867,0.4543,0.385,28.035,10.185,389,1,344,373,372,2025-06-03T10:35:08.581022
473,-0.1913,0.8711,0.4372,-0.385,24.675,9.975,385,1,354,389,387,2025-06-03T10:35:08.581022
474,-0.2430,0.8398,0.4397,0.280,14.490,9.380,394,1,353,378,395,2025-06-03T10:35:08.581022
475,-0.2523,0.8286,0.4499,1.645,3.675,7.420,391,1,353,394,402,2025-06-03T10:35:08.581022
476,-0.2025,0.8223,0.4397,3.605,-1.820,5.460,385,1,360,386,388,2025-06-03T10:35:08.581022
477,-0.1527,0.8213,0.4172,5.635,-1.120,4.795,358,2,353,391,401,2025-06-03T10:35:08.581022
478,-0.1630,0.8267,0.4021,7.315,6.230,3.185,342,1,358,355,384,2025-06-03T10:35:08.581022
479,-0.1937,0.8276,0.4168,8.715,14.490,1.435,359,2,361,385,390,2025-06-03T10:35:08.581022
480,-0.2367,0.8325,0.4329,10.640,19.705,1.155,375,1,369,392,381,2025-06-03T10:35:08.581022
481,-0.3016,0.8203,0.4060,13.755,19.110,2.170,374,2,374,402,396,2025-06-03T10:35:08.581022
482,-0.3450,0.8267,0.4070,15.995,12.950,2.940,382,2,377,401,357,2025-06-03T10:35:08.820995
483,-0.3587,0.8272,0.4172,17.990,5.250,3.465,383,1,368,361,358,2025-06-03T10:35:08.820995
484,-0.3167,0.8281,0.4080,19.250,-0.140,4.795,394,2,371,386,379,2025-06-03T10:35:08.820995
485,-0.2899,0.8335,0.4109,19.530,-1.505,6.440,382,1,372,346,386,2025-06-03T10:35:08.820995
486,-0.2557,0.8486,0.4046,19.950,0.735,7.420,389,2,368,370,386,2025-06-03T10:35:08.820995
487,-0.2552,0.8647,0.4104,20.090,4.060,7.910,404,2,375,374,355,2025-06-03T10:35:08.820995
488,-0.2664,0.8760,0.4002,19.985,7.070,8.120,405,2,375,386,378,2025-06-03T10:35:08.820995
489,-0.2850,0.8852,0.3845,19.740,5.985,8.470,368,1,350,353,386,2025-06-03T10:35:08.820995
490,-0.2991,0.8969,0.3875,18.690,1.435,8.820,377,2,357,374,354,2025-06-03T10:35:08.820995
491,-0.2786,0.9013,0.3748,18.025,-4.480,8.960,377,1,354,337,371,2025-06-03T10:35:08.820995
492,-0.2591,0.9057,0.3753,16.520,-7.455,8.260,385,2,358,358,380,2025-06-03T10:35:08.820995
493,-0.2308,0.9082,0.3797,14.980,-9.415,7.105,363,2,358,350,379,2025-06-03T10:35:08.820995
494,-0.1898,0.9077,0.3733,13.650,-8.960,5.740,381,2,361,375,376,2025-06-03T10:35:08.820995
495,-0.1684,0.9145,0.3792,12.075,-5.740,4.970,364,1,369,374,387,2025-06-03T10:35:08.820995
496,-0.1903,0.9091,0.3865,10.850,-2.345,3.780,370,1,347,379,390,2025-06-03T10:35:08.820995
497,-0.2054,0.9072,0.3797,9.380,-1.295,3.290,381,2,353,387,389,2025-06-03T10:35:08.820995
498,-0.2420,0.8965,0.3865,7.910,-2.660,3.150,390,2,336,358,352,2025-06-03T10:35:08.820995
499,-0.2699,0.8926,0.3953,6.720,-6.370,2.870,396,1,345,361,369,2025-06-03T10:35:08.820995
500,-0.2635,0.8808,0.3967,6.195,-10.920,2.800,402,1,353,380,393,2025-06-03T10:35:08.820995
501,-0.2494,0.8779,0.3943,5.600,-15.085,2.765,402,1,360,393,395,2025-06-03T10:35:09.243091
502,-0.2342,0.8813,0.3806,5.075,-17.150,2.450,401,1,363,387,394,2025-06-03T10:35:09.243091
503,-0.2118,0.8906,0.3645,4.200,-17.290,2.030,391,2,365,380,398,2025-06-03T10:35:09.243091
504,-0.1815,0.8818,0.3597,3.675,-15.505,1.855,397,2,364,395,396,2025-06-03T10:35:09.243091
505,-0.1776,0.8735,0.3514,2.870,-12.565,2.030,393,2,366,356,359,2025-06-03T10:35:09.243091
506,-0.1991,0.8740,0.3475,2.065,-10.535,1.610,400,1,356,343,378,2025-06-03T10:35:09.243091
507,-0.2069,0.8652,0.3440,1.225,-10.710,0.945,404,2,359,361,388,2025-06-03T10:35:09.243091
508,-0.2035,0.8716,0.3465,1.120,-12.915,0.560,410,2,360,376,354,2025-06-03T10:35:09.243091
509,-0.2015,0.8750,0.3367,1.085,-15.365,-0.105,404,2,366,375,380,2025-06-03T10:35:09.243091
510,-0.1986,0.8813,0.3333,0.945,-16.800,-1.540,380,2,370,401,385,2025-06-03T10:35:09.243091
511,-0.1908,0.8852,0.3494,1.085,-17.640,-3.290,388,0,342,401,394,2025-06-03T10:35:09.243091
512,-0.1791,0.8852,0.3553,1.155,-16.450,-4.550,363,1,353,358,380,2025-06-03T10:35:09.243091
513,-0.1747,0.8838,0.3553,0.840,-15.295,-5.600,348,2,355,375,382,2025-06-03T10:35:09.243091
514,-0.1815,0.8784,0.3484,-0.315,-14.805,-6.405,376,1,356,347,386,2025-06-03T10:35:09.243091
515,-0.2040,0.8725,0.3743,-1.960,-15.085,-7.595,380,1,358,350,355,2025-06-03T10:35:09.243091
516,-0.2259,0.8633,0.3992,-2.835,-16.555,-8.750,389,1,351,371,339,2025-06-03T10:35:09.243091
517,-0.2416,0.8589,0.4109,-3.535,-18.830,-9.975,392,1,359,386,374,2025-06-03T10:35:09.243091
518,-0.2645,0.8525,0.4055,-4.795,-21.315,-11.550,402,1,357,393,382,2025-06-03T10:35:09.243091
519,-0.1288,0.8555,0.4006,-6.475,-23.345,-12.705,394,1,353,390,355,2025-06-03T10:35:09.243091
520,-0.2250,0.8506,0.4011,-9.030,-24.010,-13.300,391,1,348,396,369,2025-06-03T10:35:09.243091
521,-0.1893,0.8647,0.4050,-12.005,-20.930,-15.085,393,1,349,384,381,2025-06-03T10:35:09.243091
522,-0.1737,0.8955,0.4187,-14.490,-14.210,-18.130,388,1,331,383,348,2025-06-03T10:35:09.243091
523,-0.1625,0.9111,0.4431,-16.870,-6.965,-22.225,383,1,339,384,335,2025-06-03T10:35:09.243091
524,-0.1152,0.9794,0.4319,-18.900,-4.480,-24.535,356,1,339,382,367,2025-06-03T10:35:09.243091
525,-0.1337,1.0780,0.4255,-25.900,-2.485,-26.355,367,1,349,396,384,2025-06-03T10:35:09.243091
526,-0.1669,1.2210,0.4270,-32.480,-12.180,-27.370,349,1,350,399,387,2025-06-03T10:35:09.243091
527,-0.1562,1.5148,0.3992,-45.570,-31.430,-25.935,370,1,353,384,395,2025-06-03T10:35:09.243091
528,-0.0195,1.9471,0.2948,-58.310,-58.835,-19.915,377,1,355,400,360,2025-06-03T10:35:09.253215
529,0.3548,2.4990,0.0542,-79.065,-89.180,-8.365,392,1,360,395,366,2025-06-03T10:35:09.253215
530,0.7105,3.1208,-0.1986,-104.860,-117.495,10.045,369,1,339,397,377,2025-06-03T10:35:09.253215
531,1.0058,3.6868,-0.4782,-132.650,-133.350,22.750,369,2,347,406,378,2025-06-03T10:35:09.253215
532,1.2473,3.8376,-0.7276,-164.430,-139.300,20.895,383,1,347,397,371,2025-06-03T10:35:09.253215
533,1.5840,3.7039,-0.8486,-200.130,-137.620,2.100,386,2,325,353,378,2025-06-03T10:35:09.253215
534,1.7993,3.6263,-0.9326,-233.555,-137.200,-30.870,387,1,342,385,397,2025-06-03T10:35:09.253215
535,1.7583,3.6205,-1.0756,-269.045,-134.260,-86.240,383,2,356,392,363,2025-06-03T10:35:09.253215
536,1.2507,3.5741,-1.0399,-314.230,-134.015,-164.220,387,2,359,392,349,2025-06-03T10:35:09.253215
537,1.2088,2.7943,-1.1409,-352.450,-167.440,-248.780,386,2,365,382,345,2025-06-03T10:35:09.332472
538,0.8535,1.7597,-1.1951,-388.010,-239.085,-327.845,379,1,361,342,364,2025-06-03T10:35:09.332472
539,0.7393,0.6202,-1.0541,-434.840,-298.585,-401.800,387,1,350,333,375,2025-06-03T10:35:09.332472
540,0.9658,-1.2010,-0.5641,-497.980,-285.215,-487.515,395,2,352,357,350,2025-06-03T10:35:09.332472
541,0.9994,-4.4876,0.2816,-553.315,-215.670,-564.270,367,1,359,387,344,2025-06-03T10:35:09.332472
542,0.7164,-7.4030,0.7662,-530.845,-60.410,-592.410,382,1,388,406,363,2025-06-03T10:35:09.332472
543,0.1440,-10.2539,0.2381,-321.370,51.170,-512.505,361,1,377,420,387,2025-06-03T10:35:09.332472
544,-1.0629,-5.0498,0.7291,37.835,-102.270,-270.795,381,1,382,403,378,2025-06-03T10:35:09.332472
545,-0.5100,-3.7425,0.2123,44.310,-189.455,64.960,377,1,367,345,366,2025-06-03T10:35:09.383510
546,1.8793,-2.9095,0.3723,102.165,-46.655,293.510,349,2,359,360,387,2025-06-03T10:35:09.383510
547,1.8188,-2.5644,1.2444,180.005,208.810,376.600,363,1,365,368,350,2025-06-03T10:35:09.383510
548,0.7588,-2.7894,0.8867,209.265,348.670,395.010,358,1,354,360,335,2025-06-03T10:35:09.383510
549,0.0605,-2.3917,0.5348,238.875,364.840,396.550,356,1,353,357,360,2025-06-03T10:35:09.430904
550,-0.5334,-2.2380,0.7642,240.940,216.685,388.220,368,2,357,370,374,2025-06-03T10:35:09.430904
551,-0.6671,-1.8539,0.6388,285.040,150.220,367.955,382,3,359,337,377,2025-06-03T10:35:09.430904
552,-0.4348,-1.1810,0.4226,293.580,108.290,345.030,386,2,357,377,381,2025-06-03T10:35:09.430904
553,-0.5675,-0.5348,0.3567,308.315,91.595,316.295,386,2,366,395,389,2025-06-03T10:35:09.654550
554,-0.2991,0.0161,0.2635,304.990,101.955,279.230,392,1,344,395,376,2025-06-03T10:35:09.654550
555,-0.1449,0.5334,-0.0146,298.970,117.180,258.860,367,2,354,410,387,2025-06-03T10:35:09.654550
556,-0.2059,1.0570,-0.2108,295.995,120.680,236.215,382,2,356,364,389,2025-06-03T10:35:09.654550
557,-0.0615,1.3230,-0.2103,272.895,119.875,214.760,358,2,354,383,385,2025-06-03T10:35:09.654550
558,0.1523,1.4860,-0.1747,252.630,104.300,197.715,383,1,364,382,396,2025-06-03T10:35:09.654550
559,0.4241,1.5372,-0.1342,229.285,85.890,181.545,369,1,361,393,356,2025-06-03T10:35:09.654550
560,0.6115,1.6436,-0.0810,210.525,74.515,151.935,364,1,367,390,368,2025-06-03T10:35:09.654550
561,0.5944,1.7875,-0.0073,184.415,69.475,122.605,371,1,369,384,376,2025-06-03T10:35:09.654550
562,0.5505,1.8827,0.0059,164.045,51.625,94.955,358,1,369,391,390,2025-06-03T10:35:09.654550
563,0.4607,1.8393,0.0078,137.725,22.995,72.555,364,2,369,354,385,2025-06-03T10:35:09.654550
564,0.5261,1.7505,0.0708,113.715,1.785,56.280,379,1,367,367,382,2025-06-03T10:35:09.654550
565,0.6412,1.6978,0.1547,90.265,-7.140,46.550,392,2,361,380,393,2025-06-03T10:35:09.654550
566,0.7540,1.6392,0.2133,66.850,5.250,36.155,395,2,364,375,379,2025-06-03T10:35:09.654550
567,0.5890,1.5655,0.2513,47.425,26.565,28.490,388,2,355,376,388,2025-06-03T10:35:09.654550
568,0.4524,1.4816,0.2601,35.385,35.070,22.925,382,1,359,338,338,2025-06-03T10:35:09.654550
569,0.2045,1.3620,0.2733,24.675,27.475,21.385,379,1,348,288,357,2025-06-03T10:35:09.654550
570,0.1176,1.2927,0.3597,18.830,10.465,20.160,382,1,344,338,385,2025-06-03T10:35:09.654550
571,0.1093,1.2420,0.4270,15.330,-2.695,18.445,387,2,355,367,394,2025-06-03T10:35:09.654550
572,0.1288,1.1932,0.4080,11.795,-7.000,15.925,386,2,361,374,402,2025-06-03T10:35:09.741495
573,0.1586,1.1478,0.3558,7.455,-0.140,12.635,392,1,357,380,356,2025-06-03T10:35:09.741495
574,0.2123,1.1131,0.3035,4.795,12.705,10.640,394,1,337,374,381,2025-06-03T10:35:09.741495
575,0.1859,1.0765,0.3109,0.525,26.040,8.645,363,2,341,377,383,2025-06-03T10:35:09.741495
576,0.0976,1.0458,0.3665,-3.010,38.395,7.350,381,2,351,381,395,2025-06-03T10:35:09.741495
577,0.0000,1.0238,0.3933,-5.320,39.515,7.035,392,1,361,402,388,2025-06-03T10:35:09.741495
578,-0.0576,0.9828,0.4172,-7.350,30.345,8.820,368,2,360,402,360,2025-06-03T10:35:09.741495
579,-0.1132,0.9658,0.4407,-6.475,11.375,10.990,357,2,359,399,381,2025-06-03T10:35:09.792056
580,-0.1035,0.9511,0.4690,-5.425,7.700,11.515,366,1,363,386,388,2025-06-03T10:35:09.792056
581,-0.0444,0.9443,0.4753,-2.590,-0.805,11.830,378,2,365,383,397,2025-06-03T10:35:09.792056
582,-0.0161,0.9306,0.4602,-0.385,-4.270,11.025,378,1,369,390,392,2025-06-03T10:35:09.792056
583,0.0015,0.9179,0.4504,2.940,-5.250,10.045,361,2,372,362,386,2025-06-03T10:35:09.956546
584,-0.0029,0.9023,0.4250,4.620,-4.480,8.610,374,1,365,374,393,2025-06-03T10:35:09.956546
585,-0.0181,0.8838,0.3909,6.405,-3.045,7.140,382,1,364,394,398,2025-06-03T10:35:09.956546
586,-0.0239,0.8721,0.3606,6.055,-0.735,6.160,355,2,362,400,367,2025-06-03T10:35:09.956546
587,-0.0371,0.8647,0.3426,5.495,1.330,5.320,343,2,370,402,375,2025-06-03T10:35:09.956546
588,-0.0620,0.8584,0.3333,4.725,3.010,4.410,362,2,371,403,389,2025-06-03T10:35:09.956546
589,-0.0903,0.8560,0.3318,4.410,2.380,4.200,368,2,365,395,349,2025-06-03T10:35:09.956546
590,-0.0878,0.8638,0.3221,4.725,1.225,3.745,380,2,361,383,365,2025-06-03T10:35:09.956546
591,-0.0678,0.8667,0.3084,5.600,-0.350,2.940,378,1,358,390,386,2025-06-03T10:35:09.956546
592,-0.0561,0.8740,0.3109,6.335,-1.540,1.890,387,1,362,323,368,2025-06-03T10:35:09.956546
593,-0.0571,0.8804,0.3104,7.280,-2.520,0.595,395,1,352,287,372,2025-06-03T10:35:09.956546
594,-0.0630,0.8896,0.3123,7.980,-2.520,-0.805,374,2,358,358,402,2025-06-03T10:35:09.956546
595,-0.0615,0.8930,0.2991,9.345,-2.520,-1.155,378,1,362,343,392,2025-06-03T10:35:09.956546
596,-0.0820,0.8950,0.2830,10.010,-2.660,-1.645,389,1,357,355,352,2025-06-03T10:35:09.956546
597,-0.0956,0.8862,0.2860,10.605,-4.305,-1.785,395,1,357,374,370,2025-06-03T10:35:10.154846
598,-0.1083,0.8813,0.3182,11.410,-5.215,-1.715,404,2,367,389,372,2025-06-03T10:35:10.154846
599,-0.0996,0.8818,0.3318,12.250,-5.005,-1.960,393,1,370,400,354,2025-06-03T10:35:10.154846
600,-0.0874,0.8877,0.3167,12.915,-4.480,-1.960,369,1,363,391,373,2025-06-03T10:35:10.154846
601,-0.0844,0.8857,0.3089,13.405,-3.745,-1.995,377,2,369,403,373,2025-06-03T10:35:10.154846
602,-0.0888,0.8950,0.3260,13.685,-2.100,-2.520,377,2,364,361,381,2025-06-03T10:35:10.154846
603,-0.0903,0.8935,0.3270,13.440,-1.015,-3.255,383,1,362,372,390,2025-06-03T10:35:10.154846
604,-0.0966,0.8955,0.3299,13.195,-0.595,-3.395,398,1,362,381,354,2025-06-03T10:35:10.154846
605,-0.1039,0.8989,0.3211,12.355,-0.910,-3.990,394,1,359,388,384,2025-06-03T10:35:10.154846
606,-0.1137,0.9018,0.3148,11.445,-2.975,-4.305,370,1,363,391,378,2025-06-03T10:35:10.154846
607,-0.1235,0.8984,0.3240,10.850,-5.180,-5.075,355,1,354,352,343,2025-06-03T10:35:10.154846
608,-0.0986,0.8989,0.3240,10.605,-7.070,-5.285,374,2,355,370,376,2025-06-03T10:35:10.154846
609,-0.1005,0.9052,0.3206,10.430,-7.980,-5.705,360,1,361,382,378,2025-06-03T10:35:10.154846
610,-0.0976,0.9077,0.3177,9.905,-8.540,-6.300,374,1,362,364,357,2025-06-03T10:35:10.154846
611,-0.0854,0.9160,0.3138,9.660,-8.505,-6.790,386,1,362,342,385,2025-06-03T10:35:10.154846
612,-0.0747,0.9306,0.3143,9.415,-6.930,-7.140,389,1,358,365,380,2025-06-03T10:35:10.154846
613,-0.0630,0.9409,0.3118,9.310,-3.745,-7.700,398,2,357,378,392,2025-06-03T10:35:10.154846
614,-0.0615,0.9438,0.2894,8.225,-0.350,-7.840,402,1,360,395,400,2025-06-03T10:35:10.367430
615,-0.1274,0.9457,0.2796,7.420,0.665,-7.875,403,1,362,405,387,2025-06-03T10:35:10.367430
616,-0.1532,0.9526,0.2845,6.895,-3.780,-7.560,393,1,356,405,382,2025-06-03T10:35:10.367430
617,-0.1606,0.9531,0.2821,6.930,-9.835,-7.105,402,2,363,405,386,2025-06-03T10:35:10.367430
618,-0.1440,0.9584,0.2752,7.175,-13.755,-6.370,370,2,358,405,380,2025-06-03T10:35:10.367430
619,-0.1127,0.9638,0.2723,6.545,-15.645,-5.670,376,1,359,408,392,2025-06-03T10:35:10.367430
620,-0.0688,0.9697,0.2796,5.425,-14.210,-5.145,360,1,364,368,347,2025-06-03T10:35:10.367430
621,-0.0673,0.9628,0.2821,4.480,-10.640,-4.550,373,1,364,347,357,2025-06-03T10:35:10.367430
622,-0.0820,0.9711,0.2777,3.605,-8.295,-3.780,374,2,369,376,343,2025-06-03T10:35:10.367430
623,-0.1025,0.9692,0.2821,3.045,-7.770,-3.045,391,1,370,345,354,2025-06-03T10:35:10.367430
624,-0.1137,0.9623,0.2913,2.765,-8.715,-2.030,369,1,369,366,342,2025-06-03T10:35:10.367430
625,-0.1166,0.9594,0.3021,2.415,-10.115,-1.155,373,1,368,376,366,2025-06-03T10:35:10.367430
626,-0.1152,0.9526,0.3089,2.240,-11.865,-0.210,381,1,371,387,383,2025-06-03T10:35:10.367430
627,-0.1078,0.9521,0.3074,2.170,-13.475,0.770,378,1,364,402,345,2025-06-03T10:35:10.367430
628,-0.1049,0.9394,0.3050,2.135,-14.980,1.470,354,2,367,398,374,2025-06-03T10:35:10.367430
629,-0.1044,0.9418,0.3050,2.205,-16.240,1.680,346,1,345,402,345,2025-06-03T10:35:10.367430
630,-0.0927,0.8072,0.3401,1.960,-18.585,1.330,372,2,349,387,326,2025-06-03T10:35:10.367430
631,-0.0874,0.9233,0.2987,2.870,-18.095,1.400,390,2,358,397,366,2025-06-03T10:35:10.565137
632,-0.0517,0.9428,0.2801,2.660,-16.660,0.980,389,1,365,403,368,2025-06-03T10:35:10.565137
633,-0.0517,0.9355,0.2943,1.575,-14.805,0.210,385,2,365,354,371,2025-06-03T10:35:10.565137
634,-0.0600,0.9316,0.3065,1.435,-13.580,-0.805,384,2,358,383,384,2025-06-03T10:35:10.565137
635,-0.0742,0.9243,0.3040,1.085,-13.055,-1.470,382,2,358,400,356,2025-06-03T10:35:10.565137
636,-0.0830,0.9272,0.2904,1.505,-14.630,-2.730,393,1,363,397,376,2025-06-03T10:35:10.565137
637,-0.0761,0.9267,0.2845,1.330,-15.750,-3.780,399,1,343,388,350,2025-06-03T10:35:10.565137
638,-0.0712,0.9213,0.2821,1.435,-15.750,-5.320,404,2,346,359,369,2025-06-03T10:35:10.565137
639,-0.0639,0.9111,0.2855,1.120,-15.365,-6.405,399,1,351,378,383,2025-06-03T10:35:10.565137
640,-0.0742,0.9101,0.2874,0.770,-14.525,-7.140,400,1,356,386,395,2025-06-03T10:35:10.565137
641,-0.0791,0.9140,0.2918,0.315,-13.930,-7.840,399,1,353,386,399,2025-06-03T10:35:10.565137
642,-0.0971,0.9101,0.2869,-0.035,-14.350,-8.330,408,1,351,350,398,2025-06-03T10:35:10.565137
643,-0.1122,0.9165,0.2835,-0.595,-15.680,-8.715,411,1,349,385,394,2025-06-03T10:35:10.565137
644,-0.1103,0.9194,0.2957,-1.400,-17.150,-9.240,403,1,348,402,397,2025-06-03T10:35:10.565137
645,-0.1044,0.9184,0.3104,-2.660,-18.305,-9.450,404,2,359,406,400,2025-06-03T10:35:10.565137
646,-0.1176,0.9165,0.3265,-3.675,-19.040,-9.800,396,1,359,392,395,2025-06-03T10:35:10.565137
647,-0.1244,0.9213,0.3318,-5.215,-20.335,-10.990,396,1,357,379,385,2025-06-03T10:35:10.565137
648,-0.1552,0.9301,0.3592,-7.420,-23.100,-13.230,390,2,354,375,384,2025-06-03T10:35:10.614788
649,-0.1791,0.9321,0.3982,-9.730,-27.895,-16.240,402,1,351,380,396,2025-06-03T10:35:10.614788
650,-0.1942,0.9423,0.4582,-12.950,-33.285,-19.285,367,1,359,378,406,2025-06-03T10:35:10.614788
651,-0.2137,0.9438,0.4875,-18.025,-40.985,-22.435,325,2,358,381,398,2025-06-03T10:35:11.001967
652,-0.2294,0.9589,0.5217,-23.940,-50.190,-26.355,362,2,357,386,391,2025-06-03T10:35:11.001967
653,-0.2586,0.9828,0.5549,-32.620,-60.165,-30.590,371,2,358,398,399,2025-06-03T10:35:11.001967
654,-0.2391,1.0004,0.6139,-42.210,-72.030,-34.965,383,2,369,392,389,2025-06-03T10:35:11.001967
655,-0.2313,1.0165,0.6354,-52.010,-83.650,-40.215,383,2,362,403,385,2025-06-03T10:35:11.001967
656,-0.0488,1.0604,0.6593,-64.295,-92.715,-49.245,390,2,371,402,394,2025-06-03T10:35:11.001967
657,0.1947,1.2112,0.5885,-80.745,-102.830,-63.840,395,2,371,396,400,2025-06-03T10:35:11.001967
658,0.3401,1.6275,0.4246,-103.355,-121.625,-79.100,395,1,366,392,359,2025-06-03T10:35:11.001967
659,0.5758,1.9315,0.2298,-126.945,-159.285,-100.485,389,1,357,376,375,2025-06-03T10:35:11.001967
660,0.9526,2.3468,-0.0566,-148.610,-212.135,-120.330,398,1,353,388,393,2025-06-03T10:35:11.001967
661,1.4172,2.8397,-0.3616,-172.655,-257.145,-139.720,389,1,364,386,390,2025-06-03T10:35:11.001967
662,1.8690,3.3433,-0.7549,-205.590,-275.975,-160.615,359,1,362,398,401,2025-06-03T10:35:11.001967
663,2.0335,3.6751,-0.9984,-232.890,-264.355,-183.750,372,1,361,398,402,2025-06-03T10:35:11.001967
664,1.8310,3.6454,-1.1014,-272.965,-245.805,-209.790,388,2,367,400,363,2025-06-03T10:35:11.001967
665,1.5094,3.3360,-1.0077,-311.710,-230.860,-240.310,395,1,368,397,367,2025-06-03T10:35:11.001967
666,1.1990,2.8162,-0.9867,-346.640,-241.990,-275.170,396,2,362,400,350,2025-06-03T10:35:11.001967
667,0.6471,2.2292,-0.9638,-373.275,-279.370,-304.325,400,1,357,398,371,2025-06-03T10:35:11.001967
668,0.5114,1.5021,-0.7154,-409.885,-316.365,-338.065,386,1,359,350,347,2025-06-03T10:35:11.001967
669,0.6886,0.3294,-0.5905,-465.395,-308.735,-377.405,388,1,359,378,377,2025-06-03T10:35:11.001967
670,1.1531,-1.5221,-0.1191,-510.195,-232.820,-429.765,396,2,363,396,320,2025-06-03T10:35:11.001967
671,1.1097,-4.1924,0.8667,-527.485,-95.025,-496.930,407,2,369,402,374,2025-06-03T10:35:11.001967
672,0.4226,-5.5207,0.8325,-457.170,20.965,-524.510,428,1,390,419,401,2025-06-03T10:35:11.001967
673,-0.5461,-6.9374,0.5470,-255.955,77.700,-440.860,402,2,392,409,393,2025-06-03T10:35:11.001967
674,-1.7758,-3.7639,1.2268,-42.840,-39.515,-204.890,390,2,373,395,375,2025-06-03T10:35:11.001967
675,-1.5699,-2.7543,0.4006,38.640,-206.955,55.300,394,2,364,344,333,2025-06-03T10:35:11.001967
676,1.2888,-2.2097,0.4050,133.980,-126.490,255.815,393,1,363,361,357,2025-06-03T10:35:11.001967
677,1.5206,-2.0481,1.2044,156.485,98.770,300.580,402,2,373,369,380,2025-06-03T10:35:11.001967
678,0.9906,-1.7363,0.7569,203.455,275.065,289.415,397,1,368,375,343,2025-06-03T10:35:11.001967
679,0.1879,-1.6860,0.6383,227.955,250.005,284.340,395,2,367,380,373,2025-06-03T10:35:11.001967
680,-0.2269,-1.5060,0.6866,226.275,160.755,282.275,397,2,361,393,368,2025-06-03T10:35:11.001967
681,-0.4402,-1.2756,0.5993,254.310,109.060,266.560,396,2,340,394,377,2025-06-03T10:35:11.001967
682,-0.3143,-0.9550,0.5788,251.475,71.470,251.090,388,1,353,385,383,2025-06-03T10:35:11.034075
683,-0.1869,-0.5978,0.5651,256.690,63.035,234.570,386,1,355,386,379,2025-06-03T10:35:11.034075
684,-0.0966,-0.3562,0.5505,244.895,91.035,220.290,392,2,353,380,388,2025-06-03T10:35:11.034075
685,-0.0166,-0.1337,0.4695,227.220,140.700,212.380,374,2,362,392,390,2025-06-03T10:35:11.034075
686,-0.0020,0.0615,0.4631,212.870,183.505,207.585,382,1,357,399,389,2025-06-03T10:35:11.178498
687,0.0107,0.4114,0.3963,200.725,218.645,203.350,385,1,358,404,383,2025-06-03T10:35:11.178498
688,-0.1220,0.6539,0.2152,184.695,245.560,196.210,393,2,337,387,374,2025-06-03T10:35:11.178498
689,-0.1440,0.7706,0.2211,163.870,252.000,183.120,369,2,349,388,353,2025-06-03T10:35:11.178498
690,-0.1444,0.7979,0.3465,149.520,240.450,163.170,377,1,356,384,382,2025-06-03T10:35:11.178498
691,-0.1630,0.8247,0.3645,143.150,217.980,160.440,357,1,357,404,361,2025-06-03T10:35:11.178498
692,-0.2211,0.9150,0.3733,137.200,188.230,146.195,380,1,361,384,371,2025-06-03T10:35:11.178498
693,-0.1718,1.0707,0.3743,132.755,153.090,129.815,389,1,360,401,378,2025-06-03T10:35:11.178498
694,-0.1269,1.2439,0.3436,127.855,118.335,115.115,395,1,364,401,385,2025-06-03T10:35:11.178498
695,-0.0137,1.3454,0.2801,120.120,85.750,103.670,399,2,362,371,372,2025-06-03T10:35:11.178498
696,-0.0303,1.3913,0.3060,109.760,65.030,91.980,366,1,358,342,377,2025-06-03T10:35:11.178498
697,-0.0527,1.3488,0.3528,99.505,42.700,79.170,384,2,362,384,388,2025-06-03T10:35:11.178498
698,0.0717,1.3723,0.4187,97.545,19.005,62.510,397,1,373,386,350,2025-06-03T10:35:11.178498
699,0.2181,1.4054,0.4499,91.735,0.910,48.195,398,2,367,383,363,2025-06-03T10:35:11.230079
700,0.3172,1.4650,0.4577,86.625,-6.405,36.470,404,2,365,348,343,2025-06-03T10:35:11.230079
701,0.4275,1.5040,0.3631,77.490,-1.785,25.865,401,1,365,376,336,2025-06-03T10:35:11.230079
702,0.4158,1.4474,0.3148,63.595,6.335,18.725,396,1,365,373,356,2025-06-03T10:35:11.230079
703,0.3694,1.4211,0.3597,52.220,14.070,13.230,393,1,359,377,364,2025-06-03T10:35:11.380419
704,0.2723,1.4162,0.3723,41.860,24.360,6.195,394,1,355,385,375,2025-06-03T10:35:11.380419
705,0.1283,1.3361,0.3762,35.385,27.685,-0.490,393,1,350,402,387,2025-06-03T10:35:11.380419
706,0.0024,1.2932,0.3797,30.485,25.550,-4.165,382,2,350,390,396,2025-06-03T10:35:11.380419
707,-0.0800,1.2581,0.4031,25.690,22.610,-5.390,383,2,359,353,347,2025-06-03T10:35:11.380419
708,-0.1366,1.2190,0.4236,21.280,15.575,-5.775,384,1,360,331,372,2025-06-03T10:35:11.380419
709,-0.1771,1.1663,0.4392,17.535,5.425,-5.005,394,1,361,365,386,2025-06-03T10:35:11.380419
710,-0.1786,1.1307,0.4124,13.160,-1.890,-3.570,400,2,359,375,398,2025-06-03T10:35:11.380419
711,-0.1801,1.0995,0.4050,9.380,-5.705,-1.680,395,1,336,356,382,2025-06-03T10:35:11.380419
712,-0.1386,1.0497,0.3884,6.790,-6.685,0.875,340,2,345,378,392,2025-06-03T10:35:11.380419
713,-0.0020,1.0136,0.3728,5.250,-3.815,3.500,346,1,355,378,407,2025-06-03T10:35:11.380419
714,-0.1293,1.0033,0.3782,3.675,0.630,4.725,359,1,356,386,399,2025-06-03T10:35:11.380419
715,-0.1464,0.9726,0.3694,3.815,4.725,5.075,379,2,365,386,368,2025-06-03T10:35:11.380419
716,-0.1669,0.9384,0.3460,3.325,5.775,4.970,389,1,367,371,368,2025-06-03T10:35:11.431704
717,-0.1654,0.9130,0.3182,3.360,5.075,4.795,369,1,364,379,370,2025-06-03T10:35:11.431704
718,-0.1972,0.8940,0.3133,3.815,3.255,4.270,379,1,366,382,349,2025-06-03T10:35:11.431704
719,-0.2347,0.8862,0.3328,4.270,-0.105,2.940,378,1,361,377,372,2025-06-03T10:35:11.431704
720,-0.2381,0.8779,0.3377,5.775,-3.045,2.415,381,2,366,396,386,2025-06-03T10:35:11.587823
721,-0.2289,0.8750,0.3221,6.020,-1.785,2.940,387,2,361,386,354,2025-06-03T10:35:11.587823
722,-0.2377,0.8755,0.2772,5.915,-0.560,2.800,361,1,364,385,378,2025-06-03T10:35:11.587823
723,-0.2552,0.8774,0.2772,5.250,0.560,2.940,354,2,363,382,375,2025-06-03T10:35:11.587823
724,-0.2645,0.8808,0.3084,5.390,0.980,2.905,373,2,360,359,368,2025-06-03T10:35:11.587823
725,-0.2664,0.8843,0.3084,4.970,1.225,2.660,376,1,342,341,373,2025-06-03T10:35:11.587823
726,-0.2630,0.8847,0.3030,4.060,0.945,3.010,382,1,330,364,389,2025-06-03T10:35:11.587823
727,-0.2762,0.8818,0.3221,3.395,-1.750,3.185,382,2,345,341,380,2025-06-03T10:35:11.587823
728,-0.2586,0.8828,0.3411,3.080,-4.165,3.815,381,1,351,364,353,2025-06-03T10:35:11.587823
729,-0.2577,0.8789,0.3533,3.080,-4.200,4.025,386,1,359,369,371,2025-06-03T10:35:11.587823
730,-0.2391,0.8789,0.3587,2.835,-3.500,3.885,384,1,363,381,384,2025-06-03T10:35:11.587823
731,-0.2284,0.8799,0.3714,3.360,-2.940,4.410,356,1,368,350,390,2025-06-03T10:35:11.587823
732,-0.2460,0.8799,0.3582,3.430,-2.380,4.445,380,1,366,371,396,2025-06-03T10:35:11.587823
733,-0.2503,0.8818,0.3572,3.535,-3.850,4.550,394,2,370,377,393,2025-06-03T10:35:11.631126
734,-0.2499,0.8784,0.3431,3.535,-6.685,4.480,401,2,368,353,380,2025-06-03T10:35:11.631126
735,-0.2372,0.8833,0.3567,3.885,-8.085,3.780,373,1,369,376,354,2025-06-03T10:35:11.631126
736,-0.2250,0.8818,0.3533,3.920,-8.715,3.080,385,1,348,388,341,2025-06-03T10:35:11.631126
737,-0.2094,0.8857,0.3460,4.200,-8.785,2.485,384,2,355,381,373,2025-06-03T10:35:11.805783
738,-0.2079,0.8935,0.3455,4.235,-8.190,1.645,392,1,356,405,387,2025-06-03T10:35:11.805783
739,-0.2206,0.8935,0.3396,4.375,-8.190,0.770,393,2,356,397,383,2025-06-03T10:35:11.805783
740,-0.2201,0.9043,0.3294,4.445,-9.310,-0.140,365,2,353,380,391,2025-06-03T10:35:11.805783
741,-0.2025,0.9062,0.3143,4.025,-10.115,-0.385,375,2,353,349,396,2025-06-03T10:35:11.805783
742,-0.1967,0.9013,0.3104,3.780,-9.940,-0.315,386,1,350,377,397,2025-06-03T10:35:11.805783
743,-0.2015,0.9048,0.3167,3.605,-9.065,-0.735,394,2,353,374,392,2025-06-03T10:35:11.805783
744,-0.2069,0.9033,0.3265,3.745,-8.610,-1.260,397,1,350,381,395,2025-06-03T10:35:11.805783
745,-0.2196,0.8965,0.3226,3.850,-8.785,-1.925,388,1,359,391,387,2025-06-03T10:35:11.805783
746,-0.2137,0.8945,0.3177,3.850,-9.590,-2.625,385,1,360,364,387,2025-06-03T10:35:11.805783
747,-0.2045,0.8935,0.3143,3.675,-10.745,-3.220,398,2,356,374,357,2025-06-03T10:35:11.805783
748,-0.1996,0.8945,0.3113,3.150,-10.500,-3.850,401,1,361,374,379,2025-06-03T10:35:11.805783
749,-0.1972,0.8901,0.3177,3.255,-9.450,-4.130,391,1,360,398,384,2025-06-03T10:35:11.805783
750,-0.2098,0.8916,0.3196,2.835,-8.820,-4.620,370,2,359,392,385,2025-06-03T10:35:11.859943
751,-0.2142,0.8843,0.3143,2.905,-8.505,-4.340,374,1,362,387,391,2025-06-03T10:35:11.859943
752,-0.2259,0.8833,0.3182,2.555,-8.400,-3.885,388,1,367,393,397,2025-06-03T10:35:11.859943
753,-0.2328,0.8896,0.3152,2.695,-8.610,-3.500,383,1,344,379,402,2025-06-03T10:35:11.859943
754,-0.2186,0.8960,0.3192,2.345,-8.085,-3.045,388,2,331,379,389,2025-06-03T10:35:11.859943
755,-0.2157,0.8979,0.3245,2.485,-7.350,-2.485,393,2,343,389,381,2025-06-03T10:35:12.005220
756,-0.2201,0.8930,0.3255,2.135,-6.965,-2.275,387,1,326,353,372,2025-06-03T10:35:12.005220
757,-0.2211,0.8916,0.3343,2.450,-7.350,-2.135,362,1,332,375,389,2025-06-03T10:35:12.005220
758,-0.2284,0.8999,0.3265,2.835,-8.190,-2.310,378,1,345,376,368,2025-06-03T10:35:12.005220
759,-0.2186,0.8989,0.3196,3.465,-8.715,-2.415,381,2,344,353,366,2025-06-03T10:35:12.005220
760,-0.2103,0.9008,0.3187,3.465,-8.120,-2.590,355,1,344,375,370,2025-06-03T10:35:12.005220
761,-0.2133,0.8979,0.3148,3.500,-7.210,-2.835,370,1,348,358,379,2025-06-03T10:35:12.005220
762,-0.2113,0.8999,0.3182,2.940,-6.265,-2.835,374,1,355,382,383,2025-06-03T10:35:12.005220
763,-0.2201,0.8999,0.3265,3.150,-6.475,-2.870,379,1,362,345,382,2025-06-03T10:35:12.005220
764,-0.2255,0.9028,0.3211,3.185,-6.965,-2.940,378,1,363,362,357,2025-06-03T10:35:12.005220
765,-0.2308,0.9048,0.3162,2.940,-7.525,-2.870,379,1,364,334,365,2025-06-03T10:35:12.005220
766,-0.2235,0.9072,0.3245,2.905,-7.700,-2.555,380,1,338,366,376,2025-06-03T10:35:12.005220
767,-0.2274,0.9048,0.3138,2.870,-7.875,-2.520,383,1,327,381,381,2025-06-03T10:35:12.200335
768,-0.2362,0.9028,0.3187,2.345,-7.875,-2.415,380,1,340,387,378,2025-06-03T10:35:12.200335
769,-0.2338,0.8994,0.3167,1.960,-8.155,-2.135,384,1,350,394,390,2025-06-03T10:35:12.200335
770,-0.2318,0.8974,0.3304,2.205,-8.260,-1.470,385,2,359,351,381,2025-06-03T10:35:12.200335
771,-0.2357,0.8960,0.3187,2.170,-8.155,-1.120,360,2,362,376,393,2025-06-03T10:35:12.200335
772,-0.2240,0.8979,0.3021,2.380,-7.700,-0.980,368,1,356,392,358,2025-06-03T10:35:12.200335
773,-0.2225,0.9013,0.3011,1.925,-7.245,-0.875,371,1,365,383,368,2025-06-03T10:35:12.200335
774,-0.2250,0.9057,0.3240,2.065,-6.615,-0.910,383,1,357,386,347,2025-06-03T10:35:12.200335
775,-0.2318,0.9038,0.3211,1.960,-6.510,-1.505,383,0,335,379,366,2025-06-03T10:35:12.200335
776,-0.2294,0.8984,0.3162,1.785,-6.545,-1.855,395,1,345,394,372,2025-06-03T10:35:12.200335
777,-0.2250,0.8989,0.3026,1.680,-7.455,-1.960,402,2,350,391,382,2025-06-03T10:35:12.200335
778,-0.2274,0.8974,0.3070,1.750,-7.980,-2.065,371,1,354,391,386,2025-06-03T10:35:12.200335
779,-0.2206,0.8911,0.3192,1.820,-7.595,-2.205,379,1,359,389,387,2025-06-03T10:35:12.200335
780,-0.2542,0.8516,0.3357,1.330,-8.925,-2.730,383,1,360,361,395,2025-06-03T10:35:12.200335
781,-0.2528,0.8974,0.3079,0.980,-5.810,-1.785,392,2,360,374,351,2025-06-03T10:35:12.200335
782,-0.2377,0.8984,0.3099,2.275,-6.020,-1.925,384,2,357,381,375,2025-06-03T10:35:12.200335
783,-0.2396,0.8969,0.3196,1.715,-6.825,-1.925,384,1,366,363,379,2025-06-03T10:35:12.200335
784,-0.2430,0.8960,0.3182,1.925,-7.420,-1.890,391,2,344,377,387,2025-06-03T10:35:12.298023
785,-0.2342,0.9008,0.3206,1.330,-7.315,-1.995,387,1,353,386,358,2025-06-03T10:35:12.298023
786,-0.2294,0.9087,0.3128,1.505,-7.595,-2.065,396,1,354,381,368,2025-06-03T10:35:12.298023
787,-0.2216,0.9082,0.3040,1.015,-7.210,-2.065,407,1,353,390,380,2025-06-03T10:35:12.298023
788,-0.2206,0.9062,0.3065,0.910,-6.790,-2.415,374,2,357,382,387,2025-06-03T10:35:12.298023
789,-0.2216,0.8999,0.3182,0.665,-6.790,-2.940,389,2,362,361,378,2025-06-03T10:35:12.298023
790,-0.2206,0.8979,0.3221,0.700,-7.035,-3.465,394,1,338,386,379,2025-06-03T10:35:12.298023
791,-0.2259,0.8979,0.3187,0.245,-7.315,-4.095,397,1,353,396,400,2025-06-03T10:35:12.298023
792,-0.2284,0.8974,0.3109,0.315,-7.980,-4.620,394,2,358,394,401,2025-06-03T10:35:12.356169
793,-0.2333,0.9008,0.3128,-0.175,-8.505,-5.145,396,2,364,356,387,2025-06-03T10:35:12.356169
794,-0.2396,0.9028,0.3182,-0.035,-8.645,-5.460,390,1,365,364,389,2025-06-03T10:35:12.356169
795,-0.2479,0.8994,0.3177,-0.455,-8.855,-5.495,401,2,369,376,405,2025-06-03T10:35:12.356169
796,-0.2425,0.8974,0.3167,-0.420,-9.240,-5.075,403,1,365,375,402,2025-06-03T10:35:12.356169
797,-0.2430,0.8926,0.3162,-0.385,-9.100,-4.655,405,2,367,371,397,2025-06-03T10:35:12.609454
798,-0.2420,0.8950,0.3162,-0.175,-8.400,-4.340,392,2,363,367,398,2025-06-03T10:35:12.609454
799,-0.2460,0.8896,0.3177,0.000,-7.665,-4.025,393,2,361,385,404,2025-06-03T10:35:12.609454
800,-0.2513,0.8896,0.3157,0.210,-7.175,-3.535,395,2,365,390,358,2025-06-03T10:35:12.609454
801,-0.2533,0.8926,0.3167,0.560,-7.210,-3.010,397,1,355,394,343,2025-06-03T10:35:12.979954
802,-0.2538,0.8901,0.3148,0.490,-7.315,-2.485,392,2,355,390,376,2025-06-03T10:35:12.979954
803,-0.2464,0.8960,0.3094,0.385,-7.385,-2.205,370,2,360,393,388,2025-06-03T10:35:12.979954
804,-0.2479,0.8930,0.3094,0.455,-7.385,-1.995,386,1,355,387,376,2025-06-03T10:35:12.979954
805,-0.2523,0.8945,0.3079,0.350,-7.735,-2.065,385,1,360,358,388,2025-06-03T10:35:12.979954
806,-0.2484,0.8955,0.3133,0.385,-7.665,-2.415,370,1,356,352,395,2025-06-03T10:35:12.979954
807,-0.2474,0.8955,0.3099,0.385,-7.490,-2.380,385,1,363,378,365,2025-06-03T10:35:12.979954
808,-0.2469,0.8896,0.3055,0.455,-7.560,-2.310,385,2,359,384,389,2025-06-03T10:35:12.979954
809,-0.2557,0.8930,0.3089,0.490,-7.630,-2.450,395,1,364,397,381,2025-06-03T10:35:12.979954
810,-0.2562,0.8901,0.3148,0.455,-7.280,-2.555,365,1,359,396,385,2025-06-03T10:35:12.979954
811,-0.2513,0.8930,0.3255,0.525,-7.035,-2.520,374,1,353,388,392,2025-06-03T10:35:12.979954
812,-0.2562,0.8960,0.3128,0.385,-6.930,-2.485,359,2,358,397,397,2025-06-03T10:35:12.979954
813,-0.2513,0.8969,0.3143,-0.070,-7.105,-2.380,371,1,357,406,387,2025-06-03T10:35:12.979954
814,-0.2513,0.8969,0.3314,-0.105,-6.825,-2.380,380,1,365,402,389,2025-06-03T10:35:12.979954
815,-0.2469,0.8984,0.3235,-0.140,-6.790,-2.275,383,1,368,395,387,2025-06-03T10:35:12.979954
816,-0.2489,0.8979,0.3099,-0.175,-7.070,-2.485,391,1,370,358,392,2025-06-03T10:35:12.979954
817,-0.2508,0.8999,0.3196,-0.560,-7.420,-2.765,386,1,362,388,391,2025-06-03T10:35:12.979954
818,-0.2557,0.8974,0.3348,-0.315,-7.280,-2.730,393,2,363,374,360,2025-06-03T10:35:12.979954
819,-0.2528,0.8969,0.3206,-0.665,-7.245,-2.905,399,1,364,356,339,2025-06-03T10:35:12.979954
820,-0.2528,0.8984,0.3118,-0.840,-7.630,-2.625,393,2,363,385,368,2025-06-03T10:35:12.979954
821,-0.2542,0.8984,0.3211,-1.190,-7.035,-2.345,370,2,364,359,379,2025-06-03T10:35:12.979954
822,-0.2542,0.9018,0.3260,-1.085,-6.580,-2.065,377,2,367,382,389,2025-06-03T10:35:12.979954
823,-0.2601,0.8989,0.3240,-1.330,-6.650,-1.785,387,2,369,394,396,2025-06-03T10:35:12.979954
824,-0.2650,0.8940,0.3294,-1.295,-7.315,-1.155,360,1,373,397,358,2025-06-03T10:35:12.979954
825,-0.2591,0.8926,0.3338,-1.260,-7.665,-0.735,383,2,372,361,375,2025-06-03T10:35:12.979954
826,-0.2562,0.8930,0.3304,-1.015,-7.735,-0.385,389,1,363,381,378,2025-06-03T10:35:12.979954
827,-0.2577,0.8935,0.3299,-1.085,-7.805,0.070,398,2,365,387,392,2025-06-03T10:35:12.979954
828,-0.2577,0.8950,0.3284,-0.735,-7.980,0.560,377,1,360,362,383,2025-06-03T10:35:12.979954
829,-0.2562,0.8950,0.3289,-0.385,-8.190,0.490,377,3,339,387,387,2025-06-03T10:35:12.979954
830,-0.2318,0.9116,0.3279,-0.350,-6.790,0.980,378,1,352,390,390,2025-06-03T10:35:12.979954
831,-0.2435,0.8896,0.3304,-0.280,-7.455,0.875,384,1,359,394,355,2025-06-03T10:35:13.030196
832,-0.2474,0.8852,0.3318,-0.350,-7.525,1.155,379,2,365,396,376,2025-06-03T10:35:13.030196
833,-0.2533,0.8847,0.3328,-0.105,-7.945,1.225,389,1,362,392,353,2025-06-03T10:35:13.030196
834,-0.2494,0.8877,0.3382,0.140,-8.085,1.330,393,1,340,387,375,2025-06-03T10:35:13.030196
835,-0.2460,0.8877,0.3392,0.385,-8.190,1.470,396,1,351,385,346,2025-06-03T10:35:13.030196
836,-0.2455,0.8882,0.3377,0.525,-8.120,1.680,405,1,350,391,372,2025-06-03T10:35:13.030196
837,-0.2494,0.8833,0.3357,0.665,-8.015,1.680,369,2,354,396,393,2025-06-03T10:35:13.030196
838,-0.2479,0.8823,0.3328,0.770,-8.260,1.750,383,1,358,392,393,2025-06-03T10:35:13.030196
839,-0.2455,0.8813,0.3353,0.910,-8.260,1.645,358,1,336,403,395,2025-06-03T10:35:13.030196
840,-0.2445,0.8823,0.3353,1.120,-7.945,1.400,376,2,352,402,396,2025-06-03T10:35:13.030196
841,-0.2420,0.8808,0.3396,1.120,-7.700,1.155,379,1,355,390,383,2025-06-03T10:35:13.030196
842,-0.2420,0.8818,0.3357,1.225,-8.225,1.190,387,1,356,401,393,2025-06-03T10:35:13.030196
843,-0.2430,0.8852,0.3387,1.295,-8.995,1.260,385,1,364,394,353,2025-06-03T10:35:13.030196
844,-0.2377,0.8877,0.3392,1.540,-9.205,1.155,386,1,358,393,377,2025-06-03T10:35:13.030196
845,-0.2381,0.8857,0.3343,1.575,-8.785,0.910,391,2,357,396,379,2025-06-03T10:35:13.030196
846,-0.2342,0.8838,0.3323,1.680,-8.540,0.595,383,1,337,380,375,2025-06-03T10:35:13.030196
847,-0.2401,0.8852,0.3348,1.715,-8.575,0.385,386,1,339,392,391,2025-06-03T10:35:13.030196
848,-0.2411,0.8833,0.3343,1.925,-9.065,0.035,382,1,346,404,369,2025-06-03T10:35:13.030196
849,-0.2342,0.8852,0.3304,2.135,-9.415,-0.105,384,1,357,400,383,2025-06-03T10:35:13.030196
850,-0.2298,0.8896,0.3260,1.995,-9.555,-0.455,390,1,357,404,389,2025-06-03T10:35:13.030196
851,-0.2255,0.8867,0.3226,2.170,-9.100,-0.665,362,0,340,394,381,2025-06-03T10:35:13.030196
852,-0.2279,0.8877,0.3279,2.205,-8.295,-0.980,382,1,352,353,387,2025-06-03T10:35:13.030196
853,-0.2289,0.8867,0.3314,2.275,-7.770,-1.260,379,2,350,381,400,2025-06-03T10:35:13.123465
854,-0.2367,0.8882,0.3318,2.275,-7.595,-1.120,387,1,359,381,385,2025-06-03T10:35:13.123465
855,-0.2450,0.8872,0.3250,2.135,-8.155,-1.330,383,2,361,395,391,2025-06-03T10:35:13.123465
856,-0.2484,0.8877,0.3265,2.170,-9.345,-1.155,390,1,366,390,399,2025-06-03T10:35:13.123465
857,-0.2420,0.8911,0.3240,2.135,-9.730,-0.805,390,2,362,401,392,2025-06-03T10:35:13.123465
858,-0.2406,0.8857,0.3187,2.205,-9.380,-0.595,363,1,361,398,399,2025-06-03T10:35:13.123465
859,-0.2347,0.8852,0.3260,2.205,-8.715,-0.490,371,1,364,405,402,2025-06-03T10:35:13.123465
860,-0.2386,0.8872,0.3289,2.450,-7.595,-0.420,387,2,359,392,353,2025-06-03T10:35:13.123465
861,-0.2460,0.8911,0.3318,2.765,-7.105,-0.385,398,2,353,376,332,2025-06-03T10:35:13.123465
862,-0.2460,0.8921,0.3240,2.835,-7.945,-0.245,396,2,357,374,364,2025-06-03T10:35:13.162855
863,-0.2489,0.8935,0.3274,2.905,-8.750,-0.350,372,1,363,395,377,2025-06-03T10:35:13.162855
864,-0.2391,0.8935,0.3367,2.940,-8.855,-0.350,378,2,367,399,391,2025-06-03T10:35:13.162855
865,-0.2377,0.8921,0.3279,2.975,-8.960,-0.455,386,2,366,361,386,2025-06-03T10:35:13.162855
866,-0.2386,0.8886,0.3245,2.765,-8.925,-0.665,395,1,367,375,388,2025-06-03T10:35:13.431020
867,-0.2411,0.8921,0.3235,2.695,-8.925,-0.840,391,1,362,377,376,2025-06-03T10:35:13.431020
868,-0.2420,0.8901,0.3187,2.485,-9.170,-0.910,336,2,367,389,390,2025-06-03T10:35:13.431020
869,-0.2420,0.8921,0.3201,2.485,-9.240,-1.085,340,1,363,400,405,2025-06-03T10:35:13.431020
870,-0.2401,0.8965,0.3289,2.485,-9.065,-1.155,363,1,342,404,394,2025-06-03T10:35:13.431020
871,-0.2352,0.8930,0.3304,2.590,-8.820,-1.120,352,1,356,412,401,2025-06-03T10:35:13.431020
872,-0.2386,0.8955,0.3167,2.485,-9.065,-1.365,370,2,359,407,385,2025-06-03T10:35:13.431020
873,-0.2377,0.8940,0.3113,2.380,-9.485,-1.435,382,1,355,387,398,2025-06-03T10:35:13.431020
874,-0.2386,0.8926,0.3177,2.135,-9.345,-1.645,397,1,337,398,382,2025-06-03T10:35:13.431020
875,-0.2313,0.8950,0.3221,2.065,-9.065,-1.610,400,1,348,402,391,2025-06-03T10:35:13.431020
876,-0.2362,0.8940,0.3138,1.855,-8.540,-1.645,402,1,355,358,392,2025-06-03T10:35:13.431020
877,-0.2445,0.8969,0.3143,1.575,-8.575,-1.540,406,1,350,386,406,2025-06-03T10:35:13.431020
878,-0.2411,0.8945,0.3182,1.680,-8.645,-1.505,407,1,351,395,409,2025-06-03T10:35:13.431020
879,-0.2367,0.8930,0.3294,1.610,-8.400,-1.295,411,1,353,385,392,2025-06-03T10:35:13.431020
880,-0.2391,0.8965,0.3265,1.680,-8.120,-1.260,401,1,350,401,396,2025-06-03T10:35:13.431020
881,-0.2435,0.8955,0.3148,1.540,-8.365,-1.400,381,1,357,407,392,2025-06-03T10:35:13.431020
882,-0.2406,0.9028,0.3157,1.085,-8.610,-1.365,386,1,355,396,399,2025-06-03T10:35:13.431020
883,-0.2489,0.9043,0.3255,0.875,-8.225,-1.120,394,2,362,400,390,2025-06-03T10:35:13.431020
884,-0.2401,0.9004,0.3255,0.525,-8.015,-1.015,368,1,359,387,397,2025-06-03T10:35:13.431020
885,-0.2386,0.8979,0.3250,0.420,-8.155,-0.945,384,2,339,379,388,2025-06-03T10:35:13.431020
886,-0.2386,0.8969,0.3231,0.245,-8.330,-0.840,382,2,344,382,401,2025-06-03T10:35:13.431020
887,-0.2357,0.8960,0.3250,0.070,-8.330,-0.770,395,1,348,392,397,2025-06-03T10:35:13.431020
888,-0.2425,0.8969,0.3270,-0.070,-8.365,-0.945,393,1,330,395,389,2025-06-03T10:35:13.477682
889,-0.2416,0.8960,0.3260,-0.140,-8.750,-0.910,395,1,335,402,388,2025-06-03T10:35:13.477682
890,-0.2425,0.8960,0.3265,-0.070,-9.135,-0.875,404,2,344,398,396,2025-06-03T10:35:13.477682
891,-0.2425,0.8930,0.3294,0.245,-9.590,-0.875,377,1,343,402,324,2025-06-03T10:35:13.526976
892,-0.2430,0.8950,0.3260,0.525,-9.590,-0.700,352,2,348,382,355,2025-06-03T10:35:13.526976
893,-0.2435,0.8950,0.3255,0.595,-9.240,-0.735,378,1,353,396,362,2025-06-03T10:35:13.526976
894,-0.2357,0.8950,0.3274,0.840,-8.890,-0.665,391,1,359,382,386,2025-06-03T10:35:13.526976
895,-0.2372,0.8950,0.3265,0.910,-8.085,-0.560,399,2,364,367,378,2025-06-03T10:35:13.735517
896,-0.2396,0.8960,0.3304,0.840,-8.050,-0.560,408,1,364,390,393,2025-06-03T10:35:13.735517
897,-0.2386,0.8935,0.3309,0.980,-8.610,-0.210,408,2,368,391,389,2025-06-03T10:35:13.735517
898,-0.2406,0.8930,0.3294,0.910,-9.240,-0.105,405,2,365,394,402,2025-06-03T10:35:13.735517
899,-0.2367,0.8921,0.3314,0.910,-9.590,-0.070,396,2,361,392,364,2025-06-03T10:35:13.735517
900,-0.2347,0.8935,0.3314,0.875,-9.730,-0.210,371,2,364,348,380,2025-06-03T10:35:13.735517
901,-0.2167,0.9043,0.3294,1.190,-9.275,-0.315,387,1,364,373,395,2025-06-03T10:35:13.735517
902,-0.2352,0.8872,0.3206,0.910,-10.080,-0.350,384,1,370,393,396,2025-06-03T10:35:13.735517
903,-0.2386,0.8852,0.3221,1.050,-10.290,-0.280,386,1,360,347,387,2025-06-03T10:35:13.735517
904,-0.2362,0.8857,0.3226,1.225,-10.465,-0.385,387,2,363,364,401,2025-06-03T10:35:13.735517
905,-0.2372,0.8852,0.3187,1.575,-9.730,-0.490,389,2,360,379,396,2025-06-03T10:35:13.735517
906,-0.2396,0.8847,0.3231,1.610,-9.065,-0.630,386,2,358,391,398,2025-06-03T10:35:13.735517
907,-0.2435,0.8833,0.3221,1.855,-9.100,-0.595,383,2,360,365,397,2025-06-03T10:35:13.735517
908,-0.2455,0.8808,0.3192,2.030,-9.205,-0.350,379,2,361,382,374,2025-06-03T10:35:13.735517
909,-0.2411,0.8818,0.3235,2.345,-9.730,-0.385,390,1,365,386,392,2025-06-03T10:35:13.735517
910,-0.2391,0.8857,0.3265,2.695,-9.520,-0.280,397,2,364,392,401,2025-06-03T10:35:13.735517
911,-0.2333,0.8872,0.3196,3.150,-9.030,-0.455,398,2,367,398,398,2025-06-03T10:35:13.735517
912,-0.2338,0.8882,0.3172,3.360,-8.855,-0.560,390,2,338,364,397,2025-06-03T10:35:13.735517
913,-0.2318,0.8882,0.3172,3.535,-8.645,-0.665,385,2,343,372,399,2025-06-03T10:35:13.837874
914,-0.2303,0.8872,0.3226,3.570,-8.155,-0.700,381,2,322,347,390,2025-06-03T10:35:13.837874
915,-0.2318,0.8916,0.3221,3.535,-7.945,-0.805,381,2,334,387,388,2025-06-03T10:35:13.837874
916,-0.2318,0.8945,0.3245,3.430,-8.260,-0.805,384,2,343,390,387,2025-06-03T10:35:13.837874
917,-0.2362,0.8960,0.3240,3.395,-8.505,-0.840,379,2,353,377,392,2025-06-03T10:35:13.837874
918,-0.2284,0.8935,0.3182,3.010,-8.400,-0.980,330,1,354,398,407,2025-06-03T10:35:13.837874
919,-0.2269,0.8945,0.3177,2.520,-8.190,-1.260,363,1,355,400,357,2025-06-03T10:35:13.837874
920,-0.2284,0.8979,0.3187,2.100,-7.840,-1.715,367,1,351,397,366,2025-06-03T10:35:13.837874
921,-0.2347,0.8974,0.3206,1.820,-7.560,-1.960,387,2,361,401,370,2025-06-03T10:35:13.886072
922,-0.2377,0.8969,0.3245,1.750,-7.735,-2.065,367,1,363,410,382,2025-06-03T10:35:13.886072
923,-0.2386,0.8960,0.3226,1.645,-8.085,-1.960,378,2,368,372,389,2025-06-03T10:35:13.886072
924,-0.2333,0.8935,0.3231,1.540,-8.260,-1.715,380,2,368,382,353,2025-06-03T10:35:13.886072
925,-0.2328,0.8940,0.3279,1.610,-7.945,-1.610,389,1,362,344,366,2025-06-03T10:35:13.886072
