SeqNum,AccX,AccY,AccZ,GyroX,GyroY,GyroZ,Flex,Force1,Force2,Force3,Force4,TimestampReception
1226,-0.4865,0.0215,0.9038,-0.035,-3.675,-0.070,6.00,0.01,0.01,0.00,0.00,2025-06-06T10:47:46.420430
1227,-0.3558,0.7588,0.4656,-39.725,-58.625,-32.410,2.00,0.00,0.05,0.04,0.00,2025-06-06T10:47:46.420430
1228,-0.2904,0.8228,0.5368,-52.395,-56.140,-33.005,1.00,0.00,0.03,0.06,0.00,2025-06-06T10:47:46.420430
1229,-0.4377,0.7271,0.5602,-63.315,-49.770,-35.665,4.00,0.00,0.03,0.07,0.01,2025-06-06T10:47:46.420430
1230,-0.5305,0.6612,0.7291,-73.885,-49.175,-41.965,0.00,0.00,0.01,0.07,0.01,2025-06-06T10:47:46.420430
1231,-0.6120,0.5949,0.7857,-74.480,-44.800,-49.420,2.00,0.00,0.03,0.06,0.01,2025-06-06T10:47:46.420430
1232,-0.6383,0.6105,0.9126,-71.330,-59.290,-60.060,1.00,0.01,0.02,0.06,0.01,2025-06-06T10:47:46.420430
1233,-0.6773,0.6793,0.9950,-77.770,-63.455,-69.825,0.00,0.00,0.03,0.07,0.01,2025-06-06T10:47:46.420430
1234,-0.6364,0.6754,0.8140,-68.530,-80.885,-73.500,2.00,0.00,0.02,0.07,0.00,2025-06-06T10:47:46.420430
1235,-0.4089,0.6207,0.6739,-51.590,-94.325,-61.460,1.00,0.01,0.02,0.08,0.00,2025-06-06T10:47:46.420430
1236,-0.4158,0.6490,0.7481,-7.490,-91.175,-47.390,2.00,0.01,0.02,0.09,0.01,2025-06-06T10:47:46.420430
1237,-0.4787,0.5866,0.7056,-32.095,-127.085,-49.210,1.00,0.01,0.02,0.08,0.00,2025-06-06T10:47:46.420430
1238,-0.3743,0.4651,0.6949,-44.030,-135.170,-48.475,1.00,0.01,0.03,0.10,0.00,2025-06-06T10:47:46.420430
1239,-0.3123,0.3099,0.6451,-45.045,-110.425,-44.765,6.00,0.00,0.04,0.10,0.01,2025-06-06T10:47:46.582455
1240,-0.1640,0.2918,0.5222,-23.345,-111.055,-45.640,0.00,0.00,0.03,0.11,0.00,2025-06-06T10:47:46.582455
1241,-0.2679,0.1976,0.5324,22.785,-78.225,-40.565,0.00,0.01,0.03,0.12,0.01,2025-06-06T10:47:46.582455
1242,-0.1303,0.3021,0.4939,-8.050,-55.440,-38.605,1.00,0.00,0.03,0.12,0.00,2025-06-06T10:47:46.582455
1243,-0.0439,0.3518,0.4895,-55.440,-16.940,-32.795,4.00,0.01,0.03,0.16,0.00,2025-06-06T10:47:46.582455
1244,-0.1601,0.2625,0.4758,-145.460,16.590,-27.160,2.00,0.01,0.03,0.17,0.01,2025-06-06T10:47:46.582455
1245,-0.2679,0.2211,0.6481,-64.750,18.655,-21.630,0.00,0.00,0.02,0.19,0.00,2025-06-06T10:47:46.582455
1246,-0.4075,0.2274,0.7623,-5.810,16.380,-21.385,4.00,0.00,0.03,0.19,0.00,2025-06-06T10:47:46.582455
1247,-0.3489,0.3274,0.8691,9.030,7.105,-22.680,6.00,0.01,0.02,0.22,0.01,2025-06-06T10:47:46.582455
1248,-0.3035,0.3948,0.8779,-13.965,14.700,-17.255,4.00,0.00,0.01,0.23,0.01,2025-06-06T10:47:46.582455
1249,-0.3597,0.4128,0.8462,6.825,36.120,-13.685,7.00,0.00,0.02,0.24,0.00,2025-06-06T10:47:46.582455
1250,-0.4207,0.4016,0.9711,25.480,45.150,-12.600,6.00,0.01,0.03,0.25,0.00,2025-06-06T10:47:46.582455
1251,-0.7227,1.2137,2.1135,15.400,-32.480,8.680,0.00,0.00,0.02,0.25,0.01,2025-06-06T10:47:46.582455
1252,-0.8013,0.6939,1.4201,-101.640,1.925,-8.995,0.00,0.00,0.03,0.26,0.01,2025-06-06T10:47:46.762796
1253,-0.9511,-0.0254,0.7925,-81.060,-0.910,-16.765,0.00,0.00,0.03,0.28,0.00,2025-06-06T10:47:46.762796
1254,-0.7193,0.2391,1.0189,-5.285,-62.510,-23.450,0.00,0.00,0.04,0.28,0.00,2025-06-06T10:47:46.762796
1255,-0.5290,0.3406,1.0121,39.690,-86.240,-26.110,6.00,0.00,0.03,0.31,0.00,2025-06-06T10:47:46.762796
1256,-0.1898,0.4568,0.7857,8.015,-90.090,-16.765,2.00,0.00,0.02,0.32,0.00,2025-06-06T10:47:46.762796
1257,-0.2362,0.4729,0.7340,-44.870,-60.480,-6.020,0.00,0.00,0.03,0.33,0.00,2025-06-06T10:47:46.762796
1258,-0.0800,0.3880,0.5675,-56.875,-72.415,-1.855,1.00,0.00,0.03,0.33,0.00,2025-06-06T10:47:46.762796
1259,-0.1474,0.3836,0.7071,-51.415,-39.550,3.850,0.00,0.00,0.03,0.33,0.00,2025-06-06T10:47:46.762796
1260,-0.2957,0.3548,1.1468,-72.275,-16.520,-6.265,0.00,0.01,0.03,0.34,0.00,2025-06-06T10:47:46.762796
1261,-0.4304,0.3899,1.0834,-79.240,27.335,-16.905,0.00,0.01,0.03,0.34,0.00,2025-06-06T10:47:46.762796
1262,-0.4177,0.3006,0.8379,-67.970,35.665,-25.550,1.00,0.00,0.03,0.34,0.00,2025-06-06T10:47:46.762796
1263,-0.2718,0.3806,0.9604,-63.455,34.895,-21.805,6.00,0.01,0.03,0.35,0.00,2025-06-06T10:47:46.762796
1264,-0.3865,0.3567,0.9301,-61.740,23.100,-17.430,0.00,0.00,0.02,0.37,0.00,2025-06-06T10:47:46.762796
1265,-0.3733,0.6242,0.8716,-45.360,17.150,-12.635,0.00,0.00,0.03,0.37,0.01,2025-06-06T10:47:46.762796
1266,-0.5998,-0.0351,0.9994,-24.465,-16.100,10.920,0.00,0.00,0.02,0.38,0.00,2025-06-06T10:47:46.880643
1267,-0.4577,0.2372,1.0131,24.535,-3.255,8.295,2.00,0.01,0.03,0.39,0.00,2025-06-06T10:47:46.880643
1268,-0.2069,0.0400,0.9409,29.435,-21.140,0.455,0.00,0.01,0.02,0.39,0.00,2025-06-06T10:47:46.880643
1269,-0.3626,0.3836,0.8189,9.170,-10.815,0.840,0.00,0.01,0.02,0.41,0.00,2025-06-06T10:47:46.880643
1270,-0.4348,0.1537,0.8750,10.500,-28.805,-12.845,3.00,0.00,0.04,0.41,0.00,2025-06-06T10:47:46.880643
1271,-0.3362,0.3489,0.9145,10.570,-12.880,-19.040,2.00,0.00,0.03,0.43,0.00,2025-06-06T10:47:46.880643
1272,-0.3250,0.3094,0.9443,-13.055,-14.770,-24.395,0.00,0.00,0.02,0.42,0.00,2025-06-06T10:47:46.880643
1273,-0.4319,0.3060,0.9628,-5.530,-7.280,-29.890,2.00,0.00,0.04,0.42,0.00,2025-06-06T10:47:46.880643
1274,-0.4211,0.2162,0.9140,2.030,-12.985,-33.495,5.00,0.00,0.04,0.45,0.00,2025-06-06T10:47:46.880643
1275,-0.3987,0.1708,0.9028,-4.025,-9.415,-33.740,13.00,0.00,0.03,0.46,0.00,2025-06-06T10:47:46.981211
1276,-0.1874,0.4753,0.8150,-3.640,-13.055,-23.520,3.00,0.01,0.04,0.50,0.01,2025-06-06T10:47:46.981211
1277,-0.2455,0.3206,0.8769,-10.675,-4.025,-2.450,3.00,0.01,0.03,0.48,0.00,2025-06-06T10:47:46.981211
1278,-0.6051,0.2821,1.0019,0.560,-17.955,-2.135,1.00,0.01,0.04,0.50,0.01,2025-06-06T10:47:46.981211
1279,-0.4592,0.1625,0.9589,19.635,-21.140,-10.955,2.00,0.00,0.02,0.49,0.00,2025-06-06T10:47:46.981211
1280,-0.3460,0.2655,0.9545,13.685,-24.220,-12.705,0.00,0.01,0.03,0.49,0.00,2025-06-06T10:47:46.981211
1281,-0.3475,0.1864,1.0028,3.710,-26.565,-16.170,0.00,0.01,0.03,0.48,0.00,2025-06-06T10:47:46.981211
1282,-0.4168,0.2450,0.8852,4.410,-20.265,-17.780,1.00,0.00,0.03,0.49,0.00,2025-06-06T10:47:46.981211
1283,-0.3748,0.2962,0.8911,-2.170,-18.060,-16.835,7.00,0.01,0.03,0.48,0.01,2025-06-06T10:47:47.129878
1284,-0.2933,0.3045,0.8603,-7.140,-12.880,-6.545,2.00,0.00,0.04,0.49,0.01,2025-06-06T10:47:47.129878
1285,-0.3967,0.2621,0.9994,-5.005,-9.695,-2.380,3.00,0.00,0.04,0.48,0.00,2025-06-06T10:47:47.129878
1286,-0.4236,0.2874,0.9487,3.605,-9.415,-3.675,0.00,0.01,0.03,0.46,0.00,2025-06-06T10:47:47.129878
1287,-0.4168,0.2577,0.8867,2.450,-10.360,-4.375,2.00,0.00,0.03,0.44,0.00,2025-06-06T10:47:47.129878
1288,-0.4128,0.2689,0.9453,-4.585,1.820,-10.325,1.00,0.00,0.03,0.45,0.00,2025-06-06T10:47:47.129878
1289,-0.3860,0.2635,0.9550,-8.610,14.735,-13.160,0.00,0.00,0.03,0.43,0.01,2025-06-06T10:47:47.129878
1290,-0.4729,0.2464,0.9872,-3.115,18.830,-16.555,2.00,0.00,0.03,0.44,0.00,2025-06-06T10:47:47.304549
1291,-0.5466,0.2542,1.0121,6.615,36.365,-21.455,4.00,0.01,0.03,0.46,0.00,2025-06-06T10:47:47.304549
1292,-0.3782,0.3216,0.9897,12.845,33.425,-20.580,1.00,0.01,0.04,0.44,0.01,2025-06-06T10:47:47.304549
1293,-0.1649,0.3528,1.1736,8.890,24.500,-6.090,0.00,0.00,0.03,0.43,0.00,2025-06-06T10:47:47.304549
1294,-0.2694,0.2167,0.9404,-10.535,20.580,3.045,2.00,0.00,0.04,0.45,0.00,2025-06-06T10:47:47.304549
1295,-0.4192,0.2801,0.8750,-5.250,31.500,6.160,2.00,0.00,0.03,0.43,0.01,2025-06-06T10:47:47.304549
1296,-0.3270,0.2928,0.9638,5.530,49.315,12.460,1.00,0.00,0.04,0.45,0.00,2025-06-06T10:47:47.304549
1297,-0.0327,0.4699,0.7847,-4.095,83.755,35.420,2.00,0.01,0.04,0.46,0.00,2025-06-06T10:47:47.304549
1298,-0.4231,0.3133,0.8569,-16.765,67.900,46.865,0.00,0.00,0.03,0.45,0.00,2025-06-06T10:47:47.304549
1299,-0.2259,0.0527,0.8067,-13.300,54.775,74.025,2.00,0.00,0.04,0.45,0.00,2025-06-06T10:47:47.304549
1300,-0.3143,0.0415,1.0785,15.925,30.800,89.180,2.00,0.00,0.05,0.43,0.01,2025-06-06T10:47:47.304549
1301,-0.5324,0.1879,1.0248,36.680,31.290,89.215,2.00,0.00,0.05,0.44,0.00,2025-06-06T10:47:47.304549
1302,-0.4748,0.2220,0.9384,24.220,45.955,82.460,2.00,0.00,0.05,0.42,0.00,2025-06-06T10:47:47.304549
1303,-0.5558,0.1850,0.9331,35.805,66.045,76.160,1.00,0.01,0.07,0.41,0.00,2025-06-06T10:47:47.304549
1304,-0.5583,0.1659,0.9848,38.010,70.910,68.740,1.00,0.01,0.08,0.41,0.00,2025-06-06T10:47:47.304549
1305,-0.5549,0.2386,1.0131,54.355,54.285,59.885,1.00,0.01,0.09,0.37,0.01,2025-06-06T10:47:47.304549
1306,-0.7305,0.3167,1.0219,58.380,44.485,60.235,1.00,0.01,0.10,0.32,0.01,2025-06-06T10:47:47.304549
1307,-0.5534,0.1166,0.9008,66.360,26.565,54.075,3.00,0.00,0.10,0.31,0.00,2025-06-06T10:47:47.580077
1308,-0.6051,0.4446,1.0185,84.805,19.495,51.555,1.00,0.00,0.11,0.28,0.00,2025-06-06T10:47:47.580077
1309,-0.5295,0.3704,0.8242,72.380,14.280,61.565,3.00,0.00,0.13,0.24,0.00,2025-06-06T10:47:47.580077
1310,-0.3040,0.3333,0.7554,85.330,26.915,69.160,0.00,0.01,0.12,0.23,0.00,2025-06-06T10:47:47.580077
1311,-0.4036,0.3987,0.7671,89.285,33.985,73.640,1.00,0.00,0.14,0.20,0.00,2025-06-06T10:47:47.580077
1312,-0.3758,0.4656,0.5919,95.830,43.610,76.440,2.00,0.00,0.15,0.21,0.00,2025-06-06T10:47:47.580077
1313,-0.4734,0.5348,0.5793,91.070,59.990,75.215,0.00,0.00,0.15,0.19,0.01,2025-06-06T10:47:47.580077
1314,-0.4172,0.5529,0.5602,88.340,70.980,78.050,2.00,0.00,0.16,0.19,0.01,2025-06-06T10:47:47.580077
1315,-0.4119,0.5690,0.5734,98.805,84.420,80.185,0.00,0.01,0.16,0.16,0.00,2025-06-06T10:47:47.580077
1316,-0.5788,0.6105,0.6378,97.475,94.115,79.835,2.00,0.00,0.16,0.15,0.00,2025-06-06T10:47:47.580077
1317,-0.5861,0.6198,0.6359,94.150,91.665,78.855,0.00,0.00,0.18,0.15,0.00,2025-06-06T10:47:47.580077
1318,-0.6564,0.6949,0.6754,93.065,78.190,76.265,2.00,0.00,0.19,0.15,0.00,2025-06-06T10:47:47.580077
1319,-0.5788,0.7017,0.6022,87.675,62.230,73.255,2.00,0.00,0.20,0.13,0.00,2025-06-06T10:47:47.580077
1320,-0.5041,0.6612,0.5246,80.675,56.245,69.755,2.00,0.00,0.20,0.14,0.01,2025-06-06T10:47:47.580077
1321,-0.4909,0.7403,0.4426,74.620,60.620,64.295,2.00,0.00,0.21,0.13,0.01,2025-06-06T10:47:47.580077
1322,-0.4597,0.7989,0.4314,73.535,65.730,59.255,3.00,0.01,0.22,0.14,0.00,2025-06-06T10:47:47.580077
1323,-0.5280,0.8350,0.5480,72.485,73.605,54.425,1.00,0.00,0.22,0.13,0.00,2025-06-06T10:47:47.580077
1324,-0.4773,0.7735,0.5246,64.120,75.705,50.645,2.00,0.00,0.24,0.11,0.00,2025-06-06T10:47:47.580077
1325,-0.6159,0.7432,0.7335,55.300,63.455,44.835,0.00,0.00,0.24,0.11,0.00,2025-06-06T10:47:47.580077
1326,-0.5622,0.8701,0.6661,50.330,40.600,43.330,1.00,0.01,0.25,0.10,0.00,2025-06-06T10:47:47.703273
1327,-0.4080,0.8965,0.6134,35.560,9.170,46.340,2.00,0.00,0.25,0.09,0.00,2025-06-06T10:47:47.703273
1328,-0.3928,0.7725,0.3314,20.405,-4.270,50.575,1.00,0.00,0.25,0.07,0.00,2025-06-06T10:47:47.703273
1329,-0.4753,0.6373,0.3601,28.665,0.315,43.540,1.00,0.00,0.24,0.06,0.01,2025-06-06T10:47:47.703273
1330,-0.3518,0.7203,0.4382,37.450,0.210,37.205,2.00,0.01,0.24,0.06,0.00,2025-06-06T10:47:47.703273
1331,-0.3518,0.7276,0.3616,38.815,2.870,31.920,1.00,0.01,0.24,0.04,0.00,2025-06-06T10:47:47.703273
1332,-0.4153,0.7437,0.4177,36.680,8.855,27.930,1.00,0.00,0.24,0.03,0.00,2025-06-06T10:47:47.703273
1333,-0.4070,0.7676,0.4621,32.760,2.030,25.515,2.00,0.01,0.25,0.04,0.00,2025-06-06T10:47:47.703273
1334,-0.3406,0.7276,0.3802,35.735,-8.855,24.780,0.00,0.01,0.24,0.04,0.01,2025-06-06T10:47:47.703273
1335,-0.2977,0.6910,0.3270,37.765,-13.545,26.075,4.00,0.00,0.24,0.02,0.00,2025-06-06T10:47:47.703273
1336,-0.5280,0.5739,0.2747,58.170,-23.555,22.715,2.00,0.01,0.24,0.02,0.01,2025-06-06T10:47:47.703273
1337,-0.2894,0.7135,0.2894,46.970,-16.415,9.065,2.00,0.00,0.23,0.02,0.00,2025-06-06T10:47:47.768595
1338,-0.3392,0.8965,0.3074,43.330,0.700,10.920,0.00,0.00,0.20,0.01,0.00,2025-06-06T10:47:47.768595
1339,-0.3645,0.7798,0.2142,13.685,21.910,5.950,1.00,0.00,0.22,0.03,0.00,2025-06-06T10:47:47.768595
1340,-0.3387,0.7979,0.1718,9.030,29.750,4.340,0.00,0.01,0.21,0.01,0.01,2025-06-06T10:47:47.768595
1341,-0.3279,0.7715,0.1859,15.330,38.885,9.940,1.00,0.00,0.20,0.01,0.00,2025-06-06T10:47:47.936213
1342,-0.2884,0.7828,0.2216,12.285,48.825,15.715,1.00,0.01,0.19,0.01,0.00,2025-06-06T10:47:47.936213
1343,-0.2601,0.8594,0.2059,9.940,53.060,25.200,0.00,0.00,0.18,0.01,0.00,2025-06-06T10:47:47.936213
1344,-0.2845,0.8896,0.2211,10.325,53.025,34.335,3.00,0.00,0.17,0.01,0.01,2025-06-06T10:47:47.936213
1345,-0.3694,0.9057,0.1923,12.880,56.035,36.855,3.00,0.01,0.16,0.02,0.01,2025-06-06T10:47:47.936213
1346,-0.3758,0.9199,0.2157,21.875,64.470,36.155,1.00,0.01,0.16,0.02,0.00,2025-06-06T10:47:47.936213
1347,-0.3743,0.9082,0.2528,20.720,50.190,32.480,0.00,0.01,0.15,0.01,0.01,2025-06-06T10:47:47.936213
1348,-0.3689,0.8169,0.1688,17.955,47.285,30.275,2.00,0.00,0.15,0.00,0.01,2025-06-06T10:47:47.936213
1349,-0.6749,0.8847,0.3079,31.045,46.865,18.585,0.00,0.01,0.15,0.00,0.00,2025-06-06T10:47:47.936213
1350,-0.4475,0.8857,0.3138,39.935,31.885,15.295,2.00,0.00,0.15,0.01,0.00,2025-06-06T10:47:47.936213
1351,-0.4104,0.8760,0.4094,45.255,21.245,9.065,1.00,0.01,0.14,0.01,0.00,2025-06-06T10:47:47.936213
1352,-0.4294,0.9916,0.4163,38.815,23.520,11.760,0.00,0.00,0.15,0.01,0.00,2025-06-06T10:47:47.936213
1353,-0.1430,0.9892,0.3060,32.340,19.425,16.275,0.00,0.00,0.15,0.01,0.00,2025-06-06T10:47:47.936213
1354,-0.2367,0.9965,0.2635,26.355,22.680,23.625,3.00,0.00,0.15,0.01,0.00,2025-06-06T10:47:48.020395
1355,-0.3333,0.9335,0.3231,22.925,21.875,28.665,0.00,0.00,0.16,0.01,0.00,2025-06-06T10:47:48.020395
1356,-0.3933,0.9414,0.2855,25.550,0.035,28.945,3.00,0.00,0.16,0.01,0.01,2025-06-06T10:47:48.020395
1357,-0.4094,0.9018,0.2098,24.605,6.580,30.065,5.00,0.01,0.17,0.01,0.00,2025-06-06T10:47:48.020395
1358,-0.4416,0.9189,0.2416,18.515,4.305,28.000,0.00,0.00,0.17,0.01,0.00,2025-06-06T10:47:48.020395
1359,-0.4407,0.9428,0.2020,25.515,0.595,21.875,0.00,0.00,0.18,0.02,0.00,2025-06-06T10:47:48.020395
1360,-0.2996,0.9414,0.1957,28.560,3.325,22.645,4.00,0.00,0.19,0.01,0.00,2025-06-06T10:47:48.020395
1361,-0.3611,0.8930,0.1947,20.125,8.575,24.115,0.00,0.00,0.21,0.00,0.00,2025-06-06T10:47:48.068334
1362,-0.3914,0.8706,0.2035,26.180,6.265,22.330,2.00,0.01,0.23,0.01,0.00,2025-06-06T10:47:48.068334
1363,-0.3455,0.8833,0.1776,31.885,5.495,21.525,1.00,0.00,0.25,0.01,0.00,2025-06-06T10:47:48.068334
1364,-0.3640,0.8603,0.1430,29.820,8.155,19.810,1.00,0.01,0.25,0.01,0.00,2025-06-06T10:47:48.122210
1365,-0.3831,0.8657,0.1488,33.005,4.340,14.840,2.00,0.00,0.25,0.01,0.00,2025-06-06T10:47:48.122210
1366,-0.3880,0.8218,0.1654,42.280,2.065,8.575,7.00,0.00,0.25,0.01,0.00,2025-06-06T10:47:48.122210
1367,-0.4036,0.8150,0.2216,44.170,-8.050,1.575,0.00,0.01,0.24,0.01,0.00,2025-06-06T10:47:48.122210
1368,-0.4343,1.0175,0.5544,23.940,7.665,-9.520,0.00,0.00,0.23,0.01,0.01,2025-06-06T10:47:48.320477
1369,-0.2865,0.8169,-0.0659,24.185,-18.550,-15.015,0.00,0.01,0.24,0.01,0.00,2025-06-06T10:47:48.320477
1370,-0.1205,0.8745,0.0122,56.140,-4.200,-7.455,0.00,0.00,0.24,0.02,0.00,2025-06-06T10:47:48.320477
1371,-0.2586,0.9955,0.2220,37.485,-4.060,-0.595,3.00,0.01,0.24,0.01,0.00,2025-06-06T10:47:48.320477
1372,-0.2450,0.9555,0.1157,15.750,4.235,8.540,5.00,0.01,0.24,0.01,0.01,2025-06-06T10:47:48.320477
1373,-0.2225,0.8442,0.0303,23.905,14.805,14.770,6.00,0.00,0.25,0.00,0.00,2025-06-06T10:47:48.320477
1374,-0.2259,0.9726,0.1391,24.570,13.895,21.875,0.00,0.00,0.25,0.01,0.00,2025-06-06T10:47:48.320477
1375,-0.2640,0.9662,0.0673,10.010,23.100,29.960,0.00,0.00,0.26,0.01,0.00,2025-06-06T10:47:48.320477
1376,-0.2713,0.9326,0.0649,5.880,29.435,33.565,1.00,0.00,0.28,0.02,0.01,2025-06-06T10:47:48.320477
1377,-0.2835,0.9628,0.0595,19.180,26.915,37.380,0.00,0.00,0.29,0.01,0.00,2025-06-06T10:47:48.320477
1378,-0.2899,0.9945,0.0761,8.400,21.735,38.885,0.00,0.00,0.31,0.02,0.00,2025-06-06T10:47:48.320477
1379,-0.3382,0.9350,-0.0010,1.960,24.045,38.955,3.00,0.00,0.31,0.01,0.00,2025-06-06T10:47:48.320477
1380,-0.3714,0.9184,0.0732,9.625,23.660,35.840,2.00,0.00,0.33,0.01,0.01,2025-06-06T10:47:48.320477
1381,-0.3250,0.9374,0.0874,16.870,12.705,35.245,0.00,0.00,0.34,0.02,0.00,2025-06-06T10:47:48.320477
1382,-0.2840,0.9643,0.0556,20.335,5.775,34.475,3.00,0.01,0.35,0.02,0.01,2025-06-06T10:47:48.320477
1383,-0.2645,0.9658,0.0659,19.740,9.065,33.810,1.00,0.00,0.35,0.01,0.00,2025-06-06T10:47:48.417977
1384,-0.2830,0.9682,0.0703,16.485,13.860,32.480,3.00,0.00,0.36,0.00,0.00,2025-06-06T10:47:48.417977
1385,-0.2606,0.9745,0.0586,13.370,16.660,30.485,4.00,0.00,0.36,0.00,0.01,2025-06-06T10:47:48.417977
1386,-0.2342,0.9721,0.0527,12.495,15.820,29.505,1.00,0.00,0.36,0.01,0.00,2025-06-06T10:47:48.417977
1387,-0.2874,0.9277,0.1635,14.210,11.690,27.265,6.00,0.00,0.37,0.00,0.00,2025-06-06T10:47:48.417977
1388,-0.2464,0.9389,0.0542,5.530,-0.070,26.635,0.00,0.00,0.37,0.01,0.00,2025-06-06T10:47:48.418465
1389,-0.2416,0.9755,0.0259,6.020,-5.845,25.935,3.00,0.00,0.37,0.01,0.01,2025-06-06T10:47:48.418465
1390,-0.2157,0.9965,0.1791,1.120,-10.780,21.945,4.00,0.00,0.36,0.02,0.00,2025-06-06T10:47:48.418465
1391,-0.2464,0.9536,-0.0015,3.675,-12.670,17.185,2.00,0.01,0.36,0.00,0.00,2025-06-06T10:47:48.521241
1392,-0.1991,0.9658,-0.0830,2.100,-9.800,11.410,2.00,0.01,0.36,0.00,0.00,2025-06-06T10:47:48.521241
1393,-0.2406,0.9648,0.0034,-0.070,-5.915,5.775,2.00,0.01,0.36,0.01,0.00,2025-06-06T10:47:48.521241
1394,-0.2377,0.9496,0.0054,-3.045,-0.455,0.035,3.00,0.01,0.37,0.00,0.01,2025-06-06T10:47:48.521241
1395,-0.2054,0.9477,0.0098,-1.785,1.400,-2.730,3.00,0.01,0.36,0.00,0.01,2025-06-06T10:47:48.521241
1396,-0.1869,0.9618,0.0327,-1.295,-0.140,-2.170,3.00,0.00,0.36,0.03,0.00,2025-06-06T10:47:48.521241
1397,-0.1752,0.9687,0.0444,-0.035,-4.900,-0.840,0.00,0.01,0.35,0.01,0.00,2025-06-06T10:47:48.521241
1398,-0.1732,0.9604,0.0303,-0.980,-8.505,1.120,3.00,0.01,0.33,0.01,0.01,2025-06-06T10:47:48.521241
1399,-0.2313,0.9404,0.0210,-3.535,-10.430,1.330,0.00,0.00,0.33,0.02,0.00,2025-06-06T10:47:48.576905
1400,-0.2313,0.9238,0.0107,-0.805,-12.425,-0.560,3.00,0.00,0.32,0.01,0.01,2025-06-06T10:47:48.576905
1401,-0.1893,0.9170,-0.0044,1.645,-10.325,-1.960,3.00,0.01,0.32,0.01,0.00,2025-06-06T10:47:48.576905
1402,-0.1791,0.9252,-0.0190,-0.525,-5.005,-2.520,3.00,0.01,0.31,0.01,0.00,2025-06-06T10:47:48.829200
1403,-0.1771,0.9370,-0.0171,-0.700,2.940,-2.520,2.00,0.00,0.29,0.01,0.00,2025-06-06T10:47:48.829200
1404,-0.1874,0.9257,0.0083,0.175,7.630,-2.590,3.00,0.00,0.28,0.01,0.01,2025-06-06T10:47:48.829200
1405,-0.1874,0.9516,0.0244,0.805,7.105,-1.400,6.00,0.00,0.28,0.02,0.00,2025-06-06T10:47:48.829200
1406,-0.2616,0.9228,0.0644,3.185,4.270,-2.100,0.00,0.01,0.25,0.01,0.00,2025-06-06T10:47:48.829200
1407,-0.2494,0.9106,0.0586,4.130,-2.870,-3.535,6.00,0.01,0.26,0.00,0.00,2025-06-06T10:47:48.829200
1408,-0.2552,0.9511,0.0712,4.795,-8.715,-5.215,8.00,0.00,0.24,0.01,0.00,2025-06-06T10:47:48.829200
1409,-0.2245,0.9506,0.0527,2.730,-9.975,-6.895,0.00,0.00,0.24,0.02,0.00,2025-06-06T10:47:48.829200
1410,-0.2162,0.9340,0.0346,1.820,-8.190,-8.295,0.00,0.00,0.23,0.00,0.00,2025-06-06T10:47:48.829200
1411,-0.2396,0.9179,0.0337,3.115,-6.125,-10.465,0.00,0.00,0.22,0.00,0.00,2025-06-06T10:47:48.829200
1412,-0.2445,0.9409,0.0459,3.535,-5.495,-11.655,5.00,0.00,0.21,0.01,0.00,2025-06-06T10:47:48.829200
1413,-0.2089,0.9838,0.0405,1.260,-5.530,-11.095,7.00,0.00,0.22,0.01,0.00,2025-06-06T10:47:48.829200
1414,-0.2020,0.9750,0.0405,0.980,-4.200,-9.905,0.00,0.00,0.21,0.00,0.00,2025-06-06T10:47:48.829200
1415,-0.2381,0.9623,0.0390,-0.770,-5.075,-8.715,2.00,0.00,0.20,0.01,0.00,2025-06-06T10:47:48.829200
1416,-0.2586,0.9677,0.0307,0.980,-6.300,-8.925,3.00,0.00,0.19,0.02,0.00,2025-06-06T10:47:48.829200
1417,-0.2108,0.9955,0.0303,0.735,-6.755,-7.700,2.00,0.01,0.19,0.00,0.00,2025-06-06T10:47:48.829200
1418,-0.1991,0.9716,0.0176,-0.875,-4.235,-5.810,1.00,0.00,0.19,0.01,0.00,2025-06-06T10:47:48.829200
1419,-0.2357,0.9740,0.0220,-1.225,-4.235,-4.235,3.00,0.00,0.16,0.00,0.00,2025-06-06T10:47:48.829200
1420,-0.2298,0.9765,0.0102,0.490,-4.200,-3.815,1.00,0.00,0.17,0.01,0.00,2025-06-06T10:47:48.829923
1421,-0.2059,0.9726,0.0015,-1.085,-2.590,-2.625,1.00,0.00,0.15,0.00,0.01,2025-06-06T10:47:48.931723
1422,-0.2269,0.9614,0.0010,-1.575,0.210,-2.800,3.00,0.00,0.14,0.01,0.00,2025-06-06T10:47:48.931723
1423,-0.2450,0.9584,-0.0015,0.420,0.875,-4.165,1.00,0.00,0.13,0.02,0.01,2025-06-06T10:47:48.931723
1424,-0.2118,0.9770,-0.0127,0.140,3.185,-4.690,4.00,0.01,0.14,0.01,0.01,2025-06-06T10:47:48.931723
1425,-0.1928,0.9623,-0.0039,-0.350,6.580,-3.710,2.00,0.00,0.14,0.01,0.00,2025-06-06T10:47:48.931723
1426,-0.2255,0.9516,0.0151,-0.840,6.230,-3.220,3.00,0.01,0.14,0.01,0.01,2025-06-06T10:47:49.081891
1427,-0.2484,0.9584,0.0259,-0.735,5.355,-3.255,1.00,0.00,0.14,0.01,0.00,2025-06-06T10:47:49.081891
1428,-0.2508,0.9540,0.0390,-0.700,2.730,-3.745,3.00,0.00,0.14,0.00,0.00,2025-06-06T10:47:49.081891
1429,-0.2503,0.9526,0.0522,0.280,-0.315,-4.410,3.00,0.00,0.16,0.01,0.00,2025-06-06T10:47:49.081891
1430,-0.2708,0.9550,0.0493,-0.525,-1.855,-4.865,2.00,0.00,0.16,0.01,0.01,2025-06-06T10:47:49.081891
1431,-0.2396,0.9462,0.0390,-0.315,-1.960,-4.585,3.00,0.00,0.15,0.01,0.00,2025-06-06T10:47:49.081891
1432,-0.2367,0.9443,0.0425,0.595,-1.400,-3.465,0.00,0.01,0.18,0.01,0.00,2025-06-06T10:47:49.081891
1433,-0.2220,0.9653,0.0298,-0.980,-1.085,-1.470,2.00,0.00,0.19,0.01,0.01,2025-06-06T10:47:49.081891
1434,-0.2201,0.9736,0.0303,-0.595,0.175,1.680,0.00,0.01,0.21,0.01,0.01,2025-06-06T10:47:49.081891
1435,-0.2528,0.9609,0.0532,-2.240,1.295,3.395,1.00,0.00,0.22,0.01,0.00,2025-06-06T10:47:49.081891
1436,-0.2538,0.9545,0.0517,-1.470,-0.035,4.550,3.00,0.00,0.22,0.00,0.01,2025-06-06T10:47:49.081891
1437,-0.2508,0.9662,0.0483,0.070,-1.435,5.425,3.00,0.01,0.23,0.01,0.01,2025-06-06T10:47:49.132164
1438,-0.2635,0.9716,0.0478,-0.630,-0.070,6.230,4.00,0.00,0.25,0.01,0.01,2025-06-06T10:47:49.132164
1439,-0.2577,0.9677,0.0425,-0.980,0.210,6.860,2.00,0.00,0.25,0.01,0.01,2025-06-06T10:47:49.132164
1440,-0.2425,0.9584,0.0327,-0.035,0.735,7.910,3.00,0.01,0.25,0.01,0.00,2025-06-06T10:47:49.132164
1441,-0.2435,0.9760,0.0498,0.595,0.420,9.030,1.00,0.01,0.27,0.01,0.00,2025-06-06T10:47:49.132164
1442,-0.2377,0.9809,0.0615,0.035,-1.960,10.535,2.00,0.01,0.27,0.01,0.00,2025-06-06T10:47:49.132164
1443,-0.2396,0.9794,0.0590,0.665,-3.885,11.585,7.00,0.00,0.27,0.00,0.00,2025-06-06T10:47:49.132164
1444,-0.2362,0.9794,0.0566,1.085,-3.115,12.670,0.00,0.00,0.27,0.01,0.00,2025-06-06T10:47:49.132164
1445,-0.2157,0.9721,0.0527,0.945,0.000,14.210,5.00,0.01,0.28,0.01,0.00,2025-06-06T10:47:49.236327
1446,-0.1996,0.8735,0.0381,-2.415,2.870,13.580,0.00,0.01,0.27,0.01,0.00,2025-06-06T10:47:49.236327
1447,-0.2420,0.9067,0.0078,-3.500,8.085,12.110,2.00,0.00,0.28,0.01,0.00,2025-06-06T10:47:49.236327
1448,-0.2196,0.9819,0.0332,-3.465,7.665,8.610,1.00,0.01,0.27,0.01,0.00,2025-06-06T10:47:49.236327
1449,-0.2298,0.9443,-0.0537,-4.795,11.235,5.915,0.00,0.01,0.27,0.02,0.00,2025-06-06T10:47:49.236327
1450,-0.2020,0.9701,-0.0703,-3.220,18.515,3.255,0.00,0.00,0.27,0.01,0.00,2025-06-06T10:47:49.236327
1451,-0.0815,0.9848,-0.0215,-2.415,20.930,6.020,0.00,0.00,0.27,0.01,0.01,2025-06-06T10:47:49.236327
1452,-0.2274,0.9638,0.0151,-3.115,20.265,7.770,1.00,0.01,0.27,0.01,0.00,2025-06-06T10:47:49.236327
1453,-0.2538,0.9433,0.0342,1.575,17.710,8.260,2.00,0.01,0.28,0.01,0.00,2025-06-06T10:47:49.385725
1454,-0.2630,0.9672,0.1030,5.005,5.530,9.170,2.00,0.01,0.28,0.01,0.00,2025-06-06T10:47:49.385725
1455,-0.2479,0.9653,0.0766,7.595,-4.235,10.465,0.00,0.00,0.28,0.01,0.00,2025-06-06T10:47:49.385725
1456,-0.2450,0.9809,0.0405,10.325,-7.630,9.870,2.00,0.01,0.28,0.01,0.01,2025-06-06T10:47:49.385725
1457,-0.1913,0.9853,0.0395,13.090,-9.275,9.835,5.00,0.00,0.28,0.01,0.00,2025-06-06T10:47:49.385725
1458,-0.1908,0.9506,0.0181,9.485,-7.875,9.135,0.00,0.00,0.28,0.02,0.00,2025-06-06T10:47:49.385725
1459,-0.1810,0.9018,-0.0088,6.720,-4.795,6.755,1.00,0.00,0.29,0.02,0.00,2025-06-06T10:47:49.385725
1460,-0.1620,0.9623,-0.0015,9.205,-4.690,4.200,2.00,0.00,0.30,0.01,0.00,2025-06-06T10:47:49.385725
1461,-0.1610,0.9687,-0.0112,7.070,0.350,2.590,0.00,0.00,0.30,0.01,0.00,2025-06-06T10:47:49.385725
1462,-0.2079,0.9511,-0.0024,4.445,2.135,-1.260,2.00,0.01,0.31,0.02,0.01,2025-06-06T10:47:49.385725
1463,-0.2050,0.9506,0.0161,8.995,-1.645,-4.340,2.00,0.01,0.30,0.00,0.00,2025-06-06T10:47:49.385725
1464,-0.1669,0.9340,0.0254,9.660,-2.100,-5.915,1.00,0.01,0.31,0.01,0.00,2025-06-06T10:47:49.550616
1465,-0.2123,0.9506,0.0249,5.600,-3.885,-9.520,4.00,0.00,0.30,0.01,0.00,2025-06-06T10:47:49.550616
1466,-0.1986,0.9550,-0.0044,6.300,-1.715,-10.290,6.00,0.00,0.30,0.01,0.00,2025-06-06T10:47:49.550616
1467,-0.1742,0.9862,0.0264,1.470,-0.455,-8.050,2.00,0.01,0.30,0.02,0.00,2025-06-06T10:47:49.550616
1468,-0.1654,0.9545,-0.0044,-0.175,-0.805,-4.130,1.00,0.01,0.30,0.01,0.01,2025-06-06T10:47:49.550616
1469,-0.1415,0.9252,-0.0029,4.795,-2.835,-0.420,0.00,0.00,0.29,0.01,0.00,2025-06-06T10:47:49.550616
1470,-0.2250,0.9472,0.0137,5.005,-3.640,1.610,5.00,0.01,0.30,0.01,0.00,2025-06-06T10:47:49.550616
1471,-0.2318,0.9565,-0.0049,5.810,-3.465,1.050,1.00,0.01,0.31,0.01,0.00,2025-06-06T10:47:49.550616
1472,-0.2469,0.9984,0.0151,5.600,-4.270,0.350,0.00,0.00,0.31,0.02,0.01,2025-06-06T10:47:49.550616
1473,-0.1747,1.0067,-0.0020,1.855,-3.430,2.135,0.00,0.00,0.30,0.01,0.00,2025-06-06T10:47:49.550616
1474,-0.1942,0.9750,0.0063,0.280,-2.170,4.725,1.00,0.00,0.31,0.01,0.00,2025-06-06T10:47:49.550616
1475,-0.1688,0.9682,0.0176,2.275,-3.570,8.330,0.00,0.01,0.30,0.02,0.01,2025-06-06T10:47:49.550616
1476,-0.1645,0.9755,0.0215,4.165,-2.135,11.445,7.00,0.01,0.31,0.01,0.01,2025-06-06T10:47:49.550616
1477,-0.1464,0.9848,0.0390,2.100,0.070,13.195,1.00,0.01,0.31,0.02,0.01,2025-06-06T10:47:49.641051
1478,-0.2996,1.1932,0.5729,-14.770,18.655,4.795,0.00,0.00,0.30,0.01,0.00,2025-06-06T10:47:49.641051
1479,-0.4314,0.9101,-0.0386,-21.595,-14.280,11.620,1.00,0.00,0.30,0.01,0.00,2025-06-06T10:47:49.641051
1480,-0.1659,0.8955,-0.1898,27.720,-24.115,21.315,4.00,0.00,0.29,0.02,0.00,2025-06-06T10:47:49.641051
1481,-0.0576,1.0882,0.1147,46.725,-42.630,34.475,5.00,0.01,0.27,0.01,0.00,2025-06-06T10:47:49.875210
1482,-0.0947,1.2044,0.2162,43.015,-39.550,45.570,3.00,0.01,0.26,0.02,0.00,2025-06-06T10:47:49.875210
1483,-0.2733,1.0936,-0.0229,38.500,-26.740,49.945,0.00,0.00,0.24,0.02,0.01,2025-06-06T10:47:49.875210
1484,0.0034,0.9004,-0.2938,50.155,-17.745,44.765,3.00,0.00,0.22,0.03,0.00,2025-06-06T10:47:49.875210
1485,-0.2650,0.8145,-0.3543,57.155,-11.095,41.545,3.00,0.01,0.20,0.03,0.00,2025-06-06T10:47:49.875210
1486,-0.1806,0.9389,-0.0986,59.710,-2.310,36.295,1.00,0.00,0.19,0.03,0.00,2025-06-06T10:47:49.875210
1487,-0.1664,0.9931,-0.1454,57.750,4.025,29.085,0.00,0.00,0.18,0.04,0.00,2025-06-06T10:47:49.875210
1488,-0.0356,0.9633,-0.1708,46.620,18.445,25.270,0.00,0.00,0.18,0.06,0.00,2025-06-06T10:47:49.875210
1489,0.1401,0.9931,-0.1200,31.990,31.675,20.440,0.00,0.00,0.16,0.07,0.00,2025-06-06T10:47:49.875210
1490,-0.2157,0.9623,0.0307,16.450,43.505,12.145,5.00,0.01,0.16,0.10,0.01,2025-06-06T10:47:49.875210
1491,-0.1981,0.8345,-0.0161,6.440,37.065,5.110,0.00,0.00,0.14,0.16,0.00,2025-06-06T10:47:49.875210
1492,-0.1630,0.8516,-0.1215,28.875,18.865,-3.010,2.00,0.00,0.12,0.20,0.00,2025-06-06T10:47:49.875210
1493,-0.1479,0.8618,-0.0425,31.710,5.355,-9.870,1.00,0.01,0.11,0.26,0.00,2025-06-06T10:47:49.875210
1494,-0.1703,0.9179,0.0098,28.035,-2.205,-16.380,1.00,0.00,0.11,0.31,0.00,2025-06-06T10:47:49.875210
1495,-0.1025,0.9360,-0.0820,31.885,-12.740,-25.585,1.00,0.00,0.11,0.36,0.00,2025-06-06T10:47:49.875210
1496,-0.1674,0.8296,-0.1601,22.890,-10.710,-35.805,0.00,0.00,0.10,0.40,0.01,2025-06-06T10:47:49.875210
1497,0.0410,0.7383,-0.2328,-1.680,-10.010,-39.025,3.00,0.00,0.11,0.46,0.01,2025-06-06T10:47:49.875210
1498,-0.0020,0.8784,-0.1454,-26.110,-14.595,-33.670,3.00,0.00,0.10,0.50,0.00,2025-06-06T10:47:49.875210
1499,0.0205,0.9418,-0.1654,-24.640,-19.670,-24.815,1.00,0.01,0.10,0.54,0.01,2025-06-06T10:47:49.875210
1500,0.1444,0.9106,-0.2596,-35.420,-11.445,-13.265,0.00,0.00,0.10,0.56,0.00,2025-06-06T10:47:50.101263
1501,0.0049,0.9160,-0.3255,-76.685,7.420,-12.670,0.00,0.01,0.10,0.61,0.00,2025-06-06T10:47:50.101263
1502,-0.2133,0.9404,-0.2289,-108.535,31.570,-17.780,3.00,0.00,0.11,0.63,0.00,2025-06-06T10:47:50.101263
1503,-0.2172,1.0170,-0.0429,-97.825,40.810,-21.035,2.00,0.00,0.11,0.66,0.00,2025-06-06T10:47:50.101263
1504,-0.3924,1.0594,0.1362,-74.130,27.195,-18.760,0.00,0.00,0.12,0.70,0.00,2025-06-06T10:47:50.101263
1505,-0.3294,1.1488,0.1947,-27.545,0.420,-10.535,1.00,0.00,0.12,0.71,0.00,2025-06-06T10:47:50.101263
1506,-0.2596,1.1878,0.1405,18.690,-27.405,2.800,3.00,0.00,0.13,0.74,0.00,2025-06-06T10:47:50.101263
1507,-0.1781,1.1248,0.0044,28.000,-26.845,9.240,4.00,0.00,0.14,0.77,0.00,2025-06-06T10:47:50.101263
1508,-0.3016,1.0921,-0.1640,24.535,-4.760,8.435,0.00,0.00,0.15,0.80,0.00,2025-06-06T10:47:50.101263
1509,-0.0195,0.9589,-0.2801,16.030,23.730,-0.280,1.00,0.00,0.16,0.83,0.00,2025-06-06T10:47:50.101263
1510,-0.0825,0.9672,-0.1737,3.815,36.960,3.395,0.00,0.00,0.18,0.85,0.00,2025-06-06T10:47:50.101263
1511,-0.1161,1.0331,-0.1532,-9.310,50.435,7.210,1.00,0.00,0.18,0.86,0.00,2025-06-06T10:47:50.101263
1512,-0.1825,0.9994,-0.1171,-4.935,52.570,12.705,1.00,0.00,0.20,0.87,0.01,2025-06-06T10:47:50.101263
1513,-0.2606,1.0263,0.0117,2.450,32.235,21.910,0.00,0.00,0.21,0.88,0.00,2025-06-06T10:47:50.101263
1514,-0.2274,0.9765,0.0063,36.540,7.385,30.625,0.00,0.00,0.23,0.88,0.00,2025-06-06T10:47:50.101263
1515,-0.2406,0.9584,0.0034,59.955,-10.990,36.505,3.00,0.00,0.23,0.89,0.00,2025-06-06T10:47:50.101263
1516,-0.1801,0.9540,-0.0473,55.090,-18.095,35.770,0.00,0.00,0.26,0.91,0.01,2025-06-06T10:47:50.101263
1517,-0.0952,0.9462,-0.1532,57.120,-11.760,31.640,2.00,0.00,0.26,0.91,0.00,2025-06-06T10:47:50.101263
1518,-0.1293,0.9140,-0.2050,45.500,2.030,21.175,0.00,0.00,0.27,0.93,0.00,2025-06-06T10:47:50.273172
1519,-0.1064,0.8843,-0.1923,33.985,13.755,12.810,0.00,0.00,0.28,0.91,0.00,2025-06-06T10:47:50.273172
1520,-0.0883,0.8979,-0.1791,29.120,16.100,8.715,2.00,0.00,0.27,0.93,0.01,2025-06-06T10:47:50.273172
1521,-0.2474,0.9306,-0.1591,24.430,18.165,5.985,4.00,0.00,0.27,0.95,0.00,2025-06-06T10:47:50.273172
1522,-0.1191,0.9360,-0.0956,22.540,13.650,6.335,2.00,0.00,0.27,0.95,0.00,2025-06-06T10:47:50.273172
1523,-0.1113,0.9238,-0.1044,23.625,6.615,8.050,1.00,0.00,0.27,0.96,0.00,2025-06-06T10:47:50.273172
1524,-0.1200,0.9423,-0.1083,25.375,1.750,7.770,2.00,0.01,0.27,0.98,0.00,2025-06-06T10:47:50.273172
1525,-0.1240,0.9618,-0.1147,26.110,-1.925,6.195,5.00,0.00,0.27,0.98,0.01,2025-06-06T10:47:50.273172
1526,-0.1225,0.9550,-0.1386,19.460,-2.625,3.920,1.00,0.01,0.27,1.00,0.00,2025-06-06T10:47:50.273172
1527,-0.0542,0.9414,-0.1464,12.565,-1.925,2.835,3.00,0.00,0.27,0.99,0.00,2025-06-06T10:47:50.273172
1528,-0.0449,0.9370,-0.1806,9.030,1.435,2.870,2.00,0.00,0.27,0.99,0.00,2025-06-06T10:47:50.273172
1529,-0.0761,0.9384,-0.1615,3.990,5.845,2.835,1.00,0.00,0.26,0.98,0.00,2025-06-06T10:47:50.273172
1530,-0.0854,0.9428,-0.1493,4.340,3.535,3.430,2.00,0.01,0.26,0.97,0.00,2025-06-06T10:47:50.273172
1531,-0.0630,0.9648,-0.1537,5.250,0.245,5.320,1.00,0.00,0.24,0.97,0.00,2025-06-06T10:47:50.469267
1532,-0.0688,0.9584,-0.1713,1.750,-0.455,6.615,0.00,0.01,0.24,0.96,0.00,2025-06-06T10:47:50.469267
1533,-0.0786,0.9472,-0.1625,1.680,-1.470,7.140,2.00,0.01,0.24,0.97,0.01,2025-06-06T10:47:50.469267
1534,-0.0473,0.9594,-0.1606,1.960,-4.060,7.735,0.00,0.00,0.23,0.97,0.00,2025-06-06T10:47:50.469267
1535,-0.0444,0.9448,-0.1786,0.595,-1.540,6.055,1.00,0.01,0.22,0.98,0.01,2025-06-06T10:47:50.469267
1536,-0.1635,0.9345,-0.2001,-0.280,6.965,0.805,1.00,0.00,0.22,0.97,0.00,2025-06-06T10:47:50.469267
1537,-0.0786,0.9126,-0.2181,-1.400,7.700,-4.025,3.00,0.00,0.20,0.97,0.00,2025-06-06T10:47:50.469267
1538,-0.0986,0.9457,-0.1942,-3.185,6.160,-6.580,0.00,0.00,0.20,0.96,0.00,2025-06-06T10:47:50.469267
1539,-0.0981,0.9745,-0.1488,-3.535,4.620,-7.805,0.00,0.01,0.20,0.95,0.00,2025-06-06T10:47:50.469267
1540,-0.1396,1.0063,-0.1171,0.280,-1.435,-5.880,3.00,0.01,0.19,0.95,0.01,2025-06-06T10:47:50.469267
1541,-0.0825,1.0111,-0.1381,0.840,-8.995,-1.505,2.00,0.01,0.20,0.95,0.00,2025-06-06T10:47:50.469267
1542,-0.0610,0.9936,-0.1654,1.785,-11.095,2.695,4.00,0.00,0.20,0.96,0.00,2025-06-06T10:47:50.469267
1543,-0.0742,0.9770,-0.2050,2.275,-9.170,3.430,0.00,0.01,0.19,0.96,0.00,2025-06-06T10:47:50.469267
1544,-0.1049,0.9819,-0.2201,1.855,-1.890,1.855,2.00,0.00,0.19,0.96,0.00,2025-06-06T10:47:50.469267
1545,-0.1181,0.9765,-0.1996,1.750,1.365,0.525,1.00,0.00,0.19,0.97,0.00,2025-06-06T10:47:50.469267
1546,-0.0961,0.9936,-0.1659,6.335,-2.135,2.240,2.00,0.01,0.18,0.97,0.00,2025-06-06T10:47:50.669406
1547,-0.0795,1.0341,-0.1659,7.210,-6.125,8.225,3.00,0.00,0.18,0.97,0.00,2025-06-06T10:47:50.669406
1548,-0.0834,0.9936,-0.1542,6.580,-10.185,13.580,3.00,0.01,0.17,0.98,0.00,2025-06-06T10:47:50.669406
1549,-0.1181,1.0024,-0.1776,12.005,-14.560,16.485,1.00,0.00,0.18,0.98,0.00,2025-06-06T10:47:50.669406
1550,-0.1015,0.9487,-0.1996,12.040,-14.070,19.040,0.00,0.01,0.17,0.98,0.00,2025-06-06T10:47:50.669406
1551,-0.0215,1.0028,-0.2191,10.570,-12.425,20.335,6.00,0.00,0.16,1.00,0.00,2025-06-06T10:47:50.669406
1552,-0.0717,0.9765,-0.2508,12.810,-5.565,19.075,2.00,0.01,0.16,1.01,0.00,2025-06-06T10:47:50.669406
1553,-0.0098,0.9414,-0.2347,13.685,-1.365,15.995,3.00,0.00,0.16,1.01,0.00,2025-06-06T10:47:50.669406
1554,-0.1025,1.0106,-0.1854,9.065,0.525,12.670,0.00,0.01,0.15,1.01,0.01,2025-06-06T10:47:50.669406
1555,-0.0986,0.9809,-0.1771,4.200,2.310,8.120,0.00,0.00,0.15,1.00,0.00,2025-06-06T10:47:50.669406
1556,-0.1088,0.9506,-0.1479,-3.990,0.945,7.245,1.00,0.01,0.14,1.00,0.00,2025-06-06T10:47:50.669406
1557,-0.0669,0.9218,-0.1801,-4.655,-3.955,1.470,3.00,0.00,0.15,1.00,0.00,2025-06-06T10:47:50.669406
1558,-0.0917,0.9545,-0.1347,-17.290,3.115,-5.145,0.00,0.00,0.14,1.00,0.00,2025-06-06T10:47:50.669406
1559,-0.1152,0.9126,-0.1118,-19.250,-2.310,-11.760,2.00,0.00,0.14,1.00,0.00,2025-06-06T10:47:50.669406
1560,-0.0844,0.9804,-0.0137,-31.115,2.765,-10.430,3.00,0.00,0.14,0.99,0.00,2025-06-06T10:47:50.669406
1561,-0.0390,0.9750,-0.0586,-20.405,-14.595,-14.525,0.00,0.00,0.14,0.99,0.01,2025-06-06T10:47:50.669406
1562,-0.0420,0.9789,-0.0249,-25.830,-19.145,-5.950,3.00,0.00,0.14,0.99,0.00,2025-06-06T10:47:50.806058
1563,-0.1391,0.8891,-0.0142,-36.085,-27.370,-1.820,0.00,0.00,0.14,0.97,0.01,2025-06-06T10:47:50.806058
1564,-0.1820,0.9228,-0.1484,-39.200,-37.905,2.590,1.00,0.00,0.13,0.97,0.01,2025-06-06T10:47:50.806058
1565,0.0654,0.9414,-0.2850,-34.755,-37.345,-1.050,2.00,0.00,0.13,0.96,0.00,2025-06-06T10:47:50.806058
1566,0.0932,1.0214,-0.2772,-28.595,-24.885,-1.925,5.00,0.01,0.13,0.95,0.00,2025-06-06T10:47:50.806058
1567,0.1962,0.9989,-0.3367,-23.555,-17.185,-1.085,1.00,0.00,0.13,0.95,0.01,2025-06-06T10:47:50.806058
1568,0.1132,1.0463,-0.3558,-19.215,-1.155,-6.405,3.00,0.00,0.12,0.94,0.00,2025-06-06T10:47:50.806058
1569,-0.0010,1.0146,-0.4143,-35.735,1.925,-5.985,1.00,0.01,0.13,0.92,0.01,2025-06-06T10:47:50.913934
1570,0.2025,1.1463,-0.4226,-5.530,3.500,-8.680,4.00,0.01,0.12,0.90,0.00,2025-06-06T10:47:50.913934
1571,0.1303,1.3288,-0.3523,14.175,-20.475,8.435,1.00,0.00,0.13,0.88,0.00,2025-06-06T10:47:50.913934
1572,0.3109,1.3420,-0.4763,27.230,-33.075,13.860,0.00,0.01,0.13,0.86,0.01,2025-06-06T10:47:50.913934
1573,0.3426,1.1009,-0.5578,25.235,-29.225,22.575,0.00,0.00,0.12,0.85,0.01,2025-06-06T10:47:50.913934
1574,0.5675,1.0028,-0.2294,19.845,1.190,11.970,2.00,0.00,0.13,0.84,0.00,2025-06-06T10:47:50.913934
1575,0.7183,0.8979,0.0498,14.280,7.490,-5.565,4.00,0.00,0.12,0.83,0.00,2025-06-06T10:47:50.913934
1576,0.8008,0.6612,0.7213,-61.705,20.265,-33.600,1.00,0.00,0.11,0.82,0.00,2025-06-06T10:47:51.071042
1577,0.6285,-0.0673,0.7374,-105.245,-20.965,-86.835,1.00,0.01,0.11,0.81,0.00,2025-06-06T10:47:51.071042
1578,0.8838,-0.4782,0.9399,-163.940,-78.330,-166.705,3.00,0.01,0.12,0.82,0.00,2025-06-06T10:47:51.071042
1579,1.2722,-0.6207,1.0214,-284.865,-142.310,-228.480,2.00,0.00,0.12,0.79,0.01,2025-06-06T10:47:51.071042
1580,1.6304,-1.2288,0.6944,-338.800,-201.950,-437.185,2.00,0.00,0.12,0.78,0.00,2025-06-06T10:47:51.081014
1581,1.3103,-1.1741,-0.3631,-562.695,-213.920,-490.525,0.00,0.00,0.12,0.77,0.00,2025-06-06T10:47:51.081014
1582,0.9579,-1.2439,-1.4132,-203.455,-122.570,-585.130,6.00,0.01,0.12,0.77,0.01,2025-06-06T10:47:51.081014
1583,-0.4343,-0.6603,-1.0375,-203.350,-25.235,-710.885,1.00,0.00,0.13,0.76,0.00,2025-06-06T10:47:51.081014
1584,-1.5650,-0.7208,-0.2284,-193.795,93.835,-764.225,0.00,0.00,0.13,0.76,0.00,2025-06-06T10:47:51.081014
1585,-4.7653,-1.0390,1.9183,-186.410,229.285,-776.265,1.00,0.00,0.12,0.75,0.00,2025-06-06T10:47:51.081014
1586,-5.0410,-0.6398,3.1217,-183.155,133.910,-723.940,1.00,0.00,0.12,0.73,0.00,2025-06-06T10:47:51.081014
1587,-3.2140,-0.2669,0.0107,-78.890,-73.045,-593.950,0.00,0.00,0.12,0.72,0.00,2025-06-06T10:47:51.081014
1588,-5.3021,-1.4503,0.3396,-141.610,-45.150,-457.975,2.00,0.00,0.12,0.71,0.00,2025-06-06T10:47:51.081014
1589,-0.7008,1.9296,-2.1838,57.715,-272.160,-151.970,0.00,0.01,0.13,0.69,0.00,2025-06-06T10:47:51.081014
1590,-4.4042,-0.6271,-1.5323,-18.060,-38.395,-12.740,7.00,0.00,0.13,0.69,0.00,2025-06-06T10:47:51.081014
1591,-1.4840,-1.3527,-0.7310,-34.790,-37.555,79.485,2.00,0.00,0.13,0.69,0.01,2025-06-06T10:47:51.081014
1592,-0.5744,0.2840,0.4997,-1.645,136.675,141.680,4.00,0.01,0.12,0.70,0.00,2025-06-06T10:47:51.345070
1593,-0.7749,-0.3494,0.4494,87.430,32.025,123.095,5.00,0.00,0.13,0.70,0.01,2025-06-06T10:47:51.345070
1594,-0.9931,0.1596,0.4485,195.055,23.275,78.225,2.00,0.00,0.12,0.70,0.00,2025-06-06T10:47:51.345070
1595,-1.2961,-0.1498,-0.0508,-20.440,47.670,108.395,7.00,0.00,0.13,0.69,0.01,2025-06-06T10:47:51.345070
1596,-1.2722,-0.0869,0.0756,28.140,40.075,60.445,10.00,0.01,0.12,0.71,0.00,2025-06-06T10:47:51.345070
1597,-1.1346,0.0610,0.4997,14.350,-26.145,34.195,3.00,0.00,0.11,0.70,0.00,2025-06-06T10:47:51.345070
1598,-0.7696,0.0917,0.3494,28.175,-22.680,28.175,0.00,0.01,0.13,0.70,0.00,2025-06-06T10:47:51.345070
1599,-0.6442,0.1103,0.4216,26.880,22.365,26.180,4.00,0.00,0.12,0.69,0.00,2025-06-06T10:47:51.345070
1600,-0.5178,0.3445,0.4304,-39.130,51.240,41.195,2.00,0.01,0.13,0.68,0.00,2025-06-06T10:47:51.345070
1601,-0.7144,0.2747,0.4768,1.470,-2.450,57.400,0.00,0.00,0.12,0.68,0.00,2025-06-06T10:47:51.345070
1602,-0.9008,0.3528,0.4612,1.750,-19.740,70.105,3.00,0.00,0.13,0.68,0.00,2025-06-06T10:47:51.345070
1603,-0.9858,0.1474,0.3304,-12.110,-31.010,68.845,1.00,0.00,0.12,0.67,0.00,2025-06-06T10:47:51.345070
1604,-0.9555,0.0781,0.3270,-3.010,-21.595,47.040,3.00,0.00,0.12,0.66,0.00,2025-06-06T10:47:51.345070
1605,-0.8379,0.1401,0.3626,-3.885,-13.230,46.935,2.00,0.00,0.12,0.65,0.00,2025-06-06T10:47:51.345070
1606,-0.7427,0.2191,0.4207,2.170,7.105,48.510,1.00,0.01,0.12,0.65,0.00,2025-06-06T10:47:51.345070
1607,-0.7252,0.3816,0.4080,-1.400,9.240,56.315,2.00,0.00,0.12,0.65,0.01,2025-06-06T10:47:51.345070
1608,-0.7730,0.4075,0.3343,1.365,5.740,60.970,3.00,0.01,0.12,0.65,0.01,2025-06-06T10:47:51.345070
1609,-0.9213,0.3265,0.2596,-0.945,18.410,52.220,2.00,0.00,0.13,0.65,0.00,2025-06-06T10:47:51.345070
1610,-1.0028,0.3143,0.3855,-1.855,19.110,41.930,3.00,0.01,0.12,0.65,0.00,2025-06-06T10:47:51.345070
1611,-1.0433,0.3387,0.4836,-4.970,-0.840,35.490,0.00,0.00,0.12,0.64,0.00,2025-06-06T10:47:51.492574
1612,-0.9833,0.2933,0.4207,-5.320,-26.250,35.315,1.00,0.01,0.11,0.63,0.01,2025-06-06T10:47:51.492574
1613,-0.9550,0.2406,0.2840,1.645,-34.195,33.670,2.00,0.00,0.12,0.62,0.00,2025-06-06T10:47:51.492574
1614,-0.8930,0.3035,0.2425,2.695,-24.500,33.110,6.00,0.00,0.11,0.62,0.00,2025-06-06T10:47:51.492574
1615,-0.8574,0.2767,0.2074,2.940,-10.115,33.390,3.00,0.00,0.11,0.61,0.00,2025-06-06T10:47:51.492574
1616,-0.8847,0.2865,0.2245,6.755,1.855,30.765,2.00,0.01,0.12,0.61,0.00,2025-06-06T10:47:51.492574
1617,-0.9565,0.2977,0.2821,8.645,7.805,24.290,0.00,0.00,0.10,0.60,0.00,2025-06-06T10:47:51.492574
1618,-1.0365,0.2860,0.3318,6.195,9.275,15.120,1.00,0.00,0.11,0.59,0.00,2025-06-06T10:47:51.492574
1619,-1.0399,0.2879,0.3797,5.740,5.600,6.825,2.00,0.00,0.10,0.60,0.01,2025-06-06T10:47:51.492574
1620,-0.9448,0.3206,0.3914,7.560,-2.660,3.815,0.00,0.00,0.10,0.59,0.00,2025-06-06T10:47:51.492574
1621,-0.8574,0.3440,0.3645,9.660,-10.570,8.330,1.00,0.00,0.09,0.58,0.00,2025-06-06T10:47:51.492574
1622,-0.8257,0.3206,0.2899,12.425,-8.925,13.615,1.00,0.00,0.09,0.58,0.00,2025-06-06T10:47:51.492574
1623,-0.8189,0.3167,0.2230,16.030,-2.380,18.025,0.00,0.01,0.08,0.57,0.00,2025-06-06T10:47:51.640190
1624,-0.8808,0.3216,0.2128,16.345,11.655,18.620,3.00,0.01,0.08,0.56,0.00,2025-06-06T10:47:51.640190
1625,-0.8750,0.3743,0.3011,13.965,14.560,18.550,1.00,0.01,0.08,0.57,0.01,2025-06-06T10:47:51.640190
1626,-0.9262,0.2747,0.3148,9.415,12.635,19.425,2.00,0.00,0.08,0.57,0.00,2025-06-06T10:47:51.640190
1627,-0.9506,0.3338,0.3699,9.975,7.455,20.090,0.00,0.00,0.07,0.57,0.00,2025-06-06T10:47:51.640190
1628,-0.9736,0.2655,0.3484,7.490,1.470,17.395,0.00,0.00,0.07,0.57,0.00,2025-06-06T10:47:51.640190
1629,-0.9789,0.2718,0.2972,6.230,1.960,14.525,1.00,0.00,0.06,0.56,0.00,2025-06-06T10:47:51.640190
1630,-0.9614,0.3148,0.3392,5.425,7.490,13.090,1.00,0.01,0.07,0.56,0.00,2025-06-06T10:47:51.640190
1631,-0.9667,0.3411,0.3714,0.630,-1.365,13.510,2.00,0.01,0.08,0.56,0.00,2025-06-06T10:47:51.640190
1632,-0.9179,0.3841,0.3836,1.925,-12.985,16.590,5.00,0.01,0.07,0.56,0.00,2025-06-06T10:47:51.640190
1633,-0.8525,0.4060,0.3616,1.435,-26.040,18.830,1.00,0.01,0.07,0.56,0.01,2025-06-06T10:47:51.640190
1634,-0.8047,0.3484,0.2601,0.280,-22.925,18.095,2.00,0.01,0.08,0.56,0.00,2025-06-06T10:47:51.806087
1635,-0.8286,0.3675,0.2547,-0.910,-10.885,13.580,0.00,0.00,0.07,0.57,0.00,2025-06-06T10:47:51.806087
1636,-0.7818,0.3787,0.2489,-3.115,-1.680,11.165,1.00,0.00,0.08,0.55,0.00,2025-06-06T10:47:51.806087
1637,-0.8540,0.3836,0.3192,-3.710,-0.840,9.695,2.00,0.00,0.08,0.55,0.00,2025-06-06T10:47:51.806087
1638,-0.8994,0.3875,0.3611,-2.940,-16.695,8.260,4.00,0.00,0.08,0.55,0.01,2025-06-06T10:47:51.806087
1639,-0.8769,0.3992,0.3601,1.015,-23.835,8.435,1.00,0.00,0.08,0.55,0.00,2025-06-06T10:47:51.806087
1640,-0.8438,0.4309,0.3172,2.030,-31.570,8.470,3.00,0.00,0.08,0.55,0.00,2025-06-06T10:47:51.806087
1641,-0.7598,0.4153,0.2401,2.695,-29.540,9.590,6.00,0.00,0.07,0.55,0.00,2025-06-06T10:47:51.806087
1642,-0.7418,0.4153,0.2050,3.990,-15.470,11.515,1.00,0.00,0.07,0.55,0.00,2025-06-06T10:47:51.806087
1643,-0.7740,0.4124,0.2235,1.260,-1.400,13.020,0.00,0.00,0.07,0.55,0.00,2025-06-06T10:47:51.806087
1644,-0.8184,0.3870,0.2552,1.960,8.050,15.120,0.00,0.00,0.07,0.55,0.00,2025-06-06T10:47:51.806087
1645,-0.8891,0.3967,0.3314,2.695,10.710,17.010,3.00,0.01,0.07,0.55,0.00,2025-06-06T10:47:51.806087
1646,-0.9360,0.3860,0.3694,0.595,7.210,18.515,2.00,0.01,0.07,0.55,0.00,2025-06-06T10:47:51.806087
1647,-0.9672,0.3894,0.3709,1.295,0.455,18.900,3.00,0.00,0.07,0.55,0.01,2025-06-06T10:47:51.897083
1648,-0.9516,0.3938,0.3587,1.015,-6.755,19.285,0.00,0.01,0.07,0.55,0.00,2025-06-06T10:47:51.897083
1649,-0.9301,0.3880,0.3221,1.960,-9.695,18.830,4.00,0.00,0.07,0.55,0.01,2025-06-06T10:47:51.897083
1650,-0.9082,0.3987,0.3187,1.050,-8.855,20.195,0.00,0.01,0.08,0.56,0.01,2025-06-06T10:47:51.897083
1651,-0.8701,0.3704,0.2928,2.485,-8.190,21.560,3.00,0.01,0.06,0.56,0.00,2025-06-06T10:47:51.897083
1652,-0.8584,0.4050,0.2655,3.570,-1.400,23.100,0.00,0.00,0.07,0.56,0.00,2025-06-06T10:47:51.897083
1653,-0.8711,0.3899,0.2625,2.135,5.530,24.780,2.00,0.00,0.06,0.56,0.00,2025-06-06T10:47:51.897083
1654,-0.8950,0.4124,0.2899,2.870,7.560,25.305,7.00,0.00,0.07,0.56,0.01,2025-06-06T10:47:52.105509
1655,-0.8769,0.4246,0.2982,2.345,5.950,26.600,0.00,0.00,0.06,0.57,0.00,2025-06-06T10:47:52.105509
1656,-0.8706,0.4309,0.2996,1.120,4.375,27.230,2.00,0.00,0.05,0.57,0.00,2025-06-06T10:47:52.105509
1657,-0.8794,0.4514,0.3040,1.435,1.785,25.445,0.00,0.00,0.06,0.56,0.00,2025-06-06T10:47:52.105509
1658,-0.8716,0.4128,0.2835,-2.065,3.780,23.870,0.00,0.01,0.05,0.56,0.00,2025-06-06T10:47:52.105509
1659,-0.8569,0.4348,0.2913,-3.570,6.370,22.015,0.00,0.00,0.05,0.56,0.00,2025-06-06T10:47:52.105509
1660,-0.8530,0.4441,0.3084,-3.535,1.995,21.665,2.00,0.00,0.05,0.55,0.00,2025-06-06T10:47:52.105509
1661,-0.8257,0.4870,0.2933,-3.640,-4.445,23.905,1.00,0.00,0.06,0.55,0.00,2025-06-06T10:47:52.105509
1662,-0.7832,0.5051,0.2596,-2.555,-10.675,27.930,0.00,0.00,0.04,0.55,0.01,2025-06-06T10:47:52.105509
1663,-0.7862,0.5114,0.2533,-2.030,-13.335,30.310,4.00,0.00,0.05,0.56,0.00,2025-06-06T10:47:52.105509
1664,-0.7706,0.5158,0.2289,-3.570,-9.205,32.550,0.00,0.00,0.05,0.54,0.00,2025-06-06T10:47:52.105509
1665,-0.7745,0.5036,0.2206,-3.430,-4.900,31.535,0.00,0.01,0.05,0.54,0.00,2025-06-06T10:47:52.105509
1666,-0.7886,0.5070,0.2089,-2.415,3.360,29.050,2.00,0.00,0.05,0.55,0.00,2025-06-06T10:47:52.105509
1667,-0.7769,0.5183,0.2035,-2.205,10.640,26.740,5.00,0.00,0.05,0.54,0.01,2025-06-06T10:47:52.105509
1668,-0.8150,0.5222,0.2528,-2.485,15.820,24.780,2.00,0.00,0.05,0.54,0.00,2025-06-06T10:47:52.105509
1669,-0.8540,0.5519,0.3084,-3.990,11.305,23.345,1.00,0.01,0.05,0.55,0.00,2025-06-06T10:47:52.105509
1670,-0.8018,0.5524,0.3196,0.665,0.980,25.515,0.00,0.00,0.05,0.55,0.00,2025-06-06T10:47:52.368772
1671,-0.8003,0.5539,0.3484,-1.925,-5.845,28.140,0.00,0.01,0.05,0.54,0.00,2025-06-06T10:47:52.368772
1672,-0.7876,0.5431,0.3284,-3.535,-11.445,30.905,0.00,0.00,0.06,0.52,0.00,2025-06-06T10:47:52.368772
1673,-0.7544,0.5324,0.2850,-3.885,-7.385,32.760,0.00,0.00,0.06,0.53,0.00,2025-06-06T10:47:52.368772
1674,-0.7774,0.5202,0.2377,-2.835,-3.290,31.150,1.00,0.00,0.07,0.51,0.00,2025-06-06T10:47:52.368772
1675,-0.7920,0.5719,0.2235,-1.295,-0.070,27.370,3.00,0.00,0.07,0.51,0.00,2025-06-06T10:47:52.368772
1676,-0.7993,0.5719,0.2352,-2.485,3.605,23.765,5.00,0.01,0.07,0.51,0.00,2025-06-06T10:47:52.368772
1677,-0.7891,0.5724,0.2928,-2.240,-1.015,20.545,1.00,0.00,0.09,0.49,0.01,2025-06-06T10:47:52.368772
1678,-0.7647,0.5788,0.3196,-0.175,-7.735,18.515,1.00,0.00,0.09,0.48,0.00,2025-06-06T10:47:52.368772
1679,-0.7359,0.5836,0.3411,-0.490,-15.715,17.920,0.00,0.00,0.08,0.47,0.00,2025-06-06T10:47:52.368772
1680,-0.6895,0.5841,0.3113,-2.450,-21.105,18.235,1.00,0.01,0.08,0.48,0.01,2025-06-06T10:47:52.368772
1681,-0.6934,0.5661,0.2860,-2.975,-21.385,18.235,3.00,0.00,0.07,0.48,0.00,2025-06-06T10:47:52.368772
1682,-0.7169,0.5451,0.2889,-6.055,-16.730,16.940,0.00,0.01,0.07,0.47,0.01,2025-06-06T10:47:52.368772
1683,-0.7413,0.5466,0.2869,-8.680,-14.210,14.770,1.00,0.00,0.08,0.48,0.00,2025-06-06T10:47:52.368772
1684,-0.7505,0.5397,0.2772,-7.805,-11.795,11.270,1.00,0.00,0.07,0.48,0.00,2025-06-06T10:47:52.368772
1685,-0.7525,0.5353,0.2777,-7.140,-10.220,8.435,3.00,0.00,0.07,0.48,0.01,2025-06-06T10:47:52.368772
1686,-0.7139,0.5724,0.2752,-4.410,-10.150,8.610,2.00,0.00,0.07,0.47,0.00,2025-06-06T10:47:52.368772
1687,-0.6910,0.5968,0.2713,-3.045,-12.180,11.060,2.00,0.00,0.07,0.48,0.00,2025-06-06T10:47:52.368772
1688,-0.6476,0.5924,0.2567,-2.100,-11.865,15.225,2.00,0.01,0.06,0.48,0.00,2025-06-06T10:47:52.524092
1689,-0.6163,0.5963,0.2752,-1.820,-9.030,19.775,1.00,0.01,0.06,0.46,0.00,2025-06-06T10:47:52.524092
1690,-0.6515,0.5876,0.2728,-4.515,0.035,23.625,3.00,0.00,0.06,0.46,0.00,2025-06-06T10:47:52.524092
1691,-0.6583,0.5744,0.3021,-5.810,6.825,24.955,4.00,0.01,0.05,0.46,0.01,2025-06-06T10:47:52.524092
1692,-0.6866,0.5563,0.3045,-6.580,10.185,24.815,2.00,0.01,0.05,0.45,0.01,2025-06-06T10:47:52.524092
1693,-0.7471,0.5500,0.3172,-6.685,15.260,22.645,1.00,0.00,0.06,0.45,0.01,2025-06-06T10:47:52.524092
1694,-0.7271,0.5617,0.3152,-7.490,16.240,20.405,0.00,0.00,0.06,0.44,0.01,2025-06-06T10:47:52.524092
1695,-0.7906,0.5617,0.3494,-7.070,18.830,17.885,2.00,0.00,0.04,0.45,0.00,2025-06-06T10:47:52.524092
1696,-0.7662,0.6144,0.3909,-5.600,11.235,18.620,7.00,0.00,0.05,0.45,0.00,2025-06-06T10:47:52.524092
1697,-0.7178,0.6105,0.3797,-4.690,1.925,22.575,3.00,0.00,0.04,0.46,0.00,2025-06-06T10:47:52.524092
1698,-0.7305,0.6285,0.3704,-3.290,-3.780,24.640,0.00,0.00,0.04,0.46,0.00,2025-06-06T10:47:52.524092
1699,-0.7422,0.6115,0.3460,-5.005,-3.150,25.235,2.00,0.00,0.05,0.45,0.00,2025-06-06T10:47:52.524092
1700,-0.7344,0.6100,0.3265,-3.570,-2.695,24.290,7.00,0.01,0.05,0.45,0.00,2025-06-06T10:47:52.524092
1701,-0.7730,0.6085,0.3318,0.385,-2.730,22.820,1.00,0.01,0.05,0.45,0.01,2025-06-06T10:47:52.722189
1702,-0.7779,0.6344,0.3538,0.175,-3.325,20.195,2.00,0.00,0.05,0.45,0.00,2025-06-06T10:47:52.722189
1703,-0.7676,0.6398,0.3533,-0.700,-7.000,19.530,2.00,0.01,0.05,0.44,0.00,2025-06-06T10:47:52.722189
1704,-0.7462,0.6617,0.3572,-2.345,-11.585,20.475,0.00,0.00,0.05,0.44,0.01,2025-06-06T10:47:52.722189
1705,-0.6773,0.6793,0.3475,-7.140,-11.375,23.905,2.00,0.00,0.04,0.44,0.00,2025-06-06T10:47:52.722189
1706,-0.6446,0.6759,0.3348,-15.260,-11.305,28.210,1.00,0.01,0.05,0.43,0.00,2025-06-06T10:47:52.722189
1707,-0.6383,0.6666,0.3148,-16.800,-11.340,31.290,0.00,0.00,0.04,0.43,0.00,2025-06-06T10:47:52.722189
1708,-0.6642,0.6510,0.2933,-12.215,-11.760,31.010,0.00,0.01,0.05,0.43,0.00,2025-06-06T10:47:52.722189
1709,-0.6891,0.6334,0.2835,-9.485,-6.335,27.650,0.00,0.00,0.04,0.43,0.00,2025-06-06T10:47:52.722189
1710,-0.7257,0.6451,0.3001,-8.610,-3.850,22.715,2.00,0.01,0.05,0.43,0.00,2025-06-06T10:47:52.722189
1711,-0.7379,0.6388,0.3333,-5.215,-5.670,15.470,3.00,0.01,0.04,0.43,0.00,2025-06-06T10:47:52.722189
1712,-0.7164,0.7139,0.3572,-0.245,-13.545,11.970,1.00,0.00,0.04,0.43,0.00,2025-06-06T10:47:52.722189
1713,-0.7232,0.6564,0.3499,0.455,-19.250,8.820,2.00,0.01,0.04,0.42,0.00,2025-06-06T10:47:52.722189
1714,-0.6978,0.6910,0.3562,0.245,-21.455,6.475,8.00,0.00,0.05,0.43,0.00,2025-06-06T10:47:52.722189
1715,-0.6754,0.7110,0.3309,-0.350,-27.195,6.335,0.00,0.00,0.04,0.42,0.00,2025-06-06T10:47:52.722189
1716,-0.6773,0.6905,0.3045,1.295,-28.700,7.560,3.00,0.01,0.04,0.42,0.00,2025-06-06T10:47:52.922295
1717,-0.6002,0.7120,0.2572,3.010,-24.430,7.140,3.00,0.00,0.04,0.41,0.01,2025-06-06T10:47:52.922295
1718,-0.5768,0.7310,0.2298,5.495,-15.050,8.330,1.00,0.00,0.03,0.41,0.01,2025-06-06T10:47:52.922295
1719,-0.5978,0.7496,0.2567,4.095,-2.625,10.395,2.00,0.00,0.04,0.41,0.00,2025-06-06T10:47:52.922295
1720,-0.5348,0.7657,0.2874,3.815,1.190,15.155,2.00,0.00,0.02,0.41,0.00,2025-06-06T10:47:52.922295
1721,-0.5773,0.7344,0.3070,6.020,1.820,21.875,1.00,0.00,0.03,0.40,0.00,2025-06-06T10:47:52.922295
1722,-0.6080,0.7227,0.3406,6.825,0.595,24.360,2.00,0.01,0.04,0.42,0.00,2025-06-06T10:47:52.922295
1723,-0.6007,0.7091,0.3118,8.085,0.770,24.395,1.00,0.00,0.04,0.41,0.00,2025-06-06T10:47:52.922295
1724,-0.6583,0.6910,0.3070,7.910,6.930,20.965,2.00,0.00,0.05,0.41,0.00,2025-06-06T10:47:52.922295
1725,-0.6876,0.6773,0.3377,4.935,10.325,13.720,4.00,0.01,0.03,0.41,0.00,2025-06-06T10:47:52.922295
1726,-0.6212,0.7232,0.3797,9.345,10.360,8.470,4.00,0.00,0.04,0.39,0.00,2025-06-06T10:47:53.077529
1727,-0.7618,0.6695,0.4446,6.440,-1.085,6.090,2.00,0.00,0.03,0.41,0.00,2025-06-06T10:47:53.077529
1728,-0.6359,0.7183,0.4265,6.720,-13.195,6.860,2.00,0.00,0.03,0.40,0.00,2025-06-06T10:47:53.077529
1729,-0.6032,0.6949,0.3811,7.910,-20.475,10.045,2.00,0.01,0.02,0.41,0.00,2025-06-06T10:47:53.077529
1730,-0.6027,0.6661,0.3099,4.760,-14.840,11.655,2.00,0.00,0.03,0.41,0.00,2025-06-06T10:47:53.077529
1731,-0.5607,0.6559,0.2250,5.460,-4.305,12.110,3.00,0.00,0.03,0.41,0.00,2025-06-06T10:47:53.077529
1732,-0.6446,0.6383,0.2440,5.670,14.105,10.290,0.00,0.01,0.04,0.39,0.00,2025-06-06T10:47:53.077529
1733,-0.6163,0.6832,0.2860,5.740,22.190,10.045,0.00,0.01,0.04,0.40,0.01,2025-06-06T10:47:53.077529
1734,-0.6598,0.6734,0.3372,9.625,21.595,13.300,2.00,0.01,0.04,0.40,0.00,2025-06-06T10:47:53.077529
1735,-0.7125,0.7037,0.4241,10.885,10.395,18.340,1.00,0.01,0.05,0.40,0.00,2025-06-06T10:47:53.077529
1736,-0.6476,0.7310,0.4124,13.685,-6.020,28.000,1.00,0.00,0.05,0.40,0.00,2025-06-06T10:47:53.157595
1737,-0.6549,0.7291,0.3704,15.260,-18.060,35.280,2.00,0.00,0.04,0.40,0.00,2025-06-06T10:47:53.157595
1738,-0.5963,0.7193,0.2845,16.765,-16.170,41.965,0.00,0.01,0.03,0.39,0.00,2025-06-06T10:47:53.157595
1739,-0.5378,0.7115,0.2338,15.330,-4.760,46.340,1.00,0.01,0.03,0.39,0.00,2025-06-06T10:47:53.157595
1740,-0.5363,0.7388,0.2191,21.385,12.985,48.230,2.00,0.00,0.03,0.40,0.00,2025-06-06T10:47:53.157595
1741,-0.5588,0.7310,0.2528,11.690,26.670,47.670,0.00,0.01,0.03,0.39,0.00,2025-06-06T10:47:53.157595
1742,-0.6207,0.7579,0.3387,11.515,28.630,47.740,1.00,0.01,0.04,0.40,0.00,2025-06-06T10:47:53.157595
1743,-0.5724,0.7462,0.3884,13.020,11.585,48.930,2.00,0.00,0.03,0.41,0.00,2025-06-06T10:47:53.157595
1744,-0.5680,0.7354,0.3470,11.970,-1.715,47.425,0.00,0.00,0.04,0.41,0.00,2025-06-06T10:47:53.157595
1745,-0.5104,0.7266,0.2713,11.935,-6.300,41.440,0.00,0.01,0.04,0.42,0.01,2025-06-06T10:47:53.157595
1746,-0.5168,0.7222,0.2460,8.120,-4.375,33.950,1.00,0.00,0.04,0.41,0.00,2025-06-06T10:47:53.157595
1747,-0.4607,0.7276,0.2352,6.160,-5.040,28.210,5.00,0.01,0.03,0.41,0.00,2025-06-06T10:47:53.157595
1748,-0.4817,0.7476,0.2625,4.690,-6.160,22.015,1.00,0.01,0.03,0.42,0.00,2025-06-06T10:47:53.157595
1749,-0.4958,0.7701,0.2640,0.840,-7.630,14.105,2.00,0.00,0.04,0.41,0.00,2025-06-06T10:47:53.274014
1750,-0.5236,0.7788,0.2699,-2.450,-9.065,7.595,3.00,0.01,0.05,0.42,0.00,2025-06-06T10:47:53.274014
1751,-0.5051,0.7910,0.2621,-5.075,-10.360,2.765,1.00,0.01,0.04,0.42,0.01,2025-06-06T10:47:53.274014
1752,-0.5231,0.7915,0.2689,-6.195,-8.155,-2.135,4.00,0.01,0.03,0.41,0.01,2025-06-06T10:47:53.274014
1753,-0.5446,0.7940,0.2679,-8.540,-6.930,-5.740,2.00,0.00,0.04,0.40,0.00,2025-06-06T10:47:53.274014
1754,-0.5597,0.7950,0.2786,-8.330,-7.700,-8.855,2.00,0.00,0.04,0.41,0.00,2025-06-06T10:47:53.274014
1755,-0.6056,0.8140,0.2943,-9.240,-10.290,-12.950,2.00,0.00,0.04,0.41,0.00,2025-06-06T10:47:53.274014
1756,-0.6041,0.8223,0.2987,-10.395,-13.685,-15.435,0.00,0.01,0.04,0.41,0.01,2025-06-06T10:47:53.515044
1757,-0.5910,0.8140,0.2874,-9.800,-18.865,-15.400,0.00,0.00,0.04,0.42,0.01,2025-06-06T10:47:53.515044
1758,-0.5397,0.8120,0.2596,-7.840,-20.930,-13.090,2.00,0.00,0.04,0.42,0.00,2025-06-06T10:47:53.515044
1759,-0.5417,0.8091,0.2377,-6.825,-17.955,-10.465,0.00,0.01,0.02,0.42,0.00,2025-06-06T10:47:53.515044
1760,-0.5007,0.7989,0.2079,-5.915,-10.640,-7.245,0.00,0.01,0.04,0.42,0.00,2025-06-06T10:47:53.515044
1761,-0.5109,0.7945,0.2196,-4.305,-0.735,-3.850,2.00,0.00,0.04,0.43,0.00,2025-06-06T10:47:53.515044
1762,-0.5524,0.7915,0.2518,-3.535,3.955,-1.750,2.00,0.01,0.04,0.43,0.00,2025-06-06T10:47:53.515044
1763,-0.5368,0.8003,0.2835,-1.610,4.130,0.455,1.00,0.01,0.04,0.42,0.00,2025-06-06T10:47:53.516035
1764,-0.5836,0.7935,0.3001,-0.175,1.925,2.310,2.00,0.00,0.04,0.42,0.00,2025-06-06T10:47:53.516035
1765,-0.5710,0.7906,0.2991,2.730,-2.205,3.010,0.00,0.00,0.05,0.42,0.00,2025-06-06T10:47:53.516035
1766,-0.5656,0.7881,0.2830,4.655,-0.805,2.800,2.00,0.00,0.04,0.42,0.00,2025-06-06T10:47:53.516035
1767,-0.5700,0.7896,0.2533,4.270,3.850,1.330,3.00,0.00,0.04,0.42,0.00,2025-06-06T10:47:53.516035
1768,-0.6032,0.7974,0.2811,5.215,7.455,-0.455,0.00,0.00,0.04,0.42,0.00,2025-06-06T10:47:53.516035
1769,-0.6266,0.8184,0.3182,7.735,3.920,-1.715,1.00,0.00,0.04,0.42,0.00,2025-06-06T10:47:53.516035
1770,-0.6378,0.8433,0.3304,8.295,-0.245,-1.050,0.00,0.00,0.05,0.42,0.00,2025-06-06T10:47:53.516035
1771,-0.6417,0.8462,0.3113,10.220,-1.330,-0.490,0.00,0.00,0.04,0.42,0.00,2025-06-06T10:47:53.516035
1772,-0.6451,0.8545,0.2845,14.070,1.435,0.875,2.00,0.00,0.04,0.42,0.00,2025-06-06T10:47:53.516035
1773,-0.7052,0.8355,0.2464,16.310,15.120,1.190,1.00,0.00,0.04,0.41,0.00,2025-06-06T10:47:53.516035
1774,-0.7647,0.8711,0.3357,20.475,25.025,2.870,0.00,0.00,0.05,0.42,0.00,2025-06-06T10:47:53.516035
1775,-0.7842,0.9052,0.4177,30.065,22.120,17.115,2.00,0.01,0.05,0.41,0.01,2025-06-06T10:47:53.741806
1776,-0.6554,0.9077,0.4734,81.095,1.715,39.830,3.00,0.01,0.06,0.40,0.00,2025-06-06T10:47:53.742058
1777,-0.5480,0.9355,0.3680,86.240,-18.480,43.505,0.00,0.01,0.06,0.40,0.01,2025-06-06T10:47:53.742058
1778,-0.4519,0.8740,0.2352,73.745,-20.510,58.450,0.00,0.01,0.08,0.40,0.00,2025-06-06T10:47:53.742058
1779,-0.3152,0.8389,0.1020,52.080,-4.025,68.390,5.00,0.01,0.07,0.41,0.00,2025-06-06T10:47:53.742058
1780,-0.2508,0.7652,0.0205,36.855,20.755,74.970,0.00,0.01,0.08,0.42,0.01,2025-06-06T10:47:53.742058
1781,-0.3645,0.7491,0.1137,38.885,42.910,79.240,2.00,0.01,0.10,0.40,0.00,2025-06-06T10:47:53.742058
1782,-0.3416,0.7501,0.2074,36.050,46.900,82.530,0.00,0.00,0.10,0.40,0.00,2025-06-06T10:47:53.742058
1783,-0.4568,0.6974,0.3118,35.385,38.990,81.445,0.00,0.00,0.11,0.40,0.00,2025-06-06T10:47:53.742058
1784,-0.4802,0.6598,0.3699,31.675,25.165,78.435,1.00,0.00,0.14,0.40,0.00,2025-06-06T10:47:53.742058
1785,-0.4885,0.6534,0.3479,27.650,2.800,72.030,2.00,0.00,0.14,0.41,0.01,2025-06-06T10:47:53.742058
1786,-0.4207,0.7013,0.2323,22.925,-12.460,66.500,1.00,0.00,0.17,0.41,0.01,2025-06-06T10:47:53.742058
1787,-0.3328,0.7164,0.1303,20.055,-17.360,59.710,1.00,0.00,0.19,0.40,0.00,2025-06-06T10:47:53.742058
1788,-0.2894,0.7505,0.0527,14.490,-11.130,51.625,2.00,0.00,0.20,0.40,0.00,2025-06-06T10:47:53.742058
1789,-0.2679,0.7989,0.0366,7.315,-0.245,45.710,1.00,0.00,0.22,0.40,0.00,2025-06-06T10:47:53.742058
1790,-0.2664,0.8496,0.0688,0.630,6.300,41.230,1.00,0.00,0.22,0.40,0.00,2025-06-06T10:47:53.742058
1791,-0.2948,0.8764,0.0800,-6.090,4.585,38.500,0.00,0.00,0.24,0.40,0.00,2025-06-06T10:47:53.742058
1792,-0.3226,0.9213,0.0786,-8.015,-0.105,36.750,1.00,0.00,0.24,0.40,0.00,2025-06-06T10:47:53.742058
1793,-0.2743,0.9633,0.0342,-10.815,-1.785,34.440,2.00,0.00,0.23,0.40,0.00,2025-06-06T10:47:53.792896
1794,-0.3572,1.0053,0.0932,-13.650,-0.840,32.165,0.00,0.00,0.22,0.40,0.00,2025-06-06T10:47:53.792896
1795,-0.1723,1.0282,0.0561,-8.015,-2.975,34.720,1.00,0.00,0.21,0.40,0.00,2025-06-06T10:47:53.792896
1796,-0.2503,1.0263,0.0756,-4.305,1.120,35.000,2.00,0.01,0.21,0.40,0.00,2025-06-06T10:47:53.792896
1797,-0.2601,1.0887,0.0874,3.010,-1.680,31.010,0.00,0.00,0.21,0.40,0.01,2025-06-06T10:47:53.960303
1798,-0.3626,1.0975,0.0952,9.100,-1.050,21.385,1.00,0.00,0.19,0.40,0.01,2025-06-06T10:47:53.960303
1799,-0.3099,1.1409,0.1264,15.645,-4.025,10.500,2.00,0.01,0.19,0.40,0.00,2025-06-06T10:47:53.960303
1800,-0.3504,1.1727,0.1664,22.365,-9.205,0.315,3.00,0.00,0.18,0.40,0.00,2025-06-06T10:47:53.960303
1801,-0.2884,1.1873,0.1444,15.015,-16.170,-7.385,0.00,0.01,0.18,0.40,0.00,2025-06-06T10:47:53.960303
1802,-0.1645,1.1946,0.0503,14.420,-23.450,-17.780,1.00,0.01,0.16,0.40,0.00,2025-06-06T10:47:53.960303
1803,-0.1283,1.2137,-0.0088,17.780,-20.160,-31.150,5.00,0.00,0.15,0.39,0.01,2025-06-06T10:47:53.960303
1804,0.0908,1.2102,-0.1005,13.965,-3.710,-48.965,2.00,0.00,0.15,0.39,0.00,2025-06-06T10:47:53.960303
1805,0.2933,1.0731,-0.0771,15.680,25.655,-79.450,2.00,0.00,0.14,0.39,0.00,2025-06-06T10:47:53.960303
1806,0.7096,0.9618,-0.0429,12.425,48.790,-102.830,0.00,0.00,0.13,0.39,0.01,2025-06-06T10:47:53.960303
1807,1.1141,0.3782,0.3728,-26.775,72.835,-126.770,2.00,0.01,0.13,0.38,0.01,2025-06-06T10:47:53.960303
1808,2.0311,-0.2372,0.6944,-53.235,72.975,-153.615,1.00,0.00,0.12,0.39,0.01,2025-06-06T10:47:53.960303
1809,2.2463,-0.8359,1.2800,-92.715,51.660,-193.165,0.00,0.00,0.11,0.39,0.00,2025-06-06T10:47:53.960303
1810,1.9237,-1.6699,0.9418,-118.755,18.900,-294.350,1.00,0.00,0.12,0.39,0.00,2025-06-06T10:47:54.054539
1811,1.0741,-1.8305,-0.2147,-195.055,5.705,-396.865,3.00,0.01,0.12,0.39,0.00,2025-06-06T10:47:54.054539
1812,-0.9941,-0.8452,-1.0150,18.165,46.935,-528.360,2.00,0.00,0.11,0.39,0.00,2025-06-06T10:47:54.054539
1813,-2.7152,-0.0708,-0.4543,-2.695,43.435,-649.320,0.00,0.01,0.11,0.39,0.00,2025-06-06T10:47:54.054539
1814,-5.3592,0.1005,0.9809,-72.765,-21.210,-703.920,2.00,0.00,0.10,0.39,0.00,2025-06-06T10:47:54.054539
1815,-4.5379,-0.7257,1.0082,-113.960,-38.955,-652.855,4.00,0.00,0.10,0.39,0.00,2025-06-06T10:47:54.054539
1816,-2.4405,-0.2054,1.1893,-73.430,-147.875,-510.300,1.00,0.00,0.10,0.39,0.01,2025-06-06T10:47:54.054539
1817,-0.8686,-0.5685,-0.8945,-7.770,-89.740,-287.315,4.00,0.00,0.10,0.39,0.00,2025-06-06T10:47:54.253225
1818,-1.0643,0.5944,-0.6456,35.700,36.645,-28.070,3.00,0.01,0.10,0.39,0.01,2025-06-06T10:47:54.253225
1819,-1.7182,0.7740,-0.7627,28.455,141.680,93.695,0.00,0.01,0.10,0.38,0.00,2025-06-06T10:47:54.253225
1820,-2.9827,0.9457,-0.2220,-12.915,41.755,86.030,3.00,0.00,0.11,0.37,0.00,2025-06-06T10:47:54.253225
1821,-2.1384,0.3343,-0.3353,52.010,-3.675,70.420,0.00,0.00,0.10,0.37,0.01,2025-06-06T10:47:54.253225
1822,-1.5074,0.5617,0.1279,41.685,-29.505,55.300,1.00,0.00,0.10,0.37,0.00,2025-06-06T10:47:54.253225
1823,-0.7476,0.6730,-0.0122,31.360,-102.725,22.050,1.00,0.00,0.10,0.37,0.00,2025-06-06T10:47:54.253225
1824,-0.2733,0.4534,-0.2396,27.265,-10.500,27.195,3.00,0.00,0.09,0.37,0.00,2025-06-06T10:47:54.253225
1825,-0.6778,0.3494,0.3216,16.835,18.585,26.040,0.00,0.00,0.10,0.36,0.01,2025-06-06T10:47:54.253225
1826,-0.6471,0.1942,0.0215,0.420,29.015,38.290,2.00,0.00,0.09,0.36,0.00,2025-06-06T10:47:54.253225
1827,-1.1244,0.1747,0.0839,15.190,22.085,42.105,5.00,0.00,0.09,0.36,0.00,2025-06-06T10:47:54.253225
1828,-1.2825,0.0307,0.1840,5.005,0.070,29.120,1.00,0.01,0.08,0.36,0.01,2025-06-06T10:47:54.253225
1829,-1.1019,-0.0620,0.1854,10.990,-0.560,5.355,1.00,0.00,0.09,0.36,0.00,2025-06-06T10:47:54.253225
1830,-1.0458,-0.0400,0.4607,0.245,4.305,-15.120,3.00,0.00,0.09,0.36,0.00,2025-06-06T10:47:54.253225
1831,-0.8106,0.0278,0.5309,-6.265,-23.310,-19.390,0.00,0.01,0.08,0.35,0.01,2025-06-06T10:47:54.253225
1832,-0.5485,0.2557,0.2416,0.910,-44.695,-5.040,2.00,0.01,0.08,0.35,0.00,2025-06-06T10:47:54.358101
1833,-0.6364,0.2743,0.1166,5.810,-46.830,13.965,3.00,0.01,0.08,0.35,0.00,2025-06-06T10:47:54.358101
1834,-0.7340,0.2191,-0.2298,4.585,-25.445,22.575,1.00,0.00,0.08,0.35,0.00,2025-06-06T10:47:54.358101
1835,-1.0160,0.1054,-0.0254,1.225,16.100,16.205,1.00,0.00,0.08,0.35,0.01,2025-06-06T10:47:54.358101
1836,-1.2688,0.1103,0.1952,-5.145,31.920,5.495,4.00,0.01,0.07,0.35,0.00,2025-06-06T10:47:54.358101
1837,-1.2908,0.1659,0.3538,-7.280,22.995,0.840,1.00,0.00,0.07,0.35,0.00,2025-06-06T10:47:54.358101
1838,-1.3142,0.2835,0.4680,-7.525,-9.380,6.160,2.00,0.01,0.07,0.35,0.01,2025-06-06T10:47:54.358101
1839,-1.1102,0.2889,0.2503,-2.975,-44.660,21.140,1.00,0.01,0.07,0.35,0.00,2025-06-06T10:47:54.358101
1840,-1.0897,0.3245,0.2245,2.695,-54.215,32.970,0.00,0.00,0.07,0.35,0.00,2025-06-06T10:47:54.504878
1841,-1.0204,0.2137,0.0488,2.345,-52.395,39.235,2.00,0.00,0.07,0.34,0.00,2025-06-06T10:47:54.504878
1842,-1.0019,0.1562,0.0137,8.540,-26.390,37.905,6.00,0.00,0.07,0.34,0.01,2025-06-06T10:47:54.504878
1843,-1.0087,0.1850,0.1127,7.420,-8.540,33.880,0.00,0.00,0.06,0.34,0.00,2025-06-06T10:47:54.504878
1844,-0.9335,0.2333,0.1625,6.405,0.805,34.895,1.00,0.01,0.07,0.34,0.00,2025-06-06T10:47:54.504878
1845,-0.9272,0.2342,0.2094,9.205,-1.050,38.220,1.00,0.00,0.06,0.33,0.00,2025-06-06T10:47:54.504878
1846,-0.9252,0.2728,0.2059,11.795,-8.120,40.600,1.00,0.00,0.06,0.33,0.00,2025-06-06T10:47:54.504878
1847,-0.9755,0.2416,0.2118,11.900,-13.300,41.335,2.00,0.01,0.07,0.33,0.01,2025-06-06T10:47:54.504878
1848,-1.0199,0.2562,0.2259,12.530,-20.720,40.915,0.00,0.00,0.06,0.33,0.01,2025-06-06T10:47:54.605743
1849,-0.9945,0.2420,0.2191,9.380,-28.525,41.545,2.00,0.00,0.07,0.33,0.00,2025-06-06T10:47:54.605743
1850,-0.9921,0.2167,0.1708,9.625,-25.515,41.230,1.00,0.00,0.06,0.33,0.00,2025-06-06T10:47:54.605743
1851,-0.9135,0.2342,0.1215,6.650,-14.770,40.530,1.00,0.01,0.06,0.33,0.00,2025-06-06T10:47:54.605743
1852,-0.8799,0.3035,0.1840,4.235,-1.540,44.380,2.00,0.00,0.06,0.33,0.01,2025-06-06T10:47:54.605743
1853,-0.8818,0.3279,0.3040,2.450,-5.495,50.120,2.00,0.01,0.06,0.33,0.00,2025-06-06T10:47:54.605743
1854,-0.8603,0.3636,0.2889,0.595,-15.260,60.865,0.00,0.01,0.06,0.33,0.00,2025-06-06T10:47:54.605743
1855,-0.9506,0.3816,0.3357,-8.785,-28.070,67.235,3.00,0.00,0.06,0.33,0.00,2025-06-06T10:47:54.605743
1856,-0.9462,0.2879,0.2508,0.805,-35.805,70.665,1.00,0.01,0.07,0.34,0.00,2025-06-06T10:47:54.605743
1857,-0.9345,0.3284,0.2435,7.175,-31.675,67.515,2.00,0.01,0.06,0.33,0.01,2025-06-06T10:47:54.605743
1858,-0.8930,0.3489,0.2074,2.660,-19.110,64.820,2.00,0.01,0.06,0.33,0.00,2025-06-06T10:47:54.780854
1859,-0.8228,0.4163,0.2484,3.570,-13.265,62.020,2.00,0.01,0.06,0.33,0.01,2025-06-06T10:47:54.781824
1860,-0.7632,0.4900,0.2650,1.155,-13.160,64.995,0.00,0.01,0.06,0.33,0.00,2025-06-06T10:47:54.781824
1861,-0.7393,0.4939,0.2884,1.995,-18.830,67.165,6.00,0.00,0.05,0.33,0.01,2025-06-06T10:47:54.781824
1862,-0.7242,0.5109,0.2469,3.920,-21.630,69.265,2.00,0.00,0.06,0.32,0.00,2025-06-06T10:47:54.781824
1863,-0.7091,0.4695,0.1879,4.095,-16.450,68.355,0.00,0.01,0.05,0.32,0.01,2025-06-06T10:47:54.781824
1864,-0.7837,0.4802,0.1713,3.955,-1.925,61.985,3.00,0.00,0.05,0.32,0.00,2025-06-06T10:47:54.781824
1865,-0.8438,0.4758,0.2328,-0.350,10.710,54.215,2.00,0.00,0.06,0.32,0.00,2025-06-06T10:47:54.781824
1866,-0.8589,0.5417,0.3314,2.765,9.870,42.875,2.00,0.00,0.05,0.32,0.00,2025-06-06T10:47:54.781824
1867,-0.8638,0.5871,0.4182,-1.750,-3.395,40.530,3.00,0.00,0.05,0.32,0.00,2025-06-06T10:47:54.781824
1868,-0.7603,0.6285,0.4636,-3.255,-23.310,44.450,1.00,0.00,0.06,0.32,0.00,2025-06-06T10:47:54.781824
1869,-0.6212,0.6242,0.3152,-1.540,-37.240,54.915,3.00,0.01,0.06,0.32,0.00,2025-06-06T10:47:54.781824
1870,-0.5973,0.5919,0.1586,3.535,-25.690,60.900,1.00,0.00,0.05,0.32,0.00,2025-06-06T10:47:54.781824
1871,-0.6608,0.5514,0.0913,2.100,0.630,59.290,2.00,0.00,0.06,0.32,0.00,2025-06-06T10:47:54.781824
1872,-0.7310,0.5583,0.1757,-0.525,23.730,52.080,0.00,0.01,0.05,0.32,0.00,2025-06-06T10:47:54.970092
1873,-0.8755,0.5890,0.3650,-0.420,23.765,46.900,1.00,0.00,0.06,0.32,0.00,2025-06-06T10:47:54.970092
1874,-0.8452,0.6002,0.4577,1.505,-1.120,44.485,0.00,0.01,0.05,0.32,0.00,2025-06-06T10:47:54.970092
1875,-0.8696,0.6173,0.4538,6.720,-26.670,45.990,5.00,0.01,0.05,0.32,0.00,2025-06-06T10:47:54.970092
1876,-0.7876,0.5758,0.3284,8.750,-40.215,47.390,0.00,0.01,0.05,0.32,0.00,2025-06-06T10:47:55.145566
1877,-0.7115,0.6007,0.2089,11.725,-29.435,48.615,3.00,0.00,0.05,0.32,0.00,2025-06-06T10:47:55.145566
1878,-0.6134,0.5934,0.1235,11.585,-8.225,52.255,1.00,0.00,0.05,0.32,0.00,2025-06-06T10:47:55.145566
1879,-0.6778,0.6583,0.2054,11.270,12.915,56.070,4.00,0.01,0.05,0.32,0.00,2025-06-06T10:47:55.145566
1880,-0.6690,0.6251,0.2103,13.475,17.290,59.255,0.00,0.00,0.05,0.32,0.00,2025-06-06T10:47:55.145566
1881,-0.8306,0.6627,0.3523,16.765,6.090,59.395,2.00,0.00,0.05,0.33,0.01,2025-06-06T10:47:55.145566
1882,-0.7930,0.6173,0.3148,17.465,-7.595,57.680,0.00,0.00,0.06,0.33,0.00,2025-06-06T10:47:55.145566
1883,-0.7959,0.5988,0.2967,22.715,-13.930,53.480,3.00,0.00,0.05,0.34,0.00,2025-06-06T10:47:55.145566
1884,-0.7422,0.6461,0.2601,20.965,-11.410,48.160,0.00,0.00,0.05,0.35,0.00,2025-06-06T10:47:55.145566
1885,-0.6778,0.6149,0.2294,17.255,-4.900,42.350,0.00,0.00,0.05,0.36,0.00,2025-06-06T10:47:55.145566
1886,-0.6827,0.6886,0.2362,15.155,-1.260,39.375,2.00,0.01,0.05,0.38,0.00,2025-06-06T10:47:55.145566
1887,-0.6598,0.6930,0.2513,11.515,-5.215,37.100,0.00,0.01,0.04,0.39,0.00,2025-06-06T10:47:55.145566
1888,-0.7066,0.7291,0.2723,14.140,-17.710,38.885,1.00,0.00,0.05,0.41,0.01,2025-06-06T10:47:55.146537
1889,-0.6334,0.7130,0.2167,16.450,-25.060,41.300,0.00,0.00,0.05,0.43,0.01,2025-06-06T10:47:55.146537
1890,-0.5890,0.7159,0.1718,27.510,-21.945,48.125,0.00,0.00,0.05,0.44,0.00,2025-06-06T10:47:55.146537
1891,-0.5319,0.7408,0.0966,21.245,-1.540,41.195,0.00,0.00,0.06,0.45,0.00,2025-06-06T10:47:55.146537
1892,-0.5192,0.7608,0.1669,10.955,12.880,41.440,0.00,0.01,0.05,0.45,0.00,2025-06-06T10:47:55.146537
1893,-0.5773,0.7754,0.2245,8.820,14.420,44.030,3.00,0.00,0.05,0.46,0.01,2025-06-06T10:47:55.146537
1894,-0.5919,0.7935,0.2835,15.050,3.885,47.600,5.00,0.00,0.05,0.47,0.00,2025-06-06T10:47:55.321915
1895,-0.6725,0.7530,0.2850,21.560,-5.915,49.910,0.00,0.00,0.05,0.48,0.01,2025-06-06T10:47:55.321915
1896,-0.6525,0.7476,0.2450,23.870,-11.795,77.735,2.00,0.00,0.05,0.49,0.00,2025-06-06T10:47:55.321915
1897,-0.6154,0.7779,0.2133,22.260,-7.560,41.650,2.00,0.01,0.05,0.51,0.01,2025-06-06T10:47:55.321915
1898,-0.5192,0.7906,0.1586,20.125,-1.190,40.740,0.00,0.01,0.05,0.52,0.01,2025-06-06T10:47:55.321915
1899,-0.4919,0.8140,0.1757,16.275,3.465,42.140,2.00,0.00,0.05,0.54,0.01,2025-06-06T10:47:55.321915
1900,-0.4392,0.8198,0.1664,15.505,7.910,43.785,2.00,0.00,0.06,0.55,0.01,2025-06-06T10:47:55.321915
1901,-0.4704,0.7901,0.1932,13.090,8.015,44.485,8.00,0.00,0.05,0.55,0.00,2025-06-06T10:47:55.321915
1902,-0.4982,0.7588,0.1942,14.280,6.685,41.720,1.00,0.00,0.06,0.56,0.00,2025-06-06T10:47:55.321915
1903,-0.5251,0.7696,0.2245,13.930,7.070,36.645,2.00,0.00,0.05,0.56,0.00,2025-06-06T10:47:55.321915
1904,-0.5392,0.7715,0.2303,9.100,6.195,34.195,1.00,0.00,0.06,0.57,0.00,2025-06-06T10:47:55.321915
1905,-0.5104,0.7749,0.2508,9.870,2.065,33.670,1.00,0.00,0.06,0.57,0.00,2025-06-06T10:47:55.321915
1906,-0.5192,0.7862,0.2323,10.395,-2.765,34.755,4.00,0.00,0.06,0.59,0.00,2025-06-06T10:47:55.321915
1907,-0.4680,0.7940,0.1976,9.905,-5.810,35.875,0.00,0.00,0.06,0.60,0.00,2025-06-06T10:47:55.321915
1908,-0.5163,0.7950,0.1786,9.205,-5.740,35.770,1.00,0.00,0.06,0.61,0.00,2025-06-06T10:47:55.321915
1909,-0.4743,0.8233,0.1659,8.190,-4.865,35.910,2.00,0.00,0.05,0.62,0.00,2025-06-06T10:47:55.321915
1910,-0.5217,0.8403,0.2123,5.985,-3.220,37.870,2.00,0.01,0.05,0.64,0.01,2025-06-06T10:47:55.321915
1911,-0.4534,0.8735,0.2118,6.195,-7.910,44.765,0.00,0.00,0.06,0.64,0.01,2025-06-06T10:47:55.321915
1912,-0.3650,0.8764,0.1723,10.290,-9.310,57.575,2.00,0.01,0.05,0.65,0.00,2025-06-06T10:47:55.491477
1913,-0.3611,0.9028,0.1591,15.890,-3.710,68.110,3.00,0.01,0.05,0.67,0.00,2025-06-06T10:47:55.491477
1914,-0.3294,0.9184,0.0800,14.525,5.215,77.945,1.00,0.00,0.05,0.67,0.00,2025-06-06T10:47:55.491477
1915,-0.3860,0.8686,0.1142,21.945,12.285,85.330,2.00,0.00,0.05,0.67,0.00,2025-06-06T10:47:55.491477
1916,-0.3884,1.0043,0.1444,23.485,13.405,91.805,0.00,0.01,0.05,0.68,0.00,2025-06-06T10:47:55.491477
1917,-0.5012,0.9174,0.2064,27.055,11.095,91.805,1.00,0.00,0.05,0.68,0.00,2025-06-06T10:47:55.491477
1918,-0.5061,0.9843,0.2518,30.555,-6.020,90.090,2.00,0.01,0.05,0.69,0.01,2025-06-06T10:47:55.491477
1919,-0.4646,0.9477,0.3611,40.670,-11.760,86.205,1.00,0.00,0.04,0.70,0.00,2025-06-06T10:47:55.491477
1920,-0.3782,1.0570,0.2708,39.410,-15.365,84.770,1.00,0.01,0.05,0.72,0.00,2025-06-06T10:47:55.491477
1921,-0.2391,1.0175,0.1757,41.965,-19.565,82.110,1.00,0.00,0.05,0.74,0.00,2025-06-06T10:47:55.491477
1922,-0.1254,1.0902,0.1591,43.190,-21.140,79.450,0.00,0.00,0.05,0.74,0.00,2025-06-06T10:47:55.491477
1923,-0.0068,1.0726,0.0254,40.635,-18.375,77.770,2.00,0.00,0.05,0.74,0.00,2025-06-06T10:47:55.491477
1924,0.1693,1.1624,-0.0810,49.560,-9.765,61.845,2.00,0.01,0.05,0.76,0.00,2025-06-06T10:47:55.491477
1925,0.3318,1.1951,-0.2089,46.165,9.905,41.545,0.00,0.01,0.05,0.76,0.01,2025-06-06T10:47:55.594297
1926,0.7144,1.2249,-0.2904,35.455,28.420,4.760,1.00,0.00,0.05,0.75,0.01,2025-06-06T10:47:55.594297
1927,1.5206,0.8838,-0.3567,17.465,64.715,-29.120,3.00,0.00,0.05,0.75,0.00,2025-06-06T10:47:55.594297
1928,2.1091,0.2767,-0.3367,-8.960,91.385,-89.705,4.00,0.01,0.05,0.76,0.01,2025-06-06T10:47:55.594297
1929,2.4146,-1.2381,-0.1767,-21.140,175.315,-259.770,1.00,0.01,0.05,0.76,0.00,2025-06-06T10:47:55.594297
1930,1.5348,-1.7641,0.7022,-112.070,217.385,-401.660,2.00,0.01,0.05,0.76,0.01,2025-06-06T10:47:55.594297
1931,0.5866,-2.3082,0.9165,-100.310,227.570,-582.610,0.00,0.00,0.05,0.75,0.00,2025-06-06T10:47:55.594297
1932,-1.1331,-1.3859,0.3157,40.635,101.010,-788.795,1.00,0.00,0.05,0.76,0.00,2025-06-06T10:47:55.594297
1933,-3.7156,0.1352,0.7608,10.220,-96.075,-890.365,2.00,0.00,0.05,0.75,0.00,2025-06-06T10:47:55.686456
1934,-4.3261,0.8901,0.7745,-111.370,-358.890,-898.310,1.00,0.01,0.05,0.75,0.00,2025-06-06T10:47:55.686456
1935,-1.9574,-0.0210,-0.5827,-102.200,-416.150,-776.580,1.00,0.01,0.05,0.75,0.00,2025-06-06T10:47:55.686456
1936,-0.5836,-1.5655,-1.3571,-67.445,-192.325,-592.410,1.00,0.01,0.06,0.74,0.00,2025-06-06T10:47:55.686456
1937,-0.0644,-0.3953,-0.5080,-74.970,177.870,-262.360,0.00,0.00,0.06,0.72,0.00,2025-06-06T10:47:55.686456
1938,-1.3464,-0.1586,-0.2523,-109.795,379.855,3.570,0.00,0.00,0.06,0.70,0.00,2025-06-06T10:47:55.686456
1939,-2.9944,0.3260,0.8037,-63.000,260.645,135.450,1.00,0.00,0.06,0.68,0.01,2025-06-06T10:47:55.686456
1940,-2.9085,0.5173,0.2381,-21.770,-12.250,194.635,0.00,0.00,0.06,0.67,0.00,2025-06-06T10:47:55.788325
1941,-2.9631,0.0054,0.1547,20.405,-152.390,135.730,3.00,0.01,0.06,0.66,0.00,2025-06-06T10:47:55.788325
1942,-2.1174,-0.7310,-0.8091,-5.040,-124.635,6.370,2.00,0.00,0.06,0.65,0.01,2025-06-06T10:47:55.788325
1943,-1.1307,-0.1625,0.1322,-14.280,-38.955,-43.050,2.00,0.01,0.06,0.65,0.01,2025-06-06T10:47:55.788325
1944,-0.8979,-0.0678,0.1327,-13.895,41.475,-84.840,0.00,0.00,0.06,0.65,0.01,2025-06-06T10:47:55.788325
1945,-0.6554,0.2460,0.5578,2.765,21.560,-55.335,1.00,0.00,0.06,0.64,0.00,2025-06-06T10:47:55.788325
1946,-0.8096,0.3997,0.3084,8.015,-8.960,-10.780,0.00,0.00,0.05,0.64,0.00,2025-06-06T10:47:55.788325
1947,-0.7725,0.4660,-0.0654,4.340,-29.155,40.670,1.00,0.00,0.06,0.63,0.01,2025-06-06T10:47:55.891447
1948,-1.0946,0.2040,-0.1337,3.640,-14.840,70.980,3.00,0.00,0.05,0.61,0.00,2025-06-06T10:47:55.891447
1949,-1.3913,-0.3440,0.2020,-6.125,7.910,59.955,5.00,0.01,0.05,0.60,0.00,2025-06-06T10:47:55.891447
1950,-1.0882,-0.1825,0.1430,1.085,9.520,51.870,2.00,0.01,0.05,0.59,0.00,2025-06-06T10:47:55.891447
1951,-1.2029,-0.1581,0.4548,-3.255,17.745,33.915,2.00,0.00,0.06,0.58,0.01,2025-06-06T10:47:55.891447
1952,-1.2005,0.1054,0.4158,-8.610,1.505,25.340,0.00,0.00,0.05,0.58,0.00,2025-06-06T10:47:55.891447
1953,-1.1414,0.2025,0.3367,-9.485,-21.735,30.660,0.00,0.01,0.05,0.57,0.00,2025-06-06T10:47:55.891447
1954,-1.1556,0.2547,0.2572,-7.525,-61.145,36.785,2.00,0.00,0.05,0.57,0.00,2025-06-06T10:47:55.891447
1955,-1.1375,0.2664,0.1176,-6.825,-78.645,41.650,3.00,0.01,0.04,0.56,0.00,2025-06-06T10:47:56.030806
1956,-1.0555,0.1610,0.0171,0.455,-78.400,41.615,0.00,0.01,0.05,0.55,0.01,2025-06-06T10:47:56.030806
1957,-1.0619,0.0956,-0.0224,5.145,-49.420,35.630,1.00,0.01,0.05,0.55,0.01,2025-06-06T10:47:56.030806
1958,-0.9687,0.1005,0.0254,3.535,-14.525,34.965,0.00,0.01,0.05,0.54,0.00,2025-06-06T10:47:56.030806
1959,-1.0258,0.1806,0.1913,2.905,7.455,39.760,1.00,0.01,0.05,0.52,0.01,2025-06-06T10:47:56.030806
1960,-0.9828,0.2308,0.3035,2.415,3.570,49.560,4.00,0.00,0.05,0.51,0.00,2025-06-06T10:47:56.030806
1961,-0.9931,0.2430,0.2952,8.750,-13.090,59.080,6.00,0.00,0.03,0.51,0.00,2025-06-06T10:47:56.030806
1962,-1.0546,0.2391,0.3143,11.270,-25.305,65.135,0.00,0.00,0.04,0.51,0.00,2025-06-06T10:47:56.030806
1963,-1.0424,0.1845,0.2645,13.405,-36.260,65.345,1.00,0.01,0.05,0.51,0.00,2025-06-06T10:47:56.124779
1964,-1.0516,0.1562,0.2074,13.125,-36.225,59.290,0.00,0.00,0.05,0.50,0.00,2025-06-06T10:47:56.124779
1965,-0.9931,0.1142,0.1484,10.605,-22.925,52.745,2.00,0.01,0.05,0.49,0.00,2025-06-06T10:47:56.124779
1966,-0.8926,0.1889,0.1469,12.390,-7.875,46.760,0.00,0.00,0.05,0.48,0.00,2025-06-06T10:47:56.124779
1967,-0.8725,0.2460,0.1820,8.050,-0.315,48.755,0.00,0.01,0.05,0.48,0.01,2025-06-06T10:47:56.124779
1968,-0.8789,0.2298,0.2367,9.415,-2.800,50.925,0.00,0.00,0.05,0.48,0.00,2025-06-06T10:47:56.124779
1969,-0.9218,0.2611,0.2694,11.130,-12.880,51.030,2.00,0.00,0.05,0.48,0.00,2025-06-06T10:47:56.124779
1970,-0.9326,0.2357,0.2528,9.660,-21.630,49.070,0.00,0.00,0.05,0.47,0.00,2025-06-06T10:47:56.124779
1971,-0.9443,0.1845,0.1835,12.285,-23.345,43.645,1.00,0.00,0.05,0.47,0.00,2025-06-06T10:47:56.124779
1972,-0.9492,0.2089,0.1659,7.840,-18.935,37.590,0.00,0.00,0.05,0.47,0.01,2025-06-06T10:47:56.124779
1973,-0.9311,0.2176,0.1684,7.735,-10.675,33.845,1.00,0.00,0.04,0.46,0.01,2025-06-06T10:47:56.244727
1974,-0.9228,0.2420,0.2503,8.225,-10.045,32.935,4.00,0.01,0.05,0.45,0.01,2025-06-06T10:47:56.244727
1975,-0.8965,0.2625,0.2933,10.570,-16.310,37.975,1.00,0.01,0.05,0.44,0.00,2025-06-06T10:47:56.244727
1976,-0.8823,0.2650,0.2826,14.525,-25.200,43.925,1.00,0.00,0.04,0.43,0.00,2025-06-06T10:47:56.244727
1977,-0.8555,0.3128,0.2386,16.065,-28.210,50.015,2.00,0.00,0.04,0.43,0.01,2025-06-06T10:47:56.244727
1978,-0.8584,0.3294,0.2006,15.540,-22.820,56.245,2.00,0.00,0.05,0.44,0.00,2025-06-06T10:47:56.244727
1979,-0.8496,0.3777,0.2020,15.295,-18.025,63.455,0.00,0.01,0.04,0.44,0.01,2025-06-06T10:47:56.244727
1980,-0.8394,0.4182,0.2186,19.145,-18.025,71.645,0.00,0.01,0.05,0.43,0.00,2025-06-06T10:47:56.244727
1981,-0.8355,0.4885,0.2401,16.940,-19.110,89.180,0.00,0.00,0.04,0.43,0.00,2025-06-06T10:47:56.244727
1982,-0.7940,0.5153,0.1864,17.675,-17.395,89.635,0.00,0.01,0.05,0.43,0.01,2025-06-06T10:47:56.315983
1983,-0.8384,0.5090,0.2528,11.865,-8.960,92.575,3.00,0.00,0.05,0.43,0.01,2025-06-06T10:47:56.315983
1984,-0.8140,0.5144,0.2635,9.695,-0.385,93.135,3.00,0.01,0.05,0.42,0.00,2025-06-06T10:47:56.315983
1985,-0.8804,0.4729,0.3343,9.170,2.975,90.265,3.00,0.00,0.04,0.42,0.01,2025-06-06T10:47:56.315983
1986,-0.8296,0.4973,0.3558,9.065,-1.085,87.955,6.00,0.00,0.04,0.42,0.00,2025-06-06T10:47:56.315983
1987,-0.8672,0.5061,0.3562,9.205,-6.790,84.770,4.00,0.01,0.04,0.42,0.00,2025-06-06T10:47:56.506187
1988,-0.8379,0.5505,0.3504,8.645,-17.990,78.995,1.00,0.00,0.04,0.41,0.00,2025-06-06T10:47:56.506187
1989,-0.7632,0.5470,0.2328,9.100,-25.200,76.965,1.00,0.01,0.04,0.41,0.00,2025-06-06T10:47:56.506187
1990,-0.8067,0.5929,0.2255,11.970,-23.730,63.490,1.00,0.01,0.04,0.40,0.00,2025-06-06T10:47:56.506187
1991,-0.6612,0.6173,0.1976,9.590,-14.770,69.580,0.00,0.00,0.04,0.40,0.00,2025-06-06T10:47:56.506187
1992,-0.6930,0.6310,0.2704,6.965,-5.705,70.105,2.00,0.00,0.04,0.40,0.00,2025-06-06T10:47:56.506187
1993,-0.6217,0.6398,0.2547,4.025,-4.305,75.425,0.00,0.00,0.04,0.40,0.00,2025-06-06T10:47:56.506187
1994,-0.7261,0.6198,0.2972,7.840,-2.870,77.245,0.00,0.00,0.05,0.40,0.00,2025-06-06T10:47:56.506187
1995,-0.7017,0.6456,0.3084,5.810,-7.035,80.850,0.00,0.00,0.04,0.39,0.00,2025-06-06T10:47:56.506187
1996,-0.7242,0.6246,0.2967,7.315,-7.000,76.545,0.00,0.00,0.04,0.38,0.00,2025-06-06T10:47:56.506187
1997,-0.6676,0.7232,0.2801,7.070,-11.725,97.510,1.00,0.01,0.04,0.38,0.00,2025-06-06T10:47:56.506187
1998,-0.6046,0.6808,0.2591,6.300,-7.105,79.870,3.00,0.00,0.05,0.37,0.00,2025-06-06T10:47:56.506187
1999,-0.5675,0.7066,0.2767,7.350,-6.265,85.470,4.00,0.00,0.04,0.37,0.01,2025-06-06T10:47:56.506187
2000,-0.5368,0.6764,0.2294,11.830,-1.120,94.360,1.00,0.00,0.04,0.37,0.00,2025-06-06T10:47:56.506187
2001,-0.5866,0.6959,0.2264,14.980,2.555,89.355,1.00,0.00,0.05,0.37,0.00,2025-06-06T10:47:56.506187
2002,-0.5973,0.7071,0.2094,21.210,6.860,89.075,6.00,0.00,0.05,0.36,0.00,2025-06-06T10:47:56.756817
2003,-0.6242,0.7349,0.2240,21.665,7.420,87.115,1.00,0.01,0.04,0.36,0.00,2025-06-06T10:47:56.756817
2004,-0.5553,0.6759,0.1630,25.410,8.190,87.290,1.00,0.00,0.04,0.35,0.00,2025-06-06T10:47:56.756817
2005,-0.5192,0.6690,0.1157,33.740,13.090,86.345,0.00,0.01,0.04,0.35,0.00,2025-06-06T10:47:56.756817
2006,-0.4504,0.7418,0.0864,41.405,22.120,88.445,1.00,0.00,0.05,0.34,0.00,2025-06-06T10:47:56.756817
2007,-0.5714,0.7623,0.1767,40.705,36.890,89.425,2.00,0.00,0.04,0.34,0.00,2025-06-06T10:47:56.756817
2008,-0.5183,0.9013,0.2826,40.425,38.535,93.730,0.00,0.00,0.04,0.34,0.00,2025-06-06T10:47:56.756817
2009,-0.6739,0.9087,0.2918,41.545,29.610,96.845,1.00,0.01,0.04,0.33,0.01,2025-06-06T10:47:56.756817
2010,-0.6017,0.9038,0.3738,37.065,9.660,101.640,2.00,0.01,0.03,0.34,0.01,2025-06-06T10:47:56.756817
2011,-0.5383,0.9057,0.3479,47.845,-11.095,101.325,5.00,0.01,0.04,0.34,0.00,2025-06-06T10:47:56.756817
2012,-0.4968,0.9111,0.2826,54.740,-28.420,100.345,1.00,0.00,0.04,0.34,0.00,2025-06-06T10:47:56.756817
2013,-0.5080,0.8935,0.2279,59.745,-32.690,93.450,1.00,0.01,0.04,0.34,0.01,2025-06-06T10:47:56.756817
2014,-0.4065,0.9350,0.1976,70.770,-29.435,92.855,2.00,0.00,0.04,0.34,0.00,2025-06-06T10:47:56.756817
2015,-0.3719,0.9667,0.1210,98.980,-25.340,88.410,1.00,0.01,0.03,0.33,0.00,2025-06-06T10:47:56.756817
2016,-0.3055,0.9921,0.0649,108.290,-24.395,82.005,2.00,0.00,0.05,0.33,0.01,2025-06-06T10:47:56.756817
2017,-0.3094,0.9892,0.0371,112.420,-21.350,74.865,4.00,0.00,0.04,0.33,0.00,2025-06-06T10:47:56.756817
2018,-0.2445,1.0282,0.0698,109.305,-19.985,65.870,1.00,0.00,0.05,0.33,0.00,2025-06-06T10:47:56.756817
2019,-0.1845,0.9721,-0.0283,97.265,-17.780,60.480,1.00,0.01,0.05,0.33,0.00,2025-06-06T10:47:56.756817
2020,-0.2679,0.9414,-0.0229,66.395,-2.660,48.615,4.00,0.00,0.03,0.33,0.00,2025-06-06T10:47:57.018150
2021,-0.2694,0.8789,-0.0307,55.055,8.715,35.875,0.00,0.01,0.04,0.33,0.00,2025-06-06T10:47:57.018150
2022,-0.2503,0.8945,-0.0220,49.140,12.285,25.060,2.00,0.01,0.04,0.32,0.00,2025-06-06T10:47:57.018150
2023,-0.2089,0.9121,-0.0151,41.720,11.305,17.640,0.00,0.01,0.04,0.32,0.01,2025-06-06T10:47:57.018150
2024,-0.2650,0.8755,0.0073,33.775,11.410,12.670,1.00,0.01,0.04,0.33,0.00,2025-06-06T10:47:57.018150
2025,-0.2494,0.8579,0.0210,32.270,4.375,7.000,1.00,0.00,0.04,0.32,0.00,2025-06-06T10:47:57.018150
2026,-0.2313,0.9033,-0.0088,29.960,-5.600,6.090,3.00,0.00,0.05,0.32,0.00,2025-06-06T10:47:57.180584
2027,-0.2264,0.8843,-0.0181,24.185,-10.395,5.495,2.00,0.00,0.04,0.32,0.00,2025-06-06T10:47:57.180584
2028,-0.2157,0.8086,-0.0337,21.315,-19.705,6.580,1.00,0.01,0.05,0.32,0.00,2025-06-06T10:47:57.180584
2029,-0.2616,0.8237,-0.0366,22.785,-27.755,6.475,3.00,0.00,0.05,0.32,0.00,2025-06-06T10:47:57.180584
2030,-0.2777,0.8735,-0.0288,19.705,-32.830,4.305,0.00,0.00,0.04,0.33,0.00,2025-06-06T10:47:57.180584
2031,-0.2879,0.8823,-0.0425,11.585,-32.970,3.815,2.00,0.00,0.05,0.32,0.00,2025-06-06T10:47:57.180584
2032,-0.2894,0.8589,-0.0625,8.715,-28.945,2.695,3.00,0.01,0.05,0.32,0.00,2025-06-06T10:47:57.180584
2033,-0.2660,0.8540,-0.0834,10.220,-28.805,2.520,0.00,0.01,0.05,0.32,0.00,2025-06-06T10:47:57.180584
2034,-0.2791,0.8525,-0.0961,11.410,-25.830,1.155,1.00,0.00,0.05,0.32,0.00,2025-06-06T10:47:57.180584
2035,-0.2669,0.8472,-0.1142,13.055,-23.345,-0.280,0.00,0.00,0.05,0.32,0.00,2025-06-06T10:47:57.180584
2036,-0.2596,0.9672,-0.0810,12.530,-24.885,-0.210,2.00,0.00,0.05,0.32,0.00,2025-06-06T10:47:57.180584
2037,-0.2186,0.9682,-0.0795,3.535,-21.980,4.410,2.00,0.00,0.05,0.32,0.00,2025-06-06T10:47:57.180584
2038,-0.1547,0.9409,-0.1039,5.215,-19.180,7.910,0.00,0.00,0.05,0.33,0.01,2025-06-06T10:47:57.180584
2039,-0.1923,0.9277,-0.1083,7.420,-14.035,11.130,2.00,0.01,0.04,0.32,0.01,2025-06-06T10:47:57.180584
2040,-0.2279,0.8950,-0.1186,8.715,-7.280,10.150,2.00,0.00,0.04,0.31,0.00,2025-06-06T10:47:57.180584
2041,-0.2318,0.9077,-0.1264,10.640,-1.260,5.810,0.00,0.00,0.04,0.31,0.01,2025-06-06T10:47:57.180584
2042,-0.2625,0.9013,-0.1142,7.875,3.080,0.560,1.00,0.01,0.03,0.31,0.01,2025-06-06T10:47:57.180584
2043,-0.3177,0.9809,-0.0346,3.185,-0.630,-6.160,1.00,0.01,0.05,0.31,0.00,2025-06-06T10:47:57.180584
2044,-0.3587,0.9165,-0.0698,-3.220,-4.165,-12.425,3.00,0.01,0.05,0.32,0.00,2025-06-06T10:47:57.180584
2045,-0.3250,0.9423,-0.0703,-2.625,-8.260,-18.445,2.00,0.01,0.04,0.32,0.00,2025-06-06T10:47:57.180584
2046,-0.2591,0.9902,-0.0268,-4.235,-8.085,-24.570,2.00,0.01,0.04,0.32,0.00,2025-06-06T10:47:57.180584
2047,-0.2362,1.0272,-0.0737,-17.395,-1.505,-31.850,0.00,0.00,0.04,0.31,0.01,2025-06-06T10:47:57.224341
2048,-0.2728,0.9287,-0.1244,-13.930,8.750,-40.390,0.00,0.01,0.04,0.31,0.00,2025-06-06T10:47:57.224341
2049,-0.3450,0.9174,-0.0634,-21.280,21.735,-52.080,2.00,0.00,0.04,0.31,0.00,2025-06-06T10:47:57.224341
2050,-0.3333,0.9916,0.0464,-25.410,13.545,-53.550,1.00,0.00,0.03,0.31,0.00,2025-06-06T10:47:57.224341
2051,-0.3104,1.0370,0.0590,-20.440,-3.010,-46.095,3.00,0.00,0.04,0.32,0.00,2025-06-06T10:47:57.224341
2052,-0.3289,1.0189,0.0673,-21.210,-27.440,-30.485,2.00,0.00,0.04,0.31,0.00,2025-06-06T10:47:57.224341
2053,-0.3196,0.9848,0.0239,-12.740,-44.835,-19.215,0.00,0.01,0.04,0.30,0.00,2025-06-06T10:47:57.224341
2054,-0.2255,0.9892,-0.1142,-9.730,-46.900,-10.430,2.00,0.00,0.04,0.31,0.00,2025-06-06T10:47:57.224341
2055,-0.1283,0.9311,-0.2069,-11.445,-25.165,-2.660,3.00,0.00,0.04,0.31,0.00,2025-06-06T10:47:57.224341
2056,-0.1430,0.8721,-0.2181,-11.025,-1.540,0.035,3.00,0.00,0.04,0.31,0.00,2025-06-06T10:47:57.325601
2057,-0.1996,0.8721,-0.1918,-10.325,18.515,4.130,1.00,0.00,0.04,0.31,0.00,2025-06-06T10:47:57.325601
2058,-0.2240,0.9033,-0.1386,-6.545,38.255,9.065,2.00,0.01,0.04,0.30,0.00,2025-06-06T10:47:57.325601
2059,-0.3377,0.9399,-0.0151,-5.005,45.290,13.860,6.00,0.01,0.05,0.30,0.01,2025-06-06T10:47:57.325601
2060,-0.4982,0.9379,0.0307,-3.220,44.345,20.090,3.00,0.00,0.05,0.30,0.01,2025-06-06T10:47:57.325601
2061,-0.4290,0.9350,0.0849,4.095,25.935,25.025,2.00,0.00,0.04,0.30,0.00,2025-06-06T10:47:57.325601
2062,-0.4304,0.9457,0.0747,9.975,10.290,28.875,4.00,0.00,0.05,0.30,0.00,2025-06-06T10:47:57.325601
2063,-0.4050,0.9482,0.0434,13.965,-0.315,30.940,1.00,0.00,0.04,0.30,0.00,2025-06-06T10:47:57.579784
2064,-0.3928,0.9301,-0.0020,14.735,-4.970,30.135,1.00,0.00,0.04,0.30,0.01,2025-06-06T10:47:57.579784
2065,-0.3304,0.9384,-0.0420,14.735,-4.375,28.245,0.00,0.01,0.05,0.30,0.00,2025-06-06T10:47:57.579784
2066,-0.3221,0.9292,-0.0849,14.385,0.280,24.465,2.00,0.01,0.04,0.30,0.00,2025-06-06T10:47:57.579784
2067,-0.3255,0.9404,-0.0590,9.765,5.635,22.365,3.00,0.00,0.04,0.30,0.00,2025-06-06T10:47:57.579784
2068,-0.2464,0.9638,-0.0781,13.125,4.515,23.555,4.00,0.00,0.03,0.29,0.00,2025-06-06T10:47:57.579784
2069,-0.2142,1.0209,-0.0839,17.080,-8.470,26.880,0.00,0.00,0.04,0.29,0.00,2025-06-06T10:47:57.579784
2070,-0.1728,1.0268,-0.1000,16.415,-1.365,31.150,0.00,0.01,0.04,0.29,0.01,2025-06-06T10:47:57.579784
2071,-0.1562,1.0463,-0.1240,17.885,-4.760,32.830,0.00,0.00,0.04,0.29,0.00,2025-06-06T10:47:57.579784
2072,-0.1586,0.9965,-0.1640,23.975,-5.180,27.755,5.00,0.01,0.04,0.29,0.00,2025-06-06T10:47:57.579784
2073,-0.1615,0.9862,-0.1410,20.615,1.505,20.965,4.00,0.00,0.04,0.29,0.00,2025-06-06T10:47:57.579784
2074,-0.1635,0.9594,-0.1152,16.765,6.825,10.395,1.00,0.00,0.04,0.28,0.00,2025-06-06T10:47:57.579784
2075,-0.1606,0.8442,-0.0878,10.885,16.205,-6.755,0.00,0.01,0.04,0.28,0.00,2025-06-06T10:47:57.579784
2076,-0.2235,0.8950,0.0151,2.555,22.715,-26.565,1.00,0.00,0.04,0.29,0.00,2025-06-06T10:47:57.579784
2077,-0.2230,0.8452,0.0395,-2.800,14.490,-47.775,0.00,0.00,0.04,0.29,0.00,2025-06-06T10:47:57.579784
2078,-0.3504,0.9126,0.1571,-7.700,2.170,-70.665,3.00,0.00,0.04,0.29,0.00,2025-06-06T10:47:57.579784
2079,-0.2455,1.0111,0.2089,-19.075,-37.520,-77.665,2.00,0.00,0.04,0.29,0.01,2025-06-06T10:47:57.579784
2080,-0.1205,0.9252,0.0752,-21.525,-63.945,-80.325,0.00,0.01,0.04,0.28,0.01,2025-06-06T10:47:57.579784
2081,0.0132,0.7847,-0.0522,-23.310,-78.820,-97.370,2.00,0.00,0.05,0.28,0.00,2025-06-06T10:47:57.579784
2082,-0.0586,0.7930,-0.0473,-19.005,-84.420,-124.215,1.00,0.00,0.04,0.28,0.00,2025-06-06T10:47:57.830505
2083,0.1235,0.7842,-0.2074,-29.750,-83.930,-159.985,1.00,0.01,0.05,0.28,0.01,2025-06-06T10:47:57.830505
2084,0.4841,0.8018,-0.0927,-40.565,-95.200,-205.975,3.00,0.01,0.04,0.29,0.00,2025-06-06T10:47:57.830505
2085,1.4879,0.7618,-0.4031,-110.250,-115.640,-223.020,2.00,0.01,0.05,0.28,0.00,2025-06-06T10:47:57.830505
2086,2.0603,0.1606,-0.7110,-125.230,-92.050,-283.010,3.00,0.00,0.04,0.29,0.01,2025-06-06T10:47:57.830505
2087,2.9978,-0.3401,-0.7261,-185.640,-16.345,-344.295,2.00,0.00,0.04,0.29,0.00,2025-06-06T10:47:57.830505
2088,2.0047,-1.2703,-0.3518,-249.970,33.040,-502.950,0.00,0.01,0.04,0.28,0.00,2025-06-06T10:47:57.830505
2089,-0.2250,-1.7607,-0.5695,-332.325,120.925,-615.265,2.00,0.00,0.04,0.28,0.00,2025-06-06T10:47:57.830505
2090,-2.6977,-1.8851,-0.3767,-123.375,141.120,-750.960,3.00,0.00,0.05,0.28,0.00,2025-06-06T10:47:57.830505
2091,-4.6892,-1.2795,1.1854,-101.955,21.770,-790.370,0.00,0.00,0.05,0.28,0.00,2025-06-06T10:47:57.830505
2092,-3.6219,-1.2381,1.1966,-126.770,-126.245,-703.430,4.00,0.01,0.05,0.28,0.00,2025-06-06T10:47:57.830505
2093,-2.9929,-1.5733,1.0487,-113.540,-156.275,-562.030,0.00,0.00,0.05,0.27,0.00,2025-06-06T10:47:57.830505
2094,-1.4245,-0.8135,0.5124,-81.340,-56.350,-323.190,2.00,0.00,0.06,0.28,0.00,2025-06-06T10:47:57.830505
2095,-1.3117,-0.2621,-0.5431,-8.050,8.015,88.690,3.00,0.00,0.06,0.27,0.00,2025-06-06T10:47:57.830505
2096,-2.3858,1.5328,1.3191,-90.230,-110.320,306.705,2.00,0.01,0.08,0.27,0.00,2025-06-06T10:47:57.830505
2097,-2.7665,0.4621,-1.6485,46.655,259.105,209.055,4.00,0.01,0.09,0.27,0.00,2025-06-06T10:47:57.830505
2098,-3.4604,0.7906,0.8164,-1.890,129.815,131.775,2.00,0.00,0.10,0.27,0.00,2025-06-06T10:47:57.830505
2099,-2.4698,0.5510,0.3894,-21.210,-15.330,63.630,0.00,0.00,0.11,0.27,0.00,2025-06-06T10:47:57.830505
2100,-1.4420,0.5890,0.5505,33.180,-133.000,19.880,1.00,0.01,0.12,0.26,0.00,2025-06-06T10:47:57.920034
2101,-0.7964,0.2869,0.2103,27.370,-144.305,20.475,5.00,0.00,0.12,0.27,0.00,2025-06-06T10:47:57.920034
2102,-0.3206,0.0947,-0.1684,20.405,-81.130,67.865,3.00,0.01,0.13,0.27,0.00,2025-06-06T10:47:57.920034
2103,-0.3689,0.0298,-0.3392,4.235,-5.950,112.700,2.00,0.00,0.14,0.26,0.00,2025-06-06T10:47:57.920034
2104,-0.5993,0.0254,-0.1606,8.050,47.320,142.975,1.00,0.00,0.14,0.26,0.00,2025-06-06T10:47:57.920034
2105,-0.8989,-0.1054,0.0410,-7.525,64.960,139.720,0.00,0.00,0.15,0.27,0.00,2025-06-06T10:47:58.070765
2106,-0.9550,-0.2547,0.1903,-8.260,60.375,109.375,1.00,0.00,0.16,0.27,0.00,2025-06-06T10:47:58.070765
2107,-1.0643,-0.4119,0.4480,4.200,39.970,54.250,2.00,0.01,0.16,0.27,0.00,2025-06-06T10:47:58.070765
2108,-1.2102,-0.3475,0.6598,4.515,-4.445,14.490,1.00,0.01,0.15,0.27,0.01,2025-06-06T10:47:58.070765
2109,-1.0668,-0.2342,0.6222,14.910,-56.455,-3.430,4.00,0.01,0.16,0.27,0.00,2025-06-06T10:47:58.070765
2110,-0.7642,0.0869,0.5475,29.645,-98.245,13.160,0.00,0.00,0.15,0.27,0.01,2025-06-06T10:47:58.070765
2111,-0.5134,0.0888,0.2245,42.980,-116.935,50.540,0.00,0.00,0.15,0.27,0.00,2025-06-06T10:47:58.070765
2112,-0.4402,0.0722,-0.0405,44.310,-88.865,91.210,4.00,0.00,0.15,0.26,0.01,2025-06-06T10:47:58.070765
2113,-0.5929,0.0522,-0.2191,9.975,-35.245,114.100,0.00,0.00,0.14,0.26,0.00,2025-06-06T10:47:58.070765
2114,-0.8847,0.0307,-0.2474,-2.275,51.310,111.300,0.00,0.01,0.15,0.25,0.00,2025-06-06T10:47:58.070765
2115,-1.0941,0.0956,-0.0142,8.505,90.930,100.730,2.00,0.00,0.15,0.25,0.00,2025-06-06T10:47:58.070765
2116,-1.2459,0.2050,0.4192,-1.575,80.185,91.385,0.00,0.00,0.14,0.25,0.00,2025-06-06T10:47:58.070765
2117,-1.1034,0.2621,0.5256,8.365,25.445,93.065,0.00,0.01,0.14,0.24,0.01,2025-06-06T10:47:58.070765
2118,-1.0946,0.3206,0.4514,19.670,-31.185,97.895,3.00,0.01,0.15,0.24,0.00,2025-06-06T10:47:58.070765
2119,-0.9633,0.5222,0.3792,30.450,-77.700,113.540,1.00,0.01,0.14,0.24,0.01,2025-06-06T10:47:58.144190
2120,-0.8833,0.5539,0.2303,28.525,-115.430,134.225,0.00,0.00,0.15,0.25,0.01,2025-06-06T10:47:58.144190
2121,-0.8003,0.5080,0.0107,31.990,-109.760,143.675,2.00,0.00,0.14,0.25,0.01,2025-06-06T10:47:58.144190
2122,-0.7432,0.4660,-0.1093,24.255,-75.355,147.385,4.00,0.01,0.14,0.25,0.01,2025-06-06T10:47:58.144190
2123,-0.7198,0.4011,-0.1469,13.755,-18.550,144.900,3.00,0.00,0.14,0.25,0.00,2025-06-06T10:47:58.144190
2124,-0.6583,0.4890,0.1127,5.705,30.240,141.330,3.00,0.00,0.13,0.25,0.00,2025-06-06T10:47:58.144190
2125,-0.7715,0.5534,0.2074,5.810,48.860,135.800,0.00,0.00,0.13,0.25,0.00,2025-06-06T10:47:58.294371
2126,-0.7374,0.6905,0.2601,8.050,53.445,135.135,4.00,0.01,0.12,0.25,0.00,2025-06-06T10:47:58.294371
2127,-0.8223,0.7374,0.3548,1.505,46.165,136.885,0.00,0.00,0.13,0.25,0.00,2025-06-06T10:47:58.294371
2128,-0.7813,0.7374,0.4104,1.330,27.720,138.950,1.00,0.00,0.10,0.25,0.00,2025-06-06T10:47:58.294371
2129,-0.7066,0.6290,0.3714,7.735,0.560,142.730,0.00,0.00,0.10,0.25,0.00,2025-06-06T10:47:58.294371
2130,-0.6476,0.7437,0.3489,12.110,-17.080,146.510,3.00,0.00,0.09,0.25,0.00,2025-06-06T10:47:58.294371
2131,-0.7828,0.6495,0.3680,14.595,-26.495,141.260,5.00,0.00,0.09,0.25,0.00,2025-06-06T10:47:58.294371
2132,-0.8520,0.6666,0.2303,24.150,-26.600,127.575,3.00,0.01,0.08,0.25,0.00,2025-06-06T10:47:58.294371
2133,-0.8691,0.7632,0.2015,32.830,-25.200,112.070,1.00,0.00,0.08,0.25,0.00,2025-06-06T10:47:58.294371
2134,-0.7613,0.8847,0.2040,35.945,-22.260,101.780,1.00,0.01,0.07,0.26,0.00,2025-06-06T10:47:58.294371
2135,-0.5022,0.9687,0.2411,33.775,-23.275,118.335,2.00,0.00,0.07,0.25,0.00,2025-06-06T10:47:58.389020
2136,-0.4621,1.0829,0.2460,43.785,-20.195,166.950,5.00,0.00,0.06,0.25,0.01,2025-06-06T10:47:58.389020
2137,-0.3343,0.9775,0.2225,39.970,-2.275,113.470,2.00,0.01,0.06,0.25,0.01,2025-06-06T10:47:58.389020
2138,-0.2577,1.0512,0.1747,47.740,-6.615,114.310,1.00,0.01,0.06,0.25,0.00,2025-06-06T10:47:58.389020
2139,-0.1459,1.0663,0.1444,66.010,-5.075,98.630,2.00,0.00,0.06,0.25,0.01,2025-06-06T10:47:58.389020
2140,-0.0146,1.2146,0.2621,127.960,1.820,80.290,0.00,0.01,0.05,0.25,0.00,2025-06-06T10:47:58.389020
2141,0.0273,1.1727,0.4055,149.065,1.575,58.485,4.00,0.01,0.05,0.25,0.00,2025-06-06T10:47:58.389020
2142,0.1879,1.0287,0.0664,132.650,-0.980,2.275,4.00,0.01,0.06,0.26,0.01,2025-06-06T10:47:58.389020
2143,0.6276,0.8174,-0.0561,7.105,16.730,-61.880,3.00,0.01,0.06,0.25,0.00,2025-06-06T10:47:58.553755
2144,1.6080,1.0902,-0.1737,-53.655,15.120,-131.705,2.00,0.00,0.06,0.25,0.01,2025-06-06T10:47:58.553755
2145,2.8485,0.6095,-0.7325,-97.440,24.535,-227.430,2.00,0.01,0.06,0.25,0.00,2025-06-06T10:47:58.553755
2146,3.2550,0.5514,-0.9599,-175.875,98.700,-325.010,0.00,0.00,0.06,0.23,0.00,2025-06-06T10:47:58.553755
2147,2.4234,-0.3987,-0.2030,-52.570,194.040,-438.270,7.00,0.01,0.06,0.23,0.00,2025-06-06T10:47:58.553755
2148,0.6681,-0.5876,-0.0922,-35.070,172.690,-566.335,0.00,0.00,0.06,0.23,0.00,2025-06-06T10:47:58.553755
2149,-2.7084,-1.9271,-4.1495,898.695,-722.400,-671.895,0.00,0.00,0.06,0.22,0.00,2025-06-06T10:47:58.553755
2150,-1.4616,-0.9643,-0.0034,-88.970,-167.860,-596.190,4.00,0.00,0.06,0.22,0.00,2025-06-06T10:47:58.553755
2151,-3.9723,-3.1325,0.8408,-219.590,32.830,-575.540,2.00,0.00,0.06,0.21,0.00,2025-06-06T10:47:58.553755
2152,-3.9001,-2.7855,2.5010,-385.875,53.165,-497.840,0.00,0.00,0.06,0.22,0.00,2025-06-06T10:47:58.553755
2153,-2.6650,-2.3834,2.2799,-23.205,70.840,-260.785,1.00,0.01,0.06,0.22,0.00,2025-06-06T10:47:58.553755
2154,-0.5671,-0.5949,0.4416,-114.065,-83.055,-86.310,4.00,0.00,0.07,0.22,0.00,2025-06-06T10:47:58.553755
2155,-1.0731,0.7115,-0.9565,185.535,-152.810,72.065,7.00,0.00,0.07,0.18,0.00,2025-06-06T10:47:58.553755
2156,-1.5104,0.7003,-1.4474,22.785,-112.770,131.915,1.00,0.01,0.07,0.21,0.01,2025-06-06T10:47:58.602715
2157,-1.9749,-0.1713,-1.1273,56.770,115.640,93.135,5.00,0.01,0.06,0.21,0.00,2025-06-06T10:47:58.602715
2158,-2.2019,-0.0503,0.7442,-52.570,219.380,12.215,5.00,0.00,0.07,0.21,0.00,2025-06-06T10:47:58.602715
2159,-2.2912,-0.1981,1.4625,5.040,112.945,-42.875,0.00,0.00,0.06,0.21,0.00,2025-06-06T10:47:58.760119
2160,-1.6031,0.4299,1.1775,34.825,-88.585,-46.935,1.00,0.01,0.06,0.21,0.00,2025-06-06T10:47:58.760119
2161,-1.0414,0.7022,0.2582,41.860,-195.615,-10.605,5.00,0.01,0.07,0.21,0.00,2025-06-06T10:47:58.760119
2162,-0.5700,0.7847,-0.5163,10.955,-167.685,32.445,0.00,0.01,0.06,0.21,0.00,2025-06-06T10:47:58.760119
2163,-0.3821,0.3684,-0.8491,-13.790,-45.675,62.790,3.00,0.01,0.06,0.21,0.00,2025-06-06T10:47:58.760119
2164,-0.6085,0.0727,-0.2596,-16.975,64.190,72.275,1.00,0.00,0.07,0.20,0.00,2025-06-06T10:47:58.760119
2165,-0.8721,-0.0322,0.1410,-27.755,127.365,68.810,6.00,0.00,0.06,0.21,0.00,2025-06-06T10:47:58.760119
2166,-1.3771,-0.1908,0.5739,-16.135,117.250,47.180,3.00,0.00,0.06,0.21,0.00,2025-06-06T10:47:58.760119
2167,-1.2424,0.2157,0.6554,-7.385,39.690,27.615,0.00,0.00,0.05,0.20,0.00,2025-06-06T10:47:58.760119
2168,-1.0990,0.1693,0.4172,-0.280,-47.880,20.825,3.00,0.00,0.05,0.20,0.00,2025-06-06T10:47:58.760119
2169,-0.9643,-0.0117,0.2367,9.660,-94.115,10.325,2.00,0.01,0.06,0.20,0.00,2025-06-06T10:47:58.760119
2170,-0.7530,-0.1547,0.0122,9.065,-84.035,5.215,0.00,0.00,0.05,0.22,0.00,2025-06-06T10:47:58.760119
2171,-0.7671,-0.2377,0.0224,7.035,-30.695,2.625,0.00,0.00,0.05,0.20,0.01,2025-06-06T10:47:58.860380
2172,-0.8428,-0.1513,0.0737,-7.630,16.625,4.725,3.00,0.00,0.06,0.20,0.00,2025-06-06T10:47:58.860380
2173,-0.9955,-0.0761,0.1601,-11.760,49.630,7.105,6.00,0.00,0.04,0.20,0.00,2025-06-06T10:47:58.860380
2174,-1.2205,0.0029,0.2918,-8.575,48.510,6.580,1.00,0.00,0.07,0.19,0.00,2025-06-06T10:47:58.860380
2175,-1.3015,0.1615,0.4612,-2.100,16.065,8.540,0.00,0.00,0.06,0.19,0.01,2025-06-06T10:47:58.860380
2176,-1.2532,0.1537,0.3904,3.780,-17.570,11.725,0.00,0.00,0.05,0.20,0.00,2025-06-06T10:47:59.011724
2177,-1.2010,0.1640,0.3777,9.905,-41.370,13.300,10.00,0.01,0.05,0.19,0.00,2025-06-06T10:47:59.011724
2178,-1.0346,0.1976,0.2708,10.920,-44.975,16.380,0.00,0.00,0.05,0.18,0.00,2025-06-06T10:47:59.011724
2179,-0.9692,0.1786,0.1498,13.090,-27.475,22.015,0.00,0.01,0.06,0.18,0.01,2025-06-06T10:47:59.011724
2180,-0.7383,0.2757,-0.1518,7.770,-92.435,-64.085,2.00,0.00,0.06,0.18,0.00,2025-06-06T10:47:59.011724
2181,-0.4934,-0.0307,-0.5017,34.510,132.615,65.030,0.00,0.00,0.06,0.18,0.00,2025-06-06T10:47:59.011724
2182,-1.4206,0.5895,0.9101,71.015,71.435,74.340,2.00,0.00,0.06,0.19,0.01,2025-06-06T10:47:59.011724
2183,-1.1497,-0.0625,-0.0400,-27.125,105.280,70.350,1.00,0.00,0.05,0.18,0.00,2025-06-06T10:47:59.011724
2184,-1.4996,0.0322,0.7271,48.230,-15.295,47.320,1.00,0.00,0.05,0.19,0.00,2025-06-06T10:47:59.011724
2185,-1.4279,-0.0332,0.5163,-1.400,-68.075,19.320,1.00,0.00,0.04,0.18,0.00,2025-06-06T10:47:59.011724
2186,-1.0521,-0.0215,0.1615,24.850,-94.115,9.485,2.00,0.01,0.05,0.18,0.00,2025-06-06T10:47:59.011724
2187,-0.9199,0.0605,0.1176,5.355,-72.940,36.890,0.00,0.01,0.05,0.18,0.00,2025-06-06T10:47:59.011724
2188,-0.7910,0.0083,-0.0400,2.415,-61.565,91.210,1.00,0.01,0.05,0.19,0.00,2025-06-06T10:47:59.011724
2189,-0.6573,0.3572,-0.1474,9.205,-28.840,28.560,3.00,0.01,0.05,0.18,0.01,2025-06-06T10:47:59.046657
2190,-0.6251,0.3055,-0.0571,-4.410,4.550,30.065,4.00,0.01,0.05,0.17,0.00,2025-06-06T10:47:59.046657
2191,-0.7379,0.2640,0.0547,-6.930,33.670,39.025,0.00,0.01,0.05,0.17,0.00,2025-06-06T10:47:59.047654
2192,-0.8242,0.2308,0.0976,0.700,53.200,50.155,1.00,0.00,0.04,0.18,0.00,2025-06-06T10:47:59.047654
2193,-0.9955,0.1732,0.2347,10.535,57.050,52.360,3.00,0.00,0.05,0.16,0.00,2025-06-06T10:47:59.094312
2194,-1.1370,0.1796,0.3972,9.905,38.570,46.235,1.00,0.01,0.04,0.17,0.01,2025-06-06T10:47:59.094312
2195,-1.1971,0.1386,0.3528,-1.085,10.430,31.570,1.00,0.00,0.04,0.15,0.01,2025-06-06T10:47:59.094312
2196,-1.1849,0.1898,0.3411,-0.735,-20.650,20.265,0.00,0.01,0.05,0.17,0.01,2025-06-06T10:47:59.176691
2197,-1.1790,0.2865,0.2699,-6.930,-45.010,1.680,1.00,0.01,0.04,0.18,0.00,2025-06-06T10:47:59.176691
2198,-0.9897,0.3382,0.1269,-4.655,-56.455,18.690,2.00,0.01,0.04,0.18,0.00,2025-06-06T10:47:59.176691
2199,-0.9501,0.3650,0.0893,-4.165,-50.575,24.465,3.00,0.00,0.04,0.18,0.00,2025-06-06T10:47:59.176691
2200,-0.8345,0.3611,-0.0078,-9.695,-39.305,33.075,3.00,0.01,0.05,0.17,0.00,2025-06-06T10:47:59.275952
2201,-0.7745,0.3499,-0.0112,-9.905,-12.530,43.400,2.00,0.01,0.05,0.17,0.00,2025-06-06T10:47:59.275952
2202,-0.8198,0.3201,0.0952,-7.840,-0.735,51.835,0.00,0.01,0.05,0.18,0.00,2025-06-06T10:47:59.275952
2203,-0.8374,0.3577,0.1879,-9.870,1.575,57.645,2.00,0.00,0.05,0.17,0.01,2025-06-06T10:47:59.275952
2204,-0.9194,0.3274,0.2484,-1.260,0.035,57.715,2.00,0.00,0.05,0.18,0.00,2025-06-06T10:47:59.275952
2205,-0.9487,0.3597,0.3411,9.100,-12.635,56.840,7.00,0.00,0.04,0.19,0.01,2025-06-06T10:47:59.275952
2206,-1.0316,0.3343,0.4094,12.460,-23.240,52.465,2.00,0.00,0.05,0.19,0.00,2025-06-06T10:47:59.275952
2207,-1.0360,0.3226,0.3845,12.285,-36.995,42.385,3.00,0.00,0.04,0.18,0.00,2025-06-06T10:47:59.275952
2208,-1.0033,0.3777,0.4143,25.060,-49.630,34.335,2.00,0.00,0.04,0.18,0.00,2025-06-06T10:47:59.275952
2209,-0.9243,0.2586,0.1976,21.385,-70.105,31.815,0.00,0.00,0.04,0.19,0.00,2025-06-06T10:47:59.275952
2210,-0.8262,0.3558,0.1762,43.435,-59.430,29.610,3.00,0.00,0.05,0.18,0.00,2025-06-06T10:47:59.373536
2211,-0.7715,0.3914,0.2098,26.145,-51.835,29.960,3.00,0.01,0.04,0.17,0.00,2025-06-06T10:47:59.373536
2212,-0.7618,0.4128,0.2137,29.610,-32.480,33.530,0.00,0.01,0.04,0.18,0.00,2025-06-06T10:47:59.373536
2213,-0.7925,0.4387,0.2718,20.195,-15.050,36.855,3.00,0.00,0.04,0.18,0.00,2025-06-06T10:47:59.373536
2214,-0.8018,0.4563,0.2967,14.700,-10.780,41.160,1.00,0.00,0.05,0.17,0.00,2025-06-06T10:47:59.373536
2215,-0.8320,0.3982,0.2313,16.485,-10.675,44.170,1.00,0.01,0.04,0.17,0.00,2025-06-06T10:47:59.373536
2216,-0.8359,0.4490,0.3172,20.615,-6.895,44.485,1.00,0.00,0.04,0.16,0.00,2025-06-06T10:47:59.373536
2217,-0.8764,0.3440,0.2694,18.655,-18.165,43.785,5.00,0.01,0.04,0.17,0.01,2025-06-06T10:47:59.480011
2218,-0.8272,0.3640,0.3128,16.625,-14.000,38.885,2.00,0.00,0.04,0.18,0.01,2025-06-06T10:47:59.480011
2219,-0.9575,0.3660,0.2733,20.090,-8.155,32.515,1.00,0.00,0.04,0.17,0.00,2025-06-06T10:47:59.480011
2220,-0.9306,0.4114,0.4094,13.825,-2.345,24.465,1.00,0.00,0.04,0.16,0.01,2025-06-06T10:47:59.480011
2221,-0.9126,0.3875,0.4041,7.910,-10.745,15.015,1.00,0.00,0.03,0.17,0.00,2025-06-06T10:47:59.480011
2222,-0.8286,0.4631,0.3777,9.450,-19.670,9.520,2.00,0.01,0.04,0.19,0.01,2025-06-06T10:47:59.480011
2223,-0.8818,0.4670,0.3597,7.280,-24.500,8.575,2.00,0.00,0.03,0.18,0.01,2025-06-06T10:47:59.480011
2224,-0.8350,0.4353,0.3445,6.265,-31.850,7.105,0.00,0.00,0.04,0.19,0.00,2025-06-06T10:47:59.480011
2225,-0.7910,0.4880,0.2850,7.595,-43.260,7.910,2.00,0.00,0.04,0.19,0.00,2025-06-06T10:47:59.578663
2226,-0.7242,0.5680,0.2908,18.025,-42.595,4.095,1.00,0.00,0.05,0.19,0.01,2025-06-06T10:47:59.578663
2227,-0.7242,0.5539,0.2362,13.720,-42.280,1.330,0.00,0.01,0.04,0.18,0.00,2025-06-06T10:47:59.578663
2228,-0.7139,0.5553,0.1791,6.405,-37.170,-5.425,2.00,0.00,0.04,0.18,0.01,2025-06-06T10:47:59.578663
2229,-0.7081,0.5846,0.0586,5.285,-28.455,-7.490,0.00,0.00,0.03,0.20,0.00,2025-06-06T10:47:59.578663
2230,-0.6617,0.5519,0.0649,8.260,-11.165,-32.410,1.00,0.00,0.04,0.20,0.00,2025-06-06T10:47:59.578663
2231,-0.6178,0.6642,0.2420,5.145,-1.540,-46.690,0.00,0.00,0.04,0.19,0.00,2025-06-06T10:47:59.578663
2232,-0.5344,0.7125,0.1576,1.120,5.600,-57.470,0.00,0.00,0.04,0.19,0.01,2025-06-06T10:47:59.578663
2233,-0.6007,0.6690,0.1791,-4.900,13.580,-68.110,2.00,0.00,0.04,0.18,0.00,2025-06-06T10:47:59.815518
2234,-0.5685,0.5998,0.2284,-18.060,10.290,-82.355,2.00,0.00,0.05,0.19,0.00,2025-06-06T10:47:59.815518
2235,-0.4231,0.6988,0.1869,2.415,17.500,-86.240,0.00,0.01,0.04,0.20,0.01,2025-06-06T10:47:59.815518
2236,-0.8501,0.6437,0.3743,-7.000,7.560,-80.045,5.00,0.01,0.04,0.18,0.00,2025-06-06T10:47:59.815518
2237,-0.7774,0.3172,0.3016,-22.540,1.225,-82.180,4.00,0.00,0.04,0.18,0.00,2025-06-06T10:47:59.815518
2238,-0.7159,0.1820,0.1444,-16.205,-3.780,-85.715,0.00,0.00,0.04,0.17,0.00,2025-06-06T10:47:59.815518
2239,-0.8325,0.2040,0.2577,-7.735,2.520,-86.345,4.00,0.00,0.04,0.18,0.00,2025-06-06T10:47:59.815518
2240,-0.8237,0.2220,0.2523,-14.735,12.530,-86.660,6.00,0.00,0.04,0.19,0.00,2025-06-06T10:47:59.815518
2241,-0.9277,0.1820,0.2333,-41.615,30.310,-82.670,0.00,0.00,0.04,0.18,0.01,2025-06-06T10:47:59.815518
2242,-0.8852,0.1054,0.2664,-48.405,32.270,-76.160,0.00,0.00,0.04,0.18,0.00,2025-06-06T10:47:59.815518
2243,-0.7662,0.1366,0.2650,-34.930,25.445,-63.035,1.00,0.00,0.04,0.19,0.00,2025-06-06T10:47:59.815518
2244,-0.7105,0.1415,0.2367,-22.155,0.035,-48.930,3.00,0.00,0.03,0.18,0.01,2025-06-06T10:47:59.815518
2245,-0.7823,0.1010,0.1659,-22.785,0.840,-38.325,1.00,0.01,0.04,0.18,0.00,2025-06-06T10:47:59.815518
2246,-0.8345,0.0434,0.1484,-29.330,24.920,-31.920,1.00,0.01,0.05,0.17,0.00,2025-06-06T10:47:59.815518
2247,-0.9531,0.0293,0.2133,-37.870,33.145,-31.465,0.00,0.00,0.04,0.16,0.00,2025-06-06T10:47:59.815518
2248,-1.0453,-0.0190,0.2899,-40.810,40.775,-35.280,2.00,0.01,0.04,0.16,0.00,2025-06-06T10:47:59.815518
2249,-1.0058,0.0137,0.3670,-38.570,30.485,-44.800,0.00,0.01,0.04,0.16,0.00,2025-06-06T10:47:59.815518
2250,-1.1024,0.0327,0.4309,-44.835,15.785,-48.510,0.00,0.00,0.04,0.16,0.00,2025-06-06T10:47:59.815518
2251,-1.1234,-0.0356,0.3362,-49.805,-4.025,-58.135,0.00,0.00,0.04,0.15,0.00,2025-06-06T10:47:59.901775
2252,-1.1224,-0.0337,0.4343,-43.050,-22.925,-74.515,3.00,0.01,0.04,0.16,0.00,2025-06-06T10:47:59.901775
2253,-1.0482,0.1039,0.5407,-37.835,-44.555,-94.325,2.00,0.01,0.03,0.16,0.01,2025-06-06T10:47:59.901775
2254,-0.9560,0.0566,0.7188,-60.165,-35.525,-89.460,0.00,0.00,0.04,0.16,0.01,2025-06-06T10:47:59.901775
2255,-1.2385,0.0283,0.3011,-74.830,-54.040,-104.370,4.00,0.01,0.04,0.16,0.01,2025-06-06T10:47:59.901775
2256,-1.0956,0.1288,0.2411,-43.680,-67.060,-116.165,4.00,0.01,0.04,0.16,0.00,2025-06-06T10:47:59.901775
2257,-1.2537,0.2381,0.4377,-51.975,-88.305,-126.840,4.00,0.01,0.03,0.16,0.01,2025-06-06T10:48:00.092033
2258,-0.9248,0.0581,0.3211,-60.970,-93.730,-133.700,3.00,0.00,0.04,0.16,0.01,2025-06-06T10:48:00.092033
2259,-0.8218,-0.0537,0.1625,-65.205,-93.450,-134.855,0.00,0.00,0.04,0.15,0.00,2025-06-06T10:48:00.092033
2260,-0.7871,-0.1093,0.1430,-58.415,-78.785,-139.510,2.00,0.01,0.04,0.17,0.01,2025-06-06T10:48:00.092033
2261,-0.1781,0.3196,0.0839,-10.010,-54.180,-128.870,5.00,0.01,0.04,0.17,0.01,2025-06-06T10:48:00.092033
2262,0.2552,0.5358,-0.7427,-4.025,-8.995,111.020,3.00,0.00,0.04,0.17,0.00,2025-06-06T10:48:00.092033
2263,-1.0477,-1.0082,-0.7320,83.405,174.545,88.340,0.00,0.00,0.04,0.17,0.00,2025-06-06T10:48:00.092033
2264,-6.9374,0.6456,4.9332,41.230,-69.860,-44.940,0.00,0.00,0.04,0.17,0.00,2025-06-06T10:48:00.092033
2265,-0.5295,-0.0639,0.9418,116.130,-95.760,-64.435,0.00,0.00,0.03,0.17,0.00,2025-06-06T10:48:00.092033
2266,-0.6588,-0.0029,0.7696,119.910,-215.215,-77.455,3.00,0.00,0.05,0.17,0.00,2025-06-06T10:48:00.092033
2267,-0.5778,-0.3240,0.8311,33.390,-180.075,-105.070,0.00,0.01,0.04,0.17,0.00,2025-06-06T10:48:00.092033
2268,-0.9018,0.1679,0.5456,39.270,-109.025,-107.695,0.00,0.00,0.03,0.17,0.00,2025-06-06T10:48:00.092033
2269,-0.6656,0.4963,0.5607,22.260,-131.425,-111.615,6.00,0.00,0.04,0.17,0.00,2025-06-06T10:48:00.092033
2270,-1.8681,-1.5889,0.4372,-48.825,133.910,44.170,2.00,0.00,0.03,0.17,0.00,2025-06-06T10:48:00.092033
2271,-1.2869,-0.2303,-0.3987,-19.495,178.115,-12.635,0.00,0.00,0.04,0.17,0.01,2025-06-06T10:48:00.092033
2272,-0.3914,0.2645,0.1054,4.795,-17.325,-34.230,0.00,0.00,0.03,0.16,0.01,2025-06-06T10:48:00.191857
2273,-1.1668,0.0268,0.8896,39.690,-40.285,-15.785,0.00,0.00,0.05,0.19,0.00,2025-06-06T10:48:00.191857
2274,-0.7422,-0.3504,0.8042,72.975,-19.845,-1.050,3.00,0.01,0.04,0.16,0.01,2025-06-06T10:48:00.191857
2275,-0.7403,0.0551,0.7793,8.540,-8.925,8.295,3.00,0.01,0.04,0.17,0.01,2025-06-06T10:48:00.191857
2276,-0.9130,0.0415,0.5017,-46.970,-19.320,11.095,0.00,0.00,0.03,0.17,0.00,2025-06-06T10:48:00.191857
2277,-0.9955,-0.3094,0.1581,-14.420,-42.455,6.685,2.00,0.00,0.03,0.16,0.00,2025-06-06T10:48:00.191857
2278,-1.0087,-0.1298,0.3006,25.480,-44.765,5.775,0.00,0.00,0.03,0.16,0.00,2025-06-06T10:48:00.191857
2279,-0.8223,-0.0717,0.5793,27.300,-46.935,1.085,3.00,0.00,0.04,0.17,0.01,2025-06-06T10:48:00.478923
2280,-0.7330,-0.0449,0.8262,1.400,-25.340,1.995,0.00,0.00,0.03,0.17,0.01,2025-06-06T10:48:00.478923
2281,-0.7203,-0.1381,0.7935,-1.050,1.785,2.555,3.00,0.01,0.03,0.18,0.00,2025-06-06T10:48:00.478923
2282,-0.7574,-0.0166,0.6798,-6.545,19.460,0.805,1.00,0.00,0.03,0.17,0.00,2025-06-06T10:48:00.478923
2283,-0.8413,-0.1118,0.5348,-7.315,26.145,-7.840,2.00,0.01,0.03,0.17,0.00,2025-06-06T10:48:00.478923
2284,-0.8257,-0.0966,0.6115,-0.910,33.740,-9.205,2.00,0.00,0.03,0.16,0.00,2025-06-06T10:48:00.478923
2285,-0.7056,-0.0952,0.7388,-5.530,7.385,-9.660,3.00,0.00,0.03,0.16,0.00,2025-06-06T10:48:00.478923
2286,-0.9989,-0.0005,0.4309,-27.790,-0.945,-7.245,2.00,0.01,0.03,0.16,0.00,2025-06-06T10:48:00.478923
2287,-0.9823,-0.2591,0.3372,-31.220,-5.915,-1.190,1.00,0.00,0.03,0.16,0.00,2025-06-06T10:48:00.478923
2288,-0.9126,-0.1161,0.7764,-29.890,20.160,11.970,2.00,0.01,0.03,0.16,0.00,2025-06-06T10:48:00.478923
2289,-0.9980,-0.3026,0.1566,-11.795,8.470,9.240,1.00,0.00,0.03,0.16,0.00,2025-06-06T10:48:00.478923
2290,-0.9077,-0.1249,0.4490,2.625,6.895,1.400,2.00,0.00,0.03,0.16,0.00,2025-06-06T10:48:00.478923
2291,-0.7876,-0.0742,0.5763,7.840,-3.185,4.515,0.00,0.01,0.03,0.16,0.00,2025-06-06T10:48:00.478923
2292,-0.7554,-0.1874,0.5368,-12.740,6.685,6.580,1.00,0.01,0.03,0.16,0.00,2025-06-06T10:48:00.478923
2293,-0.9526,-0.1327,0.4026,-27.615,21.070,5.425,2.00,0.00,0.03,0.16,0.00,2025-06-06T10:48:00.478923
2294,-0.9409,-0.0381,0.3309,-16.905,15.330,0.350,0.00,0.00,0.04,0.15,0.00,2025-06-06T10:48:00.478923
2295,-1.0897,0.2455,-0.0068,11.410,-20.580,-21.490,2.00,0.00,0.03,0.16,0.00,2025-06-06T10:48:00.478923
2296,-0.8701,-0.1391,0.6500,-17.255,-22.995,-19.075,2.00,0.00,0.04,0.16,0.01,2025-06-06T10:48:00.478923
2297,-0.8359,-0.3567,0.6359,-35.630,-8.225,-11.795,3.00,0.00,0.04,0.16,0.00,2025-06-06T10:48:00.478923
2298,-0.8721,-0.1718,0.5812,-29.190,5.250,-4.305,1.00,0.01,0.03,0.16,0.01,2025-06-06T10:48:00.628799
2299,-0.7564,-0.2918,0.6661,-38.745,-7.035,3.710,3.00,0.01,0.05,0.15,0.00,2025-06-06T10:48:00.628799
2300,-0.8237,-0.1649,0.4534,-41.370,-2.625,9.765,0.00,0.00,0.03,0.16,0.00,2025-06-06T10:48:00.628799
2301,-0.8413,-0.1791,0.4529,-38.430,14.105,12.180,2.00,0.00,0.03,0.15,0.01,2025-06-06T10:48:00.628799
2302,-0.8111,-0.1566,0.5300,-44.765,17.920,23.730,1.00,0.00,0.04,0.16,0.01,2025-06-06T10:48:00.628799
2303,-0.8774,-0.3152,0.5270,-34.230,28.140,22.925,5.00,0.00,0.03,0.16,0.01,2025-06-06T10:48:00.628799
2304,-0.8979,-0.4148,0.5963,-38.500,31.850,12.005,3.00,0.01,0.04,0.16,0.00,2025-06-06T10:48:00.628799
2305,-0.9252,-0.3304,0.4558,-24.535,62.895,6.825,1.00,0.01,0.04,0.16,0.00,2025-06-06T10:48:00.628799
2306,-0.9457,0.0834,0.6266,-7.875,41.545,22.120,0.00,0.00,0.04,0.16,0.00,2025-06-06T10:48:00.628799
2307,-0.9248,-0.1615,0.6027,-22.400,-35.560,41.720,2.00,0.00,0.03,0.16,0.01,2025-06-06T10:48:00.628799
2308,-1.0380,-0.3845,0.6510,5.775,-66.325,50.435,1.00,0.00,0.04,0.16,0.01,2025-06-06T10:48:00.628799
2309,-0.8516,-0.1191,0.3523,38.465,-35.770,90.195,0.00,0.00,0.03,0.17,0.00,2025-06-06T10:48:00.628799
2310,-1.1283,-0.2411,0.6085,24.325,-10.045,113.995,1.00,0.00,0.04,0.16,0.00,2025-06-06T10:48:00.628799
2311,-1.3444,-0.1152,0.7086,7.770,-21.770,128.940,2.00,0.00,0.04,0.16,0.00,2025-06-06T10:48:00.812514
2312,-1.5679,-0.0293,0.7310,20.055,-58.205,143.850,0.00,0.00,0.04,0.17,0.00,2025-06-06T10:48:00.812514
2313,-1.4484,0.0444,0.6642,23.940,-98.490,162.470,3.00,0.01,0.04,0.17,0.00,2025-06-06T10:48:00.812514
2314,-1.3298,-0.1210,0.3475,35.805,-97.930,172.550,2.00,0.01,0.04,0.16,0.00,2025-06-06T10:48:00.812514
2315,-1.1849,-0.0293,0.3226,44.415,-71.540,183.995,0.00,0.00,0.04,0.16,0.00,2025-06-06T10:48:00.812514
2316,-1.0458,0.0371,0.1781,61.355,-44.450,192.780,2.00,0.01,0.03,0.16,0.00,2025-06-06T10:48:00.812514
2317,-0.9082,0.0307,0.1240,83.755,-9.065,206.360,2.00,0.00,0.04,0.17,0.00,2025-06-06T10:48:00.812514
2318,-0.8764,0.3445,0.1576,96.425,11.410,230.090,3.00,0.00,0.03,0.16,0.00,2025-06-06T10:48:00.813511
2319,-0.9799,0.2718,0.2069,87.955,50.155,233.485,1.00,0.00,0.04,0.16,0.00,2025-06-06T10:48:00.813511
2320,-0.9301,0.2987,0.3465,81.305,70.210,235.865,1.00,0.00,0.04,0.16,0.00,2025-06-06T10:48:00.813511
2321,-0.9457,0.3240,0.3640,88.900,73.010,234.255,1.00,0.00,0.04,0.16,0.00,2025-06-06T10:48:00.813511
2322,-0.8696,0.4724,0.3855,98.385,68.285,271.425,0.00,0.00,0.04,0.17,0.00,2025-06-06T10:48:00.813511
2323,-0.9370,-0.0610,0.6407,92.085,56.700,209.230,2.00,0.00,0.05,0.16,0.00,2025-06-06T10:48:00.813511
2324,-0.8647,0.4070,0.6310,85.120,28.385,200.095,1.00,0.00,0.05,0.15,0.00,2025-06-06T10:48:00.813511
2325,-0.8311,0.4968,0.5929,100.065,4.620,208.530,2.00,0.00,0.05,0.16,0.00,2025-06-06T10:48:00.813511
2326,-0.4865,0.3192,0.3279,99.470,-0.630,178.080,3.00,0.00,0.05,0.16,0.00,2025-06-06T10:48:01.014163
2327,-0.6730,0.4104,0.5388,123.165,15.855,202.720,0.00,0.00,0.05,0.16,0.00,2025-06-06T10:48:01.014163
2328,-0.4158,0.4182,0.3143,130.200,26.180,160.965,0.00,0.01,0.05,0.17,0.00,2025-06-06T10:48:01.014163
2329,-0.3655,0.3909,0.2894,139.020,35.910,145.215,1.00,0.00,0.05,0.17,0.00,2025-06-06T10:48:01.014163
2330,-0.4255,0.5778,0.2786,127.645,46.235,130.200,0.00,0.01,0.05,0.17,0.00,2025-06-06T10:48:01.014163
2331,-0.4636,0.7169,0.2455,92.820,40.040,121.485,1.00,0.01,0.05,0.17,0.00,2025-06-06T10:48:01.014163
2332,-0.5134,0.8316,0.3748,51.730,29.890,117.810,2.00,0.00,0.05,0.17,0.00,2025-06-06T10:48:01.014163
2333,-0.2567,0.7374,0.1859,51.765,14.105,108.640,0.00,0.00,0.05,0.17,0.01,2025-06-06T10:48:01.014163
2334,-0.4499,0.6964,0.2743,51.590,5.985,103.600,1.00,0.00,0.05,0.17,0.00,2025-06-06T10:48:01.014163
2335,-0.1976,0.7510,0.0776,54.705,1.645,90.440,3.00,0.01,0.05,0.17,0.00,2025-06-06T10:48:01.014163
2336,-0.1186,0.7369,-0.0063,54.600,22.015,80.080,2.00,0.00,0.05,0.17,0.00,2025-06-06T10:48:01.014163
2337,-0.1303,0.9126,0.0981,44.590,38.290,67.480,2.00,0.00,0.05,0.17,0.01,2025-06-06T10:48:01.014163
2338,0.0273,0.8667,0.0249,32.830,50.575,60.235,1.00,0.00,0.05,0.17,0.01,2025-06-06T10:48:01.014163
2339,-0.0947,1.0775,0.2650,33.705,57.330,54.075,0.00,0.01,0.05,0.17,0.01,2025-06-06T10:48:01.014163
2340,-0.0293,1.0175,0.2094,23.940,28.175,49.105,1.00,0.00,0.05,0.17,0.01,2025-06-06T10:48:01.014163
2341,0.0039,0.9111,0.1718,27.475,24.780,37.450,3.00,0.01,0.05,0.18,0.00,2025-06-06T10:48:01.112155
2342,0.0400,0.8828,0.0722,32.235,15.820,16.905,0.00,0.01,0.05,0.17,0.00,2025-06-06T10:48:01.112155
2343,-0.1503,0.9760,0.1352,14.525,20.335,-14.280,1.00,0.00,0.05,0.17,0.01,2025-06-06T10:48:01.113116
2344,-0.0307,1.0521,0.2416,-5.005,12.985,-36.470,0.00,0.00,0.04,0.16,0.00,2025-06-06T10:48:01.113116
2345,0.0620,1.0565,0.3157,-4.690,-10.990,-52.745,4.00,0.01,0.04,0.17,0.00,2025-06-06T10:48:01.113116
2346,0.0600,1.1575,0.5051,-7.875,-58.450,-67.795,2.00,0.01,0.04,0.16,0.01,2025-06-06T10:48:01.113116
2347,0.6866,0.9887,0.1586,-20.895,-94.605,-79.135,2.00,0.01,0.04,0.16,0.00,2025-06-06T10:48:01.113116
2348,1.1453,0.7071,0.0776,-38.920,-91.945,-95.935,2.00,0.01,0.05,0.16,0.00,2025-06-06T10:48:01.251437
2349,2.1321,0.2333,-0.2567,-93.450,-80.990,-120.505,1.00,0.00,0.04,0.16,0.01,2025-06-06T10:48:01.251437
2350,3.0041,-0.2826,-0.3060,-121.730,6.615,-176.330,3.00,0.00,0.04,0.16,0.00,2025-06-06T10:48:01.251437
2351,2.5361,-0.7457,0.0722,-355.320,103.460,-289.695,1.00,0.01,0.04,0.16,0.00,2025-06-06T10:48:01.251437
2352,1.4318,-0.4158,-0.7115,1.330,177.905,-304.430,3.00,0.00,0.04,0.16,0.01,2025-06-06T10:48:01.251437
2353,-0.1576,0.4802,-1.1302,-50.190,135.835,-390.285,1.00,0.00,0.05,0.16,0.00,2025-06-06T10:48:01.251437
2354,-2.2995,0.2484,-1.2590,-40.005,70.665,-414.225,0.00,0.00,0.04,0.17,0.00,2025-06-06T10:48:01.251437
2355,-4.7409,-0.0576,0.4939,-96.495,27.055,-492.660,1.00,0.00,0.04,0.17,0.00,2025-06-06T10:48:01.251437
2356,-4.6565,-0.9404,1.0707,-105.525,-2.135,-604.205,1.00,0.01,0.05,0.18,0.00,2025-06-06T10:48:01.251437
2357,-3.9040,-1.8193,0.6515,-122.955,71.330,-511.770,0.00,0.01,0.04,0.18,0.01,2025-06-06T10:48:01.251437
2358,-3.0642,-1.2683,0.9374,-93.415,155.050,-382.620,2.00,0.01,0.05,0.19,0.00,2025-06-06T10:48:01.251437
2359,-1.8754,-0.7867,0.4109,-132.020,186.830,-160.545,2.00,0.01,0.05,0.19,0.00,2025-06-06T10:48:01.429188
2360,-0.7515,-0.1518,-0.1420,0.385,54.285,-26.670,0.00,0.00,0.04,0.19,0.01,2025-06-06T10:48:01.429188
2361,-0.6315,0.9697,0.0537,79.415,-107.835,100.520,2.00,0.01,0.05,0.20,0.00,2025-06-06T10:48:01.429188
2362,-1.3200,0.8389,0.0405,94.290,-224.315,145.285,1.00,0.00,0.05,0.20,0.00,2025-06-06T10:48:01.429188
2363,-1.9310,0.1591,0.0454,81.970,-231.245,122.080,3.00,0.00,0.05,0.20,0.00,2025-06-06T10:48:01.429188
2364,-2.3365,-0.0078,0.1537,60.095,-162.260,58.800,1.00,0.00,0.03,0.20,0.00,2025-06-06T10:48:01.429188
2365,-2.1448,-0.1137,0.4763,-8.085,-80.150,-15.890,1.00,0.00,0.05,0.20,0.00,2025-06-06T10:48:01.429188
2366,-1.1390,0.0708,0.2279,-21.350,-34.580,-63.140,0.00,0.00,0.04,0.21,0.00,2025-06-06T10:48:01.429188
2367,-0.5929,0.6100,0.4211,-13.405,-35.560,-55.790,1.00,0.01,0.04,0.21,0.00,2025-06-06T10:48:01.429188
2368,0.0590,0.6583,0.0800,0.420,-92.960,-15.260,1.00,0.00,0.04,0.21,0.01,2025-06-06T10:48:01.429188
2369,-0.0805,0.5700,-0.0239,31.815,-93.905,33.635,4.00,0.00,0.05,0.22,0.00,2025-06-06T10:48:01.429188
2370,-0.2606,0.1537,-0.1752,35.175,-69.615,64.820,1.00,0.00,0.04,0.22,0.00,2025-06-06T10:48:01.429188
2371,-0.7374,-0.1035,-0.0483,28.455,1.260,70.630,3.00,0.01,0.05,0.22,0.00,2025-06-06T10:48:01.429188
2372,-1.0038,-0.1664,0.2572,2.065,44.170,54.040,5.00,0.01,0.04,0.22,0.00,2025-06-06T10:48:01.526529
2373,-1.1585,-0.1864,0.4163,-9.765,64.925,26.845,2.00,0.00,0.04,0.22,0.01,2025-06-06T10:48:01.526529
2374,-1.2693,-0.0512,0.6041,-23.100,43.085,5.495,1.00,0.01,0.05,0.22,0.00,2025-06-06T10:48:01.526529
2375,-1.2820,0.0185,0.6012,-15.435,1.785,-6.755,8.00,0.01,0.04,0.21,0.00,2025-06-06T10:48:01.526529
2376,-1.2400,0.1835,0.5592,-7.665,-41.265,-12.110,3.00,0.00,0.05,0.21,0.00,2025-06-06T10:48:01.526529
2377,-1.0834,0.2860,0.4534,-3.045,-84.945,-3.675,2.00,0.00,0.04,0.21,0.00,2025-06-06T10:48:01.526529
2378,-0.8706,0.2255,0.1527,7.035,-91.980,11.970,0.00,0.00,0.04,0.21,0.00,2025-06-06T10:48:01.526529
2379,-0.7725,0.2074,0.0747,20.755,-76.475,28.980,2.00,0.00,0.04,0.21,0.00,2025-06-06T10:48:01.642647
2380,-0.8169,0.1864,0.0659,22.155,-32.690,41.720,1.00,0.00,0.04,0.21,0.00,2025-06-06T10:48:01.642647
2381,-0.8491,0.1996,0.1274,23.555,1.820,52.850,0.00,0.00,0.04,0.21,0.00,2025-06-06T10:48:01.642647
2382,-0.9345,0.1527,0.2250,22.960,27.685,56.525,1.00,0.00,0.04,0.20,0.01,2025-06-06T10:48:01.642647
2383,-1.0331,0.1840,0.3406,22.540,32.060,55.580,4.00,0.01,0.04,0.20,0.00,2025-06-06T10:48:01.642647
2384,-1.1287,0.2396,0.4309,19.110,24.990,51.100,4.00,0.00,0.04,0.21,0.01,2025-06-06T10:48:01.642647
2385,-1.1322,0.2562,0.4431,18.305,2.275,45.255,1.00,0.01,0.04,0.20,0.00,2025-06-06T10:48:01.642647
2386,-1.0697,0.2396,0.4270,13.965,-22.295,40.250,1.00,0.00,0.04,0.21,0.01,2025-06-06T10:48:01.642647
2387,-0.9931,0.2089,0.3621,19.390,-39.410,34.650,3.00,0.01,0.04,0.20,0.00,2025-06-06T10:48:01.728790
2388,-0.9653,0.2445,0.3733,22.925,-49.420,35.980,2.00,0.00,0.04,0.20,0.00,2025-06-06T10:48:01.728790
2389,-0.8374,0.3772,0.2582,27.230,-50.085,32.795,2.00,0.01,0.04,0.20,0.01,2025-06-06T10:48:01.728790
2390,-0.8389,0.3333,0.2172,15.610,-44.520,52.920,0.00,0.00,0.04,0.20,0.00,2025-06-06T10:48:01.728790
2391,-0.8769,0.3694,0.1747,17.080,-24.710,54.915,1.00,0.01,0.04,0.19,0.00,2025-06-06T10:48:01.728790
2392,-0.9018,0.3143,0.2211,9.660,-19.880,59.395,2.00,0.00,0.04,0.19,0.00,2025-06-06T10:48:01.728790
2393,-0.9453,0.4114,0.2591,14.875,-12.880,64.225,5.00,0.00,0.04,0.20,0.00,2025-06-06T10:48:01.728790
2394,-0.9179,0.4026,0.2357,13.125,-10.850,66.535,1.00,0.00,0.04,0.19,0.00,2025-06-06T10:48:01.829161
2395,-0.8843,0.4553,0.2713,13.335,-2.590,66.640,0.00,0.00,0.05,0.19,0.00,2025-06-06T10:48:01.829161
2396,-0.9487,0.4734,0.3289,9.135,3.185,66.990,1.00,0.01,0.05,0.19,0.00,2025-06-06T10:48:01.829161
2397,-0.9062,0.4426,0.4148,4.025,3.150,65.030,0.00,0.00,0.04,0.18,0.01,2025-06-06T10:48:01.829161
2398,-0.8843,0.4265,0.4265,2.415,-3.640,63.980,1.00,0.01,0.04,0.18,0.00,2025-06-06T10:48:01.829161
2399,-0.7876,0.4080,0.3719,5.635,-11.340,65.065,3.00,0.00,0.05,0.18,0.01,2025-06-06T10:48:01.829161
2400,-0.8379,0.4211,0.4416,8.260,-13.335,65.030,2.00,0.00,0.04,0.18,0.00,2025-06-06T10:48:01.829161
2401,-0.8106,0.5046,0.4548,10.255,-21.875,62.160,2.00,0.00,0.04,0.18,0.00,2025-06-06T10:48:01.829161
2402,-0.7032,0.5636,0.3450,10.080,-28.245,62.405,4.00,0.01,0.04,0.18,0.01,2025-06-06T10:48:01.964404
2403,-0.7218,0.6120,0.2757,11.725,-24.850,63.175,0.00,0.01,0.04,0.18,0.00,2025-06-06T10:48:01.964404
2404,-0.6622,0.6022,0.2762,11.095,-17.150,63.350,1.00,0.00,0.04,0.18,0.00,2025-06-06T10:48:01.964404
2405,-0.7296,0.5646,0.3367,11.935,-8.505,61.215,1.00,0.01,0.04,0.19,0.01,2025-06-06T10:48:01.964404
2406,-0.7203,0.5627,0.3387,11.200,-6.860,55.475,2.00,0.01,0.04,0.19,0.00,2025-06-06T10:48:01.964404
2407,-0.7066,0.5680,0.3328,15.820,-1.540,49.980,2.00,0.00,0.04,0.18,0.00,2025-06-06T10:48:01.964404
2408,-0.7657,0.5656,0.3518,15.435,4.550,52.080,0.00,0.00,0.04,0.18,0.00,2025-06-06T10:48:01.964404
2409,-0.6622,0.6490,0.3753,14.560,8.365,59.640,1.00,0.00,0.04,0.18,0.00,2025-06-06T10:48:01.964404
2410,-0.5514,0.6637,0.3460,16.205,8.505,46.165,4.00,0.00,0.05,0.19,0.00,2025-06-06T10:48:02.070554
2411,-0.5104,0.5407,0.3333,19.880,13.335,47.985,0.00,0.00,0.05,0.18,0.00,2025-06-06T10:48:02.070554
2412,-0.5666,0.6959,0.3465,16.520,18.970,50.050,4.00,0.01,0.04,0.18,0.00,2025-06-06T10:48:02.070554
2413,-0.6720,0.7344,0.3845,23.100,25.935,84.770,2.00,0.00,0.05,0.18,0.00,2025-06-06T10:48:02.070554
2414,-0.7257,0.6647,0.4260,18.935,27.650,51.030,0.00,0.01,0.04,0.19,0.00,2025-06-06T10:48:02.070554
2415,-0.7569,0.7032,0.4729,21.630,20.790,54.495,0.00,0.01,0.04,0.18,0.00,2025-06-06T10:48:02.070554
2416,-0.7203,0.6720,0.4421,26.215,6.720,49.980,3.00,0.00,0.04,0.18,0.00,2025-06-06T10:48:02.070554
