SeqNum,AccX,AccY,AccZ,GyroX,GyroY,GyroZ,Flex,Force1,Force2,Force3,Force4,TimestampReception
1549,0.4568,0.2216,0.8828,0.490,-6.265,-0.175,397,434,305,414,355,2025-06-04T19:53:48.298732
1550,0.4577,0.2201,0.8828,0.525,-6.440,-0.105,425,437,341,411,390,2025-06-04T19:53:48.298732
1551,0.4568,0.2216,0.8813,0.455,-6.405,-0.175,426,435,364,419,410,2025-06-04T19:53:48.298732
1552,0.4563,0.2230,0.8823,0.455,-6.440,-0.210,410,406,342,423,384,2025-06-04T19:53:48.298732
1553,0.4553,0.2216,0.8838,0.490,-6.475,-0.105,384,417,368,379,381,2025-06-04T19:53:48.298732
1554,0.4582,0.2230,0.8808,0.455,-6.405,-0.175,335,398,377,340,400,2025-06-04T19:53:48.298732
1555,0.4573,0.2216,0.8808,0.420,-6.335,-0.140,394,438,340,397,412,2025-06-04T19:53:48.298732
1556,0.4563,0.2225,0.8823,0.420,-6.405,-0.210,396,409,359,405,389,2025-06-04T19:53:48.298732
1557,0.4538,0.2240,0.8833,0.455,-6.335,-0.175,418,419,357,393,402,2025-06-04T19:53:48.298732
1558,0.4568,0.2211,0.8828,0.455,-6.265,-0.245,399,410,366,397,411,2025-06-04T19:53:48.298732
1559,0.4534,0.2220,0.8813,0.455,-6.195,-0.245,402,432,385,407,408,2025-06-04T19:53:48.298732
1560,0.4538,0.2216,0.8823,0.525,-6.230,-0.350,426,433,388,417,417,2025-06-04T19:53:48.298732
1561,0.4558,0.2240,0.8823,0.490,-6.195,-0.315,414,412,395,407,413,2025-06-04T19:53:48.419628
1562,0.4553,0.2235,0.8818,0.455,-6.265,-0.245,340,391,385,396,410,2025-06-04T19:53:48.420386
1563,0.4553,0.2235,0.8823,0.525,-6.195,-0.315,381,425,390,415,420,2025-06-04T19:53:48.420386
1564,0.4553,0.2240,0.8818,0.490,-6.160,-0.280,417,411,370,405,400,2025-06-04T19:53:48.420386
1565,0.4563,0.2240,0.8808,0.420,-6.195,-0.315,356,346,375,387,405,2025-06-04T19:53:48.420386
1566,0.4548,0.2235,0.8833,0.455,-6.230,-0.210,385,401,378,403,412,2025-06-04T19:53:48.420386
1567,0.4563,0.2211,0.8828,0.420,-6.370,-0.210,415,413,369,411,392,2025-06-04T19:53:48.420386
1568,0.4573,0.2245,0.8823,0.490,-6.440,-0.175,383,410,384,359,378,2025-06-04T19:53:48.420386
1569,0.4538,0.2216,0.8818,0.560,-6.510,-0.070,397,340,338,381,373,2025-06-04T19:53:48.420386
1570,0.4558,0.2216,0.8823,0.490,-6.440,-0.210,414,388,368,363,336,2025-06-04T19:53:48.420386
1571,0.4597,0.2245,0.8813,0.525,-6.580,-0.140,377,410,340,387,381,2025-06-04T19:53:48.506824
1572,0.4568,0.2216,0.8804,0.525,-6.475,-0.210,420,400,331,399,400,2025-06-04T19:53:48.506824
1573,0.4573,0.2230,0.8818,0.595,-6.300,-0.140,426,418,357,350,363,2025-06-04T19:53:48.506824
1574,0.4568,0.2235,0.8799,0.420,-6.265,-0.175,390,345,355,383,388,2025-06-04T19:53:48.506824
1575,0.4558,0.2225,0.8823,0.525,-6.230,-0.210,405,405,363,409,396,2025-06-04T19:53:48.506824
1576,0.4553,0.2211,0.8833,0.490,-6.265,-0.245,354,414,338,394,410,2025-06-04T19:53:48.506824
1577,0.4553,0.2201,0.8818,0.455,-6.300,-0.140,410,433,361,409,411,2025-06-04T19:53:48.506824
1578,0.4548,0.2230,0.8833,0.455,-6.265,-0.210,404,417,379,397,411,2025-06-04T19:53:48.506824
1579,0.4558,0.2225,0.8828,0.490,-6.195,-0.280,413,392,381,413,411,2025-06-04T19:53:48.810227
1580,0.4568,0.2230,0.8818,0.560,-6.125,-0.315,417,417,371,404,364,2025-06-04T19:53:48.810227
1581,0.4563,0.2225,0.8818,0.525,-6.195,-0.210,401,431,377,390,400,2025-06-04T19:53:48.810227
1582,0.4558,0.2211,0.8823,0.455,-6.195,-0.245,416,374,375,390,408,2025-06-04T19:53:48.810227
1583,0.4543,0.2225,0.8804,0.490,-6.195,-0.315,358,411,371,403,404,2025-06-04T19:53:48.811241
1584,0.4558,0.2235,0.8808,0.490,-6.370,-0.280,407,395,385,402,405,2025-06-04T19:53:48.811241
1585,0.4558,0.2216,0.8833,0.420,-6.405,-0.175,410,433,386,412,375,2025-06-04T19:53:48.811241
1586,0.4563,0.2220,0.8823,0.525,-6.510,-0.175,391,416,380,307,395,2025-06-04T19:53:48.811241
1587,0.4538,0.2230,0.8808,0.525,-6.440,-0.210,393,432,378,347,392,2025-06-04T19:53:48.811241
1588,0.4548,0.2216,0.8838,0.525,-6.370,-0.210,396,416,355,368,416,2025-06-04T19:53:48.811241
1589,0.4568,0.2220,0.8828,0.385,-6.300,-0.280,411,407,369,390,398,2025-06-04T19:53:48.811241
1590,0.4558,0.2225,0.8804,0.490,-6.230,-0.210,353,420,335,410,410,2025-06-04T19:53:48.811241
1591,0.4563,0.2220,0.8818,0.525,-6.335,-0.280,413,421,358,420,418,2025-06-04T19:53:48.811241
1592,0.4538,0.2235,0.8818,0.490,-6.265,-0.245,368,409,368,412,401,2025-06-04T19:53:48.811241
1593,0.4548,0.2211,0.8813,0.560,-6.440,-0.210,399,390,380,358,366,2025-06-04T19:53:48.811241
1594,0.4587,0.2220,0.8799,0.595,-6.405,-0.175,384,373,377,366,351,2025-06-04T19:53:48.811241
1595,0.4563,0.2240,0.8838,0.560,-6.405,-0.245,395,420,372,384,392,2025-06-04T19:53:48.811241
1596,0.4563,0.2235,0.8808,0.455,-6.370,-0.105,385,409,381,402,387,2025-06-04T19:53:48.948628
1597,0.4538,0.2216,0.8799,0.420,-6.335,-0.210,394,429,382,416,356,2025-06-04T19:53:48.948628
1598,0.4563,0.2220,0.8828,0.420,-6.335,-0.210,421,426,386,414,383,2025-06-04T19:53:48.948628
1599,0.4558,0.2216,0.8818,0.420,-6.265,-0.280,396,437,381,348,404,2025-06-04T19:53:48.948628
1600,0.4563,0.2201,0.8813,0.490,-6.195,-0.245,356,364,371,379,409,2025-06-04T19:53:48.948628
1601,0.4568,0.2211,0.8808,0.455,-6.195,-0.175,374,422,342,342,399,2025-06-04T19:53:48.948628
1602,0.4573,0.2211,0.8833,0.560,-6.265,-0.350,413,413,323,383,408,2025-06-04T19:53:48.948628
1603,0.4563,0.2211,0.8843,0.525,-6.125,-0.280,375,420,360,364,399,2025-06-04T19:53:48.948628
1604,0.4553,0.2206,0.8838,0.630,-6.195,-0.280,415,403,362,352,360,2025-06-04T19:53:48.948628
1605,0.4563,0.2245,0.8823,0.560,-6.265,-0.210,430,428,349,377,339,2025-06-04T19:53:48.948628
1606,0.4553,0.2230,0.8823,0.525,-6.300,-0.280,416,372,365,374,390,2025-06-04T19:53:48.948628
1607,0.4568,0.2216,0.8823,0.525,-6.335,-0.245,419,418,345,399,390,2025-06-04T19:53:48.949602
1608,0.4543,0.2230,0.8843,0.455,-6.370,-0.105,393,407,354,421,401,2025-06-04T19:53:48.949602
1609,0.4553,0.2220,0.8804,0.420,-6.440,-0.175,405,421,332,364,394,2025-06-04T19:53:48.949602
1610,0.4543,0.2220,0.8843,0.455,-6.335,-0.175,374,410,370,391,395,2025-06-04T19:53:48.949602
1611,0.4548,0.2211,0.8823,0.455,-6.440,-0.210,386,399,381,389,393,2025-06-04T19:53:48.949602
1612,0.4568,0.2216,0.8818,0.490,-6.370,-0.105,417,409,387,408,389,2025-06-04T19:53:48.949602
1613,0.4573,0.2220,0.8818,0.455,-6.335,-0.210,418,422,388,376,395,2025-06-04T19:53:48.949602
1614,0.4563,0.2216,0.8828,0.560,-6.230,-0.315,423,401,369,379,385,2025-06-04T19:53:48.949602
1615,0.4543,0.2220,0.8828,0.490,-6.230,-0.210,401,416,369,393,343,2025-06-04T19:53:49.218473
1616,0.4563,0.2235,0.8813,0.490,-6.335,-0.280,383,340,384,384,343,2025-06-04T19:53:49.218473
1617,0.4558,0.2235,0.8843,0.560,-6.230,-0.245,413,409,382,397,390,2025-06-04T19:53:49.218473
1618,0.4553,0.2250,0.8818,0.525,-6.370,-0.245,416,415,386,412,410,2025-06-04T19:53:49.218473
1619,0.4563,0.2250,0.8818,0.525,-6.405,-0.175,431,345,391,395,405,2025-06-04T19:53:49.218473
1620,0.4558,0.2255,0.8799,0.420,-6.335,-0.315,425,403,389,396,415,2025-06-04T19:53:49.218473
1621,0.4553,0.2225,0.8828,0.420,-6.475,-0.175,405,411,378,414,381,2025-06-04T19:53:49.218473
1622,0.4573,0.2230,0.8828,0.385,-6.440,-0.175,421,411,345,352,382,2025-06-04T19:53:49.218473
1623,0.4563,0.2230,0.8813,0.385,-6.370,-0.210,394,401,359,388,350,2025-06-04T19:53:49.218473
1624,0.4577,0.2220,0.8828,0.665,-6.405,-0.210,399,427,373,397,387,2025-06-04T19:53:49.218473
1625,0.4548,0.2240,0.8838,0.525,-6.335,-0.210,400,414,379,399,389,2025-06-04T19:53:49.218473
1626,0.4577,0.2240,0.8828,0.665,-6.405,-0.175,410,376,382,391,382,2025-06-04T19:53:49.218473
1627,0.4573,0.2216,0.8823,0.490,-6.405,-0.105,404,423,374,422,402,2025-06-04T19:53:49.218473
1628,0.4602,0.2259,0.8862,0.455,-6.510,-0.070,345,409,372,401,396,2025-06-04T19:53:49.219545
1629,0.4577,0.2250,0.8862,0.350,-6.475,-0.140,390,427,378,351,391,2025-06-04T19:53:49.219545
1630,0.4607,0.2250,0.8833,0.595,-6.545,-0.140,392,403,338,380,412,2025-06-04T19:53:49.219545
1631,0.4582,0.2255,0.8813,0.420,-6.405,-0.140,419,396,288,384,389,2025-06-04T19:53:49.219545
1632,0.4568,0.2225,0.8794,0.315,-6.405,-0.105,392,361,352,388,368,2025-06-04T19:53:49.366383
1633,0.4553,0.2196,0.8774,0.140,-6.265,-0.035,295,389,358,368,373,2025-06-04T19:53:49.366383
1634,0.4553,0.2181,0.8735,0.210,-6.510,-0.175,382,423,379,393,396,2025-06-04T19:53:49.366383
1635,0.4641,0.2279,0.8862,0.525,-6.405,-0.175,409,420,382,412,409,2025-06-04T19:53:49.366383
1636,0.4558,0.2133,0.8916,0.140,-5.145,-0.385,402,428,382,379,378,2025-06-04T19:53:49.366383
1637,0.4568,0.2211,0.8823,0.875,-6.055,-0.490,416,431,374,414,396,2025-06-04T19:53:49.367231
1638,0.4529,0.2216,0.8725,0.175,-5.285,-0.560,369,303,363,410,350,2025-06-04T19:53:49.367231
1639,0.4582,0.2162,0.8823,0.245,-5.635,-0.490,338,384,332,412,377,2025-06-04T19:53:49.367231
1640,0.4548,0.2176,0.8857,0.700,-5.425,-0.315,406,420,373,415,390,2025-06-04T19:53:49.367231
1641,0.4519,0.2211,0.8755,0.420,-5.810,-0.385,388,360,371,411,398,2025-06-04T19:53:49.367231
1642,0.4568,0.2220,0.8808,0.770,-6.580,-0.350,416,407,368,419,407,2025-06-04T19:53:49.367231
1643,0.4582,0.2245,0.8906,0.245,-5.705,-0.315,413,425,370,407,405,2025-06-04T19:53:49.367231
1644,0.4543,0.2269,0.8847,1.190,-5.880,-0.350,401,346,374,422,423,2025-06-04T19:53:49.367231
1645,0.4519,0.2274,0.8755,0.385,-6.195,-0.315,410,366,376,356,350,2025-06-04T19:53:49.367231
1646,0.4543,0.2264,0.8804,-0.280,-6.265,-0.210,405,417,378,387,365,2025-06-04T19:53:49.367231
1647,0.4485,0.2216,0.8843,0.245,-6.125,-0.140,424,308,344,414,344,2025-06-04T19:53:49.367231
1648,0.4548,0.2162,0.8843,0.525,-6.125,-0.070,415,388,354,400,382,2025-06-04T19:53:49.367231
1649,0.4524,0.2201,0.8764,0.175,-7.175,0.035,353,392,378,414,400,2025-06-04T19:53:49.367231
1650,0.4563,0.2186,0.8843,0.175,-6.930,-0.070,410,407,384,419,406,2025-06-04T19:53:49.525393
1651,0.4577,0.2186,0.8916,1.295,-6.615,-0.140,423,428,376,415,387,2025-06-04T19:53:49.525393
1652,0.4543,0.2294,0.8813,0.805,-6.265,-0.175,418,433,383,407,388,2025-06-04T19:53:49.525393
1653,0.4538,0.2259,0.8750,0.490,-6.475,-0.350,399,428,308,418,413,2025-06-04T19:53:49.525393
1654,0.4573,0.2220,0.8852,0.315,-6.160,-0.280,413,408,316,428,382,2025-06-04T19:53:49.525393
1655,0.4534,0.2206,0.8833,0.350,-5.985,-0.210,421,424,315,394,380,2025-06-04T19:53:49.525393
1656,0.4543,0.2196,0.8804,0.595,-6.405,-0.175,403,404,350,420,388,2025-06-04T19:53:49.525393
1657,0.4553,0.2216,0.8828,0.350,-6.475,-0.140,374,421,369,396,409,2025-06-04T19:53:49.525393
1658,0.4563,0.2196,0.8852,0.630,-6.650,-0.070,383,342,362,368,397,2025-06-04T19:53:49.525393
1659,0.4534,0.2206,0.8843,0.700,-6.545,-0.175,412,413,371,400,394,2025-06-04T19:53:49.525393
1660,0.4568,0.2245,0.8808,0.630,-6.545,-0.210,357,411,379,344,401,2025-06-04T19:53:49.525393
1661,0.4577,0.2230,0.8833,0.420,-6.265,-0.245,408,355,374,335,400,2025-06-04T19:53:49.525393
1662,0.4548,0.2235,0.8847,0.350,-6.160,-0.245,341,388,335,381,352,2025-06-04T19:53:49.525393
1663,0.4548,0.2255,0.8813,0.560,-6.160,-0.245,398,423,364,378,350,2025-06-04T19:53:49.525393
1664,0.4538,0.2201,0.8813,0.280,-6.020,-0.280,417,411,375,344,374,2025-06-04T19:53:49.579330
1665,0.4558,0.2201,0.8838,0.490,-6.160,-0.245,421,389,368,359,390,2025-06-04T19:53:49.579330
1666,0.4534,0.2220,0.8828,0.490,-6.090,-0.280,400,378,336,350,409,2025-06-04T19:53:49.579330
1667,0.4563,0.2240,0.8828,0.595,-6.265,-0.350,387,406,351,391,412,2025-06-04T19:53:49.579330
1668,0.4538,0.2216,0.8828,0.455,-6.335,-0.245,397,403,356,414,409,2025-06-04T19:53:49.579330
1669,0.4543,0.2220,0.8838,0.490,-6.230,-0.175,415,404,345,418,422,2025-06-04T19:53:49.775226
1670,0.4558,0.2211,0.8799,0.560,-6.300,-0.140,431,411,366,401,392,2025-06-04T19:53:49.775226
1671,0.4568,0.2235,0.8838,0.315,-6.195,-0.210,432,380,371,390,410,2025-06-04T19:53:49.775226
1672,0.4553,0.2206,0.8813,0.490,-6.125,-0.210,422,412,340,348,402,2025-06-04T19:53:49.776247
1673,0.4538,0.2225,0.8828,0.560,-6.195,-0.245,420,397,365,398,388,2025-06-04T19:53:49.776247
1674,0.4543,0.2211,0.8804,0.455,-6.300,-0.210,432,371,370,414,405,2025-06-04T19:53:49.776247
1675,0.4529,0.2211,0.8828,0.490,-6.335,-0.315,411,387,365,409,402,2025-06-04T19:53:49.776247
1676,0.4543,0.2240,0.8833,0.490,-6.370,-0.210,341,405,373,400,409,2025-06-04T19:53:49.776247
1677,0.4529,0.2220,0.8813,0.525,-6.300,-0.140,394,348,389,399,390,2025-06-04T19:53:49.776247
1678,0.4548,0.2255,0.8828,0.560,-6.300,-0.280,399,412,362,404,403,2025-06-04T19:53:49.776247
1679,0.4563,0.2211,0.8843,0.420,-6.265,-0.245,387,412,337,415,419,2025-06-04T19:53:49.776247
1680,0.4558,0.2220,0.8828,0.525,-6.370,-0.210,382,405,363,409,402,2025-06-04T19:53:49.776925
1681,0.4563,0.2220,0.8808,0.420,-6.370,-0.175,349,394,387,414,420,2025-06-04T19:53:49.776925
1682,0.4573,0.2245,0.8813,0.560,-6.370,-0.210,376,398,377,419,403,2025-06-04T19:53:49.942397
1683,0.4538,0.2225,0.8813,0.455,-6.405,-0.245,402,413,387,412,399,2025-06-04T19:53:49.942397
1684,0.4568,0.2240,0.8838,0.595,-6.545,-0.140,412,422,391,413,406,2025-06-04T19:53:49.942397
1685,0.4543,0.2216,0.8818,0.595,-6.405,-0.140,356,354,393,409,395,2025-06-04T19:53:49.942397
1686,0.4582,0.2216,0.8838,0.420,-6.510,-0.175,408,417,392,407,394,2025-06-04T19:53:49.942397
1687,0.2713,0.8974,1.6865,-18.235,9.765,-5.215,398,426,393,403,352,2025-06-04T19:53:49.942397
1688,0.3440,0.3201,0.9882,-50.505,-32.095,-2.275,404,390,397,384,372,2025-06-04T19:53:49.943433
1689,0.3753,0.5261,0.7501,-33.565,-8.645,-21.175,342,410,387,411,380,2025-06-04T19:53:49.943433
1690,-0.0346,0.3514,1.2073,-61.285,32.480,-34.895,352,392,385,390,403,2025-06-04T19:53:49.943433
1691,0.2069,0.2987,1.0526,-31.360,-32.970,-45.605,385,397,393,396,402,2025-06-04T19:53:49.943433
1692,0.3245,0.0547,0.7632,-24.780,-40.390,-52.395,422,431,378,360,350,2025-06-04T19:53:49.943433
1693,0.2645,0.0595,0.8608,-106.995,-7.070,-59.080,401,415,373,378,372,2025-06-04T19:53:49.943433
1694,0.3162,0.0752,0.9848,-52.115,-21.700,-65.590,423,419,386,422,399,2025-06-04T19:53:49.943433
1695,0.4246,0.0942,0.9448,-43.540,-15.680,-71.645,411,416,389,411,347,2025-06-04T19:53:49.943433
1696,0.4978,0.2464,0.8047,-64.680,-27.370,-73.990,394,349,378,360,381,2025-06-04T19:53:49.943433
1697,0.7603,0.1098,0.9218,-58.275,-10.255,-76.125,414,396,374,398,406,2025-06-04T19:53:49.943433
1698,0.7305,0.2294,0.8335,-62.160,33.145,-70.560,410,394,372,409,353,2025-06-04T19:53:49.943433
1699,0.6398,0.3016,0.8101,-20.860,24.815,-64.575,398,297,368,310,351,2025-06-04T19:53:50.236025
1700,0.6076,0.2567,0.7618,-32.165,38.815,-61.950,381,408,367,373,375,2025-06-04T19:53:50.237182
1701,0.5671,0.3104,0.9296,-48.650,48.475,-57.925,411,393,374,394,390,2025-06-04T19:53:50.237182
1702,0.5568,0.2416,1.0116,-54.600,47.670,-55.300,424,413,381,405,349,2025-06-04T19:53:50.237182
1703,0.5348,0.1840,0.9306,-48.930,53.480,-54.635,393,397,376,412,342,2025-06-04T19:53:50.237182
1704,0.4685,0.1069,0.9252,-40.915,54.495,-54.355,408,397,377,385,376,2025-06-04T19:53:50.237182
1705,0.4563,-0.0049,0.8794,-32.725,50.750,-52.675,374,376,381,388,383,2025-06-04T19:53:50.237182
1706,0.4294,0.0381,0.8589,-34.195,48.125,-50.295,405,412,395,406,345,2025-06-04T19:53:50.238053
1707,0.2762,0.1010,0.9521,-37.485,50.015,-49.630,420,407,390,406,396,2025-06-04T19:53:50.238053
1708,0.0493,0.1884,1.0516,-28.980,54.390,-58.555,416,388,347,388,358,2025-06-04T19:53:50.238053
1709,-0.1542,0.3943,1.1082,-26.460,46.865,-74.305,419,427,358,408,338,2025-06-04T19:53:50.238053
1710,0.1410,0.5348,1.1146,-48.440,31.500,-81.270,361,427,376,355,375,2025-06-04T19:53:50.238053
1711,0.3865,0.7013,1.0834,-48.230,34.895,-74.935,396,378,389,390,401,2025-06-04T19:53:50.238053
1712,0.3640,0.6603,1.1112,-49.595,33.180,-66.220,395,395,373,409,407,2025-06-04T19:53:50.238053
1713,0.3533,0.4690,0.9536,-44.905,26.985,-49.105,408,425,367,403,408,2025-06-04T19:53:50.238053
1714,0.3367,0.0600,0.8316,-70.455,19.390,-42.630,410,351,369,349,387,2025-06-04T19:53:50.238053
1715,0.3050,-0.1747,0.9423,-66.290,17.955,-38.325,412,394,334,378,414,2025-06-04T19:53:50.238053
1716,0.3845,-0.1176,0.9443,-42.385,27.895,-37.625,416,366,332,394,406,2025-06-04T19:53:50.366773
1717,0.3719,-0.0449,0.9218,-31.255,48.020,-37.275,420,391,355,414,412,2025-06-04T19:53:50.366773
1718,0.3450,-0.0342,0.8394,-37.940,63.945,-40.075,404,406,364,399,396,2025-06-04T19:53:50.366773
1719,0.2708,-0.0820,0.8398,-44.415,80.850,-47.285,399,402,386,407,386,2025-06-04T19:53:50.366773
1720,0.1967,-0.0776,0.9048,-39.865,102.200,-56.035,345,395,374,377,402,2025-06-04T19:53:50.366773
1721,0.0864,-0.0698,1.0258,-28.210,121.520,-65.590,407,393,376,364,364,2025-06-04T19:53:50.366773
1722,-0.0381,-0.0220,1.1317,-20.650,122.535,-75.530,427,402,388,361,384,2025-06-04T19:53:50.370248
1723,-0.1303,-0.0210,1.2068,-20.405,108.220,-84.420,418,402,381,380,399,2025-06-04T19:53:50.370248
1724,-0.0996,0.0181,1.2088,-20.090,95.480,-86.870,341,338,342,383,348,2025-06-04T19:53:50.370248
1725,0.0059,0.0732,1.1258,-12.005,86.450,-84.315,358,389,370,402,398,2025-06-04T19:53:50.370248
1726,0.1030,0.1015,0.9775,-8.505,95.130,-75.285,408,422,375,404,361,2025-06-04T19:53:50.371241
1727,0.3255,0.2879,0.8901,-28.595,115.570,-62.930,418,437,392,411,387,2025-06-04T19:53:50.371241
1728,-0.0293,0.0112,0.9145,-29.260,116.795,-50.505,409,423,388,419,390,2025-06-04T19:53:50.371241
1729,-0.1088,-0.0756,0.8018,0.385,108.220,-44.065,398,421,377,409,399,2025-06-04T19:53:50.371241
1730,0.0395,0.0122,0.9858,-12.215,123.375,-33.075,387,410,392,418,358,2025-06-04T19:53:50.371241
1731,0.1854,-0.0190,0.9853,-22.645,146.125,-23.625,399,423,386,411,384,2025-06-04T19:53:50.371241
1732,-0.1376,-0.0107,1.1312,-21.070,131.775,-16.555,379,397,390,368,355,2025-06-04T19:53:50.371241
1733,0.0571,0.0273,1.1229,-19.810,126.525,-10.045,407,419,392,401,394,2025-06-04T19:53:50.371241
1734,-0.0937,-0.0049,1.0936,-37.170,133.560,-5.180,420,406,396,409,401,2025-06-04T19:53:50.371241
1735,-0.1044,-0.0298,1.0238,-28.840,129.500,-1.330,414,405,396,406,396,2025-06-04T19:53:50.645349
1736,-0.1274,-0.0390,0.9135,-29.610,138.600,2.975,349,420,384,414,397,2025-06-04T19:53:50.645349
1737,-0.3709,-0.0737,0.9755,-40.180,134.365,4.795,383,406,387,355,384,2025-06-04T19:53:50.645349
1738,-0.2342,-0.1137,1.0521,-41.860,115.745,5.845,350,412,347,385,380,2025-06-04T19:53:50.645349
1739,-0.3323,-0.2191,1.0424,-54.635,120.855,4.970,406,425,356,407,378,2025-06-04T19:53:50.645349
1740,-0.3889,-0.3455,0.7735,-58.205,111.265,2.100,429,426,366,368,396,2025-06-04T19:53:50.645349
1741,-0.6027,-0.4153,0.8389,-41.685,106.505,-3.150,409,391,366,394,396,2025-06-04T19:53:50.646075
1742,-0.7003,-0.4875,0.7398,-38.395,95.865,-7.420,382,423,376,360,398,2025-06-04T19:53:50.646075
1743,-0.7257,-0.4290,0.7837,-19.110,76.685,-12.845,410,436,376,394,403,2025-06-04T19:53:50.646075
1744,-0.6373,-0.3767,0.9350,-16.380,65.065,-10.780,396,403,386,394,391,2025-06-04T19:53:50.646075
1745,-0.4333,-0.4031,1.0087,-20.475,51.975,-2.625,399,407,385,415,402,2025-06-04T19:53:50.646075
1746,-0.4158,-0.4182,1.1258,-14.595,31.185,10.115,402,432,395,412,404,2025-06-04T19:53:50.646075
1747,-0.4182,-0.2996,1.2190,-2.345,24.185,16.590,402,389,394,424,416,2025-06-04T19:53:50.646075
1748,-0.3445,-0.2826,1.1424,4.830,30.170,21.805,413,339,385,363,417,2025-06-04T19:53:50.646075
1749,-0.1937,-0.2865,0.9989,3.605,40.110,22.855,415,376,353,406,402,2025-06-04T19:53:50.903264
1750,-0.1386,-0.2884,0.9945,10.990,61.880,20.125,415,428,380,428,417,2025-06-04T19:53:50.903264
1751,-0.1776,-0.3040,1.0194,18.375,90.755,16.450,392,403,367,401,356,2025-06-04T19:53:50.903264
1752,-0.1713,-0.3353,1.0721,35.105,111.510,13.545,369,428,376,401,399,2025-06-04T19:53:50.903264
1753,-0.2889,-0.2230,1.0121,43.960,132.335,7.035,396,355,379,412,402,2025-06-04T19:53:50.903264
1754,-0.2938,-0.2133,1.0487,56.490,134.435,12.005,421,381,387,391,409,2025-06-04T19:53:50.903264
1755,-0.1391,-0.2303,0.9067,67.235,141.225,19.705,425,412,400,407,397,2025-06-04T19:53:50.903264
1756,-0.2684,-0.0956,0.9745,68.460,156.835,23.030,420,357,382,398,388,2025-06-04T19:53:50.903264
1757,-0.3040,-0.0259,0.9306,78.855,157.605,23.520,370,403,381,396,402,2025-06-04T19:53:50.903264
1758,-0.1669,0.0059,0.8369,88.375,163.625,26.110,408,424,389,391,397,2025-06-04T19:53:50.903264
1759,-0.0425,0.0664,0.7706,90.895,178.430,28.630,412,363,371,403,345,2025-06-04T19:53:50.903264
1760,-0.2118,0.1996,0.7222,86.555,202.685,25.375,397,407,384,351,366,2025-06-04T19:53:50.903264
1761,-0.3494,0.1288,0.6095,95.165,209.650,16.765,399,415,390,403,376,2025-06-04T19:53:50.903264
1762,-0.4543,0.1020,0.5802,88.270,220.605,5.425,346,424,395,391,386,2025-06-04T19:53:50.903264
1763,-0.6852,0.1571,0.6383,72.730,240.205,-11.970,416,433,383,404,351,2025-06-04T19:53:50.903264
1764,-0.7364,0.0737,0.6622,68.250,235.865,-18.445,424,391,342,404,397,2025-06-04T19:53:50.903264
1765,-0.6759,0.0332,0.5280,55.405,227.430,-25.655,347,334,366,376,372,2025-06-04T19:53:50.903264
1766,-0.7257,0.0420,0.4787,55.405,218.190,-28.000,404,410,368,395,404,2025-06-04T19:53:50.903264
1767,-0.8159,0.0825,0.5466,72.135,216.020,-31.815,396,432,349,387,410,2025-06-04T19:53:51.054832
1768,-0.9082,0.0703,0.4304,89.845,191.835,-42.245,351,410,341,390,407,2025-06-04T19:53:51.054832
1769,-0.9321,0.0371,0.3543,71.680,179.200,-51.905,381,419,357,389,383,2025-06-04T19:53:51.054832
1770,-1.0102,0.0605,0.2811,98.315,159.110,-62.860,417,400,365,341,396,2025-06-04T19:53:51.054832
1771,-0.9667,0.0678,0.2938,73.010,154.000,-67.480,357,341,357,331,387,2025-06-04T19:53:51.054832
1772,-0.9292,0.0459,0.1630,69.195,145.005,-70.245,403,404,343,394,406,2025-06-04T19:53:51.054832
1773,-1.0497,0.0200,0.1308,82.565,122.710,-71.610,402,385,359,405,409,2025-06-04T19:53:51.054832
1774,-1.0316,0.0849,0.0820,94.535,104.090,-71.050,396,420,364,362,347,2025-06-04T19:53:51.055830
1775,-0.9682,0.0942,0.0464,92.715,93.520,-69.265,402,370,340,338,385,2025-06-04T19:53:51.055830
1776,-0.9872,0.1415,0.0498,101.570,76.930,-64.890,397,405,367,332,403,2025-06-04T19:53:51.055830
1777,-0.9477,0.1352,0.0415,100.800,63.000,-58.170,408,359,369,393,415,2025-06-04T19:53:51.055830
1778,-0.8760,0.1884,0.0425,94.710,58.310,-50.470,417,410,371,399,392,2025-06-04T19:53:51.055830
1779,-0.8384,0.2430,0.0727,84.420,59.535,-42.560,421,427,365,400,415,2025-06-04T19:53:51.055830
1780,-0.8218,0.2006,0.1225,74.655,65.450,-37.800,391,425,377,415,411,2025-06-04T19:53:51.055830
1781,-0.7837,0.0551,0.0527,64.050,75.705,-34.720,410,388,305,411,412,2025-06-04T19:53:51.055830
1782,-0.8750,-0.0722,-0.0229,59.990,81.585,-31.010,345,386,353,398,398,2025-06-04T19:53:51.055830
1783,-0.9204,-0.0854,-0.1479,74.865,75.845,-31.535,388,422,376,422,393,2025-06-04T19:53:51.055830
1784,-1.0648,-0.0693,-0.2508,86.835,69.230,-32.585,414,377,379,399,398,2025-06-04T19:53:51.161972
1785,-1.1302,-0.0142,-0.2640,88.060,48.020,-36.505,392,354,338,399,349,2025-06-04T19:53:51.161972
1786,-1.1341,-0.0429,-0.1664,86.660,28.105,-37.275,415,382,362,409,394,2025-06-04T19:53:51.161972
1787,-1.1229,-0.0332,-0.1327,75.670,4.200,-39.550,307,333,362,422,406,2025-06-04T19:53:51.161972
1788,-1.1146,-0.0464,-0.0903,80.640,-10.290,-41.650,332,359,380,376,350,2025-06-04T19:53:51.161972
1789,-1.1214,-0.0366,-0.1469,79.240,-20.020,-43.750,385,409,382,367,362,2025-06-04T19:53:51.161972
1790,-1.0555,-0.0366,-0.1449,78.330,-28.490,-45.990,355,429,368,396,383,2025-06-04T19:53:51.161972
1791,-0.9994,-0.0088,-0.1479,67.760,-32.060,-48.720,408,351,373,399,402,2025-06-04T19:53:51.161972
1792,-1.0033,-0.0098,-0.1615,62.055,-34.860,-49.665,390,418,377,416,354,2025-06-04T19:53:51.161972
1793,-0.9365,0.0415,-0.2054,56.630,-39.445,-51.800,392,422,389,422,390,2025-06-04T19:53:51.161972
1794,-0.9687,0.0669,-0.2313,45.045,-40.110,-53.410,392,420,395,402,405,2025-06-04T19:53:51.161972
1795,-0.8764,0.1391,-0.2103,35.070,-42.910,-54.250,411,348,348,404,411,2025-06-04T19:53:51.161972
1796,-0.7618,0.0947,-0.1620,23.240,-39.060,-49.840,407,406,370,349,389,2025-06-04T19:53:51.161972
1797,-0.6959,0.0605,-0.1771,5.845,-41.615,-44.730,402,403,384,349,384,2025-06-04T19:53:51.161972
1798,-0.6900,0.0283,-0.2162,2.240,-39.340,-41.895,380,410,375,384,386,2025-06-04T19:53:51.161972
1799,-0.8032,0.0752,-0.1786,3.150,-40.075,-40.530,412,378,387,385,382,2025-06-04T19:53:51.161972
1800,-0.7164,0.0649,-0.1503,-6.825,-39.025,-37.940,394,394,394,413,378,2025-06-04T19:53:51.161972
1801,-0.6642,-0.0791,-0.1771,-19.565,-39.900,-33.740,395,425,387,414,389,2025-06-04T19:53:51.268447
1802,-0.9477,0.0688,-0.0522,-16.100,-40.985,-38.045,407,411,348,357,406,2025-06-04T19:53:51.268447
1803,-0.9292,0.1030,-0.2098,-18.690,-58.030,-45.710,395,429,325,395,411,2025-06-04T19:53:51.268973
1804,-0.8838,-0.0151,-0.1020,-55.650,-63.420,-54.145,403,424,358,394,359,2025-06-04T19:53:51.268973
1805,-0.7544,-0.2274,-0.0312,-63.000,-69.615,-63.770,386,408,336,352,385,2025-06-04T19:53:51.268973
1806,-0.7740,-0.2201,-0.1113,-59.605,-61.075,-78.120,411,394,321,374,384,2025-06-04T19:53:51.268973
1807,-0.7837,-0.1479,-0.2528,-61.040,-52.150,-91.700,373,394,328,338,413,2025-06-04T19:53:51.268973
1808,-0.7013,-0.1337,-0.1874,-97.580,-47.005,-97.580,335,416,326,395,391,2025-06-04T19:53:51.268973
1809,-0.5134,-0.2889,-0.1181,-109.235,-25.655,-101.185,399,403,365,388,362,2025-06-04T19:53:51.367147
1810,-0.6808,-0.1781,0.0264,-80.850,-7.805,-110.215,413,422,384,405,375,2025-06-04T19:53:51.367147
1811,-0.5700,-0.5295,-0.2796,-98.280,19.950,-100.450,412,425,379,405,378,2025-06-04T19:53:51.367147
1812,-0.5485,-0.5827,-0.1010,-109.900,25.690,-95.025,365,413,376,353,390,2025-06-04T19:53:51.367147
1813,-0.7330,-0.4285,0.1010,-77.490,31.010,-91.385,391,416,384,359,397,2025-06-04T19:53:51.368123
1814,-0.9550,-0.3675,0.0063,-83.790,39.270,-89.985,386,420,378,395,408,2025-06-04T19:53:51.368123
1815,-0.9726,-0.3548,-0.0737,-82.040,24.745,-92.890,412,304,352,357,401,2025-06-04T19:53:51.368123
1816,-0.8755,-0.4177,-0.1039,-84.490,11.235,-95.060,410,388,332,395,402,2025-06-04T19:53:51.368123
1817,-0.8364,-0.5466,-0.1293,-75.495,12.600,-98.245,347,387,362,400,370,2025-06-04T19:53:51.415989
1818,-0.7998,-0.5915,-0.1596,-58.940,13.615,-105.665,337,386,367,413,390,2025-06-04T19:53:51.415989
1819,-0.7652,-0.5958,-0.2547,-38.150,23.240,-114.275,393,415,368,403,381,2025-06-04T19:53:51.416987
1820,-0.6442,-0.6398,-0.2796,-27.300,36.995,-120.295,401,403,374,403,392,2025-06-04T19:53:51.416987
1821,-0.5885,-0.6739,-0.2835,-7.035,55.440,-123.375,422,421,369,409,398,2025-06-04T19:53:51.463864
1822,-0.5973,-0.6549,-0.2323,14.035,78.750,-124.950,398,401,377,416,415,2025-06-04T19:53:51.463864
1823,-0.6290,-0.6120,-0.1405,23.450,104.055,-124.320,413,420,387,395,401,2025-06-04T19:53:51.463864
1824,-0.7032,-0.7222,-0.1674,23.065,121.485,-122.570,408,427,383,407,394,2025-06-04T19:53:51.463864
1825,-0.7520,-0.8857,-0.3006,37.835,134.995,-122.150,424,373,378,405,409,2025-06-04T19:53:51.599416
1826,-0.8228,-0.8174,-0.1913,55.510,143.710,-121.940,417,415,391,392,365,2025-06-04T19:53:51.599416
1827,-1.0697,-0.8120,-0.1679,53.095,143.675,-118.055,420,419,380,358,403,2025-06-04T19:53:51.599416
1828,-1.0331,-0.6974,-0.0610,59.675,114.170,-109.935,388,433,386,363,415,2025-06-04T19:53:51.599416
1829,-1.1141,-0.6978,-0.0981,50.855,75.600,-98.490,401,421,382,346,418,2025-06-04T19:53:51.599416
1830,-1.1556,-0.5958,-0.2533,36.330,24.570,-95.375,413,419,381,369,412,2025-06-04T19:53:51.599416
1831,-1.1204,-0.7462,-0.2381,31.290,-0.945,-92.435,430,398,378,390,421,2025-06-04T19:53:51.599416
1832,-1.0555,-0.8506,-0.2474,22.855,-31.115,-90.510,413,427,386,410,411,2025-06-04T19:53:51.599416
1833,-0.8560,-0.8535,-0.2894,34.475,-53.480,-88.200,412,415,381,384,361,2025-06-04T19:53:51.599990
1834,-0.8940,-0.8154,-0.2206,17.500,-66.010,-92.645,422,401,369,339,387,2025-06-04T19:53:51.599990
1835,-0.7876,-0.8135,-0.3157,19.635,-62.510,-94.500,406,429,364,333,394,2025-06-04T19:53:51.599990
1836,-0.7754,-0.8115,-0.2386,9.135,-61.600,-96.530,429,421,359,379,388,2025-06-04T19:53:51.599990
1837,-0.7393,-0.8340,-0.3089,-5.635,-49.210,-98.105,404,426,372,383,395,2025-06-04T19:53:51.677138
1838,-0.7549,-0.9428,-0.3221,-19.215,-45.220,-99.680,389,424,347,404,401,2025-06-04T19:53:51.678137
1839,-0.8647,-0.9667,-0.2894,-33.565,-42.700,-103.215,402,416,368,357,407,2025-06-04T19:53:51.678137
1840,-0.8408,-1.0141,-0.2328,-40.320,-40.565,-104.125,396,408,369,372,352,2025-06-04T19:53:51.678137
1841,-0.8018,-0.9614,-0.2708,-49.385,-41.160,-102.830,347,416,339,403,374,2025-06-04T19:53:51.678137
1842,-0.7369,-0.9272,-0.2528,-57.260,-36.960,-98.350,389,423,356,416,402,2025-06-04T19:53:51.678137
1843,-0.7213,-0.8784,-0.3601,-72.100,-37.205,-95.515,414,414,368,428,357,2025-06-04T19:53:51.734923
1844,-0.6559,-0.8701,-0.2987,-77.175,-32.165,-87.395,394,433,378,374,347,2025-06-04T19:53:51.734923
1845,-0.7418,-0.9189,-0.2889,-92.155,-35.770,-79.520,424,422,387,396,388,2025-06-04T19:53:51.734923
1846,-0.7261,-0.9209,-0.2030,-104.405,-41.580,-61.180,402,406,385,406,400,2025-06-04T19:53:51.734923
1847,-0.6866,-0.8564,-0.0942,-116.655,-52.990,-37.870,378,404,358,421,392,2025-06-04T19:53:51.872951
1848,-0.6080,-0.9262,-0.0683,-122.395,-58.590,-8.785,376,392,329,415,387,2025-06-04T19:53:51.872951
1849,-0.5627,-0.9233,-0.1908,-120.715,-64.085,16.695,390,399,358,355,344,2025-06-04T19:53:51.872951
1850,-0.9170,-0.9584,-0.0600,-115.885,-73.080,35.770,407,420,298,396,342,2025-06-04T19:53:51.872951
1851,-1.3630,-1.6753,0.3245,-23.730,-126.805,57.890,415,427,333,393,383,2025-06-04T19:53:51.872951
1852,-0.9311,-1.5997,0.1074,46.970,-172.970,67.865,400,402,359,395,382,2025-06-04T19:53:51.872951
1853,-0.4695,-0.9789,-0.5100,35.735,-154.315,75.775,386,433,372,351,341,2025-06-04T19:53:51.872951
1854,-0.1527,-0.9311,-0.5690,44.030,-122.990,68.810,398,357,379,396,390,2025-06-04T19:53:51.872951
1855,0.0317,-0.9272,-0.4802,45.325,-69.930,59.325,375,409,386,352,369,2025-06-04T19:53:51.872951
1856,-0.0093,-1.0863,-0.3250,49.840,-2.380,48.545,400,302,375,391,394,2025-06-04T19:53:51.872951
1857,-0.0586,-1.1834,-0.1371,62.440,53.270,40.250,389,404,338,412,399,2025-06-04T19:53:51.872951
1858,-0.1254,-1.1214,-0.1093,42.525,86.100,30.100,384,344,356,400,411,2025-06-04T19:53:51.872951
1859,-0.3924,-0.8394,-0.0908,19.985,87.010,15.610,411,393,365,394,408,2025-06-04T19:53:51.872951
1860,-0.8291,-0.9682,0.0820,17.220,47.320,-8.925,354,400,346,407,406,2025-06-04T19:53:51.984312
1861,-0.8086,-0.7300,0.0346,11.620,-8.295,-29.855,338,401,359,398,360,2025-06-04T19:53:51.984312
1862,-0.7125,-0.8467,0.0464,2.275,-6.370,-27.790,362,397,360,403,388,2025-06-04T19:53:51.984312
1863,-0.6549,-0.7052,0.0434,12.005,-16.940,-20.930,366,424,302,397,402,2025-06-04T19:53:51.984606
1864,-0.9677,-0.4548,-0.0102,19.880,-50.715,-20.720,340,408,306,357,344,2025-06-04T19:53:51.984606
1865,-0.9218,-0.4036,-0.1244,19.215,-86.345,-23.590,338,421,345,377,365,2025-06-04T19:53:51.984606
1866,-0.8316,-0.5061,-0.2259,8.575,-122.605,-31.220,387,395,368,414,403,2025-06-04T19:53:51.984606
1867,-0.7008,-0.6149,-0.2362,0.070,-143.710,-42.630,419,407,377,409,390,2025-06-04T19:53:51.984606
1868,-0.6090,-0.7115,-0.1840,-7.280,-144.025,-50.645,423,390,377,408,386,2025-06-04T19:53:52.087251
1869,-0.4387,-1.2190,-0.0220,8.190,-122.570,-30.870,402,405,378,399,397,2025-06-04T19:53:52.087251
1870,-0.7183,-1.4982,0.1240,39.025,-96.635,-5.005,400,386,386,412,401,2025-06-04T19:53:52.087489
1871,-0.8838,-1.3166,0.1147,72.835,-113.540,4.900,415,400,354,409,348,2025-06-04T19:53:52.087489
1872,-0.9028,-0.6603,-0.1444,64.085,-136.815,4.865,423,402,376,356,378,2025-06-04T19:53:52.087489
1873,-0.7505,-0.5114,-0.2591,30.695,-147.770,4.830,354,415,382,391,391,2025-06-04T19:53:52.087489
1874,-0.6232,-0.7857,-0.0976,18.235,-142.310,1.015,396,362,385,394,405,2025-06-04T19:53:52.087489
1875,-0.5773,-1.0355,0.1161,15.960,-132.650,-2.170,414,369,391,423,409,2025-06-04T19:53:52.087489
1876,-0.4748,-1.0853,0.2162,23.800,-122.535,0.245,392,391,384,414,365,2025-06-04T19:53:52.191145
1877,-0.4299,-1.1893,0.2669,25.480,-114.800,3.325,422,343,349,402,364,2025-06-04T19:53:52.191145
1878,-0.3553,-1.0838,0.2518,29.505,-98.560,3.570,420,388,381,397,401,2025-06-04T19:53:52.191145
1879,-0.3616,-1.0438,0.2757,38.430,-81.900,0.210,414,404,356,401,415,2025-06-04T19:53:52.191145
1880,-0.3235,-0.8828,0.2991,38.745,-66.570,-2.590,388,421,380,359,414,2025-06-04T19:53:52.191145
1881,-0.2826,-0.9755,0.3938,32.655,-50.015,-5.215,351,405,387,400,372,2025-06-04T19:53:52.191145
1882,-0.1840,-1.1239,0.4890,25.830,-29.960,-7.000,410,416,345,410,365,2025-06-04T19:53:52.191859
1883,-0.4104,-0.7403,0.2923,29.750,-34.825,-11.900,421,435,363,413,387,2025-06-04T19:53:52.192003
1884,-0.2762,-0.9296,0.2821,26.320,-18.340,-10.185,408,355,368,405,394,2025-06-04T19:53:52.192003
1885,-0.2850,-1.0638,0.3601,24.885,-9.590,-5.285,425,419,372,375,402,2025-06-04T19:53:52.334187
1886,-0.3270,-1.2112,0.4026,31.325,-6.160,-0.245,410,435,387,415,404,2025-06-04T19:53:52.334187
1887,-0.4187,-1.0936,0.4119,37.660,-5.180,3.955,400,404,389,406,430,2025-06-04T19:53:52.334187
1888,-0.3543,-1.1200,0.4109,30.940,-5.145,12.530,421,423,400,387,430,2025-06-04T19:53:52.334187
1889,-0.5285,-1.0331,0.3260,23.800,-5.040,14.840,426,358,355,410,411,2025-06-04T19:53:52.334187
1890,-0.5353,-0.4787,0.1937,24.115,-10.535,13.930,397,396,349,422,410,2025-06-04T19:53:52.334187
1891,-0.7696,-0.3128,0.1430,11.095,-32.620,5.915,424,395,392,376,405,2025-06-04T19:53:52.335190
1892,-0.7349,-0.2284,0.0800,-3.570,-56.560,2.345,405,416,389,405,362,2025-06-04T19:53:52.335190
1893,-0.5846,-0.4675,0.1557,-17.745,-62.405,6.440,412,390,397,395,396,2025-06-04T19:53:52.335190
1894,-0.5046,-0.8179,0.1854,-23.310,-56.770,16.485,386,418,381,397,405,2025-06-04T19:53:52.589197
1895,-0.4909,-1.0033,0.1942,-15.960,-59.185,24.185,348,432,386,424,410,2025-06-04T19:53:52.589197
1896,-0.3850,-1.0536,0.2572,-13.545,-56.210,29.925,416,397,400,409,410,2025-06-04T19:53:52.589197
1897,-0.2996,-1.1478,0.3538,-16.170,-42.735,32.270,434,439,363,411,407,2025-06-04T19:53:52.589197
1898,-0.2011,-1.2176,0.4402,-16.380,-31.080,33.285,447,439,375,413,401,2025-06-04T19:53:52.589197
1899,-0.1566,-1.1019,0.4538,-16.415,-6.930,32.970,409,433,395,437,425,2025-06-04T19:53:52.809370
1900,-0.1366,-1.1292,0.3845,-23.415,32.935,31.430,408,436,395,420,395,2025-06-04T19:53:52.809370
1901,-0.3118,-1.1180,0.3548,-29.260,55.020,24.045,434,392,395,410,420,2025-06-04T19:53:52.810367
1902,-0.3670,-1.1849,0.2835,-33.740,66.955,16.590,378,409,401,425,405,2025-06-04T19:53:52.810367
1903,-0.2694,-1.2810,0.3079,-32.585,93.135,21.245,420,434,397,420,366,2025-06-04T19:53:52.810367
1904,-0.4060,-1.4450,0.3274,-29.225,120.470,31.185,422,430,397,422,407,2025-06-04T19:53:52.810367
1905,-0.5832,-1.0912,0.2206,-28.560,127.750,39.550,433,423,401,430,402,2025-06-04T19:53:52.810367
1906,-0.5958,-1.1575,0.0717,-23.625,121.695,36.190,444,375,390,426,418,2025-06-04T19:53:52.810367
1907,-0.8072,-0.8603,0.0273,-21.455,92.820,40.180,439,397,386,424,430,2025-06-04T19:53:52.810367
1908,-0.8550,-0.0420,0.1269,15.855,47.985,34.020,423,421,385,405,407,2025-06-04T19:53:52.810367
1909,-0.6271,0.2264,0.0991,16.380,50.645,36.855,429,420,395,397,397,2025-06-04T19:53:52.810367
1910,-0.7906,-0.2562,0.0532,23.030,43.190,28.350,428,388,388,377,388,2025-06-04T19:53:52.810367
1911,-0.7876,-0.6442,-0.0034,36.260,52.885,12.285,413,410,358,418,350,2025-06-04T19:53:52.810367
1912,-0.6730,-0.9135,-0.0132,36.750,54.705,0.385,420,425,380,422,388,2025-06-04T19:53:52.810367
1913,-0.5788,-1.0414,0.0542,31.045,55.195,-4.095,405,406,345,406,349,2025-06-04T19:53:52.810367
1914,-0.4294,-1.0004,0.0737,18.690,61.775,3.535,401,426,362,395,369,2025-06-04T19:53:52.810367
1915,-0.5022,-0.9628,0.0537,4.130,66.920,12.075,404,379,372,416,395,2025-06-04T19:53:52.810367
1916,-0.5514,-0.7725,0.0366,-0.105,74.095,18.760,420,299,374,418,405,2025-06-04T19:53:52.810367
1917,-0.7418,-0.7881,0.0459,-8.225,73.675,24.465,393,314,368,375,400,2025-06-04T19:53:52.810367
1918,-0.7876,-0.9292,0.0800,-11.480,65.730,27.195,368,403,383,381,413,2025-06-04T19:53:52.810367
1919,-0.7662,-0.6817,0.1049,-8.050,60.375,31.850,390,383,386,406,419,2025-06-04T19:53:52.810367
1920,-0.8750,-0.7569,0.0425,-3.115,61.250,30.590,403,391,347,416,418,2025-06-04T19:53:52.810367
1921,-0.8974,-0.5431,0.0468,5.425,45.150,24.710,346,373,375,412,374,2025-06-04T19:53:52.810367
1922,-0.8213,-0.3684,-0.0244,0.350,42.315,22.855,349,407,371,398,345,2025-06-04T19:53:52.810367
1923,-0.8994,-0.5378,-0.1279,-3.430,25.865,17.710,388,434,386,368,346,2025-06-04T19:53:52.810367
1924,-0.7910,-0.5758,-0.1571,-9.520,9.835,9.415,349,423,398,408,378,2025-06-04T19:53:52.810367
1925,-0.6739,-0.6354,-0.1586,-13.195,4.865,5.530,374,395,393,432,415,2025-06-04T19:53:52.810367
1926,-0.6295,-0.6812,-0.1171,-12.215,2.625,-0.105,427,405,385,436,367,2025-06-04T19:53:52.810367
1927,-0.5539,-0.7715,-0.2040,-15.050,6.300,-3.920,439,411,388,385,376,2025-06-04T19:53:52.810367
1928,-0.7071,-0.7930,-0.2298,-18.760,-4.480,-9.415,439,439,398,425,403,2025-06-04T19:53:52.810367
1929,-0.8150,-0.7871,-0.1820,-23.170,-19.880,-15.995,417,409,409,420,408,2025-06-04T19:53:52.810367
1930,-0.8833,-0.7788,-0.1942,-24.955,-41.230,-17.640,431,410,412,391,407,2025-06-04T19:53:52.810367
1931,-0.8745,-0.8891,-0.1752,-24.010,-78.015,-12.950,399,427,391,394,401,2025-06-04T19:53:52.810367
1932,-0.8974,-0.8989,-0.1137,-17.920,-118.055,-1.610,413,406,393,410,401,2025-06-04T19:53:52.903733
1933,-0.7501,-0.8886,-0.0542,-13.265,-144.340,17.675,403,413,388,363,391,2025-06-04T19:53:52.903733
1934,-0.5090,-0.9711,-0.0171,-7.875,-143.640,44.695,394,350,374,398,349,2025-06-04T19:53:52.903733
1935,-0.3314,-1.0146,0.0429,-0.595,-115.535,74.305,386,367,376,365,385,2025-06-04T19:53:52.903733
1936,-0.3309,-1.0019,0.1166,4.130,-76.650,103.985,396,347,382,403,404,2025-06-04T19:53:52.903733
1937,-0.4089,-1.0009,0.1337,6.895,-35.385,128.380,394,407,387,415,419,2025-06-04T19:53:52.903733
1938,-0.6110,-0.9618,0.0810,10.150,-4.585,142.765,412,393,385,401,392,2025-06-04T19:53:52.903733
1939,-0.8306,-0.9521,0.0137,6.790,9.590,153.685,410,390,386,415,390,2025-06-04T19:53:52.904717
1940,-0.9130,-0.8638,0.0488,12.040,4.410,161.840,407,397,378,404,357,2025-06-04T19:53:52.904717
1941,-1.0404,-0.9862,0.0747,6.440,1.610,165.585,384,427,376,404,300,2025-06-04T19:53:52.904717
1942,-1.2239,-0.7618,0.1205,-3.255,-20.930,167.055,410,424,341,402,377,2025-06-04T19:53:52.904717
1943,-1.3493,-0.8418,0.1615,-8.295,-58.380,169.330,402,423,369,413,386,2025-06-04T19:53:52.904717
1944,-1.4006,-0.7613,0.1542,-13.930,-98.070,172.865,377,434,374,366,407,2025-06-04T19:53:53.006017
1945,-1.3215,-0.6154,0.1991,-12.880,-165.410,180.355,424,399,385,401,401,2025-06-04T19:53:53.006017
1946,-1.3288,-0.6910,0.2045,-30.450,-195.300,192.570,348,403,351,412,411,2025-06-04T19:53:53.006017
1947,-1.3049,-0.6324,0.1664,-34.895,-233.835,198.100,374,347,364,414,421,2025-06-04T19:53:53.006017
1948,-1.4630,-0.7681,0.1771,-46.270,-253.995,190.855,390,414,344,364,378,2025-06-04T19:53:53.006017
1949,-1.3083,-0.6544,0.1654,-33.460,-255.360,180.635,390,348,371,415,404,2025-06-04T19:53:53.006017
1950,-1.0551,-0.5734,0.1606,-30.065,-241.745,176.855,413,415,385,365,397,2025-06-04T19:53:53.006017
1951,-0.8984,-0.4851,0.2137,-27.055,-226.590,179.095,420,399,389,403,400,2025-06-04T19:53:53.006017
1952,-0.9111,-0.3558,0.2137,-22.925,-204.785,178.815,421,346,386,401,412,2025-06-04T19:53:53.006017
1953,-0.9340,-0.3133,0.2059,-22.470,-178.430,176.330,412,375,394,410,365,2025-06-04T19:53:53.111991
1954,-0.9614,-0.2943,0.2440,-16.590,-163.870,177.520,417,387,394,411,399,2025-06-04T19:53:53.111991
1955,-0.9648,-0.1932,0.2791,-13.475,-156.660,181.930,415,389,388,420,406,2025-06-04T19:53:53.111991
1956,-1.0307,-0.1854,0.3260,-12.705,-147.210,185.990,399,421,394,425,397,2025-06-04T19:53:53.111991
1957,-0.9672,-0.1074,0.3265,-14.035,-142.100,189.140,417,406,356,413,402,2025-06-04T19:53:53.111991
1958,-0.9482,-0.0805,0.3421,-16.380,-132.580,192.675,421,413,370,411,407,2025-06-04T19:53:53.111991
1959,-0.8989,-0.0234,0.3533,-14.875,-120.540,195.265,427,349,369,358,419,2025-06-04T19:53:53.111991
1960,-0.8584,0.0703,0.3396,-18.375,-104.230,197.330,422,419,388,395,418,2025-06-04T19:53:53.111991
1961,-0.7842,0.2396,0.3338,-22.330,-81.970,199.185,376,426,359,406,413,2025-06-04T19:53:53.111991
1962,-0.6842,0.2152,0.3206,-27.685,-58.450,197.540,408,433,377,408,367,2025-06-04T19:53:53.238616
1963,-0.6188,0.2699,0.3201,-33.110,-31.115,194.670,398,438,380,419,390,2025-06-04T19:53:53.238616
1964,-0.5470,0.3245,0.3157,-37.485,-11.305,191.940,396,412,350,430,392,2025-06-04T19:53:53.239615
1965,-0.5739,0.3928,0.2869,-41.300,2.310,188.860,393,397,378,430,391,2025-06-04T19:53:53.239615
1966,-0.6281,0.3919,0.3240,-44.695,11.690,185.675,382,430,380,404,410,2025-06-04T19:53:53.239615
1967,-0.6129,0.4499,0.3675,-43.995,18.585,181.650,397,432,378,396,413,2025-06-04T19:53:53.239615
1968,-0.5846,0.4807,0.4329,-46.970,27.860,178.920,429,434,397,415,405,2025-06-04T19:53:53.239615
1969,-0.5627,0.5539,0.4441,-50.925,40.670,176.365,413,436,366,414,380,2025-06-04T19:53:53.239615
1970,-0.5114,0.5065,0.4646,-49.595,49.105,178.045,418,361,381,395,404,2025-06-04T19:53:53.240612
1971,0.0059,-0.0117,0.4602,-34.335,111.965,156.765,419,338,347,412,371,2025-06-04T19:53:53.240612
1972,-1.0433,-1.6011,0.4982,-75.565,99.540,99.610,408,396,382,392,351,2025-06-04T19:53:53.443463
1973,0.2030,-0.0088,1.8134,39.340,-14.700,114.240,400,432,401,410,403,2025-06-04T19:53:53.443463
1974,-0.0215,0.3440,1.8466,62.860,19.460,132.090,407,424,405,363,410,2025-06-04T19:53:53.443463
1975,-0.3050,0.4402,1.1932,48.300,64.715,145.530,425,414,407,427,412,2025-06-04T19:53:53.443463
1976,-1.0448,0.3899,0.6690,65.695,86.765,155.610,430,413,403,406,375,2025-06-04T19:53:53.443463
1977,-1.5065,0.2577,0.5339,61.530,102.830,154.420,425,404,404,369,385,2025-06-04T19:53:53.443463
1978,-1.2215,0.4055,0.9423,74.900,100.590,163.520,398,433,385,406,394,2025-06-04T19:53:53.443463
1979,-1.0599,0.5295,1.1522,82.880,80.045,189.350,431,408,346,415,412,2025-06-04T19:53:53.443463
1980,-1.2503,0.4612,0.9101,76.405,53.935,209.020,428,368,363,426,416,2025-06-04T19:53:53.443463
1981,-1.4045,0.3919,0.7515,76.545,15.120,215.775,432,382,383,421,414,2025-06-04T19:53:53.443463
1982,-1.1917,0.3587,0.7422,88.585,-16.765,218.680,412,417,379,423,400,2025-06-04T19:53:53.443463
1983,-0.8911,0.3914,0.6568,107.765,-37.380,223.895,365,425,378,423,404,2025-06-04T19:53:53.444573
1984,-0.6876,0.4153,0.5495,105.490,-31.605,226.625,379,422,388,420,414,2025-06-04T19:53:53.444573
1985,-0.5754,0.3919,0.4509,106.435,-30.975,222.495,421,432,365,421,407,2025-06-04T19:53:53.444573
1986,-0.4255,0.3909,0.3323,101.500,-26.880,215.215,408,422,338,354,354,2025-06-04T19:53:53.444573
1987,-0.4055,0.3841,0.2220,101.955,-29.890,205.100,421,428,324,385,377,2025-06-04T19:53:53.444573
1988,-0.4538,0.3953,0.1415,95.865,-49.945,192.710,427,415,361,409,387,2025-06-04T19:53:53.444573
1989,-0.4455,0.4046,0.0942,87.010,-69.895,178.115,393,434,360,366,386,2025-06-04T19:53:53.507537
1990,-0.3475,0.4011,0.0264,74.585,-99.470,164.255,366,402,380,409,408,2025-06-04T19:53:53.507537
1991,-0.1884,0.4128,-0.0327,62.475,-115.395,145.320,388,378,388,360,366,2025-06-04T19:53:53.507537
1992,-0.0278,0.4172,-0.1020,51.065,-114.695,124.215,414,433,383,383,390,2025-06-04T19:53:53.507537
1993,0.0956,0.4382,-0.1279,41.055,-103.810,101.430,428,415,395,412,391,2025-06-04T19:53:53.507537
1994,0.2298,0.4812,-0.1122,32.340,-82.320,79.310,400,366,411,411,410,2025-06-04T19:53:53.507537
1995,0.2381,0.5231,-0.0864,19.880,-55.195,56.175,393,409,410,365,413,2025-06-04T19:53:53.638550
1996,0.2298,0.5714,-0.1069,8.435,-35.700,30.975,424,406,407,379,409,2025-06-04T19:53:53.638550
1997,0.2406,0.6554,-0.0664,-0.595,-15.995,4.095,417,402,410,354,420,2025-06-04T19:53:53.638550
1998,0.2225,0.7218,-0.0405,-11.760,4.060,-15.960,409,407,386,383,425,2025-06-04T19:53:53.638550
1999,0.1908,0.8535,0.0151,-20.475,13.230,-39.445,416,425,374,393,410,2025-06-04T19:53:53.638550
2000,0.1171,1.0009,0.0576,-29.505,10.185,-60.760,413,422,388,356,374,2025-06-04T19:53:53.638550
2001,0.0708,1.2620,0.1854,-35.140,-1.085,-77.630,430,434,379,394,407,2025-06-04T19:53:53.638550
2002,0.1669,1.6221,0.2855,-43.750,-12.670,-87.535,426,375,379,397,395,2025-06-04T19:53:53.638550
2003,0.1884,1.9769,0.3279,-54.075,-27.300,-93.485,415,334,387,412,387,2025-06-04T19:53:53.638550
2004,0.2630,2.6045,0.3353,-58.800,-44.765,-92.225,396,386,374,414,405,2025-06-04T19:53:53.638550
2005,0.3884,2.8455,0.1542,-71.610,-66.500,-80.535,415,395,383,401,402,2025-06-04T19:53:53.684175
2006,0.5929,3.1891,-0.1059,-80.500,-106.050,-45.990,421,402,380,391,401,2025-06-04T19:53:53.684175
2007,0.6124,3.5009,-0.1566,-101.955,-134.785,-8.750,421,387,341,376,356,2025-06-04T19:53:53.684175
2008,0.4709,3.6117,-0.3977,-122.605,-146.790,15.225,382,425,365,398,373,2025-06-04T19:53:53.684175
2009,0.2957,3.5639,-0.6173,-151.130,-139.300,16.275,400,413,377,406,405,2025-06-04T19:53:53.732116
2010,0.0678,3.2335,-0.8579,-183.855,-120.050,2.135,399,404,388,396,415,2025-06-04T19:53:53.732116
2011,-0.1874,2.4693,-1.2044,-218.575,-116.585,-24.115,413,411,384,388,403,2025-06-04T19:53:53.732116
2012,-0.4499,1.6616,-1.2751,-247.870,-156.170,-29.435,390,397,385,389,388,2025-06-04T19:53:53.732116
2013,-0.5929,1.2327,-0.7881,-295.995,-182.245,-71.470,380,377,389,406,404,2025-06-04T19:53:53.824791
2014,-0.5217,0.6861,-0.5388,-354.095,-173.845,-140.105,418,405,385,406,408,2025-06-04T19:53:53.824791
2015,-0.3079,-0.2840,-0.6349,-406.280,-175.735,-202.475,348,424,343,410,423,2025-06-04T19:53:53.824791
2016,-0.0376,-1.4542,-0.7896,-426.965,-192.255,-225.750,379,424,376,417,407,2025-06-04T19:53:53.824791
2017,-0.4826,-2.6674,-0.2830,-548.380,-181.580,-233.555,417,433,383,395,399,2025-06-04T19:53:53.824791
2018,-1.9222,-4.3988,0.8789,-427.000,-284.515,-282.835,425,423,406,417,404,2025-06-04T19:53:53.824791
2019,-2.0354,-5.3485,0.9418,-419.545,-302.365,-263.690,422,417,392,424,401,2025-06-04T19:53:53.825807
2020,-1.2693,-5.2377,0.5407,-273.490,-407.995,-204.645,430,393,408,435,403,2025-06-04T19:53:53.871876
2021,0.5466,-4.4213,0.0766,-135.380,-404.110,-56.665,431,403,402,436,423,2025-06-04T19:53:53.871876
2022,2.0559,-3.9225,0.4407,18.865,-230.755,70.910,431,405,387,418,411,2025-06-04T19:53:53.871876
2023,2.7211,-3.2115,0.7935,168.630,20.020,151.480,435,353,382,428,422,2025-06-04T19:53:53.871876
2024,1.4391,-2.4776,0.9540,230.755,245.175,190.015,420,413,376,410,421,2025-06-04T19:53:54.032983
2025,-0.0869,-1.8788,1.3278,268.870,273.980,186.830,438,408,395,418,419,2025-06-04T19:53:54.032983
2026,-0.7535,-1.9027,1.3034,296.870,164.605,205.275,415,412,368,431,428,2025-06-04T19:53:54.032983
2027,-0.9418,-1.6699,1.3161,272.440,22.925,199.220,302,425,383,398,373,2025-06-04T19:53:54.032983
2028,-0.1698,-1.2815,1.2381,299.600,-0.280,172.515,406,379,394,429,408,2025-06-04T19:53:54.032983
2029,0.5514,-0.7496,1.0385,290.465,77.455,148.225,392,405,389,413,410,2025-06-04T19:53:54.032983
2030,0.7657,-0.2508,0.8057,322.560,199.815,146.755,398,403,398,412,374,2025-06-04T19:53:54.032983
2031,0.4353,0.4124,0.6852,320.880,279.020,146.440,405,421,413,361,401,2025-06-04T19:53:54.032983
2032,0.0098,0.8628,0.3919,310.310,313.985,148.785,415,425,413,406,415,2025-06-04T19:53:54.032983
2033,-0.5836,0.9028,0.1376,308.630,275.765,134.995,408,436,411,399,418,2025-06-04T19:53:54.032983
2034,-0.6510,1.1341,-0.0273,285.915,185.885,128.940,298,435,388,345,357,2025-06-04T19:53:54.032983
2035,-0.4480,1.3396,-0.0576,263.970,87.640,112.910,377,426,395,376,339,2025-06-04T19:53:54.032983
2036,-0.0600,1.5045,-0.1571,256.340,40.880,92.995,386,430,380,344,388,2025-06-04T19:53:54.034047
2037,0.3665,1.6407,-0.3162,232.120,18.970,78.855,360,368,348,353,378,2025-06-04T19:53:54.034047
2038,0.4948,1.6646,-0.3972,207.585,20.860,66.080,395,406,362,382,345,2025-06-04T19:53:54.161534
2039,0.6525,1.6592,-0.3782,178.605,26.600,53.725,411,410,365,396,348,2025-06-04T19:53:54.161534
2040,0.6490,1.5889,-0.3377,145.425,36.260,43.960,404,362,366,402,387,2025-06-04T19:53:54.161534
2041,0.6388,1.5328,-0.2625,117.915,37.765,32.480,400,404,370,419,402,2025-06-04T19:53:54.161534
2042,0.6373,1.5089,-0.1962,93.450,35.770,19.845,407,392,381,403,403,2025-06-04T19:53:54.161961
2043,0.5695,1.4913,-0.0756,77.140,30.555,4.480,396,431,385,406,402,2025-06-04T19:53:54.161961
2044,0.5217,1.4723,-0.0151,68.460,18.585,-7.175,399,422,391,410,412,2025-06-04T19:53:54.161961
2045,0.4890,1.4025,0.0303,59.780,6.860,-17.115,365,395,370,397,411,2025-06-04T19:53:54.161961
2046,0.4939,1.3537,0.1025,52.360,-3.465,-23.065,332,425,367,403,417,2025-06-04T19:53:54.259843
2047,0.4743,1.3303,0.1718,42.035,-3.780,-29.435,388,351,363,384,398,2025-06-04T19:53:54.259843
2048,0.3938,1.2781,0.2103,33.810,2.065,-34.475,413,387,380,399,393,2025-06-04T19:53:54.259843
2049,0.2533,1.2327,0.2079,25.480,6.125,-37.940,409,337,374,351,400,2025-06-04T19:53:54.692796
2050,0.0898,1.1639,0.2103,20.160,3.115,-40.495,299,397,381,394,414,2025-06-04T19:53:54.692796
2051,-0.0063,1.1297,0.2499,15.645,-0.105,-39.900,337,397,380,310,353,2025-06-04T19:53:54.692796
2052,-0.0483,1.1097,0.2655,12.600,-5.635,-37.905,408,424,383,319,376,2025-06-04T19:53:54.693646
2053,-0.1527,1.0897,0.2679,8.750,-9.310,-36.575,417,405,382,391,398,2025-06-04T19:53:54.693853
2054,-0.1596,1.0677,0.2640,6.300,-8.575,-34.335,426,430,379,388,395,2025-06-04T19:53:54.693853
2055,-0.1820,1.0297,0.2577,2.765,-4.165,-30.100,405,419,378,411,403,2025-06-04T19:53:54.693853
2056,-0.1996,1.0024,0.2611,1.225,1.680,-25.445,399,419,378,426,402,2025-06-04T19:53:54.693853
2057,-0.2220,0.9814,0.2684,-1.960,7.455,-19.530,395,420,387,356,405,2025-06-04T19:53:54.693853
2058,-0.2738,0.9565,0.2684,-3.955,8.995,-13.475,425,402,394,402,394,2025-06-04T19:53:54.694799
2059,-0.3045,0.9623,0.2855,-4.760,8.855,-9.345,360,370,390,350,412,2025-06-04T19:53:54.694799
2060,-0.2991,0.9618,0.3123,-5.845,7.385,-6.930,356,425,392,376,364,2025-06-04T19:53:54.694799
2061,-0.2181,0.9438,0.3143,-4.970,6.510,-2.555,411,405,382,342,385,2025-06-04T19:53:54.694799
2062,-0.2220,0.9394,0.3123,-5.180,8.190,0.105,420,404,381,387,341,2025-06-04T19:53:54.694799
2063,-0.2274,0.9443,0.3323,-3.430,9.940,0.840,405,425,386,397,365,2025-06-04T19:53:54.694799
2064,-0.2142,0.9418,0.3304,-2.450,10.010,1.015,416,371,371,385,392,2025-06-04T19:53:54.694799
2065,-0.2108,0.9335,0.3260,-1.680,8.050,0.560,416,418,354,408,393,2025-06-04T19:53:54.694799
2066,-0.1908,0.9238,0.3167,-1.680,6.265,0.210,425,405,371,421,393,2025-06-04T19:53:54.694799
2067,-0.1342,0.9248,0.3089,0.140,7.525,2.800,432,357,362,362,363,2025-06-04T19:53:54.694799
2068,-0.1703,0.8891,0.3528,-1.575,2.940,0.455,412,413,374,402,392,2025-06-04T19:53:54.694799
2069,-0.1840,0.9023,0.3470,0.840,1.260,0.140,431,387,381,350,408,2025-06-04T19:53:54.694799
2070,-0.1757,0.9199,0.3426,1.540,2.275,-0.245,387,404,371,332,370,2025-06-04T19:53:54.694799
2071,-0.1669,0.9052,0.3289,1.400,1.120,-0.735,419,420,344,344,344,2025-06-04T19:53:54.694799
2072,-0.1718,0.8969,0.3182,1.365,2.660,-0.840,423,411,358,386,391,2025-06-04T19:53:54.694799
2073,-0.1767,0.9023,0.3152,1.575,6.020,-1.260,416,406,380,347,398,2025-06-04T19:53:54.694799
2074,-0.1762,0.8989,0.3099,1.050,9.170,-1.925,418,388,380,374,374,2025-06-04T19:53:54.695839
2075,-0.2030,0.9018,0.2991,0.805,10.885,-3.185,406,406,345,378,397,2025-06-04T19:53:54.695839
2076,-0.2245,0.9033,0.2943,0.035,10.710,-4.235,396,403,376,389,395,2025-06-04T19:53:54.695839
2077,-0.2752,0.8979,0.2894,-0.700,6.580,-5.845,415,390,370,417,404,2025-06-04T19:53:54.695839
2078,-0.2621,0.8847,0.2865,-0.700,2.205,-6.615,407,400,380,402,413,2025-06-04T19:53:54.695839
2079,-0.2552,0.8838,0.2747,-1.540,-1.645,-6.790,390,406,384,354,373,2025-06-04T19:53:54.695839
2080,-0.2635,0.8716,0.2791,-1.505,-3.395,-7.770,387,423,380,354,385,2025-06-04T19:53:54.695839
2081,-0.2469,0.8760,0.2982,-1.575,-2.030,-9.240,393,423,389,373,409,2025-06-04T19:53:54.695839
2082,-0.2338,0.8442,0.3148,-1.155,2.625,-9.975,411,430,392,300,397,2025-06-04T19:53:54.695839
2083,-0.2484,0.8896,0.3011,-0.700,4.900,-8.610,420,365,387,386,353,2025-06-04T19:53:54.695839
2084,-0.2879,0.8804,0.3050,-2.345,3.710,-8.715,397,395,385,398,389,2025-06-04T19:53:54.695839
2085,-0.3172,0.8730,0.3099,-1.610,0.105,-9.310,396,296,379,392,404,2025-06-04T19:53:54.695839
2086,-0.2952,0.8804,0.3318,-1.190,-3.745,-9.555,372,378,390,403,398,2025-06-04T19:53:54.695839
2087,-0.2860,0.8725,0.3274,-2.030,-5.950,-9.310,420,404,315,404,408,2025-06-04T19:53:54.696836
2088,-0.2796,0.8833,0.3367,-1.785,-5.495,-9.275,398,423,362,404,401,2025-06-04T19:53:54.747260
2089,-0.2840,0.8838,0.3392,-1.225,-3.150,-9.450,414,387,370,411,405,2025-06-04T19:53:54.747260
2090,-0.2894,0.8872,0.3431,-1.435,-1.925,-9.555,386,421,379,384,401,2025-06-04T19:53:54.747656
2091,-0.2928,0.8867,0.3484,-1.365,-2.345,-9.485,408,371,383,384,408,2025-06-04T19:53:54.747656
2092,-0.2777,0.8935,0.3411,-1.855,-2.065,-8.225,355,407,370,411,351,2025-06-04T19:53:54.747656
2093,-0.2860,0.8906,0.3543,-0.700,-1.260,-7.000,371,404,387,395,386,2025-06-04T19:53:54.747656
2094,-0.2850,0.8886,0.3528,-1.085,-1.435,-6.440,371,422,381,404,350,2025-06-04T19:53:54.747656
2095,-0.2952,0.8872,0.3489,-1.155,-2.275,-6.510,402,425,376,415,378,2025-06-04T19:53:54.747656
2096,-0.2977,0.8828,0.3436,-1.015,-4.060,-6.685,425,430,386,411,407,2025-06-04T19:53:54.747656
2097,-0.2943,0.8764,0.3445,-0.280,-7.525,-6.370,420,434,381,407,351,2025-06-04T19:53:54.849140
2098,-0.3050,0.8804,0.3567,-0.490,-11.095,-6.720,410,434,385,410,381,2025-06-04T19:53:54.849140
2099,-0.2860,0.8799,0.3577,-0.455,-12.285,-7.490,394,421,391,350,397,2025-06-04T19:53:54.849140
2100,-0.2625,0.8818,0.3465,-1.190,-10.675,-7.875,421,348,387,390,409,2025-06-04T19:53:54.849140
2101,-0.2591,0.8847,0.3348,-1.365,-6.860,-7.560,409,377,392,396,403,2025-06-04T19:53:54.849140
2102,-0.2577,0.8804,0.3270,-0.420,-3.080,-6.510,389,405,346,419,397,2025-06-04T19:53:54.849140
2103,-0.3255,0.8852,0.3284,-2.065,-2.450,-5.530,391,423,367,419,407,2025-06-04T19:53:54.849140
2104,-0.3211,0.8789,0.3274,-0.315,-2.275,-5.600,415,426,373,411,410,2025-06-04T19:53:54.849140
2105,-0.3279,0.8721,0.3260,-1.050,-4.935,-4.760,416,399,370,394,404,2025-06-04T19:53:54.849140
2106,-0.3201,0.8808,0.3353,-0.805,-9.450,-4.095,367,403,338,359,406,2025-06-04T19:53:54.954978
2107,-0.3084,0.8794,0.3294,-0.525,-12.985,-3.290,406,358,364,401,355,2025-06-04T19:53:54.954978
2108,-0.3113,0.8804,0.3255,-1.330,-15.120,-3.430,406,396,342,395,395,2025-06-04T19:53:54.954978
2109,-0.2855,0.8706,0.3206,-0.805,-15.785,-3.780,417,388,358,406,412,2025-06-04T19:53:54.954978
2110,-0.2733,0.8745,0.3157,-1.365,-13.895,-4.130,426,403,378,413,412,2025-06-04T19:53:54.954978
2111,-0.2557,0.8682,0.3221,-0.595,-9.765,-3.780,383,421,370,357,400,2025-06-04T19:53:54.954978
2112,-0.2591,0.8686,0.3167,-0.875,-5.635,-3.290,395,424,345,388,411,2025-06-04T19:53:54.954978
2113,-0.2747,0.8711,0.3143,-0.875,-2.730,-2.800,420,415,355,404,361,2025-06-04T19:53:54.954978
2114,-0.2987,0.8628,0.3177,-0.840,-1.540,-3.220,411,418,363,414,396,2025-06-04T19:53:55.058621
2115,-0.3026,0.8682,0.3216,-0.455,-2.030,-3.010,427,404,385,392,344,2025-06-04T19:53:55.058621
2116,-0.2982,0.8618,0.3226,-0.105,-4.515,-2.555,382,411,387,395,378,2025-06-04T19:53:55.058621
2117,-0.3011,0.8560,0.3260,-0.770,-6.230,-2.345,348,425,389,407,383,2025-06-04T19:53:55.058621
2118,-0.2918,0.8594,0.3231,-0.385,-6.790,-2.800,413,350,354,413,382,2025-06-04T19:53:55.058621
2119,-0.2845,0.8584,0.3226,-0.420,-5.705,-3.430,339,324,327,409,405,2025-06-04T19:53:55.058621
2120,-0.2806,0.8594,0.3299,0.315,-4.515,-4.095,381,400,366,315,397,2025-06-04T19:53:55.058621
2121,-0.2816,0.8647,0.3367,0.140,-2.870,-4.620,410,429,374,390,406,2025-06-04T19:53:55.058621
2122,-0.2874,0.8642,0.3338,0.000,-2.275,-5.250,380,404,341,379,394,2025-06-04T19:53:55.058621
2123,-0.2869,0.8584,0.3338,0.210,-2.380,-5.600,390,415,366,404,412,2025-06-04T19:53:55.058621
2124,-0.2879,0.8564,0.3338,0.140,-3.255,-5.390,367,394,333,408,405,2025-06-04T19:53:55.377490
2125,-0.3104,0.8603,0.3314,0.140,-3.990,-5.635,408,301,356,414,397,2025-06-04T19:53:55.377490
2126,-0.3245,0.8686,0.3465,0.175,-5.285,-6.230,412,388,375,410,400,2025-06-04T19:53:55.377810
2127,-0.3133,0.8691,0.3470,-0.105,-6.125,-6.300,367,410,371,412,399,2025-06-04T19:53:55.377810
2128,-0.3089,0.8662,0.3465,0.070,-6.825,-6.020,337,395,339,412,363,2025-06-04T19:53:55.377810
2129,-0.3187,0.8638,0.3470,-0.245,-7.385,-6.125,394,429,368,396,378,2025-06-04T19:53:55.377810
2130,-0.3201,0.8608,0.3436,0.070,-7.735,-5.880,418,432,341,389,394,2025-06-04T19:53:55.377810
2131,-0.3284,0.8618,0.3440,0.280,-8.330,-5.950,435,424,377,394,399,2025-06-04T19:53:55.377810
2132,-0.3128,0.8647,0.3470,0.140,-8.050,-5.950,426,385,371,406,354,2025-06-04T19:53:55.377810
2133,-0.3089,0.8657,0.3426,-0.210,-6.440,-5.495,363,413,382,310,334,2025-06-04T19:53:55.377810
2134,-0.3270,0.8603,0.3436,-0.315,-5.110,-5.355,396,398,387,381,383,2025-06-04T19:53:55.377810
2135,-0.3309,0.8691,0.3401,0.175,-4.585,-5.320,397,409,399,382,388,2025-06-04T19:53:55.377810
2136,-0.3470,0.8672,0.3450,0.035,-5.495,-5.180,374,378,391,402,389,2025-06-04T19:53:55.377810
2137,-0.3455,0.8686,0.3436,0.000,-7.105,-4.900,403,397,385,397,395,2025-06-04T19:53:55.377810
2138,-0.3396,0.8662,0.3450,0.280,-7.770,-4.550,412,417,375,385,396,2025-06-04T19:53:55.378809
2139,-0.3245,0.8686,0.3416,0.420,-7.840,-4.095,397,417,373,398,371,2025-06-04T19:53:55.378809
2140,-0.3284,0.8711,0.3396,0.280,-7.245,-4.025,409,402,343,392,386,2025-06-04T19:53:55.506050
2141,-0.3157,0.8706,0.3353,0.140,-6.965,-3.675,400,353,355,405,396,2025-06-04T19:53:55.506050
2142,-0.3221,0.8706,0.3274,0.175,-7.980,-3.185,408,348,329,390,412,2025-06-04T19:53:55.506050
2143,-0.3279,0.8686,0.3309,0.350,-10.080,-3.220,401,411,349,384,367,2025-06-04T19:53:55.506050
2144,-0.3167,0.8696,0.3274,0.700,-12.145,-3.255,397,408,325,401,384,2025-06-04T19:53:55.506050
2145,-0.3172,0.8721,0.3362,0.805,-14.280,-3.045,418,399,345,412,415,2025-06-04T19:53:55.506050
2146,-0.3099,0.8711,0.3309,0.945,-15.890,-3.290,416,420,335,402,417,2025-06-04T19:53:55.506050
2147,-0.2904,0.8686,0.3235,1.120,-14.630,-3.605,420,367,345,387,407,2025-06-04T19:53:55.506050
2148,-0.2777,0.8725,0.3274,0.560,-10.675,-3.710,420,338,356,403,416,2025-06-04T19:53:55.506050
2149,-0.2806,0.8691,0.3294,0.770,-6.825,-3.640,350,408,328,397,408,2025-06-04T19:53:55.506050
2150,-0.3021,0.8672,0.3260,0.280,-3.535,-3.710,419,408,361,413,408,2025-06-04T19:53:55.506050
2151,-0.3138,0.8633,0.3240,0.035,-3.080,-3.255,385,413,366,413,414,2025-06-04T19:53:55.506050
2152,-0.3279,0.8623,0.3284,0.245,-4.725,-2.625,301,405,370,419,406,2025-06-04T19:53:55.506050
2153,-0.3265,0.8594,0.3265,0.525,-7.210,-2.205,377,422,373,397,412,2025-06-04T19:53:55.506050
2154,-0.3348,0.8594,0.3284,0.000,-8.820,-2.205,361,417,376,411,411,2025-06-04T19:53:55.506050
2155,-0.3274,0.8560,0.3245,0.210,-10.150,-2.520,394,418,394,424,397,2025-06-04T19:53:55.506050
2156,-0.3152,0.8608,0.3260,-0.035,-10.115,-2.800,411,402,397,411,398,2025-06-04T19:53:55.506050
2157,-0.2952,0.8618,0.3314,-0.630,-7.315,-3.500,408,428,386,411,403,2025-06-04T19:53:55.506050
2158,-0.2889,0.8584,0.3304,-0.735,-3.710,-4.025,409,426,380,416,377,2025-06-04T19:53:55.506050
2159,-0.3030,0.8550,0.3284,-1.225,-1.435,-4.550,415,399,372,414,401,2025-06-04T19:53:55.506050
2160,-0.3104,0.8516,0.3216,-1.190,0.210,-4.795,413,427,376,396,368,2025-06-04T19:53:55.586146
2161,-0.3187,0.8550,0.3226,-1.645,1.120,-5.425,417,393,364,359,334,2025-06-04T19:53:55.586146
2162,-0.3026,0.8511,0.3240,-1.785,3.675,-5.950,384,397,374,399,377,2025-06-04T19:53:55.586146
2163,-0.2913,0.8550,0.3265,-2.240,8.260,-6.265,410,426,387,395,386,2025-06-04T19:53:55.586146
2164,-0.3050,0.8540,0.3304,-2.905,11.655,-7.455,426,416,344,350,379,2025-06-04T19:53:55.586146
2165,-0.2948,0.8574,0.3279,-2.555,15.820,-7.735,403,424,360,383,399,2025-06-04T19:53:55.672785
2166,-0.3177,0.8525,0.3284,-3.570,17.185,-7.735,417,407,371,401,396,2025-06-04T19:53:55.672785
2167,-0.3758,0.8477,0.3260,-3.605,13.370,-7.525,400,381,362,370,385,2025-06-04T19:53:55.672785
2168,-0.3762,0.8506,0.3265,-1.540,6.720,-7.315,398,295,359,396,406,2025-06-04T19:53:55.672785
2169,-0.3924,0.8481,0.3401,-2.100,-1.085,-6.650,331,383,376,393,405,2025-06-04T19:53:55.672785
2170,-0.3562,0.8633,0.3406,-1.050,-5.460,-6.545,328,414,392,418,416,2025-06-04T19:53:55.672785
2171,-0.3489,0.8589,0.3343,-2.100,-6.650,-6.580,334,413,373,408,400,2025-06-04T19:53:55.672785
2172,-0.3284,0.8579,0.3367,-1.470,-4.515,-6.440,327,412,375,408,416,2025-06-04T19:53:55.672785
2173,-0.3387,0.8564,0.3387,-1.330,-1.190,-6.510,410,443,389,397,415,2025-06-04T19:53:55.672785
2174,-0.3548,0.8594,0.3436,-1.715,1.225,-6.195,413,351,375,407,388,2025-06-04T19:53:55.881042
2175,-0.3650,0.8613,0.3465,-0.980,1.715,-5.285,396,413,386,417,402,2025-06-04T19:53:55.881042
2176,-0.3733,0.8603,0.3440,-1.470,1.260,-4.585,424,401,376,373,345,2025-06-04T19:53:55.881042
2177,-0.3811,0.8569,0.3396,-1.225,-0.560,-3.885,427,407,384,399,370,2025-06-04T19:53:55.881042
2178,-0.3850,0.8589,0.3401,-0.980,-2.835,-3.115,412,418,387,421,384,2025-06-04T19:53:55.881042
2179,-0.3753,0.8594,0.3431,-0.805,-4.690,-2.310,405,420,355,396,403,2025-06-04T19:53:55.881042
2180,-0.3733,0.8633,0.3455,-0.700,-5.670,-2.415,404,403,370,417,390,2025-06-04T19:53:55.881042
2181,-0.3636,0.8594,0.3416,-0.630,-5.740,-2.415,350,417,367,350,340,2025-06-04T19:53:55.881042
2182,-0.3631,0.8574,0.3436,-0.490,-5.985,-2.275,401,347,333,380,335,2025-06-04T19:53:55.882127
2183,-0.3675,0.8579,0.3406,-0.245,-6.965,-2.240,391,386,365,403,382,2025-06-04T19:53:55.882127
2184,-0.3719,0.8560,0.3436,-0.035,-8.085,-2.590,397,407,371,402,405,2025-06-04T19:53:55.882127
2185,-0.3704,0.8550,0.3406,-0.280,-8.155,-3.045,394,416,352,372,399,2025-06-04T19:53:55.882127
2186,-0.3533,0.8564,0.3387,0.000,-6.965,-2.975,413,419,371,382,350,2025-06-04T19:53:55.882127
2187,-0.3577,0.8501,0.3309,-0.175,-4.480,-2.730,418,368,382,345,391,2025-06-04T19:53:55.882127
2188,-0.3543,0.8535,0.3338,-0.105,-1.225,-2.695,412,369,389,386,406,2025-06-04T19:53:55.882127
2189,-0.3533,0.8511,0.3323,-0.490,1.890,-1.995,423,391,390,410,414,2025-06-04T19:53:55.882127
2190,-0.3645,0.8525,0.3416,-0.420,5.390,-1.365,350,373,393,397,400,2025-06-04T19:53:55.882127
2191,-0.3719,0.8486,0.3426,-0.805,6.860,-0.420,402,412,394,359,402,2025-06-04T19:53:55.882127
2192,-0.3972,0.8540,0.3372,-1.295,5.320,0.525,422,431,391,395,393,2025-06-04T19:53:56.207159
2193,-0.4148,0.8516,0.3387,-1.540,-0.840,0.805,402,425,388,411,403,2025-06-04T19:53:56.207159
2194,-0.4128,0.8633,0.3484,-1.610,-7.350,0.525,395,432,352,416,387,2025-06-04T19:53:56.207159
2195,-0.3963,0.8755,0.3636,-2.660,-15.575,-0.560,413,392,368,420,363,2025-06-04T19:53:56.207159
2196,-0.3406,0.8940,0.3845,-4.550,-21.175,-2.975,417,423,369,395,388,2025-06-04T19:53:56.207159
2197,-0.2845,0.9213,0.4055,-6.825,-23.695,-6.125,435,399,366,399,348,2025-06-04T19:53:56.207742
2198,-0.2518,0.9438,0.4358,-10.535,-24.465,-11.130,425,394,380,412,389,2025-06-04T19:53:56.207742
2199,-0.1889,0.9648,0.4831,-13.650,-23.870,-16.205,407,414,387,391,392,2025-06-04T19:53:56.474777
2200,-0.1640,0.9828,0.5187,-18.550,-24.010,-19.320,409,408,395,407,408,2025-06-04T19:53:56.474777
2201,-0.1591,1.0058,0.5944,-23.835,-23.065,-24.640,398,420,397,393,383,2025-06-04T19:53:56.474777
2202,-0.0976,1.0716,0.6598,-30.940,-18.865,-29.295,401,399,383,397,396,2025-06-04T19:53:56.474777
2203,-0.0844,1.1419,0.7022,-41.895,-12.215,-31.535,424,406,380,396,389,2025-06-04T19:53:56.474777
2204,-0.1108,1.2180,0.7286,-50.260,-6.860,-32.375,392,350,382,307,333,2025-06-04T19:53:56.474777
2205,-0.1552,1.3283,0.7657,-62.160,-5.145,-31.395,413,333,383,369,374,2025-06-04T19:53:56.474777
2206,-0.2045,1.4601,0.7618,-76.545,-5.705,-29.820,431,399,379,374,380,2025-06-04T19:53:56.474777
2207,-0.3128,1.5909,0.7447,-92.785,-14.840,-27.825,407,394,390,388,407,2025-06-04T19:53:56.474777
2208,-0.3748,1.7939,0.6974,-108.745,-36.575,-19.670,385,397,375,416,357,2025-06-04T19:53:56.474777
2209,-0.3797,2.1004,0.6373,-125.790,-68.390,-3.465,410,397,370,412,383,2025-06-04T19:53:56.474777
2210,-0.3353,2.5054,0.3919,-150.990,-97.965,16.765,412,395,388,409,398,2025-06-04T19:53:56.474777
2211,-0.1669,2.9651,-0.0434,-157.990,-112.910,41.510,397,388,394,402,381,2025-06-04T19:53:56.474777
2212,0.0542,3.1783,-0.6154,-172.060,-108.675,71.505,410,433,378,408,407,2025-06-04T19:53:56.474777
2213,0.3084,3.5697,-1.1639,-182.735,-76.265,109.025,410,428,387,396,365,2025-06-04T19:53:56.474777
2214,0.2542,3.5531,-1.7924,-200.515,-9.590,141.645,397,387,365,342,390,2025-06-04T19:53:56.474777
2215,-0.1469,3.2706,-2.0867,-217.105,51.100,183.155,386,396,374,378,392,2025-06-04T19:53:56.474777
2216,-0.8945,2.9651,-2.1823,-242.690,77.945,217.175,414,345,383,385,382,2025-06-04T19:53:56.474777
2217,-1.6441,2.5430,-2.1335,-275.135,56.490,240.240,405,392,348,364,406,2025-06-04T19:53:56.474777
2218,-2.2199,1.9169,-2.0803,-309.295,14.105,253.400,416,410,362,406,421,2025-06-04T19:53:56.474777
2219,-2.3824,1.2571,-1.9520,-322.070,-16.310,259.805,399,391,360,348,355,2025-06-04T19:53:56.474777
2220,-2.4371,0.6471,-1.5767,-332.885,-7.035,260.995,416,399,360,295,376,2025-06-04T19:53:56.474777
2221,-2.5156,-0.0839,-1.2478,-329.315,17.745,263.375,348,417,370,369,396,2025-06-04T19:53:56.474777
2222,-2.9436,-0.7842,-0.8642,-315.980,33.775,263.865,399,344,375,384,363,2025-06-04T19:53:56.474777
2223,-2.8694,-1.4220,-0.4602,-281.890,36.225,255.115,388,348,396,406,389,2025-06-04T19:53:56.474777
2224,-2.8499,-2.0135,-0.0737,-342.405,28.980,246.190,427,430,389,383,380,2025-06-04T19:53:56.474777
2225,-2.6479,-2.8475,0.5373,-42.980,-105.385,220.080,453,435,401,409,413,2025-06-04T19:53:56.474777
2226,-2.0842,-2.9822,0.7515,-158.305,-32.270,219.590,399,403,385,384,417,2025-06-04T19:53:56.474777
2227,-1.4025,-3.0422,1.0521,-158.830,-62.370,205.275,438,400,356,426,400,2025-06-04T19:53:56.474777
2228,-0.6339,-3.0236,1.2185,-99.785,-85.470,183.470,386,367,339,418,407,2025-06-04T19:53:56.474777
2229,-0.2386,-3.0432,1.3064,-83.930,-49.490,168.245,403,409,360,410,386,2025-06-04T19:53:56.474777
2230,0.1440,-2.9509,1.4220,-41.685,-27.370,143.185,392,432,359,416,416,2025-06-04T19:53:56.474777
2231,0.4402,-2.7177,1.4991,-0.210,-7.280,111.440,399,401,349,409,414,2025-06-04T19:53:56.474777
2232,0.6183,-2.4215,1.5694,10.465,11.830,72.030,429,434,364,425,412,2025-06-04T19:53:56.474777
2233,0.7115,-2.0960,1.6563,27.405,12.390,27.860,377,422,385,421,421,2025-06-04T19:53:56.474777
2234,0.7232,-1.7861,1.7012,37.310,14.000,-14.035,407,400,388,409,411,2025-06-04T19:53:56.474777
2235,0.5754,-1.5494,1.6953,48.650,5.180,-56.910,405,427,397,410,429,2025-06-04T19:53:56.474777
2236,0.3631,-1.3576,1.6694,58.380,-20.160,-90.370,395,419,390,392,367,2025-06-04T19:53:56.474777
2237,0.2416,-1.1258,1.6533,65.660,-48.720,-127.225,392,315,387,384,401,2025-06-04T19:53:56.517709
2238,0.0639,-0.9692,1.6094,70.665,-75.705,-158.760,388,414,370,405,406,2025-06-04T19:53:56.517709
2239,-0.0869,-0.8081,1.6036,78.190,-89.880,-187.530,417,386,364,408,405,2025-06-04T19:53:56.517709
2240,-0.1186,-0.6344,1.5801,92.890,-86.730,-207.200,431,355,390,430,423,2025-06-04T19:53:56.517709
2241,-0.2674,-0.4924,1.5216,105.735,-64.505,-220.920,412,351,383,389,408,2025-06-04T19:53:56.517709
2242,-0.4265,-0.3645,1.4010,126.735,-31.605,-225.750,419,400,379,408,407,2025-06-04T19:53:56.517709
2243,-0.6803,-0.1357,1.2137,154.140,1.225,-222.565,421,405,379,407,404,2025-06-04T19:53:56.517709
2244,-0.9672,-0.0795,1.0648,187.425,27.930,-212.835,429,393,370,387,395,2025-06-04T19:53:56.920276
2245,-1.1312,0.1659,0.9389,215.390,47.985,-199.955,437,425,392,373,396,2025-06-04T19:53:56.920276
2246,-1.2239,0.4177,0.7554,231.210,57.645,-183.155,438,441,349,383,387,2025-06-04T19:53:56.920276
2247,-1.1932,0.7022,0.5954,246.680,57.120,-162.260,448,387,368,379,403,2025-06-04T19:53:56.920276
2248,-1.1531,0.8179,0.2977,245.665,52.465,-142.800,439,407,388,425,400,2025-06-04T19:53:56.920276
2249,-1.1346,0.9038,0.1542,244.335,31.535,-122.185,401,393,387,404,402,2025-06-04T19:53:56.920276
2250,-1.0487,0.9970,0.0644,237.195,1.015,-105.070,402,430,393,390,417,2025-06-04T19:53:56.921058
2251,-0.8979,1.0072,-0.0020,228.585,-32.060,-84.630,337,392,390,401,416,2025-06-04T19:53:56.921160
2252,-0.7549,1.0677,-0.0342,209.825,-57.505,-71.470,360,425,386,370,412,2025-06-04T19:53:56.921160
2253,-0.5685,1.1082,-0.0727,193.235,-71.855,-65.380,390,431,391,397,389,2025-06-04T19:53:56.921160
2254,-0.4026,1.0677,-0.1118,182.210,-73.885,-60.060,405,409,343,378,406,2025-06-04T19:53:56.921512
2255,-0.2908,1.0560,-0.0917,170.765,-69.685,-54.740,399,387,356,387,410,2025-06-04T19:53:56.921512
2256,-0.2342,1.0316,-0.0522,156.625,-63.980,-51.170,412,402,371,396,415,2025-06-04T19:53:56.921512
2257,-0.1688,1.0468,0.0024,142.310,-57.680,-49.560,391,393,368,405,410,2025-06-04T19:53:56.921512
2258,-0.1366,1.0824,0.0498,126.840,-48.510,-50.260,411,394,368,404,416,2025-06-04T19:53:56.921512
2259,-0.0942,1.1073,0.0956,119.490,-36.680,-53.445,419,415,366,403,390,2025-06-04T19:53:56.921512
2260,-0.0464,1.1253,0.0742,116.865,-26.110,-54.495,403,410,377,400,386,2025-06-04T19:53:56.921512
2261,-0.0371,1.1356,0.0805,114.520,-16.030,-54.425,413,418,377,405,400,2025-06-04T19:53:56.922059
2262,-0.0386,1.1829,0.1025,112.875,-12.040,-54.355,417,395,369,404,412,2025-06-04T19:53:57.022244
2263,-0.0610,1.2210,0.1240,108.780,-12.530,-52.465,418,421,378,400,361,2025-06-04T19:53:57.022244
2264,-0.0756,1.2098,0.1488,102.935,-20.510,-48.090,393,398,341,396,377,2025-06-04T19:53:57.022244
2265,-0.1074,1.2293,0.1830,91.910,-31.920,-45.045,401,393,358,400,392,2025-06-04T19:53:57.022244
2266,-0.1240,1.2342,0.2089,80.010,-45.675,-42.770,415,423,376,420,413,2025-06-04T19:53:57.022244
2267,-0.0786,1.2395,0.2172,68.390,-58.065,-40.215,403,417,373,395,399,2025-06-04T19:53:57.022244
2268,-0.0107,1.2263,0.2113,60.550,-64.540,-35.735,421,408,348,394,410,2025-06-04T19:53:57.022244
2269,0.0024,1.2073,0.2255,52.640,-63.525,-33.565,358,417,358,412,366,2025-06-04T19:53:57.022244
2270,0.0298,1.2073,0.2513,45.045,-57.540,-32.760,415,400,373,388,401,2025-06-04T19:53:57.022244
2271,0.0234,1.1673,0.2655,38.115,-49.420,-31.745,412,302,384,399,415,2025-06-04T19:53:57.022244
2272,0.0039,1.1468,0.2645,31.080,-44.625,-29.575,418,325,386,415,410,2025-06-04T19:53:57.022244
2273,-0.0117,1.1131,0.2684,25.060,-39.865,-28.000,404,394,400,377,407,2025-06-04T19:53:57.022244
2274,-0.0176,1.0956,0.2806,19.845,-32.970,-27.160,418,403,383,387,405,2025-06-04T19:53:57.022244
2275,-0.0137,1.0707,0.2908,16.975,-25.445,-25.655,343,406,384,413,400,2025-06-04T19:53:57.022244
2276,-0.0298,1.0546,0.3001,14.840,-20.300,-22.890,330,409,380,397,387,2025-06-04T19:53:57.022244
2277,-0.0961,1.0204,0.2933,12.740,-18.200,-21.420,373,409,372,363,402,2025-06-04T19:53:57.022244
2278,-0.1098,1.0121,0.2962,10.780,-17.570,-20.440,396,360,367,381,404,2025-06-04T19:53:57.022244
2279,-0.1469,1.0072,0.3060,8.085,-18.900,-19.005,391,388,351,395,398,2025-06-04T19:53:57.022244
2280,-0.1440,0.9789,0.2987,7.070,-22.085,-16.765,393,418,373,406,387,2025-06-04T19:53:57.022244
2281,-0.1610,0.9604,0.3001,6.545,-22.400,-15.155,397,401,371,391,397,2025-06-04T19:53:57.022244
2282,-0.1479,0.9487,0.2938,6.790,-10.115,-14.000,404,418,347,398,351,2025-06-04T19:53:57.153440
2283,-0.1318,0.9448,0.2952,7.210,-11.900,-11.970,406,427,367,416,358,2025-06-04T19:53:57.154444
2284,-0.1562,0.9262,0.2923,6.790,-5.075,-10.080,362,429,374,395,387,2025-06-04T19:53:57.154444
2285,-0.1801,0.9233,0.3035,6.965,-0.385,-8.820,398,427,376,391,409,2025-06-04T19:53:57.154444
2286,-0.2152,0.9262,0.3104,6.370,2.345,-8.295,397,415,384,407,400,2025-06-04T19:53:57.154444
2287,-0.2269,0.9199,0.3138,6.860,2.835,-7.875,416,352,393,420,405,2025-06-04T19:53:57.154444
2288,-0.2362,0.9033,0.2996,6.720,1.225,-7.420,418,420,385,410,422,2025-06-04T19:53:57.154444
2289,-0.2381,0.8994,0.3050,6.160,0.280,-7.245,421,394,390,397,393,2025-06-04T19:53:57.154444
2290,-0.2294,0.8940,0.3113,5.600,0.840,-7.035,424,416,391,408,391,2025-06-04T19:53:57.154444
2291,-0.2162,0.8950,0.3245,4.410,3.710,-6.650,422,399,398,404,349,2025-06-04T19:53:57.154444
2292,-0.2240,0.8901,0.3206,4.165,7.910,-6.195,413,413,376,352,350,2025-06-04T19:53:57.154444
2293,-0.2377,0.8945,0.3265,3.570,12.320,-6.370,422,422,349,373,386,2025-06-04T19:53:57.154444
2294,-0.2445,0.8926,0.3279,2.450,14.735,-6.370,421,425,368,370,413,2025-06-04T19:53:57.154444
2295,-0.2718,0.8916,0.3343,1.435,14.700,-6.160,342,362,333,398,421,2025-06-04T19:53:57.154444
2296,-0.3026,0.8882,0.3357,0.875,10.290,-5.845,376,394,368,392,399,2025-06-04T19:53:57.347393
2297,-0.3177,0.8916,0.3426,0.070,4.970,-6.230,396,413,375,380,398,2025-06-04T19:53:57.347393
2298,-0.3001,0.8950,0.3514,-0.560,2.555,-6.615,420,364,352,397,402,2025-06-04T19:53:57.347393
2299,-0.2821,0.8906,0.3479,-1.785,2.975,-6.440,428,337,372,418,392,2025-06-04T19:53:57.348132
2300,-0.2801,0.8867,0.3465,-2.170,5.635,-6.300,423,416,390,427,408,2025-06-04T19:53:57.348132
2301,-0.2874,0.8877,0.3606,-2.660,9.590,-6.475,352,400,348,406,410,2025-06-04T19:53:57.348132
2302,-0.3123,0.8896,0.3684,-3.185,11.480,-6.790,413,423,364,362,395,2025-06-04T19:53:57.348132
2303,-0.3494,0.8808,0.3616,-4.235,10.150,-6.545,422,370,335,389,410,2025-06-04T19:53:57.348132
2304,-0.3694,0.8808,0.3616,-4.270,7.000,-5.915,392,390,332,365,398,2025-06-04T19:53:57.348132
2305,-0.3645,0.8735,0.3650,-4.585,3.290,-5.005,422,401,362,403,413,2025-06-04T19:53:57.348654
2306,-0.3504,0.8755,0.3699,-4.585,1.820,-3.850,342,403,369,408,406,2025-06-04T19:53:57.349127
2307,-0.3518,0.8711,0.3670,-5.145,2.310,-3.150,416,416,340,357,403,2025-06-04T19:53:57.349127
2308,-0.3558,0.8623,0.3626,-4.970,2.170,-2.415,407,424,339,383,408,2025-06-04T19:53:57.349127
2309,-0.3494,0.8647,0.3650,-4.900,1.890,-2.030,413,403,365,398,415,2025-06-04T19:53:57.349127
2310,-0.3533,0.8579,0.3640,-5.005,1.575,-1.925,414,426,382,424,365,2025-06-04T19:53:57.349127
2311,-0.3567,0.8608,0.3723,-5.040,1.015,-1.925,405,400,377,350,396,2025-06-04T19:53:57.428706
2312,-0.3582,0.8535,0.3680,-4.935,-0.595,-1.960,424,375,381,384,395,2025-06-04T19:53:57.428706
2313,-0.3577,0.8477,0.3567,-5.565,-2.625,-1.995,425,411,372,345,412,2025-06-04T19:53:57.428706
2314,-0.3465,0.8438,0.3616,-4.515,-4.935,-1.645,307,386,382,380,402,2025-06-04T19:53:57.428706
2315,-0.3558,0.8428,0.3577,-5.005,-8.400,-1.610,406,428,377,397,415,2025-06-04T19:53:57.428706
2316,-0.3684,0.8394,0.3572,-5.425,-11.480,-2.485,390,363,380,406,411,2025-06-04T19:53:57.428706
2317,-0.3396,0.8345,0.3587,-5.215,-14.035,-2.800,423,409,374,360,416,2025-06-04T19:53:57.428706
2318,-0.3226,0.8301,0.3499,-5.390,-14.070,-2.695,399,395,384,345,401,2025-06-04T19:53:57.428706
2319,-0.3245,0.8276,0.3426,-5.635,-12.355,-3.710,405,383,380,370,411,2025-06-04T19:53:57.428706
2320,-0.3109,0.8335,0.3592,-5.425,-8.190,-4.900,418,403,373,383,402,2025-06-04T19:53:57.524209
2321,-0.2908,0.8311,0.3523,-5.740,-2.730,-5.600,385,409,378,393,392,2025-06-04T19:53:57.524209
2322,-0.3084,0.8272,0.3514,-6.020,2.170,-6.160,395,409,381,404,417,2025-06-04T19:53:57.524209
2323,-0.3157,0.8208,0.3479,-5.425,4.865,-6.615,393,406,378,411,413,2025-06-04T19:53:57.524209
2324,-0.3279,0.8247,0.3548,-4.620,6.020,-6.895,385,416,387,415,419,2025-06-04T19:53:57.524209
2325,-0.3431,0.8247,0.3572,-4.305,5.845,-7.245,408,368,393,401,416,2025-06-04T19:53:57.524209
2326,-0.3494,0.8291,0.3582,-3.675,5.215,-7.630,342,421,379,401,395,2025-06-04T19:53:57.524209
2327,-0.3421,0.8316,0.3553,-3.640,5.285,-7.945,400,431,383,406,403,2025-06-04T19:53:57.524209
2328,-0.3431,0.8330,0.3636,-3.500,5.460,-8.015,401,430,380,373,403,2025-06-04T19:53:57.524209
2329,-0.3440,0.8379,0.3665,-3.220,5.285,-8.015,410,422,382,404,406,2025-06-04T19:53:57.817042
2330,-0.3553,0.8325,0.3660,-3.360,4.445,-8.330,427,345,379,413,423,2025-06-04T19:53:57.817042
2331,-0.3553,0.8374,0.3611,-3.745,3.395,-8.575,409,401,371,410,411,2025-06-04T19:53:57.817042
2332,-0.3616,0.8394,0.3616,-3.640,3.395,-8.855,421,424,306,404,356,2025-06-04T19:53:57.817042
2333,-0.3626,0.8394,0.3670,-3.640,3.815,-9.450,428,354,343,401,401,2025-06-04T19:53:57.817042
2334,-0.3616,0.8457,0.3762,-3.815,3.815,-9.415,396,346,332,407,353,2025-06-04T19:53:57.817042
2335,-0.3694,0.8423,0.3758,-4.480,3.185,-9.205,416,344,353,412,387,2025-06-04T19:53:57.817042
2336,-0.3748,0.8467,0.3748,-4.690,2.205,-9.135,391,399,367,346,343,2025-06-04T19:53:57.817042
2337,-0.3836,0.8428,0.3694,-5.390,1.435,-9.205,401,395,369,372,392,2025-06-04T19:53:57.818065
2338,-0.3855,0.8467,0.3782,-5.215,0.945,-9.170,357,413,377,400,414,2025-06-04T19:53:57.818065
2339,-0.3845,0.8486,0.3806,-5.460,0.735,-8.855,385,401,386,402,405,2025-06-04T19:53:57.818065
2340,-0.3924,0.8462,0.3884,-5.810,1.050,-8.470,422,423,378,415,411,2025-06-04T19:53:57.818065
2341,-0.3899,0.8486,0.3924,-5.705,0.665,-7.455,415,407,376,374,414,2025-06-04T19:53:57.818065
2342,-0.4041,0.8452,0.3953,-5.775,0.000,-6.300,408,395,384,357,399,2025-06-04T19:53:57.818065
2343,-0.4060,0.8442,0.4006,-5.460,-1.470,-5.565,424,398,391,334,421,2025-06-04T19:53:57.818065
2344,-0.4080,0.8438,0.4031,-5.530,-2.730,-4.970,394,412,341,373,400,2025-06-04T19:53:57.818065
2345,-0.3963,0.8413,0.3933,-5.250,-4.375,-4.095,377,338,341,379,415,2025-06-04T19:53:57.818065
2346,-0.3977,0.8403,0.3963,-4.830,-5.180,-3.325,403,414,358,344,397,2025-06-04T19:53:57.818065
2347,-0.3982,0.8403,0.3972,-4.760,-5.775,-2.625,398,413,361,384,396,2025-06-04T19:53:57.818065
2348,-0.3904,0.8359,0.3963,-4.095,-6.580,-1.575,397,402,385,384,395,2025-06-04T19:53:57.818065
2349,-0.3924,0.8306,0.3928,-4.095,-7.175,-0.910,391,419,385,389,397,2025-06-04T19:53:58.451583
2350,-0.3875,0.8311,0.3904,-3.570,-7.315,-0.455,411,425,375,346,404,2025-06-04T19:53:58.451583
2351,-0.3889,0.8281,0.3914,-3.010,-6.440,-0.210,393,428,385,369,397,2025-06-04T19:53:58.451583
2352,-0.3880,0.8262,0.3919,-2.835,-6.405,0.350,408,416,391,401,351,2025-06-04T19:53:58.451583
2353,-0.3919,0.8242,0.3875,-2.590,-6.615,1.155,407,394,357,405,392,2025-06-04T19:53:58.451583
2354,-0.3938,0.8218,0.3860,-2.415,-7.210,1.680,382,377,373,408,389,2025-06-04T19:53:58.451583
2355,-0.3875,0.8223,0.3865,-2.065,-6.860,2.030,410,420,343,419,416,2025-06-04T19:53:58.451583
2356,-0.3753,0.8198,0.3875,-1.925,-5.215,2.590,350,341,352,401,401,2025-06-04T19:53:58.451583
2357,-0.3850,0.8150,0.3748,-2.030,-3.920,2.905,331,390,296,372,408,2025-06-04T19:53:58.451583
2358,-0.3865,0.8154,0.3748,-1.890,-3.255,3.395,412,411,348,347,398,2025-06-04T19:53:58.451583
2359,-0.3841,0.8125,0.3699,-1.505,-3.710,3.850,400,417,359,387,410,2025-06-04T19:53:58.451583
2360,-0.3845,0.8135,0.3694,-1.750,-3.920,4.270,422,403,375,398,420,2025-06-04T19:53:58.451583
2361,-0.3845,0.8169,0.3758,-1.680,-3.570,4.095,347,401,368,389,402,2025-06-04T19:53:58.451583
2362,-0.3684,0.8101,0.3684,-1.715,-3.395,3.955,409,412,346,401,412,2025-06-04T19:53:58.451583
2363,-0.3714,0.8076,0.3665,-1.680,-3.675,3.745,428,413,356,354,369,2025-06-04T19:53:58.451583
2364,-0.3665,0.8096,0.3699,-1.260,-3.640,3.185,419,402,326,360,384,2025-06-04T19:53:58.451583
2365,-0.3567,0.8047,0.3714,-1.225,-2.835,2.590,405,398,350,389,411,2025-06-04T19:53:58.451583
2366,-0.3538,0.8003,0.3709,-1.750,-2.135,2.100,416,400,368,363,410,2025-06-04T19:53:58.451583
2367,-0.3684,0.7969,0.3733,-1.470,-2.520,1.155,414,387,366,392,377,2025-06-04T19:53:58.451583
2368,-0.3684,0.7935,0.3748,-1.505,-2.975,-0.210,397,409,372,406,401,2025-06-04T19:53:58.451583
2369,-0.3636,0.7891,0.3748,-1.330,-3.675,-1.120,414,423,379,401,399,2025-06-04T19:53:58.451583
2370,-0.3640,0.7901,0.3787,-1.330,-4.130,-1.820,414,412,343,409,397,2025-06-04T19:53:58.451583
2371,-0.3743,0.7886,0.3762,-1.470,-3.395,-3.115,396,421,359,392,405,2025-06-04T19:53:58.451583
2372,-0.3606,0.7906,0.3850,-0.980,-2.380,-4.270,415,418,375,415,401,2025-06-04T19:53:58.451583
2373,-0.3680,0.7940,0.3938,-1.785,-0.805,-4.865,339,403,373,391,403,2025-06-04T19:53:58.451583
2374,-0.3860,0.7881,0.3865,-1.575,-0.805,-5.740,375,417,374,371,395,2025-06-04T19:53:58.451583
2375,-0.3987,0.7881,0.3860,-1.365,-2.450,-6.825,391,402,377,340,349,2025-06-04T19:53:58.451583
2376,-0.4114,0.7920,0.3938,-1.400,-4.410,-7.490,391,400,373,376,359,2025-06-04T19:53:58.451583
2377,-0.4158,0.7984,0.4041,-0.805,-6.125,-8.260,418,422,378,390,392,2025-06-04T19:53:58.451583
2378,-0.4138,0.8013,0.4006,-1.155,-6.720,-8.400,354,396,351,403,400,2025-06-04T19:53:58.451583
2379,-0.4080,0.8047,0.4002,-0.770,-6.580,-8.260,406,413,367,408,400,2025-06-04T19:53:58.451583
2380,-0.4124,0.8047,0.4046,-0.560,-5.530,-8.085,410,405,386,423,392,2025-06-04T19:53:58.452546
2381,-0.4143,0.8106,0.4094,0.000,-4.690,-7.630,378,419,386,419,408,2025-06-04T19:53:58.452546
2382,-0.4153,0.8115,0.4085,0.000,-3.920,-7.000,410,434,386,404,419,2025-06-04T19:53:58.452546
2383,-0.4236,0.8135,0.4168,0.630,-3.990,-6.265,419,416,382,417,422,2025-06-04T19:53:58.452546
2384,-0.4280,0.8189,0.4163,1.120,-4.585,-5.320,425,404,383,402,405,2025-06-04T19:53:58.452546
2385,-0.4294,0.8164,0.4153,1.365,-5.810,-4.515,422,421,342,413,396,2025-06-04T19:53:58.452546
2386,-0.4265,0.8233,0.4182,2.170,-6.930,-3.780,379,402,365,390,390,2025-06-04T19:53:58.452546
2387,-0.4148,0.8218,0.4080,1.925,-7.945,-3.045,415,430,342,415,412,2025-06-04T19:53:58.452546
2388,-0.4094,0.8228,0.4026,2.380,-8.365,-2.415,423,388,357,412,357,2025-06-04T19:53:58.452546
2389,-0.4031,0.8267,0.4002,2.415,-8.365,-1.925,421,418,365,397,395,2025-06-04T19:53:58.452546
2390,-0.4075,0.8228,0.3972,2.310,-7.665,-1.505,401,413,372,420,412,2025-06-04T19:53:58.452546
2391,-0.3982,0.8262,0.3933,2.485,-7.700,-0.770,408,412,353,403,403,2025-06-04T19:53:58.452546
2392,-0.4011,0.8281,0.3967,2.345,-7.840,-0.140,401,399,378,356,369,2025-06-04T19:53:58.452546
2393,-0.4075,0.8286,0.3972,2.135,-8.855,0.210,405,403,376,376,398,2025-06-04T19:53:58.452546
2394,-0.4114,0.8247,0.3884,1.610,-10.115,0.315,348,429,387,412,415,2025-06-04T19:53:58.452546
2395,-0.4016,0.8198,0.3850,1.750,-11.130,0.560,398,372,340,414,426,2025-06-04T19:53:58.452546
2396,-0.3933,0.8203,0.3806,2.065,-11.305,0.980,418,402,357,412,425,2025-06-04T19:53:58.452546
2397,-0.3899,0.8169,0.3792,2.135,-11.025,1.015,393,399,379,407,422,2025-06-04T19:53:58.568488
2398,-0.3948,0.8194,0.3806,2.310,-10.535,0.630,420,377,371,400,403,2025-06-04T19:53:58.568488
2399,-0.3972,0.8135,0.2513,2.310,-10.605,0.280,394,415,384,395,415,2025-06-04T19:53:58.568488
2400,-0.3997,0.8154,0.3743,2.380,-11.270,0.245,411,422,385,420,422,2025-06-04T19:53:58.568488
2401,-0.3997,0.8096,0.3723,2.765,-11.585,0.000,423,426,373,409,394,2025-06-04T19:53:58.568488
2402,-0.3875,0.8096,0.3684,2.765,-11.655,-0.175,407,406,343,350,395,2025-06-04T19:53:58.568488
2403,-0.3870,0.8076,0.3694,2.730,-11.130,-0.280,414,422,370,387,407,2025-06-04T19:53:58.568488
2404,-0.3850,0.8076,0.3675,2.905,-10.290,-0.735,423,416,377,411,415,2025-06-04T19:53:58.569504
2405,-0.3894,0.8096,0.3675,2.870,-9.345,-1.190,418,404,383,400,405,2025-06-04T19:53:58.569660
2406,-0.3845,0.8067,0.3645,2.905,-9.275,-1.330,420,358,358,348,375,2025-06-04T19:53:58.569660
2407,-0.3880,0.8154,0.3694,2.870,-8.750,-1.680,406,428,378,380,370,2025-06-04T19:53:58.569660
2408,-0.3967,0.8184,0.3719,2.065,-8.435,-2.100,373,404,374,384,386,2025-06-04T19:53:58.569660
2409,-0.3841,0.8154,0.3655,1.785,-8.575,-2.275,370,416,387,389,353,2025-06-04T19:53:58.569660
2410,-0.3836,0.8106,0.3640,1.085,-8.855,-2.205,401,404,396,410,388,2025-06-04T19:53:58.569660
2411,-0.3772,0.8120,0.3645,0.910,-8.610,-2.310,416,399,374,419,412,2025-06-04T19:53:58.569660
2412,-0.3719,0.8111,0.3699,0.840,-7.245,-2.450,402,426,339,408,416,2025-06-04T19:53:58.569660
2413,-0.3792,0.8164,0.3816,0.735,-5.915,-2.660,341,394,362,356,393,2025-06-04T19:53:58.569660
2414,-0.3797,0.8203,0.3787,0.455,-5.215,-2.555,388,405,371,372,318,2025-06-04T19:53:58.829804
2415,-0.3850,0.8213,0.3787,0.525,-4.865,-2.310,373,418,344,406,390,2025-06-04T19:53:58.829804
2416,-0.3919,0.8213,0.3806,0.735,-4.690,-2.100,390,416,329,411,385,2025-06-04T19:53:58.829804
2417,-0.3933,0.8213,0.3797,0.910,-5.040,-1.680,409,392,321,398,413,2025-06-04T19:53:58.829804
2418,-0.3933,0.8228,0.3811,1.050,-5.110,-1.015,410,416,355,349,396,2025-06-04T19:53:58.829804
2419,-0.4055,0.8218,0.3855,0.945,-4.830,-0.455,416,380,373,395,396,2025-06-04T19:53:58.829804
2420,-0.4026,0.8233,0.3821,1.435,-4.725,0.070,413,396,374,420,374,2025-06-04T19:53:58.829804
2421,-0.4133,0.8233,0.3899,1.470,-4.865,0.595,416,409,368,391,396,2025-06-04T19:53:58.829804
2422,-0.4172,0.8218,0.3875,1.330,-5.320,1.260,376,396,340,348,411,2025-06-04T19:53:58.829804
2423,-0.4080,0.8223,0.3855,1.540,-5.775,2.170,405,389,369,392,410,2025-06-04T19:53:58.829804
2424,-0.4099,0.8252,0.3875,1.400,-5.740,2.835,367,399,376,353,358,2025-06-04T19:53:58.830865
2425,-0.4050,0.8252,0.3880,1.750,-5.845,3.010,394,422,386,376,392,2025-06-04T19:53:58.830865
2426,-0.4031,0.8228,0.3904,1.575,-5.775,3.080,422,374,376,388,389,2025-06-04T19:53:58.830865
2427,-0.3958,0.8189,0.3880,1.260,-5.845,3.325,389,389,370,406,357,2025-06-04T19:53:58.830865
2428,-0.3875,0.8184,0.3860,1.155,-6.160,3.465,424,421,377,386,375,2025-06-04T19:53:58.830865
2429,-0.3914,0.8208,0.3865,0.945,-6.405,3.150,423,346,354,394,414,2025-06-04T19:53:58.830865
2430,-0.3865,0.8218,0.3811,0.595,-6.755,2.520,424,418,333,387,390,2025-06-04T19:53:58.830865
2431,-0.3787,0.8223,0.3802,0.350,-7.000,1.995,308,403,363,380,408,2025-06-04T19:53:58.830865
2432,-0.3777,0.8272,0.3816,-0.140,-7.035,1.365,334,423,368,412,419,2025-06-04T19:53:58.830865
2433,-0.3821,0.8267,0.3758,-0.420,-7.735,0.735,386,413,377,395,396,2025-06-04T19:53:58.830865
2434,-0.3826,0.8237,0.3714,-0.805,-8.855,0.525,363,400,376,366,401,2025-06-04T19:53:58.830865
2435,-0.3836,0.8233,0.3709,-1.120,-9.800,0.280,407,423,375,333,396,2025-06-04T19:53:58.948658
2436,-0.3782,0.8194,0.3719,-0.910,-9.975,-0.035,435,428,378,390,413,2025-06-04T19:53:58.948658
2437,-0.3787,0.8198,0.3772,-0.875,-8.820,-0.420,436,369,369,407,404,2025-06-04T19:53:58.948658
2438,-0.3767,0.8198,0.3767,-0.665,-7.945,-0.630,410,362,347,409,396,2025-06-04T19:53:58.948658
2439,-0.3841,0.8194,0.3758,-0.490,-7.700,-0.595,385,414,367,412,423,2025-06-04T19:53:58.948658
2440,-0.3880,0.8213,0.3777,-0.210,-8.400,-0.350,417,345,381,413,419,2025-06-04T19:53:58.948658
2441,-0.3894,0.8233,0.3802,0.140,-8.960,-0.420,416,289,385,417,411,2025-06-04T19:53:58.948658
2442,-0.3884,0.8218,0.3797,0.210,-9.345,-0.280,411,395,376,400,414,2025-06-04T19:53:58.948658
2443,-0.3860,0.8272,0.3831,0.525,-9.135,0.000,426,296,382,407,397,2025-06-04T19:53:58.948658
2444,-0.3821,0.8276,0.3841,0.525,-8.750,0.175,403,384,357,413,395,2025-06-04T19:53:58.949262
2445,-0.3821,0.8242,0.3821,0.665,-8.400,0.525,404,397,380,413,393,2025-06-04T19:53:58.949262
2446,-0.3860,0.8228,0.3816,0.665,-8.365,0.770,414,348,388,418,406,2025-06-04T19:53:58.949511
2447,-0.3865,0.8218,0.3841,0.805,-8.575,1.330,395,396,355,402,416,2025-06-04T19:53:58.949511
2448,-0.3894,0.8228,0.3894,0.980,-8.610,1.645,405,419,364,309,414,2025-06-04T19:53:59.180524
2449,-0.3928,0.8237,0.3943,0.700,-8.575,1.750,427,409,373,388,416,2025-06-04T19:53:59.180524
2450,-0.3899,0.8223,0.3904,0.735,-9.135,2.100,407,430,374,385,393,2025-06-04T19:53:59.180524
2451,-0.3958,0.8150,0.3919,0.840,-10.115,2.135,407,395,377,389,407,2025-06-04T19:53:59.180524
2452,-0.3826,0.8184,0.3972,0.735,-10.745,2.205,415,406,355,386,415,2025-06-04T19:53:59.180524
2453,-0.3733,0.8125,0.3924,0.665,-10.745,2.065,419,422,376,412,426,2025-06-04T19:53:59.180524
2454,-0.3743,0.8111,0.3845,0.560,-11.025,1.820,400,400,377,401,421,2025-06-04T19:53:59.180524
2455,-0.3684,0.8111,0.3899,0.770,-11.515,1.715,412,382,384,412,420,2025-06-04T19:53:59.180524
2456,-0.3611,0.8228,0.3860,0.245,-11.095,1.155,393,406,389,404,426,2025-06-04T19:53:59.180524
2457,-0.3606,0.8223,0.3821,0.035,-10.010,0.525,389,344,357,399,425,2025-06-04T19:53:59.181549
2458,-0.3543,0.8208,0.3723,-0.210,-8.925,0.105,395,400,363,408,379,2025-06-04T19:53:59.181549
2459,-0.3533,0.8213,0.3689,-0.630,-8.085,-0.280,407,400,342,371,388,2025-06-04T19:53:59.181782
2460,-0.3523,0.8203,0.3733,-0.665,-7.595,-0.700,423,425,354,385,412,2025-06-04T19:53:59.181782
2461,-0.3436,0.8257,0.3719,-1.540,-7.945,-1.085,428,404,376,396,362,2025-06-04T19:53:59.181782
2462,-0.3348,0.8350,0.3694,-2.870,-8.680,-1.680,396,359,365,381,336,2025-06-04T19:53:59.181782
2463,-0.3216,0.8472,0.3631,-3.815,-9.695,-2.555,418,420,386,409,385,2025-06-04T19:53:59.181782
2464,-0.2948,0.8769,0.3538,-5.425,-11.200,-3.570,400,434,393,416,409,2025-06-04T19:53:59.181782
2465,-0.2650,0.9238,0.3401,-8.330,-13.580,-5.145,424,415,391,404,401,2025-06-04T19:53:59.182539
2466,-0.2318,1.0009,0.3377,-12.215,-18.725,-6.475,397,417,390,422,356,2025-06-04T19:53:59.182539
2467,-0.1771,1.1200,0.3270,-18.935,-27.020,-7.420,390,424,384,417,382,2025-06-04T19:53:59.182539
2468,-0.1420,1.2400,0.2894,-24.745,-40.670,-7.980,405,429,391,418,383,2025-06-04T19:53:59.359224
2469,-0.0922,1.3688,0.2577,-31.220,-66.850,-8.505,409,414,398,406,347,2025-06-04T19:53:59.359224
2470,-0.0322,1.4996,0.2069,-38.465,-84.980,-7.875,407,397,399,386,377,2025-06-04T19:53:59.359224
2471,0.0664,1.6446,0.1215,-45.710,-113.960,-5.250,415,402,382,367,399,2025-06-04T19:53:59.359224
2472,0.2181,1.7705,-0.0015,-53.200,-137.935,-0.665,407,387,376,385,404,2025-06-04T19:53:59.359224
2473,0.3567,1.9134,-0.1000,-59.045,-154.315,7.630,403,419,368,413,392,2025-06-04T19:53:59.359224
2474,0.4524,2.0872,-0.2513,-67.900,-155.295,17.885,410,421,389,349,382,2025-06-04T19:53:59.359224
2475,0.4924,2.2663,-0.3489,-80.500,-146.335,24.745,431,430,388,343,391,2025-06-04T19:53:59.360220
2476,0.4900,2.4810,-0.4563,-94.010,-129.185,27.230,423,423,374,377,412,2025-06-04T19:53:59.360286
2477,0.3782,2.6049,-0.5363,-118.615,-98.665,23.380,412,366,376,383,407,2025-06-04T19:53:59.360286
2478,0.1708,2.6567,-0.5671,-143.500,-73.465,9.940,410,419,340,396,369,2025-06-04T19:53:59.360286
2479,-0.0747,2.5161,-0.6100,-172.865,-69.020,-5.495,400,303,321,403,388,2025-06-04T19:53:59.360286
2480,-0.2645,2.1135,-0.6090,-202.930,-99.750,-12.425,406,400,350,398,408,2025-06-04T19:53:59.360286
2481,-0.5714,1.8783,-0.2991,-234.710,-143.990,-28.910,407,427,374,371,395,2025-06-04T19:53:59.360286
2482,-0.8579,1.5450,0.0151,-272.685,-190.365,-68.880,392,305,379,383,387,2025-06-04T19:53:59.588418
2483,-0.6988,1.0028,0.1503,-316.400,-219.835,-115.780,408,408,361,388,381,2025-06-04T19:53:59.588418
2484,-0.2186,-0.1362,-0.1391,-350.665,-262.395,-118.790,428,406,369,408,353,2025-06-04T19:53:59.588418
2485,-0.0112,-1.0541,0.2152,-370.265,-263.165,-122.430,395,418,371,398,386,2025-06-04T19:53:59.588418
2486,0.0776,-2.2263,0.9711,-415.170,-186.340,-145.495,401,353,385,393,406,2025-06-04T19:53:59.588418
2487,0.1357,-2.9866,1.1161,-374.220,-154.980,-163.975,385,391,384,404,419,2025-06-04T19:53:59.588418
2488,-0.2962,-3.7620,1.3020,-387.345,-86.625,-169.680,424,399,383,408,356,2025-06-04T19:53:59.588418
2489,-0.6676,-4.2485,1.3503,-252.035,-122.255,-161.105,398,433,385,431,396,2025-06-04T19:53:59.588418
2490,-0.6120,-3.8576,1.0819,-190.645,-154.875,-118.230,374,396,341,407,384,2025-06-04T19:53:59.588418
2491,0.1957,-3.3936,0.9013,-75.950,-151.970,-48.580,383,421,381,404,413,2025-06-04T19:53:59.588418
2492,0.9321,-2.8363,0.8135,42.105,-83.090,29.015,396,439,373,410,421,2025-06-04T19:53:59.588418
2493,0.9262,-2.2121,0.8579,122.745,36.015,81.095,340,425,371,378,364,2025-06-04T19:53:59.588418
2494,0.4168,-1.8041,0.8764,171.220,116.305,110.530,393,416,348,402,370,2025-06-04T19:53:59.588418
2495,-0.1488,-1.3971,0.9628,199.955,127.645,115.010,392,370,319,385,383,2025-06-04T19:53:59.588418
2496,-0.3909,-1.2005,0.9389,212.205,87.640,120.295,419,420,368,415,387,2025-06-04T19:53:59.588418
2497,-0.2987,-1.0009,0.9296,217.280,40.950,121.660,418,429,380,413,362,2025-06-04T19:53:59.588418
2498,0.0317,-0.7427,1.0331,223.160,39.270,119.805,422,359,367,411,371,2025-06-04T19:53:59.588418
2499,0.3792,-0.5319,1.0209,222.950,80.360,122.640,418,383,377,429,412,2025-06-04T19:53:59.787486
2500,0.4778,-0.2928,0.9648,229.565,149.520,126.910,429,405,337,396,404,2025-06-04T19:53:59.787486
2501,0.2752,-0.0839,0.9321,227.990,218.925,126.385,386,385,369,388,392,2025-06-04T19:53:59.794137
2502,0.0708,0.1259,0.8745,231.490,255.045,122.360,342,420,343,425,401,2025-06-04T19:53:59.794137
2503,-0.1078,0.3958,0.7950,230.650,262.955,120.610,403,392,331,400,398,2025-06-04T19:53:59.794137
2504,-0.3450,0.5968,0.7037,230.160,243.180,114.835,423,399,324,421,416,2025-06-04T19:53:59.794137
2505,-0.4490,0.8516,0.6442,231.595,202.965,105.140,429,424,350,399,403,2025-06-04T19:53:59.794137
2506,-0.4875,1.0038,0.6168,224.980,159.565,92.680,401,404,375,395,410,2025-06-04T19:53:59.794137
2507,-0.3035,1.0931,0.4475,213.920,124.530,82.740,407,425,382,424,408,2025-06-04T19:53:59.794137
2508,-0.3948,1.2098,0.3343,199.465,91.875,65.345,395,422,385,406,413,2025-06-04T19:53:59.794137
2509,-0.1669,1.2986,0.1991,187.180,64.400,55.440,419,415,387,400,367,2025-06-04T19:53:59.794137
2510,0.0834,1.3723,0.0942,172.270,46.305,52.745,406,423,396,390,395,2025-06-04T19:53:59.794137
2511,0.1362,1.3879,0.0307,156.485,38.115,49.805,400,423,376,346,403,2025-06-04T19:53:59.794137
2512,0.1645,1.4269,0.0029,138.985,35.735,38.010,419,434,392,293,385,2025-06-04T19:53:59.794137
2513,0.1830,1.3849,0.0034,114.800,33.565,30.415,416,423,386,381,404,2025-06-04T19:53:59.794137
2514,0.2401,1.3908,0.0020,87.500,28.000,24.605,306,412,357,401,384,2025-06-04T19:53:59.794137
2515,0.2050,1.3425,0.0410,64.260,17.185,18.270,377,388,379,404,404,2025-06-04T19:53:59.794137
2516,0.2084,1.3420,0.0942,39.795,9.380,9.800,353,396,387,404,397,2025-06-04T19:53:59.794137
2517,0.2489,1.2732,0.0913,27.825,-2.870,1.890,388,415,388,376,411,2025-06-04T19:53:59.794137
2518,0.2269,1.2254,0.1430,15.575,-7.105,-8.085,384,350,391,391,410,2025-06-04T19:54:00.072156
2519,0.2513,1.2063,0.2298,6.545,-5.845,-19.320,391,403,386,361,396,2025-06-04T19:54:00.072156
2520,0.2328,1.1639,0.2762,-0.455,-0.070,-29.400,405,409,378,361,343,2025-06-04T19:54:00.072156
2521,0.1913,1.1185,0.3055,-6.405,6.650,-36.190,416,414,344,373,370,2025-06-04T19:54:00.072156
2522,0.1015,1.0673,0.3133,-7.070,8.575,-41.860,417,416,376,394,360,2025-06-04T19:54:00.072156
2523,-0.0039,1.0209,0.3328,-5.740,6.195,-45.605,408,364,383,381,386,2025-06-04T19:54:00.073151
2524,-0.1054,1.0175,0.3826,-1.750,0.420,-47.985,424,403,385,401,394,2025-06-04T19:54:00.073151
2525,-0.1654,0.9980,0.3772,1.260,-5.075,-47.110,425,435,377,406,352,2025-06-04T19:54:00.073151
2526,-0.2294,0.9828,0.3855,1.435,-14.105,-45.710,408,383,368,413,388,2025-06-04T19:54:00.073151
2527,-0.2406,0.9750,0.3826,2.905,-20.720,-42.350,385,427,378,422,353,2025-06-04T19:54:00.073151
2528,-0.2523,0.9506,0.3631,3.605,-23.275,-37.240,384,425,363,405,376,2025-06-04T19:54:00.073151
2529,-0.2689,0.9218,0.3548,5.250,-23.800,-31.465,384,433,377,416,360,2025-06-04T19:54:00.073151
2530,-0.2982,0.9087,0.3626,6.160,-22.575,-26.390,403,408,382,421,371,2025-06-04T19:54:00.073151
2531,-0.3138,0.8921,0.3753,6.825,-19.355,-21.140,410,409,341,424,394,2025-06-04T19:54:00.073151
2532,-0.2987,0.8799,0.3875,7.875,-14.350,-16.940,403,415,355,420,410,2025-06-04T19:54:00.073151
2533,-0.3133,0.8657,0.3884,8.750,-9.450,-12.600,418,418,336,371,402,2025-06-04T19:54:00.074146
2534,-0.3113,0.8667,0.3943,9.170,-5.145,-9.345,386,390,322,406,392,2025-06-04T19:54:00.074146
2535,-0.3138,0.8550,0.3811,9.380,-2.345,-7.420,369,410,360,420,389,2025-06-04T19:54:00.208171
2536,-0.2933,0.8506,0.3855,9.415,0.525,-5.425,407,399,377,405,394,2025-06-04T19:54:00.208171
2537,-0.2713,0.8506,0.3841,10.080,4.270,-3.535,427,418,376,361,383,2025-06-04T19:54:00.208171
2538,-0.2816,0.8623,0.4031,10.045,8.050,-2.660,430,410,386,399,346,2025-06-04T19:54:00.208171
2539,-0.2860,0.8486,0.3972,8.855,10.640,-2.730,405,391,390,374,394,2025-06-04T19:54:00.208171
2540,-0.2826,0.8442,0.3972,8.575,11.410,-1.925,421,420,384,394,350,2025-06-04T19:54:00.208171
2541,-0.2918,0.8467,0.4006,8.435,11.165,-0.875,435,428,343,344,328,2025-06-04T19:54:00.208171
2542,-0.3045,0.8481,0.4031,7.595,11.235,-0.490,398,357,369,376,331,2025-06-04T19:54:00.208171
2543,-0.2967,0.8535,0.4055,7.490,11.585,-0.035,413,411,374,351,354,2025-06-04T19:54:00.208171
2544,-0.2967,0.8486,0.4109,6.265,12.215,0.665,395,419,372,400,384,2025-06-04T19:54:00.208171
2545,-0.2972,0.8442,0.4055,6.020,12.810,1.365,424,408,369,412,345,2025-06-04T19:54:00.208171
2546,-0.3187,0.8506,0.4133,5.600,12.880,1.785,419,427,384,395,386,2025-06-04T19:54:00.208171
2547,-0.3187,0.8525,0.4197,4.550,12.915,1.925,410,410,378,423,402,2025-06-04T19:54:00.208171
2548,-0.3094,0.8520,0.4143,3.675,12.740,2.135,423,421,379,412,389,2025-06-04T19:54:00.208171
2549,-0.3065,0.8418,0.3982,2.835,13.265,2.660,401,346,385,412,396,2025-06-04T19:54:00.208171
2550,-0.3343,0.8398,0.4041,2.905,13.230,2.345,418,412,392,398,355,2025-06-04T19:54:00.208171
2551,-0.3499,0.8398,0.4128,2.870,12.460,1.505,400,425,383,387,369,2025-06-04T19:54:00.208171
2552,-0.3640,0.8389,0.4094,2.555,9.065,1.015,399,427,340,352,378,2025-06-04T19:54:00.208171
2553,-0.3845,0.8301,0.4080,2.135,4.235,0.315,414,418,354,384,358,2025-06-04T19:54:00.513989
2554,-0.3762,0.8325,0.4080,2.135,-0.070,-0.175,307,339,366,412,395,2025-06-04T19:54:00.513989
2555,-0.3533,0.8320,0.4089,2.205,-1.085,-0.700,380,389,375,396,400,2025-06-04T19:54:00.513989
2556,-0.3401,0.8276,0.4075,1.855,-0.525,-1.575,415,423,367,408,407,2025-06-04T19:54:00.513989
2557,-0.3392,0.8184,0.4011,0.910,1.050,-2.030,342,412,377,394,412,2025-06-04T19:54:00.513989
2558,-0.3514,0.8096,0.4070,1.085,0.735,-2.240,404,423,372,407,401,2025-06-04T19:54:00.513989
2559,-0.3665,0.8086,0.4075,0.875,-1.225,-2.765,396,381,336,409,407,2025-06-04T19:54:00.513989
2560,-0.3748,0.8106,0.4109,0.350,-3.325,-4.200,412,350,356,410,406,2025-06-04T19:54:00.513989
2561,-0.3650,0.8062,0.4119,0.070,-3.255,-5.320,422,385,374,396,415,2025-06-04T19:54:00.513989
2562,-0.3479,0.8096,0.4104,-0.175,-0.805,-5.880,420,398,377,390,422,2025-06-04T19:54:00.513989
2563,-0.3597,0.8091,0.4148,-0.385,2.380,-6.755,421,424,374,406,372,2025-06-04T19:54:00.513989
2564,-0.3719,0.8018,0.4094,-0.910,3.395,-7.245,424,441,382,371,388,2025-06-04T19:54:00.513989
2565,-0.3953,0.7969,0.4094,-1.190,1.645,-7.350,401,428,377,331,400,2025-06-04T19:54:00.513989
2566,-0.4187,0.8003,0.4255,-1.260,-2.555,-8.015,408,432,355,361,406,2025-06-04T19:54:00.513989
2567,-0.4177,0.8018,0.4319,-1.155,-7.245,-9.065,402,423,327,393,413,2025-06-04T19:54:00.589053
2568,-0.4187,0.8018,0.4275,-1.890,-11.620,-9.345,412,352,285,377,398,2025-06-04T19:54:00.589053
2569,-0.4128,0.7998,0.4250,-1.330,-15.050,-8.890,420,369,295,401,404,2025-06-04T19:54:00.589053
2570,-0.3924,0.8037,0.4207,-1.155,-15.295,-8.890,421,324,311,380,386,2025-06-04T19:54:00.589053
2571,-0.2513,0.8062,0.4255,-0.980,-13.580,-8.820,432,363,348,362,406,2025-06-04T19:54:00.589053
2572,-0.3572,0.8081,0.4236,-1.015,-9.975,-8.960,401,381,371,401,411,2025-06-04T19:54:00.589053
2573,-0.3621,0.8091,0.4236,-1.295,-5.670,-8.995,393,408,374,410,412,2025-06-04T19:54:00.589053
2574,-0.3767,0.8081,0.4255,-0.875,-3.500,-9.030,419,412,381,405,421,2025-06-04T19:54:00.589053
2575,-0.3889,0.8072,0.4250,-1.120,-3.675,-8.785,409,399,382,414,397,2025-06-04T19:54:00.589053
2576,-0.4016,0.8091,0.4236,-0.630,-4.340,-8.330,394,371,375,393,395,2025-06-04T19:54:00.589053
2577,-0.4104,0.8115,0.4109,-0.910,-5.705,-8.190,409,407,369,395,413,2025-06-04T19:54:00.589053
2578,-0.4094,0.8111,0.4182,-0.140,-6.930,-8.470,400,410,383,393,393,2025-06-04T19:54:00.589053
2579,-0.3943,0.8115,0.4192,0.000,-7.665,-8.365,341,397,376,309,389,2025-06-04T19:54:00.589053
2580,-0.3982,0.8120,0.4226,-0.350,-7.980,-8.365,379,416,381,318,356,2025-06-04T19:54:00.589053
2581,-0.3938,0.8081,0.4182,0.315,-8.890,-8.260,372,417,391,376,350,2025-06-04T19:54:00.589053
2582,-0.3982,0.8086,0.4099,-0.105,-8.995,-8.260,396,439,383,392,374,2025-06-04T19:54:00.589053
2583,-0.3875,0.8013,0.4055,0.385,-8.645,-7.840,397,394,347,386,401,2025-06-04T19:54:00.589053
2584,-0.3875,0.8032,0.4114,0.735,-6.860,-7.280,404,377,367,407,409,2025-06-04T19:54:00.589053
2585,-0.3836,0.8057,0.4085,0.560,-5.495,-6.825,394,361,362,370,408,2025-06-04T19:54:00.787314
2586,-0.3948,0.8067,0.4080,0.385,-3.605,-6.300,395,405,361,401,398,2025-06-04T19:54:00.787314
2587,-0.4046,0.8076,0.4021,0.315,-2.100,-5.810,373,425,364,399,403,2025-06-04T19:54:00.787314
2588,-0.4221,0.8052,0.3967,0.315,-2.065,-5.705,411,416,385,401,394,2025-06-04T19:54:00.787314
2589,-0.4133,0.8120,0.4002,0.560,-3.185,-5.565,406,434,384,404,409,2025-06-04T19:54:00.787314
2590,-0.4124,0.8130,0.3987,0.350,-4.165,-4.865,338,425,369,412,370,2025-06-04T19:54:00.787314
2591,-0.4080,0.8106,0.3899,-0.560,-6.090,-4.375,339,399,382,419,402,2025-06-04T19:54:00.787314
2592,-0.4075,0.8111,0.3894,-1.050,-7.455,-3.780,356,346,386,360,389,2025-06-04T19:54:00.787314
2593,-0.3860,0.8111,0.3904,-0.805,-7.630,-3.045,382,416,377,374,385,2025-06-04T19:54:00.787314
2594,-0.3841,0.8135,0.3899,-1.400,-6.755,-2.695,393,413,370,383,393,2025-06-04T19:54:00.787314
2595,-0.3787,0.8135,0.3963,-1.435,-4.900,-2.275,398,430,383,380,411,2025-06-04T19:54:00.787314
2596,-0.3850,0.8130,0.4011,-1.505,-2.975,-2.100,427,416,345,397,411,2025-06-04T19:54:00.787314
2597,-0.3997,0.8125,0.4080,-1.505,-2.065,-1.890,400,394,326,391,412,2025-06-04T19:54:00.787314
2598,-0.4099,0.8120,0.4080,-1.470,-2.520,-1.645,379,415,363,381,395,2025-06-04T19:54:00.787314
2599,-0.4211,0.8052,0.4050,-1.610,-3.570,-1.365,407,406,377,399,393,2025-06-04T19:54:00.787314
2600,-0.4226,0.8057,0.4085,-0.700,-5.005,-1.120,418,384,386,392,397,2025-06-04T19:54:00.787314
2601,-0.4241,0.8018,0.4080,-0.630,-5.565,-0.945,423,426,381,407,406,2025-06-04T19:54:00.787314
2602,-0.4177,0.7979,0.4119,0.035,-5.845,-0.560,423,407,383,409,413,2025-06-04T19:54:01.023662
2603,-0.4236,0.7950,0.4211,0.525,-5.810,-0.035,423,412,356,367,389,2025-06-04T19:54:01.023662
2604,-0.4182,0.7901,0.4221,1.120,-6.300,0.665,393,390,378,392,354,2025-06-04T19:54:01.023662
2605,-0.4285,0.7920,0.4285,1.750,-7.385,0.735,406,410,373,400,400,2025-06-04T19:54:01.023662
2606,-0.4290,0.7896,0.4304,1.750,-8.190,0.560,350,417,372,412,373,2025-06-04T19:54:01.023662
2607,-0.4172,0.7862,0.4265,2.100,-8.540,0.455,373,431,368,416,358,2025-06-04T19:54:01.023662
2608,-0.4060,0.7867,0.4255,2.240,-8.155,0.315,397,417,373,411,369,2025-06-04T19:54:01.023662
2609,-0.4080,0.7852,0.4241,2.380,-7.315,-0.105,386,414,385,401,383,2025-06-04T19:54:01.023662
2610,-0.4075,0.7832,0.4270,2.485,-7.280,-0.735,407,420,348,370,397,2025-06-04T19:54:01.023662
2611,-0.4148,0.7823,0.4275,2.450,-8.295,-1.295,402,403,355,391,407,2025-06-04T19:54:01.023662
2612,-0.4128,0.7828,0.4202,2.450,-9.625,-1.715,390,404,371,401,387,2025-06-04T19:54:01.023662
2613,-0.4016,0.7842,0.4182,2.520,-10.220,-2.065,419,396,383,397,379,2025-06-04T19:54:01.023662
2614,-0.4021,0.7881,0.4275,3.115,-10.185,-2.520,413,406,388,365,344,2025-06-04T19:54:01.023662
2615,-0.3992,0.7901,0.4236,2.765,-9.695,-3.185,393,422,380,402,397,2025-06-04T19:54:01.024741
2616,-0.3938,0.7847,0.4163,2.975,-9.520,-3.255,338,379,388,417,409,2025-06-04T19:54:01.024741
2617,-0.4036,0.7876,0.4163,2.800,-9.065,-3.430,405,424,379,414,411,2025-06-04T19:54:01.024741
2618,-0.4080,0.7930,0.4128,2.695,-8.365,-3.885,403,345,382,427,391,2025-06-04T19:54:01.024741
2619,-0.4036,0.7940,0.4085,3.080,-8.050,-3.885,414,391,392,407,402,2025-06-04T19:54:01.300464
2620,-0.4036,0.7954,0.4016,2.205,-8.085,-3.395,412,374,392,365,405,2025-06-04T19:54:01.300464
2621,-0.4099,0.7964,0.4050,2.065,-8.260,-3.080,340,389,389,388,416,2025-06-04T19:54:01.300464
2622,-0.4060,0.8008,0.4026,2.030,-8.260,-2.765,385,397,391,406,399,2025-06-04T19:54:01.300464
2623,-0.4104,0.7989,0.3997,1.715,-8.470,-2.345,410,405,381,390,354,2025-06-04T19:54:01.300464
2624,-0.4148,0.8042,0.4002,1.645,-9.205,-2.030,416,358,375,395,395,2025-06-04T19:54:01.300464
2625,-0.4104,0.8028,0.4036,1.085,-9.520,-1.925,425,329,378,411,387,2025-06-04T19:54:01.300464
2626,-0.4006,0.8013,0.3997,1.015,-9.660,-1.785,405,384,353,403,381,2025-06-04T19:54:01.300464
2627,-0.4026,0.8032,0.3987,0.665,-8.365,-2.065,400,345,328,390,402,2025-06-04T19:54:01.300464
2628,-0.3938,0.8057,0.4002,0.770,-7.035,-1.960,383,385,359,403,396,2025-06-04T19:54:01.300464
2629,-0.3972,0.8032,0.3992,0.630,-5.705,-1.715,296,409,376,399,396,2025-06-04T19:54:01.300464
2630,-0.4065,0.8018,0.4011,0.315,-5.425,-1.610,401,406,389,393,392,2025-06-04T19:54:01.301456
2631,-0.4104,0.8028,0.4060,0.315,-6.195,-1.400,371,338,349,390,399,2025-06-04T19:54:01.301456
2632,-0.4177,0.7964,0.4041,-0.175,-6.720,-0.980,401,402,368,400,405,2025-06-04T19:54:01.301456
2633,-0.4109,0.7989,0.4021,0.210,-7.385,-0.420,396,403,384,373,401,2025-06-04T19:54:01.301456
2634,-0.4153,0.7998,0.4075,-0.315,-6.545,-0.105,410,401,366,355,387,2025-06-04T19:54:01.301456
2635,-0.4104,0.7974,0.4104,0.140,-5.845,0.105,419,385,334,400,348,2025-06-04T19:54:01.301456
2636,-0.4231,0.7984,0.4114,-0.245,-5.285,0.315,396,367,360,416,378,2025-06-04T19:54:01.411371
2637,-0.4241,0.7964,0.4143,-0.070,-5.845,0.245,300,365,371,396,353,2025-06-04T19:54:01.411371
2638,-0.4172,0.7979,0.4168,0.175,-6.545,0.420,393,389,367,389,382,2025-06-04T19:54:01.411371
2639,-0.4109,0.7935,0.4070,-0.070,-7.140,0.700,417,394,373,390,411,2025-06-04T19:54:01.411371
2640,-0.4138,0.7959,0.4065,0.490,-7.420,0.945,408,419,377,410,358,2025-06-04T19:54:01.411371
2641,-0.4070,0.7974,0.4099,0.525,-7.175,0.595,422,407,373,416,357,2025-06-04T19:54:01.411371
2642,-0.4060,0.7979,0.4124,0.700,-7.280,0.455,422,407,376,415,384,2025-06-04T19:54:01.411371
2643,-0.4085,0.7969,0.4046,0.700,-7.595,0.280,370,423,378,415,386,2025-06-04T19:54:01.412374
2644,-0.4080,0.7945,0.4060,1.120,-8.085,0.175,391,420,377,410,362,2025-06-04T19:54:01.412374
2645,-0.4085,0.7998,0.4109,1.295,-8.365,0.070,423,426,385,410,397,2025-06-04T19:54:01.412374
2646,-0.4089,0.8013,0.4158,1.400,-8.575,0.105,342,409,382,411,391,2025-06-04T19:54:01.412374
2647,-0.4050,0.7954,0.4089,1.365,-8.575,0.210,396,379,376,354,406,2025-06-04T19:54:01.412374
2648,-0.4006,0.7959,0.4109,1.400,-8.435,0.385,404,347,383,401,402,2025-06-04T19:54:01.412374
2649,-0.4085,0.7984,0.4104,1.610,-8.785,0.385,413,404,381,392,411,2025-06-04T19:54:01.700044
2650,-0.4031,0.7964,0.4070,1.750,-9.345,0.385,407,430,343,405,410,2025-06-04T19:54:01.700044
2651,-0.4021,0.7964,0.4075,1.435,-9.205,0.525,419,408,366,396,420,2025-06-04T19:54:01.700044
2652,-0.4011,0.7984,0.4094,1.365,-8.645,0.350,434,381,371,399,395,2025-06-04T19:54:01.701046
2653,-0.4036,0.8018,0.4138,1.225,-7.840,0.280,419,414,336,416,419,2025-06-04T19:54:01.701046
2654,-0.4133,0.8023,0.4158,1.155,-8.155,0.210,416,393,347,352,397,2025-06-04T19:54:01.701046
2655,-0.4182,0.8037,0.4138,0.735,-9.450,0.385,414,369,360,336,364,2025-06-04T19:54:01.701046
2656,-0.4216,0.8057,0.4128,0.455,-11.095,0.420,353,393,364,368,400,2025-06-04T19:54:01.701046
2657,-0.4177,0.8076,0.4138,0.420,-11.935,0.490,368,420,333,402,406,2025-06-04T19:54:01.701046
2658,-0.4060,0.8081,0.4109,-0.175,-11.760,0.630,389,423,369,400,395,2025-06-04T19:54:01.701046
2659,-0.3977,0.8125,0.4182,-0.350,-10.675,0.770,397,402,379,411,403,2025-06-04T19:54:01.701046
2660,-0.4060,0.8101,0.4138,-0.805,-9.555,0.770,387,417,386,403,404,2025-06-04T19:54:01.701046
2661,-0.4124,0.8086,0.4163,-1.015,-9.170,0.910,428,423,375,348,407,2025-06-04T19:54:01.701046
2662,-0.4075,0.8120,0.4148,-1.155,-9.345,1.295,420,366,378,390,404,2025-06-04T19:54:01.701046
2663,-0.4055,0.8101,0.4109,-1.715,-9.555,1.995,358,415,379,388,373,2025-06-04T19:54:01.701046
2664,-0.4065,0.8145,0.4104,-1.435,-10.255,2.310,390,406,385,409,387,2025-06-04T19:54:01.701046
2665,-0.3992,0.8115,0.4143,-1.540,-11.025,2.520,418,408,376,412,389,2025-06-04T19:54:01.701046
2666,-0.3938,0.8081,0.4143,-1.785,-11.935,2.765,425,412,383,413,406,2025-06-04T19:54:01.701046
2667,-0.3943,0.8067,0.4089,-1.680,-12.915,2.905,436,408,375,392,396,2025-06-04T19:54:01.701046
2668,-0.3826,0.8032,0.4075,-1.295,-13.930,2.940,402,349,378,400,407,2025-06-04T19:54:01.701046
2669,-0.3631,0.8018,0.4089,-1.120,-13.405,2.730,340,402,337,389,396,2025-06-04T19:54:01.701046
2670,-0.3577,0.8091,0.4011,-1.400,-11.865,2.135,359,430,367,390,408,2025-06-04T19:54:01.701046
2671,-0.3440,0.8120,0.4016,-0.980,-9.800,1.435,331,423,381,406,407,2025-06-04T19:54:01.701046
2672,-0.3431,0.8150,0.4011,-1.505,-7.350,0.945,322,410,393,391,402,2025-06-04T19:54:01.701046
2673,-0.3436,0.8125,0.4002,-1.575,-6.055,0.525,401,394,383,403,398,2025-06-04T19:54:01.702044
2674,-0.3396,0.8164,0.3982,-1.680,-5.425,-0.280,422,340,311,389,399,2025-06-04T19:54:01.702044
2675,-0.3274,0.8159,0.3938,-1.960,-4.970,-1.260,424,384,364,397,412,2025-06-04T19:54:01.853927
2676,-0.3030,0.8237,0.3880,-1.855,-4.130,-2.275,414,371,366,349,412,2025-06-04T19:54:01.854239
2677,-0.2718,0.8408,0.3782,-2.730,-2.765,-3.290,414,413,363,377,414,2025-06-04T19:54:01.854239
2678,-0.2499,0.8745,0.3645,-4.095,-1.190,-4.235,346,418,383,387,393,2025-06-04T19:54:01.854239
2679,-0.2201,0.9140,0.3436,-6.895,-0.175,-6.055,382,438,382,409,386,2025-06-04T19:54:01.854239
2680,-0.1762,0.9794,0.3323,-10.640,0.070,-8.295,402,429,347,418,393,2025-06-04T19:54:01.854239
2681,-0.1547,1.0785,0.3143,-15.260,-4.060,-10.745,382,422,373,402,391,2025-06-04T19:54:01.854239
2682,-0.1503,1.1873,0.3021,-21.805,-14.385,-12.530,390,402,375,394,414,2025-06-04T19:54:01.854239
2683,-0.1132,1.3420,0.2796,-30.940,-36.750,-12.950,350,353,339,405,407,2025-06-04T19:54:01.854239
2684,-0.0600,1.5128,0.2435,-41.965,-66.850,-12.215,380,340,328,356,368,2025-06-04T19:54:01.854239
2685,-0.0024,1.6499,0.1728,-51.485,-100.695,-11.130,336,406,319,394,400,2025-06-04T19:54:01.854239
2686,0.1083,1.8227,0.1000,-63.245,-130.060,-8.540,390,426,356,350,349,2025-06-04T19:54:01.854239
2687,0.2821,2.0013,0.0210,-75.355,-146.895,-3.115,386,405,358,345,381,2025-06-04T19:54:01.855240
2688,0.4587,2.1101,-0.1215,-87.780,-148.680,6.335,338,391,358,388,351,2025-06-04T19:54:02.064871
2689,0.5178,2.1833,-0.2494,-101.220,-137.095,19.250,387,333,373,398,378,2025-06-04T19:54:02.064871
2690,0.4460,2.2560,-0.3558,-110.880,-120.015,26.915,392,368,394,409,394,2025-06-04T19:54:02.064871
2691,0.3006,2.3048,-0.3802,-126.525,-89.600,22.820,401,405,374,360,411,2025-06-04T19:54:02.064871
2692,0.0620,2.2663,-0.4109,-142.520,-57.715,4.830,409,427,372,398,317,2025-06-04T19:54:02.064871
2693,-0.3157,2.1872,-0.3070,-166.285,-41.440,-25.480,401,429,367,400,375,2025-06-04T19:54:02.064871
2694,-0.8159,2.0081,-0.2347,-191.730,-71.505,-63.875,399,428,365,410,342,2025-06-04T19:54:02.064871
2695,-1.4406,1.6158,-0.2220,-215.425,-177.905,-99.995,301,403,380,356,328,2025-06-04T19:54:02.064871
2696,-1.5006,1.0692,-0.4231,-236.285,-362.740,-112.245,402,434,374,403,386,2025-06-04T19:54:02.064871
2697,-0.8208,0.7188,-0.4197,-264.670,-490.595,-117.110,410,431,369,396,347,2025-06-04T19:54:02.065957
2698,0.1113,0.5441,-0.2059,-315.875,-540.680,-134.155,343,399,382,425,389,2025-06-04T19:54:02.065957
2699,1.3786,0.0190,0.0673,-371.000,-441.560,-169.120,380,379,376,417,391,2025-06-04T19:54:02.065957
2700,2.4312,-0.7657,0.4265,-458.535,-197.400,-214.725,423,338,386,410,408,2025-06-04T19:54:02.065957
2701,2.4268,-2.6186,0.8428,-519.715,74.830,-275.870,396,415,419,445,417,2025-06-04T19:54:02.065957
2702,0.5124,-4.7131,1.3879,-490.700,245.280,-326.165,391,424,427,430,404,2025-06-04T19:54:02.065957
2703,-1.1082,-5.6144,1.2537,-397.250,200.550,-303.555,315,446,418,469,428,2025-06-04T19:54:02.065957
2704,-1.9837,-4.9254,1.0224,-220.255,-60.865,-142.310,400,397,388,386,389,2025-06-04T19:54:02.065957
2705,-0.9823,-3.9601,0.6207,-30.310,-247.730,57.925,439,432,326,422,407,2025-06-04T19:54:02.229056
2706,0.1571,-3.2628,0.5812,102.725,-311.255,161.245,419,409,359,440,434,2025-06-04T19:54:02.229056
2707,1.3664,-2.2765,0.7188,201.880,-217.420,167.895,430,352,369,350,403,2025-06-04T19:54:02.229056
2708,1.7109,-1.4557,0.9457,288.225,1.575,145.005,421,429,395,403,418,2025-06-04T19:54:02.229056
2709,1.2859,-1.1317,0.8086,266.805,203.770,138.740,408,399,374,398,416,2025-06-04T19:54:02.229056
2710,0.3240,-0.9096,0.7452,266.700,224.980,145.250,404,415,394,377,396,2025-06-04T19:54:02.229056
2711,-0.3367,-0.5841,0.7130,293.650,176.225,147.420,410,438,369,405,423,2025-06-04T19:54:02.229056
2712,-0.1732,-0.4338,0.8106,240.205,108.325,132.300,390,435,372,378,404,2025-06-04T19:54:02.229056
2713,0.0508,-0.1913,0.8189,227.150,76.475,124.040,366,433,389,360,377,2025-06-04T19:54:02.229056
2714,0.2040,-0.0332,0.8150,216.475,77.525,109.480,382,433,385,388,351,2025-06-04T19:54:02.230117
2715,0.2650,0.1264,0.8784,213.360,111.300,93.800,392,432,367,406,390,2025-06-04T19:54:02.230117
2716,0.3436,0.2172,0.8281,202.195,150.780,76.475,394,429,382,419,395,2025-06-04T19:54:02.230117
2717,0.2567,0.3362,0.7188,191.940,187.950,67.270,405,420,381,437,401,2025-06-04T19:54:02.230117
2718,-0.0327,0.5544,0.6334,173.845,208.600,59.920,406,418,390,397,409,2025-06-04T19:54:02.230117
2719,-0.2133,0.7681,0.6734,165.060,206.675,54.320,420,418,338,424,417,2025-06-04T19:54:02.230117
2720,-0.2601,0.9355,0.5949,158.025,184.660,56.455,430,422,363,406,377,2025-06-04T19:54:02.230117
2721,-0.4778,1.0585,0.4660,148.890,158.795,54.005,406,369,376,314,369,2025-06-04T19:54:02.230117
2722,-0.7549,1.1605,0.4587,138.565,120.855,33.915,380,392,368,358,353,2025-06-04T19:54:02.325912
2723,-0.6105,1.2771,0.4470,129.115,73.640,23.100,385,415,372,355,391,2025-06-04T19:54:02.325912
2724,-0.3797,1.3327,0.3938,116.550,31.080,21.350,399,410,305,374,390,2025-06-04T19:54:02.325912
2725,-0.2987,1.3264,0.3367,106.015,3.290,20.265,410,401,347,391,386,2025-06-04T19:54:02.325912
2726,-0.1269,1.3083,0.2572,99.435,-5.635,17.745,421,345,367,387,391,2025-06-04T19:54:02.325912
2727,-0.0337,1.3142,0.2328,93.485,1.925,14.630,400,390,373,400,387,2025-06-04T19:54:02.325912
2728,0.0293,1.3127,0.2386,85.190,12.950,12.285,389,399,376,393,390,2025-06-04T19:54:02.327083
2729,0.0049,1.3288,0.2137,75.110,29.925,10.150,409,417,385,381,383,2025-06-04T19:54:02.327083
2730,-0.1176,1.2771,0.2025,68.565,41.965,3.850,399,412,344,399,403,2025-06-04T19:54:02.425674
2731,-0.1601,1.2366,0.2230,62.930,46.970,-0.525,388,347,359,413,390,2025-06-04T19:54:02.426673
2732,-0.1449,1.1858,0.2552,56.105,43.050,0.245,385,402,343,402,308,2025-06-04T19:54:02.426673
2733,-0.1796,1.1278,0.2796,50.400,33.880,3.465,389,383,358,416,380,2025-06-04T19:54:02.426673
2734,-0.2269,1.0873,0.2928,42.105,27.790,3.710,394,395,362,414,383,2025-06-04T19:54:02.427057
2735,-0.2396,1.0658,0.3109,35.140,20.860,2.380,393,416,374,355,382,2025-06-04T19:54:02.427057
2736,-0.2142,1.0516,0.3104,27.930,14.525,1.225,414,425,383,399,384,2025-06-04T19:54:02.427057
2737,-0.2664,1.0370,0.3245,21.735,8.330,-1.890,353,391,372,400,396,2025-06-04T19:54:02.427057
2738,-0.2640,1.0155,0.3192,9.485,0.420,-5.775,382,433,382,406,389,2025-06-04T19:54:02.530744
2739,-0.2333,0.9931,0.3348,15.295,-7.805,-7.770,400,429,344,358,399,2025-06-04T19:54:02.530744
2740,-0.1913,0.9633,0.3289,13.125,-13.195,-8.015,337,429,358,405,386,2025-06-04T19:54:02.530744
2741,-0.1879,0.9277,0.3289,10.780,-17.255,-7.875,334,428,368,413,394,2025-06-04T19:54:02.530744
2742,-0.1459,0.8979,0.3392,10.605,-17.955,-7.630,413,433,383,414,396,2025-06-04T19:54:02.530744
2743,-0.1454,0.8955,0.3636,9.975,-13.895,-7.945,407,404,390,405,383,2025-06-04T19:54:02.530744
2744,-0.1318,0.8877,0.3782,10.010,-6.335,-9.170,340,356,358,359,400,2025-06-04T19:54:02.530744
2745,-0.1635,0.8764,0.3821,8.260,1.330,-10.465,334,402,379,386,406,2025-06-04T19:54:02.530744
2746,-0.1767,0.8682,0.3972,8.610,8.750,-12.040,398,428,388,395,407,2025-06-04T19:54:02.530744
2747,-0.2054,0.8623,0.4211,7.245,15.365,-13.615,387,404,375,391,416,2025-06-04T19:54:02.632903
2748,-0.2469,0.8516,0.4202,7.420,18.865,-14.140,417,421,386,346,361,2025-06-04T19:54:02.633559
2749,-0.2923,0.8252,0.4109,8.050,18.305,-14.035,417,392,346,373,384,2025-06-04T19:54:02.633559
2750,-0.3226,0.8154,0.4163,8.855,17.465,-13.265,377,364,337,396,403,2025-06-04T19:54:02.633559
2751,-0.3333,0.8154,0.4407,9.590,17.465,-12.320,401,387,365,407,410,2025-06-04T19:54:02.633559
2752,-0.3411,0.8169,0.4436,10.290,17.360,-10.500,397,413,336,401,418,2025-06-04T19:54:02.633559
2753,-0.3655,0.8111,0.4431,9.765,16.415,-9.100,419,421,352,414,417,2025-06-04T19:54:02.633559
2754,-0.3592,0.8047,0.4314,10.010,14.175,-6.475,426,432,362,419,399,2025-06-04T19:54:02.633559
2755,-0.3797,0.8081,0.4377,9.695,13.020,-4.305,428,397,361,407,387,2025-06-04T19:54:02.737053
2756,-0.3938,0.8120,0.4451,9.695,11.480,-3.045,423,342,381,404,399,2025-06-04T19:54:02.737053
2757,-0.3919,0.8150,0.4431,9.065,9.905,-1.820,396,377,367,388,412,2025-06-04T19:54:02.737053
2758,-0.4070,0.8150,0.4343,7.945,7.840,-0.875,378,394,383,382,410,2025-06-04T19:54:02.737053
2759,-0.3875,0.8150,0.4343,7.805,7.000,0.000,379,409,389,406,411,2025-06-04T19:54:02.737053
2760,-0.3562,0.8125,0.4231,7.070,8.680,1.155,411,405,388,401,407,2025-06-04T19:54:02.737053
2761,-0.3611,0.8194,0.4294,6.230,13.405,1.190,416,379,386,402,404,2025-06-04T19:54:02.738050
2762,-0.3636,0.8184,0.4416,5.915,18.200,0.175,375,411,387,398,402,2025-06-04T19:54:02.738050
2763,-0.3665,0.8115,0.4397,4.620,21.000,-0.035,427,349,376,396,412,2025-06-04T19:54:02.738214
2764,-0.3704,0.8111,0.4260,3.745,22.505,0.000,422,359,380,394,400,2025-06-04T19:54:02.785059
2765,-0.3972,0.8018,0.4207,3.010,21.875,-0.175,425,404,360,409,389,2025-06-04T19:54:02.786087
2766,-0.4104,0.7964,0.4236,2.730,20.020,-0.280,412,366,362,399,388,2025-06-04T19:54:02.786087
2767,-0.4060,0.7915,0.4172,2.520,16.800,0.245,300,401,377,348,396,2025-06-04T19:54:02.786087
2768,-0.4319,0.7886,0.4246,1.295,13.895,0.385,378,427,376,388,369,2025-06-04T19:54:02.938691
2769,-0.4397,0.7906,0.4270,1.365,8.855,-0.245,405,409,385,391,390,2025-06-04T19:54:02.938691
2770,-0.4538,0.7915,0.4358,0.420,3.500,-1.120,427,427,381,343,391,2025-06-04T19:54:02.938691
2771,-0.4441,0.7954,0.4377,-0.875,-0.140,-2.205,411,425,344,353,406,2025-06-04T19:54:02.938691
2772,-0.4382,0.7886,0.4451,-1.120,-0.805,-4.375,358,405,365,386,408,2025-06-04T19:54:02.938691
2773,-0.4075,0.7945,0.4436,-1.855,1.015,-5.670,370,429,368,391,401,2025-06-04T19:54:02.938691
2774,-0.4133,0.7803,0.4412,-2.555,3.710,-5.845,400,428,386,365,403,2025-06-04T19:54:02.938691
2775,-0.4231,0.7627,0.4343,-1.890,3.080,-4.935,404,422,383,387,349,2025-06-04T19:54:02.938691
2776,-0.4524,0.7627,0.4382,-1.820,0.315,-4.270,403,407,380,411,382,2025-06-04T19:54:02.938691
2777,-0.4690,0.7647,0.4504,-1.155,-3.395,-3.640,399,415,375,410,397,2025-06-04T19:54:02.939286
2778,-0.4743,0.7754,0.4592,-1.050,-4.585,-3.745,431,343,387,414,359,2025-06-04T19:54:02.939286
2779,-0.4416,0.7808,0.4534,-0.875,-2.765,-3.885,390,411,381,401,391,2025-06-04T19:54:02.939286
2780,-0.4211,0.7788,0.4416,-0.875,1.365,-3.640,413,432,389,387,383,2025-06-04T19:54:02.939286
2781,-0.4260,0.7774,0.4358,-0.490,4.865,-2.835,425,426,397,385,389,2025-06-04T19:54:02.986268
2782,-0.4504,0.7842,0.4387,0.175,5.880,-2.415,391,433,379,381,341,2025-06-04T19:54:02.986268
2783,-0.4748,0.7857,0.4441,-0.105,5.320,-2.100,397,415,369,385,332,2025-06-04T19:54:02.986268
2784,-0.4851,0.7862,0.4441,0.420,2.520,-1.890,352,399,373,401,377,2025-06-04T19:54:02.986529
2785,-0.4885,0.7867,0.4368,0.385,-0.385,-1.610,390,425,340,389,395,2025-06-04T19:54:03.034658
2786,-0.4782,0.7808,0.4304,1.470,-3.850,-0.945,413,400,369,411,403,2025-06-04T19:54:03.034658
2787,-0.4641,0.7842,0.4319,1.785,-6.895,-0.105,409,404,384,407,411,2025-06-04T19:54:03.034658
2788,-0.4592,0.7813,0.4319,1.610,-8.225,0.000,392,415,384,416,361,2025-06-04T19:54:03.034658
2789,-0.4416,0.7828,0.4285,2.135,-8.750,0.035,408,307,373,385,379,2025-06-04T19:54:03.085035
2790,-0.4416,0.7837,0.4250,1.575,-7.245,-0.490,396,355,367,381,379,2025-06-04T19:54:03.085661
2791,-0.4431,0.7788,0.4216,2.100,-6.230,-0.875,387,406,384,395,390,2025-06-04T19:54:03.085661
2792,-0.4363,0.7798,0.4241,1.750,-4.830,-0.735,390,421,386,398,397,2025-06-04T19:54:03.085661
2793,-0.4329,0.7740,0.4153,1.120,-4.060,-0.175,398,403,384,401,410,2025-06-04T19:54:03.342912
2794,-0.4333,0.7691,0.4158,1.295,-3.465,0.315,419,399,387,386,373,2025-06-04T19:54:03.342912
2795,-0.4368,0.7706,0.4158,0.945,-2.730,0.595,402,349,389,393,375,2025-06-04T19:54:03.342912
2796,-0.4470,0.7715,0.4158,0.875,-3.710,0.840,385,384,397,343,394,2025-06-04T19:54:03.342912
2797,-0.4582,0.7710,0.4089,0.525,-5.600,1.015,423,401,392,376,367,2025-06-04T19:54:03.343510
2798,-0.4573,0.7706,0.4099,0.630,-7.350,1.155,426,366,400,398,404,2025-06-04T19:54:03.343510
2799,-0.4548,0.7701,0.4158,0.350,-7.980,0.980,412,425,400,414,395,2025-06-04T19:54:03.532987
2800,-0.4470,0.7745,0.4187,0.455,-7.385,0.875,425,409,381,409,393,2025-06-04T19:54:03.532987
2801,-0.4402,0.7706,0.4168,0.490,-5.810,1.155,392,412,350,418,372,2025-06-04T19:54:03.532987
