SeqNum,AccX,AccY,AccZ,GyroX,GyroY,GyroZ,Flex,Force1,Force2,Force3,Force4,TimestampReception
1,0.0000,0.0000,0.0000,-1.925,12.110,-5.005,1.35,1.36,1.45,1.52,1.43,2025-06-04T19:11:27.507121
2,-0.1166,-0.2733,0.9638,-1.575,-6.895,-1.260,1.37,1.39,1.40,1.38,1.23,2025-06-04T19:11:27.607048
3,-0.1859,-0.2542,0.9682,-0.875,-11.935,-10.990,1.35,1.43,1.30,1.37,1.35,2025-06-04T19:11:27.807838
4,-0.1191,-0.2835,0.9843,-1.190,-6.545,-4.480,1.62,1.43,1.46,1.33,1.31,2025-06-04T19:11:27.931067
5,-0.0917,-0.3143,0.9989,-4.445,-2.100,-0.175,1.64,1.42,1.49,1.50,1.47,2025-06-04T19:11:27.931067
6,-0.1069,-0.2757,1.0136,2.380,-0.630,0.210,1.56,1.34,1.52,1.53,1.47,2025-06-04T19:11:28.129834
7,-0.1127,-0.2977,0.9882,1.645,-5.355,2.065,1.34,1.39,1.51,1.51,1.39,2025-06-04T19:11:28.129834
8,-0.1235,-0.2830,0.9814,0.175,-4.725,-1.365,1.21,1.54,1.51,1.43,1.38,2025-06-04T19:11:28.282829
9,-0.0991,-0.2713,0.9745,-0.560,-4.795,-1.190,1.30,1.54,1.51,1.28,1.39,2025-06-04T19:11:28.399967
10,-0.1249,-0.3021,0.9711,0.245,-8.470,-0.875,1.31,1.47,1.45,1.51,1.43,2025-06-04T19:11:28.525719
11,-0.1015,-0.2747,0.9853,0.875,-10.675,1.120,1.25,1.37,1.44,1.45,1.35,2025-06-04T19:11:28.754242
12,-0.1200,-0.2938,0.9921,0.105,-7.280,0.875,1.24,1.33,1.47,1.38,1.25,2025-06-04T19:11:28.754242
13,-0.1005,-0.2826,0.9701,0.420,-5.530,-1.925,1.10,1.19,1.40,1.29,1.10,2025-06-04T19:11:28.800572
14,-0.1127,-0.2874,0.9897,0.280,-5.390,-1.400,1.25,1.15,1.34,1.30,1.17,2025-06-04T19:11:29.250199
15,-0.1283,-0.2913,0.9843,0.805,-6.405,0.070,1.31,1.17,1.29,1.32,1.15,2025-06-04T19:11:29.250199
16,-0.1142,-0.3118,0.9804,0.700,-6.860,0.000,1.19,1.06,0.97,1.32,1.12,2025-06-04T19:11:29.250758
17,-0.0986,-0.2689,0.9653,-0.875,-12.635,0.700,1.27,1.15,1.32,1.39,1.12,2025-06-04T19:11:29.355063
18,-0.0825,-0.3040,0.9950,1.820,-6.860,-0.385,1.22,1.15,1.00,1.33,1.07,2025-06-04T19:11:29.413319
19,-0.0839,-0.2923,0.9838,0.350,-2.730,-2.065,1.23,1.41,1.41,1.38,1.08,2025-06-04T19:11:29.559960
20,-0.1220,-0.2850,0.9789,-1.015,-8.610,0.595,1.25,1.54,1.44,1.43,1.17,2025-06-04T19:11:29.667713
21,-0.1240,-0.2967,0.9794,1.435,-4.200,-2.940,1.23,1.57,1.26,1.06,1.19,2025-06-04T19:11:29.765262
22,-0.1108,-0.2874,0.9789,-0.630,-6.335,-1.960,1.26,1.61,1.25,1.35,1.19,2025-06-04T19:11:30.168286
23,-0.1293,-0.2996,0.9994,-1.155,-9.975,1.155,1.25,1.57,1.43,1.44,1.26,2025-06-04T19:11:30.168286
24,-0.0932,-0.2952,0.9765,-1.365,-7.665,-0.490,1.24,1.38,1.39,1.30,1.25,2025-06-04T19:11:30.285297
25,-0.1147,-0.2943,0.9672,-1.505,-11.935,-2.310,1.29,1.55,1.45,1.45,1.24,2025-06-04T19:11:30.285297
26,-0.0971,-0.2967,0.9897,-0.315,-4.095,-3.780,1.27,1.62,1.34,1.45,1.28,2025-06-04T19:11:30.285297
27,-0.0839,-0.3123,0.9565,3.325,-10.395,0.140,1.34,1.95,1.73,1.53,1.56,2025-06-04T19:11:30.426103
28,-0.1181,-0.2904,0.9945,-0.070,-9.205,2.065,1.25,1.55,1.49,1.41,1.38,2025-06-04T19:11:30.585045
29,-0.0776,-0.3113,0.9828,-1.960,-1.610,-1.225,1.25,1.45,1.41,1.32,1.29,2025-06-04T19:11:30.698775
30,-0.1205,-0.2996,0.9819,-1.925,-6.685,-0.910,1.21,1.06,1.20,1.14,1.10,2025-06-04T19:11:30.765677
31,-0.1249,-0.3245,0.9911,2.800,-1.995,-12.145,1.25,0.91,1.15,1.24,1.03,2025-06-04T19:11:30.887854
32,-0.1562,-0.3265,0.9745,1.785,-16.205,-21.140,1.27,0.86,1.09,1.25,1.00,2025-06-04T19:11:31.097986
33,-0.1859,-0.3353,1.0092,-3.010,17.255,-10.395,1.20,1.12,1.28,1.28,0.94,2025-06-04T19:11:31.097986
34,-0.1078,-0.3133,0.9653,0.525,0.070,-8.365,1.24,1.29,1.37,1.33,1.06,2025-06-04T19:11:31.203505
35,-0.1220,-0.3309,0.9579,2.345,-5.355,-6.895,1.13,1.31,1.42,1.22,1.12,2025-06-04T19:11:31.300436
36,-0.1254,-0.3211,0.9438,1.785,4.340,-3.955,1.28,1.37,1.43,1.38,1.20,2025-06-04T19:11:31.726414
37,-0.1693,-0.3392,0.9740,-0.910,7.070,-5.215,1.15,1.13,1.25,1.28,1.15,2025-06-04T19:11:31.726414
38,-0.1918,-0.3226,0.9618,-2.520,7.490,-5.075,1.22,0.85,1.11,0.85,1.00,2025-06-04T19:11:31.812812
39,-0.2630,-0.3314,0.9555,2.870,5.425,-3.745,1.28,0.89,1.13,1.21,0.99,2025-06-04T19:11:31.812812
40,-0.3104,-0.3772,0.9326,-1.435,7.175,-7.875,1.19,1.11,1.22,1.29,1.07,2025-06-04T19:11:32.066749
41,-0.2464,-0.3401,0.9379,-0.945,-5.460,1.645,1.27,1.18,1.29,1.28,1.03,2025-06-04T19:11:32.066749
42,-0.2499,-0.3431,0.9389,0.035,-4.690,-4.690,1.29,1.18,1.31,1.27,1.02,2025-06-04T19:11:32.223674
43,-0.2801,-0.3592,0.9477,-2.590,-5.600,-7.420,1.27,1.03,1.15,1.15,1.06,2025-06-04T19:11:32.223674
44,-0.2616,-0.4177,0.9648,13.440,6.300,-7.945,1.29,1.08,1.29,1.31,1.10,2025-06-04T19:11:32.419458
45,-0.3074,-0.3592,0.9087,-0.350,1.925,-4.655,0.99,1.02,1.28,0.91,1.12,2025-06-04T19:11:32.751250
46,-0.3411,-0.4104,0.9292,15.715,10.885,-7.140,1.23,1.09,1.30,1.20,1.05,2025-06-04T19:11:32.751250
47,-0.3977,-0.3899,0.8921,3.500,-2.835,-4.760,1.28,1.02,1.02,1.17,1.05,2025-06-04T19:11:32.751250
48,-0.3426,-0.3723,0.8896,0.140,-4.550,0.175,1.29,1.00,1.17,1.18,1.08,2025-06-04T19:11:32.830604
49,-0.4265,-0.3904,0.8496,-4.235,-5.040,-2.275,1.16,1.09,1.31,1.02,1.12,2025-06-04T19:11:32.951644
50,-0.3836,-0.3860,0.8882,2.170,-12.215,1.645,1.13,1.12,1.31,1.22,1.13,2025-06-04T19:11:33.042273
51,-0.3289,-0.2660,0.8711,0.665,-7.945,0.105,1.27,1.08,1.06,1.27,1.08,2025-06-04T19:11:33.176536
52,-0.3426,-0.3767,0.9087,3.955,-12.915,-0.245,1.16,1.09,1.23,1.23,1.08,2025-06-04T19:11:33.447715
53,-0.4314,-0.4363,0.9545,9.765,-66.290,-5.215,1.14,1.15,1.25,1.27,1.14,2025-06-04T19:11:33.447715
54,-0.2791,-0.3606,0.9667,21.910,-59.745,-12.670,1.25,1.26,1.24,1.12,1.19,2025-06-04T19:11:33.756202
55,-0.0498,-0.3060,0.9521,18.375,-48.195,4.025,1.26,1.43,1.36,1.32,1.32,2025-06-04T19:11:33.756202
56,-0.0434,-0.2479,0.9697,14.735,-23.065,17.080,1.25,1.65,1.60,1.46,1.48,2025-06-04T19:11:33.865114
57,-0.0293,-0.2328,0.9819,8.225,-13.930,16.555,1.29,1.71,1.50,1.49,1.56,2025-06-04T19:11:33.865114
58,0.0444,-0.2391,0.9384,-5.705,-1.470,8.575,1.28,1.55,1.40,1.20,1.25,2025-06-04T19:11:34.073481
59,-0.0215,-0.2362,0.9994,-3.430,5.355,4.550,1.13,1.25,1.11,1.02,0.92,2025-06-04T19:11:34.073481
60,-0.0673,-0.2460,1.0121,-2.940,-5.950,7.525,1.21,1.18,1.29,1.31,0.89,2025-06-04T19:11:34.369608
61,-0.0932,-0.2840,1.0165,-9.695,-20.930,2.345,1.26,1.32,1.36,1.28,1.15,2025-06-04T19:11:34.369608
62,-0.1015,-0.2611,0.9906,-1.960,-4.025,5.355,1.24,1.42,1.40,1.35,1.14,2025-06-04T19:11:34.474618
63,-0.0791,-0.2830,1.0141,1.925,-9.520,4.585,1.29,1.42,1.37,1.36,1.23,2025-06-04T19:11:34.563196
64,-0.0747,-0.2952,0.9399,-5.355,-26.005,-0.245,1.21,1.27,1.29,1.25,1.06,2025-06-04T19:11:34.692643
65,-0.1078,-0.2874,0.9560,2.380,2.065,-11.690,1.32,1.38,1.42,1.37,1.17,2025-06-04T19:11:34.775373
66,-0.1635,-0.3231,1.0224,-8.050,1.085,-17.780,1.29,1.38,1.25,1.35,1.20,2025-06-04T19:11:34.901647
67,-0.1508,-0.3631,1.0063,-4.130,-3.465,-27.055,1.31,1.37,1.43,1.35,1.25,2025-06-04T19:11:35.188664
68,-0.1142,-0.4002,0.9692,0.770,14.105,-47.915,1.26,1.40,1.32,1.37,1.19,2025-06-04T19:11:35.188664
69,-0.3396,-0.3118,1.0472,21.945,35.245,-41.265,1.22,1.35,1.38,1.31,1.19,2025-06-04T19:11:35.307443
70,-0.1318,-0.2972,0.9277,14.175,-8.995,-36.120,1.31,1.39,1.44,1.36,1.25,2025-06-04T19:11:35.307443
71,-0.1366,-0.2381,0.8140,-1.435,29.715,-19.880,1.32,1.39,1.25,1.31,1.24,2025-06-04T19:11:35.700693
72,-0.2982,-0.2972,1.0063,0.805,-5.215,0.735,1.33,1.45,1.55,1.54,1.26,2025-06-04T19:11:35.806346
73,-0.2211,-0.3016,1.0136,-2.275,2.135,-5.355,1.29,1.49,1.53,1.55,1.47,2025-06-04T19:11:35.806346
74,-0.2294,-0.3035,0.9340,1.120,-2.870,0.910,1.32,1.51,1.66,1.42,1.50,2025-06-04T19:11:35.806346
75,-0.2484,-0.3314,0.9677,0.490,-11.480,4.760,1.29,1.55,1.59,1.52,1.44,2025-06-04T19:11:36.226445
76,-0.2835,-0.2601,1.0024,-3.185,-31.465,-1.610,1.27,1.77,1.48,1.51,1.56,2025-06-04T19:11:36.226445
77,-0.1420,-0.3060,0.9736,-4.480,-33.845,4.340,1.37,1.77,1.44,1.53,1.58,2025-06-04T19:11:36.226445
78,-0.1732,-0.3445,0.9594,4.095,-11.375,10.325,1.26,1.63,1.43,1.39,1.33,2025-06-04T19:11:36.313666
79,-0.2391,-0.4153,0.9052,9.170,38.780,-6.790,1.37,1.46,1.45,1.28,1.37,2025-06-04T19:11:36.436297
80,-0.2582,-0.2323,0.9672,1.085,-7.595,-4.900,1.32,1.49,1.43,1.39,1.31,2025-06-04T19:11:36.517016
81,-0.1566,-0.3026,0.9931,0.350,-6.055,-6.335,1.33,1.48,1.58,1.42,1.41,2025-06-04T19:11:36.639576
82,-0.2381,-0.3152,0.9453,-4.095,-0.945,-2.100,1.33,1.42,1.56,1.44,1.41,2025-06-04T19:11:36.724750
83,-0.3070,-0.3572,0.9960,8.610,-6.860,2.590,1.28,1.50,1.57,1.49,1.45,2025-06-04T19:11:37.040707
84,-0.2050,-0.3499,0.9409,-6.615,-16.170,-1.505,1.15,1.50,1.56,1.55,1.56,2025-06-04T19:11:37.040707
85,-0.1288,-0.2782,0.8784,-4.760,5.285,-3.920,1.25,1.49,1.56,1.57,1.54,2025-06-04T19:11:37.136692
86,-0.2777,-0.4265,0.9174,-8.960,-12.705,9.555,1.37,1.47,1.14,1.44,1.45,2025-06-04T19:11:37.136840
87,-0.2362,-0.3841,0.9316,-4.340,7.595,2.170,1.38,1.41,1.48,1.28,1.30,2025-06-04T19:11:37.251918
88,-0.3206,-0.3094,0.9116,-0.315,4.760,1.750,1.39,1.40,1.46,1.55,1.41,2025-06-04T19:11:37.459253
89,-0.2591,-0.2738,0.9101,4.025,7.840,6.055,1.37,1.34,1.28,1.45,1.40,2025-06-04T19:11:37.856493
90,-0.1757,-0.1718,1.1556,43.575,70.735,9.590,1.20,1.41,1.42,1.48,1.38,2025-06-04T19:11:37.856493
91,-0.6051,-0.0132,1.1492,153.755,59.115,70.420,1.42,1.40,1.30,1.42,1.41,2025-06-04T19:11:37.856493
92,-0.6232,0.2542,0.4978,155.995,241.325,163.030,1.36,1.36,1.48,1.49,1.35,2025-06-04T19:11:38.167340
93,-0.8398,0.4246,0.1606,27.755,-31.675,166.075,1.33,1.41,1.51,1.30,1.23,2025-06-04T19:11:38.167340
94,-0.2069,0.6612,0.1820,11.235,45.150,76.650,1.29,1.41,1.27,1.46,1.31,2025-06-04T19:11:38.167340
95,-0.3967,0.8096,0.2289,10.150,13.370,26.145,1.11,1.42,1.33,1.47,1.31,2025-06-04T19:11:38.465461
96,-0.4802,0.8891,0.2508,-12.530,23.275,-3.185,1.25,1.40,1.43,1.37,1.27,2025-06-04T19:11:38.465461
97,-0.4143,0.8369,0.2274,-11.060,4.620,13.230,1.29,1.41,1.48,1.45,1.25,2025-06-04T19:11:38.465461
98,-0.2840,0.7554,0.2059,9.240,9.065,12.705,1.25,1.40,1.40,1.42,1.11,2025-06-04T19:11:38.570374
99,-0.3919,0.9150,0.1405,16.240,27.265,10.045,1.23,1.39,1.42,1.33,1.22,2025-06-04T19:11:38.788740
100,-0.4231,0.9238,0.1972,11.900,-19.075,5.845,1.27,1.40,1.42,1.37,1.25,2025-06-04T19:11:38.788740
101,-0.4260,0.9189,0.1078,-2.030,13.160,-8.225,1.12,1.35,1.45,1.41,1.27,2025-06-04T19:11:39.080135
102,-0.3958,0.9980,0.1386,-1.540,0.560,-3.640,1.24,1.41,1.37,1.42,1.25,2025-06-04T19:11:39.080135
103,-0.3655,0.8452,0.0815,-1.225,-7.385,-4.550,1.29,1.39,1.50,1.23,1.17,2025-06-04T19:11:39.189766
104,-0.3953,0.8930,0.0893,5.005,-4.270,-4.550,1.30,1.43,1.42,1.42,1.23,2025-06-04T19:11:39.189766
105,-0.4016,0.9179,0.1200,-1.435,-3.640,-3.115,1.29,1.43,1.46,1.47,1.25,2025-06-04T19:11:39.339947
106,-0.4050,0.8857,0.1186,-6.475,-8.015,0.280,1.13,1.40,1.35,1.38,1.26,2025-06-04T19:11:39.684927
107,-0.3465,0.8725,0.1020,-8.155,-4.025,1.435,1.25,1.43,1.48,1.38,1.29,2025-06-04T19:11:39.684927
108,-0.3723,0.8194,0.2030,-15.505,-10.500,12.180,1.17,1.44,1.38,1.47,1.25,2025-06-04T19:11:39.813405
109,-0.2269,0.7998,0.1386,-5.705,-23.205,32.760,1.09,1.34,1.27,1.40,1.21,2025-06-04T19:11:39.813405
110,-0.2689,0.9062,0.1654,19.285,2.940,7.210,1.21,1.40,1.35,1.40,1.11,2025-06-04T19:11:40.103950
111,-0.3558,0.9745,0.1444,18.935,12.285,5.460,1.10,1.40,1.41,1.41,1.13,2025-06-04T19:11:40.103950
112,-0.3514,0.8813,0.0576,19.495,-0.280,-5.250,1.23,1.39,1.48,1.43,1.29,2025-06-04T19:11:40.210124
113,-0.3592,1.0038,0.0854,17.045,-20.195,-10.325,1.27,1.38,1.40,1.34,1.25,2025-06-04T19:11:40.210124
114,-0.3436,0.9370,-0.0425,4.620,-4.655,-9.870,1.27,1.38,1.37,1.45,1.27,2025-06-04T19:11:40.513245
115,-0.3723,0.9199,-0.0127,1.330,33.110,-11.655,1.33,1.44,1.46,1.41,1.29,2025-06-04T19:11:40.633705
116,-0.3670,0.9008,-0.0278,1.085,2.625,-2.905,1.30,1.40,1.39,1.33,1.23,2025-06-04T19:11:40.633705
117,-0.3665,0.9057,-0.0210,0.490,-6.265,-2.065,1.19,1.23,1.25,1.33,1.16,2025-06-04T19:11:40.923305
118,-0.3436,0.8994,-0.0288,-3.080,-3.850,-2.485,1.24,1.27,1.35,1.40,1.18,2025-06-04T19:11:40.923305
119,-0.3714,0.8901,-0.0054,-4.515,-1.260,-3.430,1.25,1.37,1.37,1.40,1.18,2025-06-04T19:11:41.058815
120,-0.3675,0.8828,0.0083,-2.205,-6.335,-5.320,1.21,1.37,1.41,1.43,1.06,2025-06-04T19:11:41.058815
121,-0.4026,0.8769,-0.0059,-1.575,0.210,-10.815,1.24,1.31,1.41,1.37,1.04,2025-06-04T19:11:41.132616
122,-0.4285,0.8872,-0.0146,1.330,-10.955,-1.785,1.24,1.27,1.24,1.38,1.23,2025-06-04T19:11:41.229731
123,-0.3924,0.8696,0.0005,0.455,-8.540,-0.980,1.31,1.36,1.46,1.40,1.22,2025-06-04T19:11:41.532685
124,-0.4080,0.8833,0.0059,0.875,-7.525,-1.925,1.28,1.42,1.44,1.37,1.16,2025-06-04T19:11:41.659508
125,-0.4070,0.8769,-0.0142,0.840,-8.610,-1.015,1.31,1.44,1.44,1.47,1.30,2025-06-04T19:11:41.659508
126,-0.4187,0.8760,-0.0171,0.420,-2.100,-2.695,1.26,1.46,1.44,1.50,1.35,2025-06-04T19:11:41.861549
127,-0.4343,0.8735,-0.0068,0.000,-8.400,-0.245,1.29,1.42,1.43,1.27,1.34,2025-06-04T19:11:41.861549
128,-0.4192,0.8730,-0.0039,0.875,-9.205,0.105,1.23,1.35,1.43,1.46,1.39,2025-06-04T19:11:42.065686
129,-0.4094,0.8721,-0.0049,1.365,-6.790,-0.945,1.29,1.38,1.48,1.24,1.34,2025-06-04T19:11:42.065686
130,-0.4011,0.8799,-0.0166,2.205,-4.970,-1.995,1.25,1.42,1.27,1.37,1.18,2025-06-04T19:11:42.260968
131,-0.4280,0.8735,-0.0190,1.190,-5.950,-1.225,1.25,1.42,1.43,1.37,1.29,2025-06-04T19:11:42.260968
132,-0.4236,0.8682,-0.0283,1.120,-1.925,-2.240,1.11,1.43,1.24,1.36,1.30,2025-06-04T19:11:42.425399
133,-0.4314,0.8784,-0.0288,0.420,-4.410,-1.330,1.23,1.41,1.37,1.43,1.31,2025-06-04T19:11:42.537261
134,-0.4285,0.8652,-0.0171,0.420,-6.160,-1.260,1.28,1.38,1.46,1.33,1.30,2025-06-04T19:11:42.679038
135,-0.4451,0.8657,-0.0205,1.400,-21.385,1.610,1.31,1.39,1.38,1.43,1.35,2025-06-04T19:11:43.074826
136,-0.4041,0.8725,-0.0068,1.225,-15.820,1.575,1.24,1.42,1.29,1.44,1.31,2025-06-04T19:11:43.074826
137,-0.4255,0.8750,-0.0098,0.735,-8.400,-0.280,1.24,1.38,1.40,1.37,1.27,2025-06-04T19:11:43.074826
138,-0.4255,0.8750,-0.0122,1.190,-17.535,1.540,1.23,1.39,1.39,1.36,1.32,2025-06-04T19:11:43.407008
139,-0.4138,0.8745,-0.0029,0.910,-10.430,0.805,1.16,1.41,1.38,1.36,1.25,2025-06-04T19:11:43.407008
140,-0.4089,0.8784,-0.0020,0.385,-5.530,-0.350,1.27,1.42,1.36,1.37,1.18,2025-06-04T19:11:43.407008
141,-0.4294,0.8774,-0.0063,1.015,-11.935,-0.665,1.25,1.40,1.37,1.41,1.29,2025-06-04T19:11:43.687599
142,-0.4128,0.8750,-0.0020,0.210,-9.450,-0.665,1.11,1.42,1.43,1.41,1.19,2025-06-04T19:11:43.687599
143,-0.4260,0.8755,-0.0039,0.665,-6.790,-1.155,1.26,1.40,1.47,1.45,1.29,2025-06-04T19:11:43.789393
144,-0.4290,0.8686,-0.0102,0.455,-5.880,-0.420,1.11,1.38,1.42,1.41,1.25,2025-06-04T19:11:43.789393
145,-0.4402,0.8691,-0.0010,0.455,-9.590,0.280,1.26,1.43,1.42,1.43,1.33,2025-06-04T19:11:43.896695
146,-0.4138,0.8682,-0.0010,0.420,-7.175,-0.280,1.26,1.39,1.49,1.46,1.36,2025-06-04T19:11:44.101359
147,-0.4221,0.8735,0.0010,1.050,-7.245,-1.050,1.25,1.41,1.47,1.37,1.34,2025-06-04T19:11:44.101359
148,-0.4221,0.8735,0.0010,0.385,-7.665,-0.980,1.27,1.43,1.22,1.41,1.32,2025-06-04T19:11:44.421777
149,-0.4163,0.8721,-0.0020,0.210,-9.275,-0.560,1.28,1.39,1.49,1.40,1.30,2025-06-04T19:11:44.823070
150,-0.4182,0.8721,0.0044,0.035,-6.860,-0.210,1.27,1.38,1.49,1.43,1.20,2025-06-04T19:11:44.823070
151,-0.4236,0.8701,0.0049,0.385,-6.930,-0.945,1.23,1.38,1.32,1.46,1.32,2025-06-04T19:11:44.824144
152,-0.4172,0.8716,-0.0034,0.910,-7.455,-0.385,1.16,1.38,1.49,1.40,1.33,2025-06-04T19:11:44.824144
153,-0.4348,0.8735,0.0078,0.700,-8.925,0.070,1.09,1.42,1.44,1.43,1.31,2025-06-04T19:11:44.917910
154,-0.4246,0.8706,0.0059,0.595,-7.770,-0.280,1.27,1.40,1.46,1.41,1.35,2025-06-04T19:11:44.917910
155,-0.4187,0.8730,0.0054,0.455,-7.245,-0.350,1.23,1.23,1.44,1.43,1.25,2025-06-04T19:11:45.123961
156,-0.4319,0.8730,0.0010,0.210,-3.955,-0.455,0.99,1.28,1.48,1.38,1.31,2025-06-04T19:11:45.123961
157,-0.4177,0.8691,0.0044,0.245,-8.925,-0.350,1.25,1.39,1.40,1.34,1.31,2025-06-04T19:11:45.328548
158,-0.4314,0.8711,0.0024,0.035,-5.740,-0.455,1.31,1.29,1.38,1.16,1.30,2025-06-04T19:11:45.379688
159,-0.4343,0.8706,0.0132,0.490,-9.205,0.805,1.28,1.39,1.47,1.37,1.28,2025-06-04T19:11:45.538382
160,-0.4143,0.8760,0.0083,0.140,-8.085,-0.385,1.30,1.42,1.41,1.45,1.19,2025-06-04T19:11:45.890957
161,-0.4265,0.8725,0.0098,0.420,-6.405,-0.595,1.12,1.42,1.46,1.45,1.34,2025-06-04T19:11:45.890957
162,-0.4168,0.8691,0.0024,0.385,-3.150,-0.665,1.24,1.39,1.48,1.48,1.38,2025-06-04T19:11:46.157790
163,-0.4187,0.8706,0.0078,0.665,-7.770,0.000,1.13,1.41,1.23,1.37,1.35,2025-06-04T19:11:46.157790
164,-0.4177,0.8755,0.0137,0.420,-8.330,-0.140,1.25,1.42,1.46,1.28,1.19,2025-06-04T19:11:46.157790
165,-0.3728,0.8828,-0.0088,-0.350,-7.105,-1.995,1.28,1.41,1.40,1.45,1.32,2025-06-04T19:11:46.452730
166,-0.5797,0.8623,0.0429,-11.445,-78.085,-38.920,1.25,1.39,1.40,1.41,1.31,2025-06-04T19:11:46.452730
167,-0.5270,0.8179,0.0849,-72.310,-212.135,-67.900,1.32,1.41,1.42,1.38,1.18,2025-06-04T19:11:46.558872
168,-0.4621,0.6486,0.5539,-66.535,-190.645,-11.480,1.20,1.37,1.45,1.35,1.27,2025-06-04T19:11:46.558872
169,-0.1542,0.5592,0.7857,-40.110,-44.555,-6.720,1.25,1.42,1.36,1.28,1.24,2025-06-04T19:11:46.606097
170,-0.2342,0.5334,0.7769,-23.800,-16.065,-0.525,1.28,1.42,1.18,1.41,1.12,2025-06-04T19:11:46.762520
171,-0.2699,0.5119,0.9565,-3.780,11.340,-4.970,1.24,1.40,1.42,1.35,1.26,2025-06-04T19:11:46.869922
172,-0.3567,0.5295,0.7340,-3.115,-1.225,-5.355,1.30,1.44,1.46,1.17,1.28,2025-06-04T19:11:46.979650
173,-0.2894,0.5148,0.8228,-0.070,-8.190,1.050,1.29,1.44,1.40,1.43,1.24,2025-06-04T19:11:47.303570
174,-0.3270,0.5158,0.7857,0.420,-3.465,-0.350,1.31,1.34,1.45,1.38,1.27,2025-06-04T19:11:47.304188
175,-0.3284,0.5168,0.7920,0.315,-7.455,-0.350,1.31,1.41,1.44,1.32,1.28,2025-06-04T19:11:47.566378
176,-0.3328,0.5178,0.7959,-0.140,-7.105,0.070,1.30,1.39,1.45,1.37,1.25,2025-06-04T19:11:47.566378
177,-0.3138,0.5134,0.7837,-0.210,-7.700,-0.070,1.30,1.41,1.45,1.42,1.25,2025-06-04T19:11:47.695952
178,-0.3192,0.5148,0.7945,0.910,-7.945,-0.140,1.31,1.39,1.28,1.35,1.18,2025-06-04T19:11:47.695952
179,-0.3201,0.5124,0.7984,0.770,-8.365,0.245,1.27,1.37,1.40,1.36,1.14,2025-06-04T19:11:48.101677
180,-0.3162,0.5158,0.7896,1.050,-8.925,0.105,1.26,1.31,1.41,1.41,1.25,2025-06-04T19:11:48.101677
181,-0.3157,0.5168,0.7959,0.840,-7.700,-0.385,1.27,1.37,1.40,1.36,1.25,2025-06-04T19:11:48.101677
182,-0.3167,0.5197,0.7867,0.840,-8.540,0.000,1.30,1.43,1.42,1.38,1.24,2025-06-04T19:11:48.198917
183,-0.3094,0.5202,0.7910,0.665,-5.775,-0.455,1.26,1.41,1.40,1.33,1.27,2025-06-04T19:11:48.198917
184,-0.3148,0.5173,0.7969,1.610,-6.860,-0.245,1.26,1.38,1.35,1.40,1.25,2025-06-04T19:11:48.516952
185,-0.3055,0.5236,0.7666,0.035,-4.270,-0.735,1.31,1.40,1.31,1.36,1.29,2025-06-04T19:11:48.606148
186,-0.3240,0.5246,0.7935,0.140,-5.845,-0.630,1.33,1.40,1.38,1.40,1.26,2025-06-04T19:11:48.606148
187,-0.3113,0.5153,0.7842,-0.525,-5.425,-0.665,1.33,1.43,1.38,1.37,1.13,2025-06-04T19:11:48.908290
188,-0.3289,0.5124,0.7901,0.175,-5.705,-0.455,1.15,1.41,1.42,1.36,1.26,2025-06-04T19:11:48.908290
189,-0.3216,0.5173,0.7837,1.575,-7.980,0.105,1.31,1.40,1.44,1.43,1.27,2025-06-04T19:11:49.016130
190,-0.3299,0.5173,0.7842,0.595,-6.020,-0.350,1.33,1.39,1.38,1.23,1.28,2025-06-04T19:11:49.016130
191,-0.3348,0.5187,0.7842,0.490,-6.055,-0.420,1.33,1.40,1.42,1.35,1.22,2025-06-04T19:11:49.114768
192,-0.3450,0.5100,0.7867,0.385,-4.690,-0.875,1.33,1.43,1.38,1.40,1.25,2025-06-04T19:11:49.251192
193,-0.3514,0.5168,0.7828,1.050,-7.595,-0.350,1.29,1.40,1.39,1.45,1.27,2025-06-04T19:11:49.437774
194,-0.3314,0.5226,0.7759,1.120,-8.295,0.035,1.25,1.40,1.32,1.39,1.22,2025-06-04T19:11:49.743491
195,-0.3406,0.5197,0.7803,1.400,-7.560,-0.385,1.25,1.30,1.35,1.36,1.23,2025-06-04T19:11:49.743491
196,-0.3338,0.5197,0.7749,0.945,-7.070,-0.490,1.26,1.38,1.44,1.42,1.24,2025-06-04T19:11:49.833493
197,-0.3411,0.5197,0.7793,0.035,-6.440,-0.035,1.17,1.38,1.35,1.18,1.26,2025-06-04T19:11:49.833493
198,-0.3538,0.5139,0.7823,0.560,-4.935,-0.735,1.28,1.40,1.37,1.29,1.26,2025-06-04T19:11:49.956274
199,-0.3567,0.5139,0.7769,0.140,-6.055,-0.700,1.33,1.42,1.35,1.34,1.24,2025-06-04T19:11:50.027435
200,-0.3587,0.5139,0.7828,0.070,-6.125,-0.665,1.34,1.40,1.35,1.35,1.24,2025-06-04T19:11:50.149558
201,-0.3436,0.5212,0.7647,1.610,-8.820,0.245,1.21,1.41,1.37,1.34,1.26,2025-06-04T19:11:50.448039
202,-0.3387,0.5207,0.7740,0.525,-6.545,-0.280,1.24,1.40,1.33,1.19,1.13,2025-06-04T19:11:50.448039
203,-0.3572,0.5168,0.7749,0.525,-7.035,-0.280,1.25,1.42,1.41,1.44,1.27,2025-06-04T19:11:50.550657
204,-0.3460,0.5217,0.7745,0.630,-7.595,-0.210,1.27,1.42,1.34,1.37,1.28,2025-06-04T19:11:50.649854
205,-0.3460,0.5202,0.7730,0.490,-6.790,-0.280,1.33,1.39,1.35,1.23,1.22,2025-06-04T19:11:50.860634
206,-0.3543,0.5202,0.7720,0.315,-6.825,0.070,1.29,1.44,1.38,1.17,1.25,2025-06-04T19:11:50.860634
207,-0.3558,0.5168,0.7828,0.140,-6.440,-0.350,1.33,1.45,1.36,1.36,1.20,2025-06-04T19:11:51.163655
208,-0.3455,0.5129,0.7798,1.575,-6.895,1.190,1.25,1.41,1.18,1.14,1.22,2025-06-04T19:11:51.163655
209,-0.4041,0.5251,0.8477,-2.345,-12.180,-2.205,1.13,1.43,1.45,1.32,1.24,2025-06-04T19:11:51.282093
210,-0.2011,0.2772,1.1200,25.725,61.390,-11.025,1.22,1.42,1.44,1.30,1.28,2025-06-04T19:11:51.282093
211,-0.8374,0.6978,0.8111,112.595,128.240,22.050,1.27,1.72,1.43,1.49,1.35,2025-06-04T19:11:51.472637
212,-0.7271,0.6754,0.1288,78.365,25.865,100.065,1.24,1.30,1.41,1.36,1.27,2025-06-04T19:11:51.575009
213,-0.2338,0.7779,-0.1313,11.690,-20.335,79.835,1.22,1.13,1.32,1.35,1.19,2025-06-04T19:11:51.679562
214,-0.0171,0.8501,0.1147,-8.680,-22.610,37.555,1.28,1.29,1.14,1.38,1.23,2025-06-04T19:11:51.779340
215,-0.2059,0.8696,0.2425,-7.840,-20.300,15.085,1.26,1.30,1.39,1.36,1.22,2025-06-04T19:11:52.179321
216,-0.1264,0.8701,0.2416,-1.785,-16.275,10.780,1.24,1.38,1.42,1.29,1.17,2025-06-04T19:11:52.179321
217,-0.0961,0.9013,0.2621,-0.490,-16.975,-4.550,1.18,1.37,1.39,1.45,1.19,2025-06-04T19:11:52.179321
218,-0.1240,0.9213,0.2015,-1.015,-4.095,-10.045,1.25,1.32,1.41,1.31,1.24,2025-06-04T19:11:52.305177
219,0.4133,1.3293,0.3274,-11.165,-113.540,-91.350,1.22,1.38,1.38,1.40,1.22,2025-06-04T19:11:52.305177
220,0.1537,2.3024,-0.3518,-196.665,-312.865,-121.100,1.29,1.36,1.39,1.15,1.22,2025-06-04T19:11:52.506441
221,-0.5339,-3.5292,0.9013,-220.885,37.100,-137.655,1.30,1.42,1.47,1.26,1.14,2025-06-04T19:11:52.801008
222,-0.1640,-0.3709,0.7701,230.160,221.130,226.485,1.28,1.37,1.34,1.41,1.23,2025-06-04T19:11:52.801008
223,0.0112,1.5352,0.1830,128.765,99.960,37.275,1.31,1.42,1.41,1.35,1.24,2025-06-04T19:11:52.922162
224,-0.1196,1.2210,0.3909,33.810,1.050,26.460,1.29,1.35,1.45,1.44,1.18,2025-06-04T19:11:52.922162
225,-0.0942,0.9204,0.2772,16.730,22.050,19.845,1.09,1.38,1.42,1.14,1.21,2025-06-04T19:11:53.210560
226,-0.1352,0.8657,0.2991,3.570,15.890,4.270,1.24,1.38,1.39,1.20,1.15,2025-06-04T19:11:53.210560
227,-0.2952,0.8994,0.3040,6.615,12.775,-5.075,1.18,1.41,1.26,1.30,1.29,2025-06-04T19:11:53.322581
228,-0.3318,0.8989,0.3167,1.995,6.475,-4.130,1.22,1.41,1.39,1.45,1.02,2025-06-04T19:11:53.417007
229,-0.2952,0.8926,0.2801,3.080,-7.350,1.155,1.24,1.39,1.39,1.34,1.18,2025-06-04T19:11:53.722818
230,-0.2679,0.8833,0.2572,2.100,-9.695,0.140,1.27,1.38,1.41,1.45,1.27,2025-06-04T19:11:53.722818
231,-0.2377,0.8969,0.2757,1.785,-4.585,-3.010,1.25,1.39,1.31,1.18,1.27,2025-06-04T19:11:54.042845
232,-0.2747,0.8999,0.2826,1.050,-6.895,-6.020,1.23,1.32,1.18,1.32,1.25,2025-06-04T19:11:54.042845
233,-0.2952,0.8906,0.2747,-0.035,-7.735,-4.270,1.26,1.37,1.31,1.36,1.27,2025-06-04T19:11:54.042845
234,-0.3260,0.8847,0.2616,-0.350,-3.325,-0.875,1.27,1.41,1.43,1.46,1.29,2025-06-04T19:11:54.134908
235,-0.2913,0.9048,0.2674,-1.750,-3.675,-4.060,1.28,1.39,1.46,1.45,1.27,2025-06-04T19:11:54.134908
236,-0.3348,0.8760,0.2708,-4.340,-4.655,-1.925,1.21,1.41,1.43,1.19,1.23,2025-06-04T19:11:54.445916
237,-0.2996,0.8818,0.2894,-0.455,-0.245,-1.435,1.10,1.42,1.47,1.31,1.24,2025-06-04T19:11:54.543032
238,-0.3357,0.8750,0.2948,1.015,-9.555,-0.630,1.26,1.39,1.39,1.18,1.20,2025-06-04T19:11:54.543032
239,-0.3221,0.8769,0.2884,2.660,-7.245,0.770,1.28,1.42,1.37,1.40,1.19,2025-06-04T19:11:54.592039
240,-0.3221,0.8740,0.2738,1.505,-6.055,-2.590,1.31,1.32,1.47,1.04,1.25,2025-06-04T19:11:55.057248
241,-0.3299,0.8804,0.2752,0.630,-3.150,-3.255,1.30,1.30,1.29,1.33,1.17,2025-06-04T19:11:55.057314
242,-0.3299,0.8833,0.2640,0.245,-3.220,-1.085,1.23,1.43,1.33,1.40,1.22,2025-06-04T19:11:55.057314
243,-0.3294,0.8696,0.2655,0.245,-4.690,0.350,1.28,1.49,1.45,1.33,1.22,2025-06-04T19:11:55.160075
244,-0.3314,0.8721,0.2738,0.420,-6.755,-3.640,1.29,1.40,1.39,1.37,1.23,2025-06-04T19:11:55.160075
245,-0.3533,0.8725,0.2718,-0.665,-8.435,-2.450,1.29,1.47,1.39,1.38,1.22,2025-06-04T19:11:55.393984
246,-0.3377,0.8735,0.2791,-0.805,-7.175,-0.840,1.31,1.45,1.45,1.37,1.16,2025-06-04T19:11:55.393984
247,-0.3426,0.8667,0.2777,-0.175,-7.175,-1.260,1.30,1.51,1.47,1.41,1.10,2025-06-04T19:11:55.667946
248,-0.3548,0.8667,0.2806,-0.350,-9.205,-0.595,1.13,1.44,1.48,1.34,1.10,2025-06-04T19:11:55.771664
249,-0.3323,0.8711,0.2743,-0.630,-6.755,0.665,1.21,1.43,1.46,1.34,1.21,2025-06-04T19:11:55.772662
250,-0.3455,0.8613,0.2826,-0.630,-6.195,-0.595,1.29,1.34,1.38,1.46,1.12,2025-06-04T19:11:55.988086
251,-0.3533,0.8647,0.3001,0.000,-9.065,-0.525,1.30,1.39,1.46,1.19,1.24,2025-06-04T19:11:55.988086
252,-0.3494,0.8589,0.2801,-0.245,-8.750,-1.015,1.23,1.44,1.37,1.17,1.18,2025-06-04T19:11:56.195901
253,-0.3240,0.8481,0.2786,-0.805,-7.000,0.420,1.19,1.43,1.42,1.40,1.18,2025-06-04T19:11:56.195901
254,-0.3177,0.8252,0.2528,6.125,-1.365,3.570,1.21,1.42,1.24,1.20,1.23,2025-06-04T19:11:56.355058
255,-0.3333,0.8740,0.2396,12.985,16.310,2.555,1.27,1.43,1.41,1.43,1.23,2025-06-04T19:11:56.692414
256,-0.2494,0.8960,0.1747,6.510,25.025,17.325,1.23,1.32,1.46,1.17,1.07,2025-06-04T19:11:56.692414
257,-0.3528,0.8550,0.1767,2.310,28.315,13.055,1.26,1.44,1.52,1.33,1.23,2025-06-04T19:11:56.797406
258,-0.3030,0.8623,0.2655,-0.665,-6.475,-15.470,1.24,1.48,1.47,1.29,1.34,2025-06-04T19:11:56.797406
259,-0.3323,0.8935,0.1645,-8.610,-10.045,-4.830,1.31,1.46,1.55,1.43,1.33,2025-06-04T19:11:56.899418
260,-0.3011,0.9287,0.1161,-5.775,-3.255,12.635,1.17,1.48,1.49,1.53,1.28,2025-06-04T19:11:57.001416
261,-0.3504,0.9033,0.2220,26.810,30.415,-1.855,1.22,1.37,1.59,1.55,1.32,2025-06-04T19:11:57.104142
262,-0.4148,0.9784,0.2801,-0.665,8.015,-2.275,1.23,1.36,1.61,1.50,1.40,2025-06-04T19:11:57.265792
263,-0.3055,0.8843,0.0991,19.320,-21.210,15.785,1.22,1.33,1.60,1.52,1.43,2025-06-04T19:11:57.413675
264,-0.4006,0.8706,0.0532,-0.910,41.020,13.090,1.30,1.30,1.51,1.46,1.40,2025-06-04T19:11:57.618132
265,-0.2381,0.9594,0.1166,-31.255,-13.650,18.375,1.30,1.43,1.54,1.53,1.43,2025-06-04T19:11:57.618132
266,-0.1303,0.8989,0.2069,-15.855,-26.145,6.020,1.31,1.37,1.47,1.49,1.45,2025-06-04T19:11:57.872585
267,-0.1415,0.7657,0.3401,4.235,-30.835,-4.620,1.13,1.35,1.48,1.54,1.41,2025-06-04T19:11:57.881141
268,-0.2616,0.9589,0.2411,5.600,-21.035,-1.995,1.22,1.38,1.37,1.38,1.34,2025-06-04T19:11:58.156982
269,-0.2250,0.9438,0.1810,26.285,3.990,6.475,1.24,1.39,1.45,1.43,1.25,2025-06-04T19:11:58.156982
270,-0.2367,0.8203,0.0483,32.200,-9.590,0.175,1.21,1.35,1.33,1.37,1.32,2025-06-04T19:11:58.156982
271,-0.2718,0.8886,0.3001,-24.920,7.945,-11.200,1.24,1.55,1.46,1.42,1.32,2025-06-04T19:11:58.419804
272,-0.2333,0.9770,0.0361,-2.555,-23.450,-10.465,1.26,1.46,1.43,1.43,1.11,2025-06-04T19:11:58.537568
273,-0.2669,0.9243,0.1625,-6.685,-3.115,0.525,1.29,1.41,1.44,1.37,1.17,2025-06-04T19:11:58.537568
274,-0.2796,0.9213,0.1332,1.330,-9.555,0.700,1.29,1.40,1.42,1.34,1.20,2025-06-04T19:11:58.636544
275,-0.2713,0.9135,0.1806,-0.490,-8.190,0.210,1.28,1.43,1.38,1.32,1.11,2025-06-04T19:11:58.756736
276,-0.2391,0.9179,0.1547,0.070,-5.180,0.210,1.23,1.41,1.38,1.36,1.21,2025-06-04T19:11:58.845543
277,-0.2689,0.9199,0.1488,1.225,-1.470,2.765,1.26,1.45,1.23,1.33,1.22,2025-06-04T19:11:59.006116
278,-0.2621,0.9184,0.1718,2.485,2.940,2.625,1.22,1.45,1.20,1.40,1.22,2025-06-04T19:11:59.054764
279,-0.2708,0.9179,0.1532,0.105,-4.585,-1.225,1.27,1.43,1.19,1.43,1.23,2025-06-04T19:11:59.354424
280,-0.2684,0.9204,0.1513,0.140,-6.475,-0.735,1.17,1.42,1.42,1.37,1.24,2025-06-04T19:11:59.460644
281,-0.2621,0.9174,0.1503,-1.540,-6.825,-1.680,1.10,1.44,1.16,1.38,1.23,2025-06-04T19:11:59.460644
282,-0.2713,0.9223,0.1625,0.560,-7.035,0.105,1.24,1.44,1.34,1.42,1.23,2025-06-04T19:11:59.507528
283,-0.2640,0.9130,0.1488,0.945,-5.740,-0.140,1.11,1.43,1.44,1.33,1.23,2025-06-04T19:11:59.763999
284,-0.2684,0.9184,0.1518,0.840,-8.295,0.105,1.25,1.42,1.39,1.40,1.20,2025-06-04T19:11:59.868665
285,-0.2464,0.9184,0.1469,1.435,-7.315,-0.245,1.27,1.39,1.44,1.36,1.10,2025-06-04T19:11:59.868665
286,-0.2333,0.9209,0.1415,2.415,-2.415,-0.035,1.25,1.38,1.38,1.33,1.25,2025-06-04T19:12:00.073153
287,-0.2601,0.9194,0.1410,0.350,-7.875,-0.455,1.17,1.31,1.44,1.34,1.22,2025-06-04T19:12:00.073153
288,-0.2625,0.9233,0.1552,0.070,-8.435,-0.280,1.27,1.38,1.32,1.41,1.28,2025-06-04T19:12:00.583276
289,-0.2669,0.9165,0.1401,0.595,-7.910,-0.245,1.16,1.37,1.36,1.35,1.23,2025-06-04T19:12:00.583276
290,-0.2577,0.9179,0.1518,0.350,-7.735,-0.035,1.10,1.42,1.33,1.39,1.25,2025-06-04T19:12:00.583276
291,-0.2704,0.9209,0.1591,0.070,-8.820,-0.385,1.20,1.42,1.36,1.38,1.24,2025-06-04T19:12:00.701511
292,-0.2747,0.9209,0.1596,0.315,-6.545,-0.315,1.24,1.41,1.44,1.44,1.22,2025-06-04T19:12:00.701511
293,-0.2728,0.9204,0.1566,0.035,-6.615,-0.280,1.26,1.43,1.27,1.30,1.12,2025-06-04T19:12:00.988822
294,-0.2664,0.9209,0.1557,0.280,-8.085,-0.175,1.26,1.40,1.40,1.34,1.23,2025-06-04T19:12:00.988822
295,-0.2640,0.9179,0.1479,0.350,-6.440,-0.245,1.11,1.32,1.42,1.32,1.24,2025-06-04T19:12:01.107365
296,-0.2674,0.9184,0.1586,-0.140,-9.940,-0.525,1.25,1.41,1.42,1.39,1.22,2025-06-04T19:12:01.107365
297,-0.2689,0.9204,0.1508,-0.735,-7.665,-0.700,1.21,1.40,1.41,1.32,1.12,2025-06-04T19:12:01.315922
298,-0.2689,0.9145,0.1435,-0.490,-0.910,-0.875,1.28,1.43,1.36,1.33,1.23,2025-06-04T19:12:01.607419
299,-0.2743,0.9145,0.1703,-1.435,-5.845,-0.665,1.28,1.44,1.45,1.43,1.16,2025-06-04T19:12:01.607419
300,-0.2782,0.9170,0.1625,0.315,-7.770,-0.700,1.27,1.39,1.38,1.37,1.26,2025-06-04T19:12:01.724852
301,-0.2733,0.9160,0.1547,0.035,-7.910,-0.805,1.10,1.40,1.37,1.33,1.14,2025-06-04T19:12:01.724852
302,-0.2664,0.9165,0.1591,0.385,-5.460,-0.875,1.20,1.22,1.22,1.40,1.26,2025-06-04T19:12:01.927319
303,-0.2830,0.9184,0.1581,-0.175,-6.300,-0.700,1.29,1.32,1.43,1.42,1.25,2025-06-04T19:12:01.927319
304,-0.2767,0.9150,0.1596,-0.315,-7.630,-0.455,1.15,1.29,1.44,1.36,1.27,2025-06-04T19:12:02.134102
305,-0.2821,0.9155,0.1679,0.455,-9.485,-0.315,1.13,1.28,1.42,1.46,1.23,2025-06-04T19:12:02.134102
306,-0.2821,0.9174,0.1625,0.280,-7.875,-0.140,1.25,1.39,1.45,1.34,1.11,2025-06-04T19:12:02.335485
307,-0.2782,0.9130,0.1537,0.490,-12.845,0.105,1.14,1.31,1.44,1.19,1.10,2025-06-04T19:12:02.428236
308,-0.2606,0.9179,0.1615,0.280,-6.895,-0.385,1.21,1.40,1.35,1.42,1.26,2025-06-04T19:12:02.472668
309,-0.2718,0.9150,0.1610,0.455,-2.870,-0.560,1.22,1.43,1.42,1.39,1.16,2025-06-04T19:12:02.836122
310,-0.2801,0.9170,0.1625,0.175,-5.705,-0.560,1.22,1.43,1.38,1.17,1.22,2025-06-04T19:12:02.836122
311,-0.2816,0.9160,0.1625,-0.315,-6.020,-0.805,1.26,1.43,1.40,1.39,1.26,2025-06-04T19:12:02.957344
312,-0.2923,0.9130,0.1625,0.000,-7.245,-0.455,1.29,1.42,1.26,1.30,1.24,2025-06-04T19:12:02.957344
313,-0.2850,0.9145,0.1645,-0.175,-7.735,-0.490,1.27,1.39,1.20,1.22,1.23,2025-06-04T19:12:03.245518
314,-0.2835,0.9155,0.1654,-0.245,-5.390,-0.735,1.28,1.43,1.24,1.43,1.22,2025-06-04T19:12:03.245518
315,-0.2699,0.9096,0.1659,0.175,-9.940,-0.315,1.24,1.43,1.32,1.35,1.22,2025-06-04T19:12:03.362638
316,-0.2713,0.9116,0.1688,8.890,-7.560,-0.420,1.15,1.43,1.45,1.43,1.15,2025-06-04T19:12:03.406063
317,-0.2796,0.9087,0.1625,0.665,-6.160,-0.315,1.26,1.42,1.35,1.35,1.25,2025-06-04T19:12:03.763084
318,-0.2840,0.9116,0.1708,0.560,-6.720,-0.175,1.26,1.31,1.44,1.34,1.25,2025-06-04T19:12:03.763084
319,-0.2772,0.9135,0.1703,0.070,-8.680,-0.560,1.21,1.39,1.45,1.39,1.29,2025-06-04T19:12:03.763084
320,-0.2782,0.9116,0.1649,-0.630,-6.860,-0.490,1.22,1.39,1.40,1.42,1.24,2025-06-04T19:12:04.078120
321,-0.2869,0.9101,0.1713,0.350,-6.125,-0.175,1.22,1.40,1.36,1.43,1.21,2025-06-04T19:12:04.078120
322,-0.2782,0.9091,0.1601,-0.420,-9.940,-0.175,0.99,1.44,1.37,1.16,1.26,2025-06-04T19:12:04.169092
323,-0.2952,0.9116,0.1796,1.225,-8.505,0.035,1.23,1.45,1.38,1.37,1.22,2025-06-04T19:12:04.215603
324,-0.2943,0.9135,0.1728,0.105,-7.735,-0.175,1.19,1.45,1.46,1.35,1.21,2025-06-04T19:12:04.378395
325,-0.2791,0.9096,0.1747,0.420,-7.000,0.035,1.24,1.39,1.25,1.37,1.17,2025-06-04T19:12:04.476747
326,-0.2865,0.9106,0.1757,0.245,-7.175,-0.245,1.22,1.38,1.42,1.34,1.27,2025-06-04T19:12:04.579965
327,-0.2889,0.9106,0.1679,0.595,-6.650,-0.210,1.22,1.41,1.41,1.34,1.25,2025-06-04T19:12:04.684236
328,-0.2782,0.9121,0.1684,0.840,-6.930,-0.070,1.23,1.41,1.31,1.43,1.15,2025-06-04T19:12:04.986656
329,-0.2826,0.9091,0.1737,0.455,-8.470,-0.455,1.23,1.34,1.39,1.36,1.25,2025-06-04T19:12:04.987112
330,-0.2806,0.9126,0.1654,0.070,-7.175,-0.455,1.24,1.40,1.41,1.44,1.14,2025-06-04T19:12:05.086616
331,-0.2845,0.9126,0.1732,0.035,-7.980,-0.490,1.26,1.43,1.40,1.41,1.28,2025-06-04T19:12:05.086616
332,-0.2840,0.9091,0.1747,0.105,-7.315,-0.665,1.30,1.38,1.39,1.41,1.28,2025-06-04T19:12:05.259428
333,-0.2806,0.9126,0.1732,0.210,-8.925,-0.630,1.12,1.30,1.38,1.39,1.18,2025-06-04T19:12:05.398254
334,-0.2791,0.9101,0.1737,0.245,-6.510,-0.490,1.28,1.35,1.35,1.37,1.27,2025-06-04T19:12:05.444162
335,-0.2899,0.9126,0.1791,0.385,-7.945,-0.560,1.29,1.41,1.38,1.33,1.26,2025-06-04T19:12:05.605882
336,-0.2918,0.9077,0.1723,0.455,-8.715,-0.175,1.27,1.35,1.35,1.41,1.29,2025-06-04T19:12:05.923255
337,-0.2923,0.9101,0.1747,0.280,-8.225,-0.105,1.26,1.38,1.38,1.35,1.23,2025-06-04T19:12:05.923255
338,-0.2835,0.9106,0.1786,0.735,-8.015,-0.315,1.29,1.38,1.38,1.37,1.27,2025-06-04T19:12:06.012433
339,-0.2796,0.9111,0.1674,0.525,-7.315,-0.560,1.12,1.40,1.36,1.45,1.28,2025-06-04T19:12:06.012433
340,-0.2957,0.9096,0.1781,0.280,-8.330,-0.245,1.26,1.22,1.43,1.37,1.23,2025-06-04T19:12:06.206823
341,-0.2786,0.9091,0.1771,0.455,-7.595,-0.315,1.24,1.36,1.41,1.43,1.23,2025-06-04T19:12:06.319831
342,-0.2884,0.9091,0.1796,0.105,-8.155,-0.420,1.10,1.41,1.45,1.37,1.29,2025-06-04T19:12:06.366351
343,-0.2855,0.9091,0.1737,0.350,-7.385,-0.420,1.25,1.40,1.35,1.35,1.28,2025-06-04T19:12:06.727099
344,-0.2826,0.9121,0.1767,0.630,-6.930,-0.385,1.27,1.42,1.34,1.42,1.27,2025-06-04T19:12:06.727099
345,-0.2845,0.9101,0.1747,0.665,-7.140,-0.280,1.28,1.41,1.39,1.44,1.26,2025-06-04T19:12:06.831433
346,-0.2913,0.9062,0.1767,0.630,-7.560,-0.280,1.13,1.40,1.38,1.19,1.23,2025-06-04T19:12:06.831433
347,-0.2894,0.9106,0.1830,0.385,-8.050,-0.070,1.08,1.41,1.38,1.16,1.16,2025-06-04T19:12:06.950958
348,-0.2879,0.9101,0.1791,0.735,-8.540,-0.210,1.17,1.43,1.38,1.41,1.27,2025-06-04T19:12:07.023308
349,-0.2845,0.9121,0.1752,0.490,-7.875,-0.245,1.27,1.43,1.42,1.40,1.26,2025-06-04T19:12:07.259950
350,-0.2772,0.9121,0.1742,-0.140,-6.720,-0.245,1.27,1.44,1.34,1.39,1.30,2025-06-04T19:12:07.460019
351,-0.2855,0.9067,0.1762,-0.105,-6.510,-0.280,1.26,1.30,1.34,1.25,1.24,2025-06-04T19:12:07.669599
352,-0.2664,0.9121,0.1718,1.960,-3.885,0.840,0.99,1.27,1.42,1.45,1.29,2025-06-04T19:12:07.669599
353,-0.2572,0.9067,0.1713,9.870,3.815,4.305,1.16,1.35,1.36,1.40,1.25,2025-06-04T19:12:07.669599
354,-0.3118,0.9252,0.2011,8.050,-6.510,1.295,1.26,1.41,1.44,1.39,1.14,2025-06-04T19:12:07.955837
355,-0.2899,0.9135,0.1371,6.860,-14.385,-0.595,1.16,1.42,1.43,1.39,1.25,2025-06-04T19:12:07.955837
356,-0.2406,0.9204,0.0981,7.455,-11.900,-0.175,1.24,1.44,1.52,1.42,1.25,2025-06-04T19:12:08.060840
357,-0.2699,0.9277,0.1039,6.020,-8.190,0.175,1.26,1.34,1.40,1.40,1.24,2025-06-04T19:12:08.060840
358,-0.2777,0.9277,0.0961,1.470,-9.590,-0.560,1.27,1.31,1.48,1.41,1.25,2025-06-04T19:12:08.281181
359,-0.2547,0.9272,0.1030,-0.070,-8.260,-0.700,1.29,1.40,1.39,1.39,1.22,2025-06-04T19:12:08.570144
360,-0.2630,0.9272,0.1074,-0.910,-8.050,0.525,1.15,1.40,1.42,1.39,1.27,2025-06-04T19:12:08.571043
361,-0.2738,0.9170,0.1244,-1.715,-9.415,0.385,1.10,1.39,1.46,1.47,1.26,2025-06-04T19:12:08.680167
362,-0.2596,0.9233,0.1088,-3.815,-6.300,-1.925,1.11,1.31,1.38,1.39,1.16,2025-06-04T19:12:08.680167
363,-0.2708,0.9043,0.1464,-3.955,-3.990,-2.520,1.25,1.30,1.41,1.42,1.19,2025-06-04T19:12:08.979833
364,-0.2884,0.9209,0.1449,0.840,-7.385,-3.185,1.27,1.38,1.35,1.47,1.22,2025-06-04T19:12:08.979833
365,-0.2879,0.9165,0.1396,3.255,-7.315,-2.380,1.22,1.31,1.44,1.45,1.12,2025-06-04T19:12:09.084477
366,-0.2874,0.9155,0.1152,2.135,-5.740,-1.155,1.24,1.40,1.36,1.40,1.24,2025-06-04T19:12:09.389266
367,-0.2952,0.9165,0.1357,0.595,-7.945,-0.175,1.20,1.40,1.43,1.43,1.27,2025-06-04T19:12:09.389266
368,-0.2796,0.9199,0.1274,0.700,-6.685,-0.560,1.28,1.39,1.41,1.45,1.26,2025-06-04T19:12:09.501556
369,-0.2908,0.9155,0.1264,0.210,-6.510,-1.190,1.30,1.32,1.20,1.42,1.20,2025-06-04T19:12:09.501556
