SeqNum,AccX,AccY,AccZ,GyroX,GyroY,GyroZ,Flex,Force1,Force2,Force3,Force4,TimestampReception
1,-0.1303,-0.0620,1.0355,-3.360,-1.050,-0.665,444,386,293,408,392,2025-05-27T11:15:42.156185
2,-0.1420,-0.0659,1.0375,-2.030,-2.205,0.385,386,400,335,346,396,2025-05-27T11:15:42.156185
3,-0.1386,-0.0669,1.0355,-1.225,-3.010,0.945,402,434,356,377,401,2025-05-27T11:15:42.156185
4,-0.1357,-0.0654,1.0311,-0.735,-2.450,1.015,414,401,371,388,353,2025-05-27T11:15:42.156185
5,-0.1303,-0.0620,1.0224,-0.105,-1.645,1.085,418,360,370,343,391,2025-05-27T11:15:42.156185
6,-0.1264,-0.0620,1.0248,0.280,-0.630,1.435,401,382,374,387,399,2025-05-27T11:15:42.156185
7,-0.1376,-0.0615,1.0292,0.385,-0.315,1.785,392,430,385,382,390,2025-05-27T11:15:42.156185
8,-0.1440,-0.0649,1.0307,0.385,-0.910,1.960,386,412,354,392,390,2025-05-27T11:15:42.156185
9,-0.1464,-0.0659,1.0365,0.385,-1.190,2.380,422,421,362,414,411,2025-05-27T11:15:42.242453
10,-0.1376,-0.0625,1.0385,0.140,-1.505,2.765,414,416,379,396,398,2025-05-27T11:15:42.258078
11,-0.1332,-0.0673,1.0375,-0.175,-1.295,3.360,423,419,382,407,388,2025-05-27T11:15:42.258078
12,-0.1288,-0.0708,1.0375,-0.280,-1.085,4.060,405,401,375,392,397,2025-05-27T11:15:42.258078
13,-0.1308,-0.0771,1.0419,-0.385,-1.295,4.760,393,399,377,402,408,2025-05-27T11:15:42.258078
14,-0.1254,-0.0752,1.0399,-0.280,-1.610,4.830,374,410,336,412,402,2025-05-27T11:15:42.258078
15,-0.1269,-0.0795,1.0419,-0.140,-2.240,4.865,294,398,367,406,409,2025-05-27T11:15:42.258078
16,-0.1157,-0.0825,1.0331,0.140,-2.170,4.865,393,424,380,352,407,2025-05-27T11:15:42.258078
17,-0.1142,-0.0820,1.0326,0.595,-1.435,5.145,404,414,384,400,404,2025-05-27T11:15:42.258078
18,-0.1171,-0.0786,1.0292,0.840,-0.350,5.180,417,412,354,401,348,2025-05-27T11:15:42.359072
19,-0.1240,-0.0771,1.0258,1.050,0.245,5.005,408,301,367,402,290,2025-05-27T11:15:42.359072
20,-0.1249,-0.0722,1.0253,1.505,0.350,5.005,419,382,337,401,362,2025-05-27T11:15:42.359072
21,-0.1264,-0.0678,1.0336,1.785,0.980,5.390,365,393,316,408,332,2025-05-27T11:15:42.359072
22,-0.1337,-0.0664,1.0307,1.610,1.295,5.495,367,417,357,419,366,2025-05-27T11:15:42.359072
23,-0.1425,-0.0683,1.0311,1.680,1.540,5.180,394,439,366,426,342,2025-05-27T11:15:42.359072
24,-0.1532,-0.0688,1.0341,1.470,1.540,4.865,412,359,363,411,384,2025-05-27T11:15:42.359072
25,-0.1537,-0.0678,1.0365,1.260,1.645,4.795,417,394,380,422,352,2025-05-27T11:15:42.359072
26,-0.1586,-0.0678,1.0302,1.120,1.400,4.900,346,356,304,352,336,2025-05-27T11:15:42.459229
27,-0.1649,-0.0766,1.0268,1.155,1.225,4.935,384,391,352,376,381,2025-05-27T11:15:42.459229
28,-0.1479,-0.0698,1.0277,0.875,1.120,5.110,388,395,370,347,396,2025-05-27T11:15:42.459229
29,-0.1444,-0.0703,1.0253,0.735,1.260,4.970,349,417,378,389,346,2025-05-27T11:15:42.459229
30,-0.1493,-0.0737,1.0243,0.525,1.190,4.690,362,428,384,394,374,2025-05-27T11:15:42.459229
31,-0.1454,-0.0737,1.0248,0.420,0.630,4.375,418,439,389,383,396,2025-05-27T11:15:42.459229
32,-0.1440,-0.0717,1.0263,0.350,0.280,3.850,371,411,375,396,390,2025-05-27T11:15:42.459229
33,-0.1318,-0.0727,1.0292,0.175,0.105,3.220,398,427,364,356,403,2025-05-27T11:15:42.459229
34,-0.1318,-0.0717,1.0282,0.000,0.280,2.730,420,413,362,345,397,2025-05-27T11:15:42.459229
35,-0.1396,-0.0708,1.0346,-0.350,-0.035,2.240,419,420,358,386,405,2025-05-27T11:15:42.592546
36,-0.1327,-0.0678,1.0399,-1.050,-0.280,1.645,417,420,377,400,403,2025-05-27T11:15:42.592546
37,-0.1283,-0.0664,1.0341,-1.995,-0.210,1.435,394,301,380,395,408,2025-05-27T11:15:42.592546
38,-0.1322,-0.0664,1.0404,-2.730,-0.350,1.505,403,387,374,394,409,2025-05-27T11:15:42.592546
39,-0.1322,-0.0649,1.0516,-3.780,-1.085,1.505,410,339,376,396,359,2025-05-27T11:15:42.592546
40,-0.1327,-0.0688,1.0477,-4.480,-2.030,1.470,339,386,339,401,373,2025-05-27T11:15:42.592546
41,-0.1259,-0.0703,1.0453,-4.830,-2.695,1.225,384,415,352,401,375,2025-05-27T11:15:42.592546
42,-0.1230,-0.0722,1.0438,-4.830,-3.045,0.910,410,363,373,385,391,2025-05-27T11:15:42.592546
43,-0.1235,-0.0698,1.0419,-4.655,-3.115,0.595,395,382,387,391,400,2025-05-27T11:15:42.592546
44,-0.1327,-0.0625,1.0350,-4.130,-3.325,0.000,398,395,378,348,397,2025-05-27T11:15:42.592546
45,-0.1391,-0.0571,1.0297,-3.780,-3.675,-0.665,335,336,344,395,398,2025-05-27T11:15:42.592546
46,-0.1484,-0.0556,1.0346,-3.605,-4.340,-1.155,407,378,355,385,406,2025-05-27T11:15:42.759286
47,-0.1537,-0.0527,1.0326,-3.640,-4.655,-1.645,417,387,376,417,404,2025-05-27T11:15:42.759286
48,-0.1581,-0.0551,1.0297,-3.850,-5.040,-1.750,423,421,368,378,409,2025-05-27T11:15:42.759286
49,-0.1542,-0.0571,1.0224,-4.025,-5.425,-1.575,423,395,374,405,413,2025-05-27T11:15:42.759286
50,-0.1498,-0.0630,1.0175,-4.130,-5.215,-1.260,423,417,373,406,399,2025-05-27T11:15:42.759286
51,-0.1484,-0.0644,1.0092,-4.130,-5.005,-1.050,416,358,381,404,388,2025-05-27T11:15:42.759286
52,-0.1488,-0.0639,1.0053,-4.060,-4.865,-1.015,400,352,374,405,346,2025-05-27T11:15:42.759286
53,-0.1469,-0.0664,1.0014,-3.675,-4.270,-1.190,418,338,378,387,368,2025-05-27T11:15:42.759286
54,-0.1440,-0.0659,1.0077,-3.430,-3.605,-1.505,413,388,372,398,398,2025-05-27T11:15:42.759286
55,-0.1435,-0.0590,1.0136,-3.255,-3.045,-1.365,427,415,375,408,407,2025-05-27T11:15:42.759286
56,-0.1474,-0.0600,1.0131,-3.255,-2.555,-1.400,414,301,379,405,399,2025-05-27T11:15:42.759286
57,-0.1454,-0.0634,1.0185,-3.080,-2.520,-1.190,400,333,384,413,385,2025-05-27T11:15:42.759286
58,-0.1410,-0.0669,1.0253,-2.940,-2.695,-0.700,418,333,367,391,390,2025-05-27T11:15:42.759286
59,-0.1425,-0.0776,1.0258,-2.555,-3.150,-0.280,425,388,331,381,407,2025-05-27T11:15:42.759286
60,-0.1430,-0.0800,1.0272,-1.820,-3.605,-0.210,345,419,363,402,403,2025-05-27T11:15:42.759286
61,-0.1454,-0.0834,1.0297,-1.295,-4.130,-0.175,393,422,377,348,354,2025-05-27T11:15:42.864369
62,-0.1425,-0.0830,1.0287,-0.770,-4.620,-0.455,349,422,370,387,375,2025-05-27T11:15:42.864369
63,-0.1362,-0.0834,1.0302,-0.840,-4.130,-0.770,383,419,381,390,391,2025-05-27T11:15:42.864369
64,-0.1332,-0.0854,1.0341,-0.945,-3.745,-0.840,408,380,336,393,393,2025-05-27T11:15:42.864369
65,-0.1332,-0.0913,1.0370,-1.085,-3.535,-0.875,412,366,353,346,348,2025-05-27T11:15:42.864369
66,-0.1308,-0.0917,1.0438,-1.190,-3.920,-0.805,406,389,355,368,393,2025-05-27T11:15:42.864369
67,-0.1298,-0.0937,1.0448,-1.260,-3.885,-0.770,415,407,361,397,388,2025-05-27T11:15:42.864369
68,-0.1322,-0.0952,1.0521,-1.505,-4.235,-0.735,382,413,377,388,394,2025-05-27T11:15:42.864369
69,-0.1240,-0.0942,1.0609,-1.855,-4.760,-0.385,357,343,377,393,385,2025-05-27T11:15:42.975080
70,-0.1215,-0.0932,1.0536,-2.485,-5.075,0.245,393,394,379,399,389,2025-05-27T11:15:42.975080
71,-0.1157,-0.0956,1.0429,-2.730,-5.355,0.875,422,405,386,397,401,2025-05-27T11:15:42.975080
72,-0.1171,-0.0932,1.0429,-2.765,-5.740,1.260,420,389,383,418,406,2025-05-27T11:15:42.975080
73,-0.1264,-0.0927,1.0497,-2.660,-6.300,1.015,403,401,342,409,385,2025-05-27T11:15:42.975080
74,-0.1293,-0.0966,1.0453,-2.345,-7.140,0.525,397,418,370,402,381,2025-05-27T11:15:42.975080
75,-0.1318,-0.1005,1.0390,-1.750,-7.875,0.525,412,410,370,406,347,2025-05-27T11:15:42.975080
76,-0.1376,-0.0971,1.0390,-1.050,-8.680,0.245,385,410,373,397,367,2025-05-27T11:15:42.975080
77,-0.1410,-0.0942,1.0380,-0.630,-8.610,0.175,399,402,384,372,298,2025-05-27T11:15:42.975080
78,-0.1357,-0.0927,1.0297,-0.280,-8.400,0.245,338,400,344,355,346,2025-05-27T11:15:43.025858
79,-0.1313,-0.0942,1.0287,-0.140,-7.770,0.630,350,418,371,391,390,2025-05-27T11:15:43.025858
80,-0.1352,-0.0932,1.0243,0.035,-7.315,1.015,411,397,366,392,385,2025-05-27T11:15:43.025858
81,-0.1274,-0.0888,1.0224,0.035,-6.965,1.960,399,408,338,392,395,2025-05-27T11:15:43.025858
82,-0.1254,-0.0849,1.0189,-0.245,-6.090,2.520,423,337,360,398,406,2025-05-27T11:15:43.025858
83,-0.1235,-0.0830,1.0165,-0.735,-5.425,3.185,423,334,375,395,397,2025-05-27T11:15:43.175602
84,-0.1274,-0.0825,1.0160,-1.015,-5.250,3.500,406,409,378,404,393,2025-05-27T11:15:43.175602
85,-0.1269,-0.0878,1.0214,-1.260,-5.040,3.395,419,393,374,353,381,2025-05-27T11:15:43.175602
86,-0.1215,-0.0883,1.0160,-1.330,-4.445,3.220,389,397,367,376,361,2025-05-27T11:15:43.175602
87,-0.1220,-0.0898,1.0170,-1.400,-3.815,2.975,400,379,381,382,338,2025-05-27T11:15:43.175602
88,-0.1230,-0.0917,1.0194,-1.330,-3.360,2.975,338,396,387,381,378,2025-05-27T11:15:43.175602
89,-0.1176,-0.0893,1.0233,-1.365,-3.255,3.640,407,343,382,409,378,2025-05-27T11:15:43.175602
90,-0.1196,-0.0883,1.0258,-1.470,-2.905,3.850,395,395,384,422,397,2025-05-27T11:15:43.175602
91,-0.1205,-0.0952,1.0277,-1.645,-2.170,3.850,413,391,370,406,408,2025-05-27T11:15:43.175602
92,-0.1205,-0.0937,1.0297,-1.400,-1.610,3.605,398,429,366,409,405,2025-05-27T11:15:43.175602
93,-0.1196,-0.0996,1.0282,-1.330,-0.665,3.325,409,404,379,414,408,2025-05-27T11:15:43.175602
94,-0.1191,-0.0956,1.0272,-1.260,0.245,3.395,350,404,384,426,410,2025-05-27T11:15:43.175602
95,-0.1293,-0.0947,1.0316,-1.365,0.910,3.395,379,392,388,358,388,2025-05-27T11:15:43.275609
96,-0.1352,-0.0971,1.0311,-1.400,0.560,2.870,338,413,384,389,384,2025-05-27T11:15:43.275609
97,-0.1298,-0.0966,1.0292,-1.470,0.175,2.800,383,426,373,402,384,2025-05-27T11:15:43.275609
98,-0.1303,-0.0966,1.0375,-1.610,0.595,2.625,352,353,363,400,410,2025-05-27T11:15:43.275609
99,-0.1288,-0.0878,1.0302,-1.925,0.420,3.150,363,398,375,388,390,2025-05-27T11:15:43.275609
100,-0.1215,-0.0893,1.0238,-2.030,0.140,3.605,347,395,375,388,401,2025-05-27T11:15:43.275609
101,-0.1152,-0.0839,1.0199,-2.275,1.715,4.060,410,410,375,389,402,2025-05-27T11:15:43.275609
102,-0.1191,-0.0742,1.0316,-2.520,4.655,4.410,415,417,364,409,416,2025-05-27T11:15:43.275609
103,-0.1235,-0.0644,1.0419,-3.185,7.420,4.235,375,416,335,412,365,2025-05-27T11:15:43.375563
104,-0.0917,-0.0620,1.0507,-3.955,6.440,5.705,407,400,349,347,390,2025-05-27T11:15:43.375563
105,-0.0859,-0.0586,1.0726,-3.220,7.210,6.650,424,420,376,361,339,2025-05-27T11:15:43.375563
106,-0.3079,-0.2181,1.0316,-4.970,16.765,7.910,392,416,387,387,359,2025-05-27T11:15:43.375563
107,-0.2806,-0.1449,1.0399,-0.595,-4.305,14.525,413,430,390,388,346,2025-05-27T11:15:43.375563
108,-0.2728,-0.0937,1.0497,1.260,-17.885,11.025,344,402,392,401,372,2025-05-27T11:15:43.375563
109,-0.1830,-0.0898,1.0492,1.435,-17.535,8.365,329,410,351,393,392,2025-05-27T11:15:43.375563
110,-0.1132,-0.0776,1.0350,1.225,-13.300,9.065,385,408,364,367,398,2025-05-27T11:15:43.375563
111,-0.0996,-0.0942,1.0199,1.890,-12.495,11.095,386,424,383,403,397,2025-05-27T11:15:43.375563
112,-0.1039,-0.0991,1.0209,2.205,-9.940,11.025,407,400,394,420,390,2025-05-27T11:15:43.442666
113,-0.1064,-0.0961,1.0277,1.785,-4.200,9.625,390,429,378,359,378,2025-05-27T11:15:43.442666
114,-0.1210,-0.1015,1.0336,1.435,-5.180,8.995,401,395,378,339,395,2025-05-27T11:15:43.442666
115,-0.1376,-0.1083,1.0321,1.225,-6.965,8.050,404,425,369,384,403,2025-05-27T11:15:43.442666
116,-0.1327,-0.1205,1.0263,1.295,-7.070,6.685,424,375,376,398,410,2025-05-27T11:15:43.692179
117,-0.1269,-0.1196,1.0253,1.435,-8.155,6.125,395,423,376,411,400,2025-05-27T11:15:43.692179
118,-0.1186,-0.1225,1.0258,1.505,-8.540,5.495,362,430,370,413,404,2025-05-27T11:15:43.692587
119,-0.1171,-0.1205,1.0180,1.435,-6.860,4.515,390,385,372,360,408,2025-05-27T11:15:43.692587
120,-0.1122,-0.1186,1.0175,1.120,-5.320,3.850,389,417,364,402,401,2025-05-27T11:15:43.692587
121,-0.1093,-0.1142,1.0170,0.770,-4.025,3.535,339,412,377,394,391,2025-05-27T11:15:43.692587
122,-0.1152,-0.1161,1.0141,0.105,-2.415,2.730,384,420,340,395,398,2025-05-27T11:15:43.692587
123,-0.1186,-0.1142,1.0141,-0.420,-0.875,2.170,414,405,344,346,406,2025-05-27T11:15:43.692587
124,-0.1181,-0.1088,1.0170,-0.840,0.210,1.435,407,404,322,385,388,2025-05-27T11:15:43.692587
125,-0.1215,-0.1088,1.0155,-1.190,1.750,0.490,400,436,344,352,344,2025-05-27T11:15:43.692587
126,-0.1240,-0.1088,1.0126,-1.540,2.695,-0.280,391,395,363,383,386,2025-05-27T11:15:43.692587
127,-0.1327,-0.1088,1.0199,-1.330,2.975,-0.420,427,420,381,394,348,2025-05-27T11:15:43.692587
128,-0.1376,-0.1054,1.0302,-0.945,2.520,-0.630,406,425,378,410,375,2025-05-27T11:15:43.692587
129,-0.1381,-0.0976,1.0292,-0.560,2.205,-0.805,391,403,378,399,386,2025-05-27T11:15:43.692587
130,-0.1386,-0.0917,1.0326,-0.385,1.365,-0.490,339,400,376,405,408,2025-05-27T11:15:43.692587
131,-0.1444,-0.0859,1.0370,-0.105,0.910,-0.140,362,372,338,402,392,2025-05-27T11:15:43.692587
132,-0.1425,-0.0859,1.0360,-0.140,0.665,-0.175,384,379,360,372,402,2025-05-27T11:15:43.692587
133,-0.1454,-0.0849,1.0404,-0.105,0.665,-0.455,409,386,380,400,404,2025-05-27T11:15:43.692587
134,-0.1440,-0.0854,1.0380,-0.105,0.805,-0.805,399,414,382,391,387,2025-05-27T11:15:43.692587
135,-0.1405,-0.0878,1.0341,0.105,0.525,-0.735,419,409,386,409,397,2025-05-27T11:15:43.692587
136,-0.1396,-0.0893,1.0321,0.315,0.280,-0.315,412,408,393,403,389,2025-05-27T11:15:43.692587
137,-0.1425,-0.0849,1.0360,0.350,-0.105,-0.105,420,415,385,402,407,2025-05-27T11:15:43.759216
138,-0.1488,-0.0883,1.0429,0.280,-0.455,0.070,389,425,384,372,360,2025-05-27T11:15:43.759216
139,-0.1547,-0.0903,1.0375,0.350,-1.260,0.525,400,375,370,356,351,2025-05-27T11:15:43.759216
140,-0.1591,-0.0903,1.0307,0.490,-2.065,0.840,387,407,379,390,397,2025-05-27T11:15:43.759216
141,-0.1552,-0.0888,1.0302,0.665,-2.625,1.190,412,400,342,351,342,2025-05-27T11:15:43.759216
142,-0.1557,-0.0883,1.0341,0.805,-2.800,1.330,423,425,355,375,387,2025-05-27T11:15:43.759216
143,-0.1527,-0.0844,1.0316,0.735,-2.905,1.295,413,412,377,410,385,2025-05-27T11:15:43.892221
144,-0.1498,-0.0815,1.0302,0.630,-2.905,1.575,415,418,375,414,413,2025-05-27T11:15:43.892221
145,-0.1469,-0.0834,1.0282,0.490,-2.940,1.750,429,427,378,396,408,2025-05-27T11:15:43.892221
146,-0.1454,-0.0864,1.0302,0.595,-2.870,1.715,422,350,379,401,412,2025-05-27T11:15:43.892221
147,-0.1440,-0.0888,1.0365,0.455,-2.765,1.820,421,415,377,392,409,2025-05-27T11:15:43.892221
148,-0.1474,-0.0937,1.0429,0.700,-3.080,2.240,418,422,387,395,354,2025-05-27T11:15:43.892221
149,-0.1498,-0.0986,1.0419,1.120,-4.235,2.660,406,420,339,384,387,2025-05-27T11:15:43.892221
150,-0.1571,-0.1010,1.0429,1.785,-5.390,2.835,418,371,362,401,376,2025-05-27T11:15:43.892221
151,-0.1537,-0.1015,1.0380,2.205,-6.475,2.450,379,386,378,414,402,2025-05-27T11:15:43.892221
152,-0.1513,-0.1030,1.0360,2.590,-7.455,1.890,412,405,378,428,395,2025-05-27T11:15:43.892221
153,-0.1464,-0.1025,1.0375,3.080,-8.015,1.365,411,416,348,384,354,2025-05-27T11:15:43.892221
154,-0.1459,-0.0996,1.0331,3.430,-8.470,1.050,401,411,323,378,392,2025-05-27T11:15:43.892221
155,-0.1435,-0.1039,1.0228,3.675,-8.680,0.805,394,417,351,380,352,2025-05-27T11:15:43.958091
156,-0.1381,-0.1030,1.0199,3.955,-8.505,0.945,403,406,365,377,384,2025-05-27T11:15:43.958091
157,-0.1332,-0.0961,1.0194,3.990,-7.770,0.945,420,429,374,411,398,2025-05-27T11:15:43.958091
158,-0.1313,-0.0859,1.0258,3.640,-6.335,0.910,409,396,368,372,411,2025-05-27T11:15:43.958091
159,-0.1376,-0.0864,1.0287,2.835,-5.425,0.700,410,375,365,376,417,2025-05-27T11:15:43.958554
160,-0.1391,-0.0878,1.0243,2.555,-5.075,0.735,405,334,327,379,396,2025-05-27T11:15:44.008786
161,-0.1440,-0.0878,1.0214,2.345,-5.145,0.700,415,404,366,343,394,2025-05-27T11:15:44.008786
162,-0.1440,-0.0903,1.0194,2.310,-5.320,0.665,390,424,361,381,402,2025-05-27T11:15:44.008786
163,-0.1444,-0.0937,1.0243,2.660,-5.670,0.770,421,427,362,413,405,2025-05-27T11:15:44.008786
164,-0.1401,-0.0961,1.0282,3.080,-5.845,0.490,398,405,375,393,347,2025-05-27T11:15:44.008786
165,-0.1405,-0.0937,1.0311,3.395,-5.950,0.175,419,344,334,401,377,2025-05-27T11:15:44.058848
166,-0.1352,-0.0947,1.0321,3.780,-6.300,-0.385,414,382,365,395,390,2025-05-27T11:15:44.058848
167,-0.1303,-0.0922,1.0307,4.340,-6.545,-0.805,420,383,372,368,303,2025-05-27T11:15:44.058848
168,-0.1254,-0.0869,1.0365,4.725,-6.825,-0.770,422,421,368,381,353,2025-05-27T11:15:44.058848
169,-0.1274,-0.0781,1.0419,4.900,-6.860,-0.875,416,404,388,407,384,2025-05-27T11:15:44.108643
170,-0.1308,-0.0791,1.0419,5.005,-7.140,-1.295,305,425,386,400,389,2025-05-27T11:15:44.108643
171,-0.1391,-0.0786,1.0419,5.145,-7.630,-1.645,372,363,376,406,364,2025-05-27T11:15:44.108643
172,-0.1420,-0.0834,1.0365,5.390,-8.575,-1.680,414,394,351,406,386,2025-05-27T11:15:44.108643
173,-0.1435,-0.0874,1.0350,5.705,-9.485,-1.575,347,384,362,422,382,2025-05-27T11:15:44.160772
174,-0.1386,-0.0878,1.0253,6.055,-9.975,-1.575,340,397,361,395,400,2025-05-27T11:15:44.160772
175,-0.1337,-0.0805,1.0165,6.160,-9.800,-1.715,401,392,379,390,414,2025-05-27T11:15:44.160772
176,-0.1244,-0.0688,1.0082,5.775,-9.030,-1.645,396,402,392,411,388,2025-05-27T11:15:44.160772
177,-0.1137,-0.0566,1.0087,4.900,-7.350,-1.470,352,414,389,399,343,2025-05-27T11:15:44.160772
178,-0.1025,-0.0434,1.0136,3.430,-4.690,-1.575,410,356,389,392,386,2025-05-27T11:15:44.215184
179,-0.1088,-0.0473,1.0189,1.925,-2.450,-1.750,302,346,377,401,384,2025-05-27T11:15:44.215184
180,-0.1147,-0.0517,1.0268,1.015,-1.435,-2.170,321,400,377,391,338,2025-05-27T11:15:44.215184
181,-0.1210,-0.0590,1.0336,0.630,-1.435,-2.695,345,397,366,414,386,2025-05-27T11:15:44.215184
182,-0.1108,-0.0605,1.0326,0.700,-1.715,-3.290,394,416,366,377,385,2025-05-27T11:15:44.265001
183,-0.0927,-0.0664,1.0365,1.155,-0.665,-3.920,390,426,378,342,399,2025-05-27T11:15:44.265001
184,-0.0956,-0.0634,1.0560,1.610,-0.245,-5.005,400,397,367,382,358,2025-05-27T11:15:44.265001
185,-0.0913,-0.0581,1.0663,2.205,0.000,-5.565,418,408,333,404,339,2025-05-27T11:15:44.265001
186,-0.0971,-0.0581,1.0629,2.765,-0.560,-6.300,392,422,370,412,371,2025-05-27T11:15:44.309130
187,-0.1220,-0.0595,1.0653,3.395,-1.820,-6.965,414,422,349,398,389,2025-05-27T11:15:44.309130
188,-0.1352,-0.0605,1.0697,4.130,-3.955,-7.245,419,426,356,415,393,2025-05-27T11:15:44.309130
189,-0.1381,-0.0620,1.0712,4.830,-6.580,-7.315,414,400,364,415,404,2025-05-27T11:15:44.309130
190,-0.1357,-0.0620,1.0594,5.390,-8.295,-6.930,393,405,365,425,394,2025-05-27T11:15:44.358976
191,-0.1332,-0.0576,1.0502,5.880,-9.730,-5.985,352,427,367,414,348,2025-05-27T11:15:44.358976
192,-0.1283,-0.0542,1.0463,5.985,-10.780,-4.830,416,414,377,415,382,2025-05-27T11:15:44.358976
193,-0.1254,-0.0473,1.0390,5.600,-10.535,-3.745,420,391,383,409,397,2025-05-27T11:15:44.358976
194,-0.1254,-0.0444,1.0272,4.795,-9.660,-3.045,405,339,373,402,398,2025-05-27T11:15:44.509126
195,-0.1235,-0.0483,1.0092,3.990,-8.575,-2.660,374,416,375,391,400,2025-05-27T11:15:44.509126
196,-0.1215,-0.0542,1.0043,3.290,-7.280,-2.100,411,394,387,385,383,2025-05-27T11:15:44.509126
197,-0.1200,-0.0532,0.9999,2.625,-5.810,-1.435,424,412,378,408,357,2025-05-27T11:15:44.509126
198,-0.1254,-0.0488,0.9984,1.890,-4.585,-0.595,345,420,380,349,387,2025-05-27T11:15:44.509126
199,-0.1235,-0.0449,0.9941,1.015,-3.465,0.000,377,403,373,392,402,2025-05-27T11:15:44.509126
200,-0.1249,-0.0410,0.9906,0.175,-1.750,0.175,419,415,376,418,415,2025-05-27T11:15:44.509126
201,-0.1230,-0.0429,0.9955,-0.525,-0.035,0.280,408,359,379,412,352,2025-05-27T11:15:44.648744
202,-0.1186,-0.0498,1.0009,-0.980,1.470,-0.210,407,397,375,407,368,2025-05-27T11:15:44.648744
203,-0.1054,-0.0561,1.0077,-1.085,2.485,0.280,417,411,364,311,385,2025-05-27T11:15:44.648744
204,-0.1044,-0.0717,1.0092,-0.665,4.550,0.140,409,431,375,388,413,2025-05-27T11:15:44.648744
205,-0.1166,-0.0742,1.0111,-0.175,5.985,-0.490,417,425,336,385,398,2025-05-27T11:15:44.648744
206,-0.1181,-0.0810,1.0180,0.665,6.370,-1.330,418,426,353,394,407,2025-05-27T11:15:44.648744
207,-0.1196,-0.0761,1.0258,1.505,6.860,-2.100,415,423,365,345,412,2025-05-27T11:15:44.648744
208,-0.1196,-0.0698,1.0258,2.345,7.420,-2.765,420,377,369,384,417,2025-05-27T11:15:44.648744
209,-0.1352,-0.0732,1.0258,3.010,7.490,-3.395,418,400,371,388,372,2025-05-27T11:15:44.648744
210,-0.1435,-0.0761,1.0282,4.025,7.490,-4.235,404,426,381,402,358,2025-05-27T11:15:44.648744
211,-0.1474,-0.0776,1.0253,4.935,7.525,-4.970,413,427,378,421,394,2025-05-27T11:15:44.648744
212,-0.1537,-0.0752,1.0233,5.635,7.420,-5.495,408,414,375,355,405,2025-05-27T11:15:44.648744
213,-0.1405,-0.0839,1.0141,5.985,7.595,-5.705,395,403,381,374,401,2025-05-27T11:15:44.648744
214,-0.1215,-0.0683,1.0033,6.090,8.295,-5.810,336,355,350,384,404,2025-05-27T11:15:44.648744
215,-0.1147,-0.0630,1.0072,5.705,10.080,-6.300,397,412,357,380,370,2025-05-27T11:15:44.715915
216,-0.1069,-0.0493,1.0024,4.550,12.180,-6.930,402,349,327,391,389,2025-05-27T11:15:44.715915
217,-0.1039,-0.0434,0.9999,3.185,14.385,-8.085,412,331,351,412,407,2025-05-27T11:15:44.715915
218,-0.1083,-0.0459,1.0067,1.785,16.905,-8.890,415,401,358,353,402,2025-05-27T11:15:44.715915
219,-0.1127,-0.0415,1.0067,0.980,18.270,-9.415,432,412,370,392,359,2025-05-27T11:15:44.715915
220,-0.1293,-0.0425,1.0224,0.385,19.075,-9.485,432,362,381,394,400,2025-05-27T11:15:44.715915
221,-0.1357,-0.0376,1.0385,-0.315,19.565,-9.485,360,353,376,396,353,2025-05-27T11:15:44.715915
222,-0.1454,-0.0376,1.0502,-0.910,19.880,-9.100,396,334,386,394,388,2025-05-27T11:15:44.715915
223,-0.1484,-0.0400,1.0594,-1.295,19.810,-8.435,407,398,391,391,390,2025-05-27T11:15:44.775621
224,-0.1596,-0.0381,1.0594,-1.260,19.460,-8.015,379,410,391,395,399,2025-05-27T11:15:44.775621
225,-0.1742,-0.0473,1.0638,-1.120,18.550,-7.980,413,344,390,401,389,2025-05-27T11:15:44.775621
226,-0.1830,-0.0483,1.0682,-0.385,16.660,-7.910,415,331,388,389,401,2025-05-27T11:15:44.775621
227,-0.1820,-0.0488,1.0687,0.385,14.035,-7.595,385,397,345,412,409,2025-05-27T11:15:44.775621
228,-0.1976,-0.0527,1.0677,1.575,11.305,-7.105,391,423,365,412,317,2025-05-27T11:15:44.908758
229,-0.2103,-0.0547,1.0673,2.625,8.330,-6.965,412,412,386,395,369,2025-05-27T11:15:44.908758
230,-0.2157,-0.0512,1.0663,3.290,5.005,-6.825,397,428,377,408,351,2025-05-27T11:15:44.908758
231,-0.2167,-0.0493,1.0624,3.850,1.925,-6.335,390,306,376,412,340,2025-05-27T11:15:44.908758
232,-0.2123,-0.0464,1.0492,4.445,-0.490,-5.880,332,327,381,394,332,2025-05-27T11:15:44.908758
233,-0.2045,-0.0590,1.0409,5.495,-2.870,-5.390,333,413,374,347,366,2025-05-27T11:15:44.908758
234,-0.1884,-0.0444,1.0336,6.090,-4.200,-5.040,346,401,380,336,379,2025-05-27T11:15:44.908758
235,-0.1688,-0.0444,1.0238,6.125,-3.780,-5.425,406,430,382,386,397,2025-05-27T11:15:44.908758
236,-0.1537,-0.0434,1.0150,6.125,-2.345,-5.985,416,352,390,392,411,2025-05-27T11:15:44.908758
237,-0.1488,-0.0439,1.0102,6.020,-1.050,-6.580,340,337,375,406,407,2025-05-27T11:15:44.908758
238,-0.1488,-0.0454,1.0024,5.775,0.490,-7.000,403,401,366,353,400,2025-05-27T11:15:44.908758
239,-0.1523,-0.0459,0.9994,5.530,2.205,-7.665,382,377,364,389,410,2025-05-27T11:15:44.908758
240,-0.1571,-0.0444,1.0024,5.285,3.815,-8.015,339,414,384,407,407,2025-05-27T11:15:44.975492
241,-0.1645,-0.0342,1.0106,5.005,5.390,-8.295,384,426,385,404,398,2025-05-27T11:15:44.975492
242,-0.1708,-0.0327,1.0067,4.270,6.790,-8.505,419,410,394,392,395,2025-05-27T11:15:44.975492
243,-0.1850,-0.0312,1.0131,3.675,8.050,-8.680,400,401,343,394,407,2025-05-27T11:15:44.975492
244,-0.1957,-0.0273,1.0243,2.940,8.260,-8.155,415,408,363,384,351,2025-05-27T11:15:45.029131
245,-0.2079,-0.0307,1.0282,2.415,7.945,-7.140,406,427,374,387,383,2025-05-27T11:15:45.029131
246,-0.2128,-0.0371,1.0243,2.380,7.140,-5.915,420,381,333,397,389,2025-05-27T11:15:45.029131
247,-0.2147,-0.0420,1.0194,2.975,6.370,-5.145,422,414,362,418,349,2025-05-27T11:15:45.029131
248,-0.2079,-0.0444,1.0228,3.710,5.845,-4.235,413,423,368,410,393,2025-05-27T11:15:45.029131
249,-0.2094,-0.0386,1.0258,4.235,6.195,-3.850,411,397,364,416,354,2025-05-27T11:15:45.029131
250,-0.2128,-0.0395,1.0194,4.865,6.300,-4.025,419,395,371,390,387,2025-05-27T11:15:45.124617
251,-0.2123,-0.0381,1.0116,5.740,6.125,-4.340,411,418,380,400,400,2025-05-27T11:15:45.124617
252,-0.2137,-0.0332,1.0126,6.405,6.125,-4.690,408,406,369,408,394,2025-05-27T11:15:45.124617
253,-0.2137,-0.0273,1.0136,6.895,6.510,-5.180,384,418,375,388,351,2025-05-27T11:15:45.124617
254,-0.2191,-0.0229,1.0087,7.210,7.175,-5.635,410,425,364,393,390,2025-05-27T11:15:45.124617
255,-0.2225,-0.0200,0.9989,7.280,7.315,-5.915,423,348,299,338,383,2025-05-27T11:15:45.124617
256,-0.2269,-0.0195,0.9955,7.175,6.930,-5.705,417,380,342,390,358,2025-05-27T11:15:45.124617
257,-0.2162,-0.0161,0.9965,6.790,6.720,-5.005,420,417,355,385,369,2025-05-27T11:15:45.227289
258,-0.2123,-0.0161,0.9892,6.020,7.560,-4.480,407,413,364,420,396,2025-05-27T11:15:45.227289
259,-0.2157,-0.0220,0.9814,5.460,8.750,-4.795,385,421,360,382,362,2025-05-27T11:15:45.227289
260,-0.2128,-0.0234,0.9799,4.725,9.730,-5.460,388,416,362,344,337,2025-05-27T11:15:45.227289
261,-0.2069,-0.0327,0.9804,3.850,11.585,-6.020,412,423,366,398,390,2025-05-27T11:15:45.227289
262,-0.2059,-0.0317,0.9794,2.660,14.385,-7.385,377,364,334,408,397,2025-05-27T11:15:45.227289
263,-0.2137,-0.0317,0.9848,1.260,17.220,-8.960,388,343,359,414,402,2025-05-27T11:15:45.227289
264,-0.2142,-0.0303,0.9936,0.000,18.935,-10.150,378,413,366,401,382,2025-05-27T11:15:45.227289
265,-0.2225,-0.0381,0.9994,-1.330,19.215,-10.710,422,401,371,395,394,2025-05-27T11:15:45.227289
266,-0.2294,-0.0434,1.0048,-1.995,18.970,-10.850,425,420,346,406,407,2025-05-27T11:15:45.325606
267,-0.2245,-0.0444,1.0121,-2.240,18.690,-11.060,423,409,365,346,409,2025-05-27T11:15:45.325606
268,-0.2279,-0.0439,1.0185,-2.065,19.040,-11.515,422,406,379,391,414,2025-05-27T11:15:45.325606
269,-0.2250,-0.0410,1.0224,-1.925,19.670,-11.970,438,395,372,390,418,2025-05-27T11:15:45.325606
270,-0.2211,-0.0361,1.0233,-1.470,20.230,-11.935,429,414,387,406,401,2025-05-27T11:15:45.325606
271,-0.2220,-0.0239,1.0287,-0.945,21.105,-11.865,402,408,379,386,311,2025-05-27T11:15:45.325606
272,-0.2347,-0.0205,1.0375,-0.560,21.770,-11.655,416,381,376,386,378,2025-05-27T11:15:45.325606
273,-0.2508,-0.0083,1.0429,-0.350,20.860,-10.570,406,414,379,405,394,2025-05-27T11:15:45.325606
274,-0.2684,0.0073,1.0429,-0.210,19.005,-8.820,394,402,374,349,357,2025-05-27T11:15:45.425280
275,-0.2865,0.0156,1.0375,-0.490,17.010,-7.035,405,422,335,369,370,2025-05-27T11:15:45.425280
276,-0.2987,0.0205,1.0287,-0.560,14.980,-5.180,359,393,364,385,394,2025-05-27T11:15:45.425280
277,-0.3060,0.0215,1.0336,-0.525,13.790,-2.835,333,375,360,397,410,2025-05-27T11:15:45.425280
278,-0.3070,0.0268,1.0268,-0.630,12.950,-0.980,408,407,362,369,402,2025-05-27T11:15:45.425280
279,-0.3182,0.0244,1.0180,-0.455,12.215,1.120,434,417,371,384,416,2025-05-27T11:15:45.425280
280,-0.3284,0.0278,1.0180,-0.070,10.920,2.975,425,414,376,353,398,2025-05-27T11:15:45.425280
281,-0.3436,0.0303,1.0199,-0.105,8.890,4.550,414,407,362,405,405,2025-05-27T11:15:45.425280
282,-0.3621,0.0312,1.0248,-0.385,6.440,6.160,417,419,377,391,402,2025-05-27T11:15:45.425280
283,-0.3777,0.0224,1.0253,-0.805,2.100,7.280,400,416,366,395,409,2025-05-27T11:15:45.493781
284,-0.3924,0.0151,1.0258,-1.155,-3.080,8.890,409,413,368,347,396,2025-05-27T11:15:45.493781
285,-0.3924,0.0020,1.0233,-1.400,-7.385,10.045,342,370,374,378,413,2025-05-27T11:15:45.493781
286,-0.3758,-0.0117,1.0204,-1.435,-10.045,10.640,390,351,372,344,398,2025-05-27T11:15:45.493781
287,-0.3436,-0.0195,1.0067,-1.190,-10.640,11.410,390,351,378,388,364,2025-05-27T11:15:45.625277
288,-0.3148,-0.0312,0.9941,-0.350,-9.730,12.670,423,388,345,393,371,2025-05-27T11:15:45.625277
289,-0.2860,-0.0346,0.9965,1.330,-7.175,13.090,419,417,353,389,371,2025-05-27T11:15:45.625277
290,-0.2728,-0.0434,0.9926,2.765,-3.990,12.985,395,435,361,392,359,2025-05-27T11:15:45.625277
291,-0.2738,-0.0327,1.0038,4.270,-2.450,12.250,402,410,384,348,394,2025-05-27T11:15:45.625277
292,-0.2733,-0.0346,1.0121,5.530,-2.030,10.640,409,421,381,379,398,2025-05-27T11:15:45.625277
293,-0.2918,-0.0283,0.9843,5.460,-2.590,7.980,370,430,375,395,381,2025-05-27T11:15:45.625277
294,-0.2943,-0.0473,0.9897,7.000,-3.850,6.370,419,424,346,408,410,2025-05-27T11:15:45.625277
295,-0.2923,-0.0576,0.9862,8.715,-6.090,5.110,402,409,367,396,397,2025-05-27T11:15:45.625277
296,-0.2884,-0.0747,0.9731,10.290,-7.350,4.200,415,428,347,408,398,2025-05-27T11:15:45.625277
297,-0.3001,-0.0795,0.9662,11.585,-6.300,2.870,435,403,370,423,383,2025-05-27T11:15:45.625277
298,-0.2894,-0.0752,0.9819,12.460,-3.640,0.140,426,397,374,409,387,2025-05-27T11:15:45.625277
299,-0.2904,-0.0605,0.9584,12.600,-0.210,-2.555,398,405,383,399,383,2025-05-27T11:15:45.625277
300,-0.2894,-0.0791,0.9560,13.265,3.605,-5.810,424,367,365,404,391,2025-05-27T11:15:45.675347
301,-0.2582,-0.0527,0.9453,12.915,7.280,-7.560,415,395,330,419,403,2025-05-27T11:15:45.675347
302,-0.2596,-0.0551,0.9209,13.125,11.655,-9.100,417,416,362,403,406,2025-05-27T11:15:45.675347
303,-0.2611,-0.0527,0.9365,13.335,15.750,-10.990,416,408,360,405,405,2025-05-27T11:15:45.675347
304,-0.2791,-0.0488,0.9340,13.055,20.230,-12.600,413,342,346,352,409,2025-05-27T11:15:45.841414
305,-0.3279,-0.0508,0.9706,13.510,22.190,-15.085,403,376,358,339,407,2025-05-27T11:15:45.841414
306,-0.3465,-0.0420,0.9823,12.565,21.350,-16.415,408,404,371,386,415,2025-05-27T11:15:45.841414
307,-0.3548,-0.0356,0.9858,12.390,18.235,-17.815,387,400,377,407,398,2025-05-27T11:15:45.841414
308,-0.3543,-0.0376,0.9780,12.880,14.385,-18.585,382,420,370,355,388,2025-05-27T11:15:45.841414
309,-0.3543,-0.0381,0.9692,12.635,11.550,-19.425,365,401,372,376,385,2025-05-27T11:15:45.841843
310,-0.3279,-0.0244,0.9960,13.965,10.745,-20.265,399,413,380,404,390,2025-05-27T11:15:45.841843
311,-0.3353,-0.0205,0.9950,14.245,10.850,-20.615,419,410,379,404,395,2025-05-27T11:15:45.841843
312,-0.3289,-0.0327,1.0136,14.595,12.670,-21.245,428,375,372,351,395,2025-05-27T11:15:45.841843
313,-0.3431,-0.0117,0.9975,14.665,14.805,-22.295,427,407,364,385,393,2025-05-27T11:15:45.841925
314,-0.3577,-0.0195,0.9838,14.945,16.590,-22.645,431,416,374,398,401,2025-05-27T11:15:45.841925
315,-0.3582,-0.0010,0.9936,15.085,16.870,-22.610,414,395,379,409,397,2025-05-27T11:15:45.841997
316,-0.3650,0.0024,0.9721,14.735,17.080,-22.540,392,430,388,361,384,2025-05-27T11:15:45.841997
317,-0.3636,0.0132,0.9760,14.840,17.885,-22.400,359,423,380,399,380,2025-05-27T11:15:45.942182
318,-0.3558,0.0195,0.9570,13.650,19.740,-22.785,333,362,374,416,362,2025-05-27T11:15:45.942182
319,-0.3616,0.0078,0.9384,13.650,21.665,-22.540,364,411,383,402,379,2025-05-27T11:15:45.942182
320,-0.3572,0.0044,0.9506,13.930,24.185,-21.840,384,419,378,396,379,2025-05-27T11:15:45.942182
321,-0.3719,0.0029,0.9379,14.350,26.040,-21.735,389,418,375,383,377,2025-05-27T11:15:45.942182
322,-0.3889,0.0039,0.9653,14.980,28.035,-22.645,410,443,338,363,334,2025-05-27T11:15:45.942182
323,-0.3948,0.0122,0.9692,15.855,29.820,-24.465,424,417,361,384,328,2025-05-27T11:15:45.942182
324,-0.3948,0.0098,0.9589,17.570,30.905,-25.725,345,404,370,346,382,2025-05-27T11:15:45.942182
325,-0.4075,0.0259,0.9472,18.690,30.765,-26.215,417,391,366,381,379,2025-05-27T11:15:46.042126
326,-0.4075,0.0156,0.9565,19.460,28.700,-25.865,415,423,374,387,396,2025-05-27T11:15:46.042126
327,-0.4094,0.0264,0.9780,23.345,29.155,-27.160,385,418,383,403,408,2025-05-27T11:15:46.042126
328,-0.4265,0.2552,0.9672,27.370,30.100,-27.790,296,354,344,392,395,2025-05-27T11:15:46.042126
329,-0.4211,0.0654,1.0155,29.645,35.700,-29.050,378,334,335,403,348,2025-05-27T11:15:46.042126
330,-0.3850,0.0849,1.0287,31.675,39.865,-28.805,390,374,367,389,330,2025-05-27T11:15:46.042126
331,-0.4314,0.0888,0.9453,31.080,43.925,-28.700,426,410,371,402,376,2025-05-27T11:15:46.042126
332,-0.4416,0.1025,0.9984,35.805,46.305,-27.545,389,396,376,411,380,2025-05-27T11:15:46.042126
333,-0.4285,0.0947,1.0419,38.955,50.925,-25.585,371,419,381,408,399,2025-05-27T11:15:46.042126
334,-0.4524,0.1230,0.9999,39.585,54.880,-25.025,411,410,380,418,394,2025-05-27T11:15:46.108711
335,-0.4641,0.1425,1.0277,43.540,60.270,-22.680,424,402,394,315,386,2025-05-27T11:15:46.108711
336,-0.4753,0.1474,1.0409,46.550,61.775,-19.320,425,337,369,383,385,2025-05-27T11:15:46.108711
337,-0.4953,0.1200,1.0785,49.035,62.055,-15.470,420,385,382,408,408,2025-05-27T11:15:46.108711
338,-0.5324,0.1688,1.0829,53.620,62.580,-12.075,410,413,380,394,355,2025-05-27T11:15:46.108711
339,-0.5363,0.1728,1.1063,59.430,62.405,-8.155,393,417,382,410,359,2025-05-27T11:15:46.158741
340,-0.5739,0.1810,1.1136,65.625,60.795,-1.540,388,381,341,383,373,2025-05-27T11:15:46.158741
341,-0.5861,0.1537,1.1595,71.855,59.850,2.835,380,336,355,394,362,2025-05-27T11:15:46.158741
342,-0.6246,0.2001,1.1283,78.155,58.345,8.260,388,383,325,394,400,2025-05-27T11:15:46.158741
343,-0.6481,0.1991,1.1253,84.420,57.575,15.330,348,401,341,390,390,2025-05-27T11:15:46.158741
344,-0.6817,0.2006,1.1068,90.125,57.715,22.085,370,432,351,405,405,2025-05-27T11:15:46.242221
345,-0.6964,0.1972,1.0585,94.500,60.025,29.190,410,428,328,410,398,2025-05-27T11:15:46.242221
346,-0.7164,0.2162,1.0160,98.910,71.260,36.540,406,423,342,410,391,2025-05-27T11:15:46.242221
347,-0.7335,0.2216,0.9594,102.690,65.205,43.785,388,409,357,399,397,2025-05-27T11:15:46.242221
348,-0.7496,0.2333,0.8847,104.755,66.675,48.755,423,412,376,394,369,2025-05-27T11:15:46.242221
349,-0.7671,0.2352,0.8028,105.945,65.415,54.110,395,411,359,403,392,2025-05-27T11:15:46.242221
350,-0.7891,0.2401,0.7486,105.665,60.760,58.835,400,421,365,393,378,2025-05-27T11:15:46.242221
351,-0.7886,0.2547,0.6925,102.620,54.460,61.670,394,408,333,402,390,2025-05-27T11:15:46.428217
352,-0.7906,0.2547,0.6593,102.270,44.870,64.995,414,427,360,367,385,2025-05-27T11:15:46.428217
353,-0.7671,0.2655,0.6027,98.665,37.870,67.620,387,423,370,358,347,2025-05-27T11:15:46.428217
354,-0.7369,0.2840,0.5436,93.800,31.955,68.180,419,420,331,396,376,2025-05-27T11:15:46.428217
355,-0.7340,0.2967,0.5212,87.360,25.935,66.920,395,405,358,411,382,2025-05-27T11:15:46.428217
356,-0.6895,0.3094,0.4514,79.555,16.275,64.610,395,419,376,420,392,2025-05-27T11:15:46.428217
357,-0.6744,0.3113,0.4065,71.890,5.915,62.160,359,428,342,423,380,2025-05-27T11:15:46.428217
358,-0.6437,0.3157,0.3884,63.735,-4.025,58.765,330,429,321,394,395,2025-05-27T11:15:46.428217
359,-0.6061,0.3328,0.3670,56.665,-12.355,53.445,388,381,349,401,392,2025-05-27T11:15:46.517191
360,-0.5817,0.3411,0.3416,47.180,-26.740,47.600,412,376,358,420,405,2025-05-27T11:15:46.517191
361,-0.5397,0.3514,0.3289,37.590,-23.520,41.720,415,411,360,417,411,2025-05-27T11:15:46.517191
362,-0.5285,0.3533,0.3123,28.070,-27.300,36.330,421,424,371,405,409,2025-05-27T11:15:46.517191
363,-0.4895,0.3743,0.3099,18.305,-27.930,29.050,417,394,351,401,389,2025-05-27T11:15:46.517191
364,-0.4636,0.3772,0.2938,8.225,-25.970,21.245,400,402,361,405,379,2025-05-27T11:15:46.517191
365,-0.4338,0.3704,0.2699,-1.050,-22.155,14.525,400,345,369,342,385,2025-05-27T11:15:46.517191
366,-0.4265,0.3924,0.2996,-9.380,-15.855,6.860,418,385,365,392,395,2025-05-27T11:15:46.517191
367,-0.4338,0.4148,0.3231,-20.335,-8.715,-0.770,421,422,370,385,394,2025-05-27T11:15:46.517191
368,-0.4290,0.4109,0.3309,-30.380,-0.210,-7.945,426,413,365,402,402,2025-05-27T11:15:46.657916
369,-0.4338,0.4148,0.3465,-38.675,7.560,-13.440,341,420,384,393,387,2025-05-27T11:15:46.657916
370,-0.4358,0.4246,0.3728,-45.885,16.240,-19.530,379,415,382,367,392,2025-05-27T11:15:46.657916
371,-0.4436,0.4094,0.3758,-51.415,25.480,-24.990,335,418,391,333,395,2025-05-27T11:15:46.657916
372,-0.4621,0.3977,0.4128,-53.795,33.040,-28.805,396,430,381,377,394,2025-05-27T11:15:46.657916
373,-0.5163,0.4036,0.4836,-55.720,39.585,-33.005,425,405,374,397,403,2025-05-27T11:15:46.658363
374,-0.5480,0.4011,0.5470,-56.980,43.855,-36.260,420,392,387,399,408,2025-05-27T11:15:46.658363
375,-0.5817,0.4006,0.6037,-56.105,47.530,-37.835,347,403,390,411,393,2025-05-27T11:15:46.658363
376,-0.6168,0.4065,0.6583,-53.025,50.155,-38.675,328,426,375,402,362,2025-05-27T11:15:46.658363
377,-0.6564,0.4182,0.7213,-47.495,51.555,-38.780,377,403,377,400,391,2025-05-27T11:15:46.658427
378,-0.7105,0.4299,0.7857,-40.565,51.485,-38.115,394,441,384,395,388,2025-05-27T11:15:46.658427
379,-0.7706,0.4534,0.8662,-32.830,49.105,-35.805,352,416,373,413,401,2025-05-27T11:15:46.658446
380,-0.8247,0.4704,0.9516,-21.525,46.725,-32.445,386,426,387,398,410,2025-05-27T11:15:46.658446
381,-0.8784,0.4865,1.0219,-8.505,44.695,-26.565,415,439,382,414,412,2025-05-27T11:15:46.658446
382,-0.9150,0.5212,1.0941,4.865,42.525,-20.265,374,401,386,411,393,2025-05-27T11:15:46.658478
383,-0.9399,0.5510,1.1370,18.235,43.925,-11.585,416,427,364,352,401,2025-05-27T11:15:46.658478
384,-0.9672,0.5919,1.1429,31.290,49.035,-1.155,427,396,364,389,389,2025-05-27T11:15:46.658623
385,-1.0204,0.6193,1.1595,43.155,56.665,10.570,396,424,378,411,405,2025-05-27T11:15:46.758299
386,-1.0433,0.6515,1.1444,51.765,59.990,25.795,394,413,369,348,408,2025-05-27T11:15:46.758299
387,-1.1019,0.6661,1.1234,61.460,60.235,42.700,361,409,376,382,409,2025-05-27T11:15:46.758299
388,-1.1409,0.6700,1.0795,70.035,57.575,59.920,389,343,364,387,409,2025-05-27T11:15:46.758299
389,-1.1741,0.6769,1.0307,77.840,51.065,73.780,417,387,382,396,356,2025-05-27T11:15:46.758299
390,-1.1575,0.6720,0.9467,84.140,43.505,90.755,374,372,374,408,384,2025-05-27T11:15:46.758299
391,-1.1424,0.6705,0.8725,88.375,36.540,106.190,393,386,385,416,386,2025-05-27T11:15:46.758299
392,-1.1043,0.6754,0.7901,89.845,30.065,118.825,409,399,390,425,398,2025-05-27T11:15:46.758299
393,-1.0575,0.6583,0.7032,90.580,22.540,129.570,401,419,378,398,356,2025-05-27T11:15:46.859012
394,-0.9823,0.6320,0.6056,89.180,17.185,138.530,401,407,380,362,399,2025-05-27T11:15:46.859012
395,-0.8989,0.6285,0.5314,86.940,14.875,145.950,406,403,365,376,361,2025-05-27T11:15:46.859012
396,-0.8281,0.6041,0.4460,82.495,14.315,149.765,341,399,376,356,390,2025-05-27T11:15:46.859012
397,-0.7525,0.5827,0.3611,75.740,14.840,151.375,412,426,382,399,388,2025-05-27T11:15:46.859012
398,-0.6959,0.5505,0.2943,69.195,14.805,150.850,371,412,382,413,403,2025-05-27T11:15:46.859012
399,-0.6310,0.5251,0.2357,62.825,12.775,147.980,420,431,370,395,389,2025-05-27T11:15:46.859012
400,-0.5695,0.5012,0.1815,57.645,9.590,144.060,406,429,366,393,383,2025-05-27T11:15:46.859012
401,-0.5134,0.4900,0.1440,50.540,7.175,137.200,412,422,380,388,345,2025-05-27T11:15:46.859012
402,-0.4675,0.4787,0.1161,43.470,4.760,128.205,415,407,386,392,377,2025-05-27T11:15:46.924304
403,-0.4226,0.4631,0.0917,36.155,2.205,120.400,416,404,353,409,398,2025-05-27T11:15:46.924304
404,-0.3767,0.4602,0.0722,29.435,-0.035,110.250,422,427,364,366,386,2025-05-27T11:15:46.924304
405,-0.3343,0.4597,0.0556,23.310,-1.365,99.260,425,413,330,395,348,2025-05-27T11:15:46.924304
406,-0.3113,0.4573,0.0581,17.710,-2.555,87.815,421,417,355,340,345,2025-05-27T11:15:47.058587
407,-0.2908,0.4392,0.0654,13.615,-5.670,76.475,406,434,376,372,351,2025-05-27T11:15:47.058587
408,-0.2811,0.4451,0.0644,10.115,-9.870,65.310,406,388,340,389,396,2025-05-27T11:15:47.058587
409,-0.2596,0.4524,0.0752,7.980,-15.610,56.525,409,381,361,412,397,2025-05-27T11:15:47.058587
410,-0.2381,0.4660,0.0878,5.880,-19.005,43.995,427,396,376,420,408,2025-05-27T11:15:47.058587
411,-0.2147,0.4870,0.1083,4.305,-18.480,31.500,413,427,376,416,392,2025-05-27T11:15:47.058587
412,-0.1801,0.4987,0.0864,2.520,-14.700,20.580,366,410,383,400,364,2025-05-27T11:15:47.058587
413,-0.1679,0.5344,0.1132,1.540,-9.625,10.570,373,418,385,396,337,2025-05-27T11:15:47.058587
414,-0.1742,0.5573,0.1410,-0.630,-5.390,1.330,391,348,375,404,387,2025-05-27T11:15:47.058587
415,-0.1893,0.5783,0.1645,-3.045,-0.525,-5.565,404,412,342,416,403,2025-05-27T11:15:47.058587
416,-0.2230,0.6007,0.1869,-5.110,2.275,-13.545,410,374,354,382,400,2025-05-27T11:15:47.058587
417,-0.2533,0.6427,0.2133,-6.930,2.240,-20.930,359,398,375,340,406,2025-05-27T11:15:47.058587
418,-0.2845,0.6817,0.2416,-7.910,0.280,-28.140,389,394,383,374,407,2025-05-27T11:15:47.058587
419,-0.3133,0.7237,0.2572,-8.925,-0.910,-35.245,390,429,386,400,405,2025-05-27T11:15:47.158656
420,-0.3348,0.7501,0.2713,-9.485,-2.205,-42.175,416,360,386,424,371,2025-05-27T11:15:47.158656
421,-0.3606,0.7847,0.3011,-9.730,-3.045,-47.250,396,415,372,383,376,2025-05-27T11:15:47.158656
422,-0.3684,0.8320,0.3172,-10.535,-1.925,-52.255,398,346,373,382,382,2025-05-27T11:15:47.158656
423,-0.3777,0.8838,0.3367,-12.110,2.765,-55.405,398,413,334,406,393,2025-05-27T11:15:47.158656
424,-0.3884,0.9223,0.3562,-13.895,10.220,-56.525,405,406,362,412,309,2025-05-27T11:15:47.158656
425,-0.4177,0.9438,0.3841,-15.855,15.995,-56.035,429,424,375,385,351,2025-05-27T11:15:47.158656
426,-0.4529,0.9243,0.4177,-17.885,21.735,-52.850,436,421,366,349,369,2025-05-27T11:15:47.158656
427,-0.5129,0.9272,0.4343,-18.655,22.610,-49.280,423,398,374,398,353,2025-05-27T11:15:47.275112
428,-0.5666,0.9360,0.4631,-18.725,20.545,-43.680,347,389,376,410,382,2025-05-27T11:15:47.275112
429,-0.6061,0.9345,0.4826,-17.955,17.780,-37.450,408,426,350,424,412,2025-05-27T11:15:47.275288
430,-0.6368,0.9487,0.4880,-15.995,15.540,-30.485,413,409,365,398,395,2025-05-27T11:15:47.275288
431,-0.6661,0.9433,0.4982,-13.300,12.425,-21.840,411,410,371,380,415,2025-05-27T11:15:47.275288
432,-0.6822,0.9409,0.5046,-9.590,8.995,-12.880,417,394,336,388,418,2025-05-27T11:15:47.275288
433,-0.6998,0.9379,0.4909,-5.670,6.510,-4.690,406,416,354,393,403,2025-05-27T11:15:47.275288
434,-0.7047,0.9218,0.4797,-1.680,3.360,1.295,415,417,362,346,399,2025-05-27T11:15:47.275288
435,-0.6954,0.9043,0.4568,2.205,0.210,8.400,402,407,371,380,407,2025-05-27T11:15:47.275288
436,-0.6725,0.8852,0.4294,5.565,-1.785,14.840,421,422,334,342,405,2025-05-27T11:15:47.375603
437,-0.6378,0.8667,0.3982,7.805,-1.960,20.300,398,347,359,377,402,2025-05-27T11:15:47.375603
438,-0.5949,0.8457,0.3670,9.695,-0.140,24.500,417,331,329,400,407,2025-05-27T11:15:47.375603
439,-0.5602,0.8223,0.3343,10.675,2.450,27.300,341,404,357,403,386,2025-05-27T11:15:47.375603
440,-0.5339,0.8008,0.3113,10.360,5.845,28.700,366,409,357,410,348,2025-05-27T11:15:47.375603
441,-0.5109,0.7867,0.2865,9.170,8.400,28.910,385,343,369,390,390,2025-05-27T11:15:47.375603
442,-0.4900,0.7671,0.2718,7.385,10.605,27.405,419,399,337,390,403,2025-05-27T11:15:47.375603
443,-0.4753,0.7466,0.2577,5.635,11.270,24.885,419,385,350,385,407,2025-05-27T11:15:47.375603
444,-0.4724,0.7291,0.2533,3.710,9.940,21.875,424,348,361,396,379,2025-05-27T11:15:47.475159
445,-0.4743,0.7105,0.2513,1.155,7.070,17.465,396,354,328,408,358,2025-05-27T11:15:47.475159
446,-0.4729,0.6964,0.2455,-1.225,3.850,12.460,396,366,358,417,375,2025-05-27T11:15:47.475159
447,-0.4626,0.6793,0.2420,-3.850,-0.315,8.155,386,425,365,417,392,2025-05-27T11:15:47.475159
448,-0.4568,0.6651,0.2420,-6.265,-4.165,2.660,367,398,375,352,406,2025-05-27T11:15:47.475159
449,-0.4499,0.6588,0.2455,-8.820,-7.035,-2.800,402,430,385,391,411,2025-05-27T11:15:47.475159
450,-0.4421,0.6481,0.2474,-10.815,-8.680,-8.505,423,407,380,405,390,2025-05-27T11:15:47.475159
451,-0.4407,0.6437,0.2542,-13.265,-9.135,-14.175,407,400,385,396,384,2025-05-27T11:15:47.475159
452,-0.4377,0.6403,0.2679,-15.715,-8.960,-18.480,399,410,377,384,361,2025-05-27T11:15:47.475159
453,-0.4577,0.6476,0.2806,-17.675,-9.240,-23.835,401,404,389,406,390,2025-05-27T11:15:47.475159
454,-0.4709,0.6627,0.3055,-18.515,-9.975,-28.350,395,404,379,413,386,2025-05-27T11:15:47.675252
455,-0.4812,0.6705,0.3255,-19.285,-10.850,-32.200,417,343,379,394,346,2025-05-27T11:15:47.675252
456,-0.5056,0.6876,0.3357,-19.320,-11.585,-35.245,420,421,341,384,378,2025-05-27T11:15:47.675252
457,-0.5275,0.6964,0.3504,-18.235,-12.005,-37.625,436,353,354,413,383,2025-05-27T11:15:47.675252
458,-0.5524,0.7120,0.3782,-16.975,-12.845,-38.885,421,389,361,403,375,2025-05-27T11:15:47.675252
459,-0.5714,0.7379,0.4041,-14.980,-12.985,-39.095,345,413,369,408,403,2025-05-27T11:15:47.675252
460,-0.5871,0.7647,0.4343,-12.915,-13.125,-37.590,403,399,364,404,353,2025-05-27T11:15:47.675252
461,-0.5954,0.7867,0.4558,-10.710,-11.060,-35.385,339,414,337,392,391,2025-05-27T11:15:47.675252
462,-0.5944,0.8072,0.4641,-8.505,-5.495,-31.570,374,398,367,408,353,2025-05-27T11:15:47.675252
463,-0.6076,0.8276,0.4748,-6.020,2.520,-27.405,389,421,370,309,357,2025-05-27T11:15:47.675252
464,-0.6246,0.8379,0.4851,-3.955,10.290,-21.980,415,402,373,320,380,2025-05-27T11:15:47.675252
465,-0.6432,0.8501,0.4929,-1.540,15.995,-15.715,396,394,347,317,400,2025-05-27T11:15:47.675252
466,-0.6695,0.8599,0.4900,0.945,21.350,-10.465,363,423,365,365,400,2025-05-27T11:15:47.675252
467,-0.6944,0.8579,0.4904,3.360,23.835,-4.165,415,401,366,383,396,2025-05-27T11:15:47.675252
468,-0.7139,0.8642,0.4865,5.600,23.765,1.610,420,379,376,415,384,2025-05-27T11:15:47.675252
469,-0.7183,0.8520,0.4690,7.070,21.630,6.475,418,377,340,415,343,2025-05-27T11:15:47.675252
470,-0.7218,0.8369,0.4436,8.470,16.800,10.640,415,404,374,357,379,2025-05-27T11:15:47.729148
471,-0.7218,0.8169,0.4299,9.660,11.445,13.860,423,400,343,375,398,2025-05-27T11:15:47.729148
472,-0.7154,0.7945,0.4119,10.780,3.500,15.855,370,387,371,389,391,2025-05-27T11:15:47.729148
473,-0.6969,0.7749,0.3933,11.550,-5.425,17.605,391,425,380,346,386,2025-05-27T11:15:47.729148
474,-0.6734,0.7584,0.3797,12.040,-14.630,18.270,430,434,382,395,403,2025-05-27T11:15:47.775270
475,-0.6427,0.7398,0.3606,12.005,-23.135,17.710,395,399,364,345,392,2025-05-27T11:15:47.775270
476,-0.6041,0.7227,0.3450,12.180,-29.960,16.205,398,397,374,378,397,2025-05-27T11:15:47.775270
477,-0.5719,0.7047,0.3396,11.585,-35.000,14.175,416,421,380,398,376,2025-05-27T11:15:47.775270
478,-0.5407,0.6930,0.3318,10.745,-37.485,11.690,421,401,385,344,393,2025-05-27T11:15:47.892251
479,-0.5192,0.6881,0.3192,9.870,-39.865,9.240,424,406,387,377,351,2025-05-27T11:15:47.892251
480,-0.4978,0.6764,0.3172,9.240,-40.495,5.565,388,426,379,394,385,2025-05-27T11:15:47.892251
481,-0.4699,0.6647,0.3050,8.470,-40.600,1.785,417,411,371,411,376,2025-05-27T11:15:47.892251
482,-0.4573,0.6568,0.2957,7.840,-39.760,-1.855,419,407,380,415,395,2025-05-27T11:15:47.892251
483,-0.4412,0.6544,0.2972,7.000,-36.855,-6.055,419,408,389,410,412,2025-05-27T11:15:47.892251
484,-0.4250,0.6632,0.3070,5.845,-32.830,-10.150,422,397,342,410,418,2025-05-27T11:15:47.892251
485,-0.4192,0.6612,0.3104,4.340,-26.670,-13.230,432,399,366,405,352,2025-05-27T11:15:47.892251
486,-0.4226,0.6647,0.3109,3.045,-20.860,-16.800,440,427,362,358,389,2025-05-27T11:15:47.892251
487,-0.4343,0.6603,0.3172,1.890,-15.925,-19.845,350,381,324,335,338,2025-05-27T11:15:47.991738
488,-0.4543,0.6608,0.3260,0.945,-12.320,-23.205,332,393,309,381,383,2025-05-27T11:15:47.991738
489,-0.4763,0.6564,0.3309,0.665,-10.325,-26.005,373,403,355,405,396,2025-05-27T11:15:47.991738
490,-0.4982,0.6612,0.3362,0.945,-10.955,-28.315,412,343,368,415,394,2025-05-27T11:15:47.991738
491,-0.5158,0.6642,0.3343,1.260,-12.215,-30.590,418,395,370,399,399,2025-05-27T11:15:47.991738
492,-0.5246,0.6715,0.3411,1.575,-13.055,-32.620,431,405,373,406,396,2025-05-27T11:15:47.991738
493,-0.5334,0.6783,0.3396,2.275,-14.315,-33.775,414,406,377,408,389,2025-05-27T11:15:47.991738
494,-0.5451,0.6812,0.3338,2.695,-15.260,-34.895,404,398,337,350,396,2025-05-27T11:15:47.991738
495,-0.5451,0.6910,0.3289,3.080,-14.595,-36.085,412,421,344,395,410,2025-05-27T11:15:47.991738
496,-0.5412,0.6939,0.3182,3.150,-11.515,-37.030,402,426,361,409,397,2025-05-27T11:15:48.053394
497,-0.5358,0.6959,0.3099,2.695,-6.650,-37.975,413,405,367,396,405,2025-05-27T11:15:48.053394
498,-0.5431,0.7032,0.3118,1.785,-0.560,-38.990,398,372,332,418,394,2025-05-27T11:15:48.053394
499,-0.5553,0.7022,0.3084,0.525,4.375,-40.600,396,422,353,393,386,2025-05-27T11:15:48.053394
500,-0.5695,0.6925,0.3109,-0.315,9.345,-41.930,423,401,367,383,399,2025-05-27T11:15:48.192658
501,-0.5802,0.7071,0.3167,-0.735,13.125,-43.190,416,382,333,401,410,2025-05-27T11:15:48.341504
502,-0.5998,0.7291,0.3274,-0.875,15.785,-44.485,400,353,351,348,352,2025-05-27T11:15:48.341504
503,-0.6071,0.7315,0.3284,-1.155,17.710,-45.815,407,333,367,386,392,2025-05-27T11:15:48.341504
504,-0.6163,0.7286,0.3440,-1.820,18.550,-46.235,409,401,374,356,405,2025-05-27T11:15:48.341504
505,-0.6285,0.7310,0.3675,-2.695,18.515,-45.360,399,410,384,382,409,2025-05-27T11:15:48.341504
506,-0.6466,0.7261,0.3914,-4.305,16.800,-44.065,393,392,358,390,352,2025-05-27T11:15:48.341504
507,-0.6720,0.7315,0.4143,-6.090,13.230,-42.035,420,373,373,411,379,2025-05-27T11:15:48.341504
508,-0.6871,0.7286,0.4255,-7.840,8.155,-40.215,396,426,379,391,379,2025-05-27T11:15:48.341504
509,-0.6988,0.7291,0.4358,-9.345,2.450,-37.835,403,420,379,384,378,2025-05-27T11:15:48.341504
510,-0.7081,0.7252,0.4436,-10.815,-1.995,-35.420,370,426,351,404,383,2025-05-27T11:15:48.341504
511,-0.7164,0.7135,0.4538,-12.320,-7.665,-33.600,402,414,331,387,343,2025-05-27T11:15:48.341504
512,-0.7291,0.7056,0.4607,-13.370,-13.055,-31.255,415,394,280,388,333,2025-05-27T11:15:48.408245
513,-0.7393,0.6944,0.4714,-14.035,-18.340,-29.155,424,369,340,414,333,2025-05-27T11:15:48.408245
514,-0.7466,0.6954,0.4729,-14.000,-22.995,-27.020,385,403,356,410,377,2025-05-27T11:15:48.408245
515,-0.7579,0.6852,0.4646,-12.915,-27.755,-24.780,415,402,380,359,335,2025-05-27T11:15:48.408245
516,-0.7525,0.6769,0.4568,-11.200,-31.045,-22.365,338,417,372,294,360,2025-05-27T11:15:48.408245
517,-0.7398,0.6681,0.4538,-8.855,-33.705,-19.985,395,414,378,380,369,2025-05-27T11:15:48.408245
518,-0.7247,0.6554,0.4573,-6.860,-34.475,-17.780,413,432,385,397,396,2025-05-27T11:15:48.408245
519,-0.7061,0.6505,0.4475,-4.970,-33.530,-15.260,400,383,368,390,348,2025-05-27T11:15:48.408245
520,-0.6842,0.6461,0.4475,-3.535,-30.730,-12.740,376,415,373,408,337,2025-05-27T11:15:48.408245
521,-0.6690,0.6398,0.4431,-2.030,-27.020,-10.745,390,420,381,382,375,2025-05-27T11:15:48.408245
522,-0.6588,0.6388,0.4343,-1.155,-23.170,-8.925,392,350,345,398,382,2025-05-27T11:15:48.408245
523,-0.6495,0.6334,0.4329,-0.315,-19.950,-7.315,381,399,367,407,392,2025-05-27T11:15:48.408245
524,-0.6427,0.6344,0.4314,0.385,-15.715,-6.090,397,390,376,372,393,2025-05-27T11:15:48.408245
525,-0.6373,0.6359,0.4309,0.455,-11.935,-5.355,395,420,371,407,399,2025-05-27T11:15:48.408245
526,-0.6398,0.6359,0.4236,0.350,-8.400,-5.320,425,427,334,350,345,2025-05-27T11:15:48.408245
527,-0.6422,0.6486,0.4168,0.385,-5.985,-5.320,396,416,320,396,390,2025-05-27T11:15:48.408245
528,-0.6612,0.6598,0.4168,0.595,-4.830,-5.845,422,404,349,407,401,2025-05-27T11:15:48.408245
529,-0.6744,0.6671,0.4182,1.190,-4.445,-6.195,423,422,361,408,348,2025-05-27T11:15:48.408245
530,-0.6812,0.6739,0.4192,1.645,-5.250,-6.300,418,413,364,388,334,2025-05-27T11:15:48.458830
531,-0.6920,0.6715,0.4168,2.135,-6.580,-5.670,429,421,372,409,321,2025-05-27T11:15:48.458830
532,-0.7017,0.6681,0.4187,2.555,-8.295,-4.690,417,417,376,398,362,2025-05-27T11:15:48.458830
533,-0.6998,0.6666,0.4211,2.835,-9.380,-3.010,407,397,386,402,400,2025-05-27T11:15:48.458830
534,-0.7017,0.6720,0.4299,2.765,-9.555,-1.295,422,405,373,406,391,2025-05-27T11:15:48.458830
535,-0.7061,0.6681,0.4333,2.065,-8.820,0.455,413,418,391,390,409,2025-05-27T11:15:48.513024
536,-0.7017,0.6656,0.4299,1.190,-8.120,2.940,396,431,386,400,403,2025-05-27T11:15:48.513024
537,-0.7032,0.6627,0.4314,0.070,-7.525,5.495,400,424,390,405,400,2025-05-27T11:15:48.513024
538,-0.7027,0.6529,0.4363,-0.805,-6.650,7.910,424,423,344,371,401,2025-05-27T11:15:48.513024
539,-0.7061,0.6451,0.4407,-1.960,-6.580,10.010,343,400,324,403,404,2025-05-27T11:15:48.608494
540,-0.7052,0.6417,0.4426,-3.010,-7.035,11.585,390,429,360,416,365,2025-05-27T11:15:48.608494
541,-0.7013,0.6373,0.4402,-3.850,-8.050,13.580,413,432,363,345,383,2025-05-27T11:15:48.608594
542,-0.7003,0.6315,0.4455,-4.515,-9.520,14.805,396,418,365,331,397,2025-05-27T11:15:48.608594
543,-0.6944,0.6276,0.4490,-4.970,-11.025,15.365,398,426,342,371,402,2025-05-27T11:15:48.608670
544,-0.6876,0.6212,0.4460,-5.250,-12.600,15.820,398,415,365,391,411,2025-05-27T11:15:48.608670
545,-0.6803,0.6154,0.4451,-5.005,-14.315,15.925,400,362,380,391,351,2025-05-27T11:15:48.608670
546,-0.6710,0.6168,0.4509,-4.690,-15.960,15.960,396,397,375,398,392,2025-05-27T11:15:48.709814
547,-0.6564,0.6202,0.4573,-4.480,-16.625,15.680,405,422,385,396,361,2025-05-27T11:15:48.709814
548,-0.6422,0.6202,0.4558,-4.270,-16.240,15.120,407,419,377,394,394,2025-05-27T11:15:48.709814
549,-0.6339,0.6163,0.4553,-3.675,-15.260,14.735,411,414,372,414,413,2025-05-27T11:15:48.709814
550,-0.6232,0.6232,0.4602,-3.395,-13.650,14.385,399,425,382,423,417,2025-05-27T11:15:48.709814
551,-0.6173,0.6320,0.4665,-3.255,-11.690,14.070,339,394,382,410,392,2025-05-27T11:15:48.709814
552,-0.6173,0.6383,0.4680,-3.290,-9.205,13.650,411,423,385,417,400,2025-05-27T11:15:48.709814
553,-0.6154,0.6373,0.4704,-2.975,-7.140,13.300,422,439,374,419,389,2025-05-27T11:15:48.709814
554,-0.6154,0.6412,0.4743,-2.660,-5.530,13.510,344,419,378,413,405,2025-05-27T11:15:48.709814
555,-0.6193,0.6398,0.4802,-2.415,-4.165,13.335,409,434,350,396,355,2025-05-27T11:15:48.808514
556,-0.6115,0.6378,0.4821,-2.380,-2.975,13.335,388,397,364,409,381,2025-05-27T11:15:48.808514
557,-0.6071,0.6324,0.4763,-2.310,-2.275,13.860,407,428,378,354,397,2025-05-27T11:15:48.808514
558,-0.6076,0.6271,0.4699,-2.240,-1.855,14.070,400,430,386,399,396,2025-05-27T11:15:48.808514
559,-0.6080,0.6246,0.4641,-2.520,-1.435,13.790,345,429,376,412,412,2025-05-27T11:15:48.808514
560,-0.6032,0.6168,0.4573,-2.905,-1.260,13.265,415,401,368,384,415,2025-05-27T11:15:48.808514
561,-0.6002,0.6110,0.4451,-3.570,-1.120,12.635,427,335,362,406,397,2025-05-27T11:15:48.808514
562,-0.5988,0.5998,0.4319,-4.095,-0.770,11.550,401,397,372,412,403,2025-05-27T11:15:48.808514
563,-0.6002,0.5983,0.4314,-4.655,-0.525,10.220,416,422,383,393,404,2025-05-27T11:15:48.913334
564,-0.6032,0.5885,0.4250,-5.495,-0.315,8.750,427,421,385,405,396,2025-05-27T11:15:48.913334
565,-0.6056,0.5812,0.4207,-6.300,-0.770,7.105,419,418,389,396,405,2025-05-27T11:15:48.913334
566,-0.6085,0.5768,0.4168,-6.930,-1.715,5.460,343,402,388,367,389,2025-05-27T11:15:48.913334
567,-0.6046,0.5734,0.4119,-7.105,-2.555,4.060,405,409,388,385,389,2025-05-27T11:15:48.913334
568,-0.6007,0.5739,0.4138,-7.315,-2.730,2.695,409,398,380,301,384,2025-05-27T11:15:48.913334
569,-0.5978,0.5773,0.4236,-7.490,-1.995,1.575,375,391,379,376,350,2025-05-27T11:15:48.913334
570,-0.5973,0.5817,0.4299,-7.840,-0.560,0.000,388,361,369,389,372,2025-05-27T11:15:48.913334
571,-0.6002,0.5851,0.4309,-7.910,0.700,-1.435,355,398,382,409,398,2025-05-27T11:15:48.913334
572,-0.6041,0.5949,0.4329,-7.980,1.925,-2.695,386,417,387,400,390,2025-05-27T11:15:49.018224
573,-0.6066,0.5993,0.4451,-7.665,2.835,-3.745,395,433,387,403,404,2025-05-27T11:15:49.018224
574,-0.6120,0.6056,0.4573,-7.420,3.640,-4.515,354,425,389,396,409,2025-05-27T11:15:49.018224
575,-0.6168,0.6124,0.4743,-6.755,3.675,-5.285,397,422,375,406,396,2025-05-27T11:15:49.018224
576,-0.6232,0.6217,0.4782,-5.740,3.535,-5.425,391,413,369,410,390,2025-05-27T11:15:49.018224
577,-0.6285,0.6246,0.4860,-5.145,2.975,-5.670,368,415,372,393,403,2025-05-27T11:15:49.018224
578,-0.6329,0.6349,0.4948,-3.990,2.485,-5.495,403,423,335,385,406,2025-05-27T11:15:49.018224
579,-0.6329,0.6388,0.5007,-3.080,1.925,-5.320,425,396,366,405,413,2025-05-27T11:15:49.018224
580,-0.6344,0.6446,0.5114,-2.030,1.610,-4.410,417,426,337,412,401,2025-05-27T11:15:49.108380
581,-0.6368,0.6486,0.5148,-1.295,1.365,-3.710,401,419,357,407,395,2025-05-27T11:15:49.108380
582,-0.6398,0.6529,0.5148,-0.875,1.295,-3.185,398,395,359,416,408,2025-05-27T11:15:49.108380
583,-0.6432,0.6534,0.5129,-0.525,0.735,-2.555,413,336,339,393,403,2025-05-27T11:15:49.108380
584,-0.6417,0.6520,0.5124,-0.140,-0.105,-1.575,406,355,349,399,395,2025-05-27T11:15:49.108380
585,-0.6398,0.6505,0.5134,0.070,-0.595,-1.015,398,400,331,406,351,2025-05-27T11:15:49.108380
586,-0.6364,0.6534,0.5134,0.000,-0.525,-0.420,415,423,357,391,377,2025-05-27T11:15:49.108380
587,-0.6339,0.6515,0.5100,0.175,-0.315,0.630,408,407,372,359,397,2025-05-27T11:15:49.108380
588,-0.6422,0.6437,0.4958,-0.070,-0.630,1.015,406,426,301,394,356,2025-05-27T11:15:49.108380
589,-0.6432,0.6432,0.4943,0.035,-1.015,1.470,424,402,339,345,382,2025-05-27T11:15:49.158452
590,-0.6349,0.6427,0.4856,0.140,-1.470,2.135,430,410,351,379,341,2025-05-27T11:15:49.158452
591,-0.6344,0.6412,0.4826,0.210,-1.610,2.625,403,343,353,392,379,2025-05-27T11:15:49.158452
592,-0.6329,0.6417,0.4738,-0.070,-1.575,3.010,407,395,358,402,409,2025-05-27T11:15:49.158452
593,-0.6315,0.6368,0.4636,-0.210,-1.785,3.325,393,399,373,388,413,2025-05-27T11:15:49.208547
594,-0.6305,0.6310,0.4577,-0.210,-2.135,3.535,406,394,378,396,399,2025-05-27T11:15:49.208547
595,-0.6295,0.6334,0.4592,-0.140,-2.485,3.570,422,345,370,405,384,2025-05-27T11:15:49.208547
596,-0.6222,0.6281,0.4582,-0.070,-2.695,3.535,371,324,344,393,392,2025-05-27T11:15:49.208547
597,-0.6129,0.6271,0.4480,-0.140,-2.800,3.430,409,382,364,351,392,2025-05-27T11:15:49.258811
598,-0.6100,0.6261,0.4451,0.000,-2.100,3.185,357,409,360,384,396,2025-05-27T11:15:49.258811
599,-0.6115,0.6237,0.4441,0.140,-1.295,2.940,359,405,371,396,353,2025-05-27T11:15:49.258811
600,-0.6061,0.6320,0.4548,0.245,-0.070,2.730,413,427,377,393,383,2025-05-27T11:15:49.258811
601,-0.6061,0.6266,0.4460,0.000,1.365,2.170,394,435,371,402,353,2025-05-27T11:15:49.308393
602,-0.6129,0.6227,0.4377,-0.945,2.590,1.050,413,396,382,375,359,2025-05-27T11:15:49.308393
603,-0.6193,0.6232,0.4421,-1.120,2.695,0.280,422,398,388,358,396,2025-05-27T11:15:49.308393
604,-0.6198,0.6193,0.4455,-1.120,2.450,0.175,423,414,391,374,411,2025-05-27T11:15:49.308393
605,-0.6271,0.6198,0.4563,-1.260,2.345,0.140,397,391,381,388,411,2025-05-27T11:15:49.308393
606,-0.6324,0.6256,0.4636,-1.890,3.080,-0.280,334,418,356,385,348,2025-05-27T11:15:49.375376
607,-0.6344,0.6261,0.4524,-2.415,2.835,-0.595,398,409,368,406,392,2025-05-27T11:15:49.375376
608,-0.6339,0.6217,0.4494,-2.695,1.960,-0.875,408,393,366,412,405,2025-05-27T11:15:49.375376
609,-0.6320,0.6207,0.4548,-2.800,1.400,-0.840,338,420,374,417,398,2025-05-27T11:15:49.375376
610,-0.6266,0.6261,0.4563,-3.080,1.645,-0.840,391,397,362,404,395,2025-05-27T11:15:49.608522
611,-0.6271,0.6242,0.4602,-3.395,2.205,-1.050,379,396,382,416,310,2025-05-27T11:15:49.608522
612,-0.6256,0.6232,0.4621,-3.745,3.325,-1.365,398,435,373,384,364,2025-05-27T11:15:49.608522
613,-0.6315,0.6202,0.4646,-3.955,4.130,-1.855,389,411,380,385,378,2025-05-27T11:15:49.608522
614,-0.6359,0.6183,0.4641,-3.885,4.375,-2.415,398,430,388,386,395,2025-05-27T11:15:49.608522
615,-0.6393,0.6188,0.4714,-3.955,4.025,-2.940,386,437,345,399,385,2025-05-27T11:15:49.608522
616,-0.6461,0.6149,0.4675,-4.025,3.360,-3.115,390,436,360,418,384,2025-05-27T11:15:49.608522
617,-0.6398,0.6163,0.4699,-4.235,3.080,-3.080,415,416,343,421,405,2025-05-27T11:15:49.608522
618,-0.6422,0.6290,0.4719,-4.025,2.625,-2.730,408,420,368,412,401,2025-05-27T11:15:49.608522
619,-0.6398,0.6368,0.4729,-3.920,2.695,-2.380,429,432,364,404,352,2025-05-27T11:15:49.608522
620,-0.6349,0.6012,0.4836,-3.185,3.150,-2.555,428,441,373,410,337,2025-05-27T11:15:49.608522
621,-0.6446,0.6617,0.4529,-4.550,3.360,-1.890,402,380,380,396,380,2025-05-27T11:15:49.608522
622,-0.6471,0.6539,0.4651,-3.850,3.185,-0.945,298,365,383,386,400,2025-05-27T11:15:49.608522
623,-0.6476,0.6564,0.4656,-3.675,3.465,0.035,369,405,385,395,394,2025-05-27T11:15:49.608522
624,-0.6520,0.6515,0.4646,-3.325,3.500,1.050,410,429,386,397,381,2025-05-27T11:15:49.608522
625,-0.6544,0.6476,0.4660,-2.870,3.570,1.960,392,361,382,399,338,2025-05-27T11:15:49.608522
626,-0.6627,0.6432,0.4680,-2.485,3.150,3.045,417,398,389,402,389,2025-05-27T11:15:49.608522
627,-0.6666,0.6388,0.4651,-2.240,2.345,3.815,424,414,376,425,380,2025-05-27T11:15:49.608522
628,-0.6647,0.6383,0.4646,-1.925,1.330,4.550,425,413,364,375,382,2025-05-27T11:15:49.608522
629,-0.6612,0.6383,0.4660,-1.610,0.770,5.040,420,359,373,386,404,2025-05-27T11:15:49.608522
630,-0.6525,0.6422,0.4660,-1.750,0.735,5.565,424,406,384,357,383,2025-05-27T11:15:49.608522
631,-0.6568,0.6378,0.4675,-2.065,0.875,5.810,347,412,378,379,402,2025-05-27T11:15:49.725267
632,-0.6578,0.6324,0.4587,-2.240,0.560,5.985,401,421,343,387,408,2025-05-27T11:15:49.725267
633,-0.6525,0.6315,0.4646,-2.625,0.455,6.090,394,408,334,410,405,2025-05-27T11:15:49.725267
634,-0.6529,0.6364,0.4699,-3.325,0.945,5.880,391,420,365,396,409,2025-05-27T11:15:49.725267
635,-0.6583,0.6324,0.4709,-4.200,1.155,5.775,425,406,381,401,402,2025-05-27T11:15:49.725267
636,-0.6647,0.6237,0.4660,-4.830,0.280,6.195,408,400,390,354,388,2025-05-27T11:15:49.725267
637,-0.6739,0.6178,0.4719,-4.900,-1.190,6.650,409,411,383,395,381,2025-05-27T11:15:49.725267
638,-0.6769,0.6149,0.4748,-5.145,-3.045,7.000,403,425,368,354,395,2025-05-27T11:15:49.725267
639,-0.6778,0.6061,0.4714,-5.110,-4.620,7.175,386,432,371,388,393,2025-05-27T11:15:49.725267
640,-0.6695,0.5983,0.4699,-4.655,-6.440,7.665,402,363,369,403,400,2025-05-27T11:15:49.794367
641,-0.6598,0.5939,0.4699,-4.060,-7.245,8.190,422,428,366,353,388,2025-05-27T11:15:49.794367
642,-0.6598,0.5866,0.4695,-3.325,-7.280,7.980,409,408,381,376,403,2025-05-27T11:15:49.794367
643,-0.6500,0.5876,0.4651,-2.240,-6.860,7.420,339,337,382,392,403,2025-05-27T11:15:49.794367
644,-0.6432,0.5788,0.4612,-1.120,-6.440,7.035,382,371,383,390,358,2025-05-27T11:15:49.794367
645,-0.6417,0.5758,0.4592,0.315,-6.370,6.230,401,337,376,405,371,2025-05-27T11:15:49.924825
646,-0.6437,0.5758,0.4612,1.925,-5.950,5.250,395,399,381,393,378,2025-05-27T11:15:49.924825
647,-0.6320,0.5768,0.4612,3.395,-5.250,3.850,341,392,336,409,397,2025-05-27T11:15:49.924825
648,-0.6242,0.5768,0.4626,4.515,-4.690,2.275,329,414,358,411,387,2025-05-27T11:15:49.924825
649,-0.6207,0.5793,0.4543,5.530,-4.620,0.805,398,404,373,389,380,2025-05-27T11:15:49.924825
650,-0.6051,0.5929,0.4490,6.510,-4.375,-0.630,373,399,377,397,393,2025-05-27T11:15:49.924825
651,-0.6012,0.6061,0.4455,7.210,-3.710,-2.065,398,369,376,410,407,2025-05-27T11:15:50.058740
652,-0.6056,0.6071,0.4519,7.735,-2.695,-3.325,407,413,337,404,358,2025-05-27T11:15:50.058740
653,-0.6076,0.6134,0.4514,8.155,-2.520,-4.480,421,429,355,411,372,2025-05-27T11:15:50.058740
654,-0.6154,0.6159,0.4514,8.365,-2.625,-5.355,403,404,293,347,387,2025-05-27T11:15:50.058740
655,-0.6178,0.6178,0.4529,8.470,-2.590,-6.265,387,386,337,332,343,2025-05-27T11:15:50.058740
656,-0.6271,0.6173,0.4485,8.365,-2.765,-7.280,397,406,365,370,371,2025-05-27T11:15:50.058740
657,-0.6285,0.6227,0.4421,8.050,-2.765,-7.875,385,394,344,342,387,2025-05-27T11:15:50.058740
658,-0.6305,0.6310,0.4436,7.315,-2.310,-8.470,408,342,324,387,402,2025-05-27T11:15:50.058740
659,-0.6290,0.6320,0.4426,6.230,-1.190,-8.715,423,413,359,387,390,2025-05-27T11:15:50.058740
660,-0.6339,0.6393,0.4377,5.110,0.420,-8.330,427,417,371,401,386,2025-05-27T11:15:50.058740
661,-0.6412,0.6427,0.4368,4.305,1.995,-7.105,424,397,384,390,393,2025-05-27T11:15:50.058740
662,-0.6568,0.6417,0.4392,3.220,3.150,-5.005,339,372,345,391,406,2025-05-27T11:15:50.058740
663,-0.6705,0.6422,0.4372,2.520,4.130,-2.905,285,421,369,391,390,2025-05-27T11:15:50.058740
664,-0.6842,0.6403,0.4319,2.030,4.690,0.490,382,349,333,407,384,2025-05-27T11:15:50.058740
665,-0.6988,0.6437,0.4324,1.890,5.320,3.325,383,378,363,402,352,2025-05-27T11:15:50.058740
666,-0.7008,0.6515,0.4329,1.715,6.195,5.775,421,336,369,391,391,2025-05-27T11:15:50.148124
667,-0.7086,0.6559,0.4319,1.015,6.860,7.595,405,401,366,352,353,2025-05-27T11:15:50.148124
668,-0.7144,0.6554,0.4343,0.000,7.245,8.295,413,389,380,387,395,2025-05-27T11:15:50.148124
669,-0.7222,0.6534,0.4553,-1.995,6.510,7.665,421,416,377,386,402,2025-05-27T11:15:50.148124
670,-0.7422,0.6276,0.4758,-4.200,2.485,5.180,403,401,366,348,393,2025-05-27T11:15:50.148124
671,-0.7593,0.5861,0.5065,-4.970,-8.085,2.625,390,375,360,374,392,2025-05-27T11:15:50.148124
672,-0.7627,0.5573,0.5139,-3.570,-21.140,0.385,346,408,365,394,388,2025-05-27T11:15:50.148124
673,-0.7544,0.5529,0.5061,0.140,-39.865,-1.680,403,406,370,395,393,2025-05-27T11:15:50.148124
674,-0.6925,0.5597,0.5056,5.355,-55.580,-4.060,416,407,364,412,389,2025-05-27T11:15:50.148124
675,-0.6105,0.5817,0.5080,12.810,-66.290,-6.965,409,428,365,411,391,2025-05-27T11:15:50.347066
676,-0.5358,0.6412,0.4865,13.650,-68.285,-8.750,408,391,363,396,365,2025-05-27T11:15:50.347066
677,-0.4699,0.6554,0.4729,16.030,-63.070,-10.640,391,392,362,396,397,2025-05-27T11:15:50.347066
678,-0.4260,0.6817,0.4670,16.625,-50.575,-13.545,410,344,378,374,383,2025-05-27T11:15:50.347066
679,-0.4148,0.7096,0.4616,15.715,-34.860,-16.205,421,387,377,391,400,2025-05-27T11:15:50.347066
680,-0.4270,0.7174,0.4626,13.300,-21.140,-18.305,391,408,387,394,395,2025-05-27T11:15:50.347066
681,-0.4587,0.7052,0.4597,10.290,-4.970,-19.110,415,420,386,388,403,2025-05-27T11:15:50.347066
682,-0.5183,0.6905,0.4568,7.525,7.735,-18.410,416,412,379,382,408,2025-05-27T11:15:50.347066
683,-0.5841,0.6730,0.4509,5.110,16.240,-16.240,391,420,371,395,418,2025-05-27T11:15:50.347066
684,-0.6446,0.6622,0.4563,3.010,20.580,-12.460,342,431,375,389,392,2025-05-27T11:15:50.347066
685,-0.7017,0.6486,0.4587,1.960,21.840,-7.980,364,433,368,299,400,2025-05-27T11:15:50.347066
686,-0.7432,0.6320,0.4499,1.050,20.230,-3.185,413,406,336,321,400,2025-05-27T11:15:50.347066
687,-0.7579,0.6178,0.4402,0.805,15.470,0.840,394,391,364,366,394,2025-05-27T11:15:50.347066
688,-0.7613,0.6085,0.4353,1.260,9.415,5.355,388,358,365,390,354,2025-05-27T11:15:50.347066
689,-0.7481,0.6100,0.4358,2.030,3.115,8.610,385,403,333,395,384,2025-05-27T11:15:50.347066
690,-0.7164,0.6178,0.4275,2.520,-1.995,10.220,395,394,366,372,391,2025-05-27T11:15:50.347066
691,-0.6920,0.6168,0.4153,2.975,-4.865,10.325,405,412,330,402,350,2025-05-27T11:15:50.347066
692,-0.6539,0.6222,0.4124,3.640,-6.440,10.010,399,410,328,413,389,2025-05-27T11:15:50.441878
693,-0.6290,0.6246,0.4187,3.955,-5.845,9.065,389,421,349,418,416,2025-05-27T11:15:50.441878
694,-0.6115,0.6242,0.4226,3.885,-4.865,8.085,406,377,369,400,412,2025-05-27T11:15:50.441878
695,-0.6022,0.6246,0.4368,3.535,-4.340,6.580,423,406,369,396,400,2025-05-27T11:15:50.441878
696,-0.6080,0.6212,0.4558,2.835,-4.585,3.815,431,414,371,395,388,2025-05-27T11:15:50.441878
697,-0.6168,0.6110,0.4743,1.925,-6.545,-8.190,413,425,366,363,377,2025-05-27T11:15:50.441878
698,-0.6281,0.6022,0.4880,1.960,-11.550,-3.325,405,390,363,392,394,2025-05-27T11:15:50.441878
699,-0.6256,0.5939,0.4943,3.080,-18.725,-7.070,412,375,370,388,403,2025-05-27T11:15:50.441878
700,-0.6202,0.5856,0.4948,5.145,-26.565,-10.220,416,409,332,359,389,2025-05-27T11:15:50.552183
701,-0.5983,0.5866,0.4973,7.420,-33.320,-12.775,407,418,328,356,409,2025-05-27T11:15:50.552183
702,-0.5627,0.6002,0.4934,10.220,-36.890,-14.595,415,410,355,395,410,2025-05-27T11:15:50.552183
703,-0.5300,0.6222,0.4860,12.530,-36.575,-16.030,421,429,374,364,400,2025-05-27T11:15:50.552183
704,-0.5104,0.6393,0.4778,14.070,-32.305,-17.535,411,391,364,378,406,2025-05-27T11:15:50.552183
705,-0.4992,0.6559,0.4778,14.805,-25.165,-19.565,398,417,327,382,350,2025-05-27T11:15:50.552183
706,-0.4973,0.6686,0.4831,14.945,-16.065,-21.385,422,409,342,357,387,2025-05-27T11:15:50.552183
707,-0.5095,0.6749,0.4787,14.490,-6.545,-22.855,424,404,333,391,379,2025-05-27T11:15:50.552183
708,-0.5368,0.6671,0.4690,13.790,1.680,-23.555,413,400,360,408,303,2025-05-27T11:15:50.552183
709,-0.5700,0.6598,0.4626,13.125,6.475,-23.030,406,377,365,394,383,2025-05-27T11:15:50.641832
710,-0.5910,0.6549,0.4607,12.425,10.605,-21.630,392,372,334,407,399,2025-05-27T11:15:50.641832
711,-0.6198,0.6573,0.4538,11.235,13.860,-19.250,413,402,371,402,413,2025-05-27T11:15:50.641832
712,-0.6417,0.6603,0.4358,9.730,16.310,-16.730,422,424,369,410,415,2025-05-27T11:15:50.641832
713,-0.6666,0.6632,0.4324,8.120,17.885,-13.860,397,416,337,414,360,2025-05-27T11:15:50.641832
714,-0.6900,0.6637,0.4319,6.895,18.340,-10.640,376,389,349,406,338,2025-05-27T11:15:50.641832
715,-0.7154,0.6603,0.4348,5.320,17.850,-7.315,337,388,368,420,379,2025-05-27T11:15:50.641832
716,-0.7340,0.6622,0.4397,3.780,16.170,-4.830,395,401,377,422,390,2025-05-27T11:15:50.641832
717,-0.7471,0.6573,0.4304,2.310,12.705,-1.855,357,340,368,424,406,2025-05-27T11:15:50.757906
718,-0.7579,0.6490,0.4207,1.330,8.120,0.910,405,379,363,409,385,2025-05-27T11:15:50.757971
719,-0.7491,0.6500,0.4226,0.630,3.815,3.185,410,394,362,420,364,2025-05-27T11:15:50.758021
720,-0.7369,0.6573,0.4265,-0.175,0.840,5.075,425,388,327,406,391,2025-05-27T11:15:50.758021
721,-0.7257,0.6544,0.4338,-1.330,-0.595,6.160,344,375,347,420,406,2025-05-27T11:15:50.758095
722,-0.7183,0.6446,0.4329,-2.660,-2.415,6.755,406,427,367,418,352,2025-05-27T11:15:50.758095
723,-0.7159,0.6339,0.4343,-3.920,-4.515,6.825,417,424,330,395,368,2025-05-27T11:15:50.758186
724,-0.7081,0.6212,0.4490,-4.760,-7.350,5.880,405,399,344,404,376,2025-05-27T11:15:50.758218
725,-0.6959,0.6080,0.4504,-5.250,-10.920,4.585,391,418,325,401,390,2025-05-27T11:15:50.758218
726,-0.6822,0.5919,0.4587,-4.970,-14.245,3.255,358,411,351,413,399,2025-05-27T11:15:50.858192
727,-0.6676,0.5856,0.4704,-4.270,-18.060,1.575,380,398,364,311,374,2025-05-27T11:15:50.858192
728,-0.6471,0.5788,0.4602,-3.010,-21.175,0.105,407,420,326,276,399,2025-05-27T11:15:50.858192
729,-0.6232,0.5802,0.4602,-1.505,-22.855,-1.540,398,426,359,370,414,2025-05-27T11:15:50.858192
730,-0.5919,0.5890,0.4553,0.350,-22.365,-2.870,401,420,366,388,400,2025-05-27T11:15:50.858192
731,-0.5656,0.6041,0.4475,1.680,-19.425,-4.095,386,349,382,407,407,2025-05-27T11:15:50.858192
732,-0.5441,0.6188,0.4460,2.870,-15.190,-5.145,413,404,378,412,416,2025-05-27T11:15:50.858192
733,-0.5334,0.6285,0.4407,3.535,-8.225,-5.845,420,351,381,416,400,2025-05-27T11:15:50.858192
734,-0.5388,0.6310,0.4363,3.815,-0.210,-6.650,379,389,385,403,406,2025-05-27T11:15:50.958085
735,-0.5592,0.6344,0.4333,3.815,6.545,-6.895,355,417,365,404,370,2025-05-27T11:15:50.958085
736,-0.5880,0.6344,0.4290,3.815,11.060,-7.035,408,415,369,406,345,2025-05-27T11:15:50.958085
737,-0.6105,0.6300,0.4309,3.850,13.650,-7.070,401,429,367,409,393,2025-05-27T11:15:50.958085
738,-0.6368,0.6281,0.4299,3.745,14.630,-6.405,337,393,375,413,387,2025-05-27T11:15:50.958085
739,-0.6573,0.6266,0.4280,3.605,14.630,-6.160,391,386,342,393,374,2025-05-27T11:15:50.958085
740,-0.6773,0.6251,0.4221,3.430,13.405,-5.460,417,415,364,356,391,2025-05-27T11:15:50.958085
741,-0.6934,0.6256,0.4221,3.080,11.515,-4.760,422,392,375,392,394,2025-05-27T11:15:50.958085
742,-0.7052,0.6246,0.4241,2.590,9.415,-3.990,301,398,348,408,395,2025-05-27T11:15:50.958085
743,-0.7144,0.6178,0.4231,1.890,6.825,-2.905,377,392,335,390,345,2025-05-27T11:15:51.058453
744,-0.7193,0.6168,0.4265,0.875,5.075,-1.855,385,393,361,388,391,2025-05-27T11:15:51.058453
745,-0.7154,0.6129,0.4221,-0.560,3.395,-0.980,417,414,335,394,363,2025-05-27T11:15:51.058453
746,-0.7017,0.6154,0.4250,-2.065,2.660,0.175,393,420,362,408,380,2025-05-27T11:15:51.058453
747,-0.6891,0.6193,0.4255,-3.640,3.080,1.120,363,399,375,401,388,2025-05-27T11:15:51.058453
748,-0.6744,0.6217,0.4309,-4.865,4.480,1.575,339,418,383,395,390,2025-05-27T11:15:51.058453
749,-0.6676,0.6251,0.4324,-6.230,5.390,2.100,406,415,378,414,408,2025-05-27T11:15:51.058453
750,-0.6690,0.6305,0.4348,-7.280,6.335,2.240,401,415,381,424,397,2025-05-27T11:15:51.058453
751,-0.6720,0.6329,0.4363,-7.735,6.230,2.205,403,341,380,410,393,2025-05-27T11:15:51.058453
752,-0.6730,0.6295,0.4397,-7.875,4.970,2.170,391,399,374,421,402,2025-05-27T11:15:51.108265
753,-0.6739,0.6271,0.4436,-7.595,2.975,2.380,424,299,364,396,400,2025-05-27T11:15:51.108265
754,-0.6681,0.6281,0.4480,-6.685,1.225,2.625,417,380,378,372,369,2025-05-27T11:15:51.108265
755,-0.6608,0.6266,0.4441,-5.565,-0.525,2.800,396,390,368,343,387,2025-05-27T11:15:51.108265
756,-0.6554,0.6242,0.4387,-4.095,-1.435,3.150,397,331,366,353,391,2025-05-27T11:15:51.358406
757,-0.6451,0.6207,0.4431,-2.415,-1.260,3.395,421,403,379,392,351,2025-05-27T11:15:51.358406
758,-0.6451,0.6193,0.4421,-1.365,-0.175,3.325,410,421,383,402,378,2025-05-27T11:15:51.358406
759,-0.6442,0.6163,0.4387,-0.105,0.945,3.045,412,421,371,392,358,2025-05-27T11:15:51.358406
760,-0.6481,0.6076,0.4382,1.085,2.415,2.695,408,411,374,409,373,2025-05-27T11:15:51.358406
761,-0.6544,0.6032,0.4441,2.240,3.255,2.590,398,410,372,394,387,2025-05-27T11:15:51.358406
762,-0.6666,0.5934,0.4460,3.290,3.465,2.345,412,407,376,359,390,2025-05-27T11:15:51.358406
763,-0.6764,0.5880,0.4480,3.990,2.975,1.645,398,399,367,385,386,2025-05-27T11:15:51.358406
764,-0.6812,0.5827,0.4470,4.795,2.345,0.840,401,430,381,404,412,2025-05-27T11:15:51.358406
765,-0.6812,0.5788,0.4494,4.900,1.750,0.210,393,417,382,420,363,2025-05-27T11:15:51.358406
766,-0.6759,0.5778,0.4490,4.445,1.820,-0.385,388,420,391,419,380,2025-05-27T11:15:51.358406
767,-0.6730,0.5763,0.4490,3.780,2.380,-0.700,347,396,381,421,379,2025-05-27T11:15:51.358406
768,-0.6725,0.5788,0.4426,2.975,3.150,-1.050,377,393,374,416,344,2025-05-27T11:15:51.358406
769,-0.6681,0.5822,0.4363,1.715,3.500,-1.540,414,398,342,405,389,2025-05-27T11:15:51.358406
770,-0.6656,0.5915,0.4348,0.315,4.340,-1.995,394,426,367,353,339,2025-05-27T11:15:51.358406
771,-0.6622,0.5929,0.4338,-0.980,4.830,-2.205,427,417,363,398,375,2025-05-27T11:15:51.358406
772,-0.6608,0.5910,0.4368,-1.925,4.725,-1.890,426,405,371,408,400,2025-05-27T11:15:51.358406
773,-0.6627,0.5880,0.4319,-2.940,4.655,-1.575,427,398,343,389,380,2025-05-27T11:15:51.358406
774,-0.6588,0.5924,0.4368,-3.955,4.550,-1.400,399,409,356,388,344,2025-05-27T11:15:51.358406
775,-0.6525,0.5973,0.4407,-5.110,5.180,-1.330,353,404,332,403,385,2025-05-27T11:15:51.358406
776,-0.6486,0.6037,0.4402,-6.090,5.810,-0.945,408,399,358,376,355,2025-05-27T11:15:51.358406
777,-0.6500,0.6051,0.4372,-6.475,6.580,-0.455,416,429,366,380,397,2025-05-27T11:15:51.458168
778,-0.6481,0.6154,0.4485,-6.965,7.315,0.385,422,402,375,386,402,2025-05-27T11:15:51.458168
779,-0.6505,0.6300,0.4587,-7.595,9.170,1.155,386,405,377,382,347,2025-05-27T11:15:51.458168
780,-0.6573,0.6368,0.4719,-8.155,11.165,2.275,415,421,339,395,394,2025-05-27T11:15:51.458168
781,-0.6798,0.6412,0.4778,-7.910,12.355,4.060,391,392,359,403,405,2025-05-27T11:15:51.458168
782,-0.7096,0.6456,0.4982,-7.245,11.935,6.405,394,396,374,413,392,2025-05-27T11:15:51.458168
783,-0.7422,0.6642,0.5295,-5.775,10.710,9.485,406,399,380,372,400,2025-05-27T11:15:51.458168
784,-0.7549,0.6817,0.5592,-3.010,9.065,12.495,417,405,385,379,389,2025-05-27T11:15:51.458168
785,-0.7828,0.7159,0.5876,1.470,8.505,16.765,412,359,376,401,383,2025-05-27T11:15:51.458168
786,-0.8076,0.7530,0.6037,7.245,9.450,21.490,400,406,344,391,405,2025-05-27T11:15:51.575061
787,-0.8203,0.7735,0.6227,12.495,12.040,27.230,340,410,372,378,376,2025-05-27T11:15:51.575061
788,-0.8242,0.7847,0.6417,19.600,16.205,35.140,390,394,380,387,394,2025-05-27T11:15:51.575061
789,-0.8096,0.7881,0.6256,26.880,21.280,45.535,399,414,342,407,397,2025-05-27T11:15:51.575061
790,-0.7950,0.8120,0.6076,33.040,30.870,54.460,413,400,330,418,398,2025-05-27T11:15:51.575061
791,-0.7696,0.8286,0.5783,37.415,43.155,65.485,403,412,328,419,347,2025-05-27T11:15:51.575061
792,-0.7496,0.8525,0.5431,39.760,55.125,75.740,407,409,350,405,386,2025-05-27T11:15:51.575061
793,-0.7300,0.8599,0.4885,40.355,65.450,84.455,391,391,366,408,398,2025-05-27T11:15:51.575061
794,-0.7091,0.8599,0.4338,39.270,73.080,91.595,417,418,368,360,389,2025-05-27T11:15:51.658470
795,-0.6978,0.8579,0.3816,36.750,76.195,96.635,345,423,362,399,395,2025-05-27T11:15:51.658470
796,-0.6920,0.8428,0.3328,32.935,75.495,99.260,374,436,365,384,389,2025-05-27T11:15:51.658470
797,-0.6837,0.8213,0.2835,28.805,70.560,100.065,417,439,378,412,410,2025-05-27T11:15:51.658470
798,-0.6695,0.7920,0.2377,24.605,61.285,99.575,409,424,387,399,409,2025-05-27T11:15:51.658470
799,-0.6349,0.7603,0.2098,19.880,50.050,98.105,415,403,383,401,405,2025-05-27T11:15:51.658470
800,-0.5880,0.7359,0.1767,15.680,39.305,94.850,405,406,393,391,397,2025-05-27T11:15:51.658470
801,-0.5441,0.7144,0.1420,10.150,29.295,89.915,410,428,395,402,410,2025-05-27T11:15:51.815278
802,-0.5056,0.6959,0.1181,4.970,21.560,83.685,417,429,381,397,398,2025-05-27T11:15:51.815278
803,-0.4685,0.6749,0.0942,0.070,12.740,76.545,427,398,371,385,387,2025-05-27T11:15:51.815278
804,-0.4260,0.6603,0.0791,-4.515,7.070,70.490,431,412,381,344,358,2025-05-27T11:15:51.815278
805,-0.3860,0.6510,0.0561,-8.680,3.885,63.420,422,408,344,386,394,2025-05-27T11:15:51.815278
806,-0.3660,0.6500,0.0464,-12.075,2.695,56.420,408,393,359,385,387,2025-05-27T11:15:51.815278
807,-0.3509,0.6456,0.0361,-14.385,2.555,49.455,407,393,365,401,389,2025-05-27T11:15:51.815278
808,-0.3509,0.6466,0.0229,-16.625,2.625,41.965,392,364,363,406,350,2025-05-27T11:15:51.815278
809,-0.3577,0.6354,0.0112,-17.920,2.310,35.700,392,355,371,400,383,2025-05-27T11:15:51.815278
810,-0.3689,0.6339,0.0044,-18.725,0.805,27.475,336,352,364,352,379,2025-05-27T11:15:51.815278
811,-0.3836,0.6188,-0.1244,-19.145,-0.455,18.340,372,356,379,367,391,2025-05-27T11:15:51.815278
812,-0.3928,0.6163,-0.0005,-19.110,-0.980,8.715,410,406,380,402,409,2025-05-27T11:15:51.975156
813,-0.4119,0.6256,-0.0010,-18.620,-1.820,-0.840,402,432,347,396,407,2025-05-27T11:15:51.975156
814,-0.4290,0.6515,0.0005,-17.535,-2.835,-9.345,385,422,326,412,370,2025-05-27T11:15:51.975156
815,-0.4519,0.6695,0.0142,-16.485,-5.040,-15.365,395,399,359,414,342,2025-05-27T11:15:51.975156
816,-0.4807,0.6852,0.0551,-15.820,-9.170,-21.420,420,411,372,419,382,2025-05-27T11:15:51.975156
817,-0.5134,0.6969,0.0869,-15.470,-15.645,-25.200,305,401,367,399,393,2025-05-27T11:15:51.975156
818,-0.5436,0.7164,0.1205,-15.085,-23.345,-27.300,393,428,369,415,395,2025-05-27T11:15:51.975156
819,-0.5617,0.7501,0.1527,-14.070,-30.905,-28.070,416,373,367,409,350,2025-05-27T11:15:51.975156
820,-0.5763,0.7803,0.1825,-12.075,-36.155,-28.175,415,396,364,410,373,2025-05-27T11:15:51.975156
821,-0.5812,0.8257,0.2142,-9.625,-41.895,-27.650,425,395,379,399,398,2025-05-27T11:15:51.975156
822,-0.5807,0.8725,0.2596,-7.315,-46.270,-25.690,347,411,379,399,396,2025-05-27T11:15:51.975156
823,-0.5729,0.9199,0.2987,-5.635,-48.965,-22.960,396,404,370,390,389,2025-05-27T11:15:51.975156
824,-0.5636,0.9540,0.3265,-4.375,-50.050,-19.950,411,340,368,373,393,2025-05-27T11:15:51.975156
825,-0.5397,0.9833,0.3562,-3.290,-49.490,-16.135,396,403,371,372,399,2025-05-27T11:15:51.975156
826,-0.5261,1.0063,0.3762,-1.575,-47.460,-12.390,391,416,335,379,395,2025-05-27T11:15:51.975156
827,-0.5275,1.0243,0.3987,0.350,-44.240,-9.450,392,399,347,376,407,2025-05-27T11:15:51.975156
828,-0.5295,1.0321,0.3967,2.730,-41.580,-6.755,417,342,363,383,404,2025-05-27T11:15:52.192486
829,-0.5266,1.0136,0.3870,5.110,-39.865,-2.695,384,412,383,389,409,2025-05-27T11:15:52.192486
830,-0.5090,0.9897,0.3802,6.860,-37.205,1.960,408,373,371,404,353,2025-05-27T11:15:52.192486
831,-0.5285,0.9531,0.3684,7.980,-33.670,5.215,415,412,374,414,397,2025-05-27T11:15:52.192486
832,-0.5007,0.8926,0.3128,8.400,-29.715,6.370,434,300,337,407,385,2025-05-27T11:15:52.192486
833,-0.4880,0.8111,0.2460,8.540,-25.340,5.845,393,318,320,373,399,2025-05-27T11:15:52.192486
834,-0.4797,0.7305,0.2059,7.070,-17.815,3.255,413,397,341,396,393,2025-05-27T11:15:52.192486
835,-0.4924,0.6608,0.1957,4.025,-10.955,-0.910,404,351,315,417,391,2025-05-27T11:15:52.192486
836,-0.5202,0.5710,0.1825,0.315,-7.945,-5.565,413,409,354,417,344,2025-05-27T11:15:52.192486
837,-0.5358,0.4851,0.1581,-2.485,-8.645,-10.290,403,395,359,405,382,2025-05-27T11:15:52.192486
838,-0.5466,0.4099,0.1435,-5.215,-11.760,-15.225,418,396,368,410,402,2025-05-27T11:15:52.192486
839,-0.5588,0.3621,0.1606,-7.455,-14.945,-21.630,419,417,381,392,369,2025-05-27T11:15:52.192486
840,-0.5685,0.3221,0.2186,-8.645,-21.805,-27.125,389,431,367,415,369,2025-05-27T11:15:52.192486
841,-0.5895,0.2806,0.2757,-7.420,-34.405,-33.670,394,432,383,414,299,2025-05-27T11:15:52.192486
842,-0.5958,0.2420,0.3055,-3.290,-51.695,-42.105,418,431,368,408,336,2025-05-27T11:15:52.192486
843,-0.5529,0.2440,0.3323,1.540,-68.635,-53.445,395,411,361,397,379,2025-05-27T11:15:52.192486
844,-0.4890,0.2826,0.3499,8.085,-80.535,-66.185,385,413,381,419,378,2025-05-27T11:15:52.192486
845,-0.4377,0.3338,0.3777,14.280,-86.380,-79.835,416,431,338,418,386,2025-05-27T11:15:52.192486
846,-0.4304,0.4621,0.4421,20.160,-91.735,-90.685,430,418,322,418,386,2025-05-27T11:15:52.391054
847,-0.4646,0.5666,0.4778,24.815,-98.175,-103.880,426,414,320,364,384,2025-05-27T11:15:52.391054
848,-0.4621,0.7076,0.5251,25.970,-106.015,-113.575,384,422,360,359,376,2025-05-27T11:15:52.391176
849,-0.3841,0.9306,0.5500,22.015,-109.060,-117.600,387,396,327,397,383,2025-05-27T11:15:52.391176
850,-0.3196,1.2029,0.5846,10.080,-102.060,-118.020,413,417,365,347,340,2025-05-27T11:15:52.391283
851,-0.2982,1.6533,0.5807,-5.635,-89.215,-116.760,366,392,364,379,385,2025-05-27T11:15:52.391283
852,-0.3484,2.0433,0.5744,-32.340,-79.485,-109.585,397,390,366,384,347,2025-05-27T11:15:52.391340
853,-0.3865,2.5610,0.6124,-63.000,-72.870,-93.765,414,430,375,405,373,2025-05-27T11:15:52.391340
854,-0.4377,2.9236,0.6334,-96.075,-74.305,-73.675,390,411,374,364,380,2025-05-27T11:15:52.391340
855,-0.5295,3.0573,0.6271,-130.760,-84.735,-39.690,390,359,362,364,402,2025-05-27T11:15:52.391340
856,-0.5880,3.1578,0.6061,-163.975,-108.360,1.155,355,414,372,369,346,2025-05-27T11:15:52.391340
857,-0.7261,3.2642,0.5588,-185.675,-146.440,46.795,359,388,343,393,330,2025-05-27T11:15:52.391340
858,-0.8316,3.4516,0.4685,-200.340,-197.050,98.665,399,420,319,412,389,2025-05-27T11:15:52.391340
859,-0.8496,3.4399,0.3167,-210.350,-238.735,150.080,411,427,344,409,395,2025-05-27T11:15:52.391340
860,-0.7432,3.2140,0.2094,-216.160,-256.935,201.425,404,374,325,376,411,2025-05-27T11:15:52.391340
861,-0.5617,2.8314,0.0132,-215.775,-263.445,255.045,401,402,361,410,410,2025-05-27T11:15:52.391340
862,-0.4553,2.7113,-0.1254,-207.690,-256.130,294.105,395,403,364,358,397,2025-05-27T11:15:52.591517
863,-0.5773,2.7679,-0.1864,-194.425,-241.570,319.970,395,391,362,339,387,2025-05-27T11:15:52.591517
864,-0.7354,2.7440,-0.3016,-182.665,-223.650,322.945,415,393,331,388,354,2025-05-27T11:15:52.591517
865,-0.9150,2.6406,-0.3133,-167.790,-210.000,308.840,369,418,358,403,386,2025-05-27T11:15:52.591517
866,-1.0702,2.5147,-0.3494,-144.865,-198.065,280.840,361,422,376,373,386,2025-05-27T11:15:52.591517
867,-1.1414,2.2350,-0.4509,-139.510,-197.855,237.055,361,420,378,297,300,2025-05-27T11:15:52.591517
868,-1.1619,1.8954,-0.5285,-129.815,-206.780,181.825,364,428,374,314,380,2025-05-27T11:15:52.591517
869,-1.1107,1.4752,-0.6417,-119.945,-225.015,117.145,418,409,377,371,389,2025-05-27T11:15:52.591517
870,-0.9633,1.0365,-0.6398,-116.095,-239.260,65.345,400,431,367,400,403,2025-05-27T11:15:52.591517
871,-0.7164,0.3621,-0.2489,-119.665,-219.590,-14.455,389,402,380,415,384,2025-05-27T11:15:52.591517
872,-0.5383,-0.4211,-0.1752,-123.830,-171.185,-103.705,419,403,374,401,398,2025-05-27T11:15:52.591517
873,-0.3670,-2.0018,0.0981,-160.790,-90.055,-183.540,362,422,383,401,402,2025-05-27T11:15:52.591517
874,-0.6368,-4.0323,0.5104,-216.685,1.645,-261.135,392,431,385,391,386,2025-05-27T11:15:52.591517
875,-0.8740,-5.1464,0.3977,-237.230,-8.330,-280.665,396,439,384,392,388,2025-05-27T11:15:52.591517
876,-0.7247,-5.5232,0.6134,-238.140,-62.860,-253.820,368,424,347,379,387,2025-05-27T11:15:52.591517
877,-0.3587,-4.4720,0.4626,-192.605,-176.890,-181.475,408,427,369,383,406,2025-05-27T11:15:52.591517
878,0.7013,-3.2920,0.1200,-138.915,-241.115,-128.590,410,407,365,385,404,2025-05-27T11:15:52.591517
879,1.7851,-2.4551,0.0669,-89.880,-210.805,-93.415,415,419,358,416,406,2025-05-27T11:15:52.691323
880,2.2863,-1.4679,0.1088,-67.970,-35.420,-56.490,413,408,366,375,404,2025-05-27T11:15:52.691323
881,2.0711,-0.8686,0.3728,-67.095,110.950,-44.835,358,423,363,392,390,2025-05-27T11:15:52.691323
882,1.5836,-0.7017,0.8359,-75.215,176.190,-43.540,401,393,376,403,398,2025-05-27T11:15:52.691323
883,1.2859,-0.6495,1.1624,-72.100,146.055,-30.520,414,424,372,355,381,2025-05-27T11:15:52.691323
884,1.2644,-0.5934,1.3747,-65.345,108.255,-17.605,392,434,385,385,388,2025-05-27T11:15:52.691323
885,1.1897,-0.6344,1.5479,-55.335,112.315,-12.320,402,402,376,412,389,2025-05-27T11:15:52.691323
886,1.1663,-0.7047,1.4562,-38.150,150.500,-0.245,385,412,388,417,397,2025-05-27T11:15:52.691323
887,0.9223,-0.7842,1.5382,-14.385,180.355,18.060,411,399,385,391,403,2025-05-27T11:15:52.791485
888,0.5129,-0.8252,1.6275,12.075,185.290,46.760,416,402,374,405,389,2025-05-27T11:15:52.791485
889,0.2035,-0.9365,1.6382,34.335,171.045,78.575,425,417,379,402,393,2025-05-27T11:15:52.791485
890,0.1425,-0.9892,1.6416,55.825,153.720,115.675,413,401,386,405,401,2025-05-27T11:15:52.791485
891,0.0683,-1.1175,1.5572,71.575,152.705,145.495,402,387,385,421,346,2025-05-27T11:15:52.791485
892,0.0034,-1.2732,1.5123,91.070,162.680,166.565,363,415,341,392,378,2025-05-27T11:15:52.791485
893,-0.1074,-1.3293,1.4118,110.810,177.765,179.900,400,357,360,360,407,2025-05-27T11:15:52.791485
894,-0.2098,-1.2732,1.3571,128.870,185.955,185.920,411,330,364,381,372,2025-05-27T11:15:52.791485
895,-0.3187,-1.1785,1.2859,142.975,189.280,188.930,396,399,378,390,397,2025-05-27T11:15:52.791485
896,-0.3543,-0.9833,1.1351,152.600,188.545,188.790,395,422,380,405,397,2025-05-27T11:15:52.891390
897,-0.4490,-0.7315,0.9550,157.850,188.580,180.460,414,410,378,417,391,2025-05-27T11:15:52.891390
898,-0.3314,-0.4665,0.8501,156.800,194.600,170.170,393,425,383,393,399,2025-05-27T11:15:52.891390
899,-0.3211,-0.2045,0.7979,154.560,206.885,162.435,392,414,392,412,401,2025-05-27T11:15:52.891390
900,-0.4851,-0.0742,0.7462,155.435,202.580,146.195,415,416,348,372,393,2025-05-27T11:15:52.891390
901,-0.4895,0.1298,0.6334,163.975,175.945,130.410,419,397,373,332,352,2025-05-27T11:15:52.891390
902,-0.4509,0.0542,0.5539,177.345,133.910,116.270,404,373,380,394,358,2025-05-27T11:15:52.891390
903,-0.4363,0.1952,0.3450,183.995,103.810,97.650,421,394,371,409,372,2025-05-27T11:15:52.891390
904,-0.2962,0.3260,0.1440,189.035,91.805,76.440,423,405,365,392,399,2025-05-27T11:15:53.007918
905,-0.1659,0.4114,0.0107,191.380,100.135,57.470,400,377,369,407,399,2025-05-27T11:15:53.007918
906,-0.1737,0.4324,-0.0493,193.795,115.815,44.625,386,413,367,392,387,2025-05-27T11:15:53.007918
907,-0.1562,0.4094,-0.1132,198.030,125.615,38.185,332,404,366,415,400,2025-05-27T11:15:53.007918
908,-0.2440,0.3665,-0.2040,206.605,126.735,34.510,411,403,377,420,350,2025-05-27T11:15:53.007918
909,-0.3226,0.4207,-0.3152,219.695,121.800,32.375,429,426,352,408,391,2025-05-27T11:15:53.007918
910,-0.2948,0.5485,-0.4480,238.700,112.560,32.655,411,416,372,365,389,2025-05-27T11:15:53.007918
911,-0.3499,0.7486,-0.5490,258.475,108.815,32.690,393,400,367,396,394,2025-05-27T11:15:53.007918
912,-0.2816,0.6281,-0.6056,279.510,109.655,28.735,378,416,331,380,410,2025-05-27T11:15:53.007918
913,-0.2533,0.6739,-0.6315,297.150,115.255,25.200,411,392,365,403,405,2025-05-27T11:15:53.108110
914,-0.0878,0.9418,-0.5998,302.855,121.730,25.935,410,426,368,396,405,2025-05-27T11:15:53.108110
915,-0.0293,1.2395,-0.5612,295.680,132.615,36.645,409,346,365,389,415,2025-05-27T11:15:53.108110
916,0.0132,1.4416,-0.5344,285.145,141.190,49.035,415,389,373,405,391,2025-05-27T11:15:53.108110
917,0.0307,1.6480,-0.4797,268.415,140.210,58.240,416,370,332,347,393,2025-05-27T11:15:53.108110
918,0.0176,1.9432,-0.3479,248.010,130.725,61.775,344,336,355,397,395,2025-05-27T11:15:53.108110
919,0.0625,2.4054,-0.1415,204.050,119.700,61.145,388,352,371,391,381,2025-05-27T11:15:53.108110
920,0.2655,2.9495,0.0644,143.115,107.905,63.140,403,410,375,403,392,2025-05-27T11:15:53.108110
921,0.3831,3.4936,0.3128,59.850,110.250,72.100,422,405,361,411,390,2025-05-27T11:15:53.219627
922,0.3192,3.5785,0.4397,-25.830,120.890,83.020,414,422,373,393,342,2025-05-27T11:15:53.219627
923,0.1376,3.0822,0.3802,-92.540,118.090,77.000,386,440,386,405,367,2025-05-27T11:15:53.219627
924,-0.1347,2.4664,0.2499,-123.725,79.065,61.985,393,401,382,411,370,2025-05-27T11:15:53.219627
925,-0.3118,1.9032,0.1864,-133.840,35.735,44.870,406,406,379,396,397,2025-05-27T11:15:53.219627
926,-0.2396,1.4943,0.1015,-126.875,-26.880,40.880,398,349,378,415,399,2025-05-27T11:15:53.219627
927,-0.1093,1.2210,0.0908,-111.475,-76.685,46.270,412,359,373,420,393,2025-05-27T11:15:53.219627
928,-0.0869,1.0941,0.1679,-98.525,-106.400,46.445,392,357,379,390,405,2025-05-27T11:15:53.219627
929,0.0127,0.9550,0.1757,-91.770,-113.400,37.555,406,386,381,412,356,2025-05-27T11:15:53.219627
930,0.1230,0.7974,0.1518,-89.355,-100.800,27.230,427,405,336,408,379,2025-05-27T11:15:53.408377
931,0.1962,0.6725,0.1444,-86.415,-72.275,18.550,408,375,352,312,337,2025-05-27T11:15:53.408377
932,0.2377,0.5778,0.1200,-82.285,-38.955,12.530,401,405,367,371,383,2025-05-27T11:15:53.408377
933,0.2196,0.4812,0.1166,-74.970,-13.020,6.755,385,415,373,381,400,2025-05-27T11:15:53.408377
934,0.1757,0.4329,0.1444,-66.745,19.005,1.890,415,422,384,409,395,2025-05-27T11:15:53.408377
935,0.1303,0.3982,0.1781,-58.695,44.065,-2.415,418,408,354,409,377,2025-05-27T11:15:53.408377
936,0.0366,0.3528,0.2015,-51.730,58.905,-6.230,403,389,370,421,395,2025-05-27T11:15:53.408377
937,-0.0859,0.3514,0.2484,-44.660,61.915,-9.800,407,400,381,394,406,2025-05-27T11:15:53.408377
938,-0.1962,0.3631,0.2650,-38.255,53.025,-13.020,405,394,337,383,395,2025-05-27T11:15:53.408377
939,-0.2362,0.4006,0.2499,-28.490,40.180,-16.555,408,399,362,340,405,2025-05-27T11:15:53.408377
940,-0.2728,0.4616,0.2167,-17.430,25.130,-22.960,421,417,371,389,409,2025-05-27T11:15:53.408377
941,-0.2762,0.5324,0.2006,-5.985,16.100,-29.750,400,426,387,410,406,2025-05-27T11:15:53.408377
942,-0.2450,0.6554,0.1947,2.660,13.265,-37.415,410,408,383,400,366,2025-05-27T11:15:53.408377
943,-0.2655,0.7906,0.2357,6.545,13.685,-41.370,391,390,345,342,388,2025-05-27T11:15:53.408377
944,-0.2943,0.9643,0.3206,7.175,14.770,-41.090,412,352,326,378,413,2025-05-27T11:15:53.408377
945,-0.3626,1.1141,0.4006,5.495,12.950,-38.255,390,416,331,386,406,2025-05-27T11:15:53.408377
946,-0.4133,1.2249,0.4558,5.600,5.145,-34.580,347,393,356,390,358,2025-05-27T11:15:53.408377
947,-0.4621,1.3117,0.5178,8.435,-8.540,-28.490,409,395,367,385,378,2025-05-27T11:15:53.508084
948,-0.4363,1.3854,0.5309,12.040,-21.175,-23.240,399,400,372,408,350,2025-05-27T11:15:53.508084
949,-0.3855,1.3898,0.5368,13.300,-27.055,-19.250,394,399,379,384,380,2025-05-27T11:15:53.508084
950,-0.3294,1.3342,0.5187,12.285,-26.180,-16.345,417,344,379,406,354,2025-05-27T11:15:53.508084
951,-0.3314,1.2395,0.5051,8.960,-24.465,-12.845,404,399,376,404,384,2025-05-27T11:15:53.941245
952,-0.3416,1.1463,0.4709,4.725,-24.500,-7.175,427,418,382,398,400,2025-05-27T11:15:53.941245
953,-0.3201,1.0185,0.4124,0.700,-27.615,-1.190,431,428,343,405,400,2025-05-27T11:15:53.941245
954,-0.2948,0.9057,0.3211,-1.995,-28.420,6.055,395,415,361,398,395,2025-05-27T11:15:53.941245
955,-0.2289,0.7818,0.2308,-2.520,-24.955,11.550,386,405,368,396,397,2025-05-27T11:15:53.941245
956,-0.1381,0.6437,0.1308,0.595,-17.080,14.595,403,424,368,393,402,2025-05-27T11:15:53.941245
957,-0.0239,0.4831,0.0337,6.440,-1.575,8.330,344,424,367,398,405,2025-05-27T11:15:53.941245
958,-0.0332,0.2904,-0.0351,17.290,10.395,-3.465,383,436,375,408,412,2025-05-27T11:15:53.941245
959,-0.0454,0.1386,-0.1991,25.550,21.875,-17.045,420,420,385,392,355,2025-05-27T11:15:53.941245
960,-0.1376,-0.0102,-0.3284,34.510,25.795,-35.770,399,394,308,357,327,2025-05-27T11:15:53.941245
961,-0.1318,-0.1069,-0.4006,43.715,35.420,-52.745,382,406,354,401,377,2025-05-27T11:15:53.941245
962,-0.1615,-0.2313,-0.4319,53.095,50.610,-70.910,402,438,376,357,398,2025-05-27T11:15:53.941245
963,-0.1420,-0.3050,-0.4358,62.230,63.980,-87.675,409,402,377,378,413,2025-05-27T11:15:53.941245
964,-0.2757,-0.3177,-0.3870,70.000,71.820,-103.145,408,371,335,398,405,2025-05-27T11:15:53.941245
965,-0.4202,-0.2630,-0.3060,79.835,71.960,-115.045,412,386,317,388,402,2025-05-27T11:15:53.941245
966,-0.6305,-0.1767,-0.1864,91.385,55.930,-128.800,400,357,345,406,410,2025-05-27T11:15:53.941245
967,-0.8569,0.0561,-0.0264,101.675,24.570,-140.455,342,356,332,404,371,2025-05-27T11:15:53.941245
968,-1.1507,0.3728,0.0893,109.410,-16.485,-150.990,404,407,342,410,342,2025-05-27T11:15:53.941245
969,-1.3630,0.7149,0.2113,111.580,-68.705,-157.570,413,416,370,420,352,2025-05-27T11:15:53.941245
970,-1.4093,1.0160,0.3318,108.710,-128.380,-159.425,426,435,376,415,388,2025-05-27T11:15:53.941245
971,-1.3976,1.4284,0.4329,94.885,-173.005,-159.180,351,401,364,422,384,2025-05-27T11:15:53.941245
972,-1.2439,1.9608,0.4943,69.230,-192.080,-155.365,400,415,373,419,405,2025-05-27T11:15:53.941245
973,-1.0014,2.4995,0.4538,29.470,-204.470,-147.700,400,415,378,426,396,2025-05-27T11:15:53.941245
974,-0.7086,3.0646,0.4675,-25.690,-196.035,-131.845,420,409,374,426,389,2025-05-27T11:15:53.941245
975,-0.5348,3.5609,0.4831,-90.650,-168.385,-111.895,396,376,379,418,347,2025-05-27T11:15:53.941245
976,-0.5378,4.0070,0.5070,-157.850,-142.415,-87.535,413,414,390,358,369,2025-05-27T11:15:53.941245
977,-0.8281,4.1983,0.6217,-217.840,-147.490,-61.005,425,401,385,379,393,2025-05-27T11:15:53.941245
978,-1.0936,4.2056,0.7598,-251.195,-194.495,-32.480,433,421,344,357,394,2025-05-27T11:15:53.941245
979,-1.2644,4.4413,0.4480,-271.985,-282.415,22.505,426,410,374,407,395,2025-05-27T11:15:53.941245
980,-1.1448,4.3364,0.0683,-284.445,-363.195,114.135,416,431,379,390,394,2025-05-27T11:15:53.941245
981,-0.8369,3.9245,-0.1928,-279.615,-438.760,193.690,301,411,381,406,351,2025-05-27T11:15:54.038947
982,-0.4919,3.7312,-0.5944,-270.935,-461.160,254.345,403,438,351,401,389,2025-05-27T11:15:54.038947
983,-0.2006,3.5819,-0.7139,-258.580,-431.795,290.955,390,439,362,359,337,2025-05-27T11:15:54.038947
984,-0.1654,3.4380,-0.7374,-238.350,-377.160,327.145,404,389,362,406,374,2025-05-27T11:15:54.038947
985,-0.3640,3.4575,-1.0487,-208.040,-322.595,339.150,412,298,297,403,337,2025-05-27T11:15:54.038947
986,-0.5466,3.4428,-1.3854,-177.100,-279.405,322.245,416,402,320,410,375,2025-05-27T11:15:54.038947
987,-0.9618,3.2511,-1.6050,-157.990,-250.705,276.675,418,372,309,415,384,2025-05-27T11:15:54.038947
988,-1.3723,2.9524,-1.6143,-138.215,-261.065,208.495,410,361,346,417,386,2025-05-27T11:15:54.038947
989,-1.3337,2.5474,-1.4977,-135.310,-289.380,127.680,434,410,328,353,395,2025-05-27T11:15:54.038947
990,-0.9906,1.7612,-1.5933,-147.490,-320.565,15.470,411,419,353,400,363,2025-05-27T11:15:54.038947
991,-0.3963,0.8184,-1.6026,-193.585,-296.835,-93.695,407,399,370,393,383,2025-05-27T11:15:54.038947
992,0.2011,-1.0546,-1.2356,-283.605,-205.450,-232.750,419,401,367,406,409,2025-05-27T11:15:54.038947
993,0.3265,-3.9504,-0.5807,-399.175,-105.875,-351.015,415,416,342,399,403,2025-05-27T11:15:54.038947
994,-0.5597,-7.0423,0.6637,-490.000,-92.330,-422.975,415,344,371,385,411,2025-05-27T11:15:54.038947
995,-0.9384,-8.6927,0.6525,-510.510,-154.070,-464.800,427,403,381,410,403,2025-05-27T11:15:54.038947
996,0.0215,-8.2072,0.4046,-407.435,-375.130,-447.195,408,299,383,409,407,2025-05-27T11:15:54.038947
997,1.3864,-5.6545,-1.1078,-168.700,-492.520,-408.835,403,388,382,403,387,2025-05-27T11:15:54.141363
998,2.2087,-2.6328,-0.9833,25.410,-356.755,-355.775,390,404,352,392,360,2025-05-27T11:15:54.141363
999,2.4571,0.2948,-0.4494,78.295,-28.910,-257.530,351,422,372,398,385,2025-05-27T11:15:54.141363
1000,2.4693,-0.2137,-0.0146,28.980,338.590,192.675,393,350,375,398,403,2025-05-27T11:15:54.141530
1001,1.7041,-0.9365,0.7891,-36.890,495.740,242.515,398,409,379,400,414,2025-05-27T11:15:54.141530
1002,1.7929,-1.0536,0.9662,-27.125,473.200,175.035,418,370,348,414,392,2025-05-27T11:15:54.141530
1003,1.7153,-0.7774,1.2698,19.950,280.070,103.565,427,416,372,366,401,2025-05-27T11:15:54.141530
1004,1.5421,-0.5427,1.4103,39.305,189.175,66.360,426,424,340,399,403,2025-05-27T11:15:54.141530
1005,1.2917,-0.5451,1.5026,19.985,223.160,35.280,421,395,353,405,389,2025-05-27T11:15:54.141530
1006,1.1156,-0.7022,1.5826,-8.400,295.120,27.860,427,416,363,415,377,2025-05-27T11:15:54.141530
1007,0.7271,-0.9384,1.8256,-12.810,345.415,38.640,411,432,370,405,376,2025-05-27T11:15:54.241042
1008,0.2557,-1.3566,1.7914,10.780,368.620,73.150,422,411,371,397,393,2025-05-27T11:15:54.241042
1009,-0.1283,-1.5431,1.5860,39.935,383.775,121.310,408,387,361,413,382,2025-05-27T11:15:54.241042
1010,-0.4685,-1.5104,1.3996,64.820,393.645,170.415,409,394,367,413,389,2025-05-27T11:15:54.241042
1011,-1.0146,-1.3635,1.2322,100.940,397.880,205.100,338,426,377,422,388,2025-05-27T11:15:54.241042
1012,-1.1819,-1.2390,1.1063,122.955,333.025,202.720,394,433,376,423,404,2025-05-27T11:15:54.241042
1013,-1.0770,-0.7964,0.9184,143.220,259.630,208.950,396,391,373,420,411,2025-05-27T11:15:54.241042
1014,-0.8813,-0.5017,0.6583,153.405,202.300,214.130,418,429,371,406,420,2025-05-27T11:15:54.424554
1015,-0.7266,-0.3328,0.4250,152.005,168.770,201.425,434,437,361,412,402,2025-05-27T11:15:54.424554
1016,-0.6193,-0.1010,0.3806,145.495,143.080,178.640,402,418,361,408,360,2025-05-27T11:15:54.424554
1017,-0.5485,0.0991,0.3826,147.210,108.220,161.630,391,421,372,407,376,2025-05-27T11:15:54.424554
1018,-0.5109,0.1693,0.2801,151.375,74.935,147.490,418,362,387,399,387,2025-05-27T11:15:54.424554
1019,-0.4431,0.2328,0.2152,155.820,46.165,131.880,415,411,375,403,399,2025-05-27T11:15:54.424554
1020,-0.3543,0.3006,0.1103,165.060,25.760,118.510,390,370,384,368,349,2025-05-27T11:15:54.424554
1021,-0.2743,0.3928,-0.0644,177.660,7.000,99.260,414,393,370,382,378,2025-05-27T11:15:54.424554
1022,-0.1967,0.4817,-0.2650,187.565,6.650,89.810,346,404,380,361,394,2025-05-27T11:15:54.424554
1023,-0.0932,0.5812,-0.3460,191.135,21.385,69.090,345,402,375,381,405,2025-05-27T11:15:54.424554
1024,-0.1181,0.6134,-0.2655,191.240,41.055,53.305,408,410,385,406,399,2025-05-27T11:15:54.424554
1025,-0.1874,0.5636,-0.1869,193.270,52.850,47.425,417,419,388,352,411,2025-05-27T11:15:54.424554
1026,-0.2699,0.5451,-0.2411,206.430,51.485,44.660,419,425,376,391,413,2025-05-27T11:15:54.424554
1027,-0.2464,0.6437,-0.3748,234.500,43.015,44.170,390,375,382,347,385,2025-05-27T11:15:54.424554
1028,-0.2118,0.7227,-0.5353,263.620,37.625,41.755,402,394,356,289,395,2025-05-27T11:15:54.424554
1029,-0.0976,0.7964,-0.6315,285.285,43.785,35.875,407,400,345,376,395,2025-05-27T11:15:54.424554
1030,-0.0142,0.8760,-0.6486,298.655,63.910,25.655,411,423,365,385,393,2025-05-27T11:15:54.424554
1031,0.0181,0.9633,-0.6749,300.860,91.315,12.845,400,367,361,395,386,2025-05-27T11:15:54.541370
1032,0.1459,1.1361,-0.6080,290.465,117.110,5.915,409,406,336,408,350,2025-05-27T11:15:54.541370
1033,0.1879,1.4479,-0.5446,270.795,145.880,5.985,303,387,341,390,380,2025-05-27T11:15:54.541370
1034,0.1937,1.7812,-0.5500,239.785,165.795,11.690,383,409,362,402,394,2025-05-27T11:15:54.541370
1035,0.2445,2.2380,-0.5412,199.325,182.070,19.215,390,407,365,397,406,2025-05-27T11:15:54.541370
1036,0.3260,2.9060,-0.4865,140.210,192.885,32.830,405,428,337,383,397,2025-05-27T11:15:54.541370
1037,0.2655,3.3857,-0.2176,56.070,201.565,45.745,425,421,347,393,384,2025-05-27T11:15:54.541370
1038,0.1523,3.4653,0.0844,-25.550,214.900,49.735,411,347,359,415,399,2025-05-27T11:15:54.541370
1039,-0.1976,3.0002,0.1547,-91.385,200.375,29.015,398,410,365,393,403,2025-05-27T11:15:54.541370
1040,-0.4387,2.3951,-0.0473,-119.770,151.830,-0.805,421,419,376,369,388,2025-05-27T11:15:54.641350
1041,-0.4148,1.8944,-0.2645,-121.660,74.970,-8.785,398,397,378,386,400,2025-05-27T11:15:54.641350
1042,-0.2435,1.5709,-0.3265,-97.335,13.895,6.825,410,396,377,387,345,2025-05-27T11:15:54.641350
1043,-0.3436,1.3903,-0.1757,-72.660,-44.695,19.565,395,397,375,381,380,2025-05-27T11:15:54.641350
1044,-0.3582,1.3259,-0.0468,-53.305,-87.815,23.520,375,343,379,378,400,2025-05-27T11:15:54.641350
1045,-0.2494,1.2122,-0.0376,-44.870,-108.990,21.035,418,402,383,408,354,2025-05-27T11:15:54.641350
1046,-0.1230,1.0604,-0.0390,-43.120,-107.030,17.780,425,411,376,359,387,2025-05-27T11:15:54.641350
1047,-0.0468,0.8955,-0.0449,-44.380,-90.230,16.905,425,430,348,338,409,2025-05-27T11:15:54.641350
1048,-0.0132,0.7510,-0.0361,-45.360,-66.395,16.030,416,442,370,378,405,2025-05-27T11:15:54.757993
1049,0.0010,0.6725,-0.0264,-46.165,-53.515,14.385,416,404,375,403,394,2025-05-27T11:15:54.757993
1050,-0.0268,0.5939,-0.0068,-48.020,-29.155,11.305,370,414,388,395,383,2025-05-27T11:15:54.757993
1051,-0.0630,0.5480,0.0420,-48.230,-9.100,7.770,333,344,380,364,343,2025-05-27T11:15:54.757993
1052,-0.1010,0.5305,0.0654,-45.360,5.670,4.550,373,410,344,335,372,2025-05-27T11:15:54.757993
1053,-0.1679,0.4968,0.0673,-41.685,15.540,0.700,403,421,358,402,404,2025-05-27T11:15:54.757993
1054,-0.2230,0.4860,0.0669,-34.195,16.555,-3.815,396,361,364,413,407,2025-05-27T11:15:54.757993
1055,-0.2757,0.4973,0.0834,-24.290,9.625,-7.245,388,416,328,414,378,2025-05-27T11:15:54.757993
1056,-0.2869,0.5314,0.0717,-14.280,-1.050,-12.635,396,429,339,349,388,2025-05-27T11:15:54.757993
1057,-0.2811,0.5797,0.0615,-5.250,-9.450,-18.060,412,351,340,334,403,2025-05-27T11:15:54.757993
1058,-0.2616,0.6412,0.0508,0.070,-13.405,-23.835,399,409,353,382,394,2025-05-27T11:15:54.813785
1059,-0.2464,0.7032,0.0815,5.145,-13.090,-29.785,421,417,369,382,399,2025-05-27T11:15:54.813785
1060,-0.2845,0.7598,0.0839,9.205,-9.765,-34.825,416,428,367,386,410,2025-05-27T11:15:54.813785
1061,-0.3104,0.8442,0.0932,14.070,-8.820,-37.765,415,425,383,404,357,2025-05-27T11:15:54.813785
1062,-0.3436,0.9087,0.0883,18.760,-8.995,-39.830,403,344,349,414,332,2025-05-27T11:15:54.858191
1063,-0.3958,0.9394,0.1044,21.945,-10.185,-42.105,419,395,375,386,317,2025-05-27T11:15:54.858191
1064,-0.4153,0.9662,0.1225,23.415,-12.005,-43.890,414,419,383,393,374,2025-05-27T11:15:54.858191
1065,-0.4372,0.9643,0.1332,23.380,-13.720,-45.430,432,423,372,355,388,2025-05-27T11:15:54.858191
1066,-0.4568,0.9428,0.1405,20.545,-13.790,-48.020,369,422,372,399,398,2025-05-27T11:15:54.915482
1067,-0.4636,0.9116,0.1488,14.455,-14.210,-50.680,395,413,366,409,390,2025-05-27T11:15:54.915482
1068,-0.4426,0.8755,0.1449,9.660,-14.980,-52.675,429,413,377,404,391,2025-05-27T11:15:54.915482
1069,-0.4329,0.8018,0.1196,2.940,-15.050,-54.950,429,339,383,399,386,2025-05-27T11:15:54.915482
1070,-0.4416,0.7169,0.1039,-3.185,-16.765,-57.610,429,377,380,387,403,2025-05-27T11:15:54.915482
1071,-0.4685,0.6495,0.1010,-6.930,-22.645,-61.635,403,414,378,376,408,2025-05-27T11:15:55.054738
1072,-0.4636,0.5744,0.0996,-9.380,-32.480,-66.220,398,417,369,336,406,2025-05-27T11:15:55.054738
1073,-0.4133,0.5158,0.0722,-9.905,-40.565,-70.595,393,425,374,392,415,2025-05-27T11:15:55.054738
1074,-0.4021,0.4250,0.0595,-9.380,-44.555,-75.985,386,383,381,403,395,2025-05-27T11:15:55.054738
1075,-0.3806,0.4646,0.0600,-6.650,-46.025,-82.530,394,296,346,415,391,2025-05-27T11:15:55.054738
1076,-0.3836,0.4919,0.0468,-6.860,-46.305,-87.955,411,392,336,398,395,2025-05-27T11:15:55.054738
1077,-0.4216,0.5563,0.0620,-6.790,-48.055,-97.055,421,396,361,392,367,2025-05-27T11:15:55.054738
1078,-0.4709,0.7115,0.0371,-5.985,-53.375,-108.780,418,342,376,386,340,2025-05-27T11:15:55.054738
1079,-0.5158,0.9130,0.0073,-3.465,-63.770,-118.510,401,378,369,390,391,2025-05-27T11:15:55.054738
1080,-0.5710,1.3293,-0.0693,-4.200,-69.475,-128.660,392,357,366,402,380,2025-05-27T11:15:55.054738
1081,-0.5480,1.4679,0.0942,-14.140,-93.835,-129.815,367,390,377,381,378,2025-05-27T11:15:55.054738
1082,-0.5861,1.7236,0.3016,-31.010,-115.920,-132.650,400,355,364,406,386,2025-05-27T11:15:55.157794
1083,-0.5890,2.1409,0.3699,-62.755,-136.535,-131.075,404,361,364,418,406,2025-05-27T11:15:55.157794
1084,-0.5441,2.3312,0.4690,-88.865,-147.315,-128.625,399,406,364,376,402,2025-05-27T11:15:55.157794
1085,-0.4773,2.8480,0.3977,-123.445,-155.365,-108.220,401,409,381,402,382,2025-05-27T11:15:55.157794
1086,-0.4211,3.0529,0.4455,-157.955,-162.820,-79.275,418,400,380,402,405,2025-05-27T11:15:55.157794
1087,-0.4211,3.2628,0.5226,-186.235,-169.785,-41.335,345,430,383,404,413,2025-05-27T11:15:55.157794
1088,-0.4743,3.3628,0.6315,-217.490,-182.070,7.175,403,406,378,412,404,2025-05-27T11:15:55.157794
1089,-0.4992,3.4628,0.6105,-239.645,-204.785,62.965,412,430,390,353,354,2025-05-27T11:15:55.157794
1090,-0.5334,3.6034,0.5168,-253.470,-238.560,132.160,350,425,387,384,388,2025-05-27T11:15:55.157794
1091,-0.6861,3.6790,0.3401,-253.750,-269.150,182.420,291,402,378,404,407,2025-05-27T11:15:55.258037
1092,-0.7300,3.5014,0.0532,-240.520,-297.745,239.295,364,417,374,352,360,2025-05-27T11:15:55.258037
1093,-0.8184,3.4097,-0.1923,-217.105,-316.855,279.090,397,392,366,335,392,2025-05-27T11:15:55.258037
1094,-0.8477,3.3657,-0.5192,-190.295,-315.245,303.240,421,389,371,374,395,2025-05-27T11:15:55.258037
1095,-1.0702,3.3882,-0.9726,-167.755,-294.350,308.175,397,386,383,402,396,2025-05-27T11:15:55.258037
1096,-1.4879,3.2481,-1.3200,-153.685,-276.850,280.595,357,390,382,410,389,2025-05-27T11:15:55.258037
1097,-2.1794,3.0622,-1.2927,-141.015,-309.155,223.195,406,430,387,396,395,2025-05-27T11:15:55.258037
1098,-2.4146,2.7552,-1.1453,-129.220,-377.615,153.475,405,441,384,411,384,2025-05-27T11:15:55.258037
1099,-2.2819,2.3624,-1.2493,-135.555,-481.915,74.480,408,409,381,406,400,2025-05-27T11:15:55.357846
1100,-1.6211,1.5557,-1.4289,-170.870,-544.985,5.180,409,429,378,353,384,2025-05-27T11:15:55.357846
1101,-0.6925,0.5729,-1.5074,-249.865,-526.575,-84.910,419,421,379,397,412,2025-05-27T11:15:56.057835
1102,0.5617,-1.7627,-0.7427,-366.170,-420.000,-173.250,433,429,375,386,368,2025-05-27T11:15:56.057835
1103,1.0536,-5.4466,0.1967,-525.525,-238.525,-300.685,361,345,378,389,399,2025-05-27T11:15:56.057835
1104,0.2484,-8.0110,0.6832,-619.465,-174.965,-359.695,380,383,367,401,388,2025-05-27T11:15:56.057835
1105,0.4041,-9.1627,0.6920,-603.155,-260.155,-340.095,406,354,365,385,399,2025-05-27T11:15:56.057835
1106,0.9750,-7.2673,-0.7164,-418.250,-430.885,-357.595,423,383,361,389,402,2025-05-27T11:15:56.057835
1107,1.8900,-4.0270,-1.8817,-3.990,-581.420,-427.245,406,349,363,396,352,2025-05-27T11:15:56.057835
1108,2.3136,-1.9071,-1.4689,176.400,-291.760,-253.085,391,327,371,398,292,2025-05-27T11:15:56.057835
1109,2.3234,-1.2288,-0.8276,198.625,143.465,7.070,413,388,346,393,365,2025-05-27T11:15:56.057835
1110,3.3408,0.3401,-0.4250,52.325,418.705,261.660,403,397,373,387,391,2025-05-27T11:15:56.057835
1111,2.5044,-1.1976,-0.1381,93.240,463.015,324.345,396,378,302,302,398,2025-05-27T11:15:56.057835
1112,2.1355,-1.0663,0.1254,60.200,427.210,253.575,418,398,338,329,400,2025-05-27T11:15:56.057835
1113,1.8158,-0.8872,0.5627,46.900,355.285,174.755,416,415,365,370,410,2025-05-27T11:15:56.057835
1114,1.7495,-0.6403,0.7969,28.245,307.825,134.925,394,397,363,392,415,2025-05-27T11:15:56.057835
1115,1.1775,-0.7871,1.1361,17.570,282.905,103.565,411,388,346,344,359,2025-05-27T11:15:56.057835
1116,1.0233,-0.9218,1.2590,33.880,248.150,88.480,399,418,367,391,393,2025-05-27T11:15:56.057835
1117,1.0424,-1.1312,1.3000,53.690,225.225,84.700,408,413,380,304,355,2025-05-27T11:15:56.057835
1118,0.9511,-1.1000,1.4211,60.900,270.585,97.965,417,347,377,378,379,2025-05-27T11:15:56.057835
1119,0.4275,-1.1312,1.3684,58.870,343.035,96.005,405,409,388,358,377,2025-05-27T11:15:56.057835
1120,0.0293,-1.2381,1.2449,76.965,382.865,90.825,389,397,375,375,399,2025-05-27T11:15:56.057835
1121,-0.1996,-1.0980,1.1502,99.680,365.400,90.895,405,410,346,404,391,2025-05-27T11:15:56.057835
1122,-0.4597,-1.0892,1.0204,125.580,339.955,89.285,414,418,363,383,387,2025-05-27T11:15:56.057835
1123,-0.6754,-0.5017,0.8184,152.040,288.435,84.420,410,426,361,388,345,2025-05-27T11:15:56.057835
1124,-0.7208,-0.3216,0.8355,169.890,234.850,80.675,421,398,374,362,343,2025-05-27T11:15:56.057835
1125,-0.6212,-0.3289,0.7442,176.855,192.850,62.335,418,405,362,376,377,2025-05-27T11:15:56.057835
1126,-0.5592,0.0517,0.5470,183.610,161.280,47.495,402,392,372,402,403,2025-05-27T11:15:56.057835
1127,-0.4236,0.1010,0.4665,190.645,145.495,34.895,386,422,343,413,404,2025-05-27T11:15:56.057835
1128,-0.4104,0.2777,0.2723,195.650,140.875,22.995,344,435,351,398,409,2025-05-27T11:15:56.057835
1129,-0.5402,0.3401,0.1557,196.910,141.470,11.305,377,427,366,362,409,2025-05-27T11:15:56.057835
1130,-0.5705,0.5139,0.0595,198.380,138.565,5.985,412,427,377,386,360,2025-05-27T11:15:56.057835
1131,-0.6544,0.5675,-0.0464,192.290,128.065,1.855,400,406,344,388,379,2025-05-27T11:15:56.057835
1132,-0.7886,0.5978,-0.0156,189.770,115.010,-2.485,391,426,357,402,389,2025-05-27T11:15:56.057835
1133,-0.9618,0.5822,0.0088,193.760,95.515,-5.845,405,407,360,357,376,2025-05-27T11:15:56.057835
1134,-1.0419,0.5685,0.0254,208.635,61.390,-7.385,298,396,330,391,394,2025-05-27T11:15:56.057835
1135,-0.9301,0.6876,-0.1308,230.860,22.085,-5.180,371,421,318,401,384,2025-05-27T11:15:56.057835
1136,-0.7369,0.9096,-0.3855,253.505,7.280,-0.525,380,431,356,349,390,2025-05-27T11:15:56.057835
1137,-0.5915,0.9648,-0.5441,265.125,19.250,0.945,416,427,354,349,399,2025-05-27T11:15:56.057835
1138,-0.4060,0.9994,-0.5666,262.815,53.970,0.770,412,401,358,379,383,2025-05-27T11:15:56.057835
1139,-0.2635,1.0019,-0.5017,249.900,96.810,4.865,342,391,362,360,391,2025-05-27T11:15:56.057835
1140,-0.1610,1.1346,-0.5085,233.345,142.485,14.875,375,407,372,335,381,2025-05-27T11:15:56.057835
1141,-0.1132,1.3708,-0.5388,220.360,184.730,25.795,387,413,378,378,415,2025-05-27T11:15:56.057835
1142,-0.1396,1.4596,-0.5983,199.010,214.480,37.625,399,413,386,407,401,2025-05-27T11:15:56.057835
1143,-0.1771,1.5909,-0.5880,182.000,228.760,45.675,389,411,386,409,408,2025-05-27T11:15:56.057835
1144,-0.1342,1.6163,-0.5466,167.930,232.610,50.575,427,417,386,408,407,2025-05-27T11:15:56.057835
1145,-0.1088,1.6490,-0.4377,150.290,225.890,58.205,423,410,351,395,398,2025-05-27T11:15:56.057835
1146,-0.1044,1.8529,-0.2547,127.610,207.130,66.290,427,407,367,388,394,2025-05-27T11:15:56.057835
1147,-0.0996,2.2209,-0.0307,93.555,180.460,76.020,424,399,361,402,365,2025-05-27T11:15:56.057835
1148,-0.0947,2.6537,0.2079,43.820,153.300,81.900,398,398,375,387,384,2025-05-27T11:15:56.057835
1149,-0.0937,2.8929,0.3845,2.415,131.320,82.040,432,401,375,341,381,2025-05-27T11:15:56.057835
1150,-0.1137,2.8587,0.3792,-47.215,106.890,76.755,404,419,377,325,399,2025-05-27T11:15:56.123908
1151,-0.2172,2.5117,0.2972,-80.640,71.750,61.460,423,425,384,324,398,2025-05-27T11:15:56.123908
1152,-0.2840,2.1604,0.0996,-91.280,30.590,46.340,394,348,307,381,390,2025-05-27T11:15:56.123908
1153,-0.2108,1.9300,0.0576,-85.750,-6.720,33.740,419,411,341,400,345,2025-05-27T11:15:56.123908
1154,-0.0942,1.6485,0.0820,-73.605,-41.790,34.790,417,398,321,398,393,2025-05-27T11:15:56.123908
1155,-0.0869,1.3884,0.1322,-62.930,-68.705,37.695,406,369,343,415,406,2025-05-27T11:15:56.123908
1156,-0.1254,1.1439,0.1937,-53.620,-85.260,33.460,370,354,352,371,407,2025-05-27T11:15:56.123908
1157,-0.0703,0.9584,0.1898,-48.125,-98.980,18.445,386,366,370,404,357,2025-05-27T11:15:56.123908
1158,0.0078,0.8203,0.1625,-44.240,-103.005,22.225,396,401,365,392,335,2025-05-27T11:15:56.123908
1159,0.0834,0.7222,0.1327,-42.315,-96.670,18.200,415,389,372,359,355,2025-05-27T11:15:56.123908
1160,0.1274,0.6271,0.1122,-40.670,-80.500,12.635,408,373,378,340,350,2025-05-27T11:15:56.123908
1161,0.1684,0.5583,0.0839,-40.915,-54.740,3.430,409,413,378,404,395,2025-05-27T11:15:56.124948
1162,0.1679,0.4851,0.0405,-41.650,-30.415,-7.245,395,417,377,422,401,2025-05-27T11:15:56.124948
1163,0.1186,0.4099,0.0161,-40.915,-2.205,-15.050,404,412,381,389,390,2025-05-27T11:15:56.124948
1164,0.0322,0.3845,0.0063,-37.800,18.655,-22.960,416,428,352,406,415,2025-05-27T11:15:56.124948
1165,-0.0649,0.3723,0.0044,-34.755,32.305,-30.590,426,406,380,397,412,2025-05-27T11:15:56.124948
1166,-0.1327,0.3660,0.0029,-32.725,40.425,-37.100,369,391,369,409,416,2025-05-27T11:15:56.124948
1167,-0.2489,0.3723,-0.0015,-29.960,43.260,-42.875,417,419,366,362,412,2025-05-27T11:15:56.124948
1168,-0.3362,0.4563,-0.0117,-24.325,40.880,-47.320,434,351,372,379,417,2025-05-27T11:15:56.124948
1169,-0.4656,0.5495,-0.0346,-13.370,31.955,-49.840,404,418,387,403,407,2025-05-27T11:15:56.124948
1170,-0.5261,0.6451,-0.0351,0.105,17.080,-50.610,418,405,383,405,411,2025-05-27T11:15:56.274529
1171,-0.5905,0.7710,0.0371,11.095,2.905,-48.825,408,413,372,372,412,2025-05-27T11:15:56.274529
1172,-0.6032,0.9082,0.1005,19.670,-8.225,-43.680,403,397,375,386,397,2025-05-27T11:15:56.274529
1173,-0.6037,0.9955,0.1610,23.765,-16.065,-36.645,396,415,372,396,401,2025-05-27T11:15:56.274529
1174,-0.5905,1.0507,0.2089,26.320,-18.270,-30.170,417,406,348,401,403,2025-05-27T11:15:56.274529
1175,-0.6007,1.0941,0.2425,26.390,-17.010,-26.040,411,404,367,407,404,2025-05-27T11:15:56.274529
1176,-0.5773,1.1361,0.2425,25.935,-13.580,-20.300,383,425,373,399,410,2025-05-27T11:15:56.274529
1177,-0.5812,1.1204,0.2630,22.995,-10.115,-14.735,393,396,386,421,414,2025-05-27T11:15:56.274529
1178,-0.5261,1.1229,0.2723,18.585,-5.740,-8.260,424,419,378,413,354,2025-05-27T11:15:56.274529
1179,-0.5002,1.1122,0.2835,14.070,-0.735,-2.170,426,408,379,407,383,2025-05-27T11:15:56.274529
1180,-0.4807,1.0770,0.2796,8.225,1.645,2.275,411,341,363,349,388,2025-05-27T11:15:56.274529
1181,-0.4485,1.0316,0.2606,3.605,0.210,4.620,419,326,371,375,388,2025-05-27T11:15:56.274529
1182,-0.4026,0.9487,0.2338,1.225,-4.445,5.775,420,407,381,377,383,2025-05-27T11:15:56.274529
1183,-0.3211,0.8501,0.1767,1.085,-9.170,4.060,399,404,349,409,398,2025-05-27T11:15:56.274529
1184,-0.1884,0.7257,0.0805,2.170,-9.240,-1.365,403,403,363,410,408,2025-05-27T11:15:56.374430
1185,-0.0098,0.6159,-0.0859,4.830,-0.210,-10.045,357,406,369,395,407,2025-05-27T11:15:56.374430
1186,0.1527,0.4997,-0.2616,5.845,17.080,-22.120,329,389,334,368,354,2025-05-27T11:15:56.374430
1187,0.2625,0.3465,-0.4021,5.355,48.300,-38.570,382,397,347,376,372,2025-05-27T11:15:56.374430
1188,0.3338,0.2176,-0.5744,2.975,85.785,-56.000,344,376,374,386,387,2025-05-27T11:15:56.374430
1189,0.1869,0.0171,-0.6612,1.680,115.605,-86.065,325,417,385,382,405,2025-05-27T11:15:56.374430
1190,0.0049,-0.0669,-0.6544,1.540,121.555,-118.720,394,439,379,398,365,2025-05-27T11:15:56.374430
1191,-0.1781,-0.0722,-0.5168,4.025,103.495,-147.665,412,385,378,411,395,2025-05-27T11:15:56.374430
1192,-0.3655,0.0000,-0.3884,4.270,80.395,-173.460,419,389,372,308,403,2025-05-27T11:15:56.474383
1193,-0.5895,0.1493,-0.1469,0.070,37.205,-196.455,423,399,377,358,416,2025-05-27T11:15:56.474383
1194,-0.8623,0.4426,0.1674,-3.150,0.595,-213.395,394,400,339,374,416,2025-05-27T11:15:56.474383
1195,-1.0111,0.7530,0.4802,-6.370,-49.665,-219.905,363,410,355,378,397,2025-05-27T11:15:56.474383
1196,-1.2010,1.0224,0.8584,-16.485,-99.330,-223.685,401,417,362,344,386,2025-05-27T11:15:56.474383
1197,-1.4162,1.4830,1.2903,-30.240,-155.575,-221.130,396,421,357,376,384,2025-05-27T11:15:56.474383
1198,-1.6509,1.9906,1.4840,-44.940,-224.210,-212.275,373,395,359,396,392,2025-05-27T11:15:56.474383
1199,-1.7768,2.5303,1.5343,-61.215,-287.700,-205.555,403,345,364,409,398,2025-05-27T11:15:56.474383
1200,-1.6314,3.1086,1.4777,-77.280,-347.935,-146.720,362,393,378,417,397,2025-05-27T11:15:56.474383
1201,-1.2693,3.4775,1.5660,-105.735,-348.355,-80.360,410,426,374,406,404,2025-05-27T11:15:56.691223
1202,-1.0360,3.5917,1.4606,-137.410,-308.910,-1.540,408,416,304,391,350,2025-05-27T11:15:56.691223
1203,-0.9492,3.7659,1.1844,-169.540,-248.710,54.915,395,405,335,397,385,2025-05-27T11:15:56.691223
1204,-1.1097,3.7303,0.9775,-196.595,-215.845,125.965,394,417,359,388,360,2025-05-27T11:15:56.691223
1205,-1.4767,3.6649,0.6242,-203.945,-230.475,180.215,402,402,368,408,354,2025-05-27T11:15:56.691223
1206,-1.6455,3.4785,0.2381,-187.320,-295.470,228.235,418,415,372,408,385,2025-05-27T11:15:56.691223
1207,-1.6206,3.3472,-0.3553,-152.110,-383.005,275.835,415,397,369,391,343,2025-05-27T11:15:56.691223
1208,-1.4640,3.2676,-0.9082,-126.630,-441.945,318.710,396,393,362,409,389,2025-05-27T11:15:56.691223
1209,-1.4733,3.2198,-1.1502,-106.785,-459.795,336.315,391,417,375,411,397,2025-05-27T11:15:56.691223
1210,-1.5997,3.1369,-1.2415,-84.315,-458.815,332.290,415,407,337,414,413,2025-05-27T11:15:56.691223
1211,-1.7812,3.1427,-1.4977,-59.395,-452.165,297.185,426,401,358,398,404,2025-05-27T11:15:56.691223
1212,-2.0086,3.0432,-1.7392,-49.700,-442.750,245.315,402,359,369,409,398,2025-05-27T11:15:56.691223
1213,-2.1535,2.7216,-1.7890,-60.830,-426.825,166.250,395,413,365,411,407,2025-05-27T11:15:56.691223
1214,-2.1033,1.9896,-1.7300,-82.915,-428.925,74.900,411,410,383,410,396,2025-05-27T11:15:56.691223
1215,-1.5157,1.3532,-1.7148,-114.205,-436.520,-9.415,398,416,372,403,384,2025-05-27T11:15:56.691223
1216,-0.3231,0.0205,-2.3897,-134.190,-410.515,-98.385,373,421,373,409,396,2025-05-27T11:15:56.691223
1217,0.9858,-1.9442,-1.0604,-279.930,-304.255,-184.555,363,435,373,417,389,2025-05-27T11:15:56.691223
1218,0.7027,-3.6332,0.5148,-439.390,-148.960,-273.000,382,433,379,408,400,2025-05-27T11:15:56.797395
1219,0.3611,-6.2747,0.5368,-589.260,-81.830,-364.980,415,422,388,408,411,2025-05-27T11:15:56.797395
1220,1.5884,-7.0213,-0.0293,-663.250,-166.985,-249.725,415,429,377,393,388,2025-05-27T11:15:56.797395
1221,1.0160,-7.7426,-0.3348,-582.225,-370.790,-125.510,394,426,335,405,402,2025-05-27T11:15:56.797395
1222,0.7491,-6.0873,-1.2459,-364.840,-594.440,-191.030,374,386,364,421,396,2025-05-27T11:15:56.797395
1223,2.5030,-3.5536,-1.3054,-29.225,-591.150,-240.905,390,396,373,416,343,2025-05-27T11:15:56.797395
1224,2.6498,-1.8632,-1.2571,125.720,-264.880,-190.750,393,417,362,389,379,2025-05-27T11:15:56.797395
1225,3.6141,-0.7349,-0.5495,135.835,137.620,-45.850,389,388,366,348,388,2025-05-27T11:15:56.797395
1226,3.9123,0.0883,0.5636,124.915,398.265,104.965,394,429,377,403,387,2025-05-27T11:15:56.891076
1227,2.7611,-0.3377,0.2884,33.600,470.365,166.005,400,403,381,387,394,2025-05-27T11:15:56.891076
1228,2.7411,-0.3030,0.3294,-19.250,468.930,148.260,419,390,388,414,415,2025-05-27T11:15:56.891076
1229,2.2306,-0.1269,0.7335,-52.885,481.145,101.815,426,421,385,416,366,2025-05-27T11:15:56.891076
1230,1.8105,-0.2996,0.8677,-69.580,484.085,68.355,406,400,388,356,357,2025-05-27T11:15:56.891076
1231,1.2400,-0.6803,1.0873,-65.765,474.285,51.485,387,401,385,404,384,2025-05-27T11:15:56.891076
1232,0.7105,-1.1527,1.2146,-34.685,417.970,51.275,426,399,381,391,392,2025-05-27T11:15:56.891076
1233,0.3357,-1.4259,1.4201,23.520,356.580,74.550,355,404,352,355,396,2025-05-27T11:15:56.891076
1234,0.1801,-1.5733,1.6065,78.085,295.855,112.070,363,420,366,407,352,2025-05-27T11:15:57.014103
1235,0.1484,-1.5592,1.6490,110.425,275.730,142.310,396,403,376,376,350,2025-05-27T11:15:57.014103
1236,0.1547,-1.4562,1.5665,125.265,290.115,163.205,425,418,380,360,396,2025-05-27T11:15:57.014103
1237,-0.1078,-1.3278,1.3440,136.815,311.220,176.540,352,354,372,403,391,2025-05-27T11:15:57.014103
1238,-0.3475,-1.1610,1.1326,149.870,308.805,175.385,395,409,379,400,352,2025-05-27T11:15:57.014103
1239,-0.5353,-0.8911,0.9282,158.235,291.970,173.880,418,385,378,394,354,2025-05-27T11:15:57.014103
1240,-0.7022,-0.5436,0.7359,163.100,254.520,160.440,420,409,376,356,384,2025-05-27T11:15:57.014103
1241,-0.7896,-0.3538,0.7657,175.980,212.065,152.600,421,407,365,375,380,2025-05-27T11:15:57.014103
1242,-0.6227,-0.1010,0.5924,185.185,176.750,136.955,429,394,299,382,386,2025-05-27T11:15:57.014103
1243,-0.5104,0.0844,0.3953,193.970,134.260,125.125,408,411,339,342,391,2025-05-27T11:15:57.111647
1244,-0.6856,0.1659,0.2513,195.580,111.965,94.465,412,418,349,373,410,2025-05-27T11:15:57.111647
1245,-0.4968,0.1674,0.1401,205.660,76.790,72.380,427,415,354,342,355,2025-05-27T11:15:57.111647
1246,-0.4080,0.2079,0.0712,218.540,41.300,53.480,400,413,356,372,343,2025-05-27T11:15:57.111647
1247,-0.3650,0.2186,0.0083,227.360,17.535,38.220,336,417,356,399,370,2025-05-27T11:15:57.111647
1248,-0.3567,0.2191,-0.0756,232.575,-1.435,23.555,362,430,374,350,381,2025-05-27T11:15:57.111647
1249,-0.2611,0.3118,-0.2240,242.725,-17.325,11.060,392,359,371,381,381,2025-05-27T11:15:57.111647
1250,-0.2142,0.3782,-0.4514,249.690,-20.265,-0.490,407,423,371,386,345,2025-05-27T11:15:57.111647
1251,-0.1103,0.4324,-0.6276,251.755,-1.750,-8.610,426,424,370,386,375,2025-05-27T11:15:57.524182
1252,-0.1020,0.4670,-0.6627,248.780,29.470,-15.120,400,383,368,391,400,2025-05-27T11:15:57.524182
1253,-0.1786,0.5168,-0.6681,238.630,65.625,-22.155,388,398,389,386,391,2025-05-27T11:15:57.524182
1254,-0.1996,0.4929,-0.6261,226.415,94.955,-27.825,408,423,386,418,411,2025-05-27T11:15:57.524182
1255,-0.1986,0.5622,-0.6583,223.300,113.610,-28.385,414,441,388,397,398,2025-05-27T11:15:57.524182
1256,-0.2503,0.6866,-0.7066,223.370,128.835,-29.820,377,417,372,405,380,2025-05-27T11:15:57.524182
1257,-0.2489,0.7730,-0.7296,225.155,145.460,-33.110,401,403,364,417,400,2025-05-27T11:15:57.524182
1258,-0.2606,0.8477,-0.6773,225.575,159.530,-36.400,416,407,365,406,407,2025-05-27T11:15:57.524182
1259,-0.2352,1.0346,-0.6934,227.465,177.695,-37.940,403,422,381,413,348,2025-05-27T11:15:57.524182
1260,-0.2391,1.4123,-0.8008,226.940,200.200,-38.150,392,382,342,350,383,2025-05-27T11:15:57.524182
1261,-0.2840,1.7558,-0.9560,217.210,227.780,-43.120,408,412,353,374,392,2025-05-27T11:15:57.524182
1262,-0.4729,2.3517,-1.0346,185.185,241.465,-53.760,359,388,340,384,371,2025-05-27T11:15:57.524182
