SeqNum,AccX,AccY,AccZ,GyroX,GyroY,GyroZ,Flex,Force1,Force2,Force3,Force4,TimestampReception
3063,-0.7096,0.4870,0.5022,3.640,-10.430,-0.630,1.061,0.006,0.003,0.006,0.003,2025-05-24T19:11:28.041790
3064,-0.6759,0.4939,0.5309,0.490,-5.880,-0.140,1.065,0.003,0.003,0.010,0.003,2025-05-24T19:11:28.041872
3065,-0.6803,0.4978,0.5285,0.630,-5.040,-0.140,1.065,0.003,0.006,0.010,0.006,2025-05-24T19:11:28.041892
3066,-0.6852,0.4978,0.5270,0.140,-5.530,-0.070,1.061,0.003,0.003,0.010,0.006,2025-05-24T19:11:28.041905
3067,-0.6842,0.4943,0.5226,-0.350,-6.090,-0.350,1.065,0.006,0.006,0.010,0.003,2025-05-24T19:11:28.230177
3068,-0.6803,0.4929,0.5217,-0.490,-6.230,-0.280,1.065,0.003,0.006,0.013,0.003,2025-05-24T19:11:28.230258
3069,-0.6744,0.4900,0.5202,-0.700,-5.530,-0.420,1.065,0.006,0.006,0.010,0.006,2025-05-24T19:11:28.230283
3070,-0.6749,0.4943,0.5241,-1.120,-4.690,-0.700,1.065,0.003,0.003,0.010,0.006,2025-05-24T19:11:28.230302
3071,-0.6881,0.4968,0.5275,-1.330,-5.250,-1.050,1.065,0.003,0.006,0.010,0.003,2025-05-24T19:11:28.230322
3072,-0.6949,0.4973,0.5309,-1.540,-6.160,-0.910,1.065,0.006,0.006,0.006,0.006,2025-05-24T19:11:28.230341
3073,-0.6925,0.4982,0.5329,-1.470,-5.600,-0.910,1.065,0.006,0.006,0.010,0.003,2025-05-24T19:11:28.230359
3074,-0.6993,0.4953,0.5334,-1.120,-4.550,-0.280,1.061,0.003,0.006,0.010,0.006,2025-05-24T19:11:28.230403
3075,-0.7008,0.4953,0.5373,-0.910,-4.130,0.420,1.061,0.003,0.003,0.010,0.003,2025-05-24T19:11:28.230421
3076,-0.6934,0.4973,0.5383,-1.260,-4.550,0.910,1.061,0.003,0.006,0.010,0.003,2025-05-24T19:11:28.230439
3077,-0.6842,0.4943,0.5412,-1.610,-5.390,0.910,1.061,0.003,0.003,0.006,0.003,2025-05-24T19:11:28.230457
3078,-0.6715,0.4924,0.5402,-1.470,-5.950,0.840,1.061,0.003,0.003,0.010,0.003,2025-05-24T19:11:28.230474
3079,-0.6676,0.4919,0.5422,-1.050,-5.950,0.420,1.061,0.003,0.006,0.006,0.003,2025-05-24T19:11:28.230490
3080,-0.6725,0.4919,0.5392,-0.420,-6.160,0.070,1.065,0.003,0.006,0.010,0.003,2025-05-24T19:11:28.230564
3081,-0.6793,0.4909,0.5373,0.000,-6.230,-0.420,1.065,0.006,0.003,0.010,0.006,2025-05-24T19:11:28.434663
3082,-0.6886,0.4909,0.5319,0.280,-6.160,-0.210,1.065,0.006,0.006,0.010,0.006,2025-05-24T19:11:28.434714
3083,-0.6978,0.4900,0.5285,0.420,-5.880,0.140,1.065,0.003,0.000,0.010,0.006,2025-05-24T19:11:28.434728
3084,-0.7027,0.4939,0.5266,0.420,-5.670,0.420,1.065,0.003,0.006,0.010,0.003,2025-05-24T19:11:28.434740
3085,-0.7047,0.4968,0.5246,0.000,-5.530,0.840,1.065,0.006,0.006,0.010,0.006,2025-05-24T19:11:28.434751
3086,-0.7013,0.4953,0.5226,-0.560,-5.530,1.260,1.065,0.003,0.006,0.010,0.006,2025-05-24T19:11:28.434761
3087,-0.6905,0.4914,0.5241,-1.120,-5.530,1.680,1.065,0.003,0.000,0.010,0.003,2025-05-24T19:11:28.434772
3088,-0.6788,0.4909,0.5266,-0.980,-5.390,1.400,1.065,0.003,0.003,0.010,0.006,2025-05-24T19:11:28.434784
3089,-0.6710,0.4904,0.5324,-1.260,-5.390,1.050,1.065,0.003,0.000,0.010,0.003,2025-05-24T19:11:28.435210
3090,-0.6656,0.4875,0.5353,-1.400,-6.020,0.210,1.065,0.003,0.006,0.010,0.003,2025-05-24T19:11:28.435237
3091,-0.6666,0.4860,0.5397,-1.260,-6.510,-0.770,1.065,0.000,0.006,0.010,0.003,2025-05-24T19:11:28.435253
3092,-0.6744,0.4860,0.5402,-0.630,-6.790,-0.980,1.065,0.003,0.003,0.010,0.003,2025-05-24T19:11:28.435265
3093,-0.6852,0.4846,0.5378,0.000,-6.370,-1.120,1.068,0.003,0.006,0.010,0.003,2025-05-24T19:11:28.435275
3094,-0.6998,0.4895,0.5373,0.420,-5.670,-0.700,1.061,0.003,0.006,0.010,0.003,2025-05-24T19:11:28.435336
3095,-0.7047,0.4919,0.5334,0.490,-5.530,-0.210,1.061,0.006,0.003,0.010,0.003,2025-05-24T19:11:28.435347
3096,-0.7081,0.4973,0.5324,0.140,-5.950,0.140,1.065,0.006,0.003,0.010,0.003,2025-05-24T19:11:28.435362
3097,-0.7017,0.4978,0.5309,-0.350,-6.510,0.700,1.065,0.003,0.006,0.010,0.003,2025-05-24T19:11:28.664099
3098,-0.6920,0.4963,0.5309,-0.280,-6.230,1.050,1.068,0.006,0.006,0.010,0.006,2025-05-24T19:11:28.664165
3099,-0.6861,0.4948,0.5324,-0.280,-6.020,0.910,1.065,0.003,0.006,0.006,0.006,2025-05-24T19:11:28.664184
3100,-0.6842,0.4943,0.5363,-0.210,-6.230,0.910,1.065,0.003,0.010,0.010,0.006,2025-05-24T19:11:28.664199
3101,-0.6832,0.4924,0.5368,-0.280,-7.000,0.560,1.065,0.003,0.003,0.010,0.006,2025-05-24T19:11:28.664214
3102,-0.6817,0.4914,0.5358,0.000,-7.210,0.420,1.065,0.006,0.006,0.010,0.003,2025-05-24T19:11:28.664499
3103,-0.6832,0.4900,0.5348,0.280,-7.070,0.350,1.065,0.003,0.003,0.010,0.003,2025-05-24T19:11:28.664529
3104,-0.6886,0.4890,0.5324,0.490,-6.860,0.490,1.065,0.003,0.003,0.010,0.003,2025-05-24T19:11:28.664548
3105,-0.6944,0.4904,0.5329,0.420,-6.930,0.490,1.068,0.003,0.003,0.010,0.003,2025-05-24T19:11:28.664561
3106,-0.6964,0.4900,0.5339,0.210,-7.070,0.420,1.065,0.003,0.003,0.006,0.006,2025-05-24T19:11:28.664573
3107,-0.6949,0.4900,0.5314,0.000,-7.490,0.630,1.061,0.003,0.003,0.010,0.003,2025-05-24T19:11:28.664585
3108,-0.6891,0.4880,0.5319,-0.140,-7.700,0.630,1.065,0.003,0.006,0.010,0.003,2025-05-24T19:11:28.664597
3109,-0.6832,0.4846,0.5319,-0.070,-7.490,0.630,1.065,0.003,0.000,0.006,0.003,2025-05-24T19:11:28.664610
3110,-0.6812,0.4817,0.5339,-0.070,-7.420,0.490,1.061,0.006,0.006,0.010,0.003,2025-05-24T19:11:28.664814
3111,-0.6769,0.4817,0.5348,0.210,-7.700,0.070,1.061,0.003,0.006,0.006,0.003,2025-05-24T19:11:28.664858
3112,-0.6749,0.4802,0.5358,0.280,-7.840,-0.420,1.065,0.003,0.006,0.010,0.006,2025-05-24T19:11:28.664873
3113,-0.6686,0.4778,0.5358,0.350,-8.190,-1.120,1.065,0.006,0.003,0.010,0.006,2025-05-24T19:11:28.664887
3114,-0.6725,0.4792,0.5300,0.840,-8.260,-1.610,1.061,0.006,0.006,0.010,0.003,2025-05-24T19:11:28.713549
3115,-0.6773,0.4831,0.5270,1.120,-7.630,-2.100,1.065,0.006,0.006,0.013,0.006,2025-05-24T19:11:28.713596
3116,-0.6837,0.4826,0.5251,1.190,-6.580,-2.030,1.068,0.006,0.003,0.010,0.006,2025-05-24T19:11:28.713611
3117,-0.6915,0.4880,0.5217,0.630,-6.370,-2.030,1.065,0.003,0.006,0.010,0.003,2025-05-24T19:11:28.713752
3118,-0.6939,0.4880,0.5246,0.210,-6.930,-2.100,1.065,0.006,0.003,0.010,0.003,2025-05-24T19:11:28.761455
3119,-0.6934,0.4914,0.5266,-0.210,-7.560,-2.310,1.065,0.003,0.006,0.010,0.006,2025-05-24T19:11:28.761500
3120,-0.6910,0.4890,0.5314,0.070,-7.490,-2.100,1.068,0.006,0.003,0.010,0.006,2025-05-24T19:11:28.761513
3121,-0.6886,0.4914,0.5348,0.630,-6.860,-1.820,1.065,0.003,0.010,0.006,0.006,2025-05-24T19:11:28.761524
3122,-0.6895,0.4914,0.5358,0.910,-6.020,-1.680,1.065,0.003,0.006,0.010,0.003,2025-05-24T19:11:28.839625
3123,-0.6949,0.4904,0.5392,1.050,-6.230,-1.540,1.065,0.006,0.006,0.006,0.006,2025-05-24T19:11:28.839666
3124,-0.6886,0.4904,0.5358,1.330,-6.860,-1.260,1.061,0.006,0.006,0.010,0.006,2025-05-24T19:11:28.839689
3125,-0.6822,0.4919,0.5319,1.610,-6.860,-1.330,1.065,0.006,0.006,0.010,0.006,2025-05-24T19:11:29.055773
3126,-0.6808,0.4919,0.5305,1.610,-6.650,-1.330,1.065,0.003,0.003,0.013,0.006,2025-05-24T19:11:29.055819
3127,-0.6793,0.4914,0.5270,1.470,-6.510,-1.470,1.065,0.003,0.003,0.010,0.003,2025-05-24T19:11:29.055831
3128,-0.6827,0.4939,0.5256,1.120,-6.580,-1.680,1.061,0.003,0.003,0.006,0.006,2025-05-24T19:11:29.055844
3129,-0.6871,0.4909,0.5246,0.350,-7.070,-1.890,1.068,0.003,0.006,0.010,0.003,2025-05-24T19:11:29.055854
3130,-0.6939,0.4914,0.5241,0.140,-7.280,-1.750,1.065,0.006,0.006,0.010,0.003,2025-05-24T19:11:29.055864
3131,-0.6969,0.4904,0.5226,-0.070,-6.930,-1.330,1.065,0.006,0.003,0.010,0.003,2025-05-24T19:11:29.055888
3132,-0.6998,0.4890,0.5246,0.070,-6.160,-0.630,1.065,0.003,0.006,0.010,0.000,2025-05-24T19:11:29.055898
3133,-0.6988,0.4880,0.5261,-0.350,-5.810,-0.140,1.065,0.003,0.003,0.010,0.006,2025-05-24T19:11:29.055907
3134,-0.6954,0.4856,0.5309,-0.700,-5.810,-0.070,1.061,0.003,0.003,0.006,0.003,2025-05-24T19:11:29.055917
3135,-0.6925,0.4836,0.5392,-1.050,-6.300,-0.280,1.065,0.003,0.003,0.013,0.003,2025-05-24T19:11:29.055926
3136,-0.6866,0.4792,0.5402,-0.980,-7.070,-0.560,1.065,0.003,0.003,0.010,0.006,2025-05-24T19:11:29.055935
3137,-0.6827,0.4743,0.5456,-0.280,-7.000,-0.840,1.065,0.006,0.006,0.010,0.003,2025-05-24T19:11:29.055944
3138,-0.6842,0.4753,0.5456,0.560,-6.510,-0.910,1.061,0.003,0.003,0.010,0.003,2025-05-24T19:11:29.055960
3139,-0.6876,0.4743,0.5485,1.190,-6.020,-1.120,1.065,0.006,0.003,0.010,0.006,2025-05-24T19:11:29.056005
3140,-0.6881,0.4758,0.5451,1.890,-6.370,-1.190,1.065,0.003,0.003,0.010,0.003,2025-05-24T19:11:29.056060
3141,-0.6905,0.4782,0.5412,2.380,-6.720,-1.260,1.065,0.006,0.006,0.006,0.003,2025-05-24T19:11:29.058944
3142,-0.6920,0.4797,0.5373,2.380,-7.000,-1.470,1.061,0.006,0.006,0.010,0.003,2025-05-24T19:11:29.058967
3143,-0.6905,0.4802,0.5358,2.030,-7.210,-1.750,1.065,0.003,0.006,0.013,0.006,2025-05-24T19:11:29.058978
3144,-0.6949,0.4792,0.5348,1.680,-7.560,-1.820,1.065,0.006,0.003,0.010,0.006,2025-05-24T19:11:29.350006
3145,-0.6925,0.4778,0.5324,1.960,-7.630,-1.610,1.065,0.003,0.003,0.010,0.006,2025-05-24T19:11:29.350087
3146,-0.6856,0.4826,0.5309,1.960,-7.070,-1.820,1.065,0.003,0.006,0.010,0.006,2025-05-24T19:11:29.350111
3147,-0.6856,0.4885,0.5314,1.750,-7.140,-2.240,1.065,0.003,0.006,0.010,0.003,2025-05-24T19:11:29.350131
3148,-0.6949,0.4895,0.5334,1.890,-7.840,-2.730,1.065,0.006,0.003,0.010,0.006,2025-05-24T19:11:29.350149
3149,-0.6998,0.4885,0.5324,1.890,-7.910,-2.520,1.065,0.003,0.006,0.010,0.003,2025-05-24T19:11:29.350166
3150,-0.7017,0.4909,0.5339,1.890,-7.000,-2.100,1.061,0.003,0.006,0.010,0.006,2025-05-24T19:11:29.350184
3151,-0.7066,0.4895,0.5329,1.820,-6.860,-1.400,1.065,0.006,0.006,0.013,0.003,2025-05-24T19:11:29.350201
3152,-0.7076,0.4895,0.5334,1.890,-7.210,-0.770,1.061,0.003,0.006,0.010,0.006,2025-05-24T19:11:29.350219
3153,-0.7047,0.4885,0.5353,2.030,-8.050,-0.140,1.065,0.006,0.000,0.010,0.003,2025-05-24T19:11:29.350266
3154,-0.6915,0.4914,0.5353,1.820,-7.910,0.070,1.065,0.003,0.000,0.013,0.003,2025-05-24T19:11:29.350283
3155,-0.6886,0.4870,0.5358,2.170,-7.630,0.000,1.065,0.003,0.003,0.010,0.003,2025-05-24T19:11:29.350301
3156,-0.6871,0.4870,0.5353,2.800,-8.050,-0.140,1.061,0.003,0.003,0.010,0.003,2025-05-24T19:11:29.350327
3157,-0.6900,0.4836,0.5319,3.290,-8.400,-0.560,1.061,0.003,0.003,0.010,0.006,2025-05-24T19:11:29.350401
3158,-0.6964,0.4821,0.5270,3.710,-8.330,-0.210,1.068,0.006,0.003,0.010,0.006,2025-05-24T19:11:29.350420
3159,-0.7022,0.4817,0.5226,3.780,-7.840,-0.070,1.065,0.006,0.010,0.010,0.006,2025-05-24T19:11:29.350438
3160,-0.7027,0.4836,0.5212,3.360,-7.280,0.140,1.065,0.006,0.003,0.013,0.003,2025-05-24T19:11:29.350454
3161,-0.7061,0.4831,0.5217,2.730,-7.420,0.210,1.065,0.006,0.003,0.010,0.006,2025-05-24T19:11:29.350470
3162,-0.7003,0.4836,0.5222,2.100,-7.910,0.140,1.068,0.003,0.006,0.010,0.003,2025-05-24T19:11:29.478885
3163,-0.6876,0.4826,0.5241,1.540,-8.050,0.000,1.065,0.006,0.003,0.013,0.006,2025-05-24T19:11:29.478955
3164,-0.6803,0.4802,0.5266,1.400,-7.700,-0.350,1.065,0.006,0.006,0.010,0.006,2025-05-24T19:11:29.478977
3165,-0.6764,0.4792,0.5275,1.470,-7.770,-0.700,1.065,0.003,0.003,0.010,0.006,2025-05-24T19:11:29.478995
3166,-0.6778,0.4797,0.5339,1.610,-7.980,-1.400,1.065,0.006,0.006,0.010,0.006,2025-05-24T19:11:29.479036
3167,-0.6861,0.4797,0.5353,1.960,-8.190,-1.890,1.065,0.006,0.003,0.010,0.003,2025-05-24T19:11:29.479055
3168,-0.6910,0.4826,0.5339,2.380,-8.190,-2.100,1.065,0.003,0.003,0.010,0.006,2025-05-24T19:11:29.479073
3169,-0.7022,0.4831,0.5324,2.800,-7.980,-1.960,1.065,0.003,0.006,0.010,0.003,2025-05-24T19:11:29.479088
3170,-0.7076,0.4885,0.5309,2.870,-7.840,-1.470,1.068,0.006,0.003,0.010,0.003,2025-05-24T19:11:29.479103
3171,-0.7061,0.4929,0.5285,2.730,-7.490,-0.840,1.061,0.003,0.003,0.013,0.003,2025-05-24T19:11:29.479118
3172,-0.7037,0.4924,0.5295,2.170,-7.560,-0.420,1.065,0.003,0.006,0.010,0.003,2025-05-24T19:11:29.479137
3173,-0.6959,0.4904,0.5295,2.240,-7.910,-0.210,1.065,0.003,0.003,0.010,0.003,2025-05-24T19:11:29.479151
3174,-0.6852,0.4904,0.5290,2.450,-8.190,-0.210,1.061,0.003,0.003,0.013,0.003,2025-05-24T19:11:29.479177
3175,-0.6822,0.4904,0.5295,2.520,-7.910,-0.630,1.065,0.003,0.003,0.010,0.003,2025-05-24T19:11:29.479240
3176,-0.6871,0.4900,0.5319,2.240,-8.470,-0.560,1.061,0.003,0.006,0.006,0.006,2025-05-24T19:11:29.560058
3177,-0.6915,0.4890,0.5290,2.240,-8.820,-0.840,1.065,0.006,0.003,0.006,0.006,2025-05-24T19:11:29.560130
3178,-0.6934,0.4875,0.5256,2.520,-8.610,-0.630,1.061,0.006,0.003,0.010,0.006,2025-05-24T19:11:29.560149
3179,-0.6969,0.4900,0.5226,2.730,-7.560,-0.350,1.065,0.003,0.006,0.010,0.003,2025-05-24T19:11:29.560166
3180,-0.6974,0.4909,0.5217,2.800,-7.000,0.000,1.065,0.003,0.006,0.010,0.003,2025-05-24T19:11:29.664087
3181,-0.6969,0.4934,0.5212,2.450,-7.000,0.210,1.065,0.003,0.006,0.010,0.006,2025-05-24T19:11:29.664165
3182,-0.6974,0.4924,0.5207,1.820,-7.840,0.070,1.065,0.003,0.003,0.013,0.006,2025-05-24T19:11:29.664183
3183,-0.6881,0.4914,0.5222,1.050,-8.120,-0.070,1.065,0.006,0.006,0.013,0.006,2025-05-24T19:11:29.664198
3184,-0.6837,0.4885,0.5226,0.910,-7.770,-0.210,1.065,0.003,0.003,0.010,0.003,2025-05-24T19:11:29.664212
3185,-0.6822,0.4865,0.5231,0.980,-7.560,-0.070,1.061,0.003,0.003,0.010,0.003,2025-05-24T19:11:29.664225
3186,-0.6837,0.4856,0.5280,1.050,-7.210,-0.280,1.061,0.003,0.003,0.010,0.006,2025-05-24T19:11:29.664237
3187,-0.6871,0.4826,0.5300,1.120,-7.280,-0.280,1.065,0.006,0.006,0.010,0.006,2025-05-24T19:11:29.664250
3188,-0.6876,0.4836,0.5280,1.120,-7.560,-0.490,1.065,0.003,0.003,0.010,0.003,2025-05-24T19:11:29.664265
3189,-0.6886,0.4851,0.5285,1.190,-7.560,-0.630,1.065,0.003,0.003,0.006,0.003,2025-05-24T19:11:29.664277
3190,-0.6891,0.4875,0.5280,1.120,-7.000,-0.700,1.065,0.003,0.003,0.010,0.006,2025-05-24T19:11:29.870001
3191,-0.6934,0.4870,0.5270,1.050,-6.790,-0.700,1.061,0.006,0.006,0.010,0.006,2025-05-24T19:11:29.870066
3192,-0.6978,0.4895,0.5295,1.190,-7.210,-0.630,1.065,0.003,0.006,0.010,0.006,2025-05-24T19:11:29.870116
3193,-0.6978,0.4880,0.5295,1.050,-7.560,-0.420,1.065,0.003,0.006,0.010,0.006,2025-05-24T19:11:29.870134
3194,-0.6949,0.4904,0.5319,1.050,-7.490,-0.140,1.065,0.003,0.006,0.010,0.003,2025-05-24T19:11:29.870150
3195,-0.6915,0.4904,0.5353,1.260,-7.210,-0.140,1.065,0.003,0.003,0.006,0.003,2025-05-24T19:11:29.870168
3196,-0.6891,0.4895,0.5344,1.680,-6.790,0.000,1.065,0.006,0.006,0.010,0.006,2025-05-24T19:11:29.870182
3197,-0.6866,0.4919,0.5348,1.820,-6.790,-0.070,1.065,0.003,0.006,0.010,0.003,2025-05-24T19:11:29.870196
3198,-0.6861,0.4914,0.5348,1.750,-7.140,-0.070,1.065,0.003,0.003,0.013,0.003,2025-05-24T19:11:29.870210
3199,-0.6910,0.4919,0.5305,1.750,-7.910,-0.070,1.061,0.006,0.003,0.010,0.006,2025-05-24T19:11:29.870223
3200,-0.6861,0.4914,0.5290,1.820,-8.050,-0.070,1.065,0.006,0.006,0.010,0.003,2025-05-24T19:11:29.870237
3201,-0.6866,0.4924,0.5266,1.820,-7.420,-0.070,1.061,0.006,0.006,0.010,0.003,2025-05-24T19:11:29.870250
3202,-0.6891,0.4904,0.5241,1.890,-7.140,-0.070,1.065,0.006,0.003,0.010,0.003,2025-05-24T19:11:29.870268
3203,-0.6944,0.4919,0.5212,1.680,-6.930,0.210,1.065,0.003,0.003,0.006,0.006,2025-05-24T19:11:29.870325
3204,-0.6954,0.4939,0.5241,1.190,-7.070,0.140,1.065,0.003,0.003,0.010,0.003,2025-05-24T19:11:29.870339
3205,-0.6939,0.4939,0.5246,0.770,-7.280,0.350,1.065,0.003,0.003,0.013,0.003,2025-05-24T19:11:29.870352
3206,-0.6910,0.4909,0.5256,0.560,-7.420,0.210,1.065,0.003,0.006,0.013,0.006,2025-05-24T19:11:30.099731
3207,-0.6886,0.4924,0.5256,0.770,-7.000,0.420,1.065,0.006,0.006,0.010,0.003,2025-05-24T19:11:30.099773
3208,-0.6900,0.4914,0.5256,0.770,-6.510,0.490,1.065,0.003,0.003,0.013,0.006,2025-05-24T19:11:30.099785
3209,-0.6900,0.4909,0.5270,0.630,-6.160,0.630,1.065,0.006,0.006,0.010,0.003,2025-05-24T19:11:30.099805
3210,-0.6886,0.4900,0.5300,0.560,-6.440,0.630,1.061,0.006,0.003,0.013,0.006,2025-05-24T19:11:30.099817
3211,-0.6891,0.4865,0.5300,0.770,-7.280,0.560,1.065,0.006,0.006,0.010,0.003,2025-05-24T19:11:30.099826
3212,-0.6866,0.4846,0.5290,0.910,-7.280,0.630,1.061,0.006,0.006,0.010,0.003,2025-05-24T19:11:30.099839
3213,-0.6803,0.4880,0.5295,1.050,-6.370,0.630,1.065,0.003,0.006,0.013,0.006,2025-05-24T19:11:30.099851
3214,-0.6822,0.4875,0.5261,1.190,-5.740,0.420,1.061,0.003,0.006,0.013,0.006,2025-05-24T19:11:30.099860
3215,-0.6847,0.4914,0.5251,1.260,-6.160,0.210,1.065,0.006,0.003,0.010,0.006,2025-05-24T19:11:30.099869
3216,-0.6891,0.4880,0.5251,0.910,-6.930,0.000,1.065,0.003,0.003,0.010,0.003,2025-05-24T19:11:30.099884
3217,-0.6847,0.4880,0.5222,0.420,-7.070,-0.140,1.065,0.006,0.006,0.010,0.003,2025-05-24T19:11:30.099897
3218,-0.6905,0.4851,0.5231,0.420,-6.790,-0.280,1.065,0.006,0.003,0.010,0.003,2025-05-24T19:11:30.099908
3219,-0.6895,0.4841,0.5231,0.700,-6.510,-0.210,1.065,0.003,0.000,0.010,0.003,2025-05-24T19:11:30.099942
3220,-0.6900,0.4865,0.5261,0.770,-5.950,-0.560,1.065,0.003,0.003,0.010,0.006,2025-05-24T19:11:30.100126
3221,-0.6978,0.4909,0.5270,0.420,-6.020,-1.120,1.061,0.003,0.006,0.010,0.003,2025-05-24T19:11:30.100136
3222,-0.7017,0.4909,0.5285,0.210,-6.720,-1.050,1.061,0.003,0.006,0.010,0.006,2025-05-24T19:11:30.286159
3223,-0.6988,0.4914,0.5314,0.420,-6.790,-0.910,1.068,0.006,0.003,0.010,0.006,2025-05-24T19:11:30.286249
3224,-0.6920,0.4895,0.5344,0.350,-6.300,-0.490,1.065,0.003,0.010,0.010,0.006,2025-05-24T19:11:30.286268
3225,-0.6939,0.4904,0.5353,0.350,-6.300,-0.420,1.068,0.003,0.003,0.013,0.006,2025-05-24T19:11:30.286284
3226,-0.6910,0.4914,0.5383,0.630,-7.140,-0.140,1.065,0.003,0.006,0.010,0.006,2025-05-24T19:11:30.286298
3227,-0.6876,0.4919,0.5383,0.910,-7.980,-0.210,1.065,0.006,0.006,0.010,0.006,2025-05-24T19:11:30.286312
3228,-0.6837,0.4909,0.5388,1.190,-8.260,-0.210,1.065,0.003,0.006,0.010,0.006,2025-05-24T19:11:30.286326
3229,-0.6812,0.4924,0.5344,1.890,-8.260,-0.350,1.068,0.003,0.003,0.010,0.003,2025-05-24T19:11:30.286339
3230,-0.6837,0.4895,0.5275,2.730,-7.770,-0.560,1.065,0.003,0.006,0.010,0.003,2025-05-24T19:11:30.286354
3231,-0.6925,0.4924,0.5241,3.290,-7.700,-0.490,1.068,0.003,0.003,0.010,0.003,2025-05-24T19:11:30.286368
3232,-0.7003,0.4943,0.5144,3.150,-7.490,-0.350,1.065,0.003,0.003,0.010,0.003,2025-05-24T19:11:30.286381
3233,-0.7061,0.4958,0.5100,2.240,-7.630,-0.140,1.061,0.003,0.003,0.006,0.006,2025-05-24T19:11:30.286395
3234,-0.7032,0.4978,0.5065,1.470,-7.770,0.280,1.065,0.006,0.006,0.010,0.003,2025-05-24T19:11:30.286408
3235,-0.6949,0.4958,0.5046,0.420,-7.280,0.350,1.065,0.006,0.003,0.006,0.003,2025-05-24T19:11:30.286468
3236,-0.6954,0.4943,0.5144,-0.140,-7.350,0.490,1.065,0.003,0.006,0.006,0.006,2025-05-24T19:11:30.286484
3237,-0.6871,0.4860,0.5226,-0.490,-7.490,0.350,1.065,0.006,0.006,0.010,0.006,2025-05-24T19:11:30.286499
3238,-0.6812,0.4817,0.5256,-0.210,-7.420,0.210,1.065,0.003,0.003,0.010,0.006,2025-05-24T19:11:30.338625
3239,-0.6710,0.4831,0.5295,0.280,-7.140,-0.350,1.065,0.003,0.006,0.010,0.006,2025-05-24T19:11:30.338666
3240,-0.6734,0.4831,0.5344,0.910,-7.000,-0.980,1.065,0.006,0.003,0.013,0.006,2025-05-24T19:11:30.338677
3241,-0.6788,0.4875,0.5329,1.540,-7.280,-1.400,1.065,0.003,0.006,0.013,0.006,2025-05-24T19:11:30.338686
3242,-0.6861,0.4870,0.5305,1.820,-7.210,-1.610,1.065,0.006,0.006,0.010,0.006,2025-05-24T19:11:30.484484
3243,-0.6959,0.4885,0.5290,1.750,-7.140,-1.610,1.061,0.006,0.003,0.013,0.003,2025-05-24T19:11:30.484557
3244,-0.7037,0.4934,0.5280,1.890,-7.140,-1.190,1.068,0.003,0.006,0.010,0.003,2025-05-24T19:11:30.484576
3245,-0.7052,0.4958,0.5275,1.680,-7.280,-0.490,1.065,0.006,0.006,0.013,0.006,2025-05-24T19:11:30.484593
3246,-0.7022,0.4963,0.5275,1.400,-7.140,-0.210,1.065,0.003,0.006,0.010,0.006,2025-05-24T19:11:30.484608
3247,-0.6959,0.4968,0.5285,1.050,-7.560,-0.070,1.065,0.003,0.003,0.010,0.003,2025-05-24T19:11:30.484642
3248,-0.6910,0.4948,0.5295,1.050,-7.840,0.000,1.065,0.003,0.003,0.010,0.003,2025-05-24T19:11:30.484657
3249,-0.6852,0.4934,0.5319,1.190,-8.190,-0.140,1.065,0.006,0.003,0.010,0.003,2025-05-24T19:11:30.484671
3250,-0.6817,0.4929,0.5348,1.470,-7.840,-0.350,1.065,0.003,0.003,0.010,0.003,2025-05-24T19:11:30.484684
3251,-0.6817,0.4943,0.5309,1.960,-7.770,-0.560,1.065,0.003,0.003,0.010,0.003,2025-05-24T19:11:30.484702
3252,-0.6827,0.4929,0.5285,2.240,-7.700,-0.700,1.065,0.003,0.003,0.006,0.003,2025-05-24T19:11:30.484716
3253,-0.6886,0.4953,0.5241,2.380,-7.630,-0.630,1.065,0.003,0.006,0.010,0.006,2025-05-24T19:11:30.687995
3254,-0.6925,0.4958,0.5178,2.240,-7.770,-0.420,1.061,0.003,0.003,0.013,0.006,2025-05-24T19:11:30.688049
3255,-0.6959,0.4973,0.5178,1.820,-7.700,-0.140,1.065,0.003,0.006,0.010,0.006,2025-05-24T19:11:30.688064
3256,-0.7013,0.4958,0.5187,1.190,-7.560,0.000,1.065,0.006,0.003,0.013,0.006,2025-05-24T19:11:30.688077
3257,-0.7032,0.4968,0.5217,0.700,-7.910,0.280,1.065,0.003,0.006,0.013,0.006,2025-05-24T19:11:30.688089
3258,-0.6988,0.4968,0.5246,0.420,-7.840,0.630,1.065,0.003,0.006,0.013,0.003,2025-05-24T19:11:30.688101
3259,-0.6910,0.4939,0.5266,0.350,-7.350,0.770,1.068,0.003,0.003,0.013,0.003,2025-05-24T19:11:30.688132
3260,-0.6856,0.4914,0.5309,0.700,-7.420,0.560,1.065,0.003,0.003,0.013,0.003,2025-05-24T19:11:30.688143
3261,-0.6847,0.4904,0.5339,1.190,-7.770,0.420,1.065,0.006,0.003,0.010,0.003,2025-05-24T19:11:30.688155
3262,-0.6842,0.4924,0.5353,1.400,-7.700,0.210,1.061,0.003,0.003,0.013,0.003,2025-05-24T19:11:30.688166
3263,-0.6837,0.4895,0.5353,1.470,-7.910,0.210,1.065,0.006,0.003,0.010,0.003,2025-05-24T19:11:30.855663
3264,-0.6861,0.4890,0.5344,1.750,-7.910,0.070,1.065,0.003,0.003,0.006,0.003,2025-05-24T19:11:30.855688
3265,-0.6852,0.4909,0.5295,2.100,-7.630,0.140,1.068,0.003,0.003,0.010,0.003,2025-05-24T19:11:30.855697
3266,-0.6861,0.4948,0.5290,2.030,-7.280,0.070,1.061,0.006,0.003,0.010,0.003,2025-05-24T19:11:30.855754
3267,-0.6934,0.4953,0.5251,1.750,-7.840,0.000,1.061,0.003,0.003,0.010,0.003,2025-05-24T19:11:30.855763
3268,-0.6881,0.4968,0.5246,1.330,-8.540,0.000,1.068,0.006,0.006,0.006,0.003,2025-05-24T19:11:30.855776
3269,-0.6871,0.4963,0.5231,0.980,-8.470,0.140,1.061,0.006,0.006,0.013,0.003,2025-05-24T19:11:30.855784
3270,-0.6861,0.4943,0.5251,0.980,-7.840,0.350,1.065,0.003,0.003,0.010,0.006,2025-05-24T19:11:30.855791
3271,-0.6871,0.4943,0.5266,1.120,-7.490,0.280,1.065,0.003,0.006,0.010,0.006,2025-05-24T19:11:30.855798
3272,-0.6861,0.4934,0.5280,1.330,-7.700,0.420,1.065,0.003,0.003,0.013,0.006,2025-05-24T19:11:30.855805
3273,-0.6861,0.4943,0.5285,1.470,-7.700,0.490,1.065,0.006,0.006,0.010,0.006,2025-05-24T19:11:30.855813
3274,-0.6832,0.4953,0.5295,1.190,-7.350,0.420,1.068,0.006,0.006,0.010,0.003,2025-05-24T19:11:30.855820
3275,-0.6837,0.4934,0.5309,1.260,-7.490,0.420,1.065,0.003,0.003,0.010,0.003,2025-05-24T19:11:30.855830
3276,-0.6798,0.4929,0.5275,1.400,-7.420,0.350,1.065,0.003,0.006,0.013,0.003,2025-05-24T19:11:31.034247
3277,-0.6783,0.4924,0.5275,1.540,-7.070,0.210,1.065,0.003,0.006,0.010,0.006,2025-05-24T19:11:31.034300
3278,-0.6788,0.4929,0.5275,1.260,-6.790,0.000,1.065,0.003,0.006,0.010,0.003,2025-05-24T19:11:31.034316
3279,-0.6808,0.4924,0.5246,1.050,-6.930,0.070,1.065,0.003,0.010,0.010,0.006,2025-05-24T19:11:31.034329
3280,-0.6769,0.4909,0.5246,1.050,-6.930,-0.070,1.065,0.003,0.003,0.013,0.003,2025-05-24T19:11:31.034341
3281,-0.6812,0.4924,0.5251,1.050,-6.930,-0.350,1.068,0.003,0.003,0.006,0.003,2025-05-24T19:11:31.034354
3282,-0.6837,0.4934,0.5256,0.840,-6.790,-0.210,1.068,0.003,0.006,0.006,0.003,2025-05-24T19:11:31.034384
3283,-0.6837,0.4963,0.5270,0.770,-6.510,-0.210,1.065,0.003,0.003,0.010,0.003,2025-05-24T19:11:31.034396
3284,-0.6891,0.4934,0.5305,0.700,-6.370,-0.280,1.065,0.006,0.000,0.006,0.003,2025-05-24T19:11:31.034408
3285,-0.6842,0.4929,0.5300,0.630,-6.860,0.000,1.065,0.003,0.006,0.010,0.003,2025-05-24T19:11:31.034420
3286,-0.6783,0.4948,0.5256,0.770,-6.300,-0.140,1.061,0.003,0.003,0.010,0.003,2025-05-24T19:11:31.034436
3287,-0.6773,0.4948,0.5275,1.050,-5.670,-0.280,1.061,0.003,0.006,0.010,0.006,2025-05-24T19:11:31.034447
3288,-0.6812,0.4978,0.5290,0.630,-5.880,-0.280,1.065,0.003,0.003,0.006,0.006,2025-05-24T19:11:31.034458
3289,-0.6817,0.4948,0.5275,0.350,-6.440,-0.420,1.065,0.003,0.003,0.010,0.006,2025-05-24T19:11:31.034504
3290,-0.6822,0.4924,0.5285,0.350,-6.440,-0.350,1.065,0.003,0.003,0.006,0.006,2025-05-24T19:11:31.034521
3291,-0.6812,0.4914,0.5290,0.490,-5.950,-0.280,1.065,0.003,0.006,0.010,0.003,2025-05-24T19:11:31.034532
3292,-0.6798,0.4934,0.5285,0.420,-5.460,-0.420,1.065,0.003,0.003,0.010,0.003,2025-05-24T19:11:31.034543
3293,-0.6852,0.4968,0.5309,0.280,-5.460,-0.770,1.065,0.003,0.006,0.010,0.003,2025-05-24T19:11:31.034553
3294,-0.6876,0.5002,0.5309,-0.070,-5.950,-1.050,1.065,0.003,0.006,0.010,0.003,2025-05-24T19:11:31.095561
3295,-0.6915,0.4997,0.5334,-0.280,-6.230,-1.120,1.065,0.006,0.006,0.010,0.003,2025-05-24T19:11:31.095644
3296,-0.6905,0.4997,0.5334,-0.420,-5.810,-0.490,1.065,0.006,0.006,0.010,0.003,2025-05-24T19:11:31.095662
3297,-0.6920,0.4973,0.5353,-0.560,-5.460,0.000,1.065,0.006,0.003,0.013,0.003,2025-05-24T19:11:31.095684
3298,-0.6876,0.4992,0.5383,-0.420,-5.460,0.350,1.061,0.006,0.003,0.013,0.006,2025-05-24T19:11:31.095699
3299,-0.6822,0.5007,0.5392,-0.420,-5.740,0.420,1.061,0.006,0.006,0.013,0.003,2025-05-24T19:11:31.300896
3300,-0.6744,0.5026,0.5358,-0.280,-6.020,0.420,1.065,0.006,0.003,0.013,0.006,2025-05-24T19:11:31.300948
3301,-0.6725,0.5051,0.5329,-0.070,-6.020,0.210,1.065,0.003,0.003,0.013,0.006,2025-05-24T19:11:31.300965
3302,-0.6749,0.5036,0.5290,0.210,-5.950,-0.070,1.065,0.003,0.003,0.010,0.006,2025-05-24T19:11:31.300982
3303,-0.6852,0.5017,0.5270,0.070,-6.160,-0.280,1.065,0.006,0.003,0.010,0.006,2025-05-24T19:11:31.300995
3304,-0.6978,0.5022,0.5207,0.000,-6.440,-0.070,1.065,0.003,0.006,0.010,0.003,2025-05-24T19:11:31.301023
3305,-0.7017,0.5022,0.5173,-0.140,-6.230,0.490,1.068,0.003,0.006,0.006,0.003,2025-05-24T19:11:31.301035
3306,-0.7008,0.5031,0.5134,-0.210,-5.320,1.330,1.068,0.003,0.003,0.013,0.003,2025-05-24T19:11:31.301046
3307,-0.6944,0.5051,0.5104,-0.980,-4.060,1.820,1.068,0.003,0.006,0.006,0.003,2025-05-24T19:11:31.301057
3308,-0.6900,0.5051,0.5134,-1.890,-3.920,1.960,1.061,0.003,0.003,0.010,0.003,2025-05-24T19:11:31.301068
3309,-0.6808,0.5070,0.5144,-2.800,-4.410,1.890,1.065,0.003,0.006,0.010,0.003,2025-05-24T19:11:31.301079
3310,-0.6681,0.5041,0.5187,-3.360,-4.760,1.400,1.068,0.003,0.003,0.010,0.003,2025-05-24T19:11:31.301092
3311,-0.6598,0.5031,0.5226,-3.360,-4.690,0.980,1.065,0.003,0.003,0.013,0.003,2025-05-24T19:11:31.301108
3312,-0.6647,0.5007,0.5270,-3.360,-4.550,0.280,1.068,0.003,0.010,0.010,0.006,2025-05-24T19:11:31.301154
3313,-0.6744,0.5002,0.5300,-3.150,-4.900,-0.070,1.065,0.003,0.006,0.013,0.003,2025-05-24T19:11:31.301166
3314,-0.6876,0.4968,0.5329,-2.870,-5.250,0.140,1.065,0.006,0.006,0.010,0.006,2025-05-24T19:11:31.301177
3315,-0.6944,0.4997,0.5368,-2.660,-4.970,0.560,1.065,0.006,0.003,0.010,0.006,2025-05-24T19:11:31.543342
3316,-0.7037,0.4997,0.5378,-2.450,-4.480,1.260,1.065,0.003,0.006,0.010,0.003,2025-05-24T19:11:31.543388
3317,-0.7013,0.5017,0.5392,-2.240,-4.130,1.820,1.065,0.006,0.006,0.013,0.006,2025-05-24T19:11:31.543400
3318,-0.7003,0.5051,0.5363,-2.590,-4.340,2.170,1.065,0.006,0.006,0.010,0.003,2025-05-24T19:11:31.543435
3319,-0.6930,0.5026,0.5383,-2.800,-5.040,2.450,1.068,0.006,0.010,0.010,0.006,2025-05-24T19:11:31.543446
3320,-0.6822,0.5002,0.5388,-3.220,-5.740,2.380,1.065,0.006,0.003,0.010,0.003,2025-05-24T19:11:31.543457
3321,-0.6837,0.4968,0.5402,-3.500,-6.440,1.960,1.065,0.006,0.003,0.010,0.003,2025-05-24T19:11:31.543467
3322,-0.6817,0.4919,0.5392,-3.430,-6.860,1.820,1.061,0.003,0.003,0.010,0.003,2025-05-24T19:11:31.543476
3323,-0.6808,0.4870,0.5402,-2.870,-6.580,1.610,1.061,0.006,0.006,0.010,0.006,2025-05-24T19:11:31.543486
3324,-0.6871,0.4895,0.5368,-2.310,-6.160,1.750,1.065,0.006,0.003,0.010,0.006,2025-05-24T19:11:31.543497
3325,-0.6895,0.4870,0.5329,-1.540,-6.020,1.680,1.061,0.003,0.003,0.010,0.003,2025-05-24T19:11:31.543510
3326,-0.6930,0.4870,0.5314,-1.330,-6.300,1.750,1.065,0.003,0.006,0.010,0.003,2025-05-24T19:11:31.543519
3327,-0.6886,0.4919,0.5256,-1.400,-6.300,1.680,1.061,0.003,0.003,0.010,0.003,2025-05-24T19:11:31.543529
3328,-0.6852,0.4904,0.5261,-1.750,-6.020,1.540,1.065,0.003,0.003,0.010,0.003,2025-05-24T19:11:31.543567
3329,-0.6847,0.4909,0.5231,-2.170,-6.160,1.610,1.068,0.003,0.003,0.010,0.003,2025-05-24T19:11:31.543577
3330,-0.6803,0.4880,0.5275,-2.450,-6.300,1.330,1.065,0.003,0.003,0.010,0.006,2025-05-24T19:11:31.543586
3331,-0.6832,0.4846,0.5295,-2.590,-6.650,0.980,1.065,0.006,0.003,0.013,0.003,2025-05-24T19:11:31.725229
3332,-0.6817,0.4856,0.5300,-2.520,-6.650,0.840,1.065,0.003,0.006,0.010,0.006,2025-05-24T19:11:31.725308
3333,-0.6803,0.4817,0.5353,-2.240,-6.440,0.910,1.068,0.003,0.003,0.013,0.006,2025-05-24T19:11:31.725326
3334,-0.6798,0.4826,0.5368,-1.890,-5.950,0.630,1.065,0.006,0.006,0.013,0.006,2025-05-24T19:11:31.725341
3335,-0.6817,0.4841,0.5358,-1.540,-5.810,0.350,1.065,0.006,0.006,0.006,0.003,2025-05-24T19:11:31.725354
3336,-0.6876,0.4856,0.5412,-1.190,-5.950,0.070,1.065,0.006,0.006,0.010,0.003,2025-05-24T19:11:31.725367
3337,-0.6861,0.4856,0.5373,-0.980,-6.020,-0.070,1.068,0.003,0.003,0.006,0.003,2025-05-24T19:11:31.725379
3338,-0.6842,0.4851,0.5368,-0.700,-6.090,0.070,1.065,0.003,0.003,0.006,0.003,2025-05-24T19:11:31.725394
3339,-0.6871,0.4865,0.5339,-0.560,-5.950,0.070,1.065,0.003,0.006,0.010,0.003,2025-05-24T19:11:31.725412
3340,-0.6847,0.4865,0.5344,-0.490,-6.020,0.350,1.065,0.006,0.006,0.010,0.003,2025-05-24T19:11:31.725426
3341,-0.6847,0.4875,0.5348,-0.420,-5.950,0.070,1.065,0.003,0.006,0.013,0.003,2025-05-24T19:11:31.725438
3342,-0.6832,0.4851,0.5324,-0.280,-6.090,0.000,1.061,0.003,0.006,0.010,0.003,2025-05-24T19:11:31.725449
3343,-0.6812,0.4870,0.5319,-0.070,-6.090,-0.210,1.061,0.003,0.006,0.010,0.006,2025-05-24T19:11:31.725462
3344,-0.6783,0.4856,0.5324,0.070,-5.880,-0.280,1.061,0.006,0.006,0.010,0.003,2025-05-24T19:11:31.725516
3345,-0.6812,0.4851,0.5324,0.140,-5.810,-0.700,1.068,0.006,0.003,0.010,0.003,2025-05-24T19:11:31.725530
3346,-0.6861,0.4856,0.5319,0.350,-6.370,-0.490,1.061,0.003,0.003,0.013,0.006,2025-05-24T19:11:31.725550
3347,-0.6866,0.4856,0.5324,0.560,-6.020,-0.490,1.068,0.006,0.003,0.013,0.006,2025-05-24T19:11:31.916721
3348,-0.6871,0.4851,0.5329,0.840,-5.670,-0.350,1.065,0.003,0.003,0.013,0.006,2025-05-24T19:11:31.916768
3349,-0.6827,0.4870,0.5305,1.120,-5.600,-0.210,1.068,0.003,0.006,0.010,0.006,2025-05-24T19:11:31.916780
3350,-0.6842,0.4860,0.5334,1.260,-5.530,-0.770,1.065,0.006,0.003,0.010,0.003,2025-05-24T19:11:31.916811
3351,-0.6832,0.4890,0.5334,1.120,-5.740,-1.050,1.068,0.003,0.006,0.010,0.006,2025-05-24T19:11:31.916821
3352,-0.6866,0.4885,0.5348,0.840,-6.230,-1.330,1.065,0.003,0.003,0.010,0.003,2025-05-24T19:11:31.916833
3353,-0.6949,0.4860,0.5334,0.700,-6.790,-1.330,1.065,0.006,0.003,0.010,0.003,2025-05-24T19:11:31.916845
3354,-0.6930,0.4846,0.5348,1.120,-6.860,-1.190,1.065,0.003,0.003,0.010,0.003,2025-05-24T19:11:31.916858
3355,-0.6930,0.4860,0.5363,1.540,-6.230,-0.770,1.065,0.006,0.006,0.013,0.003,2025-05-24T19:11:31.916868
3356,-0.6866,0.4865,0.5363,1.890,-5.810,-0.630,1.065,0.006,0.006,0.010,0.003,2025-05-24T19:11:31.916878
3357,-0.6847,0.4875,0.5329,2.030,-5.740,-0.700,1.065,0.000,0.006,0.010,0.003,2025-05-24T19:11:31.916887
3358,-0.6808,0.4924,0.5314,1.960,-6.230,-1.190,1.065,0.003,0.006,0.010,0.006,2025-05-24T19:11:31.916900
3359,-0.6808,0.4929,0.5295,1.890,-6.860,-1.540,1.068,0.003,0.003,0.010,0.003,2025-05-24T19:11:31.916910
3360,-0.6881,0.4870,0.5290,1.750,-7.420,-2.240,1.068,0.006,0.003,0.010,0.003,2025-05-24T19:11:31.916956
3361,-0.6930,0.4851,0.5285,1.680,-7.770,-2.100,1.065,0.003,0.006,0.006,0.003,2025-05-24T19:11:31.916965
3362,-0.6974,0.4807,0.5266,1.400,-7.490,-1.890,1.065,0.006,0.006,0.013,0.003,2025-05-24T19:11:32.134029
3363,-0.6978,0.4831,0.5314,1.470,-6.790,-1.820,1.061,0.006,0.006,0.013,0.006,2025-05-24T19:11:32.134071
3364,-0.7003,0.4865,0.5353,1.750,-6.720,-1.890,1.065,0.003,0.006,0.010,0.006,2025-05-24T19:11:32.134085
3365,-0.6930,0.4924,0.5368,1.960,-7.210,-2.240,1.065,0.006,0.006,0.010,0.003,2025-05-24T19:11:32.134095
3366,-0.6895,0.4939,0.5388,1.820,-7.420,-2.450,1.065,0.003,0.006,0.010,0.006,2025-05-24T19:11:32.134104
3367,-0.6900,0.4895,0.5412,1.750,-7.420,-2.520,1.065,0.003,0.003,0.010,0.003,2025-05-24T19:11:32.134126
3368,-0.6939,0.4875,0.5407,1.820,-8.050,-2.520,1.065,0.003,0.006,0.010,0.003,2025-05-24T19:11:32.134135
3369,-0.6900,0.4841,0.5402,1.960,-8.610,-2.310,1.068,0.003,0.006,0.010,0.003,2025-05-24T19:11:32.134144
3370,-0.6881,0.4831,0.5373,2.590,-8.540,-2.240,1.065,0.006,0.006,0.010,0.006,2025-05-24T19:11:32.134153
3371,-0.6910,0.4836,0.5329,3.010,-8.610,-1.890,1.065,0.003,0.000,0.010,0.006,2025-05-24T19:11:32.134161
3372,-0.6930,0.4851,0.5270,3.430,-8.120,-1.820,1.065,0.003,0.003,0.010,0.003,2025-05-24T19:11:32.134170
3373,-0.6934,0.4900,0.5231,3.640,-7.840,-1.750,1.065,0.003,0.003,0.010,0.006,2025-05-24T19:11:32.134178
3374,-0.6939,0.4914,0.5183,3.640,-7.840,-1.750,1.068,0.003,0.003,0.013,0.003,2025-05-24T19:11:32.134187
3375,-0.6949,0.4929,0.5148,3.220,-8.120,-1.960,1.065,0.003,0.003,0.010,0.006,2025-05-24T19:11:32.134226
3376,-0.6964,0.4914,0.5119,2.800,-8.260,-1.890,1.065,0.003,0.003,0.010,0.006,2025-05-24T19:11:32.134237
3377,-0.6993,0.4904,0.5134,2.170,-7.980,-1.820,1.065,0.003,0.003,0.016,0.006,2025-05-24T19:11:32.134428
3378,-0.7037,0.4895,0.5183,1.470,-7.840,-1.400,1.065,0.006,0.006,0.013,0.006,2025-05-24T19:11:32.354943
3379,-0.7042,0.4856,0.5222,0.910,-7.840,-1.260,1.065,0.006,0.003,0.010,0.006,2025-05-24T19:11:32.355002
3380,-0.6993,0.4846,0.5275,0.630,-7.840,-0.980,1.065,0.006,0.006,0.010,0.006,2025-05-24T19:11:32.355018
3381,-0.6930,0.4826,0.5334,0.420,-7.420,-0.840,1.065,0.003,0.003,0.010,0.006,2025-05-24T19:11:32.355033
3382,-0.6832,0.4826,0.5392,0.420,-7.280,-1.050,1.065,0.006,0.003,0.013,0.003,2025-05-24T19:11:32.355069
3383,-0.6793,0.4841,0.5417,0.980,-7.910,-1.680,1.065,0.003,0.003,0.010,0.003,2025-05-24T19:11:32.355083
3384,-0.6812,0.4836,0.5490,1.330,-8.960,-2.170,1.065,0.006,0.006,0.010,0.003,2025-05-24T19:11:32.355095
3385,-0.6847,0.4812,0.5456,1.680,-9.380,-2.660,1.065,0.003,0.003,0.010,0.003,2025-05-24T19:11:32.355108
3386,-0.6978,0.4817,0.5441,2.380,-9.310,-2.590,1.065,0.003,0.003,0.010,0.003,2025-05-24T19:11:32.355121
3387,-0.7056,0.4821,0.5402,3.290,-9.030,-1.960,1.061,0.003,0.003,0.010,0.003,2025-05-24T19:11:32.355133
3388,-0.7086,0.4865,0.5363,3.360,-8.400,-1.400,1.065,0.003,0.003,0.010,0.003,2025-05-24T19:11:32.355145
3389,-0.7100,0.4870,0.5344,3.150,-8.260,-0.700,1.061,0.003,0.006,0.013,0.003,2025-05-24T19:11:32.355162
3390,-0.7056,0.4900,0.5329,2.730,-9.100,-0.420,1.061,0.003,0.003,0.010,0.003,2025-05-24T19:11:32.355174
3391,-0.6974,0.4900,0.5295,2.310,-9.590,-0.350,1.068,0.006,0.003,0.010,0.003,2025-05-24T19:11:32.355228
3392,-0.6895,0.4919,0.5295,2.100,-9.660,-0.210,1.068,0.003,0.003,0.013,0.003,2025-05-24T19:11:32.355241
3393,-0.6876,0.4909,0.5290,2.100,-9.450,-0.420,1.065,0.006,0.006,0.010,0.006,2025-05-24T19:11:32.355253
3394,-0.6832,0.4904,0.5314,2.170,-9.380,-0.420,1.065,0.003,0.003,0.010,0.006,2025-05-24T19:11:32.355266
3395,-0.6847,0.4900,0.5309,2.240,-9.450,-0.630,1.065,0.006,0.003,0.013,0.006,2025-05-24T19:11:32.537024
3396,-0.6910,0.4895,0.5314,2.450,-9.520,-0.700,1.065,0.003,0.006,0.013,0.003,2025-05-24T19:11:32.537108
3397,-0.6915,0.4880,0.5295,2.450,-9.240,-0.630,1.065,0.006,0.003,0.006,0.003,2025-05-24T19:11:32.537126
3398,-0.6944,0.4904,0.5275,2.310,-8.960,-0.490,1.065,0.003,0.006,0.013,0.003,2025-05-24T19:11:32.537141
3399,-0.6993,0.4934,0.5295,2.170,-8.960,-0.210,1.065,0.006,0.006,0.010,0.003,2025-05-24T19:11:32.537156
3400,-0.6939,0.4919,0.5305,2.100,-9.380,0.070,1.061,0.003,0.006,0.013,0.003,2025-05-24T19:11:32.537170
3401,-0.6915,0.4919,0.5280,1.890,-9.170,0.070,1.065,0.003,0.003,0.010,0.003,2025-05-24T19:11:32.537189
3402,-0.6881,0.4895,0.5334,1.750,-8.890,0.070,1.065,0.003,0.003,0.013,0.006,2025-05-24T19:11:32.537205
3403,-0.6866,0.4880,0.5329,1.610,-8.750,0.210,1.065,0.006,0.006,0.010,0.003,2025-05-24T19:11:32.537225
3404,-0.6866,0.4860,0.5334,1.750,-8.960,0.210,1.065,0.003,0.003,0.010,0.003,2025-05-24T19:11:32.537239
3405,-0.6842,0.4885,0.5309,2.170,-8.680,0.350,1.065,0.003,0.003,0.013,0.003,2025-05-24T19:11:32.537252
3406,-0.6778,0.4865,0.5300,2.100,-8.400,0.350,1.068,0.003,0.003,0.010,0.003,2025-05-24T19:11:32.537265
3407,-0.6773,0.4885,0.5270,1.890,-8.400,0.000,1.065,0.003,0.003,0.010,0.006,2025-05-24T19:11:32.537279
3408,-0.6773,0.4865,0.5241,1.750,-8.540,-0.350,1.065,0.003,0.006,0.010,0.003,2025-05-24T19:11:32.537335
3409,-0.6769,0.4875,0.5246,1.330,-8.330,-0.770,1.068,0.003,0.006,0.016,0.006,2025-05-24T19:11:32.585342
3410,-0.6827,0.4856,0.5251,1.190,-8.120,-0.770,1.065,0.003,0.006,0.010,0.003,2025-05-24T19:11:32.585399
3411,-0.6866,0.4856,0.5246,1.120,-8.190,-0.630,1.065,0.006,0.006,0.010,0.006,2025-05-24T19:11:32.585410
3412,-0.6876,0.4836,0.5246,1.400,-7.700,-0.840,1.065,0.006,0.006,0.010,0.003,2025-05-24T19:11:32.585420
3413,-0.6895,0.4851,0.5280,1.400,-7.350,-0.560,1.065,0.003,0.006,0.010,0.006,2025-05-24T19:11:32.817953
3414,-0.6895,0.4846,0.5275,1.050,-7.140,-0.630,1.065,0.006,0.006,0.010,0.006,2025-05-24T19:11:32.817977
3415,-0.6871,0.4860,0.5270,0.980,-6.790,-0.700,1.065,0.003,0.006,0.010,0.003,2025-05-24T19:11:32.817986
3416,-0.6861,0.4870,0.5309,1.120,-6.650,-0.560,1.068,0.003,0.010,0.010,0.006,2025-05-24T19:11:32.817995
3417,-0.6847,0.4865,0.5334,0.980,-6.440,-0.770,1.065,0.006,0.006,0.013,0.006,2025-05-24T19:11:32.818002
3418,-0.6837,0.4875,0.5378,0.630,-7.000,-0.980,1.061,0.003,0.003,0.013,0.006,2025-05-24T19:11:32.818009
3419,-0.6798,0.4860,0.5388,0.490,-7.280,-1.260,1.061,0.003,0.006,0.010,0.003,2025-05-24T19:11:32.818017
3420,-0.6808,0.4860,0.5407,0.910,-7.210,-1.470,1.065,0.006,0.003,0.013,0.006,2025-05-24T19:11:32.926725
3421,-0.6842,0.4870,0.5407,1.470,-6.790,-1.400,1.065,0.003,0.003,0.013,0.003,2025-05-24T19:11:32.926778
3422,-0.6915,0.4875,0.5417,1.680,-6.580,-1.190,1.065,0.003,0.006,0.013,0.006,2025-05-24T19:11:32.926793
3423,-0.6964,0.4880,0.5397,1.750,-7.000,-1.190,1.065,0.006,0.006,0.013,0.006,2025-05-24T19:11:32.926806
3424,-0.6964,0.4904,0.5368,1.610,-7.700,-0.980,1.065,0.003,0.003,0.010,0.006,2025-05-24T19:11:32.926819
3425,-0.6876,0.4895,0.5353,1.610,-7.630,-0.700,1.065,0.003,0.006,0.013,0.003,2025-05-24T19:11:32.926831
3426,-0.6808,0.4929,0.5309,1.750,-6.860,-0.630,1.068,0.003,0.003,0.010,0.003,2025-05-24T19:11:32.926843
3427,-0.6803,0.4953,0.5290,2.030,-6.230,-0.630,1.065,0.003,0.003,0.013,0.006,2025-05-24T19:11:32.926854
3428,-0.6852,0.4929,0.5280,1.680,-6.580,-0.840,1.065,0.003,0.003,0.010,0.006,2025-05-24T19:11:32.926865
3429,-0.6856,0.4909,0.5270,1.190,-7.280,-1.120,1.061,0.003,0.006,0.010,0.006,2025-05-24T19:11:32.926876
3430,-0.6910,0.4895,0.5256,0.770,-7.770,-1.260,1.068,0.006,0.003,0.010,0.006,2025-05-24T19:11:32.926888
3431,-0.6934,0.4846,0.5275,0.630,-7.700,-1.120,1.065,0.003,0.003,0.010,0.003,2025-05-24T19:11:32.926899
3432,-0.6871,0.4860,0.5290,0.490,-6.930,-1.190,1.065,0.003,0.006,0.010,0.003,2025-05-24T19:11:32.926910
3433,-0.6861,0.4865,0.5309,0.980,-6.370,-1.400,1.065,0.003,0.006,0.010,0.003,2025-05-24T19:11:32.926962
3434,-0.6964,0.4895,0.5348,1.120,-6.300,-1.750,1.068,0.003,0.003,0.010,0.003,2025-05-24T19:11:32.926973
3435,-0.6964,0.4904,0.5358,1.190,-6.370,-1.470,1.065,0.003,0.003,0.010,0.006,2025-05-24T19:11:32.926984
3436,-0.6988,0.4880,0.5368,1.190,-6.440,-1.400,1.065,0.000,0.003,0.010,0.006,2025-05-24T19:11:32.926996
3437,-0.6964,0.4885,0.5397,1.400,-6.930,-1.050,1.065,0.006,0.003,0.010,0.003,2025-05-24T19:11:32.927006
3438,-0.6891,0.4860,0.5392,1.470,-7.490,-0.630,1.068,0.003,0.003,0.010,0.003,2025-05-24T19:11:33.163711
3439,-0.6822,0.4860,0.5388,1.890,-7.280,-0.560,1.068,0.006,0.003,0.010,0.006,2025-05-24T19:11:33.163756
3440,-0.6783,0.4851,0.5368,2.240,-7.070,-0.630,1.068,0.003,0.006,0.010,0.006,2025-05-24T19:11:33.163769
3441,-0.6788,0.4870,0.5344,2.520,-7.280,-1.120,1.065,0.006,0.003,0.010,0.006,2025-05-24T19:11:33.163780
3442,-0.6817,0.4880,0.5300,2.940,-7.420,-1.330,1.068,0.003,0.006,0.010,0.006,2025-05-24T19:11:33.163878
3443,-0.6866,0.4885,0.5251,3.080,-7.420,-1.540,1.065,0.003,0.003,0.006,0.006,2025-05-24T19:11:33.163901
3444,-0.6949,0.4904,0.5173,2.870,-7.490,-1.470,1.061,0.003,0.006,0.010,0.003,2025-05-24T19:11:33.163911
3445,-0.7013,0.4909,0.5119,2.450,-7.140,-1.050,1.065,0.006,0.003,0.010,0.003,2025-05-24T19:11:33.163921
3446,-0.6993,0.4895,0.5109,1.680,-6.720,-0.840,1.065,0.003,0.006,0.013,0.006,2025-05-24T19:11:33.163931
3447,-0.6993,0.4890,0.5134,0.700,-6.440,-0.700,1.065,0.003,0.006,0.010,0.003,2025-05-24T19:11:33.163940
3448,-0.6988,0.4865,0.5212,-0.070,-6.860,-0.700,1.065,0.006,0.003,0.010,0.003,2025-05-24T19:11:33.163950
3449,-0.6939,0.4841,0.5266,-0.700,-7.350,-0.910,1.065,0.003,0.003,0.010,0.006,2025-05-24T19:11:33.163959
3450,-0.6827,0.4802,0.5324,-0.560,-7.210,-0.980,1.061,0.003,0.003,0.010,0.006,2025-05-24T19:11:33.163969
3451,-0.6778,0.4778,0.5402,0.210,-6.930,-1.120,1.068,0.006,0.003,0.010,0.003,2025-05-24T19:11:33.164026
3452,-0.6744,0.4797,0.5446,1.050,-6.580,-1.540,1.065,0.003,0.003,0.010,0.006,2025-05-24T19:11:33.164038
3453,-0.6749,0.4821,0.5446,1.890,-6.720,-2.100,1.065,0.003,0.006,0.013,0.003,2025-05-24T19:11:33.164114
3454,-0.6837,0.4846,0.5441,2.380,-7.070,-2.380,1.065,0.003,0.006,0.013,0.003,2025-05-24T19:11:33.164243
3455,-0.6934,0.4880,0.5412,2.450,-7.350,-2.450,1.065,0.006,0.006,0.010,0.006,2025-05-24T19:11:33.164254
3456,-0.6993,0.4904,0.5339,2.520,-7.420,-2.030,1.065,0.003,0.003,0.010,0.006,2025-05-24T19:11:33.212814
3457,-0.7022,0.4943,0.5295,2.380,-7.070,-1.540,1.065,0.006,0.003,0.013,0.003,2025-05-24T19:11:33.212985
3458,-0.7013,0.4963,0.5285,1.820,-6.930,-1.190,1.068,0.006,0.006,0.013,0.003,2025-05-24T19:11:33.213015
3459,-0.6998,0.4968,0.5290,1.540,-7.420,-0.770,1.068,0.003,0.006,0.010,0.006,2025-05-24T19:11:33.213027
3460,-0.6974,0.4978,0.5275,1.470,-7.560,-0.490,1.068,0.006,0.006,0.013,0.003,2025-05-24T19:11:33.350801
3461,-0.6930,0.4958,0.5280,1.260,-7.490,-0.280,1.065,0.006,0.003,0.010,0.003,2025-05-24T19:11:33.350865
3462,-0.6900,0.4978,0.5295,1.120,-7.420,-0.210,1.065,0.006,0.003,0.010,0.006,2025-05-24T19:11:33.350879
3463,-0.6886,0.4958,0.5270,1.260,-7.280,0.000,1.068,0.003,0.006,0.010,0.003,2025-05-24T19:11:33.350891
3464,-0.6822,0.4934,0.5270,1.400,-7.210,-0.070,1.065,0.006,0.003,0.010,0.003,2025-05-24T19:11:33.350901
3465,-0.6817,0.4943,0.5251,1.260,-6.860,-0.210,1.068,0.006,0.003,0.010,0.006,2025-05-24T19:11:33.350913
3466,-0.6852,0.4953,0.5231,1.260,-6.720,-0.140,1.065,0.003,0.006,0.010,0.003,2025-05-24T19:11:33.350924
3467,-0.6891,0.4934,0.5241,1.120,-7.070,-0.070,1.061,0.003,0.003,0.010,0.003,2025-05-24T19:11:33.350934
3468,-0.6934,0.4914,0.5222,0.910,-7.140,0.140,1.061,0.003,0.003,0.013,0.003,2025-05-24T19:11:33.350947
3469,-0.6949,0.4919,0.5246,0.630,-6.860,0.280,1.068,0.003,0.003,0.010,0.003,2025-05-24T19:11:33.350957
3470,-0.6934,0.4890,0.5261,0.420,-6.790,0.420,1.065,0.006,0.003,0.010,0.003,2025-05-24T19:11:33.350967
3471,-0.6934,0.4880,0.5266,0.420,-6.650,0.420,1.068,0.003,0.006,0.010,0.006,2025-05-24T19:11:33.562711
3472,-0.6934,0.4875,0.5305,0.350,-6.720,0.630,1.065,0.006,0.003,0.013,0.006,2025-05-24T19:11:33.562765
3473,-0.6905,0.4831,0.5339,0.420,-6.860,0.490,1.065,0.003,0.003,0.010,0.003,2025-05-24T19:11:33.562780
3474,-0.6876,0.4812,0.5358,0.420,-7.000,0.420,1.068,0.003,0.003,0.010,0.003,2025-05-24T19:11:33.562793
3475,-0.6808,0.4817,0.5383,0.700,-6.930,0.000,1.068,0.006,0.006,0.013,0.006,2025-05-24T19:11:33.562805
3476,-0.6793,0.4812,0.5353,1.120,-6.580,-0.350,1.065,0.006,0.003,0.010,0.006,2025-05-24T19:11:33.562816
3477,-0.6808,0.4826,0.5314,1.260,-6.650,-0.560,1.065,0.003,0.010,0.010,0.003,2025-05-24T19:11:33.562829
3478,-0.6876,0.4851,0.5290,1.120,-6.650,-0.770,1.061,0.000,0.006,0.010,0.003,2025-05-24T19:11:33.562839
3479,-0.6895,0.4870,0.5270,0.770,-6.860,-0.910,1.065,0.003,0.003,0.010,0.003,2025-05-24T19:11:33.562849
3480,-0.6934,0.4890,0.5270,0.280,-7.210,-0.910,1.065,0.006,0.003,0.010,0.003,2025-05-24T19:11:33.562859
3481,-0.6920,0.4900,0.5270,0.000,-7.420,-0.910,1.061,0.003,0.003,0.010,0.003,2025-05-24T19:11:33.562870
3482,-0.6944,0.4880,0.5246,0.210,-7.000,-0.770,1.065,0.003,0.006,0.010,0.003,2025-05-24T19:11:33.562880
3483,-0.6964,0.4895,0.5261,0.630,-6.580,-0.700,1.061,0.003,0.003,0.013,0.003,2025-05-24T19:11:33.562891
3484,-0.6934,0.4895,0.5270,0.490,-6.230,-0.420,1.061,0.003,0.003,0.010,0.003,2025-05-24T19:11:33.562933
3485,-0.6925,0.4880,0.5300,0.770,-6.370,-0.140,1.065,0.003,0.006,0.010,0.003,2025-05-24T19:11:33.562943
3486,-0.6881,0.4900,0.5285,0.630,-6.440,-0.280,1.065,0.006,0.006,0.013,0.006,2025-05-24T19:11:33.562953
3487,-0.6842,0.4900,0.5266,0.700,-6.720,-0.420,1.065,0.006,0.003,0.010,0.003,2025-05-24T19:11:33.790107
3488,-0.6817,0.4895,0.5280,0.700,-6.510,-0.560,1.065,0.006,0.006,0.013,0.006,2025-05-24T19:11:33.790289
3489,-0.6871,0.4914,0.5285,0.350,-6.370,-0.840,1.065,0.003,0.006,0.010,0.006,2025-05-24T19:11:33.790327
3490,-0.6915,0.4890,0.5309,-0.070,-6.930,-0.980,1.065,0.006,0.006,0.016,0.003,2025-05-24T19:11:33.790342
3491,-0.6939,0.4856,0.5329,0.280,-7.490,-1.050,1.068,0.006,0.003,0.013,0.003,2025-05-24T19:11:33.790355
3492,-0.6944,0.4856,0.5334,0.490,-7.280,-0.700,1.065,0.003,0.006,0.010,0.003,2025-05-24T19:11:33.790368
3493,-0.6993,0.4860,0.5348,0.770,-6.860,-0.700,1.065,0.003,0.003,0.010,0.006,2025-05-24T19:11:33.790381
3494,-0.6998,0.4836,0.5344,0.980,-7.070,-0.420,1.061,0.003,0.003,0.013,0.003,2025-05-24T19:11:33.790393
3495,-0.6925,0.4856,0.5334,1.190,-7.000,-0.280,1.065,0.003,0.003,0.010,0.003,2025-05-24T19:11:33.790406
3496,-0.6861,0.4856,0.5280,1.400,-6.440,-0.490,1.065,0.003,0.003,0.010,0.003,2025-05-24T19:11:33.790419
3497,-0.6808,0.4890,0.5280,1.330,-6.230,-0.770,1.065,0.003,0.003,0.010,0.003,2025-05-24T19:11:33.790431
3498,-0.6866,0.4875,0.5251,0.840,-7.000,-0.980,1.065,0.006,0.000,0.013,0.003,2025-05-24T19:11:33.790444
3499,-0.6847,0.4836,0.5241,0.140,-7.560,-1.400,1.065,0.003,0.003,0.010,0.003,2025-05-24T19:11:33.790456
3500,-0.6944,0.4817,0.5280,-0.070,-7.910,-1.680,1.065,0.003,0.003,0.010,0.003,2025-05-24T19:11:33.790528
3501,-0.6939,0.4782,0.5295,-0.070,-7.770,-1.260,1.065,0.003,0.003,0.010,0.003,2025-05-24T19:11:33.790540
3502,-0.6886,0.4802,0.5280,0.420,-6.510,-1.540,1.065,0.003,0.003,0.013,0.003,2025-05-24T19:11:33.979139
3503,-0.6910,0.4851,0.5280,1.120,-5.670,-1.610,1.065,0.003,0.003,0.010,0.006,2025-05-24T19:11:33.979182
3504,-0.6964,0.4875,0.5285,1.120,-5.950,-1.890,1.068,0.003,0.006,0.013,0.006,2025-05-24T19:11:33.979194
3505,-0.6915,0.4885,0.5285,0.770,-6.370,-1.820,1.065,0.006,0.006,0.013,0.003,2025-05-24T19:11:33.979204
3506,-0.6910,0.4885,0.5285,0.210,-6.300,-2.030,1.065,0.006,0.006,0.013,0.003,2025-05-24T19:11:33.979213
3507,-0.6891,0.4841,0.5339,-0.070,-6.720,-1.890,1.065,0.003,0.003,0.010,0.003,2025-05-24T19:11:33.979223
3508,-0.6930,0.4860,0.5358,-0.280,-7.140,-1.820,1.068,0.006,0.000,0.010,0.006,2025-05-24T19:11:33.979235
3509,-0.6895,0.4817,0.5388,-0.070,-7.420,-1.470,1.061,0.003,0.003,0.010,0.003,2025-05-24T19:11:33.979244
3510,-0.6934,0.4856,0.5358,0.700,-7.210,-1.540,1.065,0.003,0.003,0.010,0.003,2025-05-24T19:11:33.979253
3511,-0.6905,0.4860,0.5339,1.470,-6.930,-1.260,1.068,0.006,0.003,0.013,0.003,2025-05-24T19:11:33.979262
3512,-0.6934,0.4900,0.5309,1.890,-6.440,-1.260,1.065,0.003,0.006,0.013,0.003,2025-05-24T19:11:33.979270
3513,-0.6974,0.4880,0.5246,1.750,-6.370,-1.400,1.065,0.003,0.003,0.010,0.003,2025-05-24T19:11:33.979279
3514,-0.7008,0.4895,0.5202,1.330,-6.930,-1.260,1.065,0.003,0.003,0.010,0.003,2025-05-24T19:11:33.979287
3515,-0.7027,0.4851,0.5183,0.840,-7.070,-1.260,1.065,0.006,0.003,0.010,0.003,2025-05-24T19:11:33.979323
3516,-0.7013,0.4846,0.5192,0.420,-6.790,-0.910,1.065,0.003,0.006,0.010,0.006,2025-05-24T19:11:33.979332
3517,-0.7013,0.4836,0.5207,0.000,-6.300,-0.840,1.065,0.003,0.003,0.010,0.003,2025-05-24T19:11:33.979340
3518,-0.6998,0.4802,0.5226,-0.280,-6.440,-0.700,1.068,0.003,0.003,0.010,0.006,2025-05-24T19:11:33.979348
3519,-0.6934,0.4778,0.5285,-0.280,-6.440,-0.490,1.068,0.006,0.006,0.013,0.006,2025-05-24T19:11:34.175769
3520,-0.6876,0.4787,0.5309,-0.210,-5.880,-0.700,1.065,0.003,0.006,0.013,0.006,2025-05-24T19:11:34.175818
3521,-0.6827,0.4778,0.5348,-0.070,-6.020,-1.050,1.065,0.003,0.006,0.013,0.006,2025-05-24T19:11:34.175833
3522,-0.6803,0.4782,0.5348,0.280,-6.650,-1.680,1.065,0.006,0.003,0.010,0.003,2025-05-24T19:11:34.175845
3523,-0.6793,0.4778,0.5324,0.630,-6.300,-2.100,1.065,0.003,0.003,0.013,0.003,2025-05-24T19:11:34.175856
3524,-0.6915,0.4797,0.5329,0.700,-6.160,-2.660,1.065,0.003,0.006,0.010,0.003,2025-05-24T19:11:34.175882
3525,-0.7003,0.4802,0.5275,0.560,-6.720,-2.380,1.065,0.003,0.006,0.013,0.003,2025-05-24T19:11:34.175894
3526,-0.7091,0.4831,0.5256,0.280,-6.720,-1.960,1.065,0.003,0.006,0.013,0.003,2025-05-24T19:11:34.175905
3527,-0.7091,0.4836,0.5241,0.280,-6.020,-1.470,1.065,0.000,0.003,0.013,0.003,2025-05-24T19:11:34.175915
3528,-0.7096,0.4870,0.5251,-0.070,-5.670,-0.980,1.068,0.003,0.003,0.010,0.003,2025-05-24T19:11:34.175925
3529,-0.7047,0.4856,0.5261,-0.490,-5.810,-0.700,1.065,0.003,0.003,0.010,0.003,2025-05-24T19:11:34.175935
3530,-0.7022,0.4865,0.5285,-0.630,-6.160,-0.700,1.065,0.003,0.003,0.010,0.006,2025-05-24T19:11:34.175945
3531,-0.6969,0.4826,0.5334,-0.770,-6.720,-0.840,1.061,0.006,0.006,0.013,0.003,2025-05-24T19:11:34.175959
3532,-0.6959,0.4807,0.5358,-0.770,-6.930,-1.050,1.065,0.003,0.003,0.013,0.003,2025-05-24T19:11:34.176003
3533,-0.6949,0.4792,0.5358,-0.280,-6.930,-0.980,1.065,0.006,0.003,0.010,0.003,2025-05-24T19:11:34.176016
3534,-0.7013,0.4782,0.5353,0.490,-6.860,-0.980,1.065,0.006,0.003,0.013,0.006,2025-05-24T19:11:34.427553
3535,-0.7047,0.4773,0.5339,0.980,-6.720,-0.770,1.065,0.003,0.006,0.010,0.003,2025-05-24T19:11:34.427599
3536,-0.7076,0.4782,0.5300,0.630,-6.440,-0.490,1.065,0.006,0.003,0.013,0.003,2025-05-24T19:11:34.427617
3537,-0.7096,0.4812,0.5275,0.140,-6.580,-0.420,1.065,0.006,0.006,0.013,0.003,2025-05-24T19:11:34.427629
3538,-0.7076,0.4812,0.5256,0.000,-7.070,-0.140,1.065,0.003,0.003,0.010,0.003,2025-05-24T19:11:34.427640
3539,-0.7032,0.4812,0.5261,-0.210,-7.210,-0.070,1.065,0.003,0.003,0.010,0.003,2025-05-24T19:11:34.427666
3540,-0.7013,0.4787,0.5280,-0.700,-7.210,-0.140,1.065,0.003,0.003,0.010,0.003,2025-05-24T19:11:34.427676
3541,-0.7027,0.4778,0.5300,-0.980,-7.420,-0.140,1.065,0.006,0.000,0.010,0.006,2025-05-24T19:11:34.427687
3542,-0.7042,0.4763,0.5348,-1.120,-7.770,-0.070,1.065,0.003,0.003,0.010,0.003,2025-05-24T19:11:34.427728
3543,-0.7047,0.4729,0.5358,-0.840,-7.490,-0.070,1.061,0.006,0.003,0.010,0.006,2025-05-24T19:11:34.427739
3544,-0.7037,0.4719,0.5358,-0.210,-7.420,0.210,1.061,0.003,0.003,0.010,0.003,2025-05-24T19:11:34.427749
3545,-0.6993,0.4758,0.5344,0.280,-7.210,0.280,1.061,0.006,0.003,0.010,0.003,2025-05-24T19:11:34.427759
3546,-0.6964,0.4778,0.5344,0.420,-6.930,0.140,1.065,0.003,0.006,0.010,0.003,2025-05-24T19:11:34.427781
3547,-0.6964,0.4778,0.5309,-0.070,-7.420,0.000,1.065,0.003,0.003,0.010,0.003,2025-05-24T19:11:34.428277
3548,-0.6925,0.4782,0.5295,-0.490,-7.980,0.000,1.065,0.000,0.006,0.010,0.006,2025-05-24T19:11:34.428317
3549,-0.6920,0.4768,0.5275,-0.840,-8.120,-0.210,1.068,0.003,0.003,0.013,0.006,2025-05-24T19:11:34.428330
3550,-0.6974,0.4763,0.5290,-0.910,-7.910,-0.280,1.065,0.006,0.006,0.013,0.003,2025-05-24T19:11:34.428340
3551,-0.6998,0.4768,0.5295,-0.560,-7.840,0.070,1.065,0.006,0.006,0.010,0.006,2025-05-24T19:11:34.428351
3552,-0.7013,0.4763,0.5305,-0.350,-7.350,0.140,1.065,0.006,0.006,0.010,0.006,2025-05-24T19:11:34.477467
3553,-0.7042,0.4758,0.5280,-0.280,-7.070,0.280,1.065,0.006,0.003,0.010,0.003,2025-05-24T19:11:34.477524
3554,-0.7052,0.4773,0.5285,-0.140,-7.280,0.490,1.065,0.003,0.003,0.013,0.003,2025-05-24T19:11:34.477535
3555,-0.7042,0.4753,0.5280,-0.070,-7.070,0.700,1.068,0.006,0.006,0.010,0.006,2025-05-24T19:11:34.477544
3556,-0.6998,0.4797,0.5295,-0.140,-6.790,0.980,1.065,0.003,0.006,0.010,0.006,2025-05-24T19:11:34.477553
3557,-0.7013,0.4782,0.5314,-0.280,-6.860,0.910,1.065,0.003,0.003,0.016,0.003,2025-05-24T19:11:34.530019
3558,-0.6998,0.4778,0.5329,-0.420,-7.420,0.910,1.068,0.006,0.003,0.010,0.006,2025-05-24T19:11:34.530064
3559,-0.6964,0.4763,0.5344,-0.490,-7.560,0.980,1.065,0.006,0.003,0.013,0.003,2025-05-24T19:11:34.530077
3560,-0.6964,0.4748,0.5378,-0.210,-7.210,0.910,1.065,0.006,0.006,0.013,0.006,2025-05-24T19:11:34.781054
3561,-0.7013,0.4763,0.5363,0.350,-6.930,0.980,1.065,0.006,0.003,0.016,0.006,2025-05-24T19:11:34.781102
3562,-0.7032,0.4768,0.5388,0.490,-7.070,1.260,1.065,0.003,0.006,0.013,0.006,2025-05-24T19:11:34.781114
3563,-0.7042,0.4763,0.5392,0.070,-7.350,1.120,1.065,0.003,0.006,0.010,0.006,2025-05-24T19:11:34.984848
3564,-0.7003,0.4768,0.5383,0.210,-7.630,1.190,1.065,0.006,0.006,0.010,0.006,2025-05-24T19:11:34.984866
3565,-0.6978,0.4748,0.5392,0.420,-7.630,1.260,1.065,0.006,0.003,0.013,0.006,2025-05-24T19:11:34.984873
3566,-0.6905,0.4763,0.5388,0.490,-7.490,1.260,1.065,0.006,0.000,0.013,0.003,2025-05-24T19:11:34.984879
3567,-0.6856,0.4768,0.5388,0.420,-7.350,1.050,1.068,0.006,0.003,0.010,0.003,2025-05-24T19:11:34.984885
3568,-0.6915,0.4758,0.5363,0.210,-7.560,0.630,1.068,0.003,0.003,0.010,0.003,2025-05-24T19:11:34.984890
3569,-0.6934,0.4782,0.5392,0.210,-8.470,0.490,1.065,0.003,0.003,0.010,0.006,2025-05-24T19:11:34.984895
3570,-0.6930,0.4734,0.5402,0.000,-8.680,0.280,1.068,0.003,0.006,0.010,0.003,2025-05-24T19:11:34.984900
3571,-0.6993,0.4709,0.5402,0.140,-8.330,0.210,1.065,0.006,0.006,0.010,0.003,2025-05-24T19:11:34.984904
3572,-0.7008,0.4690,0.5373,0.490,-8.260,0.630,1.065,0.003,0.006,0.013,0.003,2025-05-24T19:11:34.984909
3573,-0.6925,0.4753,0.5378,0.770,-7.700,0.490,1.065,0.003,0.006,0.010,0.003,2025-05-24T19:11:34.984914
3574,-0.6895,0.4787,0.5348,0.770,-7.000,0.210,1.065,0.003,0.003,0.013,0.003,2025-05-24T19:11:34.984952
3575,-0.6905,0.4817,0.5348,0.560,-7.350,-0.070,1.061,0.006,0.006,0.010,0.006,2025-05-24T19:11:34.984956
3576,-0.6934,0.4821,0.5348,-0.140,-7.910,-0.490,1.068,0.003,0.006,0.013,0.003,2025-05-24T19:11:34.984961
3577,-0.6905,0.4836,0.5373,-0.630,-7.980,-0.630,1.068,0.003,0.003,0.010,0.003,2025-05-24T19:11:34.984964
3578,-0.6964,0.4792,0.5368,-0.770,-8.260,-0.140,1.065,0.003,0.006,0.013,0.003,2025-05-24T19:11:34.984968
3579,-0.6934,0.4778,0.5417,-0.280,-8.120,0.140,1.061,0.006,0.003,0.013,0.003,2025-05-24T19:11:34.994979
3580,-0.6886,0.4782,0.5412,0.000,-7.490,0.420,1.068,0.010,0.006,0.013,0.003,2025-05-24T19:11:34.995024
3581,-0.6891,0.4792,0.5368,0.280,-6.930,0.840,1.068,0.003,0.006,0.010,0.003,2025-05-24T19:11:34.995044
3582,-0.6852,0.4812,0.5353,0.490,-6.930,0.840,1.065,0.006,0.006,0.013,0.006,2025-05-24T19:11:34.995058
3583,-0.6822,0.4817,0.5270,0.770,-6.860,0.770,1.065,0.006,0.003,0.010,0.003,2025-05-24T19:11:34.995068
3584,-0.6812,0.4817,0.5226,0.770,-6.650,0.630,1.065,0.003,0.006,0.010,0.006,2025-05-24T19:11:34.995079
3585,-0.6891,0.4821,0.5202,0.490,-6.720,0.280,1.065,0.003,0.006,0.013,0.003,2025-05-24T19:11:34.995089
3586,-0.6949,0.4797,0.5207,-0.210,-6.860,0.210,1.065,0.003,0.003,0.010,0.006,2025-05-24T19:11:34.995100
3587,-0.6993,0.4768,0.5231,-0.980,-6.720,0.280,1.065,0.003,0.003,0.010,0.006,2025-05-24T19:11:34.995109
3588,-0.7071,0.4748,0.5246,-1.400,-6.370,0.560,1.061,0.003,0.003,0.010,0.003,2025-05-24T19:11:34.995118
3589,-0.6998,0.4729,0.5266,-1.540,-5.670,0.910,1.065,0.003,0.006,0.010,0.003,2025-05-24T19:11:34.995126
3590,-0.6954,0.4724,0.5348,-1.750,-4.830,1.190,1.065,0.006,0.003,0.010,0.003,2025-05-24T19:11:34.995135
3591,-0.6876,0.4714,0.5402,-1.890,-4.830,1.190,1.061,0.003,0.003,0.013,0.003,2025-05-24T19:11:34.995143
3592,-0.6754,0.4685,0.5417,-1.750,-5.320,0.350,1.065,0.003,0.006,0.010,0.003,2025-05-24T19:11:34.995179
3593,-0.6686,0.4699,0.5451,-1.470,-5.880,-0.420,1.061,0.003,0.003,0.013,0.003,2025-05-24T19:11:34.995188
3594,-0.6681,0.4704,0.5470,-1.330,-5.880,-1.260,1.061,0.003,0.003,0.010,0.006,2025-05-24T19:11:34.995196
3595,-0.6788,0.4699,0.5441,-0.980,-6.230,-2.100,1.065,0.006,0.003,0.010,0.003,2025-05-24T19:11:34.995205
3596,-0.6920,0.4680,0.5353,0.000,-5.810,-2.100,1.065,0.006,0.006,0.013,0.006,2025-05-24T19:11:35.194780
3597,-0.7066,0.4704,0.5309,0.350,-5.110,-1.820,1.065,0.003,0.003,0.010,0.003,2025-05-24T19:11:35.194807
3598,-0.7203,0.4738,0.5305,-0.490,-5.180,-1.330,1.065,0.006,0.003,0.013,0.006,2025-05-24T19:11:35.194813
3599,-0.7213,0.4768,0.5324,-1.190,-5.740,-0.560,1.065,0.003,0.003,0.013,0.006,2025-05-24T19:11:35.194820
3600,-0.7164,0.4773,0.5329,-1.400,-5.670,-0.210,1.065,0.003,0.003,0.010,0.006,2025-05-24T19:11:35.194826
3601,-0.7081,0.4748,0.5373,-1.050,-5.390,0.140,1.061,0.003,0.003,0.010,0.003,2025-05-24T19:11:35.194832
3602,-0.7003,0.4748,0.5407,-0.630,-5.180,0.630,1.065,0.003,0.003,0.013,0.003,2025-05-24T19:11:35.194838
3603,-0.6934,0.4768,0.5470,-0.980,-5.670,0.280,1.065,0.003,0.003,0.006,0.003,2025-05-24T19:11:35.194852
3604,-0.6925,0.4734,0.5524,-0.700,-6.790,-0.140,1.065,0.003,0.006,0.010,0.003,2025-05-24T19:11:35.194858
3605,-0.6900,0.4724,0.5573,-0.070,-7.490,-0.350,1.065,0.003,0.003,0.010,0.000,2025-05-24T19:11:35.194863
3606,-0.6930,0.4680,0.5553,0.560,-7.420,-0.490,1.065,0.006,0.006,0.010,0.003,2025-05-24T19:11:35.194868
3607,-0.7027,0.4704,0.5549,1.190,-6.860,-0.490,1.065,0.003,0.003,0.013,0.003,2025-05-24T19:11:35.194873
3608,-0.7100,0.4704,0.5514,1.680,-7.210,-0.210,1.065,0.003,0.003,0.010,0.003,2025-05-24T19:11:35.194878
3609,-0.7125,0.4729,0.5480,1.820,-7.490,0.140,1.065,0.006,0.003,0.010,0.006,2025-05-24T19:11:35.194900
3610,-0.7061,0.4743,0.5446,1.680,-7.490,0.420,1.065,0.003,0.003,0.010,0.006,2025-05-24T19:11:35.194907
3611,-0.7032,0.4748,0.5402,1.330,-7.700,0.420,1.065,0.006,0.003,0.010,0.006,2025-05-24T19:11:35.244748
3612,-0.6969,0.4734,0.5407,0.770,-7.980,0.350,1.068,0.003,0.006,0.013,0.006,2025-05-24T19:11:35.244793
3613,-0.6925,0.4709,0.5431,0.210,-8.540,0.070,1.065,0.006,0.006,0.013,0.006,2025-05-24T19:11:35.244909
3614,-0.6866,0.4680,0.5466,0.000,-9.520,-0.280,1.065,0.003,0.006,0.013,0.003,2025-05-24T19:11:35.244920
3615,-0.6856,0.4656,0.5500,0.420,-9.660,-0.770,1.065,0.006,0.006,0.010,0.006,2025-05-24T19:11:35.426454
3616,-0.6832,0.4602,0.5485,1.190,-9.450,-0.980,1.065,0.003,0.006,0.010,0.003,2025-05-24T19:11:35.426506
3617,-0.6920,0.4631,0.5456,2.240,-8.750,-0.840,1.068,0.006,0.006,0.010,0.003,2025-05-24T19:11:35.426520
3618,-0.6915,0.4670,0.5392,2.870,-8.120,-0.770,1.065,0.003,0.003,0.013,0.003,2025-05-24T19:11:35.426537
3619,-0.6949,0.4690,0.5344,2.870,-7.770,-0.840,1.068,0.006,0.006,0.010,0.003,2025-05-24T19:11:35.426549
3620,-0.6939,0.4729,0.5295,2.450,-8.120,-0.770,1.065,0.006,0.006,0.010,0.003,2025-05-24T19:11:35.426560
3621,-0.6891,0.4729,0.5261,2.170,-8.470,-0.980,1.065,0.003,0.006,0.010,0.006,2025-05-24T19:11:35.426570
3622,-0.6895,0.4724,0.5256,2.030,-8.330,-1.050,1.065,0.003,0.003,0.010,0.006,2025-05-24T19:11:35.426581
3623,-0.6905,0.4753,0.5241,1.750,-7.910,-0.910,1.061,0.006,0.006,0.010,0.003,2025-05-24T19:11:35.426591
3624,-0.6920,0.4738,0.5266,1.330,-7.630,-0.980,1.065,0.003,0.003,0.013,0.003,2025-05-24T19:11:35.426601
3625,-0.6925,0.4734,0.5290,1.260,-7.350,-0.980,1.065,0.006,0.003,0.013,0.003,2025-05-24T19:11:35.426613
3626,-0.6944,0.4758,0.5334,1.190,-7.140,-0.910,1.061,0.003,0.006,0.010,0.006,2025-05-24T19:11:35.426624
3627,-0.6954,0.4743,0.5348,1.330,-7.070,-0.910,1.065,0.003,0.006,0.013,0.003,2025-05-24T19:11:35.426634
3628,-0.6949,0.4753,0.5373,1.540,-6.580,-0.770,1.065,0.003,0.003,0.013,0.003,2025-05-24T19:11:35.426678
3629,-0.6915,0.4753,0.5422,1.680,-6.650,-0.630,1.068,0.003,0.006,0.010,0.006,2025-05-24T19:11:35.473238
3630,-0.6930,0.4763,0.5407,1.680,-6.930,-0.770,1.068,0.006,0.006,0.013,0.006,2025-05-24T19:11:35.473390
3631,-0.6915,0.4773,0.5422,1.610,-7.000,-0.910,1.065,0.006,0.006,0.010,0.003,2025-05-24T19:11:35.473434
3632,-0.6920,0.4778,0.5427,1.400,-6.930,-0.980,1.068,0.006,0.006,0.013,0.006,2025-05-24T19:11:35.473446
3633,-0.6983,0.4787,0.5422,1.260,-7.280,-0.770,1.068,0.003,0.006,0.013,0.003,2025-05-24T19:11:35.519092
3634,-0.7003,0.4768,0.5436,1.260,-7.420,-0.420,1.065,0.003,0.006,0.010,0.006,2025-05-24T19:11:35.519148
3635,-0.7056,0.4773,0.5422,1.190,-7.490,-0.140,1.068,0.006,0.006,0.013,0.006,2025-05-24T19:11:35.519164
3636,-0.7042,0.4763,0.5446,1.400,-7.490,0.350,1.065,0.006,0.006,0.010,0.003,2025-05-24T19:11:35.605153
3637,-0.6993,0.4753,0.5441,1.470,-7.210,0.560,1.065,0.006,0.006,0.013,0.003,2025-05-24T19:11:35.605196
3638,-0.6959,0.4812,0.5407,1.680,-6.720,0.700,1.061,0.006,0.003,0.010,0.003,2025-05-24T19:11:35.605211
3639,-0.6964,0.4782,0.5417,1.540,-7.140,0.770,1.065,0.006,0.003,0.013,0.006,2025-05-24T19:11:35.605222
3640,-0.6939,0.4758,0.5378,1.400,-7.980,0.560,1.065,0.003,0.006,0.010,0.006,2025-05-24T19:11:35.605232
3641,-0.6910,0.4719,0.5388,1.190,-8.260,0.350,1.065,0.003,0.006,0.013,0.003,2025-05-24T19:11:35.605242
3642,-0.6910,0.4695,0.5339,0.840,-8.190,0.350,1.068,0.003,0.006,0.013,0.003,2025-05-24T19:11:35.605251
3643,-0.6852,0.4714,0.5353,1.190,-7.490,0.070,1.061,0.003,0.006,0.010,0.003,2025-05-24T19:11:35.806103
3644,-0.6847,0.4748,0.5368,1.890,-6.650,-0.210,1.065,0.003,0.003,0.013,0.003,2025-05-24T19:11:35.806148
3645,-0.6983,0.4758,0.5368,1.890,-6.860,-0.560,1.065,0.006,0.003,0.013,0.006,2025-05-24T19:11:35.806160
3646,-0.7013,0.4782,0.5358,1.190,-7.490,-0.420,1.068,0.003,0.003,0.013,0.006,2025-05-24T19:11:35.806173
3647,-0.6978,0.4753,0.5348,0.840,-7.490,-0.280,1.065,0.003,0.003,0.013,0.006,2025-05-24T19:11:35.806184
3648,-0.6998,0.4773,0.5373,0.840,-7.210,0.140,1.065,0.003,0.006,0.016,0.003,2025-05-24T19:11:35.806194
3649,-0.6930,0.4768,0.5392,0.770,-7.000,0.420,1.068,0.003,0.003,0.010,0.006,2025-05-24T19:11:35.806204
3650,-0.6915,0.4778,0.5417,0.560,-7.070,0.420,1.061,0.003,0.003,0.010,0.003,2025-05-24T19:11:35.806214
3651,-0.6920,0.4753,0.5441,0.630,-7.630,0.490,1.061,0.006,0.006,0.010,0.003,2025-05-24T19:11:35.806223
3652,-0.6866,0.4738,0.5441,1.050,-7.910,0.280,1.065,0.003,0.006,0.013,0.003,2025-05-24T19:11:35.806233
3653,-0.6861,0.4768,0.5422,1.750,-7.770,0.000,1.065,0.003,0.006,0.013,0.003,2025-05-24T19:11:35.806243
3654,-0.6900,0.4748,0.5417,2.240,-7.350,0.140,1.065,0.003,0.003,0.013,0.003,2025-05-24T19:11:35.806252
3655,-0.6954,0.4758,0.5378,2.520,-7.280,0.000,1.065,0.006,0.003,0.006,0.006,2025-05-24T19:11:35.806262
3656,-0.7017,0.4773,0.5344,2.520,-7.280,0.210,1.061,0.006,0.006,0.010,0.003,2025-05-24T19:11:35.806301
3657,-0.7037,0.4758,0.5314,2.170,-7.350,0.140,1.068,0.000,0.003,0.010,0.003,2025-05-24T19:11:35.806311
3658,-0.7042,0.4773,0.5324,1.540,-7.490,0.350,1.068,0.003,0.006,0.010,0.006,2025-05-24T19:11:36.012950
3659,-0.6974,0.4734,0.5314,1.050,-7.560,0.350,1.068,0.006,0.010,0.013,0.006,2025-05-24T19:11:36.012996
3660,-0.6925,0.4734,0.5329,1.050,-7.140,0.420,1.065,0.006,0.006,0.013,0.006,2025-05-24T19:11:36.013009
3661,-0.6871,0.4719,0.5363,0.770,-7.000,0.420,1.065,0.006,0.003,0.013,0.006,2025-05-24T19:11:36.013020
3662,-0.6812,0.4729,0.5402,0.560,-7.280,0.070,1.065,0.006,0.006,0.013,0.006,2025-05-24T19:11:36.013030
3663,-0.6783,0.4714,0.5446,0.700,-7.700,-0.630,1.068,0.003,0.006,0.013,0.003,2025-05-24T19:11:36.013040
3664,-0.6778,0.4729,0.5466,1.120,-8.050,-1.190,1.065,0.006,0.003,0.010,0.003,2025-05-24T19:11:36.013050
3665,-0.6798,0.4729,0.5475,1.750,-7.770,-1.540,1.065,0.003,0.003,0.013,0.003,2025-05-24T19:11:36.013060
3666,-0.6915,0.4724,0.5456,2.030,-7.770,-1.750,1.068,0.003,0.006,0.013,0.003,2025-05-24T19:11:36.013070
3667,-0.7066,0.4753,0.5436,2.240,-7.980,-1.540,1.065,0.003,0.006,0.013,0.003,2025-05-24T19:11:36.013079
3668,-0.7086,0.4758,0.5422,2.520,-8.120,-0.910,1.068,0.003,0.006,0.013,0.006,2025-05-24T19:11:36.013088
3669,-0.7100,0.4807,0.5378,2.660,-7.560,-0.350,1.065,0.006,0.006,0.010,0.003,2025-05-24T19:11:36.013097
3670,-0.7042,0.4817,0.5344,2.520,-7.140,0.070,1.065,0.003,0.003,0.010,0.003,2025-05-24T19:11:36.013106
3671,-0.6993,0.4860,0.5348,2.380,-7.420,0.280,1.061,0.003,0.003,0.010,0.003,2025-05-24T19:11:36.013148
3672,-0.6886,0.4841,0.5363,2.100,-7.910,0.210,1.065,0.006,0.006,0.010,0.003,2025-05-24T19:11:36.013157
3673,-0.6837,0.4836,0.5378,1.750,-8.190,0.000,1.068,0.003,0.006,0.013,0.003,2025-05-24T19:11:36.013167
3674,-0.6852,0.4792,0.5392,1.890,-8.330,-0.210,1.065,0.003,0.003,0.010,0.003,2025-05-24T19:11:36.059806
3675,-0.6832,0.4782,0.5388,2.240,-8.050,-0.210,1.065,0.003,0.006,0.013,0.006,2025-05-24T19:11:36.059853
3676,-0.6871,0.4782,0.5368,2.310,-7.770,-0.420,1.065,0.006,0.003,0.013,0.006,2025-05-24T19:11:36.059866
3677,-0.6915,0.4797,0.5363,2.380,-7.560,-0.420,1.065,0.006,0.003,0.013,0.006,2025-05-24T19:11:36.229377
3678,-0.7032,0.4797,0.5363,2.310,-8.050,-0.210,1.065,0.006,0.006,0.013,0.006,2025-05-24T19:11:36.229433
3679,-0.7037,0.4797,0.5324,2.030,-8.050,0.070,1.065,0.006,0.003,0.013,0.003,2025-05-24T19:11:36.229449
3680,-0.7008,0.4807,0.5314,1.750,-7.490,0.350,1.068,0.003,0.006,0.013,0.006,2025-05-24T19:11:36.229463
3681,-0.6974,0.4792,0.5368,1.470,-7.350,0.560,1.068,0.006,0.006,0.013,0.003,2025-05-24T19:11:36.229475
3682,-0.6944,0.4778,0.5402,1.540,-7.840,0.770,1.065,0.003,0.006,0.013,0.006,2025-05-24T19:11:36.229490
3683,-0.6900,0.4768,0.5461,1.470,-8.260,0.700,1.065,0.006,0.006,0.013,0.003,2025-05-24T19:11:36.229501
3684,-0.6876,0.4773,0.5495,1.540,-8.330,0.560,1.065,0.003,0.006,0.013,0.003,2025-05-24T19:11:36.229512
3685,-0.6881,0.4753,0.5495,2.030,-8.470,0.490,1.061,0.003,0.003,0.010,0.006,2025-05-24T19:11:36.229523
3686,-0.6881,0.4743,0.5519,2.800,-8.400,0.490,1.068,0.003,0.003,0.010,0.003,2025-05-24T19:11:36.229534
3687,-0.6876,0.4753,0.5485,3.150,-8.260,0.490,1.065,0.003,0.006,0.010,0.003,2025-05-24T19:11:36.229545
3688,-0.6900,0.4763,0.5456,3.430,-8.190,0.490,1.065,0.003,0.003,0.010,0.003,2025-05-24T19:11:36.229556
3689,-0.6910,0.4792,0.5431,3.290,-8.540,0.420,1.065,0.003,0.006,0.013,0.003,2025-05-24T19:11:36.229567
3690,-0.6915,0.4807,0.5383,3.150,-8.960,0.070,1.068,0.003,0.003,0.010,0.006,2025-05-24T19:11:36.423181
3691,-0.6939,0.4841,0.5329,2.940,-8.890,0.210,1.068,0.006,0.003,0.013,0.003,2025-05-24T19:11:36.423233
3692,-0.6925,0.4846,0.5329,2.800,-8.540,0.350,1.068,0.003,0.006,0.013,0.003,2025-05-24T19:11:36.423366
3693,-0.6910,0.4826,0.5319,2.520,-8.610,0.490,1.065,0.003,0.006,0.013,0.006,2025-05-24T19:11:36.423379
3694,-0.6886,0.4836,0.5334,2.100,-8.680,0.350,1.065,0.003,0.006,0.010,0.006,2025-05-24T19:11:36.423392
3695,-0.6817,0.4831,0.5305,2.030,-8.680,0.350,1.065,0.003,0.003,0.013,0.003,2025-05-24T19:11:36.423403
3696,-0.6749,0.4836,0.5319,2.170,-8.260,0.210,1.065,0.003,0.003,0.013,0.006,2025-05-24T19:11:36.423416
3697,-0.6720,0.4856,0.5324,2.380,-7.910,-0.070,1.065,0.003,0.006,0.010,0.003,2025-05-24T19:11:36.423516
3698,-0.6759,0.4890,0.5334,2.240,-8.120,-0.350,1.065,0.006,0.006,0.010,0.003,2025-05-24T19:11:36.423550
3699,-0.6803,0.4885,0.5368,2.100,-8.470,-0.770,1.065,0.006,0.006,0.013,0.006,2025-05-24T19:11:36.423566
3700,-0.6856,0.4870,0.5392,2.100,-8.890,-0.770,1.065,0.003,0.010,0.010,0.006,2025-05-24T19:11:36.423576
3701,-0.6959,0.4870,0.5402,2.170,-8.890,-0.490,1.061,0.006,0.006,0.010,0.003,2025-05-24T19:11:36.423587
3702,-0.6944,0.4865,0.5397,2.380,-8.190,0.140,1.065,0.006,0.006,0.010,0.003,2025-05-24T19:11:36.423597
3703,-0.6900,0.4870,0.5407,2.590,-7.140,0.490,1.068,0.006,0.006,0.010,0.003,2025-05-24T19:11:36.423658
3704,-0.6856,0.4900,0.5422,2.940,-7.490,0.560,1.065,0.003,0.003,0.013,0.003,2025-05-24T19:11:36.423670
3705,-0.6861,0.4914,0.5417,2.660,-8.120,0.350,1.065,0.003,0.006,0.013,0.006,2025-05-24T19:11:36.627916
3706,-0.6852,0.4904,0.5422,2.240,-8.820,0.070,1.065,0.003,0.003,0.010,0.003,2025-05-24T19:11:36.627971
3707,-0.6832,0.4880,0.5436,1.820,-9.170,0.000,1.065,0.006,0.003,0.010,0.006,2025-05-24T19:11:36.627986
3708,-0.6798,0.4870,0.5422,1.890,-9.030,0.000,1.065,0.003,0.006,0.010,0.006,2025-05-24T19:11:36.627999
3709,-0.6812,0.4875,0.5417,2.380,-8.400,-0.140,1.068,0.006,0.006,0.010,0.006,2025-05-24T19:11:36.628012
3710,-0.6856,0.4909,0.5397,2.520,-8.260,0.070,1.065,0.003,0.006,0.010,0.003,2025-05-24T19:11:36.628029
3711,-0.6837,0.4880,0.5368,2.030,-8.330,-0.140,1.065,0.003,0.006,0.010,0.003,2025-05-24T19:11:36.628041
3712,-0.6852,0.4885,0.5344,1.820,-8.820,-0.210,1.061,0.003,0.006,0.010,0.003,2025-05-24T19:11:36.628052
3713,-0.6837,0.4885,0.5339,1.540,-9.310,-0.280,1.065,0.003,0.006,0.010,0.006,2025-05-24T19:11:36.800695
3714,-0.6705,0.4900,0.5319,1.260,-9.100,-0.420,1.065,0.006,0.006,0.010,0.003,2025-05-24T19:11:36.800720
3715,-0.6715,0.4900,0.5324,1.400,-8.190,-1.050,1.065,0.003,0.003,0.013,0.006,2025-05-24T19:11:36.800730
3716,-0.6788,0.4939,0.5319,1.680,-8.330,-1.190,1.061,0.003,0.006,0.010,0.006,2025-05-24T19:11:36.800738
3717,-0.6773,0.4943,0.5329,1.610,-8.260,-1.610,1.065,0.003,0.006,0.013,0.003,2025-05-24T19:11:36.800746
3718,-0.6793,0.4948,0.5344,1.260,-7.910,-1.610,1.061,0.006,0.003,0.013,0.003,2025-05-24T19:11:36.800800
3719,-0.6842,0.4948,0.5363,0.700,-8.050,-1.400,1.065,0.003,0.006,0.013,0.006,2025-05-24T19:11:36.800810
3720,-0.6822,0.4953,0.5402,0.280,-8.330,-1.330,1.065,0.006,0.006,0.013,0.006,2025-05-24T19:11:36.800818
3721,-0.6788,0.4939,0.5422,0.210,-8.470,-0.980,1.065,0.003,0.003,0.010,0.006,2025-05-24T19:11:36.860698
3722,-0.6739,0.4973,0.5446,0.420,-8.260,-0.840,1.065,0.006,0.010,0.013,0.006,2025-05-24T19:11:36.860755
3723,-0.6686,0.4987,0.5456,0.770,-7.910,-0.770,1.068,0.003,0.006,0.010,0.006,2025-05-24T19:11:36.860770
3724,-0.6686,0.5007,0.5461,1.120,-7.630,-0.840,1.068,0.006,0.006,0.013,0.006,2025-05-24T19:11:36.860785
3725,-0.6700,0.4992,0.5422,1.330,-7.840,-1.050,1.065,0.003,0.003,0.013,0.003,2025-05-24T19:11:36.860800
3726,-0.6730,0.5007,0.5388,1.470,-7.840,-1.120,1.065,0.003,0.003,0.010,0.003,2025-05-24T19:11:36.860812
3727,-0.6783,0.5012,0.5339,1.400,-7.630,-0.980,1.061,0.003,0.003,0.013,0.003,2025-05-24T19:11:36.860824
3728,-0.6822,0.5002,0.5324,1.120,-7.630,-0.770,1.068,0.006,0.006,0.013,0.003,2025-05-24T19:11:36.860835
3729,-0.6866,0.5007,0.5280,0.840,-7.490,-0.280,1.065,0.003,0.003,0.006,0.006,2025-05-24T19:11:36.860847
3730,-0.6832,0.4997,0.5270,0.420,-6.720,0.000,1.065,0.003,0.003,0.010,0.003,2025-05-24T19:11:36.860858
3731,-0.6822,0.4973,0.5261,-0.140,-6.230,0.420,1.065,0.003,0.003,0.010,0.003,2025-05-24T19:11:36.860869
3732,-0.6764,0.4943,0.5270,-0.700,-6.230,0.560,1.065,0.003,0.003,0.010,0.006,2025-05-24T19:11:36.860880
3733,-0.6681,0.4914,0.5285,-0.770,-5.880,0.280,1.065,0.003,0.003,0.010,0.003,2025-05-24T19:11:36.860891
3734,-0.6617,0.4914,0.5270,-0.840,-5.740,0.070,1.065,0.003,0.003,0.010,0.003,2025-05-24T19:11:36.860938
3735,-0.6622,0.4914,0.5270,-0.980,-5.250,-0.560,1.065,0.006,0.006,0.013,0.003,2025-05-24T19:11:36.860950
3736,-0.6651,0.4914,0.5256,-1.120,-5.180,-0.700,1.065,0.006,0.003,0.010,0.003,2025-05-24T19:11:36.860962
3737,-0.6710,0.4875,0.5305,-1.400,-4.760,-1.050,1.065,0.003,0.006,0.013,0.006,2025-05-24T19:11:36.860973
3738,-0.6812,0.4885,0.5305,-1.680,-4.760,-0.770,1.068,0.006,0.006,0.010,0.003,2025-05-24T19:11:36.908522
3739,-0.6842,0.4890,0.5339,-1.960,-4.690,-0.490,1.061,0.006,0.003,0.013,0.006,2025-05-24T19:11:36.908573
3740,-0.6856,0.4904,0.5378,-1.890,-4.410,-0.210,1.068,0.003,0.006,0.010,0.006,2025-05-24T19:11:36.908586
3741,-0.6876,0.4909,0.5422,-1.890,-4.270,17.850,1.065,0.006,0.006,0.013,0.003,2025-05-24T19:11:36.908598
3742,-0.6837,0.4890,0.5451,-1.750,-4.480,0.210,1.065,0.003,0.006,0.013,0.006,2025-05-24T19:11:36.967752
3743,-0.6808,0.4880,0.5485,-1.470,-4.200,0.420,1.068,0.006,0.003,0.013,0.003,2025-05-24T19:11:36.967803
3744,-0.6808,0.4885,0.5505,-0.840,-4.060,0.350,1.065,0.003,0.003,0.010,0.003,2025-05-24T19:11:36.967818
3745,-0.6773,0.4860,0.5510,-0.420,-4.200,0.210,1.061,0.006,0.006,0.010,0.006,2025-05-24T19:11:36.967831
3746,-0.6798,0.4865,0.5495,-0.210,-4.480,0.070,1.068,0.006,0.003,0.010,0.006,2025-05-24T19:11:37.223245
3747,-0.6817,0.4880,0.5485,-0.280,-4.900,-0.070,1.065,0.006,0.010,0.010,0.003,2025-05-24T19:11:37.223290
3748,-0.6915,0.4875,0.5470,-0.420,-5.250,-0.070,1.065,0.003,0.006,0.013,0.006,2025-05-24T19:11:37.223303
3749,-0.6915,0.4929,0.5436,-0.490,-5.180,0.140,1.068,0.003,0.003,0.010,0.003,2025-05-24T19:11:37.223315
3750,-0.6925,0.4880,0.5407,-0.630,-4.620,0.280,1.068,0.006,0.006,0.013,0.006,2025-05-24T19:11:37.223325
3751,-0.6939,0.4900,0.5388,-0.770,-4.690,0.700,1.065,0.003,0.003,0.010,0.006,2025-05-24T19:11:37.223335
3752,-0.6910,0.4885,0.5368,-0.770,-5.040,0.840,1.065,0.003,0.003,0.006,0.003,2025-05-24T19:11:37.223347
3753,-0.6886,0.4875,0.5388,-1.050,-5.460,0.910,1.065,0.003,0.006,0.010,0.003,2025-05-24T19:11:37.223357
3754,-0.6905,0.4860,0.5417,-1.120,-5.670,0.840,1.065,0.006,0.003,0.010,0.003,2025-05-24T19:11:37.223366
3755,-0.6900,0.4821,0.5431,-0.910,-5.880,0.980,1.068,0.003,0.003,0.013,0.003,2025-05-24T19:11:37.223375
3756,-0.6886,0.4812,0.5427,-0.770,-5.530,0.910,1.065,0.003,0.006,0.013,0.003,2025-05-24T19:11:37.223384
3757,-0.6886,0.4836,0.5431,-0.350,-5.460,1.050,1.068,0.003,0.003,0.013,0.003,2025-05-24T19:11:37.223394
3758,-0.6905,0.4812,0.5431,0.070,-5.390,1.260,1.065,0.003,0.003,0.010,0.003,2025-05-24T19:11:37.223403
3759,-0.6856,0.4826,0.5412,0.280,-5.390,1.260,1.065,0.003,0.006,0.010,0.003,2025-05-24T19:11:37.223442
3760,-0.6832,0.4821,0.5383,0.210,-5.110,0.980,1.065,0.003,0.003,0.013,0.003,2025-05-24T19:11:37.223452
3761,-0.6837,0.4846,0.5378,-0.210,-5.390,0.770,1.061,0.000,0.003,0.010,0.003,2025-05-24T19:11:37.223496
3762,-0.6827,0.4831,0.5383,-0.560,-6.020,0.560,1.065,0.006,0.003,0.013,0.003,2025-05-24T19:11:37.223506
3763,-0.6832,0.4817,0.5378,-0.700,-6.510,0.280,1.065,0.003,0.006,0.010,0.003,2025-05-24T19:11:37.223514
3764,-0.6895,0.4807,0.5407,-0.840,-6.580,0.070,1.061,0.006,0.003,0.010,0.003,2025-05-24T19:11:37.307444
3765,-0.6910,0.4797,0.5407,-0.700,-6.370,0.210,1.068,0.006,0.006,0.013,0.006,2025-05-24T19:11:37.307506
3766,-0.6925,0.4802,0.5431,-0.630,-5.880,0.210,1.065,0.003,0.006,0.013,0.003,2025-05-24T19:11:37.307523
3767,-0.6920,0.4821,0.5427,-0.210,-6.090,0.280,1.065,0.003,0.006,0.013,0.006,2025-05-24T19:11:37.307537
3768,-0.6871,0.4802,0.5427,-0.140,-6.440,0.140,1.068,0.006,0.010,0.013,0.006,2025-05-24T19:11:37.307553
3769,-0.6827,0.4782,0.5422,-0.070,-6.720,-0.140,1.065,0.003,0.006,0.010,0.006,2025-05-24T19:11:37.307570
3770,-0.6812,0.4812,0.5446,0.070,-6.860,-0.350,1.065,0.006,0.003,0.010,0.006,2025-05-24T19:11:37.452983
3771,-0.6773,0.4792,0.5412,0.280,-6.790,-0.560,1.065,0.003,0.006,0.013,0.006,2025-05-24T19:11:37.453253
3772,-0.6788,0.4782,0.5407,0.280,-6.580,-0.840,1.065,0.003,0.003,0.013,0.006,2025-05-24T19:11:37.453278
3773,-0.6852,0.4782,0.5402,0.210,-6.650,-1.260,1.065,0.010,0.006,0.013,0.006,2025-05-24T19:11:37.453299
3774,-0.6871,0.4807,0.5378,0.350,-7.000,-1.260,1.065,0.003,0.006,0.013,0.006,2025-05-24T19:11:37.453318
3775,-0.6900,0.4792,0.5344,0.420,-7.210,-1.400,1.065,0.003,0.000,0.013,0.003,2025-05-24T19:11:37.453338
3776,-0.6881,0.4802,0.5344,0.280,-6.860,-1.400,1.065,0.006,0.003,0.010,0.003,2025-05-24T19:11:37.453356
3777,-0.6915,0.4821,0.5368,0.000,-6.720,-1.540,1.068,0.003,0.003,0.013,0.003,2025-05-24T19:11:37.453373
3778,-0.6910,0.4787,0.5397,-0.280,-7.140,-1.540,1.065,0.003,0.006,0.010,0.006,2025-05-24T19:11:37.453392
3779,-0.6930,0.4792,0.5436,-0.420,-7.420,-1.680,1.065,0.006,0.006,0.013,0.003,2025-05-24T19:11:37.453411
3780,-0.6886,0.4753,0.5466,-0.140,-7.420,-1.540,1.065,0.003,0.003,0.010,0.003,2025-05-24T19:11:37.453428
3781,-0.6837,0.4753,0.5461,0.210,-7.070,-1.610,1.065,0.003,0.006,0.010,0.003,2025-05-24T19:11:37.453445
3782,-0.6822,0.4768,0.5456,0.770,-6.720,-1.680,1.065,0.003,0.000,0.013,0.006,2025-05-24T19:11:37.453462
3783,-0.6842,0.4778,0.5441,1.190,-6.580,-1.750,1.065,0.006,0.003,0.013,0.003,2025-05-24T19:11:37.669336
3784,-0.6856,0.4821,0.5461,0.910,-6.790,-1.890,1.065,0.006,0.006,0.013,0.003,2025-05-24T19:11:37.669394
3785,-0.6900,0.4787,0.5436,0.350,-7.350,-2.170,1.065,0.006,0.006,0.010,0.006,2025-05-24T19:11:37.669411
3786,-0.6930,0.4787,0.5422,0.350,-7.770,-2.240,1.065,0.003,0.006,0.010,0.006,2025-05-24T19:11:37.669425
3787,-0.6949,0.4719,0.5427,0.280,-7.910,-2.100,1.065,0.003,0.003,0.013,0.003,2025-05-24T19:11:37.669438
3788,-0.6920,0.4743,0.5397,0.560,-7.280,-1.820,1.068,0.003,0.006,0.010,0.006,2025-05-24T19:11:37.669456
3789,-0.6895,0.4758,0.5392,1.120,-6.230,-2.030,1.065,0.003,0.006,0.010,0.003,2025-05-24T19:11:37.669469
3790,-0.6944,0.4778,0.5397,1.190,-6.300,-1.960,1.065,0.003,0.006,0.010,0.003,2025-05-24T19:11:37.669482
3791,-0.6983,0.4807,0.5392,0.840,-6.930,-2.240,1.065,0.003,0.006,0.010,0.003,2025-05-24T19:11:37.669494
3792,-0.6983,0.4792,0.5407,0.490,-7.210,-2.030,1.061,0.000,0.006,0.013,0.006,2025-05-24T19:11:37.669506
3793,-0.6934,0.4773,0.5422,0.070,-7.140,-1.820,1.065,0.003,0.003,0.010,0.003,2025-05-24T19:11:37.669519
3794,-0.6910,0.4758,0.5446,0.140,-6.930,-1.470,1.061,0.006,0.003,0.006,0.003,2025-05-24T19:11:37.669532
3795,-0.6886,0.4773,0.5480,0.210,-6.930,-1.260,1.065,0.003,0.003,0.010,0.003,2025-05-24T19:11:37.669544
3796,-0.6847,0.4768,0.5500,0.490,-7.700,-1.260,1.065,0.003,0.006,0.013,0.006,2025-05-24T19:11:37.669596
3797,-0.6832,0.4797,0.5480,0.910,-7.770,-1.330,1.061,0.003,0.006,0.013,0.003,2025-05-24T19:11:37.669609
3798,-0.6837,0.4787,0.5456,1.400,-7.560,-1.470,1.065,0.006,0.006,0.013,0.006,2025-05-24T19:11:37.669621
3799,-0.6886,0.4763,0.5417,1.820,-7.560,-1.680,1.068,0.003,0.006,0.013,0.003,2025-05-24T19:11:37.669633
3800,-0.6969,0.4782,0.5383,2.100,-7.700,-1.610,1.068,0.006,0.006,0.010,0.006,2025-05-24T19:11:37.719870
3801,-0.7027,0.4792,0.5324,1.680,-7.420,-1.120,1.068,0.003,0.006,0.013,0.006,2025-05-24T19:11:37.719935
3802,-0.7061,0.4792,0.5309,1.190,-6.930,-0.700,1.065,0.006,0.006,0.013,0.006,2025-05-24T19:11:37.719953
3803,-0.7071,0.4763,0.5285,0.910,-7.000,-0.280,1.068,0.003,0.010,0.010,0.003,2025-05-24T19:11:37.719968
3804,-0.7027,0.4768,0.5314,0.560,-6.860,0.000,1.065,0.003,0.003,0.013,0.003,2025-05-24T19:11:37.766842
3805,-0.6959,0.4748,0.5368,-0.070,-6.650,0.210,1.065,0.003,0.006,0.013,0.006,2025-05-24T19:11:37.766905
3806,-0.6852,0.4709,0.5397,-0.350,-6.440,0.140,1.068,0.003,0.006,0.016,0.003,2025-05-24T19:11:37.766922
3807,-0.6754,0.4714,0.5431,-0.140,-6.370,-0.210,1.065,0.003,0.003,0.013,0.006,2025-05-24T19:11:37.850783
3808,-0.6676,0.4699,0.5436,0.140,-6.300,-0.910,1.061,0.003,0.006,0.013,0.006,2025-05-24T19:11:37.850843
3809,-0.6715,0.4714,0.5446,0.140,-6.370,-1.750,1.065,0.003,0.006,0.013,0.003,2025-05-24T19:11:37.850858
3810,-0.6798,0.4719,0.5451,0.280,-7.140,-2.100,1.065,0.003,0.003,0.013,0.003,2025-05-24T19:11:37.850872
3811,-0.6905,0.4758,0.5436,0.630,-7.210,-2.240,1.065,0.003,0.006,0.013,0.003,2025-05-24T19:11:38.060701
3812,-0.6998,0.4724,0.5436,0.770,-7.000,-1.890,1.065,0.003,0.006,0.013,0.006,2025-05-24T19:11:38.060751
3813,-0.7086,0.4763,0.5436,0.840,-6.370,-1.120,1.061,0.003,0.006,0.016,0.006,2025-05-24T19:11:38.060766
3814,-0.7086,0.4782,0.5431,0.770,-5.880,-0.420,1.068,0.006,0.003,0.013,0.006,2025-05-24T19:11:38.060778
3815,-0.7052,0.4802,0.5407,0.910,-5.880,0.140,1.065,0.000,0.003,0.013,0.006,2025-05-24T19:11:38.060790
3816,-0.6974,0.4826,0.5431,0.840,-6.300,0.490,1.061,0.003,0.003,0.013,0.003,2025-05-24T19:11:38.060801
3817,-0.6934,0.4831,0.5456,0.420,-6.790,0.490,1.061,0.006,0.003,0.010,0.003,2025-05-24T19:11:38.060812
3818,-0.6905,0.4782,0.5475,0.140,-7.140,0.490,1.065,0.003,0.003,0.013,0.003,2025-05-24T19:11:38.060822
3819,-0.6856,0.4773,0.5490,0.490,-7.490,0.560,1.065,0.003,0.003,0.010,0.003,2025-05-24T19:11:38.060832
3820,-0.6837,0.4778,0.5500,1.050,-6.930,0.630,1.065,0.003,0.003,0.010,0.003,2025-05-24T19:11:38.060842
3821,-0.6856,0.4758,0.5480,1.540,-6.510,0.630,1.065,0.006,0.003,0.013,0.003,2025-05-24T19:11:38.060852
3822,-0.6881,0.4748,0.5436,1.610,-6.650,0.630,1.065,0.003,0.006,0.013,0.003,2025-05-24T19:11:38.060861
3823,-0.6900,0.4778,0.5407,1.400,-6.930,0.560,1.065,0.006,0.006,0.013,0.003,2025-05-24T19:11:38.060871
3824,-0.6915,0.4787,0.5378,0.980,-7.070,0.630,1.068,0.003,0.003,0.010,0.003,2025-05-24T19:11:38.060917
3825,-0.6939,0.4773,0.5373,0.420,-6.930,0.840,1.065,0.006,0.003,0.010,0.006,2025-05-24T19:11:38.060928
3826,-0.6954,0.4768,0.5378,0.210,-6.650,1.050,1.061,0.003,0.006,0.016,0.003,2025-05-24T19:11:38.060938
3827,-0.6944,0.4782,0.5392,0.000,-6.510,1.330,1.065,0.006,0.006,0.013,0.006,2025-05-24T19:11:38.060948
3828,-0.6895,0.4763,0.5397,-0.140,-6.090,1.260,1.061,0.003,0.003,0.013,0.006,2025-05-24T19:11:38.060957
3829,-0.6866,0.4753,0.5431,-0.350,-6.090,1.260,1.065,0.006,0.006,0.016,0.003,2025-05-24T19:11:38.296072
3830,-0.6895,0.4758,0.5422,-0.490,-6.300,1.190,1.065,0.003,0.006,0.010,0.003,2025-05-24T19:11:38.296136
3831,-0.6866,0.4748,0.5436,-0.350,-6.020,1.400,1.065,0.006,0.003,0.013,0.003,2025-05-24T19:11:38.296155
3832,-0.6837,0.4748,0.5446,-0.280,-5.670,1.540,1.065,0.003,0.003,0.010,0.006,2025-05-24T19:11:38.296178
3833,-0.6847,0.4758,0.5461,0.070,-5.460,1.680,1.065,0.006,0.006,0.013,0.006,2025-05-24T19:11:38.296193
3834,-0.6832,0.4758,0.5446,0.140,-5.390,1.680,1.065,0.006,0.006,0.013,0.003,2025-05-24T19:11:38.296208
3835,-0.6822,0.4782,0.5417,-0.070,-5.250,1.610,1.065,0.003,0.006,0.010,0.003,2025-05-24T19:11:38.296222
3836,-0.6856,0.4797,0.5417,-0.350,-5.390,1.750,1.065,0.003,0.003,0.013,0.003,2025-05-24T19:11:38.296238
3837,-0.6852,0.4802,0.5427,-0.350,-5.250,1.820,1.065,0.003,0.006,0.013,0.003,2025-05-24T19:11:38.296251
3838,-0.6852,0.4812,0.5441,-0.700,-4.970,2.030,1.068,0.003,0.003,0.013,0.003,2025-05-24T19:11:38.296265
3839,-0.6886,0.4802,0.5475,-0.910,-4.970,2.240,1.068,0.003,0.006,0.013,0.003,2025-05-24T19:11:38.296279
3840,-0.6915,0.4792,0.5505,-0.770,-5.110,2.450,1.065,0.003,0.003,0.013,0.003,2025-05-24T19:11:38.296292
3841,-0.6881,0.4807,0.5519,-0.630,-5.110,2.800,1.065,0.003,0.006,0.010,0.006,2025-05-24T19:11:38.296305
3842,-0.6900,0.4792,0.5505,-0.490,-4.760,3.150,1.065,0.003,0.003,0.010,0.006,2025-05-24T19:11:38.296367
3843,-0.6905,0.4782,0.5510,-0.210,-4.830,3.290,1.065,0.006,0.003,0.010,0.003,2025-05-24T19:11:38.296381
3844,-0.6881,0.4778,0.5558,-0.140,-5.040,3.500,1.065,0.003,0.003,0.013,0.003,2025-05-24T19:11:38.296395
3845,-0.6812,0.4792,0.5558,-0.140,-5.040,3.430,1.065,0.006,0.006,0.013,0.006,2025-05-24T19:11:38.487349
3846,-0.6764,0.4763,0.5549,0.070,-4.900,3.290,1.065,0.006,0.006,0.013,0.003,2025-05-24T19:11:38.487440
3847,-0.6803,0.4758,0.5534,0.210,-5.180,3.220,1.065,0.006,0.006,0.013,0.003,2025-05-24T19:11:38.487467
3848,-0.6812,0.4738,0.5539,0.280,-5.250,3.150,1.065,0.006,0.003,0.013,0.003,2025-05-24T19:11:38.487497
3849,-0.6842,0.4763,0.5524,0.280,-5.110,3.360,1.061,0.006,0.006,0.013,0.003,2025-05-24T19:11:38.487519
3850,-0.6871,0.4748,0.5553,0.210,-4.830,3.430,1.065,0.003,0.006,0.010,0.003,2025-05-24T19:11:38.487735
3851,-0.6876,0.4734,0.5529,0.070,-5.040,3.710,1.065,0.003,0.003,0.010,0.006,2025-05-24T19:11:38.487759
3852,-0.6812,0.4738,0.5514,0.420,-4.830,3.920,1.065,0.003,0.003,0.013,0.003,2025-05-24T19:11:38.487782
3853,-0.6739,0.4734,0.5529,0.840,-4.550,3.920,1.065,0.003,0.006,0.013,0.003,2025-05-24T19:11:38.487803
3854,-0.6734,0.4734,0.5549,1.050,-4.340,3.710,1.065,0.006,0.006,0.013,0.006,2025-05-24T19:11:38.487824
3855,-0.6715,0.4714,0.5539,1.330,-4.550,3.640,1.065,0.003,0.003,0.010,0.003,2025-05-24T19:11:38.487844
3856,-0.6715,0.4724,0.5529,1.680,-4.200,3.570,1.065,0.003,0.003,0.013,0.006,2025-05-24T19:11:38.487864
3857,-0.6744,0.4690,0.5514,2.170,-3.920,3.640,1.065,0.003,0.010,0.013,0.006,2025-05-24T19:11:38.487884
3858,-0.6710,0.4665,0.5456,2.310,-3.570,3.710,1.065,0.003,0.003,0.013,0.003,2025-05-24T19:11:38.487965
3859,-0.6666,0.4675,0.5446,2.380,-3.430,3.500,1.065,0.003,0.006,0.013,0.003,2025-05-24T19:11:38.488259
3860,-0.6651,0.4660,0.5436,2.240,-3.150,3.290,1.065,0.003,0.003,0.010,0.003,2025-05-24T19:11:38.488283
3861,-0.6588,0.4641,0.5397,2.380,-2.730,3.080,1.065,0.003,0.006,0.010,0.006,2025-05-24T19:11:38.488303
3862,-0.6627,0.4714,0.5422,2.730,-2.100,2.450,1.068,0.003,0.003,0.013,0.006,2025-05-24T19:11:38.680908
3863,-0.6715,0.4768,0.5436,2.660,-1.540,2.170,1.068,0.003,0.006,0.013,0.006,2025-05-24T19:11:38.864250
3864,-0.6793,0.4778,0.5461,2.030,-1.750,2.100,1.065,0.006,0.003,0.013,0.003,2025-05-24T19:11:38.864280
3865,-0.6852,0.4763,0.5451,1.610,-1.820,2.240,1.065,0.003,0.006,0.010,0.006,2025-05-24T19:11:38.864292
3866,-0.6832,0.4782,0.5480,1.330,-1.260,2.660,1.068,0.003,0.006,0.010,0.006,2025-05-24T19:11:38.864303
3867,-0.6808,0.4792,0.5514,1.470,-0.630,3.290,1.061,0.003,0.003,0.010,0.003,2025-05-24T19:11:38.864313
3868,-0.6812,0.4812,0.5534,1.470,0.000,3.710,1.065,0.003,0.006,0.013,0.003,2025-05-24T19:11:38.864323
3869,-0.6778,0.4846,0.5510,1.470,0.350,3.990,1.065,0.003,0.003,0.010,0.003,2025-05-24T19:11:38.864332
3870,-0.6778,0.4900,0.5510,1.260,0.280,4.270,1.068,0.003,0.003,0.013,0.006,2025-05-24T19:11:38.864342
3871,-0.6744,0.4890,0.5495,1.190,-0.280,4.480,1.065,0.003,0.003,0.013,0.006,2025-05-24T19:11:38.864351
3872,-0.6720,0.4929,0.5475,1.400,-0.420,4.620,1.065,0.003,0.003,0.010,0.003,2025-05-24T19:11:38.864359
3873,-0.6822,0.4943,0.5451,1.400,-0.070,4.970,1.068,0.003,0.003,0.013,0.006,2025-05-24T19:11:38.864368
3874,-0.6886,0.4987,0.5412,1.400,0.840,5.880,1.065,0.003,0.006,0.013,0.003,2025-05-24T19:11:38.864379
3875,-0.6900,0.5007,0.5397,1.050,1.470,6.580,1.065,0.003,0.006,0.010,0.003,2025-05-24T19:11:38.864442
3876,-0.6930,0.5022,0.5397,0.420,1.680,7.350,1.065,0.006,0.003,0.013,0.003,2025-05-24T19:11:38.887563
3877,-0.6910,0.5031,0.5407,0.140,1.190,8.190,1.068,0.006,0.003,0.010,0.003,2025-05-24T19:11:38.887621
3878,-0.6832,0.5002,0.5397,0.000,1.470,8.750,1.065,0.006,0.006,0.013,0.003,2025-05-24T19:11:38.887637
3879,-0.6773,0.4982,0.5397,-0.070,2.310,9.310,1.068,0.006,0.003,0.013,0.003,2025-05-24T19:11:38.887651
3880,-0.6783,0.4953,0.5427,-0.420,3.080,9.520,1.065,0.006,0.006,0.013,0.006,2025-05-24T19:11:38.887664
3881,-0.6803,0.4939,0.5422,-0.770,2.450,9.380,1.068,0.003,0.006,0.013,0.006,2025-05-24T19:11:38.887677
3882,-0.6822,0.4895,0.5431,-0.910,1.680,8.890,1.068,0.003,0.006,0.013,0.006,2025-05-24T19:11:38.887690
3883,-0.6871,0.4836,0.5412,-0.770,1.820,8.890,1.065,0.003,0.003,0.013,0.003,2025-05-24T19:11:38.887703
3884,-0.6895,0.4807,0.5446,-0.140,2.450,9.240,1.065,0.006,0.003,0.010,0.003,2025-05-24T19:11:38.887716
3885,-0.6964,0.4773,0.5451,0.420,2.730,9.240,1.065,0.003,0.006,0.013,0.003,2025-05-24T19:11:38.887728
3886,-0.6988,0.4743,0.5461,0.560,2.590,9.100,1.065,0.006,0.003,0.013,0.006,2025-05-24T19:11:38.887743
3887,-0.6930,0.4704,0.5461,0.560,2.240,8.890,1.061,0.003,0.006,0.013,0.006,2025-05-24T19:11:38.887756
3888,-0.6856,0.4636,0.5436,0.630,1.890,8.540,1.065,0.003,0.003,0.010,0.003,2025-05-24T19:11:38.887767
3889,-0.6808,0.4616,0.5422,0.980,1.820,7.770,1.065,0.006,0.003,0.013,0.003,2025-05-24T19:11:38.887778
3890,-0.6778,0.4607,0.5436,1.470,1.820,7.000,1.065,0.003,0.003,0.013,0.006,2025-05-24T19:11:38.887823
3891,-0.6817,0.4587,0.5485,1.470,1.190,5.880,1.068,0.003,0.006,0.013,0.006,2025-05-24T19:11:38.887840
3892,-0.6925,0.4592,0.5524,1.680,0.280,4.620,1.065,0.006,0.006,0.013,0.006,2025-05-24T19:11:39.117201
3893,-0.7027,0.4568,0.5529,2.170,-0.560,3.640,1.065,0.003,0.006,0.013,0.006,2025-05-24T19:11:39.117286
3894,-0.7096,0.4597,0.5573,2.660,-0.840,3.010,1.068,0.006,0.003,0.013,0.006,2025-05-24T19:11:39.117311
3895,-0.7135,0.4636,0.5549,3.780,-0.980,2.450,1.065,0.006,0.006,0.013,0.006,2025-05-24T19:11:39.117333
3896,-0.7144,0.4685,0.5558,4.970,-0.840,1.960,1.065,0.006,0.006,0.010,0.006,2025-05-24T19:11:39.117353
3897,-0.7154,0.4763,0.5573,6.230,-1.050,1.190,1.068,0.006,0.003,0.010,0.003,2025-05-24T19:11:39.117373
3898,-0.7115,0.4846,0.5573,7.000,-1.820,0.350,1.065,0.003,0.006,0.013,0.003,2025-05-24T19:11:39.117391
3899,-0.7091,0.4924,0.5524,7.700,-3.010,-0.630,1.061,0.003,0.003,0.013,0.003,2025-05-24T19:11:39.117409
3900,-0.7105,0.4982,0.5510,8.610,-3.850,-1.470,1.065,0.006,0.003,0.013,0.003,2025-05-24T19:11:39.117427
3901,-0.7139,0.5031,0.5456,9.520,-4.760,-2.240,1.061,0.003,0.003,0.010,0.006,2025-05-24T19:11:39.117443
3902,-0.7203,0.5065,0.5407,10.920,-5.670,-2.310,1.065,0.003,0.003,0.013,0.003,2025-05-24T19:11:39.117465
3903,-0.7218,0.5129,0.5319,12.040,-5.740,-2.240,1.065,0.006,0.003,0.013,0.003,2025-05-24T19:11:39.117483
3904,-0.7208,0.5178,0.5231,13.580,-5.600,-1.960,1.061,0.006,0.003,0.010,0.006,2025-05-24T19:11:39.117501
3905,-0.7178,0.5231,0.5124,14.630,-5.740,-1.470,1.065,0.003,0.006,0.010,0.003,2025-05-24T19:11:39.117573
3906,-0.7096,0.5295,0.4953,15.470,-6.160,-0.980,1.061,0.003,0.003,0.010,0.003,2025-05-24T19:11:39.118057
3907,-0.7003,0.5348,0.4821,16.310,-6.790,-1.050,1.065,0.006,0.003,0.013,0.003,2025-05-24T19:11:39.118106
3908,-0.6978,0.5348,0.4695,16.730,-7.630,-0.910,1.068,0.003,0.006,0.016,0.003,2025-05-24T19:11:39.118123
3909,-0.6969,0.5344,0.4563,17.010,-7.980,-0.910,1.065,0.006,0.003,0.013,0.003,2025-05-24T19:11:39.118139
3910,-0.6925,0.5305,0.4426,17.430,-7.560,-0.840,1.068,0.003,0.006,0.013,0.006,2025-05-24T19:11:39.290240
3911,-0.6930,0.5334,0.4265,17.920,-6.370,-0.700,1.068,0.006,0.006,0.016,0.003,2025-05-24T19:11:39.290306
3912,-0.6939,0.5339,0.4138,18.130,-5.250,-0.700,1.068,0.006,0.006,0.013,0.006,2025-05-24T19:11:39.290324
3913,-0.6925,0.5353,0.3982,17.780,-4.340,-0.770,1.065,0.006,0.003,0.013,0.003,2025-05-24T19:11:39.290340
3914,-0.6886,0.5368,0.3836,17.010,-3.570,-1.120,1.068,0.003,0.003,0.013,0.003,2025-05-24T19:11:39.290355
3915,-0.6876,0.5388,0.3758,15.820,-2.800,-1.820,1.065,0.006,0.003,0.013,0.006,2025-05-24T19:11:39.290371
3916,-0.6891,0.5402,0.3704,14.210,-1.960,-2.450,1.068,0.003,0.006,0.013,0.003,2025-05-24T19:11:39.290384
3917,-0.6949,0.5451,0.3645,12.180,-1.050,-2.940,1.065,0.003,0.003,0.013,0.003,2025-05-24T19:11:39.290398
3918,-0.6978,0.5495,0.3636,10.990,-0.210,-3.150,1.068,0.006,0.006,0.010,0.003,2025-05-24T19:11:39.290413
3919,-0.7037,0.5524,0.3650,9.660,0.490,-3.080,1.068,0.003,0.003,0.013,0.006,2025-05-24T19:11:39.290426
3920,-0.7110,0.5568,0.3675,8.190,1.050,-2.940,1.061,0.003,0.003,0.010,0.006,2025-05-24T19:11:39.290441
3921,-0.7174,0.5592,0.3699,7.420,1.260,-2.660,1.065,0.003,0.003,0.010,0.003,2025-05-24T19:11:39.290454
3922,-0.7218,0.5656,0.3733,7.000,1.540,-1.890,1.065,0.006,0.003,0.013,0.003,2025-05-24T19:11:39.290467
3923,-0.7281,0.5705,0.3802,6.300,1.750,-0.980,1.065,0.006,0.003,0.013,0.003,2025-05-24T19:11:39.555708
3924,-0.7242,0.5710,0.3860,5.600,1.610,-0.210,1.068,0.006,0.003,0.013,0.003,2025-05-24T19:11:39.555753
3925,-0.7222,0.5744,0.3933,5.530,1.470,0.560,1.068,0.003,0.006,0.013,0.003,2025-05-24T19:11:39.555766
3926,-0.7149,0.5729,0.3972,6.440,1.400,1.120,1.068,0.006,0.003,0.013,0.003,2025-05-24T19:11:39.555777
3927,-0.7110,0.5734,0.3982,7.770,1.750,1.470,1.065,0.003,0.003,0.013,0.006,2025-05-24T19:11:39.555791
3928,-0.7125,0.5754,0.3972,8.470,1.610,1.960,1.065,0.006,0.006,0.016,0.006,2025-05-24T19:11:39.555801
3929,-0.7047,0.5754,0.3928,9.100,1.610,2.380,1.065,0.003,0.006,0.010,0.003,2025-05-24T19:11:39.555919
3930,-0.7076,0.5763,0.3899,9.100,1.470,1.960,1.065,0.003,0.003,0.013,0.006,2025-05-24T19:11:39.555930
3931,-0.7105,0.5768,0.3831,8.960,-0.420,1.680,1.068,0.006,0.003,0.010,0.003,2025-05-24T19:11:39.555940
3932,-0.7066,0.5778,0.3748,8.190,-1.750,1.190,1.065,0.003,0.003,0.013,0.006,2025-05-24T19:11:39.555950
3933,-0.7017,0.5783,0.3680,7.350,-1.750,0.560,1.065,0.003,0.006,0.013,0.003,2025-05-24T19:11:39.555959
3934,-0.7139,0.5797,0.3640,6.370,-2.100,-0.070,1.065,0.003,0.003,0.013,0.003,2025-05-24T19:11:39.555968
3935,-0.7227,0.5822,0.3670,4.830,-3.220,-0.490,1.065,0.003,0.006,0.013,0.003,2025-05-24T19:11:39.555977
3936,-0.7315,0.5836,0.3709,3.360,-4.130,-0.980,1.061,0.003,0.003,0.013,0.006,2025-05-24T19:11:39.556015
3937,-0.7418,0.5876,0.3758,2.590,-5.040,-1.190,1.065,0.003,0.006,0.013,0.006,2025-05-24T19:11:39.556025
3938,-0.7447,0.5876,0.3821,1.960,-6.090,-1.260,1.065,0.003,0.006,0.013,0.003,2025-05-24T19:11:39.556035
3939,-0.7403,0.5827,0.3875,1.190,-6.860,-1.050,1.068,0.003,0.003,0.013,0.006,2025-05-24T19:11:39.556045
3940,-0.7315,0.5783,0.3909,1.260,-7.630,-0.980,1.068,0.003,0.006,0.013,0.006,2025-05-24T19:11:39.556053
3941,-0.7164,0.5749,0.3914,2.030,-8.260,-1.190,1.068,0.003,0.003,0.016,0.006,2025-05-24T19:11:39.603363
3942,-0.6993,0.5724,0.3841,2.940,-8.610,-2.030,1.068,0.006,0.003,0.013,0.003,2025-05-24T19:11:39.603424
3943,-0.6920,0.5749,0.3753,3.710,-8.890,-3.080,1.065,0.010,0.003,0.013,0.003,2025-05-24T19:11:39.603442
3944,-0.6954,0.5749,0.3640,3.570,-9.660,-4.900,1.065,0.003,0.003,0.013,0.006,2025-05-24T19:11:39.603458
3945,-0.6998,0.5719,0.3592,3.010,-11.060,-6.230,1.068,0.003,0.003,0.013,0.006,2025-05-24T19:11:39.603474
3946,-0.7027,0.5719,0.3499,2.660,-11.410,-7.070,1.068,0.006,0.003,0.013,0.003,2025-05-24T19:11:39.603490
3947,-0.7066,0.5680,0.3440,2.520,-10.640,-8.120,1.065,0.003,0.010,0.013,0.006,2025-05-24T19:11:39.703801
3948,-0.7135,0.5700,0.3396,2.380,-10.080,-8.610,1.065,0.003,0.006,0.013,0.003,2025-05-24T19:11:39.703877
3949,-0.7169,0.5695,0.3348,1.750,-9.940,-9.520,1.065,0.006,0.006,0.013,0.006,2025-05-24T19:11:39.703898
3950,-0.7178,0.5705,0.3323,1.050,-9.800,-10.780,1.065,0.003,0.006,0.010,0.006,2025-05-24T19:11:39.703915
3951,-0.7257,0.5705,0.3294,0.000,-10.220,-12.040,1.065,0.006,0.003,0.010,0.003,2025-05-24T19:11:39.703932
3952,-0.7340,0.5719,0.3309,-1.400,-10.850,-13.160,1.065,0.000,0.003,0.010,0.003,2025-05-24T19:11:39.703948
3953,-0.7442,0.5714,0.3304,-2.450,-10.920,-14.140,1.068,0.003,0.003,0.010,0.003,2025-05-24T19:11:39.703964
3954,-0.7608,0.5671,0.3353,-2.870,-10.710,-14.070,1.068,0.006,0.006,0.013,0.006,2025-05-24T19:11:39.703980
3955,-0.7662,0.5656,0.3387,-3.290,-9.870,-13.650,1.065,0.003,0.006,0.013,0.006,2025-05-24T19:11:39.756279
3956,-0.7691,0.5651,0.3411,-3.640,-9.170,-12.950,1.068,0.006,0.003,0.013,0.006,2025-05-24T19:11:39.756338
3957,-0.7725,0.5627,0.3470,-3.850,-9.030,-12.180,1.065,0.003,0.003,0.010,0.006,2025-05-24T19:11:39.756354
3958,-0.7637,0.5656,0.3528,-3.920,-9.870,-11.200,1.065,0.006,0.006,0.010,0.006,2025-05-24T19:11:39.756370
3959,-0.7471,0.5675,0.3592,-3.640,-10.080,-10.640,1.065,0.006,0.006,0.013,0.006,2025-05-24T19:11:39.919663
3960,-0.7300,0.5710,0.3665,-2.940,-9.660,-10.710,1.065,0.003,0.003,0.013,0.003,2025-05-24T19:11:39.919718
3961,-0.7266,0.5714,0.3743,-1.960,-10.430,-10.920,1.068,0.003,0.010,0.013,0.006,2025-05-24T19:11:39.919733
3962,-0.7237,0.5739,0.3777,-1.120,-11.620,-11.200,1.065,0.006,0.006,0.013,0.006,2025-05-24T19:11:39.919747
3963,-0.7325,0.5739,0.3792,0.210,-12.390,-11.200,1.065,0.003,0.003,0.010,0.003,2025-05-24T19:11:39.919760
3964,-0.7325,0.5773,0.3758,1.680,-12.250,-10.570,1.065,0.003,0.003,0.013,0.006,2025-05-24T19:11:39.919772
3965,-0.7359,0.5827,0.3709,2.660,-11.200,-9.800,1.065,0.003,0.003,0.010,0.003,2025-05-24T19:11:39.919783
3966,-0.7447,0.5919,0.3680,3.290,-10.850,-8.750,1.065,0.003,0.003,0.010,0.003,2025-05-24T19:11:39.919794
3967,-0.7471,0.5949,0.3606,3.010,-11.270,-8.190,1.065,0.006,0.003,0.013,0.003,2025-05-24T19:11:39.919806
3968,-0.7520,0.6017,0.3538,2.520,-11.830,-7.140,1.065,0.003,0.003,0.010,0.003,2025-05-24T19:11:39.919818
3969,-0.7530,0.5998,0.3489,1.960,-11.900,-5.950,1.065,0.003,0.003,0.013,0.006,2025-05-24T19:11:39.919829
3970,-0.7525,0.6017,0.3475,1.330,-11.270,-4.550,1.068,0.006,0.003,0.013,0.003,2025-05-24T19:11:39.919841
3971,-0.7632,0.6032,0.3475,0.560,-11.130,-3.150,1.068,0.006,0.006,0.013,0.003,2025-05-24T19:11:40.111992
3972,-0.7740,0.6012,0.3558,-0.280,-11.620,-1.750,1.068,0.006,0.000,0.013,0.006,2025-05-24T19:11:40.112074
3973,-0.7876,0.5978,0.3582,-1.470,-12.250,-0.070,1.068,0.006,0.003,0.013,0.003,2025-05-24T19:11:40.112098
3974,-0.7954,0.5915,0.3655,-2.380,-12.880,1.610,1.068,0.003,0.006,0.013,0.003,2025-05-24T19:11:40.112121
3975,-0.7940,0.5876,0.3723,-2.730,-13.230,3.010,1.065,0.003,0.006,0.013,0.006,2025-05-24T19:11:40.112141
3976,-0.7964,0.5797,0.3816,-2.940,-13.930,4.480,1.068,0.003,0.010,0.013,0.006,2025-05-24T19:11:40.112161
3977,-0.8028,0.5729,0.3899,-3.010,-15.470,5.810,1.065,0.003,0.003,0.010,0.003,2025-05-24T19:11:40.112178
3978,-0.8008,0.5680,0.4046,-3.360,-16.730,6.790,1.065,0.006,0.003,0.010,0.003,2025-05-24T19:11:40.112196
3979,-0.8032,0.5573,0.4158,-3.290,-18.410,7.490,1.065,0.006,0.000,0.013,0.006,2025-05-24T19:11:40.112214
3980,-0.7989,0.5441,0.4236,-2.520,-21.210,8.120,1.068,0.003,0.003,0.010,0.003,2025-05-24T19:11:40.112231
3981,-0.7847,0.5344,0.4294,-1.050,-22.750,8.680,1.065,0.003,0.003,0.013,0.003,2025-05-24T19:11:40.112249
3982,-0.7603,0.5236,0.4314,0.840,-22.750,8.750,1.065,0.003,0.003,0.013,0.003,2025-05-24T19:11:40.112273
3983,-0.7462,0.5256,0.4260,2.870,-22.400,7.700,1.065,0.003,0.003,0.013,0.003,2025-05-24T19:11:40.112344
3984,-0.7427,0.5305,0.4197,4.970,-23.100,6.090,1.065,0.003,0.003,0.010,0.003,2025-05-24T19:11:40.112363
3985,-0.7505,0.5368,0.4182,5.950,-24.220,3.500,1.065,0.006,0.006,0.013,0.006,2025-05-24T19:11:40.313867
3986,-0.7574,0.5280,0.4114,5.880,-25.620,1.540,1.065,0.003,0.006,0.010,0.003,2025-05-24T19:11:40.313935
3987,-0.7588,0.5197,0.4031,5.950,-25.480,0.280,1.068,0.000,0.003,0.013,0.006,2025-05-24T19:11:40.313954
3988,-0.7559,0.5095,0.3992,6.720,-24.150,0.350,1.068,0.006,0.006,0.016,0.003,2025-05-24T19:11:40.313970
3989,-0.7403,0.5046,0.3997,6.580,-22.610,0.490,1.065,0.003,0.006,0.013,0.003,2025-05-24T19:11:40.313985
3990,-0.7076,0.5070,0.3963,6.090,-20.650,0.420,1.068,0.003,0.006,0.013,0.003,2025-05-24T19:11:40.314000
3991,-0.6754,0.5109,0.3894,6.020,-19.250,0.140,1.065,0.003,0.006,0.010,0.003,2025-05-24T19:11:40.314014
3992,-0.6495,0.5168,0.3841,5.390,-17.920,-0.770,1.068,0.003,0.003,0.013,0.003,2025-05-24T19:11:40.314027
3993,-0.6251,0.5270,0.3826,4.340,-17.080,-1.960,1.065,0.003,0.003,0.013,0.003,2025-05-24T19:11:40.314042
3994,-0.6202,0.5314,0.3802,2.450,-16.730,-3.220,1.068,0.006,0.003,0.013,0.003,2025-05-24T19:11:40.314057
3995,-0.6222,0.5358,0.3841,0.980,-16.940,-4.410,1.068,0.006,0.003,0.013,0.003,2025-05-24T19:11:40.314071
3996,-0.5002,0.5353,0.3875,-0.070,-15.960,-4.760,1.065,0.003,0.003,0.010,0.003,2025-05-24T19:11:40.314084
3997,-0.6344,0.5417,0.3933,-0.630,-12.670,-5.040,1.068,0.006,0.006,0.013,0.003,2025-05-24T19:11:40.314098
3998,-0.6603,0.5485,0.4050,-1.610,-11.550,-4.970,1.065,0.003,0.006,0.010,0.003,2025-05-24T19:11:40.314155
3999,-0.6822,0.5544,0.4207,-3.290,-12.250,-4.900,1.065,0.006,0.003,0.010,0.003,2025-05-24T19:11:40.314170
4000,-0.7037,0.5583,0.4353,-4.620,-13.580,-5.040,1.068,0.003,0.003,0.013,0.003,2025-05-24T19:11:40.314184
4001,-0.7193,0.5612,0.4490,-5.460,-14.350,-5.110,1.068,0.003,0.006,0.013,0.006,2025-05-24T19:11:40.549693
4002,-0.7281,0.5568,0.4641,-5.180,-14.210,-4.830,1.068,0.003,0.006,0.010,0.006,2025-05-24T19:11:40.549754
4003,-0.7388,0.5490,0.4738,-4.270,-12.740,-3.850,1.068,0.003,0.006,0.013,0.003,2025-05-24T19:11:40.549771
4004,-0.7422,0.5480,0.4817,-3.010,-11.060,-2.730,1.065,0.003,0.006,0.013,0.003,2025-05-24T19:11:40.549785
4005,-0.7398,0.5417,0.4856,-2.450,-10.500,-1.330,1.065,0.003,0.006,0.013,0.003,2025-05-24T19:11:40.549799
4006,-0.7237,0.5363,0.4856,-1.820,-10.360,0.490,1.061,0.003,0.003,0.013,0.006,2025-05-24T19:11:40.549816
4007,-0.6988,0.5290,0.4860,-1.260,-10.150,1.470,1.068,0.006,0.003,0.013,0.000,2025-05-24T19:11:40.550072
4008,-0.6730,0.5256,0.4865,-0.840,-9.870,2.170,1.068,0.006,0.003,0.013,0.003,2025-05-24T19:11:40.550088
4009,-0.6603,0.5231,0.4929,-0.910,-10.150,1.750,1.061,0.003,0.003,0.010,0.003,2025-05-24T19:11:40.550102
4010,-0.6603,0.5173,0.4982,-1.050,-11.550,0.770,1.068,0.003,0.006,0.013,0.003,2025-05-24T19:11:40.550117
4011,-0.6637,0.5119,0.5022,-1.260,-13.580,-0.210,1.068,0.003,0.006,0.013,0.003,2025-05-24T19:11:40.550129
4012,-0.6700,0.5017,0.5046,-1.050,-14.000,-0.910,1.065,0.003,0.003,0.013,0.003,2025-05-24T19:11:40.550141
4013,-0.6808,0.4958,0.5031,0.000,-13.510,-1.120,1.065,0.003,0.003,0.010,0.003,2025-05-24T19:11:40.748402
4014,-0.6808,0.4953,0.4934,1.190,-11.340,-1.330,1.068,0.003,0.003,0.010,0.003,2025-05-24T19:11:40.748432
4015,-0.6842,0.4978,0.4831,2.100,-9.170,-1.540,1.065,0.003,0.003,0.013,0.003,2025-05-24T19:11:40.748443
4016,-0.6881,0.5012,0.4734,1.540,-8.120,-1.750,1.068,0.006,0.003,0.013,0.006,2025-05-24T19:11:40.748453
4017,-0.6886,0.5056,0.4656,0.210,-8.400,-2.380,1.065,0.003,0.006,0.013,0.006,2025-05-24T19:11:40.748463
4018,-0.6842,0.5085,0.4636,-1.960,-8.750,-2.940,1.068,0.003,0.006,0.013,0.006,2025-05-24T19:11:40.748472
4019,-0.6900,0.5080,0.4665,-3.920,-9.800,-3.710,1.065,0.006,0.003,0.013,0.003,2025-05-24T19:11:40.748481
4020,-0.6944,0.4987,0.4748,-5.390,-10.920,-4.200,1.068,0.003,0.006,0.016,0.006,2025-05-24T19:11:40.748490
4021,-0.6978,0.4904,0.4856,-6.370,-11.130,-4.690,1.065,0.006,0.006,0.010,0.006,2025-05-24T19:11:40.748499
4022,-0.7052,0.4841,0.6237,-6.650,-11.060,-4.900,1.065,0.006,0.006,0.013,0.003,2025-05-24T19:11:40.748508
4023,-0.7110,0.4748,0.5183,-5.950,-11.060,-4.970,1.065,0.006,0.000,0.010,0.003,2025-05-24T19:11:40.748516
4024,-0.7144,0.4709,0.5246,-4.620,-10.850,-5.040,1.065,0.003,0.006,0.013,0.003,2025-05-24T19:11:40.748527
4025,-0.7139,0.4695,0.5329,-2.940,-11.130,-5.250,1.065,0.003,0.003,0.013,0.006,2025-05-24T19:11:40.748536
4026,-0.7100,0.4695,0.5378,-1.610,-11.830,-5.600,1.065,0.003,0.006,0.010,0.003,2025-05-24T19:11:40.748558
4027,-0.7027,0.4670,0.5397,-0.350,-12.740,-6.160,1.065,0.003,0.003,0.013,0.003,2025-05-24T19:11:40.748567
4028,-0.7008,0.4651,0.5378,0.840,-13.370,-6.790,1.065,0.006,0.006,0.010,0.006,2025-05-24T19:11:40.748576
4029,-0.6934,0.4665,0.5348,2.660,-13.370,-7.070,1.065,0.003,0.003,0.013,0.003,2025-05-24T19:11:40.748585
4030,-0.6905,0.4670,0.5256,4.130,-12.810,-7.210,1.065,0.003,0.003,0.013,0.003,2025-05-24T19:11:40.748593
4031,-0.6822,0.4719,0.5168,4.970,-12.250,-7.560,1.065,0.003,0.003,0.010,0.003,2025-05-24T19:11:40.748601
4032,-0.6749,0.4753,0.5065,5.180,-12.040,-8.120,1.068,0.006,0.006,0.016,0.006,2025-05-24T19:11:40.748611
4033,-0.6690,0.4797,0.4958,5.110,-12.180,-8.610,1.068,0.006,0.003,0.013,0.003,2025-05-24T19:11:40.928613
4034,-0.6603,0.4851,0.4900,4.690,-11.340,-9.100,1.065,0.003,0.000,0.016,0.006,2025-05-24T19:11:40.928671
4035,-0.6622,0.4919,0.4841,4.270,-10.220,-9.520,1.068,0.003,0.006,0.013,0.003,2025-05-24T19:11:40.928689
4036,-0.6700,0.5012,0.4870,3.500,-9.520,-9.660,1.065,0.003,0.003,0.013,0.006,2025-05-24T19:11:40.928708
4037,-0.6817,0.5134,0.4943,2.520,-9.520,-10.010,1.068,0.006,0.000,0.013,0.003,2025-05-24T19:11:40.928722
4038,-0.7013,0.5207,0.5022,1.120,-10.080,-10.080,1.065,0.003,0.003,0.013,0.003,2025-05-24T19:11:40.928735
4039,-0.7149,0.5212,0.5153,0.280,-10.850,-9.730,1.065,0.006,0.006,0.013,0.003,2025-05-24T19:11:40.928748
4040,-0.7310,0.5187,0.5319,-0.210,-10.290,-8.750,1.065,0.006,0.003,0.010,0.003,2025-05-24T19:11:40.928762
4041,-0.7403,0.5158,0.5466,0.560,-9.030,-7.070,1.065,0.003,0.003,0.013,0.006,2025-05-24T19:11:40.928774
4042,-0.7427,0.5173,0.5539,1.890,-7.560,-5.110,1.065,0.003,0.006,0.013,0.003,2025-05-24T19:11:40.928787
4043,-0.7369,0.5241,0.5617,2.730,-6.510,-2.800,1.065,0.003,0.003,0.013,0.003,2025-05-24T19:11:40.928799
4044,-0.7359,0.5241,0.5690,2.590,-7.630,-1.470,1.068,0.003,0.003,0.013,0.003,2025-05-24T19:11:40.928810
4045,-0.7300,0.5197,0.5719,2.310,-10.080,-0.070,1.065,0.003,0.003,0.013,0.000,2025-05-24T19:11:40.928822
4046,-0.7110,0.5085,0.5754,2.520,-11.340,1.400,1.065,0.003,0.003,0.010,0.003,2025-05-24T19:11:40.928872
4047,-0.6920,0.5065,0.5744,3.360,-10.850,3.010,1.065,0.003,0.006,0.013,0.006,2025-05-24T19:11:40.928885
4048,-0.6881,0.5002,0.5778,4.550,-11.130,3.920,1.065,0.003,0.006,0.013,0.006,2025-05-24T19:11:41.135704
4049,-0.6798,0.4909,0.5768,5.320,-12.740,4.480,1.065,0.006,0.006,0.013,0.006,2025-05-24T19:11:41.135955
4050,-0.6690,0.4841,0.5690,6.090,-14.210,4.480,1.071,0.003,0.006,0.013,0.003,2025-05-24T19:11:41.135971
4051,-0.6588,0.4802,0.5553,7.210,-13.930,4.410,1.068,0.006,0.010,0.013,0.003,2025-05-24T19:11:41.135983
4052,-0.6515,0.4768,0.5417,8.050,-13.090,3.780,1.068,0.006,0.006,0.013,0.003,2025-05-24T19:11:41.135998
4053,-0.6510,0.4724,0.5251,8.820,-12.180,3.010,1.065,0.003,0.006,0.013,0.003,2025-05-24T19:11:41.136010
4054,-0.6525,0.4743,0.5129,8.400,-11.620,2.450,1.061,0.003,0.003,0.013,0.003,2025-05-24T19:11:41.136021
4055,-0.6564,0.4787,0.5041,7.210,-11.270,2.100,1.068,0.003,0.003,0.013,0.003,2025-05-24T19:11:41.136032
4056,-0.6617,0.4782,0.4968,6.160,-10.360,1.470,1.068,0.006,0.006,0.013,0.006,2025-05-24T19:11:41.136042
4057,-0.6666,0.4812,0.4963,5.110,-9.870,1.120,1.065,0.006,0.003,0.010,0.003,2025-05-24T19:11:41.136191
4058,-0.6749,0.4812,0.5026,3.710,-9.730,0.700,1.068,0.006,0.006,0.010,0.003,2025-05-24T19:11:41.136247
4059,-0.6886,0.4787,0.5139,1.960,-10.010,0.350,1.068,0.006,0.006,0.013,0.003,2025-05-24T19:11:41.136260
4060,-0.7037,0.4729,0.5236,0.420,-10.290,0.420,1.068,0.003,0.010,0.013,0.003,2025-05-24T19:11:41.136273
4061,-0.7017,0.4631,0.5309,-0.140,-9.800,0.630,1.065,0.003,0.006,0.013,0.006,2025-05-24T19:11:41.136346
4062,-0.6944,0.4573,0.5461,0.070,-8.260,1.190,1.065,0.003,0.003,0.013,0.003,2025-05-24T19:11:41.136357
4063,-0.6715,0.4592,0.5519,0.770,-6.370,1.120,1.068,0.006,0.006,0.013,0.006,2025-05-24T19:11:41.359526
4064,-0.6534,0.4651,0.5549,2.170,-4.550,0.280,1.065,0.006,0.006,0.013,0.003,2025-05-24T19:11:41.359566
4065,-0.6481,0.4724,0.5592,2.730,-4.410,-0.840,1.065,0.003,0.006,0.016,0.006,2025-05-24T19:11:41.359577
4066,-0.6471,0.4768,0.5632,2.380,-5.600,-2.030,1.065,0.006,0.003,0.016,0.003,2025-05-24T19:11:41.359587
4067,-0.6486,0.4738,0.5714,1.400,-6.650,-2.520,1.068,0.003,0.006,0.010,0.006,2025-05-24T19:11:41.359596
4068,-0.6515,0.4714,0.5797,1.610,-6.580,-2.590,1.065,0.003,0.003,0.010,0.003,2025-05-24T19:11:41.359607
4069,-0.6505,0.4734,0.5836,3.430,-6.020,-2.450,1.065,0.003,0.006,0.010,0.003,2025-05-24T19:11:41.359617
4070,-0.6568,0.4826,0.5851,5.600,-5.250,-2.940,1.065,0.003,0.003,0.010,0.006,2025-05-24T19:11:41.359625
4071,-0.6749,0.4987,0.5817,7.140,-5.320,-3.500,1.065,0.003,0.003,0.010,0.003,2025-05-24T19:11:41.359633
4072,-0.7052,0.5090,0.5763,6.650,-7.070,-3.920,1.065,0.003,0.006,0.010,0.006,2025-05-24T19:11:41.359643
4073,-0.7349,0.5163,0.5729,5.320,-9.660,-2.940,1.065,0.003,0.003,0.013,0.003,2025-05-24T19:11:41.359651
4074,-0.7549,0.5100,0.5749,3.710,-10.920,-0.770,1.065,0.003,0.003,0.010,0.006,2025-05-24T19:11:41.359659
4075,-0.7574,0.5041,0.5739,3.080,-10.500,2.030,1.068,0.000,0.003,0.013,0.006,2025-05-24T19:11:41.359667
4076,-0.7486,0.5017,0.5797,3.150,-9.800,4.900,1.068,0.003,0.003,0.013,0.003,2025-05-24T19:11:41.359702
4077,-0.7266,0.5002,0.5890,3.430,-9.730,7.560,1.065,0.006,0.003,0.010,0.006,2025-05-24T19:11:41.359712
4078,-0.7032,0.4973,0.6017,4.130,-11.480,8.610,1.065,0.003,0.003,0.013,0.006,2025-05-24T19:11:41.359720
4079,-0.6861,0.4880,0.6178,5.880,-13.860,8.610,1.065,0.006,0.006,0.013,0.006,2025-05-24T19:11:41.359728
4080,-0.6871,0.4738,0.6290,8.260,-17.220,8.120,1.065,0.006,0.003,0.013,0.006,2025-05-24T19:11:41.543256
4081,-0.6954,0.4592,0.6398,11.340,-20.300,7.700,1.065,0.003,0.003,0.010,0.003,2025-05-24T19:11:41.543298
4082,-0.6871,0.4490,0.6403,15.540,-20.370,7.350,1.065,0.006,0.006,0.013,0.006,2025-05-24T19:11:41.543309
4083,-0.6900,0.4455,0.6368,19.040,-18.970,6.930,1.068,0.006,0.006,0.013,0.006,2025-05-24T19:11:41.543319
4084,-0.7013,0.4480,0.6285,22.820,-18.270,6.020,1.065,0.006,0.003,0.010,0.006,2025-05-24T19:11:41.543331
4085,-0.7154,0.4524,0.6246,25.340,-19.810,5.320,1.065,0.003,0.006,0.013,0.003,2025-05-24T19:11:41.543430
4086,-0.7310,0.4524,0.6163,26.110,-22.330,4.830,1.068,0.003,0.006,0.013,0.003,2025-05-24T19:11:41.543440
4087,-0.7374,0.4558,0.6071,26.880,-24.920,5.950,1.065,0.003,0.006,0.010,0.006,2025-05-24T19:11:41.543450
4088,-0.7325,0.4592,0.6032,27.160,-26.110,7.070,1.065,0.003,0.006,0.013,0.003,2025-05-24T19:11:41.543460
4089,-0.7281,0.4699,0.5998,26.670,-27.090,8.330,1.065,0.003,0.006,0.013,0.006,2025-05-24T19:11:41.543469
4090,-0.7159,0.4778,0.6071,26.040,-29.260,9.590,1.068,0.003,0.003,0.013,0.003,2025-05-24T19:11:41.543478
4091,-0.7047,0.4812,0.6163,27.020,-33.670,11.410,1.065,0.003,0.003,0.013,0.003,2025-05-24T19:11:41.543486
4092,-0.6861,0.4856,0.6242,29.470,-35.910,13.370,1.065,0.003,0.006,0.013,0.006,2025-05-24T19:11:41.543523
4093,-0.6554,0.4982,0.6305,32.620,-34.160,13.510,1.065,0.003,0.003,0.010,0.003,2025-05-24T19:11:41.543533
4094,-0.6490,0.5119,0.6393,36.610,-32.550,12.810,1.068,0.003,0.006,0.013,0.003,2025-05-24T19:11:41.747842
4095,-0.6588,0.5334,0.6368,38.920,-33.390,13.090,1.068,0.006,0.006,0.013,0.003,2025-05-24T19:11:41.747910
4096,-0.6666,0.5466,0.6383,42.420,-35.560,15.680,1.071,0.003,0.003,0.013,0.003,2025-05-24T19:11:41.747929
4097,-0.6490,0.5719,0.6359,45.990,-34.160,15.820,1.068,0.006,0.006,0.013,0.003,2025-05-24T19:11:41.747945
4098,-0.6490,0.5895,0.6271,47.530,-31.290,16.660,1.071,0.000,0.006,0.013,0.006,2025-05-24T19:11:41.747960
4099,-0.6461,0.5973,0.6237,48.160,-32.130,16.590,1.071,0.003,0.006,0.013,0.003,2025-05-24T19:11:41.747974
4100,-0.6710,0.6061,0.6037,49.000,-36.050,17.570,1.071,0.003,0.003,0.013,0.006,2025-05-24T19:11:41.747988
4101,-0.6544,0.6242,0.5866,50.750,-37.310,19.180,1.071,0.003,0.003,0.010,0.003,2025-05-24T19:11:41.748002
4102,-0.6173,0.6446,0.5641,49.840,-34.790,21.000,1.074,0.003,0.003,0.013,0.006,2025-05-24T19:11:41.748017
4103,-0.6407,0.6476,0.5490,50.050,-33.740,22.750,1.077,0.003,0.006,0.010,0.006,2025-05-24T19:11:41.748030
4104,-0.6642,0.6632,0.5241,49.980,-38.920,24.570,1.074,0.003,0.003,0.010,0.003,2025-05-24T19:11:41.748045
4105,-0.6505,0.6598,0.5041,50.470,-46.340,27.860,1.077,0.003,0.006,0.013,0.003,2025-05-24T19:11:41.748113
4106,-0.6456,0.6637,0.4773,47.180,-50.330,30.800,1.077,0.003,0.003,0.010,0.003,2025-05-24T19:11:41.748182
4107,-0.6066,0.6559,0.4675,46.060,-49.350,33.180,1.077,0.006,0.003,0.010,0.003,2025-05-24T19:11:41.748197
4108,-0.5671,0.6798,0.4392,43.890,-49.280,37.030,1.081,0.003,0.003,0.013,0.003,2025-05-24T19:11:41.748212
4109,-0.5407,0.6983,0.4197,40.670,-46.130,38.430,1.084,0.006,0.006,0.013,0.006,2025-05-24T19:11:41.953563
4110,-0.4982,0.7379,0.4036,39.900,-42.560,40.600,1.081,0.003,0.003,0.010,0.003,2025-05-24T19:11:41.953646
4111,-0.4724,0.7901,0.3938,36.610,-38.220,40.460,1.077,0.006,0.006,0.013,0.003,2025-05-24T19:11:41.953671
4112,-0.4592,0.8545,0.3963,31.080,-41.650,41.230,1.081,0.003,0.006,0.013,0.006,2025-05-24T19:11:41.953692
4113,-0.4270,0.9550,0.4002,22.610,-51.170,41.300,1.081,0.003,0.003,0.016,0.003,2025-05-24T19:11:41.953713
4114,-0.3582,1.0619,0.4163,10.850,-58.030,42.350,1.081,0.006,0.006,0.013,0.003,2025-05-24T19:11:41.953732
4115,-0.3055,1.1668,0.4568,-3.640,-59.010,43.680,1.081,0.003,0.006,0.016,0.003,2025-05-24T19:11:41.953750
4116,-0.2747,1.2776,0.4934,-16.870,-62.090,45.220,1.074,0.003,0.003,0.016,0.006,2025-05-24T19:11:41.953768
4117,-0.1986,1.3635,0.4958,-29.470,-70.070,47.110,1.074,0.003,0.003,0.019,0.006,2025-05-24T19:11:41.953788
4118,-0.1230,1.4284,0.4748,-44.870,-72.030,48.860,1.074,0.006,0.003,0.016,0.003,2025-05-24T19:11:41.953808
4119,-0.0654,1.4728,0.4538,-57.190,-73.360,51.240,1.068,0.003,0.003,0.013,0.003,2025-05-24T19:11:41.953825
4120,0.0176,1.5021,0.4143,-67.690,-71.260,51.660,1.065,0.003,0.003,0.019,0.006,2025-05-24T19:11:41.953842
4121,0.0639,1.5089,0.3636,-83.160,-67.550,49.840,1.058,0.006,0.006,0.019,0.003,2025-05-24T19:11:41.953858
4122,0.0693,1.5172,0.3196,-94.780,-68.180,51.380,1.058,0.003,0.003,0.016,0.006,2025-05-24T19:11:41.953924
4123,0.1127,1.5133,0.2601,-101.080,-74.830,49.560,1.055,0.006,0.003,0.016,0.003,2025-05-24T19:11:41.953943
4124,0.1249,1.5216,0.2133,-112.490,-86.240,42.560,1.048,0.003,0.006,0.016,0.003,2025-05-24T19:11:41.953963
4125,0.2001,1.5065,0.1518,-121.940,-109.270,26.460,1.042,0.006,0.006,0.019,0.003,2025-05-24T19:11:42.168973
4126,0.3138,1.4991,0.0634,-138.670,-143.150,7.420,1.039,0.006,0.003,0.019,0.003,2025-05-24T19:11:42.169016
4127,0.4865,1.5113,-0.0088,-164.710,-160.020,-12.110,1.032,0.006,0.003,0.023,0.006,2025-05-24T19:11:42.169027
4128,0.6451,1.4498,-0.0537,-198.520,-166.250,-33.180,1.032,0.006,0.003,0.019,0.003,2025-05-24T19:11:42.169038
4129,0.7066,1.3113,-0.0688,-235.550,-170.100,-58.240,1.019,0.003,0.006,0.019,0.003,2025-05-24T19:11:42.169047
4130,0.7940,1.1263,-0.0761,-258.860,-170.030,-90.440,1.010,0.003,0.003,0.019,0.000,2025-05-24T19:11:42.169057
4131,0.7930,0.9340,-0.0386,-278.600,-167.090,-130.620,1.003,0.006,0.003,0.023,0.003,2025-05-24T19:11:42.169066
4132,0.7027,0.6715,0.0551,-293.020,-168.280,-160.860,0.994,0.006,0.006,0.023,0.003,2025-05-24T19:11:42.169078
4133,0.6915,0.3094,0.0913,-293.580,-168.630,-190.610,0.984,0.006,0.003,0.019,0.003,2025-05-24T19:11:42.169087
4134,0.6554,-0.0376,0.1986,-277.620,-153.720,-208.600,0.981,0.000,0.003,0.016,0.006,2025-05-24T19:11:42.169096
4135,0.4885,-0.4138,0.3762,-248.430,-145.460,-224.840,0.984,0.003,0.000,0.019,0.006,2025-05-24T19:11:42.169105
4136,0.3079,-0.8672,0.4851,-215.180,-150.500,-236.110,0.987,0.003,0.006,0.013,0.006,2025-05-24T19:11:42.169114
4137,0.3518,-1.2288,0.5651,-188.580,-146.090,-247.240,0.994,0.003,0.006,0.019,0.006,2025-05-24T19:11:42.169146
4138,0.2952,-1.8280,0.6564,-170.310,-125.090,-258.650,1.006,0.003,0.000,0.013,0.006,2025-05-24T19:11:42.169156
4139,0.1996,-2.2463,0.7344,-168.210,-60.900,-277.340,1.010,0.006,0.006,0.006,0.003,2025-05-24T19:11:42.169173
4140,-0.2733,-2.5996,0.9057,-181.300,-21.350,-282.660,1.016,0.006,0.006,0.010,0.003,2025-05-24T19:11:42.169190
4141,-0.7515,-2.4668,1.0946,-187.740,35.980,-265.020,1.016,0.003,0.000,0.010,0.006,2025-05-24T19:11:42.220554
4142,-1.7534,-2.0862,1.3386,-177.030,73.990,-191.800,1.013,0.003,0.006,0.010,0.006,2025-05-24T19:11:42.220627
4143,-2.3380,-1.6553,1.7724,-136.710,40.670,-87.360,1.003,0.006,0.006,0.010,0.006,2025-05-24T19:11:42.220646
4144,-1.9744,-1.4786,2.0862,-81.060,-17.990,38.220,0.997,0.006,0.010,0.010,0.006,2025-05-24T19:11:42.220872
4145,-1.0204,-1.6265,2.0354,22.750,-30.800,104.160,1.000,0.006,0.006,0.019,0.003,2025-05-24T19:11:42.266866
4146,-0.3738,-1.6768,1.7275,158.620,10.220,137.620,0.997,0.003,0.000,0.010,0.003,2025-05-24T19:11:42.266922
4147,-0.1776,-1.5328,1.3952,225.890,52.990,156.940,1.006,0.006,0.000,0.013,0.006,2025-05-24T19:11:42.266938
4148,-0.1298,-1.4103,1.0760,246.190,95.340,173.460,1.006,0.006,0.000,0.013,0.006,2025-05-24T19:11:42.527727
4149,-0.0976,-1.2244,0.7657,244.090,147.630,184.100,1.010,0.003,0.006,0.013,0.006,2025-05-24T19:11:42.527787
4150,-0.1518,-1.0209,0.6368,235.690,218.330,206.710,1.013,0.000,0.006,0.016,0.006,2025-05-24T19:11:42.527805
4151,-0.2167,-0.8750,0.5563,224.770,261.590,223.160,1.016,0.003,0.006,0.010,0.006,2025-05-24T19:11:42.527820
4152,-0.2567,-0.6549,0.5651,215.320,280.280,234.290,1.016,0.006,0.000,0.006,0.003,2025-05-24T19:11:42.527833
4153,-0.2938,-0.4519,0.6315,202.580,268.030,238.980,1.019,0.006,0.006,0.016,0.006,2025-05-24T19:11:42.527846
4154,-0.3079,-0.2137,0.7149,183.260,237.580,236.390,1.023,0.006,0.006,0.010,0.006,2025-05-24T19:11:42.527860
4155,-0.3353,0.0273,0.7588,163.590,193.270,231.910,1.026,0.006,0.010,0.013,0.006,2025-05-24T19:11:42.527872
4156,-0.3353,0.1386,0.7871,140.140,133.770,227.780,1.029,0.003,0.000,0.010,0.003,2025-05-24T19:11:42.527887
4157,-0.2962,0.1884,0.7652,119.000,98.350,227.640,1.032,0.003,0.006,0.010,0.003,2025-05-24T19:11:42.527899
4158,-0.1649,0.2821,0.7666,107.170,92.610,219.520,1.029,0.003,0.010,0.006,0.003,2025-05-24T19:11:42.527912
4159,-0.0654,0.3421,0.7183,100.590,124.390,207.970,1.032,0.006,0.000,0.013,0.006,2025-05-24T19:11:42.527924
4160,-0.0854,0.4133,0.6822,104.440,150.850,200.340,1.035,0.003,0.000,0.006,0.003,2025-05-24T19:11:42.527940
4161,-0.1625,0.4558,0.6603,109.970,158.060,193.200,1.032,0.006,0.003,0.010,0.003,2025-05-24T19:11:42.528122
4162,-0.1893,0.5129,0.6066,117.180,145.530,181.300,1.035,0.006,0.000,0.006,0.003,2025-05-24T19:11:42.528136
4163,-0.1625,0.5768,0.5397,121.520,134.050,165.340,1.032,0.006,0.000,0.010,0.003,2025-05-24T19:11:42.732497
4164,-0.1235,0.6759,0.4397,119.910,124.600,148.820,1.032,0.003,0.003,0.010,0.003,2025-05-24T19:11:42.732518
4165,-0.0625,0.7706,0.3284,116.200,117.810,134.400,1.035,0.003,0.000,0.010,0.003,2025-05-24T19:11:42.732526
4166,-0.0498,0.8594,0.2801,107.030,106.470,127.610,1.035,0.003,0.003,0.010,0.003,2025-05-24T19:11:42.732577
4167,-0.1054,0.9052,0.3436,91.560,79.100,123.270,1.039,0.006,0.006,0.010,0.006,2025-05-24T19:11:42.732585
4168,-0.0917,0.9111,0.4060,71.190,27.230,112.140,1.039,0.003,0.006,0.010,0.006,2025-05-24T19:11:42.732592
4169,-0.0176,0.8945,0.4368,47.950,-6.090,92.890,1.042,0.006,0.003,0.013,0.006,2025-05-24T19:11:42.732598
4170,0.1044,0.8979,0.4514,35.420,-18.830,65.800,1.042,0.003,0.006,0.010,0.003,2025-05-24T19:11:42.732605
4171,0.1225,0.9008,0.4924,29.470,-18.340,49.980,1.042,0.006,0.006,0.010,0.003,2025-05-24T19:11:42.732611
4172,0.1288,0.9116,0.5056,30.170,-17.570,41.510,1.042,0.006,0.006,0.010,0.003,2025-05-24T19:11:42.732617
4173,0.1386,0.9296,0.4963,35.420,-11.830,28.490,1.042,0.000,0.006,0.010,0.003,2025-05-24T19:11:42.732623
4174,0.1518,0.9423,0.4631,42.700,0.980,21.070,1.042,0.003,0.006,0.010,0.006,2025-05-24T19:11:42.732631
4175,0.0937,0.9984,0.5280,45.290,7.420,15.050,1.045,0.003,0.003,0.010,0.006,2025-05-24T19:11:42.732637
4176,0.1000,1.0185,0.5510,37.240,3.150,6.020,1.045,0.006,0.003,0.010,0.003,2025-05-24T19:11:42.732642
4177,0.0449,1.0209,0.6090,25.970,-10.290,-0.910,1.042,0.006,0.003,0.010,0.003,2025-05-24T19:11:42.732648
4178,0.0468,0.9994,0.6046,17.710,-16.520,-6.440,1.048,0.006,0.003,0.010,0.003,2025-05-24T19:11:42.732654
4179,0.0468,0.9848,0.6168,22.330,-23.310,-14.980,1.045,0.003,0.006,0.013,0.006,2025-05-24T19:11:42.732669
4180,0.0366,0.9750,0.5876,29.190,-24.150,-21.140,1.048,0.006,0.006,0.010,0.003,2025-05-24T19:11:42.732675
4181,0.0166,0.9931,0.5417,38.080,-23.170,-24.150,1.048,0.003,0.006,0.013,0.006,2025-05-24T19:11:42.732681
4182,-0.0376,1.0116,0.5095,43.120,-21.280,-25.760,1.055,0.003,0.006,0.013,0.003,2025-05-24T19:11:42.732687
4183,-0.0722,1.0355,0.5065,39.620,-23.170,-26.740,1.052,0.003,0.006,0.013,0.006,2025-05-24T19:11:42.976296
4184,-0.1425,1.0531,0.5036,29.050,-30.100,-28.070,1.052,0.000,0.006,0.013,0.003,2025-05-24T19:11:42.976364
4185,-0.1464,1.0541,0.5153,21.420,-42.420,-30.800,1.055,0.006,0.006,0.013,0.006,2025-05-24T19:11:42.976385
4186,-0.1479,1.0253,0.5026,15.400,-49.980,-31.850,1.055,0.003,0.003,0.010,0.006,2025-05-24T19:11:42.976407
4187,-0.1444,1.0204,0.4782,16.800,-49.280,-31.640,1.058,0.003,0.010,0.010,0.006,2025-05-24T19:11:42.976424
4188,-0.1615,0.9975,0.4538,22.260,-44.240,-27.440,1.058,0.003,0.003,0.013,0.006,2025-05-24T19:11:42.976438
4189,-0.1708,0.9989,0.4236,27.580,-35.490,-24.150,1.058,0.003,0.003,0.010,0.006,2025-05-24T19:11:42.976452
4190,-0.1806,0.9858,0.3938,29.750,-28.980,-21.070,1.058,0.003,0.003,0.013,0.003,2025-05-24T19:11:42.976466
4191,-0.2084,0.9706,0.3611,29.610,-28.770,-17.290,1.058,0.006,0.006,0.010,0.003,2025-05-24T19:11:42.976480
4192,-0.2157,0.9501,0.3294,28.700,-35.140,-15.400,1.061,0.006,0.006,0.010,0.003,2025-05-24T19:11:42.976494
4193,-0.2084,0.9389,0.2923,26.040,-38.430,-15.260,1.061,0.003,0.003,0.006,0.003,2025-05-24T19:11:42.976506
4194,-0.2035,0.9262,0.2723,22.190,-39.900,-13.580,1.065,0.000,0.003,0.010,0.003,2025-05-24T19:11:42.976525
4195,-0.1967,0.9209,0.2664,17.360,-35.280,-12.740,1.065,0.003,0.003,0.010,0.003,2025-05-24T19:11:42.976594
4196,-0.2006,0.9091,0.2747,10.990,-29.750,-12.320,1.061,0.003,0.006,0.013,0.003,2025-05-24T19:11:42.976611
4197,-0.2269,0.9004,0.2889,6.300,-26.110,-10.640,1.065,0.006,0.003,0.010,0.003,2025-05-24T19:11:42.976627
4198,-0.2323,0.8965,0.3070,3.010,-24.360,-8.750,1.065,0.003,0.006,0.010,0.006,2025-05-24T19:11:42.976642
4199,-0.2430,0.8935,0.3279,0.490,-23.240,-8.400,1.065,0.003,0.006,0.006,0.003,2025-05-24T19:11:42.976657
4200,-0.2259,0.8774,0.3426,1.120,-21.910,-7.070,1.061,0.006,0.003,0.010,0.003,2025-05-24T19:11:43.029661
4201,-0.2137,0.8813,0.3592,0.700,-19.180,-5.740,1.065,0.006,0.006,0.010,0.003,2025-05-24T19:11:43.029744
4202,-0.2084,0.8833,0.3699,-0.630,-16.870,-5.810,1.065,0.006,0.006,0.010,0.003,2025-05-24T19:11:43.029775
4203,-0.2074,0.8808,0.3841,-0.420,-15.890,-6.720,1.065,0.006,0.006,0.010,0.006,2025-05-24T19:11:43.029800
4204,-0.1996,0.8789,0.3865,-0.210,-15.120,-7.350,1.065,0.003,0.003,0.010,0.003,2025-05-24T19:11:43.029820
4205,-0.1957,0.8740,0.3948,-0.630,-13.510,-8.540,1.065,0.006,0.006,0.010,0.006,2025-05-24T19:11:43.029838
4206,-0.2054,0.8711,0.3924,-0.770,-13.230,-9.520,1.065,0.006,0.006,0.010,0.003,2025-05-24T19:11:43.182085
4207,-0.2167,0.8608,0.4002,-1.190,-13.930,-11.130,1.065,0.003,0.006,0.006,0.003,2025-05-24T19:11:43.182149
4208,-0.2284,0.8569,0.4104,-0.490,-14.980,-11.060,1.065,0.006,0.006,0.010,0.003,2025-05-24T19:11:43.182168
4209,-0.2386,0.8452,0.4133,0.280,-14.070,-12.110,1.065,0.003,0.003,0.010,0.006,2025-05-24T19:11:43.182184
4210,-0.2435,0.8530,0.4202,0.350,-13.020,-12.810,1.065,0.006,0.006,0.006,0.006,2025-05-24T19:11:43.182199
4211,-0.2577,0.8530,0.4231,-1.190,-10.990,-12.390,1.065,0.006,0.003,0.010,0.003,2025-05-24T19:11:43.182213
