SeqNum,AccX,AccY,AccZ,GyroX,GyroY,GyroZ,Flex,Force1,Force2,Force3,Force4,TimestampReception
10302,0.0000,0.0000,0.0000,0.000,0.000,0.000,465,424,219,361,276,2025-05-23T23:44:30.045286
10303,-0.8364,-0.1645,0.5910,34.580,7.140,-29.400,491,441,247,313,290,2025-05-23T23:44:30.045402
10304,-0.8369,-0.1708,0.5958,30.380,2.870,-28.490,438,419,303,284,332,2025-05-23T23:44:30.045425
10305,-0.8247,-0.1703,0.5915,26.040,0.070,-27.230,355,421,313,333,323,2025-05-23T23:44:30.045441
10306,-0.8208,-0.1703,0.5944,22.750,-1.400,-26.040,404,429,319,335,336,2025-05-23T23:44:30.162557
10307,-0.8198,-0.1742,0.5988,20.720,-2.590,-24.290,399,349,330,349,338,2025-05-23T23:44:30.162604
10308,-0.8150,-0.1732,0.6007,19.110,-2.870,-21.980,396,372,335,341,341,2025-05-23T23:44:30.162616
10309,-0.8164,-0.1703,0.6051,17.570,-2.520,-21.210,414,396,327,338,343,2025-05-23T23:44:30.162626
10310,-0.8179,-0.1620,0.6134,15.610,-3.150,-20.440,397,399,320,335,343,2025-05-23T23:44:30.162636
10311,-0.8184,-0.1542,0.6173,12.880,-3.850,-19.810,421,406,296,341,324,2025-05-23T23:44:30.162647
10312,-0.8106,-0.1537,0.6168,9.800,-4.900,-18.970,418,426,306,344,334,2025-05-23T23:44:30.162678
10313,-0.7984,-0.1581,0.6134,7.420,-5.320,-17.780,416,411,316,344,333,2025-05-23T23:44:30.162687
10314,-0.8008,-0.1596,0.6149,6.860,-4.970,-15.890,390,358,319,316,297,2025-05-23T23:44:30.162697
10315,-0.7871,-0.1542,0.6129,6.720,-3.920,-14.350,407,413,325,330,317,2025-05-23T23:44:30.162706
10316,-0.7828,-0.1518,0.6110,5.810,-2.590,-12.390,396,405,280,319,309,2025-05-23T23:44:30.162715
10317,-0.7871,-0.1493,0.6163,4.060,-1.820,-11.340,389,389,297,323,275,2025-05-23T23:44:30.162723
10318,-0.7818,-0.1493,0.6183,2.660,-2.240,-10.010,407,421,311,331,306,2025-05-23T23:44:30.162869
10319,-0.7706,-0.1474,0.6139,1.610,-2.310,-8.540,396,368,328,349,327,2025-05-23T23:44:30.368063
10320,-0.7598,-0.1484,0.6149,0.840,-0.840,-7.840,395,416,285,340,341,2025-05-23T23:44:30.368090
10321,-0.7486,-0.1537,0.6110,0.070,1.400,-7.350,417,397,318,354,341,2025-05-23T23:44:30.368096
10322,-0.7442,-0.1571,0.6085,-0.910,4.900,-6.650,419,423,322,361,345,2025-05-23T23:44:30.368102
10323,-0.7559,-0.1649,0.6105,-2.030,9.940,-6.230,417,412,334,337,330,2025-05-23T23:44:30.368106
10324,-0.7837,-0.1767,0.6110,-2.310,12.740,-5.320,421,415,329,331,345,2025-05-23T23:44:30.368111
10325,-0.8008,-0.1864,0.6085,-1.820,13.790,-3.010,395,415,329,340,305,2025-05-23T23:44:30.368116
10326,-0.8301,-0.1908,0.6076,-1.120,11.410,-1.120,385,420,298,337,320,2025-05-23T23:44:30.368131
10327,-0.8413,-0.1884,0.6076,0.560,6.650,0.700,418,360,275,337,325,2025-05-23T23:44:30.368135
10328,-0.8355,-0.1825,0.6041,0.700,-0.350,1.610,396,355,298,324,334,2025-05-23T23:44:30.368144
10329,-0.8184,-0.1820,0.6066,-0.630,-5.740,1.750,300,397,302,345,317,2025-05-23T23:44:30.368149
10330,-0.8125,-0.1952,0.6071,-1.890,-9.520,0.980,312,381,307,343,315,2025-05-23T23:44:30.368154
10331,-0.8125,-0.2103,0.6061,-2.030,-10.010,0.700,393,419,314,345,317,2025-05-23T23:44:30.368158
10332,-0.7998,-0.2191,0.5978,-1.120,-7.350,1.120,387,419,308,337,319,2025-05-23T23:44:30.368162
10333,-0.7857,-0.2240,0.5924,-0.420,0.070,1.120,418,426,327,341,321,2025-05-23T23:44:30.368189
10334,-0.7896,-0.2357,0.5910,-0.420,9.450,1.610,409,425,326,334,332,2025-05-23T23:44:30.368195
10335,-0.8042,-0.2381,0.5954,-0.700,17.220,2.240,421,397,313,342,323,2025-05-23T23:44:30.368200
10336,-0.8076,-0.2386,0.5905,-0.560,22.260,2.590,389,416,311,286,323,2025-05-23T23:44:30.593345
10337,-0.8135,-0.2362,0.5861,-1.330,24.150,2.590,387,414,316,340,344,2025-05-23T23:44:30.593383
10338,-0.8154,-0.2362,0.5807,-1.680,22.960,2.660,349,399,316,330,344,2025-05-23T23:44:30.593389
10339,-0.8301,-0.2391,0.5788,-0.840,17.010,2.240,399,402,320,302,327,2025-05-23T23:44:30.593396
10340,-0.8325,-0.2445,0.5827,0.490,9.940,2.590,339,400,333,329,337,2025-05-23T23:44:30.593402
10341,-0.8203,-0.2420,0.5793,1.890,2.450,2.520,388,366,315,335,337,2025-05-23T23:44:30.593407
10342,-0.8023,-0.2357,0.5832,3.500,-0.630,1.470,404,389,213,316,337,2025-05-23T23:44:30.593411
10343,-0.7906,-0.2362,0.5768,4.200,-0.420,0.910,393,411,198,340,338,2025-05-23T23:44:30.593418
10344,-0.7847,-0.2377,0.5783,4.130,3.220,0.560,408,388,106,322,326,2025-05-23T23:44:30.593422
10345,-0.7950,-0.2303,0.5788,3.920,7.490,0.560,406,422,103,306,327,2025-05-23T23:44:30.593427
10346,-0.8257,-0.2303,0.5832,3.010,11.550,1.050,411,403,101,329,324,2025-05-23T23:44:30.593430
10347,-0.8433,-0.2240,0.5856,1.260,13.650,2.800,407,413,95,277,323,2025-05-23T23:44:30.593436
10348,-0.8477,-0.2176,0.5832,-0.770,14.560,4.970,402,432,88,322,334,2025-05-23T23:44:30.593440
10349,-0.8433,-0.2079,0.5807,-2.170,15.470,7.700,344,399,94,332,282,2025-05-23T23:44:30.593444
10350,-0.8413,-0.1957,0.5714,-2.030,15.540,9.940,416,422,98,285,319,2025-05-23T23:44:30.593465
10351,-0.8413,-0.1869,0.5680,-1.330,14.700,10.710,418,376,97,317,309,2025-05-23T23:44:30.593470
10352,-0.8477,-0.1718,0.5646,-1.330,13.230,9.940,410,416,87,329,330,2025-05-23T23:44:30.593474
10353,-0.8447,-0.1557,0.5583,-2.100,12.180,10.920,414,388,125,288,284,2025-05-23T23:44:30.593477
10354,-0.8550,-0.1435,0.5475,-3.500,12.180,12.880,434,393,130,319,323,2025-05-23T23:44:30.593483
10355,-0.8735,-0.1337,0.5490,-5.320,13.370,16.380,429,409,133,338,295,2025-05-23T23:44:30.861045
10356,-0.8794,-0.1254,0.5500,-7.280,15.960,19.880,432,367,137,344,298,2025-05-23T23:44:30.861096
10357,-0.8916,-0.1181,0.5529,-9.450,17.500,22.330,411,412,128,347,326,2025-05-23T23:44:30.861109
10358,-0.8901,-0.1137,0.5466,-10.780,18.060,24.850,403,406,136,312,326,2025-05-23T23:44:30.861120
10359,-0.8857,-0.1054,0.5475,-11.410,18.130,27.020,406,406,108,298,336,2025-05-23T23:44:30.861133
10360,-0.8828,-0.1025,0.5441,-11.410,17.990,30.520,397,399,102,333,282,2025-05-23T23:44:30.861145
10361,-0.8760,-0.0893,0.5500,-11.900,18.830,33.110,422,417,99,319,266,2025-05-23T23:44:30.861155
10362,-0.8657,-0.0766,0.5534,-13.930,20.300,35.420,423,412,101,318,264,2025-05-23T23:44:30.861183
10363,-0.8721,-0.0698,0.5475,-16.520,22.610,39.340,407,389,99,334,282,2025-05-23T23:44:30.861197
10364,-0.8916,-0.0732,0.5456,-19.040,25.830,43.820,390,373,96,320,317,2025-05-23T23:44:30.861207
10365,-0.9018,-0.0717,0.5466,-19.390,28.700,46.550,404,379,98,346,316,2025-05-23T23:44:30.861217
10366,-0.8999,-0.0688,0.5456,-18.830,31.430,49.140,410,327,97,347,323,2025-05-23T23:44:30.861229
10367,-0.9209,-0.0752,0.5412,-17.780,32.480,52.850,424,337,101,321,330,2025-05-23T23:44:30.861241
10368,-0.9145,-0.0634,0.5441,-16.730,32.340,56.840,426,377,97,272,274,2025-05-23T23:44:30.861251
10369,-0.9082,-0.0459,0.5397,-17.780,34.510,60.690,420,358,89,283,301,2025-05-23T23:44:30.861303
10370,-0.9174,-0.0439,0.5319,-21.070,39.130,64.330,427,371,128,325,313,2025-05-23T23:44:30.861312
10371,-0.9438,-0.0542,0.5241,-23.590,40.950,66.150,398,383,136,348,341,2025-05-23T23:44:30.861321
10372,-0.9389,-0.0571,0.5114,-22.470,39.900,69.090,389,409,141,348,343,2025-05-23T23:44:31.063712
10373,-0.9189,-0.0493,0.4900,-20.230,42.140,75.040,387,409,144,290,296,2025-05-23T23:44:31.063756
10374,-0.9248,-0.0439,0.4792,-18.830,45.710,79.170,357,391,144,246,319,2025-05-23T23:44:31.063768
10375,-0.9267,-0.0346,0.4641,-16.380,46.970,80.290,386,366,128,276,288,2025-05-23T23:44:31.063778
10376,-0.9218,-0.0122,0.4514,-14.770,50.260,79.310,392,356,142,330,331,2025-05-23T23:44:31.063802
10377,-0.9321,0.0029,0.4412,-13.790,53.410,77.770,383,385,132,351,340,2025-05-23T23:44:31.063812
10378,-0.9516,0.0224,0.4324,-13.230,52.220,77.210,297,371,99,336,329,2025-05-23T23:44:31.063821
10379,-0.9775,0.0371,0.4241,-14.210,48.580,76.160,385,386,105,329,329,2025-05-23T23:44:31.063835
10380,-1.0092,0.0449,0.4104,-15.890,42.560,74.200,382,343,102,327,334,2025-05-23T23:44:31.063844
10381,-1.0175,0.0551,0.3967,-17.080,36.330,72.870,373,361,101,335,308,2025-05-23T23:44:31.063853
10382,-0.9931,0.0600,0.3811,-16.870,34.300,74.130,351,386,97,312,328,2025-05-23T23:44:31.063861
10383,-0.9819,0.0761,0.3655,-16.170,35.910,77.980,407,385,92,297,279,2025-05-23T23:44:31.063873
10384,-0.9950,0.0830,0.3567,-14.700,40.670,80.640,393,319,94,332,327,2025-05-23T23:44:31.063887
10385,-1.0053,0.0991,0.3460,-13.510,45.640,79.800,387,381,94,323,309,2025-05-23T23:44:31.063895
10386,-0.9941,0.1279,0.3299,-12.740,51.520,80.500,387,388,91,329,317,2025-05-23T23:44:31.063933
10387,-1.0014,0.1571,0.3152,-13.020,57.540,81.900,411,321,121,342,321,2025-05-23T23:44:31.065069
10388,-1.0248,0.1830,0.3001,-14.070,59.640,81.620,404,347,130,350,283,2025-05-23T23:44:31.065106
10389,-1.0458,0.2011,0.2767,-15.120,57.750,80.990,416,347,138,350,334,2025-05-23T23:44:31.241923
10390,-1.0634,0.2176,0.2582,-14.840,55.370,84.350,423,362,130,346,335,2025-05-23T23:44:31.241968
10391,-1.0824,0.2357,0.2303,-14.280,53.480,88.550,419,364,135,345,323,2025-05-23T23:44:31.241979
10392,-1.0385,0.2552,0.2079,-13.860,58.100,93.590,416,374,139,340,326,2025-05-23T23:44:31.241989
10393,-1.0219,0.2689,0.1698,-14.280,68.110,98.490,425,374,141,341,332,2025-05-23T23:44:31.241998
10394,-1.0477,0.2879,0.1493,-14.770,78.050,102.130,399,369,139,303,325,2025-05-23T23:44:31.242007
10395,-1.0443,0.3148,0.1269,-15.820,84.140,105.770,408,315,128,323,325,2025-05-23T23:44:31.242019
10396,-1.0658,0.3421,0.1000,-19.250,85.400,108.500,389,363,129,338,285,2025-05-23T23:44:31.242028
10397,-1.0531,0.3572,0.0630,-24.010,82.950,111.860,414,333,136,344,332,2025-05-23T23:44:31.242052
10398,-1.0248,0.3748,0.0312,-27.020,79.520,114.240,428,377,138,351,336,2025-05-23T23:44:31.242061
10399,-0.9960,0.4006,-0.0039,-28.210,80.990,118.580,308,363,110,347,281,2025-05-23T23:44:31.242069
10400,-0.9653,0.4314,-0.0381,-27.930,88.830,122.640,400,300,97,321,305,2025-05-23T23:44:31.242078
10401,-0.9335,0.4587,-0.0820,-27.650,100.310,124.600,407,345,98,339,326,2025-05-23T23:44:31.242086
10402,-0.9038,0.4909,-0.1171,-29.050,112.700,127.050,402,349,95,331,327,2025-05-23T23:44:31.242094
10403,-0.9282,0.5192,-0.1362,-33.810,119.630,128.030,392,315,96,338,320,2025-05-23T23:44:31.242131
10404,-0.9457,0.5490,-0.1513,-40.110,121.450,128.380,427,364,122,346,318,2025-05-23T23:44:31.242144
10405,-0.9448,0.5651,-0.1786,-49.490,119.000,128.240,429,362,127,331,281,2025-05-23T23:44:31.242152
10406,-0.9126,0.5661,-0.2157,-58.100,115.920,126.210,365,353,135,319,332,2025-05-23T23:44:31.242160
10407,-0.8804,0.5656,-0.2377,-63.210,110.460,124.530,340,365,205,363,353,2025-05-23T23:44:31.396191
10408,-0.8369,0.5876,-0.2513,-63.420,106.330,124.180,389,366,146,344,332,2025-05-23T23:44:31.396237
10409,-0.7935,0.6110,-0.2616,-62.720,104.580,124.040,371,363,141,324,299,2025-05-23T23:44:31.396250
10410,-0.7681,0.6354,-0.2723,-62.650,104.160,121.590,398,343,141,337,330,2025-05-23T23:44:31.396261
10411,-0.7335,0.6642,-0.2874,-63.770,104.650,115.570,414,367,140,328,306,2025-05-23T23:44:31.396290
10412,-0.7013,0.6827,-0.3001,-65.450,107.450,109.900,415,362,134,294,337,2025-05-23T23:44:31.396301
10413,-0.7232,0.6856,-0.3050,-66.780,107.450,105.630,398,381,137,339,319,2025-05-23T23:44:31.396311
10414,-0.7369,0.6939,-0.2928,-70.210,101.430,101.430,414,349,109,287,325,2025-05-23T23:44:31.396321
10415,-0.6827,0.7037,-0.2899,-75.180,97.440,95.830,395,360,99,324,301,2025-05-23T23:44:31.396331
10416,-0.6066,0.7105,-0.3016,-81.690,104.300,89.950,339,335,98,345,318,2025-05-23T23:44:31.396341
10417,-0.6037,0.7066,-0.3104,-82.880,114.730,85.890,400,360,96,326,278,2025-05-23T23:44:31.396350
10418,-0.6271,0.7178,-0.3006,-80.010,119.070,83.160,406,359,88,334,316,2025-05-23T23:44:31.396362
10419,-0.6529,0.7232,-0.2708,-77.490,114.800,79.310,368,365,95,316,327,2025-05-23T23:44:31.396370
10420,-0.6393,0.7315,-0.2338,-79.240,100.800,76.510,393,338,88,336,338,2025-05-23T23:44:31.396380
10421,-0.6198,0.7393,-0.2074,-83.090,84.070,71.890,346,352,126,250,319,2025-05-23T23:44:31.445939
10422,-0.5851,0.7344,-0.1893,-83.720,70.630,66.150,406,345,129,311,328,2025-05-23T23:44:31.445986
10423,-0.5505,0.7457,-0.1674,-80.920,61.600,62.090,357,363,131,345,319,2025-05-23T23:44:31.445998
10424,-0.5226,0.7476,-0.1313,-79.310,56.770,57.470,391,365,133,345,338,2025-05-23T23:44:31.446008
10425,-0.5134,0.7403,-0.1020,-76.930,50.400,54.250,428,365,137,352,292,2025-05-23T23:44:31.493363
10426,-0.4914,0.7476,-0.0747,-73.360,44.590,51.450,433,371,136,290,315,2025-05-23T23:44:31.493408
10427,-0.4958,0.7315,-0.0547,-69.440,39.270,47.600,398,347,140,328,333,2025-05-23T23:44:31.493420
10428,-0.5070,0.7408,-0.0264,-63.350,31.010,44.870,392,332,140,342,329,2025-05-23T23:44:31.493430
10429,-0.5012,0.7520,-0.0112,-59.780,20.930,42.420,422,370,135,322,288,2025-05-23T23:44:31.613823
10430,-0.4817,0.7579,-0.0020,-57.890,12.250,40.110,433,360,132,299,331,2025-05-23T23:44:31.613867
10431,-0.4558,0.7730,0.0063,-55.440,4.410,39.410,421,338,139,334,301,2025-05-23T23:44:31.613880
10432,-0.4338,0.7798,0.0107,-50.680,-0.840,37.170,424,345,138,294,319,2025-05-23T23:44:31.613911
10433,-0.4031,0.7954,0.0122,-45.080,-4.620,35.910,419,375,142,336,307,2025-05-23T23:44:31.793762
10434,-0.3943,0.8008,0.0093,-38.780,-6.510,35.420,393,290,145,288,340,2025-05-23T23:44:31.793815
10435,-0.4075,0.8101,0.0117,-32.550,-10.640,36.260,394,371,143,321,322,2025-05-23T23:44:31.793833
10436,-0.4006,0.8330,0.0132,-28.560,-15.890,36.470,398,297,143,345,342,2025-05-23T23:44:31.793946
10437,-0.3924,0.8423,0.0015,-27.090,-20.440,33.670,413,352,145,330,344,2025-05-23T23:44:31.793968
10438,-0.3611,0.8564,-0.0010,-26.740,-24.500,31.920,401,346,143,351,326,2025-05-23T23:44:31.793980
10439,-0.3406,0.8594,-0.0020,-26.460,-27.230,29.610,387,365,143,351,336,2025-05-23T23:44:31.794006
10440,-0.3196,0.8540,0.0020,-24.150,-30.380,26.880,293,292,138,338,343,2025-05-23T23:44:31.794017
10441,-0.2991,0.8667,0.0137,-18.970,-32.550,23.310,391,356,134,343,343,2025-05-23T23:44:31.794026
10442,-0.2830,0.8730,0.0249,-15.120,-34.160,19.740,391,350,142,344,341,2025-05-23T23:44:31.794035
10443,-0.2821,0.8735,0.0195,-12.740,-35.420,17.920,398,346,142,311,337,2025-05-23T23:44:31.794044
10444,-0.3094,0.8623,0.0132,-11.760,-35.980,16.170,396,355,108,323,321,2025-05-23T23:44:31.794053
10445,-0.3079,0.8638,0.0132,-12.460,-34.720,13.230,401,359,101,332,280,2025-05-23T23:44:31.794061
10446,-0.3201,0.8667,0.0151,-14.280,-32.480,10.640,395,333,102,340,324,2025-05-23T23:44:31.794070
10447,-0.3562,0.8540,0.0293,-15.330,-32.900,8.610,419,346,99,308,329,2025-05-23T23:44:31.794154
10448,-0.3782,0.8496,0.0420,-14.840,-36.120,8.750,414,365,91,277,274,2025-05-23T23:44:31.794171
10449,-0.3743,0.8516,0.0542,-13.300,-39.690,8.890,423,353,90,274,309,2025-05-23T23:44:31.794181
10450,-0.3670,0.8750,0.0703,-11.200,-40.040,10.780,413,342,97,325,311,2025-05-23T23:44:31.794190
10451,-0.3675,0.9165,0.0942,-8.960,-38.010,11.620,386,352,94,324,326,2025-05-23T23:44:31.794200
10452,-0.3821,0.9487,0.1142,-6.020,-36.820,9.520,389,358,97,321,315,2025-05-23T23:44:31.794210
10453,-0.3977,0.9594,0.1498,-3.220,-37.590,8.330,409,357,95,319,327,2025-05-23T23:44:32.026634
10454,-0.4431,0.9335,0.1654,0.140,-36.890,4.900,416,357,135,326,327,2025-05-23T23:44:32.026701
10455,-0.4089,0.9209,0.1972,1.890,-34.300,5.670,399,367,122,333,339,2025-05-23T23:44:32.026715
10456,-0.4070,0.8891,0.2460,0.140,-27.370,5.460,424,372,131,339,342,2025-05-23T23:44:32.026728
10457,-0.4485,0.8852,0.2855,-3.150,-21.910,0.630,431,348,135,337,333,2025-05-23T23:44:32.026738
10458,-0.4699,0.8813,0.3333,-5.460,-23.730,1.470,417,370,137,333,282,2025-05-23T23:44:32.026749
10459,-0.5558,0.8911,0.4114,-6.510,-40.320,2.660,415,363,99,336,287,2025-05-23T23:44:32.026759
10460,-0.5251,0.9282,0.4909,-5.740,-63.420,1.750,416,361,99,300,277,2025-05-23T23:44:32.026770
10461,-0.4968,0.9516,0.5754,-5.040,-95.200,-2.520,401,363,90,335,304,2025-05-23T23:44:32.026784
10462,-0.4377,0.9736,0.6466,-0.910,-122.360,-13.790,426,370,90,326,294,2025-05-23T23:44:32.026794
10463,-0.3499,0.9740,0.6983,8.750,-143.360,-28.490,399,281,89,304,270,2025-05-23T23:44:32.026804
10464,-0.3250,1.0712,0.8213,35.000,-167.860,-45.290,414,281,97,338,317,2025-05-23T23:44:32.026817
10465,-0.2113,1.2024,0.9233,13.720,-196.560,-63.350,342,364,94,328,282,2025-05-23T23:44:32.026827
10466,-0.0742,1.4064,0.9521,4.130,-229.880,-77.770,392,364,93,337,303,2025-05-23T23:44:32.026836
10467,0.0839,1.7997,1.0843,-12.390,-283.290,-85.470,379,346,92,307,314,2025-05-23T23:44:32.026880
10468,0.4265,2.1628,1.2517,-38.990,-363.370,-88.900,342,342,96,277,332,2025-05-23T23:44:32.026895
10469,0.8867,2.5259,1.2742,-80.360,-464.380,-100.590,399,360,93,330,317,2025-05-23T23:44:32.026905
10470,1.4835,2.7191,1.1771,-115.570,-561.260,-124.810,418,339,94,345,332,2025-05-23T23:44:32.027093
10471,1.9598,2.7362,0.8769,-141.260,-632.730,-160.930,378,244,95,327,333,2025-05-23T23:44:32.027104
10472,2.3863,2.7499,0.5144,-165.270,-645.400,-193.270,392,347,128,296,290,2025-05-23T23:44:32.027114
10473,2.5108,2.6562,0.1684,-188.020,-626.640,-208.320,376,348,132,347,333,2025-05-23T23:44:32.077535
10474,2.5176,2.4644,-0.1454,-225.470,-573.510,-219.240,421,372,139,340,296,2025-05-23T23:44:32.077582
10475,2.3531,1.9159,-0.3333,-251.790,-540.820,-232.260,354,363,131,352,282,2025-05-23T23:44:32.077597
10476,2.5278,1.3269,-0.4836,-262.360,-517.160,-277.620,408,366,141,339,310,2025-05-23T23:44:32.077606
10477,2.7982,0.6417,-0.4075,-275.660,-459.970,-333.620,398,367,137,338,287,2025-05-23T23:44:32.124214
10478,2.4610,-0.3884,-0.2220,-297.780,-354.200,-399.980,408,369,143,350,319,2025-05-23T23:44:32.124281
10479,1.5260,-1.4967,0.0020,-298.410,-320.950,-457.940,411,361,150,343,305,2025-05-23T23:44:32.124295
10480,0.8706,-2.5688,0.3011,-314.720,-329.000,-505.890,417,360,165,331,298,2025-05-23T23:44:32.124306
10481,0.3762,-4.0299,0.8384,-414.190,-363.650,-551.250,422,341,181,294,300,2025-05-23T23:44:32.205232
10482,-0.2079,-6.3128,1.3122,-519.890,-373.730,-609.070,367,281,188,329,302,2025-05-23T23:44:32.205277
10483,-0.6578,-7.0243,2.2419,-534.520,-335.720,-606.550,390,284,233,287,311,2025-05-23T23:44:32.205289
10484,-0.8233,-5.6554,2.4864,-422.100,-174.860,-552.720,419,355,250,332,329,2025-05-23T23:44:32.205297
10485,-1.4684,-4.1665,1.8402,-212.870,183.330,-428.260,394,353,261,341,329,2025-05-23T23:44:32.311789
10486,0.0000,0.0000,0.0000,0.000,0.000,0.000,427,357,285,345,313,2025-05-23T23:44:32.311852
10487,0.0000,0.0000,0.0000,0.000,0.000,0.000,403,338,278,310,301,2025-05-23T23:44:32.311868
10488,0.0000,0.0000,0.0000,0.000,0.000,0.000,416,294,288,347,262,2025-05-23T23:44:32.311878
10489,0.0000,0.0000,0.0000,0.000,461.790,336.280,404,334,288,262,221,2025-05-23T23:44:32.311887
10490,0.0000,0.0000,0.0000,0.000,0.000,0.000,401,361,294,343,298,2025-05-23T23:44:32.311898
10491,0.0000,0.0000,0.0000,0.000,0.000,0.000,420,323,298,307,321,2025-05-23T23:44:32.311911
10492,0.0146,-2.1169,0.8608,21.630,74.480,334.110,418,371,278,303,315,2025-05-23T23:44:32.311921
10493,0.6676,-1.9086,0.5963,110.950,81.060,344.540,417,367,278,293,318,2025-05-23T23:44:32.311931
10494,0.0000,0.0000,0.0000,0.000,0.000,0.000,412,305,292,310,328,2025-05-23T23:44:32.311943
10495,0.6627,-1.0819,0.6690,186.410,249.130,304.570,369,358,297,357,303,2025-05-23T23:44:32.311953
10496,0.2235,-0.6934,0.7569,133.910,342.650,275.730,403,365,292,264,314,2025-05-23T23:44:32.312062
10497,-0.2542,-0.5173,0.8847,74.900,368.970,269.920,414,343,281,328,334,2025-05-23T23:44:32.312072
10498,-0.6417,-0.5710,0.9238,44.730,372.540,279.650,425,364,295,340,300,2025-05-23T23:44:32.415657
10499,-0.7296,-0.5680,0.8891,37.870,365.540,294.350,428,295,248,340,325,2025-05-23T23:44:32.415705
10500,-0.6002,-0.3245,0.7954,39.130,384.090,300.790,416,374,192,347,309,2025-05-23T23:44:32.415717
10501,-0.4221,-0.0127,0.5802,36.750,436.240,308.420,345,344,228,339,299,2025-05-23T23:44:32.415733
10502,-0.3743,0.3640,0.4065,31.640,500.360,313.950,375,347,254,359,305,2025-05-23T23:44:32.437826
10503,-0.5168,0.6110,0.2923,20.160,528.780,315.630,390,374,249,298,319,2025-05-23T23:44:32.460646
10504,-0.7169,0.7037,0.2157,8.750,505.190,303.030,407,356,256,344,316,2025-05-23T23:44:32.475225
10505,-0.8179,0.7803,0.2098,-1.820,457.660,293.580,390,312,245,355,258,2025-05-23T23:44:32.490341
10506,-0.8013,0.9789,0.1742,-5.040,392.980,286.440,366,329,233,293,242,2025-05-23T23:44:32.501379
10507,-0.6529,1.1961,0.0742,0.350,348.810,277.970,415,348,248,342,264,2025-05-23T23:44:32.621282
10508,-0.5832,1.4435,0.1244,8.610,307.300,258.790,420,331,256,317,304,2025-05-23T23:44:32.638327
10509,-0.5207,1.5665,0.1664,-5.530,254.100,238.490,423,360,248,342,318,2025-05-23T23:44:32.656570
10510,-0.5178,1.5030,0.2904,-20.790,202.790,217.070,351,359,263,339,265,2025-05-23T23:44:32.677112
10511,-0.5368,1.4503,0.4597,-40.810,134.260,199.780,398,345,294,356,297,2025-05-23T23:44:32.690554
10512,-0.3880,1.4294,0.5983,-58.240,70.910,190.400,393,350,253,294,302,2025-05-23T23:44:32.700578
10513,-0.2284,1.3693,0.7135,-65.660,43.050,180.530,418,341,277,320,290,2025-05-23T23:44:32.711274
10514,0.0361,1.4245,0.7340,-61.320,41.160,172.550,403,351,274,329,282,2025-05-23T23:44:32.720342
10515,0.3518,1.3957,0.6876,-54.530,80.990,163.660,410,344,274,327,282,2025-05-23T23:44:32.734463
10516,0.4636,1.3044,0.6793,-40.600,129.080,154.770,395,355,284,354,299,2025-05-23T23:44:32.746799
10517,0.2220,1.3283,0.9223,-31.920,131.320,151.340,388,292,249,354,283,2025-05-23T23:44:32.761423
10518,0.0034,1.2337,1.1366,-34.370,70.000,140.560,385,326,267,349,300,2025-05-23T23:44:32.773345
10519,0.1562,1.1761,1.1122,-37.730,-5.530,127.610,387,280,242,301,285,2025-05-23T23:44:32.784941
10520,0.5251,1.1780,0.9516,-42.000,-29.750,107.800,396,332,280,344,287,2025-05-23T23:44:32.802239
10521,0.9194,1.1014,0.7857,-36.120,-1.120,85.890,338,354,289,331,281,2025-05-23T23:44:32.820386
10522,0.7120,1.0736,0.7662,-22.540,38.430,47.530,389,322,276,293,292,2025-05-23T23:44:32.827759
10523,0.2826,0.9858,0.7427,-8.330,43.260,10.570,343,277,271,338,288,2025-05-23T23:44:32.837644
10524,-0.0215,0.9750,0.6505,-10.220,21.070,-8.610,407,356,254,354,299,2025-05-23T23:44:32.848799
10525,-0.2147,0.9604,0.4802,-26.390,-2.310,-20.090,409,356,255,350,280,2025-05-23T23:44:32.856747
10526,-0.2201,1.0087,0.2865,-37.380,-7.630,-21.980,302,363,283,360,302,2025-05-23T23:44:32.868676
10527,-0.1893,0.9877,0.1357,-37.310,4.200,-16.380,376,369,293,357,318,2025-05-23T23:44:32.878687
10528,-0.1981,0.9389,0.0839,-30.100,25.550,-12.600,391,360,280,321,321,2025-05-23T23:44:32.890420
10529,-0.2147,0.9335,0.2025,-25.130,32.760,-5.740,410,359,285,350,320,2025-05-23T23:44:32.898612
10530,-0.2821,0.8647,0.2830,-26.880,20.160,-6.300,421,356,295,345,316,2025-05-23T23:44:32.906700
10531,-0.2274,0.8701,0.3255,-24.150,-2.730,-7.140,399,357,300,350,268,2025-05-23T23:44:32.916834
10532,-0.1303,0.8642,0.3328,-19.250,-10.500,-8.470,420,354,311,345,295,2025-05-23T23:44:32.927955
10533,-0.0937,0.8525,0.3128,-8.120,-5.880,-12.250,417,366,270,337,293,2025-05-23T23:44:32.940611
10534,-0.1035,0.8872,0.3089,4.270,2.660,-14.070,398,327,285,351,289,2025-05-23T23:44:32.952060
10535,-0.1601,0.9126,0.2913,8.470,12.600,-15.960,411,349,247,344,217,2025-05-23T23:44:33.015436
10536,-0.2508,0.9404,0.2630,6.510,19.390,-18.200,414,353,291,335,295,2025-05-23T23:44:33.031004
10537,-0.2679,0.9594,0.2298,3.780,19.670,-15.260,422,371,299,332,279,2025-05-23T23:44:33.043336
10538,-0.3060,0.9618,0.1918,2.520,18.830,-12.670,399,337,264,355,308,2025-05-23T23:44:33.061606
10539,-0.2991,0.9794,0.1708,3.150,15.540,-10.010,373,339,292,345,320,2025-05-23T23:44:33.077487
10540,-0.2640,0.9872,0.1606,4.690,10.220,-7.700,346,354,295,335,308,2025-05-23T23:44:33.096319
10541,-0.2596,0.9731,0.1430,2.940,8.470,-7.000,401,351,253,324,301,2025-05-23T23:44:33.107205
10542,-0.2650,0.9701,0.1518,2.030,7.000,-4.830,413,350,244,294,307,2025-05-23T23:44:33.121222
10543,-0.2708,0.9609,0.1679,1.540,6.300,-3.360,415,340,283,333,294,2025-05-23T23:44:33.135830
10544,-0.2718,0.9545,0.1820,0.840,4.900,-3.570,400,333,247,337,295,2025-05-23T23:44:33.146604
10545,-0.2796,0.9423,0.2030,-1.120,0.910,-4.200,416,330,268,288,257,2025-05-23T23:44:33.159473
10546,-0.2752,0.9277,0.2108,-3.570,-1.680,-5.670,416,335,277,320,299,2025-05-23T23:44:33.173671
10547,-0.2377,0.9267,0.2103,-3.430,-0.420,-4.550,417,326,289,321,300,2025-05-23T23:44:33.188383
10548,-0.2230,0.9170,0.2035,-1.610,4.620,-4.200,402,351,281,323,293,2025-05-23T23:44:33.202139
10549,-0.2196,0.9179,0.1962,0.840,10.010,-5.180,400,294,284,347,306,2025-05-23T23:44:33.211543
10550,-0.2401,0.9282,0.1972,3.360,14.280,-5.880,404,298,290,296,269,2025-05-23T23:44:33.224399
10551,-0.2786,0.9331,0.2045,3.850,13.440,-5.530,375,339,284,338,289,2025-05-23T23:44:33.236173
10552,-0.3182,0.9326,0.2094,1.400,9.520,-6.160,345,330,285,341,296,2025-05-23T23:44:33.250522
10553,-0.3133,0.9301,0.2108,-0.420,2.870,-6.300,404,335,278,332,300,2025-05-23T23:44:33.263328
10554,-0.2889,0.9238,0.2098,-1.050,-0.770,-7.420,424,349,275,319,293,2025-05-23T23:44:33.275715
10555,-0.2645,0.9126,0.2040,0.980,-1.540,-8.400,408,334,248,345,294,2025-05-23T23:44:33.287459
10556,-0.2630,0.9218,0.2074,2.940,-0.770,-9.450,424,351,285,343,299,2025-05-23T23:44:33.301855
10557,-0.2655,0.9155,0.2118,3.780,-0.140,-11.480,393,333,284,297,296,2025-05-23T23:44:33.329045
10558,-0.2718,0.9160,0.2186,3.080,1.400,-11.690,389,330,294,342,265,2025-05-23T23:44:33.338970
10559,-0.2845,0.9213,0.2245,4.200,3.710,-10.150,393,332,270,341,293,2025-05-23T23:44:33.350480
10560,-0.2826,0.9296,0.2401,6.440,4.900,-10.920,375,278,290,354,300,2025-05-23T23:44:33.362634
10561,-0.2704,0.9238,0.2460,7.700,3.710,-12.880,410,336,307,345,319,2025-05-23T23:44:33.371726
10562,-0.2674,0.8901,0.2352,8.330,1.330,-15.400,393,336,312,317,311,2025-05-23T23:44:33.382411
10563,-0.2479,0.8799,0.2391,11.200,-1.260,-16.520,413,339,267,332,314,2025-05-23T23:44:33.392152
10564,-0.2406,0.8686,0.2479,14.490,-3.220,-19.320,401,338,286,317,294,2025-05-23T23:44:33.400520
10565,-0.2513,0.8433,0.2523,17.290,-7.700,-24.290,426,308,300,350,321,2025-05-23T23:44:33.409840
10566,-0.2699,0.8106,0.2474,18.830,-15.540,-29.890,400,319,297,327,291,2025-05-23T23:44:33.420543
10567,-0.2562,0.7969,0.2274,21.560,-20.860,-35.350,390,320,260,338,299,2025-05-23T23:44:33.432122
10568,-0.2377,0.8028,0.2181,24.920,-23.380,-40.810,355,328,273,330,291,2025-05-23T23:44:33.440534
10569,-0.2176,0.7959,0.2103,27.720,-23.310,-46.130,393,349,286,325,297,2025-05-23T23:44:33.453926
10570,-0.2225,0.7764,0.2123,30.100,-25.620,-53.480,401,325,281,323,295,2025-05-23T23:44:33.466227
10571,-0.2396,0.7657,0.2235,31.990,-32.690,-61.670,421,355,282,327,289,2025-05-23T23:44:33.476397
10572,-0.2533,0.7432,0.2386,33.600,-44.170,-70.560,389,342,288,292,286,2025-05-23T23:44:33.489515
10573,-0.2469,0.7159,0.2425,36.960,-58.240,-80.570,414,295,291,277,212,2025-05-23T23:44:33.501472
10574,-0.2220,0.6969,0.2416,40.600,-69.090,-90.580,343,347,283,320,291,2025-05-23T23:44:33.510289
10575,-0.2089,0.6852,0.2328,45.150,-80.010,-101.850,401,355,287,347,309,2025-05-23T23:44:33.522917
10576,-0.1889,0.6608,0.2240,49.350,-89.740,-111.230,409,343,301,339,308,2025-05-23T23:44:33.531856
10577,-0.1635,0.6515,0.2352,51.730,-98.210,-123.340,397,355,302,366,319,2025-05-23T23:44:33.543466
10578,-0.1654,0.6554,0.2655,50.330,-108.080,-136.010,412,360,305,352,283,2025-05-23T23:44:33.555419
10579,-0.1684,0.6656,0.2991,46.270,-121.380,-149.520,414,367,305,354,302,2025-05-23T23:44:33.571502
10580,-0.1781,0.6647,0.3274,40.530,-137.060,-163.590,380,379,300,301,263,2025-05-23T23:44:33.585252
10581,-0.2025,0.6315,0.3362,37.520,-153.510,-178.290,417,350,301,334,299,2025-05-23T23:44:33.599108
10582,-0.2494,0.5749,0.3255,36.470,-168.700,-192.850,432,326,308,336,234,2025-05-23T23:44:33.608415
10583,-0.3660,0.5017,0.2894,40.040,-180.740,-207.480,418,331,309,338,299,2025-05-23T23:44:33.622352
10584,-0.4124,0.4802,0.2542,45.780,-195.930,-215.670,425,382,314,363,273,2025-05-23T23:44:33.636419
10585,-0.4168,0.4753,0.2074,50.470,-207.900,-219.380,419,410,286,366,289,2025-05-23T23:44:33.647810
10586,-0.3753,0.4943,0.2128,45.990,-204.470,-222.950,343,417,314,350,323,2025-05-23T23:44:33.657302
10587,-0.4211,0.5080,0.2279,35.490,-198.240,-227.430,377,411,316,357,322,2025-05-23T23:44:33.669596
10588,-0.4851,0.5431,0.2894,19.950,-196.840,-229.040,340,421,317,343,315,2025-05-23T23:44:33.679878
10589,-0.5202,0.5905,0.3196,-4.060,-199.570,-226.800,325,433,308,356,264,2025-05-23T23:44:33.689091
10590,-0.6237,0.5461,0.3543,-28.350,-206.290,-224.910,379,426,339,296,251,2025-05-23T23:44:33.698653
10591,-0.7125,0.4660,0.3626,-41.580,-219.870,-222.600,400,307,339,335,306,2025-05-23T23:44:33.710905
10592,-0.7388,0.4490,0.3880,-47.880,-228.620,-214.480,415,323,343,346,329,2025-05-23T23:44:33.720056
10593,-0.6578,0.4065,0.4060,-48.720,-223.930,-207.200,431,372,375,361,353,2025-05-23T23:44:33.732296
10594,0.0000,0.4002,0.4558,0.000,0.000,-205.380,424,394,377,368,367,2025-05-23T23:44:33.745186
10595,0.0000,0.0000,0.0000,0.000,0.000,0.000,424,419,372,392,367,2025-05-23T23:44:33.757341
10596,0.0000,0.0000,0.0000,0.000,0.000,0.000,419,345,380,398,367,2025-05-23T23:44:33.767995
10597,0.0000,0.0000,0.0000,0.000,0.000,0.000,401,396,361,376,364,2025-05-23T23:44:33.780069
10598,0.0000,0.0000,0.0000,0.000,0.000,0.000,406,424,340,354,383,2025-05-23T23:44:33.789877
10599,0.0000,0.0000,0.0000,0.000,0.000,0.000,412,366,359,389,364,2025-05-23T23:44:33.805238
10600,0.0000,0.0000,0.0000,0.000,0.000,0.000,422,418,366,411,373,2025-05-23T23:44:33.830899
10601,0.0000,0.0000,0.0000,0.000,0.000,0.000,428,412,377,402,387,2025-05-23T23:44:33.841307
10602,-0.9028,-0.0669,0.6842,-86.240,-135.520,-143.710,412,374,343,392,342,2025-05-23T23:44:33.852188
10603,-0.7042,-0.0137,0.6871,-67.130,-113.820,-111.020,411,408,359,401,372,2025-05-23T23:44:33.864903
10604,-0.5158,0.0181,0.7066,-58.800,-60.480,-115.780,416,387,377,380,328,2025-05-23T23:44:33.876331
10605,-0.4826,0.0395,0.7052,-38.360,-3.220,-110.040,347,410,381,378,358,2025-05-23T23:44:33.888441
10606,-0.7491,0.0542,0.7686,-33.460,22.890,-109.970,386,407,377,377,356,2025-05-23T23:44:33.897882
10607,-1.1092,0.0039,0.8379,-37.310,5.040,-112.070,389,424,371,375,334,2025-05-23T23:44:33.906121
10608,-1.2293,-0.0312,0.8574,-43.750,-41.790,-105.910,378,416,387,361,350,2025-05-23T23:44:33.914205
10609,-1.1673,-0.0410,0.8750,-60.480,-91.980,-91.000,413,416,378,369,335,2025-05-23T23:44:33.931948
10610,-0.9599,-0.0981,0.8384,-69.860,-101.080,-76.160,403,396,356,379,374,2025-05-23T23:44:33.945140
10611,-0.7452,-0.1357,0.7950,-64.260,-73.500,-64.260,383,397,328,344,376,2025-05-23T23:44:33.960490
10612,-0.6388,-0.1684,0.8028,-57.260,-21.560,-62.090,345,401,351,365,359,2025-05-23T23:44:33.973699
10613,-0.7183,-0.1801,0.7950,-26.740,19.250,-59.990,403,424,364,348,341,2025-05-23T23:44:33.982066
10614,-0.9272,-0.1825,0.7798,-11.060,28.630,-54.810,420,432,335,321,370,2025-05-23T23:44:33.992621
10615,-1.0419,-0.1420,0.8164,-5.530,6.650,-47.740,407,431,320,348,384,2025-05-23T23:44:34.003206
10616,-1.0521,-0.1093,0.8233,-11.340,-18.060,-39.620,353,356,312,345,376,2025-05-23T23:44:34.013806
10617,-1.0360,-0.0908,0.8091,-26.390,-49.000,-37.100,402,410,353,385,384,2025-05-23T23:44:34.024476
10618,-0.9038,-0.0781,0.7530,-39.060,-62.370,-35.910,430,426,367,396,347,2025-05-23T23:44:34.037606
10619,-0.7608,-0.0630,0.6788,-46.130,-54.530,-33.950,418,362,382,395,371,2025-05-23T23:44:34.049688
10620,-0.7076,-0.0527,0.6334,-46.200,-38.080,-30.170,416,412,389,358,335,2025-05-23T23:44:34.063717
10621,-0.7315,-0.0693,0.6178,-43.050,-25.900,-22.470,416,416,375,371,325,2025-05-23T23:44:34.077223
10622,-0.7686,-0.0839,0.5983,-35.700,-24.500,-13.090,413,406,391,364,345,2025-05-23T23:44:34.121551
10623,-0.8184,-0.0956,0.6168,-30.450,-28.420,-7.490,394,430,382,380,348,2025-05-23T23:44:34.144571
10624,-0.8823,-0.1122,0.6900,-30.660,-38.780,-9.030,407,402,378,373,332,2025-05-23T23:44:34.153101
10625,-0.8677,-0.1215,0.7247,-34.370,-51.380,-12.740,411,397,384,357,334,2025-05-23T23:44:34.164914
10626,-0.8535,-0.1654,0.7505,-42.000,-57.750,-10.780,367,416,390,367,338,2025-05-23T23:44:34.173675
10627,-0.8086,-0.2328,0.7388,-43.050,-53.690,-0.630,290,380,356,385,351,2025-05-23T23:44:34.181492
10628,-0.7715,-0.2884,0.7691,-32.830,-43.120,12.320,395,414,380,381,365,2025-05-23T23:44:34.189858
10629,-0.7544,-0.3245,0.7457,-17.150,-27.860,21.280,412,367,384,380,369,2025-05-23T23:44:34.199218
10630,-0.7886,-0.3148,0.7998,6.230,-17.360,22.680,390,389,380,402,377,2025-05-23T23:44:34.210399
10631,-0.8564,-0.2987,0.9052,24.640,-9.310,20.720,399,424,389,387,356,2025-05-23T23:44:34.219936
10632,-0.9116,-0.3201,0.9116,24.920,-16.310,16.730,410,409,392,389,382,2025-05-23T23:44:34.231345
10633,-0.9077,-0.3157,0.9399,22.260,-28.980,15.890,422,409,382,384,338,2025-05-23T23:44:34.243302
10634,-0.8408,-0.3060,0.8999,20.650,-35.070,22.400,431,406,339,365,318,2025-05-23T23:44:34.252458
10635,-0.7554,-0.2938,0.8965,25.270,-34.720,32.270,349,386,366,380,295,2025-05-23T23:44:34.261953
10636,-0.6456,-0.2860,0.8921,36.120,-30.730,44.380,397,421,356,371,306,2025-05-23T23:44:34.274989
10637,-0.6163,-0.3021,0.8594,48.370,-21.910,51.240,299,415,357,366,309,2025-05-23T23:44:34.288317
10638,-0.6168,-0.2948,0.8296,57.610,-18.900,53.410,397,348,322,355,298,2025-05-23T23:44:34.300315
10639,-0.6490,-0.2386,0.8555,63.350,-27.300,49.210,385,408,344,351,300,2025-05-23T23:44:34.309425
10640,-0.6676,-0.2084,0.8930,56.980,-37.240,42.490,363,400,355,344,312,2025-05-23T23:44:34.322619
10641,-0.6588,-0.2133,0.8935,44.870,-48.160,35.630,350,394,359,340,272,2025-05-23T23:44:34.341467
10642,-0.5944,-0.2372,0.9536,29.050,-47.600,31.010,389,407,339,298,269,2025-05-23T23:44:34.354555
10643,-0.5427,-0.2704,0.9623,17.080,-38.290,28.700,339,410,317,337,319,2025-05-23T23:44:34.363530
10644,-0.5275,-0.2801,0.9799,11.550,-18.200,24.640,331,421,338,393,357,2025-05-23T23:44:34.377009
10645,-0.5754,-0.3421,0.9579,12.320,-2.450,21.140,400,431,344,352,314,2025-05-23T23:44:34.385946
10646,-0.6622,-0.3567,0.9511,17.990,-0.630,16.800,380,354,322,326,324,2025-05-23T23:44:34.397553
10647,-0.6798,-0.3094,0.9374,20.020,-9.030,14.560,379,409,332,362,359,2025-05-23T23:44:34.411966
10648,-0.6764,-0.2552,0.9780,12.670,-18.480,12.180,400,413,337,365,347,2025-05-23T23:44:34.425984
10649,-0.6349,-0.2562,1.0014,3.150,-26.670,7.280,338,426,350,388,352,2025-05-23T23:44:34.439584
10650,-0.5836,-0.2562,1.0077,-7.280,-24.710,3.640,400,361,346,367,351,2025-05-23T23:44:34.451933
10651,-0.5553,-0.2303,0.9999,-15.050,-13.020,1.050,407,416,352,373,346,2025-05-23T23:44:34.461352
10652,-0.5744,-0.2386,0.9482,-15.540,-3.290,0.420,376,428,341,387,350,2025-05-23T23:44:34.474983
10653,-0.6159,-0.2367,0.8989,-9.380,0.490,2.590,420,360,314,380,342,2025-05-23T23:44:34.487541
10654,-0.6183,-0.2377,0.8672,-2.240,-1.960,7.840,421,400,265,383,348,2025-05-23T23:44:34.497543
10655,-0.6046,-0.2084,0.8520,7.420,-6.230,11.690,429,402,313,357,317,2025-05-23T23:44:34.509190
10656,-0.5861,-0.1366,0.8862,11.830,-7.700,12.040,362,426,262,355,288,2025-05-23T23:44:34.522451
10657,-0.5597,-0.0864,0.8921,8.470,-9.940,11.060,410,407,280,353,288,2025-05-23T23:44:34.532183
10658,-0.5422,-0.0673,0.8882,-0.630,-11.690,9.170,410,430,283,338,267,2025-05-23T23:44:34.545599
10659,-0.5392,-0.0737,0.8750,-9.380,-15.120,7.700,416,410,290,338,288,2025-05-23T23:44:34.555995
10660,-0.5300,-0.0932,0.8540,-12.880,-18.970,7.770,367,429,269,354,266,2025-05-23T23:44:34.566194
10661,-0.5202,-0.0942,0.8452,-13.440,-20.370,7.070,412,421,305,312,322,2025-05-23T23:44:34.577841
10662,-0.5012,-0.1015,0.8311,-13.370,-20.510,5.530,433,422,329,375,286,2025-05-23T23:44:34.589646
10663,-0.4734,-0.1030,0.8330,-13.580,-19.600,3.360,354,424,325,379,323,2025-05-23T23:44:34.604918
10664,-0.4587,-0.0966,0.8623,-17.010,-16.380,-0.280,397,405,313,383,319,2025-05-23T23:44:34.613698
10665,-0.4870,-0.1069,0.8813,-21.210,-15.610,-5.110,399,393,323,330,345,2025-05-23T23:44:34.623510
10666,-0.4851,-0.1157,0.8955,-24.360,-17.430,-9.030,407,396,334,384,318,2025-05-23T23:44:34.635257
10667,-0.4792,-0.1420,0.8989,-26.670,-17.570,-10.780,347,418,338,392,354,2025-05-23T23:44:34.643410
10668,-0.4870,-0.1752,0.8784,-24.850,-17.080,-11.550,380,380,339,371,348,2025-05-23T23:44:34.654631
10669,-0.4807,-0.1976,0.8555,-20.160,-17.220,-9.870,402,422,344,368,335,2025-05-23T23:44:34.666303
10670,-0.5070,-0.2181,0.9911,-5.740,-9.940,-3.710,400,414,330,375,339,2025-05-23T23:44:34.676988
10671,-0.5524,-0.1864,1.0487,7.210,-4.900,0.350,387,423,317,376,316,2025-05-23T23:44:34.690218
10672,-0.5514,-0.1039,1.0575,10.430,0.630,-0.280,338,421,298,365,309,2025-05-23T23:44:34.699423
10673,-0.5675,-0.0820,1.0014,7.840,0.280,-3.220,394,430,289,343,289,2025-05-23T23:44:34.711610
10674,-0.5597,-0.0678,0.9365,3.640,-2.450,-4.060,414,405,276,356,271,2025-05-23T23:44:34.724105
10675,-0.5622,-0.0781,0.8974,3.850,-5.180,-3.290,419,398,275,344,291,2025-05-23T23:44:34.743759
10676,-0.5539,-0.0839,0.8599,8.470,-8.820,-1.330,415,400,282,365,309,2025-05-23T23:44:34.753943
10677,-0.5212,-0.0844,0.8457,12.530,-9.800,1.470,431,390,279,362,297,2025-05-23T23:44:34.764450
10678,-0.4865,-0.0913,0.8316,12.390,-7.840,2.870,425,397,302,372,332,2025-05-23T23:44:34.773433
10679,-0.4695,-0.0952,0.8306,8.960,-9.310,2.800,416,348,308,384,335,2025-05-23T23:44:34.783289
10680,-0.4602,-0.0961,0.8428,5.600,-8.680,1.470,409,393,316,376,327,2025-05-23T23:44:34.793028
10681,-0.4690,-0.1098,0.8594,5.320,-7.700,0.350,422,399,308,370,325,2025-05-23T23:44:34.804758
10682,-0.4934,-0.1118,0.8774,8.470,-10.640,-0.840,415,337,305,369,332,2025-05-23T23:44:34.815079
10683,-0.4768,-0.0878,0.8847,9.240,-10.220,0.000,425,395,309,383,346,2025-05-23T23:44:34.823577
10684,-0.4836,-0.0737,0.8969,7.280,-7.140,1.400,397,403,309,383,344,2025-05-23T23:44:34.835744
10685,-0.4943,-0.0834,0.9091,4.200,-6.300,1.750,371,416,260,383,319,2025-05-23T23:44:34.844826
10686,-0.5197,-0.0908,0.9355,1.470,-7.350,2.170,401,387,220,367,290,2025-05-23T23:44:34.856117
10687,-0.5222,-0.1093,0.9394,-0.280,-6.440,4.130,428,349,256,350,287,2025-05-23T23:44:34.869373
10688,-0.5314,-0.1157,0.9130,-0.490,-7.070,7.560,415,389,265,351,289,2025-05-23T23:44:34.881647
10689,-0.5226,-0.1235,0.8808,0.140,-10.290,10.430,421,412,263,340,305,2025-05-23T23:44:34.891304
10690,-0.4880,-0.1157,0.8433,0.000,-13.090,12.040,405,401,269,340,301,2025-05-23T23:44:34.899434
10691,-0.4509,-0.1069,0.8350,-0.420,-11.970,11.690,388,377,258,312,303,2025-05-23T23:44:34.910617
10692,-0.4451,-0.0937,0.8501,-1.190,-7.770,9.590,411,409,257,354,311,2025-05-23T23:44:34.920305
10693,-0.4802,-0.1010,0.8735,0.070,-4.480,9.100,410,434,276,348,305,2025-05-23T23:44:34.931393
10694,-0.5129,-0.0952,0.8906,2.800,-2.940,12.390,376,426,267,356,262,2025-05-23T23:44:34.941994
10695,-0.5129,-0.0820,0.9023,2.660,-3.640,15.890,392,433,287,362,292,2025-05-23T23:44:34.953978
10696,-0.4919,-0.0576,0.9062,0.000,-5.180,18.340,355,399,311,379,316,2025-05-23T23:44:34.966462
10697,-0.4299,-0.0366,0.8706,-9.590,-0.700,19.670,387,406,325,368,325,2025-05-23T23:44:34.978669
10698,-0.4836,-0.0361,0.8716,-11.410,2.730,19.460,413,419,283,338,343,2025-05-23T23:44:34.989599
10699,-0.5207,-0.0390,0.8960,-13.720,2.800,18.480,409,406,287,365,329,2025-05-23T23:44:35.001734
10700,-0.5158,-0.0264,0.9155,-15.120,0.770,20.160,342,402,321,354,320,2025-05-23T23:44:35.013960
10701,-0.5295,-0.0176,0.9116,-18.830,3.850,23.800,403,395,290,359,290,2025-05-23T23:44:35.024392
10702,-0.5344,-0.0161,0.9091,-24.570,5.320,28.210,400,371,265,330,300,2025-05-23T23:44:35.037284
10703,-0.5295,-0.0337,0.9028,-27.230,2.520,30.520,405,407,254,335,286,2025-05-23T23:44:35.050140
10704,-0.5085,-0.0659,0.8926,-27.090,0.070,29.400,422,397,259,347,301,2025-05-23T23:44:35.059618
10705,-0.4963,-0.0893,0.8969,-24.010,-2.800,24.010,396,355,222,353,288,2025-05-23T23:44:35.072336
10706,-0.4612,-0.1098,0.9072,-18.270,-5.040,18.270,406,389,216,295,303,2025-05-23T23:44:35.090994
10707,-0.4319,-0.1200,0.8999,-12.600,-2.450,12.600,397,410,257,323,295,2025-05-23T23:44:35.102963
10708,-0.4348,-0.1220,0.8745,-9.940,2.870,10.010,399,389,237,335,278,2025-05-23T23:44:35.114517
10709,-0.4534,-0.0956,0.8447,-12.250,9.520,13.930,418,399,249,322,252,2025-05-23T23:44:35.126137
10710,-0.5222,-0.0927,0.8364,-18.060,9.450,18.340,393,414,243,348,295,2025-05-23T23:44:35.134933
10711,-0.5363,-0.1210,0.8584,-22.540,3.780,18.900,357,399,247,349,301,2025-05-23T23:44:35.145137
10712,-0.5197,-0.1444,0.8838,-22.540,-1.050,17.360,390,350,291,360,339,2025-05-23T23:44:35.154852
10713,-0.5046,-0.1488,0.9013,-17.710,-2.520,13.930,414,418,318,384,316,2025-05-23T23:44:35.163919
10714,-0.4929,-0.1523,0.9057,-13.090,-1.470,11.480,400,400,329,366,352,2025-05-23T23:44:35.176957
10715,-0.4860,-0.1503,0.8911,-10.430,-4.270,9.590,411,386,328,369,346,2025-05-23T23:44:35.190149
10716,-0.4802,-0.1576,0.8916,-10.010,-7.980,5.180,381,412,321,368,353,2025-05-23T23:44:35.203775
10717,-0.4568,-0.1718,0.8769,-9.870,-8.470,-1.330,412,401,311,386,348,2025-05-23T23:44:35.213637
10718,-0.4529,-0.1518,0.8618,-7.210,-2.240,-3.780,400,396,312,353,342,2025-05-23T23:44:35.224730
10719,-0.4895,-0.1405,0.8447,-4.340,3.220,-3.010,434,411,288,374,308,2025-05-23T23:44:35.236971
10720,-0.5192,-0.1440,0.8462,-2.240,3.080,2.170,363,424,319,380,351,2025-05-23T23:44:35.248302
10721,-0.5329,-0.1366,0.8506,-1.190,-1.260,6.370,398,413,314,390,339,2025-05-23T23:44:35.261409
10722,-0.4953,-0.1279,0.8794,-0.070,-1.190,8.120,390,417,316,391,340,2025-05-23T23:44:35.273572
10723,-0.4939,-0.1225,0.9062,1.260,2.240,9.940,408,406,259,342,323,2025-05-23T23:44:35.286203
10724,-0.4963,-0.0961,0.8882,0.000,6.020,11.410,420,348,280,342,351,2025-05-23T23:44:35.295517
10725,-0.5441,-0.0937,0.8955,-2.520,6.510,17.010,339,376,326,369,349,2025-05-23T23:44:35.308295
10726,-0.5524,-0.1132,0.8808,-4.060,3.920,18.900,406,414,330,363,347,2025-05-23T23:44:35.320401
10727,-0.5207,-0.1113,0.8808,-2.800,4.200,20.510,427,402,325,377,292,2025-05-23T23:44:35.332559
10728,-0.4880,-0.1215,0.8813,-1.050,10.990,22.190,412,412,288,363,336,2025-05-23T23:44:35.361151
10729,-0.4914,-0.1288,0.8789,1.750,13.440,23.100,406,396,279,366,302,2025-05-23T23:44:35.376437
10730,-0.5080,-0.1591,0.8691,7.490,8.330,18.900,397,419,278,331,343,2025-05-23T23:44:35.387667
10731,-0.4846,-0.1771,0.8501,15.190,0.210,7.000,420,399,288,367,294,2025-05-23T23:44:35.397378
10732,-0.4441,-0.1308,0.8779,23.800,0.910,-7.210,430,404,288,315,337,2025-05-23T23:44:35.406654
10733,-0.4646,-0.0996,0.8608,32.340,1.120,-18.760,426,433,282,368,301,2025-05-23T23:44:35.418529
10734,-0.4787,-0.0605,0.8613,33.950,-4.410,-26.390,410,407,269,366,295,2025-05-23T23:44:35.428540
10735,-0.4748,-0.0556,0.8594,30.240,-7.700,-31.150,420,376,173,317,306,2025-05-23T23:44:35.438924
10736,-0.5002,-0.0756,0.8628,28.420,-9.170,-34.790,396,413,165,323,299,2025-05-23T23:44:35.447470
10737,-0.4987,-0.0786,0.8701,31.080,-6.510,-36.680,413,402,202,337,293,2025-05-23T23:44:35.457921
10738,-0.4992,-0.0508,0.8867,34.650,-1.960,-36.470,339,413,247,330,244,2025-05-23T23:44:35.468740
10739,-0.5192,-0.0327,0.8799,31.920,4.690,-33.810,399,401,236,348,288,2025-05-23T23:44:35.482675
10740,-0.5539,-0.0210,0.8472,24.150,6.020,-29.820,417,424,252,292,280,2025-05-23T23:44:35.494743
10741,-0.5812,-0.0034,0.8218,14.070,3.780,-24.850,348,430,252,300,213,2025-05-23T23:44:35.506471
10742,-0.5978,0.0122,0.8037,2.520,2.870,-21.280,323,407,242,342,292,2025-05-23T23:44:35.515988
10743,-0.5895,-0.0200,0.7613,-7.420,5.180,-14.630,381,403,254,289,288,2025-05-23T23:44:35.525435
10744,-0.6656,-0.0410,0.8725,-9.380,9.590,-2.590,389,394,247,330,293,2025-05-23T23:44:35.535761
10745,-0.6964,-0.0508,0.9087,-2.730,8.190,5.810,418,388,221,338,303,2025-05-23T23:44:35.545240
10746,-0.6539,-0.0346,0.9033,2.240,-0.280,11.690,391,427,226,299,298,2025-05-23T23:44:35.557783
10747,-0.5646,-0.0102,0.8725,-0.350,-1.890,11.830,365,404,249,350,335,2025-05-23T23:44:35.567124
10748,-0.5588,0.0132,0.8145,-11.060,6.160,15.470,389,388,262,316,249,2025-05-23T23:44:35.577890
10749,-0.5778,-0.0356,0.7706,-17.570,6.090,16.240,417,412,249,359,322,2025-05-23T23:44:35.592749
10750,-0.5763,-0.0205,0.8120,-21.700,3.360,19.250,410,427,267,347,337,2025-05-23T23:44:35.628775
10751,-0.5524,-0.0259,0.8291,-27.930,7.140,21.280,418,422,275,347,328,2025-05-23T23:44:35.656071
10752,-0.5729,-0.0508,0.8594,-28.770,7.910,22.610,391,430,279,348,333,2025-05-23T23:44:35.666418
10753,-0.5832,-0.0654,0.8857,-27.720,0.070,20.930,379,405,212,334,269,2025-05-23T23:44:35.678415
10754,-0.5480,-0.0825,0.9160,-27.160,-4.410,15.960,388,431,179,342,292,2025-05-23T23:44:35.688427
10755,-0.5129,-0.0927,0.9223,-22.890,-2.310,11.620,418,411,205,334,296,2025-05-23T23:44:35.696591
10756,-0.5124,-0.0937,0.9038,-19.250,-0.910,7.560,403,414,155,309,283,2025-05-23T23:44:35.706285
10757,-0.5202,-0.1025,0.8862,-15.750,-1.540,4.760,400,350,148,322,300,2025-05-23T23:44:35.716372
10758,-0.5046,-0.1078,0.8560,-15.190,-1.680,3.850,401,383,150,337,281,2025-05-23T23:44:35.724255
10759,-0.5236,-0.1093,0.8394,-16.730,-1.960,3.780,394,391,150,334,268,2025-05-23T23:44:35.733252
10760,-0.5241,-0.1430,0.8311,-15.960,-2.940,2.940,416,396,148,285,284,2025-05-23T23:44:35.744140
10761,-0.5056,-0.1498,0.8457,-13.510,-3.080,2.170,431,339,146,323,286,2025-05-23T23:44:35.757491
10762,-0.5104,-0.1606,0.8623,-10.010,-2.240,0.490,402,384,146,325,240,2025-05-23T23:44:35.771180
10763,-0.5134,-0.1688,0.8838,-6.860,-3.780,-1.540,419,390,188,290,308,2025-05-23T23:44:35.781398
10764,-0.5036,-0.1615,0.8974,-4.620,-6.300,-3.010,425,414,236,306,337,2025-05-23T23:44:35.795952
10765,-0.5031,-0.1454,0.8847,-4.410,-6.860,-4.970,420,410,236,356,341,2025-05-23T23:44:35.816095
10766,-0.5246,-0.1425,0.8638,-4.550,-8.050,-5.600,396,412,241,366,297,2025-05-23T23:44:35.828955
10767,-0.5461,-0.1347,0.8398,-4.480,-11.830,-4.760,408,377,249,307,323,2025-05-23T23:44:35.840365
10768,-0.5529,-0.1259,0.8311,-5.110,-14.000,-2.940,399,406,187,340,318,2025-05-23T23:44:35.849424
10769,-0.5651,-0.1298,0.8355,-4.970,-14.980,-2.660,357,416,154,344,250,2025-05-23T23:44:35.871342
10770,-0.5680,-0.1230,0.8477,-3.080,-15.050,-3.360,373,406,141,312,275,2025-05-23T23:44:35.885940
10771,-0.5710,-0.1215,0.8530,-1.260,-15.610,-3.220,405,411,148,294,297,2025-05-23T23:44:35.895716
10772,-0.5680,-0.1161,0.8560,0.560,-15.050,-3.710,392,436,149,328,249,2025-05-23T23:44:35.905660
10773,-0.5568,-0.1103,0.8472,0.840,-13.650,-3.640,410,399,144,349,276,2025-05-23T23:44:35.918037
10774,-0.5529,-0.1054,0.8389,1.330,-13.090,-3.010,428,401,147,333,286,2025-05-23T23:44:35.929405
10775,-0.5236,-0.1054,0.8281,2.520,-12.460,-2.170,424,367,143,330,245,2025-05-23T23:44:35.940539
10776,-0.5192,-0.1054,0.7989,2.800,-12.600,-2.940,419,390,145,338,247,2025-05-23T23:44:35.951939
10777,-0.4875,-0.0878,0.7993,4.270,-11.620,-2.590,405,394,144,344,244,2025-05-23T23:44:35.965750
10778,-0.4904,-0.1030,0.8306,5.530,-8.190,-1.680,419,408,145,342,284,2025-05-23T23:44:35.975251
10779,-0.5070,-0.1015,0.8882,4.340,-4.550,-3.500,411,421,143,293,274,2025-05-23T23:44:35.987462
10780,-0.5100,-0.0888,0.9350,1.470,-2.240,-5.390,427,411,177,335,298,2025-05-23T23:44:36.001452
10781,-0.5363,-0.0956,0.9614,-0.910,-2.870,-6.440,352,362,218,367,328,2025-05-23T23:44:36.014463
10782,-0.5368,-0.0903,0.9755,-4.620,-2.940,-7.770,417,394,225,364,329,2025-05-23T23:44:36.025184
10783,-0.5368,-0.0908,0.9579,-5.740,-2.730,-8.120,420,301,232,316,335,2025-05-23T23:44:36.037817
10784,-0.5597,-0.1093,0.9204,-4.970,-0.840,-7.840,420,350,248,320,330,2025-05-23T23:44:36.051584
10785,-0.5427,-0.1366,0.8852,-2.170,2.660,-4.760,421,387,246,306,309,2025-05-23T23:44:36.063316
10786,-0.5031,-0.1781,0.8291,3.360,6.300,0.910,401,388,250,269,326,2025-05-23T23:44:36.075365
10787,-0.4372,-0.1923,0.7906,12.320,18.060,7.700,400,360,258,372,346,2025-05-23T23:44:36.087139
10788,-0.4519,-0.2137,0.7340,20.230,19.460,9.660,351,333,267,365,301,2025-05-23T23:44:36.098878
10789,-0.4616,-0.1728,0.7398,22.750,13.860,7.140,322,331,268,375,337,2025-05-23T23:44:36.118484
10790,-0.4709,-0.1581,0.7930,24.500,11.620,7.140,390,387,226,344,342,2025-05-23T23:44:36.132991
10791,-0.4929,-0.1386,0.8247,20.650,7.560,6.440,404,409,162,339,284,2025-05-23T23:44:36.147519
10792,-0.5056,-0.1171,0.8272,18.760,6.650,4.900,408,420,155,328,302,2025-05-23T23:44:36.162000
10793,-0.5202,-0.1196,0.8125,20.090,8.400,3.150,398,428,148,291,290,2025-05-23T23:44:36.174978
10794,-0.5427,-0.1196,0.8233,22.400,10.150,3.990,418,442,144,289,279,2025-05-23T23:44:36.189878
10795,-0.5514,-0.0927,0.8423,24.710,9.170,7.420,394,370,145,296,296,2025-05-23T23:44:36.207721
10796,-0.5817,-0.0688,0.8618,24.990,6.720,8.260,374,391,145,302,294,2025-05-23T23:44:36.218832
10797,-0.5851,-0.0381,0.8594,22.400,4.060,6.020,383,418,169,326,300,2025-05-23T23:44:36.232013
10798,-0.5783,-0.0068,0.8589,17.360,2.730,2.380,421,404,233,317,328,2025-05-23T23:44:36.248013
10799,-0.5802,-0.0127,0.8564,11.900,1.890,-0.560,401,340,235,336,286,2025-05-23T23:44:36.259506
10800,-0.5768,-0.0190,0.8599,9.240,0.700,-2.800,396,362,240,326,322,2025-05-23T23:44:36.273270
10801,-0.5636,-0.0268,0.8721,7.770,0.420,-4.760,428,394,234,337,341,2025-05-23T23:44:36.287503
10802,-0.5514,-0.0259,0.8662,7.140,1.470,-6.580,431,392,245,361,334,2025-05-23T23:44:36.301334
10803,-0.5451,-0.0268,0.8667,6.090,2.170,-7.420,428,373,249,359,342,2025-05-23T23:44:36.314734
10804,-0.5417,-0.0073,0.8599,1.890,1.680,-8.750,415,398,249,350,296,2025-05-23T23:44:36.327537
10805,-0.5402,-0.0005,0.8481,-3.710,-1.330,-10.570,424,397,248,347,284,2025-05-23T23:44:36.342470
10806,-0.5178,-0.0005,0.8403,-12.600,-6.580,-13.790,417,417,258,370,335,2025-05-23T23:44:36.365780
10807,-0.5046,-0.0254,0.8320,-23.030,-10.710,-17.360,401,424,251,344,303,2025-05-23T23:44:36.379653
10808,-0.5139,-0.1083,0.9311,-25.410,-12.250,-16.240,389,401,254,359,345,2025-05-23T23:44:36.389683
10809,-0.5480,-0.1342,0.9838,-9.870,-5.740,-14.210,403,397,250,355,333,2025-05-23T23:44:36.399198
10810,-0.5661,-0.1049,0.9926,5.040,4.130,-10.430,413,404,257,352,334,2025-05-23T23:44:36.410452
10811,-0.6202,-0.0766,0.9374,12.110,3.920,-10.780,419,400,253,305,289,2025-05-23T23:44:36.418481
10812,-0.5944,-0.0761,0.8667,10.640,-0.980,-9.450,391,409,257,347,323,2025-05-23T23:44:36.429711
10813,-0.5934,-0.0908,0.7945,7.350,-4.130,-8.330,391,397,165,332,295,2025-05-23T23:44:36.439574
10814,-0.5802,-0.0874,0.7623,5.740,-5.460,-8.750,400,349,187,278,256,2025-05-23T23:44:36.450721
10815,-0.5636,-0.0893,0.7613,6.160,-5.180,-8.820,405,382,247,355,339,2025-05-23T23:44:36.460821
10816,-0.5558,-0.0859,0.7954,5.810,-5.600,-8.050,410,424,245,342,346,2025-05-23T23:44:36.474040
10817,-0.5490,-0.0844,0.8335,3.080,-5.880,-6.230,398,400,250,365,338,2025-05-23T23:44:36.485086
10818,-0.5539,-0.0844,0.8618,2.310,-6.510,-4.760,416,412,252,363,332,2025-05-23T23:44:36.502850
10819,-0.5475,-0.0766,0.8804,3.570,-5.810,-4.760,412,347,255,349,326,2025-05-23T23:44:36.515845
10820,-0.5344,-0.0654,0.8872,6.160,-3.640,-5.040,421,398,185,343,305,2025-05-23T23:44:36.528999
10821,-0.5280,-0.0605,0.8764,6.860,-0.630,-5.670,390,401,155,319,278,2025-05-23T23:44:36.543650
10822,-0.5431,-0.0644,0.8682,6.510,-1.470,-6.230,419,419,153,323,279,2025-05-23T23:44:36.555707
10823,-0.5436,-0.0605,0.8560,6.580,-3.010,-5.670,431,417,141,329,243,2025-05-23T23:44:36.568714
10824,-0.5314,-0.0576,0.8472,6.090,-1.330,-5.110,413,350,149,337,278,2025-05-23T23:44:36.580594
10825,-0.5329,-0.0522,0.8452,4.480,0.420,-4.620,408,415,149,280,242,2025-05-23T23:44:36.599647
10826,-0.5461,-0.0586,0.8496,1.820,0.770,-3.780,398,348,149,305,241,2025-05-23T23:44:36.614662
10827,-0.5675,-0.0678,0.8506,0.280,-0.420,-2.310,394,351,146,333,268,2025-05-23T23:44:36.629297
10828,-0.5627,-0.0688,0.8579,-1.120,-0.350,-1.470,378,403,148,338,245,2025-05-23T23:44:36.641726
10829,-0.5588,-0.0703,0.8701,-1.960,1.120,-0.980,335,392,147,313,281,2025-05-23T23:44:36.654479
10830,-0.5602,-0.0834,0.8691,-0.490,0.490,-0.630,382,393,145,327,291,2025-05-23T23:44:36.666307
10831,-0.5495,-0.0786,0.8569,1.470,-2.170,-0.560,396,371,150,331,294,2025-05-23T23:44:36.677491
10832,-0.5368,-0.0678,0.8457,1.680,-3.010,-0.840,400,363,235,347,315,2025-05-23T23:44:36.689237
10833,-0.5441,-0.0688,0.8296,1.120,-2.800,-0.630,422,414,231,361,327,2025-05-23T23:44:36.700598
10834,-0.5514,-0.0717,0.8306,0.140,-3.080,-0.630,400,416,234,353,320,2025-05-23T23:44:36.712099
10835,-0.5524,-0.0756,0.8413,-1.050,-1.820,-0.420,374,401,241,347,330,2025-05-23T23:44:36.728948
10836,-0.5549,-0.0815,0.8496,-1.680,-1.190,0.070,379,417,245,349,346,2025-05-23T23:44:36.738537
10837,-0.5544,-0.0791,0.8550,-1.400,-1.540,0.490,368,389,254,368,328,2025-05-23T23:44:36.752231
10838,-0.5495,-0.0810,0.8701,-1.190,-2.940,0.420,338,418,264,353,323,2025-05-23T23:44:36.765519
10839,-0.5305,-0.0771,0.8774,-0.280,-3.430,-0.490,395,405,252,312,337,2025-05-23T23:44:36.777679
10840,-0.5290,-0.0737,0.8789,-0.560,-2.940,-1.330,396,383,282,351,323,2025-05-23T23:44:36.791511
10841,-0.5348,-0.0742,0.8662,-1.120,-2.100,-1.820,413,405,273,309,335,2025-05-23T23:44:36.805138
10842,-0.5412,-0.0864,0.8535,-0.980,-2.240,-1.540,427,420,279,353,338,2025-05-23T23:44:36.818663
10843,-0.5490,-0.0932,0.8457,-0.700,-2.730,-0.840,421,417,225,327,317,2025-05-23T23:44:36.830057
10844,-0.5568,-0.0976,0.8281,0.070,-3.220,0.000,408,396,201,280,258,2025-05-23T23:44:36.843919
10845,-0.5592,-0.0942,0.8194,0.910,-3.290,0.140,429,405,177,318,297,2025-05-23T23:44:36.856238
10846,-0.5627,-0.0893,0.8267,1.050,-3.080,-0.630,407,395,175,336,280,2025-05-23T23:44:36.875699
10847,-0.5578,-0.0888,0.8311,1.330,-2.520,-1.120,357,400,198,336,246,2025-05-23T23:44:36.892475
10848,-0.5534,-0.0883,0.8398,1.820,-2.450,-1.400,393,423,196,332,210,2025-05-23T23:44:36.906664
10849,-0.5578,-0.0776,0.8511,2.660,-3.290,-2.520,423,423,264,299,315,2025-05-23T23:44:36.922689
10850,-0.5461,-0.0717,0.8696,3.640,-3.710,-3.640,407,421,259,340,338,2025-05-23T23:44:36.933544
10851,-0.5392,-0.0698,0.8838,4.340,-3.220,-3.990,433,394,276,365,338,2025-05-23T23:44:36.946293
10852,-0.5412,-0.0839,0.8891,6.370,-4.130,-4.830,407,390,287,349,326,2025-05-23T23:44:36.957693
10853,-0.5275,-0.0776,0.8789,8.470,-4.620,-5.810,424,421,273,368,341,2025-05-23T23:44:36.970042
10854,-0.5144,-0.0664,0.8603,9.380,-2.380,-7.420,395,347,283,366,344,2025-05-23T23:44:36.983978
10855,-0.5285,-0.0732,0.8462,8.750,0.490,-8.540,370,340,280,371,320,2025-05-23T23:44:36.996061
10856,-0.5466,-0.0761,0.8330,8.470,0.280,-8.750,371,404,277,348,324,2025-05-23T23:44:37.008528
10857,-0.5534,-0.0722,0.8233,7.630,0.490,-8.960,371,388,263,363,345,2025-05-23T23:44:37.018123
10858,-0.5671,-0.0771,0.8159,7.630,0.630,-8.890,386,397,282,335,324,2025-05-23T23:44:37.029173
10859,-0.5749,-0.0712,0.8208,7.840,0.490,-7.910,358,421,292,363,343,2025-05-23T23:44:37.042475
10860,-0.5832,-0.0683,0.8316,7.770,-0.280,-6.020,384,418,222,347,290,2025-05-23T23:44:37.055707
10861,-0.5851,-0.0664,0.8428,7.350,-1.750,-3.640,395,393,210,307,278,2025-05-23T23:44:37.073617
10862,-0.5763,-0.0752,0.8379,7.420,-3.150,-2.520,417,390,212,323,287,2025-05-23T23:44:37.090083
10863,-0.5749,-0.0649,0.8364,7.700,-2.240,-2.660,393,418,183,316,297,2025-05-23T23:44:37.107061
10864,-0.5744,-0.0576,0.8296,7.840,0.280,-2.380,402,399,212,280,249,2025-05-23T23:44:37.125291
10865,-0.5949,-0.0512,0.8150,6.230,1.680,-0.280,386,395,210,296,298,2025-05-23T23:44:37.147509
10866,-0.6012,-0.0517,0.8164,4.270,1.610,2.030,390,432,271,343,307,2025-05-23T23:44:37.160516
10867,-0.5783,-0.0625,0.8330,3.570,2.730,5.110,384,407,277,340,332,2025-05-23T23:44:37.175288
10868,-0.5514,-0.0561,0.8467,3.500,3.640,8.960,391,426,263,358,341,2025-05-23T23:44:37.184837
10869,-0.5119,-0.0444,0.8628,3.990,5.880,12.530,397,407,273,364,329,2025-05-23T23:44:37.197179
10870,-0.5329,-0.0244,0.8667,1.680,7.560,15.470,398,363,294,316,303,2025-05-23T23:44:37.206935
10871,-0.5402,-0.0176,0.8584,-3.220,6.790,17.500,393,400,242,365,341,2025-05-23T23:44:37.217220
10872,-0.5344,-0.0307,0.8311,-9.870,8.470,20.720,391,421,249,365,316,2025-05-23T23:44:37.228547
10873,-0.6002,-0.0610,0.8247,-13.090,5.670,25.620,299,417,247,358,344,2025-05-23T23:44:37.244533
10874,-0.5910,-0.0615,0.8242,-13.160,3.080,27.720,399,399,244,363,328,2025-05-23T23:44:37.257078
10875,-0.5427,-0.0615,0.8335,-12.880,10.990,34.930,368,391,239,324,338,2025-05-23T23:44:37.272248
10876,-0.6173,-0.0639,0.8311,-14.420,12.880,42.560,414,306,249,264,329,2025-05-23T23:44:37.281943
10877,-0.6139,-0.0639,0.8272,-16.170,6.580,45.010,405,368,250,237,324,2025-05-23T23:44:37.293768
10878,-0.6032,-0.0342,0.8174,-20.860,1.750,44.520,404,366,250,253,329,2025-05-23T23:44:37.313793
10879,-0.6080,-0.0439,0.8169,-26.460,-0.700,41.160,388,342,259,261,316,2025-05-23T23:44:37.351962
10880,-0.5807,-0.0581,0.8418,-27.720,-4.900,36.260,412,391,253,251,327,2025-05-23T23:44:37.365456
10881,-0.5358,-0.0517,0.8818,-26.320,-5.880,29.750,391,381,195,177,265,2025-05-23T23:44:37.376639
10882,-0.4880,-0.0600,0.9160,-22.400,-0.840,22.190,417,399,167,183,287,2025-05-23T23:44:37.386085
10883,-0.4612,-0.0664,0.9272,-14.490,1.960,15.190,409,390,268,265,318,2025-05-23T23:44:37.396359
10884,-0.4616,-0.0908,0.8872,-6.370,4.900,6.790,404,385,258,253,345,2025-05-23T23:44:37.405607
10885,-0.4782,-0.1074,0.8618,4.130,5.180,-0.980,399,411,265,257,327,2025-05-23T23:44:37.415752
10886,-0.4982,-0.0878,0.8642,13.580,6.790,-8.540,426,415,266,266,311,2025-05-23T23:44:37.426590
10887,-0.5266,-0.0737,0.8760,19.950,9.590,-15.960,394,423,266,275,348,2025-05-23T23:44:37.441629
10888,-0.5754,-0.0503,0.8677,28.490,7.770,-24.150,347,397,181,207,315,2025-05-23T23:44:37.453471
10889,-0.5939,-0.0342,0.8613,31.360,2.940,-30.730,382,429,159,178,265,2025-05-23T23:44:37.465751
10890,-0.5856,-0.0264,0.8335,31.290,-1.680,-35.490,381,403,156,214,290,2025-05-23T23:44:37.479114
10891,-0.5827,-0.0259,0.8159,30.730,-4.340,-41.090,417,351,143,232,288,2025-05-23T23:44:37.495106
10892,-0.5617,-0.0156,0.7935,25.620,-3.500,-44.310,395,396,145,262,294,2025-05-23T23:44:37.508450
10893,-0.6281,-0.0185,0.7779,21.350,0.210,-45.290,425,412,147,281,278,2025-05-23T23:44:37.521815
10894,-0.6300,-0.0142,0.7720,14.140,-0.630,-43.750,309,419,146,251,285,2025-05-23T23:44:37.534505
10895,-0.6461,-0.0093,0.7642,4.760,-2.170,-41.020,362,418,145,305,277,2025-05-23T23:44:37.549464
10896,-0.6476,-0.0078,0.7813,-6.230,-4.480,-36.050,396,378,142,272,281,2025-05-23T23:44:37.562022
10897,-0.6446,-0.0644,0.7554,-14.000,0.350,-25.200,381,383,135,332,282,2025-05-23T23:44:37.573014
10898,-0.7657,-0.1039,0.8252,-9.240,1.890,-6.860,408,410,140,295,235,2025-05-23T23:44:37.586587
10899,-0.8086,-0.0737,0.8398,-1.820,-6.720,1.820,415,405,144,278,291,2025-05-23T23:44:37.598980
10900,-0.7257,-0.0249,0.8530,2.030,-11.270,5.110,403,400,202,343,325,2025-05-23T23:44:37.611016
10901,-0.6310,-0.0156,0.8564,1.680,-11.410,8.330,338,366,229,356,277,2025-05-23T23:44:37.621584
10902,-0.5802,-0.0307,0.8198,1.960,-9.590,10.500,380,374,233,349,275,2025-05-23T23:44:37.635095
10903,-0.5236,-0.0059,0.8169,0.630,-9.380,9.800,405,412,254,371,334,2025-05-23T23:44:37.647400
10904,-0.4860,0.0010,0.7998,-1.540,-2.800,9.100,402,399,231,353,327,2025-05-23T23:44:37.658035
10905,-0.5407,-0.0200,0.8184,-6.580,-3.780,8.540,400,402,243,363,322,2025-05-23T23:44:37.667453
10906,-0.5314,-0.0449,0.8384,-11.130,-3.570,6.230,391,404,242,331,334,2025-05-23T23:44:37.677168
10907,-0.5431,-0.0547,0.8579,-11.620,0.630,5.740,392,344,274,373,286,2025-05-23T23:44:37.688639
10908,-0.5675,-0.0712,0.8491,-10.570,2.730,3.920,404,411,243,351,332,2025-05-23T23:44:37.699569
10909,-0.5822,-0.0634,0.8472,-10.500,2.310,2.870,419,431,245,366,333,2025-05-23T23:44:37.711243
10910,-0.5905,-0.0805,0.8413,-11.480,-0.070,1.680,392,353,234,309,324,2025-05-23T23:44:37.727768
10911,-0.5885,-0.0932,0.8423,-11.340,-2.450,-0.350,413,395,240,350,336,2025-05-23T23:44:37.744733
10912,-0.5851,-0.0815,0.8403,-11.480,-5.390,-2.590,427,394,177,348,277,2025-05-23T23:44:37.754097
10913,-0.5963,-0.0800,0.8252,-11.970,-6.930,-4.130,417,386,144,327,290,2025-05-23T23:44:37.762910
10914,-0.6154,-0.0878,0.8145,-11.760,-8.610,-4.130,420,400,147,320,284,2025-05-23T23:44:37.772380
10915,-0.6242,-0.0893,0.8135,-12.390,-10.010,-3.710,405,417,152,332,276,2025-05-23T23:44:37.782631
10916,-0.6129,-0.0927,0.8115,-13.440,-10.220,-2.100,364,356,149,330,261,2025-05-23T23:44:37.802773
10917,-0.5929,-0.0893,0.8203,-11.200,-8.190,-0.560,330,394,219,331,261,2025-05-23T23:44:37.821869
10918,-0.5773,-0.0825,0.8325,-9.590,-7.700,-0.350,389,402,240,353,331,2025-05-23T23:44:37.836234
10919,-0.5514,-0.0864,0.8398,-8.260,-7.070,0.280,388,401,242,358,328,2025-05-23T23:44:37.848653
10920,-0.5451,-0.0961,0.8408,-6.440,-7.420,2.100,397,415,240,316,290,2025-05-23T23:44:37.860765
10921,-0.5529,-0.0883,0.8340,-3.360,-8.750,3.500,415,422,242,343,331,2025-05-23T23:44:37.884706
10922,-0.5563,-0.0888,0.8257,-1.050,-11.200,2.310,418,425,267,308,328,2025-05-23T23:44:37.898045
10923,-0.5832,-0.0844,0.8369,1.680,-15.050,-0.840,423,345,248,308,338,2025-05-23T23:44:37.912680
10924,-0.5822,-0.1000,0.8462,6.300,-12.740,0.420,374,399,252,326,335,2025-05-23T23:44:37.923160
10925,-0.5895,-0.0908,0.8301,11.620,-7.140,3.430,415,399,248,348,300,2025-05-23T23:44:37.932707
10926,-0.5885,-0.0703,0.8062,13.160,-2.170,4.690,408,401,257,353,338,2025-05-23T23:44:37.945365
10927,-0.5490,-0.0644,0.7784,12.250,2.520,5.530,382,417,250,272,321,2025-05-23T23:44:37.957394
10928,-0.5461,-0.0205,0.7515,5.740,11.340,6.440,389,406,241,330,341,2025-05-23T23:44:37.967851
10929,-0.6676,-0.0205,0.7520,-2.800,9.660,11.620,391,395,253,302,332,2025-05-23T23:44:37.979573
10930,-0.6373,-0.0625,0.7940,-6.720,-3.990,9.100,419,418,251,351,321,2025-05-23T23:44:37.989648
10931,-0.5841,-0.0434,0.8467,-7.140,-7.280,10.080,415,409,253,355,323,2025-05-23T23:44:38.000926
10932,-0.5358,-0.0532,0.8828,-9.030,0.630,6.860,338,420,250,366,328,2025-05-23T23:44:38.013684
10933,-0.5915,-0.0678,0.9018,-5.460,-1.750,8.050,410,422,180,283,264,2025-05-23T23:44:38.028931
10934,-0.4997,-0.0508,0.8804,-4.620,0.070,10.290,374,423,235,330,333,2025-05-23T23:44:38.051801
10935,-0.5666,-0.0361,0.8164,-6.300,5.460,17.360,400,383,251,328,319,2025-05-23T23:44:38.069467
10936,-0.6041,-0.0722,0.7793,-8.330,0.770,19.390,415,340,250,332,341,2025-05-23T23:44:38.093167
10937,-0.5832,-0.0864,0.7710,-8.750,-5.670,17.360,342,382,252,257,339,2025-05-23T23:44:38.107514
10938,-0.5529,-0.0771,0.7769,-7.910,-4.900,12.740,380,386,251,345,335,2025-05-23T23:44:38.124271
10939,-0.5514,-0.0761,0.8135,-8.260,-1.400,8.540,395,405,257,330,331,2025-05-23T23:44:38.154556
10940,-0.5607,-0.0649,0.8613,-7.140,-2.450,6.720,400,366,252,333,326,2025-05-23T23:44:38.169601
10941,-0.5744,-0.0752,0.8916,-5.110,-5.250,4.900,354,396,168,299,287,2025-05-23T23:44:38.182912
10942,-0.5392,-0.0688,0.9418,-1.400,0.630,3.360,404,398,164,301,294,2025-05-23T23:44:38.202246
10943,-0.5612,-0.0239,0.9223,-1.400,6.370,2.450,414,426,158,306,265,2025-05-23T23:44:38.227547
10944,-0.6051,-0.0366,0.8779,-2.520,2.240,1.540,366,383,157,288,260,2025-05-23T23:44:38.243495
10945,-0.5851,-0.0556,0.8237,-2.940,-8.680,1.050,389,412,156,291,281,2025-05-23T23:44:38.255938
10946,-0.5500,-0.0400,0.7862,-4.480,-11.550,-0.280,406,421,146,292,296,2025-05-23T23:44:38.267389
10947,-0.5656,-0.0415,0.7906,-6.510,-10.850,-3.360,420,422,158,311,271,2025-05-23T23:44:38.279493
10948,-0.6100,-0.0903,0.8140,-6.440,-11.410,-2.870,399,349,158,289,295,2025-05-23T23:44:38.289951
10949,-0.6529,-0.0986,0.8545,-5.530,-12.530,-0.770,402,399,148,302,244,2025-05-23T23:44:38.302368
10950,-0.6852,-0.0727,0.8974,-7.210,-14.910,0.910,403,417,162,292,278,2025-05-23T23:44:38.315652
10951,-0.6666,-0.0791,0.9033,-10.290,-20.300,0.980,404,399,204,282,313,2025-05-23T23:44:38.333267
10952,-0.6251,-0.0844,0.8901,-11.480,-18.970,-0.840,411,421,230,328,320,2025-05-23T23:44:38.344397
10953,-0.5856,-0.1078,0.8618,-8.610,-15.750,-0.210,400,350,247,331,327,2025-05-23T23:44:38.356567
10954,-0.5324,-0.1283,0.8076,-3.780,-12.670,3.710,385,386,254,328,338,2025-05-23T23:44:38.370042
10955,-0.4812,-0.1376,0.7613,-1.400,-11.970,5.110,414,403,260,348,326,2025-05-23T23:44:38.385630
10956,-0.4504,-0.1557,0.7549,17.640,-9.590,4.480,411,419,269,350,346,2025-05-23T23:44:38.406218
10957,-0.4709,-0.1244,0.7779,-0.560,-7.000,2.520,370,410,272,356,305,2025-05-23T23:44:38.418858
10958,-0.4919,-0.1161,0.7984,-0.420,-4.760,0.700,385,423,254,347,336,2025-05-23T23:44:38.432624
10959,-0.5324,-0.1161,0.8208,0.700,-2.520,-0.560,418,424,269,333,342,2025-05-23T23:44:38.444744
10960,-0.5651,-0.0913,0.8462,1.330,-0.420,-2.450,425,399,283,355,348,2025-05-23T23:44:38.460308
10961,-0.5919,-0.0693,0.8389,2.100,-0.210,-3.570,398,396,271,332,339,2025-05-23T23:44:38.470075
10962,-0.5993,-0.0522,0.8369,0.980,-1.470,-3.850,415,389,266,351,338,2025-05-23T23:44:38.483104
10963,-0.5939,-0.0420,0.8442,-0.630,-2.800,-4.340,402,408,269,313,332,2025-05-23T23:44:38.496743
10964,-0.5880,-0.0361,0.8506,-2.030,-3.360,-5.460,401,380,270,349,329,2025-05-23T23:44:38.510897
10965,-0.5866,-0.0317,0.8623,-2.520,-2.940,-7.140,411,384,175,249,293,2025-05-23T23:44:38.523874
10966,-0.5783,-0.0361,0.8672,-2.240,-1.960,-7.770,393,371,169,279,298,2025-05-23T23:44:38.538274
10967,-0.5846,-0.0400,0.8740,-1.750,-3.360,-7.350,400,361,171,294,294,2025-05-23T23:44:38.553036
10968,-0.5788,-0.0498,0.8589,-0.700,-3.850,-6.650,351,351,217,300,314,2025-05-23T23:44:38.567732
10969,-0.5583,-0.0542,0.8486,0.000,-2.170,-6.650,347,374,250,336,292,2025-05-23T23:44:38.585785
10970,-0.5519,-0.0620,0.8389,0.490,-0.910,-6.440,379,383,260,299,326,2025-05-23T23:44:38.599040
10971,-0.5549,-0.0800,0.8272,2.170,-1.260,-6.580,343,389,263,344,344,2025-05-23T23:44:38.613116
10972,-0.5436,-0.0986,0.8208,4.200,-1.680,-6.230,411,422,273,330,350,2025-05-23T23:44:38.623934
10973,-0.5388,-0.0922,0.8154,4.970,-0.910,-6.300,427,436,267,322,333,2025-05-23T23:44:38.637318
10974,-0.5466,-0.0947,0.8218,3.850,0.700,-6.510,392,415,271,347,347,2025-05-23T23:44:38.657387
10975,-0.5646,-0.1015,0.8374,2.520,-0.070,-5.950,407,409,200,232,317,2025-05-23T23:44:38.670162
10976,-0.5749,-0.1025,0.8486,1.400,-1.400,-5.180,412,400,177,295,295,2025-05-23T23:44:38.682744
10977,-0.5802,-0.1015,0.8589,0.980,-1.470,-4.410,399,416,173,280,289,2025-05-23T23:44:38.694348
10978,-0.5778,-0.1010,0.8486,1.680,-1.960,-3.640,417,429,174,284,295,2025-05-23T23:44:38.707033
10979,-0.5695,-0.0966,0.8389,2.240,-1.610,-3.430,345,421,176,268,264,2025-05-23T23:44:38.718952
10980,-0.5656,-0.0956,0.8374,2.310,-2.030,-3.220,347,422,178,281,296,2025-05-23T23:44:38.731552
10981,-0.5558,-0.0917,0.8389,1.750,-2.940,-2.800,388,367,180,289,295,2025-05-23T23:44:38.745476
10982,-0.5510,-0.0942,0.8394,1.960,-3.430,-1.750,404,413,178,296,255,2025-05-23T23:44:38.759947
10983,-0.5446,-0.0839,0.8428,2.450,-3.360,-1.260,416,352,173,282,296,2025-05-23T23:44:38.773503
10984,-0.5446,-0.0761,0.8442,1.960,-2.730,-1.610,412,353,161,291,281,2025-05-23T23:44:38.786856
10985,-0.5480,-0.0756,0.8462,0.980,-1.820,-2.170,397,398,202,301,307,2025-05-23T23:44:38.800186
10986,-0.5641,-0.0742,0.8467,-0.350,-1.750,-2.240,415,409,258,337,340,2025-05-23T23:44:38.815449
10987,-0.5788,-0.0766,0.8472,-0.980,-2.660,-2.590,403,344,268,330,292,2025-05-23T23:44:38.827938
10988,-0.5827,-0.0771,0.8462,-1.330,-3.710,-2.730,376,401,264,340,331,2025-05-23T23:44:38.842551
10989,-0.5880,-0.0800,0.8433,-1.400,-5.040,-2.800,393,400,275,343,336,2025-05-23T23:44:38.856597
10990,-0.5763,-0.0947,0.8477,0.490,-4.970,-1.540,396,402,235,309,308,2025-05-23T23:44:38.876820
10991,-0.5827,-0.0776,0.8423,2.100,-5.670,-0.980,385,399,191,286,281,2025-05-23T23:44:38.898027
10992,-0.5690,-0.0737,0.8408,1.890,-6.370,-1.820,416,353,186,300,248,2025-05-23T23:44:38.918503
10993,-0.5597,-0.0756,0.8374,1.260,-5.740,-2.800,402,403,184,254,286,2025-05-23T23:44:38.931928
10994,-0.5602,-0.0771,0.8379,0.630,-4.690,-3.570,424,421,181,295,286,2025-05-23T23:44:38.946011
10995,-0.5754,-0.0732,0.8452,-0.280,-4.550,-3.990,404,353,180,298,287,2025-05-23T23:44:38.961941
10996,-0.5817,-0.0752,0.8413,-0.420,-4.830,-3.990,416,411,158,284,255,2025-05-23T23:44:38.974906
10997,-0.5773,-0.0800,0.8423,17.850,-4.410,-2.800,356,404,170,302,243,2025-05-23T23:44:38.989709
10998,-0.5705,-0.0727,0.8408,0.350,-4.620,-2.520,402,377,173,299,273,2025-05-23T23:44:39.005891
