SeqNum,AccX,AccY,AccZ,GyroX,GyroY,GyroZ,Flex,Force1,Force2,Force3,Force4,TimestampReception
1,-0.4060,0.8501,0.1371,2.590,-11.060,-11.375,1.30,1,1,1,1,2025-06-04T19:27:41.054354
2,-0.5392,0.8237,0.1474,-7.105,3.535,2.765,1.33,1,1,1,1,2025-06-04T19:27:41.054538
3,-0.5295,0.8228,0.1420,-7.175,2.695,2.100,1.26,1,1,1,1,2025-06-04T19:27:41.054538
4,-0.5256,0.8252,0.1401,-7.175,1.015,1.890,1.21,1,1,1,1,2025-06-04T19:27:41.054538
5,-0.5300,0.8281,0.1391,-7.210,0.770,1.925,1.24,1,1,1,1,2025-06-04T19:27:41.054538
6,-0.5344,0.8262,0.1381,-6.650,1.540,2.240,1.25,1,1,1,1,2025-06-04T19:27:41.054538
7,-0.5348,0.8320,0.1337,-6.160,3.045,2.660,1.16,1,1,1,1,2025-06-04T19:27:41.054538
8,-0.5319,0.8306,0.1327,-5.810,4.060,3.080,1.22,1,1,1,1,2025-06-04T19:27:41.054538
9,-0.5173,0.8340,0.1362,-5.390,5.145,2.905,1.26,1,1,1,1,2025-06-04T19:27:41.054538
10,-0.5026,0.8345,0.1405,-5.250,6.965,2.590,1.30,1,1,1,1,2025-06-04T19:27:41.054538
11,-0.4924,0.8296,0.1352,-5.040,8.400,2.730,1.26,1,1,1,1,2025-06-04T19:27:41.054538
12,-0.4763,0.8316,0.1313,-5.145,9.590,2.975,1.10,1,1,1,1,2025-06-04T19:27:41.054538
13,-0.4778,0.8276,0.1352,-5.705,10.220,3.465,1.20,1,1,1,1,2025-06-04T19:27:41.055582
14,-0.4875,0.8267,0.1381,-6.510,10.150,4.340,1.23,1,1,1,1,2025-06-04T19:27:41.055582
15,-0.4919,0.8233,0.1342,-7.455,9.590,5.250,1.27,1,1,1,1,2025-06-04T19:27:41.055582
16,-0.4934,0.8164,0.1337,-8.435,10.290,5.775,1.12,1,1,1,1,2025-06-04T19:27:41.055582
17,-0.4812,0.8174,0.1308,-9.030,13.720,6.020,1.06,1,1,1,1,2025-06-04T19:27:41.055582
18,-0.4582,0.8130,0.1298,-9.065,21.525,5.985,1.21,1,1,1,1,2025-06-04T19:27:41.055582
19,-0.4529,0.8115,0.1303,-8.750,31.395,5.740,0.98,1,1,1,1,2025-06-04T19:27:41.055582
20,-0.4309,0.8115,0.1244,-8.295,42.595,5.600,1.15,1,1,1,1,2025-06-04T19:27:41.055582
21,-0.4260,0.8052,0.1279,-7.560,52.430,6.230,1.25,1,1,1,1,2025-06-04T19:27:41.055582
22,-0.4597,0.8067,0.1283,-6.720,58.625,7.595,1.30,1,1,1,1,2025-06-04T19:27:41.055582
23,-0.5109,0.8262,0.1035,-7.140,59.325,7.175,1.27,1,1,1,1,2025-06-04T19:27:41.055582
24,-0.4719,0.7950,0.0986,-3.990,66.780,5.425,1.27,1,1,1,1,2025-06-04T19:27:41.055582
25,-0.5080,0.8198,0.1035,-2.205,66.780,4.165,1.12,1,1,1,1,2025-06-04T19:27:41.055582
26,-0.5100,0.8208,0.1005,-0.105,67.060,3.500,1.21,1,1,1,1,2025-06-04T19:27:41.161009
27,-0.5324,0.8237,0.0932,0.070,65.520,2.870,1.24,1,1,1,1,2025-06-04T19:27:41.161990
28,-0.5514,0.8208,0.0854,1.330,63.140,2.065,1.16,1,1,1,1,2025-06-04T19:27:41.161990
29,-0.5719,0.8189,0.0820,1.505,59.780,1.540,1.20,1,1,1,1,2025-06-04T19:27:41.162271
30,-0.5915,0.8233,0.0859,2.485,45.115,1.225,1.07,1,1,1,1,2025-06-04T19:27:41.162271
31,-0.6129,0.8223,0.0849,0.455,44.065,1.890,1.15,1,1,1,1,2025-06-04T19:27:41.401452
32,-0.6334,0.8252,0.0766,-1.155,29.925,2.765,1.19,1,1,1,1,2025-06-04T19:27:41.401452
33,-0.6554,0.8179,0.0742,-3.150,13.685,3.220,1.26,1,1,1,1,2025-06-04T19:27:41.401452
34,-0.6690,0.8184,0.0747,-5.285,-4.060,3.080,1.22,1,1,1,1,2025-06-04T19:27:41.401452
35,-0.6417,0.8111,0.0698,-8.260,-19.075,2.625,1.25,1,1,1,1,2025-06-04T19:27:41.401452
36,-0.6188,0.8179,0.0722,-10.290,-30.030,1.855,1.25,1,1,1,1,2025-06-04T19:27:41.401452
37,-0.6012,0.8125,0.0727,-11.620,-37.205,1.330,1.28,1,1,1,1,2025-06-04T19:27:41.401452
38,-0.5836,0.8140,0.0766,-12.355,-41.755,1.295,1.31,1,1,1,1,2025-06-04T19:27:41.401452
39,-0.5822,0.8164,0.0795,-13.370,-44.275,1.540,1.34,1,1,1,1,2025-06-04T19:27:41.401452
40,-0.5861,0.8145,0.0854,-12.845,-45.605,2.240,1.30,1,1,1,1,2025-06-04T19:27:41.401452
41,-0.5988,0.8218,0.0937,-11.760,-46.095,3.605,1.25,1,1,1,1,2025-06-04T19:27:41.401452
42,-0.6124,0.8213,0.1098,-10.535,-46.865,5.740,1.24,1,1,1,1,2025-06-04T19:27:41.401452
43,-0.6085,0.8194,0.1171,-9.275,-46.480,8.470,1.24,1,1,1,1,2025-06-04T19:27:41.401452
44,-0.5856,0.8208,0.1215,-7.595,-43.260,11.725,1.24,1,1,1,1,2025-06-04T19:27:41.401452
45,-0.5529,0.8135,0.1259,-5.845,-37.310,14.385,1.30,1,1,1,1,2025-06-04T19:27:41.401452
46,-0.5285,0.8096,0.1337,-3.920,-31.255,15.400,1.31,1,1,1,1,2025-06-04T19:27:41.402449
47,-0.5431,0.7998,0.1337,-2.170,-27.020,11.620,1.26,1,1,1,1,2025-06-04T19:27:41.402449
48,-0.6290,0.7847,0.1337,0.035,-35.455,-7.805,1.27,1,1,1,1,2025-06-04T19:27:41.402449
49,-0.3782,0.7462,0.1630,7.560,-55.195,-21.280,1.30,1,1,1,1,2025-06-04T19:27:41.402449
50,-0.1776,0.7847,0.2162,6.055,-58.345,-10.010,1.29,1,1,1,1,2025-06-04T19:27:41.402449
51,-0.2679,0.8184,0.2064,1.610,-56.770,1.610,1.29,1,1,1,1,2025-06-04T19:27:41.402449
52,-0.3816,0.8364,0.1776,1.155,-46.935,1.785,1.32,1,1,1,1,2025-06-04T19:27:41.402449
53,-0.4646,0.8535,0.1669,0.245,-33.985,-1.155,1.15,1,1,1,1,2025-06-04T19:27:41.402449
54,-0.4768,0.8686,0.1586,-0.175,-23.030,-2.380,1.23,1,1,1,1,2025-06-04T19:27:41.772358
55,-0.4875,0.8682,0.1479,-2.415,-14.070,-0.910,1.23,1,1,1,1,2025-06-04T19:27:41.772358
56,-0.5202,0.8603,0.1322,-2.170,-11.480,-0.175,1.27,1,1,1,1,2025-06-04T19:27:41.772358
57,-0.5031,0.8452,0.1322,-2.940,-13.230,-0.245,1.17,1,1,1,1,2025-06-04T19:27:41.772358
58,-0.4587,0.8379,0.1357,-3.255,-17.570,0.665,1.22,1,1,1,1,2025-06-04T19:27:41.772358
59,-0.4182,0.8276,0.1420,-4.515,-18.340,2.205,1.30,1,1,1,1,2025-06-04T19:27:41.772358
60,-0.4192,0.8296,0.1606,-3.955,-15.435,3.010,1.15,1,1,1,1,2025-06-04T19:27:41.772358
61,-0.4441,0.8272,0.1810,-3.815,-11.165,3.290,1.21,1,1,1,1,2025-06-04T19:27:41.772358
62,-0.4519,0.8267,0.1937,-3.920,-6.755,3.255,1.28,1,1,1,1,2025-06-04T19:27:41.772358
63,-0.4704,0.8076,0.2220,-3.920,-3.395,3.465,1.30,1,1,1,1,2025-06-04T19:27:41.772358
64,-0.4641,0.7871,0.2455,-3.220,-2.555,4.270,1.26,1,1,1,1,2025-06-04T19:27:41.772358
65,-0.4768,0.7823,0.2616,-2.100,-5.320,5.670,1.28,1,1,1,1,2025-06-04T19:27:41.772358
66,-0.4958,0.7676,0.2664,-0.770,-11.060,6.475,1.24,1,1,1,1,2025-06-04T19:27:41.772358
67,-0.4968,0.7501,0.2464,1.190,-16.765,5.075,1.30,1,1,1,1,2025-06-04T19:27:41.772358
68,-0.4636,0.7403,0.2801,6.440,-17.780,2.275,1.25,1,1,1,1,2025-06-04T19:27:41.772358
69,-0.3875,0.7379,0.3309,12.075,-13.650,0.105,1.23,1,1,1,1,2025-06-04T19:27:41.772358
70,-0.3548,0.7569,0.3231,18.865,-6.335,-0.595,1.28,1,1,1,1,2025-06-04T19:27:41.772358
71,-0.3577,0.8111,0.2538,21.350,5.460,-0.770,1.26,1,1,1,1,2025-06-04T19:27:41.772358
72,-0.4260,0.8032,0.2001,28.560,17.150,-5.075,1.27,1,1,1,1,2025-06-04T19:27:41.772358
73,-0.4475,0.8150,0.1659,34.265,30.870,-10.605,1.29,1,1,1,1,2025-06-04T19:27:41.772358
74,-0.4231,0.8306,0.1166,36.435,41.160,-12.075,1.30,1,1,1,1,2025-06-04T19:27:41.772358
75,-0.4494,0.8247,0.1440,40.600,45.850,-11.830,1.19,1,1,1,1,2025-06-04T19:27:41.772358
76,-0.5100,0.8384,0.1469,42.350,48.230,-11.375,1.23,1,1,1,1,2025-06-04T19:27:41.772358
77,-0.5680,0.8442,0.1469,44.065,47.390,-10.675,1.25,1,1,1,1,2025-06-04T19:27:41.772358
78,-0.5915,0.8691,0.0883,41.090,42.315,-9.030,1.28,1,1,1,1,2025-06-04T19:27:42.369574
79,-0.6144,0.8691,0.0712,40.390,35.490,-6.650,1.32,1,1,1,1,2025-06-04T19:27:42.369574
80,-0.6310,0.8682,0.0571,39.760,25.935,-4.935,1.26,1,1,1,1,2025-06-04T19:27:42.369574
81,-0.6525,0.8857,0.0673,36.470,17.360,-3.080,1.12,1,1,1,1,2025-06-04T19:27:42.369574
82,-0.6320,0.8618,0.0634,34.545,7.630,-0.140,1.23,1,1,1,1,2025-06-04T19:27:42.369574
83,-0.6027,0.8599,0.0493,30.695,0.735,2.415,1.24,1,1,1,1,2025-06-04T19:27:42.369574
84,-0.5802,0.8569,0.0410,27.440,-3.850,5.425,1.31,1,1,1,1,2025-06-04T19:27:42.369574
85,-0.5553,0.8662,0.0224,23.730,-7.910,8.435,1.25,1,1,1,1,2025-06-04T19:27:42.369574
86,-0.5348,0.8516,-0.0078,21.385,-8.750,11.130,1.32,1,1,1,1,2025-06-04T19:27:42.369574
87,-0.5251,0.8398,-0.0181,18.760,-8.050,11.375,1.33,1,1,1,1,2025-06-04T19:27:42.369574
88,-0.5192,0.8491,0.0059,16.800,-7.280,10.815,1.25,1,1,1,1,2025-06-04T19:27:42.369574
89,-0.4939,0.8530,0.0254,15.155,-8.260,10.780,1.15,1,1,1,1,2025-06-04T19:27:42.369574
90,-0.5134,0.8716,0.0361,8.680,-9.870,11.480,1.25,1,1,1,1,2025-06-04T19:27:42.369574
91,-0.4987,0.8838,0.0229,3.220,-11.725,11.760,1.22,1,1,1,1,2025-06-04T19:27:42.369574
92,-0.4997,0.8799,0.0034,-1.715,-11.235,11.725,1.11,1,1,1,1,2025-06-04T19:27:42.369574
93,-0.4807,0.8784,-0.0098,-4.410,-11.375,11.130,1.16,1,1,1,1,2025-06-04T19:27:42.369574
94,-0.4704,0.8730,-0.0146,-6.825,-10.395,10.885,1.20,1,1,1,1,2025-06-04T19:27:42.369574
95,-0.4704,0.8774,-0.0146,-9.170,-0.490,10.850,1.21,1,1,1,1,2025-06-04T19:27:42.369574
96,-0.4856,0.8686,0.0078,-11.550,-8.750,11.340,1.27,1,1,1,1,2025-06-04T19:27:42.384462
97,-0.4651,0.8764,0.0254,-13.020,-7.630,11.585,1.22,1,1,1,1,2025-06-04T19:27:42.384462
98,-0.4773,0.9033,0.0669,-14.280,-7.070,12.740,1.28,1,1,1,1,2025-06-04T19:27:42.384462
99,-0.4860,0.9189,0.0673,-15.120,-5.915,14.175,1.29,1,1,1,1,2025-06-04T19:27:42.384462
100,-0.4768,0.9267,0.0649,-17.535,-3.640,14.945,1.27,1,1,1,1,2025-06-04T19:27:42.384462
101,-0.4948,0.9472,0.0781,-18.900,-0.735,15.890,1.28,1,1,1,1,2025-06-04T19:27:42.384462
102,-0.5358,0.9638,0.0766,-19.705,-0.665,18.410,1.33,1,1,1,1,2025-06-04T19:27:42.384462
103,-0.5622,0.9970,0.0956,-18.970,-3.920,23.030,1.19,1,1,1,1,2025-06-04T19:27:42.384462
104,-0.5768,0.9950,0.1249,-19.985,-8.750,26.705,1.27,1,1,1,1,2025-06-04T19:27:42.384462
105,-0.5876,1.0590,0.1298,-21.700,-14.700,31.430,1.31,1,1,1,1,2025-06-04T19:27:42.384462
106,-0.6027,0.9921,0.1230,-22.015,-19.075,36.015,1.28,1,1,1,1,2025-06-04T19:27:42.384462
107,-0.5427,0.9872,0.0849,-22.890,-24.535,40.565,1.01,1,1,1,1,2025-06-04T19:27:42.384462
108,-0.5412,0.9755,0.0551,-25.725,-29.750,44.415,1.14,1,1,1,1,2025-06-04T19:27:42.384462
109,-0.5163,0.9374,0.0112,-26.075,-33.985,45.885,1.06,1,1,1,1,2025-06-04T19:27:42.384462
110,-0.4782,0.9150,-0.0078,-26.600,-35.210,46.585,1.09,1,1,1,1,2025-06-04T19:27:42.384462
111,-0.4387,0.8999,-0.0112,-27.615,-36.155,45.395,1.21,1,1,1,1,2025-06-04T19:27:42.384462
112,-0.4221,0.8618,-0.0122,-30.065,-38.675,43.750,1.26,1,1,1,1,2025-06-04T19:27:42.384462
113,-0.4153,0.8374,-0.0083,-31.815,-42.595,40.705,1.25,1,1,1,1,2025-06-04T19:27:42.384462
114,-0.4099,0.8120,-0.0044,-32.340,-49.385,36.890,1.10,1,1,1,1,2025-06-04T19:27:42.384462
115,-0.3909,0.7881,-0.0112,-33.845,-56.945,32.865,1.24,1,1,1,1,2025-06-04T19:27:42.384462
116,-0.3811,0.7647,-0.0254,-34.790,-64.400,27.545,1.14,1,1,1,1,2025-06-04T19:27:42.384462
117,-0.3475,0.7462,-0.0015,-32.375,-70.455,22.050,1.21,1,1,1,1,2025-06-04T19:27:42.384462
118,-0.2938,0.7388,0.0063,-29.155,-72.450,16.520,1.24,1,1,1,1,2025-06-04T19:27:42.384462
119,-0.2699,0.7232,-0.0005,-27.650,-70.980,10.885,0.98,1,1,1,1,2025-06-04T19:27:42.385465
120,-0.2460,0.7154,0.0088,-23.485,-66.850,4.795,1.17,1,1,1,1,2025-06-04T19:27:42.385465
121,-0.2050,0.7218,0.0215,-18.235,-57.260,-1.925,1.24,1,1,1,1,2025-06-04T19:27:42.385465
122,-0.1810,0.7300,0.0488,-13.020,-42.385,-8.225,1.24,1,1,1,1,2025-06-04T19:27:42.385465
123,-0.1835,0.7330,0.0527,-8.540,-27.720,-13.580,1.26,1,1,1,1,2025-06-04T19:27:42.385465
124,-0.2191,0.7388,0.0537,-6.125,-15.260,-18.060,1.23,1,1,1,1,2025-06-04T19:27:42.385465
125,-0.2606,0.7481,0.0795,-2.310,-7.665,-21.280,1.31,1,1,1,1,2025-06-04T19:27:42.580983
126,-0.3079,0.7593,0.0996,0.840,-4.900,-23.520,1.25,1,1,1,1,2025-06-04T19:27:42.580983
127,-0.3475,0.7730,0.1205,3.045,-5.180,-24.780,1.25,1,1,1,1,2025-06-04T19:27:42.580983
128,-0.3645,0.7828,0.1327,5.565,-7.630,-25.305,1.30,1,1,1,1,2025-06-04T19:27:42.580983
129,-0.3826,0.7993,0.1444,6.895,-9.520,-25.200,1.29,1,1,1,1,2025-06-04T19:27:42.580983
130,-0.3762,0.8174,0.1537,8.995,-10.955,-24.325,1.30,1,1,1,1,2025-06-04T19:27:42.580983
131,-0.3845,0.8359,0.1542,10.955,-11.725,-22.925,1.16,1,1,1,1,2025-06-04T19:27:42.582001
132,-0.3723,0.8535,0.1654,11.970,-11.445,-21.455,1.07,1,1,1,1,2025-06-04T19:27:42.582001
133,-0.3680,0.8691,0.1562,13.195,-10.465,-19.600,1.21,1,1,1,1,2025-06-04T19:27:42.582001
134,-0.3684,0.8818,0.1649,15.470,-9.275,-18.095,1.26,1,1,1,1,2025-06-04T19:27:42.582001
135,-0.3699,0.8940,0.1537,16.590,-8.225,-16.800,1.10,1,1,1,1,2025-06-04T19:27:42.582001
136,-0.3518,0.9013,0.1498,16.800,-5.495,-15.785,1.25,1,1,1,1,2025-06-04T19:27:42.582001
137,-0.3489,0.9096,0.1498,17.290,-2.625,-14.630,1.23,1,1,1,1,2025-06-04T19:27:42.582001
138,-0.3489,0.9228,0.1488,17.255,0.560,-13.370,1.29,1,1,1,1,2025-06-04T19:27:42.582001
139,-0.3665,0.9374,0.1615,16.870,1.960,-12.215,1.25,1,1,1,1,2025-06-04T19:27:42.582001
140,-0.3894,0.9462,0.1703,15.050,1.505,-11.200,1.23,1,1,1,1,2025-06-04T19:27:42.582001
141,-0.4041,0.9433,0.1737,13.335,-0.595,-10.325,1.27,1,1,0,1,2025-06-04T19:27:42.582001
142,-0.4177,0.9414,0.1806,12.215,-4.445,-9.520,1.25,1,1,1,1,2025-06-04T19:27:42.582001
143,-0.4270,0.9355,0.1791,11.270,-9.310,-8.820,1.30,1,1,1,1,2025-06-04T19:27:42.582001
144,-0.4333,0.9292,0.1806,10.605,-14.560,-8.715,1.31,1,1,1,1,2025-06-04T19:27:42.582001
145,-0.4329,0.9184,0.1771,10.010,-19.670,-8.645,1.30,1,1,1,1,2025-06-04T19:27:42.582001
146,-0.4372,0.9140,0.1776,9.170,-24.360,-17.920,1.30,1,1,1,1,2025-06-04T19:27:42.582001
147,-0.4216,0.9018,0.1732,8.295,-27.440,-9.555,1.25,1,1,1,1,2025-06-04T19:27:42.582001
148,-0.3967,0.8935,0.1723,5.950,-27.300,-10.430,1.30,1,1,1,1,2025-06-04T19:27:42.760278
149,-0.3826,0.8857,0.1728,4.305,-25.620,-10.220,1.34,1,1,1,1,2025-06-04T19:27:42.761297
150,-0.3748,0.8789,0.1615,3.045,-23.520,-9.835,1.32,1,1,1,1,2025-06-04T19:27:42.761297
151,-0.3748,0.8682,0.1557,1.155,-20.685,-9.275,1.26,1,1,1,0,2025-06-04T19:27:42.761297
152,-0.3733,0.8667,0.1625,-0.035,-17.395,-8.855,1.23,1,1,1,1,2025-06-04T19:27:42.761297
153,-0.3870,0.8647,0.1718,-0.910,-14.350,-8.330,1.22,1,1,1,1,2025-06-04T19:27:42.761297
154,-0.3938,0.8696,0.1806,-1.400,-12.705,-7.700,1.13,1,1,1,1,2025-06-04T19:27:42.761297
155,-0.3977,0.8686,0.1737,-3.360,-11.865,-6.580,1.23,1,1,1,1,2025-06-04T19:27:42.761297
156,-0.4163,0.8691,0.1674,-4.725,-12.040,-5.670,1.22,1,1,1,1,2025-06-04T19:27:42.762289
157,-0.4290,0.8735,0.1620,-5.530,-12.880,-5.145,1.31,1,1,1,1,2025-06-04T19:27:42.762289
158,-0.4368,0.8691,0.1625,-6.335,-14.525,-4.935,1.34,1,1,1,1,2025-06-04T19:27:42.762289
159,-0.4407,0.8750,0.1649,-6.685,-16.835,-4.865,1.33,1,1,1,1,2025-06-04T19:27:42.762289
160,-0.4480,0.8740,0.1630,-7.385,-18.655,-5.110,1.31,1,1,1,1,2025-06-04T19:27:42.762289
161,-0.4475,0.8760,0.1669,-7.385,-20.370,-5.775,1.23,1,1,1,1,2025-06-04T19:27:42.762289
162,-0.4499,0.8799,0.1664,-7.735,-21.560,-6.265,1.17,1,1,1,1,2025-06-04T19:27:42.762289
163,-0.4592,0.8804,0.1752,-8.365,-22.645,-6.825,1.20,1,1,1,1,2025-06-04T19:27:42.762289
164,-0.4587,0.8784,0.1845,-8.330,-23.240,-7.175,1.14,1,1,1,1,2025-06-04T19:27:42.762289
165,-0.4509,0.8769,0.1859,-8.785,-23.205,-7.210,1.28,1,1,1,1,2025-06-04T19:27:42.814590
166,-0.4446,0.8706,0.1923,-8.995,-22.435,-6.965,1.29,1,1,1,1,2025-06-04T19:27:42.814590
167,-0.4338,0.8618,0.1962,-9.170,-21.035,-6.335,1.24,1,1,1,1,2025-06-04T19:27:42.814590
168,-0.4319,0.8525,0.2079,-8.960,-19.005,-5.390,1.28,1,1,1,1,2025-06-04T19:27:42.814590
169,-0.4255,0.8511,0.2186,-8.400,-17.220,-4.480,1.25,1,1,1,1,2025-06-04T19:27:42.981592
170,-0.4216,0.8428,0.2211,-8.400,-15.400,-3.010,1.24,1,1,1,1,2025-06-04T19:27:42.981592
171,-0.4158,0.8350,0.2186,-8.260,-13.930,-1.960,1.26,1,1,1,1,2025-06-04T19:27:42.981592
172,-0.4192,0.8316,0.2196,-8.155,-12.460,-1.295,1.28,1,1,1,1,2025-06-04T19:27:42.981592
173,-0.4158,0.8257,0.2201,-7.525,-11.655,-0.770,1.01,1,1,1,1,2025-06-04T19:27:42.981592
174,-0.4202,0.8242,0.2216,-7.175,-11.585,-0.770,1.19,1,1,1,1,2025-06-04T19:27:42.981592
175,-0.4241,0.8223,0.2162,-6.720,-11.865,-1.015,1.25,1,1,1,1,2025-06-04T19:27:42.981592
176,-0.4246,0.8218,0.2137,-6.440,-12.005,-1.435,1.22,1,1,1,1,2025-06-04T19:27:42.981592
177,-0.4197,0.8208,0.2152,-6.020,-11.165,-2.240,1.28,1,1,1,1,2025-06-04T19:27:42.981592
178,-0.4197,0.8213,0.2157,-5.390,-9.870,-3.325,1.30,1,1,1,1,2025-06-04T19:27:42.981592
179,-0.4207,0.8189,0.2069,-5.285,-8.540,-4.165,1.13,1,1,1,1,2025-06-04T19:27:42.981592
180,-0.4280,0.8242,0.2089,-4.550,-7.490,-5.145,1.18,1,1,1,1,2025-06-04T19:27:42.981592
181,-0.4290,0.8272,0.2059,-3.850,-5.740,-6.510,1.13,1,1,1,1,2025-06-04T19:27:42.982604
182,-0.4236,0.8247,0.2123,-3.045,-3.045,-7.840,1.21,1,1,1,1,2025-06-04T19:27:42.982604
183,-0.4187,0.8272,0.2137,-2.100,-0.595,-8.785,1.26,1,1,1,1,2025-06-04T19:27:43.272472
184,-0.4294,0.8169,0.2084,-1.575,0.910,-9.380,1.27,1,1,1,1,2025-06-04T19:27:43.272472
185,-0.4431,0.8140,0.2074,-0.700,0.000,-9.695,1.26,1,1,1,1,2025-06-04T19:27:43.272472
186,-0.4465,0.8150,0.2186,0.805,-0.735,-9.625,1.30,1,1,1,1,2025-06-04T19:27:43.272472
187,-0.4543,0.8174,0.2152,0.805,-1.435,-9.520,1.30,1,1,1,1,2025-06-04T19:27:43.272472
188,-0.4377,0.8164,0.2206,1.960,-1.050,-8.960,1.25,1,1,1,1,2025-06-04T19:27:43.276476
189,-0.4226,0.8057,0.2123,3.045,-1.295,-8.155,1.26,1,1,1,1,2025-06-04T19:27:43.276476
190,-0.4377,0.8150,0.2079,3.850,-0.980,-7.700,1.23,1,1,1,1,2025-06-04T19:27:43.276476
191,-0.4519,0.8335,0.2147,3.780,0.245,-7.560,1.28,1,1,1,1,2025-06-04T19:27:43.277480
192,-0.4641,0.8296,0.2133,4.025,1.820,-6.790,1.25,1,1,1,1,2025-06-04T19:27:43.277480
193,-0.4534,0.8330,0.2069,5.600,2.345,-6.160,1.30,1,1,1,1,2025-06-04T19:27:43.277480
194,-0.4763,0.8555,0.2045,4.725,2.975,-5.775,1.33,1,1,1,1,2025-06-04T19:27:43.277480
195,-0.4675,0.8398,0.2089,5.775,4.375,-5.005,1.30,1,1,1,1,2025-06-04T19:27:43.277480
196,-0.4709,0.8511,0.2025,4.655,4.515,-4.655,1.29,1,1,1,1,2025-06-04T19:27:43.277480
197,-0.4734,0.8535,0.1981,4.585,5.005,-4.585,1.11,1,1,1,1,2025-06-04T19:27:43.277480
198,-0.4812,0.8545,0.1957,4.130,5.670,-4.970,1.18,1,1,0,1,2025-06-04T19:27:43.277480
199,-0.4792,0.8618,0.2020,4.480,6.160,-5.145,1.08,1,1,1,1,2025-06-04T19:27:43.381059
200,-0.4900,0.8867,0.1932,4.270,5.460,-5.250,1.16,1,1,1,1,2025-06-04T19:27:43.381059
201,-0.4968,0.8633,0.2074,3.815,3.780,-5.740,1.20,1,1,1,1,2025-06-04T19:27:43.663232
202,-0.4885,0.8677,0.2050,2.310,0.770,-6.440,1.10,1,1,1,1,2025-06-04T19:27:43.663232
203,-0.5114,0.8657,0.2084,2.100,-0.315,-6.720,1.18,1,1,1,1,2025-06-04T19:27:43.663232
204,-0.4978,0.8555,0.2064,2.730,-2.170,-6.230,1.21,1,1,1,1,2025-06-04T19:27:43.663232
205,-0.4987,0.8574,0.2074,0.665,-4.445,-5.775,1.23,1,1,1,1,2025-06-04T19:27:43.663232
206,-0.4919,0.8428,0.2103,0.945,-5.565,-4.585,1.26,1,1,1,1,2025-06-04T19:27:43.663232
207,-0.4807,0.8286,0.2133,0.805,-5.915,-3.220,1.15,1,1,1,1,2025-06-04T19:27:43.663232
208,-0.4807,0.8384,0.2079,0.280,-7.665,-2.030,1.23,1,1,1,1,2025-06-04T19:27:43.663232
209,-0.4782,0.8330,0.2074,-0.280,-7.245,-1.260,1.28,1,1,1,1,2025-06-04T19:27:43.663232
210,-0.4768,0.8281,0.2050,-0.630,-6.720,-0.735,1.24,1,1,1,1,2025-06-04T19:27:43.663232
211,-0.4651,0.8286,0.2054,-0.665,-6.615,-0.105,1.26,1,1,1,1,2025-06-04T19:27:43.663232
212,-0.4602,0.8252,0.2030,-1.155,-6.545,0.630,1.27,1,1,1,1,2025-06-04T19:27:43.663232
213,-0.4548,0.8340,0.2015,-0.980,-6.790,0.665,1.13,1,1,1,1,2025-06-04T19:27:43.663232
214,-0.4680,0.8330,0.1952,-1.120,-5.845,0.490,1.25,1,1,1,1,2025-06-04T19:27:43.663232
215,-0.4573,0.8203,0.1893,-0.735,-4.760,0.805,1.28,1,1,1,1,2025-06-04T19:27:43.663232
216,-0.4748,0.8408,0.1810,-0.770,-5.880,0.105,1.29,1,1,1,1,2025-06-04T19:27:43.663232
217,-0.4865,0.8423,0.1864,-1.365,-5.495,-0.770,1.25,1,1,1,1,2025-06-04T19:27:43.663232
218,-0.5061,0.8618,0.1781,-1.645,-5.040,-1.575,1.17,1,1,1,1,2025-06-04T19:27:43.663232
219,-0.4787,0.8403,0.1850,-1.015,-3.675,-1.995,1.19,1,1,1,1,2025-06-04T19:27:43.663232
220,-0.4616,0.8408,0.1806,-2.625,-4.025,-2.485,1.21,1,1,1,1,2025-06-04T19:27:43.663232
221,-0.4821,0.8379,0.1820,-2.170,-3.920,-3.570,1.27,1,1,1,1,2025-06-04T19:27:43.663232
222,-0.4953,0.8311,0.1796,-1.540,-3.710,-4.025,1.32,1,1,1,1,2025-06-04T19:27:43.663232
223,-0.4914,0.8267,0.1898,-1.715,-5.040,-4.025,1.14,1,1,1,1,2025-06-04T19:27:43.663232
224,-0.4865,0.8252,0.2001,-1.505,-5.670,-4.025,1.25,1,1,1,1,2025-06-04T19:27:43.663232
225,-0.4904,0.8286,0.2103,-1.400,-5.600,-3.570,1.27,1,1,1,1,2025-06-04T19:27:43.663232
226,-0.4626,0.8306,0.2074,-1.190,-5.565,-2.975,1.32,1,1,1,1,2025-06-04T19:27:43.663232
227,-0.4753,0.8179,0.1981,-1.015,-5.600,-1.750,1.32,1,1,1,1,2025-06-04T19:27:43.663232
228,-0.4817,0.8174,0.1942,-0.770,-5.880,-1.085,1.29,1,1,1,1,2025-06-04T19:27:43.663232
229,-0.4802,0.8189,0.1972,-1.120,-4.865,-0.525,1.25,1,1,1,1,2025-06-04T19:27:43.663232
230,-0.4690,0.8286,0.1962,-0.735,-4.095,-0.770,1.22,1,1,1,1,2025-06-04T19:27:43.663232
231,-0.4758,0.8262,0.1942,-1.260,-2.520,-0.770,1.30,1,1,1,1,2025-06-04T19:27:43.663232
232,-0.4704,0.8345,0.1928,-0.350,-0.630,-1.155,1.15,1,1,1,1,2025-06-04T19:27:43.849789
233,-0.4592,0.8242,0.2035,0.280,1.785,-0.840,1.20,1,1,1,1,2025-06-04T19:27:43.849789
234,-0.4758,0.8296,0.2128,0.560,2.625,-0.735,1.21,1,1,1,1,2025-06-04T19:27:43.849789
235,-0.4836,0.8228,0.1991,0.770,3.045,-0.805,1.27,1,1,1,1,2025-06-04T19:27:43.849789
236,-0.4890,0.8223,0.1932,0.945,1.925,-1.050,1.31,1,1,1,1,2025-06-04T19:27:43.849789
237,-0.5090,0.8198,0.1928,1.365,0.350,-1.715,1.33,1,1,1,1,2025-06-04T19:27:43.849789
238,-0.4929,0.8106,0.1854,1.225,-1.085,-1.750,1.14,1,1,1,1,2025-06-04T19:27:43.849789
239,-0.4943,0.8111,0.1928,1.225,-2.345,-1.680,1.27,1,1,1,1,2025-06-04T19:27:43.849789
240,-0.4865,0.8145,0.2025,1.680,-2.835,-1.470,1.31,1,1,1,1,2025-06-04T19:27:43.849789
241,-0.4782,0.8130,0.2054,1.820,-3.150,-0.980,1.25,1,1,1,1,2025-06-04T19:27:43.849789
242,-0.4836,0.8111,0.1889,1.365,-3.535,-0.385,1.22,1,1,1,1,2025-06-04T19:27:43.849789
243,-0.4895,0.8115,0.1806,0.980,-4.165,0.070,1.20,1,1,1,1,2025-06-04T19:27:43.849789
244,-0.4856,0.8150,0.1786,1.085,-4.200,0.385,1.22,1,1,1,1,2025-06-04T19:27:43.850855
245,-0.4856,0.8208,0.1845,1.120,-4.025,0.315,1.15,1,1,1,1,2025-06-04T19:27:43.850855
246,-0.4860,0.8276,0.1845,0.770,-3.150,0.000,1.14,1,1,1,1,2025-06-04T19:27:43.850855
247,-0.4875,0.8311,0.1781,0.490,-2.275,-0.420,1.25,1,1,1,1,2025-06-04T19:27:43.850855
248,-0.4948,0.8364,0.1762,0.630,-1.960,-0.560,1.26,1,1,1,1,2025-06-04T19:27:43.850855
249,-0.5080,0.8403,0.1796,0.560,-2.625,-1.120,1.28,1,1,1,1,2025-06-04T19:27:44.091897
250,-0.5187,0.8413,0.1874,0.350,-4.340,-1.470,1.13,1,1,1,1,2025-06-04T19:27:44.091897
251,-0.5187,0.8384,0.1923,0.070,-6.720,-1.540,1.19,1,1,1,1,2025-06-04T19:27:44.091897
252,-0.5134,0.8355,0.1976,0.035,-8.715,-1.330,1.28,1,1,1,1,2025-06-04T19:27:44.091897
253,-0.5046,0.8335,0.1972,0.315,-10.325,-1.120,1.24,1,1,0,1,2025-06-04T19:27:44.091897
254,-0.5007,0.8330,0.2045,0.350,-11.480,-0.420,1.24,1,1,1,1,2025-06-04T19:27:44.091897
255,-0.4939,0.8306,0.2103,0.245,-12.460,0.385,1.13,1,1,1,1,2025-06-04T19:27:44.091897
256,-0.5036,0.8330,0.2098,0.525,-13.650,1.470,1.24,1,1,1,1,2025-06-04T19:27:44.092906
257,-0.5051,0.8320,0.2147,0.350,-15.260,2.835,1.21,1,1,1,1,2025-06-04T19:27:44.092906
258,-0.4992,0.8359,0.2216,0.980,-17.465,4.480,1.22,1,1,1,1,2025-06-04T19:27:44.092906
259,-0.5104,0.8520,0.2220,0.840,-19.880,6.125,1.30,1,1,1,1,2025-06-04T19:27:44.092906
260,-0.5022,0.8550,0.2167,2.065,-20.895,7.770,1.29,1,1,1,1,2025-06-04T19:27:44.092906
261,-0.5144,0.8706,0.2157,2.975,-22.155,9.065,1.01,1,1,1,1,2025-06-04T19:27:44.092906
262,-0.5183,0.8784,0.2377,5.005,-21.525,10.290,1.17,1,1,1,1,2025-06-04T19:27:44.092906
263,-0.5114,0.8989,0.2601,7.175,-19.775,12.075,1.25,1,1,1,1,2025-06-04T19:27:44.092906
264,-0.5022,0.8965,0.2743,8.260,-14.035,14.665,1.21,1,1,1,1,2025-06-04T19:27:44.092906
265,-0.5075,0.8960,0.2757,9.940,-7.560,17.955,1.24,1,1,1,1,2025-06-04T19:27:44.092906
266,-0.5519,0.9004,0.2923,9.730,-2.275,22.435,1.24,1,1,1,1,2025-06-04T19:27:44.398171
267,-0.5641,0.8926,0.3094,10.920,2.345,27.020,1.30,1,1,1,1,2025-06-04T19:27:44.398171
268,-0.5812,0.8804,0.2738,9.555,4.340,31.745,1.33,1,1,1,1,2025-06-04T19:27:44.398171
269,-0.6198,0.8481,0.2435,6.335,2.730,35.245,1.27,1,1,1,1,2025-06-04T19:27:44.398171
270,-0.6193,0.8413,0.2318,6.160,-2.170,38.500,1.26,1,1,1,1,2025-06-04T19:27:44.398171
271,-0.5993,0.8369,0.2142,4.900,-8.995,39.935,1.26,1,1,1,1,2025-06-04T19:27:44.398171
272,-0.5353,0.8062,0.1976,4.165,-18.200,40.740,1.30,1,1,1,1,2025-06-04T19:27:44.398171
273,-0.4612,0.8301,0.1810,3.150,-25.830,39.935,1.27,1,1,1,1,2025-06-04T19:27:44.398171
274,-0.3811,0.8154,0.1581,4.550,-33.215,37.590,1.24,1,1,1,1,2025-06-04T19:27:44.398171
275,-0.3201,0.8203,0.1078,4.060,-40.880,34.335,1.27,1,1,1,1,2025-06-04T19:27:44.398171
276,-0.2918,0.8125,0.0834,5.390,-50.295,29.260,1.29,1,1,1,1,2025-06-04T19:27:44.398171
277,-0.2347,0.8311,0.0966,4.655,-59.500,22.470,1.24,1,1,0,1,2025-06-04T19:27:44.398171
278,-0.1615,0.8374,0.1147,5.705,-66.815,14.945,1.30,1,1,1,1,2025-06-04T19:27:44.398171
279,-0.0996,0.8462,0.0947,4.025,-70.245,5.285,1.35,1,1,1,1,2025-06-04T19:27:44.398171
280,-0.0576,0.8843,0.1376,1.435,-68.985,-7.840,1.31,1,1,1,1,2025-06-04T19:27:44.398171
281,0.0156,0.9287,0.1596,-1.400,-62.125,-21.350,1.25,1,1,1,1,2025-06-04T19:27:44.398171
282,0.0366,0.9921,0.1362,-5.180,-55.720,-34.615,1.10,1,1,1,1,2025-06-04T19:27:44.399149
283,0.0044,1.1273,0.1830,-9.800,-54.880,-47.915,1.23,1,1,1,1,2025-06-04T19:27:44.399149
284,-0.0381,1.3518,0.2625,-17.150,-71.435,-59.605,1.26,1,1,1,1,2025-06-04T19:27:44.399149
285,-0.1035,1.6519,0.3572,-26.880,-86.590,-67.585,1.30,1,1,1,1,2025-06-04T19:27:44.399149
286,-0.1430,1.9935,0.3963,-42.280,-129.850,-69.160,1.27,1,1,1,1,2025-06-04T19:27:44.399149
287,-0.1161,2.3609,0.3684,-60.900,-188.615,-62.860,1.30,1,1,1,1,2025-06-04T19:27:44.399149
288,0.0083,2.7260,0.2357,-82.740,-251.615,-49.910,1.30,1,1,0,1,2025-06-04T19:27:44.399149
289,0.1547,3.0344,-0.0029,-100.660,-304.850,-33.145,1.27,1,1,1,1,2025-06-04T19:27:44.589366
290,0.2455,3.2223,-0.3484,-125.790,-343.455,-19.845,1.26,1,1,1,1,2025-06-04T19:27:44.589366
291,0.2904,3.1437,-0.6539,-132.615,-345.135,-17.640,1.29,1,1,1,1,2025-06-04T19:27:44.589366
292,0.1503,2.9290,-0.7232,-162.225,-326.375,-34.510,1.25,1,1,1,1,2025-06-04T19:27:44.589366
293,0.1571,2.5283,-0.7335,-195.650,-298.830,-61.775,1.10,1,1,1,1,2025-06-04T19:27:44.589366
294,0.1254,1.8939,-0.7178,-241.920,-274.960,-89.880,1.21,1,1,1,1,2025-06-04T19:27:44.589366
295,-0.0137,1.2503,-0.5563,-280.595,-267.925,-114.100,1.29,1,1,1,1,2025-06-04T19:27:44.589366
296,-0.2645,0.6315,-0.2918,-327.635,-261.870,-157.325,1.25,1,1,1,1,2025-06-04T19:27:44.589366
297,-0.1371,0.0405,-0.1386,-380.380,-256.340,-196.875,1.32,1,1,1,1,2025-06-04T19:27:44.589366
298,-0.1332,-0.9931,-0.1493,-403.935,-275.030,-212.800,1.30,1,1,1,1,2025-06-04T19:27:44.589366
299,-0.4319,-2.0242,0.1415,-417.550,-274.820,-220.430,1.25,1,1,1,1,2025-06-04T19:27:44.589366
300,-0.3074,-3.0471,0.6578,-447.720,-241.990,-233.590,1.28,1,1,1,1,2025-06-04T19:27:44.589366
301,-0.0664,-3.8991,0.9199,-412.475,-199.745,-214.970,1.25,1,1,1,1,2025-06-04T19:27:44.589366
302,-0.2118,-4.0284,0.5456,-341.180,-169.120,-152.670,1.35,1,1,1,1,2025-06-04T19:27:44.589366
303,-0.2704,-3.6629,0.2923,-193.480,-194.110,-60.270,1.31,1,1,1,1,2025-06-04T19:27:44.589366
304,0.0346,-3.0559,0.3704,-38.465,-187.950,27.860,1.33,1,1,1,1,2025-06-04T19:27:44.589366
305,0.8867,-2.4366,0.6808,78.155,-111.510,102.375,1.41,1,1,1,1,2025-06-04T19:27:44.589366
306,1.0277,-2.0125,0.7574,157.150,7.910,145.145,1.27,1,1,1,1,2025-06-04T19:27:44.589366
307,0.5632,-1.7261,0.8701,205.975,117.040,157.045,1.32,1,1,1,1,2025-06-04T19:27:44.589366
308,0.3240,-1.5518,0.8906,246.785,176.610,167.265,1.23,1,1,1,1,2025-06-04T19:27:44.589366
309,0.0854,-1.3166,0.9321,259.000,202.615,179.865,1.15,1,1,1,1,2025-06-04T19:27:44.589366
310,-0.0376,-1.0917,0.9487,265.265,215.110,185.640,1.32,1,1,1,1,2025-06-04T19:27:44.589366
311,-0.0854,-0.7788,0.9638,268.170,223.790,190.295,1.27,1,1,1,1,2025-06-04T19:27:44.812045
312,-0.0776,-0.5012,0.8579,270.970,223.475,195.650,1.34,1,1,1,1,2025-06-04T19:27:44.812045
313,-0.0996,-0.0508,0.9106,269.185,221.165,188.230,1.31,1,1,1,1,2025-06-04T19:27:44.812045
314,-0.1171,0.2928,0.8701,256.900,222.845,170.415,1.29,1,1,1,1,2025-06-04T19:27:44.812840
315,-0.0883,0.5778,0.7632,245.210,226.205,145.425,1.19,1,1,1,1,2025-06-04T19:27:44.812840
316,-0.0913,0.8125,0.5070,238.770,223.090,122.395,1.28,1,1,1,1,2025-06-04T19:27:44.812840
317,-0.1044,1.0409,0.3523,236.040,206.535,101.780,1.26,1,1,1,1,2025-06-04T19:27:44.812840
318,-0.1425,1.2176,0.3074,229.950,175.980,85.190,1.29,1,1,1,1,2025-06-04T19:27:44.812840
319,-0.0874,1.3420,0.2440,214.935,136.675,69.335,1.19,1,1,1,1,2025-06-04T19:27:44.812840
320,-0.0063,1.4323,0.1674,190.225,105.000,52.255,1.23,1,1,1,1,2025-06-04T19:27:44.812840
321,0.1562,1.5811,0.0786,169.505,85.715,39.550,1.28,1,1,1,1,2025-06-04T19:27:44.812840
322,0.2464,1.6616,-0.0395,146.825,74.515,31.885,1.30,1,1,1,1,2025-06-04T19:27:44.812840
323,0.2201,1.7041,-0.0903,128.870,59.255,26.565,1.31,1,1,1,1,2025-06-04T19:27:44.812840
324,0.1747,1.7051,-0.0454,103.950,46.760,19.425,1.33,1,1,1,1,2025-06-04T19:27:44.812840
325,0.2469,1.6372,0.0054,80.745,37.450,13.930,1.27,1,1,1,1,2025-06-04T19:27:44.812840
326,0.2440,1.5548,0.0737,59.780,34.090,11.130,1.26,1,1,1,1,2025-06-04T19:27:44.812840
327,0.2089,1.4411,0.1322,48.895,30.275,8.645,1.27,1,1,1,1,2025-06-04T19:27:44.812840
328,0.0966,1.3361,0.1713,39.655,24.080,4.830,1.24,1,1,1,1,2025-06-04T19:27:44.812840
329,-0.0171,1.2493,0.2015,35.630,11.235,-0.560,1.23,1,1,1,1,2025-06-04T19:27:44.812840
330,-0.0615,1.1897,0.2586,33.530,-3.010,-5.565,1.26,1,1,1,1,2025-06-04T19:27:44.812840
331,-0.0366,1.1541,0.3065,30.940,-10.185,-9.100,1.31,1,1,1,1,2025-06-04T19:27:44.812840
332,-0.0088,1.1043,0.3187,18.270,-12.600,-10.745,1.25,1,1,1,1,2025-06-04T19:27:45.105213
333,-0.0044,1.0487,0.3152,25.025,-6.440,-12.495,1.25,1,1,1,1,2025-06-04T19:27:45.105213
334,-0.0078,1.0341,0.3250,25.270,4.445,-12.985,1.27,1,1,1,1,2025-06-04T19:27:45.105213
335,-0.0429,0.9892,0.2869,25.830,14.560,-11.795,1.29,1,1,1,1,2025-06-04T19:27:45.105213
336,-0.1137,0.9609,0.2572,25.620,20.825,-9.835,1.12,1,1,1,1,2025-06-04T19:27:45.105213
337,-0.1923,0.9545,0.2567,25.690,21.945,-8.925,1.19,1,1,1,1,2025-06-04T19:27:45.105213
338,-0.2259,0.9570,0.2684,24.640,19.950,-7.980,1.08,1,1,1,1,2025-06-04T19:27:45.105213
339,-0.2557,0.9521,0.2655,23.450,15.540,-5.985,1.19,1,1,1,1,2025-06-04T19:27:45.105213
340,-0.2655,0.9565,0.2728,19.670,10.395,-3.955,1.22,1,1,1,1,2025-06-04T19:27:45.105213
341,-0.2640,0.9384,0.2625,16.100,4.970,-2.485,1.12,1,1,1,1,2025-06-04T19:27:45.105213
342,-0.2289,0.9379,0.2611,12.845,3.255,-1.505,1.24,1,1,1,1,2025-06-04T19:27:45.105213
343,-0.2108,0.9311,0.2674,9.345,8.470,-1.505,1.28,1,1,1,1,2025-06-04T19:27:45.105213
344,-0.1913,0.9194,0.2582,7.175,14.875,-1.225,1.24,1,1,1,1,2025-06-04T19:27:45.105213
345,-0.2059,0.9028,0.2596,5.040,21.280,-1.680,1.28,1,1,1,1,2025-06-04T19:27:45.105213
346,-0.2313,0.9013,0.2616,2.975,25.270,-1.820,1.29,1,1,1,1,2025-06-04T19:27:45.105213
347,-0.2664,0.8867,0.2523,2.275,24.255,-1.470,1.23,1,1,1,1,2025-06-04T19:27:45.106279
348,-0.3196,0.8823,0.2645,1.785,18.550,-1.575,1.21,1,1,1,1,2025-06-04T19:27:45.106279
349,-0.3421,0.8745,0.2635,0.420,11.655,-2.135,1.31,1,1,1,1,2025-06-04T19:27:45.106279
350,-0.3182,0.8672,0.3045,1.260,6.335,-2.660,1.17,1,1,1,1,2025-06-04T19:27:45.106279
351,-0.3118,0.8760,0.2718,1.610,0.735,-2.205,1.23,1,1,1,1,2025-06-04T19:27:45.338367
352,-0.2913,0.8696,0.2767,-1.645,0.525,-2.380,1.29,1,1,1,1,2025-06-04T19:27:45.338367
353,-0.2694,0.8633,0.2762,-0.805,4.830,-2.940,1.30,1,1,1,1,2025-06-04T19:27:45.338367
354,-0.2640,0.8647,0.2733,0.000,10.185,-2.975,1.32,1,1,1,1,2025-06-04T19:27:45.338367
355,-0.2772,0.8608,0.2743,0.700,15.610,-2.310,1.34,1,1,1,1,2025-06-04T19:27:45.338367
356,-0.2913,0.8516,0.2865,1.715,19.705,-2.345,1.32,1,1,1,1,2025-06-04T19:27:45.338367
357,-0.3343,0.8608,0.2777,2.415,21.700,-2.660,1.35,1,1,1,1,2025-06-04T19:27:45.338367
358,-0.3611,0.8608,0.2884,5.110,20.615,-2.310,1.32,1,1,1,1,2025-06-04T19:27:45.338367
359,-0.3870,0.8682,0.2962,7.280,16.940,-2.380,1.32,1,1,1,1,2025-06-04T19:27:45.338367
360,-0.3948,0.8833,0.3055,7.035,13.720,-1.820,1.26,1,1,1,1,2025-06-04T19:27:45.338367
361,-0.3875,0.8813,0.2855,7.000,11.480,-1.540,1.23,1,1,1,1,2025-06-04T19:27:45.338367
362,-0.3806,0.8877,0.2791,7.595,10.570,-1.015,1.28,1,1,1,1,2025-06-04T19:27:45.338367
363,-0.3753,0.8935,0.2762,7.805,10.605,0.245,1.13,1,1,1,1,2025-06-04T19:27:45.338367
364,-0.3909,0.8974,0.2796,7.665,8.855,1.715,1.22,1,1,1,1,2025-06-04T19:27:45.338367
365,-0.4036,0.8994,0.2845,6.895,5.005,2.730,1.30,1,1,1,1,2025-06-04T19:27:45.338367
366,-0.3953,0.8940,0.2826,6.370,0.980,3.500,1.26,1,1,1,1,2025-06-04T19:27:45.442464
367,-0.3767,0.8945,0.2811,5.950,-0.175,3.920,1.28,1,1,1,1,2025-06-04T19:27:45.442941
368,-0.3533,0.8945,0.2889,5.460,1.715,4.375,1.31,1,1,1,1,2025-06-04T19:27:45.442941
369,-0.3504,0.8950,0.2972,4.585,4.305,5.040,1.30,1,1,1,1,2025-06-04T19:27:45.442941
370,-0.3709,0.8852,0.2850,3.500,5.320,5.005,1.25,1,1,1,1,2025-06-04T19:27:45.442941
371,-0.3899,0.8823,0.2772,2.625,4.725,4.935,1.27,1,1,1,1,2025-06-04T19:27:45.442941
372,-0.3909,0.8843,0.2796,2.695,2.800,4.865,1.21,1,1,1,1,2025-06-04T19:27:45.443436
373,-0.3904,0.8769,0.2835,2.170,0.140,4.830,1.24,1,1,1,1,2025-06-04T19:27:45.443436
374,-0.3904,0.8691,0.2821,1.190,-3.745,4.690,1.26,1,1,1,1,2025-06-04T19:27:45.443436
375,-0.3821,0.8491,0.2894,0.805,-7.035,4.480,1.10,1,1,1,1,2025-06-04T19:27:45.443436
376,-0.3645,0.8545,0.2669,0.315,-9.170,3.325,1.18,1,1,1,1,2025-06-04T19:27:45.443436
377,-0.3392,0.8564,0.2689,1.015,-8.400,2.660,1.18,1,1,1,1,2025-06-04T19:27:45.443436
378,-0.3411,0.8574,0.2640,1.050,-5.565,1.645,1.21,1,1,1,1,2025-06-04T19:27:45.443436
379,-0.3411,0.8501,0.2572,1.400,-3.010,0.840,1.12,1,1,1,1,2025-06-04T19:27:45.443436
380,-0.3377,0.8530,0.2494,1.750,0.385,0.175,1.25,1,1,1,1,2025-06-04T19:27:45.443436
381,-0.3401,0.8574,0.2562,2.065,4.270,0.000,1.11,1,1,1,1,2025-06-04T19:27:45.443436
382,-0.3538,0.8599,0.2674,2.450,6.755,-0.280,1.21,1,1,1,1,2025-06-04T19:27:45.444433
383,-0.3714,0.8642,0.2606,2.205,6.405,-0.350,1.23,1,1,1,1,2025-06-04T19:27:45.714769
384,-0.3899,0.8579,0.2562,2.240,3.290,-0.210,1.25,1,1,1,1,2025-06-04T19:27:45.714769
385,-0.4046,0.8628,0.2616,2.835,-2.765,-0.035,1.26,1,1,1,1,2025-06-04T19:27:45.714769
386,-0.3919,0.8711,0.2674,2.905,-8.645,-0.035,1.30,1,1,1,1,2025-06-04T19:27:45.714769
387,-0.3470,0.8345,0.3065,3.115,-11.760,-0.105,1.23,1,1,1,1,2025-06-04T19:27:45.714769
388,-0.3494,0.7544,0.2562,0.035,-14.210,-0.245,1.26,1,1,1,1,2025-06-04T19:27:45.714769
389,-0.3377,0.8779,0.2577,1.820,-13.230,-0.770,1.30,1,1,1,1,2025-06-04T19:27:45.714769
390,-0.3079,0.8804,0.2586,3.500,-11.095,-0.840,1.27,1,1,1,1,2025-06-04T19:27:45.714769
391,-0.3050,0.8847,0.2577,2.450,-7.280,-0.455,1.28,1,1,1,1,2025-06-04T19:27:45.715689
392,-0.3235,0.8843,0.2542,3.220,-5.355,-0.210,1.23,1,1,1,1,2025-06-04T19:27:45.715689
393,-0.3421,0.8847,0.2489,3.605,-4.900,-0.315,1.10,1,1,1,1,2025-06-04T19:27:45.715689
394,-0.3558,0.8799,0.2484,3.815,-6.090,-0.490,1.23,1,1,1,1,2025-06-04T19:27:45.715689
395,-0.3494,0.8828,0.2577,3.675,-8.960,-0.350,1.28,1,1,1,1,2025-06-04T19:27:45.715689
396,-0.3382,0.8921,0.2606,3.675,-11.410,-0.035,1.32,1,1,1,1,2025-06-04T19:27:45.715689
397,-0.3328,0.8711,0.2445,2.275,-14.070,-0.105,1.30,1,1,1,1,2025-06-04T19:27:45.840600
398,-0.3113,0.8784,0.2455,3.220,-11.900,-0.210,1.30,1,1,1,1,2025-06-04T19:27:45.840600
399,-0.2943,0.8862,0.2411,3.640,-6.580,0.350,1.28,1,1,1,1,2025-06-04T19:27:45.840600
400,-0.2928,0.8857,0.2347,3.255,0.035,0.875,1.23,1,1,1,1,2025-06-04T19:27:45.840600
401,-0.3026,0.8877,0.2416,3.535,5.460,1.400,1.21,1,1,1,1,2025-06-04T19:27:45.840600
402,-0.3338,0.8891,0.2411,3.430,8.120,2.030,1.28,1,1,1,1,2025-06-04T19:27:45.840600
403,-0.3640,0.8813,0.2435,4.480,6.230,2.625,1.28,1,1,1,1,2025-06-04T19:27:45.840600
404,-0.3870,0.8813,0.2430,5.005,0.875,3.640,1.31,1,1,1,1,2025-06-04T19:27:45.840600
405,-0.3904,0.8774,0.2469,5.460,-5.180,4.305,1.11,1,1,1,1,2025-06-04T19:27:45.840600
406,-0.3802,0.8818,0.2528,6.335,-9.555,4.935,1.24,1,1,1,1,2025-06-04T19:27:45.840600
407,-0.3553,0.8774,0.2440,6.580,-10.955,5.600,1.27,1,1,1,1,2025-06-04T19:27:45.840600
408,-0.3240,0.8774,0.2416,7.245,-8.540,6.335,1.10,1,1,1,1,2025-06-04T19:27:45.840600
409,-0.3323,0.8725,0.2318,7.245,-4.375,6.755,1.21,1,1,1,1,2025-06-04T19:27:45.840600
410,-0.3314,0.8599,0.2235,8.015,-0.490,7.245,1.16,1,1,1,1,2025-06-04T19:27:45.840600
411,-0.3392,0.8530,0.2220,9.135,1.785,7.980,1.25,1,1,1,1,2025-06-04T19:27:45.840600
412,-0.3562,0.8491,0.2294,9.415,3.115,8.680,1.27,1,1,1,1,2025-06-04T19:27:45.840600
413,-0.3787,0.8389,0.2264,10.010,2.345,8.680,1.22,1,1,1,1,2025-06-04T19:27:45.840600
414,-0.3758,0.8398,0.2250,10.360,0.035,8.015,1.23,1,1,1,1,2025-06-04T19:27:45.840600
415,-0.3694,0.8355,0.2235,11.025,-3.045,7.665,1.20,1,1,1,1,2025-06-04T19:27:45.840600
416,-0.3484,0.8262,0.2108,13.160,-6.475,7.315,1.23,1,1,1,1,2025-06-04T19:27:46.270089
417,-0.3367,0.8301,0.2176,15.540,-9.905,6.825,1.23,1,1,1,1,2025-06-04T19:27:46.270089
418,-0.3304,0.8403,0.2416,18.690,-13.930,6.405,1.19,1,1,1,1,2025-06-04T19:27:46.270089
419,-0.3187,0.8652,0.2333,20.475,-18.410,5.320,1.09,1,1,1,1,2025-06-04T19:27:46.270089
420,-0.2865,0.8769,0.2279,22.330,-21.805,3.395,1.22,1,1,1,1,2025-06-04T19:27:46.270089
421,-0.1962,0.8877,0.1967,24.185,-21.665,1.645,1.25,1,1,1,1,2025-06-04T19:27:46.270089
422,-0.1313,0.9457,0.1991,24.640,-16.100,-0.875,1.28,1,1,1,1,2025-06-04T19:27:46.270857
423,-0.0429,1.0228,0.1762,23.625,-7.490,-4.480,1.31,1,1,1,1,2025-06-04T19:27:46.270857
424,0.0210,1.1107,0.1352,19.460,3.815,-10.255,1.26,1,1,1,1,2025-06-04T19:27:46.270857
425,0.0722,1.2180,0.1283,12.775,14.105,-17.150,1.19,1,1,1,1,2025-06-04T19:27:46.270857
426,0.1127,1.3269,0.1157,3.570,16.660,-23.310,1.23,1,1,1,1,2025-06-04T19:27:46.270857
427,0.1298,1.4664,0.0878,-8.610,7.210,-30.170,1.11,1,1,1,1,2025-06-04T19:27:46.270857
428,0.1366,1.6265,0.0693,-21.595,-17.045,-37.100,1.24,1,1,1,1,2025-06-04T19:27:46.270857
429,0.2391,1.7944,0.0200,-37.660,-49.455,-42.910,1.28,1,1,1,1,2025-06-04T19:27:46.270857
430,0.4548,2.0067,-0.0556,-57.260,-73.570,-48.545,1.32,1,1,1,1,2025-06-04T19:27:46.270857
431,0.6422,2.2868,-0.1386,-78.435,-86.240,-53.515,1.30,1,1,1,1,2025-06-04T19:27:46.271574
432,0.7383,2.4986,-0.2786,-104.580,-95.305,-57.050,1.25,1,1,1,1,2025-06-04T19:27:46.312511
433,0.7432,2.6528,-0.4470,-134.715,-108.255,-59.395,1.30,1,1,1,1,2025-06-04T19:27:46.312511
434,0.6398,2.7992,-0.6168,-174.545,-130.235,-67.060,1.31,1,1,1,1,2025-06-04T19:27:46.312511
435,0.4514,2.8968,-0.8281,-198.275,-169.085,-81.795,1.17,1,1,1,1,2025-06-04T19:27:46.312511
436,0.3221,2.9119,-1.0419,-225.015,-223.230,-105.385,1.21,1,1,1,1,2025-06-04T19:27:46.312511
437,0.2518,2.6332,-1.2151,-266.945,-284.620,-134.085,1.21,1,1,1,1,2025-06-04T19:27:46.312511
438,0.1625,2.0247,-1.2698,-303.170,-349.090,-158.235,1.26,1,1,1,1,2025-06-04T19:27:46.312511
439,-0.1752,1.4606,-0.7374,-360.885,-386.925,-203.070,1.17,1,1,1,1,2025-06-04T19:27:46.312511
440,0.0683,0.6676,-0.5173,-421.855,-398.335,-238.560,1.25,1,1,0,1,2025-06-04T19:27:46.312511
441,-0.2469,-0.6764,-0.2464,-475.650,-412.720,-241.080,1.31,1,1,1,1,2025-06-04T19:27:46.312511
442,-0.9077,-2.2087,0.6544,-445.655,-448.595,-232.925,1.10,1,1,1,1,2025-06-04T19:27:46.312511
443,-0.7657,-3.3999,1.1229,-448.140,-390.075,-240.590,1.17,1,1,1,1,2025-06-04T19:27:46.312511
444,-0.0551,-4.3066,1.2527,-437.360,-273.665,-244.545,1.24,1,1,1,1,2025-06-04T19:27:46.312511
445,0.4241,-4.6785,1.0834,-352.555,-167.790,-226.310,1.10,1,1,1,1,2025-06-04T19:27:46.312511
446,0.5236,-4.2256,0.6305,-230.545,-65.415,-174.370,1.31,1,1,1,1,2025-06-04T19:27:46.312511
447,0.4992,-3.4931,0.6734,-73.780,-17.955,-84.350,1.23,1,1,1,1,2025-06-04T19:27:46.312511
448,0.2816,-2.6074,0.8125,45.570,1.645,17.920,1.18,1,1,1,1,2025-06-04T19:27:46.312511
449,0.2655,-2.1492,0.8516,123.130,7.385,105.910,1.20,1,1,1,1,2025-06-04T19:27:46.312511
450,0.0693,-1.7797,0.8755,176.610,-0.420,148.645,1.21,1,1,1,1,2025-06-04T19:27:46.312511
451,-0.0327,-1.5714,0.8813,214.725,-10.290,154.875,1.33,1,1,1,1,2025-06-04T19:27:46.312511
452,0.2333,-1.4294,0.7974,241.080,-12.425,152.880,1.24,1,1,1,1,2025-06-04T19:27:46.312511
453,0.4182,-1.2883,0.8150,249.060,20.055,140.910,1.32,1,1,1,1,2025-06-04T19:27:46.321265
454,0.6232,-1.0975,0.8945,256.130,80.360,129.780,1.38,1,1,1,1,2025-06-04T19:27:46.321265
455,0.7003,-0.8184,0.9853,258.370,159.145,129.045,1.28,1,1,1,1,2025-06-04T19:27:46.377200
456,0.4773,-0.5363,0.9819,256.585,231.070,133.910,1.31,1,1,1,1,2025-06-04T19:27:46.378152
457,0.0752,-0.2264,0.8813,257.075,276.570,134.820,1.26,1,1,1,1,2025-06-04T19:27:46.378152
458,-0.2938,0.0542,0.7505,255.920,296.065,127.435,1.11,1,1,1,1,2025-06-04T19:27:46.378152
459,-0.2908,0.2079,0.4870,260.435,294.140,132.475,1.33,1,1,1,1,2025-06-04T19:27:46.426768
460,-0.6051,0.5290,0.4524,268.170,282.205,131.075,1.32,1,1,1,1,2025-06-04T19:27:46.426768
461,-0.5500,0.8286,0.3577,271.740,264.250,125.195,1.26,1,1,1,1,2025-06-04T19:27:46.426768
462,-0.5988,1.0721,0.2181,268.345,243.425,116.935,1.20,1,1,1,1,2025-06-04T19:27:46.645060
463,-0.6500,1.2517,0.0210,252.490,216.300,103.250,1.21,1,1,1,1,2025-06-04T19:27:46.645060
464,-0.5319,1.3581,-0.0351,239.260,178.640,85.295,1.30,1,1,1,1,2025-06-04T19:27:46.645060
465,-0.1635,1.4464,-0.1186,225.435,138.425,80.850,1.28,1,1,1,1,2025-06-04T19:27:46.645060
466,-0.0015,1.4113,-0.2245,205.240,102.165,80.220,1.18,1,1,1,1,2025-06-04T19:27:46.646128
467,0.0137,1.4362,-0.2996,186.865,72.450,75.740,1.12,1,1,1,1,2025-06-04T19:27:46.646128
468,0.0434,1.5240,-0.2211,163.765,48.545,64.855,1.06,1,1,1,1,2025-06-04T19:27:46.646128
469,0.2006,1.5616,-0.1952,137.760,30.625,52.815,1.22,1,1,1,1,2025-06-04T19:27:46.646128
470,0.2674,1.5304,-0.2206,111.195,17.535,39.830,1.24,1,1,1,1,2025-06-04T19:27:46.646128
471,0.4929,1.4908,-0.2367,89.880,7.315,30.065,1.25,1,1,1,1,2025-06-04T19:27:46.646128
472,0.4050,1.4674,-0.1249,68.810,3.220,22.120,1.30,1,1,1,1,2025-06-04T19:27:46.646128
473,0.3792,1.4372,-0.0259,49.245,-0.245,10.780,1.18,1,1,1,1,2025-06-04T19:27:46.646128
474,0.3899,1.3766,0.0303,31.325,-3.045,-0.350,1.23,1,1,1,1,2025-06-04T19:27:46.646128
475,0.3514,1.3498,0.0844,19.460,-4.585,-9.870,1.24,1,1,1,1,2025-06-04T19:27:46.646128
476,0.3235,1.2830,0.0815,13.125,-3.815,-18.200,1.23,1,1,1,1,2025-06-04T19:27:46.646128
477,0.2372,1.2224,0.0913,9.695,-1.540,-24.675,1.24,1,1,1,1,2025-06-04T19:27:46.646128
478,0.0961,1.1839,0.1279,7.700,-1.330,-31.080,1.21,1,1,1,1,2025-06-04T19:27:46.646128
479,-0.0107,1.1507,0.1645,8.050,-4.515,-36.015,1.20,1,1,1,1,2025-06-04T19:27:46.646128
480,-0.0234,1.0751,0.1962,7.805,-6.195,-37.800,1.19,1,1,1,1,2025-06-04T19:27:46.844125
481,-0.0795,1.0624,0.1810,7.490,-10.920,-36.540,1.23,1,1,1,1,2025-06-04T19:27:46.844125
482,-0.1200,1.0209,0.1259,6.335,-9.730,-33.600,1.30,1,1,1,1,2025-06-04T19:27:46.844125
483,-0.1635,1.0024,0.1200,8.575,-2.940,-29.925,1.24,1,1,1,1,2025-06-04T19:27:46.844125
484,-0.1913,0.9999,0.1186,8.610,5.635,-25.515,1.20,1,1,1,1,2025-06-04T19:27:46.844125
485,-0.2601,0.9887,0.1157,6.370,11.410,-21.665,1.25,1,1,1,1,2025-06-04T19:27:46.844125
486,-0.2850,0.9765,0.1020,4.550,17.745,-17.710,1.28,1,1,1,1,2025-06-04T19:27:46.844125
487,-0.3152,0.9604,0.1186,0.805,22.995,-13.055,1.24,1,1,1,1,2025-06-04T19:27:46.844125
488,-0.3440,0.9521,0.1244,-1.050,25.935,-8.085,1.14,1,1,1,1,2025-06-04T19:27:46.844125
489,-0.3772,0.9462,0.1401,-1.190,25.620,-4.795,1.16,1,1,1,1,2025-06-04T19:27:46.844125
490,-0.3670,0.9404,0.1640,-2.275,24.500,-0.420,1.26,1,1,0,1,2025-06-04T19:27:46.844125
491,-0.3377,0.9311,0.1547,-3.080,25.270,4.095,1.26,1,1,1,1,2025-06-04T19:27:46.844125
492,-0.3518,0.9321,0.1664,-1.085,25.725,6.755,1.16,1,1,1,1,2025-06-04T19:27:46.844125
493,-0.3509,0.9360,0.1869,0.980,25.970,7.735,1.23,1,1,1,1,2025-06-04T19:27:46.844125
494,-0.3411,0.9233,0.1908,2.100,24.150,8.155,1.27,1,1,1,1,2025-06-04T19:27:46.844125
495,-0.3167,0.9199,0.2064,3.395,19.005,10.605,1.31,1,1,1,1,2025-06-04T19:27:46.844125
496,-0.3621,0.9292,0.2108,2.905,16.695,10.430,1.33,1,1,1,1,2025-06-04T19:27:47.057258
497,-0.3314,0.9213,0.2152,3.780,16.100,9.030,1.00,1,1,1,1,2025-06-04T19:27:47.057258
498,-0.2894,0.9218,0.2020,1.995,19.635,8.505,1.17,1,1,1,1,2025-06-04T19:27:47.057258
499,-0.2962,0.9199,0.2094,-0.210,25.340,7.910,1.24,1,1,1,1,2025-06-04T19:27:47.057258
500,-0.3152,0.9111,0.1976,-0.595,28.735,6.930,1.27,1,1,1,1,2025-06-04T19:27:47.057258
501,-0.3470,0.8974,0.1786,-2.835,28.840,6.125,1.16,1,1,1,1,2025-06-04T19:27:47.279953
502,-0.4026,0.9023,0.1908,-3.360,23.835,5.075,1.25,1,1,1,1,2025-06-04T19:27:47.519029
503,-0.4265,0.8896,0.1864,-4.270,15.120,3.850,1.25,1,1,1,1,2025-06-04T19:27:47.751687
504,-0.4241,0.8838,0.1806,-6.055,4.760,3.010,1.31,1,1,1,1,2025-06-04T19:27:47.993025
505,-0.4060,0.8862,0.1918,-6.230,-3.150,2.100,1.24,1,1,1,1,2025-06-04T19:27:47.993025
506,-0.3802,0.8799,0.1742,-7.210,-6.300,0.980,1.28,1,1,1,1,2025-06-04T19:27:47.993025
507,-0.3279,0.8516,0.1342,-7.385,-5.180,0.560,1.22,1,1,1,1,2025-06-04T19:27:47.993025
508,-0.3221,0.8701,0.1557,-5.670,0.840,-0.035,1.25,1,1,1,1,2025-06-04T19:27:47.993025
509,-0.3382,0.8779,0.1898,-5.005,10.605,-1.505,1.31,1,1,1,1,2025-06-04T19:27:47.994026
510,-0.3606,0.8672,0.1786,-4.025,14.280,-1.750,1.13,1,1,1,1,2025-06-04T19:27:47.994026
511,-0.3821,0.8501,0.1708,-4.515,11.830,-0.735,1.24,1,1,1,1,2025-06-04T19:27:47.994026
512,-0.4207,0.8647,0.1932,-2.485,7.490,0.000,1.23,1,1,1,1,2025-06-04T19:27:47.994026
513,-0.4133,0.8755,0.1893,-1.050,3.780,-0.455,1.25,1,1,1,1,2025-06-04T19:27:47.994026
514,-0.4094,0.8686,0.1747,-1.750,1.295,-0.945,1.30,1,1,1,1,2025-06-04T19:27:47.994026
515,-0.3772,0.8589,0.1576,-2.100,-0.455,-1.295,1.25,1,1,1,1,2025-06-04T19:27:47.994026
516,-0.3797,0.8804,0.1708,0.175,-0.105,-0.595,1.12,1,1,1,1,2025-06-04T19:27:47.994026
517,-0.3733,0.8677,0.1576,0.945,0.595,0.175,1.18,1,1,1,1,2025-06-04T19:27:47.994026
518,-0.4075,0.8721,0.1771,1.085,-0.035,-0.140,1.07,1,1,1,1,2025-06-04T19:27:47.994026
519,-0.3977,0.8799,0.1864,2.555,-2.625,0.035,1.23,1,1,1,1,2025-06-04T19:27:47.994026
520,-0.4094,0.8813,0.1820,2.730,-6.370,0.630,1.21,1,1,1,1,2025-06-04T19:27:47.994026
521,-0.4168,0.8852,0.1913,2.975,-9.065,0.140,1.25,1,1,1,1,2025-06-04T19:27:47.994026
522,-0.3884,0.8891,0.1874,3.675,-11.620,0.140,1.20,1,1,1,1,2025-06-04T19:27:47.994026
523,-0.3802,0.8916,0.1815,3.045,-12.005,0.595,1.20,1,1,1,1,2025-06-04T19:27:47.994026
524,-0.3831,0.9033,0.1932,2.415,-12.005,0.105,1.25,1,1,1,1,2025-06-04T19:27:47.994026
525,-0.3753,0.9043,0.1942,1.855,-11.970,-0.490,1.27,1,1,1,1,2025-06-04T19:27:47.994026
526,-0.3479,0.8969,0.1864,0.245,-10.990,-0.210,1.23,1,1,1,1,2025-06-04T19:27:47.994026
527,-0.3494,0.8935,0.1815,-0.910,-8.925,0.350,1.28,1,1,1,1,2025-06-04T19:27:47.994026
528,-0.3523,0.8926,0.1845,-1.365,-7.035,0.140,1.25,1,1,1,1,2025-06-04T19:27:47.994026
529,-0.3494,0.8974,0.1874,-1.785,-5.705,0.385,1.28,1,1,1,1,2025-06-04T19:27:47.994026
530,-0.3440,0.8965,0.1879,-2.695,-5.215,0.840,1.29,1,1,1,1,2025-06-04T19:27:47.994026
531,-0.3694,0.9028,0.1854,-3.815,-5.040,0.210,1.23,1,1,1,1,2025-06-04T19:27:47.994026
532,-0.3728,0.9028,0.2054,-2.905,-4.690,-0.140,1.26,1,1,1,1,2025-06-04T19:27:47.994026
533,-0.3709,0.8955,0.2001,-3.430,-4.830,-0.350,1.21,1,1,1,1,2025-06-04T19:27:47.994026
534,-0.3665,0.8862,0.2001,-3.675,-5.775,-0.595,1.24,1,1,1,1,2025-06-04T19:27:47.994026
535,-0.3523,0.8877,0.2035,-3.255,-7.350,-0.140,1.25,1,1,1,1,2025-06-04T19:27:47.994026
536,-0.3553,0.9043,0.1991,-4.130,-7.665,0.630,1.28,1,1,1,1,2025-06-04T19:27:47.994026
537,-0.3475,0.8745,0.1947,-2.625,-9.730,0.490,1.27,1,1,1,1,2025-06-04T19:27:47.994026
538,-0.3567,0.8794,0.1986,-2.450,-11.270,0.175,1.24,1,1,1,1,2025-06-04T19:27:47.994026
539,-0.3479,0.8808,0.2054,-1.540,-11.270,-0.665,1.21,1,1,1,1,2025-06-04T19:27:47.994026
540,-0.3284,0.8804,0.1996,-1.050,-8.855,-1.120,1.23,1,1,1,1,2025-06-04T19:27:47.994026
541,-0.3309,0.8828,0.1981,-1.260,-5.390,-0.945,1.25,1,1,1,1,2025-06-04T19:27:47.994026
542,-0.3445,0.8828,0.1996,-0.455,-3.115,-0.630,1.25,1,1,1,1,2025-06-04T19:27:47.994026
543,-0.3636,0.8857,0.1962,-0.280,-2.310,-0.350,1.19,1,1,1,1,2025-06-04T19:27:47.994026
544,-0.3719,0.8823,0.1928,-0.280,-4.725,0.175,1.27,1,1,1,1,2025-06-04T19:27:47.994026
545,-0.3831,0.8789,0.1923,0.350,-8.505,0.665,1.23,1,1,1,1,2025-06-04T19:27:47.994026
546,-0.3723,0.8818,0.1913,0.875,-11.305,1.190,1.26,1,1,1,1,2025-06-04T19:27:47.994026
547,-0.3553,0.8882,0.1976,0.735,-11.585,1.155,1.27,1,1,1,1,2025-06-04T19:27:47.994026
548,-0.3470,0.8794,0.1913,0.665,-10.430,1.400,1.29,1,1,1,1,2025-06-04T19:27:47.994026
549,-0.3479,0.8799,0.1840,1.225,-8.785,1.190,1.28,1,1,1,1,2025-06-04T19:27:47.994026
550,-0.3562,0.8804,0.1967,1.505,-7.210,0.805,1.24,1,1,1,1,2025-06-04T19:27:47.995016
551,-0.3440,0.8808,0.1957,1.750,-6.370,0.735,1.21,1,1,1,1,2025-06-04T19:27:47.995016
552,-0.3597,0.8760,0.1932,1.085,-6.860,0.840,1.29,1,1,1,1,2025-06-04T19:27:47.995016
553,-0.3684,0.8735,0.1884,1.505,-9.555,0.420,1.25,1,1,1,1,2025-06-04T19:27:47.995016
554,-0.3601,0.8740,0.1864,1.960,-11.725,-0.140,1.25,1,1,1,1,2025-06-04T19:27:47.995016
555,-0.3460,0.8794,0.1913,1.575,-11.480,-1.155,1.30,1,1,1,1,2025-06-04T19:27:47.995016
556,-0.3216,0.8789,0.1913,1.540,-9.905,-2.030,1.29,1,1,1,1,2025-06-04T19:27:47.995016
557,-0.3274,0.8847,0.1845,1.400,-8.050,-2.835,1.31,1,1,1,1,2025-06-04T19:27:47.995016
558,-0.3314,0.8838,0.1776,1.050,-6.335,-3.850,1.31,1,1,1,1,2025-06-04T19:27:47.995016
559,-0.3387,0.8867,0.1776,0.875,-5.635,-4.165,1.10,1,1,1,1,2025-06-04T19:27:47.995016
560,-0.3470,0.8877,0.1801,0.595,-6.125,-4.340,1.23,1,1,1,1,2025-06-04T19:27:47.995016
561,-0.3597,0.8847,0.1767,0.490,-7.910,-4.830,1.30,1,1,1,1,2025-06-04T19:27:47.995016
562,-0.3562,0.8891,0.1767,-0.070,-9.555,-5.460,1.25,1,1,1,1,2025-06-04T19:27:47.995016
563,-0.3514,0.8852,0.1796,-0.420,-10.500,-5.460,1.11,1,1,1,1,2025-06-04T19:27:47.995016
564,-0.3518,0.8882,0.1742,0.385,-10.640,-6.160,1.16,1,1,1,1,2025-06-04T19:27:47.995016
565,-0.3406,0.9018,0.1776,0.840,-8.505,-4.550,1.16,1,1,1,1,2025-06-04T19:27:47.995016
566,-0.3357,0.8789,0.1835,1.085,-7.490,-4.690,1.20,1,1,1,1,2025-06-04T19:27:47.995016
567,-0.3538,0.8896,0.1854,-0.105,-6.370,-5.110,1.07,1,1,1,1,2025-06-04T19:27:47.995016
568,-0.3543,0.8896,0.1850,-0.210,-4.900,-5.180,1.24,1,1,1,1,2025-06-04T19:27:47.995016
569,-0.3528,0.8960,0.1874,0.035,-4.165,-4.760,1.30,1,1,1,1,2025-06-04T19:27:47.995016
570,-0.3582,0.8965,0.1942,-0.525,-3.745,-4.200,1.26,1,1,1,1,2025-06-04T19:27:47.995016
571,-0.3709,0.8965,0.1991,-0.070,-5.215,-3.465,1.22,1,1,1,1,2025-06-04T19:27:47.995016
572,-0.3631,0.8872,0.1879,0.175,-4.200,-3.255,1.25,1,1,1,1,2025-06-04T19:27:47.995016
573,-0.3548,0.8857,0.1776,-0.840,-5.075,-3.255,1.29,1,1,0,1,2025-06-04T19:27:47.995016
574,-0.3426,0.8843,0.1952,-0.140,-6.020,-3.150,1.31,1,1,1,1,2025-06-04T19:27:47.995016
575,-0.3514,0.8808,0.1840,-3.815,-6.755,-3.535,1.25,1,1,1,1,2025-06-04T19:27:47.995016
576,-0.3396,0.8750,0.1801,-3.360,-6.335,-3.780,1.31,1,1,1,1,2025-06-04T19:27:47.995016
577,-0.3177,0.8516,0.1737,-3.360,-5.600,-4.690,1.27,1,1,1,1,2025-06-04T19:27:47.995016
578,-0.3406,0.8706,0.1674,-5.950,-5.040,-5.985,1.11,1,1,1,1,2025-06-04T19:27:47.995016
579,-0.3128,0.8701,0.1610,-5.145,-1.680,-7.805,1.25,1,1,1,1,2025-06-04T19:27:47.995016
580,-0.3177,0.8472,0.1513,-5.250,0.875,-9.590,1.26,1,1,1,1,2025-06-04T19:27:48.091652
581,-0.3265,0.8320,0.1537,-8.785,2.730,-11.515,1.26,1,1,1,1,2025-06-04T19:27:48.091652
582,-0.3455,0.8374,0.1547,-7.910,4.200,-13.055,1.30,1,1,1,1,2025-06-04T19:27:48.091652
583,-0.3675,0.8501,0.1752,-8.505,4.900,-14.770,1.26,1,1,1,1,2025-06-04T19:27:48.091652
584,-0.3850,0.8433,0.1684,-9.380,3.920,-16.205,1.26,1,1,1,1,2025-06-04T19:27:48.091652
585,-0.4041,0.8457,0.1732,-10.395,1.750,-17.395,1.11,1,1,1,1,2025-06-04T19:27:48.091652
586,-0.4153,0.8418,0.1747,-11.165,-0.455,-18.795,0.94,1,1,1,1,2025-06-04T19:27:48.091652
587,-0.4124,0.8520,0.1859,-11.760,-1.610,-20.125,1.14,1,1,1,1,2025-06-04T19:27:48.091652
588,-0.4085,0.8413,0.1952,-11.725,-1.015,-21.175,1.19,1,1,1,1,2025-06-04T19:27:48.091652
589,-0.4128,0.8550,0.1903,-11.935,0.000,-22.050,1.09,1,1,1,1,2025-06-04T19:27:48.091652
590,-0.4099,0.8467,0.2103,-10.920,3.115,-22.645,1.24,1,1,1,1,2025-06-04T19:27:48.091652
591,-0.4060,0.8481,0.2303,-9.835,5.775,-22.505,1.29,1,1,1,1,2025-06-04T19:27:48.091652
592,-0.4060,0.8530,0.2250,-9.870,7.210,-22.015,1.30,1,1,1,1,2025-06-04T19:27:48.091652
593,-0.4226,0.8477,0.2133,-10.605,7.980,-21.560,1.13,1,1,1,1,2025-06-04T19:27:48.092387
594,-0.4514,0.8550,0.2103,-9.870,7.910,-21.455,1.24,1,1,1,1,2025-06-04T19:27:48.092387
595,-0.4636,0.8662,0.2206,-9.940,5.565,-21.070,1.30,1,1,1,1,2025-06-04T19:27:48.092387
596,-0.4607,0.8745,0.2308,-11.935,2.695,-20.090,1.23,1,0,1,1,2025-06-04T19:27:48.092387
597,-0.4421,0.8574,0.2123,-13.615,-0.945,-19.530,1.31,1,1,1,1,2025-06-04T19:27:48.415938
598,-0.4485,0.8574,0.2059,-13.440,-4.410,-19.600,1.18,1,1,0,1,2025-06-04T19:27:48.415938
599,-0.4455,0.8579,0.2045,-13.195,-5.425,-20.405,1.10,1,1,1,1,2025-06-04T19:27:48.415938
600,-0.4255,0.8501,0.2084,-13.825,-4.235,-21.630,1.20,1,1,1,1,2025-06-04T19:27:48.415938
601,-0.4075,0.8516,0.2137,-15.085,-0.735,-22.925,1.19,1,1,1,1,2025-06-04T19:27:48.415938
602,-0.4055,0.8428,0.2128,-16.380,4.515,-23.905,1.25,1,1,1,1,2025-06-04T19:27:48.415938
603,-0.4153,0.8286,0.2103,-16.695,8.190,-24.500,1.25,1,1,1,1,2025-06-04T19:27:48.415938
604,-0.4426,0.8257,0.1986,-17.850,8.540,-25.830,1.24,1,1,1,1,2025-06-04T19:27:48.415938
605,-0.4626,0.8076,0.1903,-18.725,6.930,-27.230,1.17,1,1,1,1,2025-06-04T19:27:48.415938
606,-0.4817,0.8018,0.1952,-19.600,2.450,-29.400,1.16,1,1,1,1,2025-06-04T19:27:48.415938
607,-0.5139,0.7896,0.2245,-20.510,-3.220,-32.060,1.26,1,1,1,1,2025-06-04T19:27:48.415938
608,-0.5168,0.7896,0.2416,-20.930,-8.995,-34.545,1.27,1,1,1,1,2025-06-04T19:27:48.415938
609,-0.4914,0.7793,0.2342,-22.925,-14.840,-36.295,1.11,1,1,1,1,2025-06-04T19:27:48.415938
610,-0.4709,0.7691,0.2162,-24.535,-17.710,-37.800,1.26,1,1,1,1,2025-06-04T19:27:48.416997
611,-0.4577,0.7535,0.2084,-25.480,-17.500,-39.550,1.29,1,1,1,1,2025-06-04T19:27:48.416997
612,-0.4660,0.7374,0.2079,-27.160,-15.785,-41.580,1.27,1,1,1,1,2025-06-04T19:27:48.416997
613,-0.4963,0.7193,0.2162,-29.820,-15.085,-43.505,1.29,1,1,1,1,2025-06-04T19:27:48.548082
614,-0.5197,0.7169,0.2294,-30.730,-15.750,-45.360,1.23,1,1,1,1,2025-06-04T19:27:48.548082
615,-0.5314,0.7149,0.2352,-33.110,-16.030,-47.215,1.29,1,1,1,1,2025-06-04T19:27:48.548082
616,-0.5431,0.7042,0.2347,-35.630,-16.030,-49.560,1.30,1,1,1,1,2025-06-04T19:27:48.548082
617,-0.5402,0.6974,0.2416,-38.430,-15.645,-51.940,1.32,1,1,1,1,2025-06-04T19:27:48.548082
618,-0.5427,0.6871,0.2489,-41.790,-14.735,-53.305,1.30,1,1,1,1,2025-06-04T19:27:48.548082
619,-0.5627,0.6739,0.2542,-44.940,-14.910,-55.510,1.29,1,1,1,1,2025-06-04T19:27:48.563754
620,-0.5861,0.6681,0.2772,-48.755,-14.700,-57.925,1.33,1,1,1,1,2025-06-04T19:27:48.563754
621,-0.5949,0.6612,0.3055,-53.095,-15.575,-60.620,1.28,1,1,1,1,2025-06-04T19:27:48.564110
622,-0.6173,0.6442,0.3118,-57.645,-18.445,-62.755,1.16,1,1,1,1,2025-06-04T19:27:48.564164
623,-0.6359,0.6134,0.3026,-62.755,-23.100,-64.540,1.14,1,1,1,1,2025-06-04T19:27:48.564164
624,-0.6373,0.6027,0.3094,-66.780,-29.295,-66.815,1.21,1,1,1,1,2025-06-04T19:27:48.564164
625,-0.6622,0.5968,0.3250,-72.345,-36.120,-69.335,1.28,1,1,1,1,2025-06-04T19:27:48.564164
626,-0.6656,0.5793,0.3343,-78.540,-43.540,-72.135,1.17,1,1,1,1,2025-06-04T19:27:48.564680
627,-0.6690,0.5558,0.3655,-84.735,-52.115,-74.480,1.25,1,1,1,1,2025-06-04T19:27:48.564784
628,-0.6656,0.5427,0.4046,-91.525,-62.930,-75.670,1.19,1,1,1,1,2025-06-04T19:27:48.564784
629,-0.6700,0.5246,0.4553,-98.770,-75.180,-75.705,1.20,1,1,1,1,2025-06-04T19:27:48.564784
630,-0.6891,0.5168,0.4856,-106.365,-96.950,-74.935,1.09,1,1,1,1,2025-06-04T19:27:48.564784
631,-0.6759,0.5222,0.4939,-112.070,-101.675,-74.305,1.06,1,1,1,1,2025-06-04T19:27:48.564784
632,-0.6739,0.5124,0.4934,-117.915,-112.210,-72.940,1.10,1,1,1,1,2025-06-04T19:27:48.564784
633,-0.6456,0.4841,0.4992,-122.325,-121.485,-71.400,1.17,1,1,1,1,2025-06-04T19:27:48.564784
634,-0.6271,0.4763,0.5290,-125.440,-127.855,-70.000,1.20,1,1,1,1,2025-06-04T19:27:48.565737
635,-0.6051,0.4441,0.5710,-130.235,-130.550,-68.145,1.28,1,1,1,1,2025-06-04T19:27:48.850539
636,-0.5817,0.4148,0.6202,-133.525,-133.070,-65.135,1.17,1,1,1,1,2025-06-04T19:27:48.850539
637,-0.5334,0.3958,0.6481,-137.935,-131.215,-60.165,1.25,1,1,1,1,2025-06-04T19:27:48.850539
638,-0.4963,0.3762,0.6568,-140.980,-125.510,-55.650,1.29,1,1,1,1,2025-06-04T19:27:48.850539
639,-0.4763,0.3387,0.6549,-143.570,-117.390,-51.590,1.30,1,1,1,1,2025-06-04T19:27:48.850539
640,-0.4690,0.3050,0.6539,-144.235,-111.195,-47.600,1.26,1,1,1,1,2025-06-04T19:27:48.851184
641,-0.5041,0.2874,0.6764,-145.390,-108.815,-43.680,1.30,1,1,1,1,2025-06-04T19:27:48.851184
642,-0.5553,0.2660,0.7017,-146.720,-114.030,-40.635,1.15,1,1,1,1,2025-06-04T19:27:48.851184
643,-0.5451,0.2669,0.7291,-148.470,-124.670,-37.380,1.19,1,1,1,1,2025-06-04T19:27:48.851184
644,-0.5436,0.2420,0.7549,-151.130,-137.900,-34.230,1.25,1,1,1,1,2025-06-04T19:27:48.851184
645,-0.4953,0.2274,0.7613,-151.200,-156.730,-30.135,1.21,1,1,1,1,2025-06-04T19:27:48.851184
646,-0.4709,0.2001,0.7652,-154.665,-171.290,-25.970,1.25,1,1,1,1,2025-06-04T19:27:48.851184
647,-0.4104,0.1244,0.7867,-155.155,-184.835,-23.135,1.25,1,1,1,1,2025-06-04T19:27:48.851184
648,-0.2557,0.0815,0.8062,-152.145,-188.055,-20.720,1.21,1,1,1,1,2025-06-04T19:27:48.851184
649,-0.1322,0.0283,0.8408,-149.940,-179.480,-19.355,1.22,1,1,1,1,2025-06-04T19:27:48.852182
650,-0.0063,-0.0151,0.9072,-143.430,-162.470,-20.650,1.21,1,1,1,1,2025-06-04T19:27:48.852182
651,0.0420,-0.0581,0.9409,-141.155,-134.820,-23.520,1.23,1,1,1,1,2025-06-04T19:27:48.852182
652,0.0620,-0.1113,0.9618,-133.910,-109.830,-28.840,1.26,1,1,1,1,2025-06-04T19:27:48.852182
653,0.0737,-0.1693,0.9950,-126.175,-84.035,-33.705,1.28,1,1,1,1,2025-06-04T19:27:48.852182
654,0.0742,-0.2279,1.0263,-117.320,-60.165,-35.910,1.29,1,1,1,1,2025-06-04T19:27:49.085965
655,0.0102,-0.2782,1.0790,-105.770,-39.585,-36.680,1.25,1,1,1,1,2025-06-04T19:27:49.085965
656,-0.1030,-0.2791,1.1170,-98.455,-25.865,-38.990,1.29,1,1,1,1,2025-06-04T19:27:49.085965
657,-0.1732,-0.2977,1.1434,-89.565,-20.580,-41.055,1.24,1,1,1,1,2025-06-04T19:27:49.096244
658,-0.2728,-0.3133,1.1390,-85.680,-19.320,-43.190,1.29,1,1,1,1,2025-06-04T19:27:49.096244
659,-0.3065,-0.3362,1.1341,-79.100,-23.695,-44.240,1.23,1,1,1,1,2025-06-04T19:27:49.096244
660,-0.3089,-0.3475,1.1614,-75.215,-26.915,-43.365,1.29,1,1,1,1,2025-06-04T19:27:49.096244
661,-0.2801,-0.4104,1.1366,-70.875,-29.400,-39.095,1.31,1,1,1,1,2025-06-04T19:27:49.096244
662,-0.2069,-0.4075,1.0692,-66.465,-27.195,-32.935,1.25,1,1,1,1,2025-06-04T19:27:49.096244
663,-0.1654,-0.4119,0.8838,-63.245,-17.815,-26.810,1.26,1,1,1,1,2025-06-04T19:27:49.096244
664,-0.1537,-0.3924,0.9550,-60.935,-4.165,-22.400,1.29,1,1,1,1,2025-06-04T19:27:49.096244
665,-0.1659,-0.3860,1.0019,-61.250,8.855,-20.125,1.25,1,1,1,1,2025-06-04T19:27:49.096244
666,-0.3684,-0.4690,1.0126,-61.215,8.890,-16.590,1.31,1,1,1,1,2025-06-04T19:27:49.096244
667,-0.6744,-0.6349,1.0975,-50.015,-33.915,-1.925,1.20,1,1,1,1,2025-06-04T19:27:49.096244
668,-0.1415,-0.7618,1.3688,-18.235,-45.710,-18.060,1.16,1,1,1,1,2025-06-04T19:27:49.096244
669,-0.4050,-0.5022,1.2127,-53.935,17.885,-3.430,1.07,1,1,1,1,2025-06-04T19:27:49.096244
670,-0.5671,-0.6120,1.4913,3.885,-12.915,5.845,1.15,1,1,1,1,2025-06-04T19:27:49.096244
671,-0.3465,-0.3616,1.2795,10.465,-86.590,7.385,1.26,1,1,1,1,2025-06-04T19:27:49.096244
672,-0.0678,-0.4485,1.1146,-17.710,-77.000,8.610,1.24,1,1,1,1,2025-06-04T19:27:49.096244
673,-0.2074,-0.3899,0.9609,-13.370,-75.845,5.180,1.12,1,1,1,1,2025-06-04T19:27:49.096244
674,0.0473,-0.4455,0.7998,-12.670,-57.645,3.255,1.24,1,1,1,1,2025-06-04T19:27:49.096244
675,0.0503,-0.3767,0.8213,-8.155,-39.515,7.315,1.26,1,1,1,1,2025-06-04T19:27:49.096244
676,-0.0634,-0.3841,0.9365,-7.175,-31.045,5.215,1.27,1,1,1,1,2025-06-04T19:27:49.096244
677,-0.0590,-0.3699,1.0336,-7.490,-33.530,1.995,1.31,1,1,1,1,2025-06-04T19:27:49.096244
678,-0.0132,-0.3533,1.0765,-7.105,-31.045,0.735,1.30,1,1,1,1,2025-06-04T19:27:49.096244
679,-0.0366,-0.3572,1.0995,-1.890,-26.985,-0.560,1.30,1,1,1,1,2025-06-04T19:27:49.301123
680,-0.0468,-0.3626,1.0858,0.630,-22.365,-1.155,1.31,1,1,1,1,2025-06-04T19:27:49.301123
681,-0.0776,-0.3680,1.0380,0.840,-19.845,-2.275,1.25,1,1,1,1,2025-06-04T19:27:49.301123
682,-0.0795,-0.3631,0.9941,0.420,-18.935,-4.480,1.19,1,1,1,1,2025-06-04T19:27:49.301123
683,-0.0605,-0.3650,0.9418,1.015,-15.330,-6.580,1.26,1,1,1,1,2025-06-04T19:27:49.301123
684,-0.0307,-0.3689,0.9008,1.225,-11.970,-8.050,1.14,1,1,1,1,2025-06-04T19:27:49.301123
685,-0.0083,-0.3699,0.8862,0.805,-9.450,-8.925,1.20,1,1,1,1,2025-06-04T19:27:49.301123
686,0.0024,-0.3850,0.8994,1.260,-7.070,-9.030,1.26,1,1,1,1,2025-06-04T19:27:49.301123
687,-0.0005,-0.3889,0.9218,1.715,-3.360,-8.750,1.30,1,1,1,1,2025-06-04T19:27:49.301123
688,-0.0068,-0.3977,0.9501,2.695,-0.070,-8.575,1.27,1,1,1,1,2025-06-04T19:27:49.301123
689,-0.0400,-0.4192,0.9731,2.205,1.610,-8.785,1.31,1,1,1,1,2025-06-04T19:27:49.301123
690,-0.0493,-0.4163,0.9770,2.905,2.135,-9.345,1.32,1,1,1,1,2025-06-04T19:27:49.301123
691,-0.0673,-0.4255,0.9760,1.995,4.200,-9.765,1.22,1,1,1,1,2025-06-04T19:27:49.301123
692,-0.0800,-0.4392,0.9794,2.660,5.705,-10.500,1.29,1,1,1,1,2025-06-04T19:27:49.302174
693,-0.0786,-0.4382,0.9780,2.415,8.190,-10.990,1.31,1,1,1,1,2025-06-04T19:27:49.302174
694,-0.0722,-0.4436,0.9736,1.925,10.990,-11.165,1.21,1,1,1,1,2025-06-04T19:27:49.302174
695,-0.0732,-0.4319,0.9760,2.345,13.510,-11.515,1.10,1,1,1,1,2025-06-04T19:27:49.713195
696,-0.0703,-0.4221,0.9682,2.065,17.955,-11.445,1.34,1,1,1,1,2025-06-04T19:27:49.713195
697,-0.0869,-0.4299,0.9731,2.100,24.535,-10.850,1.38,1,1,1,1,2025-06-04T19:27:49.713195
698,-0.1215,-0.4021,0.9697,3.080,29.155,-8.995,1.33,1,1,1,1,2025-06-04T19:27:49.713195
699,-0.1542,-0.4480,0.9740,2.485,31.535,-7.665,1.36,1,1,1,1,2025-06-04T19:27:49.713195
700,-0.2118,-0.4133,0.9516,2.695,26.425,-2.695,1.33,1,1,1,1,2025-06-04T19:27:49.713195
701,-0.3553,-0.3928,0.9126,0.210,6.195,4.795,1.35,1,1,1,1,2025-06-04T19:27:49.713195
702,-0.3001,-0.3816,0.8901,-0.980,-10.115,7.595,1.39,1,1,1,1,2025-06-04T19:27:49.713195
703,-0.0224,-0.3660,0.8725,-4.690,1.855,0.560,1.35,1,1,1,1,2025-06-04T19:27:49.713195
704,-0.0195,-0.3680,0.8716,-6.825,14.455,-4.865,1.34,1,1,1,1,2025-06-04T19:27:49.714039
705,-0.0205,-0.4041,0.9135,-3.220,13.300,-8.890,1.32,1,1,1,1,2025-06-04T19:27:49.714193
706,-0.0146,-0.3938,0.9667,-2.450,11.655,-11.515,1.36,1,1,1,1,2025-06-04T19:27:49.714193
707,-0.0132,-0.3880,1.0072,-0.875,9.905,-13.965,1.43,1,1,1,1,2025-06-04T19:27:49.714193
708,-0.0322,-0.3806,1.0189,-0.665,10.920,-15.330,1.36,1,1,1,1,2025-06-04T19:27:49.714193
709,-0.0664,-0.3640,1.0141,1.855,11.375,-15.260,1.36,1,1,1,1,2025-06-04T19:27:49.714193
710,-0.0937,-0.3543,0.9965,2.695,12.180,-13.510,1.40,1,1,1,1,2025-06-04T19:27:49.714193
711,-0.1410,-0.3489,0.9838,2.520,10.220,-11.235,1.38,1,1,1,1,2025-06-04T19:27:49.714193
712,-0.1591,-0.3440,0.9814,3.220,6.335,-9.450,1.34,1,1,1,1,2025-06-04T19:27:49.831945
713,-0.1698,-0.3479,0.9853,3.325,4.025,-7.875,1.25,1,1,1,1,2025-06-04T19:27:49.831945
714,-0.1449,-0.3548,0.9828,4.235,1.120,-6.755,1.34,1,1,1,1,2025-06-04T19:27:49.831945
715,-0.1362,-0.3553,0.9784,3.990,0.350,-5.880,1.35,1,1,1,1,2025-06-04T19:27:49.831945
716,-0.1362,-0.3723,0.9775,4.410,0.035,-5.040,1.33,1,1,1,1,2025-06-04T19:27:49.831945
717,-0.1254,-0.3772,0.9726,4.690,0.280,-3.850,1.35,1,1,1,1,2025-06-04T19:27:49.831945
718,-0.1249,-0.3806,0.9609,4.550,-0.910,-2.975,1.26,1,1,1,1,2025-06-04T19:27:49.831945
719,-0.1381,-0.3875,0.9453,4.060,-0.735,-2.135,1.28,1,1,1,1,2025-06-04T19:27:49.831945
720,-0.1205,-0.3987,0.9467,3.920,-0.385,-1.225,1.20,1,1,1,1,2025-06-04T19:27:49.831945
721,-0.1425,-0.3919,0.9453,3.150,-0.910,-0.525,1.29,1,1,1,1,2025-06-04T19:27:49.831945
722,-0.1391,-0.3997,0.9540,2.625,-2.520,-0.210,1.38,1,1,1,1,2025-06-04T19:27:49.831945
723,-0.1347,-0.4016,0.9618,1.540,-2.940,0.105,1.25,1,1,1,1,2025-06-04T19:27:49.832835
724,-0.1401,-0.4050,0.9687,1.855,-4.550,-0.105,1.27,1,1,1,1,2025-06-04T19:27:49.832835
725,-0.1308,-0.4143,0.9755,1.925,-5.075,-0.560,1.31,1,1,1,1,2025-06-04T19:27:49.832835
726,-0.1327,-0.4182,0.9775,1.820,-5.740,-1.470,1.35,1,1,1,1,2025-06-04T19:27:49.832835
727,-0.1210,-0.4172,0.9672,1.785,-3.745,-1.610,1.38,1,1,1,1,2025-06-04T19:27:49.832835
728,-0.1547,-0.4133,0.9550,1.855,-2.765,-1.925,1.42,1,1,1,1,2025-06-04T19:27:49.832835
729,-0.1654,-0.4055,0.9472,2.380,-3.220,-2.555,1.31,1,1,1,1,2025-06-04T19:27:49.833219
730,-0.1669,-0.4006,0.9457,1.610,-2.870,-2.660,1.33,1,1,1,1,2025-06-04T19:27:49.833219
731,-0.1845,-0.3958,0.9448,1.680,-4.095,-3.325,1.34,1,1,1,1,2025-06-04T19:27:49.833219
732,-0.1850,-0.3997,0.9365,1.400,-5.180,-3.850,1.29,1,1,1,1,2025-06-04T19:27:49.833219
733,-0.1737,-0.3933,0.9409,1.645,-5.425,-4.095,1.32,1,1,1,1,2025-06-04T19:27:49.833219
734,-0.1684,-0.3914,0.9487,1.295,-5.110,-4.445,1.30,1,1,1,1,2025-06-04T19:27:49.833219
735,-0.1620,-0.3928,0.9462,1.225,-5.425,-5.180,1.26,1,1,1,1,2025-06-04T19:27:49.833219
736,-0.1537,-0.3894,0.9472,1.120,-4.410,-5.565,1.26,1,1,1,1,2025-06-04T19:27:49.883298
737,-0.1552,-0.3845,0.9516,1.050,-3.605,-6.020,1.11,1,1,1,1,2025-06-04T19:27:49.883298
738,-0.1566,-0.3821,0.9521,1.120,-3.325,-5.985,1.21,1,1,1,1,2025-06-04T19:27:49.883298
739,-0.1591,-0.3802,0.9599,1.155,-1.505,-5.740,1.14,1,1,1,1,2025-06-04T19:27:49.883298
740,-0.1532,-0.3797,0.9536,1.645,-1.470,-5.635,1.25,1,1,1,1,2025-06-04T19:27:49.883298
741,-0.1532,-0.3723,0.9496,1.435,-1.925,-5.285,1.29,1,1,1,1,2025-06-04T19:27:49.883298
742,-0.1537,-0.3743,0.9506,1.050,-2.520,-4.795,1.30,1,1,1,1,2025-06-04T19:27:49.883298
743,-0.1527,-0.3699,0.9492,1.050,-4.025,-4.025,1.25,1,1,1,1,2025-06-04T19:27:50.125457
744,-0.1527,-0.3709,0.9540,0.630,-5.040,-2.940,1.32,1,1,1,1,2025-06-04T19:27:50.125457
745,-0.1537,-0.3728,0.9536,0.245,-6.475,-1.925,1.29,1,1,1,1,2025-06-04T19:27:50.125457
746,-0.1484,-0.3743,0.9540,-0.245,-7.245,-0.875,1.28,1,1,1,1,2025-06-04T19:27:50.125457
747,-0.1362,-0.3762,0.9570,-0.280,-7.735,-0.035,1.20,1,1,1,1,2025-06-04T19:27:50.125457
748,-0.1357,-0.3797,0.9589,-0.350,-7.700,0.805,1.28,1,1,1,1,2025-06-04T19:27:50.125457
749,-0.1337,-0.3797,0.9594,-0.525,-7.630,1.295,1.23,1,1,1,1,2025-06-04T19:27:50.125457
750,-0.1357,-0.3782,0.9589,-0.875,-7.525,1.890,1.22,1,1,1,1,2025-06-04T19:27:50.125457
751,-0.1386,-0.3777,0.9550,-0.735,-7.490,2.450,1.09,1,1,1,1,2025-06-04T19:27:50.125457
752,-0.1420,-0.3782,0.9555,-0.910,-7.420,2.905,1.16,1,1,1,1,2025-06-04T19:27:50.125457
753,-0.1488,-0.3821,0.9521,-0.910,-7.665,3.220,1.21,1,1,1,1,2025-06-04T19:27:50.125457
754,-0.1493,-0.3850,0.9526,-0.805,-7.840,3.360,1.29,1,1,1,1,2025-06-04T19:27:50.125457
755,-0.1552,-0.3855,0.9477,-0.875,-8.050,3.535,1.31,1,1,1,1,2025-06-04T19:27:50.125457
756,-0.1610,-0.3919,0.9492,-0.665,-8.750,3.500,1.20,1,1,1,1,2025-06-04T19:27:50.125457
757,-0.1576,-0.3909,0.9453,-0.665,-8.750,3.535,1.21,1,1,1,1,2025-06-04T19:27:50.125457
758,-0.1654,-0.3948,0.9448,-0.595,-8.225,3.255,1.25,1,1,1,1,2025-06-04T19:27:50.125457
759,-0.1630,-0.3943,0.9414,-0.315,-8.050,2.765,1.29,1,1,1,1,2025-06-04T19:27:50.125457
760,-0.1654,-0.3948,0.9409,-0.560,-7.805,2.310,1.27,1,1,1,1,2025-06-04T19:27:50.125457
761,-0.1718,-0.3953,0.9409,-0.595,-7.875,1.855,1.29,1,1,1,1,2025-06-04T19:27:50.125457
762,-0.1718,-0.3958,0.9409,-0.420,-7.735,1.435,1.31,1,1,1,1,2025-06-04T19:27:50.330103
763,-0.1732,-0.3933,0.9453,-0.210,-7.840,0.945,1.25,1,1,1,1,2025-06-04T19:27:50.330103
764,-0.1698,-0.3904,0.9506,-0.280,-7.805,0.665,1.25,1,1,1,1,2025-06-04T19:27:50.331103
765,-0.1679,-0.3924,0.9506,-0.280,-7.910,0.245,1.29,1,1,1,1,2025-06-04T19:27:50.331103
766,-0.1625,-0.3889,0.9550,-0.070,-7.840,-0.105,1.30,1,1,1,1,2025-06-04T19:27:50.331103
767,-0.1762,-0.3723,0.9550,-0.210,-7.735,-0.525,1.14,1,1,1,1,2025-06-04T19:27:50.331103
768,-0.1654,-0.3865,0.9526,-0.105,-7.385,-0.945,1.22,1,1,1,1,2025-06-04T19:27:50.331103
769,-0.1640,-0.3816,0.9467,0.315,-7.000,-1.050,1.25,1,1,1,1,2025-06-04T19:27:50.331103
770,-0.1659,-0.3792,0.9496,0.175,-7.210,-1.260,1.30,1,1,1,1,2025-06-04T19:27:50.331103
771,-0.1610,-0.3826,0.9492,0.245,-7.700,-1.225,1.26,1,1,1,1,2025-06-04T19:27:50.331103
772,-0.1576,-0.3806,0.9511,-0.105,-7.945,-1.190,1.25,1,1,1,1,2025-06-04T19:27:50.331103
773,-0.1484,-0.3845,0.9511,0.035,-8.120,-1.260,1.29,1,1,1,1,2025-06-04T19:27:50.331103
774,-0.1454,-0.3865,0.9531,-0.035,-8.295,-1.050,1.27,1,1,1,1,2025-06-04T19:27:50.331103
775,-0.1430,-0.3904,0.9501,0.070,-8.225,-0.980,1.24,1,1,1,1,2025-06-04T19:27:50.331103
776,-0.1405,-0.3909,0.9487,0.000,-8.260,-0.735,0.98,1,1,1,1,2025-06-04T19:27:50.331103
777,-0.1386,-0.3933,0.9487,0.035,-8.015,-0.665,1.08,1,1,1,1,2025-06-04T19:27:50.331103
778,-0.1405,-0.3953,0.9462,0.140,-8.155,-0.490,1.25,1,1,1,1,2025-06-04T19:27:50.331103
779,-0.1381,-0.3972,0.9448,0.350,-7.980,-0.350,1.29,1,1,1,1,2025-06-04T19:27:50.535947
780,-0.1401,-0.3992,0.9423,0.455,-7.665,-0.420,1.27,1,1,1,1,2025-06-04T19:27:50.535947
781,-0.1484,-0.3943,0.9360,0.420,-7.385,-0.455,1.21,1,1,1,1,2025-06-04T19:27:50.535947
782,-0.1542,-0.3909,0.9355,0.315,-7.070,-0.595,1.21,1,1,1,1,2025-06-04T19:27:50.535947
783,-0.1552,-0.3875,0.9379,0.315,-6.755,-0.595,1.26,1,1,1,1,2025-06-04T19:27:50.535947
784,-0.1571,-0.3767,0.9443,0.245,-6.825,-0.665,1.25,1,1,1,1,2025-06-04T19:27:50.535947
785,-0.1703,-0.3640,0.9536,0.490,-7.525,-0.630,1.23,1,1,1,1,2025-06-04T19:27:50.535947
786,-0.1708,-0.3450,0.9570,0.770,-8.400,-0.525,1.21,1,1,1,1,2025-06-04T19:27:50.535947
787,-0.1664,-0.3357,0.9662,0.945,-8.715,-0.035,1.20,1,1,1,1,2025-06-04T19:27:50.535947
788,-0.0464,-0.2899,0.9516,0.875,-4.935,3.080,1.27,1,1,1,1,2025-06-04T19:27:50.535947
789,-0.1767,-0.2991,0.9570,-1.435,4.795,5.075,1.30,1,1,1,1,2025-06-04T19:27:50.535947
790,-0.1854,-0.2913,0.9692,2.415,0.420,5.320,1.25,1,1,1,1,2025-06-04T19:27:50.535947
791,-0.1547,-0.2747,0.9843,-0.420,2.730,7.455,1.28,1,1,1,1,2025-06-04T19:27:50.535947
792,-0.1479,-0.2782,0.9750,0.210,1.785,9.590,1.27,1,1,1,1,2025-06-04T19:27:50.535947
793,-0.1371,-0.2840,0.9589,-0.630,5.110,11.830,1.28,1,1,1,1,2025-06-04T19:27:50.535947
794,-0.1493,-0.2816,0.9501,0.175,8.260,13.020,1.24,1,1,1,1,2025-06-04T19:27:50.536630
795,-0.1518,-0.2933,0.9331,-1.925,12.460,13.860,1.25,1,1,1,1,2025-06-04T19:27:50.536630
796,-0.1752,-0.3045,0.9404,-3.255,15.750,14.245,1.23,1,1,1,1,2025-06-04T19:27:50.800080
797,-0.2118,-0.3260,0.9506,-3.325,14.945,14.840,1.09,1,1,1,1,2025-06-04T19:27:50.800080
798,-0.3260,-0.2450,0.9257,-6.125,8.190,12.320,1.24,1,1,1,1,2025-06-04T19:27:50.800080
799,-0.2357,-0.4172,0.9018,-4.970,13.020,12.355,1.22,1,1,1,1,2025-06-04T19:27:50.800080
800,-0.2625,-0.3958,0.9028,-1.925,8.120,13.440,1.23,1,1,1,1,2025-06-04T19:27:50.800080
801,-0.2572,-0.4128,0.9155,-2.275,4.025,14.875,1.10,1,1,1,1,2025-06-04T19:27:50.800080
802,-0.2464,-0.4060,0.9028,-3.465,0.420,16.730,1.26,1,1,1,1,2025-06-04T19:27:50.800080
803,-0.2250,-0.4104,0.8916,-4.025,-0.105,19.180,1.23,1,1,1,1,2025-06-04T19:27:50.800080
804,-0.2333,-0.4348,0.8745,-5.390,0.385,20.860,1.21,1,1,1,1,2025-06-04T19:27:50.996871
805,-0.2357,-0.4143,0.8789,-5.495,1.890,22.120,1.19,1,1,1,1,2025-06-04T19:27:50.996871
806,-0.2474,-0.3997,0.8794,-8.435,3.360,23.485,1.23,1,1,1,1,2025-06-04T19:27:50.996871
807,-0.2704,-0.3919,0.8760,-10.535,2.975,25.060,1.23,1,1,1,1,2025-06-04T19:27:50.996871
808,-0.2625,-0.3758,0.8603,-13.300,2.555,27.195,1.24,1,1,1,1,2025-06-04T19:27:50.996871
809,-0.2489,-0.3601,0.8394,-16.450,3.815,30.485,1.33,1,1,1,1,2025-06-04T19:27:50.996871
810,-0.2142,-0.3762,0.8213,-20.440,9.940,32.690,1.29,1,1,1,1,2025-06-04T19:27:50.996871
811,-0.2211,-0.4055,0.8438,-23.905,17.605,32.760,1.29,1,1,1,1,2025-06-04T19:27:50.996871
