SeqNum,AccX,AccY,AccZ,GyroX,GyroY,GyroZ,Flex,Force1,Force2,Force3,Force4,TimestampReception
11072,-0.5026,0.1752,0.9487,-9.450,8.540,-5.250,470,317,345,395,379,2025-05-23T23:47:16.536566
11073,-0.3279,0.2289,0.9501,11.060,0.070,10.220,480,422,281,367,358,2025-05-23T23:47:16.536654
11074,-0.3196,0.2479,0.9862,14.280,2.450,14.980,400,420,329,400,379,2025-05-23T23:47:16.536675
11075,-0.3196,0.2577,0.9828,19.880,3.710,21.140,418,410,327,403,359,2025-05-23T23:47:16.536687
11076,-0.3021,0.2694,0.9350,21.910,5.320,24.850,414,416,350,405,373,2025-05-23T23:47:16.536697
11077,-0.2943,0.2913,0.9072,19.810,1.120,24.360,399,412,367,409,375,2025-05-23T23:47:16.668022
11078,-0.2596,0.3201,0.8896,15.540,-3.640,20.790,417,397,381,387,367,2025-05-23T23:47:16.668065
11079,-0.2416,0.3411,0.8823,6.930,-5.250,15.960,393,406,386,405,356,2025-05-23T23:47:16.668074
11080,-0.2377,0.3426,0.8886,-1.400,-5.880,12.180,411,416,399,405,366,2025-05-23T23:47:16.668081
11081,-0.2577,0.3304,0.9233,-7.350,-4.130,9.170,429,396,354,412,362,2025-05-23T23:47:16.668088
11082,-0.2991,0.2938,0.9301,-7.420,-2.170,7.980,398,422,385,410,377,2025-05-23T23:47:16.668094
11083,-0.2962,0.2747,0.9716,-3.920,-1.680,7.210,406,415,384,353,373,2025-05-23T23:47:16.668101
11084,-0.2713,0.2757,0.9565,0.840,0.000,6.720,418,395,374,376,336,2025-05-23T23:47:16.668108
11085,-0.2655,0.2767,0.9496,4.830,2.030,5.880,403,402,342,331,327,2025-05-23T23:47:16.668117
11086,-0.2562,0.2908,0.9428,6.230,0.210,4.060,389,425,360,321,321,2025-05-23T23:47:16.668123
11087,-0.2518,0.3055,0.9184,4.900,-1.820,1.680,385,415,366,358,326,2025-05-23T23:47:16.668128
11088,-0.2503,0.3196,0.9106,1.750,-2.590,-0.070,372,417,381,375,362,2025-05-23T23:47:16.885966
11089,-0.2752,0.3260,0.9072,-2.310,-2.450,-1.190,390,430,355,372,366,2025-05-23T23:47:16.885993
11090,-0.2923,0.3143,0.9091,-5.670,-2.450,-1.820,396,429,376,387,360,2025-05-23T23:47:16.885998
11091,-0.3094,0.2923,0.9165,-6.790,-3.500,-0.770,351,408,370,394,380,2025-05-23T23:47:16.886003
11092,-0.3167,0.2821,0.9365,-5.810,-4.270,0.840,403,410,343,404,336,2025-05-23T23:47:16.886016
11093,-0.2957,0.2806,0.9462,-4.060,-2.730,3.360,416,422,357,382,332,2025-05-23T23:47:16.886020
11094,-0.2850,0.2796,0.9472,-1.750,-0.280,5.040,381,340,360,396,294,2025-05-23T23:47:16.886025
11095,-0.2786,0.2816,0.9389,-0.140,0.210,5.740,384,344,342,399,322,2025-05-23T23:47:16.886029
11096,-0.2640,0.2938,0.9306,0.000,-0.210,5.390,401,396,372,402,308,2025-05-23T23:47:16.886033
11097,-0.2601,0.3079,0.9189,-1.820,0.910,4.690,399,396,384,357,306,2025-05-23T23:47:16.886037
11098,-0.2635,0.3128,0.9145,-4.410,1.050,3.850,390,397,390,379,315,2025-05-23T23:47:16.886042
11099,-0.2567,0.3143,0.9130,-7.350,2.520,4.410,376,373,394,294,319,2025-05-23T23:47:16.886047
11100,-0.2416,0.3255,0.9238,-12.320,8.120,7.700,411,389,380,328,326,2025-05-23T23:47:16.886051
11101,-0.2762,0.3187,0.9194,-16.940,16.800,12.740,303,409,376,363,310,2025-05-23T23:47:16.886057
11102,-0.3309,0.3030,0.9135,-20.790,20.580,16.730,328,422,386,388,317,2025-05-23T23:47:16.886079
11103,-0.3909,0.2718,0.9126,-20.370,16.170,17.080,376,439,381,334,309,2025-05-23T23:47:16.886085
11104,-0.3787,0.2699,0.9150,-16.660,6.720,15.120,383,395,384,333,308,2025-05-23T23:47:16.886090
11105,-0.3143,0.2777,0.9248,-14.700,-0.140,11.830,352,401,377,387,310,2025-05-23T23:47:16.886094
11106,-0.2640,0.2796,0.9321,-13.510,-4.060,7.420,407,344,376,410,375,2025-05-23T23:47:17.081524
11107,-0.2347,0.2450,0.9819,-8.820,-8.680,-0.280,390,406,378,393,357,2025-05-23T23:47:17.081576
11108,-0.1791,0.2601,0.9906,-5.250,-4.900,-7.350,394,422,395,406,379,2025-05-23T23:47:17.081590
11109,-0.2035,0.2684,0.9740,-3.080,3.290,-12.390,413,410,390,416,368,2025-05-23T23:47:17.081600
11110,-0.2572,0.2601,0.9604,-2.240,8.610,-16.730,429,393,376,351,353,2025-05-23T23:47:17.081615
11111,-0.2967,0.2669,0.9384,-2.310,8.470,-21.560,410,419,363,372,315,2025-05-23T23:47:17.081626
11112,-0.3328,0.2479,0.9145,-0.140,-1.190,-26.390,413,393,367,370,322,2025-05-23T23:47:17.081635
11113,-0.3865,0.2469,0.9082,2.730,-14.070,-33.250,418,399,365,373,324,2025-05-23T23:47:17.081667
11114,-0.3411,0.2567,0.9096,7.140,-24.500,-40.110,409,389,365,332,317,2025-05-23T23:47:17.081676
11115,-0.3026,0.2577,0.9394,9.170,-30.030,-41.720,411,417,364,340,277,2025-05-23T23:47:17.081691
11116,-0.3128,0.2474,0.9736,12.670,-30.660,-38.850,378,381,360,369,305,2025-05-23T23:47:17.081700
11117,-0.3250,0.2250,0.9989,18.060,-27.580,-35.910,410,402,379,369,320,2025-05-23T23:47:17.081709
11118,-0.2904,0.2259,0.9823,27.020,-26.110,-33.880,391,418,379,382,324,2025-05-23T23:47:17.081718
11119,-0.2513,0.2391,0.9765,31.290,-18.620,-29.960,417,425,380,345,320,2025-05-23T23:47:17.081726
11120,-0.2704,0.2562,0.9843,32.900,-7.210,-22.120,350,401,365,377,322,2025-05-23T23:47:17.081784
11121,-0.3240,0.2591,0.9267,31.640,0.420,-15.330,404,386,369,369,319,2025-05-23T23:47:17.081798
11122,-0.3372,0.2728,0.9194,30.800,5.460,-8.890,392,362,348,352,341,2025-05-23T23:47:17.281935
11123,-0.3567,0.2806,0.8789,26.950,3.220,-3.780,403,377,370,399,376,2025-05-23T23:47:17.281963
11124,-0.3528,0.3079,0.8711,20.930,-3.220,-1.470,409,403,382,408,377,2025-05-23T23:47:17.281969
11125,-0.3255,0.3299,0.8633,15.540,-9.450,0.770,345,408,398,413,372,2025-05-23T23:47:17.281976
11126,-0.3040,0.3382,0.8794,7.840,-13.720,3.430,404,427,383,409,375,2025-05-23T23:47:17.281981
11127,-0.2933,0.3284,0.8984,0.350,-15.470,5.180,423,401,383,380,319,2025-05-23T23:47:17.281986
11128,-0.2913,0.3109,0.9282,-1.120,-15.960,6.020,397,338,374,401,366,2025-05-23T23:47:17.282005
11129,-0.2860,0.3016,0.9355,0.070,-14.560,6.930,396,378,383,383,345,2025-05-23T23:47:17.282010
11130,-0.2679,0.3065,0.9355,1.540,-10.290,7.280,385,387,385,396,288,2025-05-23T23:47:17.282019
11131,-0.2528,0.3021,0.9404,0.980,-5.460,7.560,377,394,385,371,319,2025-05-23T23:47:17.282023
11132,-0.2611,0.2996,0.9394,0.560,-3.290,6.860,391,415,387,374,338,2025-05-23T23:47:17.282028
11133,-0.2562,0.3035,0.9238,0.070,-3.220,4.480,361,390,390,393,330,2025-05-23T23:47:17.282033
11134,-0.2479,0.3084,0.9252,-1.050,-2.800,3.080,374,416,388,379,326,2025-05-23T23:47:17.282037
11135,-0.2596,0.3172,0.9262,-1.820,-1.890,2.100,426,372,394,355,307,2025-05-23T23:47:17.282045
11136,-0.2786,0.3245,0.9233,-4.270,-2.240,0.980,401,386,380,375,320,2025-05-23T23:47:17.282068
11137,-0.2840,0.3152,0.9150,-6.650,-3.780,0.000,427,336,355,380,330,2025-05-23T23:47:17.282074
11138,-0.2948,0.2918,0.9252,-6.860,-5.810,0.070,424,359,373,393,323,2025-05-23T23:47:17.282078
11139,-0.3255,0.2645,0.9457,-3.780,-7.980,2.030,401,409,392,387,344,2025-05-23T23:47:17.337653
11140,-0.3245,0.2645,0.9672,3.920,-8.750,4.060,403,410,381,401,368,2025-05-23T23:47:17.337676
11141,-0.2806,0.2786,0.9618,7.770,-7.700,5.530,369,424,389,401,354,2025-05-23T23:47:17.337684
11142,-0.2655,0.2982,0.9311,10.360,-7.140,5.250,387,395,393,391,373,2025-05-23T23:47:17.337690
11143,-0.2435,0.3177,0.9155,7.980,-7.700,3.640,407,336,391,393,376,2025-05-23T23:47:17.337694
11144,-0.2308,0.3294,0.9150,3.570,-7.700,1.190,395,407,391,402,381,2025-05-23T23:47:17.386165
11145,-0.2474,0.3279,0.9223,-0.630,-5.880,-0.840,417,407,386,391,358,2025-05-23T23:47:17.386207
11146,-0.2655,0.3148,0.9370,-1.330,-4.340,-2.450,417,416,378,383,356,2025-05-23T23:47:17.386414
11147,-0.2733,0.3030,0.9379,0.140,-2.870,-2.310,425,422,384,408,339,2025-05-23T23:47:17.386426
11148,-0.2747,0.2938,0.9379,1.890,0.280,-1.470,401,421,390,388,371,2025-05-23T23:47:17.434864
11149,-0.2826,0.2894,0.9438,4.200,1.260,0.630,397,399,380,399,359,2025-05-23T23:47:17.434925
11150,-0.2918,0.2948,0.9379,5.810,0.280,2.240,394,352,386,409,326,2025-05-23T23:47:17.434937
11151,-0.2821,0.2943,0.9072,6.230,-1.680,2.660,337,325,368,400,370,2025-05-23T23:47:17.434947
11152,-0.2826,0.3250,0.9126,5.040,-4.270,2.730,375,409,380,394,372,2025-05-23T23:47:17.693009
11153,-0.2616,0.3299,0.9043,1.470,-6.790,1.470,353,415,383,381,371,2025-05-23T23:47:17.693034
11154,-0.2660,0.3323,0.9218,-1.540,-8.540,0.560,390,423,372,386,369,2025-05-23T23:47:17.693047
11155,-0.2601,0.3245,0.9243,-2.590,-8.680,-1.050,404,432,348,399,379,2025-05-23T23:47:17.693052
11156,-0.2435,0.3196,0.9282,-3.290,-6.510,-1.610,429,427,353,379,371,2025-05-23T23:47:17.693059
11157,-0.2518,0.3084,0.9379,-3.640,-3.430,-1.680,398,424,364,409,374,2025-05-23T23:47:17.693064
11158,-0.2474,0.3026,0.9521,-2.450,-1.050,-1.680,410,426,376,349,360,2025-05-23T23:47:17.695990
11159,-0.2713,0.2948,0.9560,0.000,0.630,-1.610,403,423,387,386,356,2025-05-23T23:47:17.696003
11160,-0.2694,0.2889,0.9438,3.080,1.050,-2.170,403,407,376,398,333,2025-05-23T23:47:17.696008
11161,-0.2708,0.3079,0.9292,5.390,-0.210,-2.730,406,426,380,377,329,2025-05-23T23:47:17.696013
11162,-0.2650,0.3128,0.9126,4.690,-0.700,-2.870,414,435,383,369,326,2025-05-23T23:47:17.696017
11163,-0.2865,0.3348,0.9394,1.750,-1.750,-3.360,357,400,355,363,316,2025-05-23T23:47:17.696027
11164,-0.2806,0.3021,0.9121,1.470,-2.590,-4.060,407,417,368,335,321,2025-05-23T23:47:17.696031
11165,-0.2806,0.3157,0.9394,1.680,-2.730,-3.920,391,411,365,356,282,2025-05-23T23:47:17.696050
11166,-0.2738,0.3035,0.9365,3.500,-0.420,-3.850,419,429,381,364,294,2025-05-23T23:47:17.696077
11167,-0.2752,0.3104,0.9414,6.370,0.350,-4.200,426,417,387,393,309,2025-05-23T23:47:17.696081
11168,-0.2718,0.3050,0.9360,9.100,0.420,-5.880,398,418,382,386,319,2025-05-23T23:47:17.696085
11169,-0.2718,0.3211,0.9316,12.180,0.140,-8.260,383,340,389,397,328,2025-05-23T23:47:17.696089
11170,-0.2401,0.3279,0.9575,15.750,2.380,-11.200,387,377,377,389,325,2025-05-23T23:47:17.696094
11171,-0.2298,0.3562,0.9331,19.390,6.160,-14.280,391,413,392,389,310,2025-05-23T23:47:17.696098
11172,-0.2381,0.3294,0.9716,24.640,12.320,-16.310,407,422,382,406,310,2025-05-23T23:47:17.897329
11173,-0.2640,0.3206,0.9765,31.080,17.780,-16.100,426,424,380,376,354,2025-05-23T23:47:17.897376
11174,-0.2894,0.3070,0.9672,38.570,23.170,-16.310,354,406,384,389,375,2025-05-23T23:47:17.897388
11175,-0.3021,0.2904,0.9565,47.390,24.500,-16.870,382,432,376,405,371,2025-05-23T23:47:17.897399
11176,-0.3079,0.3235,0.9394,56.490,20.370,-19.320,385,403,341,404,357,2025-05-23T23:47:17.897409
11177,-0.2884,0.3318,0.9267,61.810,19.600,-22.610,413,417,326,402,370,2025-05-23T23:47:17.897439
11178,-0.2884,0.3396,0.9374,64.960,22.120,-22.260,398,424,334,412,332,2025-05-23T23:47:17.897449
11179,-0.3118,0.3392,0.9453,65.380,26.950,-19.950,425,424,366,398,341,2025-05-23T23:47:17.897460
11180,-0.3416,0.3382,0.9511,68.180,30.100,-21.070,397,410,379,402,354,2025-05-23T23:47:17.897469
11181,-0.3245,0.3758,0.9321,71.050,33.810,-25.900,391,422,348,415,380,2025-05-23T23:47:17.897481
11182,-0.3065,0.4104,0.9038,69.370,42.840,-33.670,373,406,369,414,339,2025-05-23T23:47:17.897490
11183,-0.3406,0.4207,0.8467,61.880,55.580,-45.150,397,344,384,400,388,2025-05-23T23:47:17.897500
11184,-0.4065,0.4363,0.8057,51.100,63.980,-55.580,354,411,372,420,360,2025-05-23T23:47:17.897514
11185,-0.4743,0.4382,0.8003,40.040,64.120,-56.700,393,395,379,404,375,2025-05-23T23:47:17.897522
11186,-0.5832,0.4651,0.8501,28.910,49.420,-49.910,396,422,385,410,386,2025-05-23T23:47:17.897531
11187,-0.5993,0.4621,0.8623,17.640,25.970,-39.830,432,356,390,417,389,2025-05-23T23:47:17.897570
11188,-0.5832,0.4133,0.8081,11.760,4.970,-35.420,397,334,382,420,355,2025-05-23T23:47:17.897580
11189,-0.4978,0.3494,0.7237,12.390,-1.820,-41.020,392,375,380,403,378,2025-05-23T23:47:17.897588
11190,-0.3953,0.3279,0.6573,14.630,7.070,-56.910,429,396,376,424,389,2025-05-23T23:47:17.897597
11191,-0.3479,0.3396,0.6046,17.220,37.100,-75.810,422,353,382,367,391,2025-05-23T23:47:18.102694
11192,-0.4114,0.3821,0.6242,12.950,62.720,-89.950,391,402,347,400,400,2025-05-23T23:47:18.102733
11193,-0.5485,0.3928,0.6710,4.060,56.140,-82.950,402,431,370,421,415,2025-05-23T23:47:18.102743
11194,-0.6666,0.3436,0.6803,-8.680,25.130,-64.470,408,305,362,357,385,2025-05-23T23:47:18.102752
11195,-0.5993,0.2791,0.6212,-13.860,-8.890,-50.050,415,399,364,396,353,2025-05-23T23:47:18.102759
11196,-0.4524,0.4280,0.7242,-19.600,-19.390,-41.720,414,425,382,417,366,2025-05-23T23:47:18.102767
11197,-0.4036,0.3889,0.7945,-23.450,-17.990,-37.940,418,425,376,352,384,2025-05-23T23:47:18.102775
11198,-0.3509,0.3938,0.8696,-18.130,-14.770,-40.530,416,360,382,393,378,2025-05-23T23:47:18.102794
11199,-0.3748,0.3938,0.8891,-5.040,-13.650,-41.020,392,399,383,400,379,2025-05-23T23:47:18.102802
11200,-0.3841,0.3499,0.8857,14.000,-11.690,-41.370,399,409,384,405,393,2025-05-23T23:47:18.102809
11201,-0.4202,0.3850,0.8394,24.990,-0.840,-43.190,406,421,367,403,400,2025-05-23T23:47:18.102819
11202,-0.5085,0.4290,0.8013,25.970,6.230,-38.710,426,439,382,403,390,2025-05-23T23:47:18.102826
11203,-0.5758,0.4480,0.7954,20.510,3.290,-23.660,424,418,344,350,369,2025-05-23T23:47:18.102833
11204,-0.6017,0.4426,0.7910,14.280,-4.060,-7.630,412,409,365,397,335,2025-05-23T23:47:18.102839
11205,-0.6139,0.4143,0.7740,15.330,-8.050,6.230,404,436,336,406,384,2025-05-23T23:47:18.102872
11206,-0.5456,0.3967,0.7549,28.490,-11.200,9.940,427,419,349,396,346,2025-05-23T23:47:18.102882
11207,-0.4309,0.4738,0.8032,34.160,4.340,7.980,366,347,365,400,350,2025-05-23T23:47:18.102889
11208,-0.4914,0.5192,0.8169,35.700,29.400,3.290,365,390,354,405,384,2025-05-23T23:47:18.148773
11209,-0.6002,0.5270,0.8535,27.720,35.560,-3.780,335,406,372,410,365,2025-05-23T23:47:18.148823
11210,-0.6832,0.4846,0.8682,17.850,32.830,-4.340,392,404,349,371,339,2025-05-23T23:47:18.148834
11211,-0.7574,0.4963,0.8891,2.310,9.660,-2.590,402,411,356,362,351,2025-05-23T23:47:18.148845
11212,-0.7247,0.4055,0.8569,-6.370,-18.620,4.900,398,424,376,377,344,2025-05-23T23:47:18.199492
11213,-0.6095,0.3484,0.8286,-10.710,-40.810,9.100,406,423,380,314,342,2025-05-23T23:47:18.199557
11214,-0.4709,0.3148,0.8408,-10.850,-41.090,7.980,353,396,341,361,341,2025-05-23T23:47:18.199569
11215,-0.4094,0.2660,0.8511,-3.010,-30.030,6.160,401,407,360,358,357,2025-05-23T23:47:18.199578
11216,-0.4490,0.2557,0.8550,13.090,-7.980,6.020,390,431,365,310,327,2025-05-23T23:47:18.248589
11217,-0.5466,0.2669,0.8760,21.700,-0.420,6.020,384,434,377,312,281,2025-05-23T23:47:18.248637
11218,-0.5973,0.2826,0.8843,35.070,-4.130,10.430,403,410,332,310,334,2025-05-23T23:47:18.248650
11219,-0.6207,0.3118,0.8662,41.510,-10.640,15.400,414,438,328,313,352,2025-05-23T23:47:18.248663
11220,-0.6505,0.3597,0.8584,47.390,-14.910,16.940,393,419,342,318,358,2025-05-23T23:47:18.501279
11221,-0.6198,0.4080,0.8457,46.550,-22.330,16.590,399,392,289,317,365,2025-05-23T23:47:18.501328
11222,-0.5490,0.4124,0.8472,42.350,-25.760,16.030,414,365,346,317,356,2025-05-23T23:47:18.501341
11223,-0.5266,0.4065,0.8389,37.730,-27.720,12.740,400,413,357,313,367,2025-05-23T23:47:18.501353
11224,-0.5529,0.3987,0.7891,33.390,-33.110,8.470,394,375,369,316,322,2025-05-23T23:47:18.501364
11225,-0.5309,0.4070,0.7481,34.020,-35.420,6.650,421,403,374,343,368,2025-05-23T23:47:18.501374
11226,-0.4943,0.4455,0.7144,35.980,-34.650,4.830,435,390,383,376,324,2025-05-23T23:47:18.501383
11227,-0.4812,0.4514,0.6881,36.400,-30.310,4.550,373,406,340,334,307,2025-05-23T23:47:18.501410
11228,-0.5187,0.4480,0.6915,30.170,-28.770,6.230,381,390,285,365,263,2025-05-23T23:47:18.501419
11229,-0.4865,0.4465,0.6798,27.510,-25.480,7.140,413,427,265,350,319,2025-05-23T23:47:18.501429
11230,-0.4729,0.4241,0.6695,23.660,-22.400,8.190,399,397,271,366,333,2025-05-23T23:47:18.501438
11231,-0.4758,0.3680,0.6568,24.360,-14.070,5.180,416,342,233,377,336,2025-05-23T23:47:18.501446
11232,-0.4885,0.3924,0.6710,23.310,-9.380,1.050,352,406,261,375,323,2025-05-23T23:47:18.501455
11233,-0.4943,0.4021,0.6720,24.290,-6.790,0.980,290,379,251,378,335,2025-05-23T23:47:18.501463
11234,-0.5226,0.4026,0.6842,21.420,-9.170,1.610,310,417,270,287,331,2025-05-23T23:47:18.501595
11235,-0.5173,0.3919,0.6734,21.840,-16.030,0.560,389,395,265,341,328,2025-05-23T23:47:18.501609
11236,-0.4226,0.4085,0.6481,18.970,-20.720,1.540,408,398,266,378,345,2025-05-23T23:47:18.501618
11237,-0.4236,0.4368,0.6227,14.000,-21.700,2.800,391,417,279,383,345,2025-05-23T23:47:18.501626
11238,-0.4119,0.4348,0.6076,10.290,-20.790,1.190,389,422,256,379,347,2025-05-23T23:47:18.501634
11239,-0.4480,0.4436,0.6037,5.460,-31.220,-2.520,336,424,214,340,295,2025-05-23T23:47:18.501642
11240,-0.3802,0.4851,0.5075,-1.890,-39.410,-6.230,367,429,282,379,321,2025-05-23T23:47:18.551523
11241,-0.3709,0.4172,0.5846,-1.330,-52.920,-9.800,399,413,335,366,375,2025-05-23T23:47:18.551583
11242,-0.2577,0.3802,0.6178,4.550,-49.980,-6.370,342,407,348,400,374,2025-05-23T23:47:18.551594
11243,-0.2899,0.3972,0.6373,11.130,-36.960,-7.840,362,404,326,410,393,2025-05-23T23:47:18.551782
11244,-0.3001,0.4538,0.6739,16.590,-29.820,-13.930,378,422,366,414,375,2025-05-23T23:47:18.551792
11245,-0.3192,0.4797,0.7300,12.180,-19.530,-18.620,413,398,373,402,373,2025-05-23T23:47:18.600674
11246,-0.3914,0.4875,0.7784,3.640,-14.000,-25.550,411,411,378,400,337,2025-05-23T23:47:18.600715
11247,-0.4382,0.5222,0.8335,-4.550,-10.360,-30.100,417,390,387,376,323,2025-05-23T23:47:18.600725
11248,-0.4607,0.5412,0.8623,-8.470,-6.720,-35.070,417,399,370,405,374,2025-05-23T23:47:18.600755
11249,-0.4875,0.5578,0.9140,-12.110,-0.910,-39.900,428,353,371,384,385,2025-05-23T23:47:18.716064
11250,-0.5344,0.5485,0.9692,-15.540,2.660,-41.650,394,412,367,335,390,2025-05-23T23:47:18.716108
11251,-0.5592,0.5544,1.0097,-17.150,4.620,-41.510,302,341,377,383,340,2025-05-23T23:47:18.716119
11252,-0.5841,0.5592,1.0194,-19.880,9.590,-41.930,319,412,343,394,360,2025-05-23T23:47:18.716129
11253,-0.6041,0.5466,1.0131,-21.560,10.430,-41.650,355,422,372,410,331,2025-05-23T23:47:18.716138
11254,-0.6105,0.5173,0.9862,-26.460,11.340,-40.250,374,408,330,353,367,2025-05-23T23:47:18.716147
11255,-0.5973,0.4831,0.9594,-30.170,10.640,-37.590,396,429,338,392,368,2025-05-23T23:47:18.716170
11256,-0.5871,0.4416,0.9301,-31.570,10.780,-34.650,373,395,356,408,362,2025-05-23T23:47:18.716179
11257,-0.6051,0.4026,0.9130,-30.800,10.990,-31.150,407,395,293,365,349,2025-05-23T23:47:18.716189
11258,-0.6246,0.3655,0.8965,-26.460,2.730,-23.800,407,426,292,342,349,2025-05-23T23:47:18.716198
11259,-0.5988,0.3528,0.8633,-23.170,-6.930,-18.970,426,431,333,390,370,2025-05-23T23:47:18.919907
11260,-0.5324,0.3494,0.8086,-22.820,-14.350,-16.030,416,438,350,392,325,2025-05-23T23:47:18.919995
11261,-0.4441,0.3601,0.7691,-23.240,-16.730,-16.590,426,420,345,385,373,2025-05-23T23:47:18.920011
11262,-0.3714,0.3719,0.7222,-25.480,-11.410,-20.230,399,422,323,397,368,2025-05-23T23:47:18.920043
11263,-0.3314,0.3660,0.6856,-28.420,-5.110,-21.560,390,407,340,399,379,2025-05-23T23:47:18.920054
11264,-0.3084,0.3733,0.6817,-31.500,0.350,-19.250,334,370,275,372,352,2025-05-23T23:47:18.920065
11265,-0.3060,0.3592,0.6739,-33.880,3.080,-14.420,403,412,270,391,326,2025-05-23T23:47:18.920076
11266,-0.3026,0.3548,0.6910,-32.340,3.500,-10.010,359,396,270,385,311,2025-05-23T23:47:18.920087
11267,-0.3289,0.3377,0.7130,-27.720,1.470,-9.940,379,410,243,324,329,2025-05-23T23:47:18.920097
11268,-0.3333,0.3206,0.6920,-15.750,-5.600,-14.770,382,405,276,331,328,2025-05-23T23:47:18.920107
11269,-0.2508,0.3850,0.6949,-5.460,-10.150,-13.580,349,413,278,376,324,2025-05-23T23:47:18.920123
11270,-0.2235,0.4275,0.7139,0.700,-4.340,-13.650,330,347,280,391,336,2025-05-23T23:47:18.920134
11271,-0.2699,0.4382,0.7261,3.360,2.450,-13.230,381,407,273,377,330,2025-05-23T23:47:18.920143
11272,-0.3206,0.4529,0.7603,5.040,0.560,-11.340,421,421,242,382,332,2025-05-23T23:47:19.042256
11273,-0.3148,0.4753,0.7906,4.270,-2.170,-13.090,434,407,280,372,340,2025-05-23T23:47:19.042341
11274,-0.3314,0.4865,0.8072,3.220,-1.540,-17.010,433,419,282,389,328,2025-05-23T23:47:19.042353
11275,-0.3714,0.4831,0.8228,3.500,-3.990,-22.680,381,346,252,387,322,2025-05-23T23:47:19.042362
11276,-0.3792,0.4885,0.8423,2.660,-10.570,-30.170,413,412,316,368,357,2025-05-23T23:47:19.042371
11277,-0.3621,0.4714,0.8384,-1.750,-14.000,-36.050,399,422,332,373,359,2025-05-23T23:47:19.042379
11278,-0.3762,0.4368,0.8330,-5.390,-11.760,-39.970,412,413,334,338,371,2025-05-23T23:47:19.042387
11279,-0.4265,0.3880,0.8237,-1.960,-7.140,-41.090,402,423,339,369,373,2025-05-23T23:47:19.042395
11280,-0.4763,0.3553,0.8042,5.110,-4.480,-41.720,420,410,335,372,323,2025-05-23T23:47:19.137122
11281,-0.4885,0.3587,0.7852,15.190,-4.620,-41.580,412,358,343,385,312,2025-05-23T23:47:19.137174
11282,-0.4875,0.3797,0.7735,20.300,-4.200,-39.480,382,405,331,386,356,2025-05-23T23:47:19.137188
11283,-0.4890,0.3953,0.7715,19.600,-2.730,-38.290,384,356,338,384,340,2025-05-23T23:47:19.137199
11284,-0.4807,0.4021,0.7632,16.310,-2.520,-37.800,403,368,327,397,357,2025-05-23T23:47:19.137212
11285,-0.4646,0.3943,0.7574,14.280,-0.840,-36.610,417,362,335,388,355,2025-05-23T23:47:19.137223
11286,-0.4748,0.3909,0.7598,13.510,2.240,-36.680,364,372,321,377,359,2025-05-23T23:47:19.137233
11287,-0.5139,0.3845,0.7823,10.920,4.970,-37.520,402,306,248,371,332,2025-05-23T23:47:19.137243
11288,-0.5412,0.3504,0.7935,8.890,8.820,-34.370,417,318,256,359,305,2025-05-23T23:47:19.137252
11289,-0.5939,0.3309,0.8003,10.990,10.920,-30.030,412,308,253,356,322,2025-05-23T23:47:19.137263
11290,-0.6568,0.3455,0.8228,15.470,10.710,-27.090,425,314,258,370,309,2025-05-23T23:47:19.137374
11291,-0.6720,0.3655,0.8291,16.030,10.010,-26.180,421,320,243,370,325,2025-05-23T23:47:19.137385
11292,-0.6720,0.3831,0.8340,13.020,8.120,-24.710,402,320,257,359,315,2025-05-23T23:47:19.137395
11293,-0.6520,0.3943,0.8208,6.860,8.400,-22.680,403,353,310,384,337,2025-05-23T23:47:19.137404
11294,-0.6383,0.3972,0.8135,1.610,10.990,-18.550,416,337,328,351,357,2025-05-23T23:47:19.185517
11295,-0.6237,0.4065,0.8067,1.190,11.760,-14.070,412,355,323,365,353,2025-05-23T23:47:19.185560
11296,-0.5983,0.4226,0.8023,1.750,10.920,-10.430,424,311,315,390,331,2025-05-23T23:47:19.185572
11297,-0.5622,0.4534,0.7979,0.770,8.680,-7.910,419,353,320,384,329,2025-05-23T23:47:19.185584
11298,-0.5300,0.4875,0.7950,-1.680,5.810,-5.810,411,364,329,388,359,2025-05-23T23:47:19.240073
11299,-0.4963,0.5046,0.7959,-5.530,3.710,-4.130,420,371,333,398,358,2025-05-23T23:47:19.240137
11300,-0.4753,0.5144,0.8013,-7.700,1.820,-3.010,384,359,333,390,357,2025-05-23T23:47:19.240158
11301,-0.4577,0.5114,0.8198,-9.730,0.420,-2.450,383,371,327,394,374,2025-05-23T23:47:19.240175
11302,-0.4465,0.4958,0.8252,-10.500,-0.280,-1.610,425,362,335,374,320,2025-05-23T23:47:19.491439
11303,-0.4275,0.4802,0.8276,-7.910,1.330,-0.140,425,370,331,373,360,2025-05-23T23:47:19.491483
11304,-0.4250,0.4802,0.8335,-3.150,4.480,1.330,412,366,323,395,364,2025-05-23T23:47:19.491496
11305,-0.4372,0.5036,0.8438,2.380,7.770,0.350,400,352,333,397,367,2025-05-23T23:47:19.491508
11306,-0.4534,0.5192,0.8594,6.090,7.840,-0.420,403,359,294,403,351,2025-05-23T23:47:19.491518
11307,-0.4826,0.5344,0.8789,5.740,3.850,-0.700,390,376,323,379,365,2025-05-23T23:47:19.491529
11308,-0.5153,0.5266,0.8906,4.060,-3.710,0.770,400,372,335,392,324,2025-05-23T23:47:19.491540
11309,-0.5280,0.4997,0.8804,4.760,-11.550,3.570,416,371,328,337,350,2025-05-23T23:47:19.491564
11310,-0.5144,0.4865,0.8564,8.890,-17.360,5.320,428,293,296,378,336,2025-05-23T23:47:19.491573
11311,-0.4738,0.4821,0.8228,13.090,-16.240,6.370,420,329,243,371,314,2025-05-23T23:47:19.491583
11312,-0.4597,0.4690,0.7945,16.100,-11.970,6.510,396,309,273,379,328,2025-05-23T23:47:19.491592
11313,-0.4797,0.4543,0.7623,18.200,-10.780,5.040,401,300,262,363,323,2025-05-23T23:47:19.491601
11314,-0.4778,0.4529,0.7369,19.180,-13.160,4.060,409,301,232,378,278,2025-05-23T23:47:19.491609
11315,-0.4631,0.4509,0.7120,18.620,-15.330,5.040,405,307,228,359,306,2025-05-23T23:47:19.491618
11316,-0.4392,0.4421,0.6837,15.960,-15.540,6.650,424,262,269,354,325,2025-05-23T23:47:19.491662
11317,-0.4119,0.4246,0.6476,14.000,-15.400,8.470,415,312,266,353,315,2025-05-23T23:47:19.491671
11318,-0.3938,0.3963,0.6207,14.630,-14.840,10.430,415,322,232,311,265,2025-05-23T23:47:19.491680
11319,-0.3884,0.3640,0.5905,17.150,-13.930,8.750,420,324,262,262,266,2025-05-23T23:47:19.491690
11320,-0.4797,0.3133,0.6007,20.370,-19.110,3.010,408,260,233,340,304,2025-05-23T23:47:19.491700
11321,-0.5441,0.2708,0.6300,22.120,-35.280,-3.150,347,322,234,360,235,2025-05-23T23:47:19.491709
11322,-0.5705,0.1269,0.6871,17.920,-52.780,-5.530,403,328,252,328,265,2025-05-23T23:47:19.726659
11323,-0.5793,0.2113,0.7398,9.870,-63.490,-7.700,304,318,302,367,336,2025-05-23T23:47:19.726723
11324,-0.5558,0.1664,0.7584,4.970,-64.260,-12.600,321,368,334,355,370,2025-05-23T23:47:19.726736
11325,-0.5436,0.1230,0.7701,8.680,-59.150,-18.480,402,371,331,372,362,2025-05-23T23:47:19.726748
11326,-0.5802,0.0927,0.7769,16.730,-55.720,-20.720,399,352,328,385,358,2025-05-23T23:47:19.726758
11327,-0.5388,0.1269,0.7808,25.480,-52.290,-21.630,399,352,305,388,373,2025-05-23T23:47:19.726768
11328,-0.4734,0.1552,0.7618,27.720,-45.570,-20.090,400,378,335,371,358,2025-05-23T23:47:19.726897
11329,-0.4499,0.1674,0.7340,27.160,-39.060,-18.340,412,326,281,370,319,2025-05-23T23:47:19.726908
11330,-0.4260,0.1820,0.6988,29.540,-38.080,-17.570,386,331,264,275,266,2025-05-23T23:47:19.726919
11331,-0.3416,0.2001,0.6637,36.750,-38.780,-18.830,405,259,253,323,301,2025-05-23T23:47:19.726929
11332,-0.2577,0.2547,0.6486,43.470,-37.870,-25.410,364,283,228,366,276,2025-05-23T23:47:19.726938
11333,-1.1639,1.2342,1.7397,44.240,-27.650,-59.570,339,343,222,357,295,2025-05-23T23:47:19.726948
11334,-0.9184,0.3562,1.1546,-58.100,-72.030,-82.670,385,399,262,384,302,2025-05-23T23:47:19.726957
11335,-0.3626,0.0854,1.0004,-47.600,-57.050,-34.650,422,376,234,363,327,2025-05-23T23:47:19.726966
11336,-0.7149,0.0346,1.0575,24.360,-23.940,-12.600,424,390,260,365,310,2025-05-23T23:47:19.727011
11337,-0.5890,0.0200,0.8774,87.920,17.640,-10.360,410,344,225,377,263,2025-05-23T23:47:19.727022
11338,-0.5056,0.1737,0.8320,132.510,18.270,-20.580,390,391,213,376,273,2025-05-23T23:47:19.727031
11339,-0.4255,0.3128,0.7081,118.650,11.270,-33.670,411,393,247,373,304,2025-05-23T23:47:19.727041
11340,-0.4080,0.5266,0.7271,89.250,-6.650,-38.570,412,417,250,356,281,2025-05-23T23:47:19.727049
11341,-0.4143,0.5739,0.6378,31.920,-22.050,-31.710,411,394,239,311,302,2025-05-23T23:47:19.727058
11342,-0.5207,0.5973,0.6559,-19.250,-40.600,-25.970,395,403,248,349,310,2025-05-23T23:47:19.778090
11343,-0.5427,0.5788,0.7154,-21.070,-35.700,-26.740,424,425,302,398,347,2025-05-23T23:47:19.778145
11344,-0.5168,0.5329,0.7735,-16.590,-28.000,-20.650,412,360,321,400,361,2025-05-23T23:47:19.778161
11345,-0.4377,0.4895,0.8174,-13.580,-19.950,-14.490,414,347,322,387,361,2025-05-23T23:47:19.778174
11346,-0.3855,0.4504,0.8438,-18.970,-18.200,-12.320,414,381,335,376,371,2025-05-23T23:47:19.778186
11347,-0.3855,0.4343,0.8486,-23.310,-18.760,-13.930,421,397,340,341,367,2025-05-23T23:47:19.946916
11348,-0.3977,0.4299,0.8203,-22.400,-16.170,-17.570,401,390,344,371,364,2025-05-23T23:47:19.946965
11349,-0.4192,0.4314,0.8169,-20.720,-13.580,-19.530,299,414,306,356,367,2025-05-23T23:47:19.946979
11350,-0.4485,0.4358,0.8115,-23.590,-14.000,-20.790,312,359,338,403,356,2025-05-23T23:47:19.946990
11351,-0.4695,0.4080,0.8150,-28.700,-14.840,-21.000,277,383,337,395,345,2025-05-23T23:47:19.947000
11352,-0.5065,0.3699,0.8135,-29.190,-18.620,-18.620,382,427,331,379,342,2025-05-23T23:47:19.947010
11353,-0.4943,0.3650,0.8276,-25.550,-15.890,-15.750,383,399,333,382,351,2025-05-23T23:47:19.947021
11354,-0.4695,0.3445,0.8408,-22.750,-10.710,-11.970,391,414,311,373,325,2025-05-23T23:47:19.947031
11355,-0.4616,0.3284,0.8545,-22.960,-6.510,-10.500,408,358,250,368,323,2025-05-23T23:47:19.947040
11356,-0.4480,0.3323,0.8413,-24.710,-4.830,-12.880,400,392,249,350,311,2025-05-23T23:47:19.947050
11357,-0.4275,0.3470,0.8306,-27.370,-3.850,-20.300,402,428,241,370,264,2025-05-23T23:47:19.947059
11358,-0.4124,0.3367,0.8384,-34.090,-0.840,-27.580,387,415,259,357,255,2025-05-23T23:47:19.947069
11359,-0.4285,0.2962,0.8633,-40.600,3.290,-33.320,410,407,233,379,304,2025-05-23T23:47:19.947079
11360,-0.4670,0.2440,0.8784,-45.500,7.000,-37.940,425,397,271,359,298,2025-05-23T23:47:19.947125
11361,-0.4821,0.1898,0.9135,-44.800,16.100,-39.130,392,429,277,393,298,2025-05-23T23:47:20.149931
11362,-0.5148,0.1288,0.9130,-41.230,26.670,-40.600,408,408,302,393,351,2025-05-23T23:47:20.149979
11363,-0.5095,0.1508,0.9072,-37.100,32.060,-41.930,408,400,347,397,345,2025-05-23T23:47:20.149992
11364,-0.4982,0.1718,0.8979,-36.260,33.250,-40.530,398,400,346,393,362,2025-05-23T23:47:20.150003
11365,-0.5505,0.1879,0.8735,-41.720,38.220,-46.620,389,399,331,396,349,2025-05-23T23:47:20.150018
11366,-0.6398,0.1122,0.8794,-61.530,43.400,-67.760,416,345,303,368,321,2025-05-23T23:47:20.150028
11367,-0.7808,0.0727,0.9506,-76.860,44.870,-79.170,403,382,277,371,308,2025-05-23T23:47:20.150038
11368,-0.9423,0.0917,1.0648,-88.690,41.440,-56.420,399,407,275,316,309,2025-05-23T23:47:20.150047
11369,-1.1136,0.0547,1.1819,-96.040,28.980,-55.930,414,403,252,324,271,2025-05-23T23:47:20.150057
11370,-1.1317,0.0249,1.2156,-94.430,22.820,-35.420,417,415,265,355,303,2025-05-23T23:47:20.150066
11371,-1.0795,0.0551,1.2200,-86.380,29.050,-25.060,393,399,266,351,310,2025-05-23T23:47:20.150075
11372,-0.9970,0.1039,1.2185,-80.990,43.470,-24.640,419,406,236,352,286,2025-05-23T23:47:20.150083
11373,-0.9301,0.1244,1.1810,-79.310,52.500,-25.760,406,427,223,351,292,2025-05-23T23:47:20.150092
11374,-0.8921,0.0571,1.0975,-80.220,54.810,-25.900,426,421,253,353,309,2025-05-23T23:47:20.150100
11375,-0.8252,0.0156,1.0072,-78.400,49.210,-27.720,423,427,255,375,317,2025-05-23T23:47:20.150147
11376,-0.7208,-0.0161,0.9316,-73.360,52.640,-32.620,409,402,265,369,259,2025-05-23T23:47:20.150157
11377,-0.6559,-0.0400,0.8916,-67.060,66.010,-34.790,401,422,255,370,299,2025-05-23T23:47:20.150167
11378,-0.6612,-0.0532,0.8540,-63.070,76.930,-33.810,421,420,294,384,352,2025-05-23T23:47:20.355644
11379,-0.6798,-0.0503,0.8223,-62.160,79.170,-31.080,399,419,318,407,362,2025-05-23T23:47:20.355694
11380,-0.6637,-0.0185,0.8018,-66.850,76.580,-26.670,412,404,311,398,373,2025-05-23T23:47:20.355708
11381,-0.6227,0.0015,0.7793,-75.600,73.080,-23.940,420,407,334,401,358,2025-05-23T23:47:20.355724
11382,-0.5968,-0.0063,0.7403,-82.530,67.060,-22.050,397,410,337,387,361,2025-05-23T23:47:20.355736
11383,-0.5632,-0.0342,0.7027,-88.480,63.280,-22.400,423,411,339,396,363,2025-05-23T23:47:20.355746
11384,-0.5285,-0.0742,0.6573,-91.280,64.120,-22.750,412,425,303,360,344,2025-05-23T23:47:20.355757
11385,-0.5070,-0.1283,0.6320,-89.670,69.160,-19.040,432,418,278,379,316,2025-05-23T23:47:20.355767
11386,-0.5236,-0.1532,0.6080,-82.320,74.830,-12.320,364,416,237,371,306,2025-05-23T23:47:20.355777
11387,-0.5475,-0.1449,0.6095,-73.780,80.990,-8.960,408,421,267,358,320,2025-05-23T23:47:20.355788
11388,-0.6100,-0.1313,0.6324,-69.300,78.400,-9.590,401,396,244,324,315,2025-05-23T23:47:20.355797
11389,-0.6183,-0.1088,0.6403,-72.520,67.340,-10.010,410,365,256,306,312,2025-05-23T23:47:20.355806
11390,-0.6198,-0.0956,0.6412,-80.360,55.580,-9.660,411,326,262,366,266,2025-05-23T23:47:20.355815
11391,-0.5993,-0.1059,0.6349,-86.100,45.010,-10.780,348,398,275,372,222,2025-05-23T23:47:20.355823
11392,-0.5636,-0.1503,0.6061,-88.970,40.740,-10.080,387,413,252,376,292,2025-05-23T23:47:20.355860
11393,-0.5392,-0.1932,0.5827,-84.840,40.810,-6.370,412,389,261,374,276,2025-05-23T23:47:20.355870
11394,-0.5710,-0.2235,0.5836,-76.650,45.360,-3.920,339,363,251,362,306,2025-05-23T23:47:20.355879
11395,-0.6251,-0.2538,0.5836,-64.750,48.020,-3.430,388,372,288,364,333,2025-05-23T23:47:20.576202
11396,-0.6554,-0.2489,0.5905,-54.740,49.210,-3.430,390,397,296,374,358,2025-05-23T23:47:20.576274
11397,-0.6949,-0.2225,0.6129,-52.010,48.160,-3.780,415,395,336,346,323,2025-05-23T23:47:20.576297
11398,-0.7266,-0.2108,0.6217,-54.040,43.470,-4.690,403,367,344,390,371,2025-05-23T23:47:20.576317
11399,-0.7164,-0.2157,0.6139,-56.910,35.630,-2.590,400,401,341,399,347,2025-05-23T23:47:20.576335
11400,-0.6817,-0.1918,0.5998,-59.290,30.940,1.820,398,362,295,389,284,2025-05-23T23:47:20.576676
11401,-0.6998,-0.2113,0.5749,-60.340,33.880,3.150,391,375,278,367,305,2025-05-23T23:47:20.576701
11402,-0.7305,-0.2591,0.5553,-56.070,39.830,1.680,402,375,282,320,314,2025-05-23T23:47:20.576716
11403,-0.7793,-0.2894,0.5524,-48.370,45.360,0.980,420,342,261,343,321,2025-05-23T23:47:20.576731
11404,-0.8374,-0.3221,0.5519,-35.070,50.470,3.150,404,364,263,353,300,2025-05-23T23:47:20.576746
11405,-0.8833,-0.3148,0.5568,-20.790,56.420,6.160,405,330,263,353,312,2025-05-23T23:47:20.576762
11406,-0.9506,-0.2865,0.5578,-9.800,56.210,8.260,402,331,251,370,303,2025-05-23T23:47:20.576776
11407,-0.9721,-0.2621,0.5661,-5.740,51.240,8.050,414,253,253,355,290,2025-05-23T23:47:20.576791
11408,-0.9711,-0.2357,0.5622,-5.600,41.440,6.510,421,316,231,343,289,2025-05-23T23:47:20.576805
11409,-0.9692,-0.2225,0.5495,-5.880,29.750,6.090,409,319,245,304,294,2025-05-23T23:47:20.576864
11410,-0.9760,-0.2074,0.5412,-5.320,21.350,5.040,302,327,238,340,265,2025-05-23T23:47:20.576881
11411,-0.9799,-0.2045,0.5422,-7.140,17.290,5.180,361,311,230,345,303,2025-05-23T23:47:20.577011
11412,-0.9804,-0.2089,0.5295,-6.790,16.450,7.210,386,249,291,361,307,2025-05-23T23:47:20.577017
11413,-0.9965,-0.2172,0.5231,-4.550,20.300,14.140,409,366,317,363,351,2025-05-23T23:47:20.807990
11414,-1.0307,-0.2313,0.5158,-0.350,25.690,22.960,404,359,317,379,336,2025-05-23T23:47:20.808038
11415,-1.0721,-0.2240,0.5187,5.040,24.780,28.980,373,383,311,360,345,2025-05-23T23:47:20.808051
11416,-1.0531,-0.2059,0.5144,7.700,19.880,32.620,384,310,324,333,346,2025-05-23T23:47:20.808062
11417,-1.0185,-0.1991,0.4997,8.960,16.100,37.660,401,360,323,366,361,2025-05-23T23:47:20.808073
11418,-0.9882,-0.1967,0.4763,12.040,10.010,41.300,394,308,271,367,325,2025-05-23T23:47:20.808083
11419,-0.9316,-0.1893,0.4431,14.910,6.580,43.120,393,332,233,363,301,2025-05-23T23:47:20.808092
11420,-0.8862,-0.1898,0.4187,19.600,10.290,43.400,407,324,221,350,310,2025-05-23T23:47:20.808103
11421,-0.8486,-0.1742,0.3889,25.340,16.310,46.410,426,331,247,326,273,2025-05-23T23:47:20.808115
11422,-0.8301,-0.1552,0.3699,28.210,21.210,46.690,382,308,252,347,252,2025-05-23T23:47:20.808125
11423,-0.8067,-0.1244,0.3582,27.440,25.340,45.640,344,327,245,355,251,2025-05-23T23:47:20.808134
11424,-0.8184,-0.0976,0.3465,23.660,26.670,43.680,379,323,245,346,267,2025-05-23T23:47:20.808142
11425,-0.7984,-0.0878,0.3362,20.580,22.820,42.770,399,324,245,300,304,2025-05-23T23:47:20.808151
11426,-0.8130,-0.0795,0.3504,19.670,14.490,42.770,419,327,240,339,294,2025-05-23T23:47:20.808159
11427,-0.8169,-0.0678,0.3489,20.440,4.060,40.880,427,298,245,359,300,2025-05-23T23:47:20.808198
11428,-0.8018,-0.0532,0.3465,21.630,-4.900,37.450,401,321,207,355,310,2025-05-23T23:47:20.808208
11429,-0.7769,-0.0581,0.3475,24.500,-7.770,33.670,421,349,302,327,330,2025-05-23T23:47:20.970225
11430,-0.7754,-0.0454,0.3475,27.160,-2.450,32.550,430,340,329,366,346,2025-05-23T23:47:20.970271
11431,-0.7969,-0.0444,0.3543,29.750,5.460,30.730,428,326,331,377,360,2025-05-23T23:47:20.970283
11432,-0.8442,-0.0488,0.3553,30.450,9.940,27.300,417,380,320,352,354,2025-05-23T23:47:20.970294
11433,-0.8716,-0.0615,0.3601,29.960,13.720,24.920,407,368,323,373,345,2025-05-23T23:47:20.970304
11434,-0.8930,-0.0595,0.3738,29.470,14.840,24.990,420,357,326,389,346,2025-05-23T23:47:20.970314
11435,-0.8950,-0.0449,0.3787,30.520,15.960,22.890,428,342,303,389,345,2025-05-23T23:47:20.970324
11436,-0.8916,-0.0332,0.3816,29.890,18.060,20.510,424,378,326,353,362,2025-05-23T23:47:20.970334
11437,-0.8769,-0.0381,0.3782,30.380,18.270,19.110,348,275,320,383,339,2025-05-23T23:47:20.970344
11438,-0.8833,-0.0527,0.3748,33.390,17.150,20.160,377,342,258,372,301,2025-05-23T23:47:20.970353
11439,-0.8725,-0.0459,0.3767,37.310,18.970,22.260,382,331,258,373,312,2025-05-23T23:47:20.970362
11440,-0.8696,-0.0312,0.3611,40.810,22.540,23.240,408,283,254,354,294,2025-05-23T23:47:20.970371
11441,-0.8779,-0.0264,0.3509,42.490,26.110,21.210,427,330,251,366,260,2025-05-23T23:47:20.970380
11442,-0.8808,-0.0337,0.3411,43.330,27.510,18.690,412,229,247,359,288,2025-05-23T23:47:20.970389
11443,-0.8823,-0.0351,0.3182,44.730,29.400,15.540,408,232,242,361,290,2025-05-23T23:47:20.970430
11444,-0.8652,-0.0127,0.3079,46.550,32.760,12.460,418,310,237,350,253,2025-05-23T23:47:20.970444
11445,-0.8784,0.0059,0.3001,48.510,33.110,9.100,408,292,239,339,249,2025-05-23T23:47:20.970455
11446,-0.8950,0.0098,0.3016,47.320,28.840,7.280,413,331,304,390,342,2025-05-23T23:47:21.202344
11447,-0.8984,0.0020,0.2938,46.970,23.240,7.350,420,323,317,398,319,2025-05-23T23:47:21.202391
11448,-0.8960,0.0020,0.2850,48.160,16.450,7.210,419,349,331,331,359,2025-05-23T23:47:21.202403
11449,-0.8862,0.0102,0.2762,52.080,10.150,5.250,409,368,295,381,350,2025-05-23T23:47:21.202414
11450,-0.8769,0.0195,0.2752,54.810,4.690,2.380,425,384,300,332,354,2025-05-23T23:47:21.202425
11451,-0.8730,0.0215,0.2713,54.320,1.120,0.350,407,372,306,376,345,2025-05-23T23:47:21.202435
11452,-0.8613,0.0146,0.2723,52.430,-0.490,-1.330,411,344,242,375,320,2025-05-23T23:47:21.202446
11453,-0.8520,0.0146,0.2762,50.960,-1.330,-2.800,416,322,266,356,316,2025-05-23T23:47:21.202456
11454,-0.8511,0.0146,0.2811,49.420,0.070,-5.390,369,329,256,349,260,2025-05-23T23:47:21.202465
11455,-0.8633,0.0102,0.2860,48.020,0.140,-7.700,404,296,233,360,295,2025-05-23T23:47:21.202474
11456,-0.8638,0.0049,0.2904,48.160,-1.820,-8.540,339,303,240,370,291,2025-05-23T23:47:21.202482
11457,-0.8623,0.0156,0.2948,49.910,-2.380,-10.010,323,325,252,373,298,2025-05-23T23:47:21.202491
11458,-0.8564,0.0307,0.3045,51.520,-1.820,-12.670,354,326,255,308,255,2025-05-23T23:47:21.202501
11459,-0.8657,0.0298,0.3148,52.010,-1.960,-15.820,392,336,215,357,303,2025-05-23T23:47:21.202510
11460,-0.8818,0.0259,0.3177,50.330,-2.730,-18.270,387,300,222,351,300,2025-05-23T23:47:21.202551
11461,-0.9052,0.0200,0.3255,48.300,-3.080,-20.440,394,334,216,324,254,2025-05-23T23:47:21.202561
11462,-0.9184,0.0185,0.3274,46.060,-3.150,-21.630,376,262,246,363,300,2025-05-23T23:47:21.202570
11463,-0.9165,0.0195,0.3338,43.470,-0.490,-22.190,371,326,259,318,326,2025-05-23T23:47:21.386014
11464,-0.9233,0.0142,0.3348,41.440,2.520,-22.820,408,376,328,363,361,2025-05-23T23:47:21.386067
11465,-0.9316,0.0142,0.3348,40.460,3.360,-22.750,407,355,328,390,368,2025-05-23T23:47:21.386082
11466,-0.9335,0.0210,0.3343,39.900,3.430,-21.770,382,360,323,389,365,2025-05-23T23:47:21.386094
11467,-0.9467,0.0317,0.3323,38.780,2.030,-20.440,397,370,333,387,362,2025-05-23T23:47:21.386104
11468,-0.9540,0.0376,0.3323,36.540,-0.910,-20.300,406,328,310,386,359,2025-05-23T23:47:21.386115
11469,-0.9628,0.0473,0.3328,33.740,-3.920,-21.280,398,391,322,388,352,2025-05-23T23:47:21.386125
11470,-0.9667,0.0464,0.3240,30.870,-7.070,-21.630,394,380,302,396,318,2025-05-23T23:47:21.386134
11471,-0.9604,0.0508,0.3216,28.350,-8.890,-21.350,395,323,267,373,268,2025-05-23T23:47:21.386144
11472,-0.9687,0.0473,0.3177,25.550,-10.010,-20.510,388,321,251,364,283,2025-05-23T23:47:21.460853
11473,-0.9662,0.0473,0.3109,23.870,-10.150,-19.250,408,269,251,371,260,2025-05-23T23:47:21.460930
11474,-0.9687,0.0483,0.3074,21.560,-9.170,-17.920,300,308,249,351,301,2025-05-23T23:47:21.460953
11475,-0.9789,0.0468,0.2972,20.510,-7.630,-16.940,391,311,253,308,277,2025-05-23T23:47:21.460963
11476,-0.9911,0.0503,0.2918,20.510,-7.420,-14.980,408,313,244,300,305,2025-05-23T23:47:21.460973
11477,-1.0024,0.0678,0.2884,18.760,-7.980,-13.230,364,335,220,355,287,2025-05-23T23:47:21.461029
11478,-1.0038,0.0727,0.2855,16.170,-9.100,-11.900,409,321,241,306,264,2025-05-23T23:47:21.461038
11479,-1.0185,0.0659,0.2816,14.000,-10.780,-10.010,420,328,219,334,287,2025-05-23T23:47:21.461046
11480,-1.0277,0.0576,0.2816,11.620,-11.620,-8.750,424,330,260,358,336,2025-05-23T23:47:21.461055
11481,-1.0326,0.0498,0.2865,10.570,-12.180,-7.350,416,365,320,382,310,2025-05-23T23:47:21.583058
11482,-1.0302,0.0390,0.2938,9.800,-11.830,-3.570,304,367,325,387,355,2025-05-23T23:47:21.583103
11483,-1.0214,0.0322,0.2933,8.750,-10.500,-0.560,391,373,323,388,357,2025-05-23T23:47:21.583115
11484,-1.0028,0.0278,0.2943,8.330,-7.980,2.240,420,370,327,371,349,2025-05-23T23:47:21.583125
11485,-1.0033,0.0229,0.2952,8.470,-6.020,4.550,406,332,303,370,329,2025-05-23T23:47:21.583136
11486,-1.0058,0.0195,0.3045,8.960,-4.410,7.000,406,355,290,340,293,2025-05-23T23:47:21.583146
11487,-1.0028,0.0200,0.3128,8.680,-3.850,9.100,334,302,268,356,270,2025-05-23T23:47:21.583155
11488,-1.0019,0.0220,0.3196,6.650,-2.660,10.920,408,290,265,369,303,2025-05-23T23:47:21.583168
11489,-1.0028,0.0107,0.3167,4.830,-1.820,11.970,404,331,255,354,228,2025-05-23T23:47:21.583179
11490,-1.0019,0.0059,0.3192,3.500,-1.470,13.230,418,337,246,317,288,2025-05-23T23:47:21.583188
11491,-1.0019,0.0029,0.3226,2.800,-1.610,14.140,303,310,258,340,312,2025-05-23T23:47:21.583197
11492,-0.9941,0.0088,0.3362,1.610,-1.820,16.660,357,302,244,366,311,2025-05-23T23:47:21.583205
11493,-0.9955,0.0132,0.3372,-2.660,-0.420,19.950,376,310,245,311,303,2025-05-23T23:47:21.583214
11494,-1.0106,0.0088,0.3406,-7.140,1.120,21.490,405,306,249,337,309,2025-05-23T23:47:21.583223
11495,-1.0146,-0.0044,0.3426,-11.130,1.050,22.050,413,325,247,362,291,2025-05-23T23:47:21.583264
11496,-1.0087,0.1244,0.3479,-12.180,1.610,23.100,412,314,193,347,303,2025-05-23T23:47:21.583401
11497,-1.0053,0.0054,0.3523,-12.530,3.150,25.340,339,331,260,358,324,2025-05-23T23:47:21.788654
11498,-1.0009,0.0083,0.3514,-13.230,4.410,27.230,401,365,320,335,349,2025-05-23T23:47:21.788699
11499,-0.9916,0.0224,0.3582,-15.190,5.670,31.430,423,374,320,371,349,2025-05-23T23:47:21.788712
11500,-1.0155,0.0239,0.3504,-18.130,8.050,34.090,399,312,303,379,367,2025-05-23T23:47:21.788726
11501,-1.0302,0.0264,0.3484,-18.900,8.050,35.000,398,344,322,349,364,2025-05-23T23:47:21.788739
11502,-1.0224,0.0351,0.3489,-17.850,7.420,36.960,355,368,301,365,365,2025-05-23T23:47:21.788751
11503,-1.0228,0.0488,0.3416,-17.780,8.190,39.270,385,367,323,394,369,2025-05-23T23:47:21.788761
11504,-1.0121,0.0678,0.3421,-18.760,10.150,42.280,408,342,292,374,337,2025-05-23T23:47:21.788770
11505,-1.0092,0.0805,0.3396,-21.210,14.560,45.570,414,350,274,381,322,2025-05-23T23:47:21.788780
11506,-1.0028,0.0883,0.3353,-23.170,20.930,48.790,403,311,259,365,295,2025-05-23T23:47:21.788790
11507,-1.0063,0.1069,0.3323,-24.080,26.740,52.360,405,323,225,373,310,2025-05-23T23:47:21.788798
11508,-1.0199,0.1191,0.3343,-23.730,31.990,54.180,409,311,246,330,303,2025-05-23T23:47:21.788807
11509,-1.0282,0.1337,0.3387,-23.030,33.180,55.580,399,310,252,321,273,2025-05-23T23:47:21.788816
11510,-1.0282,0.1513,0.3387,-24.430,34.090,59.570,407,307,257,348,279,2025-05-23T23:47:21.788825
11511,-1.0516,0.1532,0.3274,-26.810,34.860,62.300,418,325,244,370,301,2025-05-23T23:47:21.788872
11512,-1.0634,0.1508,0.3162,-28.000,34.230,64.820,414,323,249,340,277,2025-05-23T23:47:21.788882
11513,-1.0687,0.1523,0.3026,-27.440,33.740,68.040,411,325,241,300,304,2025-05-23T23:47:21.788892
11514,-1.0619,0.1581,0.2938,-26.180,32.830,71.820,416,298,268,359,326,2025-05-23T23:47:22.020085
11515,-1.0594,0.1703,0.2952,-24.500,29.960,75.110,425,350,318,381,350,2025-05-23T23:47:22.020130
11516,-1.0555,0.1952,0.3050,-23.660,26.670,77.140,442,352,324,343,345,2025-05-23T23:47:22.020143
11517,-1.0472,0.2220,0.3099,-23.450,22.190,78.820,426,359,317,362,367,2025-05-23T23:47:22.020154
11518,-1.0233,0.2416,0.3157,-23.800,18.900,80.430,421,369,329,382,374,2025-05-23T23:47:22.020164
11519,-1.0102,0.2586,0.3216,-25.200,18.830,81.410,370,346,274,324,301,2025-05-23T23:47:22.020174
11520,-1.0067,0.2572,0.3216,-25.480,19.460,80.990,407,339,276,370,296,2025-05-23T23:47:22.020183
11521,-0.9848,0.2664,0.3260,-25.130,21.560,80.710,415,306,240,334,313,2025-05-23T23:47:22.020193
11522,-0.9701,0.2655,0.3270,-24.640,25.340,82.110,399,263,247,301,305,2025-05-23T23:47:22.020203
11523,-0.9740,0.2679,0.3250,-24.920,30.730,84.070,409,310,252,299,293,2025-05-23T23:47:22.020212
11524,-0.9570,0.2826,0.3182,-24.710,35.210,85.190,425,309,255,340,295,2025-05-23T23:47:22.020220
11525,-0.9155,0.2957,0.3065,-24.780,40.600,86.170,409,303,251,355,290,2025-05-23T23:47:22.020230
11526,-0.8799,0.3196,0.3045,-24.290,46.060,87.920,420,312,231,359,253,2025-05-23T23:47:22.020239
11527,-0.8764,0.3333,0.2996,-23.520,48.090,89.670,399,326,241,309,292,2025-05-23T23:47:22.020247
11528,-0.8516,0.3509,0.2889,-21.980,48.230,89.600,413,317,224,359,296,2025-05-23T23:47:22.020288
11529,-0.8174,0.3758,0.2816,-21.840,50.120,89.880,421,326,257,354,305,2025-05-23T23:47:22.020299
11530,-0.8335,0.4041,0.2582,-24.150,53.760,90.230,415,330,255,364,301,2025-05-23T23:47:22.020308
11531,-0.8657,0.4153,0.2298,-26.810,56.070,89.880,418,340,275,317,322,2025-05-23T23:47:22.020317
11532,-0.8764,0.4333,0.1981,-28.280,57.470,88.900,370,321,308,369,351,2025-05-23T23:47:22.020326
11533,-0.8706,0.4748,0.1830,-29.750,60.270,88.830,411,353,320,335,358,2025-05-23T23:47:22.198297
11534,-0.8764,0.5022,0.1606,-30.240,63.630,89.180,416,336,324,389,352,2025-05-23T23:47:22.198338
11535,-0.8745,0.5183,0.1401,-30.730,66.220,90.790,412,375,329,367,347,2025-05-23T23:47:22.198459
11536,-0.8667,0.5383,0.1108,-31.710,69.650,90.790,411,312,334,351,362,2025-05-23T23:47:22.198472
11537,-0.8682,0.5500,0.0742,-32.130,75.460,89.810,396,376,294,343,351,2025-05-23T23:47:22.198499
11538,-0.8701,0.5656,0.0405,-32.130,83.090,88.130,405,355,284,352,336,2025-05-23T23:47:22.198508
11539,-0.8647,0.5890,0.0171,-33.740,89.670,88.130,403,337,225,339,315,2025-05-23T23:47:22.198517
11540,-0.8560,0.6115,-0.0200,-36.470,95.060,89.600,335,258,227,347,298,2025-05-23T23:47:22.198526
11541,-0.8506,0.6183,-0.0556,-37.870,97.580,89.530,400,315,244,353,300,2025-05-23T23:47:22.198536
11542,-0.8345,0.6388,-0.0893,-38.500,96.880,87.430,406,300,244,361,294,2025-05-23T23:47:22.198544
11543,-0.8154,0.6578,-0.1137,-38.850,94.500,85.330,420,299,243,365,280,2025-05-23T23:47:22.198552
11544,-0.7886,0.6700,-0.1352,-40.040,91.070,83.580,401,313,240,320,246,2025-05-23T23:47:22.198565
11545,-0.7701,0.6812,-0.1444,-41.090,85.120,82.180,407,321,236,350,281,2025-05-23T23:47:22.198574
11546,-0.7701,0.6876,-0.1513,-40.670,76.650,79.800,339,321,239,301,292,2025-05-23T23:47:22.198582
11547,-0.7613,0.7032,-0.1444,-39.970,67.760,77.140,361,317,206,256,248,2025-05-23T23:47:22.198626
11548,-0.7574,0.7100,-0.1527,-39.410,62.230,74.200,338,330,253,323,307,2025-05-23T23:47:22.403296
11549,-0.7520,0.7247,-0.1601,-38.430,56.630,71.960,407,275,277,361,318,2025-05-23T23:47:22.403336
11550,-0.7496,0.7388,-0.1752,-36.330,54.530,70.630,425,341,276,315,313,2025-05-23T23:47:22.403347
11551,-0.7623,0.7496,-0.1986,-34.860,52.360,69.230,395,339,282,310,336,2025-05-23T23:47:22.403366
11552,-0.7510,0.7657,-0.2147,-34.160,49.210,68.250,373,346,266,364,295,2025-05-23T23:47:22.403375
11553,-0.7359,0.7745,-0.2313,-35.910,48.020,67.760,384,241,269,350,271,2025-05-23T23:47:22.403383
11554,-0.7188,0.7637,-0.2440,-38.290,49.630,67.270,412,310,220,357,312,2025-05-23T23:47:22.403391
11555,-0.7003,0.7388,-0.2464,-38.850,50.820,65.730,419,319,251,342,290,2025-05-23T23:47:22.403398
11556,-0.6690,0.7320,-0.2294,-39.060,50.330,66.150,355,322,235,361,292,2025-05-23T23:47:22.403405
11557,-0.6320,0.7579,-0.2054,-42.140,49.560,66.500,362,317,240,373,292,2025-05-23T23:47:22.403411
11558,-0.5719,0.7793,-0.1854,-48.860,48.930,65.800,378,290,233,346,306,2025-05-23T23:47:22.403419
11559,-0.5378,0.7886,-0.1669,-53.760,47.880,65.030,415,297,205,357,284,2025-05-23T23:47:22.403427
11560,-0.5109,0.8262,-0.1288,-54.950,43.260,65.100,349,312,242,368,260,2025-05-23T23:47:22.403433
11561,-0.4758,0.8672,-0.1025,-55.790,36.820,64.260,407,307,241,349,280,2025-05-23T23:47:22.403440
11562,-0.4534,0.8974,-0.0766,-57.050,29.890,64.050,408,307,226,358,264,2025-05-23T23:47:22.403472
11563,-0.4329,0.9311,-0.0649,-58.730,26.600,63.350,350,297,227,345,291,2025-05-23T23:47:22.403479
11564,-0.4231,0.9423,-0.0590,-59.850,26.740,63.420,383,295,227,344,250,2025-05-23T23:47:22.403486
11565,-0.4490,0.9252,-0.0473,-59.010,28.420,63.280,416,290,257,342,311,2025-05-23T23:47:22.648955
11566,-0.4992,0.9135,-0.0220,-57.330,25.900,63.490,414,328,271,359,310,2025-05-23T23:47:22.649002
11567,-0.5363,0.8882,-0.0112,-55.020,18.130,64.820,425,343,276,376,329,2025-05-23T23:47:22.649015
11568,-0.5266,0.8911,-0.0068,-53.830,15.330,67.340,420,330,282,374,336,2025-05-23T23:47:22.649026
11569,-0.5168,0.8804,0.0015,-53.060,16.520,68.110,308,343,292,369,334,2025-05-23T23:47:22.649036
11570,-0.4992,0.8696,-0.0098,-50.750,17.290,68.320,384,347,273,372,304,2025-05-23T23:47:22.649046
11571,-0.4880,0.8569,-0.0102,-50.190,18.900,69.020,416,313,241,370,302,2025-05-23T23:47:22.649056
11572,-0.4880,0.8345,-0.0107,-50.470,17.430,70.840,421,318,238,379,305,2025-05-23T23:47:22.649066
11573,-0.4787,0.8223,0.0146,-51.030,12.320,73.010,404,270,235,359,251,2025-05-23T23:47:22.649078
11574,-0.4592,0.7984,0.0215,-51.590,6.370,73.920,362,314,222,371,294,2025-05-23T23:47:22.649089
11575,-0.3777,0.8262,0.0400,-52.430,1.750,75.600,347,300,245,353,293,2025-05-23T23:47:22.649099
11576,-0.3026,0.8394,0.0547,-55.860,2.730,74.550,376,303,244,360,251,2025-05-23T23:47:22.649109
11577,-0.2664,0.8384,0.0630,-56.980,5.530,74.900,342,319,231,365,289,2025-05-23T23:47:22.649118
11578,-0.2484,0.8530,0.0752,-56.070,5.530,75.670,376,322,206,353,296,2025-05-23T23:47:22.649126
11579,-0.2381,0.8423,0.0771,-54.880,3.640,73.360,405,303,227,363,298,2025-05-23T23:47:22.649166
11580,-0.2333,0.8394,0.0874,-51.380,-3.500,70.910,402,306,230,349,301,2025-05-23T23:47:22.649352
11581,-0.2255,0.8398,0.1108,-48.230,-9.170,67.130,407,248,238,328,286,2025-05-23T23:47:22.649365
11582,-0.2147,0.8208,0.1171,-43.820,-14.490,64.260,400,311,251,362,293,2025-05-23T23:47:22.827829
11583,-0.1986,0.8101,0.1327,-37.590,-16.590,61.740,402,334,227,370,328,2025-05-23T23:47:22.827875
11584,-0.1859,0.8052,0.1391,-30.240,-17.010,57.750,405,333,251,372,294,2025-05-23T23:47:22.827888
11585,-0.1776,0.8062,0.1430,-24.780,-14.910,53.270,345,344,262,382,249,2025-05-23T23:47:22.827899
11586,-0.2025,0.7505,0.1464,-20.580,-13.930,48.440,390,351,263,385,317,2025-05-23T23:47:22.827909
11587,-0.2103,0.7354,0.1786,-18.340,-15.820,45.990,404,342,288,379,319,2025-05-23T23:47:22.827921
11588,-0.2269,0.7159,0.2567,-20.090,-19.600,41.860,400,310,305,377,334,2025-05-23T23:47:22.827931
11589,-0.2167,0.6993,0.2977,-20.230,-29.960,37.310,358,339,299,382,313,2025-05-23T23:47:22.827941
11590,-0.1366,0.8667,0.3963,-18.690,-41.300,31.360,385,363,291,377,318,2025-05-23T23:47:22.827950
11591,-0.0908,0.7642,0.4577,-13.650,-49.210,18.340,413,321,260,355,313,2025-05-23T23:47:22.827959
11592,-0.0634,0.7808,0.5231,-1.820,-57.610,2.870,425,259,242,315,287,2025-05-23T23:47:22.827968
11593,-0.0483,0.8086,0.6246,5.740,-59.220,-15.680,404,320,251,332,311,2025-05-23T23:47:22.827978
11594,-0.0761,0.8252,0.6939,14.140,-61.040,-35.140,417,325,236,361,293,2025-05-23T23:47:22.827987
11595,-0.0605,0.8882,0.7320,19.040,-63.070,-53.480,397,311,234,351,296,2025-05-23T23:47:22.827995
11596,-0.0283,0.9570,0.7818,17.360,-65.100,-69.160,372,260,209,359,288,2025-05-23T23:47:22.828036
11597,0.0063,1.0326,0.8701,10.290,-74.200,-91.490,419,297,231,339,279,2025-05-23T23:47:22.828046
11598,-0.0112,1.1312,0.9848,-0.210,-98.560,-117.250,417,317,241,363,293,2025-05-23T23:47:22.828055
11599,-0.0649,1.2283,1.1478,-12.180,-147.070,-143.990,420,329,255,372,301,2025-05-23T23:47:22.828064
11600,0.0068,1.3508,1.2263,-27.090,-214.480,-164.500,425,345,305,391,341,2025-05-23T23:47:22.877431
11601,0.3206,1.5099,1.3059,-37.310,-285.110,-174.510,423,365,331,385,360,2025-05-23T23:47:22.877481
11602,0.6305,1.7368,1.3532,-44.730,-350.630,-189.280,417,358,326,385,304,2025-05-23T23:47:22.877495
11603,0.8843,1.8998,1.4333,-51.800,-414.610,-205.730,394,377,337,374,355,2025-05-23T23:47:22.877507
11604,1.0892,2.1399,1.3596,-66.150,-511.420,-222.320,395,377,330,376,315,2025-05-23T23:47:22.877518
11605,1.5045,2.4644,1.1927,-92.540,-595.350,-240.660,409,378,332,393,345,2025-05-23T23:47:22.932531
11606,1.9949,2.6030,0.9038,-128.310,-638.190,-253.470,414,372,301,373,348,2025-05-23T23:47:22.932576
11607,2.4132,2.7196,0.6895,-173.110,-620.830,-261.520,412,364,326,385,344,2025-05-23T23:47:22.932588
11608,2.4995,2.4746,0.4304,-198.170,-575.470,-275.730,421,373,298,334,366,2025-05-23T23:47:22.932598
11609,2.4849,2.0779,0.1991,-199.570,-538.650,-287.140,423,353,332,364,344,2025-05-23T23:47:23.181492
11610,2.4605,1.6031,-0.0151,-184.380,-505.120,-300.510,398,278,333,398,313,2025-05-23T23:47:23.181677
11611,2.2960,1.0531,-0.1781,-180.460,-479.360,-324.170,396,358,328,396,348,2025-05-23T23:47:23.181696
11612,2.0325,0.4016,-0.1440,-204.120,-450.310,-360.500,370,286,307,354,297,2025-05-23T23:47:23.181707
11613,1.4791,-0.7281,-0.0156,-250.670,-413.210,-399.840,412,226,291,370,305,2025-05-23T23:47:23.181718
11614,1.1214,-1.7524,0.2201,-295.680,-364.210,-441.490,384,228,268,371,295,2025-05-23T23:47:23.181730
11615,0.8257,-2.8255,0.4602,-361.060,-320.460,-480.970,392,231,272,369,297,2025-05-23T23:47:23.181740
11616,0.3411,-4.3569,0.8403,-433.440,-301.630,-525.980,409,213,226,347,276,2025-05-23T23:47:23.181750
11617,-0.4377,-6.0346,1.3235,-474.530,-327.600,-569.660,416,275,236,259,289,2025-05-23T23:47:23.181760
11618,-0.7798,-6.5846,2.1287,-453.180,-366.450,-560.840,342,289,227,343,246,2025-05-23T23:47:23.181770
11619,-0.4904,-5.6388,2.8202,-408.800,-265.300,-497.840,332,279,218,336,282,2025-05-23T23:47:23.181780
11620,-0.8979,-3.7639,2.2653,-278.390,70.280,-430.080,409,283,217,334,269,2025-05-23T23:47:23.181790
11621,-2.1770,-2.3356,1.3776,-96.670,296.520,-206.710,398,255,220,344,289,2025-05-23T23:47:23.181803
11622,-2.4078,-1.4908,0.4031,67.970,448.560,155.750,388,234,213,350,245,2025-05-23T23:47:23.181847
11623,-1.4245,-1.4791,0.4924,115.220,542.850,323.820,334,261,213,343,252,2025-05-23T23:47:23.181857
11624,-0.8359,-1.6958,1.2864,54.950,510.510,392.070,374,265,208,346,248,2025-05-23T23:47:23.181866
11625,-0.7003,-2.2726,1.4684,-16.100,293.300,397.460,373,268,197,344,218,2025-05-23T23:47:23.181875
11626,-0.0673,-2.4790,1.0394,66.500,113.960,382.270,365,247,204,305,231,2025-05-23T23:47:23.181884
11627,0.7242,-2.0340,0.7252,137.270,109.410,374.150,413,262,211,285,230,2025-05-23T23:47:23.181892
11628,0.9414,-1.4796,0.7042,206.430,189.210,364.000,368,252,210,341,234,2025-05-23T23:47:23.400084
11629,0.6076,-0.9731,0.6617,190.120,313.180,329.210,411,273,241,363,273,2025-05-23T23:47:23.400149
11630,0.1410,-0.6554,0.6305,111.930,441.980,304.290,420,302,260,371,292,2025-05-23T23:47:23.400168
11631,-0.4485,-0.5353,0.5675,58.450,502.110,295.610,412,301,259,364,271,2025-05-23T23:47:23.400183
11632,-0.8760,-0.4797,0.5597,28.280,528.500,293.720,421,291,265,368,312,2025-05-23T23:47:23.400198
11633,-1.1522,-0.4641,0.4963,27.510,543.200,292.740,413,307,273,371,308,2025-05-23T23:47:23.400213
11634,-1.1634,-0.0810,0.4534,0.560,537.040,295.960,421,293,270,326,306,2025-05-23T23:47:23.400228
11635,-1.0233,0.3914,0.2625,-17.360,515.970,312.410,430,268,250,342,290,2025-05-23T23:47:23.400242
11636,-0.7315,0.7676,0.0639,-27.510,500.500,326.970,348,233,184,348,272,2025-05-23T23:47:23.400255
11637,-0.5641,0.9945,0.0171,-36.750,483.770,309.680,402,257,179,345,236,2025-05-23T23:47:23.400268
11638,-0.6510,1.1409,0.1488,-54.390,425.390,287.350,421,249,174,300,269,2025-05-23T23:47:23.400282
11639,-0.7091,1.2283,0.3558,-74.690,346.570,257.670,412,259,171,289,275,2025-05-23T23:47:23.400296
11640,-0.7837,1.1507,0.3811,-78.680,258.580,264.600,404,245,168,307,261,2025-05-23T23:47:23.400308
11641,-0.6090,1.3893,0.4397,-63.910,197.330,280.000,420,246,175,342,272,2025-05-23T23:47:23.400322
11642,-0.2118,1.5274,0.4055,-59.640,184.380,268.310,422,250,176,357,283,2025-05-23T23:47:23.400378
11643,0.1537,1.5884,0.3250,-58.170,202.790,238.910,418,237,170,338,282,2025-05-23T23:47:23.400392
11644,-0.0278,1.4982,0.4895,-49.140,212.310,203.630,348,236,183,354,264,2025-05-23T23:47:23.400405
11645,-0.4509,1.4913,0.9018,-44.380,171.150,178.150,353,203,182,364,242,2025-05-23T23:47:23.400422
11646,-0.5568,1.3747,1.0858,-48.230,86.450,170.730,363,247,183,337,275,2025-05-23T23:47:23.400435
11647,-0.3284,1.2781,1.1024,-63.420,23.240,157.920,394,233,183,354,276,2025-05-23T23:47:23.637875
11648,0.2176,1.3415,0.9897,-64.400,29.540,146.440,376,271,222,313,287,2025-05-23T23:47:23.637902
11649,0.7227,1.3513,0.9062,-52.640,121.800,131.880,408,271,240,366,262,2025-05-23T23:47:23.637908
11650,0.4651,1.2161,1.0043,-50.260,221.200,112.070,400,271,247,353,307,2025-05-23T23:47:23.637914
11651,-0.3099,1.1473,1.3967,-46.270,206.780,89.250,338,304,254,373,304,2025-05-23T23:47:23.637918
11652,-0.6354,0.9604,1.4996,-52.920,129.080,76.510,391,294,266,380,324,2025-05-23T23:47:23.637923
11653,-0.4519,0.8950,1.3298,-60.830,26.950,72.800,391,220,228,359,243,2025-05-23T23:47:23.637928
11654,0.0693,0.8984,1.0102,-28.840,4.620,69.650,382,218,212,350,289,2025-05-23T23:47:23.637933
11655,0.4294,0.9819,0.8106,7.140,45.570,61.250,411,243,206,263,278,2025-05-23T23:47:23.637937
11656,0.3660,0.9487,0.5197,33.880,90.440,40.180,429,256,207,329,231,2025-05-23T23:47:23.637941
11657,-0.0395,0.9828,0.5104,44.800,71.890,13.790,411,251,206,296,236,2025-05-23T23:47:23.637948
11658,-0.2884,0.9828,0.4333,44.170,51.870,-2.450,421,250,209,287,273,2025-05-23T23:47:23.637952
11659,-0.3802,0.9775,0.2757,1.820,5.040,-7.770,406,244,184,325,258,2025-05-23T23:47:23.637956
11660,-0.3167,0.9755,0.1976,-30.240,-18.900,-10.710,421,200,192,339,260,2025-05-23T23:47:23.637960
11661,-0.2294,0.9121,0.0883,-22.890,-9.310,-9.730,406,205,197,358,282,2025-05-23T23:47:23.637964
11662,-0.2289,0.8891,0.0771,-9.800,17.640,-3.850,425,250,213,337,259,2025-05-23T23:47:23.638156
11663,-0.2518,0.8984,0.0976,3.710,40.460,0.490,419,249,213,331,261,2025-05-23T23:47:23.638162
11664,-0.3001,0.9101,0.1557,-1.540,50.330,2.170,415,201,205,330,264,2025-05-23T23:47:23.638167
11665,-0.3865,0.9091,0.2059,-13.160,40.880,2.380,426,233,219,345,274,2025-05-23T23:47:23.638171
11666,-0.4231,0.9189,0.2137,-14.210,21.140,2.940,420,238,219,337,265,2025-05-23T23:47:23.638175
11667,-0.3553,0.9423,0.2172,-10.220,6.580,1.120,417,253,223,356,252,2025-05-23T23:47:23.686916
11668,-0.2582,0.9370,0.1820,-6.720,5.250,-1.330,398,288,246,356,270,2025-05-23T23:47:23.686961
11669,-0.2503,0.9355,0.1449,-5.180,10.710,-0.210,380,276,266,368,318,2025-05-23T23:47:23.686972
11670,-0.2723,0.9521,0.1620,-1.540,18.130,1.190,393,290,276,379,275,2025-05-23T23:47:23.686982
11671,-0.3406,0.9423,0.1864,0.420,18.620,1.540,402,310,278,371,271,2025-05-23T23:47:23.686992
11672,-0.3684,0.9492,0.2137,-0.980,11.130,1.190,411,308,290,361,324,2025-05-23T23:47:23.763502
11673,-0.3436,0.9501,0.2201,-4.270,2.100,0.560,418,307,286,320,312,2025-05-23T23:47:23.763540
11674,-0.3245,0.9589,0.1903,-3.500,-1.190,-0.910,402,305,276,374,326,2025-05-23T23:47:23.763695
11675,-0.3040,0.9545,0.1596,2.940,-1.890,-1.330,417,311,286,362,323,2025-05-23T23:47:23.763707
11676,-0.2943,0.9521,0.1435,7.420,-0.700,-1.330,393,305,270,363,325,2025-05-23T23:47:23.835818
11677,-0.2855,0.9570,0.1381,5.040,1.610,-0.070,394,312,286,338,318,2025-05-23T23:47:23.835861
11678,-0.3079,0.9399,0.1274,2.030,2.310,0.140,389,310,289,349,277,2025-05-23T23:47:23.835873
11679,-0.3187,0.9516,0.1225,0.420,1.470,-1.050,407,305,281,362,330,2025-05-23T23:47:23.835883
11680,-0.3274,0.9550,0.1171,-0.910,0.000,-2.170,392,315,280,383,327,2025-05-23T23:47:23.835892
11681,-0.3348,0.9492,0.1044,-2.870,-4.760,-3.220,416,248,292,378,321,2025-05-23T23:47:23.835901
11682,-0.2952,0.9531,0.1044,-4.620,-8.540,-3.990,409,299,287,368,317,2025-05-23T23:47:23.835909
11683,-0.2904,0.9511,0.0981,-6.860,-4.270,-6.230,407,288,243,374,312,2025-05-23T23:47:23.835917
11684,-0.2645,0.9531,0.1098,-7.980,2.660,-5.950,361,291,276,338,321,2025-05-23T23:47:24.041880
11685,-0.2616,0.9355,0.1230,-9.310,13.090,-4.970,375,298,288,332,334,2025-05-23T23:47:24.041909
11686,-0.2948,0.9350,0.1469,-9.800,18.970,-4.060,334,267,258,374,283,2025-05-23T23:47:24.041915
11687,-0.3265,0.9374,0.1601,-8.190,17.920,-3.780,399,316,273,373,313,2025-05-23T23:47:24.041921
11688,-0.3431,0.9331,0.1703,-6.230,10.220,-3.500,418,318,293,357,314,2025-05-23T23:47:24.041930
11689,-0.3328,0.9209,0.1693,-4.620,3.010,-4.410,402,301,294,367,322,2025-05-23T23:47:24.041939
11690,-0.3270,0.8935,0.1449,-2.310,-3.500,-5.180,412,292,242,374,315,2025-05-23T23:47:24.041948
11691,-0.3201,0.9087,0.1327,1.540,-5.600,-4.060,415,271,245,312,288,2025-05-23T23:47:24.041956
11692,-0.3060,0.9243,0.1191,3.710,-3.360,-1.890,416,267,241,335,285,2025-05-23T23:47:24.041965
11693,-0.3104,0.9370,0.1108,2.660,0.140,-1.540,389,260,245,354,293,2025-05-23T23:47:24.041974
11694,-0.3030,0.9492,0.1191,0.280,1.050,-1.120,394,261,232,366,287,2025-05-23T23:47:24.041982
11695,-0.3113,0.9433,0.1269,-2.660,1.260,-1.260,403,248,222,365,238,2025-05-23T23:47:24.041991
11696,-0.3489,0.9272,0.1342,-2.730,-1.050,-2.660,424,258,241,358,240,2025-05-23T23:47:24.041999
11697,-0.3411,0.9379,0.1659,-1.540,-6.090,-1.680,410,258,235,349,275,2025-05-23T23:47:24.042008
11698,-0.3270,0.9316,0.1767,-0.490,-6.370,-0.700,396,243,233,338,270,2025-05-23T23:47:24.042047
11699,-0.3094,0.9345,0.1708,1.750,-1.190,-0.630,376,247,226,354,249,2025-05-23T23:47:24.042056
11700,-0.3050,0.9453,0.1625,5.390,4.410,0.490,413,246,227,298,248,2025-05-23T23:47:24.042068
11701,-0.3382,0.9492,0.1566,7.840,6.930,0.980,411,257,252,356,304,2025-05-23T23:47:24.096792
11702,-0.3572,0.9555,0.1503,7.280,2.450,1.610,423,276,274,361,299,2025-05-23T23:47:24.096835
11703,-0.3689,0.9438,0.1410,5.040,-3.920,1.680,420,281,249,373,272,2025-05-23T23:47:24.096847
11704,-0.3489,0.9457,0.1347,2.170,-9.660,1.470,421,305,277,378,330,2025-05-23T23:47:24.096855
11705,-0.3270,0.9409,0.1303,0.070,-12.320,1.120,430,303,284,383,328,2025-05-23T23:47:24.096865
11706,-0.3070,0.9340,0.1200,-0.350,-14.350,-0.490,402,305,295,383,326,2025-05-23T23:47:24.265883
11707,-0.2962,0.9350,0.1030,1.470,-13.930,-1.960,423,302,298,382,331,2025-05-23T23:47:24.265905
11708,-0.2972,0.9496,0.0981,2.800,-10.080,-1.400,399,298,297,384,332,2025-05-23T23:47:24.265928
11709,-0.2923,0.9511,0.1035,2.240,-5.180,-1.470,382,319,298,335,325,2025-05-23T23:47:24.265934
11710,-0.3079,0.9467,0.1205,-0.420,0.000,-2.030,416,312,305,378,331,2025-05-23T23:47:24.265939
11711,-0.3421,0.9374,0.1376,-2.590,1.960,-1.610,418,266,299,363,332,2025-05-23T23:47:24.265943
11712,-0.3606,0.9389,0.1484,-2.310,1.400,-0.840,374,302,299,339,318,2025-05-23T23:47:24.265947
11713,-0.3387,0.9472,0.1571,-1.470,0.280,0.140,334,269,272,322,303,2025-05-23T23:47:24.265951
11714,-0.3221,0.9521,0.1542,-1.190,0.700,0.000,393,263,253,339,292,2025-05-23T23:47:24.265955
11715,-0.3294,0.9482,0.1430,0.210,0.910,-0.840,385,265,253,360,222,2025-05-23T23:47:24.265959
11716,-0.3162,0.9594,0.1469,1.050,0.420,-0.070,339,219,243,341,288,2025-05-23T23:47:24.265964
11717,-0.3187,0.9428,0.1444,0.140,0.770,-0.420,348,261,222,361,292,2025-05-23T23:47:24.265968
11718,-0.3206,0.9355,0.1396,-0.350,-0.280,-0.280,411,266,222,373,300,2025-05-23T23:47:24.265971
11719,-0.3299,0.9326,0.1376,0.700,-0.980,-0.350,348,293,270,377,303,2025-05-23T23:47:24.265975
11720,-0.3377,0.9418,0.1386,1.610,-0.070,0.350,384,292,279,363,279,2025-05-23T23:47:24.313442
11721,-0.3367,0.9531,0.1322,1.540,-0.770,1.050,381,305,282,361,277,2025-05-23T23:47:24.313484
11722,-0.3196,0.9540,0.1274,0.000,-1.470,1.190,392,310,299,358,334,2025-05-23T23:47:24.313495
11723,-0.3201,0.9501,0.1186,-0.560,-1.470,0.980,422,302,299,317,318,2025-05-23T23:47:24.313504
11724,-0.3211,0.9511,0.1220,-0.140,-1.610,0.140,416,300,280,313,316,2025-05-23T23:47:24.361293
11725,-0.3196,0.9467,0.1259,-1.190,-2.870,-0.910,398,315,275,346,338,2025-05-23T23:47:24.361339
11726,-0.3314,0.9316,0.1298,-2.590,-5.040,-1.960,425,316,292,374,320,2025-05-23T23:47:24.361351
11727,-0.3406,0.9160,0.1205,-2.170,-6.300,-1.260,305,302,272,324,335,2025-05-23T23:47:24.361362
11728,-0.3392,0.9204,0.1244,0.840,-4.690,0.210,367,307,306,276,335,2025-05-23T23:47:24.409377
11729,-0.3411,0.9345,0.1366,1.260,-2.240,1.120,378,295,294,357,320,2025-05-23T23:47:24.409424
11730,-0.3333,0.9360,0.1381,-0.630,-2.240,1.190,413,318,300,368,308,2025-05-23T23:47:24.409437
11731,-0.3294,0.9496,0.1479,-2.380,-4.130,1.050,303,317,302,325,334,2025-05-23T23:47:24.409448
11732,-0.3255,0.9467,0.1430,-2.240,-5.530,0.280,280,304,302,354,322,2025-05-23T23:47:24.457749
11733,-0.3133,0.9462,0.1371,-0.350,-6.160,-0.280,384,308,273,371,330,2025-05-23T23:47:24.457791
11734,-0.3221,0.9453,0.1347,0.910,-6.230,-0.490,392,306,301,373,331,2025-05-23T23:47:24.457803
11735,-0.3348,0.9438,0.1396,1.330,-6.370,1.120,389,319,303,357,336,2025-05-23T23:47:24.457813
11736,-0.3338,0.9433,0.1435,1.120,-5.880,1.610,373,316,295,359,337,2025-05-23T23:47:24.659986
11737,-0.3226,0.9453,0.1459,1.050,-5.180,1.890,409,300,299,375,288,2025-05-23T23:47:24.660034
11738,-0.3231,0.9448,0.1430,1.120,-4.760,1.750,413,319,304,353,286,2025-05-23T23:47:24.660046
11739,-0.3074,0.9536,0.1440,1.540,-4.970,1.540,402,315,305,372,337,2025-05-23T23:47:24.660059
11740,-0.2991,0.9516,0.1381,0.980,-3.850,0.630,353,304,304,289,327,2025-05-23T23:47:24.660069
11741,-0.3099,0.9482,0.1279,1.540,-3.850,-0.420,399,271,304,348,337,2025-05-23T23:47:24.660078
11742,-0.3070,0.9604,0.1298,1.540,-4.130,-0.350,386,302,304,375,324,2025-05-23T23:47:24.660087
11743,-0.3045,0.9506,0.1293,-0.910,-3.500,-1.540,410,279,276,320,267,2025-05-23T23:47:24.660096
11744,-0.3055,0.9492,0.1376,-2.380,-4.410,-1.820,399,270,270,346,305,2025-05-23T23:47:24.660105
11745,-0.3006,0.9545,0.1488,-1.470,-4.270,-0.910,425,255,247,359,282,2025-05-23T23:47:24.660113
11746,-0.3118,0.9433,0.1444,0.210,-2.870,-2.030,428,241,245,348,248,2025-05-23T23:47:24.660122
11747,-0.3094,0.9457,0.1391,2.800,-2.310,-1.400,404,261,250,312,287,2025-05-23T23:47:24.660130
11748,-0.3157,0.9482,0.1337,2.800,-0.490,-0.560,394,218,243,349,247,2025-05-23T23:47:24.660246
11749,-0.3128,0.9506,0.1303,0.910,0.910,-0.490,401,257,246,341,289,2025-05-23T23:47:24.660256
11750,-0.3128,0.9496,0.1196,-0.280,0.840,-0.910,398,246,244,340,284,2025-05-23T23:47:24.660293
11751,-0.3206,0.9516,0.1200,-1.330,0.770,-0.560,362,259,247,355,269,2025-05-23T23:47:24.660302
11752,-0.3221,0.9555,0.1288,-2.310,-0.840,-0.350,413,255,245,340,242,2025-05-23T23:47:24.660311
11753,-0.3289,0.9521,0.1283,-3.150,-3.920,-0.770,374,292,287,355,302,2025-05-23T23:47:24.896631
11754,-0.3182,0.9457,0.1342,-3.500,-5.320,-0.420,376,291,285,363,315,2025-05-23T23:47:24.896660
11755,-0.3177,0.9355,0.1357,-2.380,-4.480,-0.700,380,303,288,339,329,2025-05-23T23:47:24.896666
11756,-0.3079,0.9316,0.1405,-1.050,-3.010,-1.190,390,277,298,333,323,2025-05-23T23:47:24.896671
11757,-0.3226,0.9218,0.1362,-0.980,-0.560,-1.400,383,303,292,326,302,2025-05-23T23:47:24.896677
11758,-0.3465,0.9189,0.1362,-0.840,-0.910,-0.980,403,279,282,309,298,2025-05-23T23:47:24.896684
11759,-0.3533,0.9257,0.1376,-0.350,-4.200,-1.260,397,260,265,352,299,2025-05-23T23:47:24.896689
11760,-0.3372,0.9394,0.1474,-1.050,-7.770,-2.450,403,216,256,358,261,2025-05-23T23:47:24.896694
11761,-0.3455,0.9389,0.1606,-2.940,-11.270,-6.440,410,262,248,326,289,2025-05-23T23:47:24.896699
11762,-0.3460,0.9467,0.1820,-3.220,-17.010,-9.100,390,257,247,357,255,2025-05-23T23:47:24.896703
11763,-0.3680,0.9462,0.2176,-1.820,-23.240,-11.270,404,213,247,303,286,2025-05-23T23:47:24.896708
11764,-0.3767,0.9584,0.2743,-1.540,-29.470,-14.910,406,252,192,331,288,2025-05-23T23:47:24.896713
11765,-0.3802,0.9296,0.3138,-1.890,-37.590,-19.320,410,223,212,340,295,2025-05-23T23:47:24.896720
11766,-0.4124,0.9345,0.4094,-2.240,-51.100,-25.340,386,245,227,360,275,2025-05-23T23:47:24.896728
11767,-0.4016,0.9501,0.5041,-5.320,-69.860,-34.930,397,248,209,303,265,2025-05-23T23:47:24.896750
11768,-0.3548,1.0058,0.7042,-12.460,-102.410,-44.100,398,235,231,347,267,2025-05-23T23:47:24.896755
11769,-0.3192,1.0873,1.0346,-28.070,-155.470,-60.270,392,222,210,302,272,2025-05-23T23:47:24.896760
11770,-0.1415,1.2327,1.4513,-43.470,-239.890,-77.350,422,290,278,353,308,2025-05-23T23:47:25.078696
11771,0.1552,1.3318,1.6997,-54.040,-358.050,-106.190,424,271,246,356,279,2025-05-23T23:47:25.078745
11772,0.7266,1.4420,1.7670,-48.510,-484.120,-158.690,428,269,275,375,308,2025-05-23T23:47:25.078757
11773,1.2776,1.6182,1.6460,-16.380,-574.280,-218.470,422,300,261,363,306,2025-05-23T23:47:25.078768
11774,1.6934,1.8915,1.4054,11.550,-622.160,-266.980,427,259,294,379,277,2025-05-23T23:47:25.078779
11775,1.8046,2.1267,1.1961,-15.820,-643.440,-309.610,389,269,256,373,284,2025-05-23T23:47:25.078789
11776,1.7905,2.2663,1.0292,-90.790,-670.460,-338.940,415,254,245,364,298,2025-05-23T23:47:25.078798
11777,1.7958,2.2995,0.8477,-176.470,-700.070,-364.630,403,232,246,356,291,2025-05-23T23:47:25.078820
11778,1.9671,2.2004,0.6817,-259.840,-690.340,-388.010,415,225,219,332,279,2025-05-23T23:47:25.078830
11779,2.0433,1.9193,0.5319,-294.420,-629.370,-418.950,385,240,238,358,245,2025-05-23T23:47:25.078842
11780,2.0350,1.4581,0.4006,-293.930,-541.660,-441.770,385,240,234,268,252,2025-05-23T23:47:25.078851
11781,1.6958,0.7584,0.3289,-268.590,-469.630,-444.710,383,246,222,345,279,2025-05-23T23:47:25.078863
11782,1.2351,-0.0551,0.4255,-233.660,-427.490,-434.980,397,222,215,348,291,2025-05-23T23:47:25.078872
11783,0.8496,-0.8496,0.6261,-217.280,-396.970,-438.340,396,209,228,358,250,2025-05-23T23:47:25.078909
11784,0.8652,-1.9671,0.5822,-237.370,-374.570,-446.670,387,192,175,311,272,2025-05-23T23:47:25.078918
11785,0.9048,-3.0607,0.6393,-324.170,-324.380,-481.320,383,183,174,349,279,2025-05-23T23:47:25.078927
11786,0.5231,-4.4745,0.7925,-390.530,-251.090,-550.200,329,187,220,292,273,2025-05-23T23:47:25.078935
11787,-0.1854,-5.8062,0.9672,-409.290,-206.010,-594.230,367,218,250,354,291,2025-05-23T23:47:25.078944
11788,-0.9960,-5.6940,1.2385,-353.080,-139.440,-574.490,415,229,272,313,305,2025-05-23T23:47:25.272607
11789,-2.1121,-4.3251,1.3005,-284.270,-24.920,-479.570,395,240,247,304,280,2025-05-23T23:47:25.272657
11790,-3.3208,-2.9085,1.5148,-166.320,82.950,-275.240,354,240,274,327,303,2025-05-23T23:47:25.272672
11791,-2.5718,-2.1472,1.0355,-65.660,142.800,-15.750,410,237,278,312,272,2025-05-23T23:47:25.272684
11792,-1.2854,-1.6665,0.6598,53.340,322.280,175.000,414,211,281,360,316,2025-05-23T23:47:25.272694
11793,-0.2967,-1.3840,0.7793,65.380,494.410,264.460,408,156,245,324,249,2025-05-23T23:47:25.272705
11794,-0.1991,-1.4718,0.9243,5.040,530.950,317.660,422,147,231,347,269,2025-05-23T23:47:25.272714
11795,-0.3026,-1.7812,1.0336,-1.400,429.800,331.730,396,142,217,338,243,2025-05-23T23:47:25.272724
11796,-0.2416,-1.9906,0.9555,44.450,320.110,324.870,395,140,226,340,245,2025-05-23T23:47:25.272733
11797,0.0332,-1.9305,0.6583,129.360,307.160,324.520,402,139,231,356,255,2025-05-23T23:47:25.272742
11798,-0.0864,-1.5504,0.5729,148.610,370.930,330.540,421,135,225,352,237,2025-05-23T23:47:25.272751
11799,-0.4358,-1.2834,0.7237,115.290,448.420,329.140,417,137,220,359,278,2025-05-23T23:47:25.272761
11800,-0.9448,-1.0941,0.8154,56.070,451.500,328.720,389,135,199,337,260,2025-05-23T23:47:25.272769
11801,-1.0170,-0.8652,0.7710,4.970,430.080,334.740,363,132,235,337,278,2025-05-23T23:47:25.272815
11802,-0.9257,-0.5441,0.6500,-40.740,445.970,341.670,389,131,228,303,269,2025-05-23T23:47:25.272824
11803,-0.9130,-0.2133,0.5109,-73.640,488.810,339.920,382,132,223,308,282,2025-05-23T23:47:25.272834
11804,-1.0214,0.1830,0.4036,-98.910,498.680,344.750,389,195,271,356,266,2025-05-23T23:47:25.473984
11805,-1.1829,0.5827,0.3928,-107.380,473.900,350.210,408,199,271,366,306,2025-05-23T23:47:25.474043
11806,-1.1756,0.7715,0.3592,-116.270,417.970,346.080,421,208,256,314,325,2025-05-23T23:47:25.474060
11807,-1.1414,0.8686,0.4016,-114.030,343.700,337.540,396,217,289,359,323,2025-05-23T23:47:25.474074
11808,-1.0385,0.9033,0.5549,-107.870,267.190,316.680,392,221,294,360,323,2025-05-23T23:47:25.474087
11809,-0.9389,0.8154,0.7457,-96.180,197.680,294.420,421,225,292,325,323,2025-05-23T23:47:25.474100
11810,-0.6739,0.8989,0.6876,-77.490,148.750,278.040,408,282,319,378,326,2025-05-23T23:47:25.474112
11811,-0.3431,1.0741,0.6261,-67.130,143.850,266.840,400,171,252,360,261,2025-05-23T23:47:25.474124
11812,-0.1279,1.2117,0.5700,-65.170,166.880,250.950,420,160,249,338,262,2025-05-23T23:47:25.474135
11813,-0.0264,1.1844,0.4812,-62.510,183.960,231.700,403,153,231,355,291,2025-05-23T23:47:25.474149
11814,-0.2118,1.1375,0.6198,-50.960,180.740,213.150,407,149,248,316,243,2025-05-23T23:47:25.474161
11815,-0.3338,1.1390,0.7642,-55.580,145.460,191.590,400,145,241,346,283,2025-05-23T23:47:25.474173
11816,-0.2274,1.1590,0.8057,-62.930,109.480,178.640,393,145,219,352,274,2025-05-23T23:47:25.474184
11817,0.0786,1.2722,0.7105,-90.790,108.920,168.910,399,141,248,356,291,2025-05-23T23:47:25.474237
11818,0.3226,1.2790,0.5636,-107.100,137.060,161.700,405,138,246,367,270,2025-05-23T23:47:25.474250
11819,0.4553,1.1883,0.5114,-96.180,179.900,157.780,423,138,235,305,266,2025-05-23T23:47:25.474264
11820,0.0142,1.0736,0.7837,-78.120,212.870,148.260,404,137,235,351,256,2025-05-23T23:47:25.474276
11821,-0.4900,0.9672,1.1405,-68.460,168.560,129.500,306,198,269,359,309,2025-05-23T23:47:25.708365
11822,-0.4753,0.9770,1.2873,-74.130,64.540,119.490,401,208,288,365,301,2025-05-23T23:47:25.708455
11823,-0.1113,0.9384,1.1795,-81.900,-16.380,114.170,341,216,282,360,307,2025-05-23T23:47:25.708472
11824,0.3958,0.9462,1.0048,-58.240,-16.030,104.580,381,219,289,355,319,2025-05-23T23:47:25.708485
11825,0.6373,0.9706,0.8960,-24.780,26.530,88.200,413,233,295,350,290,2025-05-23T23:47:25.708502
11826,0.5080,0.9311,0.7579,4.550,61.460,67.760,403,168,258,368,297,2025-05-23T23:47:25.708514
11827,0.1576,0.8804,0.7549,30.030,68.670,37.940,337,156,235,326,276,2025-05-23T23:47:25.708526
11828,-0.1098,0.8564,0.7344,44.380,45.780,7.280,398,151,248,355,238,2025-05-23T23:47:25.708537
11829,-0.2904,0.8584,0.6900,12.530,-1.050,-6.580,414,148,217,321,272,2025-05-23T23:47:25.708548
11830,-0.3265,0.8228,0.5153,-14.280,-31.010,-15.400,394,147,224,312,236,2025-05-23T23:47:25.708559
11831,-0.2874,0.8311,0.3270,-6.300,-23.520,-20.300,376,140,250,336,277,2025-05-23T23:47:25.708699
11832,-0.1952,0.8921,0.1571,11.060,10.850,-15.820,406,142,225,354,281,2025-05-23T23:47:25.708709
11833,-0.2547,0.8940,0.0171,31.150,44.660,-7.490,394,139,241,348,207,2025-05-23T23:47:25.708719
11834,-0.3318,0.9135,-0.0044,34.510,68.810,-3.150,390,139,239,352,263,2025-05-23T23:47:25.708728
11835,-0.4431,0.9365,0.0537,19.740,59.780,2.170,408,136,237,348,279,2025-05-23T23:47:25.708776
11836,-0.5226,0.9277,0.0888,-2.100,30.660,8.120,337,138,223,324,265,2025-05-23T23:47:25.708786
11837,-0.4626,0.9165,0.1362,-13.580,0.840,10.640,407,137,243,332,280,2025-05-23T23:47:25.708795
11838,-0.3343,0.8872,0.1430,-16.520,-16.100,5.950,305,185,243,352,276,2025-05-23T23:47:25.708804
11839,-0.1981,0.9033,0.1669,-11.900,-17.920,3.500,331,203,281,365,313,2025-05-23T23:47:25.708814
11840,-0.1508,0.9189,0.1810,-5.670,-8.190,3.360,395,225,297,366,330,2025-05-23T23:47:25.758480
11841,-0.1757,0.9394,0.2191,-0.770,3.430,2.660,399,225,293,372,326,2025-05-23T23:47:25.758511
11842,-0.2030,0.9438,0.2469,0.280,7.420,-1.120,396,228,303,381,320,2025-05-23T23:47:25.758518
11843,-0.2396,0.9243,0.2494,-2.100,3.500,-4.760,397,231,272,342,311,2025-05-23T23:47:25.758525
11844,-0.2591,0.9296,0.2367,-5.110,-2.590,-7.350,408,231,302,381,332,2025-05-23T23:47:25.817015
11845,-0.2362,0.9584,0.2245,-5.320,-10.010,-9.660,406,239,271,320,334,2025-05-23T23:47:25.817041
11846,-0.2108,0.9775,0.2025,-5.180,-10.710,-13.300,397,241,311,372,330,2025-05-23T23:47:25.817046
11847,-0.1923,0.9965,0.1840,-5.250,-7.210,-15.330,427,241,286,371,285,2025-05-23T23:47:25.817051
11848,-0.2216,0.9799,0.1723,-5.110,-3.780,-14.420,424,237,274,377,337,2025-05-23T23:47:25.817055
11849,-0.2777,0.9643,0.1640,-2.800,-3.150,-11.760,423,251,320,387,332,2025-05-23T23:47:25.903424
11850,-0.3167,0.9648,0.1591,2.450,-8.890,-7.070,403,243,302,352,308,2025-05-23T23:47:25.903464
11851,-0.3148,0.9794,0.1562,4.270,-15.610,-4.130,381,245,299,369,283,2025-05-23T23:47:25.903476
11852,-0.2943,0.9872,0.1503,2.870,-20.090,-3.850,397,245,315,383,332,2025-05-23T23:47:25.903485
11853,-0.2884,0.9750,0.1288,0.210,-24.150,-3.710,395,246,309,388,337,2025-05-23T23:47:25.903494
11854,-0.2821,0.9697,0.1362,-0.560,-24.220,-1.610,388,245,307,375,337,2025-05-23T23:47:25.903502
11855,-0.3089,0.9453,0.1386,-1.680,-20.510,-0.350,398,247,307,364,322,2025-05-23T23:47:25.903511
11856,-0.2908,0.9550,0.1508,-2.940,-15.190,1.890,424,260,294,381,324,2025-05-23T23:47:26.088831
11857,-0.2562,0.9579,0.1606,-6.020,-5.950,3.290,421,248,319,371,323,2025-05-23T23:47:26.088880
11858,-0.2684,0.9540,0.1484,-6.860,1.540,3.150,412,246,313,361,323,2025-05-23T23:47:26.088893
11859,-0.2708,0.9658,0.1586,-2.800,6.930,3.570,413,246,317,366,343,2025-05-23T23:47:26.088904
11860,-0.2718,0.9682,0.1732,-1.190,7.350,3.010,414,247,311,374,336,2025-05-23T23:47:26.088915
11861,-0.2869,0.9433,0.1810,-2.240,3.150,1.610,427,247,310,353,286,2025-05-23T23:47:26.088925
11862,-0.2801,0.9394,0.1903,-3.640,-2.450,1.960,429,249,317,378,323,2025-05-23T23:47:26.088935
11863,-0.2660,0.9394,0.2059,-4.200,-7.840,2.310,348,205,279,372,313,2025-05-23T23:47:26.088945
11864,-0.2455,0.9414,0.2128,-3.710,-10.780,1.470,323,182,269,369,285,2025-05-23T23:47:26.088955
11865,-0.2250,0.9477,0.2147,-2.940,-11.410,-0.350,364,172,259,311,289,2025-05-23T23:47:26.088964
11866,-0.2147,0.9443,0.2074,-0.980,-8.750,-1.960,383,165,261,320,295,2025-05-23T23:47:26.088973
11867,-0.2274,0.9282,0.1889,1.820,-4.690,-2.730,411,161,229,353,265,2025-05-23T23:47:26.088982
11868,-0.2474,0.9379,0.1742,4.550,-0.840,-3.360,416,159,235,357,292,2025-05-23T23:47:26.088991
11869,-0.2528,0.9448,0.1742,4.270,1.540,-2.940,405,154,231,345,241,2025-05-23T23:47:26.089000
11870,-0.2894,0.9399,0.1542,2.660,1.750,-4.130,397,154,255,357,289,2025-05-23T23:47:26.089042
11871,-0.2923,0.9516,0.1493,2.030,0.910,-3.500,406,150,256,321,275,2025-05-23T23:47:26.089052
11872,-0.2991,0.9570,0.1420,2.660,-0.140,-2.870,417,211,291,342,305,2025-05-23T23:47:26.294748
11873,-0.2913,0.9765,0.1479,3.290,-1.400,-2.170,404,218,287,308,324,2025-05-23T23:47:26.294819
11874,-0.2747,0.9740,0.1625,2.870,-2.450,-1.400,419,227,290,357,328,2025-05-23T23:47:26.294836
11875,-0.2796,0.9414,0.1693,4.060,-2.730,-0.630,357,230,307,356,293,2025-05-23T23:47:26.294849
11876,-0.2762,0.9394,0.1898,7.350,-2.800,1.470,401,238,299,357,321,2025-05-23T23:47:26.294861
11877,-0.2664,0.9633,0.2137,10.010,-2.240,2.030,336,239,297,377,331,2025-05-23T23:47:26.294875
11878,-0.2538,0.9784,0.2250,9.730,-2.310,0.350,382,188,257,367,305,2025-05-23T23:47:26.294887
11879,-0.2172,0.9916,0.2162,12.110,-2.800,-2.520,387,172,259,306,269,2025-05-23T23:47:26.294898
11880,-0.1903,0.9984,0.2040,17.570,0.560,-3.850,393,164,257,314,288,2025-05-23T23:47:26.294910
11881,-0.1957,0.9677,0.1776,26.180,9.380,-5.530,340,160,227,336,294,2025-05-23T23:47:26.294921
11882,-0.2220,0.9618,0.1693,33.320,15.190,-7.630,330,156,249,349,290,2025-05-23T23:47:26.294932
11883,-0.2664,0.9711,0.1737,33.180,16.660,-8.750,414,152,256,302,282,2025-05-23T23:47:26.294942
11884,-0.3109,0.9789,0.1586,27.930,12.950,-10.290,381,150,251,345,280,2025-05-23T23:47:26.294953
11885,-0.3465,0.9692,0.1362,23.730,3.220,-13.510,414,147,245,353,239,2025-05-23T23:47:26.294964
11886,-0.3304,0.9545,0.0976,25.620,-6.720,-17.430,396,143,239,341,237,2025-05-23T23:47:26.295017
11887,-0.2806,0.9740,0.0722,31.220,-10.430,-17.290,415,144,252,344,249,2025-05-23T23:47:26.295029
11888,-0.2660,0.9799,0.0473,34.020,-9.170,-16.240,407,144,254,300,238,2025-05-23T23:47:26.295039
11889,-0.2913,0.9731,0.0293,31.710,-7.210,-15.260,347,210,276,363,317,2025-05-23T23:47:26.344033
11890,-0.3211,0.9682,0.0342,22.680,-9.310,-12.040,377,205,291,358,305,2025-05-23T23:47:26.344074
11891,-0.3587,0.9555,0.0429,13.650,-12.950,-9.730,389,218,238,319,308,2025-05-23T23:47:26.344084
11892,-0.3660,0.9418,0.0566,7.070,-17.990,-6.160,403,225,304,357,322,2025-05-23T23:47:26.344092
11893,-0.3587,0.9370,0.0586,2.100,-23.170,-2.450,426,233,291,374,316,2025-05-23T23:47:26.519394
11894,-0.3553,0.9096,0.0381,2.310,-28.000,-2.660,355,236,305,379,323,2025-05-23T23:47:26.519440
11895,-0.2962,0.9189,0.0327,6.160,-29.540,-2.800,395,240,302,394,333,2025-05-23T23:47:26.519454
11896,-0.2513,0.9199,0.0293,11.060,-27.230,-2.660,387,240,300,382,345,2025-05-23T23:47:26.519466
11897,-0.2464,0.9355,0.0527,9.870,-22.540,-5.110,384,242,314,328,320,2025-05-23T23:47:26.519477
11898,-0.2777,0.9399,0.0678,4.970,-27.090,-9.870,407,245,312,321,291,2025-05-23T23:47:26.519487
11899,-0.2786,0.9599,0.0922,1.260,-32.620,-13.650,417,248,306,379,328,2025-05-23T23:47:26.519497
11900,-0.3162,0.9501,0.0820,-7.420,-41.230,-16.030,418,219,293,361,324,2025-05-23T23:47:26.519510
11901,-0.3045,0.9350,0.0756,-13.020,-51.870,-17.640,419,186,245,371,300,2025-05-23T23:47:26.519523
11902,-0.2752,0.9004,0.0615,-11.270,-53.830,-15.470,415,172,210,372,280,2025-05-23T23:47:26.519533
11903,-0.2806,0.9262,0.0913,-8.260,-38.780,-11.130,420,180,254,373,293,2025-05-23T23:47:26.519543
11904,-0.3099,0.9282,0.1767,-4.480,-1.330,-8.890,339,175,264,358,295,2025-05-23T23:47:26.519552
11905,-0.3694,0.9165,0.2274,-3.080,0.490,-7.420,384,175,240,334,300,2025-05-23T23:47:26.519562
11906,-0.4172,0.9257,0.2469,-1.610,8.680,-2.310,413,219,283,369,270,2025-05-23T23:47:26.519570
11907,-0.4363,0.9389,0.2318,3.500,8.610,2.660,427,225,282,384,336,2025-05-23T23:47:26.519613
11908,-0.3987,0.9487,0.1898,9.730,1.330,5.880,398,257,313,362,337,2025-05-23T23:47:26.600866
11909,-0.3367,0.9570,0.1527,17.010,-10.710,7.210,389,246,311,376,342,2025-05-23T23:47:26.600908
11910,-0.3094,0.9472,0.1142,21.420,-25.480,4.830,391,248,308,382,311,2025-05-23T23:47:26.600919
11911,-0.2508,0.9472,0.0908,22.470,-44.380,1.750,411,248,303,361,329,2025-05-23T23:47:26.600928
11912,-0.2079,0.9736,0.0615,17.920,-54.390,-2.520,413,273,322,377,339,2025-05-23T23:47:26.702817
11913,-0.2069,0.9550,0.0361,9.660,-54.390,-8.260,427,256,310,368,301,2025-05-23T23:47:26.702850
11914,-0.1932,0.9589,0.0361,1.610,-41.860,-12.040,419,253,319,381,327,2025-05-23T23:47:26.702863
11915,-0.2079,0.9604,0.0259,-7.700,-4.200,-12.110,421,250,308,372,337,2025-05-23T23:47:26.702870
11916,-0.2840,0.9360,0.0244,-13.790,8.610,-7.420,418,254,324,344,332,2025-05-23T23:47:26.702954
11917,-0.3699,0.9316,0.0425,-10.920,30.520,0.420,347,205,288,337,325,2025-05-23T23:47:26.702960
11918,-0.4377,0.9335,0.0468,-7.490,42.560,11.340,323,187,268,363,311,2025-05-23T23:47:26.702967
11919,-0.4470,0.9697,0.0673,-9.450,49.980,19.530,385,178,235,365,288,2025-05-23T23:47:26.702974
11920,-0.4314,0.9794,0.0922,-14.210,51.310,21.210,360,173,266,358,267,2025-05-23T23:47:26.702980
11921,-0.4216,0.9345,0.1088,-21.770,45.220,10.360,405,166,229,354,306,2025-05-23T23:47:26.702985
11922,-0.3162,0.9331,0.1152,-20.020,37.310,4.410,301,166,267,368,290,2025-05-23T23:47:26.702991
11923,-0.2694,0.9414,0.1235,-15.120,33.600,2.870,401,205,246,380,326,2025-05-23T23:47:26.963996
11924,-0.2728,0.9477,0.1435,-6.510,26.810,0.070,420,224,308,386,333,2025-05-23T23:47:26.964043
11925,-0.3196,0.9233,0.1391,0.070,-0.140,0.840,402,233,302,386,348,2025-05-23T23:47:26.964058
11926,-0.3309,0.8911,0.1635,4.480,-41.510,4.970,359,239,304,393,340,2025-05-23T23:47:26.964069
11927,-0.3021,0.8906,0.1884,5.390,-77.700,6.230,388,244,288,391,344,2025-05-23T23:47:26.964079
11928,-0.2523,0.8677,0.1737,9.800,-116.410,4.970,422,252,322,396,336,2025-05-23T23:47:26.964089
11929,-0.2040,0.8540,0.1449,9.170,-132.720,-1.680,398,252,323,388,316,2025-05-23T23:47:26.964099
11930,-0.1835,0.8877,0.1488,8.470,-122.150,-13.790,416,290,327,395,342,2025-05-23T23:47:26.964108
11931,-0.2352,0.9267,0.1752,-0.770,-87.360,-24.990,417,200,292,378,324,2025-05-23T23:47:26.964118
11932,-0.4177,0.9379,0.1601,-5.460,-61.810,-34.230,408,178,278,372,268,2025-05-23T23:47:26.964127
11933,-0.4919,0.9423,0.1503,-10.150,-51.870,-32.130,428,172,270,340,310,2025-05-23T23:47:26.964137
11934,-0.5641,0.9331,0.1366,-15.190,-43.120,-26.180,426,167,262,348,298,2025-05-23T23:47:26.964145
11935,-0.5251,0.9311,0.1459,-14.070,-43.330,-18.270,400,165,236,357,287,2025-05-23T23:47:26.964154
11936,-0.4275,0.9355,0.1493,-9.450,-46.270,-9.380,401,162,260,351,299,2025-05-23T23:47:26.964163
11937,-0.3528,0.9555,0.1708,-4.970,-47.810,-2.800,409,158,264,359,296,2025-05-23T23:47:26.964205
11938,-0.2801,0.9765,0.1903,-4.620,-47.180,-3.640,301,151,262,357,270,2025-05-23T23:47:26.964215
11939,-0.1274,1.0155,0.2167,-7.770,-45.430,-7.210,382,150,264,315,259,2025-05-23T23:47:26.964224
11940,-0.2103,1.0521,0.2342,-10.920,-38.850,-8.190,421,191,278,309,300,2025-05-23T23:47:26.964232
11941,-0.2206,1.0419,0.2181,-12.460,-26.810,-9.590,359,247,313,371,331,2025-05-23T23:47:27.157942
11942,-0.2567,1.0141,0.2128,-9.730,-5.180,-9.730,400,255,312,376,346,2025-05-23T23:47:27.157989
11943,-0.3035,0.9897,0.2045,-3.570,15.190,-7.350,396,245,304,377,294,2025-05-23T23:47:27.158003
11944,-0.3284,0.9775,0.1830,2.590,28.560,-5.180,399,250,313,377,295,2025-05-23T23:47:27.158014
11945,-0.2918,1.0541,0.1484,5.810,40.180,0.560,416,263,310,341,326,2025-05-23T23:47:27.158024
11946,-0.3323,1.0902,0.0942,4.620,45.780,-2.520,432,247,322,359,346,2025-05-23T23:47:27.158034
11947,-0.3231,1.1429,0.1025,6.230,54.460,-7.070,400,250,288,381,347,2025-05-23T23:47:27.158045
11948,-0.4138,1.1029,0.1147,6.300,41.930,-8.540,406,251,280,370,349,2025-05-23T23:47:27.158054
11949,-0.4041,1.0409,0.1449,-0.980,15.750,-8.680,420,247,279,377,333,2025-05-23T23:47:27.158069
11950,-0.3211,0.9589,0.1615,-13.090,-5.250,-6.300,420,191,283,380,303,2025-05-23T23:47:27.158079
11951,-0.2752,0.8750,0.1810,-22.540,-14.980,-5.390,416,173,275,330,297,2025-05-23T23:47:27.158088
11952,-0.2952,0.7876,0.2089,-21.910,-23.310,-5.320,420,168,274,371,295,2025-05-23T23:47:27.158097
11953,-0.2996,0.7213,0.2298,-15.470,-34.580,-8.820,400,162,264,365,307,2025-05-23T23:47:27.158106
11954,-0.2274,0.6359,0.2401,-12.670,-41.510,-13.090,386,161,261,371,283,2025-05-23T23:47:27.158116
11955,-0.2025,0.4875,0.2308,-10.780,-47.740,-20.020,416,155,268,373,299,2025-05-23T23:47:27.158160
11956,-0.1088,0.2918,0.2713,0.350,-55.720,-37.660,428,155,225,352,255,2025-05-23T23:47:27.158170
11957,0.0268,0.1615,0.3289,10.430,-61.250,-62.440,393,187,273,377,318,2025-05-23T23:47:27.158180
11958,0.1810,-0.0561,0.3577,16.730,-59.220,-86.240,431,217,236,371,309,2025-05-23T23:47:27.158191
11959,0.4241,-0.2679,0.3304,21.140,-35.140,-119.420,397,225,292,385,336,2025-05-23T23:47:27.158202
11960,0.4211,-0.5778,0.3221,35.840,-11.270,-160.370,416,242,297,377,348,2025-05-23T23:47:27.158212
11961,0.4436,-0.7832,0.2308,64.260,-23.170,-209.160,423,306,327,389,345,2025-05-23T23:47:27.327377
11962,0.4914,-0.9223,0.2191,81.340,0.490,-255.220,423,244,321,388,327,2025-05-23T23:47:27.327424
11963,0.3133,-1.0838,0.1820,99.820,46.060,-305.830,410,245,309,374,338,2025-05-23T23:47:27.327437
11964,0.0410,-1.1819,0.1220,134.470,75.810,-353.360,397,246,307,366,335,2025-05-23T23:47:27.327448
11965,-0.0312,-1.2883,0.0415,169.470,121.170,-384.160,401,244,293,362,315,2025-05-23T23:47:27.327462
11966,-0.4143,-1.4294,-0.1781,202.510,163.170,-411.040,392,247,317,368,293,2025-05-23T23:47:27.327473
11967,-0.8316,-1.4733,-0.3821,244.370,186.270,-427.210,410,247,321,362,293,2025-05-23T23:47:27.327484
11968,-1.3659,-1.4606,-0.7125,279.790,181.790,-427.630,392,191,287,322,305,2025-05-23T23:47:27.327493
11969,-1.7783,-1.4176,-0.8340,314.440,158.830,-420.490,395,176,239,357,296,2025-05-23T23:47:27.327504
11970,-1.8827,-1.2878,-0.9945,333.410,136.710,-393.960,423,166,245,342,309,2025-05-23T23:47:27.327518
11971,-1.8598,-1.2024,-1.1570,348.530,137.970,-381.360,404,165,262,353,290,2025-05-23T23:47:27.327529
11972,-1.7812,-1.1722,-1.3186,363.230,151.060,-383.950,341,161,262,350,292,2025-05-23T23:47:27.327538
11973,-1.8744,-1.1736,-1.4821,385.000,158.830,-376.040,356,159,261,357,251,2025-05-23T23:47:27.327548
11974,-1.9418,-1.1434,-1.5972,403.690,155.540,-354.410,382,199,275,310,318,2025-05-23T23:47:27.327591
11975,-1.9471,-0.9145,-1.6592,402.150,156.450,-329.210,397,233,308,317,322,2025-05-23T23:47:27.378160
11976,-1.8198,-0.8189,-1.6045,369.950,168.980,-312.620,408,235,302,374,332,2025-05-23T23:47:27.378208
11977,-1.7295,-0.5841,-1.6963,337.960,185.920,-292.250,346,241,297,360,340,2025-05-23T23:47:27.378220
11978,-1.6163,-0.0976,-1.7178,300.930,213.010,-266.840,407,243,305,365,291,2025-05-23T23:47:27.378230
11979,-1.8549,0.3636,-1.8407,275.380,217.700,-233.590,389,244,282,328,341,2025-05-23T23:47:27.526422
11980,-1.9691,1.0463,-1.9779,250.530,205.520,-209.510,406,248,309,371,339,2025-05-23T23:47:27.526468
11981,-2.0525,1.7480,-2.1477,195.510,218.540,-179.620,409,250,318,383,330,2025-05-23T23:47:27.526484
11982,-2.5957,2.3204,-2.4039,157.500,224.700,-130.200,384,251,303,369,344,2025-05-23T23:47:27.526494
11983,-2.9592,2.9124,-2.6318,87.010,199.430,-86.170,304,243,299,358,312,2025-05-23T23:47:27.526505
11984,-3.3599,3.1569,-2.9587,5.390,138.250,-34.510,300,191,282,366,309,2025-05-23T23:47:27.526515
11985,-3.5863,3.2101,-3.3872,-64.960,59.430,33.110,343,169,228,353,296,2025-05-23T23:47:27.526525
11986,-3.3667,3.1232,-3.6795,-137.060,38.360,110.810,347,155,221,351,303,2025-05-23T23:47:27.526534
11987,-3.1252,2.7069,-4.2002,-210.630,74.200,185.920,278,149,251,337,294,2025-05-23T23:47:27.526544
11988,-3.0729,2.1838,-4.7790,-279.510,128.240,250.180,341,140,243,327,285,2025-05-23T23:47:27.526554
11989,-3.3857,1.4420,-5.4358,-387.730,141.050,288.540,354,135,236,340,271,2025-05-23T23:47:27.526562
11990,-3.6044,0.4948,-6.2435,-496.930,107.240,314.440,366,132,206,287,304,2025-05-23T23:47:27.526571
11991,-3.5326,-0.4197,-6.8403,-611.800,59.080,323.120,365,162,231,330,324,2025-05-23T23:47:27.727691
11992,-3.2764,-1.2620,-6.9203,-702.520,15.820,328.020,372,197,264,367,323,2025-05-23T23:47:27.727740
11993,-2.7318,-1.8939,-6.7900,-770.000,4.270,339.920,397,212,262,356,333,2025-05-23T23:47:27.727756
11994,-2.6713,-2.6274,-6.4562,-816.830,11.900,331.100,390,222,281,352,344,2025-05-23T23:47:27.727767
11995,-2.7308,-3.1720,-6.1849,-797.230,-15.680,301.210,378,230,283,354,331,2025-05-23T23:47:27.727777
11996,-2.5937,-3.5687,-5.6232,-753.270,-45.080,262.360,381,235,294,379,352,2025-05-23T23:47:27.727786
11997,-2.1531,-3.5590,-4.7556,-711.900,-45.570,227.150,387,213,276,336,329,2025-05-23T23:47:27.727796
11998,-1.9666,-3.5287,-3.8952,-680.190,-39.410,199.080,359,176,221,339,324,2025-05-23T23:47:27.727806
11999,-1.8934,-3.3682,-3.0671,-634.340,-42.350,181.650,361,162,213,339,315,2025-05-23T23:47:27.727931
12000,-1.8612,-3.4180,-2.6996,-581.000,-64.330,175.980,344,155,230,312,317,2025-05-23T23:47:27.727942
12001,-1.2644,-3.4492,-2.0706,-515.900,-88.340,181.790,341,149,228,251,307,2025-05-23T23:47:27.727954
12002,-0.2328,-3.4668,-1.3483,-500.850,-78.820,197.750,369,150,206,333,259,2025-05-23T23:47:27.727963
12003,0.4319,-3.6717,-0.7144,-496.720,-55.020,194.530,303,144,214,353,294,2025-05-23T23:47:27.727972
12004,0.5641,-3.6376,-0.2435,-447.370,-50.820,160.510,302,140,202,334,288,2025-05-23T23:47:27.728015
12005,0.6149,-3.2594,0.1142,-324.940,-69.090,122.780,369,134,212,337,300,2025-05-23T23:47:27.728025
12006,0.8252,-2.7738,0.2625,-174.020,-93.100,111.230,365,145,225,343,298,2025-05-23T23:47:27.728034
12007,1.0629,-2.2526,0.2684,-56.980,-61.530,101.500,379,149,238,341,303,2025-05-23T23:47:27.728043
12008,1.1297,-1.8188,0.3270,19.600,2.800,78.610,400,259,295,366,349,2025-05-23T23:47:27.777035
12009,0.7218,-1.3230,0.3255,56.350,48.720,48.160,396,263,312,377,352,2025-05-23T23:47:27.777074
12010,0.2391,-0.7183,0.3411,65.590,57.750,20.930,371,222,273,370,343,2025-05-23T23:47:27.777084
12011,-0.0517,-0.1552,0.2362,54.950,49.700,-1.680,392,226,261,358,346,2025-05-23T23:47:27.777092
12012,-0.1513,0.3328,0.1532,49.490,43.190,-12.180,399,219,275,373,351,2025-05-23T23:47:27.827224
12013,-0.1742,0.8169,0.1786,44.520,41.860,-18.760,416,225,292,340,330,2025-05-23T23:47:27.827264
12014,-0.3221,1.1092,0.2411,44.450,37.240,-21.560,401,225,286,331,342,2025-05-23T23:47:27.827275
12015,-0.5612,1.2122,0.3396,54.530,10.500,-21.770,343,231,284,373,344,2025-05-23T23:47:27.827284
12016,-0.6900,1.2751,0.3967,65.450,-29.050,-20.790,362,228,280,323,331,2025-05-23T23:47:27.882999
12017,-0.6056,1.4123,0.4460,60.410,-60.130,-18.340,396,238,294,358,350,2025-05-23T23:47:27.883043
12018,-0.2455,1.5611,0.4016,52.920,-51.450,-16.170,395,237,275,376,302,2025-05-23T23:47:27.883057
12019,0.0205,1.6314,0.2782,28.770,-15.190,-12.040,399,237,290,323,343,2025-05-23T23:47:27.883067
12020,-0.0966,1.4947,0.2552,15.190,30.310,-14.210,383,239,300,359,327,2025-05-23T23:47:28.132902
12021,-0.3758,1.2542,0.2811,22.960,31.080,-15.050,387,239,294,325,333,2025-05-23T23:47:28.132952
12022,-0.5075,1.1356,0.3894,31.430,-10.360,-13.020,384,242,290,376,334,2025-05-23T23:47:28.132965
12023,-0.4392,1.0292,0.4060,21.210,-54.320,-17.920,413,241,296,384,346,2025-05-23T23:47:28.132976
12024,-0.1967,1.0243,0.4270,2.240,-75.460,-19.460,430,242,299,380,354,2025-05-23T23:47:28.132986
12025,0.1298,1.0121,0.3958,-4.480,-62.650,-17.500,400,245,304,378,343,2025-05-23T23:47:28.132996
12026,0.3792,0.9194,0.3265,-6.650,-16.940,-18.550,392,242,301,384,268,2025-05-23T23:47:28.133006
12027,0.0791,0.7666,0.4963,-0.210,38.780,-25.830,420,219,274,333,322,2025-05-23T23:47:28.133016
12028,-0.3006,0.7252,0.6588,13.370,38.290,-30.870,426,180,258,367,307,2025-05-23T23:47:28.133025
12029,-0.4538,0.7408,0.7066,16.030,1.260,-27.720,421,170,252,331,298,2025-05-23T23:47:28.133034
12030,-0.2972,0.8013,0.6364,9.380,-34.650,-23.240,346,161,241,351,309,2025-05-23T23:47:28.133043
12031,-0.0449,0.8608,0.4997,9.660,-46.760,-22.400,406,158,237,349,307,2025-05-23T23:47:28.133052
12032,0.1176,0.8974,0.4226,26.880,-41.230,-29.400,415,156,222,347,307,2025-05-23T23:47:28.133061
12033,0.0361,0.9526,0.5358,39.130,-27.510,-40.600,404,151,239,337,299,2025-05-23T23:47:28.133070
12034,-0.1308,1.0004,0.6046,36.680,-31.290,-50.820,413,151,213,339,299,2025-05-23T23:47:28.133109
12035,-0.2460,1.0102,0.6095,15.960,-43.050,-50.750,428,147,240,318,294,2025-05-23T23:47:28.133120
12036,-0.2840,1.0058,0.5314,4.620,-48.160,-46.620,421,148,219,349,256,2025-05-23T23:47:28.133128
12037,-0.1659,1.0487,0.4260,12.530,-30.730,-36.820,404,146,235,344,301,2025-05-23T23:47:28.133137
12038,-0.1371,1.0106,0.3279,30.870,-3.360,-29.050,412,144,217,295,285,2025-05-23T23:47:28.133146
12039,-0.2664,1.0214,0.3470,43.890,20.300,-25.620,421,142,243,340,295,2025-05-23T23:47:28.133154
12040,-0.3826,1.0228,0.3963,39.060,17.080,-22.750,401,144,230,356,292,2025-05-23T23:47:28.237912
12041,-0.4304,1.0350,0.4148,19.880,-3.850,-19.040,409,213,266,340,321,2025-05-23T23:47:28.237957
12042,-0.3924,1.0272,0.3621,6.090,-22.330,-13.580,421,211,282,380,286,2025-05-23T23:47:28.237970
12043,-0.2528,1.0531,0.2982,5.180,-25.970,-8.050,424,219,294,383,319,2025-05-23T23:47:28.237981
12044,-0.1674,1.0424,0.2357,9.310,-16.660,-4.410,405,227,293,373,328,2025-05-23T23:47:28.237991
12045,-0.1718,1.0194,0.2196,15.470,-4.130,-2.450,404,232,302,376,309,2025-05-23T23:47:28.238003
12046,-0.2484,1.0238,0.2640,14.700,-3.430,-2.800,403,237,300,346,337,2025-05-23T23:47:28.238013
12047,-0.3074,1.0082,0.2845,6.230,-12.250,-4.480,403,240,309,355,342,2025-05-23T23:47:28.238023
12048,-0.2967,1.0189,0.2865,-0.560,-22.890,-5.040,395,243,277,382,336,2025-05-23T23:47:28.238032
12049,-0.2445,1.0419,0.2713,-4.550,-25.410,-5.180,361,244,280,370,354,2025-05-23T23:47:28.238041
12050,-0.2045,1.0272,0.2455,-3.290,-21.070,-5.110,364,247,305,363,340,2025-05-23T23:47:28.341235
12051,-0.2225,0.9750,0.2484,-0.490,-15.960,-4.970,396,249,305,380,346,2025-05-23T23:47:28.341279
12052,-0.2743,0.9565,0.2874,-0.630,-20.300,-4.060,423,247,301,379,330,2025-05-23T23:47:28.341291
12053,-0.3118,0.9589,0.3109,-5.250,-31.150,-3.290,360,249,311,368,299,2025-05-23T23:47:28.341302
12054,-0.2987,0.9628,0.3123,-12.110,-40.180,-2.590,376,249,306,380,301,2025-05-23T23:47:28.341311
12055,-0.2450,0.9550,0.2913,-16.310,-40.880,-2.380,386,249,306,373,347,2025-05-23T23:47:28.341321
12056,-0.2137,0.9394,0.2518,-14.630,-30.310,-4.830,415,250,302,386,302,2025-05-23T23:47:28.341330
12057,-0.2069,0.9311,0.2479,-9.870,-17.640,-5.530,419,202,285,374,324,2025-05-23T23:47:28.341339
12058,-0.2440,0.9106,0.2630,-7.630,-4.830,-3.430,409,187,276,376,274,2025-05-23T23:47:28.341348
12059,-0.2830,0.8862,0.2796,-8.820,0.070,-0.280,426,252,311,370,336,2025-05-23T23:47:28.595690
12060,-0.2699,0.8599,0.2938,-10.220,-2.240,2.310,354,247,299,374,350,2025-05-23T23:47:28.595737
12061,-0.2216,0.8433,0.2967,-10.640,-3.150,3.150,345,251,317,369,339,2025-05-23T23:47:28.595750
12062,-0.1889,0.8520,0.2904,-7.910,-1.820,2.450,403,254,319,379,347,2025-05-23T23:47:28.595762
12063,-0.1859,0.8657,0.2928,-4.340,-2.100,0.420,393,254,317,390,346,2025-05-23T23:47:28.595772
12064,-0.1771,0.8930,0.2996,-2.450,-2.800,-1.120,418,254,321,329,331,2025-05-23T23:47:28.595783
12065,-0.1874,0.8999,0.2933,-2.310,-2.450,-3.640,338,197,275,358,309,2025-05-23T23:47:28.595828
12066,-0.2294,0.8818,0.2869,0.840,-2.870,-5.880,394,185,267,364,311,2025-05-23T23:47:28.595838
12067,-0.2601,0.8745,0.2855,4.900,-4.200,-5.810,407,178,272,375,312,2025-05-23T23:47:28.595847
12068,-0.2689,0.8764,0.2904,8.470,-4.550,-4.550,410,175,267,370,318,2025-05-23T23:47:28.595856
12069,-0.2552,0.8984,0.2879,8.610,-4.690,-3.850,346,172,258,317,260,2025-05-23T23:47:28.595865
12070,-0.2294,0.9140,0.2752,7.350,-3.080,-3.850,347,171,258,358,301,2025-05-23T23:47:28.595874
12071,-0.1991,0.9238,0.2747,6.580,1.470,-5.110,393,169,260,356,268,2025-05-23T23:47:28.595883
12072,-0.2308,0.9262,0.2801,6.160,3.570,-7.000,412,167,261,351,295,2025-05-23T23:47:29.222218
12073,-0.2723,0.9389,0.3021,5.390,1.680,-8.050,391,168,256,356,269,2025-05-23T23:47:29.222308
12074,-0.3094,0.9589,0.3070,3.780,-4.480,-8.540,408,164,265,353,307,2025-05-23T23:47:29.222322
12075,-0.3060,0.9682,0.2928,2.450,-7.210,-7.980,419,162,258,372,315,2025-05-23T23:47:29.222332
12076,-0.2904,0.9726,0.2777,3.080,-5.600,-5.390,396,207,278,384,282,2025-05-23T23:47:29.222345
12077,-0.2874,0.9628,0.2689,4.760,-3.220,-2.660,417,231,295,388,324,2025-05-23T23:47:29.222355
12078,-0.3016,0.9526,0.2713,4.410,-2.170,-1.540,349,241,298,394,333,2025-05-23T23:47:29.222364
12079,-0.3084,0.9653,0.2625,1.960,-5.320,0.070,410,246,277,387,335,2025-05-23T23:47:29.222372
12080,-0.2928,0.9975,0.2503,-1.120,-7.980,2.100,396,253,323,385,356,2025-05-23T23:47:29.222409
12081,-0.2669,1.0150,0.2318,-2.870,-7.840,3.500,413,253,323,389,355,2025-05-23T23:47:29.222433
12082,-0.2377,1.0224,0.2328,-4.270,-5.670,3.990,411,255,307,384,325,2025-05-23T23:47:29.222442
12083,-0.2391,1.0058,0.2416,-6.930,-3.010,4.130,397,256,293,368,303,2025-05-23T23:47:29.222548
12084,-0.2669,0.9804,0.2547,-9.450,-3.570,3.990,415,257,318,387,340,2025-05-23T23:47:29.222557
12085,-0.2718,0.9550,0.2733,-11.060,-7.210,4.550,358,258,327,367,343,2025-05-23T23:47:29.222567
12086,-0.2518,0.9331,0.2782,-11.690,-8.750,4.760,377,259,321,376,349,2025-05-23T23:47:29.222577
12087,-0.2250,0.9155,0.2747,-11.550,-4.690,5.180,382,220,240,326,255,2025-05-23T23:47:29.222585
12088,-0.2147,0.9023,0.2786,-10.080,-0.560,5.320,403,192,282,344,324,2025-05-23T23:47:29.222609
12089,-0.2211,0.8955,0.2733,-7.210,3.360,4.900,423,184,248,347,307,2025-05-23T23:47:29.222619
12090,-0.2357,0.9004,0.2718,-4.550,4.690,3.500,428,178,271,333,301,2025-05-23T23:47:29.222626
12091,-0.2489,0.9072,0.2826,-4.410,2.380,1.820,397,175,242,344,323,2025-05-23T23:47:29.222633
12092,-0.2499,0.9057,0.2840,-5.950,-0.070,0.000,413,173,270,369,295,2025-05-23T23:47:29.222640
12093,-0.2411,0.8921,0.2801,-7.350,-1.680,-1.400,425,208,289,324,295,2025-05-23T23:47:29.222646
12094,-0.2308,0.9028,0.2767,-5.530,-1.820,-2.170,411,233,294,360,296,2025-05-23T23:47:29.222653
12095,-0.2250,0.8994,0.2733,-2.730,-0.280,-1.960,405,254,281,366,345,2025-05-23T23:47:29.222659
12096,-0.2338,0.9018,0.2723,-0.630,0.700,-1.680,406,256,282,366,311,2025-05-23T23:47:29.222666
12097,-0.2450,0.9184,0.2752,1.330,0.910,-1.820,410,254,323,362,338,2025-05-23T23:47:29.222673
12098,-0.2547,0.9267,0.2713,1.750,0.980,-1.960,362,256,315,381,335,2025-05-23T23:47:29.222679
12099,-0.2708,0.9350,0.2752,1.540,0.770,-2.240,390,255,310,382,321,2025-05-23T23:47:29.222685
12100,-0.2791,0.9350,0.2747,1.260,0.490,-1.540,393,256,321,367,344,2025-05-23T23:47:29.222692
12101,-0.2723,0.9267,0.2796,0.770,0.910,-0.630,422,257,319,372,306,2025-05-23T23:47:29.222699
12102,-0.2704,0.9204,0.2674,1.120,1.540,17.710,404,260,325,386,372,2025-05-23T23:47:29.222705
12103,-0.2552,0.9267,0.2601,1.890,2.730,0.980,339,205,292,382,331,2025-05-23T23:47:29.222722
12104,-0.2523,0.9335,0.2567,1.820,4.410,1.610,382,192,255,379,322,2025-05-23T23:47:29.222729
12105,-0.2640,0.9482,0.2621,1.190,3.570,1.610,339,183,274,277,262,2025-05-23T23:47:29.222735
12106,-0.2747,0.9462,0.2752,-0.280,1.260,0.630,394,178,277,332,323,2025-05-23T23:47:29.222742
12107,-0.2782,0.9540,0.2801,-2.030,-2.170,-0.140,418,178,260,344,311,2025-05-23T23:47:29.222748
12108,-0.2625,0.9643,0.2845,-2.940,-3.290,-0.770,415,175,263,359,316,2025-05-23T23:47:29.222754
12109,-0.2479,0.9682,0.2865,-3.850,-1.400,-1.120,379,174,271,328,316,2025-05-23T23:47:29.222760
12110,-0.2460,0.9589,0.2967,-4.480,1.120,-0.980,398,192,279,371,317,2025-05-23T23:47:29.222765
12111,-0.2645,0.9482,0.3065,-4.340,1.400,-1.050,392,235,292,385,339,2025-05-23T23:47:29.222771
12112,-0.2767,0.9423,0.3245,-3.500,-0.140,-1.050,415,247,278,395,298,2025-05-23T23:47:29.222778
12113,-0.2738,0.9370,0.3211,-2.800,-2.660,-1.400,405,257,282,379,331,2025-05-23T23:47:29.222901
12114,-0.2518,0.9545,0.3040,-1.540,-3.430,-1.540,426,259,313,367,328,2025-05-23T23:47:29.222924
12115,-0.2323,0.9472,0.2991,0.070,-2.450,-2.240,372,257,315,363,350,2025-05-23T23:47:29.222932
12116,-0.2279,0.9335,0.2948,0.770,-1.820,-3.920,413,256,311,326,357,2025-05-23T23:47:29.222940
12117,-0.2401,0.9262,0.2899,1.400,-2.170,-5.530,401,258,313,324,345,2025-05-23T23:47:29.222946
12118,-0.2704,0.8950,0.2757,0.560,-3.990,-7.280,402,272,338,391,363,2025-05-23T23:47:29.222952
12119,-0.3035,0.8999,0.2572,1.540,-7.280,-8.260,418,205,297,356,338,2025-05-23T23:47:29.222959
12120,-0.3089,0.9028,0.2494,1.960,-9.240,-7.560,426,189,274,360,311,2025-05-23T23:47:29.222965
12121,-0.3065,0.8886,0.2367,1.330,-8.680,-6.930,417,182,282,368,306,2025-05-23T23:47:29.222971
12122,-0.3030,0.8852,0.2377,0.700,-7.910,-6.020,348,179,275,371,313,2025-05-23T23:47:29.222977
12123,-0.2996,0.8794,0.2474,0.700,-7.490,-5.740,399,175,259,345,264,2025-05-23T23:47:29.222983
12124,-0.3040,0.8779,0.2582,0.980,-7.910,-5.880,420,173,211,303,258,2025-05-23T23:47:29.222989
12125,-0.3070,0.8813,0.2572,1.470,-9.800,-6.720,424,171,267,353,307,2025-05-23T23:47:29.222995
12126,-0.2957,0.9038,0.2567,3.010,-11.060,-7.210,347,170,262,370,305,2025-05-23T23:47:29.223001
12127,-0.2860,0.9057,0.2557,3.570,-10.850,-7.630,381,172,243,353,319,2025-05-23T23:47:29.223027
12128,-0.2850,0.9130,0.2450,4.830,-9.240,-7.490,421,232,304,387,339,2025-05-23T23:47:29.223033
12129,-0.2816,0.9170,0.2484,6.020,-8.120,-6.160,418,247,299,386,325,2025-05-23T23:47:29.427883
12130,-0.2806,0.9218,0.2582,5.880,-7.420,-5.110,416,250,307,388,333,2025-05-23T23:47:29.427927
12131,-0.2948,0.9218,0.2777,4.760,-8.190,-5.250,429,251,318,334,334,2025-05-23T23:47:29.427940
12132,-0.2957,0.9306,0.2918,4.270,-11.130,-5.180,309,253,316,325,343,2025-05-23T23:47:29.428139
12133,-0.2913,0.9311,0.3079,4.270,-14.140,-5.390,390,258,324,376,345,2025-05-23T23:47:29.428155
12134,-0.2733,0.9228,0.3152,4.550,-17.080,-5.600,413,259,320,387,348,2025-05-23T23:47:29.428164
12135,-0.2425,0.9082,0.3211,5.600,-19.110,-7.000,427,263,317,374,352,2025-05-23T23:47:29.428173
12136,-0.1976,0.8960,0.3231,6.300,-16.660,-9.800,428,263,286,391,343,2025-05-23T23:47:29.428199
12137,-0.1952,0.8965,0.3338,7.000,-11.480,-12.880,418,264,299,386,271,2025-05-23T23:47:29.428211
12138,-0.2347,0.9331,0.3314,8.190,-9.940,-14.630,390,200,261,362,328,2025-05-23T23:47:29.428220
12139,-0.2757,0.9902,0.3201,9.450,-10.220,-15.750,416,185,270,313,314,2025-05-23T23:47:29.428228
12140,-0.3231,1.0087,0.3026,10.850,-12.460,-15.260,360,181,276,364,326,2025-05-23T23:47:29.428237
12141,-0.3650,1.0033,0.2991,12.040,-16.450,-13.370,391,176,276,370,266,2025-05-23T23:47:29.428245
12142,-0.3943,0.9731,0.2884,12.600,-20.020,-10.430,415,174,263,334,310,2025-05-23T23:47:29.428253
12143,-0.4124,0.9521,0.2704,12.740,-25.340,-7.910,420,172,245,363,313,2025-05-23T23:47:29.428297
12144,-0.3855,0.9648,0.2367,11.760,-27.650,-4.340,388,168,244,355,319,2025-05-23T23:47:29.428306
12145,-0.3504,0.9672,0.2167,9.100,-23.870,-1.050,416,225,305,378,306,2025-05-23T23:47:29.428314
12146,-0.3304,0.9701,0.2123,5.670,-18.690,0.910,411,243,303,393,341,2025-05-23T23:47:29.428322
12147,-0.3274,0.9501,0.2108,3.150,-16.870,-0.280,415,247,318,380,336,2025-05-23T23:47:29.428330
12148,-0.3187,0.9331,0.2294,0.280,-18.200,-2.240,346,256,291,391,348,2025-05-23T23:47:29.577230
12149,-0.3094,0.9130,0.2372,-1.820,-21.280,-3.220,406,259,323,328,306,2025-05-23T23:47:29.577276
12150,-0.2865,0.9004,0.2469,-2.450,-22.960,-4.130,423,263,324,366,352,2025-05-23T23:47:29.577289
12151,-0.2577,0.8979,0.2469,-1.680,-20.930,-3.570,305,254,318,374,356,2025-05-23T23:47:29.577299
12152,-0.2547,0.8843,0.2611,-1.050,-16.310,-3.710,353,257,322,380,351,2025-05-23T23:47:29.577310
12153,-0.2494,0.8774,0.2582,0.770,-14.630,-3.990,395,257,316,346,270,2025-05-23T23:47:29.577320
12154,-0.2357,0.8789,0.2567,1.960,-11.340,-2.800,414,256,286,384,347,2025-05-23T23:47:29.577330
12155,-0.2201,0.8794,0.2625,0.910,-2.310,-3.010,395,209,295,369,322,2025-05-23T23:47:29.577339
12156,-0.2323,0.8721,0.2601,-0.350,6.930,-4.340,413,192,273,354,315,2025-05-23T23:47:29.577348
12157,-0.2586,0.8755,0.2611,-0.770,11.410,-5.600,417,183,273,361,311,2025-05-23T23:47:29.577359
12158,-0.2630,0.8828,0.2552,-0.630,11.830,-5.390,412,179,278,356,325,2025-05-23T23:47:29.577369
12159,-0.2606,0.9130,0.2440,0.840,9.660,-2.870,394,179,272,370,322,2025-05-23T23:47:29.577378
12160,-0.2489,0.9130,0.2440,2.310,11.480,-2.870,419,175,261,363,307,2025-05-23T23:47:29.577388
12161,-0.2850,0.9140,0.2411,6.230,9.730,-3.290,424,174,272,371,301,2025-05-23T23:47:29.577397
12162,-0.2850,0.9199,0.2503,8.260,1.750,-1.750,430,227,294,394,336,2025-05-23T23:47:29.685517
12163,-0.2840,0.9306,0.2567,7.350,-5.320,-0.140,379,243,277,368,300,2025-05-23T23:47:29.685568
12164,-0.2630,0.9311,0.2616,5.810,-10.710,-0.070,402,249,323,328,293,2025-05-23T23:47:29.685583
12165,-0.2323,0.9340,0.2625,6.090,-13.580,-1.960,390,254,325,373,352,2025-05-23T23:47:29.685598
12166,-0.1947,0.9335,0.2621,7.140,-11.480,-4.200,391,254,313,381,335,2025-05-23T23:47:29.685613
12167,-0.1757,0.9257,0.2699,8.260,-3.850,-6.440,394,258,317,377,346,2025-05-23T23:47:29.779710
12168,-0.1957,0.9038,0.2884,9.520,1.050,-9.590,406,256,300,392,347,2025-05-23T23:47:29.779858
12169,-0.2523,0.8716,0.3240,9.170,-2.240,-14.910,386,256,318,395,331,2025-05-23T23:47:29.779872
12170,-0.2821,0.8281,0.3357,11.060,-12.530,-18.900,419,256,297,369,352,2025-05-23T23:47:29.779884
12171,-0.2860,0.8154,0.3353,16.590,-27.230,-20.790,413,257,319,387,331,2025-05-23T23:47:29.779983
12172,-0.2728,0.8115,0.3060,24.220,-37.170,-23.800,421,260,327,392,347,2025-05-23T23:47:29.779994
12173,-0.2669,0.8438,0.2669,32.970,-43.260,-26.180,417,258,325,372,271,2025-05-23T23:47:29.780003
12174,-0.2513,0.8642,0.2586,36.890,-38.780,-28.210,341,261,316,390,362,2025-05-23T23:47:29.780012
12175,-0.2572,0.8877,0.2894,33.740,-20.580,-31.220,375,205,291,389,329,2025-05-23T23:47:29.780021
12176,-0.3523,0.8682,0.3152,24.010,16.730,-31.640,385,191,287,349,272,2025-05-23T23:47:29.780030
12177,-0.4499,0.8252,0.3284,18.200,16.660,-28.140,402,185,251,346,309,2025-05-23T23:47:29.780040
12178,-0.5470,0.8062,0.3133,20.020,25.410,-23.870,395,178,267,353,299,2025-05-23T23:47:29.780049
12179,-0.5778,0.8379,0.2723,28.700,23.100,-16.800,408,272,327,372,352,2025-05-23T23:47:29.983233
12180,-0.5749,0.8711,0.2303,34.300,20.020,-10.780,401,252,289,383,331,2025-05-23T23:47:29.983298
12181,-0.5373,0.9282,0.1923,38.360,12.810,-1.680,404,254,313,371,356,2025-05-23T23:47:29.983321
12182,-0.4699,0.9692,0.1527,37.730,8.050,8.120,302,256,288,366,358,2025-05-23T23:47:29.983336
12183,-0.4236,0.9828,0.1371,33.530,9.730,13.650,386,258,321,379,345,2025-05-23T23:47:29.983352
12184,-0.3948,0.9931,0.1396,29.610,13.930,16.170,380,255,322,356,318,2025-05-23T23:47:29.983366
12185,-0.3792,0.9945,0.1513,25.060,17.920,15.470,398,206,261,364,297,2025-05-23T23:47:29.983381
12186,-0.3914,0.9945,0.1371,18.200,21.490,9.730,410,190,286,376,324,2025-05-23T23:47:29.983396
12187,-0.3601,0.9828,0.1523,12.670,19.040,3.780,409,182,282,376,275,2025-05-23T23:47:29.983410
12188,-0.3470,0.9623,0.1532,11.620,10.080,1.120,399,181,248,373,268,2025-05-23T23:47:29.983423
12189,-0.3040,0.9394,0.1576,13.230,2.940,-0.700,360,176,252,372,314,2025-05-23T23:47:29.983436
12190,-0.2660,0.9243,0.1913,12.810,-3.780,-2.310,407,175,262,361,308,2025-05-23T23:47:29.983450
12191,-0.2201,0.8979,0.2279,11.060,-12.460,-7.490,433,176,247,365,304,2025-05-23T23:47:29.983462
12192,-0.2030,0.8838,0.2455,11.690,-23.100,-13.860,410,172,250,369,311,2025-05-23T23:47:29.983474
12193,-0.1810,0.8725,0.2586,13.230,-25.410,-18.130,416,175,261,356,280,2025-05-23T23:47:29.983530
12194,-0.2030,0.8496,0.2538,15.960,-24.640,-23.520,422,173,233,350,265,2025-05-23T23:47:29.983544
12195,-0.2250,0.8452,0.2445,20.510,-24.010,-28.350,401,173,264,319,306,2025-05-23T23:47:29.983557
12196,-0.2601,0.8477,0.2357,22.610,-19.460,-30.520,408,244,286,339,341,2025-05-23T23:47:30.030340
12197,-0.3284,0.8364,0.2308,23.870,-15.330,-31.290,387,241,314,370,334,2025-05-23T23:47:30.030385
12198,-0.3484,0.8228,0.2230,26.600,-15.680,-32.480,383,249,312,368,269,2025-05-23T23:47:30.030396
12199,-0.3562,0.8130,0.2113,28.070,-9.660,-32.830,396,251,308,365,335,2025-05-23T23:47:30.030406
12200,-0.3738,0.7950,0.1932,30.310,2.520,-33.740,395,253,322,389,362,2025-05-23T23:47:30.110902
12201,-0.4216,0.7832,0.1854,33.600,9.940,-32.900,391,255,326,351,338,2025-05-23T23:47:30.111096
12202,-0.4675,0.7954,0.1728,37.310,12.180,-30.240,408,258,327,387,332,2025-05-23T23:47:30.111108
12203,-0.5178,0.7867,0.1454,38.150,8.330,-28.350,421,255,317,372,350,2025-05-23T23:47:30.111119
12204,-0.5100,0.7984,0.1259,39.900,0.490,-26.740,354,257,307,382,365,2025-05-23T23:47:30.205523
12205,-0.4758,0.8106,0.1044,41.510,-3.850,-26.180,410,261,323,396,352,2025-05-23T23:47:30.205569
12206,-0.4538,0.8111,0.0922,42.700,-2.590,-26.670,416,257,314,397,354,2025-05-23T23:47:30.205582
12207,-0.4329,0.8340,0.0683,43.470,-1.680,-27.090,427,257,319,390,322,2025-05-23T23:47:30.205593
12208,-0.4075,0.8769,0.0434,43.260,1.260,-28.070,374,259,324,353,340,2025-05-23T23:47:30.205603
12209,-0.2547,0.8994,0.0244,41.650,9.380,-30.100,350,209,288,374,288,2025-05-23T23:47:30.205614
12210,-0.3782,0.9116,0.0142,39.340,18.620,-32.060,357,192,286,341,308,2025-05-23T23:47:30.205623
12211,-0.4060,0.8969,0.0093,37.170,24.080,-34.160,394,187,283,329,322,2025-05-23T23:47:30.205632
12212,-0.4265,0.8867,0.0059,34.790,24.010,-35.070,359,182,280,346,316,2025-05-23T23:47:30.205641
12213,-0.4309,0.8804,0.0117,32.550,20.650,-35.280,391,232,304,378,330,2025-05-23T23:47:30.205650
12214,-0.4265,0.8613,0.0161,29.050,0.420,-36.890,412,247,317,362,301,2025-05-23T23:47:30.205659
12215,-0.4246,0.8428,0.0220,26.880,13.230,-39.200,400,256,326,381,342,2025-05-23T23:47:30.390470
12216,-0.4294,0.8169,0.0278,25.550,10.290,-41.720,406,255,324,347,339,2025-05-23T23:47:30.390520
12217,-0.4358,0.8154,0.0298,25.550,8.330,-44.800,389,256,327,322,338,2025-05-23T23:47:30.390534
12218,-0.4455,0.8447,0.0200,27.370,8.820,-49.280,342,258,322,315,343,2025-05-23T23:47:30.390546
12219,-0.4753,0.8642,0.0073,29.190,10.640,-52.850,393,253,320,330,346,2025-05-23T23:47:30.390557
12220,-0.5041,0.8608,-0.0078,30.730,12.740,-55.370,360,198,285,349,309,2025-05-23T23:47:30.390568
12221,-0.5344,0.8408,-0.0283,32.760,11.550,-57.050,381,188,245,353,302,2025-05-23T23:47:30.390583
12222,-0.5602,0.8194,-0.0547,37.310,9.240,-57.960,392,183,241,370,271,2025-05-23T23:47:30.390594
12223,-0.5802,0.8057,-0.0766,41.230,6.160,-58.800,396,182,215,372,312,2025-05-23T23:47:30.390605
12224,-0.5924,0.7969,-0.1010,43.120,1.750,-59.640,343,180,274,368,306,2025-05-23T23:47:30.390615
12225,-0.6061,0.7662,-0.1293,42.350,-1.470,-61.250,406,180,268,323,319,2025-05-23T23:47:30.390624
12226,-0.6037,0.7540,-0.1474,41.370,-1.960,-62.370,412,177,263,359,316,2025-05-23T23:47:30.390633
12227,-0.6246,0.7530,-0.1552,38.780,-0.560,-64.400,402,177,234,372,320,2025-05-23T23:47:30.390643
12228,-0.6446,0.7574,-0.1547,34.860,0.910,-66.710,404,176,266,378,270,2025-05-23T23:47:30.390652
12229,-0.6515,0.7481,-0.1620,30.800,1.680,-68.040,404,172,264,316,228,2025-05-23T23:47:30.390698
12230,-0.6608,0.7364,-0.1698,29.050,3.850,-68.950,379,242,306,380,341,2025-05-23T23:47:30.593947
12231,-0.6720,0.7310,-0.1698,30.310,5.530,-69.370,407,241,312,348,300,2025-05-23T23:47:30.594002
12232,-0.6651,0.7315,-0.1693,30.870,5.880,-70.700,415,250,308,326,336,2025-05-23T23:47:30.594016
12233,-0.6554,0.7232,-0.1781,28.350,6.300,-73.290,407,249,321,380,348,2025-05-23T23:47:30.594031
12234,-0.6481,0.7398,-0.1786,25.760,7.280,-75.740,418,252,314,375,346,2025-05-23T23:47:30.594043
12235,-0.6793,0.7457,-0.1713,23.030,10.850,-76.930,410,254,316,331,340,2025-05-23T23:47:30.594055
12236,-0.7266,0.7408,-0.1762,21.560,13.510,-76.440,396,257,321,368,347,2025-05-23T23:47:30.594067
12237,-0.7735,0.7310,-0.1889,21.280,12.880,-74.060,421,306,326,372,314,2025-05-23T23:47:30.594079
12238,-0.8008,0.7257,-0.2015,21.490,10.290,-69.860,372,202,294,367,323,2025-05-23T23:47:30.594090
12239,-0.8072,0.7222,-0.2230,23.800,8.330,-65.310,404,189,251,372,320,2025-05-23T23:47:30.594101
12240,-0.7808,0.7266,-0.2367,24.500,7.350,-62.020,390,184,253,371,317,2025-05-23T23:47:30.594112
12241,-0.7549,0.7247,-0.2582,23.310,7.070,-60.270,333,184,242,375,309,2025-05-23T23:47:30.594122
12242,-0.7540,0.7237,-0.2679,20.090,9.450,-59.360,375,178,277,365,298,2025-05-23T23:47:30.594132
12243,-0.7984,0.7203,-0.2611,17.010,10.640,-56.910,408,178,278,352,288,2025-05-23T23:47:30.594144
12244,-0.8364,0.6993,-0.2625,16.030,8.540,-53.410,420,177,268,376,318,2025-05-23T23:47:30.594193
12245,-0.8520,0.6852,-0.2601,15.260,5.880,-50.470,425,176,264,362,325,2025-05-23T23:47:30.594208
12246,-0.8516,0.6812,-0.2547,15.330,2.240,-47.740,408,174,267,326,268,2025-05-23T23:47:30.594219
12247,-0.8325,0.6754,-0.2440,15.260,0.070,-44.240,424,239,296,316,312,2025-05-23T23:47:30.830899
12248,-0.8135,0.6700,-0.2450,14.420,-0.420,-41.440,412,242,311,353,347,2025-05-23T23:47:30.830928
12249,-0.8018,0.6515,-0.2523,14.350,0.070,-39.760,424,246,293,383,333,2025-05-23T23:47:30.830945
12250,-0.7788,0.6481,-0.2523,13.300,4.620,-36.680,399,253,308,329,346,2025-05-23T23:47:30.830951
12251,-0.7701,0.6417,-0.2577,11.480,10.010,-34.370,423,253,311,353,348,2025-05-23T23:47:30.830959
12252,-0.7788,0.6324,-0.2621,9.590,15.890,-32.900,371,233,312,358,331,2025-05-23T23:47:30.831028
12253,-0.7852,0.6285,-0.2635,7.210,20.020,-30.730,372,196,226,372,316,2025-05-23T23:47:30.831033
12254,-0.7959,0.6242,-0.2625,5.180,22.260,-28.980,415,185,275,358,313,2025-05-23T23:47:30.831038
12255,-0.8228,0.6085,-0.2528,4.480,19.110,-27.580,403,183,270,316,236,2025-05-23T23:47:30.831043
12256,-0.8545,0.6051,-0.2318,3.500,11.200,-25.760,369,180,269,359,285,2025-05-23T23:47:30.831050
12257,-0.8706,0.5890,-0.2211,2.870,2.520,-23.590,377,178,271,342,308,2025-05-23T23:47:30.831055
12258,-0.8564,0.5866,-0.2157,4.690,-8.470,-21.140,349,174,249,339,309,2025-05-23T23:47:30.831059
12259,-0.8413,0.5910,-0.2133,6.650,-14.350,-18.340,376,176,268,367,316,2025-05-23T23:47:30.831064
12260,-0.8281,0.5822,-0.2255,8.540,-14.630,-16.450,416,174,254,367,321,2025-05-23T23:47:30.831068
12261,-0.8096,0.5836,-0.2323,9.170,-10.430,-14.280,419,174,248,360,319,2025-05-23T23:47:30.831091
12262,-0.8106,0.5822,-0.2460,8.540,-4.060,-12.530,405,170,245,352,306,2025-05-23T23:47:30.831095
12263,-0.8306,0.5739,-0.2650,6.580,5.250,-11.830,404,174,273,367,270,2025-05-23T23:47:30.831101
12264,-0.8442,0.5705,-0.2718,4.620,12.740,-10.500,307,241,298,372,342,2025-05-23T23:47:31.017011
12265,-0.8594,0.5627,-0.2835,2.380,16.380,-9.240,383,239,300,323,338,2025-05-23T23:47:31.017054
12266,-0.8662,0.5553,-0.2948,-0.070,17.010,-7.840,391,245,313,371,350,2025-05-23T23:47:31.017066
12267,-0.8594,0.5510,-0.3011,-1.750,15.470,-5.950,390,245,303,383,345,2025-05-23T23:47:31.017076
12268,-0.8472,0.5436,-0.3074,-2.940,13.090,-5.180,398,253,320,389,348,2025-05-23T23:47:31.017085
12269,-0.8325,0.5402,-0.3040,-3.360,9.380,-4.620,411,201,271,373,279,2025-05-23T23:47:31.017095
12270,-0.8189,0.5373,-0.2967,-4.340,6.650,-4.340,403,185,286,383,319,2025-05-23T23:47:31.017104
12271,-0.8042,0.5348,-0.2889,-5.670,5.040,-3.920,394,184,281,351,312,2025-05-23T23:47:31.017114
12272,-0.8008,0.5295,-0.2811,-6.510,4.900,-4.270,373,181,270,356,311,2025-05-23T23:47:31.079176
12273,-0.7935,0.5314,-0.2708,-7.070,5.810,-4.830,347,176,268,348,280,2025-05-23T23:47:31.079205
12274,-0.7959,0.5295,-0.2591,-7.980,7.000,-5.600,330,176,276,363,301,2025-05-23T23:47:31.079211
12275,-0.7910,0.5241,-0.1254,-8.330,6.720,-6.860,396,173,238,372,305,2025-05-23T23:47:31.079217
12276,-0.7837,0.5134,-0.2420,-8.540,5.600,-8.190,421,173,265,357,317,2025-05-23T23:47:31.079222
12277,-0.7769,0.4958,-0.2396,-7.910,4.620,-9.170,434,173,273,366,320,2025-05-23T23:47:31.079227
12278,-0.7715,0.4846,-0.2323,-5.670,2.660,-9.380,413,173,258,315,260,2025-05-23T23:47:31.079270
12279,-0.7593,0.4753,-0.2230,-3.780,0.980,-9.380,379,172,245,358,298,2025-05-23T23:47:31.079275
12280,-0.7544,0.4680,-0.2191,-2.800,0.070,-10.080,376,170,266,339,298,2025-05-23T23:47:31.079281
12281,-0.7486,0.4729,-0.2152,-1.960,-0.980,-11.480,354,217,283,376,300,2025-05-23T23:47:31.079286
12282,-0.7393,0.4729,-0.2079,-0.910,-1.120,-12.880,412,231,310,374,340,2025-05-23T23:47:31.079292
12283,-0.7364,0.4734,-0.2118,0.210,0.000,-14.980,388,245,313,381,351,2025-05-23T23:47:31.079297
12284,-0.7422,0.4685,-0.2225,2.310,1.540,-17.290,401,249,281,371,336,2025-05-23T23:47:31.079302
12285,-0.7349,0.4631,-0.2298,3.990,3.780,-18.900,395,254,311,384,344,2025-05-23T23:47:31.079308
12286,-0.7418,0.4475,-0.2391,4.830,7.000,-20.300,405,254,329,365,342,2025-05-23T23:47:31.209170
12287,-0.7462,0.4421,-0.2469,5.600,8.540,-21.070,415,255,314,366,311,2025-05-23T23:47:31.209202
12288,-0.7447,0.4426,-0.2528,7.070,8.960,-21.980,412,258,321,385,335,2025-05-23T23:47:31.209211
12289,-0.7623,0.4412,-0.2635,9.380,9.100,-23.100,416,257,324,371,341,2025-05-23T23:47:31.209218
12290,-0.7784,0.4426,-0.2718,12.320,7.210,-24.150,389,260,329,329,310,2025-05-23T23:47:31.209225
12291,-0.7915,0.4353,-0.2821,14.350,3.920,-25.410,412,206,271,363,337,2025-05-23T23:47:31.209231
12292,-0.8008,0.4192,-0.2855,14.770,0.210,-26.460,342,192,224,372,277,2025-05-23T23:47:31.209237
12293,-0.7901,0.4036,-0.2801,13.930,-2.870,-26.670,380,186,247,355,311,2025-05-23T23:47:31.209243
12294,-0.7730,0.3889,-0.2791,13.230,-4.060,-26.740,410,185,276,366,317,2025-05-23T23:47:31.209250
12295,-0.7701,0.4060,-0.2786,13.650,-3.290,-26.600,407,179,240,320,320,2025-05-23T23:47:31.209255
12296,-0.7842,0.4246,-0.2811,15.540,-1.680,-27.370,426,179,273,319,322,2025-05-23T23:47:31.209261
12297,-0.8154,0.4353,-0.2879,17.710,-1.050,-28.910,407,176,241,321,264,2025-05-23T23:47:31.209267
12298,-0.8462,0.4324,-0.2957,18.830,-1.120,-30.520,400,218,289,355,318,2025-05-23T23:47:31.413312
12299,-0.8647,0.4041,-0.3065,19.180,-2.310,-30.940,416,239,308,331,326,2025-05-23T23:47:31.413366
12300,-0.8711,0.3728,-0.3152,19.180,-3.080,-30.170,424,246,323,372,334,2025-05-23T23:47:31.413384
12301,-0.8662,0.3470,-0.3104,19.460,-3.500,-27.860,423,253,319,379,331,2025-05-23T23:47:31.413398
12302,-0.8442,0.3523,-0.2967,19.390,-3.570,-25.480,387,256,325,367,346,2025-05-23T23:47:31.413411
12303,-0.8198,0.3650,-0.2884,19.530,-3.010,-23.870,425,258,289,372,319,2025-05-23T23:47:31.413423
12304,-0.8042,0.3841,-0.2899,21.280,-2.100,-24.080,413,256,313,383,356,2025-05-23T23:47:31.413434
12305,-0.8150,0.3880,-0.2913,24.710,-1.050,-25.690,410,221,307,366,313,2025-05-23T23:47:31.413447
12306,-0.8316,0.3860,-0.2972,27.860,-0.560,-27.160,414,198,281,311,313,2025-05-23T23:47:31.413459
12307,-0.8330,0.3758,-0.3011,30.030,0.280,-27.510,417,187,285,338,325,2025-05-23T23:47:31.413470
12308,-0.8233,0.3543,-0.3045,29.820,2.520,-27.510,414,183,270,332,324,2025-05-23T23:47:31.413481
12309,-0.7979,0.3440,-0.3011,28.980,6.510,-27.300,423,181,246,368,306,2025-05-23T23:47:31.413492
