SeqNum,AccX,AccY,AccZ,GyroX,GyroY,GyroZ,Flex,Force1,Force2,Force3,Force4,TimestampReception
15413,0.0000,0.0000,0.0000,0.000,0.000,0.000,475,433,282,357,384,2025-05-23T21:32:05.046321
15414,-1.1258,0.8140,-0.1762,-27.860,9.240,62.230,474,378,375,410,400,2025-05-23T21:32:05.046560
15415,-1.1409,0.8574,-0.1542,-35.770,-13.790,65.100,449,421,413,419,422,2025-05-23T21:32:05.046604
15416,-1.0131,0.8872,-0.1108,-41.580,-25.830,63.980,422,431,411,390,433,2025-05-23T21:32:05.046622
15417,-0.9662,0.9331,-0.0952,-47.950,-33.180,66.080,424,431,421,442,441,2025-05-23T21:32:05.046648
15418,-0.8906,0.9331,-0.0849,-57.260,-29.330,71.190,410,430,426,437,449,2025-05-23T21:32:05.046662
15419,-0.8325,0.8945,-0.0991,-63.980,-26.530,77.140,417,404,428,451,433,2025-05-23T21:32:05.046674
15420,-0.8252,0.8657,-0.0869,-66.500,-22.470,82.110,406,371,439,397,442,2025-05-23T21:32:05.046687
15421,-0.8233,0.8647,-0.0532,-69.790,-27.930,85.400,406,391,423,434,449,2025-05-23T21:32:05.046698
15422,-0.7701,0.8174,-0.0542,-64.960,-33.670,84.770,344,370,414,442,435,2025-05-23T21:32:05.046711
15423,-0.7544,0.7828,-0.0630,-54.530,-46.060,81.550,398,423,394,422,440,2025-05-23T21:32:05.046723
15424,-0.7222,0.7623,-0.0083,-49.490,-59.780,75.600,411,402,384,436,396,2025-05-23T21:32:05.046740
15425,-0.6788,0.7476,-0.0215,-50.400,-70.280,69.230,413,391,383,429,440,2025-05-23T21:32:05.046753
15426,-0.5031,0.7032,-0.0332,-56.210,-76.090,64.610,356,407,381,420,425,2025-05-23T21:32:05.046764
15427,-0.5651,0.6500,-0.0429,-60.060,-72.030,62.790,392,428,372,422,459,2025-05-23T21:32:05.046775
15428,-0.5061,0.6276,-0.0590,-63.000,-64.330,61.740,412,412,337,414,448,2025-05-23T21:32:05.046833
15429,-0.4934,0.5895,-0.0595,-59.360,-59.920,62.440,416,394,315,421,451,2025-05-23T21:32:05.046845
15430,-0.4724,0.5627,-0.0571,-52.290,-55.300,58.030,405,420,353,396,410,2025-05-23T21:32:05.094911
15431,-0.4387,0.5588,-0.0459,-40.460,-51.800,48.090,424,422,331,383,376,2025-05-23T21:32:05.094993
15432,-0.4231,0.5788,-0.0278,-31.500,-48.860,40.180,381,408,354,407,420,2025-05-23T21:32:05.095008
15433,-0.4036,0.6041,-0.0185,-27.790,-42.840,34.090,423,400,336,397,420,2025-05-23T21:32:05.095020
15434,-0.3841,0.5876,-0.0127,-25.970,-18.760,28.770,349,415,355,409,430,2025-05-23T21:32:05.251563
15435,-0.4246,0.5993,-0.0371,-18.760,-31.780,25.410,400,421,373,389,417,2025-05-23T21:32:05.251609
15436,-0.5002,0.6281,-0.0249,-9.590,-37.450,23.590,392,430,383,402,384,2025-05-23T21:32:05.251622
15437,-0.5422,0.6398,-0.0366,2.450,-43.610,21.840,397,404,389,392,436,2025-05-23T21:32:05.251633
15438,-0.6212,0.6993,-0.0137,13.090,-44.450,18.830,399,405,389,348,412,2025-05-23T21:32:05.251661
15439,-0.6690,0.8028,0.0459,11.340,-44.030,20.300,302,352,392,363,435,2025-05-23T21:32:05.251678
15440,-0.6422,0.8438,0.0600,-4.620,-45.430,22.190,366,403,399,409,437,2025-05-23T21:32:05.251688
15441,-0.5910,0.8833,0.0844,-19.670,-37.940,20.370,382,376,402,428,451,2025-05-23T21:32:05.251698
15442,-0.5573,0.8740,0.0254,-38.640,-22.890,19.040,408,415,400,378,443,2025-05-23T21:32:05.251708
15443,-0.6110,0.9145,-0.0634,-47.600,-13.300,24.150,345,430,362,423,449,2025-05-23T21:32:05.251717
15444,-0.6808,0.9287,-0.0610,-52.640,-17.990,30.730,399,417,365,378,444,2025-05-23T21:32:05.251727
15445,-0.6769,0.9374,-0.0024,-56.280,-17.010,32.830,349,397,434,432,449,2025-05-23T21:32:05.251740
15446,-0.6446,0.9467,0.0254,-62.510,-11.550,30.660,398,401,448,451,447,2025-05-23T21:32:05.251751
15447,-0.6139,0.9340,0.0610,-69.230,-7.140,30.590,338,405,430,459,444,2025-05-23T21:32:05.303753
15448,-0.6446,0.9116,0.0532,-78.400,-5.180,32.550,351,398,443,435,461,2025-05-23T21:32:05.303798
15449,-0.6700,0.8682,0.0405,-77.840,-8.120,36.610,376,409,435,468,466,2025-05-23T21:32:05.303810
15450,-0.6871,0.8442,0.0429,-71.050,-15.120,37.030,392,306,428,465,462,2025-05-23T21:32:05.303820
15451,-0.7056,0.8296,0.0395,-64.680,-24.710,37.100,417,377,426,464,437,2025-05-23T21:32:05.303829
15452,-0.6969,0.8013,0.0244,-53.550,-34.510,39.130,394,341,431,456,461,2025-05-23T21:32:05.457094
15453,-0.6349,0.7652,0.0205,-43.120,-37.030,39.830,403,400,409,463,453,2025-05-23T21:32:05.457144
15454,-0.5583,0.7354,0.0239,-32.550,-30.800,40.670,386,420,437,450,460,2025-05-23T21:32:05.457158
15455,-0.4880,0.7003,0.0015,-17.570,-14.560,40.810,414,415,448,442,473,2025-05-23T21:32:05.457169
15456,-0.4997,0.6822,-0.0571,0.000,-0.070,38.500,424,428,410,457,454,2025-05-23T21:32:05.457180
15457,-0.5519,0.6812,-0.1093,18.760,6.160,36.400,377,346,414,462,457,2025-05-23T21:32:05.457191
15458,-0.6320,0.6764,-0.1552,35.070,2.730,30.940,410,358,409,454,454,2025-05-23T21:32:05.457201
15459,-0.7032,0.6974,-0.1757,48.790,-5.880,21.350,385,415,436,466,468,2025-05-23T21:32:05.457235
15460,-0.6934,0.7115,-0.1825,56.140,-10.360,9.800,393,424,452,452,425,2025-05-23T21:32:05.457245
15461,-0.6695,0.7100,-0.1732,63.980,-7.770,-0.140,339,422,452,422,421,2025-05-23T21:32:05.457254
15462,-0.6510,0.7081,-0.1459,62.930,-2.030,-7.210,375,402,412,445,417,2025-05-23T21:32:05.457264
15463,-0.6442,0.7096,-0.1186,56.210,5.040,-13.510,396,416,449,396,438,2025-05-23T21:32:05.457273
15464,-0.6564,0.7139,-0.1181,39.900,7.700,-22.190,398,421,440,455,459,2025-05-23T21:32:05.659777
15465,-0.6954,0.6915,-0.1571,29.190,3.570,-36.050,391,410,449,446,434,2025-05-23T21:32:05.659822
15466,-0.6847,0.6622,-0.2142,30.730,-0.630,-52.430,418,423,441,452,429,2025-05-23T21:32:05.659852
15467,-0.6832,0.6666,-0.2079,41.300,-3.010,-61.250,426,409,441,446,428,2025-05-23T21:32:05.659863
15468,-0.6529,0.7320,-0.1479,52.920,7.980,-71.960,404,357,448,399,451,2025-05-23T21:32:05.659872
15469,-0.6368,0.7496,-0.1186,61.950,35.000,-81.550,389,403,436,448,454,2025-05-23T21:32:05.659881
15470,-0.7017,0.7754,-0.1108,67.270,62.860,-91.000,400,416,448,451,455,2025-05-23T21:32:05.659892
15471,-0.9306,0.8818,-0.1191,65.240,71.610,-97.300,407,418,434,442,455,2025-05-23T21:32:05.659901
15472,-1.1244,0.9843,-0.1581,60.690,64.540,-99.470,339,403,434,410,432,2025-05-23T21:32:05.659910
15473,-1.2615,1.0580,-0.1859,56.560,55.580,-99.120,383,395,441,427,450,2025-05-23T21:32:05.659923
15474,-1.3508,1.1434,-0.1893,51.940,53.830,-96.460,297,395,445,438,452,2025-05-23T21:32:05.659931
15475,-1.4045,1.1971,-0.1674,42.840,54.600,-85.400,390,429,405,444,465,2025-05-23T21:32:05.659940
15476,-1.4425,1.2312,-0.0766,28.560,51.660,-70.490,421,424,435,438,464,2025-05-23T21:32:05.659947
15477,-1.3757,1.2429,-0.0093,9.170,50.820,-50.540,418,428,437,435,463,2025-05-23T21:32:05.659955
15478,-1.2688,1.1932,-0.0083,-5.110,52.220,-30.590,402,420,437,433,456,2025-05-23T21:32:05.659995
15479,-1.1434,1.1082,-0.0039,-10.430,51.030,-10.570,427,404,451,441,458,2025-05-23T21:32:05.660004
15480,-1.0033,1.0604,0.0376,-8.960,52.150,2.170,405,400,448,455,458,2025-05-23T21:32:05.660017
15481,-0.8901,1.0048,0.0405,-4.340,59.080,7.210,398,375,448,440,446,2025-05-23T21:32:05.864907
15482,-0.8120,0.9423,0.0034,4.200,65.940,9.170,347,391,444,356,428,2025-05-23T21:32:05.864952
15483,-0.7842,0.8647,-0.0512,11.130,66.150,9.100,351,415,436,386,438,2025-05-23T21:32:05.864965
15484,-0.7901,0.8296,-0.0429,13.790,57.750,7.770,395,417,452,457,464,2025-05-23T21:32:05.864975
15485,-0.7788,0.7813,-0.0264,9.730,41.720,6.860,413,400,453,395,461,2025-05-23T21:32:05.864985
15486,-0.7110,0.7178,-0.0210,2.170,31.360,6.790,417,413,452,454,457,2025-05-23T21:32:05.864994
15487,-0.6134,0.6456,-0.0102,-4.270,25.620,6.230,432,400,454,412,434,2025-05-23T21:32:05.865019
15488,-0.4953,0.5919,-0.0127,-6.020,28.910,3.290,438,356,457,428,468,2025-05-23T21:32:05.865033
15489,-0.3977,0.5241,-0.0400,0.000,42.420,-3.360,430,352,460,444,467,2025-05-23T21:32:05.865042
15490,-0.4168,0.4748,-0.1230,10.010,58.730,-13.790,350,385,441,455,471,2025-05-23T21:32:05.865055
15491,-0.4817,0.4524,-0.2191,25.550,65.660,-22.260,380,406,446,452,466,2025-05-23T21:32:05.865063
15492,-0.5661,0.4441,-0.3304,38.220,58.170,-24.710,415,395,442,455,449,2025-05-23T21:32:05.865072
15493,-0.6564,0.4680,-0.3504,44.590,38.780,-23.660,426,376,457,440,472,2025-05-23T21:32:05.865081
15494,-0.6422,0.5539,-0.3250,38.080,27.440,-25.200,352,395,449,452,466,2025-05-23T21:32:05.865092
15495,-0.6261,0.6271,-0.3665,21.700,24.570,-25.830,385,396,452,457,460,2025-05-23T21:32:05.865132
15496,-0.5934,0.6627,-0.4280,10.640,24.640,-23.450,343,394,419,460,445,2025-05-23T21:32:05.865141
15497,-0.5651,0.6793,-0.4870,0.840,28.840,-20.370,402,425,453,459,474,2025-05-23T21:32:05.868057
15498,-0.5529,0.6920,-0.5436,-3.500,36.050,-15.960,429,428,424,421,478,2025-05-23T21:32:06.069568
15499,-0.5392,0.7383,-0.5832,-9.730,37.660,-5.880,425,424,417,433,467,2025-05-23T21:32:06.069615
15500,-0.5314,0.8438,-0.6041,-17.150,29.750,3.360,420,357,441,459,475,2025-05-23T21:32:06.069628
15501,-0.5119,0.9433,-0.5802,-22.890,23.310,8.050,396,349,443,455,476,2025-05-23T21:32:06.069639
15502,-0.4953,1.0204,-0.5754,-29.820,20.160,10.920,427,382,423,435,469,2025-05-23T21:32:06.069650
15503,-0.5539,1.0624,-0.6159,-33.810,17.080,18.480,431,417,456,466,449,2025-05-23T21:32:06.069660
15504,-0.5690,1.0765,-0.6022,-40.250,19.110,29.820,399,415,459,439,468,2025-05-23T21:32:06.069669
15505,-0.6168,1.0756,-0.5783,-51.800,20.860,43.820,400,381,449,457,473,2025-05-23T21:32:06.069699
15506,-0.6769,1.0663,-0.4987,-68.810,18.760,56.000,399,400,464,445,470,2025-05-23T21:32:06.069712
15507,-0.7125,1.0297,-0.3943,-91.910,12.320,71.680,420,434,430,451,474,2025-05-23T21:32:06.069721
15508,-0.8584,0.9862,-0.3240,-120.540,-5.180,90.720,411,420,452,406,445,2025-05-23T21:32:06.069730
15509,-0.8433,0.9091,-0.2645,-144.130,-20.790,107.730,426,404,425,444,470,2025-05-23T21:32:06.069743
15510,-0.7462,0.7618,-0.2303,-152.040,-17.710,122.080,368,365,447,457,473,2025-05-23T21:32:06.069752
15511,-0.7242,0.6495,-0.1874,-143.080,-7.490,133.630,406,392,458,443,467,2025-05-23T21:32:06.069761
15512,-0.6725,0.6149,-0.0781,-134.050,8.120,141.470,405,411,456,412,458,2025-05-23T21:32:06.069799
15513,-0.6285,0.5836,-0.0171,-126.000,21.140,144.480,403,406,465,451,459,2025-05-23T21:32:06.069808
15514,-0.6246,0.5153,-0.0054,-126.560,19.530,147.910,401,395,439,431,463,2025-05-23T21:32:06.069817
15515,-0.6149,0.4485,0.0249,-126.910,3.850,154.490,414,426,418,434,474,2025-05-23T21:32:06.274590
15516,-0.5832,0.3963,0.0610,-129.780,-10.080,152.600,423,398,417,393,474,2025-05-23T21:32:06.274633
15517,-0.5095,0.3377,-0.0039,-121.520,-19.040,151.970,422,401,436,451,473,2025-05-23T21:32:06.274642
15518,-0.3640,0.3723,-0.0015,-100.520,-23.870,161.770,435,395,415,451,468,2025-05-23T21:32:06.274650
15519,-0.1235,0.4216,0.0678,-72.450,-2.520,162.750,435,396,458,451,474,2025-05-23T21:32:06.274660
15520,-0.0625,0.4641,0.0566,-48.370,34.230,162.330,412,364,459,458,478,2025-05-23T21:32:06.274667
15521,-0.0834,0.5178,0.0659,-38.150,60.060,165.340,413,409,459,460,469,2025-05-23T21:32:06.274673
15522,-0.1347,0.5436,0.0425,-40.950,68.600,166.320,422,426,463,443,474,2025-05-23T21:32:06.274682
15523,-0.1630,0.5695,0.0015,-43.050,57.960,167.790,410,353,455,453,466,2025-05-23T21:32:06.274688
15524,-0.1972,0.6110,0.0088,-38.150,42.770,163.380,394,389,454,439,481,2025-05-23T21:32:06.274696
15525,-0.1366,0.7896,0.0795,-29.750,34.930,148.330,400,362,457,427,459,2025-05-23T21:32:06.274702
15526,-0.0678,0.9189,0.1181,-23.100,32.270,139.300,407,402,453,447,429,2025-05-23T21:32:06.274708
15527,-0.0566,0.9448,0.1357,-18.060,31.010,135.520,410,402,463,440,469,2025-05-23T21:32:06.274714
15528,-0.0205,0.9677,0.2089,-22.750,32.830,134.190,406,407,458,450,481,2025-05-23T21:32:06.274719
15529,-0.0054,0.9043,0.2011,-30.590,38.850,128.940,399,401,465,463,467,2025-05-23T21:32:06.274745
15530,-0.0874,0.8628,0.1679,-35.980,35.070,121.380,398,409,464,464,478,2025-05-23T21:32:06.274752
15531,-0.0107,0.8096,0.1806,-38.010,28.350,117.110,429,417,463,454,459,2025-05-23T21:32:06.274760
15532,0.0366,0.7749,0.2420,-33.950,16.170,114.450,418,355,464,431,484,2025-05-23T21:32:06.325103
15533,0.1122,0.7525,0.3196,-27.370,6.020,104.160,350,341,467,454,477,2025-05-23T21:32:06.325150
15534,0.2294,0.7125,0.3518,-20.370,7.140,92.330,394,402,458,453,486,2025-05-23T21:32:06.325162
15535,0.2782,0.6769,0.3172,-12.320,9.800,79.240,392,370,480,465,480,2025-05-23T21:32:06.325172
15536,0.2411,0.6564,0.2845,-3.640,6.300,68.040,418,349,462,467,439,2025-05-23T21:32:06.325181
15537,0.2445,0.6700,0.2718,-4.690,-3.850,57.050,416,328,467,444,474,2025-05-23T21:32:06.478949
15538,0.2069,0.6364,0.1932,-13.230,-13.790,45.290,415,375,491,452,492,2025-05-23T21:32:06.479019
15539,0.1713,0.6554,0.0952,-16.660,-36.890,34.790,423,418,493,457,516,2025-05-23T21:32:06.479033
15540,0.2440,0.6661,0.0727,-13.930,-55.370,25.830,420,423,491,474,524,2025-05-23T21:32:06.479044
15541,0.3123,0.6549,0.0683,-4.900,-59.430,15.750,419,421,523,472,529,2025-05-23T21:32:06.479054
15542,0.3626,0.6690,0.1049,3.780,-48.370,7.560,408,377,520,499,533,2025-05-23T21:32:06.479065
15543,0.3192,0.7364,0.1401,7.910,-35.560,-0.420,417,391,544,507,565,2025-05-23T21:32:06.479075
15544,0.2738,0.8867,0.1625,3.570,-52.920,-7.980,425,426,564,499,567,2025-05-23T21:32:06.479085
15545,0.2186,0.9755,0.0971,-10.500,-46.410,-13.580,347,399,551,492,543,2025-05-23T21:32:06.479099
15546,0.0712,1.0228,-0.0195,-9.310,-74.060,-19.110,397,402,571,496,569,2025-05-23T21:32:06.479109
15547,0.0351,1.0829,-0.0229,-13.230,-98.700,-17.150,416,383,566,496,559,2025-05-23T21:32:06.479119
15548,-0.0137,1.1029,0.0034,-14.070,-109.830,-10.710,429,419,586,515,546,2025-05-23T21:32:06.479130
15549,0.0415,1.1336,0.0903,-19.390,-99.050,-3.080,437,403,572,523,580,2025-05-23T21:32:06.686575
15550,0.1044,1.1429,0.1425,-23.310,-70.840,6.090,430,425,577,523,584,2025-05-23T21:32:06.686646
15551,0.1000,1.1463,0.1240,-22.610,-53.270,13.930,419,425,575,511,589,2025-05-23T21:32:06.686666
15552,0.0971,1.1204,0.0717,-18.690,-41.230,16.940,405,407,582,511,585,2025-05-23T21:32:06.686712
15553,0.0615,1.1424,0.0644,-13.020,-44.450,16.450,396,419,588,513,595,2025-05-23T21:32:06.686727
15554,0.1220,1.1390,0.0991,-17.220,-47.180,16.800,391,400,595,498,603,2025-05-23T21:32:06.686743
15555,0.1157,1.0760,0.1532,-21.350,-48.510,19.670,394,366,576,506,581,2025-05-23T21:32:06.686765
15556,0.2230,0.9658,0.2381,-20.370,-36.890,21.280,416,404,577,513,582,2025-05-23T21:32:06.686784
15557,0.3221,0.8862,0.3192,-11.410,-17.990,23.310,398,405,576,516,545,2025-05-23T21:32:06.686799
15558,0.3548,0.8882,0.3445,-1.540,4.760,24.010,415,389,572,502,560,2025-05-23T21:32:06.686813
15559,0.3709,0.9087,0.3221,5.600,15.400,24.150,422,396,575,515,546,2025-05-23T21:32:06.686836
15560,0.3274,0.9736,0.3021,6.160,6.580,22.330,420,423,565,511,578,2025-05-23T21:32:06.686850
15561,0.3387,0.9965,0.2786,0.980,-8.680,16.870,437,419,576,473,593,2025-05-23T21:32:06.686864
15562,0.3109,0.9999,0.2430,-10.080,-21.280,12.180,433,412,585,511,579,2025-05-23T21:32:06.686885
15563,0.3260,0.9653,0.2289,-16.730,-28.280,10.920,427,393,580,523,585,2025-05-23T21:32:06.686949
15564,0.3235,0.9306,0.2245,-16.310,-16.800,9.310,416,372,555,500,591,2025-05-23T21:32:06.686964
15565,0.2625,0.9262,0.1815,-10.640,4.130,8.890,404,366,583,519,595,2025-05-23T21:32:06.686978
15566,0.1498,0.9204,0.1523,-5.880,17.920,9.870,421,332,549,506,591,2025-05-23T21:32:06.888989
15567,0.0839,0.9648,0.1444,-5.600,18.130,11.410,413,373,583,467,573,2025-05-23T21:32:06.889048
15568,0.0859,0.9740,0.1864,-9.800,12.950,13.860,412,413,589,521,603,2025-05-23T21:32:06.889064
15569,0.0810,0.9736,0.2347,-15.120,7.910,15.260,420,358,598,515,594,2025-05-23T21:32:06.889077
15570,0.0961,0.9648,0.2738,-16.380,4.620,14.420,355,406,592,505,588,2025-05-23T21:32:06.889091
15571,0.1220,0.9692,0.2811,-13.860,3.920,13.160,406,406,593,531,594,2025-05-23T21:32:06.889104
15572,0.1718,0.9682,0.2679,-9.730,6.440,12.250,421,409,586,530,574,2025-05-23T21:32:06.889138
15573,0.2025,0.9453,0.2308,-6.370,13.230,10.640,366,410,592,481,596,2025-05-23T21:32:06.889156
15574,0.1127,0.9594,0.1898,0.000,12.460,9.800,345,400,593,515,609,2025-05-23T21:32:06.889171
15575,0.1030,0.9814,0.2230,1.750,6.790,8.960,386,404,568,529,595,2025-05-23T21:32:06.889183
15576,0.1371,0.9745,0.2381,-0.840,6.160,7.280,406,403,589,527,592,2025-05-23T21:32:06.889195
15577,0.1552,0.9618,0.2328,-4.900,10.010,5.740,425,405,612,518,617,2025-05-23T21:32:06.889206
15578,0.1732,0.9384,0.2216,-6.230,12.250,3.850,414,353,620,536,605,2025-05-23T21:32:06.889218
15579,0.1757,0.9228,0.1908,-5.950,10.850,1.610,391,385,624,530,638,2025-05-23T21:32:06.889229
15580,0.1976,0.9174,0.1801,-3.990,6.580,0.910,406,343,633,515,623,2025-05-23T21:32:06.889245
15581,0.2108,0.9189,0.1947,-4.340,3.710,0.210,410,404,628,481,635,2025-05-23T21:32:06.889722
15582,0.2318,0.9311,0.2011,-5.390,1.820,-0.490,400,363,622,527,632,2025-05-23T21:32:06.889753
15583,0.2630,0.9150,0.2050,-4.900,2.100,-1.540,372,389,642,526,615,2025-05-23T21:32:07.094217
15584,0.2420,0.9087,0.1815,-0.140,3.150,-3.710,396,426,622,526,646,2025-05-23T21:32:07.094265
15585,0.2435,0.9248,0.1859,3.570,3.640,-5.740,392,390,660,552,603,2025-05-23T21:32:07.094278
15586,0.2445,0.9335,0.1942,4.270,4.340,-6.580,338,406,647,555,640,2025-05-23T21:32:07.094292
15587,0.2464,0.9418,0.1967,1.820,5.390,-6.440,368,308,615,548,657,2025-05-23T21:32:07.094302
15588,0.2333,0.9350,0.2020,-1.540,4.200,-6.650,389,386,625,545,644,2025-05-23T21:32:07.094313
15589,0.2094,0.9355,0.2094,-3.780,-1.400,-7.140,361,402,649,527,648,2025-05-23T21:32:07.094322
15590,0.2391,0.9306,0.2211,-5.390,-5.530,-7.560,356,425,655,533,661,2025-05-23T21:32:07.094332
15591,0.2616,0.9340,0.2250,-4.060,-6.300,-7.840,396,309,656,552,646,2025-05-23T21:32:07.094358
15592,0.2791,0.9404,0.2128,-0.140,-4.900,-7.490,409,384,647,536,658,2025-05-23T21:32:07.094367
15593,0.2723,0.9404,0.1893,6.160,-2.800,-7.770,408,346,664,554,657,2025-05-23T21:32:07.094376
15594,0.2674,0.9555,0.1674,10.150,-2.030,-6.510,416,371,645,553,662,2025-05-23T21:32:07.094385
15595,0.2586,0.9726,0.1606,9.870,-1.330,-4.970,417,383,660,564,645,2025-05-23T21:32:07.094399
15596,0.2538,0.9843,0.1488,4.830,-1.610,-3.430,425,414,668,492,624,2025-05-23T21:32:07.094407
15597,0.2464,0.9833,0.1371,0.350,-3.220,-3.080,355,390,660,556,665,2025-05-23T21:32:07.094415
15598,0.2596,0.9765,0.1366,-1.260,-4.270,-3.920,333,393,658,560,619,2025-05-23T21:32:07.094455
15599,0.2874,0.9633,0.1435,-1.610,-1.750,-3.570,386,434,664,556,615,2025-05-23T21:32:07.094464
15600,0.2767,0.9521,0.1357,0.280,1.120,-3.710,411,410,669,539,670,2025-05-23T21:32:07.094472
15601,0.2718,0.9609,0.1508,2.100,3.920,-3.360,409,424,637,552,630,2025-05-23T21:32:07.302723
15602,0.2640,0.9643,0.1806,0.980,5.670,-3.290,401,424,661,555,657,2025-05-23T21:32:07.302991
15603,0.2440,0.9677,0.1908,-1.820,4.410,-3.080,410,426,671,556,638,2025-05-23T21:32:07.303022
15604,0.2533,0.9643,0.2030,-4.340,2.590,-3.570,349,405,669,557,665,2025-05-23T21:32:07.303033
15605,0.2582,0.9599,0.2045,-5.110,1.120,-4.340,401,416,667,532,668,2025-05-23T21:32:07.303043
15606,0.2503,0.9443,0.1879,-2.730,0.070,-4.900,373,351,651,534,668,2025-05-23T21:32:07.303054
15607,0.2542,0.9292,0.1820,0.350,-0.210,-4.900,390,394,672,542,664,2025-05-23T21:32:07.303079
15608,0.2420,0.9360,0.1879,2.100,-0.980,-4.480,392,397,653,543,666,2025-05-23T21:32:07.303089
15609,0.2396,0.9477,0.2006,2.170,-1.120,-4.830,377,389,649,544,649,2025-05-23T21:32:07.303102
15610,0.2333,0.9531,0.2015,1.540,-1.470,-4.970,390,409,660,541,649,2025-05-23T21:32:07.303111
15611,0.2425,0.9618,0.1996,0.070,-1.960,-5.040,418,378,648,555,666,2025-05-23T21:32:07.303120
15612,0.2601,0.9653,0.1864,-0.840,-1.470,-3.850,412,342,653,493,665,2025-05-23T21:32:07.303128
15613,0.2767,0.9584,0.1635,-1.260,0.910,-3.010,398,402,649,540,660,2025-05-23T21:32:07.326574
15614,0.2723,0.9482,0.1527,-0.420,2.520,-2.170,435,410,645,547,649,2025-05-23T21:32:07.326600
15615,0.2611,0.9531,0.1649,-0.070,3.290,-2.380,406,395,641,556,654,2025-05-23T21:32:07.326607
15616,0.2528,0.9526,0.1903,-1.540,3.780,-2.730,401,428,648,553,650,2025-05-23T21:32:07.326648
15617,0.2440,0.9521,0.2054,-3.430,3.360,-2.310,431,429,651,543,647,2025-05-23T21:32:07.326655
15618,0.2367,0.9433,0.2103,-3.920,3.150,-2.310,425,427,653,527,658,2025-05-23T21:32:07.358164
15619,0.2381,0.9492,0.2191,-1.260,2.590,-2.170,408,427,647,545,666,2025-05-23T21:32:07.358206
15620,0.2338,0.9570,0.2152,2.800,2.240,-1.190,379,342,623,539,654,2025-05-23T21:32:07.358216
15621,0.2284,0.9648,0.2128,6.510,1.680,-0.700,418,363,652,557,649,2025-05-23T21:32:07.358224
15622,0.2235,0.9682,0.2094,7.910,0.560,-0.840,414,418,619,536,643,2025-05-23T21:32:07.358234
15623,0.2035,0.9740,0.1962,7.910,-0.140,-0.700,415,425,644,493,664,2025-05-23T21:32:07.506733
15624,0.2025,0.9784,0.1898,6.370,-1.330,-0.560,361,343,663,519,658,2025-05-23T21:32:07.506777
15625,0.2045,0.9765,0.1850,3.920,-1.680,-0.070,350,405,642,504,621,2025-05-23T21:32:07.506789
15626,0.2128,0.9726,0.1781,2.100,-1.820,0.210,379,398,618,527,661,2025-05-23T21:32:07.506799
15627,0.2303,0.9677,0.1737,1.330,-0.980,-0.280,407,423,647,524,628,2025-05-23T21:32:07.506809
15628,0.2259,0.9682,0.1669,1.260,-0.840,-0.840,403,401,642,553,665,2025-05-23T21:32:07.506819
15629,0.2396,0.9604,0.1684,1.470,-0.280,-0.840,389,420,628,558,665,2025-05-23T21:32:07.506828
15630,0.2440,0.9609,0.1723,1.890,2.240,-1.050,400,427,655,557,658,2025-05-23T21:32:07.506838
15631,0.2308,0.9594,0.1796,1.260,3.500,-1.190,378,441,658,558,658,2025-05-23T21:32:07.506847
15632,0.2235,0.9609,0.1869,-0.210,2.590,-1.750,396,435,648,533,657,2025-05-23T21:32:07.506855
15633,0.2225,0.9604,0.1981,-2.310,0.700,-2.660,412,441,654,561,669,2025-05-23T21:32:07.506864
15634,0.2216,0.9594,0.1967,-4.340,-1.610,-3.640,429,415,650,558,669,2025-05-23T21:32:07.506873
15635,0.2255,0.9618,0.1937,-4.200,-2.870,-4.270,423,409,641,558,656,2025-05-23T21:32:07.708781
15636,0.2289,0.9653,0.1913,-2.520,-3.500,-3.500,392,427,651,536,641,2025-05-23T21:32:07.708834
15637,0.2279,0.9653,0.1884,-0.490,-3.500,-2.310,402,437,644,542,644,2025-05-23T21:32:07.708849
15638,0.2216,0.9697,0.1893,1.470,-3.570,-2.100,395,419,648,560,674,2025-05-23T21:32:07.708862
15639,0.2191,0.9711,0.1932,1.470,-4.480,-1.470,402,430,647,531,665,2025-05-23T21:32:07.708874
15640,0.2181,0.9731,0.1942,-0.560,-5.110,-1.260,398,418,651,530,657,2025-05-23T21:32:07.708886
15641,0.2098,0.9706,0.1830,-2.100,-6.090,-1.610,419,411,643,560,677,2025-05-23T21:32:07.708897
15642,0.2274,0.9623,0.1776,-3.080,-6.510,-1.820,406,421,649,536,671,2025-05-23T21:32:07.708908
15643,0.2323,0.9526,0.1737,-3.220,-5.880,-1.330,407,425,648,530,675,2025-05-23T21:32:07.708918
15644,0.2425,0.9492,0.1757,-1.680,-3.780,-0.350,416,427,643,551,657,2025-05-23T21:32:07.708929
15645,0.2347,0.9623,0.1869,0.140,-0.070,-0.070,416,410,652,532,676,2025-05-23T21:32:07.708939
15646,0.2045,0.9736,0.1903,0.420,0.210,-0.070,374,421,657,554,655,2025-05-23T21:32:07.708953
15647,0.2098,0.9692,0.1996,-0.630,-1.050,0.000,387,422,655,492,660,2025-05-23T21:32:07.708964
15648,0.2108,0.9638,0.1952,-1.750,-2.380,-0.070,366,402,663,539,674,2025-05-23T21:32:07.708974
15649,0.2162,0.9618,0.1952,-1.190,-3.010,0.210,335,389,648,547,657,2025-05-23T21:32:07.709024
15650,0.2167,0.9599,0.1918,0.000,-1.890,0.070,370,409,655,530,672,2025-05-23T21:32:07.709034
15651,0.2147,0.9579,0.1952,1.190,-0.840,0.140,407,343,662,564,635,2025-05-23T21:32:07.709045
15652,0.2089,0.9589,0.1908,1.680,-0.070,0.070,417,382,653,546,662,2025-05-23T21:32:07.756636
15653,0.2011,0.9677,0.1937,1.470,-1.120,0.420,419,401,644,559,655,2025-05-23T21:32:07.756697
15654,0.2069,0.9740,0.1942,0.350,-2.800,0.630,431,408,658,545,669,2025-05-23T21:32:07.756709
15655,0.2147,0.9701,0.1928,-0.840,-3.850,0.560,405,414,666,555,663,2025-05-23T21:32:07.756718
15656,0.2284,0.9584,0.1767,-0.350,-3.220,0.140,395,424,667,552,676,2025-05-23T21:32:07.811011
15657,0.2255,0.9579,0.1728,0.840,-2.310,-0.420,415,430,667,556,637,2025-05-23T21:32:07.811055
15658,0.2128,0.9658,0.1791,0.700,-2.520,-0.560,422,427,641,550,672,2025-05-23T21:32:07.811067
15659,0.2089,0.9750,0.1889,-1.050,-2.940,-0.350,416,416,619,548,651,2025-05-23T21:32:07.811076
15660,0.2152,0.9701,0.1937,-3.500,-2.870,0.280,404,371,652,535,673,2025-05-23T21:32:07.811183
15661,0.2137,0.9701,0.1942,-5.390,-2.030,0.490,416,402,662,562,681,2025-05-23T21:32:07.916054
15662,0.2240,0.9638,0.1913,-5.320,-1.120,0.210,427,416,678,554,685,2025-05-23T21:32:07.916148
15663,0.2362,0.9589,0.1923,-5.110,-0.630,-0.490,403,407,667,534,692,2025-05-23T21:32:07.916164
15664,0.2220,0.9555,0.1879,-4.130,-3.010,-1.400,427,417,664,563,672,2025-05-23T21:32:07.916174
15665,0.2123,0.9584,0.1972,-3.220,-6.020,-2.940,355,420,673,565,697,2025-05-23T21:32:07.916184
15666,0.2142,0.9496,0.2069,-0.630,-9.870,-3.710,384,360,681,543,673,2025-05-23T21:32:07.916195
15667,0.2176,0.9492,0.2225,0.770,-11.970,-3.220,413,395,662,552,681,2025-05-23T21:32:07.916224
15668,0.2103,0.9492,0.2235,2.590,-10.710,-3.500,416,362,651,535,666,2025-05-23T21:32:07.916382
15669,0.2181,0.9467,0.2191,1.960,-6.790,-1.750,371,390,621,528,643,2025-05-23T21:32:07.916396
15670,0.2079,0.9658,0.2157,2.590,-7.140,-0.210,410,407,628,532,627,2025-05-23T21:32:07.967410
15671,0.2094,0.9633,0.2001,0.140,-6.720,-0.560,401,390,612,525,608,2025-05-23T21:32:07.967457
15672,0.2411,0.9526,0.1952,-0.630,-5.110,-0.700,412,353,581,511,601,2025-05-23T21:32:07.967469
15673,0.2259,0.9594,0.1913,-2.590,-3.220,-0.630,404,389,592,481,593,2025-05-23T21:32:07.967479
15674,0.2142,0.9711,0.1810,1.750,-0.420,-1.050,425,426,599,509,598,2025-05-23T21:32:08.014669
15675,0.1850,0.9780,0.1674,3.920,-1.400,-1.750,402,422,565,520,614,2025-05-23T21:32:08.014722
15676,0.1986,0.9599,0.1718,3.010,-3.080,-1.400,397,395,600,529,603,2025-05-23T21:32:08.014734
15677,0.2176,0.9628,0.1732,2.660,-2.450,-0.630,398,359,606,529,613,2025-05-23T21:32:08.014744
15678,0.1986,0.9623,0.1835,1.260,-5.600,-0.490,417,420,609,467,594,2025-05-23T21:32:08.064259
15679,0.1898,0.9633,0.1854,1.750,-9.030,-0.490,408,417,604,502,607,2025-05-23T21:32:08.064308
15680,0.2396,0.9609,0.1928,3.080,-8.190,1.190,346,453,594,513,613,2025-05-23T21:32:08.064320
15681,0.2596,0.9638,0.1918,4.340,-1.470,2.730,383,429,607,511,597,2025-05-23T21:32:08.064331
15682,0.2186,0.9677,0.1747,5.180,3.360,5.250,393,449,611,519,609,2025-05-23T21:32:08.111579
15683,0.1967,0.9887,0.1815,5.600,2.450,5.670,337,425,596,533,600,2025-05-23T21:32:08.111631
15684,0.1913,0.9848,0.1825,2.100,-2.450,4.200,411,421,592,493,606,2025-05-23T21:32:08.111645
15685,0.2162,0.9975,0.1713,-2.800,-8.540,2.520,348,418,578,524,578,2025-05-23T21:32:08.111658
15686,0.2274,0.9897,0.1762,-8.890,-12.740,0.000,378,417,596,512,619,2025-05-23T21:32:08.165196
15687,0.2245,0.9858,0.1527,-11.340,-13.720,-0.070,419,419,605,519,614,2025-05-23T21:32:08.165249
15688,0.2664,0.9643,0.1576,-11.620,-9.660,-0.770,397,428,580,539,609,2025-05-23T21:32:08.165263
15689,0.2699,0.9414,0.1571,-9.800,-4.690,0.560,422,446,623,526,624,2025-05-23T21:32:08.165296
15690,0.2616,0.9521,0.1830,-7.000,-2.660,1.960,435,422,597,526,634,2025-05-23T21:32:08.165309
15691,0.2601,0.9584,0.2069,-6.790,1.190,2.660,401,439,631,545,614,2025-05-23T21:32:08.212849
15692,0.2430,0.9628,0.2142,-7.140,6.300,2.170,425,423,637,534,645,2025-05-23T21:32:08.212896
15693,0.2264,0.9643,0.2113,-7.140,8.680,2.310,423,432,620,531,654,2025-05-23T21:32:08.212910
15694,0.2069,0.9638,0.2020,-6.230,8.190,1.820,427,423,650,552,624,2025-05-23T21:32:08.322915
15695,0.2142,0.9618,0.1991,-6.160,7.140,1.610,386,460,671,552,618,2025-05-23T21:32:08.322963
15696,0.2191,0.9536,0.1903,-5.530,5.250,1.960,414,468,669,568,652,2025-05-23T21:32:08.322993
15697,0.2230,0.9467,0.1874,-3.150,3.640,3.360,380,418,655,561,670,2025-05-23T21:32:08.323004
15698,0.2259,0.9467,0.2064,0.770,3.360,4.060,416,383,687,566,686,2025-05-23T21:32:08.323014
15699,0.2313,0.9501,0.2294,3.710,3.570,4.200,402,455,686,556,680,2025-05-23T21:32:08.323024
15700,0.2176,0.9536,0.2323,4.690,3.360,3.640,389,443,680,552,686,2025-05-23T21:32:08.323034
15701,0.2123,0.9623,0.2259,3.710,1.470,2.590,412,445,691,571,689,2025-05-23T21:32:08.323043
15702,0.2255,0.9584,0.2079,1.190,0.490,1.750,403,438,701,557,674,2025-05-23T21:32:08.323053
15703,0.2338,0.9575,0.1893,-0.420,0.070,0.910,418,449,682,561,682,2025-05-23T21:32:08.323064
15704,0.2347,0.9531,0.1830,-1.960,-0.210,0.000,403,441,686,576,686,2025-05-23T21:32:08.526621
15705,0.2352,0.9433,0.1830,-2.660,0.280,-0.700,412,442,690,565,688,2025-05-23T21:32:08.526682
15706,0.2333,0.9496,0.1869,-2.450,0.560,-0.910,305,394,699,569,686,2025-05-23T21:32:08.526705
15707,0.2274,0.9540,0.1981,-1.890,0.280,-1.540,398,430,692,555,688,2025-05-23T21:32:08.526720
15708,0.2284,0.9560,0.2103,-1.610,0.140,-1.750,401,452,668,561,690,2025-05-23T21:32:08.526734
15709,0.2303,0.9575,0.2206,-1.820,1.120,-1.960,428,442,708,513,688,2025-05-23T21:32:08.526750
15710,0.2269,0.9545,0.2186,-1.190,1.050,-1.890,404,409,699,557,688,2025-05-23T21:32:08.526764
15711,0.2264,0.9521,0.2191,0.910,-0.350,-0.700,429,428,676,567,685,2025-05-23T21:32:08.526777
15712,0.2274,0.9506,0.2269,4.060,-0.280,-0.350,408,389,702,559,675,2025-05-23T21:32:08.526790
15713,0.2167,0.9526,0.2347,5.950,-0.560,0.420,412,430,706,557,688,2025-05-23T21:32:08.526803
15714,0.2050,0.9540,0.2308,6.930,-2.240,1.330,411,448,701,546,686,2025-05-23T21:32:08.526815
15715,0.2074,0.9575,0.2303,7.210,-3.920,1.890,418,465,688,565,699,2025-05-23T21:32:08.526829
15716,0.2303,0.9609,0.2289,5.670,-3.570,1.890,421,455,695,565,685,2025-05-23T21:32:08.526842
15717,0.2338,0.9604,0.2054,3.500,-2.030,1.960,422,452,711,545,697,2025-05-23T21:32:08.526855
15718,0.2372,0.9623,0.1845,2.660,-0.700,1.050,402,463,691,556,686,2025-05-23T21:32:08.526868
15719,0.2489,0.9701,0.1776,1.260,0.980,-1.120,401,456,706,569,697,2025-05-23T21:32:08.526929
15720,0.2474,0.9599,0.1615,0.280,1.050,-1.610,422,410,681,566,685,2025-05-23T21:32:08.526942
15721,0.2416,0.9628,0.1703,0.000,0.350,-1.820,397,438,701,553,691,2025-05-23T21:32:08.733805
15722,0.2420,0.9638,0.1810,-0.560,1.050,-2.240,398,473,708,564,689,2025-05-23T21:32:08.733862
15723,0.2206,0.9633,0.1879,-0.910,1.400,-2.590,389,466,675,572,694,2025-05-23T21:32:08.733876
15724,0.2059,0.9687,0.2006,-1.120,1.050,-2.380,415,458,709,548,693,2025-05-23T21:32:08.734004
15725,0.2152,0.9721,0.2103,-1.750,0.630,-1.890,401,448,709,574,710,2025-05-23T21:32:08.734018
15726,0.2079,0.9726,0.2084,-1.680,-0.700,-0.980,427,463,712,561,711,2025-05-23T21:32:08.734031
15727,0.2084,0.9706,0.2079,-0.140,-2.170,0.070,419,452,719,579,705,2025-05-23T21:32:08.734042
15728,0.2211,0.9648,0.2172,0.770,-1.890,1.190,414,449,717,577,710,2025-05-23T21:32:08.734054
15729,0.2196,0.9540,0.2118,1.330,-1.540,1.820,429,450,725,560,705,2025-05-23T21:32:08.734064
15730,0.2255,0.9531,0.2098,2.520,-2.100,2.030,410,444,722,519,705,2025-05-23T21:32:08.734075
15731,0.2367,0.9570,0.2074,2.520,-2.450,1.610,417,460,683,560,682,2025-05-23T21:32:08.734086
15732,0.2284,0.9609,0.1996,1.750,-2.730,0.840,381,456,710,558,704,2025-05-23T21:32:08.734097
15733,0.2284,0.9623,0.1898,0.770,-3.850,0.420,394,443,715,579,710,2025-05-23T21:32:08.734110
15734,0.2386,0.9594,0.1874,-0.420,-3.780,-0.070,395,438,711,565,715,2025-05-23T21:32:08.734120
15735,0.2464,0.9555,0.1923,-1.120,-2.520,0.280,341,443,711,582,708,2025-05-23T21:32:08.734131
15736,0.2298,0.9521,0.1928,-0.840,-1.610,-0.070,341,471,720,563,717,2025-05-23T21:32:08.734179
15737,0.2259,0.9511,0.1981,-0.210,-2.100,-0.210,394,475,726,563,721,2025-05-23T21:32:08.734190
15738,0.2245,0.9506,0.2054,0.000,-2.100,-0.070,391,470,718,559,710,2025-05-23T21:32:08.937885
15739,0.2191,0.9633,0.2089,0.000,-2.730,0.280,416,407,714,575,702,2025-05-23T21:32:08.937952
15740,0.2137,0.9638,0.2089,0.280,-3.150,0.350,428,458,692,564,713,2025-05-23T21:32:08.937971
15741,0.2137,0.9736,0.2113,0.350,-3.990,0.350,401,441,717,572,703,2025-05-23T21:32:08.937986
15742,0.2152,0.9677,0.2054,-0.280,-3.990,0.560,403,449,716,588,726,2025-05-23T21:32:08.938005
15743,0.2040,0.9667,0.1991,-0.980,-4.340,0.560,393,464,725,576,722,2025-05-23T21:32:08.938019
15744,0.2118,0.9643,0.2030,-1.400,-5.670,0.630,400,466,704,564,685,2025-05-23T21:32:08.938032
15745,0.2347,0.9618,0.2050,-1.680,-5.180,0.210,416,473,726,571,707,2025-05-23T21:32:08.938047
15746,0.2338,0.9550,0.1923,-0.910,-3.290,0.070,423,479,718,581,705,2025-05-23T21:32:08.938060
15747,0.2381,0.9618,0.1932,0.420,-1.890,0.280,418,482,723,562,709,2025-05-23T21:32:08.938073
15748,0.2367,0.9594,0.1972,0.560,-0.910,-0.140,407,470,731,565,723,2025-05-23T21:32:08.938085
15749,0.2313,0.9565,0.1991,-0.560,-0.910,-0.630,419,474,731,557,715,2025-05-23T21:32:08.938098
15750,0.2284,0.9506,0.2006,-1.120,-2.030,-1.050,408,430,722,576,713,2025-05-23T21:32:08.938111
15751,0.2323,0.9516,0.2064,-1.330,-2.030,-1.330,415,458,731,582,724,2025-05-23T21:32:08.938511
15752,0.2411,0.9521,0.2025,-0.560,-1.050,-1.470,410,467,731,582,726,2025-05-23T21:32:08.938554
15753,0.2411,0.9555,0.1957,0.140,0.140,-1.330,413,471,715,560,699,2025-05-23T21:32:08.938648
15754,0.2396,0.9609,0.1967,0.910,-0.210,-1.050,344,422,717,575,708,2025-05-23T21:32:08.938664
15755,0.2250,0.9653,0.1972,0.630,-1.820,-1.260,378,420,727,580,714,2025-05-23T21:32:09.143883
15756,0.2211,0.9648,0.2011,-1.190,-3.360,-0.980,415,461,721,561,724,2025-05-23T21:32:09.143927
15757,0.2220,0.9609,0.1991,-2.380,-3.780,-0.560,398,424,731,560,686,2025-05-23T21:32:09.143939
15758,0.2250,0.9584,0.1986,-2.170,-3.570,-0.210,404,463,733,581,708,2025-05-23T21:32:09.143950
15759,0.2274,0.9565,0.2015,-1.260,-3.220,0.070,401,450,719,574,725,2025-05-23T21:32:09.143959
15760,0.2220,0.9589,0.1996,-0.280,-3.080,-0.140,418,448,730,581,702,2025-05-23T21:32:09.143970
15761,0.2235,0.9618,0.2020,-0.140,-3.850,0.070,404,416,701,574,707,2025-05-23T21:32:09.143979
15762,0.2216,0.9609,0.1981,0.000,-4.550,-0.350,393,432,708,571,716,2025-05-23T21:32:09.143991
15763,0.2259,0.9614,0.2025,-0.560,-4.060,-0.560,412,464,725,560,714,2025-05-23T21:32:09.143999
15764,0.2240,0.9565,0.1972,-1.610,-2.940,-0.630,417,450,717,568,709,2025-05-23T21:32:09.144009
15765,0.2225,0.9492,0.1996,-2.310,-2.380,-1.120,420,442,690,563,711,2025-05-23T21:32:09.144017
15766,0.2142,0.9428,0.2020,-2.870,-2.590,-1.540,411,451,710,571,713,2025-05-23T21:32:09.144025
15767,0.2098,0.9526,0.2133,-3.500,-3.710,-1.820,402,461,715,576,722,2025-05-23T21:32:09.144033
15768,0.2113,0.9618,0.2157,-3.220,-4.620,-2.030,427,448,731,557,718,2025-05-23T21:32:09.144040
15769,0.2157,0.9755,0.2172,-1.890,-5.110,-1.190,430,471,715,562,725,2025-05-23T21:32:09.144079
15770,0.2230,0.9750,0.2196,-0.490,-4.550,-0.420,438,476,734,582,729,2025-05-23T21:32:09.144087
15771,0.2167,0.9731,0.2103,1.050,-4.410,0.210,395,444,732,584,712,2025-05-23T21:32:09.144095
15772,0.2186,0.9726,0.2157,1.470,-4.410,0.000,409,453,728,572,715,2025-05-23T21:32:09.144104
15773,0.2279,0.9672,0.2098,-0.840,-4.620,0.560,427,438,700,578,713,2025-05-23T21:32:09.349388
15774,0.2167,0.9662,0.1972,-2.660,-5.250,1.190,409,441,730,574,716,2025-05-23T21:32:09.349431
15775,0.2313,0.9687,0.1923,-2.940,-5.530,1.960,398,473,735,582,730,2025-05-23T21:32:09.349443
15776,0.2508,0.9623,0.1942,-2.590,-4.410,1.890,420,461,719,568,714,2025-05-23T21:32:09.349452
15777,0.2455,0.9618,0.1991,-3.010,-3.220,1.890,407,446,725,553,722,2025-05-23T21:32:09.349462
15778,0.2440,0.9555,0.2064,-3.430,-2.940,2.520,419,462,735,560,722,2025-05-23T21:32:09.349471
15779,0.2494,0.9472,0.2162,-3.710,-1.680,1.890,426,441,731,579,722,2025-05-23T21:32:09.349480
15780,0.2425,0.9467,0.2162,-4.690,-1.400,1.400,419,452,728,541,714,2025-05-23T21:32:09.349489
15781,0.2445,0.9511,0.2172,-4.970,-1.610,1.050,414,424,705,572,707,2025-05-23T21:32:09.349498
15782,0.2567,0.9487,0.2123,-4.200,-1.750,0.910,407,456,734,575,702,2025-05-23T21:32:09.349506
15783,0.2557,0.9438,0.2103,-2.030,-1.400,1.050,404,412,707,576,718,2025-05-23T21:32:09.349514
15784,0.2445,0.9433,0.2128,0.630,-0.700,1.400,410,437,723,568,708,2025-05-23T21:32:09.349522
15785,0.2323,0.9443,0.2211,1.820,-0.140,0.770,415,437,714,585,725,2025-05-23T21:32:09.349530
15786,0.2162,0.9482,0.2255,1.610,-1.400,0.560,397,436,721,563,714,2025-05-23T21:32:09.349542
15787,0.2191,0.9472,0.2259,0.700,-3.010,0.210,396,407,720,581,711,2025-05-23T21:32:09.349550
15788,0.2245,0.9501,0.2128,0.210,-4.270,0.490,411,463,733,557,709,2025-05-23T21:32:09.349588
15789,0.2264,0.9536,0.2054,0.490,-4.200,0.140,394,479,731,574,719,2025-05-23T21:32:09.349597
15790,0.2323,0.9506,0.1937,1.120,-3.360,-0.070,420,449,734,583,712,2025-05-23T21:32:09.551152
15791,0.2303,0.9536,0.1937,1.330,-2.450,0.140,425,471,731,567,722,2025-05-23T21:32:09.551199
15792,0.2255,0.9540,0.1981,0.910,-1.890,-0.490,421,470,728,580,735,2025-05-23T21:32:09.551211
15793,0.2147,0.9584,0.1981,0.000,-2.030,-0.560,408,425,717,566,684,2025-05-23T21:32:09.551222
15794,0.2201,0.9599,0.2020,-1.330,-2.380,-1.190,338,460,733,570,726,2025-05-23T21:32:09.551232
15795,0.2255,0.9579,0.2020,-2.100,-2.030,-1.400,416,470,729,584,726,2025-05-23T21:32:09.551242
15796,0.2313,0.9648,0.2054,-1.120,-2.030,-1.260,425,437,720,583,712,2025-05-23T21:32:09.551252
15797,0.2342,0.9706,0.2103,-0.490,-1.400,-1.470,430,478,737,569,718,2025-05-23T21:32:09.551262
15798,0.2206,0.9721,0.2089,-0.700,-2.030,-1.470,412,420,732,571,729,2025-05-23T21:32:09.551271
15799,0.2279,0.9653,0.2108,-0.980,-2.660,-0.980,420,469,734,570,726,2025-05-23T21:32:09.551280
15800,0.2284,0.9614,0.2196,-0.700,-2.590,0.210,425,464,730,565,725,2025-05-23T21:32:09.551288
15801,0.2230,0.9628,0.2362,-1.400,-1.400,-0.490,406,462,710,579,723,2025-05-23T21:32:09.551297
15802,0.2220,0.9604,0.2328,-3.220,-1.820,-0.630,391,442,736,582,720,2025-05-23T21:32:09.551306
15803,0.2230,0.9565,0.2201,-3.780,-3.500,-1.260,413,435,722,571,726,2025-05-23T21:32:09.551315
15804,0.2484,0.9526,0.2162,-2.940,-4.130,-1.050,426,463,734,585,724,2025-05-23T21:32:09.551356
15805,0.2460,0.9526,0.2020,-0.700,-3.780,0.000,413,461,732,575,719,2025-05-23T21:32:09.551365
15806,0.2245,0.9599,0.2064,2.100,-3.220,1.050,428,456,730,566,722,2025-05-23T21:32:09.551373
15807,0.2313,0.9594,0.2103,2.660,-2.240,0.630,408,431,735,575,728,2025-05-23T21:32:09.756465
15808,0.2181,0.9521,0.2050,1.050,-2.730,0.280,408,459,718,576,723,2025-05-23T21:32:09.756499
15809,0.2162,0.9438,0.2030,-1.330,-3.850,0.700,419,461,728,593,729,2025-05-23T21:32:09.756507
15810,0.2220,0.9467,0.2123,-2.100,-4.130,0.700,405,460,735,569,706,2025-05-23T21:32:09.756514
15811,0.2328,0.9521,0.2157,-2.100,-2.870,0.210,412,416,730,562,721,2025-05-23T21:32:09.756521
15812,0.2318,0.9540,0.2089,-1.260,-1.820,-0.070,410,457,737,569,710,2025-05-23T21:32:09.756527
15813,0.2396,0.9501,0.2015,0.000,-2.170,0.280,438,409,724,561,726,2025-05-23T21:32:09.773509
15814,0.2333,0.9521,0.2030,2.380,-2.520,0.490,408,408,735,569,717,2025-05-23T21:32:09.773532
15815,0.2259,0.9609,0.2142,2.800,-2.100,-0.210,420,409,734,594,708,2025-05-23T21:32:09.773539
15816,0.2147,0.9658,0.2152,1.190,-2.170,-0.350,414,449,730,532,703,2025-05-23T21:32:09.773544
15817,0.2142,0.9628,0.2162,-0.350,-3.080,-0.210,405,461,727,575,722,2025-05-23T21:32:09.773549
15818,0.2235,0.9628,0.2167,-1.050,-3.500,0.490,410,446,726,567,726,2025-05-23T21:32:09.773554
15819,0.2264,0.9658,0.2176,-1.050,-3.290,0.630,421,450,738,567,730,2025-05-23T21:32:09.773587
15820,0.2372,0.9672,0.2181,-0.560,-2.170,0.070,354,466,725,584,740,2025-05-23T21:32:09.773608
15821,0.2342,0.9604,0.2074,-0.280,-2.380,-0.210,386,473,724,572,697,2025-05-23T21:32:09.773613
15822,0.2328,0.9609,0.2084,0.280,-3.710,0.280,406,478,733,524,726,2025-05-23T21:32:09.773649
15823,0.2289,0.9638,0.2113,-1.120,-4.690,-0.560,396,471,738,557,729,2025-05-23T21:32:09.773654
15824,0.2196,0.9609,0.2069,-2.800,-5.320,-0.700,428,466,739,580,733,2025-05-23T21:32:09.961507
15825,0.2269,0.9555,0.2025,-3.430,-4.200,-0.560,426,470,737,580,729,2025-05-23T21:32:09.961553
15826,0.2342,0.9526,0.2025,-1.960,-2.310,0.140,434,469,729,576,727,2025-05-23T21:32:09.961565
15827,0.2313,0.9589,0.2113,-0.770,-1.330,0.280,404,448,734,591,727,2025-05-23T21:32:09.961576
15828,0.2338,0.9604,0.2172,-0.560,-0.980,-0.280,413,465,736,569,735,2025-05-23T21:32:09.961586
15829,0.2269,0.9506,0.2079,-1.190,-2.100,-0.560,390,473,735,590,726,2025-05-23T21:32:09.961596
15830,0.2240,0.9492,0.2103,-0.700,-4.340,0.280,395,391,724,592,722,2025-05-23T21:32:09.961607
15831,0.2352,0.9540,0.2235,-0.770,-4.270,0.070,402,458,733,583,727,2025-05-23T21:32:09.961616
15832,0.2347,0.9526,0.2201,-1.400,-3.500,-0.910,421,454,742,567,735,2025-05-23T21:32:09.961629
15833,0.2269,0.9492,0.2098,-1.400,-3.500,-1.120,396,419,745,573,715,2025-05-23T21:32:09.961638
15834,0.2386,0.9482,0.2089,-1.050,-3.290,-1.260,408,454,719,561,713,2025-05-23T21:32:09.961646
15835,0.2303,0.9511,0.2079,-0.420,-3.850,-0.560,423,443,734,571,730,2025-05-23T21:32:09.961655
15836,0.2196,0.9579,0.2142,0.000,-4.760,-0.420,416,415,729,584,737,2025-05-23T21:32:09.961665
15837,0.2220,0.9618,0.2206,0.280,-5.320,-0.280,420,392,735,564,717,2025-05-23T21:32:09.961674
15838,0.2313,0.9589,0.2211,0.070,-5.110,-0.070,423,426,743,582,690,2025-05-23T21:32:09.961719
15839,0.2318,0.9550,0.2191,0.210,-4.480,-0.280,408,463,727,576,732,2025-05-23T21:32:09.961728
15840,0.2333,0.9609,0.2181,0.420,-4.480,-0.770,348,410,746,583,731,2025-05-23T21:32:09.961738
15841,0.2328,0.9594,0.2059,0.210,-4.340,-0.910,403,467,728,573,740,2025-05-23T21:32:10.009477
15842,0.2279,0.9623,0.1967,0.000,-4.550,-0.490,347,460,746,572,733,2025-05-23T21:32:10.009634
15843,0.2372,0.9628,0.1976,-0.770,-4.060,-0.280,380,397,742,583,720,2025-05-23T21:32:10.009647
15844,0.2220,0.9628,0.1967,-1.820,-3.010,-0.700,393,457,735,563,722,2025-05-23T21:32:10.009657
15845,0.2064,0.9575,0.1937,-2.800,-3.150,-0.630,419,480,714,558,731,2025-05-23T21:32:10.059943
15846,0.2108,0.9565,0.2050,-3.220,-3.080,-0.070,431,477,729,568,737,2025-05-23T21:32:10.059992
15847,0.2103,0.9550,0.2113,-2.660,-2.660,0.210,426,473,740,563,736,2025-05-23T21:32:10.060003
15848,0.2074,0.9653,0.2133,-1.120,-2.380,1.190,428,453,728,584,736,2025-05-23T21:32:10.060013
15849,0.2118,0.9687,0.2196,0.070,-2.240,2.100,414,405,733,576,730,2025-05-23T21:32:10.060022
15850,0.2191,0.9672,0.2176,0.280,-2.520,2.940,405,453,735,581,734,2025-05-23T21:32:10.166968
15851,0.2303,0.9672,0.2211,-0.630,-3.360,3.360,426,404,716,582,696,2025-05-23T21:32:10.167015
15852,0.2396,0.9599,0.2186,-1.190,-4.340,3.080,384,433,728,587,721,2025-05-23T21:32:10.167028
15853,0.2503,0.9482,0.2220,-1.680,-4.200,2.030,413,436,741,565,736,2025-05-23T21:32:10.167056
15854,0.2455,0.9453,0.2211,-1.540,-3.570,1.120,422,445,741,578,722,2025-05-23T21:32:10.167066
15855,0.2377,0.9477,0.2284,-1.750,-4.410,0.420,422,468,755,590,738,2025-05-23T21:32:10.167075
15856,0.2396,0.9453,0.2342,-2.730,-5.950,0.070,416,454,746,582,728,2025-05-23T21:32:10.167084
15857,0.2411,0.9433,0.2401,-3.850,-7.140,-0.910,416,461,746,591,725,2025-05-23T21:32:10.167092
15858,0.2416,0.9365,0.2479,-3.990,-8.610,-1.120,408,350,737,579,734,2025-05-23T21:32:10.217973
15859,0.3714,0.9418,0.2538,-3.360,-9.520,-1.820,421,431,739,587,738,2025-05-23T21:32:10.218022
15860,0.2669,0.9399,0.2611,-2.520,-9.730,-2.590,411,440,738,594,739,2025-05-23T21:32:10.218052
15861,0.2723,0.9331,0.2621,-1.820,-9.660,-4.130,389,451,738,592,724,2025-05-23T21:32:10.218063
15862,0.2855,0.9374,0.2738,-1.540,-11.200,-6.650,426,408,749,577,733,2025-05-23T21:32:10.218074
15863,0.2933,0.9326,0.2879,-2.940,-14.210,-10.500,399,450,744,582,716,2025-05-23T21:32:10.266513
15864,0.3099,0.9213,0.3026,-4.550,-19.880,-16.100,423,449,744,575,736,2025-05-23T21:32:10.266559
15865,0.3235,0.9209,0.3533,-8.330,-27.510,-21.560,409,442,745,573,733,2025-05-23T21:32:10.266571
15866,0.3553,0.9223,0.4085,-14.980,-37.940,-30.030,396,468,755,566,725,2025-05-23T21:32:10.266581
15867,0.4368,0.9013,0.4651,-23.380,-45.360,-41.300,423,476,745,568,741,2025-05-23T21:32:10.321049
15868,0.4597,0.8735,0.5861,-34.860,-57.190,-52.220,421,441,741,564,712,2025-05-23T21:32:10.321106
15869,0.4885,0.9531,0.7588,-50.680,-78.330,-67.690,411,453,739,592,724,2025-05-23T21:32:10.321121
15870,0.6603,1.0775,0.8833,-76.650,-98.560,-83.090,414,421,750,561,734,2025-05-23T21:32:10.321133
15871,0.9662,1.3298,0.9355,-105.630,-122.850,-98.140,352,458,742,587,726,2025-05-23T21:32:10.563368
15872,1.3581,1.6002,0.8940,-128.660,-140.140,-102.270,376,417,743,574,705,2025-05-23T21:32:10.563403
15873,1.7026,2.0613,0.8945,-146.160,-136.430,-97.790,382,442,732,578,729,2025-05-23T21:32:10.563413
15874,2.0262,2.4049,0.9409,-175.560,-130.060,-70.490,400,452,737,569,722,2025-05-23T21:32:10.563421
15875,2.5342,2.7011,0.8462,-209.090,-120.890,-35.490,392,424,745,581,728,2025-05-23T21:32:10.563430
15876,3.0876,2.5762,0.7257,-237.230,-87.570,-5.460,428,442,732,573,722,2025-05-23T21:32:10.563438
15877,3.3896,2.3117,0.5519,-267.890,-47.110,0.910,412,456,707,583,742,2025-05-23T21:32:10.563445
15878,3.4375,2.0867,0.4538,-272.510,-17.430,-33.530,354,476,741,591,732,2025-05-23T21:32:10.563453
15879,3.4936,1.7031,0.1044,-313.880,-32.410,-92.820,393,406,748,583,746,2025-05-23T21:32:10.563460
15880,3.3721,1.1551,-0.1830,-374.220,-108.500,-170.590,399,440,736,601,737,2025-05-23T21:32:10.563466
15881,3.0729,0.3065,-0.4094,-448.980,-229.320,-242.970,343,461,745,592,760,2025-05-23T21:32:10.563473
15882,2.8968,-0.3450,-0.5958,-513.030,-283.500,-349.300,404,408,735,602,756,2025-05-23T21:32:10.563480
15883,2.3888,-1.0629,-0.8642,-536.620,-197.330,-456.330,394,469,740,578,743,2025-05-23T21:32:10.563487
15884,0.9008,-1.9169,-0.9462,-524.790,-131.250,-527.590,415,478,740,571,727,2025-05-23T21:32:10.563517
15885,-0.6539,-2.6557,-0.3553,-493.710,-169.190,-585.830,393,480,712,553,733,2025-05-23T21:32:10.563524
15886,-2.3126,-3.2008,0.5807,-509.880,-319.340,-633.780,402,448,702,547,728,2025-05-23T21:32:10.563531
15887,-2.8934,-4.1021,1.3981,-581.700,-401.800,-671.020,396,398,667,546,737,2025-05-23T21:32:10.563538
15888,-3.5702,-5.4314,1.6006,-638.120,-366.170,-694.890,391,431,693,557,715,2025-05-23T21:32:10.563548
15889,-3.7757,-5.8604,1.3449,-521.570,-205.450,-676.970,417,453,699,550,710,2025-05-23T21:32:10.563555
15890,-3.5536,-4.4310,0.7486,-229.390,104.580,-571.340,389,470,687,554,724,2025-05-23T21:32:10.617146
15891,-4.1475,-0.9374,0.1527,-46.200,346.710,-357.420,405,445,697,566,724,2025-05-23T21:32:10.617199
15892,-4.2685,-0.2508,-0.4416,90.090,252.980,1.260,423,438,705,547,771,2025-05-23T21:32:10.617214
15893,-1.8339,-0.9945,-0.1771,230.020,162.960,329.140,394,467,700,547,722,2025-05-23T21:32:10.617226
15894,-1.0609,-1.4650,0.3675,285.880,267.120,448.280,346,447,695,536,732,2025-05-23T21:32:10.617238
15895,-1.2551,-1.5270,1.8246,141.120,238.210,483.560,381,470,700,546,726,2025-05-23T21:32:10.617250
15896,-2.2453,-2.1272,1.2034,138.110,70.000,422.730,340,406,695,548,730,2025-05-23T21:32:10.778825
15897,-1.5177,-2.4942,0.7232,222.670,-38.220,386.750,401,455,694,561,713,2025-05-23T21:32:10.778871
15898,-0.6032,-2.2912,0.7218,296.870,-51.940,360.290,406,466,702,568,719,2025-05-23T21:32:10.778884
15899,-0.1464,-1.6568,0.8852,357.350,53.970,333.130,404,453,680,547,706,2025-05-23T21:32:10.778895
15900,-0.1259,-1.1897,0.8974,347.970,178.290,315.070,411,448,701,540,713,2025-05-23T21:32:10.778906
15901,-0.2684,-0.8369,0.8438,329.490,261.030,319.480,432,392,655,535,713,2025-05-23T21:32:10.778916
15902,-0.3992,-0.5846,0.8569,311.430,288.960,332.710,424,409,695,543,721,2025-05-23T21:32:10.778925
15903,-0.5544,-0.3421,1.0741,299.530,264.880,337.960,403,437,684,548,732,2025-05-23T21:32:10.778934
15904,-0.4992,-0.0122,1.2678,286.300,213.010,315.210,340,396,679,548,712,2025-05-23T21:32:10.778944
15905,-0.0166,0.4250,1.2371,263.270,173.250,281.190,398,460,686,539,720,2025-05-23T21:32:10.778953
15906,0.3172,0.6886,0.9389,246.470,149.310,258.230,416,425,676,539,722,2025-05-23T21:32:10.778964
15907,0.5690,1.0024,0.6554,257.250,129.640,243.530,411,461,684,537,709,2025-05-23T21:32:10.778976
15908,0.6422,1.3347,0.6617,267.890,119.280,224.770,421,448,696,542,717,2025-05-23T21:32:10.778985
15909,0.5846,1.4796,0.8594,236.880,93.940,211.050,423,454,697,540,735,2025-05-23T21:32:10.828978
15910,0.5661,1.4401,0.8979,193.200,54.600,198.590,404,438,694,558,718,2025-05-23T21:32:10.829025
15911,0.8745,1.4669,0.9472,159.810,22.960,198.730,418,461,681,540,730,2025-05-23T21:32:10.829038
15912,1.3049,1.3479,0.7032,168.700,19.810,195.020,405,462,658,555,731,2025-05-23T21:32:10.829049
15913,1.7734,1.4074,0.2991,233.940,79.450,181.020,424,455,684,541,731,2025-05-23T21:32:10.986490
15914,1.9237,1.5406,-0.0386,298.620,142.450,179.900,395,461,683,545,717,2025-05-23T21:32:10.986535
15915,1.6333,1.6807,-0.0351,320.040,198.800,185.150,418,459,689,540,709,2025-05-23T21:32:10.986548
15916,1.4747,1.7846,0.3836,226.100,196.280,196.840,402,449,689,525,730,2025-05-23T21:32:10.986559
15917,1.2415,1.5826,0.8198,78.610,125.160,185.780,336,472,699,531,721,2025-05-23T21:32:10.986569
15918,1.2488,1.1819,1.2371,-77.700,-9.240,151.550,399,441,680,537,727,2025-05-23T21:32:10.986578
15919,1.6275,0.5817,1.2942,-146.650,-119.420,119.910,387,441,655,521,730,2025-05-23T21:32:10.986589
15920,1.9940,0.0947,1.1717,-115.290,-138.670,88.620,414,464,702,544,717,2025-05-23T21:32:10.986598
15921,2.0086,-0.0732,0.9101,-49.770,-71.050,50.890,410,386,673,538,707,2025-05-23T21:32:10.986608
15922,1.4337,0.2855,0.7052,83.370,-2.450,17.920,430,424,705,533,720,2025-05-23T21:32:10.986618
15923,0.9584,0.7247,0.4275,104.020,19.180,-1.260,407,419,667,535,707,2025-05-23T21:32:10.986627
15924,0.3289,0.9365,0.2152,72.590,17.220,-12.180,419,420,700,526,704,2025-05-23T21:32:10.986635
15925,0.1254,1.0868,0.0659,40.180,-10.430,-6.440,389,436,699,514,730,2025-05-23T21:32:10.986827
15926,0.2133,0.9906,-0.0420,-53.760,-48.860,2.170,426,460,672,479,719,2025-05-23T21:32:11.190705
15927,0.1210,0.9165,-0.1503,-43.540,-43.890,2.520,426,463,708,474,691,2025-05-23T21:32:11.190755
15928,0.2767,0.8896,-0.0322,-33.670,-32.340,13.440,400,439,706,534,726,2025-05-23T21:32:11.190769
15929,0.3460,0.8682,0.1352,-12.670,10.710,21.700,402,458,696,541,709,2025-05-23T21:32:11.190781
15930,0.4470,0.8301,0.3113,5.530,33.600,25.340,395,458,693,529,713,2025-05-23T21:32:11.190792
15931,0.5285,0.7828,0.4680,11.410,33.880,20.230,392,422,713,532,712,2025-05-23T21:32:11.190802
15932,0.5402,0.7457,0.5319,11.830,10.990,6.860,421,444,696,548,710,2025-05-23T21:32:11.190812
15933,0.5158,0.7276,0.5183,9.800,-16.660,-6.370,416,460,695,530,689,2025-05-23T21:32:11.190823
15934,0.5422,0.7354,0.4685,6.300,-32.550,-15.750,394,422,688,532,717,2025-05-23T21:32:11.190834
15935,0.5266,0.7579,0.3909,10.990,-34.650,-23.240,397,432,677,538,716,2025-05-23T21:32:11.190843
15936,0.5002,0.7935,0.3196,12.740,-27.510,-28.980,347,437,705,527,703,2025-05-23T21:32:11.190855
15937,0.4187,0.8418,0.2572,14.350,-17.360,-28.910,377,434,677,514,718,2025-05-23T21:32:11.190865
15938,0.3572,0.9155,0.2298,10.010,-11.410,-27.020,405,457,704,539,720,2025-05-23T21:32:11.190874
15939,0.3304,0.9575,0.1976,5.740,-9.730,-24.010,385,452,711,529,712,2025-05-23T21:32:11.190884
15940,0.3065,0.9701,0.1591,2.380,-9.170,-18.550,406,426,702,530,718,2025-05-23T21:32:11.190928
15941,0.3260,0.9609,0.1347,2.310,-7.210,-12.460,414,425,701,527,699,2025-05-23T21:32:11.190938
15942,0.3514,0.9599,0.1332,5.740,0.840,-6.300,411,440,708,483,715,2025-05-23T21:32:11.190950
15943,0.3226,0.9570,0.1435,6.440,5.740,-2.450,398,462,697,510,723,2025-05-23T21:32:11.241069
15944,0.3367,0.9428,0.1850,2.800,5.600,1.680,414,462,692,533,719,2025-05-23T21:32:11.241432
15945,0.3143,0.9365,0.2064,-1.540,1.400,5.180,417,461,694,525,725,2025-05-23T21:32:11.241499
15946,0.3470,0.9296,0.2230,-4.550,-4.340,7.350,421,429,700,544,729,2025-05-23T21:32:11.241516
15947,0.4128,0.9121,0.2401,-5.040,-5.390,7.350,422,450,696,546,726,2025-05-23T21:32:11.399279
15948,0.4216,0.9013,0.2294,-2.590,-2.030,4.760,440,453,707,537,709,2025-05-23T21:32:11.399333
15949,0.4524,0.8784,0.2294,1.400,1.820,4.550,431,457,699,536,724,2025-05-23T21:32:11.399347
15950,0.4358,0.8755,0.2440,4.340,3.640,5.670,357,445,705,547,712,2025-05-23T21:32:11.399362
15951,0.3958,0.9062,0.2704,4.200,2.240,1.960,326,443,704,519,729,2025-05-23T21:32:11.399374
15952,0.3860,0.9052,0.2777,-0.770,-0.980,0.140,322,466,702,515,720,2025-05-23T21:32:11.399385
15953,0.4016,0.9018,0.2752,-6.440,-3.430,-1.260,360,401,692,527,734,2025-05-23T21:32:11.399397
15954,0.4055,0.8877,0.2630,-7.070,-2.660,-3.920,391,429,707,546,726,2025-05-23T21:32:11.399408
15955,0.3894,0.8813,0.2562,-4.340,-2.940,-4.690,399,432,709,543,718,2025-05-23T21:32:11.399419
15956,0.3572,0.9145,0.2689,-1.820,-2.730,-6.300,408,444,704,525,737,2025-05-23T21:32:11.399430
15957,0.3523,0.9155,0.2645,-1.750,-2.520,-6.860,395,451,714,547,735,2025-05-23T21:32:11.399440
15958,0.3538,0.9111,0.2489,-1.960,-0.560,-5.460,383,441,691,522,717,2025-05-23T21:32:11.399450
15959,0.3353,0.9170,0.2391,-0.910,0.350,-2.520,335,431,695,523,730,2025-05-23T21:32:11.399460
15960,0.3235,0.9311,0.2416,0.350,0.490,-0.280,386,417,709,523,721,2025-05-23T21:32:11.399471
15961,0.3348,0.9355,0.2582,-0.840,-0.420,0.000,398,451,714,547,738,2025-05-23T21:32:11.600175
15962,0.3518,0.9184,0.2499,-3.780,-1.960,-0.700,392,418,712,541,726,2025-05-23T21:32:11.600222
15963,0.3723,0.8955,0.2435,-4.970,-4.480,-1.330,411,433,701,534,729,2025-05-23T21:32:11.600234
15964,0.3660,0.8862,0.2401,-3.710,-8.190,-1.750,409,449,699,519,715,2025-05-23T21:32:11.600245
15965,0.3855,0.8877,0.2435,-2.940,-9.100,-1.750,396,421,703,480,731,2025-05-23T21:32:11.600254
15966,0.3821,0.8940,0.2440,-2.520,-7.420,-2.380,395,432,678,509,734,2025-05-23T21:32:11.600264
15967,0.3880,0.8916,0.2372,-1.120,-4.480,-0.770,409,449,708,513,728,2025-05-23T21:32:11.600273
15968,0.3914,0.9145,0.2411,0.140,-2.030,-0.700,306,456,700,543,712,2025-05-23T21:32:11.600282
15969,0.3821,0.9165,0.2430,0.140,-1.050,-1.330,380,465,703,540,716,2025-05-23T21:32:11.600290
15970,0.3723,0.9082,0.2347,-1.050,-1.260,-2.800,413,453,700,543,730,2025-05-23T21:32:11.600298
15971,0.3875,0.8979,0.2377,-1.680,-1.330,-2.590,404,402,701,528,729,2025-05-23T21:32:11.600307
15972,0.3684,0.8911,0.2362,-1.470,-2.310,-2.170,400,406,715,539,718,2025-05-23T21:32:11.600315
15973,0.3553,0.8955,0.2435,-1.120,-4.900,-2.940,379,422,712,546,721,2025-05-23T21:32:11.600323
15974,0.3689,0.8921,0.2474,-1.190,-5.740,-2.450,337,439,695,539,730,2025-05-23T21:32:11.600330
15975,0.3631,0.9018,0.2572,-1.540,-5.390,-3.500,385,438,707,536,690,2025-05-23T21:32:11.600368
15976,0.3616,0.9077,0.2664,-2.590,-4.620,-4.620,397,447,705,541,728,2025-05-23T21:32:11.600376
15977,0.3577,0.9048,0.2630,-2.380,-2.240,-5.670,426,386,702,522,732,2025-05-23T21:32:11.805760
15978,0.3499,0.9038,0.2699,-2.170,-1.470,-6.370,423,428,696,529,718,2025-05-23T21:32:11.805808
15979,0.3538,0.9091,0.2747,-1.330,-2.590,-5.250,426,462,699,480,716,2025-05-23T21:32:11.805821
15980,0.3665,0.9043,0.2713,-0.770,-2.730,-5.110,408,394,701,508,722,2025-05-23T21:32:11.805832
15981,0.3680,0.9038,0.2601,0.490,-2.660,-5.320,427,420,707,535,716,2025-05-23T21:32:11.805841
15982,0.3401,0.9087,0.2557,1.260,-4.270,-5.600,414,455,695,531,729,2025-05-23T21:32:11.805852
15983,0.3406,0.9130,0.2601,1.120,-6.720,-4.620,403,448,693,519,729,2025-05-23T21:32:11.805861
15984,0.3265,0.9252,0.2630,-0.070,-7.770,-4.970,399,453,692,529,710,2025-05-23T21:32:11.805871
15985,0.3377,0.9145,0.2572,-2.100,-7.560,-5.810,411,437,696,529,726,2025-05-23T21:32:11.805880
15986,0.3465,0.9023,0.2445,-2.240,-5.390,-5.740,423,429,698,539,713,2025-05-23T21:32:11.805894
15987,0.3304,0.8984,0.2357,-0.560,-4.130,-5.950,426,461,702,531,721,2025-05-23T21:32:11.805904
15988,0.3226,0.9062,0.2347,0.910,-3.990,-5.670,425,428,700,439,711,2025-05-23T21:32:11.805912
15989,0.3323,0.9223,0.2489,0.280,-4.410,-5.530,415,454,708,492,732,2025-05-23T21:32:11.805921
15990,0.3196,0.9282,0.2528,-2.380,-5.600,-5.460,426,389,696,516,729,2025-05-23T21:32:11.805932
15991,0.3099,0.9150,0.2542,-3.850,-8.400,-5.530,420,398,700,530,715,2025-05-23T21:32:11.805973
15992,0.3255,0.9150,0.2782,-4.060,-10.640,-5.110,403,437,707,525,711,2025-05-23T21:32:11.805984
15993,0.3118,0.9067,0.2791,-3.430,-10.220,-6.160,400,337,665,513,707,2025-05-23T21:32:11.805993
15994,0.3079,0.9077,0.2767,-3.010,-10.570,-6.860,391,408,661,526,710,2025-05-23T21:32:11.806002
15995,0.3318,0.9072,0.2723,-2.800,-10.080,-6.580,398,334,690,531,723,2025-05-23T21:32:12.009857
15996,0.3465,0.9018,0.2552,-1.260,-8.890,-6.090,412,373,687,530,721,2025-05-23T21:32:12.009903
15997,0.3484,0.9004,0.2455,0.840,-7.700,-6.090,399,425,694,482,711,2025-05-23T21:32:12.009915
15998,0.3387,0.9116,0.2479,1.750,-7.840,-5.950,417,437,702,474,685,2025-05-23T21:32:12.009926
15999,0.3392,0.9165,0.2494,0.630,-8.890,-5.880,425,446,689,516,720,2025-05-23T21:32:12.009936
16000,0.3460,0.9155,0.2474,-1.610,-9.380,-5.390,352,462,701,527,722,2025-05-23T21:32:12.009946
16001,0.3528,0.9121,0.2508,-3.640,-9.240,-4.900,406,441,695,514,713,2025-05-23T21:32:12.009955
16002,0.3479,0.9082,0.2430,-3.010,-7.980,-5.390,393,457,705,512,688,2025-05-23T21:32:12.009967
16003,0.3567,0.9091,0.2420,-1.050,-6.440,-4.690,421,385,687,540,712,2025-05-23T21:32:12.009976
16004,0.3621,0.9067,0.2489,0.070,-4.130,-4.900,415,436,701,536,707,2025-05-23T21:32:12.009985
16005,0.3382,0.9077,0.2445,0.000,-4.620,-5.320,422,383,700,532,725,2025-05-23T21:32:12.009995
16006,0.3440,0.9101,0.2577,-0.280,-6.090,-4.620,408,425,695,533,711,2025-05-23T21:32:12.010004
16007,0.3372,0.9111,0.2625,-0.840,-5.740,-4.550,398,453,703,521,710,2025-05-23T21:32:12.010012
16008,0.3011,0.9321,0.2625,-0.980,-6.790,-5.460,416,463,697,537,712,2025-05-23T21:32:12.010020
16009,0.3113,0.9326,0.2655,-1.470,-8.330,-4.270,388,433,701,545,716,2025-05-23T21:32:12.010060
16010,0.3299,0.9228,0.2699,-1.820,-8.680,-3.290,407,455,689,523,711,2025-05-23T21:32:12.010069
16011,0.3294,0.9150,0.2557,-0.350,-6.790,-2.800,400,420,704,537,709,2025-05-23T21:32:12.010182
16012,0.3401,0.9160,0.2513,1.960,-4.690,-2.030,418,424,691,535,710,2025-05-23T21:32:12.065988
16013,0.3377,0.9262,0.2503,3.290,-3.430,-1.540,401,440,704,489,722,2025-05-23T21:32:12.329155
16014,0.3343,0.9204,0.2455,2.940,-4.130,-1.820,411,429,686,520,689,2025-05-23T21:32:12.329197
16015,0.3362,0.9184,0.2474,1.330,-5.670,-2.170,409,438,671,515,723,2025-05-23T21:32:12.329209
16016,0.3318,0.9170,0.2489,-0.140,-7.420,-3.080,418,453,704,513,720,2025-05-23T21:32:12.329269
16017,0.3367,0.9150,0.2538,-0.770,-7.000,-3.570,363,427,691,536,713,2025-05-23T21:32:12.329280
16018,0.3299,0.9126,0.2425,-0.630,-4.830,-4.480,385,425,686,531,711,2025-05-23T21:32:12.329291
16019,0.3377,0.9106,0.2450,0.280,-3.640,-4.410,395,425,688,529,720,2025-05-23T21:32:12.329301
16020,0.3367,0.9111,0.2528,0.070,-3.080,-3.920,398,438,704,537,705,2025-05-23T21:32:12.329311
16021,0.3099,0.9233,0.2474,-0.280,-4.340,-3.990,419,454,695,535,715,2025-05-23T21:32:12.329320
16022,0.3118,0.9248,0.2460,-0.560,-6.440,-2.240,401,445,689,517,720,2025-05-23T21:32:12.329329
16023,0.3084,0.9326,0.2450,-0.490,-7.840,-0.490,393,453,698,523,719,2025-05-23T21:32:12.329339
16024,0.3284,0.9292,0.2469,-0.700,-8.610,0.420,416,441,698,542,723,2025-05-23T21:32:12.329348
16025,0.3445,0.9218,0.2450,-1.260,-7.980,0.910,419,427,695,525,712,2025-05-23T21:32:12.329357
16026,0.3440,0.9145,0.2445,-0.700,-6.790,0.140,414,429,702,541,709,2025-05-23T21:32:12.329365
16027,0.3421,0.9116,0.2460,0.070,-5.040,-0.630,425,449,700,515,719,2025-05-23T21:32:12.329373
16028,0.3367,0.9126,0.2494,-0.070,-4.480,-1.120,430,470,691,533,705,2025-05-23T21:32:12.329382
16029,0.3377,0.9130,0.2503,-0.210,-4.550,-1.680,408,392,662,541,712,2025-05-23T21:32:12.329390
16030,0.3231,0.9189,0.2538,0.070,-5.110,-1.890,424,452,699,529,707,2025-05-23T21:32:12.329412
16031,0.3240,0.9277,0.2518,0.350,-5.670,-2.170,348,459,689,543,706,2025-05-23T21:32:12.329421
16032,0.3255,0.9321,0.2542,0.910,-5.390,-2.100,387,433,693,533,718,2025-05-23T21:32:12.329430
16033,0.3255,0.9248,0.2464,1.050,-4.340,-1.470,417,430,692,535,715,2025-05-23T21:32:12.419140
16034,0.3162,0.9209,0.2425,1.680,-3.570,-1.260,408,408,658,529,721,2025-05-23T21:32:12.419191
16035,0.3099,0.9233,0.2430,1.400,-4.340,-1.260,391,415,688,529,721,2025-05-23T21:32:12.419206
16036,0.3104,0.9228,0.2391,0.350,-5.110,-1.820,342,436,666,512,720,2025-05-23T21:32:12.419218
16037,0.3201,0.9199,0.2401,-0.490,-4.830,-1.960,369,431,684,528,681,2025-05-23T21:32:12.419229
16038,0.3226,0.9287,0.2372,-0.210,-3.430,-1.680,410,463,699,531,701,2025-05-23T21:32:12.419241
16039,0.3128,0.9389,0.2328,0.560,-2.520,-1.820,419,464,688,531,704,2025-05-23T21:32:12.419250
16040,0.3148,0.9428,0.2362,0.770,-2.730,-1.050,405,472,701,522,726,2025-05-23T21:32:12.419260
16041,0.3226,0.9287,0.2401,-0.070,-1.960,-0.700,421,460,688,538,708,2025-05-23T21:32:12.419270
16042,0.3177,0.9262,0.2445,-0.910,-1.610,-0.210,365,464,659,517,716,2025-05-23T21:32:12.419279
16043,0.3172,0.9257,0.2494,-2.100,-2.520,-0.210,415,455,698,514,696,2025-05-23T21:32:12.419288
16044,0.3314,0.9257,0.2552,-2.660,-3.290,-0.630,413,459,686,534,709,2025-05-23T21:32:12.419297
16045,0.3436,0.9194,0.2552,-3.360,-3.430,-1.050,414,391,695,541,715,2025-05-23T21:32:12.419306
16046,0.3577,0.9228,0.2557,-2.310,-3.080,-0.840,396,372,706,530,718,2025-05-23T21:32:12.623727
16047,0.3509,0.9292,0.2621,-0.980,-2.100,-1.120,429,440,663,545,710,2025-05-23T21:32:12.623794
16048,0.3338,0.9238,0.2542,0.420,-2.590,-1.680,431,452,697,539,719,2025-05-23T21:32:12.623813
16049,0.3235,0.9170,0.2601,0.210,-4.200,-1.890,432,440,699,482,723,2025-05-23T21:32:12.623829
16050,0.3221,0.9111,0.2606,-0.700,-4.830,-1.610,416,455,698,511,725,2025-05-23T21:32:12.623843
16051,0.3235,0.9111,0.2586,-1.890,-5.250,-1.120,418,457,702,530,722,2025-05-23T21:32:12.623857
16052,0.3304,0.9111,0.2542,-1.960,-4.760,-1.400,413,446,690,531,715,2025-05-23T21:32:12.623872
16053,0.3406,0.9062,0.2533,-1.050,-3.990,-2.100,401,429,702,540,720,2025-05-23T21:32:12.623885
16054,0.3396,0.9008,0.2513,0.210,-3.920,-3.010,399,441,702,486,697,2025-05-23T21:32:12.623898
16055,0.3484,0.8969,0.2586,1.050,-3.920,-3.850,421,428,701,532,711,2025-05-23T21:32:12.623911
16056,0.3504,0.8916,0.2669,0.560,-4.340,-4.690,405,463,689,538,714,2025-05-23T21:32:12.623924
16057,0.3475,0.8877,0.2830,-0.560,-5.740,-6.580,421,454,691,542,701,2025-05-23T21:32:12.623937
16058,0.3431,0.8716,0.2889,-1.190,-7.910,-9.310,394,444,703,528,705,2025-05-23T21:32:12.623949
16059,0.3460,0.8477,0.2943,-1.540,-10.500,-12.740,392,432,707,536,721,2025-05-23T21:32:12.623960
16060,0.3553,0.8081,0.3026,-1.610,-12.110,-17.010,402,457,700,537,720,2025-05-23T21:32:12.624025
16061,0.3665,0.7803,0.3045,-1.820,-12.740,-21.560,403,455,690,523,720,2025-05-23T21:32:12.624039
16062,0.3870,0.7281,0.3030,-2.170,-12.530,-29.120,401,457,686,526,728,2025-05-23T21:32:12.624052
16063,0.4197,0.6700,0.3026,-3.220,-11.480,-39.130,415,464,695,535,707,2025-05-23T21:32:12.847050
16064,0.4509,0.5602,0.2972,-5.110,-9.590,-53.830,404,386,687,523,707,2025-05-23T21:32:12.847110
16065,0.5031,0.4280,0.2582,-6.790,-6.720,-73.710,421,443,701,514,717,2025-05-23T21:32:12.847126
16066,0.5231,0.2733,0.2147,-6.510,-0.350,-94.290,422,467,683,528,710,2025-05-23T21:32:12.847141
16067,0.5144,0.1493,0.2006,-3.500,6.930,-128.520,432,475,704,516,717,2025-05-23T21:32:12.847154
16068,0.4421,-0.0371,0.2059,-1.120,11.410,-172.480,430,470,690,535,706,2025-05-23T21:32:12.847167
16069,0.3279,-0.2889,0.1874,2.170,11.690,-223.020,435,460,682,543,710,2025-05-23T21:32:12.847181
16070,0.1537,-0.4992,0.1791,10.150,5.460,-274.400,415,383,700,541,716,2025-05-23T21:32:12.847192
16071,-0.0185,-0.6647,0.1869,17.220,-1.330,-323.960,414,423,695,521,715,2025-05-23T21:32:12.847205
16072,-0.1049,-0.8135,0.2035,23.590,-6.230,-359.520,415,429,686,530,712,2025-05-23T21:32:12.847218
16073,-0.2020,-0.8926,0.2289,35.700,3.220,-395.430,404,421,679,516,667,2025-05-23T21:32:12.847230
16074,-0.4124,-0.9814,0.2098,58.940,18.410,-424.550,412,424,696,514,701,2025-05-23T21:32:12.847244
16075,-0.6549,-0.9848,0.1737,87.640,32.690,-450.030,394,424,690,534,696,2025-05-23T21:32:12.847258
16076,-0.8486,-0.9267,0.1303,109.690,44.870,-466.760,353,389,685,525,695,2025-05-23T21:32:12.847272
16077,-1.1326,-0.8501,0.0317,132.930,49.210,-481.670,390,373,693,527,670,2025-05-23T21:32:12.847329
16078,-1.4874,-0.7627,-0.0693,153.510,42.910,-490.210,424,390,659,519,668,2025-05-23T21:32:12.847342
16079,-1.6470,-0.6373,-0.1523,164.780,26.110,-494.130,346,420,682,530,689,2025-05-23T21:32:12.847354
16080,-2.1023,-0.4372,-0.2830,174.300,3.430,-494.970,383,421,684,528,665,2025-05-23T21:32:12.847367
16081,-2.2785,-0.2196,-0.3684,177.240,-7.140,-484.610,409,420,718,547,657,2025-05-23T21:32:13.031955
16082,-2.3932,-0.0752,-0.4807,189.000,-6.230,-453.530,401,429,715,518,649,2025-05-23T21:32:13.032022
16083,-2.4439,0.1449,-0.4973,197.610,-0.210,-428.120,399,434,706,506,641,2025-05-23T21:32:13.032041
16084,-2.3961,0.2796,-0.5261,199.080,-10.430,-406.490,393,442,703,513,629,2025-05-23T21:32:13.032058
16085,-2.2746,0.4231,-0.5436,187.810,-31.780,-395.640,423,424,691,519,626,2025-05-23T21:32:13.032073
16086,-2.1228,0.4216,-0.6695,174.230,-61.880,-386.540,425,416,741,523,603,2025-05-23T21:32:13.032087
16087,-1.9071,0.5412,-0.6812,158.200,-74.270,-371.630,413,445,736,477,608,2025-05-23T21:32:13.032102
16088,-1.6758,0.6451,-0.8916,153.860,-42.140,-357.140,410,456,717,524,589,2025-05-23T21:32:13.032120
16089,-1.6699,1.0102,-1.0658,167.580,9.310,-330.610,413,454,732,538,598,2025-05-23T21:32:13.032134
16090,-1.5694,1.6441,-1.1546,152.180,51.730,-290.360,413,438,734,542,622,2025-05-23T21:32:13.032148
16091,-1.6353,2.4600,-1.2220,122.010,57.400,-264.880,341,435,735,538,692,2025-05-23T21:32:13.032162
16092,-1.4899,3.3003,-1.0609,33.670,47.250,-241.010,342,462,735,537,705,2025-05-23T21:32:13.032175
16093,-1.5982,3.8123,-1.0390,-70.980,35.630,-213.710,396,420,715,527,708,2025-05-23T21:32:13.032188
16094,-2.1287,4.1602,-1.1161,-134.260,27.860,-164.010,427,426,736,498,705,2025-05-23T21:32:13.032251
16095,-3.0939,4.3398,-1.1043,-124.180,52.570,-80.080,408,456,699,525,708,2025-05-23T21:32:13.032265
16096,-4.2451,4.5042,-1.3688,-110.530,96.250,21.980,357,452,712,539,703,2025-05-23T21:32:13.032428
16097,-5.4900,4.5047,-1.8076,-113.890,143.290,143.640,399,465,732,538,704,2025-05-23T21:32:13.237783
16098,-6.3991,4.1861,-2.6567,-149.170,173.950,283.780,403,450,732,528,668,2025-05-23T21:32:13.237832
16099,-6.9984,3.5029,-3.5087,-195.160,190.050,411.460,378,465,730,545,701,2025-05-23T21:32:13.237846
16100,-7.3498,2.4839,-4.2158,-259.140,194.670,520.730,415,447,700,541,812,2025-05-23T21:32:13.237857
16101,-7.4137,1.3337,-4.6380,-318.710,206.360,600.670,422,438,695,520,781,2025-05-23T21:32:13.237868
16102,-7.5337,0.2411,-4.9332,-375.200,231.630,661.430,430,455,701,522,766,2025-05-23T21:32:13.237878
16103,-7.4313,-0.6959,-5.1064,-431.830,287.420,677.670,404,411,702,520,635,2025-05-23T21:32:13.237889
16104,-7.4713,-1.1858,-5.2943,-491.750,348.040,697.900,412,433,674,474,569,2025-05-23T21:32:13.237899
16105,-7.5718,-1.6538,-5.0484,-563.010,324.730,693.560,427,424,662,508,602,2025-05-23T21:32:13.237910
16106,-7.3298,-2.0799,-4.6399,-643.580,223.300,667.800,429,433,662,535,584,2025-05-23T21:32:13.237923
16107,-6.5143,-2.6435,-3.8196,-695.310,116.760,649.600,358,395,664,491,589,2025-05-23T21:32:13.237933
16108,-5.4261,-3.0695,-2.8626,-660.800,72.520,633.920,396,439,648,420,666,2025-05-23T21:32:13.237942
16109,-4.2158,-3.2886,-1.9988,-541.450,81.760,625.590,417,441,622,488,656,2025-05-23T21:32:13.237951
16110,-3.4023,-3.2603,-1.4284,-388.080,147.560,602.980,362,401,616,492,624,2025-05-23T21:32:13.237997
16111,-2.7230,-3.3652,-1.0804,-295.190,195.370,565.110,293,410,624,488,649,2025-05-23T21:32:13.238007
16112,-2.2970,-3.5541,-0.8921,-245.490,212.870,474.880,392,388,601,488,653,2025-05-23T21:32:13.238017
16113,-2.1897,-3.6937,-0.8447,-208.110,135.590,365.540,387,433,640,493,779,2025-05-23T21:32:13.238063
16114,-1.7246,-3.7688,-0.9218,-181.160,31.780,265.580,409,420,657,509,805,2025-05-23T21:32:13.443570
16115,-1.2693,-3.7200,-1.0668,-150.010,-30.380,186.340,411,426,660,520,806,2025-05-23T21:32:13.443619
16116,-0.8999,-3.4350,-1.0014,-135.170,-34.860,124.460,405,438,633,524,812,2025-05-23T21:32:13.443633
16117,-0.7037,-3.0178,-0.7901,-119.840,-11.550,74.130,417,425,622,521,811,2025-05-23T21:32:13.443645
16118,-0.6066,-2.6308,-0.5412,-90.440,19.040,32.760,424,428,662,535,812,2025-05-23T21:32:13.443656
16119,-0.4460,-2.2741,-0.2406,-56.000,39.830,4.270,430,428,660,517,812,2025-05-23T21:32:13.443668
16120,-0.3440,-1.9696,0.0800,-26.110,43.540,-29.610,431,421,666,501,813,2025-05-23T21:32:13.443679
16121,-0.2918,-1.6304,0.3070,-3.710,35.630,-63.280,428,432,655,514,809,2025-05-23T21:32:13.443691
16122,-0.2591,-1.3059,0.4494,32.130,17.640,-91.140,400,425,658,485,806,2025-05-23T21:32:13.443705
16123,-0.0991,-1.0146,0.5104,40.950,10.150,-114.240,427,448,656,498,811,2025-05-23T21:32:13.443715
16124,0.0844,-0.7398,0.5051,72.590,17.010,-133.630,418,446,661,516,806,2025-05-23T21:32:13.443725
16125,0.1415,-0.4597,0.4187,108.010,33.110,-149.380,406,441,650,519,808,2025-05-23T21:32:13.443736
16126,0.0605,-0.1752,0.3748,144.830,38.780,-170.450,403,443,650,507,813,2025-05-23T21:32:13.443746
16127,-0.0547,0.1845,0.3148,174.580,29.820,-192.360,424,382,662,496,809,2025-05-23T21:32:13.443784
16128,-0.0488,0.5861,0.3084,193.340,17.080,-209.650,400,315,652,472,804,2025-05-23T21:32:13.443795
16129,-0.0771,0.8926,0.1845,198.380,6.720,-218.540,304,418,669,506,809,2025-05-23T21:32:13.443806
16130,-0.1674,1.0604,-0.0356,207.340,0.280,-222.040,399,419,663,498,813,2025-05-23T21:32:13.443816
16131,-0.2684,1.1883,-0.2357,227.220,7.630,-220.710,414,414,662,511,815,2025-05-23T21:32:13.645716
16132,-0.4509,1.3781,-0.3611,247.800,20.300,-197.750,407,420,661,460,813,2025-05-23T21:32:13.645763
16133,-0.6007,1.7202,-0.3455,251.510,33.530,-206.710,404,394,662,499,818,2025-05-23T21:32:13.645777
16134,-0.7910,1.8524,-0.3509,225.820,35.000,-194.110,408,394,651,495,815,2025-05-23T21:32:13.645788
16135,-0.9389,2.1218,-0.3860,212.310,15.400,-181.230,422,437,644,493,819,2025-05-23T21:32:13.645799
16136,-1.0253,2.2760,-0.3528,175.910,-35.350,-168.560,421,441,656,480,810,2025-05-23T21:32:13.645810
16137,-1.0902,2.2755,-0.3079,156.800,-101.780,-157.010,421,442,659,508,808,2025-05-23T21:32:13.645822
16138,-0.7432,2.1023,-0.2216,135.590,-126.770,-139.300,396,455,645,509,810,2025-05-23T21:32:13.645832
16139,-0.4577,1.9032,-0.1937,137.480,-95.690,-112.770,411,437,656,498,812,2025-05-23T21:32:13.645841
16140,-0.4236,1.9086,-0.2440,156.800,-35.560,-85.750,362,442,657,503,815,2025-05-23T21:32:13.645850
16141,-0.4953,1.9652,-0.2621,158.410,11.270,-59.990,379,368,648,455,809,2025-05-23T21:32:13.645860
16142,-0.5656,2.0794,-0.2425,155.680,15.260,-44.170,419,409,643,508,812,2025-05-23T21:32:13.645873
16143,-0.5719,2.1623,-0.2430,125.790,-25.410,-32.340,398,405,655,515,815,2025-05-23T21:32:13.645882
16144,-0.4407,2.0398,-0.2913,102.830,-80.360,-20.370,340,392,652,517,811,2025-05-23T21:32:13.645918
16145,-0.2582,1.8798,-0.3216,81.760,-115.850,-4.690,398,355,648,503,809,2025-05-23T21:32:13.645929
16146,-0.1078,1.6953,-0.3431,74.480,-118.790,12.250,417,384,650,494,807,2025-05-23T21:32:13.645938
16147,0.0083,1.5596,-0.3104,82.040,-89.460,23.030,406,421,648,510,811,2025-05-23T21:32:13.645948
16148,0.0869,1.5157,-0.2367,75.180,-50.190,31.150,402,409,631,511,810,2025-05-23T21:32:13.853873
16149,0.0449,1.5030,-0.2230,61.950,-31.640,34.580,394,429,655,514,808,2025-05-23T21:32:13.853926
16150,0.0200,1.4459,-0.2381,41.160,-41.650,37.170,391,425,659,490,804,2025-05-23T21:32:13.853940
16151,0.0132,1.3903,-0.1879,24.290,-65.520,37.800,404,384,624,511,804,2025-05-23T21:32:13.853952
16152,-0.0010,1.2995,-0.1625,2.940,-87.360,37.240,408,376,647,492,802,2025-05-23T21:32:13.853964
16153,0.0386,1.1824,-0.1459,-4.900,-94.640,38.360,409,417,650,471,799,2025-05-23T21:32:13.853976
16154,0.0839,1.1165,-0.1293,-3.080,-87.500,39.690,413,398,647,492,794,2025-05-23T21:32:13.853987
16155,0.1342,1.0687,-0.0913,2.030,-70.700,41.790,406,423,641,508,793,2025-05-23T21:32:13.853997
16156,0.1532,1.0580,-0.0551,2.100,-53.900,47.530,342,423,649,504,784,2025-05-23T21:32:13.854008
16157,0.1030,1.0638,-0.0791,-2.450,-45.220,51.380,415,398,644,502,787,2025-05-23T21:32:13.854019
16158,0.0600,1.0673,-0.1088,-7.910,-46.340,50.260,393,413,648,454,778,2025-05-23T21:32:13.854030
16159,0.0317,1.0355,-0.1479,-13.020,-56.000,46.760,423,433,640,492,745,2025-05-23T21:32:13.854040
16160,-0.0444,1.0204,-0.1020,-16.170,-74.900,41.650,420,431,651,508,638,2025-05-23T21:32:13.854051
16161,-0.0927,0.9560,-0.0654,-19.040,-86.730,47.390,434,423,652,517,639,2025-05-23T21:32:13.854063
16162,-0.0722,0.9389,-0.0639,-14.210,-79.310,47.600,427,349,642,508,647,2025-05-23T21:32:13.854115
16163,-0.0166,0.9482,-0.0590,-7.840,-66.290,44.030,404,404,657,515,633,2025-05-23T21:32:13.854126
16164,0.0259,0.9516,-0.1244,-2.800,-56.350,42.770,401,391,644,515,626,2025-05-23T21:32:13.854137
16165,0.0273,0.9516,-0.1972,-0.140,-42.770,39.270,424,432,647,491,621,2025-05-23T21:32:13.903413
16166,0.0278,0.9609,-0.1991,-5.390,-39.900,34.650,401,425,682,502,634,2025-05-23T21:32:13.903453
16167,-0.0234,0.9165,-0.1898,-21.000,-47.950,25.830,398,415,682,506,646,2025-05-23T21:32:13.903634
16168,-0.0307,0.8999,-0.2152,-31.850,-59.990,21.280,401,419,667,487,627,2025-05-23T21:32:13.903648
16169,0.0000,0.9004,-0.2035,-35.560,-68.880,15.330,404,408,666,508,619,2025-05-23T21:32:13.951606
16170,0.0581,0.9028,-0.1835,-32.830,-68.810,9.520,416,358,661,498,609,2025-05-23T21:32:13.951662
16171,0.1054,0.9028,-0.1635,-25.760,-60.340,5.740,401,380,632,510,622,2025-05-23T21:32:13.951674
16172,0.0844,0.9004,-0.1786,-16.030,-38.990,3.010,412,407,665,511,623,2025-05-23T21:32:13.951685
16173,0.0312,0.9257,-0.1615,-6.370,-17.080,2.170,417,422,659,513,617,2025-05-23T21:32:14.002022
16174,-0.0615,0.9618,-0.1537,-5.530,-6.790,2.940,421,413,673,501,615,2025-05-23T21:32:14.002065
16175,-0.1166,0.9897,-0.1449,-10.500,-4.900,2.100,423,415,666,514,612,2025-05-23T21:32:14.002077
16176,-0.1235,1.0014,-0.1337,-19.810,-6.160,1.470,385,409,665,495,616,2025-05-23T21:32:14.002087
16177,-0.0937,1.0024,-0.1274,-22.610,-6.370,1.890,414,399,670,514,598,2025-05-23T21:32:14.050964
16178,-0.0659,0.9955,-0.1205,-19.530,-1.330,3.360,433,403,668,516,625,2025-05-23T21:32:14.051126
16179,-0.0698,0.9794,-0.1142,-10.640,6.930,6.090,427,409,678,458,641,2025-05-23T21:32:14.051139
16180,-0.0771,0.9770,-0.0937,-1.470,13.300,9.450,408,429,679,502,637,2025-05-23T21:32:14.051150
16181,-0.1259,0.9799,-0.0996,3.710,15.260,10.080,419,405,678,497,620,2025-05-23T21:32:14.112810
16182,-0.1645,1.0024,-0.0937,2.100,10.850,11.200,360,404,656,498,624,2025-05-23T21:32:14.112856
16183,-0.1835,1.0180,-0.0898,-6.790,2.450,13.580,358,421,682,503,610,2025-05-23T21:32:14.112868
16184,-0.1576,1.0043,-0.1035,-13.020,-3.570,14.000,366,306,658,494,631,2025-05-23T21:32:14.112878
16185,-0.0878,0.9828,-0.1103,-15.470,-4.480,13.230,385,366,675,504,627,2025-05-23T21:32:14.263378
16186,-0.0268,0.9711,-0.1127,-12.390,1.190,13.370,390,417,676,469,612,2025-05-23T21:32:14.263452
16187,-0.0244,0.9711,-0.1005,-7.560,6.440,12.320,400,424,687,441,637,2025-05-23T21:32:14.263473
16188,-0.0434,0.9633,-0.0961,-3.290,9.030,10.360,391,423,677,481,640,2025-05-23T21:32:14.263490
16189,-0.0620,0.9614,-0.0771,-2.450,5.460,7.840,400,363,683,511,638,2025-05-23T21:32:14.263506
16190,-0.0874,0.9599,-0.0600,-5.740,0.560,4.900,409,383,676,505,619,2025-05-23T21:32:14.263521
16191,-0.1244,0.9570,-0.0610,-8.470,-4.970,3.220,413,403,681,508,633,2025-05-23T21:32:14.263534
16192,-0.1205,0.9584,-0.0532,-9.450,-7.700,2.380,402,370,663,491,617,2025-05-23T21:32:14.263547
16193,-0.0913,0.9550,-0.0566,-8.960,-6.160,2.380,419,382,689,508,616,2025-05-23T21:32:14.263562
16194,-0.0600,0.9487,-0.0727,-5.390,-0.070,2.730,415,401,684,450,634,2025-05-23T21:32:14.263577
16195,-0.0468,0.9560,-0.0820,-1.610,6.930,2.660,422,397,683,477,630,2025-05-23T21:32:14.263591
16196,-0.0468,0.9672,-0.0913,2.380,9.870,1.540,426,411,686,509,622,2025-05-23T21:32:14.263603
16197,-0.0537,0.9789,-0.0893,3.990,11.340,0.280,421,392,693,499,635,2025-05-23T21:32:14.263616
16198,-0.0956,0.9862,-0.0883,2.730,7.000,-0.980,402,417,673,493,635,2025-05-23T21:32:14.263629
16199,-0.1098,0.9819,-0.0805,0.000,-0.560,-1.330,424,422,670,499,633,2025-05-23T21:32:14.313046
16200,-0.1298,0.9750,-0.0903,-0.770,-7.210,-1.890,427,434,690,516,642,2025-05-23T21:32:14.313106
16201,-0.1210,0.9867,-0.0859,-1.120,-9.450,-1.470,407,402,697,508,644,2025-05-23T21:32:14.313121
16202,-0.1039,0.9838,-0.0956,-1.050,-7.210,-1.190,415,422,694,499,618,2025-05-23T21:32:14.313134
16203,-0.0971,0.9750,-0.1049,0.560,-1.470,-1.330,424,378,691,510,645,2025-05-23T21:32:14.364052
16204,-0.1142,0.9897,-0.0991,2.170,1.400,-0.910,427,339,686,497,630,2025-05-23T21:32:14.364098
16205,-0.1313,0.9941,-0.0815,2.240,-0.140,-0.140,430,334,685,494,629,2025-05-23T21:32:14.364323
16206,-0.1244,0.9921,-0.0683,1.190,-3.360,0.210,404,400,684,515,638,2025-05-23T21:32:14.364336
16207,-0.1035,0.9823,-0.0693,0.840,-4.690,0.000,421,391,677,509,621,2025-05-23T21:32:14.364345
16208,-0.0956,0.9853,-0.0839,1.610,-4.970,-0.420,406,395,697,495,619,2025-05-23T21:32:14.414511
16209,-0.0864,0.9882,-0.0956,2.870,-4.130,-0.490,341,386,696,515,621,2025-05-23T21:32:14.414536
16210,-0.0981,1.0009,-0.1137,3.850,-3.850,-0.350,388,406,696,531,634,2025-05-23T21:32:14.414541
16211,-0.1044,1.0082,-0.1205,3.640,-5.180,0.560,414,418,681,522,622,2025-05-23T21:32:14.414545
16212,-0.0927,1.0058,-0.1152,1.680,-5.950,1.120,423,412,685,505,631,2025-05-23T21:32:14.667989
16213,-0.0859,1.0009,-0.1113,-0.140,-4.760,0.490,413,423,691,500,627,2025-05-23T21:32:14.896046
16214,-0.1064,1.0028,-0.1118,-1.050,-4.690,0.140,397,420,697,512,632,2025-05-23T21:32:14.896106
16215,-0.0996,1.0063,-0.1035,-1.330,-5.180,0.000,412,423,686,521,637,2025-05-23T21:32:14.896124
16216,-0.0869,0.9984,-0.0854,-2.100,-5.250,-0.490,414,354,697,520,586,2025-05-23T21:32:14.896138
16217,-0.0752,0.9862,-0.0722,-3.640,-5.600,-1.190,337,403,683,493,616,2025-05-23T21:32:14.896153
16218,-0.0849,0.9799,-0.0888,-2.730,-7.070,-2.030,365,341,690,515,641,2025-05-23T21:32:14.896167
16219,-0.1093,0.9955,-0.1015,-0.560,-10.010,-1.120,391,393,696,462,601,2025-05-23T21:32:14.896181
16220,-0.0981,1.0087,-0.0971,0.630,-9.520,-0.280,397,415,687,487,636,2025-05-23T21:32:14.896193
16221,-0.0952,1.0097,-0.0971,-0.910,-7.000,0.630,406,355,696,510,644,2025-05-23T21:32:14.896205
16222,-0.0956,1.0063,-0.0932,-2.660,-5.110,1.050,353,410,697,512,595,2025-05-23T21:32:14.896218
16223,-0.1020,0.9936,-0.0947,-3.220,-6.020,0.700,410,415,699,500,603,2025-05-23T21:32:14.896229
16224,-0.0825,0.9848,-0.0917,-2.380,-6.370,0.350,403,392,687,514,587,2025-05-23T21:32:14.896241
16225,-0.0683,0.9848,-0.0874,-2.660,-4.200,-0.700,401,399,693,512,635,2025-05-23T21:32:14.896251
16226,-0.0673,0.9804,-0.0888,-2.940,-1.610,-1.680,406,376,693,458,585,2025-05-23T21:32:14.896326
16227,-0.0942,0.9838,-0.1059,-1.680,-1.120,-3.150,405,408,699,505,621,2025-05-23T21:32:14.896340
16228,-0.1191,0.9945,-0.1127,0.630,-4.200,-2.240,416,411,689,498,641,2025-05-23T21:32:14.896352
16229,-0.1161,1.0009,-0.1064,1.190,-4.760,-1.330,397,418,688,523,641,2025-05-23T21:32:14.896364
16230,-0.1200,1.0048,-0.1025,-0.350,-4.620,-0.490,390,413,688,515,626,2025-05-23T21:32:14.896377
16231,-0.1176,1.0014,-0.0956,-2.170,-5.180,-0.210,419,405,697,500,650,2025-05-23T21:32:14.896389
16232,-0.1039,0.9911,-0.0844,-3.850,-6.720,-0.560,419,402,673,514,645,2025-05-23T21:32:14.896401
16233,-0.0795,0.9823,-0.0688,-5.250,-7.630,-1.680,427,414,692,467,637,2025-05-23T21:32:14.896413
16234,-0.0659,0.9667,-0.0547,-6.370,-7.980,-3.920,397,420,674,512,626,2025-05-23T21:32:14.896425
16235,-0.0566,0.9550,-0.0508,-5.600,-8.610,-6.300,403,420,703,516,638,2025-05-23T21:32:14.896437
16236,-0.0532,0.9511,-0.0508,-2.450,-8.400,-7.700,391,415,695,504,644,2025-05-23T21:32:14.896448
16237,-0.0581,0.9540,-0.0532,1.120,-6.440,-8.540,392,422,687,509,643,2025-05-23T21:32:14.896460
16238,-0.0576,0.9516,-0.0517,3.850,-3.220,-8.540,341,417,695,501,647,2025-05-23T21:32:14.896471
16239,-0.0859,0.9565,-0.0639,6.090,-1.680,-8.470,403,354,691,520,611,2025-05-23T21:32:14.896482
16240,-0.1059,0.9740,-0.0625,7.630,-2.380,-8.330,414,407,688,511,627,2025-05-23T21:32:14.896492
16241,-0.1152,0.9877,-0.0732,6.440,-4.690,-8.400,421,396,677,500,593,2025-05-23T21:32:14.896521
16242,-0.1103,0.9921,-0.0913,5.530,-5.810,-8.330,350,412,695,507,633,2025-05-23T21:32:14.896533
16243,-0.1274,1.0038,-0.1103,5.880,-7.070,-7.700,400,356,687,499,591,2025-05-23T21:32:14.896546
16244,-0.1313,1.0160,-0.1235,6.300,-8.120,-6.230,401,396,662,498,626,2025-05-23T21:32:14.896558
16245,-0.1279,1.0248,-0.1322,6.510,-7.350,-4.900,410,414,668,466,627,2025-05-23T21:32:14.896569
16246,-0.1303,1.0185,-0.1357,5.040,-5.040,-4.130,421,417,691,513,624,2025-05-23T21:32:14.896582
16247,-0.1581,1.0233,-0.1444,3.780,-4.200,-3.430,428,430,705,523,623,2025-05-23T21:32:14.896594
16248,-0.1703,1.0311,-0.1322,2.100,-4.900,-2.100,412,433,687,495,638,2025-05-23T21:32:14.896607
16249,-0.1659,1.0326,-0.1191,-0.140,-4.200,-1.610,433,427,686,501,634,2025-05-23T21:32:14.896618
16250,-0.1591,1.0268,-0.1220,-2.100,-3.640,-0.350,409,403,683,498,632,2025-05-23T21:32:15.084674
16251,-0.1449,1.0219,-0.1137,-2.870,-3.220,0.770,341,413,697,520,649,2025-05-23T21:32:15.084720
16252,-0.1362,1.0136,-0.1093,-3.360,-2.940,1.050,388,413,703,498,625,2025-05-23T21:32:15.084732
16253,-0.1225,1.0019,-0.1098,-4.060,-2.660,1.120,417,406,691,520,627,2025-05-23T21:32:15.084743
16254,-0.1220,0.9877,-0.1108,-4.270,-2.940,1.260,393,417,692,510,646,2025-05-23T21:32:15.084754
16255,-0.1244,0.9814,-0.0981,-4.410,-4.410,0.910,419,422,697,497,637,2025-05-23T21:32:15.084766
16256,-0.1196,0.9867,-0.0854,-6.020,-5.740,0.420,396,393,683,500,608,2025-05-23T21:32:15.084776
16257,-0.1054,0.9823,-0.0834,-7.070,-5.320,0.350,404,415,700,464,636,2025-05-23T21:32:15.084785
16258,-0.1049,0.9833,-0.0869,-6.370,-3.990,0.070,401,428,689,443,638,2025-05-23T21:32:15.084794
16259,-0.1010,0.9862,-0.0825,-4.200,-2.590,-0.210,397,415,693,486,647,2025-05-23T21:32:15.084803
16260,-0.1020,0.9848,-0.0820,-3.010,-0.980,-0.070,341,420,698,506,611,2025-05-23T21:32:15.084812
16261,-0.1240,0.9848,-0.0898,-1.680,-0.560,0.420,403,351,692,505,628,2025-05-23T21:32:15.084821
16262,-0.1254,0.9916,-0.0849,-1.190,-2.100,0.910,416,341,698,515,627,2025-05-23T21:32:15.084830
16263,-0.1283,0.9960,-0.0800,-2.030,-3.150,0.630,421,387,687,500,634,2025-05-23T21:32:15.084954
16264,-0.1415,1.0009,-0.0830,-3.430,-4.410,0.770,424,393,701,495,628,2025-05-23T21:32:15.084964
16265,-0.1352,1.0014,-0.0810,-4.760,-5.670,0.910,406,346,698,502,627,2025-05-23T21:32:15.085010
16266,-0.1308,0.9945,-0.0849,-5.390,-6.720,0.490,390,421,702,529,637,2025-05-23T21:32:15.085020
16267,-0.1313,0.9906,-0.0815,-5.460,-8.260,0.420,399,408,695,517,628,2025-05-23T21:32:15.085029
16268,-0.1225,0.9926,-0.0791,-6.440,-9.030,0.350,424,410,690,520,635,2025-05-23T21:32:15.285852
16269,-0.1152,0.9828,-0.0893,-6.370,-9.310,-0.140,416,429,700,510,649,2025-05-23T21:32:15.286092
16270,-0.1132,0.9843,-0.0834,-5.740,-9.310,-0.070,397,400,699,500,627,2025-05-23T21:32:15.286107
16271,-0.1264,0.9877,-0.0688,-5.880,-9.730,0.000,421,420,665,499,647,2025-05-23T21:32:15.286119
16272,-0.1269,0.9877,-0.0595,-5.740,-10.360,-0.210,424,409,687,524,647,2025-05-23T21:32:15.286131
16273,-0.1274,0.9921,-0.0571,-4.970,-10.850,0.140,394,403,690,513,627,2025-05-23T21:32:15.286141
16274,-0.1220,0.9994,-0.0600,-4.550,-10.500,0.490,413,417,698,507,635,2025-05-23T21:32:15.286152
16275,-0.1093,0.9906,-0.0712,-2.590,-9.240,0.700,427,401,690,510,644,2025-05-23T21:32:15.286163
16276,-0.1015,0.9902,-0.0795,-0.980,-7.980,1.120,415,403,686,509,623,2025-05-23T21:32:15.286173
16277,-0.0913,0.9843,-0.0888,0.560,-5.460,1.260,395,404,667,503,594,2025-05-23T21:32:15.286182
16278,-0.1069,0.9862,-0.0839,1.120,-4.130,1.190,391,407,685,500,642,2025-05-23T21:32:15.286194
16279,-0.1152,0.9902,-0.0786,0.210,-4.130,0.350,401,344,694,520,636,2025-05-23T21:32:15.286203
16280,-0.1205,0.9906,-0.0712,-2.450,-5.250,-0.210,399,398,695,524,601,2025-05-23T21:32:15.286214
16281,-0.1269,0.9965,-0.0781,-5.110,-8.190,-0.280,413,402,699,517,644,2025-05-23T21:32:15.286224
16282,-0.1196,1.0038,-0.0825,-6.090,-11.200,-1.400,354,301,685,507,637,2025-05-23T21:32:15.286272
16283,-0.1064,1.0053,-0.0786,-6.510,-12.320,-1.750,394,396,691,512,634,2025-05-23T21:32:15.286282
16284,-0.0961,0.9911,-0.0810,-6.020,-9.450,-1.960,405,409,698,524,647,2025-05-23T21:32:15.286292
16285,-0.1078,0.9843,-0.0727,-4.690,-6.650,-1.890,396,397,684,525,652,2025-05-23T21:32:15.493351
16286,-0.1225,0.9853,-0.0610,-3.360,-4.690,-1.960,414,422,708,519,627,2025-05-23T21:32:15.493416
16287,-0.1327,0.9902,-0.0449,-4.480,-5.390,-2.170,349,407,701,522,633,2025-05-23T21:32:15.493433
16288,-0.1435,0.9902,-0.0454,-7.000,-8.120,-2.800,328,418,703,519,628,2025-05-23T21:32:15.493472
16289,-0.1313,0.9892,-0.0566,-7.770,-11.480,-3.290,375,403,686,517,629,2025-05-23T21:32:15.493488
16290,-0.1142,0.9877,-0.0630,-7.070,-12.670,-3.640,392,375,699,522,657,2025-05-23T21:32:15.493508
16291,-0.1010,0.9843,-0.0644,-5.530,-10.220,-3.430,413,389,689,530,644,2025-05-23T21:32:15.493522
16292,-0.1127,0.9809,-0.0620,-3.360,-6.230,-2.450,396,411,693,525,633,2025-05-23T21:32:15.493535
16293,-0.1386,0.9877,-0.0605,-1.400,-5.320,-1.960,419,392,694,529,639,2025-05-23T21:32:15.493549
16294,-0.1537,0.9945,-0.0556,-0.770,-7.910,-2.030,346,378,679,525,626,2025-05-23T21:32:15.493562
16295,-0.1532,0.9994,-0.0488,-2.590,-10.360,-1.890,388,397,699,509,625,2025-05-23T21:32:15.493575
16296,-0.1576,1.0063,-0.0561,-5.180,-13.440,-2.100,410,423,704,517,649,2025-05-23T21:32:15.493589
16297,-0.1435,1.0067,-0.0551,-6.510,-15.400,-3.150,418,361,700,486,648,2025-05-23T21:32:15.493604
16298,-0.1283,0.9843,-0.0620,-6.370,-15.470,-3.850,386,339,701,503,635,2025-05-23T21:32:15.493616
16299,-0.1152,0.9633,-0.0659,-4.620,-12.040,-4.060,390,359,706,508,629,2025-05-23T21:32:15.493673
16300,-0.1322,0.9662,-0.0547,-3.080,-9.520,-4.060,405,405,695,510,644,2025-05-23T21:32:15.493685
16301,-0.1508,0.9775,-0.0483,-2.730,-9.520,-3.920,389,391,699,523,648,2025-05-23T21:32:15.493697
16302,-0.1484,0.9862,-0.0420,-3.640,-12.320,-3.150,399,388,700,479,643,2025-05-23T21:32:15.695513
16303,-0.1352,0.9955,-0.0400,-5.390,-15.680,-3.010,398,418,697,485,640,2025-05-23T21:32:15.695565
16304,-0.1181,0.9955,-0.0346,-5.670,-17.080,-2.940,375,395,705,491,639,2025-05-23T21:32:15.695580
16305,-0.1132,0.9931,-0.0420,-4.200,-16.170,-2.520,377,387,695,513,638,2025-05-23T21:32:15.695593
16306,-0.1127,0.9862,-0.0503,-1.260,-13.930,-2.100,393,398,703,522,626,2025-05-23T21:32:15.695608
16307,-0.1069,0.9862,-0.0468,0.770,-10.290,-1.540,415,421,691,529,647,2025-05-23T21:32:15.695620
16308,-0.1249,0.9887,-0.0498,0.700,-8.680,-0.910,424,424,676,534,611,2025-05-23T21:32:15.695632
16309,-0.1322,0.9936,-0.0517,-0.210,-9.730,-0.490,424,425,685,512,637,2025-05-23T21:32:15.695643
16310,-0.1322,0.9999,-0.0503,-1.610,-11.340,-0.280,405,410,702,515,645,2025-05-23T21:32:15.695654
16311,-0.1376,1.0019,-0.0493,-3.220,-13.860,-0.630,393,419,700,469,635,2025-05-23T21:32:15.695669
16312,-0.1347,0.9970,-0.0420,-3.710,-15.890,-0.700,401,402,679,509,649,2025-05-23T21:32:15.695678
16313,-0.1254,0.9926,-0.0376,-3.710,-17.010,-0.560,417,411,701,515,646,2025-05-23T21:32:15.695688
16314,-0.1098,0.9819,-0.0288,-2.590,-15.540,-0.350,426,399,702,532,608,2025-05-23T21:32:15.695697
16315,-0.1132,0.9760,-0.0278,-0.770,-11.340,-0.210,384,416,675,534,634,2025-05-23T21:32:15.695706
16316,-0.2499,0.9770,-0.0288,2.450,-8.610,0.350,420,430,674,518,598,2025-05-23T21:32:15.695746
16317,-0.1371,0.9882,-0.0259,4.620,-7.490,0.000,425,423,698,518,644,2025-05-23T21:32:15.695757
16318,-0.1493,1.0004,-0.0303,3.710,-8.470,-0.490,377,388,671,519,642,2025-05-23T21:32:15.695767
16319,-0.1513,1.0102,-0.0434,0.560,-10.360,-0.560,415,420,705,526,654,2025-05-23T21:32:15.750106
16320,-0.1503,1.0058,-0.0590,-1.680,-11.970,-0.700,431,417,703,524,594,2025-05-23T21:32:15.750152
16321,-0.1645,1.0043,-0.0673,-2.590,-14.000,-0.770,411,350,690,521,641,2025-05-23T21:32:15.750164
16322,-0.1557,0.9999,-0.0625,-2.240,-15.960,-0.980,408,396,673,501,640,2025-05-23T21:32:15.750177
16323,-0.1235,0.9887,-0.0576,-2.380,-14.280,-0.560,353,337,686,512,650,2025-05-23T21:32:15.750186
16324,-0.1122,0.9823,-0.0605,-1.330,-10.570,-0.140,382,391,697,526,658,2025-05-23T21:32:15.901089
16325,-0.1157,0.9862,-0.0537,1.120,-7.700,-0.490,420,363,683,502,646,2025-05-23T21:32:15.901143
16326,-0.1254,0.9926,-0.0420,2.240,-6.580,-0.770,409,374,703,507,636,2025-05-23T21:32:15.901158
16327,-0.1469,0.9994,-0.0322,1.120,-7.350,-1.050,424,393,688,506,640,2025-05-23T21:32:15.901170
16328,-0.1484,1.0009,-0.0259,-1.470,-9.380,-1.050,383,388,691,524,652,2025-05-23T21:32:15.901183
16329,-0.1420,0.9975,-0.0244,-2.520,-10.570,-1.050,415,418,693,506,647,2025-05-23T21:32:15.901194
16330,-0.1488,0.9921,-0.0327,-0.980,-10.570,-0.910,420,426,709,501,638,2025-05-23T21:32:15.901206
16331,-0.1391,0.9921,-0.0283,0.700,-9.100,-0.490,383,401,697,522,634,2025-05-23T21:32:15.901217
16332,-0.1249,0.9941,-0.0278,2.380,-7.560,-0.350,387,414,695,464,626,2025-05-23T21:32:15.901228
16333,-0.1303,0.9950,-0.0317,2.170,-7.140,-0.350,405,399,708,492,646,2025-05-23T21:32:15.901239
16334,-0.1332,0.9999,-0.0293,-0.210,-8.610,-0.210,350,394,669,503,631,2025-05-23T21:32:15.901250
16335,-0.1318,0.9960,-0.0337,-2.310,-9.520,-0.630,381,393,702,520,606,2025-05-23T21:32:15.901261
16336,-0.1366,0.9853,-0.0429,-2.030,-9.590,-0.560,397,414,703,534,657,2025-05-23T21:32:15.949647
16337,-0.1274,0.9833,-0.0356,-0.630,-8.750,-0.350,405,408,694,543,633,2025-05-23T21:32:15.949701
16338,-0.1161,0.9770,-0.0356,0.210,-6.790,-0.070,410,436,667,520,636,2025-05-23T21:32:15.949714
16339,-0.1161,0.9706,-0.0376,1.260,-5.600,-0.140,405,441,701,517,644,2025-05-23T21:32:15.949726
16340,-0.1157,0.9628,-0.0395,2.450,-5.040,-0.770,372,432,697,503,645,2025-05-23T21:32:15.999275
16341,-0.1074,0.9516,-0.0366,3.500,-4.340,-1.890,397,423,694,512,649,2025-05-23T21:32:15.999349
16342,-0.1254,0.9477,-0.0307,4.200,-3.010,-3.220,413,412,697,517,630,2025-05-23T21:32:15.999372
16343,-0.1381,0.9462,-0.0171,4.410,-3.500,-4.760,342,400,706,524,650,2025-05-23T21:32:15.999388
16344,-0.1444,0.9418,-0.0088,3.990,-4.760,-6.440,331,388,665,527,642,2025-05-23T21:32:16.104710
16345,-0.1503,0.9355,-0.0068,4.340,-6.650,-7.420,385,427,705,513,627,2025-05-23T21:32:16.104757
16346,-0.1527,0.9409,-0.0068,5.460,-7.000,-8.260,420,384,709,507,645,2025-05-23T21:32:16.104769
16347,-0.1479,0.9457,-0.0122,7.770,-6.300,-8.960,427,403,699,529,642,2025-05-23T21:32:16.104908
16348,-0.1508,0.9628,-0.0205,10.080,-5.040,-9.450,420,400,674,516,639,2025-05-23T21:32:16.104922
16349,-0.1620,0.9843,-0.0327,10.780,-6.020,-9.800,412,348,695,511,652,2025-05-23T21:32:16.104931
16350,-0.1664,1.0116,-0.0434,9.870,-8.540,-9.380,373,389,689,507,647,2025-05-23T21:32:16.104941
16351,-0.1693,1.0302,-0.0581,7.910,-11.760,-8.680,415,396,669,526,641,2025-05-23T21:32:16.104950
16352,-0.1679,1.0355,-0.0805,6.370,-13.440,-7.770,423,402,705,505,651,2025-05-23T21:32:16.104960
16353,-0.1684,1.0380,-0.0874,5.810,-12.670,-6.230,394,348,700,523,654,2025-05-23T21:32:16.313185
16354,-0.1752,1.0360,-0.0956,5.880,-10.710,-4.130,425,398,670,518,633,2025-05-23T21:32:16.313236
16355,-0.1771,1.0331,-0.0952,5.180,-9.730,-2.030,411,401,706,514,650,2025-05-23T21:32:16.313251
16356,-0.1767,1.0307,-0.0903,3.990,-9.940,-0.280,422,420,683,528,641,2025-05-23T21:32:16.313264
16357,-0.1708,1.0355,-0.0791,2.450,-11.410,0.770,418,357,708,505,649,2025-05-23T21:32:16.313276
16358,-0.1557,1.0316,-0.0737,1.540,-10.920,1.820,430,394,701,520,641,2025-05-23T21:32:16.313289
16359,-0.1625,1.0272,-0.0683,0.910,-9.940,2.940,414,405,701,510,636,2025-05-23T21:32:16.313301
16360,-0.1654,1.0102,-0.0669,1.260,-9.100,3.640,422,416,680,516,615,2025-05-23T21:32:16.313313
16361,-0.1527,0.9999,-0.0561,0.840,-8.120,4.410,400,418,707,520,636,2025-05-23T21:32:16.313324
16362,-0.1493,0.9941,-0.0512,-0.560,-6.860,4.480,420,406,707,517,653,2025-05-23T21:32:16.313338
16363,-0.1527,0.9882,-0.0468,-1.190,-7.140,4.410,424,397,711,514,601,2025-05-23T21:32:16.313349
16364,-0.1493,0.9926,-0.0264,-1.610,-8.470,2.870,399,384,710,531,639,2025-05-23T21:32:16.313360
16365,-0.1606,0.9862,-0.0185,-2.450,-11.690,1.540,401,341,697,523,656,2025-05-23T21:32:16.313371
16366,-0.1737,0.9814,-0.0229,-2.870,-14.910,-0.070,429,392,715,514,646,2025-05-23T21:32:16.313381
16367,-0.1688,0.9770,-0.0229,-4.410,-18.620,-1.260,406,418,685,515,656,2025-05-23T21:32:16.313425
16368,-0.1688,0.9389,-0.0312,-5.670,-22.190,-3.150,377,421,700,505,639,2025-05-23T21:32:16.313437
16369,-0.1698,0.8926,-0.0288,-6.370,-23.660,-7.140,402,433,707,524,601,2025-05-23T21:32:16.313447
16370,-0.2030,0.8067,-0.0156,-7.070,-25.760,-16.380,405,406,707,507,643,2025-05-23T21:32:16.362366
16371,-0.2777,0.7198,0.0542,-9.730,-31.920,-31.710,412,414,711,506,662,2025-05-23T21:32:16.362411
16372,-0.4763,0.6515,0.1454,-16.730,-45.710,-52.360,435,424,702,495,635,2025-05-23T21:32:16.362423
16373,-0.6871,0.5983,0.3470,-29.400,-84.350,-74.270,399,420,705,502,659,2025-05-23T21:32:16.362434
16374,-0.7788,0.5031,0.5173,-50.540,-138.530,-110.950,420,381,703,501,658,2025-05-23T21:32:16.362443
16375,-0.7398,0.3650,0.6534,-66.640,-185.150,-141.470,400,356,683,523,655,2025-05-23T21:32:16.411665
16376,-0.7169,0.2347,0.7613,-68.110,-196.630,-177.590,417,385,712,485,650,2025-05-23T21:32:16.411711
16377,-0.7403,0.1376,0.9272,-63.210,-186.270,-215.810,431,411,711,514,636,2025-05-23T21:32:16.411723
16378,-0.8467,0.1205,1.0902,-68.880,-180.390,-254.800,434,409,715,514,645,2025-05-23T21:32:16.411733
16379,-0.9599,0.1786,1.1858,-63.140,-184.030,-288.680,404,303,700,514,645,2025-05-23T21:32:16.461411
16380,-1.0102,0.2489,1.1824,-68.180,-197.190,-314.790,383,370,709,505,646,2025-05-23T21:32:16.461459
16381,-1.0429,0.4675,1.1980,-72.590,-216.580,-333.970,396,391,706,505,631,2025-05-23T21:32:16.461473
16382,-1.1136,0.7374,1.1741,-90.930,-243.880,-342.230,407,384,701,523,646,2025-05-23T21:32:16.461484
16383,-1.0995,0.8950,1.1195,-102.970,-259.980,-343.000,416,391,707,518,634,2025-05-23T21:32:16.700879
16384,-1.1253,1.0990,1.0546,-110.600,-255.780,-342.370,427,415,695,527,628,2025-05-23T21:32:16.700927
16385,-1.1639,1.3039,1.0555,-107.590,-239.680,-343.560,410,419,704,507,646,2025-05-23T21:32:16.700940
16386,-1.2224,1.6133,1.0614,-105.700,-236.600,-331.660,390,415,691,515,637,2025-05-23T21:32:16.700955
16387,-1.2937,2.0071,1.0448,-109.480,-240.240,-315.070,412,371,703,504,648,2025-05-23T21:32:16.700966
16388,-1.3527,2.3873,0.9487,-98.910,-245.000,-284.550,402,450,695,523,638,2025-05-23T21:32:16.700977
16389,-1.3518,2.8963,0.9828,-102.130,-251.930,-235.410,408,434,689,518,649,2025-05-23T21:32:16.700988
16390,-1.3337,3.2676,0.9614,-102.270,-255.500,-166.810,421,447,665,519,824,2025-05-23T21:32:16.701000
16391,-1.4308,3.6615,0.9648,-108.080,-276.920,-110.880,435,441,679,522,827,2025-05-23T21:32:16.701010
16392,-1.3474,3.9728,0.9404,-128.730,-297.360,-45.850,425,466,702,518,837,2025-05-23T21:32:16.701020
16393,-1.0243,4.3203,0.7310,-163.030,-297.430,7.840,355,458,711,530,841,2025-05-23T21:32:16.701029
16394,-0.8023,4.3964,0.3148,-178.010,-248.500,59.290,404,471,705,526,845,2025-05-23T21:32:16.701039
16395,-0.8164,4.3042,-0.3933,-164.640,-169.680,129.570,345,457,704,471,848,2025-05-23T21:32:16.701048
16396,-1.7178,4.2310,-1.3493,-117.460,-133.280,223.160,388,467,715,496,850,2025-05-23T21:32:16.701088
16397,-2.1784,4.3188,-2.0491,-93.940,-133.140,290.570,399,449,731,527,868,2025-05-23T21:32:16.701098
16398,-3.2086,4.2256,-2.6659,-144.830,-133.700,329.350,394,474,742,527,874,2025-05-23T21:32:16.701108
16399,-4.2759,3.9914,-3.2066,-263.200,-140.140,364.140,421,446,746,544,671,2025-05-23T21:32:16.701117
16400,-5.5310,3.3887,-3.3760,-380.800,-110.390,404.810,419,452,718,531,599,2025-05-23T21:32:16.701127
16401,-6.5216,2.3717,-3.3184,-453.460,-96.950,474.880,416,412,742,541,634,2025-05-23T21:32:16.701137
16402,-6.6441,1.0575,-2.8934,-464.030,-75.810,568.470,409,437,729,518,634,2025-05-23T21:32:16.751098
16403,-5.9619,-0.2767,-2.2785,-427.420,-25.200,662.060,393,454,736,527,626,2025-05-23T21:32:16.751140
16404,-5.2645,-1.0760,-1.7031,-408.380,43.750,706.860,382,464,732,520,588,2025-05-23T21:32:16.751151
16405,-4.8951,-1.7973,-1.3449,-383.600,49.630,687.890,368,436,725,507,614,2025-05-23T21:32:16.751160
16406,-4.3247,-2.4327,-1.0048,-349.510,13.440,637.070,417,379,693,519,665,2025-05-23T21:32:16.751169
16407,-4.0846,-2.7928,-0.6407,-324.170,-52.080,587.790,404,371,687,534,687,2025-05-23T21:32:16.802790
16408,-3.6478,-3.2140,-0.1591,-301.770,-130.200,541.310,403,399,707,524,848,2025-05-23T21:32:16.802839
16409,-3.0871,-3.5448,0.0122,-252.350,-180.320,500.780,416,431,713,521,850,2025-05-23T21:32:16.802853
16410,-2.4815,-3.9308,0.0664,-155.330,-171.430,460.460,408,434,716,511,846,2025-05-23T21:32:16.802865
16411,-2.0354,-3.8825,0.0878,-44.800,-126.910,422.100,421,409,719,509,827,2025-05-23T21:32:16.923104
16412,-1.8222,-3.6341,0.0732,51.240,-106.960,389.480,402,423,698,514,669,2025-05-23T21:32:16.923149
16413,-1.5084,-3.3950,0.1859,111.160,-90.580,348.390,401,425,703,495,655,2025-05-23T21:32:16.942591
16414,-1.2200,-3.1242,0.3231,154.910,-69.510,301.350,389,405,713,514,679,2025-05-23T21:32:16.942630
16415,-0.9043,-2.7435,0.4929,158.480,-51.940,256.690,397,401,711,517,669,2025-05-23T21:32:16.942642
16416,-0.7008,-2.3165,0.5680,133.210,-29.680,203.420,390,399,701,525,679,2025-05-23T21:32:16.942652
16417,-0.4997,-1.8900,0.5783,119.210,-11.410,173.600,406,400,710,503,672,2025-05-23T21:32:16.942662
16418,-0.3894,-1.7148,0.5495,125.020,-4.760,125.650,417,401,708,512,767,2025-05-23T21:32:16.942672
16419,-0.3875,-1.4167,0.5163,147.840,-20.720,84.420,399,420,706,509,779,2025-05-23T21:32:16.942681
16420,-0.4085,-1.1087,0.5851,165.340,-42.420,45.640,409,402,705,520,784,2025-05-23T21:32:16.942690
16421,-0.3772,-0.8345,0.7740,174.300,-47.460,2.590,397,423,717,508,771,2025-05-23T21:32:16.976071
16422,-0.3743,-0.6266,0.9511,160.090,-40.740,-35.560,393,421,702,519,772,2025-05-23T21:32:16.976130
16423,-0.4914,-0.4480,1.0233,137.410,-26.460,-66.640,405,433,696,528,769,2025-05-23T21:32:16.976146
16424,-0.6754,-0.3514,0.9531,122.710,-22.330,-85.260,414,390,689,516,772,2025-05-23T21:32:16.976161
16425,-0.7681,-0.2782,0.8194,128.170,-31.220,-98.350,421,390,689,510,819,2025-05-23T21:32:17.127974
16426,-0.8130,-0.1186,0.8023,148.680,-52.710,-100.030,392,425,693,510,817,2025-05-23T21:32:17.128017
16427,-0.7276,0.0571,0.8467,168.630,-57.750,-105.700,384,397,686,521,823,2025-05-23T21:32:17.128030
16428,-0.6544,0.2777,0.9218,175.210,-51.240,-114.450,411,418,700,498,828,2025-05-23T21:32:17.128041
16429,-0.6881,0.4246,0.9223,175.350,-52.150,-121.660,394,408,697,510,828,2025-05-23T21:32:17.128242
16430,-0.7871,0.4856,0.8184,176.680,-66.080,-132.650,381,413,703,490,825,2025-05-23T21:32:17.128254
16431,-0.8272,0.5095,0.6822,182.490,-96.250,-142.380,401,417,694,489,824,2025-05-23T21:32:17.128263
16432,-0.8320,0.5783,0.5910,190.190,-129.360,-144.900,400,430,697,496,823,2025-05-23T21:32:17.128273
16433,-0.7305,0.7047,0.5514,197.260,-150.290,-140.210,404,407,701,512,797,2025-05-23T21:32:17.128283
16434,-0.4538,0.9096,0.5510,201.670,-141.750,-130.270,424,360,696,512,740,2025-05-23T21:32:17.128292
16435,-0.2782,1.0282,0.5207,209.160,-114.380,-113.680,368,404,691,498,755,2025-05-23T21:32:17.128301
16436,-0.2645,1.0770,0.4314,216.230,-96.180,-94.220,391,433,702,487,746,2025-05-23T21:32:17.128310
16437,-0.3997,1.1283,0.3382,222.810,-100.590,-82.180,344,353,696,499,739,2025-05-23T21:32:17.128318
16438,-0.5095,1.1761,0.3026,211.470,-123.620,-75.180,397,384,679,509,679,2025-05-23T21:32:17.333962
16439,-0.3660,1.2517,0.2103,192.710,-158.830,-69.510,422,379,696,522,663,2025-05-23T21:32:17.333991
16440,-0.0449,1.2649,0.1474,176.330,-164.570,-59.920,416,371,663,497,668,2025-05-23T21:32:17.333997
16441,0.1771,1.2756,0.1220,165.410,-142.520,-43.820,402,391,694,506,674,2025-05-23T21:32:17.334003
16442,0.2616,1.2434,0.0898,166.880,-109.480,-25.270,425,423,697,493,671,2025-05-23T21:32:17.334008
16443,0.1576,1.1932,0.0810,170.940,-92.610,-6.440,398,425,696,497,655,2025-05-23T21:32:17.334014
16444,0.0771,1.1780,0.1362,180.530,-88.270,1.540,409,422,715,510,669,2025-05-23T21:32:17.334019
16445,0.0405,1.1858,0.2103,181.230,-97.090,7.560,397,409,704,525,669,2025-05-23T21:32:17.334024
16446,0.0576,1.2581,0.1806,168.280,-112.070,15.190,390,405,705,525,847,2025-05-23T21:32:17.334029
16447,0.1625,1.3054,0.2279,146.440,-125.020,21.490,416,423,699,516,845,2025-05-23T21:32:17.334034
16448,0.3050,1.2917,0.2718,112.000,-124.880,28.140,399,404,711,491,843,2025-05-23T21:32:17.334040
16449,0.3889,1.2039,0.2918,84.490,-113.680,34.790,418,372,704,477,843,2025-05-23T21:32:17.334045
16450,0.3762,1.1136,0.3026,73.290,-102.200,40.740,413,415,699,496,837,2025-05-23T21:32:17.334049
16451,0.3650,1.0648,0.3265,75.250,-93.380,39.410,390,391,702,506,839,2025-05-23T21:32:17.334053
16452,0.3958,1.0487,0.3445,81.270,-87.920,34.370,410,426,675,512,824,2025-05-23T21:32:17.334077
16453,0.4460,1.0350,0.2967,83.720,-83.510,32.900,436,404,700,472,823,2025-05-23T21:32:17.334082
16454,0.4895,1.0302,0.2762,82.880,-75.600,33.040,411,428,662,499,648,2025-05-23T21:32:17.334087
16455,0.5236,1.0272,0.3001,73.780,-64.890,32.410,425,399,675,501,641,2025-05-23T21:32:17.382334
16456,0.4807,1.0302,0.3440,58.940,-53.130,29.960,429,410,698,500,612,2025-05-23T21:32:17.382507
16457,0.3811,1.0516,0.3767,37.100,-49.630,24.920,405,408,653,519,639,2025-05-23T21:32:17.382517
16458,0.3748,1.0350,0.3865,17.990,-53.830,18.200,413,418,655,520,649,2025-05-23T21:32:17.382525
16459,0.3689,0.9716,0.3548,0.490,-58.590,11.760,416,405,695,502,642,2025-05-23T21:32:17.547159
16460,0.3914,0.9345,0.3079,-2.450,-62.020,8.960,400,418,677,505,634,2025-05-23T21:32:17.547209
16461,0.3889,0.9048,0.2894,8.540,-55.020,8.750,421,421,684,508,632,2025-05-23T21:32:17.547222
16462,0.3440,0.8965,0.2933,19.460,-41.930,8.890,383,403,678,518,641,2025-05-23T21:32:17.547235
16463,0.3157,0.8911,0.3021,26.810,-27.790,9.800,389,391,673,520,606,2025-05-23T21:32:17.547245
16464,0.2933,0.8930,0.3255,24.850,-17.500,10.570,407,423,684,514,619,2025-05-23T21:32:17.547256
16465,0.2176,0.9096,0.3231,14.840,-15.330,9.590,394,352,659,495,613,2025-05-23T21:32:17.547266
16466,0.2142,0.9335,0.3133,1.750,-18.480,7.490,387,378,690,501,635,2025-05-23T21:32:17.547277
16467,0.2416,0.9218,0.2718,-7.000,-24.010,4.550,401,404,688,505,621,2025-05-23T21:32:17.547286
16468,0.2225,0.9018,0.2357,-6.230,-28.840,3.640,426,396,661,508,614,2025-05-23T21:32:17.547296
16469,0.2469,0.8911,0.2294,-1.890,-28.840,4.340,429,403,673,490,618,2025-05-23T21:32:17.547305
16470,0.2542,0.8818,0.2518,5.250,-24.220,4.690,434,412,680,508,631,2025-05-23T21:32:17.547315
16471,0.2430,0.8896,0.2826,9.450,-18.340,4.620,425,416,661,494,643,2025-05-23T21:32:17.547324
16472,0.2274,0.9018,0.3152,9.310,-11.900,3.640,430,428,686,517,637,2025-05-23T21:32:17.744780
16473,0.2250,0.9048,0.3284,5.880,-8.960,0.910,417,407,684,472,633,2025-05-23T21:32:17.744823
16474,0.2220,0.9043,0.3216,2.800,-9.730,-1.540,394,406,657,441,629,2025-05-23T21:32:17.744835
16475,0.2264,0.9018,0.3089,2.100,-11.900,-3.640,421,412,683,482,633,2025-05-23T21:32:17.744845
16476,0.2201,0.9033,0.3050,2.870,-13.090,-4.970,403,421,690,511,629,2025-05-23T21:32:17.744855
16477,0.2079,0.9028,0.3026,4.130,-13.090,-4.830,394,439,690,522,619,2025-05-23T21:32:17.744864
16478,0.2108,0.9052,0.3157,5.810,-12.460,-2.940,337,409,683,509,637,2025-05-23T21:32:17.744875
16479,0.2147,0.9170,0.3245,6.510,-9.100,-2.730,321,401,685,494,617,2025-05-23T21:32:17.744884
16480,0.2098,0.9360,0.3289,5.950,-7.980,-3.150,374,376,690,500,618,2025-05-23T21:32:17.744893
16481,0.2176,0.9418,0.3240,5.250,-8.680,-3.710,404,409,681,505,640,2025-05-23T21:32:17.744902
16482,0.2152,0.9565,0.3206,4.480,-10.570,-4.550,403,418,683,495,629,2025-05-23T21:32:17.744911
16483,0.2318,0.9545,0.3099,4.550,-11.340,-5.600,413,409,683,488,635,2025-05-23T21:32:17.744919
16484,0.2113,0.9526,0.2991,5.110,-11.830,-5.670,419,408,686,495,631,2025-05-23T21:32:17.744927
16485,0.1879,0.9487,0.2972,6.160,-12.320,-4.130,405,412,674,495,618,2025-05-23T21:32:17.744935
16486,0.1889,0.9560,0.3055,6.510,-11.270,-3.360,402,386,692,488,639,2025-05-23T21:32:17.744973
16487,0.1835,0.9501,0.3055,4.760,-9.800,-2.240,389,420,691,494,624,2025-05-23T21:32:17.744982
16488,0.1850,0.9526,0.3074,2.730,-7.980,-1.610,427,395,674,501,631,2025-05-23T21:32:17.744990
16489,0.1903,0.9496,0.2967,1.540,-7.420,-1.330,415,414,643,513,627,2025-05-23T21:32:17.948546
16490,0.1898,0.9423,0.2752,2.590,-7.560,-2.030,342,404,683,511,614,2025-05-23T21:32:17.948609
16491,0.1825,0.9550,0.2586,4.690,-9.030,-2.590,399,410,678,527,631,2025-05-23T21:32:17.948625
16492,0.1796,0.9682,0.2577,4.410,-10.710,-2.240,417,388,663,514,614,2025-05-23T21:32:17.948639
16493,0.1688,0.9716,0.2621,2.030,-12.530,-1.470,341,416,680,519,630,2025-05-23T21:32:17.948653
16494,0.1771,0.9726,0.2713,-1.610,-12.460,-0.910,288,397,676,529,630,2025-05-23T21:32:17.948667
16495,0.1923,0.9584,0.2786,-4.480,-11.200,-1.050,400,362,677,504,625,2025-05-23T21:32:17.948680
16496,0.2020,0.9433,0.2767,-5.180,-9.730,-1.540,392,398,661,493,621,2025-05-23T21:32:17.948693
16497,0.2113,0.9355,0.2743,-3.920,-8.470,-3.500,392,433,683,491,624,2025-05-23T21:32:17.948705
16498,0.2118,0.9331,0.2704,-1.610,-7.490,-4.690,394,379,668,518,619,2025-05-23T21:32:17.948719
16499,0.1893,0.9418,0.2743,-0.140,-7.980,-5.740,397,393,685,515,629,2025-05-23T21:32:17.948731
16500,0.1850,0.9521,0.2816,-0.630,-7.630,-5.180,394,415,686,521,624,2025-05-23T21:32:17.948742
16501,0.1825,0.9526,0.2830,-2.030,-7.000,-4.200,424,361,667,525,616,2025-05-23T21:32:17.948752
16502,0.1845,0.9423,0.2708,-2.660,-6.440,-3.360,368,412,693,501,608,2025-05-23T21:32:17.948763
16503,0.2001,0.9414,0.2625,-1.050,-6.720,-2.940,343,393,660,519,619,2025-05-23T21:32:17.948814
16504,0.2172,0.9370,0.2596,0.490,-6.230,-3.430,388,392,627,508,624,2025-05-23T21:32:17.948827
16505,0.1776,0.9453,0.2528,1.330,-6.860,-4.270,388,300,649,517,626,2025-05-23T21:32:17.948839
16506,0.1747,0.9609,0.2640,2.590,-9.240,-1.890,417,378,668,511,619,2025-05-23T21:32:18.153560
16507,0.1820,0.9633,0.2801,3.290,-8.120,-0.770,396,400,670,511,604,2025-05-23T21:32:18.153617
16508,0.1869,0.9579,0.2850,3.010,-4.760,0.910,410,425,659,498,634,2025-05-23T21:32:18.153633
16509,0.1864,0.9521,0.2845,3.220,-1.610,1.960,426,429,666,524,634,2025-05-23T21:32:18.153831
16510,0.1918,0.9584,0.2957,3.570,-0.700,1.890,423,431,655,522,618,2025-05-23T21:32:18.153847
16511,0.1806,0.9658,0.2962,1.750,-3.430,2.310,429,427,672,527,611,2025-05-23T21:32:18.154011
16512,0.1781,0.9658,0.2855,-1.960,-10.640,1.470,418,426,677,506,609,2025-05-23T21:32:18.154025
16513,0.1986,0.9536,0.2728,-5.600,-16.940,0.140,421,422,677,495,621,2025-05-23T21:32:18.154039
16514,0.2074,0.9409,0.2664,-6.510,-22.330,-0.070,426,416,672,509,627,2025-05-23T21:32:18.154196
16515,0.2298,0.9345,0.2786,-5.950,-20.020,-0.840,427,418,666,523,613,2025-05-23T21:32:18.154210
16516,0.2411,0.9311,0.2855,-3.850,-13.860,-1.330,415,415,669,498,591,2025-05-23T21:32:18.154222
16517,0.2279,0.9409,0.2811,0.210,-5.670,-1.330,348,348,675,512,628,2025-05-23T21:32:18.154234
16518,0.2079,0.9540,0.2811,3.430,-1.190,-0.910,401,397,673,489,620,2025-05-23T21:32:18.154246
16519,0.1928,0.9633,0.2806,3.780,-1.260,-0.840,359,391,675,509,621,2025-05-23T21:32:18.154258
16520,0.1859,0.9570,0.2747,2.800,-3.640,-1.190,413,385,673,503,612,2025-05-23T21:32:18.154270
16521,0.1679,0.9472,0.2684,0.630,-6.510,-1.610,411,423,667,503,631,2025-05-23T21:32:18.154330
16522,0.1591,0.9482,0.2723,-0.350,-11.340,-1.120,421,394,680,461,619,2025-05-23T21:32:18.154345
16523,0.1625,0.9589,0.2752,-1.680,-13.650,-1.330,348,407,667,489,632,2025-05-23T21:32:18.359098
16524,0.1776,0.9594,0.2660,-2.730,-14.770,-1.750,366,399,674,495,627,2025-05-23T21:32:18.359157
16525,0.1986,0.9579,0.2494,-3.010,-13.230,-1.680,395,428,675,496,620,2025-05-23T21:32:18.359173
16526,0.2328,0.9404,0.2381,-1.330,-9.800,-0.490,422,358,677,507,613,2025-05-23T21:32:18.359187
16527,0.2294,0.9462,0.2425,1.960,-2.730,0.210,403,384,639,495,625,2025-05-23T21:32:18.359200
16528,0.1986,0.9575,0.2538,2.940,0.350,-0.420,410,367,673,511,630,2025-05-23T21:32:18.359213
16529,0.1767,0.9599,0.2606,2.030,-1.610,-1.260,404,393,676,521,613,2025-05-23T21:32:18.359225
16530,0.1830,0.9570,0.2723,0.490,-4.760,-1.260,421,414,676,461,614,2025-05-23T21:32:18.359238
16531,0.2006,0.9536,0.2821,-1.680,-5.880,-1.330,423,422,670,503,629,2025-05-23T21:32:18.359251
16532,0.1981,0.9467,0.2728,-1.960,-4.060,-1.470,420,414,672,501,633,2025-05-23T21:32:18.359265
16533,0.1864,0.9428,0.2625,0.700,-1.470,-1.820,418,418,629,519,622,2025-05-23T21:32:18.359277
16534,0.1840,0.9418,0.2533,3.150,-0.840,-1.750,428,412,636,508,639,2025-05-23T21:32:18.359289
16535,0.1854,0.9477,0.2591,4.830,-1.120,-0.840,407,390,629,513,639,2025-05-23T21:32:18.359301
16536,0.1776,0.9487,0.2611,3.710,-1.680,-0.980,345,382,664,493,628,2025-05-23T21:32:18.359312
16537,0.1747,0.9516,0.2645,1.120,-3.570,-0.980,395,418,675,516,624,2025-05-23T21:32:18.359364
16538,0.1796,0.9501,0.2718,-0.980,-4.200,-1.470,399,413,670,504,621,2025-05-23T21:32:18.359375
16539,0.1874,0.9462,0.2762,-2.450,-4.270,-2.590,426,433,667,503,584,2025-05-23T21:32:18.359387
16540,0.2020,0.9482,0.2743,-3.290,-4.200,-3.780,428,365,660,524,645,2025-05-23T21:32:18.359398
16541,0.2050,0.9506,0.2679,-3.010,-4.480,-4.830,404,411,658,522,648,2025-05-23T21:32:18.413396
16542,0.1952,0.9594,0.2664,-2.380,-6.020,-5.110,418,375,660,511,633,2025-05-23T21:32:18.413444
16543,0.1815,0.9692,0.2664,-3.080,-8.470,-4.340,343,408,678,466,630,2025-05-23T21:32:18.413457
16544,0.1601,0.9765,0.2669,-5.250,-12.950,-4.200,411,399,658,484,630,2025-05-23T21:32:18.413468
16545,0.1508,0.9780,0.2689,-9.450,-18.130,-3.150,398,421,673,510,654,2025-05-23T21:32:18.562113
16546,0.1532,0.9770,0.2713,-14.420,-24.010,-2.240,427,419,664,504,636,2025-05-23T21:32:18.562164
16547,0.1684,0.9780,0.2708,-19.600,-26.670,-1.960,407,417,677,492,598,2025-05-23T21:32:18.562180
16548,0.1957,0.9687,0.2630,-21.840,-24.640,-1.680,395,410,646,525,617,2025-05-23T21:32:18.562192
16549,0.2323,0.9511,0.2586,-19.320,-17.360,-1.820,421,427,672,534,596,2025-05-23T21:32:18.562204
16550,0.2298,0.9433,0.2635,-15.470,-9.800,-1.050,380,425,667,509,634,2025-05-23T21:32:18.562215
16551,0.1957,0.9496,0.2762,-10.780,-7.000,-0.210,404,384,627,503,629,2025-05-23T21:32:18.562227
16552,0.1771,0.9516,0.2957,-8.400,-7.280,-0.420,340,421,653,502,648,2025-05-23T21:32:18.562238
16553,0.1791,0.9477,0.3157,-8.120,-9.310,-0.560,387,399,671,500,652,2025-05-23T21:32:18.562248
16554,0.1708,0.9487,0.3265,-9.030,-10.710,-0.490,416,417,668,523,647,2025-05-23T21:32:18.562258
16555,0.1791,0.9433,0.3274,-9.030,-10.010,-0.630,392,418,671,512,608,2025-05-23T21:32:18.562270
16556,0.1928,0.9355,0.3182,-6.580,-7.910,-0.560,394,380,633,521,650,2025-05-23T21:32:18.562280
16557,0.1942,0.9374,0.3118,-2.030,-5.250,-0.070,407,341,666,522,637,2025-05-23T21:32:18.562291
16558,0.1981,0.9394,0.3128,1.120,-3.010,0.140,414,391,667,509,624,2025-05-23T21:32:18.767730
16559,0.1942,0.9365,0.3084,2.800,-1.820,0.140,431,386,664,459,627,2025-05-23T21:32:18.767776
16560,0.1742,0.9379,0.3035,3.360,-3.010,-0.280,401,396,670,498,656,2025-05-23T21:32:18.767790
16561,0.1737,0.9418,0.3055,2.170,-5.250,0.140,386,402,640,525,627,2025-05-23T21:32:18.767801
16562,0.1869,0.9384,0.3021,0.140,-4.760,-0.140,400,421,658,528,628,2025-05-23T21:32:18.767815
16563,0.1913,0.9345,0.2855,-0.910,-3.710,-0.210,373,418,640,535,624,2025-05-23T21:32:18.767824
16564,0.2001,0.9311,0.2782,-0.350,-3.080,-0.210,345,429,670,508,599,2025-05-23T21:32:18.767834
16565,0.2059,0.9326,0.2733,0.840,-2.590,-0.420,389,426,671,519,594,2025-05-23T21:32:18.767844
16566,0.2084,0.9360,0.2713,1.190,-1.890,-0.700,393,412,642,529,635,2025-05-23T21:32:18.767853
16567,0.2059,0.9355,0.2723,1.400,-1.470,-0.910,412,340,658,535,646,2025-05-23T21:32:18.767863
16568,0.1957,0.9340,0.2786,1.400,-2.100,-0.980,391,398,673,471,632,2025-05-23T21:32:18.767872
16569,0.1864,0.9379,0.2972,1.330,-4.200,-0.700,409,405,675,519,633,2025-05-23T21:32:18.767881
16570,0.1962,0.9448,0.3099,1.400,-4.480,-1.540,417,422,665,530,656,2025-05-23T21:32:18.767890
16571,0.1942,0.9467,0.3001,1.960,-3.360,-2.170,427,425,667,520,608,2025-05-23T21:32:18.767898
16572,0.1928,0.9560,0.2962,3.220,-3.010,-1.540,431,426,676,535,625,2025-05-23T21:32:18.767907
16573,0.2015,0.9638,0.2889,3.920,-1.610,-0.980,423,413,665,531,634,2025-05-23T21:32:18.767946
16574,0.2015,0.9677,0.2835,3.220,-0.280,-0.280,422,424,656,523,647,2025-05-23T21:32:18.767955
16575,0.1869,0.9648,0.2811,1.260,-1.050,0.350,420,409,673,526,641,2025-05-23T21:32:18.818473
16576,0.1874,0.9550,0.2821,-0.070,-2.940,0.630,413,415,672,498,650,2025-05-23T21:32:18.818535
16577,0.1937,0.9506,0.2869,-0.420,-4.480,1.190,431,413,653,505,640,2025-05-23T21:32:18.818550
16578,0.2006,0.9501,0.2884,-0.280,-3.500,0.980,411,392,674,524,652,2025-05-23T21:32:18.818561
16579,0.1967,0.9531,0.2840,1.120,-1.960,0.350,418,397,657,525,652,2025-05-23T21:32:18.973497
16580,0.1884,0.9584,0.2835,2.520,-2.100,0.350,385,417,671,535,641,2025-05-23T21:32:18.973543
16581,0.1947,0.9594,0.2830,3.150,-1.540,0.280,391,427,661,512,634,2025-05-23T21:32:18.973556
16582,0.1859,0.9506,0.2835,2.310,-1.120,0.140,415,400,666,533,641,2025-05-23T21:32:18.973567
16583,0.1630,0.9457,0.2806,1.050,-1.960,-0.070,419,414,676,514,562,2025-05-23T21:32:18.973577
16584,0.1532,0.9428,0.2801,-0.070,-4.480,-0.840,379,394,674,527,635,2025-05-23T21:32:18.973586
16585,0.1708,0.9316,0.2811,0.000,-4.410,0.350,334,364,639,522,592,2025-05-23T21:32:18.973596
16586,0.1835,0.9340,0.2791,0.280,-2.030,0.770,376,368,658,496,613,2025-05-23T21:32:18.973608
16587,0.1781,0.9409,0.2699,1.400,0.280,0.560,407,403,658,507,631,2025-05-23T21:32:18.973617
16588,0.1776,0.9443,0.2699,2.310,-0.280,0.420,400,406,676,518,645,2025-05-23T21:32:18.973626
16589,0.1923,0.9477,0.2752,1.890,-1.260,0.140,417,431,668,508,643,2025-05-23T21:32:18.973635
16590,0.1932,0.9550,0.2801,0.770,-1.820,-0.980,417,413,671,524,650,2025-05-23T21:32:18.973644
16591,0.1854,0.9579,0.2835,-1.400,-3.150,-2.240,401,397,666,518,611,2025-05-23T21:32:18.973654
16592,0.1928,0.9545,0.2855,-2.380,-4.060,-2.660,396,374,664,489,636,2025-05-23T21:32:19.176544
16593,0.2040,0.9487,0.2869,-2.310,-2.800,-2.800,407,407,678,520,639,2025-05-23T21:32:19.176601
16594,0.2025,0.9477,0.2913,-0.840,-0.700,-1.960,419,408,664,529,645,2025-05-23T21:32:19.176616
16595,0.1962,0.9511,0.2977,-0.210,0.770,-1.820,425,411,656,514,644,2025-05-23T21:32:19.176628
16596,0.1854,0.9521,0.2991,0.070,-0.070,-1.750,428,424,629,529,627,2025-05-23T21:32:19.176640
16597,0.1801,0.9531,0.3021,-0.700,-2.240,-1.400,422,414,668,530,654,2025-05-23T21:32:19.176652
16598,0.1903,0.9467,0.3035,-1.050,-3.500,-0.770,429,420,677,515,636,2025-05-23T21:32:19.176664
16599,0.1903,0.9521,0.3050,-1.260,-3.290,-1.260,353,407,677,461,633,2025-05-23T21:32:19.176674
16600,0.1879,0.9550,0.2957,-1.050,-2.870,-1.610,389,418,647,514,661,2025-05-23T21:32:19.176810
16601,0.1850,0.9531,0.2894,-0.140,-2.380,-1.400,412,402,656,519,640,2025-05-23T21:32:19.176821
16602,0.1918,0.9501,0.2860,0.840,-1.470,-1.120,374,346,679,522,637,2025-05-23T21:32:19.176833
16603,0.1752,0.9487,0.2855,1.540,-0.980,-0.560,384,390,679,512,647,2025-05-23T21:32:19.176844
16604,0.1640,0.9496,0.2860,1.330,-1.750,-0.350,417,421,677,531,636,2025-05-23T21:32:19.176854
16605,0.1654,0.9457,0.2899,0.980,-2.800,-0.630,421,415,667,504,657,2025-05-23T21:32:19.176864
16606,0.1674,0.9423,0.2957,-0.210,-4.130,-0.210,425,397,680,507,643,2025-05-23T21:32:19.176913
16607,0.1752,0.9448,0.2948,-1.330,-4.410,-0.070,415,409,664,518,646,2025-05-23T21:32:19.176924
16608,0.1815,0.9453,0.2879,-1.680,-3.710,-0.560,420,304,602,524,629,2025-05-23T21:32:19.176934
16609,0.1830,0.9418,0.2791,-0.700,-3.430,-0.420,397,392,663,507,650,2025-05-23T21:32:19.226488
16610,0.1903,0.9462,0.2762,0.910,-2.940,0.070,406,422,655,510,639,2025-05-23T21:32:19.226533
16611,0.1923,0.9467,0.2826,1.610,-1.470,0.070,422,430,639,511,651,2025-05-23T21:32:19.226545
16612,0.1840,0.9487,0.2840,0.560,-1.470,0.490,417,429,671,526,641,2025-05-23T21:32:19.226555
16613,0.1747,0.9418,0.2899,-0.420,-2.800,0.140,398,433,672,519,646,2025-05-23T21:32:19.278456
16614,0.1879,0.9355,0.2972,-1.120,-4.200,-0.420,408,383,672,488,646,2025-05-23T21:32:19.278516
16615,0.2059,0.9331,0.3016,-0.980,-4.060,-1.260,418,383,657,522,647,2025-05-23T21:32:19.278533
16616,0.2108,0.9374,0.2972,-0.140,-2.800,-1.610,431,410,675,507,647,2025-05-23T21:32:19.278544
16617,0.2035,0.9374,0.2884,1.680,-1.610,-2.100,428,426,634,524,637,2025-05-23T21:32:19.278557
16618,0.2079,0.9496,0.2869,2.520,-0.700,-1.960,405,397,664,478,655,2025-05-23T21:32:19.328809
16619,0.1991,0.9467,0.2830,2.100,-0.070,-1.540,392,421,663,502,660,2025-05-23T21:32:19.328854
16620,0.1801,0.9492,0.2777,1.190,-0.630,-0.840,403,416,673,525,653,2025-05-23T21:32:19.328865
16621,0.1786,0.9496,0.2826,0.490,-1.820,-0.840,408,350,646,530,641,2025-05-23T21:32:19.328875
16622,0.1840,0.9531,0.2874,-0.140,-2.170,-0.630,404,345,660,531,634,2025-05-23T21:32:19.587780
16623,0.1898,0.9565,0.2908,-0.980,-1.330,-0.210,399,389,661,514,640,2025-05-23T21:32:19.587838
16624,0.1957,0.9545,0.2879,-0.770,-0.700,-0.280,393,398,633,529,641,2025-05-23T21:32:19.587855
16625,0.1976,0.9482,0.2806,0.000,-0.490,-0.140,410,419,668,532,618,2025-05-23T21:32:19.587869
16626,0.1908,0.9492,0.2791,1.120,-0.840,0.350,398,401,668,515,641,2025-05-23T21:32:19.587882
16627,0.1791,0.9540,0.2865,0.840,-1.540,0.980,388,358,674,508,636,2025-05-23T21:32:19.587895
16628,0.1767,0.9536,0.2923,0.140,-2.170,1.470,418,417,676,479,632,2025-05-23T21:32:19.587907
16629,0.1810,0.9501,0.2923,-0.630,-2.380,1.680,412,414,676,515,647,2025-05-23T21:32:19.587920
16630,0.1893,0.9472,0.2923,-0.980,-1.820,1.750,394,429,676,504,599,2025-05-23T21:32:19.587933
16631,0.1884,0.9482,0.2889,-0.490,-0.490,1.470,397,345,670,527,636,2025-05-23T21:32:19.587945
16632,0.1976,0.9443,0.2869,0.560,0.980,1.330,396,334,675,519,641,2025-05-23T21:32:19.587956
16633,0.1791,0.9492,0.2816,1.190,0.700,1.610,418,382,663,529,652,2025-05-23T21:32:19.587968
16634,0.1723,0.9531,0.2874,0.910,-1.050,1.820,421,397,665,532,649,2025-05-23T21:32:19.587979
16635,0.1796,0.9521,0.2913,-0.420,-2.660,2.100,398,375,672,519,632,2025-05-23T21:32:19.587990
16636,0.1762,0.9501,0.2928,-0.980,-2.870,2.520,356,408,673,524,616,2025-05-23T21:32:19.588001
16637,0.1869,0.9448,0.2928,-0.560,-1.540,3.150,391,414,671,514,651,2025-05-23T21:32:19.588055
16638,0.1937,0.9384,0.2904,0.630,0.420,3.640,343,396,649,526,647,2025-05-23T21:32:19.588068
16639,0.1825,0.9394,0.2826,2.380,0.560,3.640,330,435,654,515,645,2025-05-23T21:32:19.588079
16640,0.1967,0.9423,0.2835,3.430,-0.210,3.500,391,407,656,528,648,2025-05-23T21:32:19.588091
16641,0.2011,0.9482,0.2811,3.150,-1.050,3.430,423,425,671,535,640,2025-05-23T21:32:19.588103
16642,0.1957,0.9560,0.2752,3.080,-1.680,3.290,428,435,666,515,631,2025-05-23T21:32:19.588114
16643,0.2011,0.9545,0.2821,2.730,-2.100,3.010,428,429,668,526,655,2025-05-23T21:32:19.789945
16644,0.2015,0.9531,0.2928,1.960,-1.610,2.800,396,426,663,531,654,2025-05-23T21:32:19.789997
16645,0.1937,0.9526,0.3001,0.560,-1.260,2.240,381,416,674,525,648,2025-05-23T21:32:19.790012
16646,0.1806,0.9492,0.3011,-0.630,-2.310,1.820,424,409,669,517,647,2025-05-23T21:32:19.790026
16647,0.1879,0.9506,0.2972,-0.840,-2.940,1.680,432,356,659,518,634,2025-05-23T21:32:19.790037
16648,0.1835,0.9492,0.2923,-0.490,-2.940,1.960,430,412,639,516,604,2025-05-23T21:32:19.790048
16649,0.1889,0.9462,0.2899,0.350,-1.960,2.030,387,401,659,531,646,2025-05-23T21:32:19.790058
16650,0.1854,0.9472,0.2938,0.910,-1.190,2.030,422,381,652,528,614,2025-05-23T21:32:19.790068
16651,0.1688,0.9433,0.2899,0.490,-1.890,1.750,414,415,650,520,641,2025-05-23T21:32:19.790078
16652,0.1718,0.9374,0.2908,-0.210,-3.850,1.680,416,378,626,521,653,2025-05-23T21:32:19.790088
16653,0.1845,0.9345,0.2884,-0.490,-4.830,1.400,342,386,664,530,599,2025-05-23T21:32:19.790098
16654,0.1981,0.9394,0.2855,-0.420,-4.620,0.910,401,395,663,514,636,2025-05-23T21:32:19.790107
16655,0.2045,0.9404,0.2782,0.770,-3.010,0.420,418,397,659,503,646,2025-05-23T21:32:19.790117
16656,0.1986,0.9423,0.2835,1.260,-2.520,0.070,423,417,663,510,655,2025-05-23T21:32:19.790126
16657,0.1957,0.9399,0.2908,0.210,-3.780,-0.140,420,366,672,531,640,2025-05-23T21:32:19.790135
16658,0.2108,0.9243,0.2899,-1.260,-4.620,-0.630,403,408,658,542,654,2025-05-23T21:32:19.790181
16659,0.2191,0.9121,0.2869,-1.750,-4.900,-0.910,388,396,670,527,645,2025-05-23T21:32:19.790192
