SeqNum,AccX,AccY,AccZ,GyroX,GyroY,GyroZ,Flex,Force1,Force2,Force3,Force4,TimestampReception
1,0.0000,0.0000,0.0000,9.730,-13.160,3.850,208,228,173,146,179,2025-05-24T00:09:52.272436
2,-0.0571,-1.0214,0.0468,24.850,-90.160,7.490,243,327,174,148,180,2025-05-24T00:09:52.272525
3,-0.0478,-1.0209,0.0600,2.520,13.230,32.690,193,316,179,151,183,2025-05-24T00:09:52.272545
4,-0.0454,-1.0033,0.0659,1.680,10.710,29.470,251,290,177,151,183,2025-05-24T00:09:52.272557
5,-0.0415,-0.9780,0.0732,1.960,9.450,26.110,240,286,180,153,185,2025-05-24T00:09:52.272567
6,-0.0425,-0.9453,0.0771,2.590,9.590,23.100,253,317,180,152,185,2025-05-24T00:09:52.272577
7,-0.0459,-0.9228,0.0766,2.800,11.620,20.860,236,291,183,155,186,2025-05-24T00:09:52.272586
8,-0.0508,-0.9145,0.0820,2.310,14.140,18.270,233,332,181,156,187,2025-05-24T00:09:52.272600
9,-0.0595,-0.9209,0.0849,1.190,15.820,15.050,237,303,183,155,188,2025-05-24T00:09:52.272609
10,-0.0786,-0.9335,0.0903,0.630,15.190,11.550,211,321,185,157,190,2025-05-24T00:09:52.272618
11,-0.0830,-0.9467,0.0898,0.420,13.300,8.190,242,236,184,156,189,2025-05-24T00:09:52.272627
12,-0.0849,-0.9477,0.0864,0.490,11.620,5.600,252,332,186,158,190,2025-05-24T00:09:52.272636
13,-0.0942,-0.9462,0.0888,0.770,10.850,2.870,245,311,185,158,190,2025-05-24T00:09:52.272645
14,-0.1010,-0.9389,0.0903,0.560,10.570,0.840,238,294,186,157,190,2025-05-24T00:09:52.272653
15,-0.0986,-0.9438,0.0908,0.350,12.600,-0.980,259,324,183,159,191,2025-05-24T00:09:52.272661
16,-0.1025,-0.9492,0.0932,0.140,15.470,-3.710,251,326,182,158,191,2025-05-24T00:09:52.272670
17,-0.1078,-0.9540,0.0971,-0.210,18.830,-6.230,210,310,186,159,192,2025-05-24T00:09:52.272712
18,-0.1249,-0.9677,0.1074,-1.190,19.600,-9.870,254,333,187,160,191,2025-05-24T00:09:52.272723
19,-0.1449,-0.9721,0.1103,-2.240,17.220,-13.580,250,330,189,159,192,2025-05-24T00:09:52.272731
20,-0.1562,-0.9682,0.1118,-1.890,13.790,-16.730,247,240,183,161,193,2025-05-24T00:09:52.272739
21,-0.1586,-0.9531,0.1137,-0.350,11.410,-18.900,258,330,182,159,192,2025-05-24T00:09:52.272747
22,-0.1659,-0.9394,0.1161,0.980,10.080,-20.230,258,285,188,161,193,2025-05-24T00:09:52.272755
23,-0.1698,-0.9345,0.1220,1.330,10.080,-21.630,249,327,183,160,192,2025-05-24T00:09:52.527751
24,-0.1737,-0.9433,0.1269,2.170,11.340,-23.310,233,328,184,161,193,2025-05-24T00:09:52.527800
25,-0.1796,-0.9496,0.1283,3.430,13.300,-24.780,256,287,188,161,195,2025-05-24T00:09:52.527828
26,-0.1835,-0.9594,0.1235,4.480,15.400,-26.600,246,315,185,161,193,2025-05-24T00:09:52.527839
27,-0.1884,-0.9711,0.1210,5.180,17.080,-28.770,252,328,184,160,194,2025-05-24T00:09:52.527850
28,-0.1937,-0.9814,0.1161,5.670,17.640,-30.730,261,326,188,161,195,2025-05-24T00:09:52.527861
29,-0.1986,-0.9877,0.1118,6.440,17.780,-32.130,263,321,187,161,194,2025-05-24T00:09:52.527870
30,-0.2045,-0.9931,0.1039,7.070,18.270,-33.040,246,336,185,162,195,2025-05-24T00:09:52.527888
31,-0.2133,-0.9999,0.0981,7.770,18.690,-33.530,262,324,189,160,195,2025-05-24T00:09:52.527897
32,-0.2245,-1.0082,0.0942,7.980,19.530,-33.320,269,336,185,162,195,2025-05-24T00:09:52.527906
33,-0.2328,-1.0126,0.0893,7.770,20.440,-32.690,260,295,189,162,196,2025-05-24T00:09:52.527915
34,-0.2396,-1.0165,0.0825,7.210,21.000,-31.640,205,333,189,162,195,2025-05-24T00:09:52.527924
35,-0.2503,-1.0175,0.0800,6.510,21.070,-30.310,256,318,189,163,196,2025-05-24T00:09:52.527932
36,-0.2528,-1.0204,0.0747,5.810,19.950,-28.910,248,336,189,162,195,2025-05-24T00:09:52.527940
37,-0.2582,-1.0228,0.0732,5.250,18.340,-26.950,261,311,185,162,196,2025-05-24T00:09:52.527952
38,-0.2572,-1.0209,0.0708,4.970,16.520,-24.990,220,301,190,163,196,2025-05-24T00:09:52.527996
39,-0.2621,-1.0175,0.0664,4.760,14.630,-22.680,255,307,188,161,196,2025-05-24T00:09:52.705773
40,-0.2640,-1.0126,0.0664,4.340,13.020,-20.440,242,323,193,162,195,2025-05-24T00:09:52.705821
41,-0.2699,-1.0038,0.0620,3.780,10.850,-18.130,252,304,185,162,196,2025-05-24T00:09:52.705833
42,-0.2650,-0.9960,0.0610,3.010,8.610,-16.100,257,333,190,162,195,2025-05-24T00:09:52.705844
43,-0.2625,-0.9882,0.0630,2.170,5.320,-14.700,256,314,190,162,195,2025-05-24T00:09:52.705854
44,-0.2528,-0.9819,0.0644,1.610,2.520,-13.370,264,296,191,162,196,2025-05-24T00:09:52.705885
45,-0.2435,-0.9770,0.0693,1.820,0.420,-12.320,258,273,189,163,196,2025-05-24T00:09:52.705894
46,-0.2425,-0.9745,0.0717,2.660,-0.840,-11.760,246,273,192,163,196,2025-05-24T00:09:52.705904
47,-0.2391,-0.9692,0.0732,3.850,-1.960,-11.550,251,308,192,162,196,2025-05-24T00:09:52.705913
48,-0.2372,-0.9692,0.0752,4.550,-3.010,-11.410,266,326,182,163,197,2025-05-24T00:09:52.705922
49,-0.2289,-0.9755,0.0717,5.740,-3.500,-11.410,260,299,191,163,196,2025-05-24T00:09:52.705931
50,-0.2259,-0.9867,0.0664,7.070,-3.080,-11.830,265,267,192,163,197,2025-05-24T00:09:52.705940
51,-0.2250,-0.9975,0.0664,8.680,-2.170,-11.900,204,305,189,162,195,2025-05-24T00:09:52.705952
52,-0.2259,-1.0067,0.0571,9.660,-1.050,-11.690,263,309,192,162,196,2025-05-24T00:09:52.705961
53,-0.2328,-1.0175,0.0542,10.710,0.140,-11.200,253,310,189,162,196,2025-05-24T00:09:52.705970
54,-0.2386,-1.0228,0.0522,12.110,1.610,-10.150,257,335,191,162,195,2025-05-24T00:09:52.706015
55,-0.2420,-1.0194,0.0473,12.600,3.640,-8.470,220,269,185,162,196,2025-05-24T00:09:52.706024
56,-0.2484,-1.0126,0.0376,12.810,5.460,-5.880,204,289,188,162,196,2025-05-24T00:09:52.706033
57,-0.2542,-1.0082,0.0351,12.810,7.560,-3.430,268,301,191,163,197,2025-05-24T00:09:52.890065
58,-0.2547,-1.0063,0.0337,12.880,9.380,-0.140,250,332,188,161,195,2025-05-24T00:09:52.890136
59,-0.2586,-1.0048,0.0332,13.020,10.570,3.220,260,295,188,160,195,2025-05-24T00:09:52.890155
60,-0.2577,-1.0058,0.0342,13.300,10.780,6.650,260,341,184,161,196,2025-05-24T00:09:52.890167
61,-0.2499,-1.0053,0.0351,14.140,10.780,9.730,264,330,189,161,195,2025-05-24T00:09:52.890177
62,-0.2406,-1.0063,0.0342,14.840,11.340,12.250,246,320,185,161,194,2025-05-24T00:09:52.890191
63,-0.2259,-1.0097,0.0268,15.330,12.740,14.000,231,318,188,161,194,2025-05-24T00:09:52.890201
64,-0.2196,-1.0136,0.0224,15.540,14.770,16.100,249,320,188,160,193,2025-05-24T00:09:52.890212
65,-0.2147,-1.0233,0.0224,15.750,16.590,17.780,264,271,190,161,195,2025-05-24T00:09:52.890226
66,-0.2059,-1.0263,0.0166,16.030,18.200,19.040,264,328,189,160,193,2025-05-24T00:09:52.890238
67,-0.1981,-1.0272,0.0137,15.890,19.810,20.370,253,310,184,160,194,2025-05-24T00:09:52.890248
68,-0.1947,-1.0228,0.0112,15.680,21.490,21.420,262,341,187,161,194,2025-05-24T00:09:52.890257
69,-0.1874,-1.0233,0.0073,15.190,23.170,21.980,241,324,190,160,193,2025-05-24T00:09:52.890266
70,-0.1810,-1.0311,0.0015,14.280,24.430,22.750,264,334,189,161,193,2025-05-24T00:09:52.890279
71,-0.1815,-1.0394,0.0068,12.880,24.920,22.820,216,316,189,159,193,2025-05-24T00:09:52.890289
72,-0.1825,-1.0536,0.0078,11.830,23.590,22.540,249,315,188,160,194,2025-05-24T00:09:52.890338
73,-0.1820,-1.0604,0.0093,10.500,21.700,22.050,254,316,188,160,194,2025-05-24T00:09:52.890349
74,-0.1757,-1.0638,0.0073,9.380,19.600,21.350,259,320,189,159,193,2025-05-24T00:09:52.890358
75,-0.1693,-1.0526,0.0063,8.330,17.920,20.860,262,319,190,161,195,2025-05-24T00:09:52.975763
76,-0.1747,-1.0360,0.0161,6.510,16.730,20.440,257,309,184,160,195,2025-05-24T00:09:52.975805
77,-0.1854,-1.0155,0.0317,3.710,14.630,20.510,218,338,186,161,195,2025-05-24T00:09:52.975816
78,-0.1923,-0.9941,0.0503,1.750,12.040,20.720,254,314,192,160,195,2025-05-24T00:09:52.975827
79,-0.1937,-0.9726,0.0630,0.210,10.220,21.140,265,320,191,160,195,2025-05-24T00:09:52.975850
80,-0.1972,-0.9467,0.0766,0.000,7.700,21.350,247,339,191,162,196,2025-05-24T00:09:53.077726
81,-0.2015,-0.9306,0.0913,-0.700,3.920,21.420,247,339,188,161,195,2025-05-24T00:09:53.077763
82,-0.2015,-0.9165,0.1035,-1.470,-0.910,21.140,251,310,192,161,196,2025-05-24T00:09:53.077772
83,-0.1932,-0.9135,0.1166,-1.330,-6.090,20.020,253,321,190,160,195,2025-05-24T00:09:53.077780
84,-0.1810,-0.9121,0.1279,-0.490,-9.450,18.130,262,315,191,161,196,2025-05-24T00:09:53.077787
85,-0.1728,-0.9135,0.1381,0.840,-12.110,16.170,265,330,192,163,196,2025-05-24T00:09:53.077794
86,-0.1552,-0.9194,0.1444,1.820,-12.110,13.020,232,271,190,162,196,2025-05-24T00:09:53.077801
87,-0.1425,-0.9243,0.1484,2.730,-8.680,9.800,254,336,186,163,197,2025-05-24T00:09:53.077825
88,-0.1303,-0.9292,0.1488,3.360,-2.100,5.880,259,313,192,161,196,2025-05-24T00:09:53.081522
89,-0.1352,-0.9409,0.1523,3.570,3.640,2.380,251,329,191,162,196,2025-05-24T00:09:53.081629
90,-0.1484,-0.9511,0.1542,3.360,10.500,0.000,264,319,191,163,197,2025-05-24T00:09:53.081652
91,-0.1620,-0.9604,0.1581,3.360,15.330,-2.310,266,338,192,162,196,2025-05-24T00:09:53.336055
92,-0.1732,-0.9726,0.1610,3.500,17.710,-3.780,206,333,190,163,197,2025-05-24T00:09:53.336103
93,-0.1859,-0.9882,0.1625,3.710,18.270,-5.180,264,320,191,162,197,2025-05-24T00:09:53.336115
94,-0.1908,-0.9945,0.1620,4.270,18.060,-5.810,260,315,190,163,197,2025-05-24T00:09:53.336145
95,-0.1923,-1.0014,0.1610,4.830,17.780,-6.230,256,336,191,163,197,2025-05-24T00:09:53.336158
96,-0.1947,-1.0072,0.1625,4.900,17.850,-5.950,250,315,190,162,197,2025-05-24T00:09:53.336168
97,-0.2050,-1.0102,0.1606,4.270,19.110,-6.160,267,317,191,164,198,2025-05-24T00:09:53.336178
98,-0.2147,-1.0038,0.1571,3.500,20.370,-5.320,269,333,192,163,198,2025-05-24T00:09:53.336189
99,-0.2318,-0.9960,0.1610,1.890,21.000,-3.710,263,321,187,163,198,2025-05-24T00:09:53.336199
100,-0.2391,-0.9936,0.1659,0.070,20.720,-2.240,261,312,190,164,198,2025-05-24T00:09:53.336209
101,-0.2406,-0.9926,0.1728,-0.700,18.900,-0.910,238,321,190,163,197,2025-05-24T00:09:53.336221
102,-0.2494,-0.9936,0.1825,-0.280,15.050,0.350,266,313,191,164,199,2025-05-24T00:09:53.336231
103,-0.2450,-0.9916,0.1942,0.070,9.170,0.910,264,277,193,163,198,2025-05-24T00:09:53.336240
104,-0.2318,-0.9911,0.1986,0.910,4.760,0.980,266,341,190,163,198,2025-05-24T00:09:53.336248
105,-0.2152,-0.9897,0.2011,2.240,1.820,-17.780,255,339,192,164,198,2025-05-24T00:09:53.336257
106,-0.1972,-0.9858,0.2059,3.360,1.890,-1.890,252,324,187,163,198,2025-05-24T00:09:53.336389
107,-0.1957,-0.9799,0.2152,3.360,3.360,-3.990,267,298,190,164,198,2025-05-24T00:09:53.336399
108,-0.2001,-0.9760,0.2220,3.220,4.760,-6.090,265,268,186,162,198,2025-05-24T00:09:53.520948
109,-0.2040,-0.9692,0.2289,4.340,6.160,-8.190,249,325,193,163,198,2025-05-24T00:09:53.521017
110,-0.2015,-0.9565,0.2328,5.810,8.050,-9.730,222,333,193,164,198,2025-05-24T00:09:53.521033
111,-0.2020,-0.9501,0.2352,6.720,10.360,-10.710,271,309,186,163,197,2025-05-24T00:09:53.521044
112,-0.2040,-0.9487,0.2338,7.840,12.180,-11.410,254,339,190,164,198,2025-05-24T00:09:53.521054
113,-0.2059,-0.9492,0.2289,9.590,14.280,-11.900,249,321,192,164,198,2025-05-24T00:09:53.521065
114,-0.2098,-0.9565,0.2250,11.060,15.540,-12.460,251,320,187,163,197,2025-05-24T00:09:53.521074
115,-0.2118,-0.9648,0.2211,11.480,15.890,-13.020,261,328,188,164,198,2025-05-24T00:09:53.521090
116,-0.2108,-0.9736,0.2157,11.480,16.520,-14.000,249,334,193,163,198,2025-05-24T00:09:53.521100
117,-0.2050,-0.9765,0.2128,11.550,17.220,-14.770,255,329,191,164,197,2025-05-24T00:09:53.521109
118,-0.2050,-0.9745,0.2079,11.410,17.850,-14.980,271,310,192,163,198,2025-05-24T00:09:53.521118
119,-0.2103,-0.9682,0.2064,10.990,18.410,-15.120,258,322,191,163,198,2025-05-24T00:09:53.521126
120,-0.2157,-0.9628,0.2040,10.920,17.920,-15.120,252,280,189,163,198,2025-05-24T00:09:53.521134
121,-0.2201,-0.9545,0.2074,10.780,16.590,-14.770,253,328,187,163,197,2025-05-24T00:09:53.521145
122,-0.2176,-0.9526,0.2030,10.430,14.910,-14.770,261,319,191,163,196,2025-05-24T00:09:53.603357
123,-0.2123,-0.9487,0.1991,10.850,13.160,-14.910,268,318,183,163,198,2025-05-24T00:09:53.603411
124,-0.2074,-0.9487,0.1976,10.990,12.040,-15.820,263,323,191,162,198,2025-05-24T00:09:53.603426
125,-0.2020,-0.9496,0.1957,10.500,11.270,-16.940,266,237,191,164,198,2025-05-24T00:09:53.603437
126,-0.2040,-0.9496,0.1918,10.010,10.430,-17.990,258,341,190,163,198,2025-05-24T00:09:53.603449
127,-0.2103,-0.9472,0.1928,9.590,9.170,-19.320,264,322,192,164,197,2025-05-24T00:09:53.603459
128,-0.2142,-0.9404,0.1908,9.240,6.930,-20.440,257,269,191,164,198,2025-05-24T00:09:53.603470
129,-0.2196,-0.9365,0.1874,8.610,4.620,-21.700,222,333,191,164,199,2025-05-24T00:09:53.603502
130,-0.2216,-0.9331,0.1913,8.470,2.310,-22.540,264,291,191,164,198,2025-05-24T00:09:53.603514
131,-0.2264,-0.9321,0.1864,8.610,0.700,-23.310,242,332,193,164,198,2025-05-24T00:09:53.603524
132,-0.2279,-0.9331,0.1908,8.400,-1.330,-23.940,237,331,185,164,199,2025-05-24T00:09:53.702342
133,-0.2357,-0.9335,0.1874,7.770,-3.850,-24.430,255,316,192,165,199,2025-05-24T00:09:53.702567
134,-0.2386,-0.9379,0.1859,7.280,-5.810,-24.640,256,335,190,164,199,2025-05-24T00:09:53.702583
135,-0.2425,-0.9370,0.1859,6.720,-7.560,-24.570,265,309,193,164,200,2025-05-24T00:09:53.702594
136,-0.2455,-0.9409,0.1864,5.530,-8.820,-24.290,252,324,191,164,199,2025-05-24T00:09:53.702607
137,-0.2479,-0.9462,0.1840,4.410,-9.520,-23.520,259,323,191,165,199,2025-05-24T00:09:53.702622
138,-0.2489,-0.9511,0.1869,4.060,-9.800,-22.680,264,317,192,165,199,2025-05-24T00:09:53.702635
139,-0.2533,-0.9531,0.1874,3.710,-9.730,-21.140,263,307,192,164,199,2025-05-24T00:09:53.702647
140,-0.2586,-0.9623,0.1889,2.800,-9.940,-19.670,247,315,189,164,200,2025-05-24T00:09:53.702656
141,-0.2630,-0.9716,0.1918,2.310,-10.290,-17.990,268,309,191,164,199,2025-05-24T00:09:53.702665
142,-0.2669,-0.9809,0.1947,1.680,-10.780,-16.380,262,325,192,164,199,2025-05-24T00:09:53.702681
143,-0.2718,-0.9882,0.2015,1.400,-10.990,-14.420,253,330,195,164,200,2025-05-24T00:09:53.897215
144,-0.2786,-0.9906,0.2084,1.260,-10.990,-11.830,266,340,184,164,199,2025-05-24T00:09:53.897283
145,-0.2845,-0.9892,0.2123,0.980,-10.500,-8.820,263,313,192,164,199,2025-05-24T00:09:53.897294
146,-0.2869,-0.9877,0.2142,0.420,-9.940,-5.110,271,273,190,163,198,2025-05-24T00:09:53.897321
147,-0.2899,-0.9887,0.2196,0.070,-9.310,-1.120,256,319,192,164,199,2025-05-24T00:09:53.897335
148,-0.2908,-0.9887,0.2250,0.070,-8.680,2.590,246,286,192,164,198,2025-05-24T00:09:53.897344
149,-0.2884,-0.9858,0.2250,0.700,-8.470,5.600,203,328,191,162,198,2025-05-24T00:09:53.897367
150,-0.2840,-0.9858,0.2298,0.910,-11.480,8.330,261,312,186,163,198,2025-05-24T00:09:53.897382
151,-0.2557,-0.9833,0.2259,1.120,-15.330,11.410,255,314,187,163,197,2025-05-24T00:09:53.897391
152,-0.2323,-0.9843,0.2211,0.490,-15.330,13.930,267,270,192,163,197,2025-05-24T00:09:53.897399
153,-0.2240,-0.9877,0.2235,0.140,-14.280,16.100,221,313,192,162,196,2025-05-24T00:09:53.897411
154,-0.2206,-0.9882,0.2255,0.280,-12.250,17.360,247,312,187,161,197,2025-05-24T00:09:53.897419
155,-0.2123,-0.9877,0.2235,0.280,-8.890,19.040,266,274,191,162,196,2025-05-24T00:09:53.897427
156,-0.2084,-0.9838,0.2186,0.210,-5.740,20.720,202,280,185,161,196,2025-05-24T00:09:53.897435
157,-0.2054,-0.9809,0.2113,-0.420,-2.800,22.050,266,320,186,161,196,2025-05-24T00:09:53.897494
158,-0.2103,-0.9809,0.2069,-1.050,-1.540,23.520,260,338,188,160,195,2025-05-24T00:09:53.897504
159,-0.2089,-0.9833,0.2030,-1.610,-1.750,24.360,249,317,187,160,194,2025-05-24T00:09:54.109882
160,-0.2011,-0.9804,0.2035,-2.170,-3.010,25.060,239,320,188,160,195,2025-05-24T00:09:54.109965
161,-0.1972,-0.9789,0.2050,-2.590,-4.480,25.620,262,330,187,160,194,2025-05-24T00:09:54.109981
162,-0.1898,-0.9814,0.2074,-3.290,-4.760,25.970,204,319,183,160,193,2025-05-24T00:09:54.109991
163,-0.1893,-0.9833,0.2113,-3.500,-4.550,26.530,258,323,187,159,193,2025-05-24T00:09:54.110001
164,-0.1820,-0.9755,0.2172,-4.550,-3.360,26.810,253,317,187,159,193,2025-05-24T00:09:54.110027
165,-0.1693,-0.9648,0.2201,-6.930,-0.280,26.880,253,313,188,159,193,2025-05-24T00:09:54.110041
166,-0.1645,-0.9594,0.2259,-8.890,4.060,26.810,263,267,186,159,193,2025-05-24T00:09:54.110051
167,-0.1742,-0.9594,0.2328,-9.170,6.580,27.090,262,338,189,158,193,2025-05-24T00:09:54.110061
168,-0.1869,-0.9623,0.2386,-9.100,6.720,26.740,218,309,182,158,193,2025-05-24T00:09:54.110070
169,-0.1942,-0.9643,0.2367,-9.310,5.390,26.110,260,306,188,158,192,2025-05-24T00:09:54.110079
170,-0.1850,-0.9638,0.2284,-10.080,5.950,25.620,246,314,188,158,193,2025-05-24T00:09:54.110092
171,-0.2186,-0.9804,0.2186,-11.830,9.660,24.920,233,309,187,158,191,2025-05-24T00:09:54.110101
172,-0.2723,-1.0024,0.2123,-13.510,13.160,27.230,261,271,181,158,192,2025-05-24T00:09:54.110112
173,-0.3099,-1.0063,0.2147,-14.700,16.170,32.900,261,327,186,158,192,2025-05-24T00:09:54.110157
174,-0.3343,-1.0228,0.2059,-18.410,19.950,38.990,264,282,185,157,191,2025-05-24T00:09:54.110383
175,-0.3465,-1.0321,0.2006,-19.810,23.660,44.800,217,328,186,157,191,2025-05-24T00:09:54.110393
176,-0.3567,-1.0282,0.1937,-19.110,26.740,50.260,265,315,185,156,191,2025-05-24T00:09:54.110403
177,-0.3558,-1.0219,0.1815,-19.110,30.800,55.230,261,306,180,156,191,2025-05-24T00:09:54.330476
178,-0.3680,-1.0199,0.1571,-20.230,37.170,58.100,263,323,184,155,190,2025-05-24T00:09:54.330531
179,-0.3845,-1.0048,0.1376,-22.400,46.900,61.600,250,331,183,154,189,2025-05-24T00:09:54.330566
180,-0.4065,-0.9902,0.1283,-26.950,57.120,66.570,257,325,183,154,189,2025-05-24T00:09:54.330578
181,-0.4372,-0.9941,0.1249,-31.920,63.630,71.330,214,317,183,153,188,2025-05-24T00:09:54.330590
182,-0.4704,-0.9980,0.1196,-36.470,64.680,74.970,244,300,179,153,187,2025-05-24T00:09:54.330601
183,-0.4846,-0.9911,0.1113,-37.520,61.180,77.350,243,325,180,151,187,2025-05-24T00:09:54.330613
184,-0.4978,-0.9853,0.1054,-37.240,54.110,79.660,213,311,176,151,186,2025-05-24T00:09:54.330624
185,-0.4929,-0.9780,0.0903,-37.170,46.760,81.550,244,291,181,151,187,2025-05-24T00:09:54.330635
186,-0.4860,-0.9584,0.0761,-36.610,40.810,83.790,197,331,174,152,186,2025-05-24T00:09:54.330652
187,-0.4958,-0.9531,0.0542,-36.260,39.620,83.930,259,306,174,151,185,2025-05-24T00:09:54.330662
188,-0.4982,-0.9487,0.0249,-36.820,44.240,83.020,258,313,181,150,184,2025-05-24T00:09:54.330672
189,-0.5134,-0.9389,-0.0088,-40.460,54.460,82.600,247,323,178,150,184,2025-05-24T00:09:54.330681
190,-0.5510,-0.9252,-0.0234,-47.670,70.140,84.770,233,322,179,149,184,2025-05-24T00:09:54.330690
191,-0.6217,-0.9243,-0.0244,-56.630,78.610,89.040,233,299,177,148,183,2025-05-24T00:09:54.330739
192,-0.6769,-0.9423,-0.0395,-66.220,76.790,91.630,241,308,178,148,183,2025-05-24T00:09:54.330748
193,-0.6993,-0.9526,-0.0581,-69.090,70.840,93.030,239,262,178,148,182,2025-05-24T00:09:54.330758
194,-0.7037,-0.9492,-0.0756,-69.510,63.560,94.430,242,320,174,147,181,2025-05-24T00:09:54.330809
195,-0.7125,-0.9287,-0.0893,-69.090,54.390,97.580,252,306,176,148,182,2025-05-24T00:09:54.377838
196,-0.7218,-0.9096,-0.1015,-69.720,46.550,100.030,246,274,172,146,181,2025-05-24T00:09:54.377901
197,-0.7266,-0.9033,-0.1308,-68.950,38.710,101.990,256,329,175,146,181,2025-05-24T00:09:54.378084
198,-0.7374,-0.8955,-0.1801,-66.920,39.130,103.110,224,302,177,146,181,2025-05-24T00:09:54.378102
199,-0.7393,-0.8760,-0.2308,-72.310,50.190,105.840,244,235,176,144,179,2025-05-24T00:09:54.424768
200,-0.7774,-0.8462,-0.2552,-84.350,64.330,110.530,257,307,176,145,180,2025-05-24T00:09:54.424821
201,-0.8550,-0.8438,-0.2655,-97.020,70.350,114.380,236,328,171,145,179,2025-05-24T00:09:54.588668
202,-0.9248,-0.8603,-0.2611,-102.130,60.270,116.970,253,306,174,145,179,2025-05-24T00:09:54.588705
203,-0.9565,-0.8584,-0.2782,-100.240,43.540,116.760,237,305,174,144,179,2025-05-24T00:09:54.588781
204,-0.9194,-0.8198,-0.3060,-96.460,33.040,114.730,255,276,174,144,178,2025-05-24T00:09:54.588795
205,-0.8594,-0.7466,-0.3401,-97.720,27.580,117.460,250,326,175,144,178,2025-05-24T00:09:54.588825
206,-0.8345,-0.7076,-0.3865,-106.400,34.650,122.570,256,313,167,143,178,2025-05-24T00:09:54.588835
207,-0.8638,-0.7027,-0.4153,-116.550,47.180,125.580,246,319,174,143,178,2025-05-24T00:09:54.588846
208,-0.9160,-0.6852,-0.4119,-119.210,52.780,123.760,248,313,174,143,178,2025-05-24T00:09:54.588855
209,-0.9794,-0.6749,-0.4075,-119.980,48.300,120.260,240,261,170,142,177,2025-05-24T00:09:54.588864
210,-1.0180,-0.6261,-0.3797,-120.540,29.400,119.490,193,322,174,143,177,2025-05-24T00:09:54.716716
211,-1.0102,-0.6090,-0.3948,-122.150,4.130,118.160,235,320,167,142,176,2025-05-24T00:09:54.716786
212,-0.9096,-0.5856,-0.4499,-119.700,-6.790,115.570,250,323,173,142,176,2025-05-24T00:09:54.716800
213,-0.7950,-0.4778,-0.4787,-117.600,-4.690,119.490,210,333,169,142,176,2025-05-24T00:09:54.716812
214,-0.7779,-0.4158,-0.4670,-125.720,10.290,120.470,234,325,167,141,177,2025-05-24T00:09:54.716823
215,-0.8101,-0.4065,-0.4573,-135.310,17.150,119.490,235,322,172,142,176,2025-05-24T00:09:54.716835
216,-0.8682,-0.4055,-0.4416,-134.190,12.110,117.460,243,263,170,140,176,2025-05-24T00:09:54.716846
217,-0.8882,-0.3762,-0.4270,-127.330,4.970,113.540,208,332,168,140,175,2025-05-24T00:09:54.716857
218,-0.8784,-0.3684,-0.4607,-123.060,-3.850,109.690,239,301,171,141,176,2025-05-24T00:09:54.716867
219,-0.8272,-0.2962,-0.4675,-121.380,-9.660,108.080,222,328,172,140,175,2025-05-24T00:09:54.716882
220,-0.7759,-0.2455,-0.4909,-123.900,-7.420,106.120,250,329,171,140,175,2025-05-24T00:09:54.716892
221,-0.7579,-0.2001,-0.5012,-128.030,-2.870,104.860,243,303,171,141,175,2025-05-24T00:09:54.716902
222,-0.7403,-0.1557,-0.4851,-132.580,2.100,106.330,238,315,171,140,175,2025-05-24T00:09:54.716912
223,-0.7501,-0.1322,-0.4573,-135.450,4.130,104.580,235,321,171,140,176,2025-05-24T00:09:54.716922
224,-0.7710,-0.1327,-0.4348,-131.180,-3.220,98.770,209,325,170,139,174,2025-05-24T00:09:54.716969
225,-0.7666,-0.1318,-0.4475,-123.340,-10.220,91.560,237,314,168,141,175,2025-05-24T00:09:54.716980
226,-0.7608,-0.1030,-0.4592,-113.540,-14.770,87.360,238,307,171,140,175,2025-05-24T00:09:54.716993
227,-0.7554,-0.0815,-0.4895,-107.870,-19.180,85.960,242,261,171,141,174,2025-05-24T00:09:54.921572
228,-0.7086,-0.0005,-0.4724,-108.150,-18.060,85.120,221,333,166,142,176,2025-05-24T00:09:54.921640
229,-0.6632,0.0527,-0.4534,-114.380,-13.580,84.560,208,272,165,140,174,2025-05-24T00:09:54.921655
230,-0.6642,0.0532,-0.4548,-118.300,-8.960,82.460,237,305,171,140,175,2025-05-24T00:09:54.921667
231,-0.6812,0.0420,-0.4587,-116.760,-6.650,78.960,296,317,170,140,175,2025-05-24T00:09:54.921678
232,-0.7125,0.0537,-0.4436,-106.400,-6.510,75.530,305,309,171,139,174,2025-05-24T00:09:54.921690
233,-0.7120,0.0786,-0.4275,-99.050,-7.280,69.930,306,305,171,140,175,2025-05-24T00:09:54.921700
234,-0.7174,0.0859,-0.4524,-96.250,-10.360,65.030,297,256,165,140,174,2025-05-24T00:09:54.921714
235,-0.7008,0.1347,-0.4470,-93.800,-12.390,64.820,252,311,169,140,174,2025-05-24T00:09:54.921725
236,-0.6866,0.1576,-0.4446,-91.980,-9.450,62.510,268,317,170,140,175,2025-05-24T00:09:54.921735
237,-0.6681,0.1845,-0.4246,-90.510,-9.240,60.620,275,317,171,139,175,2025-05-24T00:09:54.921745
238,-0.6564,0.2054,-0.4172,-88.410,-5.880,58.590,238,227,165,140,175,2025-05-24T00:09:54.921755
239,-0.6520,0.2391,-0.3919,-85.330,-2.940,55.580,281,317,170,140,175,2025-05-24T00:09:54.921765
240,-0.6446,0.2582,-0.3797,-82.460,-0.630,52.570,303,318,169,141,175,2025-05-24T00:09:54.921778
241,-0.6412,0.2645,-0.3689,-80.290,1.050,48.790,301,292,172,140,175,2025-05-24T00:09:54.921834
242,-0.6437,0.2635,-0.3655,-74.550,0.490,46.130,296,322,173,140,174,2025-05-24T00:09:54.921844
243,-0.6437,0.2777,-0.3831,-66.430,0.840,41.580,240,295,172,141,176,2025-05-24T00:09:54.921853
244,-0.6359,0.3221,-0.3933,-59.360,4.200,37.940,303,303,169,140,175,2025-05-24T00:09:55.138116
245,-0.6349,0.3689,-0.4099,-59.220,8.750,35.910,242,316,166,140,175,2025-05-24T00:09:55.138169
246,-0.6407,0.3972,-0.4407,-64.260,17.990,34.020,276,310,171,140,175,2025-05-24T00:09:55.138184
247,-0.6812,0.3977,-0.4607,-65.800,26.740,31.640,304,334,166,140,175,2025-05-24T00:09:55.138197
248,-0.7213,0.4119,-0.4421,-61.950,28.770,30.450,295,320,168,140,175,2025-05-24T00:09:55.138227
249,-0.7247,0.4265,-0.4358,-60.550,27.160,28.910,295,324,166,140,175,2025-05-24T00:09:55.138240
250,-0.7174,0.4338,-0.4460,-61.460,24.360,26.670,276,296,170,140,175,2025-05-24T00:09:55.138251
251,-0.7071,0.4470,-0.4455,-60.970,22.540,24.570,295,322,170,141,176,2025-05-24T00:09:55.138265
252,-0.7013,0.4543,-0.4631,-56.490,21.840,23.100,289,309,172,141,175,2025-05-24T00:09:55.138275
253,-0.6978,0.4729,-0.4719,-53.900,23.590,24.640,286,315,170,141,176,2025-05-24T00:09:55.138286
254,-0.6852,0.5022,-0.4646,-57.400,29.330,26.390,272,282,172,141,176,2025-05-24T00:09:55.138296
255,-0.6759,0.5324,-0.4626,-64.750,34.650,24.850,284,234,172,141,176,2025-05-24T00:09:55.138311
256,-0.7081,0.5388,-0.4577,-68.950,35.980,22.330,295,300,167,141,176,2025-05-24T00:09:55.138326
257,-0.7056,0.5402,-0.4494,-72.100,33.110,19.250,298,330,171,140,175,2025-05-24T00:09:55.138336
258,-0.6793,0.5436,-0.4314,-69.510,32.060,16.520,289,307,172,141,176,2025-05-24T00:09:55.138504
259,-0.6730,0.5431,-0.4114,-66.640,28.140,16.870,304,296,166,140,175,2025-05-24T00:09:55.138517
260,-0.6568,0.5534,-0.4128,-62.510,27.090,18.900,286,273,171,136,172,2025-05-24T00:09:55.138564
261,-0.6261,0.5583,-0.4207,-58.450,28.350,20.510,311,321,173,136,171,2025-05-24T00:09:55.138577
262,-0.6446,0.5724,-0.4163,-57.960,30.590,21.840,243,327,178,136,171,2025-05-24T00:09:55.186909
263,-0.6373,0.6022,-0.4055,-58.450,36.750,18.900,293,328,190,136,174,2025-05-24T00:09:55.186949
264,-0.6583,0.6212,-0.3997,-60.830,36.890,15.610,286,284,191,136,176,2025-05-24T00:09:55.186958
265,-0.6749,0.6266,-0.3938,-63.280,34.090,12.670,303,343,202,136,177,2025-05-24T00:09:55.186966
266,-0.6759,0.6188,-0.3860,-64.260,29.260,11.830,252,334,207,136,179,2025-05-24T00:09:55.234965
267,-0.6529,0.6124,-0.3987,-63.350,24.920,13.090,299,335,175,135,179,2025-05-24T00:09:55.235016
268,-0.6739,0.5895,-0.4060,-53.690,18.480,18.060,275,327,212,136,181,2025-05-24T00:09:55.235028
269,-0.6442,0.6027,-0.3870,-38.990,14.280,22.680,347,339,200,132,179,2025-05-24T00:09:55.235056
270,-0.6422,0.6271,-0.3645,-31.150,10.780,23.030,392,347,218,134,180,2025-05-24T00:09:55.318603
271,-0.6476,0.6261,-0.3509,-24.360,5.250,23.170,390,291,203,129,179,2025-05-24T00:09:55.318655
272,-0.6432,0.6554,-0.3172,-27.300,0.210,20.930,417,336,215,129,179,2025-05-24T00:09:55.318669
273,-0.6281,0.6476,-0.3172,-31.640,-4.480,20.300,401,351,210,128,178,2025-05-24T00:09:55.318680
274,-0.6134,0.6617,-0.3299,-36.470,-1.960,16.520,422,328,220,127,179,2025-05-24T00:09:55.545323
275,-0.6124,0.6476,-0.3489,-36.190,-3.010,15.190,408,366,232,139,190,2025-05-24T00:09:55.545371
276,-0.5968,0.6564,-0.3445,-33.320,-3.500,16.590,359,341,202,140,190,2025-05-24T00:09:55.545387
277,-0.5661,0.6612,-0.3357,-29.330,2.100,17.920,395,344,205,138,190,2025-05-24T00:09:55.545414
278,-0.5490,0.6637,-0.3328,-27.230,4.200,18.900,389,308,229,137,189,2025-05-24T00:09:55.545425
279,-0.5832,0.6695,-0.3465,-23.730,5.040,20.020,411,381,227,135,188,2025-05-24T00:09:55.545435
280,-0.5890,0.6886,-0.3523,-26.530,1.680,18.410,379,362,207,135,187,2025-05-24T00:09:55.545445
281,-0.6027,0.7164,-0.3118,-22.610,6.300,17.430,333,367,212,132,186,2025-05-24T00:09:55.545455
282,-0.5958,0.7047,-0.3294,-24.010,3.850,16.520,341,319,217,132,185,2025-05-24T00:09:55.545464
283,-0.5685,0.6891,-0.3362,-23.240,3.220,16.170,348,323,225,133,187,2025-05-24T00:09:55.545474
284,-0.5490,0.7017,-0.3738,-15.750,3.080,17.990,381,368,221,133,185,2025-05-24T00:09:55.545483
285,-0.6095,0.7198,-0.3548,-12.250,-4.340,16.940,393,403,229,132,187,2025-05-24T00:09:55.545492
286,-0.5763,0.7110,-0.3553,-10.080,-10.850,16.380,410,413,224,133,188,2025-05-24T00:09:55.545501
287,-0.5480,0.7227,-0.3445,-7.350,-16.940,15.050,400,394,198,133,188,2025-05-24T00:09:55.545510
288,-0.5431,0.7222,-0.3548,-3.570,-23.380,14.210,401,372,219,134,188,2025-05-24T00:09:55.545551
289,-0.5417,0.7198,-0.3479,1.120,-27.370,14.770,421,340,179,135,189,2025-05-24T00:09:55.545560
290,-0.5226,0.7325,-0.3406,4.760,-27.090,14.980,392,243,207,136,190,2025-05-24T00:09:55.545569
291,-0.5080,0.7496,-0.3299,6.160,-21.140,15.540,388,336,210,140,193,2025-05-24T00:09:55.545582
292,-0.5197,0.7544,-0.3123,8.890,-14.280,15.750,422,336,185,139,192,2025-05-24T00:09:55.545591
293,-0.5441,0.7720,-0.3143,13.230,-5.740,16.240,416,260,186,142,193,2025-05-24T00:09:55.545599
294,-0.5617,0.7491,-0.3289,14.700,-5.390,14.980,423,305,182,142,192,2025-05-24T00:09:55.768957
295,-0.5832,0.7676,-0.3304,14.630,-6.860,14.000,415,256,187,140,190,2025-05-24T00:09:55.769010
296,-0.5900,0.7710,-0.3538,14.000,-9.870,14.070,364,293,185,142,192,2025-05-24T00:09:55.769027
297,-0.5724,0.7706,-0.3572,14.560,-10.010,15.190,376,319,171,143,192,2025-05-24T00:09:55.769039
298,-0.5607,0.7764,-0.3592,15.890,-7.980,15.400,359,320,190,145,193,2025-05-24T00:09:55.769069
299,-0.5617,0.7847,-0.3504,18.200,-7.490,15.400,357,300,190,152,201,2025-05-24T00:09:55.769081
300,-0.5739,0.7779,-0.3514,19.600,-9.870,14.420,339,309,196,154,202,2025-05-24T00:09:55.769093
301,-0.5836,0.7798,-0.3533,18.130,-13.020,12.950,297,298,200,157,205,2025-05-24T00:09:55.769104
302,-0.5802,0.7725,-0.3626,17.570,-14.630,13.370,344,286,199,157,205,2025-05-24T00:09:55.769116
303,-0.5729,0.7779,-0.3723,17.360,-12.810,14.630,326,314,204,159,207,2025-05-24T00:09:55.769127
304,-0.5510,0.7886,-0.3704,16.730,-10.920,15.820,331,303,187,139,186,2025-05-24T00:09:55.769137
305,-0.5324,0.7940,-0.3714,14.840,-5.460,15.820,335,289,155,138,184,2025-05-24T00:09:55.769178
306,-0.5295,0.8042,-0.3640,13.020,-0.420,15.120,317,298,186,141,186,2025-05-24T00:09:55.769191
307,-0.5490,0.7954,-0.3553,11.130,0.070,13.160,317,308,172,140,185,2025-05-24T00:09:55.769201
308,-0.5553,0.7935,-0.3470,10.220,-2.100,11.130,331,304,177,141,185,2025-05-24T00:09:55.769211
309,-0.5632,0.7881,-0.3460,9.380,-4.620,8.610,335,301,165,137,182,2025-05-24T00:09:55.769291
310,-0.5636,0.7959,-0.3421,6.510,-7.630,6.230,334,297,159,135,180,2025-05-24T00:09:55.769305
311,-0.5485,0.8023,-0.3270,2.870,-11.130,5.180,325,294,192,135,180,2025-05-24T00:09:55.769317
312,-0.5461,0.7954,-0.3192,-1.330,-14.210,2.240,305,298,153,133,178,2025-05-24T00:09:55.769336
313,-0.5168,0.7910,-0.3089,-3.500,-16.170,0.000,328,252,147,133,178,2025-05-24T00:09:55.769353
314,-0.5173,0.7764,-0.3235,-4.550,-13.160,-1.890,288,246,147,131,177,2025-05-24T00:09:55.953746
315,-0.5422,0.7735,-0.3192,-2.450,-8.820,-3.920,321,244,142,128,174,2025-05-24T00:09:55.953793
316,-0.5714,0.7608,-0.3094,-0.560,-9.660,-5.390,312,303,137,127,172,2025-05-24T00:09:55.953805
317,-0.5934,0.7471,-0.3104,0.000,-11.760,-6.440,309,296,132,124,171,2025-05-24T00:09:55.953815
318,-0.5973,0.7432,-0.3060,-0.210,-15.540,-7.210,317,285,130,125,170,2025-05-24T00:09:55.953825
319,-0.6041,0.7359,-0.3099,-0.630,-19.670,-8.050,325,288,128,124,170,2025-05-24T00:09:55.953850
320,-0.5934,0.7335,-0.3255,0.000,-21.000,-8.050,322,300,129,122,168,2025-05-24T00:09:55.953864
321,-0.5817,0.7447,-0.3240,-0.980,-19.950,-7.770,273,278,126,123,169,2025-05-24T00:09:55.953873
322,-0.5832,0.7349,-0.3353,-3.850,-15.330,-7.910,250,271,121,123,169,2025-05-24T00:09:55.953882
323,-0.6149,0.7232,-0.3323,-5.180,-12.390,-8.610,322,275,119,123,170,2025-05-24T00:09:55.953893
324,-0.6373,0.7100,-0.3187,-4.270,-13.510,-9.590,319,276,118,124,170,2025-05-24T00:09:55.953901
325,-0.6368,0.6998,-0.3074,-2.030,-16.590,-10.150,323,239,119,125,169,2025-05-24T00:09:55.953910
326,-0.6320,0.7017,-0.2982,-1.120,-20.650,-8.050,317,268,119,124,171,2025-05-24T00:09:55.953959
327,-0.6207,0.6959,-0.2908,-2.170,-22.540,-7.980,311,281,119,124,171,2025-05-24T00:09:55.953969
328,-0.6178,0.6847,-0.2860,-2.590,-25.060,-8.680,291,273,120,125,171,2025-05-24T00:09:55.953978
329,-0.6281,0.6710,-0.2826,-0.350,-27.790,-8.610,311,294,120,125,171,2025-05-24T00:09:55.954020
330,-0.6198,0.6695,-0.2791,1.680,-27.440,-7.770,254,272,120,125,171,2025-05-24T00:09:56.150024
331,-0.6163,0.6686,-0.2767,3.430,-26.320,-7.700,315,289,120,126,171,2025-05-24T00:09:56.150074
332,-0.6261,0.6549,-0.2850,3.220,-23.240,-9.240,297,291,120,125,170,2025-05-24T00:09:56.150087
333,-0.6559,0.6388,-0.3143,5.810,-19.810,-9.800,321,287,120,126,171,2025-05-24T00:09:56.150115
334,-0.6808,0.6461,-0.3167,10.850,-17.710,-8.610,296,282,120,126,172,2025-05-24T00:09:56.150125
335,-0.6539,0.6764,-0.3016,12.390,-15.050,-3.290,318,269,121,126,172,2025-05-24T00:09:56.150138
336,-0.6661,0.6793,-0.3231,6.440,-9.870,-0.490,316,236,121,126,172,2025-05-24T00:09:56.150148
337,-0.6837,0.6827,-0.3221,-0.770,-8.890,-0.770,298,278,121,126,172,2025-05-24T00:09:56.150158
338,-0.7144,0.6690,-0.3309,-0.560,-11.900,-0.350,258,285,122,127,172,2025-05-24T00:09:56.150167
339,-0.7281,0.6783,-0.3182,4.410,-14.560,1.120,285,294,121,126,173,2025-05-24T00:09:56.150176
340,-0.7154,0.6983,-0.3011,5.180,-18.340,2.380,314,286,122,127,173,2025-05-24T00:09:56.150200
341,-0.6974,0.7047,-0.2850,1.260,-20.930,3.150,312,243,122,127,173,2025-05-24T00:09:56.150209
342,-0.6881,0.7037,-0.2689,-2.450,-21.560,4.270,254,243,122,127,173,2025-05-24T00:09:56.150218
343,-0.6788,0.7066,-0.2567,-1.890,-21.140,4.900,322,267,123,127,173,2025-05-24T00:09:56.150413
344,-0.6720,0.7027,-0.2372,0.350,-19.740,5.950,303,294,123,128,173,2025-05-24T00:09:56.150457
345,-0.6725,0.7159,-0.2279,-1.330,-17.220,9.310,316,278,123,128,173,2025-05-24T00:09:56.150467
346,-0.6861,0.7120,-0.2289,-4.200,-14.140,10.500,322,297,123,127,173,2025-05-24T00:09:56.355491
347,-0.6964,0.7130,-0.2220,-6.160,-13.440,10.640,299,291,123,127,173,2025-05-24T00:09:56.355562
348,-0.7032,0.7071,-0.2220,-4.690,-14.280,10.780,296,285,123,128,173,2025-05-24T00:09:56.355579
349,-0.6915,0.7105,-0.2152,-2.590,-16.380,10.640,306,284,123,129,174,2025-05-24T00:09:56.355589
350,-0.6617,0.7154,-0.2157,-2.240,-17.780,11.270,302,294,123,128,174,2025-05-24T00:09:56.355603
351,-0.6568,0.7169,-0.2240,-1.470,-16.310,12.810,319,294,124,128,175,2025-05-24T00:09:56.509478
352,-0.6593,0.7261,-0.2220,-1.120,-14.210,14.210,228,297,123,129,174,2025-05-24T00:09:56.509508
353,-0.6749,0.7247,-0.2225,-0.420,-14.280,15.190,322,285,124,128,174,2025-05-24T00:09:56.509517
354,-0.6676,0.7422,-0.2216,-1.820,-14.000,16.800,308,242,122,128,174,2025-05-24T00:09:56.509525
355,-0.6495,0.7398,-0.2328,-5.600,-10.500,16.940,309,274,124,127,174,2025-05-24T00:09:56.509533
356,-0.6456,0.7466,-0.2308,-8.610,-6.580,18.410,309,237,123,129,174,2025-05-24T00:09:56.509541
357,-0.6529,0.7462,-0.2279,-11.130,-3.710,19.110,265,284,124,129,173,2025-05-24T00:09:56.509548
358,-0.6525,0.7515,-0.2255,-12.180,-3.780,19.740,309,250,124,129,174,2025-05-24T00:09:56.509556
359,-0.6310,0.7588,-0.2157,-13.650,-3.850,20.720,269,296,124,129,174,2025-05-24T00:09:56.509563
360,-0.6237,0.7525,-0.2211,-13.860,-2.170,20.650,256,253,125,129,175,2025-05-24T00:09:56.509619
361,-0.6183,0.7686,-0.2206,-13.650,0.210,19.880,306,297,124,128,175,2025-05-24T00:09:56.509628
362,-0.6290,0.7759,-0.2220,-13.930,2.520,20.230,313,296,124,129,174,2025-05-24T00:09:56.509636
363,-0.6412,0.7867,-0.2240,-15.890,4.130,20.860,304,275,124,129,175,2025-05-24T00:09:56.578183
364,-0.6432,0.7837,-0.2269,-18.830,4.690,20.720,296,214,123,129,175,2025-05-24T00:09:56.578227
365,-0.6456,0.7896,-0.2162,-20.370,4.270,21.280,294,252,124,129,175,2025-05-24T00:09:56.578239
366,-0.6446,0.7823,-0.2103,-21.700,2.940,21.350,312,270,125,129,175,2025-05-24T00:09:56.578249
367,-0.6329,0.7896,-0.1996,-22.050,-0.140,21.210,297,293,125,129,174,2025-05-24T00:09:56.578258
368,-0.6222,0.7969,-0.1947,-22.960,-2.240,21.350,224,276,124,130,175,2025-05-24T00:09:56.578268
369,-0.6144,0.8076,-0.1932,-24.290,-2.730,22.050,303,280,124,130,175,2025-05-24T00:09:56.578277
370,-0.5983,0.8111,-0.1879,-26.250,-1.890,21.070,303,271,125,129,175,2025-05-24T00:09:56.578285
371,-0.5866,0.8111,-0.1796,-28.280,0.280,19.740,319,239,125,129,176,2025-05-24T00:09:56.578294
372,-0.5861,0.8125,-0.1684,-28.490,2.800,18.480,323,272,125,129,175,2025-05-24T00:09:56.578303
373,-0.5919,0.8081,-0.1601,-28.280,3.990,17.150,297,294,126,129,176,2025-05-24T00:09:56.578312
374,-0.5988,0.8067,-0.1537,-27.510,1.400,15.400,323,285,125,129,176,2025-05-24T00:09:56.578323
375,-0.5793,0.8145,-0.1449,-26.460,-2.660,14.000,308,297,125,130,175,2025-05-24T00:09:56.578331
376,-0.5544,0.8281,-0.1381,-26.250,-4.550,12.670,309,234,126,130,177,2025-05-24T00:09:56.578340
377,-0.5402,0.8272,-0.1362,-26.670,-4.410,12.110,263,278,125,130,176,2025-05-24T00:09:56.578376
378,-0.5353,0.8335,-0.1274,-26.320,-3.150,11.760,281,279,126,131,176,2025-05-24T00:09:56.578384
379,-0.5275,0.8394,-0.1200,-26.600,-0.350,11.270,301,279,125,131,175,2025-05-24T00:09:56.578392
380,-0.5285,0.8350,-0.1210,-26.810,2.590,9.870,310,284,125,130,176,2025-05-24T00:09:56.578400
381,-0.5324,0.8335,-0.1181,-26.670,5.040,8.260,310,290,126,131,177,2025-05-24T00:09:56.578408
382,-0.5461,0.8164,-0.1166,-25.970,5.460,6.790,308,266,126,131,176,2025-05-24T00:09:56.765634
383,-0.5505,0.8120,-0.1132,-24.080,3.220,5.460,295,290,126,131,176,2025-05-24T00:09:56.765687
384,-0.5412,0.8042,-0.1186,-22.820,1.190,5.530,319,292,126,130,176,2025-05-24T00:09:56.765702
385,-0.5368,0.8032,-0.1196,-21.280,1.400,6.090,299,275,126,130,176,2025-05-24T00:09:56.765714
386,-0.5295,0.8076,-0.1205,-21.000,2.450,5.250,326,294,127,131,176,2025-05-24T00:09:56.765726
387,-0.5358,0.8111,-0.1196,-21.420,2.800,4.130,290,251,126,131,176,2025-05-24T00:09:56.765737
388,-0.5378,0.8159,-0.1249,-22.330,2.660,3.990,315,284,127,131,176,2025-05-24T00:09:56.765749
389,-0.5363,0.8111,-0.1337,-23.870,2.870,2.940,315,280,126,131,176,2025-05-24T00:09:56.765761
390,-0.5475,0.7954,-0.1410,-22.750,1.960,2.660,315,238,127,131,177,2025-05-24T00:09:56.765793
391,-0.5446,0.7993,-0.1357,-19.110,0.420,3.080,264,283,127,131,176,2025-05-24T00:09:56.765804
392,-0.5388,0.8028,-0.1391,-18.340,0.350,3.850,315,275,127,131,176,2025-05-24T00:09:56.765815
393,-0.5300,0.8072,-0.1396,-18.970,1.540,4.480,296,241,127,131,176,2025-05-24T00:09:56.765825
394,-0.5329,0.8091,-0.1337,-20.510,2.940,4.970,279,291,127,131,177,2025-05-24T00:09:56.765836
395,-0.5436,0.8032,-0.1293,-18.550,3.220,6.020,319,276,128,131,176,2025-05-24T00:09:56.765847
396,-0.5470,0.8169,-0.1161,-16.380,3.430,6.790,328,275,130,131,177,2025-05-24T00:09:56.765859
397,-0.5680,0.8198,-0.1044,-17.360,1.960,5.040,292,242,130,131,177,2025-05-24T00:09:56.845427
398,-0.6046,0.8320,-0.0859,-18.270,-4.620,4.550,305,277,130,132,177,2025-05-24T00:09:56.845471
399,-0.6159,0.8418,-0.0810,-17.220,-12.600,5.460,265,235,128,131,177,2025-05-24T00:09:56.845482
400,-0.6076,0.8511,-0.0678,-15.050,-19.810,6.580,294,290,132,131,176,2025-05-24T00:09:56.845492
401,-0.5861,0.8672,-0.0317,-12.250,-25.060,6.440,276,292,132,132,177,2025-05-24T00:09:56.845501
402,-0.5680,0.8930,0.0029,-12.880,-29.050,5.110,309,292,132,131,176,2025-05-24T00:09:56.891605
403,-0.6359,0.9370,0.0854,-13.790,-34.650,2.450,284,281,134,132,177,2025-05-24T00:09:56.891632
404,-0.8140,0.9970,0.2289,-12.950,-56.700,-4.550,252,256,136,132,177,2025-05-24T00:09:56.891639
405,-1.0502,1.0804,0.3919,-14.140,-105.560,-14.280,308,290,137,132,177,2025-05-24T00:09:56.891644
406,-1.1902,1.1561,0.5622,-16.100,-170.380,-24.080,269,278,133,132,177,2025-05-24T00:09:56.891651
407,-1.1400,1.3854,0.7505,-12.390,-239.820,-30.100,313,274,133,132,177,2025-05-24T00:09:56.891657
408,-0.8486,1.8627,0.9082,3.990,-296.800,-32.830,299,276,138,131,177,2025-05-24T00:09:56.945529
409,-0.5183,2.3204,1.0843,26.180,-372.470,-33.810,299,291,140,131,176,2025-05-24T00:09:56.945575
410,-0.0644,2.5093,1.4620,24.990,-462.280,-46.060,298,285,140,130,176,2025-05-24T00:09:56.945587
411,0.4094,2.7030,1.6236,3.220,-573.370,-76.300,301,292,137,130,176,2025-05-24T00:09:56.945597
412,0.8384,2.7455,1.4713,4.900,-687.120,-136.780,304,288,140,130,176,2025-05-24T00:09:57.203485
413,1.4445,3.0061,1.1336,-14.700,-766.850,-195.650,307,301,148,134,180,2025-05-24T00:09:57.203557
414,1.9520,3.2418,0.6661,-38.640,-773.710,-245.770,323,296,164,137,183,2025-05-24T00:09:57.203580
415,2.2702,3.0090,0.1889,-59.850,-711.200,-294.490,233,304,171,138,183,2025-05-24T00:09:57.203599
416,2.3004,2.3839,-0.1537,-52.430,-633.990,-313.950,317,311,198,143,187,2025-05-24T00:09:57.203617
417,2.2404,1.5133,-0.4075,-37.730,-573.860,-336.490,327,312,197,141,187,2025-05-24T00:09:57.203635
418,2.0359,0.6251,-0.5924,-30.030,-513.590,-390.110,318,300,196,139,184,2025-05-24T00:09:57.203652
419,1.5396,0.0000,-0.6276,-57.820,-506.870,-428.190,311,275,191,137,182,2025-05-24T00:09:57.203670
420,1.1629,-0.5305,-0.6056,-182.770,-535.150,-461.300,312,293,189,133,179,2025-05-24T00:09:57.203692
421,0.9623,-1.5494,-0.6978,-341.040,-584.570,-489.720,297,288,180,132,178,2025-05-24T00:09:57.203709
422,1.3059,-3.0739,-0.2855,-446.250,-557.060,-513.170,282,261,174,131,177,2025-05-24T00:09:57.203726
423,1.2220,-5.3343,0.6515,-575.890,-490.140,-538.370,288,259,184,130,175,2025-05-24T00:09:57.203743
424,0.5836,-7.2180,1.6407,-594.300,-410.200,-570.990,289,279,180,130,175,2025-05-24T00:09:57.203758
425,0.1459,-6.9969,2.2492,-390.460,-246.610,-556.780,301,240,180,128,173,2025-05-24T00:09:57.203821
426,-1.0697,-5.0230,1.7910,-204.820,-11.760,-510.020,297,294,180,126,172,2025-05-24T00:09:57.203841
427,-2.7108,-2.9802,1.3337,-14.560,230.510,-358.330,303,285,174,123,170,2025-05-24T00:09:57.203859
428,-3.1871,-1.5606,1.2449,66.640,375.830,-96.530,288,290,165,124,169,2025-05-24T00:09:57.204145
429,-2.0032,-1.4782,0.3523,41.020,416.850,189.770,293,289,173,124,169,2025-05-24T00:09:57.204165
430,-0.9272,-1.7324,0.3328,-23.450,513.590,338.520,279,270,166,124,169,2025-05-24T00:09:57.204184
431,-0.3099,-2.1506,0.8154,-164.500,447.160,421.610,285,294,162,123,169,2025-05-24T00:09:57.396263
432,-0.2284,-2.8182,0.7559,-188.860,371.980,456.400,280,297,154,123,170,2025-05-24T00:09:57.396315
433,-0.0166,-3.1320,0.3348,-92.610,363.370,476.980,309,290,160,123,169,2025-05-24T00:09:57.396328
434,-0.0488,-2.6816,0.4065,-17.990,369.390,496.020,273,304,147,122,168,2025-05-24T00:09:57.396340
435,-0.0805,-2.0545,0.4216,38.640,441.350,472.150,267,290,162,121,168,2025-05-24T00:09:57.396351
436,-0.5046,-1.4723,0.5305,51.100,409.290,451.220,308,301,156,122,167,2025-05-24T00:09:57.396361
437,-0.8286,-1.0399,0.4982,-68.670,492.870,401.520,304,302,148,122,168,2025-05-24T00:09:57.396373
438,-1.1102,-0.5319,0.5100,-130.200,514.710,383.110,313,294,157,120,167,2025-05-24T00:09:57.396383
439,-1.2615,-0.1220,0.5646,-141.330,509.110,391.650,277,277,149,121,166,2025-05-24T00:09:57.396393
440,-1.3318,0.0717,0.5573,-137.340,466.900,403.970,286,290,140,121,166,2025-05-24T00:09:57.396403
441,-1.3303,0.2001,0.4397,-117.040,429.030,381.220,262,303,140,121,166,2025-05-24T00:09:57.396413
442,-1.1756,0.7637,0.5363,-103.880,405.860,349.860,312,282,140,121,166,2025-05-24T00:09:57.396423
443,-1.0990,1.2327,0.7496,-116.900,359.590,326.900,286,272,137,120,166,2025-05-24T00:09:57.396432
444,-1.0873,1.1829,0.8960,-118.790,229.810,322.560,309,221,145,124,169,2025-05-24T00:09:57.396442
445,-0.9599,1.1351,0.9653,-120.540,123.410,319.340,316,302,146,125,169,2025-05-24T00:09:57.396488
446,-0.6310,1.1453,1.0180,-105.210,65.940,328.930,273,303,194,125,170,2025-05-24T00:09:57.396500
447,-0.2591,1.2415,1.0472,-59.430,50.470,337.400,304,295,197,125,169,2025-05-24T00:09:57.396510
448,0.2255,1.4616,1.0619,-10.500,62.720,334.460,320,285,190,125,169,2025-05-24T00:09:57.396520
449,0.2542,1.4938,1.1668,40.600,79.940,320.040,312,290,176,125,170,2025-05-24T00:09:57.583668
450,0.1947,1.4835,1.3166,-15.190,165.480,269.990,316,225,197,124,169,2025-05-24T00:09:57.583716
451,0.2664,1.4352,1.5138,-36.400,145.040,249.200,325,295,202,125,170,2025-05-24T00:09:57.583729
452,0.4914,1.3898,1.5338,-24.290,104.230,233.870,303,287,207,125,171,2025-05-24T00:09:57.583739
453,0.8784,1.2698,1.5245,-30.590,67.830,204.470,280,283,184,124,170,2025-05-24T00:09:57.583751
454,1.1161,1.2390,1.3752,-19.460,73.570,147.210,318,290,209,127,170,2025-05-24T00:09:57.583761
455,1.0087,1.1400,1.0897,10.220,106.400,66.780,311,312,200,127,170,2025-05-24T00:09:57.583770
456,0.7632,1.1107,0.8501,34.300,144.550,17.640,296,327,199,127,170,2025-05-24T00:09:57.583780
457,0.0542,1.0780,0.7349,22.820,172.620,-27.510,324,319,199,126,170,2025-05-24T00:09:57.583789
458,-0.5290,1.0004,0.3982,-11.480,158.830,-37.660,224,325,209,126,170,2025-05-24T00:09:57.583798
459,-0.9228,0.9096,0.0337,-25.620,124.950,-26.950,299,315,199,127,170,2025-05-24T00:09:57.583808
460,-0.9648,0.9399,-0.1235,-9.730,83.860,-3.080,311,320,191,127,169,2025-05-24T00:09:57.583817
461,-0.6812,1.0199,-0.2611,0.700,64.750,11.410,303,306,207,126,170,2025-05-24T00:09:57.583826
462,-0.4094,1.0282,-0.2977,-9.170,51.100,16.520,305,323,192,126,171,2025-05-24T00:09:57.583835
463,-0.2469,1.0102,-0.2045,-23.030,31.360,16.310,266,278,195,126,170,2025-05-24T00:09:57.583876
464,-0.2176,0.9316,-0.0586,-40.250,7.350,12.040,307,319,195,126,169,2025-05-24T00:09:57.583885
465,-0.2791,0.8774,0.0815,-36.470,-25.620,8.750,317,316,191,127,171,2025-05-24T00:09:57.793679
466,-0.2611,0.8389,0.2084,-29.890,-50.120,5.320,317,312,198,127,170,2025-05-24T00:09:57.793732
467,-0.2445,0.8174,0.2801,-22.050,-44.800,-1.890,326,322,193,128,171,2025-05-24T00:09:57.793746
468,-0.2001,0.8589,0.3216,-11.620,-28.280,-7.490,319,299,194,127,171,2025-05-24T00:09:57.793758
469,-0.2362,0.8979,0.3079,-1.120,-1.960,-11.130,321,310,190,128,172,2025-05-24T00:09:57.793770
470,-0.3123,0.9204,0.2474,9.590,14.700,-13.860,321,305,197,128,171,2025-05-24T00:09:57.793786
471,-0.3318,0.9531,0.1923,12.530,26.670,-13.860,312,276,198,127,171,2025-05-24T00:09:57.793798
472,-0.3802,0.9604,0.1240,8.190,33.040,-12.390,325,300,192,128,171,2025-05-24T00:09:57.793809
473,-0.4046,0.9521,0.0752,3.010,21.980,-10.430,301,319,190,127,171,2025-05-24T00:09:57.793819
474,-0.3831,0.9418,0.0220,-3.220,9.170,-12.040,302,276,186,128,172,2025-05-24T00:09:57.793830
475,-0.3431,0.9394,-0.0122,-6.580,-7.280,-11.970,299,309,201,129,173,2025-05-24T00:09:57.793840
476,-0.3338,0.9428,-0.0268,-3.360,-16.240,-6.720,308,315,199,129,173,2025-05-24T00:09:57.793851
477,-0.3528,0.9433,-0.0351,4.690,-20.300,-0.350,288,231,191,129,173,2025-05-24T00:09:57.793862
478,-0.3099,0.9589,-0.0405,9.870,-19.880,2.870,304,285,191,129,173,2025-05-24T00:09:57.793873
479,-0.2718,0.9633,-0.0303,8.400,-14.420,3.640,325,319,177,129,172,2025-05-24T00:09:57.793920
480,-0.2596,0.9579,-0.0015,3.430,-8.400,2.380,257,310,199,130,173,2025-05-24T00:09:57.793932
481,-0.2835,0.9692,0.0410,-2.450,-6.370,0.770,301,311,200,129,173,2025-05-24T00:09:57.793945
482,-0.3143,0.9623,0.0644,-6.790,-9.310,-2.380,302,311,196,130,174,2025-05-24T00:09:58.023880
483,-0.3109,0.9579,0.0874,-8.330,-12.740,-4.200,321,306,179,130,173,2025-05-24T00:09:58.023926
484,-0.3065,0.9667,0.1049,-7.700,-10.850,-3.710,305,258,202,130,174,2025-05-24T00:09:58.023937
485,-0.2904,0.9750,0.1059,-3.080,-8.050,-1.190,256,283,192,129,173,2025-05-24T00:09:58.023947
486,-0.2801,0.9575,0.1059,2.240,-3.500,1.750,321,302,196,129,174,2025-05-24T00:09:58.023966
487,-0.2948,0.9414,0.1059,7.630,-1.540,4.340,313,304,186,131,173,2025-05-24T00:09:58.023995
488,-0.2777,0.9326,0.1069,13.370,-3.920,5.810,319,318,191,129,173,2025-05-24T00:09:58.024009
489,-0.2786,0.9477,0.0937,17.290,-7.980,4.340,329,305,194,130,174,2025-05-24T00:09:58.024019
490,-0.2948,0.9853,0.0478,20.580,-11.410,2.730,303,262,195,130,174,2025-05-24T00:09:58.024027
491,-0.2948,0.9999,-0.0102,19.530,-13.720,2.240,301,309,201,130,174,2025-05-24T00:09:58.024035
492,-0.2806,0.9833,-0.0625,16.170,-11.060,2.660,317,323,198,131,175,2025-05-24T00:09:58.024043
493,-0.2606,0.9819,-0.0874,11.970,-1.890,5.530,312,264,203,131,175,2025-05-24T00:09:58.024053
494,-0.2952,0.9775,-0.0883,7.980,7.490,6.720,225,319,198,130,175,2025-05-24T00:09:58.024065
495,-0.3304,0.9667,-0.0683,2.800,7.560,6.860,319,314,172,131,175,2025-05-24T00:09:58.024073
496,-0.3518,0.9609,-0.0400,-2.730,1.330,6.020,314,321,196,131,175,2025-05-24T00:09:58.024082
497,-0.3182,0.9765,-0.0059,-7.980,-2.450,5.250,303,322,201,131,174,2025-05-24T00:09:58.024121
498,-0.2918,0.9745,0.0049,-10.780,-1.610,3.290,267,315,200,130,175,2025-05-24T00:09:58.024132
499,-0.2894,0.9765,0.0205,-9.870,-1.330,2.520,296,304,195,131,174,2025-05-24T00:09:58.024140
500,-0.2743,0.9814,0.0361,-8.610,-1.120,2.170,310,317,196,131,175,2025-05-24T00:09:58.024148
501,-0.2679,0.9623,0.0439,-10.150,-0.630,0.840,296,306,202,131,175,2025-05-24T00:09:58.182388
502,-0.2708,0.9409,0.0551,-11.480,-1.540,-0.420,255,310,197,131,175,2025-05-24T00:09:58.204752
503,-0.2982,0.9238,0.0615,-8.610,-3.150,-0.700,253,296,200,131,175,2025-05-24T00:09:58.204802
504,-0.3162,0.9496,0.0756,-6.860,-4.970,0.210,307,293,201,132,175,2025-05-24T00:09:58.204815
505,-0.3255,0.9423,0.0605,-7.700,-6.300,-2.240,297,299,195,131,175,2025-05-24T00:09:58.204828
506,-0.3079,0.9404,0.0434,-7.840,-8.610,-2.590,298,260,199,131,175,2025-05-24T00:09:58.204839
507,-0.2938,0.9257,0.0239,-4.410,-6.300,-1.680,316,289,196,132,175,2025-05-24T00:09:58.204853
508,-0.3030,0.9233,0.0220,0.770,-2.380,-1.330,297,319,195,132,175,2025-05-24T00:09:58.204866
509,-0.3094,0.9360,0.0278,2.240,-3.500,-1.190,309,326,198,132,176,2025-05-24T00:09:58.204878
510,-0.3157,0.9384,0.0322,-0.070,-6.510,-2.100,304,318,197,132,176,2025-05-24T00:09:58.204888
511,-0.3172,0.9374,0.0346,-2.870,-11.480,-2.730,318,305,181,131,176,2025-05-24T00:09:58.204898
512,-0.3079,0.9550,0.0342,-1.330,-14.140,-3.220,311,316,196,132,176,2025-05-24T00:09:58.204908
513,-0.3079,0.9618,0.0268,0.630,-12.950,-4.410,317,318,203,132,176,2025-05-24T00:09:58.204917
514,-0.3128,0.9555,0.0268,0.630,-10.990,-4.690,315,308,198,133,177,2025-05-24T00:09:58.205129
515,-0.3104,0.9570,0.0307,-1.540,-6.860,-3.990,274,323,196,132,177,2025-05-24T00:09:58.205140
516,-0.3274,0.9531,0.0371,-3.220,-3.570,-3.150,281,326,184,132,177,2025-05-24T00:09:58.205149
517,-0.3514,0.9531,0.0542,-3.010,-4.340,-2.170,250,278,182,132,177,2025-05-24T00:09:58.285181
518,-0.3421,0.9589,0.0669,-3.080,-8.330,-1.820,292,320,201,133,176,2025-05-24T00:09:58.285227
519,-0.3299,0.9526,0.0649,-2.940,-12.880,-2.240,281,309,198,132,176,2025-05-24T00:09:58.285238
520,-0.3089,0.9653,0.0581,0.210,-14.980,-1.610,316,322,194,133,177,2025-05-24T00:09:58.285248
521,-0.2943,0.9614,0.0459,3.710,-14.210,-1.470,298,271,193,132,176,2025-05-24T00:09:58.407156
522,-0.2835,0.9550,0.0337,5.530,-11.410,-1.610,294,327,196,132,176,2025-05-24T00:09:58.407212
523,-0.2826,0.9579,0.0259,4.760,-7.630,-1.890,320,328,191,133,176,2025-05-24T00:09:58.407228
524,-0.2884,0.9648,0.0293,2.380,-4.760,-1.750,272,266,196,132,176,2025-05-24T00:09:58.407242
525,-0.3060,0.9604,0.0307,-0.070,-2.870,-1.330,300,298,198,133,176,2025-05-24T00:09:58.407253
526,-0.3148,0.9584,0.0434,-3.150,-3.570,-2.030,297,292,190,133,177,2025-05-24T00:09:58.407264
527,-0.3123,0.9536,0.0542,-4.270,-6.580,-2.940,316,269,191,133,176,2025-05-24T00:09:58.407275
528,-0.3055,0.9526,0.0537,-2.310,-7.560,-3.150,321,295,189,132,176,2025-05-24T00:09:58.407286
529,-0.3055,0.9536,0.0473,1.960,-7.210,-2.660,266,277,190,133,177,2025-05-24T00:09:58.407296
530,-0.3133,0.9511,0.0395,4.340,-7.000,-1.960,290,326,196,133,176,2025-05-24T00:09:58.407307
531,-0.3133,0.9575,0.0346,4.480,-6.370,-1.470,270,308,196,133,177,2025-05-24T00:09:58.407318
532,-0.3152,0.9614,0.0346,1.820,-4.970,-0.910,310,316,199,132,176,2025-05-24T00:09:58.407328
533,-0.3304,0.9526,0.0376,-0.560,-5.390,-1.330,285,328,180,133,176,2025-05-24T00:09:58.407338
534,-0.3235,0.9604,0.0478,-1.750,-6.720,-1.470,277,258,197,132,176,2025-05-24T00:09:58.646157
535,-0.3152,0.9604,0.0537,-2.520,-7.000,-2.380,328,311,193,133,177,2025-05-24T00:09:58.646211
536,-0.3070,0.9677,0.0566,-1.960,-6.580,-3.220,311,300,193,133,177,2025-05-24T00:09:58.646226
537,-0.2948,0.9658,0.0566,-0.560,-5.110,-3.080,302,305,197,134,177,2025-05-24T00:09:58.646239
538,-0.3035,0.9511,0.0547,1.260,-3.990,-2.450,252,308,196,133,177,2025-05-24T00:09:58.646418
539,-0.3143,0.9501,0.0586,2.940,-4.900,-2.310,298,324,198,133,177,2025-05-24T00:09:58.646435
540,-0.3211,0.9565,0.0630,2.730,-6.160,-2.660,318,315,192,132,177,2025-05-24T00:09:58.646450
541,-0.3314,0.9540,0.0454,1.540,-6.650,-3.780,296,328,192,133,177,2025-05-24T00:09:58.646480
542,-0.3338,0.9638,0.0322,1.680,-6.930,-3.640,317,322,197,133,177,2025-05-24T00:09:58.646491
543,-0.3240,0.9687,0.0293,1.260,-5.320,-3.220,312,296,198,133,178,2025-05-24T00:09:58.646502
544,-0.3211,0.9589,0.0234,-17.920,-3.570,-3.220,309,329,192,133,177,2025-05-24T00:09:58.646513
545,-0.3143,0.9531,0.0298,-2.100,-3.710,-2.450,313,302,190,135,177,2025-05-24T00:09:58.646523
546,-0.3192,0.9496,0.0381,-3.710,-4.690,-2.450,299,310,198,134,178,2025-05-24T00:09:58.646533
547,-0.3187,0.9540,0.0449,-3.010,-7.280,-2.450,296,326,192,133,178,2025-05-24T00:09:58.646544
548,-0.3060,0.9677,0.0503,-1.680,-8.470,-1.960,297,317,192,133,178,2025-05-24T00:09:58.646554
549,-0.2933,0.9658,0.0561,-1.470,-6.930,-2.590,315,257,192,134,179,2025-05-24T00:09:58.646607
550,-0.2806,0.9536,0.0639,-1.680,-5.530,-3.220,324,309,195,133,177,2025-05-24T00:09:58.646618
551,-0.2826,0.9379,0.0703,-1.330,-3.850,-3.500,309,328,191,135,178,2025-05-24T00:09:58.835323
552,-0.2918,0.9379,0.0825,-0.070,-3.290,-4.340,317,259,193,134,179,2025-05-24T00:09:58.835373
553,-0.3011,0.9350,0.0752,0.560,-4.410,-6.580,295,300,192,134,178,2025-05-24T00:09:58.835386
554,-0.3074,0.9521,0.0688,1.540,-4.760,-8.120,279,317,191,134,179,2025-05-24T00:09:58.835398
555,-0.3192,0.9599,0.0605,2.240,-4.480,-8.190,293,313,193,134,179,2025-05-24T00:09:58.835409
556,-0.3353,0.9472,0.0468,3.220,-4.410,-8.260,294,321,196,134,178,2025-05-24T00:09:58.835423
557,-0.3284,0.9306,0.0371,3.780,-4.970,-8.050,300,306,197,134,178,2025-05-24T00:09:58.835433
558,-0.3309,0.9199,0.0239,3.710,-3.990,-7.490,306,312,173,134,178,2025-05-24T00:09:58.835444
559,-0.3411,0.9365,0.0215,3.640,-1.750,-6.790,325,319,193,135,179,2025-05-24T00:09:58.835454
560,-0.3484,0.9423,0.0161,2.450,-0.210,-6.650,314,324,196,135,178,2025-05-24T00:09:58.835464
561,-0.3518,0.9526,0.0151,0.630,0.280,-6.230,269,323,199,135,179,2025-05-24T00:09:58.835473
562,-0.3426,0.9487,0.0229,-1.120,0.210,-5.740,250,328,173,134,179,2025-05-24T00:09:58.835483
563,-0.3333,0.9326,0.0249,-2.170,-0.980,-6.020,304,319,192,135,179,2025-05-24T00:09:58.835508
564,-0.3231,0.9287,0.0337,-1.750,-3.640,-6.020,298,312,196,135,179,2025-05-24T00:09:58.835518
565,-0.3309,0.9184,0.0288,-0.770,-5.180,-7.070,299,318,191,135,179,2025-05-24T00:09:58.835527
566,-0.3411,0.9292,0.0210,2.590,-5.950,-7.140,310,293,192,134,179,2025-05-24T00:09:58.835570
567,-0.3499,0.9355,0.0176,5.390,-4.760,-6.160,316,304,189,135,179,2025-05-24T00:09:58.835581
568,-0.3640,0.9316,0.0151,5.390,-2.800,-5.880,300,322,190,135,179,2025-05-24T00:09:58.835592
569,-0.3772,0.9301,0.0215,3.710,-2.730,-5.740,306,284,198,135,179,2025-05-24T00:09:58.835601
570,-0.3836,0.9345,0.0351,1.260,-3.360,-6.090,319,316,198,136,179,2025-05-24T00:09:58.923421
571,-0.3836,0.9501,0.0454,0.140,-4.200,-6.580,299,302,183,135,180,2025-05-24T00:09:58.923467
572,-0.3899,0.9565,0.0537,-0.280,-6.230,-6.860,319,326,192,136,180,2025-05-24T00:09:58.923479
573,-0.3972,0.9579,0.0434,-0.280,-8.260,-7.280,318,264,189,135,180,2025-05-24T00:09:58.923489
574,-0.3880,0.9575,0.0268,1.260,-9.100,-4.550,254,284,190,135,179,2025-05-24T00:09:58.923498
575,-0.3850,0.9550,0.0200,3.500,-6.580,-2.100,251,317,186,135,179,2025-05-24T00:09:58.923507
576,-0.3855,0.9550,0.0288,4.130,-5.600,-0.280,294,324,197,135,179,2025-05-24T00:09:58.923518
577,-0.3860,0.9516,0.0356,2.170,-6.440,0.420,316,305,180,136,180,2025-05-24T00:09:59.005325
578,-0.3875,0.9443,0.0361,-0.140,-8.260,0.420,274,329,194,135,180,2025-05-24T00:09:59.005370
579,-0.3709,0.9521,0.0351,-0.910,-9.380,1.120,256,302,197,136,180,2025-05-24T00:09:59.005385
580,-0.3460,0.9482,0.0342,-0.840,-8.470,1.120,326,320,195,136,179,2025-05-24T00:09:59.005395
581,-0.3284,0.9394,0.0332,-0.980,-7.770,0.910,295,323,196,136,180,2025-05-24T00:09:59.227382
582,-0.3226,0.9345,0.0327,-1.260,-7.560,0.420,302,322,180,136,180,2025-05-24T00:09:59.227433
583,-0.3172,0.9282,0.0293,-0.420,-7.070,0.000,290,265,196,135,180,2025-05-24T00:09:59.227446
584,-0.3182,0.9204,0.0259,0.630,-5.740,-0.280,300,313,180,136,180,2025-05-24T00:09:59.227457
585,-0.3299,0.9213,0.0244,1.470,-4.340,-0.490,299,318,174,135,180,2025-05-24T00:09:59.227469
586,-0.3367,0.9316,0.0312,1.330,-3.990,-0.910,307,321,190,136,180,2025-05-24T00:09:59.227479
587,-0.3314,0.9404,0.0376,0.490,-3.780,-1.400,309,311,192,136,180,2025-05-24T00:09:59.227489
588,-0.3318,0.9389,0.0420,-0.700,-2.380,-2.380,316,275,191,136,180,2025-05-24T00:09:59.227500
589,-0.3401,0.9389,0.0459,-0.070,-1.540,-2.800,294,262,181,136,180,2025-05-24T00:09:59.227510
590,-0.3514,0.9457,0.0517,0.490,-1.120,-2.800,286,319,193,136,180,2025-05-24T00:09:59.227519
591,-0.3528,0.9355,0.0478,0.140,-1.120,-2.940,309,300,184,136,180,2025-05-24T00:09:59.227533
592,-0.3558,0.9399,0.0512,-0.210,-1.050,-2.660,305,304,193,136,180,2025-05-24T00:09:59.227543
593,-0.3743,0.9331,0.0425,0.140,-0.980,-2.940,281,320,190,137,181,2025-05-24T00:09:59.227553
594,-0.3743,0.9492,0.0444,1.120,-1.540,-1.960,311,317,179,136,180,2025-05-24T00:09:59.227562
595,-0.3762,0.9609,0.0425,0.280,-1.050,-1.260,324,311,193,136,180,2025-05-24T00:09:59.227571
596,-0.3738,0.9570,0.0395,-1.260,-1.260,-0.560,313,302,193,136,180,2025-05-24T00:09:59.227616
597,-0.3709,0.9614,0.0405,-1.820,-2.450,0.280,291,316,186,136,180,2025-05-24T00:09:59.227627
598,-0.3475,0.9633,0.0405,-2.380,-1.680,0.560,297,313,197,136,181,2025-05-24T00:09:59.227636
599,-0.3353,0.9462,0.0386,-3.150,0.000,0.070,301,304,186,136,181,2025-05-24T00:09:59.227646
600,-0.3382,0.9409,0.0390,-3.430,0.980,-0.070,281,318,193,136,181,2025-05-24T00:09:59.227656
601,-0.3343,0.9365,0.0459,-3.220,1.680,-0.070,320,331,195,136,180,2025-05-24T00:09:59.227779
602,-0.3416,0.9296,0.0454,-2.940,2.240,-0.700,286,321,199,137,180,2025-05-24T00:09:59.284751
603,-0.3475,0.9360,0.0508,-2.170,2.380,-0.210,288,278,191,136,180,2025-05-24T00:09:59.284813
604,-0.3636,0.9257,0.0542,-1.540,1.260,0.000,311,316,191,136,180,2025-05-24T00:09:59.284828
605,-0.3680,0.9267,0.0595,-0.210,-0.420,0.350,287,316,197,136,180,2025-05-24T00:09:59.284840
606,-0.3577,0.9272,0.0610,0.490,-1.750,0.630,224,277,181,136,181,2025-05-24T00:09:59.284852
607,-0.3431,0.9262,0.0615,-0.070,-0.910,0.210,319,302,184,135,181,2025-05-24T00:09:59.284863
608,-0.3416,0.9170,0.0590,0.560,-0.840,-1.190,316,228,198,136,180,2025-05-24T00:09:59.457459
609,-0.3416,0.9199,0.0595,1.680,-0.630,-2.450,272,324,198,136,181,2025-05-24T00:09:59.457494
610,-0.3421,0.9174,0.0571,2.590,0.490,-3.430,296,305,198,136,182,2025-05-24T00:09:59.457503
611,-0.3567,0.9077,0.0532,3.780,1.540,-3.570,253,317,191,136,181,2025-05-24T00:09:59.457511
612,-0.3694,0.9121,0.0483,5.320,1.750,-3.290,222,327,188,136,181,2025-05-24T00:09:59.457517
613,-0.3714,0.9223,0.0395,6.370,1.960,-3.290,310,333,197,136,181,2025-05-24T00:09:59.457523
614,-0.3758,0.9184,0.0351,6.440,0.700,-3.220,296,312,197,136,182,2025-05-24T00:09:59.457529
615,-0.3714,0.9238,0.0239,6.090,-1.610,-2.870,314,318,196,136,181,2025-05-24T00:09:59.457536
616,-0.3660,0.9204,0.0083,5.040,-2.380,-3.220,298,312,197,136,181,2025-05-24T00:09:59.457542
617,-0.3723,0.9287,-0.0005,5.460,-1.750,-3.080,315,306,195,136,181,2025-05-24T00:09:59.457548
618,-0.3743,0.9472,-0.0044,5.390,-0.420,-1.960,296,332,197,136,181,2025-05-24T00:09:59.457554
619,-0.3792,0.9560,-0.0029,4.830,0.840,-1.190,315,309,194,136,181,2025-05-24T00:09:59.640623
620,-0.3655,0.9618,-0.0039,3.290,0.700,-0.630,314,271,191,136,181,2025-05-24T00:09:59.640672
621,-0.3572,0.9570,-0.0039,1.960,0.910,-0.420,306,323,192,136,182,2025-05-24T00:09:59.640685
622,-0.3489,0.9555,0.0049,1.330,1.400,-0.280,298,266,196,136,181,2025-05-24T00:09:59.640695
623,-0.3562,0.9506,0.0190,0.770,0.350,-0.420,314,309,197,136,181,2025-05-24T00:09:59.640705
624,-0.3704,0.9487,0.0317,0.140,-2.310,-0.490,294,301,197,136,181,2025-05-24T00:09:59.640715
625,-0.3650,0.9584,0.0415,-0.140,-4.480,-0.280,322,309,195,136,182,2025-05-24T00:09:59.640724
626,-0.3533,0.9531,0.0390,-0.140,-3.920,-0.700,324,317,198,136,182,2025-05-24T00:09:59.640735
627,-0.3533,0.9511,0.0390,0.630,-1.120,-0.280,317,299,181,136,181,2025-05-24T00:09:59.640745
628,-0.3689,0.9399,0.0342,2.030,1.190,0.210,326,309,192,136,182,2025-05-24T00:09:59.640754
629,-0.3748,0.9331,0.0342,2.940,0.770,1.050,322,320,193,136,182,2025-05-24T00:09:59.640763
630,-0.3762,0.9267,0.0312,2.800,-0.630,1.260,317,304,197,137,182,2025-05-24T00:09:59.640772
631,-0.3665,0.9355,0.0307,2.450,-1.890,1.050,301,315,193,136,181,2025-05-24T00:09:59.640781
632,-0.3611,0.9384,0.0293,2.310,-3.500,0.770,299,317,197,136,182,2025-05-24T00:09:59.640789
633,-0.3592,0.9374,0.0220,2.240,-4.900,0.280,317,306,174,136,182,2025-05-24T00:09:59.640798
634,-0.3518,0.9394,0.0176,2.660,-5.460,0.070,225,303,190,137,182,2025-05-24T00:09:59.640835
635,-0.3431,0.9433,0.0122,2.940,-3.710,0.000,323,316,197,137,182,2025-05-24T00:09:59.640845
636,-0.3470,0.9321,0.0029,3.640,-2.100,-0.490,310,323,191,136,182,2025-05-24T00:09:59.640854
637,-0.3587,0.9389,0.0049,3.990,-0.840,-0.210,316,265,197,136,182,2025-05-24T00:09:59.689343
638,-0.3680,0.9409,0.0083,3.010,-0.980,-0.210,219,308,198,137,183,2025-05-24T00:09:59.689385
639,-0.3738,0.9394,0.0132,1.750,-2.940,-0.070,294,265,196,137,182,2025-05-24T00:09:59.689395
640,-0.3626,0.9496,0.0161,1.400,-4.620,-0.210,274,311,193,136,182,2025-05-24T00:09:59.689404
641,-0.3528,0.9487,0.0151,1.190,-4.550,-0.910,320,325,199,136,182,2025-05-24T00:09:59.833357
642,-0.3523,0.9531,0.0137,1.680,-3.990,-1.120,303,316,197,137,182,2025-05-24T00:09:59.833411
643,-0.3597,0.9531,0.0107,1.680,-3.780,-0.910,326,266,198,138,182,2025-05-24T00:09:59.833426
644,-0.3650,0.9487,0.0083,1.750,-4.060,-0.490,305,324,193,137,182,2025-05-24T00:09:59.833438
645,-0.3655,0.9438,0.0088,1.750,-4.130,-0.350,322,325,195,138,183,2025-05-24T00:09:59.833450
646,-0.3606,0.9428,0.0107,1.610,-3.780,-0.140,311,316,198,137,183,2025-05-24T00:09:59.833461
647,-0.3587,0.9462,0.0127,1.120,-3.570,-0.560,313,308,192,137,182,2025-05-24T00:09:59.833471
648,-0.3592,0.9545,0.0102,0.280,-4.550,-1.050,319,302,199,138,183,2025-05-24T00:09:59.833484
649,-0.3597,0.9594,0.0063,-0.280,-5.880,-0.910,321,325,191,137,183,2025-05-24T00:09:59.833494
650,-0.3533,0.9623,0.0044,-0.280,-6.090,-1.190,293,258,191,137,183,2025-05-24T00:09:59.833505
651,-0.3499,0.9594,0.0068,0.070,-5.460,-0.980,316,303,193,137,183,2025-05-24T00:09:59.979224
652,-0.3499,0.9599,0.0093,-0.070,-4.130,-0.910,296,305,181,137,183,2025-05-24T00:09:59.979253
653,-0.3558,0.9531,0.0102,-0.560,-2.380,-0.770,314,322,195,137,182,2025-05-24T00:10:00.041581
654,-0.3523,0.9526,0.0112,-1.050,-1.050,0.000,278,316,174,138,183,2025-05-24T00:10:00.041650
655,-0.3601,0.9482,0.0151,-1.610,-0.420,-0.210,316,295,180,137,183,2025-05-24T00:10:00.041671
656,-0.3645,0.9453,0.0146,-2.520,-2.450,0.210,288,313,191,138,184,2025-05-24T00:10:00.041688
657,-0.3680,0.9394,0.0122,-3.080,-5.110,0.490,310,292,194,138,183,2025-05-24T00:10:00.041704
658,-0.3567,0.9423,0.0151,-2.940,-6.930,0.490,320,322,197,138,183,2025-05-24T00:10:00.041720
659,-0.3489,0.9472,0.0166,-2.450,-7.490,0.280,313,302,193,138,184,2025-05-24T00:10:00.041734
660,-0.3460,0.9389,0.0137,-2.100,-5.950,0.070,285,257,199,138,183,2025-05-24T00:10:00.041749
661,-0.3411,0.9316,0.0185,-1.750,-4.130,0.420,317,318,197,138,184,2025-05-24T00:10:00.041764
662,-0.3518,0.9155,0.0166,-1.610,-1.960,-0.140,298,286,197,138,184,2025-05-24T00:10:00.041778
663,-0.3533,0.9160,0.0151,-0.630,-1.680,0.000,256,293,182,138,183,2025-05-24T00:10:00.041793
664,-0.3494,0.9209,0.0195,-0.910,-2.310,-0.350,309,298,188,138,184,2025-05-24T00:10:00.041806
665,-0.3372,0.9238,0.0249,-1.960,-3.640,-1.190,329,300,198,138,184,2025-05-24T00:10:00.041821
666,-0.3279,0.9277,0.0264,-1.750,-4.900,-2.380,317,264,182,138,184,2025-05-24T00:10:00.041836
667,-0.3216,0.9335,0.0395,-0.630,-5.250,-3.850,321,316,189,138,183,2025-05-24T00:10:00.041850
668,-0.3235,0.9326,0.0561,0.910,-5.740,-5.180,312,290,196,139,184,2025-05-24T00:10:00.041864
669,-0.3226,0.9316,0.0693,1.540,-6.370,-6.650,302,313,199,139,184,2025-05-24T00:10:00.041924
670,-0.3148,0.9296,0.0810,2.940,-5.600,-8.050,314,325,196,138,183,2025-05-24T00:10:00.041938
671,-0.3221,0.9228,0.0908,6.020,-3.850,-9.520,253,280,183,139,184,2025-05-24T00:10:00.293807
672,-0.3343,0.9218,0.0956,8.540,-3.150,-11.200,279,259,198,138,184,2025-05-24T00:10:00.293853
673,-0.3518,0.9243,0.0752,10.780,-3.220,-12.180,310,308,198,138,184,2025-05-24T00:10:00.293865
674,-0.3587,0.9238,0.0595,11.410,-3.080,-11.970,315,303,193,139,183,2025-05-24T00:10:00.293879
675,-0.3714,0.9174,0.0425,11.900,-3.780,-12.040,318,291,182,139,185,2025-05-24T00:10:00.293889
676,-0.3689,0.9184,0.0342,11.900,-6.020,-12.320,302,261,193,139,184,2025-05-24T00:10:00.293899
677,-0.3538,0.9067,0.0361,11.270,-7.630,-12.950,307,261,198,138,184,2025-05-24T00:10:00.293908
678,-0.3357,0.8984,0.0527,10.570,-8.400,-14.140,264,292,195,139,185,2025-05-24T00:10:00.293919
679,-0.3226,0.8847,0.0781,10.920,-9.940,-16.310,303,315,197,138,185,2025-05-24T00:10:00.293928
680,-0.3016,0.8638,0.1103,13.370,-12.320,-18.900,313,309,197,140,184,2025-05-24T00:10:00.293937
681,-0.2747,0.8296,0.1488,16.660,-15.680,-23.660,321,324,199,139,185,2025-05-24T00:10:00.293946
682,-0.2430,0.7915,0.1835,21.140,-21.000,-29.610,296,293,182,139,185,2025-05-24T00:10:00.293955
683,-0.2118,0.7379,0.2259,25.830,-27.860,-37.030,292,307,196,139,184,2025-05-24T00:10:00.293963
684,-0.1757,0.6593,0.2630,33.040,-34.230,-46.200,318,321,199,139,185,2025-05-24T00:10:00.293972
685,-0.1425,0.5905,0.2908,42.770,-41.790,-54.740,287,257,198,140,185,2025-05-24T00:10:00.294012
686,-0.1025,0.5475,0.3118,51.940,-45.430,-67.760,317,307,193,140,185,2025-05-24T00:10:00.294021
687,-0.0971,0.4680,0.3426,61.810,-46.340,-85.400,296,262,198,139,185,2025-05-24T00:10:00.294030
688,-0.0878,0.3699,0.3655,73.290,-49.210,-103.950,316,321,198,140,184,2025-05-24T00:10:00.294344
689,-0.0586,0.2162,0.3841,84.490,-47.810,-120.470,286,292,199,139,186,2025-05-24T00:10:00.294358
690,-0.0161,0.0278,0.3933,98.420,-40.880,-145.530,312,291,199,140,185,2025-05-24T00:10:00.294370
691,0.0346,-0.1840,0.3860,115.640,-34.440,-172.200,320,302,196,140,186,2025-05-24T00:10:00.452158
692,0.0351,-0.4197,0.3636,140.070,-22.820,-199.990,328,303,191,141,187,2025-05-24T00:10:00.452347
693,0.0293,-0.7276,0.3484,156.170,-12.390,-222.530,265,320,201,141,186,2025-05-24T00:10:00.452360
694,0.0659,-1.0106,0.2923,183.610,-2.520,-255.990,311,319,195,140,186,2025-05-24T00:10:00.452371
695,0.0917,-1.4162,0.1854,210.070,11.620,-287.770,318,311,194,141,186,2025-05-24T00:10:00.452381
696,0.0864,-1.7900,0.0259,230.300,33.040,-322.350,223,300,178,141,187,2025-05-24T00:10:00.452391
697,-0.0473,-2.1004,-0.1527,253.470,56.280,-356.930,317,318,175,140,187,2025-05-24T00:10:00.452401
698,-0.2440,-2.4078,-0.3904,278.250,84.910,-383.530,226,311,173,141,186,2025-05-24T00:10:00.452411
699,-0.5661,-2.5913,-0.6681,319.830,97.510,-394.240,329,316,167,140,187,2025-05-24T00:10:00.452419
700,-0.7896,-2.6435,-0.9316,363.160,107.240,-391.440,273,324,167,141,186,2025-05-24T00:10:00.452428
701,-1.1473,-2.6889,-1.3244,402.430,111.370,-386.540,299,299,169,142,188,2025-05-24T00:10:00.452437
702,-1.3371,-2.5552,-1.6128,425.530,121.100,-391.160,323,316,166,142,186,2025-05-24T00:10:00.452446
703,-1.5328,-2.4176,-1.9525,422.870,136.850,-387.660,306,318,163,141,187,2025-05-24T00:10:00.452454
704,-1.6124,-2.3043,-2.1833,400.610,158.970,-374.920,329,236,163,140,187,2025-05-24T00:10:00.452463
705,-1.9325,-2.2121,-2.5454,380.030,174.160,-350.490,321,306,162,141,186,2025-05-24T00:10:00.535211
706,-2.1370,-1.9764,-2.7928,376.810,184.240,-309.680,328,302,162,142,187,2025-05-24T00:10:00.535259
707,-2.3951,-1.6680,-2.8231,391.860,169.120,-267.330,224,285,161,142,186,2025-05-24T00:10:00.535271
708,-2.2804,-1.1946,-2.6738,381.500,136.500,-256.060,324,320,160,139,185,2025-05-24T00:10:00.535281
709,-1.9969,-0.7452,-2.7777,343.140,126.700,-245.700,325,312,160,140,186,2025-05-24T00:10:00.656016
710,-1.7954,-0.0722,-2.9475,281.540,175.350,-234.150,307,315,161,139,185,2025-05-24T00:10:00.656064
711,-1.9793,0.5075,-3.1535,197.330,251.020,-195.090,298,310,156,140,185,2025-05-24T00:10:00.656077
712,-2.5561,0.9194,-3.3794,148.680,277.340,-162.050,302,312,158,138,183,2025-05-24T00:10:00.656088
713,-3.0607,1.4991,-3.4419,143.150,248.430,-116.550,311,294,151,136,182,2025-05-24T00:10:00.656099
714,-3.3194,2.4888,-3.3833,78.050,179.970,-86.380,259,289,155,135,181,2025-05-24T00:10:00.656109
715,-3.4028,3.1125,-3.7996,-11.340,137.900,-52.500,268,281,151,133,179,2025-05-24T00:10:00.656119
716,-3.2847,3.3238,-4.6048,-103.250,132.930,0.630,310,293,153,132,178,2025-05-24T00:10:00.656128
717,-3.3574,3.1188,-5.4090,-235.060,152.180,64.120,328,257,150,131,176,2025-05-24T00:10:00.656138
718,-3.5219,2.3770,-6.2469,-378.980,144.620,123.900,296,296,149,130,176,2025-05-24T00:10:00.656147
719,-3.5077,1.2342,-6.9960,-534.940,101.780,167.860,283,294,148,129,177,2025-05-24T00:10:00.656155
720,-3.1666,0.1708,-7.2336,-682.920,34.650,204.050,248,271,144,130,176,2025-05-24T00:10:00.656164
721,-2.7377,-0.8603,-7.4191,-826.560,-41.230,224.770,274,237,145,132,178,2025-05-24T00:10:00.893802
722,-2.2741,-2.3805,-7.4210,-890.400,-131.110,249.900,316,245,146,133,179,2025-05-24T00:10:00.893853
723,-1.7046,-3.2574,-7.5606,-972.440,-180.250,271.460,302,254,145,133,179,2025-05-24T00:10:00.893867
724,-1.5528,-3.9948,-7.2434,-972.930,-196.980,286.580,251,244,145,133,180,2025-05-24T00:10:00.893879
725,-1.8920,-4.7692,-6.9115,-937.650,-239.610,286.020,308,247,147,133,178,2025-05-24T00:10:00.893891
726,-2.1545,-5.6784,-6.3181,-874.580,-308.490,274.540,285,265,150,135,180,2025-05-24T00:10:00.893906
727,-1.4128,-5.7472,-5.2606,-777.210,-332.010,273.350,315,276,151,139,185,2025-05-24T00:10:00.893917
728,-0.4982,-5.3597,-3.8781,-703.290,-240.940,297.920,299,268,154,140,185,2025-05-24T00:10:00.893927
729,0.3948,-5.2104,-2.8821,-631.960,-101.850,316.960,314,276,152,140,186,2025-05-24T00:10:00.893938
730,0.8350,-5.3334,-2.2560,-572.880,-1.400,294.000,283,252,151,135,180,2025-05-24T00:10:00.893949
731,0.8237,-5.2392,-1.4791,-498.120,48.300,246.470,304,299,146,133,179,2025-05-24T00:10:00.893959
732,0.5958,-4.7980,-0.5348,-436.660,18.340,166.460,317,251,142,132,179,2025-05-24T00:10:00.893969
733,0.7706,-4.2075,0.5910,-388.150,-71.400,94.710,294,322,143,132,179,2025-05-24T00:10:00.893979
734,1.1673,-4.0850,0.9687,-350.280,-140.700,37.660,299,325,155,133,180,2025-05-24T00:10:00.893989
735,1.6187,-3.7352,0.9902,-206.710,-115.500,-13.930,318,329,162,139,185,2025-05-24T00:10:00.894031
736,1.6377,-2.8777,1.0809,-2.870,-22.960,-41.930,322,317,168,140,188,2025-05-24T00:10:00.894043
737,1.3259,-1.9388,1.1541,188.580,67.130,-57.050,263,323,170,140,187,2025-05-24T00:10:00.894053
738,0.9867,-1.0341,1.1346,321.650,150.010,-76.790,309,303,165,140,187,2025-05-24T00:10:00.894062
739,0.3514,-0.4895,0.8945,338.310,170.450,-106.680,279,325,167,141,189,2025-05-24T00:10:01.082483
740,-0.1981,-0.0893,0.4738,343.140,118.650,-131.320,320,296,166,142,189,2025-05-24T00:10:01.082550
741,-0.4758,0.3933,0.1044,346.080,60.760,-154.280,311,257,158,135,182,2025-05-24T00:10:01.082572
742,-0.6256,0.9228,-0.4016,357.560,60.060,-171.290,328,275,152,134,179,2025-05-24T00:10:01.082590
743,-0.7222,1.3752,-0.9155,364.350,97.930,-169.820,314,288,144,132,178,2025-05-24T00:10:01.082606
744,-0.8833,1.7500,-1.3449,357.980,159.950,-156.520,256,319,151,132,177,2025-05-24T00:10:01.082621
745,-1.2908,1.9559,-1.6763,321.790,190.540,-142.450,295,291,134,131,177,2025-05-24T00:10:01.082637
746,-1.9710,2.1779,-1.6226,294.140,173.110,-122.500,295,291,135,130,176,2025-05-24T00:10:01.082655
747,-2.2482,2.1257,-1.5055,189.350,92.400,-117.320,318,293,133,130,176,2025-05-24T00:10:01.082670
748,-2.3556,1.9842,-1.3288,68.390,-0.350,-92.820,329,247,132,131,176,2025-05-24T00:10:01.082685
749,-2.0691,1.8295,-1.0004,-26.180,-81.200,-66.080,269,306,130,130,175,2025-05-24T00:10:01.082700
750,-1.6660,1.5865,-0.8706,-36.890,-118.230,-32.550,300,307,132,132,177,2025-05-24T00:10:01.082716
751,-1.3205,1.4303,-0.6866,-30.940,-102.550,-0.770,298,306,133,132,176,2025-05-24T00:10:01.082730
752,-1.0326,1.3088,-0.5183,-26.810,-78.260,25.340,333,295,137,136,180,2025-05-24T00:10:01.082742
753,-0.9126,1.1561,-0.4324,-26.040,-75.740,46.830,292,311,138,136,182,2025-05-24T00:10:01.082793
754,-0.7237,1.0624,-0.3938,-27.440,-85.820,62.020,258,258,138,138,183,2025-05-24T00:10:01.082807
755,-0.5685,0.9511,-0.3553,-42.140,-90.370,72.310,327,294,138,137,183,2025-05-24T00:10:01.082820
756,-0.4036,0.8496,-0.3323,-47.530,-91.490,69.930,290,308,137,138,183,2025-05-24T00:10:01.082834
757,-0.2308,0.7935,-0.3021,-44.520,-92.120,63.280,314,301,139,139,184,2025-05-24T00:10:01.165943
758,-0.0834,0.7710,-0.3026,-34.790,-91.000,55.580,259,292,139,138,184,2025-05-24T00:10:01.165988
759,0.0005,0.7657,-0.2645,-30.730,-81.830,45.990,297,296,139,140,185,2025-05-24T00:10:01.166000
760,0.0503,0.7701,-0.2113,-29.820,-61.950,38.920,319,252,140,140,185,2025-05-24T00:10:01.166010
761,0.0322,0.7383,-0.1645,-28.980,-39.270,31.010,257,298,138,140,186,2025-05-24T00:10:01.275205
762,-0.0386,0.7427,-0.0820,-22.120,-20.370,25.760,322,312,141,141,186,2025-05-24T00:10:01.275258
763,-0.1308,0.7627,-0.0478,-18.480,-5.950,20.510,282,311,141,141,185,2025-05-24T00:10:01.275273
764,-0.2328,0.7720,-0.0317,-13.720,-0.630,13.790,328,323,140,142,187,2025-05-24T00:10:01.275285
765,-0.3030,0.7842,-0.0288,-10.640,-2.940,6.790,328,300,141,142,187,2025-05-24T00:10:01.275299
766,-0.3528,0.8057,-0.0532,-5.600,-6.650,3.290,329,258,142,142,188,2025-05-24T00:10:01.275309
767,-0.3943,0.8242,-0.0761,-0.910,-7.630,0.140,320,269,141,143,188,2025-05-24T00:10:01.275404
768,-0.4372,0.8018,-0.0986,1.050,-8.890,-1.610,310,315,142,142,187,2025-05-24T00:10:01.275439
769,-0.4768,0.8272,-0.1015,1.680,-11.690,-0.280,325,297,143,142,188,2025-05-24T00:10:01.275452
770,-0.4719,0.8701,-0.1142,-2.520,-10.010,0.980,330,318,142,143,188,2025-05-24T00:10:01.275469
771,-0.5017,0.8813,-0.1420,-8.190,-3.990,2.100,274,315,143,143,187,2025-05-24T00:10:01.275610
772,-0.5309,0.8882,-0.1527,-10.990,0.560,2.240,302,317,141,143,188,2025-05-24T00:10:01.275621
773,-0.5309,0.8901,-0.1713,-10.780,1.260,3.780,320,260,142,143,188,2025-05-24T00:10:01.471745
774,-0.5275,0.8686,-0.2094,-10.780,2.030,4.690,327,296,142,143,188,2025-05-24T00:10:01.471787
775,-0.5207,0.8706,-0.2298,-10.570,-0.420,4.620,335,309,141,142,187,2025-05-24T00:10:01.471798
776,-0.5007,0.8784,-0.2245,-13.580,-2.590,4.760,306,316,141,143,188,2025-05-24T00:10:01.471808
777,-0.5061,0.8735,-0.2250,-18.830,-5.390,4.130,319,321,142,142,188,2025-05-24T00:10:01.471817
778,-0.5051,0.8755,-0.2181,-22.890,-10.220,3.360,332,298,143,143,187,2025-05-24T00:10:01.471826
779,-0.4758,0.8804,-0.2050,-23.240,-11.690,4.200,306,273,143,143,189,2025-05-24T00:10:01.471835
780,-0.4460,0.8799,-0.1762,-23.170,-7.140,5.670,324,290,142,143,187,2025-05-24T00:10:01.471844
781,-0.4348,0.8481,-0.1596,-23.310,-3.850,5.460,308,320,142,143,189,2025-05-24T00:10:01.471852
782,-0.4299,0.8311,-0.1220,-21.770,-1.330,4.830,259,316,143,144,189,2025-05-24T00:10:01.471861
783,-0.4509,0.8130,-0.0956,-20.230,0.070,1.470,257,321,141,143,188,2025-05-24T00:10:01.471871
784,-0.4695,0.8154,-0.0688,-16.240,-0.980,0.070,262,313,143,144,189,2025-05-24T00:10:01.471875
785,-0.5031,0.8145,-0.0659,-14.770,-2.240,-1.120,301,312,146,143,189,2025-05-24T00:10:01.471879
786,-0.5065,0.8091,-0.0913,-11.900,-3.990,-2.100,327,317,150,144,188,2025-05-24T00:10:01.471883
787,-0.4929,0.8174,-0.1010,-7.840,-6.090,-0.910,317,306,150,144,188,2025-05-24T00:10:01.471904
788,-0.4782,0.8213,-0.1152,-4.970,-3.010,0.420,287,327,152,144,188,2025-05-24T00:10:01.471908
789,-0.4841,0.8164,-0.1127,-5.180,-0.560,-0.070,281,313,153,144,188,2025-05-24T00:10:01.710341
790,-0.4870,0.8120,-0.1025,-6.160,-3.150,-1.470,309,297,151,144,188,2025-05-24T00:10:01.710382
791,-0.5065,0.7852,-0.1205,-4.620,-5.740,-3.150,284,273,152,144,188,2025-05-24T00:10:01.710393
792,-0.5104,0.8194,-0.1254,0.140,-6.160,-1.330,323,303,152,144,189,2025-05-24T00:10:01.710402
793,-0.5017,0.8447,-0.1279,4.130,-5.740,-1.540,327,321,152,144,188,2025-05-24T00:10:01.710411
794,-0.4870,0.8481,-0.1293,3.220,-7.630,-2.450,311,313,153,144,188,2025-05-24T00:10:01.710420
795,-0.4870,0.8140,-0.1801,3.430,-8.330,-3.850,282,272,151,144,188,2025-05-24T00:10:01.710429
796,-0.5036,0.8530,-0.1801,6.790,-3.920,-1.400,232,304,151,144,189,2025-05-24T00:10:01.710438
797,-0.5261,0.8799,-0.1869,7.980,2.310,1.890,329,312,151,145,189,2025-05-24T00:10:01.710447
798,-0.5348,0.8882,-0.1781,2.380,3.360,2.940,313,294,153,145,188,2025-05-24T00:10:01.710458
799,-0.5266,0.8843,-0.1635,-4.900,-0.070,2.660,319,324,152,144,189,2025-05-24T00:10:01.710466
800,-0.5041,0.8745,-0.1752,-6.790,-3.500,1.750,326,306,153,144,188,2025-05-24T00:10:01.710474
801,-0.4978,0.8808,-0.1923,-2.100,-3.080,2.590,297,291,151,145,188,2025-05-24T00:10:02.160750
802,-0.4973,0.8979,-0.1776,1.960,-3.220,3.430,339,294,149,144,189,2025-05-24T00:10:02.160787
803,-0.4909,0.8945,-0.1679,-1.820,-5.530,2.590,314,291,152,144,187,2025-05-24T00:10:02.160797
804,-0.4709,0.8847,-0.1542,-7.700,-9.800,1.680,322,275,153,145,189,2025-05-24T00:10:02.160851
805,-0.4592,0.8633,-0.1571,-7.980,-11.830,0.070,310,302,151,145,188,2025-05-24T00:10:02.160862
806,-0.4612,0.8555,-0.1620,-0.910,-10.920,0.700,330,288,151,144,189,2025-05-24T00:10:02.160871
807,-0.4704,0.8638,-0.1591,2.100,-7.700,1.260,317,316,152,145,189,2025-05-24T00:10:02.160880
808,-0.4821,0.8638,-0.1596,-0.350,-5.530,0.140,326,315,149,145,189,2025-05-24T00:10:02.160891
809,-0.4924,0.8560,-0.1654,-3.780,-5.950,-0.420,304,328,153,145,189,2025-05-24T00:10:02.160899
810,-0.4880,0.8428,-0.1732,-3.150,-4.550,0.000,334,306,152,144,189,2025-05-24T00:10:02.160908
811,-0.4763,0.8477,-0.1747,-0.700,-1.680,1.050,325,260,153,146,189,2025-05-24T00:10:02.160916
812,-0.4719,0.8545,-0.1752,-0.420,0.560,1.750,334,298,153,145,190,2025-05-24T00:10:02.160926
813,-0.4763,0.8608,-0.1684,-2.590,0.420,0.910,275,314,149,145,189,2025-05-24T00:10:02.160938
814,-0.4787,0.8594,-0.1591,-4.130,-1.330,0.280,311,256,153,145,190,2025-05-24T00:10:02.160949
815,-0.4817,0.8569,-0.1571,-1.680,-1.890,0.490,310,305,152,146,189,2025-05-24T00:10:02.160959
816,-0.4792,0.8589,-0.1464,1.750,-1.470,0.770,320,320,153,146,190,2025-05-24T00:10:02.160969
817,-0.4773,0.8540,-0.1405,3.010,-1.540,0.630,324,316,154,146,190,2025-05-24T00:10:02.160977
818,-0.4802,0.8496,-0.1430,4.060,-1.820,0.770,332,330,154,146,191,2025-05-24T00:10:02.160985
819,-0.4738,0.8550,-0.1362,4.900,-2.310,0.560,326,319,148,145,190,2025-05-24T00:10:02.161002
820,-0.4621,0.8560,-0.1469,5.600,-2.450,-0.560,338,300,151,145,190,2025-05-24T00:10:02.161011
821,-0.4582,0.8686,-0.1601,5.670,-0.490,-1.470,309,318,148,146,190,2025-05-24T00:10:02.161020
822,-0.4685,0.8701,-0.1708,4.830,0.840,-2.660,315,301,152,144,189,2025-05-24T00:10:02.161028
823,-0.4782,0.8667,-0.1806,5.110,0.490,-3.150,316,310,152,144,188,2025-05-24T00:10:02.161036
824,-0.4778,0.8711,-0.1845,5.950,0.210,-3.010,318,317,152,144,188,2025-05-24T00:10:02.161059
825,-0.4753,0.8784,-0.1889,4.830,0.630,-3.080,326,298,151,143,188,2025-05-24T00:10:02.161082
826,-0.4773,0.8779,-0.1903,3.150,0.000,-3.150,331,308,151,144,188,2025-05-24T00:10:02.161091
827,-0.4821,0.8711,-0.1918,2.450,-0.980,-2.940,319,304,152,143,188,2025-05-24T00:10:02.161098
828,-0.4885,0.8730,-0.1864,2.450,-0.980,-2.450,262,309,151,143,188,2025-05-24T00:10:02.161106
829,-0.4968,0.8667,-0.1762,1.540,-1.680,-2.940,311,295,152,143,188,2025-05-24T00:10:02.161114
830,-0.4973,0.8511,-0.1908,0.350,-3.150,-3.290,285,313,151,143,187,2025-05-24T00:10:02.161122
831,-0.4929,0.8647,-0.1884,1.330,-3.290,-1.330,312,300,152,143,188,2025-05-24T00:10:02.161130
832,-0.4973,0.8701,-0.1869,1.400,-1.820,-0.910,326,297,150,143,188,2025-05-24T00:10:02.161137
833,-0.5085,0.8623,-0.1859,0.980,-2.800,-1.190,327,318,150,143,187,2025-05-24T00:10:02.161145
834,-0.5163,0.8633,-0.1830,-0.070,-4.620,-0.840,323,320,151,143,189,2025-05-24T00:10:02.161164
835,-0.5266,0.8584,-0.1693,-0.490,-6.300,0.840,305,292,150,144,187,2025-05-24T00:10:02.161173
836,-0.5251,0.8550,-0.1645,-0.210,-8.680,1.750,304,278,151,143,187,2025-05-24T00:10:02.161181
837,-0.5109,0.8540,-0.1664,-0.140,-9.800,2.030,319,293,151,144,187,2025-05-24T00:10:02.161189
838,-0.4856,0.8613,-0.1688,0.000,-9.380,2.380,311,300,151,143,187,2025-05-24T00:10:02.161197
839,-0.4709,0.8716,-0.1645,-0.210,-5.670,2.870,287,315,151,143,187,2025-05-24T00:10:02.161205
840,-0.4704,0.8696,-0.1586,-0.560,-2.590,2.170,317,310,150,143,187,2025-05-24T00:10:02.161213
841,-0.4856,0.8560,-0.1635,-0.630,-3.500,0.560,332,321,151,143,187,2025-05-24T00:10:02.294211
842,-0.4865,0.8638,-0.1645,-0.210,-5.460,0.140,323,299,150,143,186,2025-05-24T00:10:02.294257
843,-0.4812,0.8584,-0.1684,0.560,-5.880,0.630,284,311,147,143,187,2025-05-24T00:10:02.294270
844,-0.4787,0.8594,-0.1737,1.470,-5.460,0.630,306,317,151,143,187,2025-05-24T00:10:02.294280
845,-0.4802,0.8589,-0.1776,1.680,-5.390,0.420,304,326,149,143,186,2025-05-24T00:10:02.294290
846,-0.4797,0.8535,-0.1801,1.400,-5.390,0.980,324,312,151,143,187,2025-05-24T00:10:02.294299
847,-0.4807,0.8589,-0.1781,-0.070,-4.690,1.400,320,311,147,142,186,2025-05-24T00:10:02.294308
848,-0.4841,0.8574,-0.1708,-1.400,-4.620,0.980,329,298,147,143,186,2025-05-24T00:10:02.294321
849,-0.4870,0.8496,-0.1791,-0.980,-5.740,0.630,285,313,146,142,187,2025-05-24T00:10:02.294330
850,-0.4782,0.8628,-0.1747,0.350,-5.600,0.630,288,298,151,142,186,2025-05-24T00:10:02.294338
851,-0.4582,0.8691,-0.1688,0.700,-4.900,0.280,319,301,151,143,187,2025-05-24T00:10:02.294347
852,-0.4626,0.8584,-0.1698,0.070,-4.620,-0.490,302,304,147,142,184,2025-05-24T00:10:02.294356
853,-0.4699,0.8560,-0.1693,0.980,-5.320,-0.350,231,315,150,142,186,2025-05-24T00:10:02.294382
854,-0.4724,0.8545,-0.1664,1.960,-6.370,-0.280,326,299,150,142,185,2025-05-24T00:10:02.294391
855,-0.4753,0.8486,-0.1630,2.730,-6.090,-0.630,302,304,146,142,187,2025-05-24T00:10:02.294400
856,-0.4797,0.8481,-0.1615,2.870,-5.950,-0.490,327,318,145,143,186,2025-05-24T00:10:02.294440
857,-0.4939,0.8516,-0.1620,3.290,-6.020,-0.770,226,316,149,142,186,2025-05-24T00:10:02.294450
858,-0.5036,0.8623,-0.1630,3.920,-6.580,-1.190,307,316,150,144,187,2025-05-24T00:10:02.518215
859,-0.5002,0.8662,-0.1630,3.850,-7.210,-1.680,319,269,150,143,187,2025-05-24T00:10:02.518263
860,-0.4982,0.8691,-0.1635,3.640,-7.700,-1.610,318,324,151,143,186,2025-05-24T00:10:02.518275
861,-0.4963,0.8652,-0.1679,3.990,-7.490,-1.260,332,305,150,143,187,2025-05-24T00:10:02.518285
862,-0.4963,0.8628,-0.1723,4.410,-6.930,-0.910,331,324,149,143,186,2025-05-24T00:10:02.518294
863,-0.5017,0.8574,-0.1791,4.270,-7.140,-0.980,278,232,150,143,186,2025-05-24T00:10:02.518303
864,-0.5031,0.8579,-0.1810,3.920,-8.120,-0.420,311,321,151,144,187,2025-05-24T00:10:02.518312
865,-0.5041,0.8560,-0.1850,3.850,-8.960,-0.210,299,308,149,142,186,2025-05-24T00:10:02.518321
866,-0.4978,0.8618,-0.1815,3.990,-9.450,0.140,311,304,149,143,187,2025-05-24T00:10:02.518330
867,-0.4958,0.8628,-0.1791,3.920,-10.010,0.210,315,320,149,143,186,2025-05-24T00:10:02.518340
868,-0.4914,0.8564,-0.1747,3.430,-10.850,0.140,299,298,149,143,186,2025-05-24T00:10:02.518349
869,-0.4885,0.8535,-0.1732,3.640,-12.460,0.070,290,315,150,144,187,2025-05-24T00:10:02.518357
870,-0.4880,0.8452,-0.1796,5.110,-12.740,0.000,300,277,150,143,186,2025-05-24T00:10:02.518365
871,-0.4846,0.8506,-0.1830,6.300,-11.550,0.560,290,324,150,144,187,2025-05-24T00:10:02.518373
872,-0.5007,0.8403,-0.1947,6.440,-9.870,0.560,302,325,151,143,186,2025-05-24T00:10:02.518381
873,-0.5124,0.8535,-0.1932,6.580,-10.080,1.400,313,323,146,143,188,2025-05-24T00:10:02.518416
874,-0.5187,0.8584,-0.1913,5.740,-11.270,1.890,306,303,150,143,186,2025-05-24T00:10:02.518424
875,-0.4997,0.8579,-0.1947,4.340,-12.320,2.100,306,321,147,143,185,2025-05-24T00:10:02.518433
876,-0.4782,0.8594,-0.1893,3.150,-11.900,2.380,303,310,148,144,186,2025-05-24T00:10:02.518442
877,-0.4802,0.8599,-0.1898,3.290,-10.150,2.660,263,286,150,143,187,2025-05-24T00:10:02.569568
878,-0.4909,0.8560,-0.1825,3.710,-9.940,1.960,304,311,150,144,186,2025-05-24T00:10:02.569591
879,-0.5002,0.8520,-0.1801,3.780,-11.550,1.260,290,312,150,143,186,2025-05-24T00:10:02.569596
880,-0.5017,0.8618,-0.1762,3.710,-12.600,1.260,274,327,150,144,187,2025-05-24T00:10:02.569600
881,-0.5022,0.8628,-0.1767,3.500,-11.690,1.120,290,298,148,144,186,2025-05-24T00:10:02.616587
882,-0.5012,0.8613,-0.1791,3.850,-10.360,2.100,274,317,149,144,186,2025-05-24T00:10:02.616632
883,-0.5109,0.8628,-0.1815,3.570,-8.610,2.800,304,294,150,143,186,2025-05-24T00:10:02.616644
884,-0.5139,0.8682,-0.1747,2.800,-9.240,3.990,324,308,150,144,186,2025-05-24T00:10:02.616654
885,-0.5046,0.8628,-0.1737,1.190,-10.080,4.620,330,314,151,143,186,2025-05-24T00:10:02.695376
886,-0.4968,0.8647,-0.1679,0.560,-11.340,4.690,279,312,150,144,187,2025-05-24T00:10:02.695417
887,-0.4807,0.8682,-0.1606,1.120,-12.320,4.550,318,318,150,143,186,2025-05-24T00:10:02.695428
888,-0.4734,0.8652,-0.1591,1.890,-11.830,4.130,314,305,151,144,185,2025-05-24T00:10:02.695437
889,-0.4748,0.8589,-0.1523,1.610,-11.130,3.850,334,324,152,144,187,2025-05-24T00:10:02.917432
890,-0.4778,0.8467,-0.1571,1.470,-11.130,4.130,317,293,151,144,187,2025-05-24T00:10:02.917481
891,-0.4748,0.8428,-0.1532,1.820,-10.430,4.760,300,271,151,144,186,2025-05-24T00:10:02.917511
892,-0.4660,0.8389,-0.1547,1.540,-8.610,4.690,326,260,152,144,186,2025-05-24T00:10:02.917522
893,-0.4641,0.8413,-0.1547,0.910,-6.650,5.180,322,298,149,144,186,2025-05-24T00:10:02.917532
894,-0.4714,0.8477,-0.1566,0.910,-5.530,5.110,307,317,150,144,187,2025-05-24T00:10:02.917542
895,-0.4719,0.8613,-0.1596,2.380,-6.230,4.830,321,320,150,143,187,2025-05-24T00:10:02.917551
896,-0.4646,0.8764,-0.1606,3.640,-6.160,4.970,330,311,150,145,186,2025-05-24T00:10:02.917565
897,-0.4636,0.8774,-0.1601,4.550,-5.740,4.760,324,319,147,144,186,2025-05-24T00:10:02.917574
898,-0.4685,0.8711,-0.1625,5.180,-6.300,4.340,329,318,150,145,187,2025-05-24T00:10:02.917586
899,-0.4724,0.8808,-0.1606,5.390,-6.440,4.200,331,314,151,144,186,2025-05-24T00:10:02.917596
900,-0.4782,0.8794,-0.1615,4.620,-5.950,3.570,261,312,149,144,186,2025-05-24T00:10:02.917605
901,-0.4919,0.8696,-0.1606,3.360,-6.790,2.380,329,295,148,144,187,2025-05-24T00:10:02.917614
902,-0.5051,0.8696,-0.1562,3.710,-8.540,1.890,273,307,151,144,187,2025-05-24T00:10:02.917622
903,-0.5090,0.8677,-0.1532,4.620,-10.080,1.120,321,293,150,145,186,2025-05-24T00:10:02.917631
904,-0.5036,0.8628,-0.1479,4.410,-11.760,0.490,330,259,150,145,187,2025-05-24T00:10:02.917671
905,-0.4914,0.8647,-0.1449,3.640,-12.180,0.210,283,256,147,144,186,2025-05-24T00:10:02.917685
906,-0.4787,0.8686,-0.1420,3.010,-11.270,0.000,323,318,152,145,187,2025-05-24T00:10:02.917695
907,-0.4699,0.8623,-0.1396,4.200,-9.940,0.490,323,298,150,144,186,2025-05-24T00:10:02.917703
908,-0.4743,0.8481,-0.1396,6.720,-8.960,0.910,317,295,148,144,187,2025-05-24T00:10:02.917712
909,-0.4812,0.8398,-0.1430,8.680,-9.380,0.980,311,318,150,144,186,2025-05-24T00:10:02.977683
910,-0.4856,0.8398,-0.1415,9.240,-10.780,0.910,296,275,152,144,186,2025-05-24T00:10:02.977737
911,-0.4812,0.8257,-0.1586,8.610,-12.320,0.210,275,301,151,145,187,2025-05-24T00:10:02.977751
912,-0.4724,0.8369,-0.1684,9.590,-13.300,0.280,285,309,148,144,185,2025-05-24T00:10:02.977788
913,-0.4675,0.8433,-0.1796,11.830,-12.530,1.120,260,317,151,145,186,2025-05-24T00:10:02.977799
914,-0.4802,0.8447,-0.1845,14.000,-12.250,1.750,285,312,147,145,187,2025-05-24T00:10:02.977810
915,-0.4846,0.8486,-0.1864,14.770,-14.140,1.750,303,233,148,145,187,2025-05-24T00:10:03.145722
916,-0.4953,0.8369,-0.2098,13.790,-15.120,1.260,303,293,148,145,185,2025-05-24T00:10:03.145760
917,-0.5022,0.8379,-0.2323,14.000,-14.910,2.310,310,301,147,142,182,2025-05-24T00:10:03.145770
918,-0.5207,0.8389,-0.2377,13.720,-14.140,2.660,293,270,145,141,183,2025-05-24T00:10:03.145780
919,-0.5295,0.8296,-0.2391,11.970,-15.820,2.240,300,302,145,141,183,2025-05-24T00:10:03.145787
920,-0.5407,0.8301,-0.2333,11.270,-20.930,2.800,260,317,147,141,182,2025-05-24T00:10:03.145813
921,-0.5456,0.8384,-0.2255,10.990,-25.690,2.940,286,259,147,141,184,2025-05-24T00:10:03.145820
922,-0.5334,0.8276,-0.2206,11.760,-30.380,3.780,317,304,145,141,183,2025-05-24T00:10:03.145828
923,-0.5266,0.8194,-0.2147,12.950,-31.990,5.040,310,307,147,141,182,2025-05-24T00:10:03.145836
924,-0.5202,0.8028,-0.1967,14.140,-31.990,5.950,303,295,147,141,183,2025-05-24T00:10:03.145843
925,-0.5285,0.7867,-0.1815,16.030,-33.460,7.140,303,309,147,141,182,2025-05-24T00:10:03.145851
926,-0.5314,0.7593,-0.1679,18.130,-36.820,7.490,332,309,147,141,183,2025-05-24T00:10:03.439312
927,-0.5285,0.7388,-0.1401,19.880,-42.770,7.000,261,288,146,141,183,2025-05-24T00:10:03.439381
928,-0.5329,0.7120,-0.1225,22.330,-52.080,5.880,316,300,148,142,183,2025-05-24T00:10:03.439395
929,-0.5475,0.6900,-0.0947,25.760,-66.010,4.130,301,311,148,142,184,2025-05-24T00:10:03.439406
930,-0.5719,0.6842,-0.0605,30.240,-80.500,2.100,322,316,148,142,184,2025-05-24T00:10:03.439416
931,-0.6495,0.6988,0.0112,34.440,-106.610,-2.030,325,313,145,143,184,2025-05-24T00:10:03.439427
932,-0.7925,0.7310,0.1244,36.470,-147.280,-6.720,332,306,149,142,185,2025-05-24T00:10:03.439588
933,-1.0546,0.7945,0.2806,39.060,-210.700,-14.560,318,319,147,145,186,2025-05-24T00:10:03.439600
934,-1.2332,0.9404,0.3709,40.950,-298.200,-21.070,311,316,153,148,189,2025-05-24T00:10:03.439616
935,-1.2161,1.1810,0.4426,43.120,-394.380,-22.960,304,261,154,148,190,2025-05-24T00:10:03.439630
936,-0.9828,1.5362,0.4280,50.540,-489.720,-22.260,309,257,155,148,190,2025-05-24T00:10:03.439640
937,-0.6969,1.9349,0.4670,62.440,-564.830,-24.360,230,323,151,148,190,2025-05-24T00:10:03.439650
938,-0.5485,2.3312,0.5500,68.600,-658.140,-26.180,306,310,155,148,190,2025-05-24T00:10:03.439660
939,-0.3377,2.7025,0.6222,60.060,-754.880,-23.030,263,308,152,146,188,2025-05-24T00:10:03.439699
940,0.1718,3.1012,0.4665,62.650,-869.540,-11.830,294,334,157,146,188,2025-05-24T00:10:03.439768
941,1.0019,3.5116,0.3177,10.010,-848.120,-14.070,328,307,158,146,189,2025-05-24T00:10:03.439781
942,1.8471,3.7732,0.0151,-5.950,-753.830,-35.910,326,304,161,146,187,2025-05-24T00:10:03.439793
943,2.2682,3.7566,-0.4065,-7.840,-634.970,-83.370,310,267,164,147,188,2025-05-24T00:10:03.439803
944,1.9876,3.4184,-0.7388,31.290,-519.120,-117.600,308,303,169,146,186,2025-05-24T00:10:03.522919
945,1.2742,3.1164,-0.9340,92.050,-479.360,-134.260,325,320,157,145,185,2025-05-24T00:10:03.522963
946,0.9843,2.7958,-1.0921,-9.030,-452.830,-159.530,301,305,155,143,183,2025-05-24T00:10:03.522975
947,0.8359,2.0208,-1.1956,-197.820,-484.680,-173.880,300,310,152,139,179,2025-05-24T00:10:03.522987
948,0.8965,1.3742,-1.1732,-411.180,-455.840,-216.650,307,311,147,136,177,2025-05-24T00:10:03.523001
949,1.1971,0.4270,-1.2454,-458.150,-376.950,-250.390,319,288,147,133,175,2025-05-24T00:10:03.523010
950,1.4362,-1.1112,-0.8916,-447.510,-247.450,-317.030,319,297,147,131,173,2025-05-24T00:10:03.523034
951,1.0882,-3.2823,-0.6515,-539.840,-162.610,-386.820,307,305,148,131,171,2025-05-24T00:10:03.667178
952,-0.1308,-5.4148,0.0961,-502.880,-206.570,-459.550,308,302,140,128,169,2025-05-24T00:10:03.667193
953,-1.5474,-6.4235,1.5011,-471.030,-419.230,-463.960,313,289,145,128,168,2025-05-24T00:10:03.667198
954,-1.2473,-5.6237,2.3224,-482.440,-678.650,-413.280,288,272,145,128,169,2025-05-24T00:10:03.667202
955,0.3889,-4.3046,1.7509,-434.000,-636.300,-382.200,309,291,146,125,168,2025-05-24T00:10:03.667206
956,1.8910,-3.3282,0.9516,-225.470,-125.790,-340.200,317,322,150,126,168,2025-05-24T00:10:03.667210
957,-0.2762,-2.5586,-0.5017,95.410,310.240,-87.990,300,302,148,127,167,2025-05-24T00:10:03.667247
958,-1.9291,-1.5323,-0.6651,333.480,546.560,149.940,256,281,148,125,167,2025-05-24T00:10:03.667251
959,-1.5162,-1.4215,-0.3914,125.510,594.860,273.770,321,309,149,127,167,2025-05-24T00:10:03.667255
960,-0.7584,-1.6753,0.0434,137.690,507.570,341.670,256,316,150,126,167,2025-05-24T00:10:03.731771
961,-0.5905,-1.9608,0.5793,-129.360,394.660,351.260,320,251,151,127,168,2025-05-24T00:10:03.731824
962,-0.2269,-2.0613,0.6222,-114.030,360.990,362.670,319,292,152,128,169,2025-05-24T00:10:03.731839
963,-0.0239,-2.0984,0.6041,-134.470,389.480,368.900,324,288,153,128,170,2025-05-24T00:10:03.731850
964,-0.1249,-1.7773,0.6486,-29.540,477.750,364.980,326,324,155,129,171,2025-05-24T00:10:03.731861
965,-0.4377,-1.4045,0.5656,37.940,577.430,361.130,259,294,155,129,171,2025-05-24T00:10:03.731871
966,-0.8847,-0.7725,0.4997,23.450,596.890,356.510,312,286,156,129,170,2025-05-24T00:10:03.731882
967,-1.2215,-0.3284,0.6163,-48.230,558.740,334.180,292,332,157,129,171,2025-05-24T00:10:03.731892
968,-1.3244,-0.0410,0.5998,-75.110,494.970,309.190,308,331,156,129,171,2025-05-24T00:10:03.731901
969,-1.3615,0.1010,0.6403,-101.010,466.480,286.790,328,233,157,131,173,2025-05-24T00:10:03.731911
970,-1.2912,0.4187,0.6354,-99.540,458.150,271.530,317,318,161,132,173,2025-05-24T00:10:03.731922
971,-1.1736,0.8447,0.6227,-86.380,449.820,264.320,308,323,161,131,172,2025-05-24T00:10:03.731931
972,-1.1165,1.0214,0.5812,-76.020,417.410,255.010,275,302,159,130,173,2025-05-24T00:10:03.731940
973,-1.0199,1.1219,0.4856,-64.610,374.430,239.260,313,300,159,129,171,2025-05-24T00:10:03.731950
974,-0.9062,1.2478,0.5036,-53.410,328.720,226.730,325,307,159,131,172,2025-05-24T00:10:03.732098
975,-1.1478,1.3879,0.7081,-43.680,280.350,202.510,257,327,160,131,173,2025-05-24T00:10:03.732112
976,-1.3371,1.4674,0.9072,-27.300,194.950,175.980,322,264,162,132,173,2025-05-24T00:10:03.732122
977,-1.2434,1.4679,0.9902,-30.240,117.110,152.390,301,259,165,133,174,2025-05-24T00:10:03.971254
978,-0.9872,1.4147,0.9326,-27.580,55.720,137.620,314,326,166,130,173,2025-05-24T00:10:03.971298
979,-0.6002,1.4362,0.7642,-28.630,57.400,131.110,301,319,162,129,171,2025-05-24T00:10:03.971308
980,-0.2362,1.4479,0.5861,-1.540,107.310,129.920,295,319,160,128,170,2025-05-24T00:10:03.971318
981,-0.2855,1.4250,0.5666,34.440,156.870,124.110,310,311,161,127,169,2025-05-24T00:10:03.971328
982,-0.6080,1.3615,0.5958,33.880,199.640,98.350,322,290,161,128,170,2025-05-24T00:10:03.971337
983,-0.8857,1.3152,0.7886,5.040,170.380,78.050,310,306,159,128,169,2025-05-24T00:10:03.971346
984,-0.9941,1.3113,0.8130,-13.790,117.810,63.770,308,261,163,128,170,2025-05-24T00:10:03.971355
985,-0.8891,1.2546,0.6466,-59.850,51.380,56.490,311,320,160,128,170,2025-05-24T00:10:03.971363
986,-0.6412,1.2220,0.5270,-100.100,28.280,53.410,322,331,163,128,168,2025-05-24T00:10:03.971372
987,-0.3709,1.1361,0.3967,-70.840,39.410,58.730,227,304,160,128,168,2025-05-24T00:10:03.971380
988,-0.2289,1.0882,0.3387,-53.200,63.350,64.400,223,257,163,127,167,2025-05-24T00:10:03.971389
989,-0.2245,1.0287,0.2816,-33.250,74.060,64.400,324,314,163,127,169,2025-05-24T00:10:03.971396
990,-0.2855,0.9609,0.1884,-17.220,67.900,59.850,281,256,158,127,169,2025-05-24T00:10:03.971408
991,-0.3382,0.8945,0.0688,-19.950,58.380,46.620,257,319,157,127,169,2025-05-24T00:10:03.971446
992,-0.4699,0.8535,0.1083,-26.880,45.290,37.310,268,272,160,128,169,2025-05-24T00:10:03.971455
993,-0.5226,0.8677,0.1352,-30.800,14.630,28.910,313,260,160,127,169,2025-05-24T00:10:03.971463
994,-0.4602,0.8291,0.1083,-39.200,-21.070,26.460,298,318,159,128,170,2025-05-24T00:10:03.971472
995,-0.3279,0.7881,0.0605,-44.940,-34.510,26.600,312,274,166,129,170,2025-05-24T00:10:03.971480
996,-0.2094,0.7867,0.0439,-40.320,-23.940,27.930,313,308,161,130,171,2025-05-24T00:10:03.971488
997,-0.1532,0.8057,0.0508,-20.860,-13.300,26.950,303,322,168,130,172,2025-05-24T00:10:04.284717
998,-0.1781,0.8115,0.0464,-1.610,1.120,21.840,324,275,168,130,172,2025-05-24T00:10:04.284743
999,-0.2616,0.8237,0.0420,8.820,6.790,16.310,317,323,171,131,172,2025-05-24T00:10:04.284749
1000,-0.3655,0.8189,0.0605,-1.260,13.090,8.190,328,318,169,131,172,2025-05-24T00:10:04.284754
1001,-0.4763,0.8184,0.0630,-3.710,7.980,1.400,292,306,168,132,173,2025-05-24T00:10:04.284759
1002,-0.4997,0.8262,0.0600,-7.140,-17.010,-1.330,330,321,170,133,174,2025-05-24T00:10:04.284764
1003,-0.4729,0.8408,0.0586,-6.160,-5.810,-1.330,307,258,165,132,174,2025-05-24T00:10:04.284768
1004,-0.4231,0.8296,0.0395,-7.140,-4.690,-1.120,327,326,169,133,175,2025-05-24T00:10:04.284772
1005,-0.3772,0.8247,0.0293,-1.820,2.800,0.700,323,315,172,134,175,2025-05-24T00:10:04.284776
1006,-0.4124,0.8486,0.0093,6.370,7.770,0.630,306,311,171,133,175,2025-05-24T00:10:04.284781
1007,-0.4392,0.8994,0.0200,15.610,8.400,-0.630,293,322,172,133,174,2025-05-24T00:10:04.284785
1008,-0.4675,0.9077,0.0234,16.660,2.660,-1.260,307,318,173,132,174,2025-05-24T00:10:04.284789
1009,-0.5012,0.8886,-0.0034,7.770,-3.710,-3.080,326,266,172,133,174,2025-05-24T00:10:04.284794
1010,-0.5251,0.8740,-0.0259,3.710,-9.170,-4.690,329,318,172,132,173,2025-05-24T00:10:04.284798
1011,-0.5266,0.8716,-0.0537,3.080,-8.330,-5.670,326,294,171,133,172,2025-05-24T00:10:04.284801
1012,-0.5090,0.8955,-0.0659,4.550,-4.130,-5.600,311,315,173,134,175,2025-05-24T00:10:04.284819
1013,-0.4768,0.9213,-0.0615,0.560,-1.470,-4.690,275,324,172,131,173,2025-05-24T00:10:04.464976
1014,-0.4568,0.9267,-0.0649,-6.300,-2.310,-3.990,324,308,172,134,175,2025-05-24T00:10:04.465025
1015,-0.4699,0.9023,-0.0795,-7.700,-5.040,-2.310,321,320,169,134,174,2025-05-24T00:10:04.465035
1016,-0.4768,0.8926,-0.0781,-2.520,-5.110,-0.840,270,317,173,134,176,2025-05-24T00:10:04.465042
1017,-0.4792,0.9013,-0.0551,0.840,-4.200,-0.630,308,268,171,134,175,2025-05-24T00:10:04.465050
1018,-0.4909,0.8950,-0.0410,-2.520,-6.720,-1.680,332,304,169,135,175,2025-05-24T00:10:04.465057
1019,-0.4929,0.8725,-0.0400,-8.260,-11.760,-3.290,326,330,174,135,176,2025-05-24T00:10:04.465063
1020,-0.4763,0.8677,-0.0449,-10.430,-10.850,-3.570,327,326,173,135,176,2025-05-24T00:10:04.465069
1021,-0.4738,0.8804,-0.0517,-6.650,-3.710,-2.520,332,288,173,135,176,2025-05-24T00:10:04.465078
1022,-0.4821,0.8828,-0.0415,-2.450,5.390,-0.630,321,326,172,136,176,2025-05-24T00:10:04.465085
1023,-0.4992,0.8794,-0.0381,-3.290,8.820,-0.070,311,321,173,134,175,2025-05-24T00:10:04.465091
1024,-0.5007,0.8794,-0.0298,-6.370,5.950,0.560,306,308,174,137,176,2025-05-24T00:10:04.465097
1025,-0.5173,0.8569,-0.0415,-6.300,1.750,1.400,274,306,175,135,175,2025-05-24T00:10:04.465103
1026,-0.5026,0.8696,-0.0415,-3.220,-1.610,1.820,258,324,175,136,176,2025-05-24T00:10:04.465109
1027,-0.4934,0.8696,-0.0488,-2.100,-5.250,1.750,224,228,169,136,176,2025-05-24T00:10:04.465139
1028,-0.4870,0.8735,-0.0522,-3.360,-8.680,1.820,270,314,173,135,176,2025-05-24T00:10:04.465145
1029,-0.4802,0.8862,-0.0464,-4.970,-13.090,2.100,332,269,174,136,176,2025-05-24T00:10:04.465300
1030,-0.4865,0.8599,-0.0649,-5.390,-15.330,0.630,310,329,173,137,175,2025-05-24T00:10:04.465304
1031,-0.4787,0.8745,-0.0581,-3.010,-14.770,1.610,315,309,175,137,177,2025-05-24T00:10:04.465309
1032,-0.4680,0.8852,-0.0434,-2.730,-10.570,2.590,328,286,167,137,176,2025-05-24T00:10:04.465313
1033,-0.4573,0.8794,-0.0351,-5.460,-5.040,1.260,318,311,176,137,177,2025-05-24T00:10:04.774106
1034,-0.4470,0.8618,-0.0376,-6.020,0.700,-0.280,324,295,173,136,178,2025-05-24T00:10:04.774171
1035,-0.4592,0.8794,-0.0195,-6.230,7.420,-0.630,330,279,176,136,175,2025-05-24T00:10:04.774184
1036,-0.4685,0.8877,-0.0039,-5.880,9.310,-1.680,308,310,176,136,175,2025-05-24T00:10:04.774193
1037,-0.4656,0.8716,-0.0044,-7.000,5.110,-2.520,327,326,175,136,176,2025-05-24T00:10:04.774202
1038,-0.4797,0.8506,-0.0234,-4.970,1.470,-3.500,335,304,176,137,177,2025-05-24T00:10:04.774212
1039,-0.4807,0.8808,-0.0224,-0.210,0.840,-3.850,284,273,177,138,177,2025-05-24T00:10:04.774221
1040,-0.4841,0.8896,-0.0273,1.890,1.820,-3.850,326,334,171,136,177,2025-05-24T00:10:04.774229
1041,-0.5070,0.8657,-0.0473,0.700,1.470,-4.200,301,309,175,137,176,2025-05-24T00:10:04.774239
1042,-0.5173,0.8667,-0.0542,-1.190,-0.280,-3.080,312,321,175,137,176,2025-05-24T00:10:04.774248
1043,-0.5100,0.8711,-0.0586,-1.470,2.030,-2.030,288,275,175,137,175,2025-05-24T00:10:04.774257
1044,-0.5017,0.8696,-0.0586,-1.750,5.110,-2.450,328,305,175,137,176,2025-05-24T00:10:04.774265
1045,-0.5031,0.8706,-0.0620,-3.290,4.830,-2.870,291,299,177,137,176,2025-05-24T00:10:04.774273
1046,-0.5022,0.8794,-0.0615,-5.110,3.710,-1.960,317,321,175,137,177,2025-05-24T00:10:04.774284
1047,-0.5012,0.8857,-0.0615,-6.160,2.380,-1.680,325,300,176,137,178,2025-05-24T00:10:04.774308
1048,-0.4919,0.8833,-0.0625,-6.230,-1.540,-2.240,320,327,175,137,177,2025-05-24T00:10:04.774346
1049,-0.4724,0.8740,-0.0517,-6.720,-5.600,-3.080,259,306,179,138,178,2025-05-24T00:10:04.774355
1050,-0.4494,0.8662,-0.0454,-10.780,-6.720,-4.900,333,306,178,136,177,2025-05-24T00:10:04.774363
1051,-0.4421,0.8496,-0.0512,-12.810,-6.510,-6.650,302,333,173,138,178,2025-05-24T00:10:04.774372
1052,-0.4416,0.8320,-0.0590,-10.780,-2.520,-8.890,322,301,177,138,178,2025-05-24T00:10:04.774380
1053,-0.4514,0.8311,-0.0522,-6.160,5.670,-9.380,319,310,178,138,178,2025-05-24T00:10:04.774387
1054,-0.4787,0.8403,-0.0395,-3.500,13.790,-9.660,306,330,176,139,178,2025-05-24T00:10:04.906835
1055,-0.5061,0.8530,-0.0288,-2.100,16.030,-9.380,280,292,178,138,177,2025-05-24T00:10:04.906893
1056,-0.5290,0.8633,-0.0234,-1.750,14.910,-8.260,302,316,179,139,179,2025-05-24T00:10:04.906910
1057,-0.5407,0.8696,-0.0166,-1.120,12.670,-7.210,291,312,176,138,179,2025-05-24T00:10:04.906926
1058,-0.5480,0.8716,-0.0171,0.770,7.210,-6.440,286,320,180,138,177,2025-05-24T00:10:04.906939
1059,-0.5519,0.8686,-0.0166,1.260,1.960,-4.480,314,313,176,137,178,2025-05-24T00:10:04.906951
1060,-0.5500,0.8794,-0.0151,1.470,-2.240,-2.520,302,265,176,137,177,2025-05-24T00:10:04.906964
1061,-0.5475,0.8818,-0.0181,0.840,-4.760,-1.540,327,320,175,138,178,2025-05-24T00:10:04.906976
1062,-0.5392,0.8882,-0.0249,1.610,-5.600,-0.630,316,333,177,139,177,2025-05-24T00:10:04.906989
1063,-0.5368,0.8872,-0.0444,2.800,-3.360,0.630,309,317,176,138,177,2025-05-24T00:10:04.907000
1064,-0.5397,0.8965,-0.0590,3.640,1.050,3.290,327,331,175,138,178,2025-05-24T00:10:04.907012
1065,-0.5475,0.9008,-0.0654,3.500,4.620,5.040,303,307,176,137,176,2025-05-24T00:10:04.907024
1066,-0.5451,0.9018,-0.0644,1.540,4.200,6.020,312,271,177,138,177,2025-05-24T00:10:04.907036
1067,-0.5397,0.8989,-0.0581,-1.470,0.840,6.020,330,319,178,137,177,2025-05-24T00:10:04.907046
1068,-0.5236,0.8901,-0.0522,-4.270,-3.920,5.810,300,267,178,137,177,2025-05-24T00:10:04.907058
1069,-0.5114,0.8725,-0.0532,-5.110,-8.610,4.550,328,329,178,137,177,2025-05-24T00:10:04.907110
1070,-0.5046,0.8667,-0.0468,-4.270,-11.130,4.130,309,260,178,138,176,2025-05-24T00:10:04.907124
1071,-0.4973,0.8682,-0.0400,-2.030,-12.040,5.460,280,298,172,137,177,2025-05-24T00:10:04.907135
1072,-0.5002,0.8657,-0.0361,-0.980,-10.150,4.900,303,307,175,137,176,2025-05-24T00:10:04.907146
1073,-0.4919,0.8667,-0.0303,-0.700,-7.490,4.410,326,297,175,136,176,2025-05-24T00:10:04.907157
1074,-0.5007,0.8574,-0.0259,-0.910,-4.270,4.130,261,325,176,136,175,2025-05-24T00:10:04.907168
1075,-0.5129,0.8481,-0.0205,-0.560,-3.430,3.850,323,329,176,136,174,2025-05-24T00:10:04.956672
1076,-0.5075,0.8525,-0.0171,0.280,-5.600,3.570,272,307,175,136,176,2025-05-24T00:10:04.956714
1077,-0.4968,0.8540,-0.0171,0.420,-7.630,3.150,293,328,177,137,176,2025-05-24T00:10:04.956725
1078,-0.5002,0.8408,-0.0322,1.190,-10.360,1.750,319,306,178,137,175,2025-05-24T00:10:04.956734
1079,-0.4904,0.8506,-0.0322,3.360,-12.810,3.010,322,269,178,136,176,2025-05-24T00:10:04.956742
1080,-0.4851,0.8613,-0.0346,4.060,-12.880,3.500,304,308,177,136,175,2025-05-24T00:10:05.160749
1081,-0.4758,0.8603,-0.0415,4.340,-14.490,2.940,324,297,176,136,176,2025-05-24T00:10:05.160796
1082,-0.4607,0.8599,-0.0551,3.850,-13.790,2.380,290,309,170,136,176,2025-05-24T00:10:05.160811
1083,-0.4621,0.8706,-0.0566,3.010,-8.890,2.800,308,286,176,136,174,2025-05-24T00:10:05.160822
1084,-0.4773,0.8721,-0.0483,1.680,-5.390,2.380,321,306,179,136,176,2025-05-24T00:10:05.160832
1085,-0.4856,0.8696,-0.0415,0.560,-6.790,1.050,226,310,177,137,177,2025-05-24T00:10:05.160842
1086,-0.4880,0.8760,-0.0429,0.070,-8.610,0.420,324,306,180,138,175,2025-05-24T00:10:05.160852
1087,-0.4802,0.8852,-0.0346,2.030,-9.030,0.700,304,292,178,138,177,2025-05-24T00:10:05.160861
1088,-0.4758,0.8896,-0.0283,4.060,-8.400,0.770,328,287,180,139,177,2025-05-24T00:10:05.160870
1089,-0.4768,0.8828,-0.0273,5.390,-8.890,0.700,306,315,179,138,177,2025-05-24T00:10:05.160879
1090,-0.4880,0.8745,-0.0322,5.530,-9.380,0.700,324,263,180,138,177,2025-05-24T00:10:05.160888
1091,-0.4841,0.8794,-0.0327,5.810,-8.820,0.630,303,307,178,138,178,2025-05-24T00:10:05.160897
1092,-0.4826,0.8862,-0.0298,5.040,-7.700,0.630,312,326,179,138,177,2025-05-24T00:10:05.160905
1093,-0.4856,0.8852,-0.0288,2.870,-7.770,-0.140,328,311,172,138,177,2025-05-24T00:10:05.160914
1094,-0.4924,0.8828,-0.0346,2.170,-9.310,-0.070,303,326,174,138,177,2025-05-24T00:10:05.160956
1095,-0.4943,0.8877,-0.0356,1.960,-9.170,0.140,324,284,180,138,177,2025-05-24T00:10:05.160965
1096,-0.4909,0.8891,-0.0356,2.870,-8.260,0.070,328,234,178,140,178,2025-05-24T00:10:05.160975
1097,-0.4900,0.8867,-0.0361,2.660,-8.750,-0.210,332,321,180,139,177,2025-05-24T00:10:05.395210
1098,-0.4953,0.8779,-0.0415,2.240,-8.820,-0.490,313,323,177,139,177,2025-05-24T00:10:05.395262
1099,-0.4943,0.8818,-0.0425,2.590,-7.210,1.190,305,331,178,138,178,2025-05-24T00:10:05.395275
1100,-0.4870,0.8852,-0.0425,2.590,-4.690,1.820,285,328,178,138,177,2025-05-24T00:10:05.395286
1101,-0.4836,0.8852,-0.0376,2.100,-3.430,2.030,260,329,178,139,178,2025-05-24T00:10:05.523813
1102,-0.4943,0.8794,-0.0371,1.540,-3.990,1.260,329,322,179,138,177,2025-05-24T00:10:05.523843
1103,-0.4968,0.8843,-0.0322,1.610,-5.180,0.980,309,303,177,139,177,2025-05-24T00:10:05.523854
1104,-0.4997,0.8818,-0.0283,0.980,-6.090,-0.070,324,267,177,137,177,2025-05-24T00:10:05.523864
1105,-0.5046,0.8740,-0.0278,-0.490,-7.490,-0.980,328,309,179,138,176,2025-05-24T00:10:05.523874
1106,-0.5061,0.8652,-0.0307,-1.190,-9.030,-0.770,273,318,180,138,177,2025-05-24T00:10:05.523889
1107,-0.5026,0.8623,-0.0298,0.350,-8.470,0.490,305,260,174,138,177,2025-05-24T00:10:05.523899
1108,-0.4900,0.8682,-0.0283,1.750,-6.090,1.120,312,300,173,139,178,2025-05-24T00:10:05.523908
1109,-0.4875,0.8711,-0.0307,2.940,-4.410,1.260,319,310,177,139,178,2025-05-24T00:10:05.523917
1110,-0.4851,0.8769,-0.0254,3.290,-3.150,1.260,305,233,179,139,177,2025-05-24T00:10:05.523925
1111,-0.4939,0.8716,-0.0259,3.290,-3.500,0.910,325,295,180,138,177,2025-05-24T00:10:05.523991
1112,-0.4997,0.8686,-0.0283,3.990,-5.390,0.700,315,260,179,138,178,2025-05-24T00:10:05.524002
1113,-0.4982,0.8730,-0.0322,4.550,-6.580,0.560,328,279,178,139,178,2025-05-24T00:10:05.524010
1114,-0.4919,0.8779,-0.0386,4.200,-7.490,0.630,323,317,178,139,177,2025-05-24T00:10:05.581894
1115,-0.4865,0.8740,-0.0517,3.220,-6.580,0.910,316,307,173,139,177,2025-05-24T00:10:05.582003
1116,-0.4836,0.8823,-0.0547,3.500,-3.990,2.450,325,310,178,138,177,2025-05-24T00:10:05.582014
1117,-0.4880,0.8823,-0.0542,3.150,-1.470,2.940,320,269,177,138,177,2025-05-24T00:10:05.582026
1118,-0.4885,0.8847,-0.0483,2.520,-2.100,3.220,305,321,177,139,178,2025-05-24T00:10:05.582037
1119,-0.4841,0.8891,-0.0439,1.260,-2.800,3.360,302,330,172,137,176,2025-05-24T00:10:05.582047
1120,-0.4748,0.8901,-0.0351,0.210,-3.920,2.730,270,326,179,138,177,2025-05-24T00:10:05.582056
1121,-0.4826,0.8760,-0.0390,0.770,-5.320,1.120,307,322,180,138,176,2025-05-24T00:10:05.582066
1122,-0.4797,0.8886,-0.0390,1.680,-5.320,1.260,275,323,179,138,177,2025-05-24T00:10:05.582076
1123,-0.4797,0.8906,-0.0312,1.050,-4.060,1.050,306,292,180,139,178,2025-05-24T00:10:05.582083
1124,-0.4870,0.8745,-0.0371,-0.420,-4.130,0.560,324,327,180,139,178,2025-05-24T00:10:05.582093
1125,-0.4846,0.8794,-0.0303,0.070,-4.340,1.540,333,315,180,138,177,2025-05-24T00:10:05.582100
1126,-0.4807,0.8813,-0.0259,0.420,-2.940,1.890,309,305,178,139,178,2025-05-24T00:10:05.582270
1127,-0.4729,0.8784,-0.0210,0.280,-3.430,1.120,330,307,179,139,177,2025-05-24T00:10:05.582275
1128,-0.4856,0.8725,-0.0332,0.490,-4.340,0.280,326,324,176,139,177,2025-05-24T00:10:05.582278
1129,-0.4856,0.8847,-0.0361,1.330,-4.480,0.560,327,312,177,139,177,2025-05-24T00:10:05.582299
1130,-0.4826,0.8886,-0.0337,0.910,-3.850,0.420,327,302,179,139,178,2025-05-24T00:10:05.582303
1131,-0.4807,0.8789,-0.0332,-0.490,-4.060,-0.560,323,305,178,138,177,2025-05-24T00:10:05.582307
1132,-0.4934,0.8642,-0.0434,0.070,-4.830,-0.700,305,307,177,138,177,2025-05-24T00:10:05.582311
1133,-0.4948,0.8745,-0.0390,1.750,-4.410,1.190,287,311,179,138,178,2025-05-24T00:10:05.776268
1134,-0.4875,0.8745,-0.0342,1.540,-3.290,1.330,318,311,177,139,177,2025-05-24T00:10:05.776316
1135,-0.4699,0.8735,-0.0254,-0.140,-3.850,0.980,316,283,177,139,177,2025-05-24T00:10:05.776329
1136,-0.4743,0.8618,-0.0322,-0.140,-4.130,-0.140,325,319,180,140,177,2025-05-24T00:10:05.776339
1137,-0.4773,0.8808,-0.0293,2.730,-4.130,0.280,261,321,173,138,176,2025-05-24T00:10:05.776349
1138,-0.4748,0.8857,-0.0317,3.080,-2.590,0.140,279,320,178,138,176,2025-05-24T00:10:05.776359
1139,-0.4719,0.8877,-0.0293,0.980,-2.170,-0.630,333,303,177,138,176,2025-05-24T00:10:05.776368
1140,-0.4719,0.8877,-0.0273,-0.350,-3.290,-1.400,337,324,178,139,177,2025-05-24T00:10:05.776382
1141,-0.4851,0.8789,-0.0371,1.260,-3.990,-2.100,303,309,173,138,178,2025-05-24T00:10:05.776391
1142,-0.4860,0.8764,-0.0429,3.990,-4.060,-0.420,329,315,178,138,177,2025-05-24T00:10:05.776401
1143,-0.4895,0.8818,-0.0449,3.920,-2.660,0.210,305,302,179,138,178,2025-05-24T00:10:05.776410
1144,-0.4939,0.8813,-0.0449,1.610,-1.890,0.210,324,305,177,139,177,2025-05-24T00:10:05.776418
1145,-0.5007,0.8755,-0.0532,0.910,-2.730,0.490,328,327,180,139,178,2025-05-24T00:10:05.776427
1146,-0.5026,0.8789,-0.0517,1.750,-2.870,1.470,324,271,178,140,177,2025-05-24T00:10:05.776436
1147,-0.5017,0.8823,-0.0537,1.750,-3.220,1.190,322,314,181,139,177,2025-05-24T00:10:05.776474
1148,-0.4953,0.8911,-0.0468,0.350,-4.620,1.050,329,258,177,139,177,2025-05-24T00:10:05.776484
1149,-0.4865,0.8960,-0.0468,-1.120,-4.690,0.980,304,266,179,139,177,2025-05-24T00:10:05.977693
1150,-0.4831,0.8921,-0.0459,-0.980,-4.060,0.840,326,325,180,140,178,2025-05-24T00:10:05.977740
1151,-0.4831,0.8882,-0.0405,0.070,-3.780,1.120,303,325,179,138,176,2025-05-24T00:10:05.977753
1152,-0.4865,0.8799,-0.0439,0.420,-3.500,0.980,286,309,178,139,178,2025-05-24T00:10:05.977764
1153,-0.4851,0.8789,-0.0420,0.070,-3.430,1.540,307,324,176,139,179,2025-05-24T00:10:05.977774
1154,-0.4831,0.8755,-0.0420,-0.560,-1.960,1.750,224,325,172,140,178,2025-05-24T00:10:05.977784
1155,-0.4885,0.8760,-0.0390,-0.490,-1.610,1.680,317,318,179,140,179,2025-05-24T00:10:05.977794
1156,-0.4821,0.8789,-0.0425,-0.490,-2.660,1.610,276,326,179,139,178,2025-05-24T00:10:05.977807
1157,-0.4807,0.8867,-0.0376,-0.980,-3.780,1.120,325,327,180,139,178,2025-05-24T00:10:05.977816
1158,-0.4734,0.8808,-0.0415,-1.470,-5.320,0.770,331,306,174,140,178,2025-05-24T00:10:05.977825
1159,-0.4695,0.8828,-0.0415,-0.420,-5.390,0.770,332,331,180,140,178,2025-05-24T00:10:05.977834
1160,-0.4612,0.8799,-0.0400,-0.140,-3.640,0.350,309,309,179,139,178,2025-05-24T00:10:05.977843
1161,-0.4665,0.8730,-0.0420,-0.140,-2.520,0.560,328,302,173,139,177,2025-05-24T00:10:05.977851
1162,-0.4758,0.8725,-0.0415,0.490,-1.890,0.840,294,333,177,139,177,2025-05-24T00:10:05.977859
1163,-0.4831,0.8760,-0.0429,1.400,-2.030,0.490,328,324,174,139,176,2025-05-24T00:10:05.977899
1164,-0.4919,0.8764,-0.0459,1.750,-2.310,0.210,330,317,177,138,177,2025-05-24T00:10:05.977909
1165,-0.4919,0.8901,-0.0454,1.260,-2.660,0.140,304,284,174,139,177,2025-05-24T00:10:05.977917
1166,-0.4953,0.8896,-0.0483,-0.070,-3.150,0.000,323,322,177,139,177,2025-05-24T00:10:06.212547
1167,-0.4909,0.8886,-0.0498,-0.770,-3.710,0.140,324,316,178,139,177,2025-05-24T00:10:06.212608
1168,-0.4875,0.8828,-0.0478,-0.700,-3.780,0.840,317,328,174,138,177,2025-05-24T00:10:06.212626
1169,-0.4865,0.8779,-0.0473,-0.420,-4.270,1.050,328,317,179,139,177,2025-05-24T00:10:06.212642
1170,-0.4890,0.8843,-0.0410,-0.070,-4.970,1.680,319,324,178,139,177,2025-05-24T00:10:06.212655
1171,-0.4904,0.8857,-0.0400,-0.070,-4.970,1.470,295,324,173,139,177,2025-05-24T00:10:06.212667
1172,-0.4870,0.8926,-0.0376,0.000,-4.970,1.680,261,305,171,139,177,2025-05-24T00:10:06.212680
1173,-0.4851,0.8955,-0.0381,-0.070,-4.270,2.100,296,336,177,139,177,2025-05-24T00:10:06.212693
1174,-0.4792,0.8930,-0.0420,-0.210,-3.710,2.240,302,316,171,139,177,2025-05-24T00:10:06.212704
1175,-0.4714,0.8935,-0.0390,-0.280,-3.640,2.660,301,315,178,139,177,2025-05-24T00:10:06.212715
1176,-0.4709,0.8843,-0.0425,0.070,-3.080,2.590,306,306,179,139,176,2025-05-24T00:10:06.212730
1177,-0.4704,0.8769,-0.0429,0.560,-3.780,2.380,306,324,177,139,177,2025-05-24T00:10:06.212740
1178,-0.4724,0.8794,-0.0390,0.630,-4.830,2.310,327,318,179,139,177,2025-05-24T00:10:06.212750
1179,-0.4763,0.8789,-0.0395,0.630,-5.670,2.030,327,300,177,138,178,2025-05-24T00:10:06.212760
1180,-0.4729,0.8862,-0.0444,0.840,-6.930,1.960,328,304,173,140,177,2025-05-24T00:10:06.212811
1181,-0.4636,0.8847,-0.0498,1.120,-6.370,1.820,256,320,175,139,177,2025-05-24T00:10:06.212823
1182,-0.4636,0.8799,-0.0547,1.470,-4.620,1.540,256,321,175,139,177,2025-05-24T00:10:06.212833
1183,-0.4651,0.8784,-0.0542,1.680,-3.710,1.610,298,260,173,139,178,2025-05-24T00:10:06.212843
1184,-0.4656,0.8779,-0.0542,0.910,-3.430,1.120,323,327,175,139,176,2025-05-24T00:10:06.212854
1185,-0.4660,0.8769,-0.0493,0.140,-3.780,0.700,284,302,179,139,177,2025-05-24T00:10:06.395557
1186,-0.4709,0.8764,-0.0464,-0.070,-4.970,-0.140,326,307,180,139,176,2025-05-24T00:10:06.395605
1187,-0.4699,0.8833,-0.0439,0.070,-5.460,-0.700,228,307,180,140,179,2025-05-24T00:10:06.395618
1188,-0.4660,0.8896,-0.0454,-0.140,-5.180,-1.120,226,285,179,139,177,2025-05-24T00:10:06.395628
1189,-0.4695,0.8911,-0.0454,-0.070,-4.410,-1.050,314,322,176,140,178,2025-05-24T00:10:06.395638
1190,-0.4758,0.8886,-0.0468,0.490,-3.220,-0.840,317,309,179,140,178,2025-05-24T00:10:06.395648
1191,-0.4831,0.8872,-0.0473,1.330,-2.240,-0.070,306,326,175,139,177,2025-05-24T00:10:06.395658
1192,-0.4943,0.8926,-0.0434,0.420,-1.120,0.910,331,326,179,140,178,2025-05-24T00:10:06.395674
1193,-0.4929,0.8921,-0.0410,-0.840,-0.840,2.030,327,320,179,139,178,2025-05-24T00:10:06.395685
1194,-0.4934,0.8921,-0.0415,-1.890,-1.190,2.520,303,327,178,140,177,2025-05-24T00:10:06.395695
1195,-0.4929,0.8935,-0.0400,-0.770,-2.310,3.010,311,300,180,139,178,2025-05-24T00:10:06.395705
1196,-0.4895,0.8965,-0.0439,0.280,-4.340,3.360,272,313,179,139,177,2025-05-24T00:10:06.395716
1197,-0.4695,0.9018,-0.0444,-0.070,-5.810,3.150,331,322,174,140,178,2025-05-24T00:10:06.395726
1198,-0.4499,0.8965,-0.0493,-1.890,-5.180,2.730,264,300,176,138,177,2025-05-24T00:10:06.395735
1199,-0.4514,0.8965,-0.0449,-2.100,-2.800,3.150,258,335,178,138,178,2025-05-24T00:10:06.395780
1200,-0.4685,0.8960,-0.0405,-1.190,-0.350,3.080,303,318,177,140,178,2025-05-24T00:10:06.395791
1201,-0.4685,0.9243,-0.0390,-1.610,1.330,4.410,328,329,176,139,178,2025-05-24T00:10:06.599919
1202,-0.4660,0.9389,-0.0410,-4.060,4.200,4.970,331,301,177,140,177,2025-05-24T00:10:06.599977
1203,-0.4602,0.9335,-0.0503,-6.860,5.740,5.600,306,298,178,140,178,2025-05-24T00:10:06.599993
1204,-0.4641,0.9335,-0.0512,-7.630,6.930,6.300,340,311,179,140,178,2025-05-24T00:10:06.600009
1205,-0.4734,0.9389,-0.0454,-7.140,7.280,6.090,260,312,173,141,178,2025-05-24T00:10:06.600147
1206,-0.4626,0.9560,-0.0400,-8.470,5.670,6.020,313,325,172,140,178,2025-05-24T00:10:06.600165
1207,-0.4582,0.9614,-0.0366,-10.220,5.390,6.160,309,265,179,140,178,2025-05-24T00:10:06.600177
1208,-0.4651,0.9648,-0.0288,-12.040,5.880,6.160,326,331,176,140,177,2025-05-24T00:10:06.600190
1209,-0.4616,0.9653,-0.0215,-11.620,5.320,7.280,320,281,178,140,178,2025-05-24T00:10:06.600202
1210,-0.4690,0.9545,-0.0137,-12.250,5.040,8.190,319,324,177,140,178,2025-05-24T00:10:06.600214
1211,-0.4738,0.9418,-0.0088,-13.020,3.570,9.100,311,316,179,140,177,2025-05-24T00:10:06.600226
1212,-0.4836,0.9252,-0.0073,-12.880,1.890,10.290,329,321,177,140,178,2025-05-24T00:10:06.600238
1213,-0.4992,0.9023,-0.0093,-11.690,0.490,10.640,324,327,178,139,177,2025-05-24T00:10:06.600250
1214,-0.4982,0.9004,-0.0161,-10.430,-2.380,11.760,326,313,177,140,179,2025-05-24T00:10:06.600261
1215,-0.4812,0.9013,-0.0224,-11.200,-2.730,12.950,276,326,179,140,178,2025-05-24T00:10:06.600319
1216,-0.4646,0.8974,-0.0259,-12.460,-1.470,13.790,327,303,177,140,178,2025-05-24T00:10:06.600331
1217,-0.4602,0.8833,-0.0273,-12.600,-0.630,13.930,323,307,177,140,177,2025-05-24T00:10:06.832886
1218,-0.4592,0.8755,-0.0283,-11.130,-0.280,14.560,325,331,179,140,178,2025-05-24T00:10:06.832956
1219,-0.4529,0.8696,-0.0229,-10.990,0.000,14.490,310,333,177,139,177,2025-05-24T00:10:06.832971
1220,-0.4480,0.8608,-0.0185,-11.340,-0.770,14.770,326,304,177,140,178,2025-05-24T00:10:06.832986
1221,-0.4426,0.8525,-0.0146,-10.920,-2.240,14.560,328,315,179,140,176,2025-05-24T00:10:06.832997
1222,-0.4265,0.8589,-0.0068,-8.890,-4.340,14.700,285,318,178,140,178,2025-05-24T00:10:06.833008
1223,-0.4197,0.8603,-0.0015,-7.420,-6.930,14.000,325,323,178,139,178,2025-05-24T00:10:06.833018
1224,-0.3997,0.8594,-0.0063,-6.650,-8.750,12.250,308,310,179,141,178,2025-05-24T00:10:06.833028
1225,-0.3880,0.8706,-0.0054,-5.880,-8.190,11.480,318,316,173,141,178,2025-05-24T00:10:06.833042
1226,-0.3889,0.8730,-0.0020,-4.340,-5.740,10.150,329,323,178,140,177,2025-05-24T00:10:06.833053
1227,-0.3816,0.8711,-0.0029,-3.220,-5.110,8.750,320,312,180,141,178,2025-05-24T00:10:06.833063
1228,-0.3797,0.8696,-0.0020,-3.640,-4.690,7.070,260,283,178,140,178,2025-05-24T00:10:06.833073
1229,-0.3845,0.8691,-0.0039,-3.920,-5.320,4.970,317,307,178,140,177,2025-05-24T00:10:06.833083
1230,-0.3811,0.8764,-0.0059,-3.570,-6.650,3.780,309,308,180,141,178,2025-05-24T00:10:06.833092
1231,-0.3753,0.8838,-0.0117,-2.590,-6.650,3.080,272,263,179,141,179,2025-05-24T00:10:06.833135
1232,-0.3704,0.8935,-0.0112,-2.100,-5.950,2.590,311,266,174,141,179,2025-05-24T00:10:06.833147
1233,-0.3655,0.9033,-0.0039,-2.520,-4.550,2.030,303,258,181,141,179,2025-05-24T00:10:06.833157
1234,-0.3748,0.9062,-0.0010,-3.010,-2.730,0.700,301,324,181,141,178,2025-05-24T00:10:06.833167
1235,-0.3880,0.9028,0.0010,-2.380,-2.450,0.420,326,333,179,141,179,2025-05-24T00:10:07.021434
1236,-0.3953,0.9194,0.0049,-1.960,-1.960,0.350,327,309,178,141,179,2025-05-24T00:10:07.021481
1237,-0.4041,0.9301,0.0049,-1.890,-1.470,0.000,317,319,175,141,179,2025-05-24T00:10:07.021494
1238,-0.3938,0.9345,0.0054,-2.240,-1.470,0.210,305,323,180,140,179,2025-05-24T00:10:07.021504
1239,-0.3977,0.9331,0.0059,-2.450,-1.120,0.560,311,263,180,142,179,2025-05-24T00:10:07.021514
1240,-0.4065,0.9228,0.0024,-1.540,-1.960,0.700,316,310,181,142,179,2025-05-24T00:10:07.021524
1241,-0.4006,0.9277,0.0044,-0.420,-2.800,1.610,317,306,180,142,179,2025-05-24T00:10:07.021533
1242,-0.4065,0.9296,0.0039,-1.190,-1.680,1.260,316,299,181,142,180,2025-05-24T00:10:07.021543
1243,-0.4148,0.9340,0.0020,-2.450,-2.450,0.350,308,317,174,141,178,2025-05-24T00:10:07.021552
1244,-0.4124,0.9487,0.0005,-3.360,-3.220,0.140,262,279,173,142,179,2025-05-24T00:10:07.021560
1245,-0.4065,0.9472,-0.0024,-4.200,-2.730,-0.210,308,279,177,141,179,2025-05-24T00:10:07.021569
1246,-0.3997,0.9448,-0.0029,-4.410,-2.590,-0.210,324,335,177,141,178,2025-05-24T00:10:07.021579
1247,-0.4138,0.9321,-0.0044,-4.410,-2.450,0.000,316,326,180,143,180,2025-05-24T00:10:07.021587
1248,-0.4241,0.9331,0.0015,-4.410,-2.800,0.980,318,312,178,142,179,2025-05-24T00:10:07.021600
1249,-0.4275,0.9296,0.0073,-4.620,-3.990,1.680,302,310,179,143,180,2025-05-24T00:10:07.021774
1250,-0.4265,0.9311,0.0088,-5.320,-3.710,2.870,320,296,175,142,180,2025-05-24T00:10:07.021789
1251,-0.4265,0.9355,0.0146,-5.810,-3.080,3.500,311,310,176,142,179,2025-05-24T00:10:07.129001
1252,-0.4304,0.9301,0.0176,-5.950,-3.780,4.130,316,309,181,142,180,2025-05-24T00:10:07.129038
1253,-0.4299,0.9340,0.0181,-6.300,-4.690,4.830,288,313,180,143,181,2025-05-24T00:10:07.129085
1254,-0.4133,0.9272,0.0176,-7.630,-4.830,4.970,322,321,181,142,180,2025-05-24T00:10:07.129092
1255,-0.3987,0.9238,0.0205,-8.680,-4.060,5.040,331,263,179,142,180,2025-05-24T00:10:07.129098
1256,-0.3889,0.9248,0.0249,-9.310,-2.380,5.180,304,285,181,142,180,2025-05-24T00:10:07.129104
1257,-0.3894,0.9233,0.0259,-9.030,-1.750,5.110,304,328,181,143,180,2025-05-24T00:10:07.129109
1258,-0.3870,0.9150,0.0303,-7.980,-2.660,4.900,287,323,180,142,180,2025-05-24T00:10:07.210612
1259,-0.3655,0.9189,0.0322,-7.280,-2.030,4.830,319,329,179,143,181,2025-05-24T00:10:07.210657
1260,-0.3626,0.9126,0.0312,-6.720,-0.490,3.990,326,287,181,142,180,2025-05-24T00:10:07.210668
1261,-0.3616,0.9082,0.0298,-5.670,-0.070,3.710,318,331,181,143,180,2025-05-24T00:10:07.210678
