SeqNum,AccX,AccY,AccZ,GyroX,GyroY,GyroZ,Flex,Force1,Force2,Force3,Force4,TimestampReception
1,0.0000,0.0000,0.0000,6.300,-13.160,4.340,527,468,286,441,406,2025-05-23T22:00:47.805639
2,-0.4158,0.6910,0.5885,32.200,-95.830,0.770,471,425,336,436,358,2025-05-23T22:00:47.805732
3,-0.4182,0.6661,0.5675,7.070,20.090,25.550,390,427,351,406,372,2025-05-23T22:00:47.805751
4,-0.4177,0.6520,0.5510,10.220,23.100,25.620,410,412,327,396,300,2025-05-23T22:00:47.805763
5,-0.4260,0.6681,0.5363,13.860,23.730,26.460,363,403,357,395,346,2025-05-23T22:00:47.805779
6,-0.4412,0.6690,0.5256,19.670,13.930,27.510,414,363,358,353,372,2025-05-23T22:00:48.062617
7,-0.4563,0.6856,0.5202,20.230,11.340,25.760,385,384,327,376,385,2025-05-23T22:00:48.062660
8,-0.4607,0.6920,0.5422,22.680,9.310,25.270,383,389,353,379,396,2025-05-23T22:00:48.062671
9,-0.4465,0.7056,0.5397,21.140,1.680,25.760,415,412,373,376,391,2025-05-23T22:00:48.062681
10,-0.4446,0.7091,0.5529,19.670,-2.940,24.220,398,425,379,371,390,2025-05-23T22:00:48.062691
11,-0.4758,0.7100,0.5563,18.410,0.980,21.350,400,416,338,403,411,2025-05-23T22:00:48.062701
12,-0.4948,0.7203,0.5529,17.570,7.560,18.550,400,422,369,395,414,2025-05-23T22:00:48.062711
13,-0.5061,0.7130,0.5378,19.950,9.590,16.730,410,429,362,377,406,2025-05-23T22:00:48.062735
14,-0.4836,0.7061,0.5446,22.330,1.680,14.910,423,397,374,408,396,2025-05-23T22:00:48.062744
15,-0.4568,0.7066,0.5368,25.970,0.000,12.390,362,411,370,371,398,2025-05-23T22:00:48.062752
16,-0.4402,0.7193,0.5402,25.340,2.940,10.080,382,421,364,400,362,2025-05-23T22:00:48.062760
17,-0.4241,0.7501,0.5427,24.150,13.860,7.070,424,352,342,418,396,2025-05-23T22:00:48.062768
18,-0.4158,0.7476,0.5378,19.600,19.740,3.780,376,391,367,412,387,2025-05-23T22:00:48.062777
19,-0.4070,0.7432,0.5163,13.020,24.780,-0.630,393,399,377,415,392,2025-05-23T22:00:48.062790
20,-0.4187,0.7222,0.4939,8.610,32.060,-4.060,357,386,390,357,402,2025-05-23T22:00:48.062801
21,-0.4636,0.7096,0.4948,7.210,35.140,-4.340,405,418,391,377,386,2025-05-23T22:00:48.062845
22,-0.4451,0.6939,0.4841,6.020,30.660,-7.980,380,361,386,411,396,2025-05-23T22:00:48.062854
23,-0.3884,0.6871,0.4582,6.580,29.120,-11.130,385,332,392,425,390,2025-05-23T22:00:48.062862
24,-0.4085,0.7022,0.4787,7.420,25.270,-14.490,391,403,381,395,383,2025-05-23T22:00:48.062870
25,-0.3889,0.7096,0.4734,6.230,29.470,-17.920,392,394,388,309,399,2025-05-23T22:00:48.062878
26,-0.3645,0.7076,0.4631,2.310,35.630,-22.120,405,400,387,365,405,2025-05-23T22:00:48.062886
27,-0.3719,0.7169,0.4714,-3.500,36.540,-27.510,340,359,378,339,393,2025-05-23T22:00:48.366268
28,-0.3997,0.7037,0.4602,-7.980,42.420,-32.340,323,375,375,370,395,2025-05-23T22:00:48.366314
29,-0.4475,0.6876,0.4548,-6.720,38.920,-34.860,407,386,383,403,403,2025-05-23T22:00:48.366325
30,-0.4773,0.6837,0.4582,-7.910,31.640,-34.440,413,380,391,401,400,2025-05-23T22:00:48.366335
31,-0.4817,0.6959,0.4807,-3.290,22.680,-33.950,415,395,393,349,383,2025-05-23T22:00:48.366343
32,-0.4880,0.7096,0.4973,-3.710,18.760,-36.120,422,418,347,387,390,2025-05-23T22:00:48.366352
33,-0.4885,0.7218,0.4997,-4.270,17.080,-38.500,409,399,352,410,392,2025-05-23T22:00:48.366360
34,-0.4851,0.7422,0.5090,-7.280,20.160,-40.390,382,421,362,369,395,2025-05-23T22:00:48.366387
35,-0.5022,0.7369,0.5144,-12.880,27.860,-42.770,379,424,379,387,392,2025-05-23T22:00:48.366396
36,-0.5090,0.7237,0.5295,-16.450,33.180,-44.100,349,427,374,395,388,2025-05-23T22:00:48.366404
37,-0.5222,0.7159,0.4890,-19.810,47.320,-43.120,357,421,379,403,408,2025-05-23T22:00:48.366413
38,-0.5690,0.6856,0.4807,-11.480,66.290,-40.880,397,400,382,406,396,2025-05-23T22:00:48.366421
39,-0.6105,0.6900,0.4919,2.870,71.750,-39.200,390,402,378,370,409,2025-05-23T22:00:48.366429
40,-0.6149,0.7188,0.4534,4.830,70.630,-37.170,412,404,389,383,399,2025-05-23T22:00:48.366437
41,-0.6564,0.7340,0.4704,5.600,59.220,-35.490,415,399,388,344,356,2025-05-23T22:00:48.366448
42,-0.6700,0.7383,0.4455,0.210,50.540,-35.490,431,416,376,390,385,2025-05-23T22:00:48.366491
43,-0.6803,0.7291,0.4504,-4.480,48.650,-31.920,409,426,342,407,384,2025-05-23T22:00:48.366500
44,-0.6783,0.7315,0.4055,-11.200,44.310,-30.450,425,422,366,415,398,2025-05-23T22:00:48.460275
45,-0.6842,0.7139,0.4211,-8.260,42.770,-27.510,393,424,378,359,384,2025-05-23T22:00:48.460316
46,-0.6778,0.7218,0.3865,-4.970,30.730,-24.500,416,353,376,393,391,2025-05-23T22:00:48.460326
47,-0.7052,0.7149,0.4197,1.890,30.170,-21.560,419,401,378,416,407,2025-05-23T22:00:48.460348
48,-0.7183,0.7198,0.4089,3.850,23.730,-18.970,423,399,379,403,401,2025-05-23T22:00:48.460360
49,-0.7135,0.7242,0.4026,4.830,22.330,-17.360,422,392,348,359,408,2025-05-23T22:00:48.460369
50,-0.7213,0.7222,0.3972,3.990,15.050,-14.490,366,417,358,387,355,2025-05-23T22:00:48.460377
51,-0.7076,0.7183,0.3880,1.400,11.830,-11.760,408,415,367,402,389,2025-05-23T22:00:48.460386
52,-0.6988,0.7105,0.3860,1.750,10.780,-9.590,409,401,365,404,409,2025-05-23T22:00:48.460394
53,-0.6764,0.7091,0.3782,0.980,9.450,-7.980,422,419,360,376,405,2025-05-23T22:00:48.460403
54,-0.6632,0.6920,0.3631,1.610,9.240,-6.440,391,408,325,392,414,2025-05-23T22:00:48.460412
55,-0.6793,0.6905,0.3538,2.030,7.840,-6.440,414,373,339,390,401,2025-05-23T22:00:48.460422
56,-0.6895,0.6925,0.3553,4.200,9.450,-5.320,409,401,362,354,392,2025-05-23T22:00:48.460430
57,-0.7076,0.6934,0.3514,4.830,7.070,-3.220,355,403,362,373,382,2025-05-23T22:00:48.460437
58,-0.7061,0.6900,0.3504,3.080,0.700,-1.820,409,393,360,407,375,2025-05-23T22:00:48.460445
59,-0.7227,0.6895,0.3455,3.150,-4.060,0.910,413,388,377,417,387,2025-05-23T22:00:48.460482
60,-0.6959,0.6739,0.3416,2.030,-5.530,2.660,419,394,338,373,385,2025-05-23T22:00:48.460490
61,-0.6847,0.6656,0.3279,3.290,0.420,2.660,423,413,349,392,404,2025-05-23T22:00:48.669402
62,-0.7017,0.6578,0.3323,4.970,3.640,2.240,382,398,326,388,400,2025-05-23T22:00:48.669460
63,-0.7178,0.6588,0.3279,5.740,7.630,3.010,378,419,351,405,409,2025-05-23T22:00:48.669472
64,-0.7305,0.6559,0.3323,7.210,8.260,3.710,410,373,353,416,416,2025-05-23T22:00:48.669481
65,-0.7364,0.6520,0.3484,7.700,7.140,4.340,419,414,331,422,355,2025-05-23T22:00:48.669489
66,-0.7364,0.6539,0.3265,6.020,1.680,5.180,424,359,346,358,373,2025-05-23T22:00:48.669499
67,-0.7296,0.6427,0.3211,5.600,-7.770,5.110,394,405,373,388,354,2025-05-23T22:00:48.669506
68,-0.7198,0.6403,0.3045,4.830,-6.440,3.430,382,343,378,402,377,2025-05-23T22:00:48.669515
69,-0.6949,0.6271,0.3221,3.360,-10.360,1.050,401,380,353,393,390,2025-05-23T22:00:48.669526
70,-0.6822,0.6202,0.3074,3.500,-6.510,-0.140,423,403,370,350,362,2025-05-23T22:00:48.669534
71,-0.6808,0.6134,0.3206,5.600,-3.500,0.140,434,429,376,333,376,2025-05-23T22:00:48.669541
72,-0.6822,0.6124,0.3133,7.980,5.530,-0.560,427,421,375,370,404,2025-05-23T22:00:48.669549
73,-0.6651,0.6212,0.3177,10.360,12.040,-1.050,385,396,377,383,388,2025-05-23T22:00:48.669556
74,-0.6456,0.6261,0.3143,13.370,16.520,-2.590,369,391,370,353,383,2025-05-23T22:00:48.669564
75,-0.6329,0.6407,0.3231,15.680,22.540,-3.710,378,297,360,340,409,2025-05-23T22:00:48.669571
76,-0.6388,0.6422,0.3070,17.360,34.020,-4.900,403,378,362,390,360,2025-05-23T22:00:48.669610
77,-0.6749,0.6290,0.2972,20.930,54.110,-4.900,365,332,331,394,387,2025-05-23T22:00:48.869850
78,-0.7627,0.6246,0.2987,27.720,72.310,-4.340,383,399,345,407,392,2025-05-23T22:00:48.869933
79,-0.8179,0.6403,0.3148,30.520,75.880,-0.980,420,412,324,391,392,2025-05-23T22:00:48.869944
80,-0.8379,0.6627,0.3309,32.900,66.290,-1.120,432,375,343,409,384,2025-05-23T22:00:48.869954
81,-0.8545,0.6764,0.3255,30.240,45.570,-1.260,379,389,351,401,386,2025-05-23T22:00:48.869962
82,-0.8389,0.6734,0.3133,23.730,22.050,-0.700,412,392,358,421,406,2025-05-23T22:00:48.869970
83,-0.8072,0.6676,0.2987,24.500,9.660,0.910,417,415,377,414,408,2025-05-23T22:00:48.869979
84,-0.7706,0.6622,0.2928,26.740,3.080,2.170,394,428,381,407,391,2025-05-23T22:00:48.869996
85,-0.7193,0.6539,0.2811,30.590,5.320,1.400,389,401,384,398,408,2025-05-23T22:00:48.870005
86,-0.6881,0.6461,0.2704,33.880,9.170,0.630,362,418,353,410,401,2025-05-23T22:00:48.870013
87,-0.6827,0.6564,0.2767,36.540,15.190,-0.350,395,406,359,411,350,2025-05-23T22:00:48.870021
88,-0.6856,0.6681,0.2816,36.820,20.580,-1.050,392,379,357,383,388,2025-05-23T22:00:48.870029
89,-0.7115,0.6837,0.2860,36.960,26.810,-2.450,395,341,374,351,383,2025-05-23T22:00:48.871111
90,-0.7549,0.7008,0.3089,35.560,28.210,-2.660,410,387,340,378,397,2025-05-23T22:00:48.871136
91,-0.7793,0.7056,0.3314,28.280,21.490,-1.610,412,349,363,403,407,2025-05-23T22:00:48.871146
92,-0.7896,0.6998,0.3392,23.100,7.980,-0.840,423,383,375,394,407,2025-05-23T22:00:48.871201
93,-0.7652,0.6920,0.3421,21.070,-5.180,1.330,420,402,374,406,402,2025-05-23T22:00:48.871209
94,-0.7300,0.6944,0.3450,21.840,-11.060,2.870,432,418,344,372,406,2025-05-23T22:00:48.871219
95,-0.6969,0.7110,0.3533,23.380,-12.110,3.150,412,399,358,362,316,2025-05-23T22:00:49.077345
96,-0.6754,0.7257,0.3499,26.740,-3.990,1.540,420,382,376,394,327,2025-05-23T22:00:49.077406
97,-0.6793,0.7310,0.3645,30.310,1.750,0.350,398,374,377,384,324,2025-05-23T22:00:49.077422
98,-0.6783,0.7379,0.3777,28.490,5.670,0.210,420,396,357,407,378,2025-05-23T22:00:49.077459
99,-0.6939,0.7393,0.3904,24.710,9.100,-0.980,399,415,367,406,346,2025-05-23T22:00:49.077475
100,-0.7086,0.7247,0.3938,18.690,10.500,-1.610,425,345,372,397,365,2025-05-23T22:00:49.077489
101,-0.7120,0.7081,0.4016,13.440,10.290,-0.840,416,370,383,385,390,2025-05-23T22:00:49.077503
102,-0.7017,0.6886,0.3924,7.770,8.890,0.560,399,406,394,394,402,2025-05-23T22:00:49.077517
103,-0.6842,0.6710,0.3831,4.060,6.160,2.310,421,398,380,352,398,2025-05-23T22:00:49.077530
104,-0.6734,0.6681,0.3767,3.080,3.920,4.410,396,374,385,392,387,2025-05-23T22:00:49.077542
105,-0.6554,0.6759,0.3723,-0.070,3.010,6.440,384,402,386,388,387,2025-05-23T22:00:49.077560
106,-0.6349,0.6700,0.3670,-1.960,3.850,8.540,421,422,378,367,404,2025-05-23T22:00:49.077575
107,-0.6242,0.6666,0.3514,-2.730,4.200,9.800,387,410,385,382,369,2025-05-23T22:00:49.077593
108,-0.6246,0.6588,0.3421,-2.030,2.940,9.660,400,399,368,399,376,2025-05-23T22:00:49.077607
109,-0.6193,0.6534,0.3323,-2.520,-2.450,9.450,413,383,371,405,389,2025-05-23T22:00:49.077619
110,-0.6002,0.6525,0.3260,-3.780,-9.520,9.310,413,384,381,411,385,2025-05-23T22:00:49.077684
111,-0.5812,0.6769,0.3284,-5.110,-13.090,7.700,397,410,389,407,384,2025-05-23T22:00:49.077697
112,-0.5714,0.6788,0.3177,-7.490,-12.670,5.390,376,420,356,371,398,2025-05-23T22:00:49.285994
113,-0.5836,0.6700,0.3045,-7.280,-8.820,2.800,419,402,371,388,366,2025-05-23T22:00:49.286047
114,-0.6120,0.6647,0.3001,-5.460,-6.580,1.190,428,431,382,391,385,2025-05-23T22:00:49.286063
115,-0.6271,0.6608,0.2948,-2.660,-11.550,1.470,409,397,366,391,374,2025-05-23T22:00:49.286075
116,-0.6427,0.6798,0.2967,-0.910,-17.570,0.840,403,416,365,382,388,2025-05-23T22:00:49.286087
117,-0.6505,0.7003,0.3074,-2.730,-22.470,-0.140,418,430,382,394,353,2025-05-23T22:00:49.286097
118,-0.6534,0.6978,0.2967,-4.760,-25.970,0.630,421,396,358,364,331,2025-05-23T22:00:49.286108
119,-0.6544,0.6822,0.2830,-4.760,-26.180,0.840,416,394,327,378,378,2025-05-23T22:00:49.286137
120,-0.6378,0.6676,0.2786,-3.780,-27.090,0.980,408,406,362,393,341,2025-05-23T22:00:49.286148
121,-0.6271,0.6759,0.2850,1.400,-23.660,0.770,400,379,364,385,377,2025-05-23T22:00:49.286160
122,-0.6412,0.6881,0.2904,3.780,-15.890,0.630,398,419,373,379,398,2025-05-23T22:00:49.286172
123,-0.6637,0.6876,0.2933,6.160,-8.330,1.260,423,408,340,389,386,2025-05-23T22:00:49.286182
124,-0.6798,0.6886,0.3011,6.440,-5.040,2.170,370,426,325,382,400,2025-05-23T22:00:49.286192
125,-0.6895,0.6891,0.3143,6.580,-8.540,3.710,415,418,353,387,388,2025-05-23T22:00:49.286202
126,-0.7013,0.6978,0.3211,7.350,-13.790,4.620,397,416,379,389,402,2025-05-23T22:00:49.286216
127,-0.7100,0.6964,0.3113,7.700,-15.680,5.950,407,400,343,383,390,2025-05-23T22:00:49.286268
128,-0.6944,0.6983,0.3099,7.560,-16.100,7.560,415,412,372,396,362,2025-05-23T22:00:49.286279
129,-0.6769,0.6993,0.3094,8.260,-15.820,8.680,428,307,379,406,387,2025-05-23T22:00:49.286289
130,-0.6730,0.6974,0.3084,9.030,-16.240,9.940,415,325,386,415,390,2025-05-23T22:00:49.336113
131,-0.6632,0.6978,0.3104,7.770,-16.590,11.060,430,380,341,404,345,2025-05-23T22:00:49.336157
132,-0.6534,0.6978,0.3231,8.330,-16.240,12.390,406,422,316,407,382,2025-05-23T22:00:49.336168
133,-0.6398,0.7017,0.3270,6.860,-16.310,13.580,372,408,344,373,401,2025-05-23T22:00:49.336191
134,-0.6281,0.6983,0.3235,5.390,-15.960,14.560,392,368,363,398,406,2025-05-23T22:00:49.387651
135,-0.6110,0.7047,0.3206,4.900,-14.210,14.770,412,397,361,349,402,2025-05-23T22:00:49.387715
136,-0.5895,0.7110,0.3231,3.990,-12.250,14.700,422,345,366,396,357,2025-05-23T22:00:49.387727
137,-0.5788,0.7052,0.3113,3.500,-7.280,14.700,428,386,336,363,378,2025-05-23T22:00:49.387738
138,-0.5905,0.7139,0.3143,3.850,-0.840,14.980,427,414,353,377,385,2025-05-23T22:00:49.515912
139,-0.6046,0.7300,0.3245,4.060,3.640,15.680,393,422,362,406,409,2025-05-23T22:00:49.515970
140,-0.6134,0.7579,0.3177,2.870,4.830,17.640,396,373,371,411,407,2025-05-23T22:00:49.516002
141,-0.6095,0.8003,0.3006,0.140,4.620,18.970,391,399,379,413,391,2025-05-23T22:00:49.516014
142,-0.5988,0.8286,0.2869,-2.730,4.130,19.950,393,405,386,374,406,2025-05-23T22:00:49.516026
143,-0.5988,0.8560,0.2699,-3.220,5.670,21.140,369,388,353,401,411,2025-05-23T22:00:49.516043
144,-0.6163,0.8628,0.2660,-2.870,9.450,22.260,327,412,374,402,395,2025-05-23T22:00:49.516304
145,-0.6525,0.8442,0.2694,-2.800,12.530,24.570,398,398,381,383,388,2025-05-23T22:00:49.516330
146,-0.6598,0.8320,0.2733,-3.500,13.510,28.490,416,426,343,391,346,2025-05-23T22:00:49.676718
147,-0.6490,0.8194,0.2713,-7.910,14.420,32.270,360,405,350,359,377,2025-05-23T22:00:49.676793
148,-0.6232,0.8101,0.2635,-10.150,19.110,38.640,402,396,377,374,391,2025-05-23T22:00:49.676809
149,-0.5851,0.8130,0.2381,-9.730,26.250,44.450,419,408,382,391,378,2025-05-23T22:00:49.676822
150,-0.5353,0.8101,0.2157,-8.890,32.200,49.490,379,345,382,401,378,2025-05-23T22:00:49.676837
151,-0.4909,0.8042,0.1918,-8.470,35.910,54.110,386,391,373,388,392,2025-05-23T22:00:49.676848
152,-0.4743,0.7867,0.1791,-7.070,37.800,57.680,405,411,382,391,399,2025-05-23T22:00:49.676859
153,-0.4621,0.7862,0.1718,-5.600,38.220,60.200,397,412,381,383,397,2025-05-23T22:00:49.676870
154,-0.4490,0.7930,0.1679,-4.060,37.940,62.020,388,397,376,407,388,2025-05-23T22:00:49.676887
155,-0.4490,0.7974,0.1523,-5.390,36.330,62.370,420,350,369,392,405,2025-05-23T22:00:49.676898
156,-0.4387,0.8111,0.1513,-5.880,35.140,61.530,428,390,381,347,390,2025-05-23T22:00:49.676909
157,-0.4382,0.8281,0.1479,-5.600,34.650,61.320,430,383,383,382,387,2025-05-23T22:00:49.676919
158,-0.4690,0.8306,0.1469,-5.250,35.980,59.920,430,375,379,400,352,2025-05-23T22:00:49.676931
159,-0.4807,0.8398,0.1444,-2.940,36.820,59.150,418,411,383,404,391,2025-05-23T22:00:49.676941
160,-0.4890,0.8398,0.1347,-1.050,35.210,58.660,411,419,391,390,349,2025-05-23T22:00:49.676950
161,-0.5061,0.8603,0.1337,3.080,31.920,57.400,411,411,376,360,346,2025-05-23T22:00:49.677004
162,-0.5285,0.9072,0.1269,6.650,27.720,54.670,427,407,385,391,381,2025-05-23T22:00:49.729180
163,-0.5617,0.9511,0.1240,9.940,22.470,52.850,421,390,385,412,403,2025-05-23T22:00:49.729225
164,-0.6154,0.9667,0.1313,13.160,15.540,49.980,424,419,368,354,404,2025-05-23T22:00:49.729250
165,-0.6315,0.9526,0.1313,14.140,3.150,45.640,411,431,361,377,409,2025-05-23T22:00:49.729259
166,-0.6242,0.9233,0.1371,15.120,-8.120,41.860,408,431,356,394,395,2025-05-23T22:00:49.729271
167,-0.6368,0.8891,0.1405,17.500,-8.050,39.550,391,416,375,404,406,2025-05-23T22:00:49.777135
168,-0.6364,0.8574,0.1425,22.610,0.000,40.040,422,427,375,411,396,2025-05-23T22:00:49.777183
169,-0.6310,0.8433,0.1396,26.810,9.870,42.910,308,399,382,406,409,2025-05-23T22:00:49.777210
170,-0.6154,0.8550,0.1298,30.240,10.850,45.360,374,360,380,309,402,2025-05-23T22:00:49.777220
171,-0.5622,0.8706,0.1093,29.470,5.180,45.920,336,397,378,379,354,2025-05-23T22:00:49.824396
172,-0.5280,0.8779,0.0888,32.900,-0.560,45.080,383,424,347,379,376,2025-05-23T22:00:49.824441
173,-0.5075,0.9008,0.0761,35.840,-4.270,44.590,388,429,362,396,386,2025-05-23T22:00:49.824452
174,-0.4987,0.9150,0.0590,37.380,-7.140,44.310,387,405,360,414,384,2025-05-23T22:00:49.824465
175,-0.4778,0.9199,0.0400,36.680,-11.970,44.870,384,358,326,424,395,2025-05-23T22:00:49.872564
176,-0.4475,0.9248,0.0371,32.760,-16.030,45.220,410,411,357,416,352,2025-05-23T22:00:49.872816
177,-0.4309,0.9238,0.0390,27.440,-19.320,46.060,417,415,368,401,382,2025-05-23T22:00:49.872829
178,-0.3963,0.9335,0.0307,22.960,-20.440,46.060,416,425,366,415,387,2025-05-23T22:00:49.872844
179,-0.3587,0.9496,0.0200,21.980,-19.460,45.220,419,350,347,402,396,2025-05-23T22:00:49.921386
180,-0.3187,0.9682,0.0171,21.910,-19.250,44.800,346,413,364,394,390,2025-05-23T22:00:49.921437
181,-0.2796,0.9906,0.0127,20.650,-17.850,43.890,392,366,380,397,392,2025-05-23T22:00:49.921454
182,-0.2738,0.9970,0.0093,20.160,-13.020,42.980,394,416,351,343,390,2025-05-23T22:00:49.921465
183,-0.2689,1.0097,0.0117,19.810,-7.770,42.770,405,405,365,392,392,2025-05-23T22:00:50.102546
184,-0.2743,1.0136,0.0166,18.620,-5.950,44.520,430,438,338,402,386,2025-05-23T22:00:50.102591
185,-0.2743,1.0287,0.0322,14.560,-8.540,46.620,405,415,363,403,390,2025-05-23T22:00:50.102604
186,-0.2630,1.0404,0.0390,9.380,-14.770,48.510,392,350,382,407,341,2025-05-23T22:00:50.102627
187,-0.2328,1.0458,0.0283,5.390,-19.810,49.700,404,421,385,387,383,2025-05-23T22:00:50.102638
188,-0.2011,1.0302,0.0200,4.200,-21.420,50.820,423,397,374,401,377,2025-05-23T22:00:50.102648
189,-0.1684,1.0116,0.0078,5.530,-18.690,50.890,413,413,367,387,391,2025-05-23T22:00:50.102657
190,-0.1357,1.0102,0.0137,5.880,-13.790,50.120,412,379,361,391,394,2025-05-23T22:00:50.102670
191,-0.1420,1.0053,0.0117,5.390,-9.240,48.860,415,417,369,396,386,2025-05-23T22:00:50.102679
192,-0.1498,1.0092,-0.0024,3.640,-5.950,47.950,415,412,347,407,406,2025-05-23T22:00:50.102689
193,-0.1449,1.0111,-0.0205,2.030,-7.000,47.250,347,347,367,410,410,2025-05-23T22:00:50.102699
194,-0.1293,0.9965,-0.0322,0.980,-11.200,46.900,378,412,305,392,367,2025-05-23T22:00:50.102707
195,-0.1288,0.9877,-0.0337,0.490,-14.770,45.640,395,339,346,394,383,2025-05-23T22:00:50.102716
196,-0.1196,0.9789,-0.0278,-0.770,-15.610,43.540,420,370,336,389,391,2025-05-23T22:00:50.102725
197,-0.1171,0.9687,-0.0327,-2.170,-15.960,42.210,419,414,330,415,399,2025-05-23T22:00:50.153765
198,-0.1152,0.9697,-0.0351,-4.690,-18.060,40.810,412,406,359,406,389,2025-05-23T22:00:50.153808
199,-0.1137,0.9726,-0.0337,-6.440,-21.840,39.550,401,426,336,409,384,2025-05-23T22:00:50.153820
200,-0.0937,0.9823,-0.0322,-8.610,-25.060,38.220,364,432,359,410,361,2025-05-23T22:00:50.153829
201,-0.0752,0.9765,-0.0307,-9.800,-24.150,36.190,374,428,369,401,369,2025-05-23T22:00:50.183088
202,-0.0639,0.9755,-0.0288,-9.310,-19.320,34.370,379,424,381,387,388,2025-05-23T22:00:50.333613
203,-0.0488,0.9731,-0.0249,-7.910,-15.050,32.760,416,375,365,405,386,2025-05-23T22:00:50.333666
204,-0.0464,0.9643,-0.0146,-8.190,-11.130,31.570,359,396,338,409,381,2025-05-23T22:00:50.333680
205,-0.0551,0.9560,0.0010,-9.100,-11.830,31.640,402,401,358,352,386,2025-05-23T22:00:50.333691
206,-0.0800,0.9599,0.0161,-9.520,-15.750,31.360,391,418,374,376,349,2025-05-23T22:00:50.333703
207,-0.0844,0.9697,0.0195,-9.450,-23.030,30.450,411,418,336,385,370,2025-05-23T22:00:50.333716
208,-0.0630,0.9789,0.0185,-9.380,-27.860,31.010,407,393,365,401,392,2025-05-23T22:00:50.333727
209,-0.0459,0.9667,0.0210,-10.010,-29.190,31.430,369,341,375,410,405,2025-05-23T22:00:50.333739
210,-0.0390,0.9599,0.0322,-9.030,-24.080,31.220,402,403,380,394,410,2025-05-23T22:00:50.333750
211,-0.0420,0.9453,0.0366,-5.810,-17.920,30.940,375,426,336,405,394,2025-05-23T22:00:50.333759
212,-0.0215,0.9453,0.0342,-5.320,-15.610,29.750,353,423,360,369,400,2025-05-23T22:00:50.333769
213,-0.0020,0.9521,0.0278,-6.930,-15.890,28.000,402,421,372,401,406,2025-05-23T22:00:50.333778
214,-0.0010,0.9482,0.0239,-8.050,-16.100,26.040,417,352,336,411,398,2025-05-23T22:00:50.333786
215,-0.0083,0.9472,0.0195,-8.820,-16.450,24.500,425,405,347,413,388,2025-05-23T22:00:50.333795
216,-0.0298,0.9438,0.0220,-7.420,-18.060,23.380,402,397,352,402,378,2025-05-23T22:00:50.333840
217,-0.0288,0.9555,0.0429,-7.140,-25.060,21.980,327,385,352,372,392,2025-05-23T22:00:50.508664
218,-0.0351,0.9589,0.0664,-7.490,-32.830,20.580,387,393,363,372,394,2025-05-23T22:00:50.508716
219,-0.0244,0.9526,0.0791,-6.580,-36.890,19.180,419,339,366,386,408,2025-05-23T22:00:50.508730
220,-0.0010,0.9511,0.0781,-5.460,-37.240,16.870,418,401,365,402,415,2025-05-23T22:00:50.508742
221,0.0298,0.9394,0.0771,-2.940,-32.760,13.090,401,336,344,389,409,2025-05-23T22:00:50.508754
222,0.0268,0.9418,0.0864,0.560,-25.690,9.520,391,389,358,391,398,2025-05-23T22:00:50.508766
223,0.0102,0.9526,0.0996,3.710,-18.130,6.790,415,395,371,397,400,2025-05-23T22:00:50.508779
224,-0.0161,0.9594,0.1059,5.600,-13.860,6.300,427,413,375,388,387,2025-05-23T22:00:50.508790
225,-0.0176,0.9614,0.1147,4.200,-13.160,7.910,422,424,371,394,404,2025-05-23T22:00:50.508920
226,-0.0098,0.9604,0.1064,0.420,-16.870,8.960,380,348,378,400,389,2025-05-23T22:00:50.508935
227,-0.0117,0.9487,0.1020,1.680,-19.390,10.500,408,407,386,415,395,2025-05-23T22:00:50.508945
228,0.0200,0.9716,0.1127,3.150,-21.770,10.780,402,422,376,417,408,2025-05-23T22:00:50.508955
229,0.0400,0.9838,0.1113,2.800,-22.820,10.290,368,412,386,358,376,2025-05-23T22:00:50.508966
230,0.0547,0.9999,0.1108,4.130,-22.610,8.120,398,426,389,376,355,2025-05-23T22:00:50.508977
231,0.0522,1.0067,0.1249,7.280,-20.930,5.950,396,405,381,385,390,2025-05-23T22:00:50.657150
232,0.0454,1.0058,0.1425,9.450,-20.230,4.480,402,409,366,405,378,2025-05-23T22:00:50.657195
233,0.0376,0.9989,0.1523,8.190,-20.580,3.920,389,421,377,409,400,2025-05-23T22:00:50.657207
234,0.0361,1.0014,0.1610,6.650,-20.370,2.590,343,415,377,415,388,2025-05-23T22:00:50.657218
235,0.0483,1.0033,0.1703,5.390,-17.430,1.750,407,422,372,410,405,2025-05-23T22:00:50.657227
236,0.0400,1.0106,0.1889,4.760,-10.290,1.680,388,365,372,411,391,2025-05-23T22:00:50.657238
237,0.0220,1.0282,0.2181,4.830,0.280,2.660,394,420,372,355,399,2025-05-23T22:00:50.657247
238,-0.0083,1.0272,0.2425,3.500,5.880,4.410,417,414,382,377,405,2025-05-23T22:00:50.657256
239,-0.0283,1.0385,0.2586,3.640,1.890,6.580,345,348,378,395,410,2025-05-23T22:00:50.657265
240,-0.0190,1.0497,0.2650,2.450,-10.080,7.000,401,402,349,403,393,2025-05-23T22:00:50.657274
241,-0.0039,1.0433,0.2591,1.680,-17.290,6.860,423,399,361,341,388,2025-05-23T22:00:50.657284
242,0.0073,1.0321,0.2630,1.610,-20.860,6.720,414,421,363,388,406,2025-05-23T22:00:50.657293
243,0.0327,1.0350,0.2591,2.800,-17.220,5.460,418,432,379,389,348,2025-05-23T22:00:50.657315
244,0.0171,1.0409,0.2655,2.590,-9.940,3.500,361,395,374,406,295,2025-05-23T22:00:50.707842
245,-0.0034,1.0414,0.2728,0.280,-6.160,2.380,411,428,369,405,312,2025-05-23T22:00:50.707886
246,-0.0146,1.0370,0.2601,-3.850,-7.910,3.430,377,343,375,399,352,2025-05-23T22:00:50.707898
247,-0.0356,1.0170,0.2645,-6.300,-10.570,4.690,295,396,339,412,330,2025-05-23T22:00:50.707907
248,-0.0459,0.9984,0.2747,-9.660,-13.440,6.790,341,418,368,406,390,2025-05-23T22:00:50.753805
249,-0.0366,0.9814,0.2943,-12.460,-13.580,10.430,393,395,374,406,388,2025-05-23T22:00:50.753858
250,-0.0078,0.9711,0.3109,-16.100,-12.180,13.510,417,397,334,412,407,2025-05-23T22:00:50.753889
251,0.0146,0.9560,0.3270,-16.380,-8.400,15.610,415,402,332,365,392,2025-05-23T22:00:50.753901
252,0.0244,0.9521,0.3387,-14.280,-4.410,17.220,419,395,348,389,400,2025-05-23T22:00:50.804772
253,0.0439,0.9536,0.3460,-11.480,-2.450,17.850,352,420,354,400,392,2025-05-23T22:00:50.804818
254,0.0522,0.9496,0.3421,-10.500,-2.380,17.290,405,421,375,391,387,2025-05-23T22:00:50.804831
255,0.0644,0.9467,0.3377,-10.570,-4.340,16.870,417,424,385,386,387,2025-05-23T22:00:50.804842
256,0.0742,0.9496,0.3353,-10.710,-5.810,16.310,408,425,383,398,350,2025-05-23T22:00:50.918389
257,0.0717,0.9423,0.3318,-10.570,-5.950,15.750,421,415,385,410,350,2025-05-23T22:00:50.918465
258,0.0727,0.9331,0.3279,-11.480,-5.180,14.770,414,421,373,393,327,2025-05-23T22:00:50.918483
259,0.0791,0.9248,0.3187,-11.830,-5.880,13.580,404,423,372,371,366,2025-05-23T22:00:50.918496
260,0.0869,0.9223,0.3118,-10.710,-5.460,12.530,381,416,387,400,393,2025-05-23T22:00:50.918509
261,0.1044,0.9267,0.2850,-10.220,-2.450,11.620,410,404,378,392,408,2025-05-23T22:00:50.918654
262,0.0942,0.9267,0.2728,-6.510,5.810,10.570,419,422,374,407,391,2025-05-23T22:00:50.918669
263,0.0688,0.9340,0.2752,-2.030,11.760,9.380,423,397,385,388,306,2025-05-23T22:00:50.918814
264,0.0639,0.9379,0.2630,-1.540,11.130,9.100,379,388,356,401,350,2025-05-23T22:00:50.919006
265,0.0517,0.9282,0.2552,-4.760,7.770,9.520,380,395,368,367,376,2025-05-23T22:00:50.919030
266,0.0459,0.9277,0.2557,-6.230,3.010,8.960,383,406,339,392,394,2025-05-23T22:00:51.153382
267,0.0551,0.9345,0.2601,-5.600,2.380,8.820,388,374,370,410,389,2025-05-23T22:00:51.153433
268,0.0610,0.9394,0.2572,-5.810,3.640,8.400,403,409,377,389,399,2025-05-23T22:00:51.153446
269,0.0693,0.9531,0.2460,-6.230,6.370,7.840,396,362,380,413,394,2025-05-23T22:00:51.153457
270,0.0727,0.9745,0.2464,-5.250,8.120,7.560,399,385,374,410,416,2025-05-23T22:00:51.153467
271,0.0878,0.9965,0.2396,-5.180,11.060,7.910,422,406,384,415,409,2025-05-23T22:00:51.153479
272,0.0917,1.0106,0.2328,-6.440,15.890,8.260,413,415,374,408,391,2025-05-23T22:00:51.153490
273,0.0854,1.0243,0.2396,-6.160,19.880,8.470,416,416,367,398,402,2025-05-23T22:00:51.153500
274,0.0756,1.0355,0.2479,-5.390,19.600,8.610,403,418,368,396,408,2025-05-23T22:00:51.153509
275,0.0815,1.0551,0.2508,-3.710,15.190,7.140,386,358,376,391,399,2025-05-23T22:00:51.153519
276,0.0976,1.0760,0.2391,-4.550,8.960,7.000,422,395,387,344,363,2025-05-23T22:00:51.153528
277,0.1049,1.0780,0.2137,-5.040,8.260,8.400,401,337,390,383,334,2025-05-23T22:00:51.153537
278,0.1142,1.0712,0.1928,-3.710,13.790,10.710,383,331,391,398,371,2025-05-23T22:00:51.153550
279,0.1127,1.0487,0.1732,-3.080,21.770,12.600,398,391,382,411,379,2025-05-23T22:00:51.153560
280,0.0893,1.0370,0.1371,-4.130,26.040,14.560,410,413,377,399,396,2025-05-23T22:00:51.153569
281,0.0781,1.0516,0.1010,-7.700,25.550,35.560,395,405,364,421,383,2025-05-23T22:00:51.153616
282,0.0815,1.0526,0.0664,-9.310,20.860,20.300,411,404,384,399,389,2025-05-23T22:00:51.153627
283,0.1005,1.0453,0.0464,-10.500,15.610,21.070,397,416,387,391,397,2025-05-23T22:00:51.153635
284,0.1254,1.0282,0.0283,-11.200,12.880,19.530,406,404,345,399,400,2025-05-23T22:00:51.153645
285,0.1186,1.0004,0.0229,-11.410,12.110,17.360,426,417,347,404,416,2025-05-23T22:00:51.215036
286,0.1196,0.9706,0.0205,-10.990,11.620,15.260,421,343,324,399,357,2025-05-23T22:00:51.215118
287,0.1293,0.9570,0.0288,-10.360,10.010,13.860,342,348,361,389,390,2025-05-23T22:00:51.215131
288,0.1230,0.9453,0.0351,-9.590,8.680,12.250,402,352,334,414,311,2025-05-23T22:00:51.215142
289,0.1181,0.9384,0.0425,-7.840,10.080,10.360,392,382,327,400,318,2025-05-23T22:00:51.215152
290,0.1259,0.9457,0.0400,-5.740,11.830,8.890,422,402,326,391,355,2025-05-23T22:00:51.261610
291,0.1274,0.9589,0.0366,-3.360,13.370,7.490,413,407,350,364,393,2025-05-23T22:00:51.261653
292,0.1283,0.9643,0.0395,-2.450,11.620,5.740,415,415,367,386,402,2025-05-23T22:00:51.261665
293,0.1474,0.9565,0.0376,-1.260,9.170,2.660,402,430,383,384,401,2025-05-23T22:00:51.261675
294,0.1479,0.9414,0.0395,0.210,9.030,-0.980,396,408,339,378,409,2025-05-23T22:00:51.310270
295,0.1342,0.9365,0.0439,1.750,10.500,-3.290,393,403,359,394,374,2025-05-23T22:00:51.310322
296,0.1127,0.9321,0.0522,3.360,11.620,-5.670,420,423,358,408,355,2025-05-23T22:00:51.310336
297,0.0639,0.9370,0.0551,3.780,8.750,-7.490,412,412,336,421,397,2025-05-23T22:00:51.310348
298,0.0420,0.9643,0.0625,4.550,3.710,-7.420,344,354,352,406,391,2025-05-23T22:00:51.358265
299,0.0303,0.9828,0.0595,4.060,0.420,-6.580,376,384,331,391,402,2025-05-23T22:00:51.358318
300,0.0244,0.9838,0.0547,3.150,0.420,-4.970,405,409,314,359,402,2025-05-23T22:00:51.358331
301,0.0244,0.9804,0.0537,2.240,1.540,-3.150,421,406,310,385,388,2025-05-23T22:00:51.358342
302,0.0264,0.9775,0.0595,3.010,0.630,-0.700,402,397,354,407,402,2025-05-23T22:00:51.411390
303,0.0400,0.9809,0.0756,-17.290,-3.500,1.400,425,401,354,410,396,2025-05-23T22:00:51.411433
304,0.0610,0.9750,0.0844,-2.100,-6.510,2.660,420,368,373,416,407,2025-05-23T22:00:51.411445
305,0.0820,0.9706,0.0849,-3.010,-7.630,3.360,416,399,366,419,389,2025-05-23T22:00:51.411454
306,0.1010,0.9633,0.0854,-0.140,-7.210,3.640,410,346,339,405,394,2025-05-23T22:00:51.411464
307,0.1083,0.9740,0.0825,2.800,-7.070,3.990,420,422,332,396,384,2025-05-23T22:00:51.535358
308,0.1215,0.9936,0.0727,3.920,-7.350,4.270,398,404,348,371,406,2025-05-23T22:00:51.535405
309,0.1366,1.0004,0.0698,4.270,-8.120,3.990,421,402,365,382,405,2025-05-23T22:00:51.535417
310,0.1396,0.9897,0.0590,3.570,-8.750,2.800,430,428,336,387,406,2025-05-23T22:00:51.535428
311,0.1386,0.9853,0.0644,4.060,-8.750,1.400,384,397,347,380,373,2025-05-23T22:00:51.535437
312,0.1484,0.9823,0.0576,2.100,-9.940,0.280,412,402,371,394,401,2025-05-23T22:00:51.535446
313,0.1430,0.9848,0.0630,2.030,-10.780,-0.980,416,429,340,405,408,2025-05-23T22:00:51.535456
314,0.1279,0.9999,0.0747,3.290,-11.340,-3.500,382,436,366,415,394,2025-05-23T22:00:51.535469
315,0.1308,1.0106,0.0766,6.650,-9.520,-4.270,399,410,343,416,403,2025-05-23T22:00:51.535479
316,0.1210,1.0146,0.0839,7.420,-4.410,-3.990,387,424,368,356,366,2025-05-23T22:00:51.535489
317,0.0883,1.0063,0.0927,8.330,1.610,-3.360,385,426,371,384,387,2025-05-23T22:00:51.742927
318,0.0625,1.0150,0.1152,9.520,1.960,-2.240,415,352,374,405,389,2025-05-23T22:00:51.742975
319,0.0659,1.0228,0.1220,6.020,-2.450,-0.140,414,401,341,393,391,2025-05-23T22:00:51.742987
320,0.0703,1.0131,0.1264,1.820,-8.190,0.700,347,392,332,398,401,2025-05-23T22:00:51.742997
321,0.0766,1.0077,0.1401,0.700,-10.920,2.450,389,410,357,417,398,2025-05-23T22:00:51.743009
322,0.0917,0.9984,0.1523,2.450,-10.780,3.990,408,355,358,378,406,2025-05-23T22:00:51.743019
323,0.1044,0.9965,0.1649,3.710,-9.100,4.970,414,384,374,363,352,2025-05-23T22:00:51.743028
324,0.1147,1.0048,0.1688,4.200,-7.980,5.530,380,371,374,351,391,2025-05-23T22:00:51.743038
325,0.1200,1.0102,0.1757,4.410,-6.720,5.810,399,405,385,374,353,2025-05-23T22:00:51.743047
326,0.1215,1.0165,0.1801,4.900,-6.300,5.880,416,406,344,395,378,2025-05-23T22:00:51.743056
327,0.1322,1.0263,0.1732,5.110,-6.580,5.040,407,426,355,401,377,2025-05-23T22:00:51.743065
328,0.1440,1.0263,0.1684,4.270,-6.930,3.570,417,407,353,383,396,2025-05-23T22:00:51.743075
329,0.1342,1.0180,0.1771,4.900,-7.000,2.660,418,410,364,401,412,2025-05-23T22:00:51.743084
330,0.1200,1.0116,0.1864,5.250,-6.510,2.030,398,408,369,411,410,2025-05-23T22:00:51.743096
331,0.1181,1.0028,0.1957,3.500,-6.720,2.520,401,410,352,313,385,2025-05-23T22:00:51.743104
332,0.1283,0.9970,0.2011,1.120,-6.580,3.360,401,394,374,380,309,2025-05-23T22:00:51.743146
333,0.1298,0.9853,0.2035,-0.490,-5.180,4.200,388,373,381,372,375,2025-05-23T22:00:51.743155
334,0.1200,0.9926,0.2108,1.050,-2.450,4.830,391,384,385,383,395,2025-05-23T22:00:51.743164
335,0.1176,0.9897,0.2167,1.330,-2.240,5.320,394,347,371,391,395,2025-05-23T22:00:51.946855
336,0.1181,0.9799,0.2098,-1.260,-5.530,5.460,400,348,366,412,359,2025-05-23T22:00:51.946905
337,0.1220,0.9755,0.2045,-2.520,-8.540,5.600,408,395,377,398,392,2025-05-23T22:00:51.946918
338,0.1230,0.9736,0.2011,-2.940,-8.400,5.810,413,421,379,409,393,2025-05-23T22:00:51.946930
339,0.1220,0.9716,0.2011,-3.570,-6.720,5.250,397,427,383,387,381,2025-05-23T22:00:51.946940
340,0.1264,0.9697,0.2084,-4.690,-6.650,4.900,388,416,384,348,395,2025-05-23T22:00:51.946956
341,0.1352,0.9672,0.2137,-5.740,-8.750,4.130,416,413,385,396,397,2025-05-23T22:00:51.946965
342,0.1396,0.9697,0.2157,-5.110,-8.890,3.360,408,423,383,405,393,2025-05-23T22:00:51.946976
343,0.1444,0.9667,0.2186,-3.990,-6.860,3.220,418,428,388,395,394,2025-05-23T22:00:51.946986
344,0.1449,0.9584,0.2206,-3.360,-4.900,3.080,363,411,340,306,386,2025-05-23T22:00:51.946996
345,0.1469,0.9545,0.2235,-3.920,-4.620,3.010,335,408,368,375,392,2025-05-23T22:00:51.947005
346,0.1410,0.9501,0.2245,-5.040,-6.860,3.150,372,416,334,409,385,2025-05-23T22:00:51.947014
347,0.1401,0.9565,0.2230,-4.760,-9.450,3.220,388,423,364,413,345,2025-05-23T22:00:51.947023
348,0.1532,0.9643,0.2225,-4.550,-10.780,2.940,393,433,376,418,378,2025-05-23T22:00:51.947032
349,0.1620,0.9672,0.2181,-4.270,-10.290,3.220,389,404,385,423,404,2025-05-23T22:00:51.947043
350,0.1771,0.9662,0.2172,-3.850,-6.860,3.220,376,406,386,404,403,2025-05-23T22:00:51.947090
351,0.1757,0.9599,0.2230,-2.870,-1.750,2.940,404,375,372,353,404,2025-05-23T22:00:52.153824
352,0.1889,0.9550,0.2338,-1.330,3.920,1.680,419,412,339,369,394,2025-05-23T22:00:52.154099
353,0.1801,0.9560,0.2420,-1.540,11.270,1.120,396,351,320,385,385,2025-05-23T22:00:52.154115
354,0.1498,0.9682,0.2499,1.960,18.340,1.330,413,385,341,386,396,2025-05-23T22:00:52.154126
355,0.1366,0.9911,0.2582,4.060,22.470,2.870,352,393,361,388,368,2025-05-23T22:00:52.154137
356,0.1186,0.9926,0.2450,2.800,17.290,5.250,405,417,363,402,346,2025-05-23T22:00:52.154452
357,0.0976,0.9599,0.2401,0.910,5.460,5.740,407,399,371,388,367,2025-05-23T22:00:52.154484
358,0.0673,0.9521,0.2259,3.290,-5.530,4.620,406,404,380,366,385,2025-05-23T22:00:52.154497
359,0.0869,0.9858,0.2216,5.040,-16.730,4.760,400,362,386,385,389,2025-05-23T22:00:52.154509
360,0.1435,1.0004,0.1952,2.520,-21.070,6.370,412,376,379,390,395,2025-05-23T22:00:52.154520
361,0.2045,1.0111,0.1884,-1.330,-13.020,7.840,411,420,387,404,359,2025-05-23T22:00:52.154531
362,0.2308,1.0146,0.1845,-3.080,0.840,8.330,419,395,376,411,381,2025-05-23T22:00:52.154541
363,0.2704,1.0146,0.2001,-4.060,9.170,7.910,389,336,374,420,403,2025-05-23T22:00:52.154551
364,0.3235,1.0233,0.1820,-6.370,9.450,6.090,394,382,386,416,414,2025-05-23T22:00:52.154562
365,0.3689,1.0477,0.2020,-9.450,2.450,1.750,403,336,353,406,416,2025-05-23T22:00:52.154571
366,0.3855,1.0580,0.2025,-14.980,-13.230,-1.890,419,388,375,400,359,2025-05-23T22:00:52.154647
367,0.4016,1.0541,0.2464,-16.730,-37.520,-11.060,427,398,381,395,389,2025-05-23T22:00:52.154658
368,0.5466,1.0468,0.2747,-21.490,-73.430,-23.870,412,353,370,415,384,2025-05-23T22:00:52.154669
369,0.7061,1.0926,0.2713,-26.530,-99.750,-39.830,416,365,382,399,402,2025-05-23T22:00:52.356266
370,0.9984,1.1629,0.2645,-38.010,-123.270,-63.000,433,401,386,395,387,2025-05-23T22:00:52.356329
371,1.0121,1.3605,0.4660,-39.130,-122.220,-81.970,427,418,389,395,340,2025-05-23T22:00:52.356345
372,1.3552,1.4684,0.6554,-49.770,-154.210,-101.080,420,387,367,392,347,2025-05-23T22:00:52.356359
373,1.6392,1.6460,0.7003,-71.890,-227.430,-114.380,395,416,383,402,386,2025-05-23T22:00:52.356372
374,2.2453,2.3570,0.5470,-105.350,-338.380,-113.750,421,415,381,418,390,2025-05-23T22:00:52.356391
375,2.8270,2.6118,-0.1401,-148.120,-438.970,-106.470,417,420,374,401,390,2025-05-23T22:00:52.356404
376,3.2218,2.6567,-1.0492,-173.250,-434.630,-111.510,425,402,381,401,396,2025-05-23T22:00:52.356417
377,3.1515,2.7118,-1.4181,-191.940,-395.010,-98.490,307,377,380,387,410,2025-05-23T22:00:52.356431
378,2.8904,2.5849,-1.5460,-256.130,-346.640,-61.180,323,335,341,395,388,2025-05-23T22:00:52.356446
379,2.3156,2.1355,-1.5748,-394.310,-348.530,-53.060,339,405,359,413,409,2025-05-23T22:00:52.356458
380,2.9226,1.3483,-1.9442,-606.830,-470.680,-115.990,402,362,379,355,408,2025-05-23T22:00:52.356469
381,3.2462,-0.1498,-1.7431,-842.520,-639.450,-188.300,395,398,387,380,370,2025-05-23T22:00:52.356480
382,3.1149,-1.4489,-0.8940,-789.320,-451.990,-260.330,404,348,388,403,389,2025-05-23T22:00:52.356491
383,1.6104,-2.2443,-0.0839,-798.770,-212.520,-296.800,389,375,383,397,385,2025-05-23T22:00:52.356539
384,0.0429,-2.9836,0.5275,-679.140,-222.530,-381.990,391,407,367,406,398,2025-05-23T22:00:52.356551
385,0.1547,-3.4707,0.6832,-677.600,-145.600,-530.110,398,399,367,394,394,2025-05-23T22:00:52.586980
386,0.0020,-4.8820,1.0848,-716.030,-292.250,-594.370,417,417,370,399,387,2025-05-23T22:00:52.587031
387,-0.7354,-6.3811,1.4157,-898.800,-501.690,-602.630,343,423,374,411,386,2025-05-23T22:00:52.587044
388,-1.0751,-7.2790,2.8582,-662.970,-497.490,-585.620,332,406,384,396,394,2025-05-23T22:00:52.587056
389,0.5773,-6.4392,2.5752,-415.100,-372.890,-500.990,382,406,389,390,405,2025-05-23T22:00:52.587068
390,0.6237,-4.1192,0.9877,-74.130,251.090,-347.130,397,410,380,411,402,2025-05-23T22:00:52.587079
391,-2.3907,-1.2171,-0.3318,109.620,771.120,-29.960,301,418,386,415,392,2025-05-23T22:00:52.587090
392,-3.6463,-0.4070,0.1020,180.250,869.610,294.350,381,407,380,416,406,2025-05-23T22:00:52.587100
393,-2.5557,-1.3147,1.5123,309.470,583.940,397.110,417,415,374,408,402,2025-05-23T22:00:52.587111
394,-2.5996,-2.7269,1.2571,1231.510,700.980,443.730,425,425,376,407,404,2025-05-23T22:00:52.587121
395,-0.2079,-1.4235,1.2015,167.300,255.570,360.150,407,426,351,406,391,2025-05-23T22:00:52.587131
396,0.4104,-2.2731,1.0277,-162.260,-356.580,434.910,388,405,355,404,368,2025-05-23T22:00:52.587141
397,0.9975,-1.9676,0.9404,80.150,-522.970,353.920,298,423,356,342,338,2025-05-23T22:00:52.587151
398,0.3714,-1.6138,0.7662,447.090,227.150,282.310,394,430,358,392,385,2025-05-23T22:00:52.587160
399,-0.1640,-1.0160,0.8852,369.530,470.610,298.060,379,405,374,412,401,2025-05-23T22:00:52.587208
400,-0.6388,-0.5924,0.8311,294.630,541.870,320.040,410,436,337,413,407,2025-05-23T22:00:52.587219
401,-0.7993,-0.3797,0.8501,352.940,654.500,345.800,395,401,358,382,391,2025-05-23T22:00:52.605975
402,-0.9506,0.1274,1.0316,542.430,813.400,317.800,390,383,372,344,359,2025-05-23T22:00:52.606014
403,-0.1391,-0.0151,1.0097,248.010,658.980,300.160,338,406,382,335,378,2025-05-23T22:00:52.606028
404,0.0839,0.3030,0.5880,-68.040,242.340,288.400,405,400,352,393,384,2025-05-23T22:00:52.640185
405,0.2596,0.8096,0.6412,-3.570,4.970,365.680,416,299,363,344,397,2025-05-23T22:00:52.640229
406,0.9199,0.6285,-0.1742,193.410,-15.120,262.570,340,374,328,397,403,2025-05-23T22:00:52.640243
407,0.7974,0.9672,0.0639,269.080,311.430,258.580,388,395,362,395,349,2025-05-23T22:00:52.640254
408,0.2328,0.9170,0.4885,211.260,376.040,268.800,389,398,330,410,296,2025-05-23T22:00:52.640264
409,0.2396,1.1151,0.5295,246.540,415.940,291.550,393,427,343,390,373,2025-05-23T22:00:52.688676
410,0.6183,1.1673,0.6905,221.620,414.960,278.180,342,422,361,413,336,2025-05-23T22:00:52.688723
411,1.2703,1.2761,0.4914,135.590,209.020,254.030,359,420,365,390,338,2025-05-23T22:00:52.688736
412,1.5684,1.3508,0.2089,-18.340,32.550,245.490,399,411,376,410,373,2025-05-23T22:00:52.688746
413,1.1122,1.3503,0.4348,85.120,157.430,207.550,397,393,382,400,337,2025-05-23T22:00:52.736915
414,0.8374,1.2522,1.1014,117.530,185.640,203.840,393,419,382,412,335,2025-05-23T22:00:52.736962
415,0.9335,1.2732,1.2786,73.850,114.520,210.000,391,392,375,392,325,2025-05-23T22:00:52.736974
416,1.4845,1.2078,1.1214,48.160,64.190,195.580,401,412,341,395,376,2025-05-23T22:00:52.736984
417,2.0081,1.1341,0.9536,-16.590,-45.920,141.260,303,405,357,393,375,2025-05-23T22:00:52.971104
418,2.2038,1.0365,0.4836,7.910,-3.990,87.150,373,397,356,391,396,2025-05-23T22:00:52.971156
419,1.5904,1.0902,0.7662,69.510,121.660,64.120,353,413,362,397,384,2025-05-23T22:00:52.971170
420,0.8760,1.1190,0.9706,73.780,131.600,45.220,412,426,367,343,394,2025-05-23T22:00:52.971182
421,0.6588,1.0502,0.8355,83.020,139.860,49.490,402,425,373,394,406,2025-05-23T22:00:52.971193
422,0.6622,1.0712,0.6446,80.150,110.040,30.660,364,408,372,345,402,2025-05-23T22:00:52.971204
423,0.7818,0.9877,0.2948,-17.430,-69.090,2.660,413,425,369,368,355,2025-05-23T22:00:52.971214
424,0.6690,0.9409,0.1254,-35.280,-124.390,-28.350,421,425,379,395,381,2025-05-23T22:00:52.971225
425,0.3357,1.0024,0.0381,-16.240,-50.540,-39.550,400,350,349,379,341,2025-05-23T22:00:52.971236
426,0.0956,1.0102,0.0459,-6.580,34.160,-29.190,413,389,376,381,372,2025-05-23T22:00:52.971246
427,-0.0888,0.9814,0.0571,-5.880,72.800,-13.860,361,391,380,411,385,2025-05-23T22:00:52.971255
428,-0.1581,0.9453,0.2113,-3.220,74.410,-4.270,384,347,373,393,387,2025-05-23T22:00:52.971265
429,-0.0244,0.9360,0.3475,-22.470,2.030,-5.530,407,383,374,411,392,2025-05-23T22:00:52.971278
430,0.0044,0.9428,0.3675,-26.880,-45.080,-3.710,417,406,387,422,412,2025-05-23T22:00:52.971287
431,0.0956,1.0043,0.3753,-17.360,-34.370,1.540,424,425,372,409,402,2025-05-23T22:00:52.971329
432,0.1810,1.0106,0.3338,-4.410,-1.890,9.870,400,369,379,401,409,2025-05-23T22:00:52.971343
433,0.2489,0.9911,0.3045,6.580,21.770,12.600,418,347,384,415,391,2025-05-23T22:00:52.971353
434,0.2606,0.9711,0.2908,9.730,21.980,12.390,342,396,384,425,396,2025-05-23T22:00:52.971363
435,0.2757,0.9653,0.2713,0.280,-7.560,6.370,397,416,347,411,406,2025-05-23T22:00:52.971373
436,0.2635,0.9540,0.2230,-8.330,-21.700,4.620,420,397,368,356,353,2025-05-23T22:00:53.174322
437,0.2450,0.9433,0.2191,-10.430,-13.860,4.550,402,413,378,399,372,2025-05-23T22:00:53.174496
438,0.2557,0.9213,0.2411,-5.950,4.200,4.760,397,399,363,390,388,2025-05-23T22:00:53.174511
439,0.1835,0.9111,0.2777,-1.260,20.160,4.200,404,363,369,397,379,2025-05-23T22:00:53.174522
440,0.1381,0.9184,0.2879,-1.190,19.810,6.860,415,389,375,385,376,2025-05-23T22:00:53.174533
441,0.1347,0.9150,0.2821,-3.360,4.690,6.650,420,345,371,407,388,2025-05-23T22:00:53.174543
442,0.1923,0.9414,0.2386,-6.720,-9.590,4.760,381,408,378,421,399,2025-05-23T22:00:53.174554
443,0.2176,0.9521,0.2621,-6.580,-9.520,2.520,396,372,348,368,392,2025-05-23T22:00:53.174576
444,0.1820,0.9575,0.2738,-12.110,-6.230,2.380,417,414,375,393,409,2025-05-23T22:00:53.174586
445,0.1859,0.9252,0.3021,-14.070,-3.430,3.220,417,431,383,404,371,2025-05-23T22:00:53.174596
446,0.2582,0.8999,0.3133,-16.240,-7.420,1.120,400,401,373,385,336,2025-05-23T22:00:53.174605
447,0.2445,0.9189,0.3143,-16.730,-8.400,-2.240,392,396,334,408,342,2025-05-23T22:00:53.174615
448,0.1976,0.9082,0.2996,-14.910,-6.440,-3.010,411,407,353,407,367,2025-05-23T22:00:53.174624
449,0.2118,0.9428,0.3279,-9.100,-2.520,-4.830,399,426,363,409,385,2025-05-23T22:00:53.174633
450,0.2435,0.9736,0.3504,-11.200,-3.990,-7.000,398,412,341,403,401,2025-05-23T22:00:53.174642
451,0.1757,0.9604,0.3187,-13.650,-2.170,-7.840,409,419,349,353,344,2025-05-23T22:00:53.174689
452,0.1518,0.9384,0.2689,-13.510,0.210,-5.530,421,411,371,372,337,2025-05-23T22:00:53.174699
453,0.1625,0.8930,0.1918,-16.520,-9.100,-0.420,402,409,377,403,373,2025-05-23T22:00:53.375420
454,0.1923,0.9340,0.2352,-6.650,-13.160,-3.640,419,409,382,418,394,2025-05-23T22:00:53.375472
455,0.2679,0.9658,0.2884,-9.100,-21.910,-5.740,429,402,382,375,390,2025-05-23T22:00:53.375486
456,0.2430,0.9701,0.2860,-11.480,-19.390,-5.180,407,426,389,402,393,2025-05-23T22:00:53.375497
457,0.1835,0.9775,0.3274,-1.610,-1.750,-4.690,402,410,350,390,392,2025-05-23T22:00:53.375508
458,0.1981,0.9775,0.3187,0.000,0.420,-2.940,342,350,333,407,387,2025-05-23T22:00:53.375518
459,0.1942,0.9614,0.2962,0.840,-3.150,-1.890,399,408,367,391,390,2025-05-23T22:00:53.375529
460,0.1479,0.9614,0.2894,0.630,-12.600,-2.520,418,427,379,381,397,2025-05-23T22:00:53.375539
461,0.1386,0.9584,0.2967,2.590,-17.290,-1.680,391,415,384,398,395,2025-05-23T22:00:53.375549
462,0.2103,0.9677,0.2826,1.050,-9.870,-0.210,410,416,346,400,409,2025-05-23T22:00:53.375559
463,0.2181,0.9701,0.2650,-2.870,4.970,1.050,394,415,353,388,403,2025-05-23T22:00:53.375580
464,0.1786,0.9614,0.2757,5.390,20.650,3.220,392,411,372,347,402,2025-05-23T22:00:53.375778
465,0.1484,0.9731,0.2845,3.780,24.010,5.530,416,378,378,386,413,2025-05-23T22:00:53.375790
466,0.1088,0.9287,0.2987,1.820,12.040,6.580,389,382,384,393,410,2025-05-23T22:00:53.375801
467,0.1171,0.8979,0.3235,0.210,-11.410,5.950,413,409,386,349,403,2025-05-23T22:00:53.375811
468,0.2094,0.8969,0.3128,2.870,-19.530,4.340,394,423,342,339,386,2025-05-23T22:00:53.375859
469,0.2713,0.9204,0.3006,4.060,-16.030,0.770,415,404,327,379,405,2025-05-23T22:00:53.375869
470,0.2518,0.9340,0.2547,3.220,0.280,-0.840,345,393,360,355,409,2025-05-23T22:00:53.581687
471,0.2084,0.9335,0.2464,3.220,13.580,-0.770,397,403,362,387,394,2025-05-23T22:00:53.581725
472,0.1508,0.9238,0.2386,-1.820,11.060,1.540,356,379,371,390,386,2025-05-23T22:00:53.581735
473,0.1430,0.9209,0.2611,-4.480,-7.630,1.050,363,415,380,409,390,2025-05-23T22:00:53.581743
474,0.1669,0.9350,0.2796,-7.700,-20.720,-0.280,384,353,383,390,386,2025-05-23T22:00:53.581751
475,0.1820,0.9599,0.2704,-8.540,-25.690,-0.490,392,413,369,406,405,2025-05-23T22:00:53.581759
476,0.2455,0.9740,0.2874,-9.520,-18.060,-0.840,391,392,337,419,402,2025-05-23T22:00:53.581768
477,0.2518,0.9589,0.3001,-9.590,-4.830,-2.380,389,382,364,374,401,2025-05-23T22:00:53.581775
478,0.1986,0.9545,0.3294,-4.760,1.890,-1.960,421,389,365,398,410,2025-05-23T22:00:53.581786
479,0.1796,0.9697,0.3772,-4.970,-2.380,-1.540,348,363,375,409,396,2025-05-23T22:00:53.581794
480,0.1850,0.9623,0.3997,-6.090,-11.830,-1.890,393,411,367,403,350,2025-05-23T22:00:53.581801
481,0.2133,0.9614,0.4046,-8.680,-26.110,-3.220,421,398,365,408,387,2025-05-23T22:00:53.581808
482,0.2381,0.9697,0.4158,-8.890,-36.260,-6.230,407,341,380,418,395,2025-05-23T22:00:53.581815
483,0.2416,0.9672,0.4124,-10.430,-50.470,-8.890,396,395,382,400,397,2025-05-23T22:00:53.581822
484,0.2523,0.9814,0.4338,-14.560,-76.440,-13.720,412,380,389,397,387,2025-05-23T22:00:53.581830
485,0.3396,0.9731,0.4211,-28.210,-108.570,-22.050,400,404,395,406,392,2025-05-23T22:00:53.581863
486,0.4324,0.9941,0.4265,-50.470,-154.630,-32.970,347,420,355,393,399,2025-05-23T22:00:53.581871
487,0.6808,1.0248,0.4963,-85.890,-203.560,-41.160,409,412,362,400,397,2025-05-23T22:00:53.789271
488,0.9828,1.0258,0.5988,-138.880,-248.430,-55.020,393,416,375,400,393,2025-05-23T22:00:53.789318
489,1.0575,1.0175,0.6647,-195.230,-287.140,-73.990,416,422,383,388,395,2025-05-23T22:00:53.789331
490,1.3991,1.0814,0.5568,-246.400,-333.130,-103.740,415,405,377,385,379,2025-05-23T22:00:53.789344
491,1.6846,1.2220,0.4192,-286.300,-371.560,-123.620,387,390,372,388,383,2025-05-23T22:00:53.789354
492,2.0623,1.4006,0.2503,-332.990,-396.830,-128.380,393,415,377,399,399,2025-05-23T22:00:53.789364
493,2.3566,1.5489,0.0737,-359.660,-388.500,-125.510,389,409,376,372,402,2025-05-23T22:00:53.789374
494,2.5386,1.6050,-0.0527,-380.730,-373.240,-132.440,396,405,373,401,395,2025-05-23T22:00:53.789389
495,2.7543,1.7309,-0.1518,-384.510,-366.380,-142.100,400,393,366,410,411,2025-05-23T22:00:53.789399
496,2.7772,1.8237,-0.2596,-408.870,-355.530,-155.890,427,389,376,396,396,2025-05-23T22:00:53.789408
497,2.7343,1.7856,-0.4699,-437.430,-329.210,-175.070,403,393,370,415,385,2025-05-23T22:00:53.789416
498,2.6074,1.6197,-0.7505,-456.680,-284.340,-201.460,396,397,372,398,388,2025-05-23T22:00:53.789426
499,2.3790,1.2161,-0.9091,-463.330,-250.110,-223.510,399,414,384,351,397,2025-05-23T22:00:53.789435
500,1.9466,0.7930,-0.8877,-466.060,-259.980,-250.320,342,420,386,397,347,2025-05-23T22:00:53.789476
501,1.4503,0.2074,-0.8320,-480.970,-320.880,-264.740,368,429,387,401,361,2025-05-23T22:00:53.789485
502,1.3278,-0.6471,-0.8818,-526.750,-392.140,-283.010,401,427,380,403,387,2025-05-23T22:00:53.789495
503,1.7339,-1.8393,-0.8769,-545.160,-389.690,-309.400,388,425,377,387,381,2025-05-23T22:00:53.789506
504,1.6075,-3.1535,-0.4626,-666.050,-223.580,-381.500,412,429,390,402,398,2025-05-23T22:00:53.839782
505,0.9384,-4.8088,0.0571,-681.450,-26.110,-461.930,421,404,350,388,370,2025-05-23T22:00:53.839826
506,-0.8481,-6.8862,0.3445,-757.540,76.580,-574.210,348,417,371,406,384,2025-05-23T22:00:53.839839
507,-1.7544,-8.2389,1.5631,-735.000,63.910,-675.150,368,376,377,417,399,2025-05-23T22:00:53.839849
508,-1.9339,-5.9521,2.6103,-654.990,-82.600,-563.360,397,387,368,377,401,2025-05-23T22:00:53.839858
509,-1.9652,-3.5048,3.2974,-415.450,-15.820,-335.930,406,343,376,404,409,2025-05-23T22:00:53.889199
510,-1.5206,-1.9837,2.0808,-137.620,271.810,-1.610,404,361,387,345,405,2025-05-23T22:00:53.889246
511,-0.8335,-1.9305,1.1863,198.590,437.290,296.660,410,413,371,375,392,2025-05-23T22:00:53.889258
512,-0.2806,-2.4517,1.4669,306.180,426.370,440.580,411,390,347,396,405,2025-05-23T22:00:53.889268
513,-1.4211,-3.3194,1.5250,414.610,218.540,387.170,426,420,337,385,392,2025-05-23T22:00:53.989338
514,-1.2137,-3.0607,0.7130,561.120,-89.950,331.100,424,427,363,395,380,2025-05-23T22:00:53.989385
515,0.7745,-2.3307,0.7701,658.350,-243.040,384.510,430,431,376,414,348,2025-05-23T22:00:53.989396
516,1.3503,-2.2609,0.1781,436.940,-50.120,285.740,420,354,375,407,364,2025-05-23T22:00:53.989406
517,0.6861,-1.5352,0.6242,439.880,384.440,258.300,426,409,382,405,390,2025-05-23T22:00:53.989415
518,-0.0317,-1.1302,0.8813,398.580,548.520,285.600,374,415,370,416,414,2025-05-23T22:00:53.989425
519,-0.2362,-0.8018,1.0185,362.460,605.640,324.520,424,355,368,399,389,2025-05-23T22:00:53.989435
520,-0.4431,-0.4143,0.9311,375.830,626.010,338.940,407,380,384,347,389,2025-05-23T22:00:53.989444
521,-0.4270,0.0322,0.7442,317.590,511.700,332.290,420,361,367,393,406,2025-05-23T22:00:54.195520
522,-0.2059,0.3465,0.4592,242.760,368.200,297.570,408,390,382,400,370,2025-05-23T22:00:54.195804
523,0.0376,0.5685,0.3655,180.950,300.860,292.040,406,400,381,400,380,2025-05-23T22:00:54.195821
524,0.6515,0.6837,0.3348,258.160,214.270,314.580,418,385,373,412,385,2025-05-23T22:00:54.195835
525,0.9482,0.8525,0.3626,276.780,267.120,315.070,417,420,386,415,380,2025-05-23T22:00:54.195847
526,0.8852,0.9238,0.3689,267.260,370.930,309.540,356,372,371,402,396,2025-05-23T22:00:54.195859
527,0.6334,1.0390,0.5622,248.360,390.390,312.900,345,387,377,399,404,2025-05-23T22:00:54.195873
528,0.5148,1.1527,0.4675,255.710,375.620,328.300,408,401,371,400,362,2025-05-23T22:00:54.195885
529,0.6100,1.2044,0.3645,244.370,319.340,298.550,426,426,382,411,381,2025-05-23T22:00:54.195896
530,0.5368,1.1854,0.4704,215.740,220.780,281.190,420,381,338,413,403,2025-05-23T22:00:54.195910
531,0.5880,1.1775,0.6690,165.900,117.110,271.810,413,397,353,406,356,2025-05-23T22:00:54.195921
532,0.5958,1.0663,0.8652,98.910,56.560,269.290,400,355,369,402,342,2025-05-23T22:00:54.195931
533,1.0878,0.8062,0.8989,49.700,20.230,266.350,382,398,335,386,379,2025-05-23T22:00:54.195942
534,1.8305,0.8496,0.8979,41.860,35.630,244.650,411,410,369,390,397,2025-05-23T22:00:54.195952
535,2.4234,0.9165,0.7325,62.580,94.640,210.770,419,398,378,408,408,2025-05-23T22:00:54.195998
536,2.6557,0.9140,0.4763,97.790,172.690,173.180,369,421,377,411,386,2025-05-23T22:00:54.196008
537,2.4981,0.9482,0.8886,119.420,179.130,125.300,364,365,385,347,393,2025-05-23T22:00:54.196019
538,2.1443,0.9018,1.3386,108.990,137.060,93.030,404,371,384,396,402,2025-05-23T22:00:54.246295
539,1.8768,0.7486,1.2322,23.380,-13.300,34.510,395,404,381,401,392,2025-05-23T22:00:54.246352
540,1.4030,0.6027,0.8833,-28.840,-103.880,-23.730,418,422,373,412,413,2025-05-23T22:00:54.246366
541,0.7823,0.6329,0.6002,18.550,-81.900,-53.970,409,428,335,422,360,2025-05-23T22:00:54.246379
542,0.2835,0.8320,0.2704,61.810,2.730,-56.070,406,422,373,413,375,2025-05-23T22:00:54.294879
543,-0.0449,0.9828,0.0590,74.830,99.680,-37.800,420,311,367,422,382,2025-05-23T22:00:54.294907
544,-0.2869,1.0590,-0.1005,47.670,155.680,-13.230,429,388,376,411,387,2025-05-23T22:00:54.294913
545,-0.4499,1.0551,-0.0117,21.350,151.410,-3.500,425,406,373,405,383,2025-05-23T22:00:54.294918
546,-0.4797,1.0443,0.2020,3.220,59.920,7.700,416,393,363,396,392,2025-05-23T22:00:54.341971
547,-0.0927,1.0004,0.2391,-34.650,-44.730,13.790,349,399,371,401,399,2025-05-23T22:00:54.342023
548,0.3231,0.9492,0.3074,-62.160,-92.330,11.550,373,349,374,403,402,2025-05-23T22:00:54.342037
549,0.4455,0.9321,0.2430,-48.090,-32.690,4.060,397,377,371,405,406,2025-05-23T22:00:54.342049
550,0.4817,0.8955,0.2777,-1.400,24.920,3.220,404,405,371,411,393,2025-05-23T22:00:54.387792
551,0.4329,0.9321,0.3353,22.680,56.000,4.340,397,415,366,413,390,2025-05-23T22:00:54.387844
552,0.3611,0.9331,0.4031,29.470,48.020,2.940,417,398,338,412,403,2025-05-23T22:00:54.387858
553,0.2743,0.9374,0.4680,4.550,-22.680,-4.760,396,423,347,416,413,2025-05-23T22:00:54.387869
554,0.3421,0.9360,0.4285,-12.950,-71.960,-9.240,404,366,323,391,414,2025-05-23T22:00:54.439606
555,0.3699,0.9184,0.3396,-17.150,-69.860,-13.650,414,412,343,401,398,2025-05-23T22:00:54.439667
556,0.3655,0.9296,0.2567,-4.410,-33.180,-10.080,392,430,370,416,315,2025-05-23T22:00:54.439683
557,0.3235,0.9248,0.2259,8.470,2.660,-3.990,388,426,388,392,361,2025-05-23T22:00:54.439695
558,0.2694,0.9384,0.2469,16.730,18.340,-3.010,397,429,343,411,374,2025-05-23T22:00:54.627510
559,0.2098,0.9360,0.2801,12.950,4.200,-4.060,390,437,354,418,340,2025-05-23T22:00:54.627575
560,0.1864,0.9179,0.2948,7.070,-16.310,-2.240,369,405,356,355,359,2025-05-23T22:00:54.627593
561,0.2167,0.9267,0.3035,1.330,-26.530,0.840,410,424,373,395,382,2025-05-23T22:00:54.627608
562,0.2479,0.9277,0.2830,-1.400,-25.200,1.400,401,426,341,404,361,2025-05-23T22:00:54.627623
563,0.2616,0.9545,0.2796,-1.260,-23.450,1.120,411,411,361,414,384,2025-05-23T22:00:54.627638
564,0.3231,0.9628,0.2445,-0.350,-20.300,2.100,358,425,331,412,353,2025-05-23T22:00:54.627653
565,0.3382,0.9692,0.2474,0.070,-10.920,1.540,412,413,364,352,387,2025-05-23T22:00:54.627667
566,0.3006,0.9521,0.2572,-1.330,1.540,1.120,399,413,366,336,350,2025-05-23T22:00:54.627681
567,0.2791,0.9111,0.2996,-0.420,6.230,0.840,422,418,373,381,386,2025-05-23T22:00:54.627693
568,0.2733,0.8935,0.3499,-4.130,-2.660,-0.490,435,406,371,380,349,2025-05-23T22:00:54.627705
569,0.3148,0.8911,0.3475,-7.070,-15.680,-4.130,424,421,369,391,334,2025-05-23T22:00:54.627718
570,0.3070,0.9140,0.3148,-2.730,-20.860,-6.790,357,424,364,387,375,2025-05-23T22:00:54.627731
571,0.2855,0.9335,0.2611,4.480,-13.160,-7.000,392,368,373,386,358,2025-05-23T22:00:54.627742
572,0.2503,0.9326,0.2450,13.230,-6.230,-7.210,421,378,378,400,397,2025-05-23T22:00:54.627754
573,0.2245,0.9492,0.2821,14.420,-7.000,-5.320,417,411,383,397,380,2025-05-23T22:00:54.627816
574,0.1928,0.9438,0.3060,9.730,-13.790,-3.500,408,353,384,411,377,2025-05-23T22:00:54.674998
575,0.2240,0.9262,0.2889,1.190,-16.100,-1.890,342,383,384,414,389,2025-05-23T22:00:54.675054
576,0.2772,0.9218,0.2747,-3.080,-9.450,-1.540,399,402,379,415,407,2025-05-23T22:00:54.675069
577,0.2586,0.9321,0.2552,-2.590,0.000,-1.960,338,419,366,358,394,2025-05-23T22:00:54.675081
578,0.2586,0.9170,0.2377,-1.050,3.430,-0.700,385,432,333,383,404,2025-05-23T22:00:54.811403
579,0.2186,0.8930,0.2401,3.080,-0.490,0.630,296,432,323,405,409,2025-05-23T22:00:54.811452
580,0.2181,0.9272,0.2699,5.810,-11.340,1.050,392,316,357,390,360,2025-05-23T22:00:54.811467
581,0.1996,0.9687,0.2840,-16.940,-20.090,3.570,410,334,374,389,389,2025-05-23T22:00:54.811480
582,0.1923,0.9687,0.2850,-10.640,-27.510,4.480,415,407,374,411,396,2025-05-23T22:00:54.811491
583,0.2645,0.9462,0.2913,-20.930,-34.790,3.990,351,413,378,414,401,2025-05-23T22:00:54.811502
584,0.2669,0.9345,0.2821,-19.950,-41.090,2.240,393,412,351,399,400,2025-05-23T22:00:54.811512
585,0.2460,0.9199,0.2660,-9.100,-43.610,0.770,406,420,357,403,387,2025-05-23T22:00:54.811707
586,0.2084,0.9331,0.2762,-2.170,-43.540,1.400,421,420,371,412,396,2025-05-23T22:00:54.811717
587,0.2250,0.9784,0.2586,-8.120,-49.490,2.870,379,343,380,374,363,2025-05-23T22:00:54.811728
588,0.2508,0.9311,0.2225,-18.900,-50.050,1.470,398,386,339,392,396,2025-05-23T22:00:54.811737
589,0.3372,0.9267,0.2450,-19.390,-46.340,1.330,410,371,358,388,401,2025-05-23T22:00:54.859875
590,0.3767,0.9331,0.2645,-17.360,-33.250,0.210,417,406,378,394,410,2025-05-23T22:00:54.859898
591,0.3802,0.9443,0.2435,-13.510,-15.960,-0.490,403,393,378,411,390,2025-05-23T22:00:54.859903
592,0.3396,0.8940,0.2069,-9.170,-6.090,1.050,367,415,383,390,404,2025-05-23T22:00:54.859907
593,0.3221,0.9013,0.2372,0.980,-10.920,0.070,339,424,358,367,350,2025-05-23T22:00:54.910489
594,0.3640,0.9296,0.2762,4.620,-21.420,-2.520,390,439,365,375,390,2025-05-23T22:00:54.910533
595,0.3518,0.9345,0.3079,3.220,-20.860,-5.600,338,418,365,377,383,2025-05-23T22:00:54.910544
596,0.3797,0.9184,0.3099,-1.540,-10.290,-6.440,374,426,339,389,385,2025-05-23T22:00:54.910553
597,0.3699,0.9052,0.3216,2.310,5.950,-7.000,385,419,370,351,393,2025-05-23T22:00:55.014707
598,0.3333,0.9301,0.3294,3.080,11.550,-6.790,336,420,373,390,410,2025-05-23T22:00:55.014759
599,0.2977,0.9292,0.3148,-4.130,6.790,-8.260,384,423,377,406,413,2025-05-23T22:00:55.014781
600,0.3362,0.9223,0.3260,-12.740,-4.760,-8.680,383,414,387,405,401,2025-05-23T22:00:55.014797
601,0.3870,0.9257,0.3806,-12.390,-13.440,-10.850,409,345,376,310,349,2025-05-23T22:00:55.033228
602,0.4743,0.9267,0.4187,-12.110,-16.730,-14.350,428,289,367,379,369,2025-05-23T22:00:55.033269
603,0.5841,0.9384,0.4304,-10.290,-14.910,-17.920,421,382,373,399,369,2025-05-23T22:00:55.033281
604,0.7476,0.9462,0.4241,-13.790,-13.090,-24.570,430,416,370,401,392,2025-05-23T22:00:55.033291
605,0.7466,0.9526,0.4695,-24.710,-22.960,-27.370,413,406,373,393,393,2025-05-23T22:00:55.033300
606,0.6817,0.9931,0.7281,-50.120,-63.070,-29.120,407,345,366,368,409,2025-05-23T22:00:55.066560
607,0.5695,1.0175,1.0843,-94.500,-156.800,-25.690,393,383,377,396,397,2025-05-23T22:00:55.066622
608,0.7969,1.1073,1.4533,-171.290,-320.180,-30.240,413,405,342,350,407,2025-05-23T22:00:55.066635
609,1.3727,1.0160,1.2176,-253.470,-510.650,-53.760,406,420,350,388,397,2025-05-23T22:00:55.066767
610,2.1033,0.8696,0.4895,-282.100,-541.100,-91.630,428,378,334,403,404,2025-05-23T22:00:55.224983
611,2.5586,1.0414,-0.2220,-223.580,-477.190,-113.400,417,407,346,397,388,2025-05-23T22:00:55.225032
612,2.6230,1.3166,-0.7349,-176.750,-342.930,-114.170,420,362,372,349,404,2025-05-23T22:00:55.225046
613,2.3224,1.6358,-1.0946,-179.060,-229.320,-113.540,401,406,335,395,399,2025-05-23T22:00:55.225056
614,2.3966,1.8890,-1.2981,-228.830,-187.740,-101.150,417,415,342,362,394,2025-05-23T22:00:55.225067
615,2.4659,2.0696,-1.4313,-336.980,-287.490,-129.570,393,401,363,388,387,2025-05-23T22:00:55.225077
616,3.0193,2.0150,-1.6587,-498.680,-406.210,-189.070,396,424,332,399,402,2025-05-23T22:00:55.225087
617,2.6474,1.2244,-1.8695,-524.650,-367.920,-216.720,359,396,314,352,372,2025-05-23T22:00:55.225097
618,2.0467,0.9262,-1.6587,-466.970,-294.280,-252.770,412,403,351,378,380,2025-05-23T22:00:55.225108
619,1.3801,0.4031,-1.5069,-474.880,-277.410,-248.010,353,338,357,338,405,2025-05-23T22:00:55.225118
620,1.1995,-0.0005,-1.1229,-430.640,-316.540,-260.400,397,398,370,400,407,2025-05-23T22:00:55.225128
621,1.5572,-0.5236,-0.5744,-689.010,-495.250,-234.500,413,425,366,414,394,2025-05-23T22:00:55.225138
622,1.0487,-2.7967,-1.0043,-941.360,-413.840,-230.860,395,420,377,403,382,2025-05-23T22:00:55.225147
623,0.5978,-4.9713,-0.1376,-992.810,-64.820,-297.220,423,426,382,414,402,2025-05-23T22:00:55.276629
624,-1.7041,-7.9329,1.1190,-969.990,92.540,-423.780,423,348,376,418,413,2025-05-23T22:00:55.276679
625,-2.4180,-7.7851,2.9812,-894.740,-86.450,-604.660,418,408,384,368,406,2025-05-23T22:00:55.276693
626,-0.1630,-5.4690,3.7034,-656.810,-485.450,-512.330,391,424,338,397,402,2025-05-23T22:00:55.276706
627,1.1727,-3.6541,2.9978,-438.060,-127.190,-318.710,414,413,358,397,402,2025-05-23T22:00:55.276717
628,-1.6865,-2.5830,2.3253,-20.510,245.770,-22.610,419,403,379,410,369,2025-05-23T22:00:55.423621
629,-1.9735,-1.8437,1.0394,210.210,313.740,191.870,419,393,376,372,386,2025-05-23T22:00:55.423667
630,-0.3670,-2.0028,0.7964,283.290,361.900,336.070,403,394,370,345,401,2025-05-23T22:00:55.423679
631,-0.1435,-2.1282,0.8511,534.380,231.140,323.890,345,388,381,331,404,2025-05-23T22:00:55.423689
632,-0.1932,-1.8881,0.8481,680.960,35.140,293.930,408,428,341,362,374,2025-05-23T22:00:55.423699
633,0.6154,-1.7958,0.6734,356.580,-293.370,314.160,400,415,348,381,375,2025-05-23T22:00:55.423708
634,1.0136,-1.3576,0.2440,264.250,-200.270,193.830,403,424,328,346,343,2025-05-23T22:00:55.423719
635,1.2254,-1.1531,0.2767,325.150,159.740,144.830,411,415,341,392,389,2025-05-23T22:00:55.423728
636,0.7403,-0.7359,0.5466,331.170,337.050,131.110,391,346,322,409,380,2025-05-23T22:00:55.423736
637,0.2211,-0.5266,0.8247,288.890,424.270,151.550,413,387,349,366,386,2025-05-23T22:00:55.423746
638,0.0083,-0.5475,0.9862,314.510,461.510,155.890,403,383,350,397,395,2025-05-23T22:00:55.423754
639,-0.0171,-0.6651,1.2312,267.750,406.140,136.080,414,397,358,393,405,2025-05-23T22:00:55.423762
640,0.0161,-0.6256,1.2044,266.000,277.970,136.920,406,375,360,377,400,2025-05-23T22:00:55.628871
641,0.0942,-0.3592,1.0326,212.450,321.300,118.440,402,377,370,395,407,2025-05-23T22:00:55.628918
642,-0.0073,-0.0317,0.8955,310.660,377.930,165.480,387,404,349,345,403,2025-05-23T22:00:55.628932
643,-0.1293,0.3894,0.6466,346.570,394.800,202.790,411,427,352,332,360,2025-05-23T22:00:55.628943
644,-0.2001,0.5890,0.4763,379.190,426.510,227.500,421,399,326,362,393,2025-05-23T22:00:55.628953
645,-0.1688,0.7247,0.4734,341.110,347.550,262.080,415,412,361,400,395,2025-05-23T22:00:55.628963
646,0.1132,0.6129,0.4631,261.800,217.490,275.730,404,417,375,400,412,2025-05-23T22:00:55.628972
647,0.1884,0.7315,0.2826,250.880,152.810,264.180,426,421,376,410,407,2025-05-23T22:00:55.628981
648,0.2308,1.0970,0.1376,292.950,215.320,239.680,401,420,387,406,358,2025-05-23T22:00:55.628989
649,0.4582,1.2503,0.0151,289.940,288.050,227.010,425,402,375,402,396,2025-05-23T22:00:55.628998
650,0.6481,1.3274,0.0215,260.610,356.720,220.010,396,417,382,356,348,2025-05-23T22:00:55.629008
651,0.5553,1.3410,0.1215,202.860,363.580,214.830,416,387,388,382,393,2025-05-23T22:00:55.629017
652,0.3099,1.0878,0.2035,138.320,295.890,217.630,419,395,386,406,411,2025-05-23T22:00:55.629026
653,0.3806,1.0590,0.3836,102.690,197.260,213.360,343,407,387,414,417,2025-05-23T22:00:55.629034
654,0.5651,1.0331,0.3753,68.460,122.920,205.170,392,399,379,410,418,2025-05-23T22:00:55.629077
655,0.8111,1.0331,0.2625,76.580,82.740,189.420,419,410,386,354,394,2025-05-23T22:00:55.629086
656,0.9536,1.1009,0.2386,111.720,130.830,176.470,405,402,382,374,410,2025-05-23T22:00:55.629095
657,0.9521,1.1854,0.5134,142.380,200.130,177.660,422,385,386,382,404,2025-05-23T22:00:55.836745
658,0.7164,1.1214,0.7330,106.190,217.560,190.470,413,416,394,407,414,2025-05-23T22:00:55.836788
659,0.8677,0.9326,0.7520,62.720,178.220,200.620,425,392,388,351,409,2025-05-23T22:00:55.836800
660,1.1785,0.7291,0.6593,22.890,67.340,170.170,420,350,377,394,404,2025-05-23T22:00:55.836811
661,1.5626,0.7642,0.5485,46.130,-8.260,127.120,401,398,378,393,404,2025-05-23T22:00:55.836820
662,1.8227,0.9087,0.6320,81.060,-14.630,81.830,383,414,370,418,414,2025-05-23T22:00:55.836830
663,1.7817,0.9536,0.6681,64.120,12.530,38.430,413,402,388,402,411,2025-05-23T22:00:55.836839
664,1.5372,0.9126,0.6163,25.130,45.850,29.610,395,406,391,385,407,2025-05-23T22:00:55.836849
665,1.1248,0.8804,0.4963,13.370,58.170,4.270,411,415,392,410,403,2025-05-23T22:00:55.836858
666,0.7266,0.8613,0.3401,15.610,38.780,-16.590,405,417,380,356,389,2025-05-23T22:00:55.836868
667,0.3006,0.8779,0.1283,8.050,15.680,-27.930,409,416,343,391,400,2025-05-23T22:00:55.837033
668,0.0776,0.9496,0.0390,-9.870,14.770,-23.310,408,365,348,389,399,2025-05-23T22:00:55.837043
669,-0.1088,0.9692,0.1039,-20.020,24.220,-15.120,396,392,360,357,383,2025-05-23T22:00:55.837053
670,-0.0922,0.9731,0.1874,-18.270,32.060,-3.290,393,432,382,398,400,2025-05-23T22:00:55.837062
671,0.0722,0.9667,0.2713,-22.470,30.590,5.320,367,344,349,408,371,2025-05-23T22:00:55.837072
672,0.2196,0.9526,0.2850,-30.520,25.130,7.700,379,399,361,407,382,2025-05-23T22:00:55.837123
673,0.3235,0.9262,0.2723,-27.860,28.280,3.780,421,416,358,355,373,2025-05-23T22:00:55.837133
674,0.3601,0.9218,0.2640,-18.340,28.350,2.660,420,427,326,394,388,2025-05-23T22:00:56.041349
675,0.3743,0.9296,0.2928,-8.540,21.140,0.420,417,404,314,410,407,2025-05-23T22:00:56.041407
676,0.3821,0.9140,0.3748,-9.170,5.250,-2.170,414,352,342,417,386,2025-05-23T22:00:56.041453
677,0.2948,0.8847,0.4441,-8.260,-9.310,-2.870,427,333,358,412,350,2025-05-23T22:00:56.041466
678,0.2406,0.9004,0.4880,-5.180,-20.160,-1.260,409,392,362,415,387,2025-05-23T22:00:56.041485
679,0.2957,0.9096,0.4265,-1.890,-23.030,-1.610,411,423,375,418,395,2025-05-23T22:00:56.041498
680,0.3372,0.9218,0.3353,5.040,-14.350,-3.360,418,435,385,393,388,2025-05-23T22:00:56.041509
681,0.2889,0.9370,0.2391,13.370,3.080,-4.060,407,423,371,347,395,2025-05-23T22:00:56.041522
682,0.2552,0.9589,0.1557,18.900,17.010,-2.870,391,393,373,381,382,2025-05-23T22:00:56.041533
683,0.2333,0.9540,0.1440,14.070,14.630,-0.980,369,415,381,393,399,2025-05-23T22:00:56.041548
684,0.2108,0.9126,0.1327,5.320,-0.350,1.610,407,389,373,410,394,2025-05-23T22:00:56.041559
685,0.2542,0.9170,0.1698,-3.150,-10.360,4.200,415,394,346,414,395,2025-05-23T22:00:56.041571
686,0.2874,0.8926,0.2162,-9.660,-12.670,3.150,413,411,349,409,408,2025-05-23T22:00:56.041583
687,0.3240,0.9082,0.2474,-8.540,-2.800,2.450,352,383,368,395,386,2025-05-23T22:00:56.041632
688,0.3455,0.9267,0.2499,-7.140,7.070,0.980,413,410,370,387,345,2025-05-23T22:00:56.041643
689,0.3055,0.9296,0.2640,0.070,10.150,-0.280,414,438,369,390,383,2025-05-23T22:00:56.041692
690,0.2967,0.9482,0.2904,4.060,5.810,-1.050,404,366,381,410,399,2025-05-23T22:00:56.041706
691,0.2840,0.9282,0.3021,2.730,-2.240,-1.470,389,411,365,400,410,2025-05-23T22:00:56.246904
692,0.2704,0.9082,0.3099,-2.520,-10.080,-1.750,393,387,376,393,411,2025-05-23T22:00:56.246955
693,0.2372,0.8999,0.3411,-5.600,-19.390,-3.150,416,423,376,413,414,2025-05-23T22:00:56.246968
694,0.2401,0.9213,0.3611,-6.930,-31.150,-3.360,373,415,374,366,394,2025-05-23T22:00:56.247115
695,0.3016,0.9701,0.3299,-8.820,-30.940,-3.220,341,390,384,350,392,2025-05-23T22:00:56.247126
696,0.2801,0.9755,0.2830,-4.270,-15.260,-1.960,361,393,384,345,401,2025-05-23T22:00:56.247137
697,0.2362,0.9677,0.2445,3.360,2.590,0.770,402,402,388,349,347,2025-05-23T22:00:56.247147
698,0.2054,0.9277,0.2186,7.000,7.490,3.570,388,403,374,378,398,2025-05-23T22:00:56.247158
699,0.2347,0.9204,0.2333,4.060,-8.260,3.780,377,390,383,393,402,2025-05-23T22:00:56.247167
700,0.2874,0.9248,0.2460,-3.920,-21.210,0.770,404,344,343,389,405,2025-05-23T22:00:56.247176
701,0.3245,0.9223,0.2216,-8.050,-25.060,-1.260,410,403,351,404,397,2025-05-23T22:00:56.247185
702,0.3592,0.9184,0.1957,-4.970,-10.500,-2.730,417,343,353,405,391,2025-05-23T22:00:56.247194
703,0.2972,0.9130,0.2147,-1.260,1.750,-5.250,394,389,328,414,400,2025-05-23T22:00:56.247203
704,0.2499,0.9418,0.2303,-1.260,0.840,-5.320,356,387,342,404,374,2025-05-23T22:00:56.247212
705,0.2094,0.9360,0.2630,-7.000,-9.660,-5.460,358,399,346,423,385,2025-05-23T22:00:56.247221
706,0.2196,0.9257,0.2850,-11.690,-22.890,-5.460,405,415,359,389,397,2025-05-23T22:00:56.247262
707,0.2733,0.9248,0.2918,-11.410,-26.320,-5.600,396,382,333,380,369,2025-05-23T22:00:56.247273
708,0.2967,0.9209,0.2938,-8.260,-20.440,-5.180,337,375,354,397,380,2025-05-23T22:00:56.450686
709,0.3265,0.9399,0.2913,-6.020,-15.610,-5.110,404,415,354,366,408,2025-05-23T22:00:56.450734
710,0.2991,0.9174,0.2855,-2.520,-14.630,-6.510,418,373,355,395,353,2025-05-23T22:00:56.450749
711,0.2991,0.9370,0.2889,-0.350,-15.820,-6.720,418,388,369,378,395,2025-05-23T22:00:56.450761
712,0.3226,0.9477,0.2962,0.140,-15.330,-6.930,426,422,373,410,362,2025-05-23T22:00:56.450772
713,0.3450,0.9540,0.2865,-0.840,-14.980,-6.370,417,350,376,375,376,2025-05-23T22:00:56.450782
714,0.4070,0.9472,0.2840,-3.570,-15.820,-7.910,407,413,368,346,380,2025-05-23T22:00:56.450791
715,0.4509,0.9423,0.2948,-6.440,-19.740,-11.970,406,408,331,366,387,2025-05-23T22:00:56.450801
716,0.5002,0.9223,0.3309,-10.780,-22.120,-17.290,390,406,362,343,377,2025-05-23T22:00:56.450810
717,0.5353,0.8794,0.3353,-18.900,-25.130,-22.190,413,416,366,395,345,2025-05-23T22:00:56.450819
718,0.5797,0.8330,0.3387,-26.600,-28.420,-31.570,398,421,360,384,378,2025-05-23T22:00:56.450829
719,0.6246,0.7066,0.3314,-40.950,-38.500,-44.240,423,428,376,408,400,2025-05-23T22:00:56.450838
720,0.7540,0.5836,0.3914,-62.440,-57.820,-54.880,363,421,382,402,393,2025-05-23T22:00:56.450846
721,0.9267,0.6251,0.5651,-84.560,-91.700,-68.110,401,400,341,412,411,2025-05-23T22:00:56.450855
722,1.0370,0.7135,0.8242,-122.220,-132.370,-91.910,423,390,370,394,405,2025-05-23T22:00:56.450896
723,1.0024,0.7696,0.9823,-156.450,-214.620,-116.620,420,355,373,387,388,2025-05-23T22:00:56.450907
724,1.3220,1.0707,0.8823,-187.950,-317.450,-133.910,421,404,383,405,395,2025-05-23T22:00:56.450916
725,1.6480,1.4279,0.6178,-227.360,-392.420,-143.430,400,420,386,373,387,2025-05-23T22:00:56.653333
726,1.9159,1.7958,0.3558,-237.650,-399.770,-140.000,416,411,385,391,394,2025-05-23T22:00:56.653379
727,1.9642,2.0994,0.2147,-241.710,-371.910,-116.900,403,410,392,416,401,2025-05-23T22:00:56.653392
728,2.1750,2.2585,-0.0332,-247.660,-356.230,-101.850,390,405,388,358,403,2025-05-23T22:00:56.653403
729,2.2380,2.4502,-0.2752,-264.110,-363.510,-103.040,411,391,371,381,408,2025-05-23T22:00:56.653413
730,2.2897,2.4459,-0.7052,-305.060,-415.730,-123.340,418,403,379,381,393,2025-05-23T22:00:56.653427
731,2.7728,2.4171,-1.1409,-373.940,-443.380,-158.620,413,396,382,383,399,2025-05-23T22:00:56.653436
732,2.5659,1.7924,-1.6690,-454.580,-434.350,-194.600,416,412,385,393,394,2025-05-23T22:00:56.653445
733,2.1794,1.0692,-1.8656,-475.160,-399.630,-209.930,412,417,386,350,382,2025-05-23T22:00:56.653456
734,2.1043,0.2547,-1.9383,-523.460,-389.270,-224.490,410,430,384,293,369,2025-05-23T22:00:56.653465
735,2.0145,-0.5158,-1.8646,-603.540,-353.150,-237.650,346,421,380,373,392,2025-05-23T22:00:56.653474
736,1.7490,-1.6968,-1.2712,-681.730,-221.900,-277.620,359,414,384,387,388,2025-05-23T22:00:56.653485
737,1.0594,-3.5907,-1.1624,-853.510,-32.830,-335.720,404,412,347,344,404,2025-05-23T22:00:56.653493
738,-0.8145,-5.9936,-0.2845,-872.620,84.420,-460.250,396,428,368,293,399,2025-05-23T22:00:56.653531
739,-2.5698,-7.3561,1.2512,-949.480,-34.790,-653.170,409,422,383,311,399,2025-05-23T22:00:56.653541
740,-1.4381,-6.8954,2.4703,-842.450,-498.610,-638.610,417,416,355,352,394,2025-05-23T22:00:56.653550
741,1.3508,-4.7639,2.9885,-827.890,-799.820,-476.420,418,424,364,382,397,2025-05-23T22:00:56.653559
742,1.9500,-3.4375,3.1598,-345.030,-156.730,-330.050,401,425,376,390,417,2025-05-23T22:00:56.718462
743,-2.0491,-2.0374,1.7553,74.340,233.520,-52.430,417,434,377,391,414,2025-05-23T22:00:56.718526
744,-1.4606,-1.3527,0.6295,216.580,406.350,242.760,414,442,381,400,398,2025-05-23T22:00:56.718544
745,-0.0034,-1.8500,0.7486,280.210,430.010,385.070,402,373,381,389,407,2025-05-23T22:00:56.718558
746,-0.4260,-1.4372,1.3923,766.290,206.150,289.940,403,401,382,406,414,2025-05-23T22:00:56.718571
747,-0.9599,-1.7222,2.0067,657.090,252.840,203.280,368,419,389,410,415,2025-05-23T22:00:56.782679
748,1.1073,-1.1595,1.0804,122.080,-98.350,353.080,402,404,387,412,397,2025-05-23T22:00:56.782726
749,1.2698,-1.2322,0.1386,145.670,-204.260,125.790,411,399,383,399,348,2025-05-23T22:00:56.782738
750,1.2098,-0.7462,0.4709,314.860,286.930,125.720,422,415,375,403,383,2025-05-23T22:00:56.782750
751,0.3294,-0.4802,0.7515,315.560,451.080,130.340,393,426,373,410,399,2025-05-23T22:00:56.782759
752,-0.7867,-0.3216,1.0165,304.220,468.300,146.510,416,355,375,404,407,2025-05-23T22:00:57.050988
753,-1.1326,-0.2630,1.0531,367.990,514.360,151.060,398,416,372,419,351,2025-05-23T22:00:57.051038
754,-0.4202,-0.2630,1.0341,275.940,421.120,132.580,404,365,361,403,367,2025-05-23T22:00:57.051051
755,-0.5022,0.0244,1.7963,94.710,142.870,142.800,395,402,377,407,387,2025-05-23T22:00:57.051062
756,0.2879,-0.0942,0.6871,26.670,141.540,195.160,407,418,384,406,403,2025-05-23T22:00:57.051073
757,0.1059,0.0908,0.6032,293.580,252.140,221.620,414,410,376,362,387,2025-05-23T22:00:57.051083
758,-0.3675,0.3523,0.8042,353.920,318.710,242.410,399,404,346,399,389,2025-05-23T22:00:57.051093
759,-0.3777,0.5963,0.7369,384.860,351.400,238.490,393,406,371,396,363,2025-05-23T22:00:57.051106
760,-0.3626,0.8706,0.9555,341.950,395.430,286.720,401,415,379,403,336,2025-05-23T22:00:57.051116
761,-0.0615,0.6568,0.9116,333.620,253.050,255.710,415,394,372,399,323,2025-05-23T22:00:57.051126
762,0.2777,0.8745,0.7174,211.050,54.600,252.350,345,413,383,344,364,2025-05-23T22:00:57.051136
763,0.3050,0.8691,0.4514,249.410,142.100,203.840,381,426,385,375,399,2025-05-23T22:00:57.051146
764,0.5207,0.9731,0.5046,280.700,251.580,199.080,414,412,381,406,411,2025-05-23T22:00:57.051156
765,0.4782,0.9209,0.4207,252.140,336.140,208.810,344,395,388,414,400,2025-05-23T22:00:57.051165
766,0.3753,1.0843,0.3426,241.780,397.530,216.510,375,393,348,393,386,2025-05-23T22:00:57.051213
767,0.2089,1.1356,0.0644,204.330,376.390,218.890,392,414,369,392,393,2025-05-23T22:00:57.051223
768,0.2108,1.1824,-0.3113,149.800,297.920,209.300,384,409,374,392,371,2025-05-23T22:00:57.051232
769,0.4324,1.2098,-0.3387,105.350,240.100,202.160,395,408,387,379,373,2025-05-23T22:00:57.051241
770,0.2196,1.2180,-0.0127,85.260,195.020,195.580,416,375,374,378,404,2025-05-23T22:00:57.051250
771,0.1064,1.0682,0.3616,73.430,140.840,197.680,358,407,370,409,406,2025-05-23T22:00:57.051262
772,0.4636,0.8979,0.5680,48.930,85.120,203.630,359,409,371,393,384,2025-05-23T22:00:57.102833
773,0.9199,0.8081,0.6788,22.890,26.670,189.910,412,428,331,391,387,2025-05-23T22:00:57.102882
774,1.1649,0.9043,0.5812,33.600,47.740,164.290,414,428,319,394,389,2025-05-23T22:00:57.102898
775,1.3352,0.8774,0.3850,71.400,142.030,147.140,423,405,343,401,388,2025-05-23T22:00:57.102910
776,1.3288,1.0116,0.3987,80.500,211.610,136.080,424,398,373,412,395,2025-05-23T22:00:57.102920
777,1.1424,1.0297,0.5183,59.570,233.380,129.780,423,417,382,419,402,2025-05-23T22:00:57.102929
778,1.0028,0.9379,0.6681,26.530,158.480,112.070,406,434,386,409,390,2025-05-23T22:00:57.102939
779,1.1546,0.8428,0.7627,-28.490,27.790,76.510,420,372,342,401,383,2025-05-23T22:00:57.154216
780,1.4308,0.8130,0.7496,-61.250,-46.550,37.520,402,422,355,396,368,2025-05-23T22:00:57.154273
781,1.3566,0.7871,0.5505,-43.680,-17.080,14.420,345,411,366,419,385,2025-05-23T22:00:57.154289
782,1.0419,0.7398,0.4089,10.290,70.700,-0.490,377,420,369,406,396,2025-05-23T22:00:57.154303
783,0.5383,0.8120,0.4099,52.570,129.430,-9.450,408,430,379,416,401,2025-05-23T22:00:57.268958
784,0.0176,0.9799,0.4734,85.470,147.560,5.040,391,420,344,419,406,2025-05-23T22:00:57.269005
785,-0.1913,1.0087,0.4646,38.010,72.380,9.870,403,419,367,407,407,2025-05-23T22:00:57.269016
786,0.0249,0.9477,0.3006,-25.060,-50.680,-1.190,390,418,375,417,398,2025-05-23T22:00:57.269025
787,0.1357,0.8799,0.2508,-60.620,-97.230,-3.710,301,390,340,416,409,2025-05-23T22:00:57.269036
788,0.1513,0.9492,0.1088,-44.660,-54.250,-5.600,383,411,366,409,397,2025-05-23T22:00:57.269046
789,0.1718,0.9213,0.1801,-7.910,41.860,12.320,421,346,377,418,410,2025-05-23T22:00:57.269054
790,0.1708,0.9443,0.2796,10.150,81.270,17.920,397,398,373,407,389,2025-05-23T22:00:57.269062
791,0.2133,0.9145,0.3816,21.070,74.200,21.700,341,392,340,354,401,2025-05-23T22:00:57.269070
792,0.2464,0.8872,0.4939,9.940,-2.940,8.680,381,410,359,381,401,2025-05-23T22:00:57.475607
793,0.3436,0.8906,0.4514,-8.610,-63.210,-2.310,383,416,374,397,382,2025-05-23T22:00:57.475660
794,0.3904,0.9043,0.3558,-12.110,-75.810,-12.250,414,415,369,402,385,2025-05-23T22:00:57.475674
795,0.4065,0.9287,0.2684,-3.990,-46.830,-12.740,391,403,379,401,388,2025-05-23T22:00:57.475687
796,0.3640,0.9311,0.2279,3.640,-7.630,-11.340,413,419,383,388,411,2025-05-23T22:00:57.475699
797,0.2103,0.9111,0.2308,7.420,12.810,-6.650,409,413,391,415,412,2025-05-23T22:00:57.475711
798,0.1137,0.9267,0.2679,5.320,5.110,-2.450,396,346,380,411,412,2025-05-23T22:00:57.475722
799,0.1362,0.9223,0.2723,-6.510,-23.870,-2.730,415,377,370,361,403,2025-05-23T22:00:57.475733
800,0.1845,0.9267,0.2499,-10.150,-30.940,-2.170,400,366,378,346,402,2025-05-23T22:00:57.475744
801,0.2123,0.9374,0.2279,-7.000,-25.410,-0.560,399,405,387,387,384,2025-05-23T22:00:57.493130
802,0.2474,0.9565,0.2308,3.570,-5.530,3.010,422,396,385,409,382,2025-05-23T22:00:57.493166
803,0.2708,0.9560,0.2469,3.780,-1.330,2.940,375,414,376,415,390,2025-05-23T22:00:57.493178
804,0.2913,0.9423,0.2757,2.240,-9.100,2.870,423,414,345,408,404,2025-05-23T22:00:57.493187
805,0.3094,0.9404,0.2899,-2.870,-20.020,1.610,353,408,356,391,397,2025-05-23T22:00:57.493196
806,0.3094,0.9072,0.2835,-3.500,-24.150,0.560,396,425,368,404,391,2025-05-23T22:00:57.493205
807,0.3192,0.9199,0.2655,-2.450,-23.170,-0.350,389,421,376,371,340,2025-05-23T22:00:57.493261
808,0.3538,0.9350,0.2577,0.000,-19.600,-0.560,401,428,379,332,374,2025-05-23T22:00:57.493270
809,0.3270,0.9389,0.2645,0.210,-16.450,-0.840,430,358,388,347,394,2025-05-23T22:00:57.493278
810,0.3123,0.9345,0.2640,-0.840,-11.480,-1.400,395,397,382,394,372,2025-05-23T22:00:57.526533
811,0.3074,0.9272,0.2713,-1.820,-11.620,-4.060,422,401,373,397,381,2025-05-23T22:00:57.526578
812,0.3026,0.9277,0.2747,-3.360,-15.050,-6.790,346,349,363,412,401,2025-05-23T22:00:57.526589
813,0.3226,0.9326,0.2650,-6.510,-18.970,-8.960,327,343,376,399,384,2025-05-23T22:00:57.526598
814,0.2962,0.9531,0.2484,-6.580,-18.200,-11.130,389,388,343,402,392,2025-05-23T22:00:57.685199
815,0.2806,0.9658,0.2396,-5.880,-15.260,-10.150,392,359,362,414,402,2025-05-23T22:00:57.685255
816,0.2572,0.9531,0.2372,-5.880,-17.570,-8.400,400,410,383,406,388,2025-05-23T22:00:57.685270
817,0.2513,0.9311,0.2674,-6.930,-21.490,-6.860,393,396,375,408,385,2025-05-23T22:00:57.685284
818,0.2240,0.9238,0.2987,-9.170,-24.500,-6.020,391,394,352,373,399,2025-05-23T22:00:57.685298
819,0.2323,0.9228,0.3221,-8.330,-24.990,-5.110,406,370,364,366,394,2025-05-23T22:00:57.685310
820,0.2767,0.9370,0.3177,-10.570,-22.120,-5.320,418,406,380,358,349,2025-05-23T22:00:57.685322
821,0.2850,0.9292,0.3016,-10.850,-17.780,-7.070,400,374,351,333,386,2025-05-23T22:00:57.685333
822,0.3192,0.9365,0.2826,-10.010,-15.120,-6.930,341,400,359,387,405,2025-05-23T22:00:57.685344
823,0.3182,0.9267,0.2625,-10.850,-16.100,-5.810,385,394,382,409,399,2025-05-23T22:00:57.685355
824,0.3460,0.9189,0.2791,-13.090,-19.880,-5.810,398,348,392,393,404,2025-05-23T22:00:57.685365
825,0.3450,0.9038,0.3074,-14.000,-23.240,-6.510,421,406,388,412,414,2025-05-23T22:00:57.685377
826,0.3460,0.9057,0.3304,-11.690,-24.430,-6.860,375,404,355,411,403,2025-05-23T22:00:57.886097
827,0.3348,0.9184,0.3357,-10.290,-23.520,-9.170,382,348,340,355,401,2025-05-23T22:00:57.886143
828,0.3284,0.9370,0.3182,-8.260,-23.940,-12.110,410,399,355,380,367,2025-05-23T22:00:57.886155
829,0.3255,0.9579,0.3118,-6.020,-25.690,-14.140,425,413,362,393,389,2025-05-23T22:00:57.886166
830,0.3353,0.9565,0.3216,-4.690,-28.840,-15.120,428,383,373,406,365,2025-05-23T22:00:57.886175
831,0.3884,0.9267,0.3470,-10.220,-32.620,-14.770,346,417,376,351,333,2025-05-23T22:00:57.886185
832,0.5270,0.8843,0.3577,-19.040,-40.110,-14.000,383,426,342,401,383,2025-05-23T22:00:57.886197
833,0.7017,0.8628,0.3972,-27.580,-49.490,-16.170,406,404,359,348,344,2025-05-23T22:00:57.886206
834,0.8320,0.8911,0.4475,-35.560,-63.280,-25.130,395,412,362,393,383,2025-05-23T22:00:57.886423
835,0.8906,0.9326,0.5490,-51.100,-87.220,-35.630,395,415,369,399,397,2025-05-23T22:00:57.886435
836,0.9272,1.0067,0.7535,-82.250,-141.820,-39.830,398,378,380,370,390,2025-05-23T22:00:57.886445
837,1.0385,0.9970,0.8935,-125.510,-224.350,-49.280,398,297,376,362,406,2025-05-23T22:00:57.886455
838,1.4747,0.9579,0.8794,-182.140,-297.850,-71.610,395,373,374,387,401,2025-05-23T22:00:57.886465
839,1.8851,0.9755,0.7325,-221.200,-366.660,-101.990,400,411,382,408,408,2025-05-23T22:00:57.886475
840,2.3712,1.1629,0.3626,-239.960,-392.700,-125.510,361,414,386,414,415,2025-05-23T22:00:57.886525
841,2.7191,1.4616,0.0303,-254.240,-353.780,-140.560,412,429,372,357,355,2025-05-23T22:00:57.886535
842,2.6757,1.6563,-0.1884,-271.810,-306.810,-146.720,340,427,375,388,398,2025-05-23T22:00:57.886545
843,2.4215,1.9359,-0.4006,-312.410,-304.360,-143.640,377,405,374,418,349,2025-05-23T22:00:58.092243
844,2.5683,2.0589,-0.9033,-384.440,-363.650,-159.390,402,427,377,400,372,2025-05-23T22:00:58.092300
845,3.0183,1.7524,-1.4860,-480.620,-458.920,-205.590,385,407,375,386,381,2025-05-23T22:00:58.092316
846,3.3033,1.0702,-1.8681,-534.590,-456.470,-269.920,387,406,380,386,355,2025-05-23T22:00:58.092328
847,2.6620,0.4660,-2.0472,-540.540,-381.220,-286.720,419,408,378,407,384,2025-05-23T22:00:58.092341
848,2.2775,-0.1484,-1.8237,-594.860,-345.100,-290.640,421,427,376,401,346,2025-05-23T22:00:58.092572
849,1.7734,-1.4894,-1.4069,-679.770,-321.160,-326.130,402,420,375,383,385,2025-05-23T22:00:58.092607
850,1.3449,-2.7157,-0.3645,-828.170,-313.600,-386.470,341,403,376,408,405,2025-05-23T22:00:58.092623
851,0.3811,-5.1181,-0.0776,-907.200,-243.040,-435.960,402,427,386,423,387,2025-05-23T22:00:58.092636
852,-0.5031,-6.9018,1.1663,-956.270,-146.160,-512.540,395,397,391,398,400,2025-05-23T22:00:58.092649
853,-1.8930,-8.3228,2.2019,-1007.300,-147.280,-643.230,397,413,375,398,411,2025-05-23T22:00:58.092662
854,-0.7047,-6.2796,2.9885,-761.740,-291.550,-565.880,384,420,339,344,362,2025-05-23T22:00:58.092677
855,-0.5080,-3.9743,3.1779,-515.760,-11.060,-388.640,405,427,354,400,393,2025-05-23T22:00:58.092690
856,-2.2253,-2.4415,2.8094,-199.920,230.580,-122.080,408,396,333,410,387,2025-05-23T22:00:58.092706
857,-1.7983,-1.7060,1.3405,120.260,269.150,114.310,404,410,322,406,383,2025-05-23T22:00:58.092783
858,-0.2567,-1.7163,1.0575,274.750,330.610,292.530,417,420,352,401,389,2025-05-23T22:00:58.092797
859,-0.2367,-1.7592,1.1995,355.250,162.540,324.730,412,424,321,389,396,2025-05-23T22:00:58.092809
860,-0.4119,-1.2976,1.2986,486.360,-149.240,305.130,365,410,363,397,403,2025-05-23T22:00:58.292087
861,0.4124,-1.8754,0.4856,536.340,-284.970,221.270,401,410,332,365,400,2025-05-23T22:00:58.292130
862,1.0307,-0.9394,0.3816,310.660,-56.420,138.880,403,413,355,381,401,2025-05-23T22:00:58.292142
863,1.1234,-0.7515,0.5641,288.120,176.960,111.510,392,366,375,340,405,2025-05-23T22:00:58.292151
864,0.6881,-0.6217,0.6451,274.190,354.620,111.090,417,392,371,367,411,2025-05-23T22:00:58.292253
865,-0.0146,-0.2845,0.8237,253.750,432.810,128.380,416,399,360,380,393,2025-05-23T22:00:58.292263
866,-0.5646,-0.0986,1.0619,282.030,441.490,135.240,401,391,367,377,384,2025-05-23T22:00:58.292274
867,-0.7388,-0.0566,1.2454,214.060,305.480,137.550,424,363,365,402,400,2025-05-23T22:00:58.292283
868,-0.6969,-0.4089,1.2800,133.280,182.770,119.280,424,349,358,420,407,2025-05-23T22:00:58.292292
869,-0.3821,-0.5485,1.2771,65.310,190.750,105.210,413,406,381,392,355,2025-05-23T22:00:58.292301
870,-0.0176,-0.5246,1.0624,165.550,290.150,166.670,394,411,384,406,390,2025-05-23T22:00:58.292310
871,-0.0586,-0.3684,1.1102,234.430,357.910,207.970,414,440,343,415,402,2025-05-23T22:00:58.292318
872,-0.1532,-0.0312,0.9965,287.420,376.670,247.240,423,401,348,312,383,2025-05-23T22:00:58.292326
873,-0.3821,0.4451,0.6959,337.680,404.670,269.290,419,414,362,329,340,2025-05-23T22:00:58.292334
874,-0.7105,0.7252,0.7393,349.650,338.240,281.260,361,424,341,357,372,2025-05-23T22:00:58.292374
875,-0.5778,0.8047,0.6227,289.520,214.690,271.740,418,358,324,350,388,2025-05-23T22:00:58.292382
876,-0.1776,0.7340,0.4436,275.310,139.370,274.610,396,338,356,331,390,2025-05-23T22:00:58.292390
877,0.1679,0.6329,0.3894,203.070,101.920,266.700,408,407,371,374,402,2025-05-23T22:00:58.500439
878,0.3060,0.5309,0.3914,198.730,181.160,247.310,427,393,379,404,370,2025-05-23T22:00:58.500499
879,0.4085,0.5934,0.4133,206.290,251.930,244.370,358,387,381,404,395,2025-05-23T22:00:58.500514
880,0.3479,0.8901,0.3231,218.050,301.000,247.870,399,417,384,351,387,2025-05-23T22:00:58.500728
881,0.3714,1.1712,0.2142,210.210,325.780,243.390,413,422,377,391,380,2025-05-23T22:00:58.500745
882,0.4763,1.2883,-0.0478,152.040,306.810,227.010,392,367,371,412,356,2025-05-23T22:00:58.500757
883,0.4504,1.1424,-0.0073,122.500,272.160,227.780,399,411,369,408,385,2025-05-23T22:00:58.500771
884,0.3597,1.0146,0.4416,106.050,205.590,228.130,425,413,336,372,345,2025-05-23T22:00:58.500784
885,0.4280,0.9130,0.6900,80.640,111.790,220.430,435,391,358,392,350,2025-05-23T22:00:58.500795
886,0.8179,0.8711,0.7832,62.090,36.050,210.420,422,392,371,405,386,2025-05-23T22:00:58.500806
887,1.1907,0.8945,0.6437,60.620,35.140,186.550,410,425,368,409,379,2025-05-23T22:00:58.500817
888,1.3845,0.9252,0.3850,100.240,128.590,165.270,414,423,379,388,342,2025-05-23T22:00:58.500828
889,1.3552,1.0292,0.4099,145.320,205.730,147.630,412,434,351,408,352,2025-05-23T22:00:58.500840
890,0.9277,1.0614,0.6934,148.540,252.350,139.790,408,371,357,397,373,2025-05-23T22:00:58.500850
891,0.7193,0.9975,0.9853,109.270,205.730,141.610,398,413,370,361,389,2025-05-23T22:00:58.500901
892,1.0448,0.8955,0.9814,11.060,38.430,117.740,405,404,343,377,380,2025-05-23T22:00:58.500912
893,1.4494,0.7544,0.9184,-51.100,-119.700,68.880,378,403,362,390,399,2025-05-23T22:00:58.500922
894,1.6548,0.7784,0.6266,-22.260,-104.580,28.980,334,394,376,412,391,2025-05-23T22:00:58.704579
895,1.4313,0.8467,0.4109,43.610,42.980,16.240,322,343,375,398,357,2025-05-23T22:00:58.704626
896,0.8189,0.9257,0.4002,78.540,94.430,-7.070,377,403,385,403,395,2025-05-23T22:00:58.704637
897,0.2601,1.0097,0.3406,96.670,120.260,-0.140,330,423,374,362,406,2025-05-23T22:00:58.704650
898,0.0093,1.0370,0.3699,59.640,77.350,0.770,350,400,306,381,390,2025-05-23T22:00:58.704660
899,0.0566,0.9862,0.2645,-11.690,-31.290,-5.040,392,392,273,403,390,2025-05-23T22:00:58.704670
900,0.2294,0.8886,0.2089,-42.420,-84.910,-9.940,419,410,295,388,391,2025-05-23T22:00:58.704680
901,0.2201,0.8838,0.0630,-42.770,-45.920,-15.540,415,418,301,389,407,2025-05-23T22:00:58.704690
902,0.1932,0.9111,0.1254,-12.180,41.510,-6.790,410,431,345,400,363,2025-05-23T22:00:58.704699
903,0.1771,0.9467,0.2191,1.540,70.350,0.840,405,399,347,386,401,2025-05-23T22:00:58.704708
904,0.1576,0.9443,0.3348,11.270,76.580,3.570,393,416,338,391,389,2025-05-23T22:00:58.704717
905,0.2025,0.9189,0.4036,-2.590,22.050,-2.170,412,418,354,395,394,2025-05-23T22:00:58.704727
906,0.2396,0.9057,0.3884,-13.720,-29.610,-7.700,416,408,359,409,394,2025-05-23T22:00:58.704736
907,0.2904,0.8979,0.3484,-16.870,-44.660,-13.020,379,421,361,395,397,2025-05-23T22:00:58.704745
908,0.3533,0.9130,0.2967,-10.570,-25.620,-11.270,408,360,332,349,388,2025-05-23T22:00:58.704754
909,0.3465,0.9096,0.2718,-1.260,4.410,-10.220,411,333,347,380,398,2025-05-23T22:00:58.704792
910,0.2591,0.9150,0.2718,6.300,18.900,-5.600,398,379,371,387,388,2025-05-23T22:00:58.704804
911,0.1830,0.9506,0.2977,10.290,9.380,-3.010,417,392,370,394,413,2025-05-23T22:00:58.756721
912,0.2064,0.9770,0.3060,-0.140,-16.310,-3.360,418,402,377,409,412,2025-05-23T22:00:58.756769
913,0.2176,0.9667,0.2908,-6.440,-27.020,-2.170,396,348,342,411,407,2025-05-23T22:00:58.756781
914,0.2406,0.9682,0.2542,-8.890,-24.220,0.910,420,405,358,415,403,2025-05-23T22:00:58.756792
915,0.2479,0.9521,0.2420,-3.850,-14.840,1.330,412,410,382,399,402,2025-05-23T22:00:58.756802
916,0.2777,0.9584,0.2386,-4.830,-14.840,-0.140,430,428,375,412,396,2025-05-23T22:00:58.906307
917,0.2420,0.9321,0.2435,-7.280,-17.500,-0.910,426,425,338,404,365,2025-05-23T22:00:58.906373
918,0.2377,0.9287,0.2708,-5.950,-16.100,1.820,416,414,324,416,340,2025-05-23T22:00:58.906418
919,0.2674,0.9292,0.3050,-3.360,-12.110,1.890,398,400,316,394,390,2025-05-23T22:00:58.906439
920,0.2855,0.9306,0.3152,-1.260,-9.240,1.120,371,402,309,402,348,2025-05-23T22:00:58.906453
921,0.3143,0.9277,0.3026,-1.330,-9.450,-0.280,369,341,339,343,361,2025-05-23T22:00:58.906463
922,0.3343,0.9204,0.2811,-0.560,-11.060,-2.870,417,404,361,385,393,2025-05-23T22:00:58.906474
923,0.3226,0.9204,0.2674,1.820,-8.960,-4.690,413,402,335,398,396,2025-05-23T22:00:58.906485
924,0.2840,0.9316,0.2616,1.260,-6.650,-4.340,407,406,363,388,408,2025-05-23T22:00:58.906496
925,0.2591,0.9374,0.2489,-3.430,-7.630,-4.900,378,382,385,392,361,2025-05-23T22:00:58.906507
926,0.2216,0.9184,0.2523,-5.950,-13.300,-5.950,382,421,386,364,377,2025-05-23T22:00:58.906518
927,0.2152,0.9248,0.2601,-5.460,-19.600,-5.670,387,392,385,384,347,2025-05-23T22:00:58.906529
928,0.2206,0.9335,0.2484,-4.550,-18.130,-5.040,383,409,365,381,383,2025-05-23T22:00:58.969875
929,0.2425,0.9423,0.2435,-3.990,-11.130,-3.570,339,339,368,391,398,2025-05-23T22:00:58.969920
930,0.2474,0.9477,0.2464,-2.100,-5.950,-3.290,408,417,376,409,413,2025-05-23T22:00:58.969932
931,0.2416,0.9379,0.2635,-1.260,-6.720,-1.750,412,355,365,410,366,2025-05-23T22:00:58.969940
932,0.2381,0.9394,0.2757,-3.220,-11.620,-1.050,403,416,368,310,396,2025-05-23T22:00:58.969949
933,0.2621,0.9428,0.2777,-4.130,-14.420,-0.210,422,386,382,363,399,2025-05-23T22:00:59.109880
934,0.2967,0.9301,0.2689,-1.890,-13.440,0.000,422,411,383,401,397,2025-05-23T22:00:59.109929
935,0.3333,0.9248,0.2586,0.560,-9.590,-0.770,420,423,385,394,384,2025-05-23T22:00:59.109942
936,0.3514,0.9252,0.2655,2.870,-8.610,-3.780,403,429,379,385,385,2025-05-23T22:00:59.109954
937,0.3475,0.9374,0.2772,3.570,-10.220,-6.440,392,429,377,402,349,2025-05-23T22:00:59.109964
938,0.3357,0.9433,0.3060,0.630,-13.090,-8.820,341,416,379,349,379,2025-05-23T22:00:59.109975
939,0.3255,0.9379,0.3133,-3.290,-15.610,-10.640,325,364,373,379,375,2025-05-23T22:00:59.109985
940,0.3201,0.9467,0.3343,-4.200,-15.750,-12.950,376,339,366,346,390,2025-05-23T22:00:59.109995
941,0.3245,0.9565,0.3470,-5.950,-17.920,-15.050,390,406,377,379,386,2025-05-23T22:00:59.110006
942,0.3572,0.9770,0.3421,-11.130,-16.870,-18.970,405,411,383,404,307,2025-05-23T22:00:59.110016
943,0.3655,0.9760,0.3597,-19.530,-14.070,-22.120,420,405,388,388,321,2025-05-23T22:00:59.110026
944,0.3460,0.9823,0.4197,-28.980,-18.410,-25.900,406,425,377,393,375,2025-05-23T22:00:59.110035
945,0.3997,1.0097,0.5300,-45.710,-35.910,-29.610,397,402,382,395,387,2025-05-23T22:00:59.322121
946,0.5256,1.0126,0.5763,-74.130,-65.100,-36.610,408,398,342,406,412,2025-05-23T22:00:59.322170
947,0.7793,1.0082,0.6632,-95.340,-92.610,-47.810,346,427,355,410,318,2025-05-23T22:00:59.322183
948,1.0512,1.0131,0.7203,-118.020,-115.920,-66.850,377,424,365,388,381,2025-05-23T22:00:59.322194
949,1.3942,1.0463,0.8150,-137.690,-124.600,-86.450,383,427,362,358,342,2025-05-23T22:00:59.322205
950,1.8295,1.0414,0.8330,-159.320,-143.360,-108.920,405,408,376,335,326,2025-05-23T22:00:59.322339
951,2.0613,1.1834,0.6895,-174.370,-170.380,-129.920,400,411,367,384,387,2025-05-23T22:00:59.322350
952,2.2106,1.3513,0.6202,-190.890,-223.230,-154.770,384,436,376,395,389,2025-05-23T22:00:59.322362
953,2.2541,1.5753,0.1991,-226.240,-320.810,-186.200,402,428,384,308,404,2025-05-23T22:00:59.322373
954,2.3678,1.7812,-0.0034,-274.960,-430.150,-210.840,409,351,381,370,369,2025-05-23T22:00:59.322384
955,2.7460,1.9008,-0.3611,-365.750,-519.680,-244.790,402,400,358,387,383,2025-05-23T22:00:59.322395
956,2.7997,1.8471,-0.7305,-439.040,-482.160,-260.470,388,404,364,342,341,2025-05-23T22:00:59.322406
957,2.5410,1.5523,-0.9394,-485.940,-401.870,-270.760,418,398,379,381,390,2025-05-23T22:00:59.322416
958,2.0257,1.2551,-1.1112,-519.400,-326.130,-272.790,435,342,343,381,396,2025-05-23T22:00:59.322426
959,1.5367,0.6261,-1.1141,-519.470,-313.880,-276.780,380,406,371,394,392,2025-05-23T22:00:59.322472
960,1.4328,-0.3162,-1.1463,-536.410,-397.950,-304.150,415,393,334,393,399,2025-05-23T22:00:59.322482
961,1.5543,-1.0741,-1.0634,-573.580,-461.440,-335.930,417,412,316,398,410,2025-05-23T22:00:59.322492
962,1.6041,-1.8339,-0.7354,-688.940,-326.830,-338.520,420,428,312,411,397,2025-05-23T22:00:59.525323
963,1.0551,-3.3247,-0.0986,-715.890,-135.380,-376.740,391,390,351,412,407,2025-05-23T22:00:59.525373
964,-0.1015,-5.2070,0.6339,-819.070,-87.360,-494.830,383,415,365,392,362,2025-05-23T22:00:59.525386
965,-0.6593,-6.6285,1.4796,-849.240,-112.280,-683.130,405,428,335,404,390,2025-05-23T22:00:59.525398
966,0.0127,-6.2864,1.5601,-730.870,-223.510,-674.660,423,404,324,376,344,2025-05-23T22:00:59.525409
967,-1.4733,-4.2612,1.6177,-494.270,-25.270,-487.550,400,409,348,343,357,2025-05-23T22:00:59.525421
968,-4.3515,-2.2228,2.6738,-310.870,163.240,-315.560,410,406,368,333,386,2025-05-23T22:00:59.525432
969,-3.9933,-1.6641,1.8485,-76.300,92.610,-125.510,347,393,378,394,393,2025-05-23T22:00:59.525443
970,-0.2020,-1.8149,0.8013,196.980,157.080,106.470,388,402,390,411,348,2025-05-23T22:00:59.525453
971,0.8481,-1.4801,0.6666,124.110,71.400,301.630,407,342,381,416,330,2025-05-23T22:00:59.525463
972,0.6183,-1.3469,0.2952,259.000,-64.750,383.950,424,412,381,393,372,2025-05-23T22:00:59.525473
973,0.0327,-1.2176,0.8535,475.090,-99.960,264.740,431,416,356,403,395,2025-05-23T22:00:59.525483
974,-0.0229,-1.1531,0.7910,462.070,31.500,156.870,424,402,377,419,378,2025-05-23T22:00:59.525497
975,0.6451,-0.6603,0.5065,299.530,106.680,144.900,430,422,369,417,396,2025-05-23T22:00:59.525507
976,0.6002,-0.5290,0.6183,211.680,118.440,162.610,350,421,371,411,403,2025-05-23T22:00:59.525553
977,0.4216,-0.3636,0.7344,184.030,147.350,134.890,413,421,378,422,410,2025-05-23T22:00:59.525562
978,0.3123,-0.2250,1.0160,172.550,206.010,103.110,403,418,382,424,413,2025-05-23T22:00:59.525571
979,0.0888,-0.2572,1.1214,163.170,239.960,76.580,410,412,376,427,399,2025-05-23T22:00:59.725875
980,0.0322,-0.2201,1.1375,158.480,275.450,63.560,408,429,379,405,388,2025-05-23T22:00:59.725900
981,-0.1244,-0.3348,1.2771,145.250,309.960,67.620,304,398,382,413,399,2025-05-23T22:00:59.725906
982,-0.6422,-0.2772,1.4157,104.650,318.850,78.540,389,422,388,418,394,2025-05-23T22:00:59.725911
983,-0.6359,-0.4875,1.2254,113.610,313.530,58.870,426,404,382,411,409,2025-05-23T22:00:59.725916
984,-0.4719,-0.1000,1.1727,158.410,291.480,102.550,392,372,373,392,353,2025-05-23T22:00:59.725920
985,-0.3421,0.1801,1.0853,194.810,240.940,120.540,390,419,365,402,392,2025-05-23T22:00:59.725926
986,-0.2928,0.3919,1.0863,232.610,175.980,159.530,375,424,380,408,406,2025-05-23T22:00:59.725931
987,-0.1679,0.4016,0.9550,284.620,115.150,177.100,402,365,369,414,393,2025-05-23T22:00:59.725935
988,-0.3636,0.4275,0.8213,270.340,191.030,179.900,415,393,364,359,387,2025-05-23T22:00:59.725940
989,-0.3514,0.4446,1.1170,238.070,241.710,172.620,418,416,380,376,354,2025-05-23T22:00:59.725944
990,-0.3816,0.5602,1.0394,259.980,274.190,170.310,434,402,386,380,392,2025-05-23T22:00:59.725948
991,-0.3865,0.7549,1.0228,238.700,294.700,179.550,366,372,388,386,396,2025-05-23T22:00:59.725952
992,-0.4895,0.9599,0.9506,245.000,291.060,159.320,409,414,391,395,347,2025-05-23T22:00:59.725956
993,-0.4421,1.0887,0.8213,209.300,281.190,132.300,418,382,392,403,364,2025-05-23T22:00:59.725978
994,-0.4036,1.0765,0.7281,174.020,273.910,128.450,417,411,394,398,346,2025-05-23T22:00:59.725982
995,-0.3592,1.1897,0.7379,151.830,292.810,152.180,409,401,393,345,360,2025-05-23T22:00:59.725986
996,-0.5680,1.2429,0.8345,138.670,310.310,177.380,418,425,395,392,378,2025-05-23T22:00:59.929952
997,-0.5675,1.2429,0.8164,128.450,300.930,199.710,395,404,384,391,386,2025-05-23T22:00:59.929993
998,-0.2806,1.3483,0.6593,118.580,265.720,224.140,367,412,386,410,396,2025-05-23T22:00:59.930002
999,-0.0981,1.3303,0.4880,114.100,209.930,251.300,356,401,380,412,403,2025-05-23T22:00:59.930011
1000,0.0547,1.3220,0.3299,128.380,186.900,260.750,401,398,372,395,411,2025-05-23T22:00:59.930019
1001,0.1825,1.2668,0.2289,151.550,218.820,256.830,412,421,338,408,356,2025-05-23T22:00:59.941554
1002,0.3138,1.1380,0.2035,142.660,267.120,236.810,374,427,348,398,384,2025-05-23T22:00:59.941575
1003,0.2713,0.9028,0.2557,119.350,273.280,243.390,392,355,365,400,387,2025-05-23T22:00:59.941582
1004,-0.1566,0.8413,0.4870,98.420,203.000,266.280,409,331,334,412,386,2025-05-23T22:00:59.941587
1005,0.0927,0.7383,0.5475,43.960,91.910,256.620,422,359,364,406,344,2025-05-23T22:00:59.941592
1006,0.6720,0.5563,0.3128,-87.010,-129.360,249.270,363,398,366,405,366,2025-05-23T22:00:59.941597
1007,1.2756,0.2928,0.2577,-135.870,-270.200,196.980,380,424,336,411,368,2025-05-23T22:00:59.941602
1008,1.6006,0.4626,0.0444,-115.080,-217.000,147.350,368,418,369,415,394,2025-05-23T22:00:59.941608
1009,1.6943,0.5065,0.0947,-13.720,-4.480,108.920,410,429,367,415,389,2025-05-23T22:00:59.941613
1010,1.5714,0.4753,0.1669,24.360,114.660,65.380,420,427,377,394,397,2025-05-23T22:00:59.941654
1011,1.4128,0.5822,0.2664,36.050,181.510,44.240,398,403,367,403,390,2025-05-23T22:00:59.941660
1012,1.1683,0.5422,0.3216,26.390,183.120,8.540,391,404,384,413,384,2025-05-23T22:00:59.941665
1013,0.9096,0.5578,0.3509,-36.750,79.310,-19.530,397,421,370,404,404,2025-05-23T22:01:00.142850
1014,0.5841,0.7286,0.3030,-60.410,-32.970,-52.500,402,419,374,413,391,2025-05-23T22:01:00.142881
1015,0.5178,0.7647,0.2777,-63.490,-102.480,-80.010,342,425,376,373,403,2025-05-23T22:01:00.142888
1016,0.5275,0.8979,0.2255,-82.390,-108.780,-100.170,329,403,374,390,372,2025-05-23T22:01:00.142894
1017,0.4372,0.9457,0.1835,-97.720,-52.990,-101.500,345,402,379,383,378,2025-05-23T22:01:00.142899
1018,0.2206,0.9121,0.2011,-97.720,10.220,-96.320,333,390,350,404,350,2025-05-23T22:01:00.142904
1019,0.0981,0.8696,0.1893,-83.860,45.500,-86.520,388,406,367,411,389,2025-05-23T22:01:00.142909
1020,-0.2811,0.8091,0.1610,-65.310,46.550,-65.800,404,411,375,395,382,2025-05-23T22:01:00.142914
1021,-0.5392,0.8965,0.2752,-51.520,5.110,-62.510,420,374,379,404,387,2025-05-23T22:01:00.142918
1022,-0.3455,1.0092,0.3353,-76.720,-99.960,-61.110,420,421,373,411,402,2025-05-23T22:01:00.142922
1023,-0.2279,1.0438,0.3274,-113.190,-200.760,-51.380,432,425,381,390,387,2025-05-23T22:01:00.142926
1024,-0.2250,1.0448,0.4211,-134.680,-229.880,-35.000,351,418,384,400,401,2025-05-23T22:01:00.142930
1025,-0.1118,1.0160,0.4436,-125.160,-194.110,-27.860,401,404,349,392,359,2025-05-23T22:01:00.142934
1026,-0.0278,0.9618,0.4704,-95.480,-133.770,-19.670,411,422,359,379,330,2025-05-23T22:01:00.142938
1027,0.0688,0.9277,0.4919,-77.420,-92.120,-14.560,395,419,363,385,375,2025-05-23T22:01:00.142962
1028,-0.0478,0.8955,0.5422,-61.880,-69.930,-5.530,418,419,371,404,397,2025-05-23T22:01:00.142966
1029,-0.0425,0.9272,0.5763,-62.300,-92.890,-2.100,421,408,370,412,390,2025-05-23T22:01:00.142970
1030,0.0400,0.9599,0.5524,-76.230,-127.680,-3.850,308,417,372,400,388,2025-05-23T22:01:00.190094
1031,0.0878,0.9321,0.5514,-77.910,-144.830,-7.560,392,407,372,368,383,2025-05-23T22:01:00.190138
1032,0.1547,0.9004,0.5495,-72.590,-143.780,-9.660,334,375,366,392,394,2025-05-23T22:01:00.190149
1033,0.3396,0.8452,0.5724,-57.890,-118.510,-10.850,393,332,364,348,347,2025-05-23T22:01:00.190348
1034,0.2089,0.8398,0.6159,-36.260,-80.360,-12.950,410,409,375,385,381,2025-05-23T22:01:00.240051
1035,0.2547,0.8774,0.5822,-23.520,-61.110,-16.030,428,434,386,417,401,2025-05-23T22:01:00.240114
1036,0.2679,0.8886,0.5412,-33.250,-63.000,-16.660,401,405,369,402,392,2025-05-23T22:01:00.240131
1037,0.1952,0.8965,0.5144,-56.840,-91.210,-23.380,377,398,388,390,408,2025-05-23T22:01:00.240147
1038,0.2572,0.8276,0.5031,-82.040,-113.680,-27.930,399,341,391,407,389,2025-05-23T22:01:00.289168
1039,0.2235,0.6710,0.4734,-84.700,-119.910,-21.490,406,397,378,416,313,2025-05-23T22:01:00.289212
1040,0.1401,0.7130,0.5144,-62.300,-117.740,-27.930,416,413,368,416,369,2025-05-23T22:01:00.289224
1041,0.3455,0.7857,0.5475,-39.830,-114.800,-34.370,387,406,382,415,388,2025-05-23T22:01:00.289234
1042,0.2782,0.8286,0.5632,-44.100,-108.500,-34.510,372,350,373,398,341,2025-05-23T22:01:00.532043
1043,0.2152,0.8574,0.6027,-41.230,-82.670,-31.640,394,370,377,405,382,2025-05-23T22:01:00.532089
1044,0.2440,0.8721,0.6222,-46.200,-58.170,-28.910,421,411,379,406,394,2025-05-23T22:01:00.532100
1045,0.2684,0.8613,0.6188,-59.080,-41.090,-31.150,379,394,377,412,387,2025-05-23T22:01:00.532111
1046,0.2879,0.7818,0.5793,-75.180,-23.800,-28.630,408,403,383,415,398,2025-05-23T22:01:00.532120
1047,0.1932,0.6486,0.5802,-70.490,-8.400,-14.000,424,402,348,356,306,2025-05-23T22:01:00.532130
1048,0.1801,0.6759,0.6378,-51.730,0.420,-18.550,398,413,360,371,375,2025-05-23T22:01:00.532141
1049,0.2401,0.7139,0.6754,-26.180,12.600,-26.670,400,416,386,396,385,2025-05-23T22:01:00.532151
1050,0.2250,0.7432,0.6837,-6.160,28.910,-28.910,422,432,349,348,367,2025-05-23T22:01:00.532161
1051,0.2250,0.7735,0.6661,0.280,55.230,-30.660,423,403,356,333,337,2025-05-23T22:01:00.532170
1052,0.1889,0.7632,0.6539,9.730,84.350,-32.760,417,414,372,385,375,2025-05-23T22:01:00.532180
1053,0.1298,0.7481,0.6515,25.690,96.320,-32.550,390,420,384,407,388,2025-05-23T22:01:00.532189
1054,0.0581,0.7632,0.6198,36.470,100.940,-33.250,420,405,380,381,381,2025-05-23T22:01:00.532198
1055,-0.0400,0.7925,0.6198,41.860,94.640,-32.830,409,396,334,410,403,2025-05-23T22:01:00.532207
1056,-0.2176,0.8184,0.6525,47.460,70.910,-27.720,396,422,370,412,404,2025-05-23T22:01:00.532249
1057,-0.1430,0.8735,0.6403,39.200,29.610,-24.220,351,343,379,404,406,2025-05-23T22:01:00.532257
1058,-0.0039,0.8667,0.5768,26.110,-7.070,-20.930,391,390,393,401,410,2025-05-23T22:01:00.532267
1059,0.1152,0.8467,0.5544,17.080,-14.420,-20.720,395,409,389,395,350,2025-05-23T22:01:00.532276
1060,0.2074,0.8286,0.5202,26.600,11.900,-21.490,394,405,389,406,389,2025-05-23T22:01:00.532284
1061,0.2269,0.7910,0.5124,52.430,68.110,-19.880,390,423,385,395,378,2025-05-23T22:01:00.532293
1062,0.2059,0.7984,0.5383,72.940,117.040,-22.960,418,409,376,408,395,2025-05-23T22:01:00.588251
1063,0.1913,0.8340,0.5197,82.460,150.430,-31.080,417,422,387,409,397,2025-05-23T22:01:00.588295
1064,0.0971,0.8481,0.4904,86.660,167.090,-42.210,347,421,386,419,401,2025-05-23T22:01:00.588306
1065,0.0264,0.8418,0.4387,90.860,181.300,-52.640,387,404,387,396,402,2025-05-23T22:01:00.588316
1066,-0.0005,0.8120,0.3899,98.630,198.380,-60.550,370,425,389,390,415,2025-05-23T22:01:00.588328
1067,-0.0020,0.8359,0.3972,111.160,214.620,-68.810,396,355,385,408,405,2025-05-23T22:01:00.749963
1068,-0.0068,0.8335,0.3792,118.650,241.990,-75.390,416,353,378,354,387,2025-05-23T22:01:00.750006
1069,-0.0888,0.8560,0.3870,124.740,268.030,-82.250,421,400,306,380,400,2025-05-23T22:01:00.750017
1070,-0.1435,0.8828,0.3538,137.550,308.910,-90.160,418,405,334,409,395,2025-05-23T22:01:00.750027
1071,-0.2538,0.8769,0.3089,143.500,330.820,-90.510,402,426,354,354,397,2025-05-23T22:01:00.750036
1072,-0.3958,0.8989,0.2655,168.070,347.900,-93.310,414,403,354,390,411,2025-05-23T22:01:00.750046
1073,-0.4309,0.9365,0.2040,171.920,345.030,-92.050,395,420,379,414,417,2025-05-23T22:01:00.750056
1074,-0.5378,0.9111,0.1352,158.410,314.720,-87.220,384,405,372,411,410,2025-05-23T22:01:00.750065
1075,-0.6339,0.9331,0.1161,156.310,279.930,-82.810,419,421,383,391,398,2025-05-23T22:01:00.750073
1076,-0.5915,0.9721,0.0942,152.530,229.460,-81.340,419,411,392,400,399,2025-05-23T22:01:00.750081
1077,-0.5397,0.9867,0.0781,136.150,171.990,-78.400,417,421,380,412,408,2025-05-23T22:01:00.750090
1078,-0.3758,0.9965,0.0698,114.940,130.340,-72.660,360,413,338,405,399,2025-05-23T22:01:00.750100
1079,-0.3631,0.9648,-0.0024,93.310,116.760,-63.000,379,414,353,407,390,2025-05-23T22:01:00.750108
1080,-0.4455,0.9121,-0.0264,92.330,128.030,-59.640,373,399,369,403,386,2025-05-23T22:01:00.750117
1081,-0.4968,0.9101,-0.0571,112.840,147.000,-59.360,410,409,363,404,388,2025-05-23T22:01:00.957042
1082,-0.5383,0.9130,-0.1459,122.570,155.400,-57.400,430,424,373,390,397,2025-05-23T22:01:00.957105
1083,-0.5490,0.8930,-0.1718,117.950,150.360,-56.700,397,411,370,403,404,2025-05-23T22:01:00.957120
1084,-0.5456,0.8613,-0.2352,100.380,127.190,-59.290,423,391,359,348,395,2025-05-23T22:01:00.957132
1085,-0.5139,0.8633,-0.2362,90.860,108.500,-59.080,420,418,364,355,384,2025-05-23T22:01:00.957145
1086,-0.5319,0.9013,-0.2089,87.780,104.370,-57.190,365,389,333,394,401,2025-05-23T22:01:00.957158
1087,-0.5773,0.9067,-0.1986,77.980,117.180,-55.160,394,417,317,397,400,2025-05-23T22:01:00.957169
1088,-0.5783,0.8706,-0.2757,64.610,116.410,-51.170,385,408,306,375,383,2025-05-23T22:01:00.957180
1089,-0.6154,0.8018,-0.3387,48.020,118.650,-41.860,383,344,315,403,401,2025-05-23T22:01:00.957189
1090,-0.6573,0.7569,-0.3772,52.220,109.270,-34.860,385,407,353,406,392,2025-05-23T22:01:00.957199
1091,-0.6481,0.7730,-0.3753,55.650,78.050,-25.760,427,346,369,391,400,2025-05-23T22:01:00.957211
1092,-0.5939,0.8013,-0.3855,59.360,49.560,-19.250,361,397,335,344,411,2025-05-23T22:01:00.957221
1093,-0.5305,0.7901,-0.4133,53.130,24.220,-13.860,406,352,364,391,405,2025-05-23T22:01:00.957231
1094,-0.4260,0.8457,-0.4099,47.110,-5.740,-7.980,403,391,375,390,413,2025-05-23T22:01:00.957247
1095,-0.5226,0.8111,-0.3919,37.730,26.670,-4.270,400,363,377,385,407,2025-05-23T22:01:00.957294
1096,-0.4973,0.7940,-0.4211,54.670,40.880,-1.400,403,412,387,389,392,2025-05-23T22:01:00.957305
1097,-0.4914,0.7788,-0.4548,48.860,32.550,3.010,377,387,370,359,404,2025-05-23T22:01:00.957314
1098,-0.4807,0.8081,-0.4846,39.410,29.330,8.610,347,383,371,399,410,2025-05-23T22:01:01.158253
1099,-0.5114,0.7535,-0.5212,18.480,24.360,12.040,397,399,363,386,357,2025-05-23T22:01:01.158298
1100,-0.4792,0.7271,-0.5202,38.360,51.380,15.540,412,406,342,396,336,2025-05-23T22:01:01.158309
1101,-0.4270,0.7535,-0.5192,32.270,28.980,15.190,429,393,351,389,372,2025-05-23T22:01:01.158319
1102,-0.4114,0.7725,-0.4943,11.130,7.280,14.210,426,416,362,403,386,2025-05-23T22:01:01.158330
1103,-0.4372,0.7291,-0.5285,6.510,3.640,13.930,406,374,376,398,406,2025-05-23T22:01:01.158339
1104,-0.4382,0.7286,-0.5207,3.360,5.250,12.810,401,401,378,406,410,2025-05-23T22:01:01.158350
1105,-0.4006,0.7383,-0.5114,2.030,9.590,11.270,402,400,380,411,395,2025-05-23T22:01:01.158361
1106,-0.4299,0.7335,-0.5119,2.450,19.040,11.340,411,420,354,396,389,2025-05-23T22:01:01.158370
1107,-0.4548,0.7452,-0.4997,7.490,22.750,10.850,419,405,366,394,405,2025-05-23T22:01:01.158379
1108,-0.4568,0.7447,-0.5226,4.830,21.490,11.060,418,410,341,391,405,2025-05-23T22:01:01.158388
1109,-0.4060,0.7413,-0.5217,0.770,15.540,11.550,423,407,354,413,390,2025-05-23T22:01:01.158396
1110,-0.3938,0.7788,-0.5007,-5.460,16.310,12.180,395,420,369,416,386,2025-05-23T22:01:01.158410
1111,-0.4490,0.7847,-0.4792,-7.350,20.090,11.550,425,423,376,416,400,2025-05-23T22:01:01.158418
1112,-0.4343,0.7779,-0.4802,-5.740,25.970,10.570,403,402,343,411,397,2025-05-23T22:01:01.158458
1113,-0.4299,0.7803,-0.4773,-1.610,29.260,9.590,428,365,363,405,383,2025-05-23T22:01:01.158467
1114,-0.4055,0.7852,-0.4836,-4.340,30.730,8.890,425,392,380,376,353,2025-05-23T22:01:01.158475
1115,-0.3919,0.7662,-0.4846,-7.630,23.590,9.170,421,335,381,395,388,2025-05-23T22:01:01.364296
1116,-0.4124,0.7876,-0.4841,-5.460,16.030,9.380,418,358,386,396,389,2025-05-23T22:01:01.364361
1117,-0.4016,0.7847,-0.5017,-5.530,12.250,8.960,346,410,354,391,385,2025-05-23T22:01:01.364519
1118,-0.3943,0.7920,-0.5041,-1.820,15.330,8.190,384,409,356,367,398,2025-05-23T22:01:01.364534
1119,-0.3992,0.8023,-0.5022,-5.740,17.500,8.610,416,409,366,345,397,2025-05-23T22:01:01.364547
1120,-0.4060,0.7998,-0.5051,-8.260,20.580,9.240,344,402,369,379,398,2025-05-23T22:01:01.364561
1121,-0.4480,0.7383,-0.5485,-6.370,21.000,9.870,400,400,365,410,412,2025-05-23T22:01:01.364576
1122,-0.3172,0.7369,-0.5334,-4.200,10.710,9.240,376,396,373,389,387,2025-05-23T22:01:01.364591
1123,-0.3133,0.7730,-0.5192,-6.300,11.060,9.450,382,365,365,399,343,2025-05-23T22:01:01.364604
1124,-0.4914,0.7920,-0.5085,-10.990,16.800,7.560,380,414,349,412,342,2025-05-23T22:01:01.364616
1125,-0.3914,0.7930,-0.5002,-6.090,23.730,5.180,385,425,368,396,384,2025-05-23T22:01:01.364628
1126,-0.3723,0.7993,-0.5056,-3.150,33.460,6.650,411,426,365,417,401,2025-05-23T22:01:01.364639
1127,-0.3226,0.8032,-0.5061,-9.100,29.120,7.350,343,345,373,414,394,2025-05-23T22:01:01.364650
1128,-0.3309,0.7964,-0.5104,-14.490,26.810,7.840,388,361,382,315,383,2025-05-23T22:01:01.364661
1129,-0.3543,0.7696,-0.5280,-17.360,24.780,7.630,384,408,383,380,404,2025-05-23T22:01:01.364713
1130,-0.3523,0.7486,-0.5344,-16.520,20.160,7.070,389,407,374,411,352,2025-05-23T22:01:01.364727
1131,-0.3167,0.7540,-0.5275,-12.180,17.500,9.030,415,388,348,357,393,2025-05-23T22:01:01.364739
1132,-0.3709,0.7803,-0.5144,-11.340,15.330,9.940,390,427,356,387,388,2025-05-23T22:01:01.567956
1133,-0.3426,0.7989,-0.4982,-7.420,17.500,8.820,344,365,364,386,406,2025-05-23T22:01:01.568005
1134,-0.3231,0.8242,-0.4914,-6.370,22.330,10.220,402,418,340,392,402,2025-05-23T22:01:01.568019
1135,-0.2908,0.8140,-0.5031,-13.860,19.320,9.800,413,348,322,358,399,2025-05-23T22:01:01.568030
1136,-0.2786,0.8018,-0.5100,-15.820,15.470,8.750,399,403,345,336,398,2025-05-23T22:01:01.568040
1137,-0.2860,0.8086,-0.4978,-18.340,18.060,8.190,400,403,325,361,392,2025-05-23T22:01:01.568049
1138,-0.3060,0.8130,-0.4968,-19.390,26.740,6.230,353,403,356,348,389,2025-05-23T22:01:01.568061
1139,-0.2757,0.8115,-0.4953,-13.300,39.760,5.390,402,431,363,386,354,2025-05-23T22:01:01.568071
1140,-0.2957,0.8330,-0.4904,-10.920,48.790,5.880,383,395,367,382,394,2025-05-23T22:01:01.568081
1141,-0.2967,0.8115,-0.5051,-15.120,46.060,6.020,393,400,385,402,416,2025-05-23T22:01:01.568090
1142,-0.3123,0.8062,-0.5100,-17.220,34.650,6.300,418,421,387,413,401,2025-05-23T22:01:01.568099
1143,-0.2977,0.8115,-0.4821,-16.870,22.120,7.700,401,400,356,396,355,2025-05-23T22:01:01.568108
1144,-0.2723,0.8174,-0.4895,-18.270,11.130,10.150,394,370,364,396,379,2025-05-23T22:01:01.568117
1145,-0.2879,0.8018,-0.4856,-19.320,3.220,10.360,388,415,371,349,380,2025-05-23T22:01:01.568125
1146,-0.2640,0.7876,-0.4919,-12.670,1.750,9.450,344,370,367,378,382,2025-05-23T22:01:01.568168
1147,-0.2508,0.7891,-0.4939,-5.880,1.400,8.330,403,411,377,383,398,2025-05-23T22:01:01.568178
1148,-0.2664,0.8091,-0.4953,-4.130,0.070,7.490,403,415,370,397,405,2025-05-23T22:01:01.568187
1149,-0.2596,0.8203,-0.4875,-0.490,1.610,5.250,427,413,360,401,407,2025-05-23T22:01:01.775465
1150,-0.2328,0.8306,-0.4870,-2.660,-1.540,4.130,423,420,374,415,396,2025-05-23T22:01:01.775514
1151,-0.2303,0.8218,-0.4919,-5.530,-4.410,4.060,374,354,383,390,406,2025-05-23T22:01:01.775528
1152,-0.2172,0.8194,-0.4919,-7.980,-4.410,4.340,391,412,342,408,377,2025-05-23T22:01:01.775538
1153,-0.2284,0.8169,-0.4856,-9.870,-1.820,3.990,414,409,355,411,382,2025-05-23T22:01:01.775548
1154,-0.2635,0.8057,-0.4914,-6.020,2.520,2.730,422,424,361,409,380,2025-05-23T22:01:01.775558
1155,-0.2621,0.8042,-0.4856,-0.490,1.750,0.770,303,420,378,352,358,2025-05-23T22:01:01.775568
1156,-0.2533,0.8311,-0.4870,0.980,-2.730,0.210,342,402,384,404,391,2025-05-23T22:01:01.775577
1157,-0.2689,0.8433,-0.4865,-0.210,-5.110,-0.070,395,421,392,383,403,2025-05-23T22:01:01.775586
1158,-0.2913,0.8330,-0.4919,1.820,-5.670,-0.070,408,427,373,401,401,2025-05-23T22:01:01.775595
1159,-0.2860,0.8545,-0.4924,0.770,-8.400,1.470,418,369,378,414,417,2025-05-23T22:01:01.775604
1160,-0.2835,0.8564,-0.4719,-1.680,-13.720,3.640,411,392,353,396,406,2025-05-23T22:01:01.775613
1161,-0.2684,0.8486,-0.4636,-7.140,-16.660,6.510,414,391,362,414,402,2025-05-23T22:01:01.775621
1162,-0.2972,0.8408,-0.4573,-10.220,-20.720,8.330,430,403,375,394,386,2025-05-23T22:01:01.775630
1163,-0.3299,0.8286,-0.4504,-9.520,-29.120,10.990,424,420,386,370,402,2025-05-23T22:01:01.775670
1164,-0.3440,0.8130,-0.4743,-10.290,-41.300,11.340,427,433,371,398,400,2025-05-23T22:01:01.775680
1165,-0.3616,0.8320,-0.4704,-5.390,-44.380,7.560,422,432,368,371,404,2025-05-23T22:01:01.775690
1166,-0.3260,0.8608,-0.4714,-3.290,-42.280,7.420,379,431,368,396,408,2025-05-23T22:01:01.990231
1167,-0.3065,0.8701,-0.4660,-1.680,-47.250,10.080,296,419,335,413,388,2025-05-23T22:01:01.990286
1168,-0.2708,0.8716,-0.4758,-6.720,-51.240,11.130,386,418,364,353,380,2025-05-23T22:01:01.990300
1169,-0.2840,0.8799,-0.4748,-9.240,-46.480,10.360,398,433,379,396,307,2025-05-23T22:01:01.990313
1170,-0.2416,0.8662,-0.4768,-11.970,-38.780,12.880,403,415,363,404,366,2025-05-23T22:01:01.990325
1171,-0.2601,0.8857,-0.4924,-19.250,-33.460,12.460,349,417,363,416,396,2025-05-23T22:01:01.990337
1172,-0.2528,0.8862,-0.4939,-27.440,-24.780,12.950,388,426,377,427,385,2025-05-23T22:01:01.990348
1173,-0.2967,0.8418,-0.5344,-28.840,-0.420,12.320,412,432,382,420,347,2025-05-23T22:01:01.990359
1174,-0.3089,0.8398,-0.5280,-30.310,-14.210,9.380,408,433,381,395,368,2025-05-23T22:01:01.990375
1175,-0.2826,0.8477,-0.5256,-31.570,-17.920,6.510,408,430,376,371,389,2025-05-23T22:01:01.990385
1176,-0.2591,0.8735,-0.5207,-40.390,-26.600,4.130,392,428,368,396,395,2025-05-23T22:01:01.990396
1177,-0.2313,0.8891,-0.4782,-42.700,-21.840,3.360,403,343,362,352,354,2025-05-23T22:01:01.990406
1178,-0.2757,0.8843,-0.4724,-38.640,-9.030,6.300,400,389,363,377,385,2025-05-23T22:01:01.990416
1179,-0.3372,0.9116,-0.4607,-38.080,0.770,9.450,426,419,380,410,383,2025-05-23T22:01:01.990427
1180,-0.3767,0.8945,-0.4670,-43.750,-3.430,10.290,415,419,373,411,395,2025-05-23T22:01:01.990476
1181,-0.3470,0.8721,-0.4499,-49.280,-12.530,12.250,417,428,372,412,399,2025-05-23T22:01:01.990487
1182,-0.3138,0.8701,-0.4368,-47.460,-21.280,14.140,346,431,371,401,412,2025-05-23T22:01:01.990499
1183,-0.2362,0.9252,-0.3772,-70.350,-53.410,16.660,328,437,377,391,394,2025-05-23T22:01:01.990513
1184,-0.2284,0.9638,-0.3504,-78.960,-65.380,13.510,388,430,345,405,401,2025-05-23T22:01:02.185155
1185,-0.2157,0.9116,-0.3504,-76.510,-72.730,10.430,390,400,366,371,347,2025-05-23T22:01:02.185218
1186,-0.2850,0.9048,-0.4280,-72.240,-37.170,13.580,341,410,372,389,369,2025-05-23T22:01:02.185236
1187,-0.2899,0.8579,-0.3436,-74.900,-14.560,16.100,380,410,386,349,394,2025-05-23T22:01:02.185249
1188,-0.3128,0.9067,-0.2913,-68.460,-9.030,17.150,297,419,381,400,368,2025-05-23T22:01:02.185262
1189,-0.2884,0.9145,-0.2411,-64.050,-27.300,14.000,368,423,383,400,398,2025-05-23T22:01:02.185327
1190,-0.2738,0.9130,-0.2420,-75.740,-52.570,10.500,401,350,384,371,347,2025-05-23T22:01:02.185439
1191,-0.2528,0.9248,-0.2147,-81.830,-59.360,8.820,421,399,383,378,372,2025-05-23T22:01:02.185456
1192,-0.2250,0.9238,-0.2069,-80.570,-56.910,7.770,422,348,376,405,390,2025-05-23T22:01:02.185468
1193,-0.2269,0.8999,-0.2157,-72.380,-50.820,8.960,351,324,375,393,402,2025-05-23T22:01:02.185534
1194,-0.2118,0.8882,-0.2147,-62.230,-35.770,14.490,378,401,378,366,346,2025-05-23T22:01:02.185554
1195,-0.2499,0.9018,-0.1815,-54.110,-21.910,16.730,382,347,379,401,368,2025-05-23T22:01:02.185565
1196,-0.2669,0.9096,-0.1474,-45.220,-13.790,15.680,421,381,374,418,401,2025-05-23T22:01:02.185576
1197,-0.2938,0.9394,-0.1078,-32.480,-15.400,14.070,419,333,380,419,404,2025-05-23T22:01:02.185586
1198,-0.3348,0.9453,-0.0908,-30.240,-24.500,14.210,359,404,388,421,404,2025-05-23T22:01:02.185645
1199,-0.3533,0.9575,-0.0698,-27.370,-41.580,14.980,390,434,378,406,408,2025-05-23T22:01:02.185657
1200,-0.2933,0.9531,-0.0439,-27.790,-59.710,15.400,297,421,387,386,376,2025-05-23T22:01:02.389035
1201,-0.2499,0.9599,-0.0386,-37.380,-71.190,15.330,406,412,387,384,386,2025-05-23T22:01:02.405252
1202,-0.1879,0.9638,0.1137,-65.730,-84.980,5.530,416,433,386,363,398,2025-05-23T22:01:02.405383
1203,-0.1566,0.9321,0.0200,-49.140,-18.550,16.940,431,420,341,369,404,2025-05-23T22:01:02.405397
1204,-0.2347,0.9116,-0.0732,-17.570,-10.920,16.380,429,427,361,401,396,2025-05-23T22:01:02.405408
1205,-0.2660,0.9243,-0.0761,-6.090,-1.540,22.190,352,387,371,400,410,2025-05-23T22:01:02.405417
1206,-0.2869,0.9560,-0.0547,1.190,-13.440,22.610,404,401,379,413,420,2025-05-23T22:01:02.405427
1207,-0.3030,1.0224,0.0176,-12.180,-38.920,22.260,414,427,372,406,396,2025-05-23T22:01:02.405435
1208,-0.2533,1.0336,0.0322,-23.240,-61.880,22.400,416,421,371,405,388,2025-05-23T22:01:02.405443
1209,-0.2225,1.0111,0.0078,-29.400,-75.460,22.260,379,393,378,398,388,2025-05-23T22:01:02.405452
1210,-0.1928,1.0087,-0.0683,-45.500,-75.950,22.680,392,378,373,405,397,2025-05-23T22:01:02.405460
1211,-0.1737,0.9643,-0.1074,-66.570,-74.270,25.270,392,365,374,376,409,2025-05-23T22:01:02.405468
1212,-0.2113,0.9331,-0.1293,-68.810,-64.260,23.450,389,396,372,386,410,2025-05-23T22:01:02.405475
1213,-0.2313,0.9521,-0.0327,-37.660,-26.810,18.340,416,422,340,381,390,2025-05-23T22:01:02.405483
1214,-0.2133,1.0204,0.0078,-23.380,-17.080,15.330,412,381,350,401,384,2025-05-23T22:01:02.405537
1215,-0.1996,0.9770,-0.0102,-34.580,-20.930,16.590,365,415,361,398,408,2025-05-23T22:01:02.405546
1216,-0.0937,0.9784,0.0630,-55.090,-8.400,24.430,293,394,374,407,397,2025-05-23T22:01:02.405554
1217,-0.1840,1.0067,-0.0020,-49.980,15.190,27.650,367,337,354,392,373,2025-05-23T22:01:02.594821
1218,-0.2713,0.9545,-0.0361,-24.290,27.930,25.480,387,370,335,379,392,2025-05-23T22:01:02.594870
1219,-0.2362,0.9965,-0.0005,-27.860,40.950,32.970,416,364,324,300,345,2025-05-23T22:01:02.594883
1220,-0.1884,1.0194,0.0639,-15.540,5.390,25.130,418,399,353,357,375,2025-05-23T22:01:02.594895
1221,-0.1991,1.0472,0.0708,-12.250,-7.280,21.840,415,416,335,370,398,2025-05-23T22:01:02.594905
1222,-0.2206,1.0458,0.0922,-10.080,-13.860,22.190,392,366,322,405,349,2025-05-23T22:01:02.594914
1223,-0.2381,1.0126,0.0644,-9.660,-2.450,23.870,336,387,339,392,390,2025-05-23T22:01:02.594926
1224,-0.2137,1.1200,0.0922,-5.180,-2.240,24.920,414,423,366,397,392,2025-05-23T22:01:02.594937
1225,-0.1610,1.0307,0.1108,-4.970,-8.610,25.200,436,427,365,409,404,2025-05-23T22:01:02.594946
1226,-0.1371,1.0277,0.1030,-8.260,-17.150,23.100,427,419,376,399,404,2025-05-23T22:01:02.594955
1227,-0.1337,1.0214,0.0961,-10.990,-22.190,23.520,424,371,378,414,418,2025-05-23T22:01:02.594964
1228,-0.1586,1.0063,0.0649,-1.330,-11.200,27.090,431,395,367,392,358,2025-05-23T22:01:02.594973
1229,-0.1503,0.9975,0.0791,3.570,-20.090,28.910,429,387,365,381,371,2025-05-23T22:01:02.594982
1230,-0.1118,1.0185,0.0981,12.670,-21.420,29.330,414,418,367,399,391,2025-05-23T22:01:02.594990
1231,-0.1005,1.0560,0.1225,1.820,-39.620,29.610,408,433,363,408,406,2025-05-23T22:01:02.595034
1232,-0.0864,1.0277,0.0937,-1.330,-39.760,29.610,400,309,362,399,413,2025-05-23T22:01:02.595044
1233,-0.0854,1.0175,0.0732,-8.260,-37.310,29.120,389,383,382,422,361,2025-05-23T22:01:02.595053
1234,-0.0669,0.9994,0.0610,-5.180,-29.960,25.760,410,427,369,403,370,2025-05-23T22:01:02.647770
1235,-0.0508,0.9809,0.0464,-6.650,-28.350,22.540,407,401,377,391,395,2025-05-23T22:01:02.647815
1236,-0.0493,0.9599,0.0366,-11.060,-33.810,20.090,392,426,380,409,392,2025-05-23T22:01:02.647827
1237,-0.0752,0.9267,0.0415,-9.380,-40.740,19.530,415,400,337,387,379,2025-05-23T22:01:02.647837
1238,-0.0537,0.9204,0.0561,-2.520,-45.920,18.970,424,361,360,396,341,2025-05-23T22:01:02.808742
1239,-0.0322,0.9443,0.0737,2.100,-48.930,16.310,396,366,361,405,370,2025-05-23T22:01:02.808790
1240,-0.0010,0.9560,0.1093,3.640,-47.250,16.520,420,339,368,369,389,2025-05-23T22:01:02.808803
1241,-0.0137,0.9775,0.0966,4.970,-41.650,18.340,421,415,365,402,402,2025-05-23T22:01:02.808814
1242,-0.0415,0.9706,0.0810,2.800,-31.780,18.200,420,367,375,351,400,2025-05-23T22:01:02.808824
1243,-0.0610,0.9662,0.0727,-2.030,-27.580,16.660,375,382,378,393,354,2025-05-23T22:01:02.808834
1244,-0.0605,0.9594,0.0576,-7.070,-32.060,14.630,385,414,381,410,338,2025-05-23T22:01:02.808844
1245,-0.0688,0.9492,0.0425,-9.730,-36.960,13.300,424,403,383,390,388,2025-05-23T22:01:02.808854
1246,-0.0781,0.9306,0.0200,-10.430,-35.420,14.420,429,414,390,410,359,2025-05-23T22:01:02.808863
1247,-0.0761,0.9384,0.0317,-6.510,-28.560,14.280,425,418,389,395,376,2025-05-23T22:01:02.808872
1248,-0.0512,0.9467,0.0556,-0.910,-22.960,12.390,404,349,389,383,389,2025-05-23T22:01:02.808881
1249,-0.0220,0.9623,0.0703,1.820,-17.710,11.760,421,377,390,409,346,2025-05-23T22:01:02.808890
1250,-0.0161,0.9775,0.0834,0.070,-12.600,12.320,415,392,385,409,378,2025-05-23T22:01:02.808900
1251,-0.0200,0.9799,0.0805,-1.400,-6.650,12.110,423,421,376,355,372,2025-05-23T22:01:02.808909
1252,-0.0205,0.9750,0.0781,1.260,-3.080,10.080,404,409,360,386,387,2025-05-23T22:01:02.870673
1253,-0.0034,0.9789,0.0717,1.610,-3.640,8.330,396,372,375,382,398,2025-05-23T22:01:02.870706
1254,-0.0215,0.9672,0.0566,-0.980,-4.970,7.490,343,337,363,390,412,2025-05-23T22:01:02.870714
1255,-0.0371,0.9697,0.0688,-0.210,-6.650,8.190,392,413,365,390,351,2025-05-23T22:01:02.870721
1256,-0.0268,0.9784,0.0874,1.050,-10.640,8.890,393,399,372,359,378,2025-05-23T22:01:03.004901
1257,-0.0244,0.9770,0.0869,2.380,-14.910,7.420,422,425,366,393,400,2025-05-23T22:01:03.004948
1258,0.0122,0.9970,0.0908,2.170,-13.650,5.110,366,388,382,407,407,2025-05-23T22:01:03.004961
1259,0.0254,1.0038,0.1088,-1.960,-10.710,3.500,410,402,378,356,372,2025-05-23T22:01:03.004973
1260,0.0346,0.9902,0.1000,-2.310,-6.370,2.590,411,420,385,395,380,2025-05-23T22:01:03.004984
1261,0.0088,0.9814,0.1000,-0.770,0.070,1.330,425,419,377,397,383,2025-05-23T22:01:03.004994
