SeqNum,AccX,AccY,AccZ,GyroX,GyroY,GyroZ,Flex,Force1,Force2,Force3,Force4,TimestampReception
6279,-1.0058,0.0571,-0.0342,-0.525,-1.925,2.065,0.01,0.0368,0.0508,0.0200,0.0087,2025-06-09T13:58:39.786891
6280,-0.6720,0.5251,0.5978,90.335,-30.695,-57.785,0.00,0.0184,0.0508,0.0200,0.0174,2025-06-09T13:58:39.786891
6281,-0.6739,0.5324,0.5919,88.165,-31.850,-55.265,0.00,0.0368,0.0254,0.0200,0.0174,2025-06-09T13:58:39.786891
6282,-0.6651,0.5388,0.5841,85.365,-31.815,-52.710,0.00,0.0368,0.0254,0.0200,0.0087,2025-06-09T13:58:39.786891
6283,-0.6598,0.5485,0.5822,83.265,-30.940,-49.840,0.00,0.0184,0.0254,0.0200,0.0087,2025-06-09T13:58:39.786891
6284,-0.6666,0.5583,0.5773,80.290,-30.205,-47.495,0.00,0.0368,0.0254,0.0100,0.0174,2025-06-09T13:58:39.786891
6285,-0.6749,0.5710,0.5758,78.260,-30.275,-44.975,0.00,0.0368,0.0254,0.0100,0.0000,2025-06-09T13:58:39.786891
6286,-0.6681,0.5802,0.5705,75.705,-29.470,-43.085,0.00,0.0184,0.0254,0.0100,0.0174,2025-06-09T13:58:39.786891
6287,-0.6637,0.5880,0.5695,73.255,-27.860,-40.495,0.00,0.0184,0.0508,0.0100,0.0174,2025-06-09T13:58:39.900586
6288,-0.6617,0.5876,0.5563,69.860,-25.515,-38.080,0.00,0.0184,0.0254,0.0200,0.0087,2025-06-09T13:58:39.900586
6289,-0.6573,0.5963,0.5275,66.710,-23.695,-35.210,0.00,0.0184,0.0254,0.0200,0.0087,2025-06-09T13:58:39.900586
6290,-0.6661,0.6207,0.5056,63.735,-20.685,-31.780,0.01,0.0368,0.0508,0.0200,0.0174,2025-06-09T13:58:39.900586
6291,-0.7042,0.6603,0.4778,59.605,-17.955,-30.275,0.00,0.0184,0.0508,0.0100,0.0174,2025-06-09T13:58:39.950478
6292,-0.7740,0.7222,0.4626,54.915,-13.580,-31.605,0.01,0.0368,0.0254,0.0200,0.0087,2025-06-09T13:58:39.950478
6293,-0.9008,0.7564,0.4773,47.145,-10.885,-34.825,0.01,0.0368,0.0508,0.0100,0.0174,2025-06-09T13:58:39.950478
6294,-1.0775,0.7056,0.4846,40.320,-16.345,-36.820,0.00,0.0368,0.0508,0.0100,0.0087,2025-06-09T13:58:39.950478
6295,-1.1395,0.6183,0.4802,34.685,-27.545,-33.110,0.01,0.0368,0.0254,0.0200,0.0174,2025-06-09T13:58:39.950478
6296,-1.0663,0.5544,0.4753,32.130,-37.695,-23.240,0.00,0.0184,0.0508,0.0200,0.0087,2025-06-09T13:58:39.950478
6297,-0.9960,0.5456,0.4543,30.135,-43.960,-14.035,0.01,0.0368,0.0508,0.0200,0.0174,2025-06-09T13:58:39.950478
6298,-0.9213,0.5788,0.4046,28.700,-44.730,-7.560,0.00,0.0184,0.0508,0.0200,0.0087,2025-06-09T13:58:39.950478
6299,-0.8452,0.6281,0.3850,26.845,-41.440,-6.090,0.00,0.0184,0.0508,0.0100,0.0087,2025-06-09T13:58:39.998349
6300,-0.8516,0.6964,0.3904,25.900,-37.975,-7.805,0.01,0.0184,0.0508,0.0200,0.0174,2025-06-09T13:58:39.998349
6301,-0.9262,0.7091,0.3938,25.270,-38.185,-12.775,0.00,0.0368,0.0508,0.0100,0.0087,2025-06-09T13:58:39.998349
6302,-0.9911,0.6866,0.4182,25.690,-43.155,-17.185,0.01,0.0184,0.0254,0.0100,0.0087,2025-06-09T13:58:40.100052
6303,-1.0092,0.6159,0.4416,28.105,-52.255,-20.475,0.01,0.0368,0.0254,0.0200,0.0087,2025-06-09T13:58:40.100052
6304,-0.9438,0.5539,0.4255,30.870,-58.450,-21.105,0.01,0.0368,0.0508,0.0100,0.0087,2025-06-09T13:58:40.100052
6305,-0.7774,0.4880,0.3889,33.530,-56.980,-20.510,0.00,0.0368,0.0254,0.0200,0.0174,2025-06-09T13:58:40.100052
6306,-0.5871,0.4641,0.3514,34.895,-45.080,-19.810,0.01,0.0184,0.0508,0.0200,0.0087,2025-06-09T13:58:40.100052
6307,-0.4182,0.4709,0.3250,34.650,-19.950,-19.810,0.00,0.0184,0.0254,0.0100,0.0087,2025-06-09T13:58:40.100052
6308,-0.3728,0.4812,0.2928,32.550,1.365,-21.140,0.00,0.0368,0.0000,0.0100,0.0087,2025-06-09T13:58:40.100052
6309,-0.3782,0.4948,0.2694,30.800,14.980,-23.345,0.01,0.0368,0.0508,0.0100,0.0174,2025-06-09T13:58:40.198830
6310,-0.4124,0.5090,0.2533,27.300,22.855,-25.235,0.01,0.0368,0.0254,0.0100,0.0087,2025-06-09T13:58:40.198830
6311,-0.4831,0.5202,0.2489,24.010,21.385,-27.440,0.00,0.0368,0.0254,0.0200,0.0087,2025-06-09T13:58:40.198830
6312,-0.5612,0.5295,0.2420,20.230,12.040,-29.085,0.00,0.0184,0.0254,0.0200,0.0174,2025-06-09T13:58:40.198830
6313,-0.6481,0.5378,0.2484,17.010,-5.075,-31.500,0.01,0.0184,0.0508,0.0100,0.0174,2025-06-09T13:58:40.198830
6314,-0.6978,0.5392,0.2489,13.440,-20.510,-33.250,0.01,0.0184,0.0254,0.0100,0.0000,2025-06-09T13:58:40.198830
6315,-0.7232,0.5226,0.2528,10.955,-32.060,-35.035,0.00,0.0184,0.0254,0.0100,0.0087,2025-06-09T13:58:40.198830
6316,-0.7496,0.4909,0.2518,7.945,-37.380,-35.245,0.00,0.0368,0.0254,0.0200,0.0087,2025-06-09T13:58:40.198830
6317,-0.7828,0.4509,0.2538,7.910,-38.885,-33.320,0.01,0.0368,0.0508,0.0200,0.0174,2025-06-09T13:58:40.253839
6318,-0.7793,0.4280,0.2616,9.310,-36.855,-29.015,0.01,0.0184,0.0508,0.0200,0.0087,2025-06-09T13:58:40.253839
6319,-0.7569,0.4187,0.2767,10.710,-29.855,-25.200,0.01,0.0184,0.0254,0.0100,0.0087,2025-06-09T13:58:40.253839
6320,-0.6998,0.4260,0.2796,12.110,-15.190,-22.120,0.00,0.0184,0.0254,0.0100,0.0087,2025-06-09T13:58:40.253839
6321,-0.6788,0.4499,0.2830,13.720,0.665,-21.700,0.01,0.0368,0.0254,0.0200,0.0087,2025-06-09T13:58:40.407428
6322,-0.6866,0.4714,0.2962,14.350,18.830,-23.800,0.00,0.0184,0.0508,0.0200,0.0174,2025-06-09T13:58:40.407428
6323,-0.7647,0.4953,0.3289,14.945,24.710,-26.250,0.01,0.0184,0.0508,0.0100,0.0174,2025-06-09T13:58:40.407428
6324,-0.8545,0.5085,0.3699,15.260,22.330,-29.225,0.01,0.0368,0.0254,0.0200,0.0087,2025-06-09T13:58:40.407428
6325,-0.9160,0.5036,0.4080,14.945,11.305,-30.870,0.00,0.0368,0.0508,0.0200,0.0174,2025-06-09T13:58:40.407428
6326,-0.9321,0.4943,0.4304,15.645,-0.490,-31.815,0.00,0.0184,0.0254,0.0200,0.0000,2025-06-09T13:58:40.407428
6327,-0.8979,0.4792,0.4485,15.925,-9.170,-32.410,0.00,0.0184,0.0254,0.0000,0.0087,2025-06-09T13:58:40.407428
6328,-0.8745,0.4651,0.4656,17.115,-11.970,-32.585,0.00,0.0184,0.0254,0.0100,0.0087,2025-06-09T13:58:40.407428
6329,-0.8345,0.4470,0.4836,19.285,-12.635,-32.410,0.00,0.0184,0.0254,0.0100,0.0087,2025-06-09T13:58:40.407428
6330,-0.7901,0.4377,0.4875,22.330,-10.675,-32.165,0.00,0.0184,0.0508,0.0100,0.0087,2025-06-09T13:58:40.407428
6331,-0.7574,0.4372,0.5022,25.375,-8.260,-32.900,0.00,0.0184,0.0508,0.0200,0.0174,2025-06-09T13:58:40.407428
6332,-0.7891,0.4856,0.5207,27.965,-6.545,-36.260,0.00,0.0368,0.0508,0.0200,0.0174,2025-06-09T13:58:40.473251
6333,-0.8721,0.5075,0.5597,28.420,-13.475,-42.105,0.00,0.0184,0.0254,0.0100,0.0087,2025-06-09T13:58:40.473251
6334,-0.9111,0.5031,0.5822,30.310,-24.570,-46.410,0.00,0.0184,0.0508,0.0200,0.0087,2025-06-09T13:58:40.473251
6335,-0.9423,0.4929,0.6007,31.045,-35.455,-50.050,0.00,0.0184,0.0254,0.0200,0.0087,2025-06-09T13:58:40.473251
6336,-0.9428,0.4753,0.5988,30.170,-47.635,-52.255,0.00,0.0184,0.0254,0.0100,0.0087,2025-06-09T13:58:40.473251
6337,-0.9204,0.4294,0.5705,29.820,-54.110,-52.220,0.01,0.0368,0.0508,0.0200,0.0087,2025-06-09T13:58:40.607891
6338,-0.8847,0.4202,0.5578,29.155,-57.575,-49.980,0.01,0.0184,0.0254,0.0100,0.0087,2025-06-09T13:58:40.607891
6339,-0.9008,0.4738,0.5475,29.890,-58.730,-48.160,0.01,0.0184,0.0508,0.0200,0.0087,2025-06-09T13:58:40.607891
6340,-1.0433,0.5612,0.5656,29.715,-58.345,-51.275,0.00,0.0184,0.0508,0.0100,0.0087,2025-06-09T13:58:40.607891
6341,-1.2454,0.5348,0.6242,26.425,-62.230,-58.660,0.01,0.0184,0.0254,0.0200,0.0174,2025-06-09T13:58:40.607891
6342,-1.2995,0.4075,0.6217,25.200,-74.270,-63.525,0.01,0.0184,0.0508,0.0100,0.0087,2025-06-09T13:58:40.607891
6343,-1.1614,0.2733,0.5597,31.255,-80.360,-58.975,0.01,0.0184,0.0508,0.0200,0.0087,2025-06-09T13:58:40.607891
6344,-0.8359,0.1825,0.5026,35.840,-71.645,-46.235,0.00,0.0184,0.0254,0.0200,0.0000,2025-06-09T13:58:40.607891
6345,-0.5866,0.1932,0.4875,38.745,-39.550,-34.720,0.00,0.0184,0.0254,0.0100,0.0087,2025-06-09T13:58:40.607891
6346,-0.4831,0.2694,0.5031,34.615,-2.030,-25.550,0.00,0.0184,0.0254,0.0100,0.0174,2025-06-09T13:58:40.607891
6347,-0.5866,0.3231,0.5187,24.990,34.405,-21.665,0.01,0.0368,0.0508,0.0200,0.0087,2025-06-09T13:58:40.661752
6348,-0.7188,0.3235,0.5480,17.220,47.740,-18.585,0.00,0.0368,0.0254,0.0100,0.0087,2025-06-09T13:58:40.661752
6349,-0.9433,0.2806,0.5934,7.840,41.965,-15.330,0.00,0.0368,0.0508,0.0200,0.0087,2025-06-09T13:58:40.661752
6350,-1.1151,0.1923,0.6285,2.835,20.755,-12.250,0.01,0.0368,0.0254,0.0100,0.0174,2025-06-09T13:58:40.661752
6351,-1.2127,0.1127,0.6290,1.785,-15.330,-9.800,0.01,0.0368,0.0254,0.0100,0.0174,2025-06-09T13:58:40.813346
6352,-1.0941,0.0688,0.5851,2.905,-36.645,-8.715,0.00,0.0368,0.0254,0.0200,0.0174,2025-06-09T13:58:40.813346
6353,-0.8843,0.0732,0.5466,4.165,-42.595,-8.925,0.01,0.0184,0.0254,0.0200,0.0174,2025-06-09T13:58:40.813346
6354,-0.6744,0.0966,0.5129,6.230,-27.685,-11.095,0.00,0.0368,0.0254,0.0200,0.0087,2025-06-09T13:58:40.813346
6355,-0.5212,0.1371,0.4631,6.230,-1.260,-16.065,0.00,0.0184,0.0254,0.0300,0.0087,2025-06-09T13:58:40.813346
6356,-0.4729,0.1527,0.4211,4.970,29.925,-20.895,0.01,0.0184,0.0508,0.0200,0.0087,2025-06-09T13:58:40.813346
6357,-0.4870,0.1762,0.4109,5.040,45.185,-24.675,0.00,0.0368,0.0508,0.0100,0.0087,2025-06-09T13:58:40.813346
6358,-0.5456,0.1957,0.4060,4.340,51.380,-29.085,0.00,0.0184,0.0254,0.0100,0.0087,2025-06-09T13:58:40.813346
6359,-0.6090,0.2108,0.3967,3.010,45.150,-32.130,0.00,0.0368,0.0254,0.0200,0.0087,2025-06-09T13:58:40.813346
6360,-0.6681,0.2162,0.3772,3.605,30.345,-34.685,0.01,0.0184,0.0254,0.0100,0.0174,2025-06-09T13:58:40.813346
6361,-0.6730,0.2289,0.3650,3.710,11.270,-36.120,0.00,0.0184,0.0254,0.0100,0.0087,2025-06-09T13:58:40.813346
6362,-0.6344,0.2430,0.3631,3.080,1.680,-37.310,0.01,0.0368,0.0508,0.0100,0.0087,2025-06-09T13:58:40.929009
6363,-0.5739,0.2474,0.3611,1.575,3.535,-37.765,0.00,0.0184,0.0508,0.0100,0.0174,2025-06-09T13:58:40.929009
6364,-0.5802,0.2455,0.3582,0.420,12.670,-37.485,0.00,0.0184,0.0254,0.0200,0.0087,2025-06-09T13:58:40.929009
6365,-0.6427,0.2547,0.3694,-0.140,22.295,-36.750,0.01,0.0184,0.0254,0.0100,0.0087,2025-06-09T13:58:40.929009
6366,-0.7364,0.2596,0.3909,-0.840,24.815,-35.770,0.00,0.0184,0.0508,0.0200,0.0087,2025-06-09T13:58:40.929009
6367,-0.7876,0.2699,0.4050,-1.785,23.275,-34.230,0.00,0.0368,0.0508,0.0100,0.0087,2025-06-09T13:58:40.930005
6368,-0.8296,0.2674,0.4216,-2.555,18.830,-31.045,0.00,0.0368,0.0254,0.0100,0.0087,2025-06-09T13:58:40.930005
6369,-0.8486,0.2708,0.4358,-3.815,12.425,-27.160,0.00,0.0184,0.0254,0.0100,0.0000,2025-06-09T13:58:40.930005
6370,-0.8184,0.2816,0.4485,-5.040,10.010,-23.135,0.01,0.0184,0.0254,0.0200,0.0087,2025-06-09T13:58:41.000815
6371,-0.7896,0.2865,0.4509,-6.475,9.765,-17.920,0.01,0.0368,0.0254,0.0200,0.0174,2025-06-09T13:58:41.000815
6372,-0.7515,0.3079,0.4372,-8.155,10.570,-13.930,0.00,0.0184,0.0254,0.0200,0.0087,2025-06-09T13:58:41.000815
6373,-0.7096,0.3289,0.4309,-9.835,11.305,-9.695,0.01,0.0368,0.0508,0.0100,0.0087,2025-06-09T13:58:41.001812
6374,-0.6666,0.3621,0.4372,-11.480,12.005,-6.685,0.00,0.0184,0.0508,0.0200,0.0174,2025-06-09T13:58:41.001812
6375,-0.6398,0.3963,0.4470,-12.740,13.020,-4.130,0.01,0.0184,0.0508,0.0100,0.0087,2025-06-09T13:58:41.117529
6376,-0.6222,0.4255,0.4451,-14.700,12.705,-3.185,0.01,0.0368,0.0254,0.0200,0.0087,2025-06-09T13:58:41.117529
6377,-0.6285,0.4680,0.4494,-16.660,11.550,-2.765,0.00,0.0368,0.0508,0.0200,0.0174,2025-06-09T13:58:41.117529
6378,-0.6549,0.4943,0.4612,-19.425,9.275,-2.240,0.01,0.0184,0.0254,0.0200,0.0087,2025-06-09T13:58:41.117529
6379,-0.7027,0.4987,0.4778,-22.470,4.095,-0.735,0.00,0.0184,0.0254,0.0200,0.0087,2025-06-09T13:58:41.117529
6380,-0.7798,0.4797,0.4958,-25.165,-5.670,2.765,0.00,0.0184,0.0254,0.0100,0.0087,2025-06-09T13:58:41.117529
6381,-0.8359,0.4821,0.5017,-26.565,-12.950,6.230,0.00,0.0184,0.0254,0.0100,0.0087,2025-06-09T13:58:41.117529
6382,-0.9672,0.5163,0.5197,-28.210,-17.605,6.965,0.00,0.0184,0.0254,0.0100,0.0087,2025-06-09T13:58:41.117529
6383,-1.1385,0.4392,0.5754,-33.145,-21.595,3.850,0.00,0.0184,0.0254,0.0100,0.0087,2025-06-09T13:58:41.117529
6384,-1.3615,0.2196,0.6041,-36.260,-31.815,3.115,0.00,0.0184,0.0508,0.0100,0.0174,2025-06-09T13:58:41.117529
6385,-1.4054,0.0551,0.5988,-35.525,-49.560,10.150,0.01,0.0184,0.0508,0.0200,0.0174,2025-06-09T13:58:41.223245
6386,-1.3806,-0.0239,0.5876,-32.620,-57.155,20.755,0.01,0.0184,0.0508,0.0100,0.0174,2025-06-09T13:58:41.223245
6387,-1.3318,-0.0678,0.5949,-31.955,-53.165,32.550,0.01,0.0184,0.0254,0.0100,0.0087,2025-06-09T13:58:41.223245
6388,-1.2478,-0.1005,0.6076,-33.460,-42.840,41.090,0.01,0.0368,0.0508,0.0100,0.0087,2025-06-09T13:58:41.223245
6389,-1.2537,-0.1474,0.6032,-34.090,-27.510,45.815,0.00,0.0184,0.0254,0.0100,0.0087,2025-06-09T13:58:41.223245
6390,-1.3239,-0.1669,0.5915,-35.070,-21.070,41.685,0.00,0.0368,0.0508,0.0200,0.0087,2025-06-09T13:58:41.223245
6391,-1.3903,-0.2113,0.5807,-36.610,-23.905,27.895,0.00,0.0368,0.0254,0.0200,0.0087,2025-06-09T13:58:41.223245
6392,-1.3337,-0.2796,0.5431,-36.540,-30.660,14.280,0.00,0.0368,0.0508,0.0200,0.0087,2025-06-09T13:58:41.223245
6393,-1.1824,-0.3260,0.4997,-35.700,-32.830,3.465,0.01,0.0368,0.0508,0.0100,0.0087,2025-06-09T13:58:41.325945
6394,-1.0033,-0.3523,0.4890,-35.805,-21.350,-5.530,0.00,0.0368,0.0508,0.0100,0.0087,2025-06-09T13:58:41.325945
6395,-0.9033,-0.3396,0.4758,-37.975,-7.210,-11.130,0.00,0.0184,0.0508,0.0100,0.0174,2025-06-09T13:58:41.325945
6396,-0.8418,-0.3094,0.4680,-40.740,9.065,-15.995,0.01,0.0184,0.0508,0.0200,0.0174,2025-06-09T13:58:41.325945
6397,-0.8374,-0.2747,0.4748,-45.815,21.350,-19.180,0.01,0.0368,0.0254,0.0200,0.0087,2025-06-09T13:58:41.325945
6398,-0.8843,-0.2679,0.4914,-51.835,28.035,-24.325,0.00,0.0184,0.0254,0.0200,0.0087,2025-06-09T13:58:41.325945
6399,-0.9570,-0.2777,0.5129,-58.520,25.200,-29.470,0.00,0.0184,0.0254,0.0200,0.0087,2025-06-09T13:58:41.325945
6400,-0.9926,-0.2904,0.5241,-63.105,15.050,-34.020,0.00,0.0184,0.0508,0.0100,0.0087,2025-06-09T13:58:41.547354
6401,-0.9667,-0.2821,0.5324,-65.415,0.805,-34.860,0.01,0.0368,0.0508,0.0200,0.0087,2025-06-09T13:58:41.547354
6402,-0.8955,-0.2547,0.5392,-68.040,-6.790,-33.320,0.01,0.0184,0.0508,0.0100,0.0174,2025-06-09T13:58:41.547354
6403,-0.8189,-0.2259,0.5446,-70.140,-6.440,-29.855,0.00,0.0368,0.0508,0.0100,0.0174,2025-06-09T13:58:41.547354
6404,-0.8203,-0.2030,0.5417,-70.490,-1.960,-26.425,0.01,0.0184,0.0508,0.0100,0.0174,2025-06-09T13:58:41.547354
6405,-0.8355,-0.1659,0.5495,-70.385,2.765,-22.015,0.01,0.0184,0.0508,0.0100,0.0174,2025-06-09T13:58:41.547354
6406,-0.8662,-0.1430,0.5656,-68.425,3.850,-16.975,0.00,0.0184,0.0508,0.0200,0.0087,2025-06-09T13:58:41.547354
6407,-0.9184,-0.1157,0.5671,-66.185,1.120,-9.625,0.00,0.0184,0.0254,0.0100,0.0174,2025-06-09T13:58:41.547354
6408,-0.9326,-0.1039,0.5597,-62.125,-5.740,-2.730,0.00,0.0184,0.0254,0.0200,0.0087,2025-06-09T13:58:41.631131
6409,-0.9184,-0.0844,0.5524,-58.345,-10.080,5.915,0.00,0.0368,0.0508,0.0100,0.0087,2025-06-09T13:58:41.631131
6410,-0.8901,-0.0766,0.5344,-53.235,-10.955,13.510,0.01,0.0368,0.0254,0.0100,0.0174,2025-06-09T13:58:41.631131
6411,-0.8769,-0.0683,0.5148,-49.280,-9.765,21.035,0.00,0.0184,0.0508,0.0200,0.0087,2025-06-09T13:58:41.631131
6412,-0.8857,-0.0644,0.4934,-45.360,-7.700,30.205,0.00,0.0368,0.0508,0.0100,0.0087,2025-06-09T13:58:41.631131
6413,-0.8818,-0.0625,0.4792,-40.740,-6.405,37.485,0.01,0.0368,0.0254,0.0100,0.0087,2025-06-09T13:58:41.631131
6414,-0.8691,-0.0590,0.4558,-37.695,-4.165,45.325,0.00,0.0184,0.0254,0.0100,0.0087,2025-06-09T13:58:41.631131
6415,-0.8628,-0.0532,0.4211,-34.335,-0.280,50.785,0.01,0.0184,0.0254,0.0000,0.0087,2025-06-09T13:58:41.631131
6416,-0.8579,-0.0400,0.3982,-33.075,4.375,55.195,0.00,0.0184,0.0508,0.0100,0.0087,2025-06-09T13:58:41.631131
6417,-0.8589,-0.0268,0.3816,-32.585,11.375,59.255,0.00,0.0368,0.0254,0.0100,0.0174,2025-06-09T13:58:41.631131
6418,-0.8725,-0.0190,0.3499,-33.565,16.380,61.915,0.00,0.0184,0.0508,0.0200,0.0087,2025-06-09T13:58:41.631131
6419,-0.9062,-0.0151,0.3255,-35.385,21.000,64.050,0.00,0.0368,0.0254,0.0100,0.0000,2025-06-09T13:58:41.631131
6420,-0.9135,-0.0024,0.3045,-38.500,24.325,65.345,0.00,0.0184,0.0508,0.0100,0.0087,2025-06-09T13:58:41.631131
6421,-0.9370,0.0098,0.2957,-41.895,27.790,66.115,0.00,0.0184,0.0254,0.0100,0.0087,2025-06-09T13:58:41.631131
6422,-0.9731,0.0171,0.2801,-47.390,31.885,65.520,0.00,0.0368,0.0254,0.0200,0.0087,2025-06-09T13:58:41.631131
6423,-1.0370,0.0083,0.2655,-51.870,32.690,64.435,0.00,0.0184,0.0508,0.0200,0.0087,2025-06-09T13:58:41.892455
6424,-1.0873,0.0000,0.2572,-56.980,29.085,64.365,0.01,0.0368,0.0254,0.0100,0.0174,2025-06-09T13:58:41.892455
6425,-1.1122,-0.0146,0.2523,-60.900,25.025,65.170,0.01,0.0184,0.0508,0.0100,0.0087,2025-06-09T13:58:41.892455
6426,-1.1175,-0.0220,0.2508,-64.680,21.560,67.200,0.01,0.0368,0.0254,0.0100,0.0087,2025-06-09T13:58:41.892455
6427,-1.0960,-0.0259,0.2396,-69.825,21.700,68.600,0.00,0.0184,0.0254,0.0200,0.0174,2025-06-09T13:58:41.892455
6428,-1.0834,-0.0307,0.2235,-73.675,24.745,69.790,0.00,0.0368,0.0254,0.0100,0.0087,2025-06-09T13:58:41.895452
6429,-1.0829,-0.0332,0.2240,-78.085,27.860,70.175,0.00,0.0368,0.0254,0.0100,0.0087,2025-06-09T13:58:41.895452
6430,-1.0702,-0.0400,0.2230,-80.955,29.295,70.105,0.01,0.0368,0.0508,0.0200,0.0087,2025-06-09T13:58:41.895452
6431,-1.0580,-0.0537,0.2162,-84.455,29.890,70.140,0.00,0.0184,0.0254,0.0100,0.0087,2025-06-09T13:58:41.895452
6432,-1.0385,-0.0669,0.2191,-85.960,29.750,70.385,0.00,0.0184,0.0254,0.0100,0.0174,2025-06-09T13:58:41.895452
6433,-0.9906,-0.0654,0.2196,-87.850,30.555,70.420,0.01,0.0368,0.0254,0.0100,0.0087,2025-06-09T13:58:41.895452
6434,-0.9618,-0.0639,0.1952,-90.230,31.850,69.685,0.01,0.0184,0.0508,0.0100,0.0087,2025-06-09T13:58:41.895452
6435,-0.9199,-0.0556,0.1825,-91.770,33.985,67.515,0.00,0.0184,0.0508,0.0100,0.0087,2025-06-09T13:58:41.895452
6436,-0.9013,-0.0468,0.1806,-93.345,35.210,65.275,0.00,0.0184,0.0254,0.0200,0.0087,2025-06-09T13:58:41.895452
6437,-0.9243,-0.0376,0.1923,-94.640,34.265,61.740,0.01,0.0184,0.0254,0.0100,0.0087,2025-06-09T13:58:41.895452
6438,-0.9506,-0.0381,0.1991,-94.955,28.770,58.940,0.00,0.0184,0.0508,0.0200,0.0087,2025-06-09T13:58:42.159768
6439,-0.9648,-0.0425,0.1986,-94.360,23.135,56.945,0.00,0.0184,0.0254,0.0100,0.0174,2025-06-09T13:58:42.159768
6440,-0.9584,-0.0508,0.1884,-93.345,19.880,56.630,0.01,0.0368,0.0254,0.0000,0.0174,2025-06-09T13:58:42.159768
6441,-0.9614,-0.0488,0.1854,-91.770,20.405,56.805,0.00,0.0368,0.0254,0.0200,0.0174,2025-06-09T13:58:42.159768
6442,-0.9892,-0.0444,0.1737,-89.915,21.700,56.735,0.01,0.0368,0.0254,0.0200,0.0174,2025-06-09T13:58:42.159768
6443,-1.0077,-0.0425,0.1728,-87.360,20.685,56.735,0.00,0.0184,0.0508,0.0100,0.0000,2025-06-09T13:58:42.159768
6444,-1.0014,-0.0249,0.1732,-84.525,19.250,56.595,0.01,0.0184,0.0254,0.0200,0.0087,2025-06-09T13:58:42.159768
6445,-1.0009,-0.0142,0.1776,-81.445,18.095,56.350,0.00,0.0184,0.0254,0.0200,0.0087,2025-06-09T13:58:42.159768
6446,-0.9872,0.0093,0.1640,-78.540,17.815,56.105,0.00,0.0184,0.0254,0.0100,0.0087,2025-06-09T13:58:42.159768
6447,-0.9867,0.0254,0.1547,-76.055,18.690,55.720,0.00,0.0184,0.0508,0.0200,0.0087,2025-06-09T13:58:42.159768
6448,-0.9965,0.0483,0.1615,-72.730,19.775,55.545,0.00,0.0184,0.0254,0.0100,0.0000,2025-06-09T13:58:42.159768
6449,-1.0141,0.0712,0.1625,-70.175,21.490,56.945,0.00,0.0184,0.0508,0.0200,0.0087,2025-06-09T13:58:42.159768
6450,-1.0282,0.0961,0.1684,-67.935,22.715,59.395,0.00,0.0368,0.0508,0.0100,0.0087,2025-06-09T13:58:42.159768
6451,-1.0307,0.1181,0.1684,-66.115,25.060,63.525,0.00,0.0184,0.0000,0.0100,0.0087,2025-06-09T13:58:42.159768
6452,-1.0429,0.1488,0.1679,-64.295,29.050,66.920,0.01,0.0368,0.0508,0.0200,0.0174,2025-06-09T13:58:42.159768
6453,-1.0580,0.1801,0.1523,-62.930,31.640,69.720,0.01,0.0184,0.0508,0.0100,0.0087,2025-06-09T13:58:42.159768
6454,-1.0614,0.2084,0.1562,-62.265,34.440,72.310,0.00,0.0184,0.0508,0.0100,0.0087,2025-06-09T13:58:42.159768
6455,-1.0741,0.2347,0.1508,-62.300,36.155,74.270,0.00,0.0368,0.0254,0.0100,0.0174,2025-06-09T13:58:42.364169
6456,-1.0936,0.2513,0.1498,-61.390,35.665,76.230,0.01,0.0184,0.0254,0.0200,0.0174,2025-06-09T13:58:42.364169
6457,-1.0726,0.2611,0.1425,-60.725,33.635,77.805,0.01,0.0368,0.0254,0.0200,0.0087,2025-06-09T13:58:42.364169
6458,-1.0648,0.2577,0.1449,-59.955,32.480,78.680,0.00,0.0368,0.0508,0.0200,0.0174,2025-06-09T13:58:42.364169
6459,-1.0429,0.2547,0.1601,-58.310,31.500,79.975,0.00,0.0184,0.0254,0.0100,0.0174,2025-06-09T13:58:42.364169
6460,-0.9975,0.2655,0.1796,-56.175,31.780,82.425,0.00,0.0368,0.0508,0.0200,0.0174,2025-06-09T13:58:42.364169
6461,-0.9765,0.2704,0.1845,-54.390,33.075,84.525,0.01,0.0552,0.0254,0.0100,0.0087,2025-06-09T13:58:42.364169
6462,-0.9482,0.2801,0.1845,-53.095,35.245,87.045,0.01,0.0368,0.0254,0.0200,0.0174,2025-06-09T13:58:42.364169
6463,-0.9311,0.2977,0.1928,-52.220,39.865,88.690,0.00,0.0184,0.0508,0.0100,0.0087,2025-06-09T13:58:42.364169
6464,-0.9140,0.3353,0.1996,-52.710,46.795,90.195,0.00,0.0368,0.0254,0.0200,0.0087,2025-06-09T13:58:42.364169
6465,-0.9399,0.3577,0.1942,-55.020,57.820,89.355,0.01,0.0368,0.0254,0.0100,0.0087,2025-06-09T13:58:42.364169
6466,-0.9726,0.3753,0.1771,-57.855,67.830,87.255,0.00,0.0184,0.0254,0.0100,0.0087,2025-06-09T13:58:42.364169
6467,-1.0102,0.3860,0.1635,-61.600,79.450,84.315,0.00,0.0368,0.0254,0.0200,0.0174,2025-06-09T13:58:42.364169
6468,-1.0502,0.3953,0.1493,-66.220,86.695,82.600,0.00,0.0184,0.0254,0.0200,0.0087,2025-06-09T13:58:42.462904
6469,-1.0838,0.3997,0.1415,-69.825,92.015,81.235,0.00,0.0368,0.0508,0.0200,0.0087,2025-06-09T13:58:42.462904
6470,-1.0995,0.4133,0.1566,-72.590,93.065,80.395,0.01,0.0368,0.0254,0.0200,0.0087,2025-06-09T13:58:42.462904
6471,-1.1175,0.4275,0.1864,-74.585,91.420,78.050,0.01,0.0368,0.0508,0.0100,0.0087,2025-06-09T13:58:42.462904
6472,-1.1000,0.4421,0.1952,-76.230,88.410,75.320,0.00,0.0368,0.0508,0.0200,0.0087,2025-06-09T13:58:42.462904
6473,-1.0482,0.4651,0.2128,-77.560,87.675,71.295,0.01,0.0184,0.0508,0.0100,0.0087,2025-06-09T13:58:42.462904
6474,-0.9887,0.4763,0.2372,-79.800,90.895,68.775,0.00,0.0184,0.0254,0.0100,0.0087,2025-06-09T13:58:42.462904
6475,-0.9374,0.5002,0.2518,-81.200,96.215,67.445,0.00,0.0184,0.0508,0.0200,0.0174,2025-06-09T13:58:42.462904
6476,-0.9140,0.5061,0.2621,-82.285,102.760,67.340,0.00,0.0184,0.0508,0.0100,0.0000,2025-06-09T13:58:42.462904
6477,-0.9130,0.5061,0.2704,-83.685,106.295,67.970,0.00,0.0184,0.0508,0.0100,0.0000,2025-06-09T13:58:42.462904
6478,-0.9199,0.5104,0.2952,-83.930,107.135,68.810,0.00,0.0184,0.0254,0.0200,0.0087,2025-06-09T13:58:42.462904
6479,-0.9467,0.5080,0.3065,-84.630,103.775,70.105,0.00,0.0184,0.0254,0.0100,0.0087,2025-06-09T13:58:42.610512
6480,-0.9536,0.5051,0.2948,-84.455,96.495,71.995,0.01,0.0368,0.0254,0.0100,0.0000,2025-06-09T13:58:42.610512
6481,-0.9667,0.5036,0.2782,-84.210,90.055,72.765,0.00,0.0184,0.0508,0.0100,0.0087,2025-06-09T13:58:42.610512
6482,-0.9638,0.5100,0.2518,-85.750,84.805,73.045,0.00,0.0184,0.0254,0.0200,0.0087,2025-06-09T13:58:42.610512
6483,-0.9672,0.4992,0.2279,-86.590,81.445,73.570,0.00,0.0368,0.0508,0.0100,0.0087,2025-06-09T13:58:42.610512
6484,-0.9604,0.4880,0.2040,-86.485,79.240,74.340,0.01,0.0184,0.0254,0.0200,0.0087,2025-06-09T13:58:42.610512
6485,-0.9604,0.4890,0.1820,-87.920,79.100,75.215,0.01,0.0368,0.0508,0.0200,0.0087,2025-06-09T13:58:42.610512
6486,-0.9540,0.4973,0.1493,-90.965,80.150,75.845,0.00,0.0368,0.0508,0.0100,0.0174,2025-06-09T13:58:42.610512
6487,-0.9784,0.4982,0.1298,-94.500,78.295,76.160,0.00,0.0368,0.0254,0.0100,0.0174,2025-06-09T13:58:42.610512
6488,-0.9765,0.4914,0.1074,-97.370,73.780,77.105,0.01,0.0184,0.0508,0.0200,0.0174,2025-06-09T13:58:42.653420
6489,-0.9521,0.4997,0.0913,-99.120,66.430,78.155,0.00,0.0184,0.0508,0.0200,0.0174,2025-06-09T13:58:42.653420
6490,-0.9335,0.5012,0.0703,-101.150,61.425,77.805,0.00,0.0368,0.0254,0.0100,0.0087,2025-06-09T13:58:42.653420
6491,-0.8969,0.5090,0.0659,-102.165,57.575,76.965,0.00,0.0184,0.0254,0.0200,0.0174,2025-06-09T13:58:42.653420
6492,-0.8589,0.5148,0.0766,-102.935,55.685,76.300,0.01,0.0368,0.0254,0.0200,0.0087,2025-06-09T13:58:42.653420
6493,-0.8316,0.5163,0.0630,-102.655,54.810,75.495,0.00,0.0368,0.0254,0.0100,0.0087,2025-06-09T13:58:42.653420
6494,-0.8081,0.5202,0.0732,-100.765,54.110,74.760,0.00,0.0184,0.0254,0.0100,0.0087,2025-06-09T13:58:42.653420
6495,-0.7925,0.5329,0.0830,-98.280,52.885,73.395,0.00,0.0184,0.0254,0.0100,0.0087,2025-06-09T13:58:42.653420
6496,-0.7740,0.5402,0.1049,-94.115,51.555,71.890,0.00,0.0368,0.0508,0.0100,0.0087,2025-06-09T13:58:42.653420
6497,-0.7364,0.5505,0.1298,-89.355,50.015,70.910,0.00,0.0184,0.0254,0.0200,0.0087,2025-06-09T13:58:42.653420
6498,-0.6983,0.5641,0.1332,-84.490,49.315,70.000,0.00,0.0368,0.0508,0.0200,0.0087,2025-06-09T13:58:42.758116
6499,-0.6705,0.5797,0.1352,-78.120,50.015,68.250,0.00,0.0368,0.0254,0.0200,0.0087,2025-06-09T13:58:42.758116
6500,-0.6686,0.5934,0.1352,-71.505,52.010,66.605,0.00,0.0368,0.0254,0.0100,0.0174,2025-06-09T13:58:42.758116
6501,-0.6647,0.6188,0.1503,-66.080,54.355,65.170,0.01,0.0184,0.0254,0.0100,0.0087,2025-06-09T13:58:42.759112
6502,-0.6764,0.6388,0.1576,-60.235,58.625,64.050,0.00,0.0368,0.0254,0.0100,0.0087,2025-06-09T13:58:42.759112
6503,-0.6861,0.6549,0.1552,-55.580,61.880,64.120,0.01,0.0184,0.0254,0.0200,0.0087,2025-06-09T13:58:42.759112
6504,-0.6852,0.6686,0.1566,-51.555,65.555,66.010,0.00,0.0184,0.0254,0.0200,0.0087,2025-06-09T13:58:42.759112
6505,-0.7213,0.6832,0.1654,-48.685,67.095,67.865,0.00,0.0184,0.0254,0.0200,0.0087,2025-06-09T13:58:42.759112
6506,-0.7437,0.6983,0.1679,-46.480,65.275,70.665,0.00,0.0184,0.0254,0.0200,0.0087,2025-06-09T13:58:42.861839
6507,-0.7530,0.6993,0.1767,-44.275,59.640,73.815,0.00,0.0184,0.0508,0.0300,0.0174,2025-06-09T13:58:42.861839
6508,-0.7310,0.7096,0.1864,-42.735,51.555,78.715,0.00,0.0368,0.0254,0.0200,0.0087,2025-06-09T13:58:42.861839
6509,-0.7183,0.7139,0.1981,-40.775,45.045,83.300,0.01,0.0184,0.0254,0.0200,0.0174,2025-06-09T13:58:42.861839
6510,-0.7052,0.7232,0.2186,-39.655,38.430,87.745,0.00,0.0368,0.0508,0.0200,0.0087,2025-06-09T13:58:42.861839
6511,-0.6725,0.7213,0.2450,-38.325,29.365,90.580,0.00,0.0368,0.0254,0.0100,0.0174,2025-06-09T13:58:42.861839
6512,-0.6256,0.7091,0.2455,-36.470,21.035,93.205,0.00,0.0184,0.0254,0.0100,0.0087,2025-06-09T13:58:42.861839
6513,-0.5797,0.7100,0.2650,-33.950,12.635,94.045,0.00,0.0184,0.0508,0.0100,0.0087,2025-06-09T13:58:42.861839
6514,-0.5339,0.7149,0.2860,-32.830,7.420,93.555,0.01,0.0184,0.0508,0.0100,0.0087,2025-06-09T13:58:42.966595
6515,-0.4690,0.7174,0.2821,-29.575,2.065,92.015,0.00,0.0184,0.0508,0.0200,0.0174,2025-06-09T13:58:42.966595
6516,-0.4280,0.7198,0.2869,-27.720,0.175,89.740,0.01,0.0368,0.0254,0.0200,0.0174,2025-06-09T13:58:42.966595
6517,-0.3899,0.7198,0.2938,-24.675,-0.665,86.170,0.01,0.0368,0.0254,0.0200,0.0087,2025-06-09T13:58:42.966595
6518,-0.3777,0.7344,0.3011,-21.735,-2.205,82.600,0.00,0.0184,0.0254,0.0100,0.0087,2025-06-09T13:58:42.966595
6519,-0.3689,0.7501,0.3070,-18.935,-4.165,77.105,0.00,0.0000,0.0508,0.0100,0.0087,2025-06-09T13:58:42.966595
6520,-0.3587,0.7593,0.3045,-16.240,-7.000,72.275,0.00,0.0184,0.0508,0.0100,0.0087,2025-06-09T13:58:42.966595
6521,-0.3567,0.7671,0.3035,-13.265,-10.430,65.905,0.00,0.0368,0.0254,0.0200,0.0087,2025-06-09T13:58:43.063311
6522,-0.3333,0.7808,0.3030,-9.275,-14.700,60.515,0.01,0.0184,0.0254,0.0200,0.0087,2025-06-09T13:58:43.063311
6523,-0.3523,0.8154,0.2996,-5.810,-18.445,55.335,0.01,0.0368,0.0254,0.0200,0.0087,2025-06-09T13:58:43.063311
6524,-0.3616,0.8384,0.3011,-1.330,-20.510,47.075,0.00,0.0368,0.0254,0.0200,0.0087,2025-06-09T13:58:43.063311
6525,-0.3631,0.8364,0.2972,2.555,-22.015,39.795,0.01,0.0368,0.0254,0.0200,0.0174,2025-06-09T13:58:43.063311
6526,-0.3455,0.8159,0.3109,6.370,-25.375,32.795,0.01,0.0368,0.0508,0.0100,0.0174,2025-06-09T13:58:43.063311
6527,-0.3260,0.7950,0.3294,10.465,-27.720,29.015,0.00,0.0184,0.0254,0.0100,0.0087,2025-06-09T13:58:43.063311
6528,-0.3250,0.7847,0.3406,13.090,-29.120,25.130,0.00,0.0368,0.0508,0.0200,0.0087,2025-06-09T13:58:43.063311
6529,-0.2708,0.7627,0.3445,16.800,-28.350,19.985,0.01,0.0184,0.0508,0.0200,0.0174,2025-06-09T13:58:43.169015
6530,-0.1893,0.7559,0.3104,18.900,-30.240,17.010,0.00,0.0184,0.0254,0.0100,0.0174,2025-06-09T13:58:43.169015
6531,-0.1928,0.7867,0.2948,20.055,-29.610,14.385,0.00,0.0184,0.0254,0.0200,0.0087,2025-06-09T13:58:43.169015
6532,-0.1718,0.8164,0.2772,20.650,-26.985,13.510,0.01,0.0184,0.0508,0.0100,0.0087,2025-06-09T13:58:43.169015
6533,-0.2054,0.8340,0.2704,20.650,-24.360,12.845,0.00,0.0184,0.0254,0.0200,0.0087,2025-06-09T13:58:43.169015
6534,-0.1757,0.8413,0.2660,21.105,-27.195,11.865,0.00,0.0184,0.0254,0.0100,0.0087,2025-06-09T13:58:43.169015
6535,-0.1786,0.8691,0.2469,20.160,-24.780,15.225,0.00,0.0184,0.0254,0.0200,0.0087,2025-06-09T13:58:43.169015
6536,-0.2479,0.9213,0.1674,17.010,-23.555,15.960,0.00,0.0368,0.0254,0.0200,0.0174,2025-06-09T13:58:43.271741
6537,-0.0986,0.9233,0.2264,21.455,-31.570,11.935,0.00,0.0368,0.0508,0.0200,0.0174,2025-06-09T13:58:43.271741
6538,-0.2645,0.9428,0.1586,15.260,-25.970,11.270,0.00,0.0184,0.0508,0.0100,0.0174,2025-06-09T13:58:43.271741
6539,-0.2045,0.9755,0.1420,14.350,-15.435,7.525,0.01,0.0368,0.0508,0.0200,0.0087,2025-06-09T13:58:43.271741
6540,-0.2567,0.9589,0.1464,12.950,-9.590,5.215,0.00,0.0184,0.0254,0.0200,0.0087,2025-06-09T13:58:43.271741
6541,-0.2869,0.9594,0.1693,10.605,-4.340,3.745,0.00,0.0184,0.0508,0.0300,0.0174,2025-06-09T13:58:43.271741
6542,-0.3016,0.9570,0.2025,9.310,-0.315,2.870,0.00,0.0368,0.0254,0.0100,0.0087,2025-06-09T13:58:43.271741
6543,-0.3079,0.9672,0.2157,8.120,2.765,1.785,0.01,0.0000,0.0254,0.0100,0.0174,2025-06-09T13:58:43.271741
6544,-0.2908,0.9599,0.2216,7.000,10.220,0.385,0.01,0.0368,0.0254,0.0100,0.0087,2025-06-09T13:58:43.325597
6545,-0.3026,0.9521,0.2430,6.230,20.545,-0.630,0.00,0.0368,0.0254,0.0200,0.0087,2025-06-09T13:58:43.325597
6546,-0.3723,0.9584,0.2684,6.860,24.675,-2.030,0.00,0.0184,0.0254,0.0100,0.0174,2025-06-09T13:58:43.325597
6547,-0.4168,0.9653,0.2908,6.860,21.070,-2.450,0.01,0.0368,0.0254,0.0100,0.0174,2025-06-09T13:58:43.325597
6548,-0.4163,0.9780,0.3123,7.105,16.485,-2.905,0.01,0.0368,0.0254,0.0200,0.0087,2025-06-09T13:58:43.472206
6549,-0.4197,0.9799,0.3055,6.440,11.060,-3.080,0.00,0.0368,0.0508,0.0200,0.0174,2025-06-09T13:58:43.472206
6550,-0.4158,0.9799,0.2889,6.090,5.705,-3.850,0.00,0.0368,0.0508,0.0200,0.0087,2025-06-09T13:58:43.472206
6551,-0.3855,0.9784,0.2733,4.970,4.445,-4.410,0.00,0.0368,0.0508,0.0200,0.0087,2025-06-09T13:58:43.472206
6552,-0.4080,0.9677,0.2708,3.255,4.305,-5.005,0.01,0.0368,0.0254,0.0200,0.0087,2025-06-09T13:58:43.472206
6553,-0.4260,0.9609,0.2664,2.240,0.385,-5.740,0.00,0.0184,0.0254,0.0100,0.0087,2025-06-09T13:58:43.472206
6554,-0.4114,0.9370,0.2469,0.805,-2.310,-6.055,0.00,0.0184,0.0254,0.0100,0.0087,2025-06-09T13:58:43.472206
6555,-0.4109,0.9287,0.2318,-0.245,-4.095,-6.090,0.01,0.0184,0.0254,0.0000,0.0087,2025-06-09T13:58:43.472206
6556,-0.4070,0.9213,0.2240,-0.980,-5.250,-5.810,0.00,0.0184,0.0254,0.0100,0.0087,2025-06-09T13:58:43.472206
6557,-0.3982,0.9218,0.2142,-2.135,-6.090,-4.760,0.00,0.0368,0.0254,0.0200,0.0087,2025-06-09T13:58:43.472206
6558,-0.4046,0.9179,0.2103,-3.955,-7.525,-3.465,0.00,0.0184,0.0254,0.0200,0.0087,2025-06-09T13:58:43.472206
6559,-0.4050,0.9140,0.2006,-5.075,-10.815,-1.225,0.01,0.0184,0.0254,0.0200,0.0087,2025-06-09T13:58:43.575951
6560,-0.3777,0.9082,0.1815,-7.490,-13.230,0.805,0.01,0.0184,0.0254,0.0200,0.0087,2025-06-09T13:58:43.575951
6561,-0.3758,0.9004,0.1845,-8.365,-14.910,2.520,0.01,0.0184,0.0508,0.0200,0.0174,2025-06-09T13:58:43.575951
6562,-0.3553,0.9057,0.1713,-9.940,-17.815,4.130,0.01,0.0368,0.0508,0.0200,0.0174,2025-06-09T13:58:43.575951
6563,-0.3514,0.9052,0.1732,-11.095,-20.335,4.620,0.01,0.0184,0.0254,0.0200,0.0087,2025-06-09T13:58:43.575951
6564,-0.3196,0.9072,0.1810,-12.355,-23.100,4.795,0.00,0.0184,0.0508,0.0100,0.0087,2025-06-09T13:58:43.575951
6565,-0.2967,0.9038,0.1767,-12.775,-25.550,4.410,0.00,0.0184,0.0254,0.0100,0.0087,2025-06-09T13:58:43.575951
6566,-0.2889,0.9018,0.1703,-13.580,-26.285,3.430,0.00,0.0184,0.0508,0.0200,0.0087,2025-06-09T13:58:43.575951
6567,-0.2811,0.9004,0.1796,-14.420,-26.880,1.750,0.00,0.0184,0.0508,0.0100,0.0087,2025-06-09T13:58:43.679681
6568,-0.2923,0.8891,0.1942,-14.350,-28.105,0.140,0.01,0.0184,0.0508,0.0200,0.0087,2025-06-09T13:58:43.679681
6569,-0.2957,0.8691,0.1972,-14.385,-31.325,-1.855,0.01,0.0184,0.0508,0.0200,0.0087,2025-06-09T13:58:43.679681
6570,-0.2718,0.8569,0.2294,-12.565,-33.915,-3.465,0.01,0.0184,0.0254,0.0200,0.0087,2025-06-09T13:58:43.679681
6571,-0.2777,0.8613,0.2089,-11.725,-34.300,-3.920,0.00,0.0000,0.0254,0.0100,0.0087,2025-06-09T13:58:43.679681
6572,-0.2991,0.8667,0.1781,-11.900,-34.545,-4.655,0.01,0.0368,0.0254,0.0100,0.0087,2025-06-09T13:58:43.679681
6573,-0.3138,0.8857,0.1635,-11.760,-36.190,-5.565,0.00,0.0184,0.0254,0.0100,0.0087,2025-06-09T13:58:43.679681
6574,-0.3065,0.8891,0.1596,-12.215,-38.430,-6.160,0.01,0.0368,0.0508,0.0200,0.0174,2025-06-09T13:58:43.736497
6575,-0.3045,0.9018,0.1649,-12.705,-40.740,-7.035,0.01,0.0368,0.0254,0.0200,0.0087,2025-06-09T13:58:43.736497
6576,-0.2967,0.9038,0.1674,-13.755,-44.310,-8.645,0.00,0.0184,0.0254,0.0100,0.0087,2025-06-09T13:58:43.736497
6577,-0.2645,0.9179,0.1728,-13.405,-46.235,-10.430,0.01,0.0184,0.0254,0.0200,0.0087,2025-06-09T13:58:43.736497
6578,-0.2381,0.9399,0.1708,-13.370,-46.130,-12.565,0.01,0.0184,0.0508,0.0100,0.0087,2025-06-09T13:58:43.784371
6579,-0.2406,0.9443,0.1732,-13.580,-45.395,-14.385,0.00,0.0184,0.0508,0.0200,0.0174,2025-06-09T13:58:43.784371
6580,-0.2323,0.9584,0.1703,-13.755,-43.925,-15.365,0.01,0.0184,0.0254,0.0100,0.0087,2025-06-09T13:58:43.784371
6581,-0.2479,0.9560,0.1737,-13.965,-43.365,-15.365,0.01,0.0184,0.0254,0.0200,0.0174,2025-06-09T13:58:43.784371
6582,-0.2635,0.9584,0.1850,-13.755,-45.115,-14.280,0.01,0.0184,0.0254,0.0200,0.0087,2025-06-09T13:58:43.842214
6583,-0.2577,0.9565,0.1932,-13.055,-47.215,-13.090,0.00,0.0184,0.0254,0.0200,0.0174,2025-06-09T13:58:43.842214
6584,-0.2557,0.9550,0.1952,-12.110,-47.390,-11.830,0.00,0.0368,0.0254,0.0200,0.0087,2025-06-09T13:58:43.842214
6585,-0.2489,0.9560,0.1981,-11.340,-47.950,-10.885,0.01,0.0368,0.0254,0.0100,0.0087,2025-06-09T13:58:43.842214
6586,-0.2533,0.9453,0.1952,-10.080,-49.280,-10.115,0.01,0.0000,0.0254,0.0200,0.0087,2025-06-09T13:58:43.899066
6587,-0.2440,0.9374,0.2074,-9.520,-51.625,-9.065,0.00,0.0184,0.0254,0.0100,0.0174,2025-06-09T13:58:43.899066
6588,-0.2294,0.9316,0.2191,-8.260,-53.480,-8.610,0.00,0.0368,0.0508,0.0200,0.0174,2025-06-09T13:58:43.899066
6589,-0.2274,0.9218,0.2279,-7.035,-55.195,-8.715,0.00,0.0368,0.0508,0.0100,0.0087,2025-06-09T13:58:43.899066
6590,-0.2201,0.9135,0.2352,-5.985,-58.100,-9.030,0.01,0.0368,0.0508,0.0200,0.0087,2025-06-09T13:58:43.947942
6591,-0.2162,0.9013,0.2440,-4.340,-60.865,-9.730,0.01,0.0368,0.0254,0.0200,0.0174,2025-06-09T13:58:43.947942
6592,-0.2079,0.9023,0.2435,-2.625,-62.510,-10.815,0.00,0.0184,0.0254,0.0100,0.0087,2025-06-09T13:58:43.947942
6593,-0.2152,0.9199,0.2538,-0.210,-62.125,-13.125,0.01,0.0184,0.0254,0.0100,0.0087,2025-06-09T13:58:43.947942
6594,-0.2489,0.9584,0.2523,2.835,-59.710,-19.040,0.01,0.0368,0.0254,0.0100,0.0087,2025-06-09T13:58:43.994806
6595,-0.2845,0.9955,0.2518,6.475,-57.085,-26.810,0.00,0.0368,0.0254,0.0100,0.0087,2025-06-09T13:58:43.994806
6596,-0.2723,1.0077,0.2699,8.575,-53.620,-36.505,0.01,0.0184,0.0508,0.0100,0.0174,2025-06-09T13:58:43.994806
6597,-0.2216,1.0233,0.3001,11.795,-45.150,-41.755,0.01,0.0184,0.0254,0.0200,0.0087,2025-06-09T13:58:43.994806
6598,-0.2186,1.0077,0.3562,12.740,-36.960,-46.165,0.00,0.0368,0.0508,0.0200,0.0087,2025-06-09T13:58:44.043677
6599,-0.2157,0.9618,0.4114,10.080,-35.665,-46.340,0.00,0.0184,0.0254,0.0200,0.0087,2025-06-09T13:58:44.043677
6600,-0.1713,0.9018,0.4690,9.275,-41.195,-40.600,0.01,0.0368,0.0508,0.0100,0.0174,2025-06-09T13:58:44.043677
6601,-0.1425,0.8555,0.4856,7.665,-50.225,-33.285,0.01,0.0368,0.0254,0.0100,0.0087,2025-06-09T13:58:44.195269
6602,-0.1259,0.8340,0.4685,6.125,-57.085,-26.705,0.01,0.0368,0.0508,0.0200,0.0087,2025-06-09T13:58:44.195269
6603,-0.1039,0.8179,0.4485,4.270,-60.165,-21.385,0.00,0.0368,0.0254,0.0200,0.0087,2025-06-09T13:58:44.195269
6604,-0.0981,0.7979,0.4192,3.360,-58.450,-18.970,0.00,0.0184,0.0254,0.0100,0.0174,2025-06-09T13:58:44.195269
6605,-0.1171,0.7720,0.3953,3.185,-45.255,-18.550,0.01,0.0368,0.0254,0.0200,0.0087,2025-06-09T13:58:44.195269
6606,-0.1566,0.7608,0.3767,4.340,-48.265,-21.070,0.00,0.0184,0.0254,0.0100,0.0174,2025-06-09T13:58:44.195269
6607,-0.2191,0.7515,0.3762,5.390,-43.540,-27.160,0.00,0.0184,0.0254,0.0100,0.0087,2025-06-09T13:58:44.195269
6608,-0.2704,0.7525,0.3870,7.420,-38.745,-34.580,0.00,0.0184,0.0254,0.0200,0.0087,2025-06-09T13:58:44.195269
6609,-0.3065,0.7945,0.4124,8.540,-34.090,-43.400,0.01,0.0184,0.0508,0.0100,0.0087,2025-06-09T13:58:44.195269
6610,-0.3387,0.8057,0.4480,9.205,-28.875,-53.410,0.00,0.0184,0.0254,0.0100,0.0087,2025-06-09T13:58:44.195269
6611,-0.3426,0.8130,0.4890,9.030,-25.130,-59.115,0.01,0.0184,0.0254,0.0100,0.0087,2025-06-09T13:58:44.195269
6612,-0.3187,0.8140,0.5324,7.840,-21.385,-61.880,0.01,0.0368,0.0508,0.0200,0.0087,2025-06-09T13:58:44.248131
6613,-0.3030,0.8159,0.5919,4.060,-18.690,-60.445,0.00,0.0368,0.0508,0.0100,0.0087,2025-06-09T13:58:44.248131
6614,-0.3138,0.8159,0.6217,0.735,-22.015,-55.895,0.01,0.0184,0.0254,0.0100,0.0087,2025-06-09T13:58:44.248131
6615,-0.3260,0.8062,0.6227,-2.205,-33.705,-51.415,0.00,0.0184,0.0508,0.0200,0.0087,2025-06-09T13:58:44.248131
6616,-0.3006,0.7989,0.6095,-2.905,-44.835,-47.285,0.01,0.0368,0.0508,0.0200,0.0087,2025-06-09T13:58:44.393741
6617,-0.2567,0.7989,0.5812,-3.115,-55.650,-43.330,0.00,0.0368,0.0508,0.0200,0.0087,2025-06-09T13:58:44.393741
6618,-0.2240,0.7945,0.5392,-2.240,-61.215,-41.510,0.01,0.0184,0.0508,0.0200,0.0087,2025-06-09T13:58:44.394740
6619,-0.1620,0.7901,0.5095,-1.015,-61.810,-40.600,0.01,0.0184,0.0254,0.0100,0.0087,2025-06-09T13:58:44.394740
6620,-0.1396,0.7823,0.4709,0.665,-57.435,-40.705,0.01,0.0184,0.0508,0.0100,0.0087,2025-06-09T13:58:44.394740
6621,-0.1430,0.7749,0.4382,2.135,-50.435,-42.455,0.00,0.0184,0.0254,0.0100,0.0000,2025-06-09T13:58:44.394740
6622,-0.1688,0.7803,0.4207,3.885,-42.000,-44.415,0.00,0.0184,0.0254,0.0100,0.0087,2025-06-09T13:58:44.394740
6623,-0.2152,0.7852,0.4085,5.565,-37.660,-46.585,0.00,0.0184,0.0254,0.0100,0.0087,2025-06-09T13:58:44.394740
6624,-0.2611,0.8037,0.4016,6.895,-36.400,-48.615,0.00,0.0000,0.0508,0.0100,0.0087,2025-06-09T13:58:44.394740
6625,-0.2943,0.8091,0.3938,7.945,-37.485,-49.525,0.00,0.0184,0.0254,0.0100,0.0087,2025-06-09T13:58:44.394740
6626,-0.3274,0.8164,0.3889,8.960,-38.710,-48.860,0.00,0.0184,0.0254,0.0200,0.0174,2025-06-09T13:58:44.394740
6627,-0.3382,0.8184,0.3880,9.660,-38.745,-47.110,0.01,0.0368,0.0254,0.0100,0.0087,2025-06-09T13:58:44.495497
6628,-0.3484,0.8189,0.3914,10.500,-35.910,-43.715,0.00,0.0368,0.0508,0.0200,0.0174,2025-06-09T13:58:44.495497
6629,-0.3543,0.8179,0.3987,11.095,-32.655,-39.620,0.00,0.0368,0.0508,0.0100,0.0174,2025-06-09T13:58:44.644069
6630,-0.3733,0.8120,0.4089,12.565,-30.730,-33.635,0.01,0.0368,0.0508,0.0200,0.0087,2025-06-09T13:58:44.644069
6631,-0.3782,0.8164,0.4226,14.350,-30.730,-28.245,0.01,0.0184,0.0254,0.0100,0.0087,2025-06-09T13:58:44.644069
6632,-0.3855,0.8233,0.4309,16.100,-32.445,-21.910,0.00,0.0000,0.0254,0.0100,0.0087,2025-06-09T13:58:44.644069
6633,-0.3689,0.8306,0.4353,18.445,-35.805,-17.675,0.00,0.0184,0.0254,0.0200,0.0087,2025-06-09T13:58:44.644069
6634,-0.3445,0.8330,0.4338,21.105,-37.240,-14.035,0.00,0.0368,0.0254,0.0200,0.0174,2025-06-09T13:58:44.644069
6635,-0.3162,0.8379,0.4446,23.660,-37.170,-10.430,0.00,0.0184,0.0254,0.0200,0.0087,2025-06-09T13:58:44.644069
6636,-0.2904,0.8413,0.4548,26.635,-36.295,-7.630,0.01,0.0368,0.0508,0.0200,0.0087,2025-06-09T13:58:44.644069
6637,-0.2625,0.8408,0.4548,29.050,-34.405,-4.480,0.01,0.0368,0.0254,0.0200,0.0087,2025-06-09T13:58:44.644069
6638,-0.2435,0.8418,0.4499,31.850,-31.465,-1.995,0.01,0.0184,0.0254,0.0200,0.0087,2025-06-09T13:58:44.700918
6639,-0.2386,0.8555,0.4465,33.320,-28.350,0.630,0.01,0.0368,0.0508,0.0100,0.0174,2025-06-09T13:58:44.700918
6640,-0.2474,0.8599,0.4416,34.860,-26.180,2.520,0.00,0.0368,0.0254,0.0100,0.0087,2025-06-09T13:58:44.700918
6641,-0.3719,0.8711,0.4231,36.295,-25.970,4.900,0.01,0.0368,0.0508,0.0100,0.0174,2025-06-09T13:58:44.700918
6642,-0.2557,0.8789,0.4060,37.275,-25.340,6.125,0.00,0.0368,0.0254,0.0200,0.0174,2025-06-09T13:58:44.700918
6643,-0.2596,0.8974,0.3821,37.835,-22.645,6.510,0.00,0.0368,0.0254,0.0100,0.0087,2025-06-09T13:58:44.700918
6644,-0.2669,0.9360,0.3567,38.045,-15.855,4.900,0.01,0.0184,0.0254,0.0200,0.0087,2025-06-09T13:58:44.700918
6645,-0.3060,0.9877,0.3333,38.325,-8.190,0.665,0.00,0.0000,0.0254,0.0100,0.0174,2025-06-09T13:58:44.700918
6646,-0.3899,1.0121,0.3226,38.080,-0.945,-8.610,0.00,0.0184,0.0254,0.0200,0.0087,2025-06-09T13:58:44.700918
6647,-0.4314,0.9916,0.3226,36.225,3.850,-16.275,0.00,0.0368,0.0508,0.0200,0.0087,2025-06-09T13:58:44.700918
6648,-0.4363,0.9428,0.3543,34.615,4.795,-19.915,0.00,0.0184,0.0254,0.0100,0.0087,2025-06-09T13:58:44.700918
6649,-0.4363,0.8945,0.3792,32.375,2.520,-17.325,0.00,0.0000,0.0254,0.0100,0.0087,2025-06-09T13:58:44.700918
6650,-0.4509,0.8603,0.3865,30.310,-1.400,-11.095,0.01,0.0184,0.0254,0.0100,0.0174,2025-06-09T13:58:44.810625
6651,-0.4612,0.8369,0.3836,28.035,-4.935,-1.260,0.00,0.0368,0.0254,0.0200,0.0174,2025-06-09T13:58:44.810625
6652,-0.4699,0.8311,0.3758,26.250,-6.545,6.020,0.00,0.0368,0.0508,0.0100,0.0087,2025-06-09T13:58:44.811624
6653,-0.4939,0.8540,0.3572,25.060,-5.915,11.025,0.00,0.0184,0.0254,0.0200,0.0174,2025-06-09T13:58:44.811624
6654,-0.5553,0.8828,0.3479,23.975,-4.375,10.570,0.01,0.0184,0.0254,0.0100,0.0087,2025-06-09T13:58:44.811624
6655,-0.6115,0.9057,0.3548,23.975,-3.745,6.195,0.01,0.0184,0.0508,0.0100,0.0087,2025-06-09T13:58:44.811624
6656,-0.7052,0.8950,0.3689,23.555,-5.705,-3.220,0.00,0.0184,0.0254,0.0000,0.0087,2025-06-09T13:58:44.811624
6657,-0.7257,0.8633,0.3860,22.785,-9.695,-11.305,0.00,0.0184,0.0508,0.0200,0.0087,2025-06-09T13:58:44.907391
6658,-0.7056,0.8145,0.4153,22.190,-15.715,-17.815,0.00,0.0184,0.0508,0.0200,0.0174,2025-06-09T13:58:44.907391
6659,-0.6769,0.7813,0.4538,21.070,-20.510,-20.230,0.00,0.0184,0.0254,0.0200,0.0087,2025-06-09T13:58:44.907391
6660,-0.6290,0.7584,0.4831,19.950,-26.530,-20.965,0.01,0.0368,0.0508,0.0200,0.0087,2025-06-09T13:58:44.907391
6661,-0.5851,0.7535,0.4900,17.640,-32.340,-20.405,0.00,0.0184,0.0508,0.0200,0.0087,2025-06-09T13:58:44.907391
6662,-0.5134,0.7574,0.4782,15.925,-37.205,-20.020,0.01,0.0184,0.0254,0.0100,0.0174,2025-06-09T13:58:44.907391
6663,-0.4563,0.7686,0.4621,13.755,-41.160,-20.475,0.00,0.0368,0.0254,0.0200,0.0087,2025-06-09T13:58:44.907391
6664,-0.4036,0.7876,0.4275,12.110,-43.085,-22.085,0.01,0.0000,0.0254,0.0100,0.0174,2025-06-09T13:58:44.907391
6665,-0.3792,0.7989,0.3924,11.060,-44.940,-24.535,0.01,0.0184,0.0254,0.0200,0.0087,2025-06-09T13:58:45.008097
6666,-0.3802,0.8003,0.3504,10.570,-48.160,-27.265,0.00,0.0184,0.0254,0.0100,0.0087,2025-06-09T13:58:45.008097
6667,-0.3806,0.7974,0.3167,10.710,-52.500,-29.750,0.01,0.0184,0.0508,0.0200,0.0174,2025-06-09T13:58:45.008097
6668,-0.3845,0.7954,0.2835,11.340,-53.900,-31.010,0.00,0.0184,0.0508,0.0200,0.0087,2025-06-09T13:58:45.008097
6669,-0.4075,0.7901,0.2547,11.795,-52.745,-31.955,0.01,0.0184,0.0254,0.0100,0.0087,2025-06-09T13:58:45.008097
6670,-0.4460,0.7871,0.2338,12.250,-51.415,-32.235,0.00,0.0184,0.0508,0.0100,0.0087,2025-06-09T13:58:45.008097
6671,-0.4973,0.7808,0.2201,13.160,-50.715,-31.605,0.01,0.0184,0.0254,0.0200,0.0174,2025-06-09T13:58:45.008097
6672,-0.5358,0.7847,0.2098,14.595,-51.135,-30.275,0.00,0.0368,0.0508,0.0100,0.0087,2025-06-09T13:58:45.008097
6673,-0.5695,0.7910,0.2069,15.715,-52.290,-28.210,0.01,0.0184,0.0508,0.0200,0.0087,2025-06-09T13:58:45.117801
6674,-0.5866,0.8062,0.2147,16.730,-52.990,-26.110,0.01,0.0184,0.0508,0.0100,0.0087,2025-06-09T13:58:45.117801
6675,-0.5876,0.8179,0.2250,17.885,-53.480,-23.905,0.00,0.0368,0.0254,0.0100,0.0087,2025-06-09T13:58:45.117801
6676,-0.5871,0.8223,0.2298,19.180,-53.270,-22.540,0.01,0.0184,0.0254,0.0100,0.0174,2025-06-09T13:58:45.117801
6677,-0.5817,0.8281,0.2386,20.405,-52.290,-21.770,0.00,0.0368,0.0508,0.0100,0.0000,2025-06-09T13:58:45.117801
6678,-0.5734,0.8345,0.2503,22.050,-50.295,-22.155,0.00,0.0184,0.0508,0.0100,0.0000,2025-06-09T13:58:45.117801
6679,-0.5758,0.8384,0.2738,23.625,-48.580,-23.135,0.00,0.0184,0.0254,0.0100,0.0087,2025-06-09T13:58:45.117801
6680,-0.5758,0.8398,0.2840,24.780,-48.160,-25.095,0.01,0.0368,0.0508,0.0100,0.0087,2025-06-09T13:58:45.215541
6681,-0.5578,0.8389,0.3016,26.110,-48.930,-26.530,0.00,0.0184,0.0508,0.0100,0.0174,2025-06-09T13:58:45.215541
6682,-0.5217,0.8316,0.3040,26.635,-50.015,-27.510,0.01,0.0184,0.0254,0.0100,0.0087,2025-06-09T13:58:45.215541
6683,-0.4729,0.8276,0.3035,26.320,-50.050,-27.440,0.01,0.0368,0.0254,0.0200,0.0087,2025-06-09T13:58:45.215541
6684,-0.4158,0.8208,0.3021,25.165,-48.125,-25.725,0.00,0.0184,0.0254,0.0100,0.0087,2025-06-09T13:58:45.215541
6685,-0.3836,0.8184,0.3167,23.030,-44.800,-22.960,0.01,0.0184,0.0254,0.0200,0.0087,2025-06-09T13:58:45.215541
6686,-0.3845,0.8257,0.3177,20.930,-44.870,-18.795,0.00,0.0184,0.0508,0.0100,0.0174,2025-06-09T13:58:45.215541
6687,-0.4055,0.8423,0.2996,20.020,-48.965,-15.715,0.00,0.0000,0.0508,0.0100,0.0087,2025-06-09T13:58:45.215541
6688,-0.4006,0.8516,0.2923,18.655,-51.835,-13.580,0.01,0.0368,0.0254,0.0100,0.0087,2025-06-09T13:58:45.315275
6689,-0.3880,0.8711,0.3035,17.465,-54.355,-12.110,0.01,0.0368,0.0508,0.0200,0.0087,2025-06-09T13:58:45.315275
6690,-0.3958,0.8794,0.3206,16.555,-54.110,-11.060,0.01,0.0368,0.0508,0.0200,0.0087,2025-06-09T13:58:45.315275
6691,-0.4168,0.8974,0.3206,15.750,-52.885,-9.730,0.01,0.0368,0.0508,0.0200,0.0087,2025-06-09T13:58:45.315275
6692,-0.4211,0.9004,0.3353,14.945,-50.435,-8.715,0.00,0.0184,0.0254,0.0200,0.0087,2025-06-09T13:58:45.315275
6693,-0.4104,0.9048,0.3465,14.700,-46.900,-6.440,0.01,0.0184,0.0254,0.0200,0.0087,2025-06-09T13:58:45.315275
6694,-0.4226,0.9150,0.3640,14.175,-42.245,-2.940,0.00,0.0368,0.0254,0.0100,0.0087,2025-06-09T13:58:45.315275
6695,-0.4372,0.9238,0.3992,15.015,-40.740,2.030,0.01,0.0368,0.0254,0.0200,0.0087,2025-06-09T13:58:45.532693
6696,-0.4529,0.9223,0.4148,15.085,-40.250,7.665,0.00,0.0368,0.0508,0.0200,0.0174,2025-06-09T13:58:45.532693
6697,-0.4470,0.9018,0.4104,15.330,-42.105,14.210,0.01,0.0368,0.0254,0.0200,0.0174,2025-06-09T13:58:45.532693
6698,-0.4319,0.8886,0.3938,15.925,-45.850,23.170,0.01,0.0368,0.0508,0.0100,0.0087,2025-06-09T13:58:45.532693
6699,-0.3943,0.8760,0.3963,17.185,-46.095,29.715,0.00,0.0184,0.0508,0.0200,0.0087,2025-06-09T13:58:45.532693
6700,-0.3499,0.8545,0.3948,17.745,-42.875,35.735,0.00,0.0184,0.0254,0.0100,0.0087,2025-06-09T13:58:45.532693
6701,-0.3177,0.8394,0.3826,17.920,-38.745,39.935,0.00,0.0368,0.0254,0.0200,0.0087,2025-06-09T13:58:45.532693
6702,-0.3216,0.8096,0.3753,17.885,-33.740,42.875,0.01,0.0184,0.0254,0.0200,0.0087,2025-06-09T13:58:45.532693
6703,-0.3348,0.7871,0.3587,17.080,-30.310,44.345,0.01,0.0368,0.0254,0.0200,0.0087,2025-06-09T13:58:45.532693
6704,-0.3494,0.7793,0.3479,16.835,-28.420,44.380,0.00,0.0368,0.0254,0.0100,0.0087,2025-06-09T13:58:45.532693
6705,-0.3694,0.7784,0.3353,15.540,-25.830,42.560,0.01,0.0368,0.0254,0.0100,0.0087,2025-06-09T13:58:45.532693
6706,-0.3538,0.7730,0.3294,13.475,-23.065,39.795,0.00,0.0184,0.0254,0.0100,0.0087,2025-06-09T13:58:45.532693
6707,-0.3640,0.7730,0.3304,11.340,-18.340,34.545,0.00,0.0184,0.0254,0.0100,0.0087,2025-06-09T13:58:45.532693
6708,-0.3416,0.7715,0.3484,7.350,-14.945,29.365,0.00,0.0184,0.0254,0.0000,0.0087,2025-06-09T13:58:45.532693
6709,-0.3172,0.7530,0.3543,4.235,-13.545,24.045,0.00,0.0368,0.0254,0.0100,0.0087,2025-06-09T13:58:45.532693
6710,-0.2967,0.7505,0.3592,0.875,-11.935,20.300,0.01,0.0368,0.0254,0.0200,0.0087,2025-06-09T13:58:45.623478
6711,-0.2362,0.7613,0.3836,-1.750,-10.255,16.975,0.01,0.0184,0.0508,0.0200,0.0087,2025-06-09T13:58:45.623478
6712,-0.2206,0.7701,0.4099,-4.900,-9.135,14.595,0.00,0.0184,0.0254,0.0200,0.0000,2025-06-09T13:58:45.623478
6713,-0.2108,0.7993,0.4426,-7.490,-9.695,12.355,0.01,0.0368,0.0254,0.0100,0.0087,2025-06-09T13:58:45.623478
6714,-0.2152,0.8164,0.4685,-8.645,-13.335,10.990,0.01,0.0368,0.0508,0.0100,0.0174,2025-06-09T13:58:45.623478
6715,-0.2220,0.8350,0.4856,-8.260,-18.130,9.450,0.00,0.0184,0.0254,0.0100,0.0087,2025-06-09T13:58:45.623478
6716,-0.2279,0.8564,0.4939,-6.615,-24.255,7.070,0.00,0.0184,0.0508,0.0100,0.0087,2025-06-09T13:58:45.623478
6717,-0.2284,0.8755,0.4890,-4.165,-27.405,4.690,0.01,0.0184,0.0254,0.0100,0.0087,2025-06-09T13:58:45.623478
6718,-0.2030,0.8935,0.4695,-2.065,-27.020,1.890,0.01,0.0368,0.0508,0.0200,0.0087,2025-06-09T13:58:45.727173
6719,-0.1874,0.9072,0.4685,-0.070,-22.050,-0.630,0.00,0.0184,0.0254,0.0200,0.0174,2025-06-09T13:58:45.727173
6720,-0.1679,0.9160,0.4743,0.420,-13.405,-2.940,0.01,0.0368,0.0254,0.0200,0.0087,2025-06-09T13:58:45.727173
6721,-0.1932,0.9252,0.4812,0.805,-3.710,-4.130,0.01,0.0368,0.0254,0.0200,0.0087,2025-06-09T13:58:45.727173
6722,-0.2440,0.9350,0.4841,0.770,-1.155,-4.165,0.00,0.0368,0.0508,0.0200,0.0087,2025-06-09T13:58:45.727173
6723,-0.2713,0.9399,0.4821,0.105,-3.885,-3.045,0.00,0.0184,0.0508,0.0100,0.0087,2025-06-09T13:58:45.727173
6724,-0.2796,0.9457,0.4612,-1.610,-8.785,-1.400,0.00,0.0368,0.0254,0.0200,0.0087,2025-06-09T13:58:45.728170
6725,-0.2860,0.9496,0.4558,-3.360,-14.490,0.945,0.01,0.0184,0.0254,0.0200,0.0087,2025-06-09T13:58:45.728170
6726,-0.2533,0.9467,0.4651,-5.250,-18.620,2.975,0.00,0.0184,0.0254,0.0100,0.0174,2025-06-09T13:58:45.777064
6727,-0.2269,0.9365,0.4475,-6.930,-18.585,5.425,0.00,0.0184,0.0508,0.0100,0.0174,2025-06-09T13:58:45.777064
6728,-0.2157,0.9335,0.4368,-7.420,-15.995,8.225,0.00,0.0368,0.0508,0.0100,0.0087,2025-06-09T13:58:45.777064
6729,-0.2264,0.9272,0.4236,-8.295,-13.930,10.115,0.01,0.0184,0.0508,0.0200,0.0174,2025-06-09T13:58:45.929632
6730,-0.2313,0.9243,0.4182,-9.450,-12.635,12.320,0.01,0.0368,0.0508,0.0200,0.0087,2025-06-09T13:58:45.929632
6731,-0.2357,0.9238,0.4153,-9.170,-12.740,13.790,0.00,0.0368,0.0508,0.0100,0.0174,2025-06-09T13:58:45.929632
6732,-0.2328,0.9121,0.4055,-9.730,-13.755,15.225,0.01,0.0368,0.0508,0.0200,0.0174,2025-06-09T13:58:45.929632
6733,-0.2284,0.8994,0.4070,-9.240,-14.420,15.715,0.00,0.0368,0.0254,0.0200,0.0174,2025-06-09T13:58:45.929632
6734,-0.2006,0.8906,0.4075,-9.170,-13.650,16.415,0.00,0.0000,0.0254,0.0100,0.0174,2025-06-09T13:58:45.929632
6735,-0.2015,0.8882,0.4050,-9.275,-11.900,16.450,0.00,0.0184,0.0508,0.0100,0.0087,2025-06-09T13:58:45.929632
6736,-0.1996,0.8828,0.4002,-9.065,-10.185,16.065,0.00,0.0184,0.0508,0.0100,0.0174,2025-06-09T13:58:45.929632
6737,-0.1937,0.8779,0.3933,-9.135,-8.295,15.365,0.00,0.0184,0.0254,0.0100,0.0087,2025-06-09T13:58:45.929632
6738,-0.1815,0.8745,0.3938,-8.960,-7.140,14.455,0.00,0.0184,0.0254,0.0100,0.0087,2025-06-09T13:58:45.929632
6739,-0.1737,0.8789,0.3982,-9.170,-5.355,12.985,0.00,0.0368,0.0000,0.0100,0.0174,2025-06-09T13:58:45.929632
6740,-0.1840,0.8721,0.3919,-9.625,-3.535,11.865,0.00,0.0184,0.0254,0.0100,0.0087,2025-06-09T13:58:45.929632
6741,-0.2045,0.8652,0.3977,-9.870,-3.745,10.885,0.01,0.0368,0.0508,0.0200,0.0087,2025-06-09T13:58:46.034351
6742,-0.2001,0.8657,0.4031,-9.625,-4.375,10.255,0.01,0.0184,0.0508,0.0100,0.0087,2025-06-09T13:58:46.034351
6743,-0.1996,0.8613,0.3943,-9.555,-3.710,10.010,0.01,0.0368,0.0508,0.0100,0.0087,2025-06-09T13:58:46.034351
6744,-0.1991,0.8569,0.3948,-9.275,-2.030,9.800,0.01,0.0184,0.0508,0.0200,0.0087,2025-06-09T13:58:46.034351
6745,-0.2030,0.8569,0.3860,-8.995,-0.140,9.870,0.00,0.0184,0.0254,0.0100,0.0174,2025-06-09T13:58:46.034351
6746,-0.2118,0.8564,0.3894,-8.435,0.770,9.905,0.00,0.0368,0.0254,0.0100,0.0174,2025-06-09T13:58:46.034351
6747,-0.2089,0.8564,0.3904,-7.945,2.170,10.150,0.01,0.0184,0.0254,0.0100,0.0087,2025-06-09T13:58:46.034351
6748,-0.2113,0.8501,0.3811,-7.210,3.535,10.360,0.01,0.0184,0.0508,0.0100,0.0087,2025-06-09T13:58:46.136079
6749,-0.2025,0.8447,0.3758,-6.405,5.005,10.045,0.00,0.0368,0.0254,0.0100,0.0174,2025-06-09T13:58:46.136079
6750,-0.1952,0.8374,0.3762,-5.215,6.475,9.275,0.00,0.0184,0.0508,0.0100,0.0174,2025-06-09T13:58:46.136079
6751,-0.1932,0.8330,0.3816,-4.480,7.665,7.945,0.00,0.0368,0.0254,0.0200,0.0087,2025-06-09T13:58:46.136079
6752,-0.1976,0.8257,0.3797,-3.395,8.050,6.580,0.00,0.0368,0.0254,0.0200,0.0174,2025-06-09T13:58:46.136079
6753,-0.1967,0.8174,0.3758,-3.010,8.575,4.340,0.00,0.0184,0.0254,0.0100,0.0087,2025-06-09T13:58:46.136079
6754,-0.1786,0.8130,0.3797,-2.695,9.625,2.555,0.00,0.0368,0.0254,0.0100,0.0087,2025-06-09T13:58:46.136079
6755,-0.1737,0.8169,0.3753,-3.185,11.060,0.315,0.01,0.0184,0.0254,0.0200,0.0087,2025-06-09T13:58:46.136079
6756,-0.1850,0.8101,0.3909,-4.165,11.795,-3.605,0.01,0.0368,0.0508,0.0100,0.0087,2025-06-09T13:58:46.237805
6757,-0.1810,0.8003,0.3919,-5.320,10.570,-6.825,0.01,0.0368,0.0254,0.0200,0.0087,2025-06-09T13:58:46.237805
6758,-0.1859,0.7823,0.4211,-5.950,9.100,-10.885,0.00,0.0368,0.0254,0.0200,0.0087,2025-06-09T13:58:46.237805
6759,-0.1869,0.7754,0.4338,-7.000,6.615,-14.105,0.00,0.0368,0.0508,0.0100,0.0174,2025-06-09T13:58:46.237805
6760,-0.1932,0.7574,0.4343,-8.085,3.535,-17.885,0.00,0.0368,0.0254,0.0100,0.0174,2025-06-09T13:58:46.237805
6761,-0.1840,0.7588,0.4568,-9.380,0.805,-22.890,0.00,0.0368,0.0254,0.0200,0.0087,2025-06-09T13:58:46.237805
6762,-0.1801,0.7652,0.4875,-11.515,0.175,-28.245,0.00,0.0184,0.0508,0.0100,0.0174,2025-06-09T13:58:46.237805
6763,-0.1737,0.7559,0.4904,-14.105,-1.505,-35.980,0.01,0.0184,0.0254,0.0100,0.0087,2025-06-09T13:58:46.340530
6764,-0.1371,0.7666,0.5222,-16.520,-3.220,-43.365,0.00,0.0368,0.0508,0.0200,0.0087,2025-06-09T13:58:46.340530
6765,-0.1264,0.7803,0.5539,-19.285,-5.075,-52.815,0.00,0.0368,0.0508,0.0100,0.0087,2025-06-09T13:58:46.340530
6766,-0.1137,0.8115,0.6027,-24.430,-8.190,-61.495,0.00,0.0184,0.0254,0.0200,0.0087,2025-06-09T13:58:46.340530
6767,-0.1230,0.8384,0.6520,-30.345,-14.245,-69.930,0.01,0.0184,0.0254,0.0100,0.0087,2025-06-09T13:58:46.340530
6768,-0.1049,0.8896,0.7061,-38.080,-24.710,-74.970,0.00,0.0184,0.0508,0.0100,0.0087,2025-06-09T13:58:46.340530
6769,-0.1025,0.9618,0.7100,-45.675,-33.180,-78.575,0.00,0.0184,0.0254,0.0200,0.0087,2025-06-09T13:58:46.340530
6770,-0.1122,1.0726,0.7340,-56.070,-42.175,-78.820,0.01,0.0184,0.0254,0.0100,0.0087,2025-06-09T13:58:46.340530
6771,-0.1186,1.3010,0.7642,-65.870,-49.735,-75.390,0.01,0.0184,0.0508,0.0200,0.0087,2025-06-09T13:58:46.444255
6772,-0.1308,1.5884,0.7730,-85.960,-60.445,-64.995,0.00,0.0184,0.0508,0.0100,0.0087,2025-06-09T13:58:46.444255
6773,-0.1630,2.0208,0.7901,-108.395,-69.580,-51.310,0.00,0.0368,0.0254,0.0100,0.0174,2025-06-09T13:58:46.444255
6774,-0.2391,2.4620,0.6993,-133.630,-81.480,-29.435,0.00,0.0368,0.0508,0.0200,0.0087,2025-06-09T13:58:46.444255
6775,-0.2738,2.9758,0.4275,-161.105,-86.275,-7.210,0.01,0.0184,0.0508,0.0100,0.0087,2025-06-09T13:58:46.444255
6776,-0.4192,3.5131,0.1908,-181.685,-84.665,28.525,0.00,0.0184,0.0254,0.0100,0.0087,2025-06-09T13:58:46.444255
6777,-0.5949,3.7840,-0.1527,-192.710,-88.095,71.295,0.01,0.0184,0.0254,0.0100,0.0087,2025-06-09T13:58:46.444255
6778,-0.7652,3.9001,-0.4128,-190.365,-85.505,138.320,0.01,0.0184,0.0254,0.0200,0.0087,2025-06-09T13:58:46.444255
6779,-0.9677,3.8044,-0.6930,-182.945,-58.695,200.025,0.00,0.0184,0.0254,0.0100,0.0087,2025-06-09T13:58:46.575902
6780,-1.2786,3.5116,-0.9135,-180.705,-20.055,272.300,0.01,0.0184,0.0254,0.0200,0.0087,2025-06-09T13:58:46.575902
6781,-1.7622,3.2062,-1.1941,-182.805,18.795,325.185,0.00,0.0368,0.0508,0.0100,0.0087,2025-06-09T13:58:46.575902
6782,-2.2946,2.7899,-1.4264,-192.605,33.985,373.835,0.00,0.0184,0.0254,0.0200,0.0087,2025-06-09T13:58:46.648709
6783,-2.6757,2.2136,-1.6743,-211.610,39.480,404.810,0.00,0.0184,0.0508,0.0200,0.0174,2025-06-09T13:58:46.648709
6784,-3.0900,1.6563,-1.6792,-232.925,43.855,430.815,0.00,0.0184,0.0254,0.0200,0.0174,2025-06-09T13:58:46.648709
6785,-3.2086,0.9950,-1.6031,-260.785,60.620,442.190,0.00,0.0184,0.0508,0.0100,0.0174,2025-06-09T13:58:46.648709
6786,-3.3272,0.3963,-1.4230,-284.725,94.325,438.830,0.01,0.0368,0.0254,0.0200,0.0087,2025-06-09T13:58:46.648709
6787,-3.4165,-0.1708,-1.2229,-302.575,110.460,420.245,0.00,0.0184,0.0254,0.0100,0.0087,2025-06-09T13:58:46.648709
6788,-3.5556,-1.1400,-1.0882,-304.675,101.920,385.035,0.01,0.0184,0.0254,0.0100,0.0087,2025-06-09T13:58:46.648709
6789,-3.5829,-2.0603,-0.5422,-299.705,66.920,347.620,0.00,0.0184,0.0254,0.0100,0.0087,2025-06-09T13:58:46.648709
6790,-3.1100,-2.4429,-0.3528,-271.635,9.100,321.825,0.00,0.0184,0.0254,0.0000,0.0087,2025-06-09T13:58:46.648709
6791,-2.6767,-4.0128,0.0547,-185.465,-49.350,290.465,0.00,0.0184,0.0254,0.0200,0.0087,2025-06-09T13:58:46.648709
6792,-1.8041,-4.0475,0.4758,-125.755,-94.080,261.835,0.00,0.0184,0.0254,0.0100,0.0087,2025-06-09T13:58:46.648709
6793,-0.9160,-4.3652,0.9682,-56.105,-77.700,239.575,0.01,0.0184,0.0254,0.0200,0.0087,2025-06-09T13:58:46.648709
6794,-0.4104,-4.4515,1.3908,-11.970,-60.865,216.335,0.01,0.0184,0.0508,0.0200,0.0087,2025-06-09T13:58:46.697578
6795,0.1918,-4.4042,1.8173,41.720,-42.910,170.765,0.00,0.0184,0.0254,0.0200,0.0174,2025-06-09T13:58:46.697578
6796,0.5514,-4.1075,2.1238,89.285,-23.765,113.365,0.00,0.0368,0.0254,0.0200,0.0174,2025-06-09T13:58:46.697578
6797,1.0214,-3.5463,2.3263,85.330,-12.915,33.775,0.00,0.0184,0.0508,0.0100,0.0087,2025-06-09T13:58:46.852186
6798,1.2317,-2.9753,2.6059,85.295,-14.875,-36.995,0.01,0.0184,0.0254,0.0100,0.0087,2025-06-09T13:58:46.852186
6799,1.1858,-2.5137,2.6093,84.945,-19.460,-133.385,0.00,0.0184,0.0254,0.0100,0.0174,2025-06-09T13:58:46.852186
6800,0.9379,-2.1448,2.4000,69.405,-24.815,-219.835,0.00,0.0184,0.0254,0.0000,0.0087,2025-06-09T13:58:46.852186
6801,0.4050,-1.7944,2.2375,64.155,-36.155,-315.875,0.00,0.0368,0.0254,0.0200,0.0087,2025-06-09T13:58:46.852186
6802,-0.3738,-1.5694,2.1096,60.060,-65.625,-377.580,0.00,0.0368,0.0254,0.0100,0.0087,2025-06-09T13:58:46.852186
6803,-1.3713,-1.4503,1.8973,69.335,-99.540,-415.135,0.00,0.0368,0.0254,0.0100,0.0174,2025-06-09T13:58:46.852186
6804,-2.0525,-1.3274,1.6246,67.900,-138.460,-413.280,0.00,0.0184,0.0254,0.0100,0.0087,2025-06-09T13:58:46.852186
6805,-2.5654,-1.1073,1.2844,91.210,-151.760,-377.580,0.00,0.0368,0.0254,0.0100,0.0087,2025-06-09T13:58:46.852186
6806,-2.6684,-0.6578,1.0390,111.510,-112.840,-341.705,0.01,0.0184,0.0254,0.0100,0.0087,2025-06-09T13:58:46.852186
6807,-2.3717,-0.1488,0.5246,135.100,-36.680,-306.460,0.00,0.0184,0.0254,0.0200,0.0087,2025-06-09T13:58:46.852186
6808,-2.3717,0.2030,0.1176,155.015,46.585,-271.250,0.00,0.0184,0.0508,0.0100,0.0087,2025-06-09T13:58:46.852186
6809,-2.5181,0.6207,-0.2708,179.375,51.170,-244.720,0.00,0.0368,0.0254,0.0200,0.0174,2025-06-09T13:58:46.959899
6810,-2.7801,0.9072,-0.4709,193.690,-47.705,-213.045,0.01,0.0184,0.0508,0.0200,0.0087,2025-06-09T13:58:46.959899
6811,-2.3517,1.1795,-0.7813,206.710,-151.900,-195.475,0.01,0.0184,0.0508,0.0200,0.0174,2025-06-09T13:58:46.959899
6812,-1.2556,1.2668,-1.0238,203.595,-192.990,-185.395,0.00,0.0368,0.0254,0.0100,0.0174,2025-06-09T13:58:46.959899
6813,-0.4558,1.3166,-1.0980,187.670,-148.995,-181.755,0.00,0.0184,0.0254,0.0100,0.0087,2025-06-09T13:58:46.959899
6814,-0.0425,1.3474,-0.9589,177.030,-59.255,-176.820,0.00,0.0184,0.0508,0.0200,0.0087,2025-06-09T13:58:46.959899
6815,-0.1064,1.3976,-0.7764,160.545,-4.900,-174.580,0.00,0.0184,0.0254,0.0200,0.0087,2025-06-09T13:58:46.959899
6816,-0.1850,1.5055,-0.6310,154.770,18.270,-172.655,0.00,0.0368,0.0254,0.0200,0.0087,2025-06-09T13:58:47.062601
6817,-0.1972,1.6138,-0.4211,137.305,20.230,-168.560,0.01,0.0368,0.0508,0.0200,0.0174,2025-06-09T13:58:47.062601
6818,-0.2708,1.6997,-0.3128,124.180,8.505,-160.825,0.00,0.0184,0.0254,0.0200,0.0174,2025-06-09T13:58:47.062601
6819,-0.2191,1.7807,-0.1957,118.545,-3.465,-152.670,0.01,0.0184,0.0254,0.0200,0.0087,2025-06-09T13:58:47.062601
6820,-0.0727,1.8524,-0.0698,110.180,2.765,-138.320,0.01,0.0368,0.0254,0.0100,0.0087,2025-06-09T13:58:47.062601
6821,-0.0166,1.8510,0.0683,97.510,17.395,-123.410,0.00,0.0000,0.0254,0.0100,0.0000,2025-06-09T13:58:47.062601
6822,-0.0395,1.8154,0.1923,88.200,26.110,-103.775,0.00,0.0184,0.0508,0.0100,0.0087,2025-06-09T13:58:47.062601
6823,-0.0859,1.7758,0.3084,77.805,27.335,-86.310,0.01,0.0184,0.0254,0.0100,0.0087,2025-06-09T13:58:47.062601
6824,-0.1039,1.7026,0.4011,70.245,22.400,-66.325,0.01,0.0368,0.0508,0.0200,0.0087,2025-06-09T13:58:47.158368
6825,-0.1249,1.6504,0.4865,64.645,13.265,-51.555,0.01,0.0184,0.0254,0.0100,0.0174,2025-06-09T13:58:47.158368
6826,-0.0893,1.5631,0.5305,59.815,7.910,-38.710,0.01,0.0184,0.0508,0.0200,0.0174,2025-06-09T13:58:47.158368
6827,-0.0176,1.5016,0.5749,57.295,8.715,-25.970,0.00,0.0368,0.0254,0.0100,0.0087,2025-06-09T13:58:47.158368
6828,0.0283,1.4211,0.6251,56.175,15.400,-18.340,0.00,0.0184,0.0254,0.0100,0.0087,2025-06-09T13:58:47.158368
6829,0.0703,1.3405,0.6393,54.565,24.710,-10.465,0.00,0.0368,0.0254,0.0200,0.0087,2025-06-09T13:58:47.158368
6830,0.0508,1.2786,0.6681,52.465,33.075,-3.850,0.01,0.0184,0.0254,0.0200,0.0174,2025-06-09T13:58:47.158368
6831,0.0088,1.2434,0.6573,51.310,34.545,2.835,0.00,0.0184,0.0508,0.0100,0.0087,2025-06-09T13:58:47.265059
6832,-0.0190,1.2171,0.6354,47.355,29.820,7.280,0.00,0.0184,0.0254,0.0100,0.0087,2025-06-09T13:58:47.265059
6833,-0.0342,1.1897,0.6212,42.035,24.395,11.795,0.01,0.0184,0.0254,0.0100,0.0087,2025-06-09T13:58:47.265059
6834,-0.0288,1.1619,0.6105,27.545,19.845,16.170,0.00,0.0368,0.0254,0.0200,0.0087,2025-06-09T13:58:47.265059
6835,-0.0444,1.1053,0.5802,29.750,15.540,19.565,0.00,0.0184,0.0254,0.0200,0.0087,2025-06-09T13:58:47.265059
6836,-0.0449,1.0624,0.5500,24.115,11.725,22.330,0.00,0.0184,0.0254,0.0100,0.0087,2025-06-09T13:58:47.265059
6837,-0.0288,1.0214,0.5305,20.055,12.355,23.940,0.00,0.0368,0.0508,0.0100,0.0087,2025-06-09T13:58:47.265059
6838,-0.0405,0.9682,0.5109,16.555,14.910,25.270,0.00,0.0184,0.0254,0.0200,0.0087,2025-06-09T13:58:47.265059
6839,-0.0669,0.9262,0.4851,13.230,15.505,26.320,0.00,0.0184,0.0254,0.0100,0.0087,2025-06-09T13:58:47.364817
6840,-0.0903,0.8930,0.4738,10.955,14.420,26.915,0.01,0.0184,0.0508,0.0100,0.0087,2025-06-09T13:58:47.364817
6841,-0.0966,0.8667,0.4529,8.540,12.670,27.230,0.00,0.0368,0.0508,0.0100,0.0174,2025-06-09T13:58:47.364817
6842,-0.0937,0.8525,0.4436,6.160,11.095,26.775,0.01,0.0368,0.0508,0.0200,0.0087,2025-06-09T13:58:47.364817
6843,-0.0952,0.8394,0.4192,4.130,8.400,25.795,0.00,0.0184,0.0254,0.0100,0.0087,2025-06-09T13:58:47.364817
6844,-0.0869,0.8311,0.4153,1.750,6.685,24.710,0.00,0.0368,0.0508,0.0200,0.0087,2025-06-09T13:58:47.364817
6845,-0.0752,0.8276,0.4124,0.490,6.720,22.715,0.00,0.0184,0.0254,0.0100,0.0087,2025-06-09T13:58:47.364817
6846,-0.0712,0.8311,0.4153,-0.175,8.785,20.195,0.01,0.0368,0.0508,0.0200,0.0174,2025-06-09T13:58:47.467518
6847,-0.0747,0.8359,0.4050,-0.595,10.920,16.835,0.01,0.0184,0.0508,0.0100,0.0087,2025-06-09T13:58:47.467518
6848,-0.0961,0.8355,0.4094,-0.490,10.955,14.035,0.01,0.0368,0.0254,0.0200,0.0087,2025-06-09T13:58:47.467518
6849,-0.1005,0.8355,0.4128,-0.210,10.325,10.675,0.01,0.0368,0.0508,0.0200,0.0087,2025-06-09T13:58:47.467518
6850,-0.1059,0.8389,0.4246,-0.245,10.955,8.225,0.00,0.0184,0.0254,0.0100,0.0087,2025-06-09T13:58:47.467518
6851,-0.1113,0.8374,0.4070,-0.140,12.075,5.985,0.01,0.0184,0.0254,0.0100,0.0087,2025-06-09T13:58:47.467518
6852,-0.1113,0.8462,0.4050,0.350,14.910,3.220,0.00,0.0184,0.0254,0.0100,0.0087,2025-06-09T13:58:47.467518
6853,-0.1181,0.8535,0.4246,-0.070,17.850,1.610,0.00,0.0184,0.0254,0.0100,0.0087,2025-06-09T13:58:47.467518
6854,-0.1381,0.8613,0.4275,-0.700,18.655,0.105,0.01,0.0184,0.0508,0.0100,0.0174,2025-06-09T13:58:47.611162
6855,-0.1776,0.8599,0.4338,-0.735,15.540,-1.330,0.01,0.0184,0.0254,0.0200,0.0087,2025-06-09T13:58:47.611162
6856,-0.1718,0.8652,0.4494,-0.455,12.075,-2.170,0.00,0.0368,0.0254,0.0200,0.0087,2025-06-09T13:58:47.611162
6857,-0.1576,0.8662,0.4441,-0.665,9.975,-3.290,0.00,0.0184,0.0508,0.0200,0.0174,2025-06-09T13:58:47.611162
6858,-0.1444,0.8647,0.4280,-0.070,10.465,-3.920,0.00,0.0368,0.0508,0.0100,0.0000,2025-06-09T13:58:47.611162
6859,-0.1410,0.8711,0.4348,-0.035,12.775,-4.585,0.00,0.0368,0.0254,0.0200,0.0087,2025-06-09T13:58:47.611162
6860,-0.1459,0.8735,0.4290,0.770,15.435,-4.830,0.00,0.0184,0.0254,0.0100,0.0087,2025-06-09T13:58:47.611162
6861,-0.1708,0.9980,0.4377,0.945,15.750,-4.970,0.01,0.0368,0.0508,0.0200,0.0174,2025-06-09T13:58:47.611162
6862,-0.1937,0.8847,0.4441,1.260,14.140,-4.725,0.00,0.0368,0.0254,0.0200,0.0174,2025-06-09T13:58:47.776689
6863,-0.2079,0.8896,0.4504,1.820,11.760,-4.165,0.01,0.0184,0.0254,0.0200,0.0087,2025-06-09T13:58:47.776689
6864,-0.2259,0.8896,0.4451,2.450,9.310,-3.045,0.01,0.0368,0.0254,0.0200,0.0087,2025-06-09T13:58:47.776689
6865,-0.2211,0.8906,0.4553,3.570,7.840,-1.785,0.00,0.0368,0.0254,0.0200,0.0087,2025-06-09T13:58:47.776689
6866,-0.2152,0.8945,0.4656,4.480,8.610,-0.490,0.01,0.0184,0.0508,0.0200,0.0087,2025-06-09T13:58:47.776689
6867,-0.2274,0.8921,0.4612,4.935,8.470,0.875,0.01,0.0368,0.0254,0.0100,0.0087,2025-06-09T13:58:47.776689
6868,-0.2367,0.8857,0.4587,5.880,6.720,2.240,0.01,0.0368,0.0254,0.0100,0.0087,2025-06-09T13:58:47.776689
6869,-0.2313,0.8862,0.4665,6.510,5.215,3.325,0.00,0.0184,0.0508,0.0100,0.0087,2025-06-09T13:58:47.776689
6870,-0.2269,0.8852,0.4695,6.825,3.675,3.850,0.00,0.0184,0.0508,0.0200,0.0174,2025-06-09T13:58:47.776689
6871,-0.2240,0.8808,0.4636,7.420,1.785,4.060,0.00,0.0368,0.0254,0.0100,0.0087,2025-06-09T13:58:47.776689
6872,-0.2152,0.8711,0.4534,7.805,0.000,4.130,0.00,0.0368,0.0254,0.0100,0.0087,2025-06-09T13:58:47.777686
6873,-0.1991,0.8701,0.4577,8.400,-0.700,3.955,0.00,0.0368,0.0254,0.0100,0.0174,2025-06-09T13:58:47.777686
6874,-0.1952,0.8657,0.4421,8.400,-0.245,3.360,0.00,0.0000,0.0254,0.0100,0.0087,2025-06-09T13:58:47.777686
6875,-0.1957,0.8667,0.4416,9.135,0.315,1.960,0.00,0.0184,0.0254,0.0100,0.0087,2025-06-09T13:58:47.777686
6876,-0.2040,0.8642,0.4480,9.450,0.105,0.910,0.01,0.0184,0.0254,0.0100,0.0087,2025-06-09T13:58:47.777686
6877,-0.2094,0.8628,0.4416,9.660,-1.995,-0.175,0.01,0.0368,0.0508,0.0100,0.0174,2025-06-09T13:58:47.875426
6878,-0.2079,0.8613,0.4446,10.010,-5.145,-1.330,0.00,0.0368,0.0508,0.0200,0.0087,2025-06-09T13:58:47.875426
6879,-0.1976,0.8545,0.4304,9.590,-7.105,-2.275,0.00,0.0368,0.0508,0.0100,0.0087,2025-06-09T13:58:47.875426
6880,-0.1742,0.8520,0.4192,9.625,-7.840,-3.570,0.00,0.0368,0.0508,0.0200,0.0087,2025-06-09T13:58:47.875426
6881,-0.1606,0.8589,0.4207,8.470,-5.950,-4.585,0.01,0.0368,0.0508,0.0200,0.0000,2025-06-09T13:58:47.875426
6882,-0.1620,0.8618,0.4319,8.015,-4.130,-5.390,0.00,0.0184,0.0254,0.0100,0.0087,2025-06-09T13:58:47.875426
6883,-0.1703,0.8750,0.4338,6.650,-3.535,-5.915,0.00,0.0184,0.0254,0.0100,0.0087,2025-06-09T13:58:47.875426
6884,-0.1713,0.8882,0.4319,4.585,-3.675,-6.230,0.00,0.0368,0.0508,0.0100,0.0087,2025-06-09T13:58:48.004105
6885,-0.1874,0.9082,0.4402,2.380,-6.020,-6.195,0.01,0.0368,0.0508,0.0100,0.0174,2025-06-09T13:58:48.004105
6886,-0.1898,0.9179,0.4353,0.665,-10.080,-6.300,0.00,0.0368,0.0508,0.0200,0.0087,2025-06-09T13:58:48.004105
6887,-0.2030,0.9252,0.4324,-0.700,-14.770,-6.055,0.00,0.0184,0.0508,0.0100,0.0087,2025-06-09T13:58:48.004105
6888,-0.1864,0.9311,0.4353,-1.365,-17.605,-6.160,0.00,0.0368,0.0254,0.0100,0.0087,2025-06-09T13:58:48.004105
6889,-0.1723,0.9262,0.4246,-2.065,-17.045,-5.845,0.00,0.0184,0.0254,0.0100,0.0087,2025-06-09T13:58:48.004105
6890,-0.1688,0.9184,0.4202,-1.610,-14.700,-5.425,0.00,0.0368,0.0508,0.0200,0.0087,2025-06-09T13:58:48.004105
6891,-0.1728,0.9160,0.4075,-1.225,-12.425,-4.550,0.00,0.0184,0.0254,0.0100,0.0087,2025-06-09T13:58:48.004105
6892,-0.1893,0.9140,0.4124,-1.015,-11.340,-3.500,0.01,0.0184,0.0508,0.0200,0.0087,2025-06-09T13:58:48.085887
6893,-0.1986,0.9116,0.4070,-0.455,-11.935,-2.695,0.00,0.0184,0.0508,0.0100,0.0087,2025-06-09T13:58:48.085887
6894,-0.2001,0.9018,0.4026,0.140,-13.090,-1.890,0.00,0.0368,0.0508,0.0200,0.0174,2025-06-09T13:58:48.085887
6895,-0.1942,0.9023,0.3933,0.350,-14.175,-0.945,0.00,0.0184,0.0508,0.0200,0.0087,2025-06-09T13:58:48.085887
6896,-0.1859,0.8950,0.3811,0.630,-14.735,0.035,0.01,0.0184,0.0254,0.0200,0.0087,2025-06-09T13:58:48.085887
6897,-0.1640,0.8935,0.3870,0.875,-12.215,0.490,0.01,0.0368,0.0508,0.0100,0.0087,2025-06-09T13:58:48.085887
6898,-0.1625,0.8901,0.3826,0.875,-9.485,0.560,0.01,0.0184,0.0508,0.0200,0.0087,2025-06-09T13:58:48.085887
6899,-0.1698,0.8867,0.3880,1.470,-8.610,0.945,0.00,0.0184,0.0254,0.0200,0.0087,2025-06-09T13:58:48.085887
6900,-0.1737,0.8886,0.3992,1.330,-9.065,0.910,0.00,0.0368,0.0254,0.0200,0.0174,2025-06-09T13:58:48.149692
6901,-0.1674,0.8818,0.4011,1.960,-10.465,1.120,0.01,0.0368,0.0254,0.0200,0.0174,2025-06-09T13:58:48.149692
6902,-0.1601,0.8789,0.4060,2.170,-11.410,0.980,0.01,0.0184,0.0254,0.0100,0.0174,2025-06-09T13:58:48.149692
6903,-0.1449,0.8760,0.3982,2.555,-10.185,0.315,0.01,0.0368,0.0254,0.0200,0.0087,2025-06-09T13:58:48.149692
6904,-0.1444,0.8706,0.3997,2.310,-8.295,-0.350,0.00,0.0368,0.0254,0.0100,0.0174,2025-06-09T13:58:48.289320
6905,-0.1454,0.8769,0.4006,2.555,-6.265,-0.735,0.00,0.0368,0.0254,0.0200,0.0174,2025-06-09T13:58:48.289320
6906,-0.1596,0.8750,0.4041,2.170,-5.320,-1.225,0.00,0.0368,0.0508,0.0200,0.0087,2025-06-09T13:58:48.289320
6907,-0.1742,0.8779,0.4085,2.100,-6.125,-1.960,0.00,0.0184,0.0508,0.0200,0.0087,2025-06-09T13:58:48.289320
6908,-0.1810,0.8823,0.4124,1.400,-8.225,-2.450,0.01,0.0184,0.0508,0.0200,0.0087,2025-06-09T13:58:48.289320
6909,-0.1806,0.8843,0.4202,0.840,-10.290,-3.220,0.00,0.0368,0.0254,0.0200,0.0087,2025-06-09T13:58:48.289320
6910,-0.1645,0.8852,0.4124,0.665,-11.970,-3.570,0.00,0.0184,0.0508,0.0200,0.0087,2025-06-09T13:58:48.289320
6911,-0.1586,0.8882,0.4138,0.805,-11.410,-4.165,0.00,0.0184,0.0254,0.0200,0.0174,2025-06-09T13:58:48.289320
6912,-0.1523,0.8945,0.4192,1.120,-8.785,-4.655,0.00,0.0184,0.0254,0.0200,0.0087,2025-06-09T13:58:48.289320
6913,-0.1610,0.8945,0.4182,1.470,-7.595,-4.935,0.00,0.0184,0.0254,0.0100,0.0087,2025-06-09T13:58:48.289320
6914,-0.1781,0.8916,0.4197,2.100,-8.015,-4.690,0.00,0.0184,0.0254,0.0200,0.0087,2025-06-09T13:58:48.289320
6915,-0.1840,0.8882,0.4172,2.975,-9.835,-4.235,0.01,0.0184,0.0254,0.0100,0.0174,2025-06-09T13:58:48.342177
6916,-0.1771,0.8930,0.4143,3.675,-10.780,-3.430,0.01,0.0368,0.0508,0.0200,0.0174,2025-06-09T13:58:48.342177
6917,-0.1771,0.8965,0.4002,4.025,-10.815,-2.905,0.01,0.0184,0.0254,0.0200,0.0087,2025-06-09T13:58:48.342177
6918,-0.1728,0.9018,0.3884,4.690,-10.395,-2.415,0.00,0.0184,0.0254,0.0200,0.0087,2025-06-09T13:58:48.342177
6919,-0.1757,0.9008,0.3860,4.900,-9.660,-1.715,0.01,0.0368,0.0254,0.0200,0.0174,2025-06-09T13:58:48.491802
6920,-0.1786,0.9033,0.3767,5.040,-9.415,-1.260,0.00,0.0184,0.0508,0.0100,0.0174,2025-06-09T13:58:48.491802
6921,-0.1728,0.9008,0.3689,5.320,-8.960,-1.120,0.01,0.0368,0.0508,0.0200,0.0087,2025-06-09T13:58:48.491802
6922,-0.1630,0.8969,0.3660,5.180,-7.875,-0.980,0.00,0.0368,0.0254,0.0100,0.0174,2025-06-09T13:58:48.491802
6923,-0.1591,0.9004,0.3636,4.970,-6.300,-1.050,0.00,0.0184,0.0508,0.0100,0.0087,2025-06-09T13:58:48.491802
6924,-0.1566,0.8984,0.3587,4.725,-5.425,-1.365,0.00,0.0184,0.0254,0.0100,0.0000,2025-06-09T13:58:48.491802
6925,-0.1532,0.8955,0.3665,4.340,-4.830,-1.715,0.01,0.0368,0.0254,0.0200,0.0000,2025-06-09T13:58:48.491802
6926,-0.1488,0.8965,0.3660,4.095,-4.375,-1.925,0.00,0.0184,0.0254,0.0200,0.0087,2025-06-09T13:58:48.491802
6927,-0.1459,0.8984,0.3675,3.640,-3.045,-2.310,0.00,0.0184,0.0254,0.0100,0.0087,2025-06-09T13:58:48.491802
6928,-0.1396,0.8994,0.3728,3.675,-1.435,-2.240,0.01,0.0184,0.0254,0.0100,0.0087,2025-06-09T13:58:48.491802
6929,-0.1527,0.9067,0.3748,3.500,0.175,-2.310,0.01,0.0184,0.0254,0.0100,0.0087,2025-06-09T13:58:48.887954
6930,-0.1645,0.9048,0.3782,3.220,0.560,-2.310,0.00,0.0368,0.0508,0.0100,0.0174,2025-06-09T13:58:48.887954
6931,-0.1713,0.9043,0.3836,3.570,0.455,-2.065,0.01,0.0184,0.0508,0.0100,0.0087,2025-06-09T13:58:48.887954
6932,-0.1698,0.9067,0.3889,3.360,1.085,-1.925,0.00,0.0184,0.0508,0.0100,0.0174,2025-06-09T13:58:48.887954
6933,-0.1742,0.9087,0.3953,3.255,1.400,-1.820,0.00,0.0184,0.0508,0.0100,0.0087,2025-06-09T13:58:48.887954
6934,-0.1820,0.9121,0.3997,2.975,1.120,-1.750,0.01,0.0368,0.0508,0.0100,0.0087,2025-06-09T13:58:48.887954
6935,-0.1879,0.9126,0.4016,2.835,0.525,-1.715,0.01,0.0368,0.0508,0.0200,0.0087,2025-06-09T13:58:48.887954
6936,-0.1845,0.9145,0.4060,2.380,-0.175,-1.715,0.01,0.0184,0.0254,0.0100,0.0087,2025-06-09T13:58:48.887954
6937,-0.1810,0.9184,0.4128,2.415,-0.105,-1.225,0.00,0.0184,0.0508,0.0200,0.0087,2025-06-09T13:58:48.887954
6938,-0.1806,0.9218,0.4124,1.645,0.175,-0.875,0.01,0.0368,0.0254,0.0200,0.0174,2025-06-09T13:58:48.887954
6939,-0.1850,0.9204,0.4070,0.980,0.350,-0.560,0.00,0.0184,0.0508,0.0100,0.0174,2025-06-09T13:58:48.887954
6940,-0.1879,0.9194,0.4104,0.455,-0.210,-0.175,0.01,0.0368,0.0254,0.0100,0.0087,2025-06-09T13:58:48.887954
6941,-0.1903,0.9179,0.4070,-0.140,-1.330,0.105,0.01,0.0184,0.0254,0.0100,0.0087,2025-06-09T13:58:48.887954
6942,-0.1884,0.9155,0.4065,-0.630,-2.170,0.210,0.00,0.0184,0.0254,0.0100,0.0087,2025-06-09T13:58:48.887954
6943,-0.1810,0.9121,0.4070,-1.050,-2.100,0.350,0.00,0.0184,0.0254,0.0200,0.0087,2025-06-09T13:58:48.887954
6944,-0.1742,0.9106,0.4046,-1.680,-1.435,0.455,0.00,0.0184,0.0254,0.0100,0.0087,2025-06-09T13:58:48.887954
6945,-0.1874,0.9096,0.4050,-1.785,-1.085,0.665,0.01,0.0368,0.0254,0.0100,0.0174,2025-06-09T13:58:48.887954
6946,-0.1928,0.9077,0.4036,-2.345,-2.205,0.770,0.01,0.0368,0.0508,0.0100,0.0087,2025-06-09T13:58:48.887954
6947,-0.1893,0.9062,0.4041,-2.240,-3.675,1.015,0.00,0.0184,0.0254,0.0100,0.0174,2025-06-09T13:58:48.888951
6948,-0.1820,0.9067,0.4011,-2.870,-4.095,1.120,0.01,0.0368,0.0254,0.0200,0.0087,2025-06-09T13:58:48.888951
6949,-0.1825,0.9004,0.3943,-3.255,-4.165,1.225,0.00,0.0184,0.0508,0.0200,0.0087,2025-06-09T13:58:48.899924
6950,-0.1767,0.8935,0.3933,-3.150,-4.060,1.295,0.01,0.0368,0.0254,0.0200,0.0087,2025-06-09T13:58:48.899924
6951,-0.1703,0.8891,0.3904,-3.220,-3.815,1.330,0.00,0.0368,0.0508,0.0100,0.0087,2025-06-09T13:58:48.899924
6952,-0.1703,0.8838,0.3909,-3.045,-2.975,1.050,0.01,0.0368,0.0254,0.0200,0.0087,2025-06-09T13:58:48.900922
6953,-0.1674,0.8828,0.3924,-2.415,-1.960,0.700,0.01,0.0368,0.0254,0.0200,0.0087,2025-06-09T13:58:48.900922
6954,-0.1698,0.8794,0.3894,-2.625,-1.645,0.315,0.00,0.0368,0.0508,0.0100,0.0087,2025-06-09T13:58:48.900922
6955,-0.1791,0.8789,0.3836,-2.275,-2.590,-0.070,0.01,0.0368,0.0254,0.0100,0.0087,2025-06-09T13:58:48.900922
6956,-0.1708,0.8843,0.3914,-1.750,-2.975,-0.805,0.00,0.0184,0.0254,0.0100,0.0087,2025-06-09T13:58:48.900922
6957,-0.1664,0.8828,0.3894,-1.540,-2.450,-1.540,0.01,0.0184,0.0508,0.0100,0.0174,2025-06-09T13:58:48.900922
6958,-0.1669,0.8789,0.3909,-1.085,-1.820,-2.205,0.00,0.0184,0.0254,0.0100,0.0087,2025-06-09T13:58:48.900922
6959,-0.1767,0.8838,0.3972,-0.630,-1.610,-2.800,0.00,0.0184,0.0254,0.0100,0.0087,2025-06-09T13:58:48.900922
6960,-0.1762,0.8852,0.3933,-0.455,-1.435,-3.500,0.00,0.0184,0.0508,0.0100,0.0087,2025-06-09T13:58:48.900922
6961,-0.1810,0.8843,0.3997,-0.350,-1.365,-3.815,0.00,0.0184,0.0508,0.0100,0.0174,2025-06-09T13:58:48.950789
6962,-0.1840,0.8872,0.4036,-0.245,-1.435,-3.780,0.00,0.0368,0.0508,0.0200,0.0087,2025-06-09T13:58:48.950789
6963,-0.1918,0.8857,0.4065,-0.105,-1.820,-3.815,0.01,0.0368,0.0254,0.0200,0.0087,2025-06-09T13:58:48.950789
6964,-0.1928,0.8847,0.4075,0.175,-2.345,-3.465,0.00,0.0368,0.0508,0.0200,0.0174,2025-06-09T13:58:49.104398
6965,-0.1923,0.8872,0.4055,0.175,-2.100,-3.185,0.01,0.0368,0.0254,0.0100,0.0087,2025-06-09T13:58:49.104398
6966,-0.1991,0.8877,0.4050,0.105,-2.240,-2.975,0.00,0.0184,0.0254,0.0200,0.0087,2025-06-09T13:58:49.104398
6967,-0.1967,0.8891,0.4080,0.280,-2.450,-2.940,0.01,0.0368,0.0508,0.0200,0.0087,2025-06-09T13:58:49.104398
6968,-0.2045,0.8877,0.4026,0.280,-2.345,-3.010,0.00,0.0184,0.0254,0.0100,0.0087,2025-06-09T13:58:49.104398
6969,-0.2040,0.8818,0.4002,0.245,-2.170,-3.430,0.01,0.0184,0.0254,0.0100,0.0000,2025-06-09T13:58:49.105371
6970,-0.2030,0.8774,0.4016,0.560,-2.415,-3.395,0.00,0.0184,0.0508,0.0100,0.0087,2025-06-09T13:58:49.105371
6971,-0.2030,0.8735,0.4041,0.945,-2.870,-3.255,0.00,0.0184,0.0254,0.0100,0.0087,2025-06-09T13:58:49.105371
6972,-0.2011,0.8608,0.4016,1.330,-3.045,-2.555,0.01,0.0184,0.0254,0.0100,0.0087,2025-06-09T13:58:49.105371
6973,-0.2025,0.8550,0.3963,1.785,-3.745,-2.135,0.00,0.0000,0.0254,0.0100,0.0174,2025-06-09T13:58:49.105371
6974,-0.1976,0.8486,0.3919,2.275,-4.515,-2.030,0.00,0.0184,0.0254,0.0000,0.0087,2025-06-09T13:58:49.105371
6975,-0.1845,0.8418,0.3919,2.800,-5.320,-2.520,0.00,0.0184,0.0254,0.0100,0.0174,2025-06-09T13:58:49.105371
6976,-0.1737,0.8355,0.3855,3.780,-5.635,-3.465,0.01,0.0368,0.0508,0.0100,0.0087,2025-06-09T13:58:49.222093
6977,-0.1674,0.8286,0.3758,4.060,-5.740,-5.110,0.01,0.0368,0.0254,0.0100,0.0087,2025-06-09T13:58:49.222093
6978,-0.1518,0.8311,0.3704,4.690,-4.725,-7.315,0.01,0.0184,0.0508,0.0200,0.0087,2025-06-09T13:58:49.222093
6979,-0.1503,0.8335,0.3479,5.495,-3.045,-9.555,0.01,0.0184,0.0508,0.0200,0.0087,2025-06-09T13:58:49.222093
6980,-0.1547,0.8340,0.3406,5.495,-0.770,-12.565,0.00,0.0184,0.0254,0.0100,0.0087,2025-06-09T13:58:49.222093
6981,-0.1669,0.8252,0.3421,5.775,0.980,-14.490,0.00,0.0184,0.0254,0.0100,0.0087,2025-06-09T13:58:49.222093
6982,-0.1786,0.8115,0.3450,5.320,1.015,-15.645,0.00,0.0184,0.0254,0.0100,0.0087,2025-06-09T13:58:49.222093
6983,-0.1850,0.7784,0.3343,4.830,0.245,-15.715,0.00,0.0184,0.0254,0.0100,0.0174,2025-06-09T13:58:49.222093
6984,-0.1810,0.7491,0.3162,3.430,-0.385,-14.840,0.00,0.0184,0.0508,0.0100,0.0174,2025-06-09T13:58:49.222093
6985,-0.1732,0.7178,0.3182,2.380,-0.735,-12.845,0.00,0.0184,0.0508,0.0200,0.0087,2025-06-09T13:58:49.316805
6986,-0.1523,0.6974,0.3084,0.770,-0.945,-10.465,0.01,0.0368,0.0254,0.0200,0.0087,2025-06-09T13:58:49.316805
6987,-0.1200,0.6939,0.2855,-0.595,0.280,-8.330,0.01,0.0184,0.0508,0.0200,0.0087,2025-06-09T13:58:49.316805
6988,-0.0966,0.7135,0.2660,-2.380,3.955,-7.525,0.00,0.0368,0.0508,0.0100,0.0087,2025-06-09T13:58:49.316805
6989,-0.0834,0.7442,0.2586,-5.145,7.490,-8.330,0.00,0.0184,0.0254,0.0100,0.0087,2025-06-09T13:58:49.316805
6990,-0.0898,0.7857,0.2645,-8.120,10.885,-10.500,0.00,0.0184,0.0254,0.0100,0.0087,2025-06-09T13:58:49.316805
6991,-0.0947,0.8408,0.2591,-12.495,12.670,-13.335,0.00,0.0368,0.0508,0.0200,0.0174,2025-06-09T13:58:49.316805
6992,-0.0864,0.9321,0.2377,-15.890,14.035,-18.725,0.01,0.0184,0.0508,0.0100,0.0087,2025-06-09T13:58:49.439479
6993,-0.0708,1.0433,0.2191,-20.090,18.585,-24.640,0.00,0.0368,0.0254,0.0200,0.0087,2025-06-09T13:58:49.439479
6994,-0.1078,1.2088,0.2167,-23.590,23.065,-33.110,0.00,0.0368,0.0508,0.0200,0.0087,2025-06-09T13:58:49.439479
6995,-0.1903,1.3420,0.2484,-27.860,25.165,-41.720,0.01,0.0368,0.0508,0.0200,0.0000,2025-06-09T13:58:49.439479
6996,-0.2259,1.4401,0.2987,-31.675,26.810,-50.750,0.01,0.0184,0.0254,0.0100,0.0087,2025-06-09T13:58:49.439479
6997,-0.2445,1.4777,0.3538,-34.895,31.955,-59.395,0.00,0.0184,0.0508,0.0100,0.0087,2025-06-09T13:58:49.439479
6998,-0.2679,1.4972,0.4055,-38.465,37.835,-64.960,0.01,0.0184,0.0254,0.0200,0.0174,2025-06-09T13:58:49.439479
6999,-0.2908,1.5016,0.4280,-40.810,44.170,-70.280,0.01,0.0184,0.0508,0.0200,0.0087,2025-06-09T13:58:49.439479
7000,-0.3123,1.4796,0.4363,-44.835,47.705,-72.870,0.00,0.0368,0.0254,0.0200,0.0087,2025-06-09T13:58:49.439479
7001,-0.3211,1.4162,0.4358,-46.865,49.525,-71.505,0.01,0.0368,0.0254,0.0100,0.0087,2025-06-09T13:58:49.520285
7002,-0.3440,1.3376,0.4519,-49.105,49.945,-64.120,0.00,0.0368,0.0508,0.0100,0.0087,2025-06-09T13:58:49.520285
7003,-0.3582,1.2283,0.4631,-50.575,50.365,-47.740,0.00,0.0184,0.0254,0.0200,0.0087,2025-06-09T13:58:49.520285
7004,-0.4060,1.1229,0.4680,-52.570,50.820,-28.805,0.01,0.0184,0.0508,0.0200,0.0087,2025-06-09T13:58:49.520285
7005,-0.4451,0.9892,0.4763,-55.020,50.820,-2.275,0.00,0.0184,0.0254,0.0100,0.0087,2025-06-09T13:58:49.520285
7006,-0.4870,0.8628,0.4782,-59.080,49.315,21.875,0.01,0.0368,0.0508,0.0100,0.0087,2025-06-09T13:58:49.618023
7007,-0.4978,0.7017,0.4656,-61.600,49.175,49.735,0.01,0.0368,0.0254,0.0200,0.0174,2025-06-09T13:58:49.618023
7008,-0.5427,0.5788,0.4548,-64.365,47.530,68.040,0.01,0.0368,0.0254,0.0200,0.0174,2025-06-09T13:58:49.618023
7009,-0.5915,0.4553,0.4397,-64.050,40.985,79.975,0.00,0.0368,0.0254,0.0200,0.0087,2025-06-09T13:58:49.618023
7010,-0.6071,0.3894,0.4285,-60.200,28.840,81.375,0.01,0.0368,0.0254,0.0200,0.0087,2025-06-09T13:58:49.618023
7011,-0.5539,0.3455,0.4163,-55.825,21.455,76.055,0.00,0.0368,0.0254,0.0100,0.0087,2025-06-09T13:58:49.618023
7012,-0.4651,0.3353,0.4148,-50.050,20.755,63.560,0.00,0.0184,0.0254,0.0100,0.0174,2025-06-09T13:58:49.618023
7013,-0.4290,0.3396,0.4314,-43.190,25.830,49.560,0.00,0.0368,0.0254,0.0200,0.0087,2025-06-09T13:58:49.618023
7014,-0.4202,0.3562,0.4563,-36.470,34.895,31.570,0.00,0.0184,0.0508,0.0200,0.0087,2025-06-09T13:58:49.674847
7015,-0.4563,0.3699,0.4817,-28.420,40.250,18.620,0.01,0.0368,0.0254,0.0100,0.0174,2025-06-09T13:58:49.674847
7016,-0.5031,0.4046,0.5192,-21.945,42.105,6.720,0.00,0.0368,0.0508,0.0200,0.0174,2025-06-09T13:58:49.674847
7017,-0.5451,0.4280,0.5539,-15.365,40.145,0.315,0.00,0.0184,0.0254,0.0100,0.0174,2025-06-09T13:58:49.674847
7018,-0.5871,0.4568,0.5876,-10.570,34.195,-3.570,0.00,0.0368,0.0254,0.0100,0.0087,2025-06-09T13:58:49.840429
7019,-0.5768,0.4836,0.6212,-4.865,24.920,-4.130,0.00,0.0368,0.0508,0.0100,0.0087,2025-06-09T13:58:49.840429
7020,-0.5602,0.5202,0.6490,-0.315,19.075,-3.850,0.01,0.0368,0.0254,0.0200,0.0174,2025-06-09T13:58:49.840429
7021,-0.5226,0.5475,0.6578,4.060,14.175,-3.500,0.01,0.0368,0.0254,0.0200,0.0087,2025-06-09T13:58:49.840429
7022,-0.4831,0.5802,0.6744,9.905,12.495,-3.990,0.01,0.0368,0.0508,0.0100,0.0087,2025-06-09T13:58:49.840429
7023,-0.4602,0.6159,0.6695,14.035,11.410,-5.915,0.00,0.0184,0.0254,0.0200,0.0087,2025-06-09T13:58:49.840429
7024,-0.4538,0.6417,0.6700,19.110,7.280,-8.330,0.00,0.0184,0.0254,0.0100,0.0087,2025-06-09T13:58:49.840429
7025,-0.4465,0.6734,0.6627,23.135,2.310,-11.165,0.00,0.0368,0.0508,0.0100,0.0087,2025-06-09T13:58:49.840429
7026,-0.4343,0.6969,0.6398,26.250,-3.780,-14.875,0.00,0.0184,0.0254,0.0100,0.0087,2025-06-09T13:58:49.840429
7027,-0.4207,0.7232,0.6149,28.245,-7.140,-17.990,0.00,0.0184,0.0254,0.0100,0.0087,2025-06-09T13:58:49.840429
7028,-0.4172,0.7427,0.5905,29.400,-9.975,-20.930,0.01,0.0368,0.0254,0.0200,0.0087,2025-06-09T13:58:49.840429
7029,-0.4255,0.7627,0.5636,29.470,-12.180,-22.365,0.00,0.0368,0.0254,0.0100,0.0174,2025-06-09T13:58:49.927172
7030,-0.4402,0.7867,0.5519,28.875,-14.210,-23.030,0.01,0.0184,0.0508,0.0200,0.0174,2025-06-09T13:58:49.927172
7031,-0.4646,0.8018,0.5261,27.055,-17.710,-22.505,0.00,0.0368,0.0254,0.0200,0.0087,2025-06-09T13:58:49.927172
7032,-0.4660,0.8174,0.5119,25.515,-21.315,-21.280,0.01,0.0368,0.0508,0.0200,0.0174,2025-06-09T13:58:49.927172
7033,-0.4641,0.8247,0.4992,23.135,-24.045,-19.775,0.00,0.0184,0.0254,0.0100,0.0087,2025-06-09T13:58:49.927172
7034,-0.4519,0.8316,0.4826,21.210,-25.165,-17.780,0.00,0.0184,0.0254,0.0100,0.0174,2025-06-09T13:58:49.927172
7035,-0.4441,0.8320,0.4734,18.655,-26.320,-15.855,0.00,0.0184,0.0254,0.0100,0.0087,2025-06-09T13:58:49.927172
7036,-0.4397,0.8335,0.4529,17.010,-27.370,-13.755,0.01,0.0184,0.0508,0.0100,0.0087,2025-06-09T13:58:50.025937
7037,-0.4314,0.8345,0.4436,14.910,-28.350,-11.690,0.00,0.0184,0.0254,0.0200,0.0087,2025-06-09T13:58:50.025937
7038,-0.4216,0.8389,0.4368,13.650,-28.945,-10.185,0.01,0.0184,0.0254,0.0100,0.0174,2025-06-09T13:58:50.025937
7039,-0.4158,0.8364,0.4368,12.880,-29.330,-9.520,0.00,0.0184,0.0508,0.0200,0.0174,2025-06-09T13:58:50.025937
7040,-0.4065,0.8345,0.4363,12.635,-28.735,-9.135,0.00,0.0184,0.0508,0.0200,0.0174,2025-06-09T13:58:50.025937
7041,-0.3992,0.8340,0.4280,12.740,-26.740,-8.925,0.00,0.0184,0.0508,0.0100,0.0087,2025-06-09T13:58:50.025937
7042,-0.3997,0.8262,0.4299,13.160,-25.445,-8.470,0.00,0.0184,0.0254,0.0100,0.0087,2025-06-09T13:58:50.025937
7043,-0.3919,0.8198,0.4299,13.545,-23.660,-7.000,0.01,0.0184,0.0254,0.0100,0.0087,2025-06-09T13:58:50.025937
7044,-0.3987,0.8174,0.4299,13.755,-23.135,-5.250,0.01,0.0184,0.0508,0.0200,0.0087,2025-06-09T13:58:50.083778
7045,-0.3963,0.8306,0.4265,14.140,-23.170,-3.290,0.01,0.0184,0.0254,0.0100,0.0087,2025-06-09T13:58:50.083778
7046,-0.3904,0.8418,0.4324,14.525,-22.820,-2.065,0.00,0.0368,0.0508,0.0200,0.0000,2025-06-09T13:58:50.083778
7047,-0.3865,0.8452,0.4265,14.385,-22.085,-1.120,0.01,0.0368,0.0254,0.0200,0.0087,2025-06-09T13:58:50.083778
7048,-0.3802,0.8442,0.4265,14.525,-20.720,0.035,0.01,0.0184,0.0508,0.0100,0.0087,2025-06-09T13:58:50.232359
7049,-0.3816,0.8394,0.4260,14.315,-19.425,1.365,0.01,0.0368,0.0254,0.0100,0.0174,2025-06-09T13:58:50.232359
7050,-0.3811,0.8384,0.4260,13.685,-18.480,3.255,0.00,0.0184,0.0508,0.0200,0.0087,2025-06-09T13:58:50.232359
7051,-0.3860,0.8394,0.4319,13.580,-18.270,5.075,0.00,0.0368,0.0254,0.0200,0.0087,2025-06-09T13:58:50.232359
7052,-0.3894,0.8389,0.4402,13.020,-18.165,6.965,0.00,0.0368,0.0508,0.0100,0.0087,2025-06-09T13:58:50.232359
7053,-0.3860,0.8374,0.4329,12.915,-17.920,8.330,0.00,0.0184,0.0508,0.0100,0.0087,2025-06-09T13:58:50.232359
7054,-0.3733,0.8359,0.4309,12.705,-16.835,9.660,0.01,0.0368,0.0254,0.0000,0.0087,2025-06-09T13:58:50.232359
7055,-0.3655,0.8379,0.4290,12.565,-14.595,10.535,0.00,0.0184,0.0508,0.0100,0.0087,2025-06-09T13:58:50.232359
7056,-0.3660,0.8359,0.4202,11.935,-13.230,11.200,0.00,0.0184,0.0254,0.0200,0.0087,2025-06-09T13:58:50.232359
7057,-0.3704,0.8340,0.4202,11.445,-13.265,12.250,0.00,0.0184,0.0508,0.0200,0.0087,2025-06-09T13:58:50.232359
7058,-0.3650,0.8296,0.4250,10.710,-14.560,13.055,0.00,0.0368,0.0508,0.0100,0.0087,2025-06-09T13:58:50.232359
7059,-0.3523,0.8233,0.4202,10.535,-16.030,13.720,0.00,0.0368,0.0508,0.0200,0.0087,2025-06-09T13:58:50.282225
7060,-0.3333,0.8218,0.4182,9.870,-15.890,13.720,0.01,0.0184,0.0254,0.0200,0.0174,2025-06-09T13:58:50.282225
7061,-0.3172,0.8208,0.4143,9.520,-14.665,13.195,0.00,0.0368,0.0254,0.0200,0.0087,2025-06-09T13:58:50.282225
7062,-0.3201,0.8169,0.4143,8.925,-13.160,12.390,0.00,0.0368,0.0508,0.0100,0.0087,2025-06-09T13:58:50.282225
7063,-0.3192,0.8208,0.4182,8.820,-11.970,11.620,0.00,0.0368,0.0508,0.0100,0.0087,2025-06-09T13:58:50.436835
7064,-0.3289,0.8213,0.4168,8.540,-11.375,10.395,0.00,0.0368,0.0508,0.0200,0.0087,2025-06-09T13:58:50.436835
7065,-0.3353,0.8218,0.4182,8.365,-11.270,9.450,0.00,0.0184,0.0254,0.0200,0.0087,2025-06-09T13:58:50.436835
7066,-0.3411,0.8237,0.4221,8.085,-11.725,8.575,0.00,0.0368,0.0508,0.0200,0.0087,2025-06-09T13:58:50.436835
7067,-0.3484,0.8276,0.4280,7.945,-12.495,8.015,0.00,0.0184,0.0254,0.0100,0.0087,2025-06-09T13:58:50.436835
7068,-0.3489,0.8223,0.4231,8.015,-13.230,7.805,0.00,0.0184,0.0254,0.0200,0.0174,2025-06-09T13:58:50.436835
7069,-0.3411,0.8262,0.4270,8.120,-13.790,7.595,0.00,0.0184,0.0508,0.0200,0.0087,2025-06-09T13:58:50.436835
7070,-0.3343,0.8286,0.4265,8.365,-13.160,7.630,0.00,0.0184,0.0254,0.0100,0.0087,2025-06-09T13:58:50.436835
7071,-0.3323,0.8306,0.4304,8.190,-12.005,7.455,0.00,0.0184,0.0508,0.0200,0.0087,2025-06-09T13:58:50.436835
7072,-0.3309,0.8345,0.4285,8.155,-11.445,7.595,0.00,0.0184,0.0254,0.0200,0.0174,2025-06-09T13:58:50.436835
7073,-0.3299,0.8433,0.4319,8.400,-11.515,7.595,0.00,0.0184,0.0254,0.0200,0.0087,2025-06-09T13:58:50.436835
7074,-0.3309,0.8452,0.4348,8.365,-12.495,7.560,0.01,0.0184,0.0254,0.0200,0.0087,2025-06-09T13:58:50.487681
7075,-0.3245,0.8511,0.4294,8.610,-14.035,7.630,0.01,0.0184,0.0254,0.0200,0.0174,2025-06-09T13:58:50.487681
7076,-0.3143,0.8579,0.4299,8.330,-14.560,7.560,0.00,0.0184,0.0508,0.0100,0.0087,2025-06-09T13:58:50.487681
7077,-0.3045,0.8638,0.4241,8.400,-14.490,7.140,0.01,0.0184,0.0254,0.0200,0.0087,2025-06-09T13:58:50.487681
7078,-0.3035,0.8667,0.4202,8.260,-14.175,6.930,0.01,0.0184,0.0508,0.0200,0.0087,2025-06-09T13:58:50.641287
7079,-0.3050,0.8745,0.4260,7.980,-13.965,6.965,0.01,0.0368,0.0254,0.0200,0.0174,2025-06-09T13:58:50.801836
7080,-0.3118,0.8789,0.4275,7.980,-14.805,7.000,0.01,0.0368,0.0254,0.0200,0.0087,2025-06-09T13:58:50.801836
7081,-0.3118,0.8774,0.4177,7.770,-15.820,7.245,0.01,0.0368,0.0508,0.0100,0.0087,2025-06-09T13:58:50.801836
7082,-0.3045,0.8740,0.4192,7.595,-16.275,7.245,0.00,0.0368,0.0254,0.0100,0.0087,2025-06-09T13:58:50.801836
7083,-0.2957,0.8721,0.4148,7.280,-15.400,7.035,0.00,0.0184,0.0254,0.0200,0.0087,2025-06-09T13:58:50.801836
7084,-0.2943,0.8677,0.4055,6.895,-14.875,6.825,0.00,0.0184,0.0254,0.0000,0.0087,2025-06-09T13:58:50.801836
7085,-0.2913,0.8594,0.4006,6.650,-14.455,6.265,0.00,0.0184,0.0508,0.0100,0.0087,2025-06-09T13:58:50.801836
7086,-0.2904,0.8511,0.3982,5.915,-14.350,5.530,0.00,0.0368,0.0254,0.0100,0.0087,2025-06-09T13:58:50.801836
7087,-0.2845,0.8442,0.3953,5.670,-13.895,4.235,0.01,0.0184,0.0254,0.0100,0.0087,2025-06-09T13:58:50.801836
7088,-0.2845,0.8374,0.3948,5.040,-12.670,2.100,0.00,0.0184,0.0508,0.0200,0.0174,2025-06-09T13:58:50.801836
7089,-0.2879,0.8262,0.3870,4.095,-11.340,0.350,0.01,0.0184,0.0508,0.0200,0.0174,2025-06-09T13:58:50.801836
7090,-0.2830,0.8184,0.3811,3.290,-10.045,-1.645,0.01,0.0184,0.0508,0.0100,0.0087,2025-06-09T13:58:50.801836
7091,-0.2855,0.8233,0.3928,2.205,-7.805,-3.150,0.00,0.0184,0.0254,0.0200,0.0087,2025-06-09T13:58:50.801836
7092,-0.2957,0.8203,0.3914,1.365,-6.650,-4.375,0.00,0.0184,0.0508,0.0100,0.0174,2025-06-09T13:58:50.801836
7093,-0.3040,0.8189,0.3914,0.735,-6.475,-5.215,0.00,0.0184,0.0508,0.0200,0.0087,2025-06-09T13:58:50.801836
7094,-0.2982,0.8208,0.4055,0.140,-6.475,-5.460,0.00,0.0184,0.0254,0.0200,0.0087,2025-06-09T13:58:50.801836
7095,-0.2923,0.8252,0.4070,0.140,-5.845,-5.005,0.00,0.0184,0.0254,0.0100,0.0174,2025-06-09T13:58:50.801836
7096,-0.2923,0.8291,0.4099,0.000,-4.515,-4.550,0.00,0.0184,0.0254,0.0200,0.0087,2025-06-09T13:58:50.801836
7097,-0.2874,0.8340,0.4124,0.525,-3.185,-3.885,0.00,0.0184,0.0508,0.0100,0.0174,2025-06-09T13:58:50.844718
7098,-0.2967,0.8394,0.4055,0.875,-2.800,-2.905,0.01,0.0184,0.0254,0.0100,0.0087,2025-06-09T13:58:50.844718
7099,-0.2943,0.8477,0.4124,1.995,-3.185,-1.960,0.01,0.0184,0.0508,0.0100,0.0174,2025-06-09T13:58:50.844718
7100,-0.2904,0.8613,0.4114,2.870,-3.220,-0.945,0.01,0.0184,0.0508,0.0100,0.0174,2025-06-09T13:58:50.844718
7101,-0.2860,0.8682,0.4085,3.955,-2.590,-0.140,0.01,0.0184,0.0508,0.0100,0.0087,2025-06-09T13:58:50.844718
7102,-0.2884,0.8740,0.4070,5.040,-2.100,0.700,0.00,0.0184,0.0508,0.0200,0.0087,2025-06-09T13:58:50.844718
7103,-0.2884,0.8779,0.4085,5.915,-1.120,1.960,0.00,0.0184,0.0508,0.0100,0.0087,2025-06-09T13:58:50.844718
7104,-0.2904,0.8794,0.4128,6.930,-0.280,3.150,0.01,0.0184,0.0254,0.0100,0.0174,2025-06-09T13:58:50.844718
7105,-0.2952,0.8808,0.4050,7.035,-0.490,4.935,0.01,0.0184,0.0254,0.0200,0.0087,2025-06-09T13:58:50.948441
7106,-0.2952,0.8804,0.4011,7.455,-1.400,6.195,0.01,0.0184,0.0254,0.0100,0.0087,2025-06-09T13:58:50.948441
7107,-0.2850,0.8799,0.4002,7.420,-1.540,7.105,0.00,0.0184,0.0254,0.0200,0.0087,2025-06-09T13:58:50.948441
7108,-0.2743,0.8789,0.4021,7.105,-0.665,8.050,0.00,0.0368,0.0508,0.0200,0.0174,2025-06-09T13:58:50.948441
7109,-0.2767,0.8828,0.3997,6.930,-0.350,8.365,0.00,0.0184,0.0508,0.0100,0.0087,2025-06-09T13:58:50.948441
7110,-0.2865,0.8828,0.3987,6.440,-0.595,8.575,0.00,0.0368,0.0254,0.0200,0.0087,2025-06-09T13:58:50.948441
7111,-0.2884,0.8799,0.4031,6.160,-1.435,8.645,0.00,0.0184,0.0508,0.0200,0.0087,2025-06-09T13:58:50.948441
7112,-0.2879,0.8804,0.4021,5.880,-1.365,8.645,0.00,0.0184,0.0508,0.0100,0.0087,2025-06-09T13:58:50.948441
7113,-0.2860,0.8764,0.4060,5.180,-1.225,8.575,0.01,0.0184,0.0254,0.0100,0.0087,2025-06-09T13:58:51.006285
7114,-0.2860,0.8769,0.4109,5.005,-0.980,8.435,0.01,0.0368,0.0254,0.0100,0.0174,2025-06-09T13:58:51.007282
7115,-0.2899,0.8725,0.4046,4.480,-1.505,8.225,0.01,0.0184,0.0508,0.0200,0.0087,2025-06-09T13:58:51.007282
7116,-0.2889,0.8721,0.4055,4.375,-3.010,7.735,0.01,0.0184,0.0508,0.0200,0.0087,2025-06-09T13:58:51.166881
7117,-0.2708,0.8672,0.4031,4.305,-3.885,7.070,0.01,0.0184,0.0254,0.0100,0.0087,2025-06-09T13:58:51.166881
7118,-0.2616,0.8618,0.4050,4.655,-3.815,6.300,0.01,0.0368,0.0508,0.0200,0.0087,2025-06-09T13:58:51.166881
7119,-0.2450,0.8628,0.3987,4.690,-3.710,5.005,0.00,0.0368,0.0508,0.0200,0.0174,2025-06-09T13:58:51.166881
7120,-0.2420,0.8545,0.3904,6.195,-4.130,2.590,0.00,0.0368,0.0508,0.0100,0.0087,2025-06-09T13:58:51.166881
7121,-0.2250,0.8579,0.3802,6.510,-3.290,-0.595,0.00,0.0368,0.0254,0.0100,0.0174,2025-06-09T13:58:51.166881
7122,-0.1981,0.8540,0.3714,7.245,-0.910,-5.390,0.00,0.0368,0.0254,0.0200,0.0087,2025-06-09T13:58:51.166881
7123,-0.1947,0.8413,0.3553,7.105,1.330,-10.010,0.00,0.0184,0.0254,0.0100,0.0087,2025-06-09T13:58:51.166881
7124,-0.1728,0.8286,0.3396,6.090,1.505,-15.015,0.00,0.0184,0.0254,0.0200,0.0087,2025-06-09T13:58:51.166881
7125,-0.1576,0.7886,0.3206,4.550,-8.890,-21.350,0.00,0.0184,0.0254,0.0100,0.0087,2025-06-09T13:58:51.166881
7126,-0.1249,0.7686,0.3104,2.520,-1.330,-27.090,0.00,0.0368,0.0254,0.0100,0.0087,2025-06-09T13:58:51.166881
7127,-0.0766,0.7432,0.3065,0.070,-1.365,-33.880,0.01,0.0184,0.0508,0.0200,0.0087,2025-06-09T13:58:51.166881
7128,-0.0659,0.7344,0.3026,-3.850,-1.855,-40.075,0.00,0.0368,0.0508,0.0200,0.0087,2025-06-09T13:58:51.255281
7129,-0.0688,0.7300,0.2977,-8.295,-5.005,-46.830,0.01,0.0184,0.0508,0.0100,0.0087,2025-06-09T13:58:51.255281
7130,-0.0874,0.7193,0.3289,-14.105,-11.760,-55.475,0.01,0.0368,0.0254,0.0100,0.0174,2025-06-09T13:58:51.255281
7131,-0.0820,0.7369,0.3582,-21.910,-19.180,-62.020,0.00,0.0184,0.0254,0.0200,0.0174,2025-06-09T13:58:51.255281
7132,-0.0830,0.8247,0.3240,-32.795,-31.220,-68.390,0.00,0.0184,0.0254,0.0100,0.0087,2025-06-09T13:58:51.255281
7133,-0.0020,0.9521,0.3709,-53.340,-36.890,-71.505,0.00,0.0184,0.0254,0.0100,0.0087,2025-06-09T13:58:51.255281
7134,0.1020,1.2298,0.5022,-73.150,-27.790,-71.155,0.00,0.0184,0.0254,0.0100,0.0087,2025-06-09T13:58:51.255281
7135,0.0908,1.5518,0.5651,-101.430,-12.355,-67.095,0.01,0.0368,0.0254,0.0200,0.0174,2025-06-09T13:58:51.314125
7136,-0.1230,1.8944,0.6364,-128.835,-9.310,-59.465,0.00,0.0368,0.0254,0.0200,0.0174,2025-06-09T13:58:51.314125
7137,-0.4519,2.2102,0.7379,-153.405,-27.825,-47.285,0.00,0.0368,0.0508,0.0200,0.0087,2025-06-09T13:58:51.314125
7138,-0.6852,2.5220,0.8379,-176.960,-55.685,-33.180,0.00,0.0368,0.0254,0.0200,0.0087,2025-06-09T13:58:51.314125
7139,-0.8398,2.8397,0.8599,-192.430,-91.035,-7.035,0.00,0.0368,0.0254,0.0100,0.0174,2025-06-09T13:58:51.379951
7140,-0.8799,3.0622,0.7735,-208.530,-114.835,24.430,0.00,0.0184,0.0254,0.0200,0.0087,2025-06-09T13:58:51.379951
7141,-0.9248,3.1203,0.6344,-219.205,-130.970,78.155,0.00,0.0368,0.0508,0.0100,0.0087,2025-06-09T13:58:51.379951
7142,-0.8345,3.1715,0.3650,-216.720,-124.600,134.785,0.00,0.0368,0.0254,0.0200,0.0087,2025-06-09T13:58:51.379951
7143,-0.9345,3.1403,0.0034,-204.960,-95.725,207.340,0.01,0.0184,0.0508,0.0200,0.0087,2025-06-09T13:58:51.425850
7144,-1.1990,2.9919,-0.3997,-181.650,-71.575,264.355,0.00,0.0368,0.0508,0.0200,0.0087,2025-06-09T13:58:51.425850
7145,-1.4547,2.6786,-0.6544,-157.675,-49.070,328.370,0.01,0.0184,0.0508,0.0100,0.0174,2025-06-09T13:58:51.425850
7146,-1.6655,2.3849,-0.9370,-139.965,-23.345,373.170,0.00,0.0184,0.0508,0.0100,0.0087,2025-06-09T13:58:51.425850
7147,-1.9193,2.0638,-1.1224,-136.360,10.955,409.115,0.00,0.0368,0.0254,0.0200,0.0174,2025-06-09T13:58:51.425850
7148,-2.1779,1.8085,-1.3103,-137.480,33.950,425.880,0.01,0.0184,0.0254,0.0200,0.0087,2025-06-09T13:58:51.480681
7149,-2.5884,1.4572,-1.3342,-138.845,46.095,433.965,0.01,0.0368,0.0508,0.0200,0.0174,2025-06-09T13:58:51.480681
7150,-2.7845,1.1722,-1.1697,-135.870,49.105,434.420,0.00,0.0368,0.0254,0.0200,0.0087,2025-06-09T13:58:51.480681
7151,-3.0363,0.6124,-0.8994,-137.060,53.130,423.150,0.00,0.0368,0.0508,0.0200,0.0174,2025-06-09T13:58:51.563457
7152,-3.0085,-0.0956,-0.4158,-150.360,59.430,394.695,0.00,0.0184,0.0508,0.0200,0.0087,2025-06-09T13:58:51.563457
7153,-2.9119,-0.8872,-0.1371,-177.695,77.700,360.395,0.00,0.0184,0.0254,0.0200,0.0087,2025-06-09T13:58:51.563457
7154,-2.8328,-1.9169,0.0229,-191.520,85.960,312.305,0.00,0.0368,0.0508,0.0200,0.0174,2025-06-09T13:58:51.563457
7155,-2.7899,-2.5957,0.2513,-203.420,57.120,277.095,0.00,0.0368,0.0508,0.0100,0.0174,2025-06-09T13:58:51.563457
7156,-2.5103,-3.6883,0.6242,-163.975,-2.975,254.345,0.00,0.0368,0.0508,0.0100,0.0087,2025-06-09T13:58:51.563457
7157,-1.6709,-3.9782,0.7950,-128.870,-75.390,238.875,0.01,0.0368,0.0254,0.0100,0.0087,2025-06-09T13:58:51.563457
7158,-0.7408,-4.1334,0.9584,-90.930,-101.080,217.140,0.01,0.0184,0.0508,0.0100,0.0087,2025-06-09T13:58:51.620307
7159,0.0810,-4.0963,1.2083,-57.820,-76.650,187.670,0.01,0.0368,0.0508,0.0100,0.0174,2025-06-09T13:58:51.620307
7160,0.6227,-3.8279,1.4728,-15.050,-30.275,134.120,0.01,0.0184,0.0254,0.0200,0.0174,2025-06-09T13:58:51.620307
7161,1.0189,-3.4804,1.6109,-6.930,29.890,73.465,0.00,0.0368,0.0508,0.0200,0.0087,2025-06-09T13:58:51.620307
7162,1.0326,-3.0715,1.9134,14.630,62.860,5.600,0.00,0.0184,0.0254,0.0100,0.0174,2025-06-09T13:58:51.770928
7163,0.8462,-2.6045,2.2228,32.480,49.770,-75.495,0.01,0.0184,0.0508,0.0200,0.0087,2025-06-09T13:58:51.770928
7164,0.5700,-2.1472,2.4449,49.630,5.565,-141.575,0.01,0.0184,0.0508,0.0100,0.0087,2025-06-09T13:58:51.770928
7165,0.4246,-1.7631,2.4161,65.975,-46.200,-224.665,0.00,0.0184,0.0508,0.0100,0.0087,2025-06-09T13:58:51.770928
7166,0.4724,-1.4059,2.2721,81.690,-61.250,-288.050,0.00,0.0368,0.0254,0.0200,0.0087,2025-06-09T13:58:51.770928
7167,0.2303,-1.1468,2.1443,94.710,-39.970,-344.435,0.00,0.0184,0.0254,0.0100,0.0174,2025-06-09T13:58:51.770928
7168,-0.3138,-0.9648,1.9496,113.260,0.805,-370.090,0.00,0.0368,0.0508,0.0200,0.0087,2025-06-09T13:58:51.770928
7169,-0.9721,-0.7037,1.5997,141.645,20.685,-367.675,0.00,0.0368,0.0254,0.0100,0.0087,2025-06-09T13:58:51.770928
7170,-1.8598,-0.4138,1.3205,177.485,2.555,-361.620,0.00,0.0184,0.0508,0.0100,0.0087,2025-06-09T13:58:51.770928
7171,-2.3639,0.0078,0.9609,199.080,-52.010,-335.895,0.00,0.0368,0.0254,0.0200,0.0087,2025-06-09T13:58:51.770928
7172,-2.1887,0.4299,0.5641,210.595,-114.555,-301.350,0.00,0.0184,0.0508,0.0100,0.0087,2025-06-09T13:58:51.770928
7173,-1.7812,0.8159,0.0346,202.720,-118.160,-273.665,0.01,0.0368,0.0254,0.0200,0.0087,2025-06-09T13:58:51.830744
7174,-1.4742,0.9648,-0.2733,192.150,-79.275,-240.835,0.00,0.0368,0.0254,0.0200,0.0087,2025-06-09T13:58:51.830744
7175,-1.2991,0.9775,-0.4826,189.420,-37.660,-210.280,0.01,0.0000,0.0254,0.0200,0.0174,2025-06-09T13:58:51.830744
7176,-1.2083,0.9697,-0.5871,188.545,2.975,-172.025,0.00,0.0184,0.0508,0.0100,0.0087,2025-06-09T13:58:51.830744
7177,-1.0892,1.0536,-0.6773,187.460,16.520,-141.295,0.01,0.0368,0.0508,0.0200,0.0174,2025-06-09T13:58:51.884622
7178,-0.9931,1.1444,-0.6437,182.350,9.065,-112.980,0.01,0.0184,0.0508,0.0100,0.0087,2025-06-09T13:58:51.884622
7179,-0.8179,1.1775,-0.5739,171.640,-6.895,-97.440,0.00,0.0368,0.0508,0.0200,0.0174,2025-06-09T13:58:51.884622
7180,-0.4909,1.1995,-0.4758,162.330,-16.275,-85.155,0.01,0.0184,0.0508,0.0100,0.0087,2025-06-09T13:58:51.884622
7181,-0.2679,1.2122,-0.3636,151.270,-11.550,-78.750,0.00,0.0368,0.0254,0.0200,0.0087,2025-06-09T13:58:51.971374
7182,-0.0869,1.2693,-0.2723,143.185,2.100,-72.590,0.01,0.0368,0.0508,0.0200,0.0087,2025-06-09T13:58:51.971374
7183,-0.0224,1.3376,-0.1684,132.930,13.510,-69.440,0.00,0.0184,0.0254,0.0100,0.0087,2025-06-09T13:58:51.971374
7184,-0.0195,1.3830,-0.0956,123.830,19.950,-67.830,0.01,0.0184,0.0508,0.0200,0.0087,2025-06-09T13:58:51.971374
7185,-0.0220,1.4289,-0.0098,115.325,18.060,-67.935,0.00,0.0184,0.0508,0.0200,0.0087,2025-06-09T13:58:51.971374
7186,0.0000,1.4616,0.1054,109.970,11.760,-67.340,0.00,0.0184,0.0254,0.0200,0.0087,2025-06-09T13:58:51.971374
7187,0.0742,1.4825,0.1581,103.110,4.725,-63.525,0.00,0.0184,0.0254,0.0100,0.0174,2025-06-09T13:58:51.971374
7188,0.0805,1.4777,0.1732,96.635,-0.630,-58.730,0.01,0.0184,0.0254,0.0100,0.0087,2025-06-09T13:58:52.076114
7189,0.0825,1.4581,0.2259,91.035,-3.675,-54.600,0.00,0.0000,0.0254,0.0200,0.0087,2025-06-09T13:58:52.076114
7190,0.1000,1.4103,0.2972,85.155,-0.910,-51.870,0.00,0.0368,0.0508,0.0100,0.0087,2025-06-09T13:58:52.076114
7191,0.0747,1.3688,0.3431,79.730,4.095,-48.510,0.00,0.0184,0.0254,0.0100,0.0174,2025-06-09T13:58:52.076114
7192,0.0322,1.3376,0.3943,74.340,7.595,-45.465,0.00,0.0184,0.0254,0.0200,0.0087,2025-06-09T13:58:52.076114
7193,-0.0024,1.3054,0.4412,68.180,6.895,-41.055,0.00,0.0368,0.0254,0.0200,0.0087,2025-06-09T13:58:52.076114
7194,-0.0590,1.2698,0.4573,61.670,0.595,-34.930,0.00,0.0184,0.0000,0.0100,0.0087,2025-06-09T13:58:52.076114
7195,-0.0976,1.2395,0.4636,57.400,-9.100,-29.925,0.01,0.0368,0.0254,0.0200,0.0174,2025-06-09T13:58:52.176815
7196,-0.1103,1.2117,0.4602,53.095,-19.285,-25.305,0.00,0.0184,0.0508,0.0200,0.0087,2025-06-09T13:58:52.176815
7197,-0.0717,1.1858,0.4436,48.930,-21.525,-22.120,0.01,0.0184,0.0254,0.0100,0.0174,2025-06-09T13:58:52.176815
7198,-0.0761,1.1570,0.4221,45.745,-17.885,-19.320,0.00,0.0184,0.0508,0.0200,0.0087,2025-06-09T13:58:52.176815
7199,-0.0903,1.1414,0.3811,41.685,-13.685,-17.570,0.00,0.0184,0.0508,0.0200,0.0087,2025-06-09T13:58:52.176815
7200,-0.0961,1.1209,0.3343,37.100,-8.925,-15.750,0.00,0.0184,0.0254,0.0200,0.0087,2025-06-09T13:58:52.176815
7201,-0.1030,1.1048,0.3148,32.550,-4.165,-14.665,0.00,0.0368,0.0508,0.0100,0.0087,2025-06-09T13:58:52.176815
7202,-0.1566,1.0819,0.3050,27.510,-5.250,-12.460,0.00,0.0368,0.0508,0.0100,0.0087,2025-06-09T13:58:52.176815
7203,-0.1786,1.0575,0.2957,23.450,-11.900,-10.290,0.01,0.0368,0.0508,0.0100,0.0174,2025-06-09T13:58:52.279543
7204,-0.1464,1.0380,0.2860,20.160,-17.955,-8.225,0.01,0.0184,0.0254,0.0100,0.0174,2025-06-09T13:58:52.279543
7205,-0.1044,1.0243,0.2650,14.700,-16.870,-7.070,0.01,0.0184,0.0254,0.0200,0.0087,2025-06-09T13:58:52.279543
7206,-0.0800,1.0077,0.2655,11.515,-11.515,-6.615,0.00,0.0368,0.0254,0.0100,0.0087,2025-06-09T13:58:52.279543
7207,-0.0834,0.9911,0.2611,8.470,-4.025,-6.335,0.00,0.0184,0.0508,0.0100,0.0087,2025-06-09T13:58:52.279543
7208,-0.1244,0.9682,0.2684,6.370,-1.505,-5.915,0.00,0.0184,0.0508,0.0100,0.0174,2025-06-09T13:58:52.280541
7209,-0.1347,0.9648,0.2865,6.090,-2.415,-5.530,0.00,0.0184,0.0508,0.0100,0.0087,2025-06-09T13:58:52.280541
7210,-0.1327,0.9496,0.2855,4.725,-2.275,-5.530,0.00,0.0368,0.0508,0.0100,0.0087,2025-06-09T13:58:52.387280
7211,-0.1157,0.9457,0.2850,4.095,0.455,-5.845,0.01,0.0000,0.0254,0.0100,0.0087,2025-06-09T13:58:52.387280
7212,-0.1152,0.9472,0.2806,2.380,4.235,-6.160,0.00,0.0368,0.0508,0.0200,0.0087,2025-06-09T13:58:52.387280
7213,-0.1357,0.9453,0.2782,0.630,7.945,-6.860,0.00,0.0368,0.0508,0.0100,0.0087,2025-06-09T13:58:52.387280
7214,-0.1557,0.9457,0.2762,-0.700,11.060,-7.315,0.01,0.0368,0.0254,0.0200,0.0174,2025-06-09T13:58:52.387280
7215,-0.1737,0.9501,0.2913,-2.100,12.810,-7.700,0.00,0.0184,0.0508,0.0200,0.0087,2025-06-09T13:58:52.387280
7216,-0.1942,0.9462,0.2996,-3.290,12.530,-7.560,0.00,0.0184,0.0254,0.0100,0.0087,2025-06-09T13:58:52.387280
7217,-0.2108,0.9418,0.3030,-3.920,11.585,-7.385,0.00,0.0368,0.0508,0.0100,0.0087,2025-06-09T13:58:52.387280
7218,-0.1967,0.9433,0.3128,-4.340,12.495,-7.455,0.01,0.0368,0.0254,0.0100,0.0174,2025-06-09T13:58:52.486988
7219,-0.1986,0.9340,0.3128,-4.900,14.175,-7.490,0.00,0.0368,0.0254,0.0100,0.0174,2025-06-09T13:58:52.486988
7220,-0.2123,0.9262,0.3006,-4.270,14.595,-7.385,0.01,0.0368,0.0508,0.0100,0.0087,2025-06-09T13:58:52.486988
7221,-0.2264,0.9204,0.3187,-4.270,14.840,-7.420,0.00,0.0184,0.0254,0.0200,0.0087,2025-06-09T13:58:52.486988
7222,-0.2269,0.9135,0.3274,-3.955,15.015,-7.315,0.00,0.0368,0.0254,0.0100,0.0087,2025-06-09T13:58:52.486988
7223,-0.2225,0.9145,0.3318,-3.185,15.085,-7.070,0.00,0.0184,0.0254,0.0100,0.0087,2025-06-09T13:58:52.486988
7224,-0.2318,0.9111,0.3192,-4.025,15.820,-6.615,0.00,0.0184,0.0254,0.0200,0.0174,2025-06-09T13:58:52.486988
7225,-0.2250,0.9160,0.3289,-3.605,16.975,-6.230,0.00,0.0368,0.0254,0.0100,0.0087,2025-06-09T13:58:52.486988
7226,-0.2372,0.9165,0.3309,-4.900,18.130,-5.775,0.00,0.0368,0.0508,0.0200,0.0087,2025-06-09T13:58:52.549843
7227,-0.2484,0.9130,0.3392,-5.460,17.710,-5.180,0.00,0.0368,0.0508,0.0200,0.0174,2025-06-09T13:58:52.549843
7228,-0.2586,0.9150,0.3406,-6.265,16.590,-4.760,0.01,0.0184,0.0508,0.0200,0.0087,2025-06-09T13:58:52.549843
7229,-0.2684,0.9096,0.3362,-7.035,14.910,-4.760,0.01,0.0184,0.0508,0.0200,0.0174,2025-06-09T13:58:52.980668
7230,-0.2728,0.9067,0.3406,-7.490,12.705,-4.830,0.00,0.0184,0.0508,0.0200,0.0087,2025-06-09T13:58:52.980668
7231,-0.2669,0.9038,0.3333,-8.505,11.830,-4.935,0.01,0.0368,0.0508,0.0200,0.0087,2025-06-09T13:58:52.980668
7232,-0.2674,0.8960,0.3309,-8.680,11.620,-5.320,0.00,0.0184,0.0508,0.0200,0.0087,2025-06-09T13:58:52.980668
7233,-0.2664,0.8916,0.3396,-9.415,12.635,-5.460,0.00,0.0368,0.0508,0.0200,0.0087,2025-06-09T13:58:52.980668
7234,-0.2767,0.8891,0.3396,-9.765,12.495,-5.565,0.00,0.0184,0.0508,0.0100,0.0087,2025-06-09T13:58:52.980668
7235,-0.2918,0.8808,0.3426,-10.710,10.185,-6.125,0.00,0.0184,0.0254,0.0100,0.0087,2025-06-09T13:58:52.980668
7236,-0.2899,0.8823,0.3499,-9.940,9.170,-6.510,0.00,0.0184,0.0254,0.0100,0.0087,2025-06-09T13:58:52.980668
7237,-0.2801,0.8789,0.3406,-10.220,9.555,-6.685,0.00,0.0184,0.0254,0.0100,0.0087,2025-06-09T13:58:52.980668
7238,-0.2816,0.8799,0.3426,-9.415,10.850,-7.175,0.00,0.0184,0.0254,0.0100,0.0174,2025-06-09T13:58:52.980668
7239,-0.2972,0.8764,0.3426,-9.555,10.815,-7.315,0.00,0.0368,0.0508,0.0100,0.0087,2025-06-09T13:58:52.980668
7240,-0.3045,0.8725,0.3445,-8.925,8.680,-7.490,0.00,0.0184,0.0508,0.0100,0.0087,2025-06-09T13:58:52.980668
7241,-0.3128,0.8725,0.3548,-7.840,7.035,-7.595,0.00,0.0184,0.0508,0.0200,0.0174,2025-06-09T13:58:52.980668
7242,-0.3011,0.8735,0.3543,-7.070,6.895,-7.560,0.00,0.0184,0.0254,0.0100,0.0087,2025-06-09T13:58:52.980668
7243,-0.3113,0.8711,0.3484,-6.370,7.105,-7.210,0.01,0.0368,0.0254,0.0200,0.0087,2025-06-09T13:58:52.980668
7244,-0.3187,0.8745,0.3533,-5.425,7.490,-6.930,0.00,0.0184,0.0508,0.0100,0.0087,2025-06-09T13:58:52.980668
7245,-0.3231,0.8745,0.3475,-4.760,7.385,-6.615,0.00,0.0368,0.0254,0.0100,0.0174,2025-06-09T13:58:52.980668
7246,-0.3240,0.8750,0.3401,-4.375,7.140,-6.265,0.00,0.0184,0.0508,0.0100,0.0087,2025-06-09T13:58:52.980668
7247,-0.3245,0.8838,0.3392,-4.270,7.735,-5.495,0.00,0.0184,0.0254,0.0200,0.0087,2025-06-09T13:58:52.980668
7248,-0.3343,0.8857,0.3484,-4.200,7.665,-4.935,0.01,0.0184,0.0254,0.0100,0.0087,2025-06-09T13:58:52.980668
7249,-0.3426,0.8930,0.3548,-4.340,5.810,-4.130,0.00,0.0184,0.0254,0.0100,0.0087,2025-06-09T13:58:52.980668
7250,-0.3440,0.8935,0.3494,-4.270,2.765,-3.360,0.01,0.0184,0.0508,0.0100,0.0087,2025-06-09T13:58:52.980668
7251,-0.3274,0.8926,0.3518,-3.885,1.575,-2.695,0.00,0.0184,0.0508,0.0100,0.0087,2025-06-09T13:58:52.980668
7252,-0.3104,0.8940,0.3504,-3.640,3.010,-1.995,0.01,0.0184,0.0254,0.0200,0.0087,2025-06-09T13:58:52.980668
7253,-0.3138,0.8950,0.3518,-3.010,4.585,-1.505,0.01,0.0184,0.0254,0.0100,0.0087,2025-06-09T13:58:52.980668
7254,-0.3284,0.8999,0.3509,-3.325,4.340,-0.665,0.00,0.0184,0.0254,0.0200,0.0087,2025-06-09T13:58:52.980668
7255,-0.3323,0.8969,0.3504,-2.170,2.835,0.140,0.00,0.0368,0.0254,0.0100,0.0087,2025-06-09T13:58:52.980668
7256,-0.3279,0.9004,0.3504,-2.415,1.050,0.980,0.01,0.0184,0.0254,0.0200,0.0087,2025-06-09T13:58:53.005600
7257,-0.3118,0.8999,0.3518,-1.680,-0.070,1.785,0.00,0.0368,0.0508,0.0200,0.0174,2025-06-09T13:58:53.005600
7258,-0.3026,0.9008,0.3553,-1.435,0.805,2.030,0.00,0.0184,0.0254,0.0200,0.0174,2025-06-09T13:58:53.005600
7259,-0.3065,0.8945,0.3465,-1.540,1.190,2.660,0.01,0.0184,0.0508,0.0100,0.0087,2025-06-09T13:58:53.005600
7260,-0.3157,0.8906,0.3514,-1.505,0.420,2.870,0.01,0.0184,0.0254,0.0200,0.0087,2025-06-09T13:58:53.005600
7261,-0.3148,0.8872,0.3436,-1.400,-0.210,2.905,0.01,0.0184,0.0254,0.0100,0.0087,2025-06-09T13:58:53.005600
7262,-0.3192,0.8789,0.3372,-1.540,-1.190,3.010,0.00,0.0184,0.0508,0.0100,0.0087,2025-06-09T13:58:53.005600
7263,-0.3050,0.8745,0.3372,-1.155,-1.295,2.695,0.00,0.0184,0.0508,0.0100,0.0174,2025-06-09T13:58:53.005600
7264,-0.3074,0.8642,0.3377,-1.470,-0.700,2.345,0.00,0.0184,0.0254,0.0200,0.0174,2025-06-09T13:58:53.005600
7265,-0.3055,0.8647,0.3431,-1.120,-0.385,1.925,0.01,0.0368,0.0508,0.0200,0.0087,2025-06-09T13:58:53.056465
7266,-0.3113,0.8599,0.3333,-0.945,-0.805,1.435,0.01,0.0368,0.0254,0.0200,0.0087,2025-06-09T13:58:53.056465
7267,-0.3128,0.8594,0.3294,-0.910,-1.750,0.280,0.00,0.0368,0.0254,0.0200,0.0087,2025-06-09T13:58:53.056465
7268,-0.3074,0.8560,0.3240,-0.735,-1.680,-0.455,0.01,0.0184,0.0508,0.0100,0.0087,2025-06-09T13:58:53.107328
7269,-0.3026,0.8560,0.3294,-0.350,-0.315,-1.960,0.00,0.0184,0.0254,0.0100,0.0087,2025-06-09T13:58:53.107328
7270,-0.3157,0.8540,0.3255,-0.630,0.665,-3.045,0.00,0.0184,0.0508,0.0200,0.0087,2025-06-09T13:58:53.107328
7271,-0.3143,0.8525,0.3353,0.140,0.665,-3.920,0.01,0.0368,0.0254,0.0200,0.0087,2025-06-09T13:58:53.107328
7272,-0.3270,0.8560,0.3362,0.000,0.385,-4.620,0.01,0.0368,0.0254,0.0100,0.0174,2025-06-09T13:58:53.205092
7273,-0.3260,0.8516,0.3260,0.595,-0.840,-5.355,0.00,0.0184,0.0508,0.0100,0.0087,2025-06-09T13:58:53.205092
7274,-0.3250,0.8574,0.3387,0.770,-1.890,-5.810,0.01,0.0184,0.0254,0.0200,0.0087,2025-06-09T13:58:53.205092
7275,-0.3206,0.8628,0.3353,1.295,-1.400,-6.090,0.00,0.0368,0.0254,0.0100,0.0087,2025-06-09T13:58:53.205092
7276,-0.3216,0.8638,0.3353,1.260,-1.085,-6.335,0.00,0.0184,0.0508,0.0100,0.0087,2025-06-09T13:58:53.205092
7277,-0.3274,0.8691,0.3401,1.785,-0.665,-6.405,0.00,0.0184,0.0254,0.0100,0.0087,2025-06-09T13:58:53.205092
7278,-0.3304,0.8789,0.3416,1.995,-1.050,-6.160,0.01,0.0000,0.0254,0.0100,0.0087,2025-06-09T13:58:53.205092
7279,-0.3309,0.8784,0.3367,2.415,-1.225,-6.020,0.01,0.0368,0.0508,0.0200,0.0174,2025-06-09T13:58:53.304823
7280,-0.3245,0.8828,0.3367,2.765,-1.015,-5.705,0.01,0.0184,0.0254,0.0200,0.0087,2025-06-09T13:58:53.304823
7281,-0.3240,0.8838,0.3348,3.010,-0.560,-5.600,0.00,0.0368,0.0254,0.0200,0.0087,2025-06-09T13:58:53.304823
7282,-0.3279,0.8916,0.3333,3.325,8.820,-5.075,0.00,0.0184,0.0254,0.0100,0.0087,2025-06-09T13:58:53.304823
7283,-0.3328,0.8974,0.3338,2.835,0.630,-4.690,0.01,0.0184,0.0508,0.0100,0.0087,2025-06-09T13:58:53.304823
7284,-0.3284,0.9004,0.3357,2.905,1.435,-4.095,0.00,0.0184,0.0508,0.0100,0.0000,2025-06-09T13:58:53.304823
7285,-0.3401,0.8955,0.3265,2.380,1.890,-3.010,0.00,0.0368,0.0508,0.0100,0.0000,2025-06-09T13:58:53.304823
7286,-0.3465,0.8945,0.3279,2.905,0.630,-2.310,0.00,0.0184,0.0508,0.0200,0.0087,2025-06-09T13:58:53.304823
7287,-0.3484,0.8969,0.3309,2.485,-1.225,-1.750,0.00,0.0184,0.0508,0.0200,0.0174,2025-06-09T13:58:53.405528
7288,-0.3421,0.8930,0.3314,2.555,-1.855,-1.155,0.01,0.0184,0.0254,0.0100,0.0174,2025-06-09T13:58:53.405528
7289,-0.3440,0.8911,0.3343,2.065,-2.415,-0.315,0.01,0.0368,0.0254,0.0200,0.0087,2025-06-09T13:58:53.405528
7290,-0.3470,0.8877,0.3304,1.855,-3.325,0.385,0.00,0.0368,0.0254,0.0100,0.0087,2025-06-09T13:58:53.405528
7291,-0.3436,0.8916,0.3289,1.680,-3.780,0.840,0.01,0.0184,0.0254,0.0100,0.0087,2025-06-09T13:58:53.405528
7292,-0.3470,0.8862,0.3260,1.295,-3.640,1.085,0.01,0.0368,0.0254,0.0100,0.0087,2025-06-09T13:58:53.405528
7293,-0.3377,0.8833,0.3240,1.225,-2.975,1.365,0.00,0.0368,0.0254,0.0200,0.0087,2025-06-09T13:58:53.405528
7294,-0.3392,0.8804,0.3245,0.945,-2.135,1.925,0.00,0.0184,0.0254,0.0200,0.0174,2025-06-09T13:58:53.509280
7295,-0.3396,0.8779,0.3294,1.260,-1.925,2.170,0.01,0.0368,0.0508,0.0100,0.0087,2025-06-09T13:58:53.509280
7296,-0.3460,0.8760,0.3294,0.840,-2.870,2.170,0.01,0.0368,0.0254,0.0200,0.0087,2025-06-09T13:58:53.509280
7297,-0.3431,0.8750,0.3279,1.190,-3.850,1.925,0.00,0.0368,0.0508,0.0100,0.0174,2025-06-09T13:58:53.509280
7298,-0.3323,0.8711,0.3177,1.190,-4.515,1.470,0.00,0.0368,0.0254,0.0100,0.0174,2025-06-09T13:58:53.509280
7299,-0.3265,0.8735,0.3221,1.365,-3.990,0.980,0.00,0.0184,0.0254,0.0100,0.0087,2025-06-09T13:58:53.509280
7300,-0.3314,0.8716,0.3177,1.505,-3.045,0.035,0.01,0.0184,0.0000,0.0100,0.0087,2025-06-09T13:58:53.509280
7301,-0.3348,0.8706,0.3177,1.365,-2.765,-0.735,0.00,0.0184,0.0254,0.0100,0.0087,2025-06-09T13:58:53.509280
7302,-0.3343,0.8701,0.3255,1.505,-2.835,-1.260,0.00,0.0184,0.0508,0.0200,0.0174,2025-06-09T13:58:53.610042
7303,-0.3436,0.8662,0.3152,1.295,-3.115,-1.540,0.00,0.0184,0.0254,0.0100,0.0087,2025-06-09T13:58:53.610042
7304,-0.3436,0.8667,0.3177,0.980,-3.325,-1.820,0.00,0.0368,0.0254,0.0200,0.0174,2025-06-09T13:58:53.610042
7305,-0.3357,0.8696,0.3226,0.875,-2.870,-2.170,0.01,0.0368,0.0508,0.0100,0.0087,2025-06-09T13:58:53.610042
7306,-0.3382,0.8691,0.3235,0.490,-2.450,-2.485,0.00,0.0368,0.0508,0.0200,0.0087,2025-06-09T13:58:53.610042
7307,-0.3401,0.8667,0.3211,0.560,-2.590,-2.590,0.01,0.0184,0.0254,0.0100,0.0174,2025-06-09T13:58:53.610042
7308,-0.3470,0.8667,0.3211,0.560,-2.765,-2.660,0.00,0.0184,0.0508,0.0100,0.0087,2025-06-09T13:58:53.610042
7309,-0.3406,0.8682,0.3255,0.525,-2.940,-2.905,0.00,0.0368,0.0254,0.0100,0.0087,2025-06-09T13:58:53.610042
7310,-0.3367,0.8706,0.3250,0.630,-2.835,-3.080,0.01,0.0368,0.0254,0.0100,0.0174,2025-06-09T13:58:53.720710
7311,-0.3440,0.8711,0.3231,0.735,-2.660,-3.500,0.00,0.0368,0.0254,0.0200,0.0087,2025-06-09T13:58:53.720710
7312,-0.3460,0.8682,0.3216,0.770,-3.150,-4.095,0.01,0.0368,0.0254,0.0100,0.0087,2025-06-09T13:58:53.720710
7313,-0.3367,0.8686,0.3265,1.120,-2.660,-4.585,0.01,0.0368,0.0254,0.0100,0.0087,2025-06-09T13:58:53.720710
7314,-0.3367,0.8647,0.3260,0.980,-2.170,-4.970,0.00,0.0184,0.0254,0.0100,0.0087,2025-06-09T13:58:53.720710
7315,-0.3528,0.8662,0.3255,1.120,-3.010,-5.285,0.00,0.0184,0.0254,0.0100,0.0087,2025-06-09T13:58:53.720710
7316,-0.3470,0.8633,0.3260,1.120,-3.500,-5.495,0.00,0.0368,0.0508,0.0100,0.0174,2025-06-09T13:58:53.720710
7317,-0.3401,0.8594,0.3299,1.155,-3.150,-5.705,0.00,0.0368,0.0254,0.0200,0.0087,2025-06-09T13:58:53.778542
7318,-0.3445,0.8667,0.3240,1.085,-2.485,-5.915,0.00,0.0368,0.0254,0.0100,0.0087,2025-06-09T13:58:53.778542
7319,-0.3572,0.8721,0.3235,0.875,-2.555,-6.755,0.01,0.0184,0.0508,0.0200,0.0087,2025-06-09T13:58:53.778542
7320,-0.3597,0.8740,0.3216,0.385,-3.780,-7.595,0.01,0.0184,0.0254,0.0200,0.0087,2025-06-09T13:58:53.778542
7321,-0.3587,0.8745,0.3250,0.105,-4.480,-8.225,0.01,0.0184,0.0254,0.0100,0.0087,2025-06-09T13:58:53.778542
7322,-0.3494,0.8764,0.3235,-0.350,-3.885,-8.750,0.01,0.0184,0.0508,0.0200,0.0087,2025-06-09T13:58:53.918159
7323,-0.3465,0.8721,0.3192,-0.980,-2.765,-8.925,0.01,0.0552,0.0508,0.0200,0.0087,2025-06-09T13:58:53.918159
7324,-0.3558,0.8740,0.3265,-1.225,-2.415,-9.100,0.00,0.0368,0.0254,0.0200,0.0087,2025-06-09T13:58:53.918159
7325,-0.3601,0.8745,0.3289,-1.540,-2.905,-8.575,0.00,0.0184,0.0254,0.0200,0.0087,2025-06-09T13:58:53.918159
7326,-0.3655,0.8779,0.3274,-1.610,-3.955,-7.980,0.00,0.0368,0.0508,0.0100,0.0087,2025-06-09T13:58:53.918159
7327,-0.3675,0.8774,0.3231,-1.785,-4.795,-7.490,0.00,0.0368,0.0254,0.0200,0.0087,2025-06-09T13:58:53.918159
7328,-0.3553,0.8789,0.3245,-1.505,-4.200,-7.245,0.00,0.0184,0.0254,0.0100,0.0087,2025-06-09T13:58:53.918159
7329,-0.3587,0.8784,0.3250,-1.330,-2.975,-6.825,0.00,0.0184,0.0254,0.0200,0.0087,2025-06-09T13:58:53.918159
7330,-0.3762,0.8784,0.3274,-0.945,-2.975,-6.545,0.00,0.0184,0.0254,0.0200,0.0087,2025-06-09T13:58:53.918159
7331,-0.3792,0.8794,0.3304,-0.245,-3.955,-6.160,0.00,0.0368,0.0000,0.0200,0.0174,2025-06-09T13:58:53.918159
7332,-0.3719,0.8789,0.3284,0.105,-4.340,-5.740,0.00,0.0368,0.0254,0.0200,0.0087,2025-06-09T13:58:54.029862
7333,-0.3743,0.8730,0.3221,0.280,-4.095,-5.285,0.00,0.0368,0.0508,0.0100,0.0087,2025-06-09T13:58:54.029862
7334,-0.3772,0.8735,0.3245,0.245,-3.710,-4.935,0.00,0.0368,0.0254,0.0200,0.0174,2025-06-09T13:58:54.029862
7335,-0.3782,0.8701,0.3265,0.350,-3.115,-4.655,0.00,0.0368,0.0254,0.0200,0.0174,2025-06-09T13:58:54.029862
7336,-0.3855,0.8672,0.3240,0.315,-3.185,-4.235,0.01,0.0368,0.0254,0.0100,0.0174,2025-06-09T13:58:54.029862
7337,-0.3889,0.8638,0.3274,0.070,-3.955,-3.955,0.01,0.0184,0.0254,0.0200,0.0087,2025-06-09T13:58:54.029862
7338,-0.3831,0.8603,0.3309,0.000,-4.375,-3.675,0.00,0.0184,0.0254,0.0100,0.0087,2025-06-09T13:58:54.029862
7339,-0.3787,0.8599,0.3196,-0.315,-4.445,-3.255,0.01,0.0184,0.0254,0.0100,0.0174,2025-06-09T13:58:54.029862
7340,-0.3782,0.8608,0.3201,-0.700,-3.990,-3.395,0.00,0.0368,0.0254,0.0100,0.0174,2025-06-09T13:58:54.122610
7341,-0.3733,0.8589,0.3255,-0.945,-3.605,-3.360,0.00,0.0368,0.0508,0.0100,0.0174,2025-06-09T13:58:54.123608
7342,-0.3811,0.8618,0.3318,-0.910,-3.710,-3.185,0.00,0.0184,0.0508,0.0200,0.0174,2025-06-09T13:58:54.123608
7343,-0.3855,0.8589,0.3372,-0.665,-4.235,-3.220,0.01,0.0368,0.0508,0.0100,0.0174,2025-06-09T13:58:54.123608
7344,-0.3860,0.8569,0.3333,-0.630,-4.830,-3.185,0.01,0.0184,0.0254,0.0200,0.0087,2025-06-09T13:58:54.123608
7345,-0.3860,0.8584,0.3333,-0.175,-5.005,-3.290,0.00,0.0184,0.0254,0.0100,0.0174,2025-06-09T13:58:54.123608
7346,-0.3816,0.8608,0.3348,-0.140,-4.480,-3.150,0.00,0.0184,0.0508,0.0200,0.0087,2025-06-09T13:58:54.123608
7347,-0.3836,0.8545,0.3279,0.210,-4.515,-3.010,0.00,0.0184,0.0508,0.0100,0.0174,2025-06-09T13:58:54.123608
7348,-0.3841,0.8560,0.3348,0.910,-4.480,-2.765,0.01,0.0368,0.0254,0.0200,0.0174,2025-06-09T13:58:54.228329
7349,-0.3811,0.8642,0.3362,1.120,-4.305,-2.170,0.00,0.0368,0.0254,0.0100,0.0087,2025-06-09T13:58:54.228329
7350,-0.3880,0.8657,0.3289,1.540,-4.690,-1.855,0.00,0.0184,0.0254,0.0200,0.0174,2025-06-09T13:58:54.228329
7351,-0.3836,0.8677,0.3318,1.540,-4.970,-1.505,0.00,0.0184,0.0254,0.0100,0.0087,2025-06-09T13:58:54.228329
7352,-0.3806,0.8696,0.3289,1.995,-5.005,-0.910,0.00,0.0184,0.0254,0.0100,0.0087,2025-06-09T13:58:54.228329
7353,-0.3850,0.8682,0.3279,2.030,-5.180,-0.525,0.00,0.0000,0.0254,0.0100,0.0087,2025-06-09T13:58:54.228329
7354,-0.3806,0.8711,0.3270,2.205,-4.970,-0.210,0.01,0.0184,0.0254,0.0100,0.0000,2025-06-09T13:58:54.228329
7355,-0.3845,0.8711,0.3270,2.170,-4.655,0.420,0.00,0.0184,0.0254,0.0200,0.0087,2025-06-09T13:58:54.326066
7356,-0.3880,0.8701,0.3226,2.240,-4.900,1.225,0.00,0.0184,0.0508,0.0100,0.0174,2025-06-09T13:58:54.326066
7357,-0.3914,0.8696,0.3196,1.995,-5.355,1.995,0.01,0.0368,0.0508,0.0100,0.0087,2025-06-09T13:58:54.326066
7358,-0.3802,0.8691,0.3177,2.065,-5.040,2.520,0.00,0.0184,0.0254,0.0100,0.0087,2025-06-09T13:58:54.326066
7359,-0.3762,0.8701,0.3162,1.925,-4.095,2.975,0.00,0.0368,0.0254,0.0100,0.0087,2025-06-09T13:58:54.326066
7360,-0.3753,0.8721,0.3172,1.715,-3.255,3.115,0.00,0.0368,0.0254,0.0100,0.0087,2025-06-09T13:58:54.326066
7361,-0.3743,0.8716,0.3201,1.540,-3.325,3.080,0.01,0.0184,0.0508,0.0100,0.0087,2025-06-09T13:58:54.326066
7362,-0.3753,0.8662,0.3211,1.225,-4.515,3.045,0.00,0.0184,0.0508,0.0200,0.0087,2025-06-09T13:58:54.326066
7363,-0.3719,0.8638,0.3152,1.260,-5.215,2.660,0.00,0.0368,0.0254,0.0200,0.0174,2025-06-09T13:58:54.428793
7364,-0.3611,0.8584,0.3162,0.980,-4.865,2.240,0.00,0.0368,0.0254,0.0200,0.0087,2025-06-09T13:58:54.428793
7365,-0.3582,0.8530,0.3201,0.875,-3.570,1.820,0.00,0.0368,0.0254,0.0100,0.0087,2025-06-09T13:58:54.428793
7366,-0.3655,0.8506,0.3231,0.840,-3.045,1.365,0.00,0.0368,0.0254,0.0200,0.0087,2025-06-09T13:58:54.428793
7367,-0.3728,0.8511,0.3231,1.155,-3.395,0.980,0.00,0.0000,0.0254,0.0100,0.0174,2025-06-09T13:58:54.428793
7368,-0.3738,0.8462,0.3231,1.400,-3.605,0.560,0.00,0.0184,0.0254,0.0100,0.0087,2025-06-09T13:58:54.428793
7369,-0.3665,0.8438,0.3177,1.190,-3.220,0.070,0.01,0.0368,0.0254,0.0100,0.0087,2025-06-09T13:58:54.428793
7370,-0.3670,0.8481,0.3196,1.365,-2.065,-0.490,0.00,0.0184,0.0508,0.0200,0.0087,2025-06-09T13:58:54.490650
7371,-0.3689,0.8486,0.3167,0.875,-1.470,-1.120,0.00,0.0368,0.0508,0.0300,0.0174,2025-06-09T13:58:54.490650
7372,-0.3753,0.8452,0.3192,0.980,-2.240,-1.610,0.01,0.0184,0.0508,0.0100,0.0174,2025-06-09T13:58:54.490650
7373,-0.3704,0.8442,0.3216,0.875,-2.590,-2.380,0.00,0.0368,0.0254,0.0200,0.0174,2025-06-09T13:58:54.490650
7374,-0.3631,0.8369,0.3221,0.560,-2.415,-3.920,0.00,0.0184,0.0508,0.0200,0.0087,2025-06-09T13:58:54.633246
7375,-0.3719,0.8320,0.3157,0.595,-2.380,-5.320,0.01,0.0368,0.0254,0.0100,0.0087,2025-06-09T13:58:54.633246
7376,-0.3684,0.8272,0.3152,0.490,-2.345,-7.175,0.00,0.0184,0.0254,0.0200,0.0087,2025-06-09T13:58:54.633246
7377,-0.3621,0.8242,0.3206,0.000,-2.065,-8.785,0.00,0.0184,0.0508,0.0100,0.0087,2025-06-09T13:58:54.633246
7378,-0.3626,0.8169,0.3240,0.315,-1.960,-10.535,0.00,0.0368,0.0254,0.0200,0.0087,2025-06-09T13:58:54.633246
7379,-0.3714,0.8096,0.3279,0.000,-2.380,-12.915,0.00,0.0184,0.0508,0.0100,0.0087,2025-06-09T13:58:54.783845
7380,-0.3806,0.8037,0.3353,0.315,-3.500,-15.120,0.00,0.0368,0.0254,0.0100,0.0087,2025-06-09T13:58:54.783845
7381,-0.3865,0.7989,0.3440,0.665,-5.705,-26.530,0.00,0.0184,0.0508,0.0200,0.0087,2025-06-09T13:58:54.783845
7382,-0.3816,0.7984,0.3387,0.700,-7.385,-20.685,0.00,0.0184,0.0254,0.0100,0.0174,2025-06-09T13:58:54.783845
