SeqNum,AccX,AccY,AccZ,GyroX,GyroY,GyroZ,Flex,Force1,Force2,Force3,Force4,TimestampReception
24231,-0.2474,0.9526,0.2079,1.610,-7.175,0.980,453,404,263,415,366,2025-05-27T11:40:13.294321
24232,-0.2377,0.9409,0.2128,1.785,-11.445,2.835,432,377,318,400,299,2025-05-27T11:40:13.294321
24233,-0.2220,0.9384,0.2137,1.855,-12.915,3.115,404,339,338,343,355,2025-05-27T11:40:13.294321
24234,-0.2133,0.9365,0.2147,1.750,-13.790,2.520,402,352,325,389,383,2025-05-27T11:40:13.294321
24235,-0.2333,0.9379,0.2011,1.505,-14.210,1.925,341,383,352,414,394,2025-05-27T11:40:13.294321
24236,-0.2152,0.9360,0.1981,2.170,-15.400,1.785,379,411,356,409,409,2025-05-27T11:40:13.294321
24237,-0.2064,0.9360,0.2059,3.115,-15.295,1.855,387,408,360,428,393,2025-05-27T11:40:13.294321
24238,-0.1869,0.9374,0.2059,4.025,-13.440,1.750,412,414,332,418,410,2025-05-27T11:40:13.294321
24239,-0.1859,0.9316,0.2011,4.620,-10.745,1.225,418,431,349,395,354,2025-05-27T11:40:13.294321
24240,-0.1967,0.9267,0.2006,4.760,-8.505,0.490,376,364,334,346,379,2025-05-27T11:40:13.294321
24241,-0.2128,0.9248,0.1923,4.970,-8.085,-0.070,402,393,348,358,407,2025-05-27T11:40:13.294321
24242,-0.2216,0.9233,0.1708,5.320,-9.205,-0.280,395,394,339,399,402,2025-05-27T11:40:13.294321
24243,-0.2152,0.9248,0.1562,5.460,-10.045,-0.455,382,416,365,400,396,2025-05-27T11:40:13.394334
24244,-0.1840,0.9262,0.1776,5.460,-7.630,-1.505,389,415,335,393,389,2025-05-27T11:40:13.394334
24245,-0.1542,0.9252,0.2015,4.970,-1.575,-3.115,400,416,363,390,399,2025-05-27T11:40:13.394334
24246,-0.1679,0.9257,0.2118,4.165,5.635,-4.865,394,398,371,392,370,2025-05-27T11:40:13.394458
24247,-0.1996,0.9301,0.2089,3.500,9.765,-5.845,419,405,381,411,379,2025-05-27T11:40:13.394458
24248,-0.2298,0.9316,0.2030,3.290,9.870,-5.915,425,406,386,403,386,2025-05-27T11:40:13.394458
24249,-0.2674,0.9365,0.2011,3.745,6.370,-5.670,407,426,391,410,407,2025-05-27T11:40:13.394541
24250,-0.2826,0.9384,0.2050,4.410,0.735,-5.145,343,340,353,414,414,2025-05-27T11:40:13.594384
24251,-0.2933,0.9423,0.2098,5.250,-4.760,-5.040,403,408,374,421,396,2025-05-27T11:40:13.594384
24252,-0.2835,0.9496,0.2050,6.020,-9.800,-4.235,425,422,378,379,342,2025-05-27T11:40:13.594384
24253,-0.2611,0.9584,0.2064,6.685,-13.615,-2.975,419,427,382,393,371,2025-05-27T11:40:13.594384
24254,-0.2333,0.9609,0.2123,7.385,-14.770,-1.785,408,427,376,388,384,2025-05-27T11:40:13.594384
24255,-0.2216,0.9589,0.2157,7.630,-13.825,-1.295,409,406,376,391,380,2025-05-27T11:40:13.594384
24256,-0.2064,0.9633,0.2172,7.840,-12.880,-0.770,400,356,375,394,404,2025-05-27T11:40:13.594384
24257,-0.2045,0.9648,0.2157,8.645,-11.830,-0.525,412,352,385,418,410,2025-05-27T11:40:13.594384
24258,-0.2176,0.9648,0.2176,9.275,-10.500,-0.630,401,329,385,415,395,2025-05-27T11:40:13.594384
24259,-0.2274,0.9609,0.2172,9.905,-10.360,-0.910,422,413,378,414,389,2025-05-27T11:40:13.594384
24260,-0.2308,0.9653,0.1986,10.080,-10.780,-0.840,424,425,387,416,366,2025-05-27T11:40:13.594384
24261,-0.2460,0.9599,0.1884,9.835,-11.375,-0.735,425,400,344,409,373,2025-05-27T11:40:13.594384
24262,-0.2528,0.9560,0.2025,9.765,-12.565,-0.280,425,428,336,406,387,2025-05-27T11:40:13.594384
24263,-0.2743,0.9448,0.2313,10.045,-14.420,0.245,424,357,360,355,382,2025-05-27T11:40:13.594384
24264,-0.3040,0.9492,0.2474,10.605,-16.765,0.630,422,354,372,387,392,2025-05-27T11:40:13.594384
24265,-0.3274,0.9536,0.2328,11.200,-21.560,1.120,424,388,384,359,405,2025-05-27T11:40:13.594384
24266,-0.3255,0.9521,0.2142,11.445,-27.615,3.325,415,419,377,373,412,2025-05-27T11:40:13.594384
24267,-0.3162,0.9453,0.2069,12.040,-32.585,5.985,383,389,383,408,413,2025-05-27T11:40:13.594384
24268,-0.3182,0.9350,0.2123,12.775,-36.820,8.470,412,422,380,414,401,2025-05-27T11:40:13.699956
24269,-0.3070,0.9379,0.2162,13.580,-40.460,10.255,341,341,365,416,354,2025-05-27T11:40:13.699956
24270,-0.2928,0.9418,0.2128,14.630,-42.455,11.340,402,402,381,391,375,2025-05-27T11:40:13.699956
24271,-0.2879,0.9404,0.2050,15.575,-44.310,12.215,417,410,389,383,334,2025-05-27T11:40:13.699956
24272,-0.2718,0.9399,0.1962,16.835,-46.690,13.510,421,422,395,400,365,2025-05-27T11:40:13.699956
24273,-0.2577,0.9531,0.1801,17.290,-48.405,14.735,345,420,396,408,395,2025-05-27T11:40:13.699956
24274,-0.2582,0.9540,0.1850,17.185,-49.175,15.575,380,373,376,399,401,2025-05-27T11:40:13.699956
24275,-0.2601,0.9560,0.1986,17.115,-50.540,15.855,416,400,389,419,388,2025-05-27T11:40:13.699956
24276,-0.2689,0.9638,0.1913,17.045,-54.285,17.010,378,362,381,393,390,2025-05-27T11:40:13.801031
24277,-0.2708,0.9638,0.1820,16.625,-59.885,18.620,388,407,374,396,409,2025-05-27T11:40:13.801031
24278,-0.2533,0.9618,0.1767,15.995,-64.295,19.810,382,428,386,409,399,2025-05-27T11:40:13.801031
24279,-0.2328,0.9623,0.1776,14.980,-67.725,20.370,391,414,346,407,392,2025-05-27T11:40:13.801031
24280,-0.2186,0.9594,0.1630,13.685,-68.670,20.475,402,409,369,350,386,2025-05-27T11:40:13.801031
24281,-0.1893,0.9784,0.1425,12.845,-68.880,20.475,429,427,370,373,393,2025-05-27T11:40:13.801031
24282,-0.1747,0.9843,0.1225,12.670,-68.705,20.475,396,362,370,298,393,2025-05-27T11:40:13.801031
24283,-0.1596,0.9775,0.1225,12.915,-68.495,19.635,381,393,378,374,369,2025-05-27T11:40:13.801031
24284,-0.1366,0.9740,0.0976,13.230,-69.055,19.390,396,365,382,407,374,2025-05-27T11:40:13.927906
24285,-0.1035,0.9965,0.0644,12.915,-69.020,19.565,374,358,347,390,385,2025-05-27T11:40:13.927906
24286,-0.0888,0.9916,0.0634,11.270,-67.095,19.355,335,388,369,339,392,2025-05-27T11:40:13.927906
24287,-0.0664,0.9892,0.0922,9.975,-64.120,18.480,395,424,383,388,403,2025-05-27T11:40:13.927906
24288,-0.0205,0.9828,0.1166,8.645,-59.080,17.045,412,357,391,408,408,2025-05-27T11:40:13.927906
24289,0.0083,0.9731,0.1366,7.420,-51.065,15.400,425,401,395,351,399,2025-05-27T11:40:13.927906
24290,0.0337,0.9697,0.1401,5.880,-41.720,13.230,436,381,375,378,356,2025-05-27T11:40:13.927906
24291,0.0381,0.9789,0.1010,4.515,-33.985,10.780,429,415,386,404,356,2025-05-27T11:40:13.927906
24292,0.0390,0.9902,0.0664,3.465,-24.640,8.715,373,407,374,413,388,2025-05-27T11:40:13.927906
24293,0.0561,0.9858,0.0639,2.800,-16.205,6.790,344,425,387,392,352,2025-05-27T11:40:13.927906
24294,0.0639,0.9780,0.0771,2.030,-8.330,5.040,356,383,374,389,376,2025-05-27T11:40:13.927906
24295,0.0644,0.9628,0.1015,1.330,-0.245,2.765,417,413,379,410,361,2025-05-27T11:40:13.977642
24296,0.0698,0.9575,0.1137,0.560,6.230,0.350,421,416,383,410,397,2025-05-27T11:40:13.977642
24297,0.0576,0.9521,0.1010,-0.175,14.700,-1.960,409,420,355,393,347,2025-05-27T11:40:13.977642
24298,0.0098,0.9433,0.1020,-0.770,21.595,-4.690,408,349,372,353,379,2025-05-27T11:40:13.977642
24299,-0.0039,0.9433,0.1093,-0.525,25.235,-6.685,414,423,375,393,387,2025-05-27T11:40:14.027517
24300,-0.0390,0.9316,0.1191,0.140,27.685,-8.330,400,422,370,387,347,2025-05-27T11:40:14.027517
24301,-0.0732,0.9292,0.1249,0.805,29.470,-9.800,397,421,383,399,387,2025-05-27T11:40:14.027517
24302,-0.1132,0.9345,0.1210,1.715,29.470,-10.430,404,426,387,404,404,2025-05-27T11:40:14.027517
24303,-0.1542,0.9335,0.1132,2.450,27.510,-10.430,399,413,378,416,401,2025-05-27T11:40:14.277617
24304,-0.1532,0.9462,0.1083,3.220,23.940,-9.275,413,400,386,430,401,2025-05-27T11:40:14.277617
24305,-0.1435,0.9511,0.1093,3.885,22.820,-8.190,406,426,397,416,394,2025-05-27T11:40:14.277617
24306,-0.1376,0.9575,0.1161,4.340,24.815,-7.210,415,396,383,412,367,2025-05-27T11:40:14.277617
24307,-0.1327,0.9638,0.1264,4.655,27.300,-6.720,417,410,385,403,388,2025-05-27T11:40:14.277617
24308,-0.1449,0.9633,0.1430,4.655,28.805,-6.125,304,362,385,390,364,2025-05-27T11:40:14.277617
24309,-0.1581,0.9692,0.1606,4.795,28.210,-5.250,370,407,381,399,371,2025-05-27T11:40:14.277617
24310,-0.1664,0.9760,0.1571,5.040,25.235,-4.655,409,345,382,370,379,2025-05-27T11:40:14.277617
24311,-0.1566,0.9833,0.1396,5.285,22.435,-3.955,408,383,378,394,400,2025-05-27T11:40:14.277617
24312,-0.1176,0.9882,0.1313,4.620,23.240,-3.640,348,402,375,396,345,2025-05-27T11:40:14.277617
24313,-0.0859,0.9848,0.1322,3.465,27.895,-4.200,390,431,381,399,366,2025-05-27T11:40:14.277617
24314,-0.0839,0.9814,0.1405,1.925,32.340,-4.900,379,397,379,409,376,2025-05-27T11:40:14.277617
24315,-0.1225,0.9775,0.1566,0.945,34.510,-5.460,422,423,369,417,389,2025-05-27T11:40:14.277617
24316,-0.1552,0.9794,0.1586,1.260,30.835,-5.390,402,419,336,375,382,2025-05-27T11:40:14.277617
24317,-0.1532,0.9902,0.1464,1.610,25.340,-5.040,430,437,348,407,393,2025-05-27T11:40:14.277617
24318,-0.1405,1.0024,0.1303,1.470,23.275,-5.145,409,348,374,313,341,2025-05-27T11:40:14.277617
24319,-0.1147,1.0077,0.1220,1.085,24.255,-5.040,391,404,341,371,380,2025-05-27T11:40:14.277617
24320,-0.0874,1.0111,0.0976,0.700,27.755,-4.760,371,410,372,397,385,2025-05-27T11:40:14.277617
24321,-0.1498,1.0063,0.0888,-0.630,28.945,-4.795,393,348,339,402,399,2025-05-27T11:40:14.277617
24322,-0.1806,1.0009,0.1035,-1.540,23.555,-3.885,401,408,357,405,411,2025-05-27T11:40:14.277617
24323,-0.2094,0.9848,0.1318,-2.030,15.225,-2.555,413,415,360,403,351,2025-05-27T11:40:14.510842
24324,-0.2157,0.9760,0.1498,-2.030,10.080,-1.575,399,422,381,395,378,2025-05-27T11:40:14.510842
24325,-0.2157,0.9682,0.1557,-1.995,4.900,-1.085,433,349,378,360,403,2025-05-27T11:40:14.510842
24326,-0.2240,0.9594,0.1537,-1.995,0.630,-0.700,403,405,378,388,404,2025-05-27T11:40:14.510842
24327,-0.2401,0.9570,0.1322,-1.925,-3.780,0.070,421,423,369,404,372,2025-05-27T11:40:14.510842
24328,-0.2547,0.9570,0.1220,-1.995,-9.450,0.875,420,377,373,395,379,2025-05-27T11:40:14.510842
24329,-0.2811,0.9555,0.1093,-1.925,-16.520,1.995,419,398,374,394,380,2025-05-27T11:40:14.510842
24330,-0.2850,0.9682,0.1025,-1.610,-22.855,3.885,408,373,382,358,341,2025-05-27T11:40:14.510842
24331,-0.2845,0.9658,0.1088,-1.085,-29.960,5.635,406,389,372,335,385,2025-05-27T11:40:14.510842
24332,-0.2552,0.9677,0.1249,-0.245,-35.840,7.700,408,419,372,373,387,2025-05-27T11:40:14.510842
24333,-0.2123,0.9687,0.1386,0.525,-39.585,9.590,420,430,382,400,339,2025-05-27T11:40:14.510842
24334,-0.1791,0.9701,0.1420,0.910,-41.020,10.640,427,402,391,345,365,2025-05-27T11:40:14.510842
24335,-0.1401,0.9770,0.1391,1.190,-41.125,11.200,425,411,392,382,389,2025-05-27T11:40:14.510842
24336,-0.1327,0.9789,0.1425,1.155,-40.285,11.270,431,418,393,403,409,2025-05-27T11:40:14.510842
24337,-0.1279,0.9828,0.1430,1.295,-39.165,11.165,397,392,356,396,416,2025-05-27T11:40:14.510842
24338,-0.1215,0.9819,0.1435,1.540,-39.130,11.025,396,396,368,350,413,2025-05-27T11:40:14.510842
24339,-0.1010,0.9902,0.1376,1.715,-39.095,11.130,409,394,377,395,413,2025-05-27T11:40:14.510842
24340,-0.0937,0.9897,0.1362,1.435,-38.745,10.640,415,394,371,347,347,2025-05-27T11:40:14.510842
24341,-0.0659,0.9921,0.1420,1.155,-38.640,10.255,420,423,380,350,386,2025-05-27T11:40:14.510842
24342,-0.0669,0.9862,0.1498,0.630,-38.080,9.520,428,407,382,395,408,2025-05-27T11:40:14.510842
24343,-0.0376,0.9858,0.1513,-0.140,-36.680,8.330,425,397,384,406,402,2025-05-27T11:40:14.510842
24344,-0.0200,0.9848,0.1523,-1.225,-33.705,7.035,402,373,385,408,394,2025-05-27T11:40:14.747811
24345,0.0073,0.9858,0.1454,-2.415,-28.700,5.180,418,413,394,399,405,2025-05-27T11:40:14.747811
24346,0.0176,0.9848,0.1366,-3.640,-21.560,2.835,414,429,392,352,393,2025-05-27T11:40:14.747811
24347,0.0176,0.9843,0.1235,-4.795,-13.615,0.210,405,410,390,377,393,2025-05-27T11:40:14.747811
24348,0.0059,0.9838,0.1205,-6.055,-7.560,-2.345,406,406,397,394,348,2025-05-27T11:40:14.747811
24349,-0.0122,0.9711,0.1215,-6.860,-1.575,-3.815,420,423,378,388,332,2025-05-27T11:40:14.747811
24350,-0.0210,0.9677,0.1235,-7.630,2.345,-5.180,383,394,390,411,363,2025-05-27T11:40:14.747811
24351,-0.0268,0.9589,0.1254,-8.400,5.495,-6.685,385,410,381,415,386,2025-05-27T11:40:14.747811
24352,-0.0268,0.9521,0.1249,-9.170,8.925,-8.750,417,413,339,396,408,2025-05-27T11:40:14.747811
24353,-0.0127,0.9560,0.1103,-9.940,11.760,-10.850,369,430,353,411,407,2025-05-27T11:40:14.747811
24354,-0.0107,0.9662,0.0976,-10.850,17.290,-12.320,400,430,378,419,397,2025-05-27T11:40:14.747811
24355,-0.0122,0.9643,0.0893,-11.200,23.415,-14.175,429,440,342,422,409,2025-05-27T11:40:14.747811
24356,-0.0293,0.9643,0.0961,-10.955,29.785,-15.260,401,397,367,388,414,2025-05-27T11:40:14.747811
24357,-0.0547,0.9618,0.1142,-10.640,34.860,-16.100,394,391,364,404,320,2025-05-27T11:40:14.747811
24358,-0.0761,0.9555,0.1337,-10.360,37.730,-16.065,399,402,379,397,365,2025-05-27T11:40:14.747811
24359,-0.0937,0.9584,0.1366,-10.115,38.710,-15.575,388,377,367,389,390,2025-05-27T11:40:14.747811
24360,-0.1054,0.9638,0.1352,-10.115,39.445,-15.400,387,400,302,390,350,2025-05-27T11:40:14.747811
24361,-0.1181,0.9711,0.1283,-10.535,39.865,-14.840,400,401,338,395,370,2025-05-27T11:40:14.747811
24362,-0.1401,0.9682,0.1298,-10.920,40.390,-14.105,393,408,365,409,383,2025-05-27T11:40:14.747811
24363,-0.1386,0.9643,0.1381,-11.305,41.195,-12.740,409,413,378,398,399,2025-05-27T11:40:15.010322
24364,-0.1503,0.9589,0.1464,-11.620,42.840,-11.515,397,426,389,410,412,2025-05-27T11:40:15.010322
24365,-0.1732,0.9531,0.1498,-12.180,43.575,-11.025,398,422,350,404,418,2025-05-27T11:40:15.010322
24366,-0.2040,0.9565,0.1527,-12.215,42.490,-10.710,376,431,359,401,397,2025-05-27T11:40:15.010322
24367,-0.2064,0.9604,0.1591,-11.865,39.200,-10.535,416,375,361,402,394,2025-05-27T11:40:15.010816
24368,-0.1986,0.9633,0.1640,-11.200,36.295,-10.570,415,382,371,411,385,2025-05-27T11:40:15.010816
24369,-0.1698,0.9667,0.1635,-10.815,35.560,-10.920,341,407,370,396,352,2025-05-27T11:40:15.010894
24370,-0.1669,0.9633,0.1601,-11.200,36.750,-11.620,339,403,372,348,369,2025-05-27T11:40:15.010894
24371,-0.1659,0.9662,0.1625,-11.340,37.345,-11.760,399,396,340,386,400,2025-05-27T11:40:15.010894
24372,-0.1688,0.9736,0.1732,-11.340,36.470,-11.410,411,389,369,402,405,2025-05-27T11:40:15.010894
24373,-0.1786,0.9706,0.1776,-11.130,34.930,-11.165,395,401,338,406,424,2025-05-27T11:40:15.010998
24374,-0.1723,0.9677,0.1850,-10.780,32.165,-11.445,342,396,353,390,401,2025-05-27T11:40:15.010998
24375,-0.1737,0.9584,0.1962,-10.325,28.945,-11.410,407,414,376,406,411,2025-05-27T11:40:15.010998
24376,-0.1654,0.9506,0.2089,-9.800,25.970,-11.025,396,405,370,395,386,2025-05-27T11:40:15.011145
24377,-0.1557,0.9516,0.2011,-9.380,24.325,-10.815,341,414,374,347,381,2025-05-27T11:40:15.011297
24378,-0.1552,0.9531,0.1889,-9.345,24.990,-11.235,375,396,345,390,406,2025-05-27T11:40:15.011297
24379,-0.1596,0.9521,0.1820,-9.275,35.595,-11.655,424,358,328,349,404,2025-05-27T11:40:15.011297
24380,-0.1601,0.9472,0.1767,-8.855,29.155,-11.900,355,408,326,373,405,2025-05-27T11:40:15.011297
24381,-0.1757,0.9326,0.1771,-8.260,31.570,-11.655,383,417,352,364,395,2025-05-27T11:40:15.011297
24382,-0.1991,0.9257,0.1635,-7.525,32.620,-11.130,412,407,371,380,358,2025-05-27T11:40:15.011297
24383,-0.2235,0.9340,0.1444,-6.895,31.710,-10.430,411,386,374,343,376,2025-05-27T11:40:15.094051
24384,-0.2201,0.9306,0.1464,-6.265,30.380,-9.310,410,424,380,406,348,2025-05-27T11:40:15.094051
24385,-0.2211,0.9287,0.1591,-5.460,29.785,-8.400,379,394,385,394,377,2025-05-27T11:40:15.094051
24386,-0.2172,0.9238,0.1659,-4.445,30.135,-7.560,413,396,381,408,386,2025-05-27T11:40:15.094051
24387,-0.2586,0.9223,0.1562,-3.745,31.115,-7.315,419,401,384,395,401,2025-05-27T11:40:15.094051
24388,-0.2577,0.9296,0.1401,-2.835,31.290,-6.685,342,426,390,396,411,2025-05-27T11:40:15.094051
24389,-0.2674,0.9355,0.1318,-1.855,31.675,-5.670,379,422,395,405,400,2025-05-27T11:40:15.307945
24390,-0.2816,0.9370,0.1318,-0.875,32.200,-4.935,292,427,393,413,348,2025-05-27T11:40:15.307945
24391,-0.2826,0.9292,0.1440,-0.105,31.640,-4.585,343,407,397,417,390,2025-05-27T11:40:15.307945
24392,-0.2718,0.9316,0.1591,0.070,31.535,-4.060,395,390,389,406,405,2025-05-27T11:40:15.307945
24393,-0.2625,0.9326,0.1723,-0.245,31.780,-3.850,393,414,384,355,408,2025-05-27T11:40:15.307945
24394,-0.2601,0.9482,0.1718,-1.190,31.850,-3.955,426,417,389,386,359,2025-05-27T11:40:15.307945
24395,-0.2635,0.9609,0.1684,-2.765,32.305,-4.235,410,402,350,388,345,2025-05-27T11:40:15.307945
24396,-0.2684,0.9658,0.1830,-4.165,33.005,-4.655,404,345,370,412,333,2025-05-27T11:40:15.307945
24397,-0.2782,0.9682,0.1962,-5.215,33.180,-5.355,404,396,376,353,376,2025-05-27T11:40:15.307945
24398,-0.2962,0.9594,0.2064,-5.880,31.745,-5.985,422,422,387,394,400,2025-05-27T11:40:15.307945
24399,-0.3226,0.9575,0.2128,-5.915,28.945,-6.230,405,393,394,412,391,2025-05-27T11:40:15.307945
24400,-0.3450,0.9540,0.2054,-5.285,23.870,-5.775,428,424,347,420,416,2025-05-27T11:40:15.310896
24401,-0.3553,0.9521,0.1942,-4.375,17.710,-4.935,430,404,376,410,413,2025-05-27T11:40:15.310896
24402,-0.3592,0.9531,0.1884,-3.780,12.530,-3.885,394,425,382,419,406,2025-05-27T11:40:15.310896
24403,-0.3509,0.9448,0.1864,-3.220,8.820,-2.870,416,396,375,396,410,2025-05-27T11:40:15.310896
24404,-0.3362,0.9394,0.1898,-2.450,6.755,-2.205,395,414,380,406,416,2025-05-27T11:40:15.310896
24405,-0.3235,0.9384,0.1825,-1.750,5.250,-1.680,428,429,382,395,413,2025-05-27T11:40:15.310896
24406,-0.3118,0.9379,0.1835,-1.120,3.920,-0.980,426,364,372,364,418,2025-05-27T11:40:15.310896
24407,-0.3065,0.9384,0.1830,-0.560,2.100,-0.595,421,407,337,391,402,2025-05-27T11:40:15.310896
24408,-0.2894,0.9399,0.1835,0.245,0.840,-0.385,424,414,363,409,396,2025-05-27T11:40:15.310896
24409,-0.2772,0.9404,0.1859,1.085,-0.035,-0.315,379,403,367,391,393,2025-05-27T11:40:15.460720
24410,-0.2684,0.9365,0.1835,1.785,0.140,-0.245,411,411,377,409,398,2025-05-27T11:40:15.460720
24411,-0.2645,0.9384,0.1801,2.555,0.560,-0.210,408,425,381,415,347,2025-05-27T11:40:15.460720
24412,-0.2630,0.9423,0.1713,3.570,1.050,-0.070,395,428,352,419,370,2025-05-27T11:40:15.460720
24413,-0.2616,0.9404,0.1679,4.340,1.365,0.035,417,420,355,409,391,2025-05-27T11:40:15.460720
24414,-0.2606,0.9345,0.1708,5.635,1.400,0.105,398,402,346,395,380,2025-05-27T11:40:15.460720
24415,-0.2611,0.9306,0.1684,7.140,1.050,0.315,298,409,368,386,402,2025-05-27T11:40:15.460720
24416,-0.2645,0.9228,0.1688,8.575,0.315,0.035,374,363,360,403,408,2025-05-27T11:40:15.460720
24417,-0.2782,0.9101,0.1625,9.730,-1.085,-0.595,402,406,372,358,403,2025-05-27T11:40:15.460720
24418,-0.2869,0.9048,0.1454,10.535,-2.380,-1.400,394,399,368,377,388,2025-05-27T11:40:15.460720
24419,-0.2835,0.9106,0.1332,10.920,-3.675,-1.960,385,409,372,406,411,2025-05-27T11:40:15.460720
24420,-0.2786,0.9165,0.1264,11.025,-3.745,-2.905,413,401,384,392,380,2025-05-27T11:40:15.460720
24421,-0.2772,0.9126,0.1283,10.605,-3.290,-4.305,351,392,374,399,397,2025-05-27T11:40:15.460720
24422,-0.2894,0.9052,0.1288,10.430,-2.940,-6.055,402,380,349,390,386,2025-05-27T11:40:15.544360
24423,-0.2962,0.9004,0.1264,10.220,-3.850,-7.770,400,370,357,384,385,2025-05-27T11:40:15.544360
24424,-0.3143,0.8999,0.1220,10.010,-6.265,-8.960,417,414,381,405,402,2025-05-27T11:40:15.544360
24425,-0.3157,0.9082,0.1083,10.045,-9.065,-10.290,397,395,389,413,391,2025-05-27T11:40:15.544360
24426,-0.3040,0.9252,0.1049,9.870,-11.795,-11.305,400,399,383,415,396,2025-05-27T11:40:15.544360
24427,-0.2943,0.9374,0.1005,9.345,-12.670,-11.935,423,398,379,417,405,2025-05-27T11:40:15.544360
24428,-0.2884,0.9418,0.1069,8.925,-12.565,-12.775,399,414,387,401,347,2025-05-27T11:40:15.544360
24429,-0.2728,0.9482,0.1210,8.505,-11.795,-13.020,387,435,391,405,384,2025-05-27T11:40:15.544360
24430,-0.2811,0.9609,0.1249,7.735,-10.115,-13.160,297,424,398,397,390,2025-05-27T11:40:15.594140
24431,-0.2987,0.9775,0.1181,6.930,-8.610,-13.125,378,361,388,412,394,2025-05-27T11:40:15.757214
24432,-0.3070,0.9887,0.1166,5.425,-8.225,-12.915,395,413,373,391,386,2025-05-27T11:40:15.757214
24433,-0.3118,0.9994,0.1264,3.885,-7.455,-12.250,396,431,339,401,395,2025-05-27T11:40:15.757214
24434,-0.3070,1.0082,0.1498,1.855,-7.035,-11.375,389,412,291,386,366,2025-05-27T11:40:15.757214
24435,-0.2952,1.0170,0.1654,-0.455,-6.230,-10.255,417,410,333,410,353,2025-05-27T11:40:15.757214
24436,-0.2894,1.0292,0.1659,-3.150,-4.970,-9.100,400,402,319,393,373,2025-05-27T11:40:15.757214
24437,-0.3001,1.0385,0.1669,-5.495,-3.675,-7.770,416,419,360,411,382,2025-05-27T11:40:15.757214
24438,-0.2972,1.0497,0.1635,-8.435,-3.535,-6.195,412,419,370,412,386,2025-05-27T11:40:15.757214
24439,-0.3001,1.0468,0.1630,-10.570,-4.165,-4.515,416,406,372,379,396,2025-05-27T11:40:15.757214
24440,-0.2991,1.0385,0.1635,-12.180,-6.230,-2.240,424,354,389,392,406,2025-05-27T11:40:15.757214
24441,-0.3074,1.0277,0.1620,-12.950,-9.730,0.035,360,366,392,409,404,2025-05-27T11:40:15.757214
24442,-0.2987,1.0160,0.1586,-13.230,-14.140,2.660,365,338,396,404,358,2025-05-27T11:40:15.844139
24443,-0.2928,1.0048,0.1508,-13.370,-17.990,5.180,415,401,385,401,382,2025-05-27T11:40:15.844139
24444,-0.2821,0.9911,0.1386,-13.160,-20.090,7.175,386,397,388,401,396,2025-05-27T11:40:15.844139
24445,-0.2752,0.9716,0.1269,-12.880,-21.700,8.435,363,401,386,351,394,2025-05-27T11:40:15.844139
24446,-0.2669,0.9560,0.1186,-12.250,-22.715,9.485,343,397,382,406,395,2025-05-27T11:40:15.844139
24447,-0.2533,0.9433,0.1122,-11.270,-23.170,10.220,392,396,391,411,393,2025-05-27T11:40:15.844139
24448,-0.2420,0.9272,0.1005,-10.465,-22.715,10.395,386,427,389,410,398,2025-05-27T11:40:15.844139
24449,-0.2123,0.9130,0.1005,-9.975,-20.860,9.835,428,373,386,377,401,2025-05-27T11:40:15.844139
24450,-0.1908,0.9028,0.1044,-9.450,-17.570,8.960,421,418,398,406,412,2025-05-27T11:40:15.844139
24451,-0.1747,0.8945,0.1122,-9.345,-11.340,7.735,390,363,377,391,412,2025-05-27T11:40:15.844139
24452,-0.1630,0.8945,0.1113,-9.660,-3.115,6.895,392,400,385,410,368,2025-05-27T11:40:15.844139
24453,-0.1713,0.8926,0.1020,-9.940,6.265,5.495,418,424,377,396,340,2025-05-27T11:40:15.844139
24454,-0.1942,0.8852,0.0976,-10.290,15.050,3.955,414,397,375,408,374,2025-05-27T11:40:15.844139
24455,-0.2196,0.8755,0.1025,-10.430,21.770,2.450,400,393,367,408,398,2025-05-27T11:40:15.956368
24456,-0.2562,0.8628,0.1113,-10.395,25.550,1.085,391,403,363,351,392,2025-05-27T11:40:15.956368
24457,-0.2801,0.8608,0.1240,-10.220,28.210,-8.960,393,393,381,380,349,2025-05-27T11:40:15.956368
24458,-0.3162,0.8618,0.1327,-9.835,27.930,-1.015,414,401,345,396,346,2025-05-27T11:40:15.956368
24459,-0.3431,0.8599,0.1484,-9.135,25.235,-1.680,366,397,366,391,374,2025-05-27T11:40:15.956368
24460,-0.3587,0.8706,0.1562,-7.945,21.140,-2.065,342,382,365,391,396,2025-05-27T11:40:15.956368
24461,-0.3592,0.8755,0.1679,-7.035,17.115,-2.450,351,385,380,361,398,2025-05-27T11:40:15.956368
24462,-0.3436,0.8896,0.1859,-5.565,14.840,-2.485,385,402,390,395,406,2025-05-27T11:40:15.956368
24463,-0.3362,0.9072,0.1928,-4.410,13.790,-2.310,295,396,356,397,353,2025-05-27T11:40:16.177474
24464,-0.3318,0.9248,0.2006,-4.060,13.930,-2.135,361,391,374,397,390,2025-05-27T11:40:16.177474
24465,-0.3323,0.9379,0.2142,-3.990,13.685,-1.785,417,416,379,407,403,2025-05-27T11:40:16.177474
24466,-0.3357,0.9418,0.2284,-3.640,13.020,-1.470,390,398,376,414,356,2025-05-27T11:40:16.177474
24467,-0.3372,0.9477,0.2411,-3.080,11.480,-0.980,394,345,370,353,369,2025-05-27T11:40:16.177474
24468,-0.3406,0.9579,0.2455,-2.870,9.100,-0.210,336,404,335,387,387,2025-05-27T11:40:16.177474
24469,-0.3489,0.9633,0.2401,-3.115,6.685,0.735,393,421,367,390,400,2025-05-27T11:40:16.177474
24470,-0.3553,0.9687,0.2372,-3.640,3.150,1.470,390,439,369,402,356,2025-05-27T11:40:16.177474
24471,-0.3538,0.9687,0.2357,-3.955,-1.330,2.835,387,410,373,406,392,2025-05-27T11:40:16.177474
24472,-0.3494,0.9697,0.2357,-4.235,-5.600,4.270,424,401,363,407,344,2025-05-27T11:40:16.177474
24473,-0.3411,0.9638,0.2323,-4.340,-9.275,5.810,423,402,370,309,378,2025-05-27T11:40:16.177474
24474,-0.3387,0.9526,0.2235,-4.305,-11.830,7.245,429,413,371,372,405,2025-05-27T11:40:16.177474
24475,-0.3226,0.9511,0.2108,-3.990,-14.980,8.295,394,420,385,397,388,2025-05-27T11:40:16.177474
24476,-0.3030,0.9472,0.2050,-3.710,-17.220,9.310,419,426,382,404,394,2025-05-27T11:40:16.177474
24477,-0.2786,0.9374,0.1947,-3.500,-18.375,10.080,349,407,383,398,402,2025-05-27T11:40:16.177474
24478,-0.2601,0.9272,0.1859,-3.290,-17.710,10.360,405,396,379,393,412,2025-05-27T11:40:16.177474
24479,-0.2338,0.9282,0.1781,-2.905,-16.065,10.430,342,409,385,341,391,2025-05-27T11:40:16.177474
24480,-0.2167,0.9165,0.1747,-2.240,-12.320,9.940,400,411,374,385,397,2025-05-27T11:40:16.177474
24481,-0.2123,0.9062,0.1703,-1.505,-7.910,9.380,418,378,373,403,407,2025-05-27T11:40:16.177474
24482,-0.2133,0.9008,0.1688,-0.525,-3.920,8.365,429,416,339,409,401,2025-05-27T11:40:16.177474
24483,-0.2167,0.8940,0.1713,1.085,-0.315,6.965,435,429,356,414,358,2025-05-27T11:40:16.360835
24484,-0.2225,0.8833,0.1693,2.345,2.345,5.320,432,383,326,410,386,2025-05-27T11:40:16.360835
24485,-0.2377,0.8750,0.1674,4.095,3.500,3.815,396,408,347,385,344,2025-05-27T11:40:16.360835
24486,-0.2542,0.8706,0.1606,5.775,3.990,2.625,376,431,358,405,367,2025-05-27T11:40:16.360835
24487,-0.2713,0.8672,0.1527,7.490,3.360,1.015,408,421,375,397,372,2025-05-27T11:40:16.360835
24488,-0.2928,0.8657,0.1498,8.960,2.065,-0.770,414,413,373,410,401,2025-05-27T11:40:16.360835
24489,-0.3001,0.8662,0.1493,10.115,0.910,-2.660,413,336,382,396,365,2025-05-27T11:40:16.360835
24490,-0.3070,0.8696,0.1474,11.340,0.280,-4.480,408,382,358,409,381,2025-05-27T11:40:16.360835
24491,-0.3113,0.8740,0.1440,12.110,0.070,-5.810,414,417,368,410,408,2025-05-27T11:40:16.360835
24492,-0.3167,0.8740,0.1479,12.530,0.175,-7.455,401,405,383,405,387,2025-05-27T11:40:16.360835
24493,-0.3113,0.8901,0.1493,12.670,0.280,-8.925,405,405,367,410,391,2025-05-27T11:40:16.360835
24494,-0.3265,0.9008,0.1562,12.495,0.315,-9.975,419,425,370,404,347,2025-05-27T11:40:16.360835
24495,-0.3436,0.9145,0.1610,11.935,-0.245,-10.535,419,418,350,414,342,2025-05-27T11:40:16.360835
24496,-0.3489,0.9248,0.1674,11.165,-2.835,-10.710,419,425,324,394,369,2025-05-27T11:40:16.360835
24497,-0.3538,0.9379,0.1815,10.255,-6.335,-10.815,340,374,308,355,387,2025-05-27T11:40:16.360835
24498,-0.3499,0.9648,0.1923,8.960,-9.835,-10.815,391,388,338,361,345,2025-05-27T11:40:16.460510
24499,-0.3455,0.9823,0.1957,8.015,-12.460,-10.465,389,408,360,380,347,2025-05-27T11:40:16.460510
24500,-0.3353,0.9941,0.2015,6.755,-14.280,-9.695,416,432,329,397,373,2025-05-27T11:40:16.460510
24501,-0.3221,1.0009,0.2142,6.055,-15.750,-8.330,418,420,318,416,389,2025-05-27T11:40:16.460677
24502,-0.3206,0.9984,0.2162,5.390,-18.060,-7.000,417,417,353,421,401,2025-05-27T11:40:16.560767
24503,-0.3201,1.0014,0.2089,5.040,-21.210,-4.865,408,365,357,421,401,2025-05-27T11:40:16.560767
24504,-0.3196,0.9989,0.2054,4.725,-24.255,-2.555,333,395,365,411,351,2025-05-27T11:40:16.560767
24505,-0.3065,0.9926,0.2035,4.550,-26.390,-0.490,405,388,378,414,340,2025-05-27T11:40:16.560767
24506,-0.2865,0.9853,0.1976,4.585,-27.615,1.505,413,400,385,413,381,2025-05-27T11:40:16.560767
24507,-0.2747,0.9770,0.1820,4.550,-28.140,3.185,423,339,386,426,356,2025-05-27T11:40:16.560767
24508,-0.2660,0.9677,0.1742,4.305,-27.790,4.795,343,394,383,405,395,2025-05-27T11:40:16.560767
24509,-0.2499,0.9638,0.1669,3.920,-27.125,6.055,404,394,386,423,383,2025-05-27T11:40:16.560767
24510,-0.2406,0.9604,0.1532,3.815,-25.900,6.965,395,418,357,411,402,2025-05-27T11:40:16.560767
24511,-0.2303,0.9570,0.1425,4.130,-24.535,7.770,429,422,368,361,386,2025-05-27T11:40:16.560767
24512,-0.2176,0.9462,0.1381,4.935,-22.610,8.260,427,403,371,383,380,2025-05-27T11:40:16.560767
24513,-0.2128,0.9365,0.1366,5.705,-19.985,8.575,406,430,386,401,405,2025-05-27T11:40:16.560767
24514,-0.2050,0.9311,0.1337,6.370,-17.045,8.505,391,423,374,399,394,2025-05-27T11:40:16.760769
24515,-0.2035,0.9238,0.1318,6.580,-14.000,7.945,396,381,384,358,348,2025-05-27T11:40:16.760769
24516,-0.2186,0.9160,0.1288,6.370,-10.920,6.930,380,292,386,384,375,2025-05-27T11:40:16.760769
24517,-0.2181,0.9155,0.1308,6.405,-8.715,5.845,407,401,379,384,398,2025-05-27T11:40:16.760769
24518,-0.2206,0.9174,0.1269,6.685,-7.175,4.970,435,401,366,396,402,2025-05-27T11:40:16.760769
24519,-0.2245,0.9170,0.1244,7.140,-5.425,3.920,400,396,340,397,394,2025-05-27T11:40:16.760769
24520,-0.2372,0.9179,0.1220,7.315,-4.060,2.380,428,425,365,411,393,2025-05-27T11:40:16.760769
24521,-0.2460,0.9165,0.1279,7.105,-3.255,0.420,419,399,377,417,394,2025-05-27T11:40:16.760769
24522,-0.2469,0.9155,0.1396,6.895,-2.800,-1.225,418,417,369,407,390,2025-05-27T11:40:16.760769
24523,-0.2503,0.9199,0.1484,6.405,-2.170,-2.485,423,407,369,411,384,2025-05-27T11:40:16.760769
24524,-0.2494,0.9218,0.1474,5.565,-1.365,-3.780,422,422,389,418,351,2025-05-27T11:40:16.760769
24525,-0.2591,0.9248,0.1415,4.270,-0.350,-4.830,402,356,391,415,365,2025-05-27T11:40:16.760769
24526,-0.2694,0.9321,0.1410,3.465,0.665,-5.705,412,420,380,401,400,2025-05-27T11:40:16.760769
24527,-0.2791,0.9345,0.1469,2.590,0.840,-6.230,407,414,344,402,395,2025-05-27T11:40:16.760769
24528,-0.2957,0.9340,0.1542,2.170,0.035,-6.650,415,344,363,403,413,2025-05-27T11:40:16.760769
24529,-0.3055,0.9389,0.1591,2.065,-2.170,-6.685,416,394,384,390,417,2025-05-27T11:40:16.760769
24530,-0.3079,0.9418,0.1596,2.135,-4.830,-6.580,399,407,388,366,403,2025-05-27T11:40:16.760769
24531,-0.2962,0.9521,0.1576,2.135,-6.650,-6.335,415,419,379,389,407,2025-05-27T11:40:16.760769
24532,-0.2884,0.9594,0.1537,2.310,-7.560,-5.950,423,395,382,408,372,2025-05-27T11:40:16.893941
24533,-0.2772,0.9589,0.1562,2.415,-7.525,-5.145,426,397,381,401,385,2025-05-27T11:40:16.893941
24534,-0.2728,0.9648,0.1659,2.660,-7.700,-4.200,392,424,389,417,376,2025-05-27T11:40:16.893941
24535,-0.2718,0.9677,0.1669,2.835,-8.015,-3.220,408,348,380,358,400,2025-05-27T11:40:16.893941
24536,-0.2684,0.9692,0.1620,2.940,-8.295,-2.485,389,406,374,341,403,2025-05-27T11:40:16.893941
24537,-0.2630,0.9672,0.1625,3.010,-8.155,-1.925,395,423,384,334,367,2025-05-27T11:40:16.893941
24538,-0.2596,0.9662,0.1562,3.045,-7.525,-0.945,410,421,341,380,384,2025-05-27T11:40:16.893941
24539,-0.2606,0.9648,0.1488,3.010,-6.650,-0.210,410,346,362,342,347,2025-05-27T11:40:16.893941
24540,-0.2635,0.9609,0.1459,3.115,-6.195,0.455,414,402,384,395,383,2025-05-27T11:40:16.893941
24541,-0.2601,0.9570,0.1410,3.255,-6.335,1.050,397,420,382,414,407,2025-05-27T11:40:16.893941
24542,-0.2557,0.9540,0.1401,3.500,-5.985,1.330,399,421,370,405,404,2025-05-27T11:40:16.893941
24543,-0.2572,0.9477,0.1444,3.465,-4.655,1.610,352,416,336,347,395,2025-05-27T11:40:16.944180
24544,-0.2596,0.9457,0.1401,3.115,-3.185,1.855,371,404,350,379,404,2025-05-27T11:40:16.944180
24545,-0.2674,0.9443,0.1366,2.660,-1.890,2.030,337,426,372,386,354,2025-05-27T11:40:16.944180
24546,-0.2747,0.9414,0.1371,1.960,-1.610,2.310,413,402,382,393,383,2025-05-27T11:40:16.944180
24547,-0.2796,0.9374,0.1347,1.330,-2.065,2.380,407,419,394,399,398,2025-05-27T11:40:16.993863
24548,-0.2865,0.9404,0.1386,0.735,-2.660,2.415,398,380,396,413,405,2025-05-27T11:40:16.993863
24549,-0.2860,0.9462,0.1366,0.490,-3.500,2.450,399,338,383,391,410,2025-05-27T11:40:16.993863
24550,-0.2850,0.9477,0.1332,0.700,-4.515,2.415,348,385,384,413,405,2025-05-27T11:40:16.993863
24551,-0.2777,0.9531,0.1357,1.155,-5.180,2.450,409,407,392,360,393,2025-05-27T11:40:17.092822
24552,-0.2611,0.9531,0.1449,1.120,-5.285,2.345,424,431,371,385,398,2025-05-27T11:40:17.092822
24553,-0.2582,0.9511,0.1464,0.560,-4.515,2.135,428,403,372,406,418,2025-05-27T11:40:17.092822
24554,-0.2718,0.9482,0.1484,-0.210,-3.395,2.170,429,420,350,392,396,2025-05-27T11:40:17.092822
24555,-0.2850,0.9540,0.1464,-0.630,-3.220,2.730,385,342,371,398,404,2025-05-27T11:40:17.092822
24556,-0.2889,0.9536,0.1479,-1.050,-3.990,3.290,425,384,378,413,407,2025-05-27T11:40:17.092822
24557,-0.2826,0.9565,0.1449,-0.910,-5.915,3.675,417,413,370,398,366,2025-05-27T11:40:17.092822
24558,-0.2630,0.9618,0.1440,-0.735,-7.245,3.850,409,415,387,387,385,2025-05-27T11:40:17.177566
24559,-0.2396,0.9594,0.1488,-1.295,-6.895,3.885,411,425,376,348,360,2025-05-27T11:40:17.177566
24560,-0.2303,0.9521,0.1498,-2.065,-5.215,4.235,413,407,381,384,397,2025-05-27T11:40:17.177566
24561,-0.2323,0.9677,0.1557,-2.975,-4.060,4.620,424,425,375,345,408,2025-05-27T11:40:17.177566
24562,-0.2450,0.9716,0.1449,-3.850,-2.765,4.795,427,399,377,377,395,2025-05-27T11:40:17.177566
24563,-0.2386,0.9799,0.1386,-4.480,-2.205,4.970,423,419,375,377,403,2025-05-27T11:40:17.177566
24564,-0.2250,0.9833,0.1371,-5.005,-1.050,5.285,427,412,382,393,350,2025-05-27T11:40:17.177566
24565,-0.2054,0.9853,0.1401,-5.810,0.910,5.040,389,412,390,345,388,2025-05-27T11:40:17.177566
24566,-0.2040,0.9926,0.1283,-7.000,4.690,4.690,353,423,348,343,384,2025-05-27T11:40:17.294298
24567,-0.2216,0.9853,0.1259,-8.330,9.380,3.885,339,417,356,347,403,2025-05-27T11:40:17.294298
24568,-0.2176,0.9872,0.1318,-10.255,14.245,3.605,413,424,376,403,388,2025-05-27T11:40:17.294298
24569,-0.2133,0.9819,0.1479,-12.250,18.725,4.550,389,407,368,386,400,2025-05-27T11:40:17.294298
24570,-0.2284,0.9838,0.1469,-13.195,21.805,6.125,396,363,378,369,400,2025-05-27T11:40:17.294298
24571,-0.2547,0.9838,0.1303,-13.440,22.820,7.280,422,420,356,381,405,2025-05-27T11:40:17.294298
24572,-0.2743,0.9823,0.1249,-14.035,22.155,8.365,401,411,367,374,413,2025-05-27T11:40:17.294298
24573,-0.2830,0.9765,0.1391,-14.805,19.880,10.010,411,411,370,415,415,2025-05-27T11:40:17.294298
24574,-0.3050,0.9643,0.1391,-15.085,15.855,12.530,400,407,335,405,410,2025-05-27T11:40:17.294298
24575,-0.3387,0.9584,0.1303,-14.630,10.570,14.770,419,431,357,409,411,2025-05-27T11:40:17.361082
24576,-0.3450,0.9516,0.1332,-14.280,3.920,16.695,405,407,374,373,406,2025-05-27T11:40:17.361082
24577,-0.3343,0.9428,0.1581,-14.035,-1.120,18.655,394,358,389,397,411,2025-05-27T11:40:17.361082
24578,-0.2908,0.9340,0.1840,-13.440,-4.970,20.650,391,411,387,340,396,2025-05-27T11:40:17.361082
24579,-0.2577,0.9355,0.2020,-12.670,-4.270,22.120,416,387,379,370,400,2025-05-27T11:40:17.361082
24580,-0.2381,0.9248,0.2137,-11.900,-0.910,23.310,347,394,379,338,388,2025-05-27T11:40:17.361082
24581,-0.2333,0.9160,0.2235,-11.095,1.505,24.710,387,417,369,397,384,2025-05-27T11:40:17.542968
24582,-0.2308,0.8955,0.2303,-10.045,1.400,26.075,401,426,387,391,405,2025-05-27T11:40:17.542968
24583,-0.2152,0.8857,0.2333,-8.750,0.280,27.265,337,355,341,338,393,2025-05-27T11:40:17.542968
24584,-0.2074,0.8833,0.2323,-7.630,-0.560,27.230,322,391,323,391,390,2025-05-27T11:40:17.542968
24585,-0.2040,0.8799,0.2220,-5.705,-1.260,25.515,351,386,365,384,344,2025-05-27T11:40:17.542968
24586,-0.2035,0.8745,0.2196,-3.255,-2.380,22.785,387,386,368,350,377,2025-05-27T11:40:17.542968
24587,-0.1728,0.8667,0.2225,-1.050,-2.170,18.410,384,413,378,404,358,2025-05-27T11:40:17.542968
24588,-0.1444,0.8564,0.2342,1.890,-0.210,13.510,407,404,374,397,385,2025-05-27T11:40:17.542968
24589,-0.1186,0.8477,0.2513,4.235,3.640,8.540,415,402,387,412,384,2025-05-27T11:40:17.542968
24590,-0.0874,0.8311,0.2606,8.435,7.140,3.395,369,391,389,414,407,2025-05-27T11:40:17.542968
24591,-0.0917,0.8291,0.2445,13.405,13.475,-0.735,332,418,377,420,356,2025-05-27T11:40:17.542968
24592,-0.0903,0.8276,0.2313,18.480,19.775,-7.385,377,404,380,358,345,2025-05-27T11:40:17.743818
24593,-0.1161,0.8213,0.2079,23.450,25.340,-11.690,411,397,374,397,386,2025-05-27T11:40:17.743818
24594,-0.1557,0.8145,0.1913,28.805,26.950,-17.150,376,298,381,400,390,2025-05-27T11:40:17.743818
24595,-0.1757,0.8169,0.1757,33.705,26.810,-21.840,387,389,371,346,355,2025-05-27T11:40:17.743818
24596,-0.2084,0.8403,0.1552,37.520,24.815,-26.425,340,376,383,385,393,2025-05-27T11:40:17.743818
24597,-0.2342,0.8667,0.1337,39.760,21.560,-30.310,394,381,388,362,363,2025-05-27T11:40:17.743818
24598,-0.2625,0.8867,0.1044,41.580,17.360,-33.215,411,421,374,376,343,2025-05-27T11:40:17.743818
24599,-0.2777,0.8969,0.0752,42.490,12.285,-35.210,419,411,370,410,375,2025-05-27T11:40:17.743818
24600,-0.3250,0.8926,0.0459,42.105,7.105,-37.310,403,403,369,410,390,2025-05-27T11:40:17.743818
24601,-0.3704,0.8935,0.0312,40.915,0.385,-38.220,407,418,347,346,395,2025-05-27T11:40:17.743818
24602,-0.4104,0.9111,0.0229,38.570,-6.265,-37.310,388,399,356,377,383,2025-05-27T11:40:17.743818
24603,-0.4290,0.9521,0.0239,36.505,-12.460,-35.525,391,424,343,377,381,2025-05-27T11:40:17.743818
24604,-0.4402,1.0067,0.0054,33.250,-16.135,-31.815,411,401,369,399,386,2025-05-27T11:40:17.743818
24605,-0.4319,1.0350,-0.0059,29.155,-19.845,-26.600,415,421,379,417,401,2025-05-27T11:40:17.743818
24606,-0.4241,1.0536,-0.0142,24.780,-21.840,-21.630,419,399,386,427,392,2025-05-27T11:40:17.743818
24607,-0.4143,1.0707,-0.0039,20.160,-22.750,-15.190,413,394,391,415,398,2025-05-27T11:40:17.743818
24608,-0.3967,1.1000,0.0010,15.225,-22.540,-8.785,416,399,374,358,407,2025-05-27T11:40:17.743818
24609,-0.3943,1.1156,0.0039,11.130,-21.525,-3.080,399,410,384,395,394,2025-05-27T11:40:17.743818
24610,-0.3694,1.1292,0.0088,6.580,-20.895,2.555,400,372,381,397,406,2025-05-27T11:40:17.743818
24611,-0.3533,1.1297,0.0239,1.995,-19.845,6.685,400,398,342,406,409,2025-05-27T11:40:17.743818
24612,-0.3309,1.1190,0.0464,-2.695,-18.655,10.955,427,393,368,354,354,2025-05-27T11:40:17.910831
24613,-0.3055,1.1009,0.0673,-7.210,-18.305,14.245,412,401,371,327,367,2025-05-27T11:40:17.910831
24614,-0.2850,1.0765,0.0800,-10.990,-18.515,16.695,394,426,304,327,378,2025-05-27T11:40:17.910831
24615,-0.2664,1.0477,0.0913,-13.265,-19.635,18.165,419,345,347,389,395,2025-05-27T11:40:17.910831
24616,-0.2411,1.0194,0.0922,-15.155,-22.225,18.620,401,332,367,398,396,2025-05-27T11:40:17.910831
24617,-0.2206,0.9911,0.0922,-16.030,-24.395,18.025,420,416,349,409,403,2025-05-27T11:40:17.910831
24618,-0.2045,0.9667,0.0942,-16.310,-26.635,16.695,405,404,325,422,400,2025-05-27T11:40:17.910831
24619,-0.1854,0.9379,0.0932,-15.855,-28.350,14.630,361,417,363,419,384,2025-05-27T11:40:17.910831
24620,-0.1679,0.9194,0.0893,-14.875,-29.085,11.725,393,403,369,418,356,2025-05-27T11:40:17.910831
24621,-0.1464,0.8960,0.0874,-13.510,-28.770,8.610,417,397,383,410,379,2025-05-27T11:40:17.910831
24622,-0.1274,0.8789,0.0927,-12.110,-27.020,5.495,398,423,383,398,403,2025-05-27T11:40:17.910831
24623,-0.1274,0.8613,0.0874,-10.115,-23.835,2.170,418,403,382,389,406,2025-05-27T11:40:17.910831
24624,-0.1444,0.8477,0.0766,-7.805,-21.140,-1.820,408,364,384,347,401,2025-05-27T11:40:17.910831
24625,-0.1596,0.8423,0.0649,-5.075,-18.200,-4.865,419,406,385,396,392,2025-05-27T11:40:17.910831
24626,-0.1820,0.8496,0.0625,-2.030,-15.715,-7.980,416,430,363,379,402,2025-05-27T11:40:18.004617
24627,-0.2015,0.8550,0.0547,0.980,-13.160,-10.325,419,395,372,345,399,2025-05-27T11:40:18.004617
24628,-0.2264,0.8642,0.0571,3.745,-10.290,-12.110,420,353,369,372,361,2025-05-27T11:40:18.004617
24629,-0.2435,0.8784,0.0547,5.915,-7.175,-13.265,414,403,381,401,377,2025-05-27T11:40:18.004617
24630,-0.2655,0.9013,0.0527,7.805,-3.920,-13.580,343,403,385,414,386,2025-05-27T11:40:18.004617
24631,-0.2757,0.9233,0.0576,8.995,-1.365,-13.125,413,429,377,412,396,2025-05-27T11:40:18.004617
24632,-0.2806,0.9448,0.0669,9.240,2.100,-12.425,373,417,386,402,359,2025-05-27T11:40:18.004617
24633,-0.2806,0.9643,0.0756,8.190,5.845,-10.885,404,425,380,393,375,2025-05-27T11:40:18.004617
24634,-0.2767,0.9902,0.0834,6.300,10.010,-9.030,419,405,372,412,387,2025-05-27T11:40:18.257848
24635,-0.2816,1.0004,0.0952,4.270,13.825,-7.245,406,361,368,392,404,2025-05-27T11:40:18.257848
24636,-0.2948,1.0121,0.1118,1.225,15.295,-5.565,399,417,359,402,411,2025-05-27T11:40:18.257848
24637,-0.3074,1.0160,0.1308,-1.785,14.700,-4.235,421,421,361,413,408,2025-05-27T11:40:18.257848
24638,-0.3216,1.0121,0.1469,-4.375,11.165,-2.590,387,426,337,396,315,2025-05-27T11:40:18.258869
24639,-0.3309,1.0126,0.1581,-5.845,4.900,-0.840,419,425,347,378,323,2025-05-27T11:40:18.258869
24640,-0.3411,1.0038,0.1669,-6.615,-3.255,0.980,412,425,367,398,383,2025-05-27T11:40:18.258869
24641,-0.3362,0.9945,0.1620,-6.545,-10.010,2.835,418,354,381,411,394,2025-05-27T11:40:18.258869
24642,-0.3304,0.9794,0.1527,-6.020,-17.955,4.095,416,367,389,400,385,2025-05-27T11:40:18.258869
24643,-0.3167,0.9736,0.1449,-4.690,-24.850,5.285,415,402,385,393,385,2025-05-27T11:40:18.258869
24644,-0.2982,0.9692,0.1391,-3.115,-29.785,6.475,404,418,349,410,399,2025-05-27T11:40:18.258869
24645,-0.2733,0.9633,0.1308,-1.925,-31.920,7.490,416,414,327,396,403,2025-05-27T11:40:18.258869
24646,-0.2533,0.9618,0.1186,-0.315,-31.430,8.225,393,406,360,407,411,2025-05-27T11:40:18.258869
24647,-0.2328,0.9550,0.1166,0.980,-29.085,8.855,333,420,383,411,396,2025-05-27T11:40:18.258869
24648,-0.2191,0.9496,0.1098,1.960,-23.870,9.170,408,435,374,417,408,2025-05-27T11:40:18.258869
24649,-0.2011,0.9531,0.1054,2.450,-17.255,9.555,391,397,365,399,388,2025-05-27T11:40:18.258869
24650,-0.1923,0.9570,0.1044,2.625,-9.835,9.975,427,401,370,349,379,2025-05-27T11:40:18.258869
24651,-0.1913,0.9516,0.1030,2.170,-2.590,10.500,398,408,337,374,395,2025-05-27T11:40:18.258869
24652,-0.2001,0.9482,0.1035,1.470,1.995,11.025,338,428,331,392,404,2025-05-27T11:40:18.258869
24653,-0.2103,0.9472,0.1025,0.875,5.600,11.550,388,368,319,401,392,2025-05-27T11:40:18.259168
24654,-0.2181,0.9438,0.0966,0.245,7.735,11.900,398,392,343,412,344,2025-05-27T11:40:18.360627
24655,-0.2264,0.9399,0.0913,-0.385,8.855,11.725,417,399,323,400,370,2025-05-27T11:40:18.360627
24656,-0.2264,0.9394,0.0839,-0.700,9.310,10.955,396,420,328,398,399,2025-05-27T11:40:18.360627
24657,-0.2230,0.9340,0.0805,-0.980,9.730,9.625,386,404,311,385,408,2025-05-27T11:40:18.360627
24658,-0.2225,0.9301,0.0805,-1.330,10.640,8.050,376,396,348,405,397,2025-05-27T11:40:18.360627
24659,-0.2206,0.9233,0.0786,-1.750,11.375,5.460,407,395,359,410,400,2025-05-27T11:40:18.360627
24660,-0.2181,0.9179,0.0786,-1.995,11.795,2.835,419,422,371,414,397,2025-05-27T11:40:18.439396
24661,-0.2211,0.9111,0.0795,-2.205,11.900,0.070,394,419,372,349,401,2025-05-27T11:40:18.439396
24662,-0.2255,0.9189,0.0869,-2.345,11.830,-2.835,393,400,333,390,412,2025-05-27T11:40:18.439396
24663,-0.2259,0.9218,0.0937,-2.800,11.375,-5.740,417,411,352,393,387,2025-05-27T11:40:18.439396
24664,-0.2352,0.9262,0.0986,-3.395,10.920,-7.700,415,417,358,399,339,2025-05-27T11:40:18.439396
24665,-0.2411,0.9355,0.0996,-3.920,9.415,-9.625,425,435,370,399,374,2025-05-27T11:40:18.439396
24666,-0.2460,0.9345,0.1030,-4.305,7.770,-10.745,403,413,376,356,391,2025-05-27T11:40:18.439396
24667,-0.2567,0.9370,0.1108,-4.970,6.055,-11.200,390,381,370,338,370,2025-05-27T11:40:18.439396
24668,-0.2664,0.9477,0.1220,-5.705,4.410,-11.410,403,400,340,370,364,2025-05-27T11:40:18.439396
24669,-0.2957,0.9492,0.1288,-6.335,2.030,-11.410,398,412,326,337,393,2025-05-27T11:40:18.439396
24670,-0.3201,0.9482,0.1322,-6.650,-1.575,-11.515,417,406,359,399,390,2025-05-27T11:40:18.618656
24671,-0.3396,0.9526,0.1342,-6.125,-6.405,-11.060,407,417,357,396,415,2025-05-27T11:40:18.618656
24672,-0.3548,0.9506,0.1381,-5.180,-11.935,-10.220,391,403,376,360,405,2025-05-27T11:40:18.618656
24673,-0.3636,0.9492,0.1381,-4.305,-17.780,-9.100,332,374,387,391,403,2025-05-27T11:40:18.618656
24674,-0.3572,0.9526,0.1415,-3.150,-21.910,-7.770,400,390,379,414,414,2025-05-27T11:40:18.618656
24675,-0.3465,0.9550,0.1430,-1.960,-25.445,-6.510,423,346,388,360,357,2025-05-27T11:40:18.618656
24676,-0.3192,0.9579,0.1430,-1.155,-26.810,-4.865,407,403,390,399,380,2025-05-27T11:40:18.618656
24677,-0.3006,0.9633,0.1401,-0.665,-25.970,-3.430,383,409,374,391,379,2025-05-27T11:40:18.618656
24678,-0.2786,0.9633,0.1430,-0.665,-23.275,-2.100,411,400,387,391,405,2025-05-27T11:40:18.618656
24679,-0.2572,0.9658,0.1430,-0.875,-20.265,-0.525,408,418,392,414,394,2025-05-27T11:40:18.618656
24680,-0.2420,0.9667,0.1464,-1.400,-15.820,0.630,409,426,395,410,404,2025-05-27T11:40:18.618656
24681,-0.2318,0.9643,0.1410,-1.890,-10.780,2.030,388,363,384,395,352,2025-05-27T11:40:18.618656
24682,-0.2220,0.9633,0.1366,-2.240,-6.090,3.150,416,414,390,388,335,2025-05-27T11:40:18.618656
24683,-0.2220,0.9589,0.1357,-2.380,-2.345,3.850,423,398,398,396,382,2025-05-27T11:40:18.618656
24684,-0.2362,0.9462,0.1318,-2.380,0.035,4.130,427,404,390,398,359,2025-05-27T11:40:18.618656
24685,-0.2416,0.9423,0.1274,-1.855,0.665,3.815,392,391,383,389,382,2025-05-27T11:40:18.618656
24686,-0.2455,0.9374,0.1191,-1.260,0.840,3.465,407,397,378,418,406,2025-05-27T11:40:18.710724
24687,-0.2503,0.9282,0.1176,-0.525,0.665,2.660,433,389,385,420,405,2025-05-27T11:40:18.710724
24688,-0.2460,0.9243,0.1132,0.140,0.420,1.750,415,410,374,375,394,2025-05-27T11:40:18.710724
24689,-0.2377,0.9199,0.1113,0.455,0.735,0.700,425,425,389,395,401,2025-05-27T11:40:18.710724
24690,-0.2338,0.9184,0.1049,0.665,1.540,-0.210,399,430,392,409,392,2025-05-27T11:40:18.710724
24691,-0.2279,0.9204,0.1035,0.770,2.695,-1.050,402,415,378,411,400,2025-05-27T11:40:18.710724
24692,-0.2250,0.9204,0.1049,0.700,4.165,-2.170,401,418,384,362,404,2025-05-27T11:40:18.710724
24693,-0.2323,0.9248,0.1176,0.280,5.530,-3.605,421,399,342,408,374,2025-05-27T11:40:18.710724
24694,-0.2401,0.9287,0.1332,-0.700,5.915,-5.425,405,414,372,398,388,2025-05-27T11:40:18.827269
24695,-0.2625,0.9257,0.1279,-1.610,5.250,-7.385,419,406,388,396,398,2025-05-27T11:40:18.827269
24696,-0.2723,0.9204,0.1274,-1.820,3.255,-8.890,397,414,397,404,352,2025-05-27T11:40:18.827269
24697,-0.2738,0.9287,0.1240,-1.645,-0.595,-10.220,414,413,383,379,370,2025-05-27T11:40:18.827269
24698,-0.2786,0.9335,0.0996,-1.295,-3.465,-10.255,371,408,388,409,375,2025-05-27T11:40:18.827269
24699,-0.2908,0.9355,0.0996,-1.015,-5.740,-10.290,378,427,376,415,403,2025-05-27T11:40:18.827269
24700,-0.2845,0.9404,0.1132,-0.595,-7.000,-10.045,402,421,379,403,390,2025-05-27T11:40:18.827269
24701,-0.2889,0.9487,0.1322,-0.455,-8.505,-10.045,424,410,383,344,400,2025-05-27T11:40:18.827269
24702,-0.2889,0.9467,0.1303,-0.175,-10.045,-9.695,365,409,375,393,397,2025-05-27T11:40:18.827269
24703,-0.3001,0.9579,0.1362,0.455,-11.900,-9.310,393,410,384,306,392,2025-05-27T11:40:18.925699
24704,-0.3138,0.9643,0.1220,0.455,-11.620,-9.835,412,399,385,377,412,2025-05-27T11:40:18.925699
24705,-0.3377,0.9667,0.1205,0.280,-10.605,-11.655,384,425,391,407,400,2025-05-27T11:40:18.925699
24706,-0.3333,0.9614,0.1030,-0.105,-10.500,-12.390,367,424,380,356,388,2025-05-27T11:40:18.925699
24707,-0.3382,0.9501,0.0976,0.070,-11.795,-11.375,411,402,395,383,396,2025-05-27T11:40:18.925699
24708,-0.3201,0.9677,0.1059,0.665,-14.280,-9.065,348,296,363,403,407,2025-05-27T11:40:18.925699
24709,-0.3045,0.9662,0.1142,1.225,-16.345,-6.650,376,367,369,405,411,2025-05-27T11:40:18.925699
24710,-0.2733,0.9477,0.1166,1.260,-14.455,-4.480,407,403,374,421,395,2025-05-27T11:40:18.925699
24711,-0.2513,0.9414,0.1132,0.700,-10.360,-2.975,398,419,381,397,396,2025-05-27T11:40:18.993618
24712,-0.2494,0.9438,0.1186,0.070,-4.165,-1.750,352,427,388,365,398,2025-05-27T11:40:18.993618
24713,-0.2538,0.9331,0.1069,-0.805,0.560,-1.015,416,413,387,394,355,2025-05-27T11:40:18.993618
24714,-0.2830,0.9252,0.1074,-0.875,3.150,-1.680,422,409,374,346,348,2025-05-27T11:40:18.993618
24715,-0.3167,0.8926,0.0878,0.000,1.890,-3.955,411,405,362,376,393,2025-05-27T11:40:18.993618
24716,-0.3299,0.8428,0.0639,2.030,-2.870,-6.755,415,421,378,401,385,2025-05-27T11:40:19.227034
24717,-0.3030,0.8272,0.1069,3.815,-9.835,-7.595,400,365,369,408,368,2025-05-27T11:40:19.227034
24718,-0.2582,0.8037,0.1244,3.535,-14.560,-7.070,340,425,370,417,396,2025-05-27T11:40:19.227034
24719,-0.2557,0.7730,0.1269,1.610,-15.785,-7.980,361,421,376,377,346,2025-05-27T11:40:19.227034
24720,-0.2479,0.7340,0.1098,-0.875,-15.925,-9.765,414,427,372,398,390,2025-05-27T11:40:19.227034
24721,-0.2586,0.6949,0.0864,-2.135,-19.145,-12.005,420,412,342,421,384,2025-05-27T11:40:19.227034
24722,-0.2723,0.6656,0.0908,-0.525,-26.635,-14.665,357,417,357,405,396,2025-05-27T11:40:19.227034
24723,-0.2674,0.6271,0.0908,-0.560,-35.525,-19.355,345,418,365,408,398,2025-05-27T11:40:19.227034
24724,-0.2972,0.6207,0.0571,-1.715,-43.610,-24.395,388,422,379,417,392,2025-05-27T11:40:19.227034
24725,-0.2943,0.5993,0.0766,-1.925,-52.080,-30.695,389,437,369,410,392,2025-05-27T11:40:19.227034
24726,-0.2952,0.5749,0.0810,-1.575,-57.365,-35.525,416,430,384,404,408,2025-05-27T11:40:19.227034
24727,-0.2664,0.6305,0.1093,0.420,-65.835,-42.000,382,437,386,421,389,2025-05-27T11:40:19.227034
24728,-0.3148,0.6242,0.1030,-3.185,-68.985,-48.510,414,391,342,401,388,2025-05-27T11:40:19.227034
24729,-0.3138,0.6744,0.0693,-4.340,-75.810,-56.735,376,414,357,393,401,2025-05-27T11:40:19.227034
24730,-0.3109,0.7769,0.0717,-6.545,-79.765,-64.785,404,427,362,380,396,2025-05-27T11:40:19.227034
24731,-0.2782,0.8764,0.1152,-10.990,-76.615,-75.180,397,421,362,384,406,2025-05-27T11:40:19.426810
24732,-0.2406,1.0053,0.1415,-22.575,-75.670,-86.765,409,391,375,403,406,2025-05-27T11:40:19.426810
24733,-0.2557,1.1888,0.1991,-38.920,-79.380,-99.610,410,408,376,399,392,2025-05-27T11:40:19.426810
24734,-0.3406,1.5260,0.2640,-56.560,-91.630,-114.555,411,391,372,392,403,2025-05-27T11:40:19.426810
24735,-0.3201,1.9061,0.2879,-75.495,-112.735,-133.980,411,423,364,348,346,2025-05-27T11:40:19.426810
24736,-0.2747,2.5083,0.3333,-100.555,-133.245,-147.840,416,380,379,327,365,2025-05-27T11:40:19.426810
24737,-0.1767,3.0080,0.4089,-135.730,-148.190,-145.775,402,387,372,390,409,2025-05-27T11:40:19.426810
24738,-0.1484,3.2535,0.4680,-165.760,-161.630,-122.920,405,401,385,346,402,2025-05-27T11:40:19.426810
24739,-0.1635,3.3940,0.4885,-191.030,-189.385,-83.650,400,377,369,372,414,2025-05-27T11:40:19.426810
24740,-0.1928,3.6136,0.5402,-208.740,-218.505,-40.495,380,415,364,361,397,2025-05-27T11:40:19.426810
24741,-0.2240,4.0294,0.2533,-225.995,-262.395,9.660,409,395,366,406,414,2025-05-27T11:40:19.426810
24742,-0.3440,4.2422,0.0595,-244.475,-297.570,68.075,402,423,379,350,410,2025-05-27T11:40:19.533393
24743,-0.2547,4.1592,-0.0439,-252.140,-346.290,115.570,423,389,380,324,419,2025-05-27T11:40:19.533393
24744,-0.1976,4.1275,-0.4348,-246.925,-393.295,147.315,409,391,371,361,408,2025-05-27T11:40:19.533393
24745,0.0024,3.7683,-0.9145,-218.155,-403.760,174.650,400,422,380,401,415,2025-05-27T11:40:19.533393
24746,-0.1493,4.2895,-1.1082,-198.975,-372.960,162.785,426,419,382,414,412,2025-05-27T11:40:19.533393
24747,-0.0976,3.2862,-0.9272,-190.750,-353.045,135.485,383,408,346,413,385,2025-05-27T11:40:19.533393
24748,-0.1318,3.0105,-0.7237,-188.580,-353.395,90.195,417,411,359,389,388,2025-05-27T11:40:19.533393
24749,0.0093,2.3717,-0.7252,-191.310,-352.240,11.620,426,404,382,391,401,2025-05-27T11:40:19.533393
24750,0.1147,1.5694,-0.5783,-225.855,-314.300,-120.540,417,339,372,405,398,2025-05-27T11:40:19.533393
24751,0.4841,0.3084,-0.4407,-305.375,-280.210,-247.730,413,406,371,409,396,2025-05-27T11:40:19.533393
24752,0.2918,-1.7090,-0.6085,-398.195,-242.865,-353.955,356,395,376,406,411,2025-05-27T11:40:19.533393
24753,0.1850,-4.6736,-0.4978,-497.490,-256.305,-403.340,407,400,345,416,416,2025-05-27T11:40:19.533393
24754,0.3865,-8.1267,0.4646,-562.275,-284.690,-447.825,418,414,371,396,413,2025-05-27T11:40:19.533393
24755,0.4499,-9.8971,0.2752,-595.035,-331.800,-433.930,418,414,346,402,418,2025-05-27T11:40:19.533393
24756,0.8433,-8.9236,-1.0585,-546.560,-316.295,-484.995,422,310,374,424,403,2025-05-27T11:40:19.533393
24757,2.7430,-4.1958,-1.4533,89.635,-181.615,-420.245,417,321,377,424,401,2025-05-27T11:40:19.533393
24758,1.5050,-0.6793,0.2020,284.725,151.935,-96.600,425,378,383,408,416,2025-05-27T11:40:19.533393
24759,2.0789,-0.2347,-0.7906,220.710,280.280,214.725,377,419,394,399,393,2025-05-27T11:40:19.533393
24760,1.9842,-0.9701,-0.2884,163.310,526.680,375.725,400,414,394,398,399,2025-05-27T11:40:19.533393
24761,1.5860,-1.8500,0.1937,132.510,662.830,414.925,340,427,394,352,388,2025-05-27T11:40:19.627844
24762,0.3943,-2.1438,0.4392,172.865,672.875,368.235,348,430,350,403,387,2025-05-27T11:40:19.627844
24763,-0.1303,-1.8978,1.0731,204.225,540.365,329.035,376,407,369,395,401,2025-05-27T11:40:19.627844
24764,-0.2396,-1.4864,1.2268,221.305,375.655,326.025,382,414,347,384,407,2025-05-27T11:40:19.627844
24765,-0.5412,-1.3854,1.1712,225.050,251.265,312.655,330,379,366,411,406,2025-05-27T11:40:19.627844
24766,-0.4290,-1.2625,1.0653,237.195,186.690,287.665,382,409,364,404,416,2025-05-27T11:40:19.627844
24767,-0.0102,-0.8364,0.8369,246.960,180.320,274.435,416,397,366,416,410,2025-05-27T11:40:19.627844
24768,0.1225,-0.3699,0.7125,242.270,234.045,250.705,395,421,386,426,416,2025-05-27T11:40:19.627844
24769,0.1244,-0.0034,0.5324,223.160,303.415,224.280,415,343,382,418,416,2025-05-27T11:40:19.627844
24770,-0.0678,0.2123,0.4734,203.350,342.895,195.965,415,408,376,373,410,2025-05-27T11:40:19.727112
24771,-0.2059,0.3235,0.3645,195.055,365.960,171.920,357,418,356,345,403,2025-05-27T11:40:19.727112
24772,-0.3089,0.3655,0.2045,188.580,359.730,160.090,405,432,336,392,393,2025-05-27T11:40:19.727112
24773,-0.3665,0.4616,0.1508,181.195,335.020,153.020,390,425,358,390,409,2025-05-27T11:40:19.727112
24774,-0.3606,0.5412,0.0571,176.085,296.065,150.955,393,428,360,370,354,2025-05-27T11:40:19.727112
24775,-0.3548,0.5446,0.0488,177.835,248.500,150.220,422,409,365,392,372,2025-05-27T11:40:19.727112
24776,-0.2186,0.6690,-0.0156,185.850,202.300,144.165,363,391,367,390,396,2025-05-27T11:40:19.727112
24777,-0.0620,0.7344,-0.1440,193.830,167.370,126.700,389,390,342,387,402,2025-05-27T11:40:19.727112
24778,0.2123,0.9262,-0.4128,208.215,155.365,105.560,410,404,360,361,348,2025-05-27T11:40:19.727112
24779,0.4182,1.1556,-0.6788,218.400,166.810,84.805,426,424,336,375,371,2025-05-27T11:40:19.874978
24780,0.3904,1.4645,-0.8730,217.175,192.395,62.020,418,421,361,400,398,2025-05-27T11:40:19.874978
24781,0.3143,1.6968,-0.7871,201.110,218.505,47.110,415,416,333,389,404,2025-05-27T11:40:19.874978
24782,0.1981,2.1013,-0.7271,167.265,213.465,40.740,427,347,349,395,402,2025-05-27T11:40:19.874978
24783,0.1000,2.0037,-0.3943,147.140,195.965,31.010,417,410,380,393,351,2025-05-27T11:40:19.874978
24784,0.1044,2.3136,-0.3265,120.505,155.645,27.965,432,402,389,399,373,2025-05-27T11:40:19.874978
24785,0.1376,2.5195,-0.2630,98.315,111.615,27.265,409,398,360,402,395,2025-05-27T11:40:19.874978
24786,0.2650,2.7577,-0.1420,78.855,76.195,28.490,413,420,376,349,407,2025-05-27T11:40:19.874978
24787,0.3255,2.9949,0.1000,42.140,56.245,28.770,390,304,378,386,418,2025-05-27T11:40:19.874978
24788,0.3382,3.1227,0.3899,-3.710,39.830,29.960,387,406,394,399,400,2025-05-27T11:40:19.874978
24789,0.3172,2.9934,0.4738,-49.700,24.395,35.420,398,404,391,392,354,2025-05-27T11:40:19.874978
24790,0.1581,2.5908,0.4270,-88.130,3.955,37.590,399,413,383,402,373,2025-05-27T11:40:19.964977
24791,0.0244,2.1174,0.3026,-98.875,-25.375,36.400,421,404,390,398,391,2025-05-27T11:40:19.964977
24792,-0.0317,1.7129,0.0483,-86.625,-61.285,39.305,404,300,380,375,387,2025-05-27T11:40:19.964977
24793,0.0078,1.3669,-0.0468,-68.215,-92.085,54.285,403,319,368,390,406,2025-05-27T11:40:19.964977
24794,0.0024,1.1082,0.0874,-54.425,-105.280,64.960,435,390,336,418,376,2025-05-27T11:40:19.964977
24795,-0.0224,0.9370,0.2030,-50.400,-111.930,66.990,425,418,316,375,382,2025-05-27T11:40:19.964977
24796,-0.0810,0.7896,0.1996,-47.635,-110.565,62.615,406,427,346,385,384,2025-05-27T11:40:19.964977
24797,-0.1449,0.6417,0.0952,-44.100,-106.925,55.650,386,413,364,407,382,2025-05-27T11:40:20.043904
24798,-0.1757,0.5163,0.0386,-35.805,-104.790,50.400,414,406,376,355,384,2025-05-27T11:40:20.043904
24799,-0.1215,0.4602,0.0063,-23.940,-99.785,48.335,410,401,384,400,411,2025-05-27T11:40:20.043904
24800,-0.0488,0.4475,0.0093,-15.890,-85.750,46.970,407,423,385,410,411,2025-05-27T11:40:20.043904
24801,-0.0107,0.4451,0.0098,-8.995,-67.970,42.770,391,419,385,395,418,2025-05-27T11:40:20.043904
24802,0.0181,0.4436,0.0161,-4.445,-42.420,28.035,410,432,353,383,393,2025-05-27T11:40:20.254330
24803,0.0127,0.4368,0.0044,-0.840,-15.190,27.790,406,353,360,356,393,2025-05-27T11:40:20.254330
24804,-0.0088,0.4368,-0.1249,3.080,8.260,17.010,417,400,340,391,401,2025-05-27T11:40:20.254330
24805,-0.0586,0.4773,-0.0068,6.685,23.555,5.880,400,358,375,401,406,2025-05-27T11:40:20.254330
24806,-0.1230,0.5592,-0.0200,12.495,30.275,-5.775,363,397,365,397,405,2025-05-27T11:40:20.254330
24807,-0.1757,0.6105,-0.0234,19.075,33.390,-17.535,413,415,366,411,406,2025-05-27T11:40:20.254330
24808,-0.2181,0.6866,0.0224,25.620,29.785,-26.600,397,404,370,399,395,2025-05-27T11:40:20.254330
24809,-0.2362,0.7579,0.0742,30.730,23.310,-36.785,335,404,345,399,405,2025-05-27T11:40:20.254330
24810,-0.2713,0.8345,0.1157,33.985,16.100,-45.535,399,429,351,399,394,2025-05-27T11:40:20.254330
24811,-0.2752,0.8930,0.1464,35.595,6.965,-52.675,410,431,371,398,401,2025-05-27T11:40:20.254330
24812,-0.2845,0.9765,0.1708,37.590,-1.960,-57.260,399,407,376,404,408,2025-05-27T11:40:20.254330
24813,-0.2533,1.0751,0.1845,37.765,-8.015,-58.520,422,408,372,307,404,2025-05-27T11:40:20.254330
24814,-0.2523,1.1653,0.1991,35.175,-13.545,-57.855,415,403,359,382,416,2025-05-27T11:40:20.254330
24815,-0.2128,1.2410,0.2235,30.030,-16.905,-55.230,430,406,386,388,425,2025-05-27T11:40:20.254330
24816,-0.2006,1.2908,0.2240,23.310,-16.765,-50.715,396,399,376,409,408,2025-05-27T11:40:20.254330
24817,-0.1932,1.3020,0.2196,15.715,-15.365,-45.605,399,395,371,391,404,2025-05-27T11:40:20.254330
24818,-0.2176,1.3083,0.2201,9.730,-13.860,-40.285,416,355,370,401,406,2025-05-27T11:40:20.254330
24819,-0.2601,1.2659,0.1967,3.850,-14.315,-33.880,396,414,335,346,397,2025-05-27T11:40:20.254330
24820,-0.3011,1.2102,0.1630,0.210,-17.745,-28.280,340,370,364,388,409,2025-05-27T11:40:20.254330
24821,-0.3367,1.1614,0.1332,-1.225,-23.800,-21.035,404,349,375,403,415,2025-05-27T11:40:20.355539
24822,-0.3548,1.0936,0.1010,-1.190,-30.030,-13.790,413,408,371,408,396,2025-05-27T11:40:20.355539
24823,-0.3377,1.0404,0.0786,-0.665,-34.300,-6.825,306,406,369,404,394,2025-05-27T11:40:20.355539
24824,-0.3113,1.0087,0.0576,-0.245,-34.755,-1.015,386,390,367,401,391,2025-05-27T11:40:20.355539
24825,-0.2733,0.9809,0.0346,0.455,-32.200,3.535,413,412,384,415,397,2025-05-27T11:40:20.355539
24826,-0.2474,0.9560,0.0224,0.875,-26.845,6.370,388,363,370,368,390,2025-05-27T11:40:20.355539
24827,-0.2250,0.9370,0.0200,1.610,-20.685,8.925,392,377,373,381,403,2025-05-27T11:40:20.355539
24828,-0.2098,0.9257,0.0161,2.800,-14.175,10.290,387,412,351,342,409,2025-05-27T11:40:20.355539
24829,-0.2020,0.9130,0.0195,3.430,-7.840,10.395,404,360,335,390,412,2025-05-27T11:40:20.355539
24830,-0.1991,0.9028,0.0146,4.375,-4.130,9.800,376,397,355,391,413,2025-05-27T11:40:20.443484
24831,-0.2035,0.9038,0.0112,5.915,-0.735,9.205,411,400,374,345,406,2025-05-27T11:40:20.443484
24832,-0.2186,0.9008,0.0264,6.650,0.770,7.560,378,419,335,381,411,2025-05-27T11:40:20.443484
24833,-0.2318,0.9038,0.0429,6.405,-0.140,5.775,378,416,369,385,417,2025-05-27T11:40:20.443484
24834,-0.2435,0.9165,0.0478,6.125,-3.780,4.900,378,350,368,418,409,2025-05-27T11:40:20.443484
24835,-0.2460,0.9267,0.0595,5.880,-7.210,4.655,407,403,377,418,401,2025-05-27T11:40:20.443484
24836,-0.2347,0.9472,0.0542,5.600,-11.200,4.375,408,379,369,404,401,2025-05-27T11:40:20.443484
24837,-0.2284,0.9575,0.0644,4.585,-13.160,3.465,397,404,343,399,394,2025-05-27T11:40:20.443484
24838,-0.2167,0.9731,0.0703,3.290,-13.580,2.170,394,425,364,399,402,2025-05-27T11:40:20.582431
24839,-0.2162,0.9760,0.0874,1.925,-13.055,0.385,420,430,379,412,369,2025-05-27T11:40:20.582431
24840,-0.2235,0.9780,0.0996,-0.070,-12.740,-1.155,400,380,335,409,377,2025-05-27T11:40:20.582431
24841,-0.2294,0.9804,0.1030,-1.890,-13.405,-2.415,403,414,372,397,396,2025-05-27T11:40:20.582431
24842,-0.2367,0.9823,0.0976,-3.325,-14.455,-3.990,411,388,370,353,389,2025-05-27T11:40:20.582431
24843,-0.2430,0.9882,0.0883,-3.885,-15.260,-5.215,392,407,382,379,384,2025-05-27T11:40:20.582431
24844,-0.2367,0.9926,0.0878,-4.060,-15.470,-6.090,412,365,388,384,406,2025-05-27T11:40:20.582431
24845,-0.2274,0.9950,0.0883,-4.410,-14.455,-6.440,415,402,353,399,405,2025-05-27T11:40:20.582431
24846,-0.2347,0.9819,0.0947,-4.760,-12.635,-6.545,400,431,330,402,409,2025-05-27T11:40:20.582431
24847,-0.2464,0.9740,0.1005,-5.250,-11.585,-6.510,394,389,356,414,401,2025-05-27T11:40:20.682880
24848,-0.2494,0.9648,0.1122,-5.915,-11.620,-6.195,334,418,344,417,390,2025-05-27T11:40:20.682880
24849,-0.2552,0.9633,0.1074,-6.650,-12.005,-5.530,414,432,364,416,404,2025-05-27T11:40:20.682880
24850,-0.2557,0.9609,0.1054,-6.930,-12.845,-5.005,404,438,369,412,405,2025-05-27T11:40:20.682880
24851,-0.2542,0.9609,0.1049,-6.790,-13.440,-4.270,402,354,384,404,353,2025-05-27T11:40:20.682880
24852,-0.2518,0.9540,0.0961,-6.090,-13.720,-3.430,418,424,395,395,330,2025-05-27T11:40:20.682880
24853,-0.2416,0.9389,0.0874,-4.515,-14.035,-2.730,365,413,382,411,366,2025-05-27T11:40:20.682880
24854,-0.2342,0.9140,0.0888,-2.485,-13.895,-1.785,403,435,390,410,339,2025-05-27T11:40:20.682880
24855,-0.2323,0.8974,0.0849,-0.350,-13.370,-0.910,420,360,352,403,382,2025-05-27T11:40:20.682880
24856,-0.2098,0.9062,0.0830,1.470,-12.460,-0.070,407,410,366,419,400,2025-05-27T11:40:20.682880
24857,-0.1991,0.9165,0.0825,2.835,-10.080,0.000,414,439,363,409,411,2025-05-27T11:40:20.760461
24858,-0.1952,0.9428,0.0693,4.200,-6.300,0.000,416,419,364,378,401,2025-05-27T11:40:20.760461
24859,-0.1898,0.9526,0.0620,5.880,-2.905,0.000,342,407,368,359,401,2025-05-27T11:40:20.760461
24860,-0.2001,0.9565,0.0600,7.105,-0.980,0.770,388,361,367,333,400,2025-05-27T11:40:20.760461
24861,-0.2167,0.9565,0.0547,8.120,-0.595,1.225,412,419,361,366,357,2025-05-27T11:40:20.860585
24862,-0.2250,0.9623,0.0630,8.610,-1.435,1.505,395,393,357,377,377,2025-05-27T11:40:20.860585
24863,-0.2342,0.9662,0.0795,8.015,-2.345,1.435,394,416,380,355,399,2025-05-27T11:40:20.860585
24864,-0.2406,0.9745,0.0966,6.685,-2.870,1.155,337,378,376,389,348,2025-05-27T11:40:20.860585
24865,-0.2533,0.9745,0.0966,5.250,-4.165,0.665,409,416,348,410,391,2025-05-27T11:40:20.860585
24866,-0.2586,0.9716,0.0956,3.675,-5.845,0.105,422,425,378,423,343,2025-05-27T11:40:20.860585
24867,-0.2733,0.9677,0.0952,1.855,-8.575,-0.455,411,433,376,354,392,2025-05-27T11:40:20.860585
24868,-0.2806,0.9643,0.1010,0.175,-11.760,-0.805,404,431,383,391,382,2025-05-27T11:40:20.860585
24869,-0.2850,0.9697,0.1005,-1.470,-14.945,-0.665,424,401,344,400,390,2025-05-27T11:40:20.860585
24870,-0.2772,0.9731,0.1059,-2.380,-17.255,0.035,403,412,369,393,405,2025-05-27T11:40:20.860585
24871,-0.2752,0.9784,0.1015,-3.535,-18.410,0.665,412,368,381,400,392,2025-05-27T11:40:20.860585
24872,-0.2704,0.9726,0.0966,-3.850,-19.670,1.295,368,418,391,392,400,2025-05-27T11:40:20.943642
24873,-0.2499,0.9658,0.0952,-3.640,-19.845,2.240,417,398,348,302,401,2025-05-27T11:40:20.943642
24874,-0.2435,0.9560,0.1020,-3.430,-18.165,2.975,390,421,358,371,397,2025-05-27T11:40:20.943642
24875,-0.2308,0.9467,0.1078,-3.500,-16.065,3.500,392,404,367,379,400,2025-05-27T11:40:20.943642
24876,-0.2250,0.9453,0.1132,-3.675,-13.265,3.710,350,406,367,376,397,2025-05-27T11:40:20.943642
24877,-0.2255,0.9384,0.1074,-3.955,-11.200,3.990,379,392,379,396,394,2025-05-27T11:40:21.076141
24878,-0.2211,0.9418,0.1035,-3.815,-9.135,4.095,404,423,385,396,399,2025-05-27T11:40:21.076141
24879,-0.2133,0.9477,0.1020,-3.185,-7.350,4.305,401,425,373,402,401,2025-05-27T11:40:21.076141
24880,-0.2084,0.9536,0.0986,-2.695,-4.970,4.480,415,409,368,390,401,2025-05-27T11:40:21.076141
24881,-0.1986,0.9594,0.0991,-2.380,-3.115,4.480,398,421,367,392,349,2025-05-27T11:40:21.576738
24882,-0.1967,0.9609,0.0922,-1.750,-1.750,4.760,419,404,370,390,374,2025-05-27T11:40:21.576738
24883,-0.1986,0.9687,0.1039,-1.540,-0.140,4.795,348,401,366,397,404,2025-05-27T11:40:21.576738
24884,-0.1942,0.9740,0.1137,-1.750,0.875,4.725,404,355,362,423,410,2025-05-27T11:40:21.576738
24885,-0.2045,0.9760,0.1132,-2.520,1.925,4.690,426,370,341,396,401,2025-05-27T11:40:21.576738
24886,-0.2118,0.9765,0.1118,-2.975,2.345,5.040,413,392,365,390,418,2025-05-27T11:40:21.576738
24887,-0.2240,0.9740,0.1215,-3.430,2.205,5.705,428,397,334,402,419,2025-05-27T11:40:21.576738
24888,-0.2284,0.9716,0.1283,-4.165,1.610,6.440,403,408,333,406,412,2025-05-27T11:40:21.576738
24889,-0.2386,0.9662,0.1293,-5.110,0.630,7.385,404,432,315,348,411,2025-05-27T11:40:21.576738
24890,-0.2523,0.9579,0.1313,-5.355,-1.295,8.050,402,426,348,360,411,2025-05-27T11:40:21.576738
24891,-0.2694,0.9536,0.1454,-5.670,-3.850,7.980,390,441,324,349,403,2025-05-27T11:40:21.576738
24892,-0.2757,0.9482,0.1527,-6.090,-6.055,8.120,411,428,361,384,314,2025-05-27T11:40:21.576738
24893,-0.2840,0.9370,0.1479,-6.195,-9.310,8.330,415,415,359,390,332,2025-05-27T11:40:21.576738
24894,-0.2923,0.9306,0.1425,-5.635,-12.985,8.995,420,423,329,399,367,2025-05-27T11:40:21.576738
24895,-0.2767,0.9301,0.1474,-4.970,-16.170,9.345,410,401,344,421,376,2025-05-27T11:40:21.576738
24896,-0.2635,0.9233,0.1503,-4.655,-17.290,9.660,427,387,320,360,384,2025-05-27T11:40:21.576738
24897,-0.2474,0.9233,0.1513,-4.130,-16.905,9.450,397,397,352,402,402,2025-05-27T11:40:21.576738
24898,-0.2396,0.9243,0.1606,-3.430,-15.155,9.170,403,338,365,404,399,2025-05-27T11:40:21.576738
24899,-0.2225,0.9257,0.1635,-2.835,-12.390,8.505,402,414,376,419,405,2025-05-27T11:40:21.576738
24900,-0.2206,0.9272,0.1640,-2.310,-9.135,7.735,428,404,374,402,399,2025-05-27T11:40:21.576738
24901,-0.2079,0.9331,0.1601,-1.330,-6.125,6.825,423,424,333,406,415,2025-05-27T11:40:21.576738
24902,-0.2001,0.9370,0.1581,-0.455,-3.605,6.195,401,399,361,411,392,2025-05-27T11:40:21.576738
24903,-0.1996,0.9418,0.1547,0.420,-2.205,5.495,430,399,375,388,367,2025-05-27T11:40:21.576738
24904,-0.2094,0.9438,0.1508,1.365,-1.925,4.865,346,424,375,409,373,2025-05-27T11:40:21.576738
24905,-0.2094,0.9433,0.1493,2.555,-3.150,3.955,399,345,382,418,397,2025-05-27T11:40:21.576738
24906,-0.2157,0.9482,0.1557,3.010,-5.355,3.220,389,397,387,415,400,2025-05-27T11:40:21.576738
24907,-0.2084,0.9526,0.1527,3.745,-7.735,3.185,388,430,392,382,364,2025-05-27T11:40:21.576738
24908,-0.2059,0.9492,0.1484,4.340,-10.640,3.045,400,431,391,375,388,2025-05-27T11:40:21.576738
24909,-0.1903,0.9565,0.1523,4.620,-12.495,2.555,379,431,373,404,351,2025-05-27T11:40:21.576738
24910,-0.1723,0.9623,0.1493,4.620,-13.020,1.960,383,424,387,402,394,2025-05-27T11:40:21.576738
24911,-0.1552,0.9667,0.1440,4.445,-12.495,0.840,397,421,375,409,402,2025-05-27T11:40:21.576738
24912,-0.1464,0.9706,0.1366,4.200,-10.745,-0.665,400,378,388,406,413,2025-05-27T11:40:21.576738
24913,-0.1366,0.9736,0.1308,3.920,-7.910,-1.540,408,390,391,396,380,2025-05-27T11:40:21.576738
24914,-0.1454,0.9692,0.1318,3.780,-5.390,-2.660,348,428,378,405,411,2025-05-27T11:40:21.576738
24915,-0.1713,0.9604,0.1396,3.535,-5.005,-3.815,401,414,348,412,399,2025-05-27T11:40:21.576738
24916,-0.1893,0.9570,0.1401,3.605,-6.335,-4.480,333,398,374,401,389,2025-05-27T11:40:21.576738
24917,-0.2001,0.9536,0.1371,3.710,-8.365,-4.445,405,412,390,418,409,2025-05-27T11:40:21.576738
24918,-0.2147,0.9492,0.1313,4.235,-11.725,-4.200,399,421,392,419,402,2025-05-27T11:40:21.576738
24919,-0.2133,0.9516,0.1342,4.585,-15.190,-4.200,398,435,391,408,350,2025-05-27T11:40:21.576738
24920,-0.2220,0.9560,0.1230,4.830,-17.850,-4.130,433,431,375,413,376,2025-05-27T11:40:21.576738
24921,-0.2186,0.9531,0.1157,4.865,-19.705,-4.865,431,437,367,411,379,2025-05-27T11:40:21.576738
24922,-0.2128,0.9570,0.1118,4.900,-19.985,-5.530,421,396,368,399,341,2025-05-27T11:40:21.576738
24923,-0.2074,0.9604,0.1083,4.655,-18.725,-5.705,416,400,372,387,325,2025-05-27T11:40:21.576738
24924,-0.2064,0.9560,0.1122,4.095,-16.100,-5.425,396,401,380,302,358,2025-05-27T11:40:21.576738
24925,-0.2025,0.9560,0.1137,3.640,-13.125,-4.655,420,401,373,355,391,2025-05-27T11:40:21.576738
24926,-0.2054,0.9526,0.1176,3.220,-9.450,-3.920,416,375,364,331,395,2025-05-27T11:40:21.576738
24927,-0.2040,0.9594,0.1274,2.520,-6.090,-3.395,386,400,373,390,419,2025-05-27T11:40:21.576738
24928,-0.2069,0.9614,0.1171,2.135,-2.905,-2.905,403,422,382,416,403,2025-05-27T11:40:21.576738
24929,-0.2040,0.9682,0.1083,2.065,-0.455,-2.520,418,424,347,409,411,2025-05-27T11:40:21.685972
24930,-0.2147,0.9672,0.1142,2.415,1.855,-1.785,399,396,361,408,395,2025-05-27T11:40:21.685972
24931,-0.2123,0.9711,0.1249,2.625,2.870,-0.945,409,393,369,403,389,2025-05-27T11:40:21.685972
24932,-0.2245,0.9662,0.1196,2.520,3.080,0.245,341,413,368,419,408,2025-05-27T11:40:21.685972
24933,-0.2362,0.9658,0.1176,2.660,2.030,1.330,407,421,372,414,405,2025-05-27T11:40:21.685972
24934,-0.2440,0.9648,0.1205,2.940,-0.245,2.380,410,413,378,409,410,2025-05-27T11:40:21.685972
24935,-0.2450,0.9692,0.1313,2.870,-1.890,3.150,394,362,388,400,404,2025-05-27T11:40:21.685972
24936,-0.2445,0.9697,0.1308,2.275,-3.465,3.605,375,404,316,356,396,2025-05-27T11:40:21.685972
24937,-0.2338,0.9672,0.1293,1.890,-4.655,4.165,425,414,348,401,410,2025-05-27T11:40:21.685972
24938,-0.2352,0.9628,0.1249,1.575,-5.390,4.690,433,418,372,349,389,2025-05-27T11:40:21.685972
24939,-0.2235,0.9648,0.1313,1.155,-5.880,5.005,346,352,365,391,349,2025-05-27T11:40:21.685972
24940,-0.2216,0.9584,0.1327,0.140,-5.775,4.970,322,405,378,363,369,2025-05-27T11:40:21.685972
24941,-0.2157,0.9560,0.1283,-0.560,-5.530,4.585,395,422,377,399,397,2025-05-27T11:40:21.893701
24942,-0.2289,0.9511,0.1225,-0.455,-5.600,4.060,414,356,373,393,387,2025-05-27T11:40:21.893701
24943,-0.2264,0.9501,0.1244,0.105,-6.930,3.920,397,400,389,344,399,2025-05-27T11:40:21.893701
24944,-0.2196,0.9536,0.1293,0.980,-7.910,3.710,389,418,394,395,394,2025-05-27T11:40:21.893701
24945,-0.2181,0.9526,0.1293,1.680,-8.225,3.220,415,402,397,409,387,2025-05-27T11:40:21.893701
24946,-0.2128,0.9526,0.1308,2.310,-8.365,2.380,419,396,368,400,386,2025-05-27T11:40:21.893701
24947,-0.2015,0.9545,0.1327,2.975,-7.980,1.610,401,413,370,394,347,2025-05-27T11:40:21.893701
24948,-0.1923,0.9536,0.1342,3.395,-7.420,1.190,397,422,378,370,382,2025-05-27T11:40:21.893701
24949,-0.1869,0.9526,0.1357,3.850,-7.210,0.490,394,351,366,408,399,2025-05-27T11:40:21.893701
24950,-0.1859,0.9536,0.1308,4.375,-6.895,0.175,383,412,383,391,404,2025-05-27T11:40:21.893701
24951,-0.1781,0.9526,0.1288,4.760,-6.265,-0.665,294,377,385,402,356,2025-05-27T11:40:21.893701
24952,-0.1747,0.9560,0.1269,4.935,-5.145,-1.645,331,402,384,391,366,2025-05-27T11:40:21.893701
24953,-0.1723,0.9628,0.1230,5.005,-4.585,-2.345,392,403,376,347,384,2025-05-27T11:40:21.893701
24954,-0.1767,0.9716,0.1142,5.320,-4.025,-3.045,423,425,370,393,405,2025-05-27T11:40:21.893701
24955,-0.1771,0.9716,0.1113,5.775,-4.235,-3.605,419,420,349,386,356,2025-05-27T11:40:21.893701
24956,-0.1786,0.9716,0.1093,6.195,-4.585,-3.955,429,429,370,403,386,2025-05-27T11:40:21.893701
24957,-0.1742,0.9701,0.1147,6.230,-4.900,-4.200,424,408,353,410,394,2025-05-27T11:40:21.893701
24958,-0.1737,0.9677,0.1093,5.775,-5.180,-4.095,404,419,375,398,368,2025-05-27T11:40:21.960230
24959,-0.1786,0.9638,0.1015,5.425,-5.425,-4.060,417,436,336,410,342,2025-05-27T11:40:21.960230
24960,-0.1869,0.9648,0.0952,5.215,-5.740,-4.060,372,366,368,410,344,2025-05-27T11:40:21.960230
24961,-0.1937,0.9648,0.0971,5.110,-6.160,-4.095,380,418,378,401,380,2025-05-27T11:40:21.960230
24962,-0.2025,0.9658,0.0927,4.830,-6.405,-3.745,422,413,389,413,389,2025-05-27T11:40:21.960230
24963,-0.2011,0.9643,0.0922,4.515,-6.475,-3.255,340,370,384,369,396,2025-05-27T11:40:22.125874
24964,-0.2074,0.9667,0.0849,4.165,-6.090,-2.835,403,391,385,379,346,2025-05-27T11:40:22.125874
24965,-0.2094,0.9692,0.0800,3.955,-5.565,-2.345,421,427,386,366,346,2025-05-27T11:40:22.125874
24966,-0.2113,0.9721,0.0786,3.815,-4.760,-1.820,429,405,377,381,364,2025-05-27T11:40:22.125874
24967,-0.2113,0.9662,0.0878,3.640,-3.850,-1.435,354,411,338,404,396,2025-05-27T11:40:22.126360
24968,-0.2094,0.9648,0.0908,3.115,-3.080,-1.190,416,383,356,355,390,2025-05-27T11:40:22.126360
24969,-0.2157,0.9648,0.0976,2.520,-2.275,-0.910,421,392,362,379,345,2025-05-27T11:40:22.126360
24970,-0.2162,0.9638,0.1030,2.065,-2.065,-0.665,435,403,366,403,385,2025-05-27T11:40:22.126360
24971,-0.2162,0.9643,0.1025,1.645,-2.205,-0.315,408,423,381,408,395,2025-05-27T11:40:22.126360
24972,-0.2240,0.9628,0.0981,1.505,-2.310,-0.280,414,404,350,396,359,2025-05-27T11:40:22.126360
24973,-0.2196,0.9614,0.1030,1.400,-2.555,-0.245,400,434,373,402,393,2025-05-27T11:40:22.126509
24974,-0.2089,0.9667,0.1039,1.470,-2.415,0.000,386,442,383,394,388,2025-05-27T11:40:22.126509
24975,-0.2103,0.9614,0.1005,1.295,-2.205,0.105,374,420,381,406,390,2025-05-27T11:40:22.126509
24976,-0.2108,0.9633,0.1049,1.260,-2.765,-0.035,358,350,386,415,348,2025-05-27T11:40:22.126509
24977,-0.2108,0.9628,0.1093,1.190,-3.395,-0.455,386,419,379,402,382,2025-05-27T11:40:22.126509
24978,-0.2172,0.9633,0.1049,0.840,-4.480,-0.910,417,423,385,411,400,2025-05-27T11:40:22.299233
24979,-0.2201,0.9648,0.1074,0.665,-6.370,-1.645,368,359,384,402,390,2025-05-27T11:40:22.299233
24980,-0.2225,0.9692,0.1059,0.735,-8.610,-1.925,347,400,362,417,390,2025-05-27T11:40:22.299233
24981,-0.2167,0.9682,0.1044,0.735,-10.570,-1.960,405,411,375,350,350,2025-05-27T11:40:22.299233
24982,-0.2084,0.9677,0.1010,0.665,-11.445,-1.925,416,435,377,387,384,2025-05-27T11:40:22.435490
24983,-0.2079,0.9653,0.1020,0.630,-11.095,-1.995,425,412,386,394,402,2025-05-27T11:40:22.435490
24984,-0.1908,0.9697,0.1035,0.245,-9.520,-1.645,401,399,345,408,407,2025-05-27T11:40:22.435490
24985,-0.1947,0.9672,0.1020,-0.315,-6.720,-1.400,395,402,373,408,367,2025-05-27T11:40:22.435490
24986,-0.1937,0.9667,0.1010,-0.560,-3.815,-1.260,394,394,373,397,378,2025-05-27T11:40:22.435490
24987,-0.2040,0.9662,0.1039,-0.630,-1.820,-0.945,426,411,371,397,377,2025-05-27T11:40:22.435490
24988,-0.2064,0.9706,0.1069,-0.455,-0.035,-0.385,417,418,371,419,393,2025-05-27T11:40:22.435490
24989,-0.2137,0.9672,0.1049,0.035,0.770,0.210,416,427,370,358,408,2025-05-27T11:40:22.435490
24990,-0.2167,0.9658,0.1044,0.525,0.980,0.910,383,433,364,341,390,2025-05-27T11:40:22.435490
24991,-0.2162,0.9614,0.1030,0.875,0.630,1.435,421,418,363,382,403,2025-05-27T11:40:22.435490
24992,-0.2108,0.9633,0.1064,1.295,0.770,2.065,418,429,368,396,406,2025-05-27T11:40:22.435490
24993,-0.2074,0.9658,0.1044,1.085,1.470,2.310,428,416,368,359,392,2025-05-27T11:40:22.435490
24994,-0.2079,0.9682,0.1010,0.910,2.170,2.625,428,408,340,394,411,2025-05-27T11:40:22.435490
24995,-0.2098,0.9628,0.0952,0.875,2.730,2.800,420,302,369,413,411,2025-05-27T11:40:22.435490
24996,-0.2123,0.9628,0.1000,0.910,3.010,2.835,395,385,376,425,392,2025-05-27T11:40:22.435490
24997,-0.2191,0.9628,0.0976,0.770,3.010,2.975,413,422,388,431,348,2025-05-27T11:40:22.435490
24998,-0.2157,0.9604,0.0937,0.525,2.730,2.975,358,379,341,410,376,2025-05-27T11:40:22.435490
24999,-0.2181,0.9623,0.0937,0.385,2.170,2.835,364,367,348,412,396,2025-05-27T11:40:22.435490
25000,-0.2216,0.9623,0.0903,0.350,0.910,2.520,399,421,357,404,364,2025-05-27T11:40:22.435490
25001,-0.2181,0.9623,0.0854,0.210,-0.315,1.890,418,418,370,425,398,2025-05-27T11:40:22.435490
25002,-0.2147,0.9638,0.0874,-0.070,-1.680,1.190,419,397,337,352,361,2025-05-27T11:40:22.435490
25003,-0.2128,0.9643,0.0903,-0.630,-2.660,0.280,412,376,365,401,386,2025-05-27T11:40:22.490375
25004,-0.2137,0.9614,0.0908,-1.225,-3.710,-0.490,396,401,365,401,400,2025-05-27T11:40:22.490375
25005,-0.2118,0.9565,0.0922,-1.610,-4.410,-0.875,428,430,391,397,390,2025-05-27T11:40:22.490375
25006,-0.2108,0.9565,0.0981,-2.030,-4.865,-1.190,427,403,374,399,410,2025-05-27T11:40:22.490375
25007,-0.2128,0.9555,0.0996,-2.030,-5.215,-1.365,435,339,380,406,414,2025-05-27T11:40:22.490375
25008,-0.2050,0.9570,0.0981,-1.960,-4.970,-1.505,401,406,385,421,409,2025-05-27T11:40:22.607174
25009,-0.2123,0.9633,0.0947,-1.610,-4.130,-1.575,340,374,392,373,397,2025-05-27T11:40:22.607174
25010,-0.2147,0.9594,0.1000,-1.155,-3.815,-1.295,394,409,382,390,413,2025-05-27T11:40:22.607174
25011,-0.2108,0.9653,0.1127,-0.665,-3.675,-0.490,412,403,389,409,399,2025-05-27T11:40:22.607174
25012,-0.2167,0.9638,0.1152,-0.595,-3.255,-0.280,387,415,372,404,405,2025-05-27T11:40:22.607174
25013,-0.2186,0.9623,0.1113,-0.455,-3.150,0.000,387,417,362,414,406,2025-05-27T11:40:22.607174
25014,-0.2167,0.9604,0.1098,-0.245,-2.940,0.280,416,420,366,401,393,2025-05-27T11:40:22.607174
25015,-0.2094,0.9623,0.1152,-0.140,-2.450,0.665,398,400,376,404,345,2025-05-27T11:40:22.607174
25016,-0.2113,0.9653,0.1166,0.035,-1.855,0.910,403,408,388,394,339,2025-05-27T11:40:22.607174
25017,-0.2108,0.9662,0.1069,0.140,-1.365,0.910,391,400,376,390,388,2025-05-27T11:40:22.607174
25018,-0.2137,0.9579,0.1044,0.455,-1.505,0.980,376,353,367,412,350,2025-05-27T11:40:22.840856
25019,-0.2074,0.9628,0.1035,0.805,-1.855,1.190,397,402,371,396,380,2025-05-27T11:40:22.840856
25020,-0.2054,0.9614,0.1015,0.700,-2.065,1.050,412,370,384,412,352,2025-05-27T11:40:22.840856
25021,-0.2113,0.9594,0.0942,0.665,-2.100,0.595,367,409,392,375,390,2025-05-27T11:40:22.840856
25022,-0.2118,0.9536,0.0903,0.945,-3.150,0.280,407,411,388,382,405,2025-05-27T11:40:22.840856
25023,-0.2069,0.9594,0.0913,0.945,-3.150,0.595,418,382,390,408,401,2025-05-27T11:40:22.840856
25024,-0.2015,0.9614,0.0903,0.455,-2.170,0.525,398,394,350,421,391,2025-05-27T11:40:22.840856
25025,-0.1942,0.9594,0.0908,-0.140,-1.085,-0.175,387,420,365,403,409,2025-05-27T11:40:22.840856
25026,-0.1908,0.9589,0.0932,-0.560,-0.420,-0.735,391,409,380,357,410,2025-05-27T11:40:22.840856
25027,-0.2172,0.9531,0.0952,-0.840,-0.420,-1.610,414,376,379,379,412,2025-05-27T11:40:23.708684
25028,-0.2191,0.9467,0.0942,-0.840,-2.800,-2.275,415,412,357,402,413,2025-05-27T11:40:23.708684
25029,-0.2176,0.9492,0.0917,-0.665,-5.040,-2.170,412,419,376,395,396,2025-05-27T11:40:23.708684
25030,-0.2147,0.9540,0.0971,-0.700,-5.950,-2.695,378,347,373,340,410,2025-05-27T11:40:23.709689
25031,-0.2191,0.9555,0.0961,-0.665,-6.335,-3.465,372,390,348,386,375,2025-05-27T11:40:24.345450
25032,-0.2128,0.9550,0.0952,-0.245,-6.860,-3.605,412,431,371,405,406,2025-05-27T11:40:24.345450
25033,-0.2098,0.9584,0.0971,0.350,-5.810,-3.185,407,404,393,383,392,2025-05-27T11:40:24.345450
25034,-0.2045,0.9575,0.1049,0.490,-4.725,-2.765,432,420,374,341,399,2025-05-27T11:40:24.345450
25035,-0.2103,0.9594,0.1039,0.770,-3.640,-2.660,392,413,383,367,404,2025-05-27T11:40:24.345450
25036,-0.2113,0.9570,0.1015,0.980,-2.240,-2.415,408,372,379,384,392,2025-05-27T11:40:24.345450
25037,-0.2162,0.9618,0.1147,1.470,-1.575,-1.785,343,414,380,342,387,2025-05-27T11:40:24.345450
25038,-0.2176,0.9648,0.1113,1.260,-0.770,-1.225,379,339,383,386,413,2025-05-27T11:40:24.346447
25039,-0.2201,0.9643,0.1035,1.155,0.140,-0.875,393,407,388,406,425,2025-05-27T11:40:24.346447
25040,-0.2323,0.9658,0.0981,1.400,0.105,-0.560,405,425,392,414,412,2025-05-27T11:40:24.346447
25041,-0.2338,0.9653,0.1020,1.540,-0.770,-0.245,378,418,388,357,404,2025-05-27T11:40:24.346447
25042,-0.2342,0.9667,0.1035,1.645,-1.855,0.525,351,425,379,376,360,2025-05-27T11:40:24.346447
25043,-0.2294,0.9682,0.1069,1.610,-2.590,0.945,411,434,387,391,366,2025-05-27T11:40:24.346447
25044,-0.2240,0.9658,0.1039,1.435,-2.940,1.190,345,422,380,399,394,2025-05-27T11:40:24.346447
25045,-0.2201,0.9662,0.0947,1.225,-3.010,1.330,330,363,353,413,398,2025-05-27T11:40:24.346447
25046,-0.2181,0.9648,0.0971,1.120,-3.010,1.505,391,416,335,401,387,2025-05-27T11:40:24.346447
25047,-0.2108,0.9687,0.0991,0.945,-2.835,1.505,416,437,349,399,395,2025-05-27T11:40:24.346447
25048,-0.2113,0.9677,0.0986,0.455,-2.310,1.120,396,432,360,375,400,2025-05-27T11:40:24.346447
25049,-0.2201,0.9643,0.0932,0.035,-2.100,0.420,418,418,376,409,391,2025-05-27T11:40:24.346447
25050,-0.2211,0.9579,0.0947,0.000,-2.730,0.175,395,411,373,411,391,2025-05-27T11:40:24.346447
25051,-0.2176,0.9589,0.0966,-0.035,-3.500,0.245,416,433,382,356,397,2025-05-27T11:40:24.346447
25052,-0.2167,0.9599,0.0996,-0.245,-4.095,-0.035,426,414,343,394,357,2025-05-27T11:40:24.346447
25053,-0.2191,0.9536,0.1000,-0.350,-4.620,-0.630,401,394,360,412,394,2025-05-27T11:40:24.346447
25054,-0.2157,0.9531,0.0991,-0.280,-4.585,-0.840,391,416,369,414,418,2025-05-27T11:40:24.346447
25055,-0.2094,0.9565,0.1049,-0.280,-4.165,-0.980,404,371,374,398,415,2025-05-27T11:40:24.346447
25056,-0.2064,0.9584,0.0986,-0.280,-3.185,-0.910,392,394,377,411,413,2025-05-27T11:40:24.346447
25057,-0.2128,0.9575,0.0947,0.035,-2.660,-1.120,412,343,377,399,409,2025-05-27T11:40:24.346447
25058,-0.2108,0.9560,0.0937,0.560,-2.030,-1.085,420,364,384,389,403,2025-05-27T11:40:24.346447
25059,-0.2059,0.9575,0.0996,0.910,-1.750,-1.120,422,420,377,387,344,2025-05-27T11:40:24.346447
25060,-0.2089,0.9594,0.0996,0.910,-1.610,-1.190,371,413,368,380,380,2025-05-27T11:40:24.346447
25061,-0.2294,0.9526,0.0991,0.910,-1.995,-1.610,419,409,369,399,389,2025-05-27T11:40:24.346447
25062,-0.2235,0.9492,0.0947,1.295,-3.675,-1.260,395,418,380,359,395,2025-05-27T11:40:24.346447
25063,-0.2259,0.9589,0.1010,1.715,-4.550,-0.630,416,407,384,396,366,2025-05-27T11:40:24.346447
25064,-0.2196,0.9653,0.1064,1.330,-4.725,-0.770,423,397,386,409,396,2025-05-27T11:40:24.346447
25065,-0.2162,0.9643,0.0966,0.945,-4.305,-1.295,358,351,378,399,378,2025-05-27T11:40:24.346447
25066,-0.2181,0.9584,0.0952,0.735,-3.675,-2.065,341,403,385,413,384,2025-05-27T11:40:24.346447
25067,-0.2167,0.9579,0.0966,0.595,-3.605,-2.135,407,403,390,369,399,2025-05-27T11:40:24.346447
25068,-0.2147,0.9628,0.1074,0.350,-3.815,-1.750,339,415,396,360,354,2025-05-27T11:40:24.346447
25069,-0.2172,0.9672,0.1127,-0.105,-3.255,-2.030,406,440,351,379,384,2025-05-27T11:40:24.346447
25070,-0.2240,0.9633,0.1059,-0.210,-3.080,-2.310,421,429,368,369,379,2025-05-27T11:40:24.346447
25071,-0.2294,0.9594,0.1078,0.385,-4.235,-2.485,421,433,375,389,381,2025-05-27T11:40:24.346447
25072,-0.2240,0.9579,0.1118,0.840,-5.670,-2.135,420,433,378,370,385,2025-05-27T11:40:24.346447
25073,-0.2176,0.9614,0.1142,1.435,-6.265,-2.100,423,426,344,343,397,2025-05-27T11:40:24.346447
25074,-0.2098,0.9672,0.1137,1.995,-6.335,-2.205,412,407,353,389,406,2025-05-27T11:40:24.346447
25075,-0.2064,0.9623,0.1113,2.310,-5.950,-2.275,415,414,365,383,393,2025-05-27T11:40:24.346447
25076,-0.2001,0.9643,0.1132,2.660,-5.600,-2.555,389,406,386,399,405,2025-05-27T11:40:24.346447
25077,-0.2045,0.9623,0.1078,2.940,-5.565,-2.520,409,427,347,411,387,2025-05-27T11:40:24.346447
25078,-0.2064,0.9599,0.1035,3.430,-5.635,-2.695,337,400,371,397,383,2025-05-27T11:40:24.346447
25079,-0.2094,0.9560,0.1025,4.095,-6.265,-2.765,377,415,380,367,380,2025-05-27T11:40:24.346447
25080,-0.2040,0.9589,0.0947,4.655,-6.965,-2.625,342,405,339,399,385,2025-05-27T11:40:24.346447
25081,-0.2050,0.9599,0.0864,5.180,-7.490,-2.450,404,423,359,388,404,2025-05-27T11:40:24.346447
25082,-0.2040,0.9599,0.0737,5.810,-8.120,-2.380,371,415,363,390,394,2025-05-27T11:40:24.346447
25083,-0.2079,0.9589,0.0659,6.545,-8.715,-2.275,417,408,376,306,381,2025-05-27T11:40:24.346447
25084,-0.2006,0.9604,0.0625,6.895,-9.135,-2.310,391,395,380,335,384,2025-05-27T11:40:24.346447
25085,-0.1957,0.9575,0.0600,6.370,-9.310,-2.450,429,416,392,368,385,2025-05-27T11:40:24.346447
25086,-0.1913,0.9516,0.0551,5.740,-9.170,-2.800,415,417,391,400,355,2025-05-27T11:40:24.346447
25087,-0.1903,0.9516,0.0512,5.145,-9.170,-3.045,392,403,394,419,394,2025-05-27T11:40:24.346447
25088,-0.2011,0.9467,0.0425,4.690,-9.940,-3.535,403,413,392,372,365,2025-05-27T11:40:24.346447
25089,-0.1976,0.9511,0.0381,4.550,-11.200,-3.850,415,416,381,374,406,2025-05-27T11:40:24.346447
25090,-0.1898,0.9501,0.0361,4.550,-12.915,-4.270,346,387,390,403,407,2025-05-27T11:40:24.346447
25091,-0.1815,0.9506,0.0381,4.585,-13.825,-5.075,376,363,389,391,394,2025-05-27T11:40:24.346447
25092,-0.1801,0.9423,0.0395,4.200,-14.490,-6.300,405,415,376,305,392,2025-05-27T11:40:24.346447
25093,-0.1810,0.9311,0.0425,3.780,-15.225,-7.350,433,397,341,363,411,2025-05-27T11:40:24.346447
25094,-0.1889,0.9189,0.0410,3.640,-16.345,-7.980,419,431,356,379,413,2025-05-27T11:40:24.346447
25095,-0.2045,0.9077,0.0483,3.395,-17.850,-8.995,390,429,375,391,411,2025-05-27T11:40:24.346447
25096,-0.2137,0.8940,0.0561,3.640,-20.370,-9.730,423,410,348,394,316,2025-05-27T11:40:24.346447
25097,-0.2147,0.8818,0.0625,3.710,-23.100,-10.955,417,397,366,411,352,2025-05-27T11:40:24.346447
25098,-0.2216,0.8584,0.0610,3.850,-25.130,-12.530,431,395,368,409,330,2025-05-27T11:40:24.346447
25099,-0.2269,0.8384,0.0634,4.130,-26.810,-14.630,399,417,380,406,373,2025-05-27T11:40:24.346447
25100,-0.2206,0.8316,0.0673,4.270,-27.895,-16.800,339,423,342,395,385,2025-05-27T11:40:24.346447
25101,-0.2255,0.8223,0.0659,4.760,-28.245,-19.075,412,443,369,389,391,2025-05-27T11:40:24.346447
25102,-0.2450,0.8145,0.0693,5.775,-29.190,-21.105,422,352,364,415,408,2025-05-27T11:40:24.346447
25103,-0.2513,0.8164,0.0732,7.805,-31.150,-23.590,417,379,378,397,387,2025-05-27T11:40:24.347458
25104,-0.2577,0.8242,0.0630,10.465,-33.005,-25.550,400,427,380,412,405,2025-05-27T11:40:24.347458
25105,-0.2738,0.8316,0.0483,13.125,-35.000,-27.510,402,381,387,412,314,2025-05-27T11:40:24.347458
25106,-0.2752,0.8496,0.0400,17.220,-36.925,-28.700,390,420,382,410,322,2025-05-27T11:40:24.347458
25107,-0.2796,0.8725,0.0298,21.245,-37.485,-29.120,391,422,390,395,358,2025-05-27T11:40:24.347458
25108,-0.2943,0.8862,0.0234,24.605,-37.205,-28.770,429,421,395,388,337,2025-05-27T11:40:24.347458
25110,-0.3367,0.9243,-0.0010,34.125,-36.050,-23.310,423,413,363,392,348,2025-05-27T11:40:24.729774
25111,-0.3504,0.9438,-0.0127,37.135,-35.105,-22.505,380,406,360,348,290,2025-05-27T11:40:24.729774
25112,-0.3577,0.9433,-0.0073,38.220,-34.510,-23.415,417,346,373,388,366,2025-05-27T11:40:24.729774
25113,-0.3518,0.9482,0.0000,38.640,-35.560,-24.675,380,385,365,412,390,2025-05-27T11:40:24.729774
25114,-0.3455,0.9409,0.0068,38.780,-36.540,-26.355,403,389,382,416,384,2025-05-27T11:40:24.729774
25115,-0.3396,0.9321,0.0166,38.360,-38.010,-28.175,368,432,358,354,383,2025-05-27T11:40:24.729774
25116,-0.3348,0.9282,0.0303,37.415,-40.530,-30.660,386,364,373,406,413,2025-05-27T11:40:24.729774
25117,-0.3192,0.9292,0.0415,36.225,-43.295,-33.110,398,418,374,396,403,2025-05-27T11:40:24.729774
25118,-0.3055,0.9326,0.0527,34.860,-45.640,-35.595,398,357,372,369,400,2025-05-27T11:40:24.729774
25119,-0.2840,0.9399,0.0600,32.795,-47.215,-38.430,409,408,380,340,370,2025-05-27T11:40:24.729774
25120,-0.2640,0.9443,0.0712,30.065,-47.320,-41.720,368,424,370,370,396,2025-05-27T11:40:24.729774
25121,-0.2655,0.9516,0.0800,26.635,-45.745,-44.905,417,411,366,392,365,2025-05-27T11:40:24.729774
25122,-0.2757,0.9633,0.0927,23.170,-44.310,-49.140,401,403,364,343,387,2025-05-27T11:40:24.729774
25123,-0.2865,0.9745,0.1005,19.915,-43.120,-53.235,421,410,386,398,400,2025-05-27T11:40:24.729774
25124,-0.3148,0.9784,0.1035,17.255,-42.350,-57.400,375,389,371,383,399,2025-05-27T11:40:24.729774
25125,-0.3279,0.9799,0.1186,15.365,-42.315,-61.425,397,414,386,392,409,2025-05-27T11:40:24.729774
25126,-0.3548,0.9789,0.1357,12.845,-42.315,-65.065,420,420,380,356,368,2025-05-27T11:40:24.729774
25127,-0.3802,0.9867,0.1771,9.695,-42.770,-68.040,403,392,383,383,376,2025-05-27T11:40:24.729774
25128,-0.4075,0.9999,0.2030,6.510,-45.535,-68.740,406,405,387,378,380,2025-05-27T11:40:24.729774
25129,-0.4436,0.9853,0.2284,4.200,-51.030,-68.285,367,398,394,382,395,2025-05-27T11:40:24.729774
25130,-0.4665,0.9770,0.2474,2.905,-59.535,-66.290,400,349,389,387,401,2025-05-27T11:40:24.729774
25131,-0.4865,0.9521,0.2621,2.520,-69.650,-63.245,405,415,393,384,314,2025-05-27T11:40:24.729774
25132,-0.4709,0.9233,0.2772,2.135,-79.450,-59.465,374,409,383,337,372,2025-05-27T11:40:24.729774
25133,-0.4455,0.8950,0.2752,1.715,-85.925,-54.705,337,396,338,374,385,2025-05-27T11:40:24.729774
25134,-0.4163,0.8740,0.2669,1.295,-91.140,-51.240,378,375,351,396,346,2025-05-27T11:40:24.729774
25135,-0.3933,0.8574,0.2542,0.455,-93.310,-47.705,419,414,362,351,357,2025-05-27T11:40:24.729774
25136,-0.3762,0.8472,0.2450,-1.225,-93.765,-45.150,427,413,370,383,393,2025-05-27T11:40:24.729774
25137,-0.3538,0.8374,0.2372,-3.745,-93.380,-43.190,425,402,348,400,368,2025-05-27T11:40:24.729774
25138,-0.3250,0.8345,0.2225,-6.405,-91.420,-41.545,424,361,355,389,396,2025-05-27T11:40:24.729774
25139,-0.2943,0.8223,0.2094,-10.535,-87.815,-42.070,345,390,383,387,405,2025-05-27T11:40:24.729774
25140,-0.2791,0.8052,0.1981,-15.330,-80.850,-43.855,396,359,384,422,404,2025-05-27T11:40:24.729774
25141,-0.2728,0.7964,0.1952,-20.755,-73.850,-46.970,426,369,371,407,397,2025-05-27T11:40:24.729774
25142,-0.2806,0.7910,0.1952,-26.390,-67.165,-50.505,402,388,385,413,402,2025-05-27T11:40:24.729774
25143,-0.3021,0.8081,0.2030,-31.955,-61.215,-54.075,357,398,381,391,409,2025-05-27T11:40:24.729774
25144,-0.3250,0.8150,0.2040,-35.840,-57.295,-56.490,411,411,390,355,405,2025-05-27T11:40:24.729774
25145,-0.3675,0.7969,0.2094,-39.480,-55.685,-58.205,405,421,377,397,398,2025-05-27T11:40:24.729774
25146,-0.3792,0.7930,0.2152,-42.140,-54.530,-58.905,402,398,388,398,399,2025-05-27T11:40:24.729774
25147,-0.4148,0.7906,0.2362,-44.835,-52.955,-58.450,419,412,353,413,350,2025-05-27T11:40:24.729774
25148,-0.4314,0.7828,0.2533,-47.355,-51.275,-56.105,403,401,374,424,358,2025-05-27T11:40:24.729774
25149,-0.4641,0.7725,0.2625,-49.175,-49.315,-52.115,365,338,381,425,376,2025-05-27T11:40:24.729774
25150,-0.4865,0.7759,0.2679,-50.120,-45.430,-47.180,409,405,375,410,398,2025-05-27T11:40:24.729774
25151,-0.5163,0.7788,0.2562,-50.820,-39.060,-42.035,431,419,373,395,391,2025-05-27T11:40:24.729774
25152,-0.5378,0.7710,0.2455,-52.045,-30.870,-37.205,422,393,339,396,351,2025-05-27T11:40:24.729774
25153,-0.5519,0.7623,0.2474,-53.620,-23.170,-31.500,431,418,366,414,386,2025-05-27T11:40:24.729774
25154,-0.5632,0.7662,0.2606,-56.315,-10.850,-27.125,382,379,370,359,378,2025-05-27T11:40:24.729774
25155,-0.5749,0.7632,0.2679,-60.130,4.445,-21.945,426,396,384,380,382,2025-05-27T11:40:24.729774
25156,-0.5929,0.7574,0.2542,-63.665,21.385,-17.640,439,420,390,408,403,2025-05-27T11:40:24.729774
25157,-0.6242,0.7501,0.2430,-65.800,37.800,-14.630,408,346,380,403,385,2025-05-27T11:40:24.729774
25158,-0.6808,0.7374,0.2323,-66.920,53.165,-12.985,405,411,367,385,405,2025-05-27T11:40:24.729774
25159,-0.7310,0.7247,0.2181,-67.690,71.190,-12.390,424,397,368,351,402,2025-05-27T11:40:24.729774
25160,-0.7559,0.7193,0.2181,-68.180,71.785,-11.935,401,393,337,401,351,2025-05-27T11:40:24.729774
25161,-0.7867,0.7120,0.2220,-68.810,80.220,-11.165,395,390,373,406,379,2025-05-27T11:40:24.729774
25162,-0.8159,0.6959,0.2162,-68.985,85.995,-9.940,411,412,345,416,389,2025-05-27T11:40:24.729774
25163,-0.8423,0.6793,0.2103,-68.285,88.725,-8.050,339,400,375,403,408,2025-05-27T11:40:24.729774
25164,-0.8628,0.6715,0.2020,-67.095,89.600,-6.440,398,352,376,411,391,2025-05-27T11:40:24.729774
25165,-0.8838,0.6671,0.1952,-66.080,89.040,-5.775,391,392,377,406,390,2025-05-27T11:40:24.729774
25166,-0.8965,0.6661,0.1942,-64.575,87.395,-5.600,369,414,376,399,403,2025-05-27T11:40:24.729774
25167,-0.8930,0.6505,0.1908,-63.105,84.805,-5.460,394,421,377,384,409,2025-05-27T11:40:24.729774
25168,-0.8955,0.6403,0.1820,-61.250,82.670,-5.075,411,348,341,378,396,2025-05-27T11:40:24.729774
25169,-0.8921,0.6227,0.1845,-59.045,80.640,-4.655,394,400,373,396,415,2025-05-27T11:40:24.729774
25170,-0.8950,0.6120,0.1840,-56.175,78.400,-3.745,411,422,304,389,353,2025-05-27T11:40:24.729774
25171,-0.9101,0.5978,0.1908,-52.990,76.055,-2.380,423,392,344,390,373,2025-05-27T11:40:24.729774
25172,-0.9155,0.5949,0.1976,-49.315,72.835,-0.700,417,413,361,387,379,2025-05-27T11:40:24.729774
25173,-0.9140,0.5934,0.2020,-45.920,69.440,1.050,424,434,367,382,408,2025-05-27T11:40:24.729774
25174,-0.9130,0.5871,0.2050,-41.685,67.270,2.695,371,425,364,347,385,2025-05-27T11:40:24.729774
25175,-0.9028,0.5802,0.2064,-37.170,64.785,4.025,399,425,373,387,402,2025-05-27T11:40:24.729774
25176,-0.8833,0.5758,0.2030,-32.725,62.685,5.845,398,434,389,394,407,2025-05-27T11:40:24.729774
25177,-0.8652,0.5685,0.2020,-28.350,61.635,7.665,416,391,382,415,411,2025-05-27T11:40:24.729774
25178,-0.8530,0.5710,0.1967,-24.430,61.775,9.415,405,336,354,398,413,2025-05-27T11:40:24.729774
25179,-0.8457,0.5817,0.1854,-21.700,62.860,10.605,414,404,373,399,354,2025-05-27T11:40:24.729774
25180,-0.8457,0.5812,0.1757,-18.620,64.015,11.340,421,426,387,415,395,2025-05-27T11:40:24.729774
25181,-0.8413,0.5793,0.1659,-15.610,64.645,11.620,402,414,391,418,404,2025-05-27T11:40:24.729774
25182,-0.8350,0.5739,0.1498,-12.320,65.065,11.480,418,376,387,396,408,2025-05-27T11:40:24.729774
25183,-0.8389,0.5714,0.1386,-9.170,65.170,11.025,427,419,391,343,396,2025-05-27T11:40:24.729774
25184,-0.8330,0.5685,0.1279,-5.845,63.840,10.150,364,408,348,396,413,2025-05-27T11:40:24.729774
25185,-0.8306,0.5661,0.1191,-2.695,62.230,9.345,393,415,369,397,392,2025-05-27T11:40:24.729774
25186,-0.8340,0.5646,0.1093,-0.455,60.340,8.120,417,422,385,405,399,2025-05-27T11:40:24.729774
25187,-0.8345,0.5632,0.1020,2.170,58.345,6.790,416,371,386,418,408,2025-05-27T11:40:24.729774
25188,-0.8384,0.5553,0.0932,4.235,55.160,5.740,426,415,386,423,403,2025-05-27T11:40:24.729774
25189,-0.8438,0.5451,0.0815,6.300,51.415,4.690,400,411,375,419,408,2025-05-27T11:40:24.729774
25190,-0.8379,0.5436,0.0742,8.225,47.075,3.885,420,381,372,405,400,2025-05-27T11:40:24.729774
25192,-0.8384,0.5573,0.0439,10.745,34.650,0.350,383,434,369,401,406,2025-05-27T11:40:27.859298
25193,0.1864,-6.6573,-0.0722,-541.065,-267.015,-468.090,468,440,255,413,364,2025-05-27T11:40:27.859298
25194,-0.1859,-8.2243,0.3372,-572.950,-332.850,-458.080,389,405,305,352,390,2025-05-27T11:40:27.859298
25195,0.3767,-7.7133,0.6769,-558.950,-442.260,-384.790,364,308,338,378,387,2025-05-27T11:40:27.859298
25196,1.0228,-6.0361,-2.1018,-288.715,-549.605,-445.270,404,386,365,381,384,2025-05-27T11:40:27.859298
25197,2.8602,-2.9026,-1.1932,94.640,-434.420,-430.710,399,382,382,410,388,2025-05-27T11:40:27.859298
25198,4.1626,0.0664,-0.0122,245.000,104.650,-251.860,432,413,388,410,414,2025-05-27T11:40:27.859298
25199,3.1076,0.8642,-0.1059,106.890,609.105,189.035,406,408,396,425,414,2025-05-27T11:40:27.859298
25200,1.7871,-0.5675,-0.3904,-43.855,907.445,348.915,411,415,394,401,397,2025-05-27T11:40:27.859298
25201,0.7549,-1.5611,-0.1010,-52.920,946.575,390.005,421,412,358,358,407,2025-05-27T11:40:27.859298
25202,-0.6686,-1.9715,0.6866,-10.675,805.910,347.795,403,419,328,360,355,2025-05-27T11:40:27.859298
25203,-0.9716,-2.0398,1.2678,62.090,644.315,304.920,405,393,352,391,387,2025-05-27T11:40:27.859298
25204,-0.9789,-1.4821,1.4869,86.660,467.285,307.055,421,420,361,380,385,2025-05-27T11:40:27.859298
25205,-1.1858,-1.5138,1.3937,107.030,337.505,315.805,421,429,372,406,404,2025-05-27T11:40:28.042831
25206,-1.1063,-1.5074,1.4176,125.125,235.760,279.440,422,440,354,353,343,2025-05-27T11:40:28.043348
25207,-0.8301,-0.9809,1.1834,153.545,190.995,263.760,401,343,362,334,340,2025-05-27T11:40:28.043348
25208,-0.5690,-0.5334,0.9638,156.170,197.855,255.570,409,389,330,350,370,2025-05-27T11:40:28.043348
25209,-0.3797,-0.1571,0.8072,150.465,225.120,247.905,410,425,367,377,392,2025-05-27T11:40:28.043348
25210,-0.4285,0.1108,0.6403,142.975,250.810,232.995,347,393,375,402,347,2025-05-27T11:40:28.043348
25211,-0.4753,0.3558,0.3606,138.040,287.910,209.370,408,371,369,381,374,2025-05-27T11:40:28.043348
25212,-0.4900,0.5251,0.2206,126.070,307.265,186.515,420,405,373,400,378,2025-05-27T11:40:28.043446
25213,-0.4651,0.6534,0.2089,114.240,311.675,178.430,422,402,387,410,400,2025-05-27T11:40:28.043466
25214,-0.5675,0.6578,0.2084,111.650,288.785,179.795,424,357,374,398,411,2025-05-27T11:40:28.043466
25215,-0.6422,0.5714,0.1571,121.765,239.820,180.845,422,415,367,408,412,2025-05-27T11:40:28.043500
25216,-0.7013,0.4841,0.1039,144.935,176.470,176.400,306,373,379,407,392,2025-05-27T11:40:28.043500
25217,-0.5456,0.5549,-0.0039,176.890,112.315,169.225,381,394,376,420,414,2025-05-27T11:40:28.043500
25218,-0.3157,0.7193,-0.1937,207.795,73.115,158.165,394,349,383,395,396,2025-05-27T11:40:28.043500
25219,-0.0054,0.8691,-0.3928,224.980,67.095,141.225,418,288,351,384,347,2025-05-27T11:40:28.043500
25220,0.3553,1.1214,-0.5168,233.135,84.280,125.125,388,399,361,405,386,2025-05-27T11:40:28.130234
25221,0.5080,1.3381,-0.5578,222.530,109.515,110.215,434,413,375,352,345,2025-05-27T11:40:28.130234
25222,0.4939,1.5553,-0.5002,199.325,140.770,98.700,406,424,387,395,391,2025-05-27T11:40:28.130234
25223,0.3440,1.6846,-0.3787,173.600,157.745,90.020,418,431,378,419,407,2025-05-27T11:40:28.130234
25224,0.1932,1.8149,-0.2747,155.225,142.030,82.180,426,427,381,351,389,2025-05-27T11:40:28.238932
25225,0.1435,2.0374,-0.1986,143.360,107.520,80.185,390,412,385,389,348,2025-05-27T11:40:28.238932
25226,0.1718,2.3004,-0.1274,129.325,71.085,82.180,419,422,381,409,366,2025-05-27T11:40:28.238932
25227,0.2640,2.5708,-0.0498,108.570,43.785,84.105,425,428,385,410,379,2025-05-27T11:40:28.238932
25228,0.3597,2.7255,0.0254,78.085,28.490,86.940,427,410,393,407,398,2025-05-27T11:40:28.238932
25229,0.3792,2.7294,0.1596,44.905,26.600,90.055,421,411,394,413,389,2025-05-27T11:40:28.238932
25230,0.3167,2.5796,0.2352,-0.280,26.985,87.465,399,408,389,408,395,2025-05-27T11:40:28.238932
25231,0.1444,2.2263,0.2357,-40.705,26.285,79.940,402,424,352,422,402,2025-05-27T11:40:28.238932
25232,-0.0395,1.9344,0.1288,-68.355,11.865,70.805,418,385,356,377,381,2025-05-27T11:40:28.238932
25233,-0.1337,1.5553,0.0322,-75.705,-9.800,67.410,419,338,324,405,400,2025-05-27T11:40:28.238932
25234,-0.2133,1.2444,-0.0307,-70.210,-35.980,70.245,423,404,365,398,410,2025-05-27T11:40:28.238932
25235,-0.2279,1.0663,0.0229,-59.815,-60.480,76.895,425,418,372,405,412,2025-05-27T11:40:28.238932
25236,-0.2416,0.9140,0.0781,-54.670,-75.810,80.220,436,388,342,351,411,2025-05-27T11:40:28.238932
25237,-0.2250,0.7832,0.0820,-53.550,-85.855,78.540,426,425,357,400,417,2025-05-27T11:40:28.326470
25238,-0.1405,0.7071,0.0478,-51.065,-87.990,73.570,421,418,336,414,418,2025-05-27T11:40:28.326470
25239,-0.1166,0.6027,0.0146,-44.905,-82.425,64.085,411,420,318,353,400,2025-05-27T11:40:28.326470
25240,-0.0234,0.5788,-0.0024,-35.945,-73.920,53.865,389,411,343,368,419,2025-05-27T11:40:28.326470
25241,0.0508,0.5885,-0.0039,-28.945,-59.780,43.995,419,429,369,336,403,2025-05-27T11:40:28.326470
25242,0.0800,0.6041,-0.0034,-21.385,-44.030,31.815,400,414,377,385,414,2025-05-27T11:40:28.326470
25243,0.0913,0.6154,-0.0107,-15.575,-22.505,18.235,339,414,374,408,364,2025-05-27T11:40:28.326470
25244,0.1108,0.6378,-0.0024,-10.710,-2.310,7.315,388,400,334,406,341,2025-05-27T11:40:28.326470
25245,0.0932,0.6725,-0.0044,-6.825,16.310,-5.460,380,421,358,353,383,2025-05-27T11:40:28.443326
25246,0.0630,0.7037,0.0029,-3.185,30.275,-17.115,328,378,376,395,384,2025-05-27T11:40:28.443326
25247,0.0010,0.7315,0.0024,0.560,38.185,-27.405,380,420,391,414,356,2025-05-27T11:40:28.443326
25248,-0.0542,0.7623,0.0137,5.705,40.600,-36.680,423,427,372,360,382,2025-05-27T11:40:28.443326
25249,-0.1196,0.7969,0.0151,11.235,38.640,-42.770,385,421,385,377,386,2025-05-27T11:40:28.443326
25250,-0.1728,0.8325,0.0425,15.365,32.270,-48.650,419,421,379,382,416,2025-05-27T11:40:28.443326
25251,-0.2098,0.8989,0.0625,17.535,24.745,-52.255,357,395,384,347,411,2025-05-27T11:40:28.443326
25252,-0.2503,0.9394,0.0659,17.920,18.690,-54.530,382,395,388,329,406,2025-05-27T11:40:28.443326
25253,-0.3055,0.9716,0.0800,17.990,12.565,-55.720,394,400,389,380,354,2025-05-27T11:40:28.443326
25254,-0.3782,0.9984,0.0981,18.200,6.825,-54.670,393,392,358,385,367,2025-05-27T11:40:28.703584
25255,-0.4085,1.0350,0.1230,17.150,-1.750,-51.450,401,389,329,390,390,2025-05-27T11:40:28.703584
25256,-0.4480,1.0502,0.1225,15.505,-10.815,-47.250,414,346,351,409,388,2025-05-27T11:40:28.703584
25257,-0.4729,1.0551,0.1059,14.280,-19.180,-41.265,346,393,364,370,398,2025-05-27T11:40:28.703584
25258,-0.4563,1.0590,0.1035,13.685,-25.760,-34.720,362,416,333,395,404,2025-05-27T11:40:28.703584
25259,-0.4377,1.0546,0.1039,12.600,-27.580,-28.350,399,404,324,351,399,2025-05-27T11:40:28.703584
25260,-0.3924,1.0472,0.1000,10.360,-26.460,-22.715,419,413,343,389,417,2025-05-27T11:40:28.703584
25261,-0.2552,1.0180,0.0839,8.680,-22.925,-17.885,411,405,358,396,412,2025-05-27T11:40:28.703584
25262,-0.3445,1.0038,0.0732,8.120,-18.690,-14.630,426,369,328,392,406,2025-05-27T11:40:28.703584
25263,-0.3460,0.9750,0.0659,7.840,-13.895,-11.725,409,410,367,382,401,2025-05-27T11:40:28.703584
25264,-0.3353,0.9658,0.0532,8.365,-10.815,-9.170,405,404,301,380,407,2025-05-27T11:40:28.703584
25265,-0.3465,0.9433,0.0410,9.380,-10.395,-6.650,339,330,338,348,415,2025-05-27T11:40:28.703584
25266,-0.3314,0.9443,0.0425,10.955,-11.445,-4.235,402,410,355,376,361,2025-05-27T11:40:28.703584
25267,-0.3367,0.9257,0.0312,11.935,-14.455,-2.940,419,411,360,352,339,2025-05-27T11:40:28.703584
25268,-0.3201,0.9252,0.0307,12.390,-18.235,-2.345,420,399,358,386,357,2025-05-27T11:40:28.703584
25269,-0.2801,0.9287,0.0264,12.180,-19.740,-2.345,419,414,379,404,345,2025-05-27T11:40:28.703584
25270,-0.2577,0.9257,0.0185,11.410,-18.795,-3.045,414,401,368,370,369,2025-05-27T11:40:28.703584
25271,-0.2523,0.9277,0.0107,10.640,-17.360,-4.095,405,404,378,405,391,2025-05-27T11:40:28.703584
25272,-0.2499,0.9384,0.0195,10.150,-16.205,-4.865,402,416,346,409,402,2025-05-27T11:40:28.703584
25273,-0.2542,0.9428,0.0229,9.135,-14.035,-5.390,427,388,376,352,307,2025-05-27T11:40:28.703584
25274,-0.2582,0.9482,0.0156,8.855,-13.755,-5.670,418,426,386,371,367,2025-05-27T11:40:28.855971
25275,-0.2718,0.9589,0.0181,9.380,-14.595,-5.985,399,418,378,389,389,2025-05-27T11:40:28.855971
25276,-0.2689,0.9745,0.0195,9.660,-14.630,-6.825,389,423,366,390,402,2025-05-27T11:40:28.855971
25277,-0.2684,0.9819,0.0239,9.205,-13.510,-8.085,423,397,334,392,405,2025-05-27T11:40:28.855971
25278,-0.2743,0.9955,0.0176,8.925,-11.235,-9.170,401,416,332,410,356,2025-05-27T11:40:28.855971
25279,-0.2923,1.0014,0.0254,8.260,-9.100,-10.185,417,398,314,405,381,2025-05-27T11:40:28.855971
25280,-0.3089,1.0092,0.0200,6.930,-7.210,-10.430,410,381,355,397,402,2025-05-27T11:40:28.855971
25281,-0.3367,1.0116,0.0264,5.145,-6.685,-9.695,434,434,381,408,407,2025-05-27T11:40:28.855971
25282,-0.3460,1.0160,0.0312,3.045,-6.125,-8.610,345,413,386,410,407,2025-05-27T11:40:28.855971
25283,-0.3631,1.0175,0.0415,0.700,-5.985,-7.035,326,416,375,401,392,2025-05-27T11:40:28.855971
25284,-0.3650,1.0204,0.0473,-2.555,-5.985,-5.635,343,404,344,350,341,2025-05-27T11:40:28.855971
25285,-0.3836,1.0126,0.0498,-5.810,-6.335,-3.920,388,425,359,381,383,2025-05-27T11:40:28.855971
25286,-0.3797,1.0072,0.0561,-8.470,-7.350,-2.275,389,415,364,349,388,2025-05-27T11:40:28.855971
25287,-0.3870,0.9980,0.0610,-10.150,-8.225,-0.350,394,402,379,392,414,2025-05-27T11:40:28.855971
25288,-0.3777,0.9833,0.0630,-12.425,-8.890,1.750,397,395,388,404,358,2025-05-27T11:40:29.059798
25289,-0.3723,0.9701,0.0693,-13.930,-9.800,3.675,421,395,382,411,393,2025-05-27T11:40:29.059798
25290,-0.3699,0.9550,0.0766,-14.665,-10.955,5.250,422,395,384,411,397,2025-05-27T11:40:29.059798
25291,-0.3518,0.9453,0.0761,-15.190,-12.075,6.825,401,415,378,401,348,2025-05-27T11:40:29.059798
25292,-0.3362,0.9301,0.0688,-15.540,-12.880,7.980,378,380,349,389,388,2025-05-27T11:40:29.059798
25293,-0.3245,0.9165,0.0625,-14.910,-13.300,8.295,423,339,373,349,380,2025-05-27T11:40:29.059798
25294,-0.3138,0.8989,0.0586,-14.070,-12.985,8.015,350,390,378,347,401,2025-05-27T11:40:29.059798
25295,-0.3001,0.8896,0.0664,-13.125,-12.250,7.525,333,402,343,329,394,2025-05-27T11:40:29.059798
25296,-0.2987,0.8808,0.0708,-12.635,-11.200,7.000,407,411,370,326,365,2025-05-27T11:40:29.059798
25297,-0.2889,0.8774,0.0605,-11.550,-10.185,6.125,397,426,368,384,389,2025-05-27T11:40:29.059798
25298,-0.2786,0.8774,0.0610,-9.695,-8.645,5.180,420,431,365,403,400,2025-05-27T11:40:29.059798
25299,-0.2694,0.8813,0.0639,-7.560,-5.915,3.500,376,387,379,402,391,2025-05-27T11:40:29.059798
25300,-0.2630,0.8813,0.0605,-6.545,-3.185,1.435,400,432,378,403,343,2025-05-27T11:40:29.059798
25301,-0.2567,0.8877,0.0561,-5.075,0.420,-0.210,417,429,371,403,384,2025-05-27T11:40:29.059798
25302,-0.2640,0.8882,0.0595,-3.745,3.570,-2.275,365,419,381,407,342,2025-05-27T11:40:29.059798
25303,-0.2811,0.8940,0.0722,-2.905,5.460,-4.130,391,419,385,414,386,2025-05-27T11:40:29.059798
25304,-0.2967,0.9008,0.0791,-2.380,5.320,-5.320,395,394,390,408,350,2025-05-27T11:40:29.059798
25305,-0.3274,0.8994,0.0771,-1.435,4.130,-6.265,418,419,369,409,376,2025-05-27T11:40:29.161811
25306,-0.3362,0.9038,0.0820,-0.070,1.470,-6.790,400,412,385,396,399,2025-05-27T11:40:29.161811
25307,-0.3514,0.9096,0.0888,0.665,-1.050,-6.825,404,401,388,417,398,2025-05-27T11:40:29.161811
25308,-0.3577,0.9106,0.0878,0.805,-3.045,-7.000,301,393,384,401,389,2025-05-27T11:40:29.161811
25309,-0.3665,0.9194,0.0927,0.665,-4.060,-6.195,398,439,375,401,386,2025-05-27T11:40:29.161811
25310,-0.3684,0.9228,0.0956,0.630,-4.340,-4.935,391,418,344,400,403,2025-05-27T11:40:29.161811
25311,-0.3743,0.9223,0.1054,-0.105,-4.235,-3.710,393,400,356,406,365,2025-05-27T11:40:29.161811
25312,-0.3782,0.9243,0.1088,-1.015,-4.410,-2.065,405,341,358,351,390,2025-05-27T11:40:29.161811
25313,-0.3884,0.9194,0.1122,-1.715,-4.865,-0.980,420,390,336,397,404,2025-05-27T11:40:29.161811
25314,-0.3738,0.9165,0.1113,-1.365,-6.125,0.770,420,420,365,401,404,2025-05-27T11:40:29.231861
25315,-0.3645,0.9282,0.1200,-1.120,-6.650,2.170,406,400,345,408,363,2025-05-27T11:40:29.231861
25316,-0.3543,0.9321,0.1181,-1.260,-6.580,2.905,414,403,361,404,374,2025-05-27T11:40:29.231861
25317,-0.3362,0.9394,0.1118,-0.700,-6.195,3.325,426,432,356,372,396,2025-05-27T11:40:29.231861
25318,-0.3304,0.9365,0.1044,0.455,-5.355,3.325,436,305,371,387,401,2025-05-27T11:40:29.376731
25319,-0.3245,0.9365,0.1176,1.715,-4.830,3.185,426,379,380,409,406,2025-05-27T11:40:29.376731
25320,-0.3299,0.9360,0.1308,2.030,-4.830,3.045,428,390,351,391,389,2025-05-27T11:40:29.376731
25321,-0.3231,0.9311,0.1200,1.785,-5.215,3.185,431,409,328,415,387,2025-05-27T11:40:29.376731
25322,-0.3294,0.9272,0.1157,2.240,-5.740,2.835,392,418,365,391,392,2025-05-27T11:40:29.376731
25323,-0.3187,0.9267,0.1157,2.660,-6.335,2.590,416,353,368,347,361,2025-05-27T11:40:29.376731
25324,-0.3143,0.9277,0.1113,3.115,-6.475,2.065,414,289,331,326,380,2025-05-27T11:40:29.376731
25325,-0.3138,0.9316,0.1059,3.465,-6.475,1.645,411,367,337,321,395,2025-05-27T11:40:29.376731
25326,-0.3084,0.9326,0.0922,4.200,-6.615,1.505,422,389,364,345,408,2025-05-27T11:40:29.389331
25327,-0.3065,0.9360,0.0898,4.900,-6.125,1.050,415,396,376,384,416,2025-05-27T11:40:29.389331
25328,-0.3026,0.9355,0.0849,5.180,-5.075,0.420,392,419,386,304,412,2025-05-27T11:40:29.389331
25329,-0.3001,0.9374,0.0849,5.040,-4.410,-0.175,389,403,339,373,405,2025-05-27T11:40:29.389331
25330,-0.2977,0.9374,0.0810,4.935,-3.395,-0.910,407,418,357,388,406,2025-05-27T11:40:29.389331
25331,-0.2918,0.9394,0.0786,4.480,-2.555,-2.065,418,403,365,395,396,2025-05-27T11:40:29.389331
25332,-0.2928,0.9409,0.0761,4.095,-1.715,-3.220,420,409,374,393,384,2025-05-27T11:40:29.475221
25333,-0.2982,0.9370,0.0776,3.640,-1.680,-4.550,402,348,390,417,348,2025-05-27T11:40:29.475221
25334,-0.3074,0.9350,0.0815,3.605,-2.730,-5.460,358,409,386,402,401,2025-05-27T11:40:29.475221
25335,-0.3182,0.9326,0.0830,3.430,-4.410,-5.915,401,419,371,396,395,2025-05-27T11:40:29.475221
25336,-0.3245,0.9262,0.0820,3.465,-6.055,-6.020,392,424,345,386,401,2025-05-27T11:40:29.475221
25337,-0.3250,0.9292,0.0849,3.360,-6.720,-5.705,401,399,355,401,389,2025-05-27T11:40:29.575947
25338,-0.3284,0.9292,0.0913,2.870,-6.580,-5.285,341,411,371,386,389,2025-05-27T11:40:29.575947
25339,-0.3294,0.9262,0.0869,2.135,-5.635,-4.585,370,301,374,398,393,2025-05-27T11:40:29.575947
25340,-0.3431,0.9223,0.0766,1.750,-4.760,-4.060,380,404,395,395,384,2025-05-27T11:40:29.575947
25341,-0.3558,0.9218,0.0839,1.925,-5.180,-3.290,390,424,383,390,405,2025-05-27T11:40:29.576068
25342,-0.3601,0.9282,0.0952,2.065,-5.845,-2.100,392,360,378,367,403,2025-05-27T11:40:30.092652
25343,-0.3558,0.9316,0.0922,1.925,-6.755,-1.295,411,382,341,373,401,2025-05-27T11:40:30.092652
25344,-0.3494,0.9316,0.0800,2.135,-7.455,-0.945,387,405,372,397,386,2025-05-27T11:40:30.092652
25345,-0.3606,0.9165,0.0805,2.625,-8.365,-1.225,419,414,386,409,400,2025-05-27T11:40:30.092652
25346,-0.3445,0.9384,0.0952,2.730,-8.575,-0.350,427,410,399,388,407,2025-05-27T11:40:30.092652
25347,-0.3382,0.9409,0.0996,1.575,-7.350,-0.035,392,400,360,407,404,2025-05-27T11:40:30.092652
25348,-0.3309,0.9414,0.0869,0.420,-5.985,0.035,394,384,336,368,312,2025-05-27T11:40:30.092652
25349,-0.3440,0.9321,0.0893,0.245,-5.670,-0.490,403,388,316,334,383,2025-05-27T11:40:30.092652
25350,-0.3328,0.9457,0.1010,0.315,-6.055,0.000,388,399,339,365,385,2025-05-27T11:40:30.092652
25351,-0.3274,0.9457,0.1044,-0.280,-6.615,0.420,411,338,324,340,386,2025-05-27T11:40:30.092652
25352,-0.3177,0.9433,0.0908,-0.420,-7.035,0.420,401,405,351,394,417,2025-05-27T11:40:30.092652
25353,-0.3314,0.9370,0.0908,0.210,-7.455,0.000,420,397,373,394,412,2025-05-27T11:40:30.092652
25354,-0.3128,0.9448,0.0937,0.595,-7.735,0.140,422,427,366,417,394,2025-05-27T11:40:30.092652
25355,-0.3021,0.9472,0.1020,0.105,-6.895,0.420,407,397,381,395,405,2025-05-27T11:40:30.092652
25356,-0.2904,0.9448,0.1010,-0.875,-5.425,-8.750,410,429,384,418,411,2025-05-27T11:40:30.092652
25357,-0.2811,0.9399,0.0956,-1.505,-3.710,-1.190,393,423,385,412,405,2025-05-27T11:40:30.092652
25358,-0.2967,0.9316,0.0839,-1.330,-2.905,-2.205,392,373,379,393,386,2025-05-27T11:40:30.092652
25359,-0.3162,0.9223,0.0888,-0.805,-3.990,-3.115,426,353,371,403,400,2025-05-27T11:40:30.092652
25360,-0.3401,0.9184,0.0922,-0.385,-5.880,-3.535,380,389,367,397,402,2025-05-27T11:40:30.092652
25361,-0.3484,0.9126,0.0913,-0.315,-7.140,-3.360,392,379,363,344,387,2025-05-27T11:40:30.092652
25362,-0.3572,0.9087,0.0805,0.175,-8.050,-2.555,395,394,345,386,401,2025-05-27T11:40:30.092652
25363,-0.3631,0.9048,0.0786,0.805,-8.750,-1.435,392,422,364,368,371,2025-05-27T11:40:30.092652
25364,-0.3567,0.9091,0.0776,1.015,-8.155,-0.735,415,421,372,409,377,2025-05-27T11:40:30.092652
25365,-0.3436,0.9135,0.0776,0.910,-6.230,0.175,416,351,386,403,376,2025-05-27T11:40:30.092652
25366,-0.3318,0.9174,0.0756,0.315,-3.745,0.875,412,424,345,406,390,2025-05-27T11:40:30.092652
25367,-0.3245,0.9223,0.0791,-0.175,0.175,1.085,347,431,367,394,393,2025-05-27T11:40:30.092652
25368,-0.3338,0.9252,0.0791,-0.805,3.500,0.735,381,430,384,410,387,2025-05-27T11:40:30.092652
25369,-0.3504,0.9233,0.0956,-1.085,4.165,0.315,411,425,374,425,386,2025-05-27T11:40:30.092652
25370,-0.3684,0.9228,0.0952,-1.190,2.870,0.455,363,436,375,393,401,2025-05-27T11:40:30.092652
25371,-0.3728,0.9199,0.0971,-1.050,-0.175,0.385,401,402,305,392,389,2025-05-27T11:40:30.092652
25372,-0.3719,0.9204,0.1030,-0.875,-3.255,0.175,391,391,333,411,395,2025-05-27T11:40:30.092652
25373,-0.3714,0.9189,0.1044,-0.700,-6.125,-0.350,415,419,345,415,397,2025-05-27T11:40:30.092652
25374,-0.3567,0.9199,0.1093,-0.280,-8.050,-0.280,419,393,353,394,414,2025-05-27T11:40:30.092652
25375,-0.3436,0.9218,0.1064,0.105,-8.960,0.105,397,386,368,408,417,2025-05-27T11:40:30.092652
25376,-0.3401,0.9272,0.1049,0.105,-9.065,-0.035,415,391,334,413,356,2025-05-27T11:40:30.092652
25377,-0.3333,0.9252,0.1015,0.210,-8.085,-0.560,411,418,352,415,379,2025-05-27T11:40:30.092652
25378,-0.3226,0.9257,0.1030,0.455,-6.930,-0.875,399,405,366,409,396,2025-05-27T11:40:30.092652
25379,-0.3211,0.9243,0.0986,0.385,-5.180,-1.225,391,423,369,415,399,2025-05-27T11:40:30.092652
25380,-0.3226,0.9243,0.1005,0.385,-3.640,-1.715,413,407,381,416,410,2025-05-27T11:40:30.092652
25381,-0.3299,0.9194,0.0947,0.525,-2.380,-1.960,372,423,376,402,401,2025-05-27T11:40:30.092652
25382,-0.3377,0.9209,0.0878,1.015,-2.135,-1.960,384,427,366,307,405,2025-05-27T11:40:30.109518
25383,-0.3426,0.9213,0.0869,1.645,-2.730,-1.785,396,397,372,372,415,2025-05-27T11:40:30.109518
25384,-0.3577,0.9194,0.0839,1.925,-3.500,-1.925,406,412,374,395,408,2025-05-27T11:40:30.109518
25385,-0.3533,0.9150,0.0854,2.380,-4.200,-1.505,345,420,390,389,397,2025-05-27T11:40:30.109518
25386,-0.3538,0.9213,0.0844,2.205,-4.410,-1.085,333,398,401,399,408,2025-05-27T11:40:30.109518
25387,-0.3489,0.9228,0.0805,1.435,-4.130,-0.595,359,421,401,405,418,2025-05-27T11:40:30.109518
25388,-0.3514,0.9228,0.0742,1.225,-3.990,-0.525,409,404,385,412,408,2025-05-27T11:40:30.109518
25389,-0.3479,0.9204,0.0737,1.330,-4.130,-0.455,379,416,375,408,374,2025-05-27T11:40:30.109518
25390,-0.3494,0.9209,0.0854,1.295,-4.165,-0.210,392,384,369,407,395,2025-05-27T11:40:30.109518
25391,-0.3411,0.9238,0.0854,0.280,-3.360,-0.035,389,424,370,419,384,2025-05-27T11:40:30.109518
25392,-0.3362,0.9213,0.0810,-0.630,-2.345,0.035,417,346,370,408,400,2025-05-27T11:40:30.109518
25393,-0.3387,0.9228,0.0791,-0.840,-2.030,-0.210,375,397,340,401,346,2025-05-27T11:40:30.292547
25394,-0.3416,0.9228,0.0815,-0.595,-2.730,-0.665,395,416,291,381,386,2025-05-27T11:40:30.292547
25395,-0.3426,0.9223,0.0834,-0.245,-3.710,-1.295,404,411,331,407,386,2025-05-27T11:40:30.292547
25396,-0.3357,0.9218,0.0883,0.385,-4.865,-1.575,429,423,362,418,391,2025-05-27T11:40:30.292547
25397,-0.3299,0.9257,0.0952,0.630,-5.145,-2.135,416,358,369,387,393,2025-05-27T11:40:30.292547
25398,-0.3353,0.9218,0.0966,0.455,-4.760,-2.870,416,391,337,404,405,2025-05-27T11:40:30.292547
25399,-0.3475,0.9189,0.0898,0.665,-5.110,-3.255,417,420,360,425,400,2025-05-27T11:40:30.292547
25400,-0.3572,0.9155,0.0961,1.295,-6.160,-3.675,425,432,332,314,349,2025-05-27T11:40:30.292547
25401,-0.3631,0.9204,0.0986,2.030,-7.665,-3.640,414,442,283,340,346,2025-05-27T11:40:30.292547
25402,-0.3611,0.9160,0.0961,2.485,-8.925,-3.220,419,422,333,386,374,2025-05-27T11:40:30.292547
25403,-0.3597,0.9189,0.1054,2.730,-9.135,-2.975,410,415,352,364,397,2025-05-27T11:40:30.292547
25404,-0.3499,0.9238,0.0981,2.905,-8.575,-2.730,422,350,338,388,405,2025-05-27T11:40:30.292547
25405,-0.3440,0.9282,0.1074,3.115,-7.630,-2.415,422,362,324,393,412,2025-05-27T11:40:30.292547
25406,-0.3421,0.9301,0.0976,2.520,-6.160,-2.310,416,415,313,400,420,2025-05-27T11:40:30.292547
25407,-0.3396,0.9267,0.0903,2.380,-4.865,-2.310,434,410,318,346,360,2025-05-27T11:40:30.292547
25408,-0.3465,0.9233,0.0874,2.415,-4.410,-2.310,419,410,346,381,389,2025-05-27T11:40:30.492955
25409,-0.3514,0.9213,0.0903,2.415,-4.865,-2.240,426,379,372,365,378,2025-05-27T11:40:30.492955
25410,-0.3494,0.9165,0.0839,2.030,-5.600,-2.240,420,409,376,338,343,2025-05-27T11:40:30.492955
25411,-0.3504,0.9135,0.0820,1.750,-6.545,-2.485,406,382,375,377,376,2025-05-27T11:40:30.492955
25412,-0.3523,0.9155,0.0825,1.750,-7.210,-2.940,431,389,380,343,373,2025-05-27T11:40:30.492955
25413,-0.3455,0.9155,0.0834,1.820,-7.700,-3.220,400,420,394,374,387,2025-05-27T11:40:30.492955
25414,-0.3421,0.9145,0.0839,1.995,-7.910,-3.465,403,398,391,384,405,2025-05-27T11:40:30.492955
25415,-0.3348,0.9155,0.0883,2.205,-7.910,-3.955,394,402,401,407,412,2025-05-27T11:40:30.492955
25416,-0.3318,0.9130,0.0874,2.275,-7.455,-4.830,410,413,384,414,419,2025-05-27T11:40:30.492955
25417,-0.3274,0.9067,0.0854,2.205,-6.825,-6.125,415,416,345,398,358,2025-05-27T11:40:30.492955
25418,-0.3309,0.9043,0.0815,2.100,-6.580,-7.420,431,401,367,400,341,2025-05-27T11:40:30.492955
25419,-0.3450,0.9008,0.0815,2.240,-6.720,-8.190,402,407,378,351,389,2025-05-27T11:40:30.492955
25420,-0.3528,0.9067,0.0893,2.415,-7.385,-9.240,390,410,372,354,394,2025-05-27T11:40:30.492955
25421,-0.3650,0.9126,0.0932,2.275,-7.910,-10.360,423,414,384,379,392,2025-05-27T11:40:30.492955
25422,-0.3660,0.9150,0.0893,1.890,-8.750,-11.480,413,408,355,408,386,2025-05-27T11:40:30.492955
25423,-0.3650,0.9121,0.0854,2.100,-9.730,-12.145,395,420,377,410,402,2025-05-27T11:40:30.492955
25424,-0.3694,0.9096,0.0864,2.520,-10.745,-12.810,396,350,375,413,398,2025-05-27T11:40:30.492955
25425,-0.3699,0.9082,0.0922,2.345,-11.620,-13.580,413,382,387,408,395,2025-05-27T11:40:30.592568
25426,-0.3680,0.9082,0.0991,1.680,-12.005,-14.000,417,423,372,376,406,2025-05-27T11:40:30.592568
25427,-0.3806,0.9091,0.0917,1.505,-12.985,-13.965,375,388,387,408,397,2025-05-27T11:40:30.592568
25428,-0.3860,0.9082,0.0922,1.925,-14.525,-13.790,417,418,386,350,361,2025-05-27T11:40:30.592568
25429,-0.3894,0.9130,0.0976,2.905,-16.555,-13.510,393,425,373,392,378,2025-05-27T11:40:30.592568
25430,-0.3845,0.9155,0.1000,3.290,-17.570,-13.195,399,401,340,403,401,2025-05-27T11:40:30.592568
25431,-0.3738,0.9155,0.0961,3.570,-17.465,-12.810,335,388,358,405,387,2025-05-27T11:40:30.592568
25432,-0.3684,0.9160,0.0961,3.955,-16.345,-12.250,321,424,378,412,384,2025-05-27T11:40:30.592568
25433,-0.3699,0.9135,0.0932,4.410,-14.735,-11.585,335,403,382,403,397,2025-05-27T11:40:30.592568
25434,-0.3733,0.9121,0.1000,4.900,-13.405,-10.920,396,426,389,343,380,2025-05-27T11:40:30.692697
25435,-0.3675,0.9140,0.0996,5.005,-11.830,-10.325,418,411,370,329,394,2025-05-27T11:40:30.692697
25436,-0.3728,0.9101,0.0932,5.145,-10.465,-10.010,408,415,367,377,411,2025-05-27T11:40:30.692697
25437,-0.3841,0.8989,0.0864,5.635,-9.765,-10.080,388,427,381,396,374,2025-05-27T11:40:30.692697
25438,-0.3860,0.8965,0.0869,6.230,-10.570,-9.835,379,341,377,392,380,2025-05-27T11:40:30.692697
25439,-0.3899,0.8926,0.0883,6.510,-11.410,-9.800,418,410,380,371,397,2025-05-27T11:40:30.692697
25440,-0.3987,0.8882,0.0864,6.615,-12.145,-10.010,430,371,384,389,400,2025-05-27T11:40:30.692697
25441,-0.4041,0.8843,0.0908,6.965,-13.335,-10.010,358,417,392,387,406,2025-05-27T11:40:30.692697
25442,-0.4036,0.8804,0.0961,7.385,-14.525,-9.975,334,413,388,388,415,2025-05-27T11:40:30.921884
25443,-0.4080,0.8760,0.0961,7.595,-15.540,-10.045,394,422,378,388,394,2025-05-27T11:40:30.921884
25444,-0.4050,0.8652,0.0961,7.945,-16.205,-10.290,417,407,382,397,403,2025-05-27T11:40:30.922247
25445,-0.3982,0.8633,0.1015,8.015,-16.345,-10.675,341,420,381,400,412,2025-05-27T11:40:30.922247
25446,-0.3899,0.8579,0.1059,7.910,-15.890,-11.375,411,438,380,407,391,2025-05-27T11:40:30.922247
25447,-0.3841,0.8540,0.1030,7.735,-15.260,-12.250,401,402,376,415,382,2025-05-27T11:40:30.922247
25448,-0.3802,0.8516,0.1044,7.700,-14.315,-13.090,403,408,388,418,403,2025-05-27T11:40:30.922247
25449,-0.3777,0.8477,0.1064,7.280,-13.160,-14.980,403,416,383,410,404,2025-05-27T11:40:30.922247
25450,-0.3821,0.8447,0.1113,6.405,-12.005,-17.115,374,403,345,412,412,2025-05-27T11:40:30.922247
25451,-0.3894,0.8325,0.1078,5.530,-11.410,-19.425,382,380,369,395,392,2025-05-27T11:40:30.922247
25452,-0.4070,0.8233,0.1074,4.410,-11.270,-22.190,391,411,385,395,397,2025-05-27T11:40:30.922247
25453,-0.4231,0.8086,0.1093,2.940,-11.935,-24.815,395,422,383,411,385,2025-05-27T11:40:30.922247
25454,-0.4504,0.8018,0.1191,1.155,-13.650,-28.315,337,404,385,410,363,2025-05-27T11:40:30.922247
25455,-0.4729,0.7993,0.1171,0.000,-17.115,-31.395,397,396,312,418,378,2025-05-27T11:40:30.922247
25456,-0.4934,0.7901,0.1171,0.140,-22.190,-34.265,391,420,310,357,386,2025-05-27T11:40:30.922247
25457,-0.5070,0.7813,0.1181,0.840,-35.700,-37.520,393,405,345,335,389,2025-05-27T11:40:30.922247
25458,-0.5163,0.7735,0.1313,1.470,-31.675,-41.230,411,432,329,380,352,2025-05-27T11:40:30.922247
25459,-0.5266,0.7701,0.1454,1.365,-36.190,-44.380,416,432,355,335,372,2025-05-27T11:40:30.922247
25460,-0.5373,0.7632,0.1591,0.980,-40.635,-48.125,357,427,361,377,343,2025-05-27T11:40:30.922247
25461,-0.5563,0.7588,0.1742,1.015,-45.045,-51.660,405,424,362,398,371,2025-05-27T11:40:31.092795
25462,-0.5919,0.7486,0.1825,2.310,-50.540,-54.250,393,394,382,423,398,2025-05-27T11:40:31.092795
25463,-0.6120,0.7437,0.1947,5.740,-57.435,-55.930,419,398,382,426,390,2025-05-27T11:40:31.092795
25464,-0.6315,0.7471,0.2045,9.765,-62.580,-56.840,426,427,378,404,390,2025-05-27T11:40:31.092795
25465,-0.6281,0.7501,0.2103,13.895,-67.585,-57.365,411,417,377,404,386,2025-05-27T11:40:31.092795
25466,-0.6432,0.7505,0.2279,17.500,-70.455,-57.330,414,427,385,416,368,2025-05-27T11:40:31.092795
25467,-0.6368,0.7535,0.2460,20.160,-71.645,-56.525,402,432,341,407,370,2025-05-27T11:40:31.092795
25468,-0.6432,0.7623,0.2650,22.890,-72.240,-55.335,414,430,325,406,392,2025-05-27T11:40:31.092795
25469,-0.6412,0.7696,0.2606,24.815,-72.275,-53.585,420,403,357,396,363,2025-05-27T11:40:31.092795
25470,-0.6393,0.7788,0.2508,27.825,-71.645,-51.870,408,396,374,414,396,2025-05-27T11:40:31.092795
25471,-0.6339,0.7881,0.2474,30.485,-70.105,-50.715,403,407,382,422,410,2025-05-27T11:40:31.092795
25472,-0.6261,0.7930,0.2528,32.095,-68.005,-49.175,424,392,389,410,409,2025-05-27T11:40:31.092795
25473,-0.6305,0.7984,0.2567,32.795,-66.010,-47.530,407,395,388,354,395,2025-05-27T11:40:31.092795
25474,-0.6300,0.7998,0.2552,33.180,-64.750,-45.710,341,399,344,351,388,2025-05-27T11:40:31.092795
25475,-0.6290,0.8096,0.2494,33.740,-63.700,-43.715,403,340,354,398,411,2025-05-27T11:40:31.092795
25476,-0.6124,0.8154,0.2274,34.860,-62.195,-40.985,427,376,366,373,404,2025-05-27T11:40:31.326017
25477,-0.6056,0.8262,0.2211,36.155,-60.095,-38.395,406,392,384,392,405,2025-05-27T11:40:31.326017
25478,-0.5905,0.8355,0.2225,36.715,-56.770,-36.365,403,407,338,401,407,2025-05-27T11:40:31.326017
25479,-0.5758,0.8442,0.2128,36.575,-52.920,-33.705,388,298,365,398,315,2025-05-27T11:40:31.326017
