SeqNum,AccX,AccY,AccZ,GyroX,GyroY,GyroZ,Flex,Force1,Force2,Force3,Force4,TimestampReception
11216,-0.3118,0.3694,0.9482,4.515,-76.650,19.740,0.88,0.0368,0.0254,0.0200,0.0087,2025-06-06T11:06:44.097856
11217,-0.3597,0.5744,1.1697,-5.880,7.350,-1.190,0.89,0.0184,0.0254,0.0200,0.0174,2025-06-06T11:06:44.097856
11218,-0.4353,0.5680,1.1995,10.360,-38.080,19.110,0.89,0.0368,0.0000,0.0602,0.0174,2025-06-06T11:06:44.097856
11219,-0.4031,0.5714,1.1624,4.865,-77.910,28.490,0.89,0.0184,0.0000,0.0703,0.0087,2025-06-06T11:06:44.097856
11220,-0.2650,0.6139,0.9989,2.450,-108.290,39.550,0.90,0.0368,0.1018,0.0000,0.0087,2025-06-06T11:06:44.097856
11221,-0.1942,0.5744,0.9433,11.550,-113.785,48.405,0.88,0.0368,0.1529,0.0000,0.0174,2025-06-06T11:06:44.097856
11222,-0.1767,0.5617,0.9140,43.400,-108.395,70.525,0.89,0.0184,0.1018,0.0501,0.0087,2025-06-06T11:06:44.097856
11223,-0.1098,0.4797,0.8638,42.840,-111.860,66.080,0.90,0.0184,0.1018,0.0000,0.0087,2025-06-06T11:06:44.097856
11224,-0.1972,0.4514,0.9335,35.875,-118.510,60.550,0.88,0.0184,0.2043,0.0000,0.0087,2025-06-06T11:06:44.097856
11225,-0.1269,0.4704,0.8706,21.525,-126.350,57.925,0.90,0.0000,0.0508,0.0000,0.0000,2025-06-06T11:06:44.097856
11226,-0.0722,0.4714,0.8272,10.080,-124.495,49.595,0.91,0.0184,0.0000,0.0906,0.0087,2025-06-06T11:06:44.097856
11227,0.0063,0.4773,0.7564,10.150,-109.620,45.780,0.90,0.0184,0.0000,0.0200,0.0087,2025-06-06T11:06:44.210930
11228,0.0883,0.4704,0.7242,13.685,-91.315,39.305,0.90,0.0000,0.0508,0.0000,0.0174,2025-06-06T11:06:44.210930
11229,0.0844,0.4577,0.6925,12.740,-72.065,31.360,0.89,0.0368,0.0000,0.0100,0.0174,2025-06-06T11:06:44.210930
11230,0.1308,0.4743,0.6573,14.525,-51.100,25.375,0.89,0.0184,0.0000,0.0200,0.0087,2025-06-06T11:06:44.210930
11231,0.1454,0.4690,0.6891,12.950,-27.265,15.505,0.92,0.0368,0.1786,0.0000,0.0087,2025-06-06T11:06:44.210930
11232,0.1137,0.4597,0.6910,13.545,-7.175,7.840,0.89,0.0184,0.1786,0.0300,0.0087,2025-06-06T11:06:44.210930
11233,0.1283,0.4656,0.6812,6.825,12.250,-6.160,0.90,0.0184,0.0000,0.0000,0.0087,2025-06-06T11:06:44.210930
11234,0.1371,0.4475,0.6071,-9.100,29.365,-20.265,0.88,0.0368,0.0000,0.0401,0.0174,2025-06-06T11:06:44.210930
11235,0.1610,0.4021,0.5241,-21.385,55.335,-42.210,0.89,0.0368,0.0000,0.0200,0.0087,2025-06-06T11:06:44.307670
11236,0.1215,0.4041,0.4534,-24.430,107.240,-57.995,0.89,0.0184,0.0000,0.0200,0.0174,2025-06-06T11:06:44.307670
11237,0.0820,0.4041,0.5783,-10.780,157.465,-68.075,0.89,0.0184,0.0762,0.0200,0.0087,2025-06-06T11:06:44.307670
11238,-0.1039,0.4597,0.8076,15.540,197.225,-70.105,0.90,0.0368,0.0508,0.0100,0.0087,2025-06-06T11:06:44.307670
11239,-0.3109,0.6320,1.1780,27.895,189.105,-62.370,0.90,0.0368,0.0254,0.0200,0.0087,2025-06-06T11:06:44.307670
11240,-0.3933,0.7120,1.3337,14.385,112.280,-39.130,0.91,0.0000,0.0762,0.0100,0.0087,2025-06-06T11:06:44.307670
11241,-0.4182,0.6974,1.4167,-8.890,32.165,-17.500,0.90,0.0368,0.0254,0.0401,0.0087,2025-06-06T11:06:44.307670
11242,-0.3762,0.6695,1.2747,-17.640,-47.145,4.620,0.90,0.0184,0.0254,0.0100,0.0174,2025-06-06T11:06:44.358862
11243,-0.2499,0.5929,0.9984,-20.685,-78.015,15.575,0.89,0.0368,0.0254,0.0401,0.0174,2025-06-06T11:06:44.358862
11244,-0.1191,0.5100,0.7813,-17.010,-74.865,16.695,0.90,0.0184,0.0254,0.0000,0.0087,2025-06-06T11:06:44.358862
11245,-0.0268,0.4646,0.6534,-11.165,-49.490,10.850,0.90,0.0368,0.0000,0.0300,0.0087,2025-06-06T11:06:44.358862
11246,0.0107,0.4431,0.6300,-0.245,-14.875,0.945,0.90,0.0184,0.0000,0.0200,0.0087,2025-06-06T11:06:44.552591
11247,-0.0210,0.4358,0.6573,6.685,27.440,-8.750,0.89,0.0184,0.0508,0.0200,0.0000,2025-06-06T11:06:44.552591
11248,-0.0864,0.4670,0.7735,9.765,51.065,-16.380,0.89,0.0552,0.0508,0.0200,0.0174,2025-06-06T11:06:44.552591
11249,-0.1640,0.4953,0.8838,7.420,55.160,-19.460,0.90,0.0184,0.0508,0.0000,0.0087,2025-06-06T11:06:44.552591
11250,-0.2133,0.5192,0.9604,1.750,43.575,-17.675,0.93,0.0184,0.0508,0.0200,0.0262,2025-06-06T11:06:44.552591
11251,-0.2298,0.5324,0.9672,-3.780,27.615,-12.285,0.90,0.0184,0.0508,0.0200,0.0087,2025-06-06T11:06:44.552591
11252,-0.2430,0.5822,0.9599,-5.425,11.830,-9.520,0.90,0.0368,0.0254,0.0906,0.0174,2025-06-06T11:06:44.552591
11253,-0.2054,0.5466,0.9819,-2.870,-6.930,1.015,0.90,0.0184,0.0000,0.0501,0.0087,2025-06-06T11:06:44.552591
11254,-0.2015,0.5392,0.9487,-16.870,-28.350,5.775,0.90,0.0184,0.0254,0.0100,0.0000,2025-06-06T11:06:44.552591
11255,-0.1791,0.5158,0.8530,-9.555,-30.205,4.935,0.90,0.0184,0.1273,0.0000,0.0087,2025-06-06T11:06:44.552591
11256,-0.1376,0.5031,0.8028,-8.085,-9.065,0.070,0.89,0.0184,0.0762,0.0804,0.0087,2025-06-06T11:06:44.552591
11257,-0.1069,0.4885,0.7564,-2.100,-0.280,-2.695,0.89,0.0184,0.0254,0.0401,0.0174,2025-06-06T11:06:44.552591
11258,-0.1015,0.4865,0.7652,-1.155,13.825,-7.735,0.90,0.0368,0.0762,0.0200,0.0174,2025-06-06T11:06:44.764939
11259,-0.1376,0.4797,0.8091,-0.420,25.445,-12.320,0.90,0.0184,0.0000,0.0501,0.0174,2025-06-06T11:06:44.764939
11260,-0.1967,0.5270,0.9179,1.120,26.845,-11.235,0.89,0.0368,0.0254,0.0300,0.0174,2025-06-06T11:06:44.764939
11261,-0.2220,0.5441,0.9848,4.795,8.750,-1.505,0.89,0.0368,0.1529,0.0000,0.0000,2025-06-06T11:06:44.764939
11262,-0.2367,0.5558,1.0024,-1.295,-14.140,3.325,0.90,0.0368,0.0000,0.1008,0.0087,2025-06-06T11:06:44.764939
11263,-0.2352,0.5290,0.9501,-4.865,-27.650,6.020,0.90,0.0184,0.0254,0.0703,0.0087,2025-06-06T11:06:44.764939
11264,-0.1937,0.5056,0.8945,-2.625,-30.695,8.015,0.90,0.0368,0.0508,0.0000,0.0087,2025-06-06T11:06:44.764939
11265,-0.1615,0.4704,0.8184,-3.815,-26.740,5.320,0.90,0.0184,0.0254,0.0000,0.0000,2025-06-06T11:06:44.764939
11266,-0.1313,0.4494,0.7754,-6.895,-16.695,-1.400,0.91,0.0368,0.0000,0.0200,0.0087,2025-06-06T11:06:44.764939
11267,-0.1259,0.4675,0.7798,-6.615,0.420,-5.425,0.90,0.0184,0.1273,0.0602,0.0087,2025-06-06T11:06:44.764939
11268,-0.1064,0.4870,0.7676,-2.485,11.585,-4.200,0.90,0.0184,0.1529,0.0501,0.0087,2025-06-06T11:06:44.764939
11269,-0.1293,0.5031,0.8306,0.525,21.210,-11.760,0.90,0.0184,0.0508,0.0300,0.0087,2025-06-06T11:06:44.764939
11270,-0.1708,0.5022,0.8560,-3.605,23.695,-12.740,0.91,0.0184,0.1273,0.0000,0.0087,2025-06-06T11:06:44.764939
11271,-0.2035,0.4909,0.9072,-5.530,16.065,-11.900,0.90,0.0184,0.0254,0.0703,0.0174,2025-06-06T11:06:44.764939
11272,-0.2220,0.4948,0.9033,-11.445,9.835,-11.200,0.90,0.0184,0.0762,0.0300,0.0087,2025-06-06T11:06:44.764939
11273,-0.2113,0.4997,0.8862,-13.195,6.160,-11.270,0.90,0.0184,0.1018,0.0000,0.0174,2025-06-06T11:06:44.764939
11274,-0.1986,0.5041,0.8633,-12.670,5.915,-10.920,0.90,0.0368,0.0508,0.0501,0.0087,2025-06-06T11:06:44.764939
11275,-0.1859,0.4948,0.8555,-10.185,5.950,-10.675,0.90,0.0368,0.0508,0.0200,0.0087,2025-06-06T11:06:44.909347
11276,-0.1825,0.4914,0.8457,-10.990,7.805,-10.360,0.89,0.0184,0.0508,0.0200,0.0087,2025-06-06T11:06:44.909347
11277,-0.1932,0.4768,0.8638,-9.520,11.690,-10.920,0.91,0.0184,0.1018,0.0401,0.0087,2025-06-06T11:06:44.909347
11278,-0.1967,0.4900,0.8764,-6.755,13.545,-10.745,0.89,0.0368,0.0762,0.0401,0.0174,2025-06-06T11:06:44.909347
11279,-0.2089,0.4904,0.8960,-5.600,10.290,-7.350,0.91,0.0184,0.0508,0.0501,0.0087,2025-06-06T11:06:44.909347
11280,-0.2367,0.4880,0.8901,-4.165,5.145,-4.270,0.90,0.0368,0.0000,0.0401,0.0087,2025-06-06T11:06:44.909347
11281,-0.2362,0.4782,0.9038,-4.130,1.785,-4.025,0.90,0.0184,0.0000,0.0602,0.0087,2025-06-06T11:06:44.909347
11282,-0.2328,0.4851,0.8994,-4.375,-0.945,-4.375,0.89,0.0184,0.0254,0.1109,0.0087,2025-06-06T11:06:44.909347
11283,-0.2347,0.4856,0.8916,-5.075,-3.010,-3.850,0.90,0.0368,0.0254,0.1212,0.0262,2025-06-06T11:06:44.909347
11284,-0.2196,0.4831,0.8716,-4.025,-3.850,-3.640,0.90,0.0184,0.0508,0.1416,0.0087,2025-06-06T11:06:44.909347
11285,-0.1957,0.4807,0.8652,-3.605,-3.885,-3.885,0.90,0.0184,0.0762,0.1519,0.0087,2025-06-06T11:06:44.909347
11286,-0.1996,0.4778,0.8574,-2.450,-2.940,-3.815,0.91,0.0368,0.1018,0.2557,0.0087,2025-06-06T11:06:44.909347
11287,-0.1986,0.4690,0.8579,-0.175,-0.665,-2.345,0.89,0.0368,0.0508,0.3938,0.0087,2025-06-06T11:06:44.909347
11288,-0.2094,0.4592,0.8638,0.910,1.855,-2.170,0.90,0.0184,0.1529,0.6585,0.0087,2025-06-06T11:06:45.141890
11289,-0.2386,0.4504,0.8701,0.595,5.355,-3.780,0.89,0.0184,0.2301,0.8425,0.0174,2025-06-06T11:06:45.141890
11290,-0.2499,0.4519,0.8916,-0.245,5.250,-4.060,0.89,0.0368,0.2818,1.0936,0.0174,2025-06-06T11:06:45.141890
11291,-0.2621,0.4582,0.8945,-2.800,2.975,-3.605,0.90,0.0368,0.2818,1.4079,0.0174,2025-06-06T11:06:45.141890
11292,-0.2625,0.4963,0.8843,-2.975,-1.470,-1.645,0.91,0.0184,0.4381,1.7538,0.0087,2025-06-06T11:06:45.141890
11293,-0.2308,0.4841,0.9057,-4.200,-5.110,-3.115,0.90,0.0184,0.5169,1.9487,0.0174,2025-06-06T11:06:45.141890
11294,-0.2303,0.4924,0.8760,-2.870,-8.855,-0.105,0.90,0.0368,0.5962,2.3131,0.0087,2025-06-06T11:06:45.141890
11295,-0.2172,0.4802,0.8535,-1.540,-7.210,0.105,0.90,0.0184,0.5697,2.6523,0.0087,2025-06-06T11:06:45.141890
11296,-0.2152,0.4660,0.8481,0.490,-0.980,-0.665,0.90,0.0368,0.7295,2.8943,0.0087,2025-06-06T11:06:45.141890
11297,-0.2284,0.4612,0.8608,2.205,2.625,-0.875,0.90,0.0000,0.8101,3.1971,0.0087,2025-06-06T11:06:45.141890
11298,-0.3743,0.4773,0.8828,2.940,3.080,0.945,0.89,0.0000,0.8641,3.4245,0.0000,2025-06-06T11:06:45.141890
11299,-0.2464,0.4763,0.9126,3.395,-1.015,2.940,0.90,0.0184,1.1098,3.5503,0.0087,2025-06-06T11:06:45.141890
11300,-0.2894,0.4890,0.9877,18.445,-15.050,6.720,0.90,0.0368,1.1927,3.6968,0.0087,2025-06-06T11:06:45.141890
11301,-0.2874,0.5124,1.0116,5.915,-30.170,13.405,0.90,0.0184,1.1927,3.6599,0.0000,2025-06-06T11:06:45.141890
11302,-0.2562,0.4934,0.9789,9.345,-43.925,15.610,0.90,0.0184,1.3041,3.6599,0.0174,2025-06-06T11:06:45.141890
11303,-0.2381,0.4919,0.8999,-0.875,-46.550,16.135,0.90,0.0184,1.2762,3.6599,0.0174,2025-06-06T11:06:45.141890
11304,-0.1918,0.4802,0.8316,5.670,-47.460,15.750,0.89,0.0184,1.4164,3.6231,0.0087,2025-06-06T11:06:45.334573
11305,-0.1684,0.4519,0.7998,3.955,-40.145,11.270,0.89,0.0184,1.4729,3.8276,0.0174,2025-06-06T11:06:45.334573
11306,-0.1610,0.4499,0.7989,9.625,-26.425,11.865,0.91,0.0184,1.3882,3.7900,0.0087,2025-06-06T11:06:45.334573
11307,-0.1493,0.4582,0.8272,7.140,-18.690,8.855,0.90,0.0368,1.4164,3.7713,0.0087,2025-06-06T11:06:45.334573
11308,-0.1649,0.4626,0.8311,5.600,-11.655,5.565,0.89,0.0184,1.3882,3.8465,0.0087,2025-06-06T11:06:45.334573
11309,-0.1913,0.4958,0.9018,8.190,-7.280,7.350,0.91,0.0184,1.3882,3.9995,0.0174,2025-06-06T11:06:45.334573
11310,-0.1869,0.5134,0.9233,10.675,-14.525,8.365,0.92,0.0368,1.5296,4.0577,0.0087,2025-06-06T11:06:45.334573
11311,-0.1854,0.5085,0.8965,4.830,-23.555,6.825,0.90,0.0184,1.4446,4.1361,0.0087,2025-06-06T11:06:45.334573
11312,-0.1728,0.4841,0.8750,0.980,-28.665,8.610,0.91,0.0368,1.6437,4.4790,0.0087,2025-06-06T11:06:45.334573
11313,-0.1459,0.4670,0.8223,2.065,-25.095,7.280,0.90,0.0184,1.6151,4.5204,0.0087,2025-06-06T11:06:45.334573
11314,-0.1122,0.4470,0.7681,-1.750,-17.080,2.030,0.90,0.0184,1.8167,4.7525,0.0087,2025-06-06T11:06:45.334573
11315,-0.0942,0.4577,0.7715,-4.340,-6.090,-2.730,0.90,0.0184,1.9626,4.9041,0.0174,2025-06-06T11:06:45.334573
11316,-0.1108,0.4573,0.7896,-6.405,7.315,-7.840,0.90,0.0184,1.9919,5.0142,0.0174,2025-06-06T11:06:45.334573
11317,-0.1166,0.4568,0.7740,-5.600,22.295,-12.355,0.91,0.0184,1.9041,5.0811,0.0087,2025-06-06T11:06:45.334573
11318,-0.1410,0.4695,0.8325,-6.965,33.600,-15.575,0.89,0.0368,1.9041,5.1485,0.0174,2025-06-06T11:06:45.575978
11319,-0.1937,0.4909,0.8940,-0.385,36.925,-12.460,0.91,0.0184,2.0213,5.2166,0.0087,2025-06-06T11:06:45.575978
11320,-0.2181,0.5007,0.9667,-0.875,27.755,-9.730,0.89,0.0184,1.9626,5.2394,0.0087,2025-06-06T11:06:45.575978
11321,-0.2259,0.5051,0.9599,-5.635,10.815,-8.890,0.90,0.0368,2.0804,5.2852,0.0087,2025-06-06T11:06:45.575978
11322,-0.2181,0.5100,0.9633,-6.965,-1.190,-4.550,0.90,0.0368,2.0213,5.1938,0.0087,2025-06-06T11:06:45.575978
11323,-0.1972,0.4978,0.9228,-2.520,-9.870,0.280,0.90,0.0184,1.9626,5.2394,0.0087,2025-06-06T11:06:45.575978
11324,-0.1850,0.4758,0.8501,-4.795,-9.555,-2.100,0.90,0.0184,2.0213,5.1711,0.0087,2025-06-06T11:06:45.575978
11325,-0.1703,0.4685,0.8189,-5.040,-2.625,-4.865,0.90,0.0368,2.0213,5.1711,0.0087,2025-06-06T11:06:45.575978
11326,-0.1684,0.4768,0.8291,0.840,6.335,-3.185,0.90,0.0368,2.1396,5.2852,0.0087,2025-06-06T11:06:45.575978
11327,-0.1889,0.4685,0.8530,0.420,10.220,-4.725,0.90,0.0184,2.1100,5.1711,0.0087,2025-06-06T11:06:45.575978
11328,-0.2040,0.4738,0.8447,-3.465,13.335,-8.085,0.90,0.0368,2.2290,5.3313,0.0087,2025-06-06T11:06:45.575978
11329,-0.2089,0.4919,0.8994,-2.065,13.370,-7.595,0.90,0.0368,2.1693,5.4010,0.0087,2025-06-06T11:06:45.575978
11330,-0.2323,0.4851,0.9082,0.035,9.205,-4.970,0.90,0.0184,2.1396,5.3082,0.0087,2025-06-06T11:06:45.575978
11331,-0.2377,0.4748,0.9062,-2.940,5.180,-4.585,0.89,0.0184,2.1100,5.1938,0.0087,2025-06-06T11:06:45.575978
11332,-0.2455,0.4900,0.9321,0.630,2.030,-0.315,0.90,0.0368,2.0213,5.1485,0.0174,2025-06-06T11:06:45.575978
11333,-0.2362,0.4860,0.9238,3.010,-3.745,2.065,0.90,0.0368,2.1100,5.1260,0.0174,2025-06-06T11:06:45.575978
11334,-0.2338,0.4948,0.9223,2.170,-10.115,2.205,0.90,0.0368,2.1100,5.0811,0.0087,2025-06-06T11:06:45.575978
11335,-0.2176,0.5109,0.9072,3.290,-18.305,6.090,0.91,0.0184,2.0213,5.1260,0.0087,2025-06-06T11:06:45.768732
11336,-0.2098,0.4831,0.8857,2.135,-22.505,5.600,0.90,0.0368,2.0213,5.0587,0.0174,2025-06-06T11:06:45.768732
11337,-0.1913,0.4612,0.8237,1.750,-18.900,4.655,0.89,0.0368,1.9333,4.9041,0.0174,2025-06-06T11:06:45.768732
11338,-0.1796,0.4441,0.8096,-0.490,-10.465,0.805,0.90,0.0368,1.8458,4.8388,0.0087,2025-06-06T11:06:45.768732
11339,-0.1952,0.4509,0.8496,3.955,2.380,-0.525,0.91,0.0184,1.9333,4.8171,0.0087,2025-06-06T11:06:45.768732
11340,-0.1986,0.4963,0.8916,9.520,2.240,4.550,0.89,0.0184,1.9041,4.9480,0.0087,2025-06-06T11:06:45.768732
11341,-0.2308,0.4929,0.9414,3.675,-10.290,3.535,0.90,0.0184,1.9041,5.0364,0.0087,2025-06-06T11:06:45.768732
11342,-0.2347,0.4880,0.9282,-0.140,-18.445,3.815,0.89,0.0000,1.9333,5.0587,0.0087,2025-06-06T11:06:45.768732
11343,-0.2015,0.4958,0.9008,0.980,-23.765,6.370,0.91,0.0000,1.9919,5.1485,0.0087,2025-06-06T11:06:45.768732
11344,-0.1801,0.4695,0.8379,0.385,-22.610,4.865,0.89,0.0184,2.0213,5.1485,0.0087,2025-06-06T11:06:45.768732
11345,-0.1688,0.4724,0.8272,0.245,-14.420,2.835,0.91,0.0184,2.0508,5.2394,0.0087,2025-06-06T11:06:45.769736
11346,-0.1591,0.4665,0.8413,4.830,-6.370,3.045,0.89,0.0368,2.0508,5.3777,0.0087,2025-06-06T11:06:45.769736
11347,-0.1854,0.4709,0.8691,4.305,-6.685,2.310,0.90,0.0184,2.0508,5.4949,0.0087,2025-06-06T11:06:45.769736
11348,-0.1854,0.4836,0.8808,-0.455,-8.085,0.525,0.90,0.0368,2.0508,5.6139,0.0087,2025-06-06T11:06:45.769736
11349,-0.2011,0.4841,0.8969,0.700,-7.420,1.890,0.88,0.0184,2.1396,5.6861,0.0174,2025-06-06T11:06:45.961608
11350,-0.2162,0.5241,0.9697,10.255,-12.810,7.980,0.90,0.0184,2.0804,5.7834,0.0174,2025-06-06T11:06:45.961608
11351,-0.2240,0.5451,0.9955,10.570,-28.105,14.630,0.89,0.0184,2.2589,5.9818,0.0087,2025-06-06T11:06:45.961608
11352,-0.2220,0.5114,0.9721,3.640,-47.425,16.065,0.90,0.0368,2.2889,6.0574,0.0174,2025-06-06T11:06:45.961608
11353,-0.2084,0.5056,0.9150,5.565,-54.635,19.635,0.90,0.0368,2.2889,6.1594,0.0087,2025-06-06T11:06:45.961608
11354,-0.1435,0.4807,0.8638,4.165,-54.740,17.745,0.91,0.0184,2.2589,6.1851,0.0174,2025-06-06T11:06:45.961608
11355,-0.1142,0.4675,0.7881,1.925,-47.250,13.650,0.90,0.0368,2.2589,6.2627,0.0087,2025-06-06T11:06:45.961608
11356,-0.0649,0.4543,0.7588,0.035,-31.570,8.925,0.90,0.0184,2.3189,6.2627,0.0087,2025-06-06T11:06:45.961608
11357,-0.0600,0.4504,0.7403,1.435,-14.350,3.360,0.90,0.0368,2.2290,6.2367,0.0087,2025-06-06T11:06:45.961608
11358,-0.0678,0.4421,0.7569,0.805,3.395,-2.660,0.90,0.0368,2.2589,6.2109,0.0087,2025-06-06T11:06:45.961608
11359,-0.0976,0.4870,0.8447,7.595,16.765,-2.625,0.90,0.0184,2.1991,6.1594,0.0087,2025-06-06T11:06:45.961608
11360,-0.1279,0.5090,0.9233,6.755,13.300,-1.330,0.90,0.0184,2.2589,6.1594,0.0087,2025-06-06T11:06:45.961608
11361,-0.1654,0.4987,0.9292,-1.330,1.575,-2.765,0.91,0.0184,2.3189,6.1083,0.0087,2025-06-06T11:06:45.961608
11362,-0.1503,0.4997,0.9096,-4.690,-5.950,-2.275,0.90,0.0184,2.2290,6.0828,0.0087,2025-06-06T11:06:45.961608
11363,-0.1191,0.4831,0.8574,-6.895,-6.230,-4.095,0.90,0.0184,2.2589,6.1083,0.0174,2025-06-06T11:06:45.961608
11364,-0.0981,0.4641,0.7881,-7.385,0.875,-7.175,0.89,0.0184,2.3189,6.1083,0.0087,2025-06-06T11:06:46.153892
11365,-0.0917,0.4665,0.7735,-9.170,17.745,-12.145,0.90,0.0368,2.1991,6.1338,0.0174,2025-06-06T11:06:46.156772
11366,-0.1025,0.4646,0.8057,-3.675,30.695,-13.020,0.90,0.0368,2.1991,6.0828,0.0087,2025-06-06T11:06:46.156772
11367,-0.1410,0.4856,0.8540,-1.960,37.870,-14.805,0.90,0.0184,2.2290,6.0574,0.0087,2025-06-06T11:06:46.156772
11368,-0.1923,0.4987,0.9643,-1.295,36.960,-13.125,0.91,0.0368,2.1396,6.0574,0.0087,2025-06-06T11:06:46.156772
11369,-0.2289,0.5441,1.0185,7.175,22.995,-1.505,0.89,0.0184,2.1396,6.0069,0.0174,2025-06-06T11:06:46.156772
11370,-0.2455,0.5348,1.0458,1.820,-4.865,0.980,0.91,0.0368,2.1100,6.0321,0.0087,2025-06-06T11:06:46.156772
11371,-0.2250,0.5173,0.9965,-3.325,-25.305,5.005,0.89,0.0184,2.1396,6.0069,0.0087,2025-06-06T11:06:46.156772
11372,-0.1747,0.5104,0.9204,-4.480,-36.960,7.735,0.89,0.0184,2.0508,6.0321,0.0087,2025-06-06T11:06:46.156772
11373,-0.1327,0.4734,0.8091,-2.800,-32.795,5.810,0.90,0.0184,2.0804,6.0574,0.0087,2025-06-06T11:06:46.156772
11374,-0.0932,0.4573,0.7564,-1.785,-15.855,2.625,0.89,0.0184,2.0804,6.0321,0.0087,2025-06-06T11:06:46.156772
11375,-0.0981,0.4338,0.7525,-1.225,3.255,-2.485,0.90,0.0368,2.0508,5.9567,0.0087,2025-06-06T11:06:46.156772
11376,-0.1303,0.4299,0.7754,0.350,22.330,-7.350,0.91,0.0368,2.0508,5.8820,0.0087,2025-06-06T11:06:46.156772
11377,-0.1718,0.5022,0.9228,6.335,25.690,-6.405,0.89,0.0368,2.0213,5.8326,0.0087,2025-06-06T11:06:46.156772
11378,-0.1976,0.5295,0.9950,3.605,14.910,-1.680,0.88,0.0368,1.9919,5.7346,0.0087,2025-06-06T11:06:46.356528
11379,-0.2103,0.5309,0.9916,0.560,-8.540,0.595,0.89,0.0368,1.9626,5.6139,0.0174,2025-06-06T11:06:46.356528
11380,-0.1928,0.5144,0.9477,-2.205,-24.500,5.425,0.90,0.0368,2.0213,5.5185,0.0174,2025-06-06T11:06:46.356528
11381,-0.1762,0.4709,0.8589,-2.380,-26.215,4.725,0.90,0.0368,2.0213,5.4713,0.0087,2025-06-06T11:06:46.356528
11382,-0.1347,0.4631,0.8130,-2.310,-17.465,1.785,0.90,0.0368,1.9919,5.4478,0.0174,2025-06-06T11:06:46.356528
11383,-0.1152,0.4714,0.8008,-1.470,-5.670,-0.210,0.90,0.0184,1.9333,5.4478,0.0087,2025-06-06T11:06:46.356528
11384,-0.1225,0.4734,0.8169,0.350,4.690,-2.975,0.90,0.0368,1.9919,5.4713,0.0000,2025-06-06T11:06:46.356528
11385,-0.1469,0.4934,0.8642,3.325,10.815,-2.695,0.89,0.0184,1.9626,5.4478,0.0000,2025-06-06T11:06:46.356528
11386,-0.1732,0.5022,0.9213,4.095,7.945,-0.875,0.90,0.0184,1.9919,5.4713,0.0087,2025-06-06T11:06:46.356528
11387,-0.2020,0.4968,0.9540,2.380,-3.290,0.385,0.90,0.0184,1.8749,5.4949,0.0000,2025-06-06T11:06:46.356528
11388,-0.1991,0.4953,0.9409,-1.085,-12.705,2.205,0.90,0.0368,2.0508,5.5185,0.0087,2025-06-06T11:06:46.356528
11389,-0.1693,0.4953,0.9008,-2.520,-17.675,2.135,0.90,0.0184,1.9626,5.6139,0.0174,2025-06-06T11:06:46.356528
11390,-0.1459,0.4875,0.8535,-1.960,-15.155,2.240,0.90,0.0368,2.1100,5.5423,0.0087,2025-06-06T11:06:46.356528
11391,-0.1322,0.4860,0.8340,1.540,-9.135,2.345,0.91,0.0368,1.9626,5.5185,0.0087,2025-06-06T11:06:46.356528
11392,-0.1293,0.4748,0.8374,1.680,-3.080,0.910,0.89,0.0368,2.0804,5.5185,0.0087,2025-06-06T11:06:46.356528
11393,-0.1571,0.4904,0.8760,2.590,-0.315,-0.105,0.90,0.0368,2.0804,5.5661,0.0087,2025-06-06T11:06:46.356528
11394,-0.1698,0.5070,0.9213,4.480,-2.240,2.520,0.88,0.0184,2.1100,5.5661,0.0087,2025-06-06T11:06:46.408054
11395,-0.1693,0.5041,0.9316,3.430,-9.590,3.850,0.90,0.0000,1.9919,5.4713,0.0087,2025-06-06T11:06:46.408054
11396,-0.1649,0.5017,0.9150,0.875,-17.955,4.270,0.90,0.0184,1.9919,5.4713,0.0087,2025-06-06T11:06:46.408054
11397,-0.1615,0.4856,0.8789,-0.630,-19.075,4.585,0.90,0.0184,1.9333,5.4244,0.0087,2025-06-06T11:06:46.562657
11398,-0.1415,0.4812,0.8750,2.065,-16.380,4.340,0.91,0.0368,1.9333,5.3545,0.0174,2025-06-06T11:06:46.562657
11399,-0.1405,0.4851,0.8667,0.945,-11.095,3.920,0.90,0.0368,1.9041,5.2623,0.0174,2025-06-06T11:06:46.562657
11400,-0.1464,0.5022,0.8906,5.810,-9.520,5.425,0.91,0.0184,1.8458,5.3777,0.0087,2025-06-06T11:06:46.562657
11401,-0.1493,0.5173,0.9272,6.055,-15.050,6.685,0.89,0.0368,1.8458,5.3082,0.0087,2025-06-06T11:06:46.562657
11402,-0.1435,0.4900,0.8891,0.735,-22.575,5.880,0.89,0.0000,1.8749,5.3313,0.0087,2025-06-06T11:06:46.562657
11403,-0.1308,0.4895,0.8794,-1.505,-23.695,5.635,0.90,0.0184,1.8749,5.2852,0.0087,2025-06-06T11:06:46.562657
11404,-0.1122,0.5012,0.8760,4.550,-20.440,8.015,0.89,0.0184,1.8167,5.3545,0.0087,2025-06-06T11:06:46.562657
11405,-0.1215,0.4812,0.8833,5.145,-20.090,7.805,0.90,0.0368,1.8749,5.2852,0.0087,2025-06-06T11:06:46.562657
11406,-0.1215,0.4924,0.8716,2.555,-20.895,6.685,0.90,0.0184,1.8749,5.3313,0.0087,2025-06-06T11:06:46.562657
11407,-0.1176,0.4904,0.8891,1.435,-20.895,7.455,0.91,0.0368,1.8749,5.2623,0.0087,2025-06-06T11:06:46.562657
11408,-0.1166,0.5002,0.8799,5.635,-19.985,8.295,0.89,0.0184,1.8458,5.1711,0.0087,2025-06-06T11:06:46.562657
11409,-0.1142,0.5075,0.9038,4.725,-20.755,8.295,0.89,0.0368,1.8749,5.2166,0.0174,2025-06-06T11:06:46.784479
11410,-0.1054,0.5461,0.9111,11.060,-23.590,12.180,0.90,0.0184,1.7877,5.2852,0.0174,2025-06-06T11:06:46.784479
11411,-0.0556,0.5905,0.8369,20.405,-25.725,19.285,0.90,0.0184,1.8458,5.2852,0.0087,2025-06-06T11:06:46.784479
11412,-0.1098,0.5056,1.4093,26.075,17.990,24.640,0.88,0.0368,1.8749,5.2623,0.0174,2025-06-06T11:06:46.784479
11413,-0.0264,0.5119,0.7442,32.480,16.625,2.345,0.90,0.0184,1.7877,5.2394,0.0174,2025-06-06T11:06:46.784479
11414,-0.1225,0.4738,0.7828,-9.135,-5.355,-4.620,0.90,0.0184,1.8167,5.2394,0.0174,2025-06-06T11:06:46.784479
11415,-0.1000,0.5153,0.8877,11.375,-13.545,4.025,0.90,0.0368,1.8749,5.3082,0.0087,2025-06-06T11:06:46.784479
11416,-0.0776,0.5607,0.9301,11.165,-5.565,1.645,0.91,0.0368,1.7877,5.2623,0.0087,2025-06-06T11:06:46.918314
11417,-0.0781,0.5832,0.8716,14.630,-3.500,4.445,0.90,0.0184,1.9333,5.3313,0.0087,2025-06-06T11:06:46.918314
11418,-0.0386,0.5680,0.8320,2.240,-10.325,3.430,0.90,0.0184,1.7877,5.3082,0.0087,2025-06-06T11:06:46.918314
11419,-0.0659,0.5324,0.8081,9.730,-9.170,0.595,0.89,0.0184,1.9041,5.2394,0.0087,2025-06-06T11:06:46.918314
11420,-0.0683,0.4573,0.7593,8.785,1.120,-1.260,0.89,0.0368,1.8458,5.2394,0.0087,2025-06-06T11:06:46.918314
11421,-0.0288,0.3865,0.6710,-10.920,13.825,-17.185,0.90,0.0368,1.9041,5.1938,0.0087,2025-06-06T11:06:46.918314
11422,-0.0874,0.2948,0.5627,-35.945,51.345,-44.940,0.90,0.0184,1.8749,5.1485,0.0087,2025-06-06T11:06:46.918314
11423,-0.0171,0.3743,0.5705,-37.065,94.605,-59.885,0.90,0.0368,1.8458,5.1485,0.0174,2025-06-06T11:06:46.918314
11424,-0.0815,0.4353,0.6500,-33.390,138.075,-70.700,0.90,0.0184,1.9919,5.2166,0.0174,2025-06-06T11:06:46.918314
11425,-0.1869,0.4846,0.8311,-28.140,150.290,-69.265,0.91,0.0184,1.9626,5.2166,0.0174,2025-06-06T11:06:46.972405
11426,-0.3040,0.5505,0.9882,-27.405,132.440,-55.335,0.89,0.0184,1.9919,5.3082,0.0174,2025-06-06T11:06:46.972405
11427,-0.3353,0.6183,1.0912,-20.825,97.475,-40.180,0.89,0.0184,2.0508,5.3313,0.0174,2025-06-06T11:06:46.972405
11428,-0.4265,0.6217,1.1375,-17.115,51.870,-29.225,0.89,0.0184,1.9919,5.4010,0.0174,2025-06-06T11:06:46.972405
11429,-0.4265,0.5763,1.0853,-9.520,24.080,-16.800,0.89,0.0184,1.9919,5.4478,0.0087,2025-06-06T11:06:46.972405
11430,-0.3963,0.4895,1.0268,-7.945,5.600,-8.400,0.90,0.0184,2.0508,5.4010,0.0087,2025-06-06T11:06:46.972405
11431,-0.3538,0.5012,0.9326,-2.555,-1.330,-2.870,0.90,0.0000,2.0508,5.4713,0.0087,2025-06-06T11:06:46.972405
11432,-0.2996,0.5129,0.8638,3.570,-1.890,2.975,0.88,0.0184,2.0213,5.4478,0.0087,2025-06-06T11:06:46.972405
11433,-0.3260,0.4407,0.8579,8.050,-1.295,6.475,0.89,0.0184,2.1100,5.4010,0.0174,2025-06-06T11:06:46.972405
11434,-0.3450,0.4919,0.9384,19.285,-4.515,17.115,0.90,0.0368,2.0508,5.5185,0.0174,2025-06-06T11:06:46.972405
11435,-0.4065,0.6041,1.0614,27.930,-18.690,24.430,0.92,0.0368,1.9626,5.4244,0.0087,2025-06-06T11:06:46.972405
11436,-0.5329,0.6598,1.2171,45.185,-43.995,48.370,0.90,0.0184,2.0213,5.5661,0.0174,2025-06-06T11:06:46.972405
11437,-0.3865,0.5602,1.1492,30.975,-112.280,62.615,0.91,0.0000,1.9919,5.4949,0.0087,2025-06-06T11:06:46.972405
11438,-0.2967,0.5388,0.9057,9.205,-157.115,56.210,0.89,0.0368,1.9333,5.5423,0.0087,2025-06-06T11:06:46.972405
11439,-0.1806,0.4651,0.7276,1.400,-143.815,50.610,0.90,0.0184,1.9333,5.4713,0.0087,2025-06-06T11:06:47.104493
11440,-0.0342,0.4465,0.5495,24.115,-103.985,44.380,0.90,0.0184,1.9333,5.4949,0.0087,2025-06-06T11:06:47.104493
11441,0.0161,0.4089,0.5168,26.845,-49.350,23.660,0.88,0.0184,1.9626,5.4478,0.0087,2025-06-06T11:06:47.104493
11442,0.0332,0.4221,0.5910,18.655,-2.310,-0.035,0.90,0.0184,1.9626,5.4949,0.0087,2025-06-06T11:06:47.104493
11443,0.0293,0.5612,0.5998,31.745,57.680,-29.155,0.90,0.0000,1.9626,5.4949,0.0087,2025-06-06T11:06:47.104493
11444,-0.0703,0.4050,0.6407,52.325,90.755,-38.115,0.90,0.0184,1.9333,5.4949,0.0087,2025-06-06T11:06:47.104493
11445,-0.1640,0.2865,0.6900,61.180,137.410,-25.410,0.90,0.0184,1.8749,5.4713,0.0087,2025-06-06T11:06:47.104493
11446,-0.5368,0.4870,0.7208,74.620,201.845,-11.620,0.89,0.0368,1.9919,5.5185,0.0087,2025-06-06T11:06:47.104493
11447,-0.3836,0.0874,0.5173,32.655,240.450,-1.225,0.90,0.0368,1.9333,5.4244,0.0087,2025-06-06T11:06:47.181973
11448,-0.4982,0.3738,0.5710,-0.210,192.605,9.030,0.89,0.0368,1.9919,5.4010,0.0087,2025-06-06T11:06:47.181973
11449,-0.2313,0.9584,1.0956,-15.610,164.185,-48.440,0.90,0.0368,1.9626,5.4010,0.0087,2025-06-06T11:06:47.181973
11450,-0.1303,0.7330,1.1248,-46.060,76.895,-90.545,0.90,0.0368,1.9626,5.4713,0.0174,2025-06-06T11:06:47.181973
11451,-0.2069,0.7061,0.9789,-56.910,-28.840,-63.140,0.90,0.0184,1.9041,5.4949,0.0087,2025-06-06T11:06:47.181973
11452,-0.4612,0.3587,0.8716,-45.955,-79.765,-32.830,0.91,0.0368,1.8749,5.5423,0.0087,2025-06-06T11:06:47.181973
11453,-0.8633,0.3587,0.8081,-34.090,-25.795,-62.615,0.90,0.0184,1.9333,5.5661,0.0174,2025-06-06T11:06:47.181973
11454,-0.4290,0.0810,0.6690,-92.995,22.225,-123.900,0.89,0.0184,1.8749,5.5661,0.0087,2025-06-06T11:06:47.380411
11455,-0.5344,0.3128,0.6144,-146.020,49.350,-152.705,0.89,0.0368,1.8167,5.5661,0.0087,2025-06-06T11:06:47.380411
11456,-0.5763,0.6100,0.7666,-122.745,66.045,-111.300,0.90,0.0368,1.8749,5.5185,0.0087,2025-06-06T11:06:47.380411
11457,-0.4260,0.7510,0.8296,-66.640,55.930,-36.890,0.91,0.0184,1.8167,5.4713,0.0087,2025-06-06T11:06:47.380411
11458,-0.4407,0.5710,1.0541,-19.810,30.870,-6.510,0.90,0.0368,1.8458,5.4713,0.0087,2025-06-06T11:06:47.380411
11459,-0.4968,0.6095,1.0136,-6.335,2.555,-11.445,0.89,0.0184,1.7877,5.4010,0.0174,2025-06-06T11:06:47.380411
11460,-0.5187,0.6012,0.9072,-14.280,-12.495,-11.305,0.88,0.0184,1.8167,5.4244,0.0087,2025-06-06T11:06:47.380411
11461,-0.4538,0.5192,0.8672,12.530,-14.735,12.110,0.90,0.0184,1.7877,5.3545,0.0087,2025-06-06T11:06:47.380411
11462,-0.4729,0.3860,0.7974,29.890,-9.415,20.895,0.90,0.0184,1.8167,5.2394,0.0087,2025-06-06T11:06:47.380411
11463,-0.5104,0.3245,0.7788,27.930,-8.260,13.720,0.89,0.0184,1.7012,5.1938,0.0087,2025-06-06T11:06:47.380411
11464,-0.5388,0.3401,0.7613,8.400,-5.040,8.050,0.89,0.0368,1.7588,5.1260,0.0087,2025-06-06T11:06:47.380411
11465,-0.5363,0.3099,0.7730,5.495,-0.910,4.060,0.90,0.0184,1.6437,4.9700,0.0174,2025-06-06T11:06:47.380411
11466,-0.5036,0.3640,0.8130,2.905,-2.030,-4.515,0.89,0.0000,1.6151,4.8822,0.0087,2025-06-06T11:06:47.380411
11467,-0.4670,0.4421,0.8037,-9.030,-6.405,-10.745,0.89,0.0184,1.5580,4.7311,0.0087,2025-06-06T11:06:47.380411
11468,-0.4416,0.4968,0.8311,-3.010,-5.040,-2.380,0.89,0.0184,1.5865,4.7098,0.0174,2025-06-06T11:06:47.380411
11469,-0.4402,0.4778,0.8345,21.770,-1.785,9.345,0.89,0.0184,1.4446,4.4997,0.0087,2025-06-06T11:06:47.588677
11470,-0.4665,0.4436,0.8447,32.690,-9.520,18.585,0.90,0.0184,1.5012,4.5830,0.0087,2025-06-06T11:06:47.588677
11471,-0.4987,0.4104,0.8374,28.070,-20.335,22.120,0.90,0.0368,1.4729,4.6250,0.0174,2025-06-06T11:06:47.588677
11472,-0.5075,0.3597,0.7735,22.960,-20.195,22.260,0.90,0.0368,1.4446,4.6461,0.0087,2025-06-06T11:06:47.588677
11473,-0.5612,0.3387,0.8086,18.655,-5.880,22.470,0.88,0.0184,1.5296,4.6673,0.0087,2025-06-06T11:06:47.588677
11474,-0.5988,0.3963,0.7696,21.455,24.990,36.575,0.89,0.0184,1.5580,4.6885,0.0087,2025-06-06T11:06:47.588677
11475,-0.4841,0.4592,0.8325,24.675,20.055,37.800,0.89,0.0184,1.6151,4.7311,0.0087,2025-06-06T11:06:47.588677
11476,-0.5422,0.5197,0.7696,22.015,-3.010,56.980,0.90,0.0184,1.5865,4.7098,0.0000,2025-06-06T11:06:47.588677
11477,-0.2538,0.5880,0.9579,33.950,-24.885,42.035,0.90,0.0184,1.6151,4.6885,0.0087,2025-06-06T11:06:47.588677
11478,-0.1845,0.5783,0.7696,33.880,-39.130,7.455,0.89,0.0184,1.6437,4.7311,0.0087,2025-06-06T11:06:47.588677
11479,-0.3406,0.4704,0.7823,31.465,-56.875,1.470,0.91,0.0184,1.6724,4.7740,0.0087,2025-06-06T11:06:47.588677
11480,-0.5363,0.4494,0.9248,39.025,-81.900,18.235,0.90,0.0184,1.6437,4.7955,0.0087,2025-06-06T11:06:47.588677
11481,-0.5007,0.4480,0.9306,32.445,-125.860,35.595,0.90,0.0184,1.6437,4.7955,0.0087,2025-06-06T11:06:47.588677
11482,-0.4753,0.6246,0.8886,21.385,-159.355,35.945,0.91,0.0184,1.5865,4.7740,0.0087,2025-06-06T11:06:47.588677
11483,-0.4680,0.5841,0.8813,34.055,-157.115,63.105,0.89,0.0184,1.6151,4.6885,0.0087,2025-06-06T11:06:47.588677
11484,-0.2996,0.5558,0.7730,55.125,-142.450,69.720,0.90,0.0184,1.6151,4.7311,0.0174,2025-06-06T11:06:47.635122
11485,-0.1806,0.5119,0.6725,54.740,-124.565,58.590,0.91,0.0184,1.5296,4.7311,0.0174,2025-06-06T11:06:47.635122
11486,-0.1147,0.4836,0.6315,45.150,-109.305,52.465,0.90,0.0184,1.5865,4.7311,0.0174,2025-06-06T11:06:47.635122
11487,-0.4094,0.4929,0.6686,44.205,-82.915,61.425,0.91,0.0184,1.6151,4.7098,0.0087,2025-06-06T11:06:47.635122
11488,-0.2269,0.5866,0.8877,67.760,-94.255,86.625,0.90,0.0368,1.5296,4.7098,0.0087,2025-06-06T11:06:47.787671
11489,-0.2582,0.7139,1.0590,46.025,-117.495,77.805,0.90,0.0368,1.5865,4.7311,0.0087,2025-06-06T11:06:47.787671
11490,-0.1737,0.6041,0.8272,35.945,-145.950,66.955,0.90,0.0368,1.5865,4.7098,0.0087,2025-06-06T11:06:47.787671
11491,-0.0766,0.6212,0.7769,32.900,-137.900,60.025,0.90,0.0184,1.5865,4.6885,0.0000,2025-06-06T11:06:47.787671
11492,-0.0942,0.5090,0.6256,37.345,-105.840,44.205,0.91,0.0184,1.5296,4.5621,0.0087,2025-06-06T11:06:47.787671
11493,-0.0039,0.3933,0.6002,23.625,-75.950,32.410,0.91,0.0184,1.5012,4.5412,0.0087,2025-06-06T11:06:47.787671
11494,0.0669,0.5065,0.6398,10.220,-56.210,25.095,0.90,0.0184,1.5580,4.4790,0.0087,2025-06-06T11:06:47.787671
11495,-0.0005,0.5290,0.6295,9.380,-23.660,17.640,0.91,0.0000,1.5296,4.4173,0.0087,2025-06-06T11:06:47.787671
11496,0.0181,0.3797,0.7027,10.990,-5.355,6.405,0.90,0.0184,1.5296,4.3969,0.0087,2025-06-06T11:06:47.787671
11497,-0.0059,0.4909,0.6866,-11.935,10.500,-16.870,0.90,0.0368,1.5012,4.3358,0.0087,2025-06-06T11:06:47.787671
11498,-0.0171,0.5524,0.7139,-24.220,28.350,-29.785,0.92,0.0184,1.5012,4.3156,0.0174,2025-06-06T11:06:47.787671
11499,0.0215,0.5451,0.7159,-23.660,39.130,-38.115,0.91,0.0184,1.4729,4.3561,0.0174,2025-06-06T11:06:47.995954
11500,-0.0161,0.5383,0.6676,-41.405,46.060,-52.745,0.91,0.0368,1.4729,4.3358,0.0087,2025-06-06T11:06:47.995954
11501,-0.0098,0.5144,0.6451,-52.080,69.440,-66.115,0.90,0.0368,1.5296,4.3358,0.0087,2025-06-06T11:06:47.995954
11502,-0.0107,0.4670,0.6559,-55.685,92.575,-75.460,0.91,0.0368,1.3882,4.3561,0.0174,2025-06-06T11:06:47.995954
11503,-0.1391,0.4748,0.7330,-60.130,117.460,-89.810,0.90,0.0184,1.5012,4.3561,0.0087,2025-06-06T11:06:47.995954
11504,-0.1986,0.6295,0.9189,-50.295,129.500,-77.490,0.89,0.0184,1.4446,4.3969,0.0087,2025-06-06T11:06:47.995954
11505,-0.2913,0.7554,1.1224,-28.910,98.980,-47.320,0.91,0.0368,1.4729,4.3969,0.0087,2025-06-06T11:06:47.995954
11506,-0.3558,0.7930,1.2215,-8.120,41.580,-19.950,0.91,0.0184,1.4729,4.4173,0.0087,2025-06-06T11:06:47.995954
11507,-0.3514,0.7915,1.1732,-1.400,-29.085,9.380,0.92,0.0184,1.5296,4.4173,0.0000,2025-06-06T11:06:47.995954
11508,-0.2948,0.6954,1.0331,4.830,-69.125,26.005,0.90,0.0184,1.4446,4.3969,0.0087,2025-06-06T11:06:47.995954
11509,-0.2225,0.5558,0.8252,8.505,-73.395,27.580,0.92,0.0184,1.4446,4.4378,0.0087,2025-06-06T11:06:47.995954
11510,-0.1498,0.5075,0.7232,19.110,-47.740,25.900,0.90,0.0184,1.4164,4.3969,0.0087,2025-06-06T11:06:47.995954
11511,-0.1454,0.5305,0.7608,28.245,-24.535,29.120,0.91,0.0184,1.4729,4.3561,0.0087,2025-06-06T11:06:47.995954
11512,-0.1645,0.5783,0.8564,34.335,-20.825,29.155,0.90,0.0368,1.4164,4.3561,0.0087,2025-06-06T11:06:47.995954
11513,-0.1810,0.5954,0.9077,23.450,-33.005,29.155,0.91,0.0184,1.3882,4.2553,0.0087,2025-06-06T11:06:47.995954
11514,-0.1810,0.5856,0.9023,14.665,-49.770,26.705,0.91,0.0368,1.4446,4.2153,0.0174,2025-06-06T11:06:48.204090
11515,-0.1440,0.6007,0.8647,17.115,-53.165,29.190,0.90,0.0184,1.4164,4.1954,0.0087,2025-06-06T11:06:48.204090
11516,-0.0996,0.5646,0.7774,20.860,-53.270,32.165,0.91,0.0184,1.3882,4.2153,0.0087,2025-06-06T11:06:48.204090
11517,-0.0488,0.5485,0.7403,16.870,-50.015,27.160,0.91,0.0184,1.3601,4.2153,0.0087,2025-06-06T11:06:48.204090
11518,-0.0288,0.5314,0.6627,8.610,-39.690,17.850,0.90,0.0368,1.4164,4.1954,0.0087,2025-06-06T11:06:48.204090
11519,0.0083,0.5524,0.6398,6.615,-20.720,8.925,0.91,0.0184,1.4164,4.1954,0.0087,2025-06-06T11:06:48.204090
11520,-0.0161,0.5963,0.6886,11.305,1.890,3.850,0.90,0.0184,1.3882,4.1558,0.0000,2025-06-06T11:06:48.204090
11521,-0.0259,0.6495,0.7686,15.680,6.160,5.075,0.92,0.0184,1.3882,4.1361,0.0087,2025-06-06T11:06:48.204090
11522,-0.1025,0.7535,0.9526,27.195,-0.560,18.165,0.91,0.0184,1.4164,4.0968,0.0000,2025-06-06T11:06:48.204090
11523,-0.0947,0.7325,0.9677,41.755,-31.325,40.040,0.92,0.0368,1.4164,4.0382,0.0087,2025-06-06T11:06:48.204090
11524,-0.0874,0.6978,0.8999,35.385,-71.120,55.545,0.91,0.0184,1.4164,4.0188,0.0087,2025-06-06T11:06:48.204090
11525,-0.0942,0.6076,0.8184,35.665,-75.845,57.855,0.91,0.0368,1.3882,3.9802,0.0174,2025-06-06T11:06:48.204090
11526,-0.0273,0.5290,0.7569,32.655,-55.475,44.695,0.91,0.0368,1.4164,3.9226,0.0087,2025-06-06T11:06:48.204090
11527,0.0283,0.5090,0.7003,25.060,-33.320,29.260,0.91,0.0184,1.3601,3.9035,0.0087,2025-06-06T11:06:48.204090
11528,0.0068,0.5261,0.6974,13.720,-13.860,3.640,0.92,0.0368,1.3882,3.8655,0.0087,2025-06-06T11:06:48.204090
11529,0.0054,0.6520,0.8189,13.510,-0.140,2.520,0.90,0.0368,1.4164,3.9226,0.0174,2025-06-06T11:06:48.252148
11530,-0.0190,0.7183,0.8725,22.995,-13.895,19.215,0.91,0.0184,1.3601,3.8655,0.0087,2025-06-06T11:06:48.252148
11531,-0.0093,0.6856,0.8520,11.130,-42.910,26.145,0.91,0.0184,1.3601,3.8276,0.0174,2025-06-06T11:06:48.252148
11532,0.0293,0.6251,0.7422,2.520,-48.895,22.645,0.93,0.0368,1.3882,3.8088,0.0087,2025-06-06T11:06:48.252148
11533,0.0590,0.5500,0.6769,-2.100,-29.540,9.380,0.91,0.0184,1.3321,3.7713,0.0174,2025-06-06T11:06:48.293935
11534,0.0669,0.5202,0.6368,-4.165,-4.550,-11.235,0.91,0.0368,1.3321,3.6968,0.0087,2025-06-06T11:06:48.293935
11535,0.0488,0.5900,0.7208,-5.145,23.450,-24.920,0.92,0.0368,1.2762,3.6783,0.0174,2025-06-06T11:06:48.293935
11536,-0.0015,0.6778,0.8281,-0.280,30.555,-24.360,0.92,0.0368,1.2483,3.6783,0.0087,2025-06-06T11:06:48.340796
11537,-0.0376,0.7242,0.9067,1.505,0.245,-10.045,0.92,0.0184,1.2483,3.6783,0.0087,2025-06-06T11:06:48.340796
11538,-0.0205,0.7335,0.8394,-10.395,-27.265,9.870,0.91,0.0368,1.2205,3.6231,0.0174,2025-06-06T11:06:48.340796
11539,0.0264,0.6725,0.8086,-0.840,-44.765,19.600,0.91,0.0000,1.2483,3.6415,0.0087,2025-06-06T11:06:48.340796
11540,0.1088,0.6495,0.6798,-7.175,-27.475,10.255,0.91,0.0368,1.2483,3.5684,0.0174,2025-06-06T11:06:48.593106
11541,0.0366,0.5388,0.6603,-3.010,5.250,-10.745,0.91,0.0368,1.1374,3.5322,0.0087,2025-06-06T11:06:48.593106
11542,0.0732,0.6007,0.7125,0.665,26.460,-20.125,0.91,0.0184,1.1650,3.4961,0.0087,2025-06-06T11:06:48.593106
11543,-0.0244,0.6827,0.8398,-2.940,30.240,-25.550,0.93,0.0368,1.1650,3.4781,0.0087,2025-06-06T11:06:48.593106
11544,-0.0532,0.6232,0.9296,-13.335,11.235,-22.225,0.91,0.0368,1.1650,3.4781,0.0174,2025-06-06T11:06:48.593106
11545,-0.0376,0.6905,0.8472,-6.300,-14.280,1.855,0.91,0.0184,1.1927,3.4068,0.0087,2025-06-06T11:06:48.593106
11546,0.0415,0.6949,0.8145,-4.585,-30.905,10.325,0.92,0.0184,1.1374,3.3890,0.0087,2025-06-06T11:06:48.593106
11547,0.0088,0.5700,0.7257,-14.105,-24.465,2.765,0.92,0.0368,1.1650,3.3714,0.0087,2025-06-06T11:06:48.593106
11548,0.0581,0.5485,0.6905,-7.735,-8.190,-5.355,0.90,0.0368,1.1098,3.3537,0.0174,2025-06-06T11:06:48.593106
11549,0.0620,0.5905,0.6939,-6.230,10.010,-13.615,0.92,0.0184,1.1374,3.3361,0.0087,2025-06-06T11:06:48.593106
11550,0.0605,0.6559,0.7505,1.820,14.035,-11.200,0.92,0.0368,1.1650,3.3186,0.0087,2025-06-06T11:06:48.593106
11551,0.0224,0.6676,0.7915,-6.720,9.275,-9.730,0.92,0.0184,1.0823,3.2662,0.0087,2025-06-06T11:06:48.593106
11552,0.0102,0.6461,0.7979,-6.300,1.750,-6.930,0.92,0.0184,1.0823,3.2836,0.0000,2025-06-06T11:06:48.593106
11553,-0.0020,0.6134,0.7808,-8.680,4.095,-10.640,0.91,0.0184,1.1374,3.2662,0.0000,2025-06-06T11:06:48.593106
11554,-0.0156,0.6295,0.7725,-11.375,14.700,-20.300,0.91,0.0184,1.0548,3.2316,0.0000,2025-06-06T11:06:48.593106
11555,0.0059,0.6632,0.7974,-4.585,20.720,-18.305,0.91,0.0184,1.0548,3.2143,0.0087,2025-06-06T11:06:48.593106
11556,-0.0039,0.7169,0.8457,3.710,13.230,-8.400,0.92,0.0368,0.9727,3.1971,0.0174,2025-06-06T11:06:48.593106
11557,-0.0088,0.7388,0.8628,14.665,-7.840,14.980,0.92,0.0184,1.0274,3.1627,0.0087,2025-06-06T11:06:48.637022
11558,-0.0268,0.6315,0.8413,7.840,-20.545,18.375,0.91,0.0368,1.0548,3.1456,0.0174,2025-06-06T11:06:48.637022
11559,-0.0400,0.5895,0.7935,2.800,-22.120,14.350,0.92,0.0368,1.0274,3.1627,0.0174,2025-06-06T11:06:48.637022
11560,-0.0386,0.5876,0.7979,3.080,-11.410,8.120,0.91,0.0368,0.9455,3.0946,0.0087,2025-06-06T11:06:48.637022
11561,-0.0361,0.5973,0.8115,4.655,-0.210,1.610,0.91,0.0368,1.0000,3.1116,0.0174,2025-06-06T11:06:48.900475
11562,-0.0146,0.6578,0.8154,1.715,-1.190,1.855,0.92,0.0368,1.0000,3.0946,0.0174,2025-06-06T11:06:48.900475
11563,0.0039,0.6461,0.7959,4.725,-5.600,7.595,0.90,0.0184,0.9727,3.0608,0.0087,2025-06-06T11:06:48.900475
11564,0.0400,0.5841,0.7247,3.640,-2.940,7.315,0.94,0.0184,0.9727,3.0777,0.0087,2025-06-06T11:06:48.900475
11565,0.0688,0.5446,0.7149,-2.485,7.840,-9.765,0.92,0.0368,0.9727,2.9604,0.0174,2025-06-06T11:06:48.900475
11566,0.0908,0.5090,0.6451,-20.930,18.690,-26.005,0.90,0.0368,0.9727,2.9273,0.0087,2025-06-06T11:06:49.067928
11567,0.0703,0.5890,0.5939,-24.850,31.640,-38.920,0.91,0.0184,0.8912,2.9108,0.0087,2025-06-06T11:06:49.067928
11568,0.0390,0.4612,0.6178,-47.460,57.085,-61.670,0.92,0.0000,0.9455,2.8615,0.0087,2025-06-06T11:06:49.067928
11569,-0.0571,0.4885,0.6227,-55.370,86.765,-90.510,0.92,0.0368,0.9455,2.8289,0.0087,2025-06-06T11:06:49.067928
11570,-0.0815,0.5627,0.7047,-57.505,123.340,-99.365,0.91,0.0184,0.9183,2.8127,0.0087,2025-06-06T11:06:49.067928
11571,-0.2084,0.6520,0.8916,-50.085,132.580,-91.560,0.91,0.0184,0.9183,2.7000,0.0087,2025-06-06T11:06:49.067928
11572,-0.2162,0.7608,1.0365,-29.680,96.740,-62.230,0.92,0.0184,0.9455,2.6207,0.0087,2025-06-06T11:06:49.067928
11573,-0.2928,0.7540,1.1351,-24.710,39.200,-27.195,0.91,0.0184,0.9455,2.6365,0.0087,2025-06-06T11:06:49.067928
11574,-0.3445,0.8140,1.1946,1.890,-27.615,7.875,0.92,0.0184,0.9183,2.6841,0.0174,2025-06-06T11:06:49.067928
11575,-0.3499,0.8086,1.1707,22.820,-65.310,45.115,0.91,0.0184,0.9455,2.7160,0.0087,2025-06-06T11:06:49.067928
11576,-0.3889,0.8525,1.2132,69.545,-96.425,80.675,0.91,0.0184,0.9455,2.7320,0.0262,2025-06-06T11:06:49.067928
11577,-0.4197,0.9126,1.3220,85.400,-129.290,115.710,0.91,0.0368,0.9727,2.7480,0.0087,2025-06-06T11:06:49.067928
11578,-0.8833,1.2742,1.8876,196.595,-153.405,208.635,0.91,0.0184,0.9455,2.7641,0.0087,2025-06-06T11:06:49.067928
11579,-1.3410,1.4298,1.9622,288.680,-226.205,352.940,0.92,0.0368,0.9183,2.7803,0.0000,2025-06-06T11:06:49.067928
11580,-1.4250,1.3176,1.2664,217.665,-500.395,522.270,0.91,0.0184,1.0000,2.7964,0.0087,2025-06-06T11:06:49.067928
11581,-0.5563,0.4831,0.6866,-79.905,-664.790,459.900,0.91,0.0368,0.9455,2.8289,0.0174,2025-06-06T11:06:49.067928
11582,-0.3753,0.1479,-0.1693,-173.670,-825.335,462.560,0.93,0.0368,0.9183,2.8127,0.0087,2025-06-06T11:06:49.067928
11583,-0.9970,-0.4002,-0.0610,-120.015,-722.750,426.720,0.91,0.0184,0.9183,2.8289,0.0087,2025-06-06T11:06:49.067928
11584,-0.1893,-0.6539,-0.6500,-13.790,-648.410,416.605,0.91,0.0184,0.9455,2.8943,0.0087,2025-06-06T11:06:49.067928
11585,0.6934,-0.0278,-1.4401,-8.260,-509.250,330.400,0.92,0.0184,0.9455,2.9108,0.0262,2025-06-06T11:06:49.067928
11586,1.0028,-0.6930,-0.2416,-365.925,-615.510,286.965,0.92,0.0000,0.9455,2.8779,0.0174,2025-06-06T11:06:49.067928
11587,1.0638,0.5412,-2.2970,-359.135,-250.285,271.075,0.91,0.0368,0.9727,2.8615,0.0087,2025-06-06T11:06:49.067928
11588,1.8393,-1.0224,-1.7744,-280.805,171.920,159.845,0.91,0.0368,1.0274,2.8615,0.0087,2025-06-06T11:06:49.067928
11589,1.0843,-3.0695,-2.7782,-182.910,759.850,-364.840,0.91,0.0184,1.0000,2.8943,0.0087,2025-06-06T11:06:49.226178
11590,-0.4665,-1.7705,-1.9696,20.160,1146.740,-784.175,0.90,0.0184,1.0000,2.8943,0.0174,2025-06-06T11:06:49.226178
11591,-3.4702,-0.9306,-3.3848,-177.275,1146.740,-699.440,0.91,0.0368,1.0274,2.9108,0.0087,2025-06-06T11:06:49.226178
11592,-5.6418,2.1457,5.6222,-143.535,1116.850,-421.295,0.89,0.0368,1.0000,2.8779,0.0087,2025-06-06T11:06:49.226178
11593,-1.8700,1.4538,3.4746,-106.925,587.930,-105.980,0.92,0.0184,1.0000,2.8779,0.0087,2025-06-06T11:06:49.226178
11594,-1.4782,1.5962,4.0450,-17.325,88.060,-14.595,0.91,0.0368,0.9727,2.8452,0.0174,2025-06-06T11:06:49.226178
11595,-0.6939,0.9823,3.0456,-136.010,-149.660,47.845,0.92,0.0184,0.9727,2.7964,0.0087,2025-06-06T11:06:49.226178
11596,-0.6310,0.2625,2.1784,80.150,-143.115,85.715,0.91,0.0184,0.9455,2.7160,0.0000,2025-06-06T11:06:49.226178
11597,-0.5856,0.3558,1.9017,158.235,-174.790,108.920,0.91,0.0184,0.9183,2.7160,0.0087,2025-06-06T11:06:49.226178
11598,-0.4597,0.7876,1.5348,159.110,-267.330,134.890,0.90,0.0184,0.8912,2.7000,0.0087,2025-06-06T11:06:49.226178
11599,-0.1264,0.8032,0.7906,43.505,-337.120,131.530,0.91,0.0184,0.9727,2.6682,0.0000,2025-06-06T11:06:49.226178
11600,0.1166,0.4114,0.3045,47.250,-324.030,119.910,0.91,0.0368,0.9455,2.6841,0.0087,2025-06-06T11:06:49.226178
11601,0.1835,-0.0727,-0.1674,58.905,-216.545,66.605,0.90,0.0184,0.8912,2.6682,0.0087,2025-06-06T11:06:49.226178
11602,0.3963,-0.0893,-0.4485,37.275,-74.445,-16.940,0.92,0.0184,0.9455,2.6682,0.0087,2025-06-06T11:06:49.226178
11603,0.5954,0.1274,-0.2850,-23.625,85.260,-107.625,0.92,0.0184,0.8912,2.6682,0.0087,2025-06-06T11:06:49.226178
11604,0.4285,0.2333,0.1996,-57.015,171.500,-141.540,0.92,0.0184,0.9183,2.7320,0.0087,2025-06-06T11:06:49.276878
11605,0.0737,0.3299,0.6822,-43.680,212.275,-114.765,0.92,0.0368,0.9455,2.7000,0.0087,2025-06-06T11:06:49.276878
11606,-0.0342,0.5710,1.2141,-13.895,188.790,-72.030,0.90,0.0368,0.8912,2.6682,0.0174,2025-06-06T11:06:49.276878
11607,-0.1293,0.7559,1.5016,-10.325,102.060,-35.945,0.92,0.0368,0.9455,2.6682,0.0087,2025-06-06T11:06:49.276878
11608,-0.1235,0.6461,1.4762,-18.935,30.660,-16.660,0.91,0.0368,0.9183,2.6682,0.0087,2025-06-06T11:06:49.428428
11609,-0.1459,0.5114,1.2991,-17.360,-18.095,-8.120,0.91,0.0184,0.9727,2.7000,0.0174,2025-06-06T11:06:49.428428
11610,-0.0747,0.4494,1.0970,-5.635,-31.640,1.610,0.91,0.0184,1.0000,2.7160,0.0087,2025-06-06T11:06:49.428428
11611,0.0371,0.4358,0.9140,-1.155,-40.425,6.825,0.91,0.0184,1.0548,2.7160,0.0174,2025-06-06T11:06:49.428428
11612,0.1137,0.4163,0.7047,-12.355,-29.400,0.770,0.91,0.0184,1.0274,2.7160,0.0087,2025-06-06T11:06:49.428428
11613,0.1952,0.4211,0.6837,-11.165,-4.375,-5.810,0.91,0.0184,1.0000,2.7320,0.0087,2025-06-06T11:06:49.428428
11614,0.1435,0.4529,0.7066,-1.995,16.555,-5.740,0.90,0.0184,0.9455,2.7320,0.0087,2025-06-06T11:06:49.428428
11615,0.0942,0.5036,0.7969,2.030,31.780,-8.120,0.91,0.0184,1.0548,2.7480,0.0000,2025-06-06T11:06:49.428428
11616,0.0273,0.5607,0.9174,3.080,35.035,-7.840,0.91,0.0368,0.9727,2.7641,0.0000,2025-06-06T11:06:49.428428
11617,0.0254,0.5680,1.0033,9.940,26.460,-3.360,0.91,0.0368,0.9455,2.7480,0.0087,2025-06-06T11:06:49.428428
11618,-0.0312,0.5524,1.0199,14.280,10.850,2.660,0.91,0.0184,0.9727,2.7480,0.0174,2025-06-06T11:06:49.428428
11619,-0.0381,0.4987,0.9623,7.875,-3.290,2.520,0.91,0.0368,0.9183,2.7964,0.0087,2025-06-06T11:06:49.681028
11620,0.0020,0.4738,0.9111,1.505,-9.940,2.905,0.92,0.0368,0.9455,2.7480,0.0087,2025-06-06T11:06:49.681028
11621,0.0195,0.4407,0.8774,2.660,-5.565,2.975,0.91,0.0368,0.9727,2.7480,0.0174,2025-06-06T11:06:49.681028
11622,0.0522,0.4509,0.8398,7.560,3.150,1.715,0.91,0.0368,0.9183,2.7480,0.0174,2025-06-06T11:06:49.681028
11623,0.0571,0.4470,0.8306,-2.310,9.205,-6.195,0.92,0.0368,0.8912,2.7641,0.0000,2025-06-06T11:06:49.681028
11624,0.0381,0.4885,0.8613,-4.585,10.990,-7.420,0.91,0.0184,0.8641,2.7480,0.0087,2025-06-06T11:06:49.681028
11625,0.0268,0.4895,0.9087,1.295,13.090,-2.835,0.91,0.0184,0.9455,2.7480,0.0087,2025-06-06T11:06:49.681028
11626,0.0142,0.4973,0.9077,6.335,12.530,-1.190,0.90,0.0184,0.9183,2.7480,0.0087,2025-06-06T11:06:49.681028
11627,0.0029,0.4929,0.9311,3.255,8.890,-2.520,0.92,0.0184,0.9727,2.7964,0.0087,2025-06-06T11:06:49.681028
11628,-0.0268,0.4958,0.9360,0.280,3.780,-1.925,0.91,0.0184,0.9183,2.8289,0.0174,2025-06-06T11:06:49.681028
11629,-0.0142,0.4890,0.9365,1.750,-0.385,0.735,0.90,0.0184,0.9455,2.7964,0.0087,2025-06-06T11:06:49.681028
11630,-0.0190,0.4748,0.9184,0.490,-1.295,0.455,0.91,0.0184,0.9455,2.8615,0.0087,2025-06-06T11:06:49.681028
11631,-0.0156,0.4665,0.8940,-2.695,-1.820,-3.325,0.91,0.0368,0.9727,2.9273,0.0174,2025-06-06T11:06:49.681028
11632,0.0107,0.5061,0.8877,-2.905,1.015,-2.555,0.92,0.0184,1.0548,2.9937,0.0000,2025-06-06T11:06:49.681028
11633,0.0156,0.5305,0.9062,2.835,-0.630,0.420,0.92,0.0368,1.0274,3.0946,0.0087,2025-06-06T11:06:49.681028
11634,-0.0088,0.5148,0.8989,4.725,-4.130,3.325,0.91,0.0368,1.1098,3.1799,0.0087,2025-06-06T11:06:49.681028
11635,-0.0034,0.5070,0.8862,3.780,-6.860,3.570,0.90,0.0368,1.1374,3.3011,0.0087,2025-06-06T11:06:49.681028
11636,-0.0020,0.4929,0.8779,2.485,-6.580,3.255,0.91,0.0368,1.1650,3.4245,0.0174,2025-06-06T11:06:49.839998
11637,0.0034,0.4909,0.8808,5.495,-3.360,3.850,0.91,0.0184,1.2483,3.5866,0.0087,2025-06-06T11:06:49.839998
11638,0.0151,0.5031,0.9043,6.440,-0.490,2.800,0.91,0.0184,1.3041,3.7153,0.0174,2025-06-06T11:06:49.839998
11639,-0.0293,0.4914,0.9057,7.210,0.700,5.145,0.92,0.0184,1.3041,3.8465,0.0174,2025-06-06T11:06:49.839998
11640,-0.0400,0.4665,0.9545,4.725,-2.240,4.060,0.92,0.0184,1.3321,3.9417,0.0087,2025-06-06T11:06:49.839998
11641,-0.0224,0.4660,0.9404,-1.365,-7.980,0.070,0.91,0.0184,1.3321,4.0188,0.0174,2025-06-06T11:06:49.839998
11642,-0.0044,0.4734,0.9379,-4.550,-12.180,-0.770,0.90,0.0184,1.3882,4.0577,0.0087,2025-06-06T11:06:49.839998
11643,0.0161,0.5056,0.9077,-1.715,-16.905,2.905,0.92,0.0184,1.4446,4.1558,0.0087,2025-06-06T11:06:49.839998
11644,0.0264,0.5022,0.8452,-0.420,-15.400,2.905,0.91,0.0184,1.5012,4.2153,0.0087,2025-06-06T11:06:49.839998
11645,0.0595,0.5183,0.8452,1.435,-9.625,1.190,0.91,0.0184,1.4446,4.2753,0.0087,2025-06-06T11:06:49.839998
11646,0.0425,0.5280,0.8535,6.825,-4.305,2.765,0.91,0.0000,1.5296,4.3358,0.0174,2025-06-06T11:06:49.839998
11647,0.0029,0.4924,0.8613,7.420,-1.295,2.800,0.91,0.0368,1.5580,4.3561,0.0087,2025-06-06T11:06:49.839998
11648,0.0039,0.5119,0.9111,5.355,-5.250,1.085,0.91,0.0184,1.5296,4.3969,0.0174,2025-06-06T11:06:49.839998
11649,-0.0083,0.4992,0.9145,2.905,-10.080,4.130,0.91,0.0184,1.5865,4.4997,0.0087,2025-06-06T11:06:50.043377
11650,-0.0049,0.4817,0.8935,4.375,-11.130,4.130,0.91,0.0184,1.6437,4.5412,0.0087,2025-06-06T11:06:50.043377
11651,0.0171,0.4836,0.8994,-1.295,-12.215,2.135,0.92,0.0000,1.5865,4.6040,0.0087,2025-06-06T11:06:50.043377
11652,0.0034,0.4699,0.8804,-3.535,-14.070,2.695,0.91,0.0368,1.7300,4.6250,0.0087,2025-06-06T11:06:50.043377
11653,0.0185,0.4773,0.8745,-1.960,-11.550,2.625,0.91,0.0368,1.6724,4.6673,0.0087,2025-06-06T11:06:50.043377
11654,0.0449,0.5119,0.8467,-0.210,-7.980,0.455,0.91,0.0184,1.6724,4.6885,0.0087,2025-06-06T11:06:50.043377
11655,0.0820,0.5368,0.8384,3.255,1.190,-0.490,0.91,0.0184,1.7012,4.7311,0.0000,2025-06-06T11:06:50.043377
11656,0.0337,0.4782,0.8906,2.485,6.510,-1.470,0.91,0.0184,1.7588,4.7311,0.0087,2025-06-06T11:06:50.043377
11657,-0.0142,0.4968,0.9199,4.515,3.990,-2.170,0.91,0.0368,1.7588,4.7525,0.0087,2025-06-06T11:06:50.043377
11658,-0.0122,0.5192,0.9438,2.170,-2.905,1.785,0.91,0.0368,1.7012,4.8171,0.0174,2025-06-06T11:06:50.043377
11659,0.0000,0.5134,0.8955,0.210,-9.275,1.470,0.92,0.0184,1.6724,4.7955,0.0087,2025-06-06T11:06:50.043377
11660,0.0264,0.4992,0.8843,2.240,-5.880,1.925,0.91,0.0368,1.7588,4.7955,0.0087,2025-06-06T11:06:50.043377
11661,0.0122,0.5056,0.8857,5.005,-5.180,1.610,0.91,0.0184,1.7588,4.7955,0.0000,2025-06-06T11:06:50.043377
11662,0.0161,0.4948,0.8662,2.380,-3.710,-0.140,0.92,0.0368,1.7012,4.7955,0.0087,2025-06-06T11:06:50.043377
11663,0.0293,0.4939,0.8457,1.015,0.000,-1.960,0.93,0.0184,1.6724,4.8388,0.0087,2025-06-06T11:06:50.043377
11664,0.0503,0.5309,0.8969,3.605,-2.905,1.820,0.91,0.0184,1.7588,4.7955,0.0174,2025-06-06T11:06:50.096065
11665,0.0327,0.5461,0.9374,7.980,-16.065,12.215,0.92,0.0184,1.6724,4.8171,0.0174,2025-06-06T11:06:50.096065
11666,-0.0254,0.4519,0.9038,2.520,-17.920,6.930,0.91,0.0184,1.7588,4.8171,0.0087,2025-06-06T11:06:50.096065
11667,0.0259,0.4802,0.8584,-2.065,-9.835,-0.770,0.92,0.0184,1.7012,4.7955,0.0174,2025-06-06T11:06:50.096065
11668,0.0473,0.4987,0.8657,0.735,1.540,-2.205,0.92,0.0184,1.7588,4.7740,0.0087,2025-06-06T11:06:50.277046
11669,0.0210,0.5012,0.9038,6.160,1.120,-1.155,0.93,0.0184,1.6437,4.7525,0.0174,2025-06-06T11:06:50.277046
11670,0.0068,0.5183,0.8999,1.820,-4.550,1.400,0.93,0.0368,1.6437,4.7525,0.0087,2025-06-06T11:06:50.277046
11671,0.0054,0.4924,0.8935,-1.750,-6.825,0.735,0.91,0.0184,1.6437,4.6885,0.0087,2025-06-06T11:06:50.277046
11672,0.0181,0.4934,0.8774,1.120,-4.200,0.315,0.91,0.0368,1.6151,4.6461,0.0174,2025-06-06T11:06:50.277046
11673,0.0293,0.5095,0.8696,1.190,-1.540,-1.260,0.91,0.0368,1.5865,4.6250,0.0087,2025-06-06T11:06:50.277046
11674,0.0288,0.5104,0.8677,-1.085,-0.805,-1.365,0.92,0.0368,1.5865,4.5830,0.0174,2025-06-06T11:06:50.277046
11675,0.0244,0.5046,0.8960,0.280,-2.030,0.385,0.91,0.0184,1.5865,4.5830,0.0087,2025-06-06T11:06:50.277046
11676,0.0117,0.5080,0.8950,0.910,-4.445,1.540,0.91,0.0368,1.5580,4.5621,0.0087,2025-06-06T11:06:50.277046
11677,0.0151,0.5002,0.8901,-0.735,-5.250,0.280,0.91,0.0184,1.6151,4.5204,0.0087,2025-06-06T11:06:50.277046
11678,0.0234,0.5085,0.8843,-1.645,-5.110,-0.910,0.92,0.0184,1.6151,4.4997,0.0087,2025-06-06T11:06:50.277046
11679,0.0322,0.5070,0.8667,-0.980,-4.025,-1.330,0.92,0.0184,1.6151,4.4997,0.0087,2025-06-06T11:06:50.277046
11680,0.0351,0.5007,0.8682,-0.595,-1.330,-1.400,0.91,0.0368,1.6151,4.5204,0.0174,2025-06-06T11:06:50.277046
11681,0.0249,0.4973,0.8808,0.455,0.035,-1.575,0.91,0.0184,1.5865,4.5204,0.0174,2025-06-06T11:06:50.329502
11682,0.0298,0.5007,0.8867,0.245,1.120,-2.275,0.90,0.0552,1.5012,4.4584,0.0087,2025-06-06T11:06:50.329502
11683,0.0122,0.4982,0.8891,-0.315,0.560,-1.330,0.91,0.0368,1.5580,4.4584,0.0087,2025-06-06T11:06:50.329502
11684,0.0127,0.4963,0.8940,0.210,0.420,-1.715,0.92,0.0368,1.5865,4.4584,0.0087,2025-06-06T11:06:50.329502
11685,0.0234,0.5075,0.8886,-1.050,-1.260,-1.960,0.91,0.0368,1.5580,4.4584,0.0087,2025-06-06T11:06:50.457453
11686,0.0171,0.4948,0.8623,-2.765,0.280,-3.780,0.91,0.0368,1.5580,4.4378,0.0087,2025-06-06T11:06:50.457453
11687,0.0234,0.5017,0.8638,-2.275,3.745,-5.215,0.91,0.0184,1.5580,4.4378,0.0087,2025-06-06T11:06:50.457453
11688,0.0127,0.5148,0.8843,-1.120,4.445,-3.745,0.92,0.0368,1.4729,4.3561,0.0174,2025-06-06T11:06:50.457453
11689,0.0098,0.5100,0.8994,0.140,2.065,-2.415,0.92,0.0184,1.5012,4.3561,0.0087,2025-06-06T11:06:50.457453
11690,0.0054,0.5109,0.8984,-0.105,-0.840,-1.960,0.91,0.0368,1.4729,4.3156,0.0087,2025-06-06T11:06:50.457453
11691,0.0151,0.4997,0.8896,-0.805,-2.625,-1.575,0.91,0.0184,1.4164,4.2353,0.0087,2025-06-06T11:06:50.457453
11692,0.0122,0.4939,0.8784,0.140,-1.540,-1.085,0.91,0.0184,1.4164,4.1954,0.0174,2025-06-06T11:06:50.457453
11693,0.0073,0.4880,0.8740,-0.315,0.105,-2.380,0.91,0.0368,1.3882,4.1164,0.0000,2025-06-06T11:06:50.457453
11694,0.0068,0.4948,0.8764,-0.735,3.745,-3.500,0.92,0.0184,1.3882,4.0577,0.0087,2025-06-06T11:06:50.457453
11695,-0.0049,0.4987,0.9013,-0.035,5.250,-3.570,0.92,0.0368,1.3601,4.0382,0.0087,2025-06-06T11:06:50.457453
11696,-0.0127,0.4997,0.8965,-0.910,3.325,-4.375,0.91,0.0368,1.4164,4.0188,0.0174,2025-06-06T11:06:50.673727
11697,-0.0010,0.5080,0.9008,-2.975,1.995,-5.145,0.92,0.0552,1.3601,3.9609,0.0174,2025-06-06T11:06:50.673727
11698,-0.0020,0.5309,0.9072,-1.050,-0.665,-1.575,0.91,0.0184,1.3321,3.9226,0.0087,2025-06-06T11:06:50.673727
11699,-0.0020,0.5266,0.8965,1.855,-5.180,0.665,0.91,0.0368,1.3882,3.9035,0.0087,2025-06-06T11:06:50.673727
11700,0.0093,0.5051,0.8716,0.630,-5.460,0.840,0.92,0.0184,1.2762,3.8844,0.0087,2025-06-06T11:06:50.673727
11701,0.0029,0.4836,0.8603,0.630,-0.875,-1.820,0.91,0.0184,1.2762,3.8465,0.0087,2025-06-06T11:06:50.673727
11702,0.0054,0.4753,0.8613,0.630,5.600,-4.900,0.91,0.0184,1.2205,3.7900,0.0087,2025-06-06T11:06:50.673727
11703,-0.0020,0.4885,0.8691,0.840,9.835,-6.230,0.91,0.0184,1.3321,3.7526,0.0087,2025-06-06T11:06:50.673727
11704,-0.0146,0.4753,0.8706,-2.240,12.845,-8.995,0.91,0.0184,1.2483,3.7339,0.0087,2025-06-06T11:06:50.673727
11705,-0.0059,0.4929,0.8828,-3.010,14.735,-8.890,0.91,0.0184,1.2205,3.7153,0.0000,2025-06-06T11:06:50.673727
11706,-0.0259,0.4485,0.8838,-5.530,22.400,-7.805,0.91,0.0000,1.2483,3.6783,0.0087,2025-06-06T11:06:50.673727
11707,-0.0010,0.4514,0.8125,-5.950,32.515,-16.170,0.92,0.0184,1.2762,3.6599,0.0087,2025-06-06T11:06:50.673727
11708,-0.0166,0.5275,0.8872,-0.210,33.845,-13.405,0.93,0.0184,1.1650,3.6049,0.0087,2025-06-06T11:06:50.673727
11709,-0.0386,0.5090,0.8950,-0.770,30.730,-14.560,0.91,0.0184,1.1927,3.5141,0.0087,2025-06-06T11:06:50.673727
11710,-0.0522,0.5026,0.8716,-1.365,30.835,-15.295,0.92,0.0368,1.2483,3.5141,0.0087,2025-06-06T11:06:50.673727
11711,-0.0878,0.5485,0.9004,4.970,42.525,-13.510,0.91,0.0368,1.1927,3.5141,0.0000,2025-06-06T11:06:50.859757
11712,-0.2542,0.5187,1.4225,36.610,79.100,11.865,0.91,0.0184,1.1374,3.5141,0.0087,2025-06-06T11:06:50.859757
11713,-0.9379,1.3113,3.1876,174.370,11.340,123.760,0.91,0.0184,1.1650,3.5141,0.0087,2025-06-06T11:06:50.859757
11714,-2.5752,2.6679,6.2362,321.825,-283.570,327.530,0.92,0.0368,1.1650,3.4961,0.0174,2025-06-06T11:06:50.859757
11715,-3.6605,2.4273,3.7439,344.190,-1002.960,614.425,0.91,0.0368,1.1650,3.4781,0.0000,2025-06-06T11:06:50.859757
11716,-3.7854,1.4259,1.5357,193.025,-1146.740,885.255,0.93,0.0184,1.0823,3.4424,0.0087,2025-06-06T11:06:51.028077
11717,-3.3452,-0.0254,-0.8428,134.995,-1146.740,940.590,0.91,0.0368,1.1374,3.3714,0.0087,2025-06-06T11:06:51.028077
11718,-3.7547,-1.4459,-1.8002,-71.960,-1035.685,890.155,0.92,0.0184,1.0823,3.3537,0.0087,2025-06-06T11:06:51.028077
11719,-1.4128,-1.5611,-3.0929,97.370,-1057.140,827.470,0.90,0.0184,1.0548,3.3011,0.0087,2025-06-06T11:06:51.028077
11720,-2.0618,-1.7446,-2.6391,-10.640,-906.640,662.830,0.91,0.0000,1.0548,3.2662,0.0087,2025-06-06T11:06:51.028077
11721,0.4748,-3.0773,-4.2397,-210.490,-630.840,489.440,0.92,0.0184,1.0823,3.2662,0.0174,2025-06-06T11:06:51.028077
11722,1.0477,-2.3746,-3.3843,-36.085,-77.455,91.280,0.90,0.0184,1.0274,3.2143,0.0087,2025-06-06T11:06:51.028077
11723,0.9833,-2.1677,-3.1417,-14.350,483.210,-316.190,0.91,0.0184,1.0000,3.2316,0.0087,2025-06-06T11:06:51.028077
11724,0.3494,-2.0472,-3.8259,-126.175,907.410,-763.280,0.91,0.0184,1.0548,3.1799,0.0087,2025-06-06T11:06:51.028077
11725,-1.4503,-2.3043,-3.2989,-497.420,1146.740,-936.110,0.92,0.0184,0.9455,3.1799,0.0087,2025-06-06T11:06:51.093611
11726,-2.0935,-0.9121,-3.7864,-389.410,1146.740,-1071.105,0.91,0.0368,1.1098,3.1799,0.0087,2025-06-06T11:06:51.093611
11727,-9.3369,-2.3878,-0.0190,-664.965,1146.740,-650.720,0.91,0.0184,1.0548,3.1627,0.0087,2025-06-06T11:06:51.093611
11728,-4.5135,-0.8516,-0.6754,-727.300,1146.740,-227.640,0.93,0.0368,1.0000,3.1116,0.0087,2025-06-06T11:06:51.093611
11729,-5.5730,2.1692,4.2549,-278.005,1022.245,34.475,0.90,0.0184,0.9183,3.0777,0.0087,2025-06-06T11:06:51.093611
11730,-2.9041,2.2492,6.5792,127.505,724.675,-1.435,0.91,0.0368,1.0000,3.0272,0.0087,2025-06-06T11:06:51.093611
11731,-4.1265,1.2644,7.4522,327.355,64.995,277.060,0.92,0.0184,1.0000,2.9604,0.0087,2025-06-06T11:06:51.093611
11732,-2.1496,1.1214,4.6057,41.195,-298.095,18.935,0.92,0.0184,0.9455,2.9604,0.0087,2025-06-06T11:06:51.093611
11733,-1.0453,-0.2235,1.2517,-493.220,-331.520,-118.580,0.91,0.0184,0.9455,2.9438,0.0087,2025-06-06T11:06:51.093611
11734,-0.5266,-0.3192,0.7525,-285.705,-458.955,-72.905,0.92,0.0184,1.0000,2.9438,0.0087,2025-06-06T11:06:51.093611
11735,0.0673,0.3255,-0.0293,21.735,-221.690,-11.830,0.93,0.0368,0.9455,2.9438,0.0087,2025-06-06T11:06:51.093611
11736,-0.1132,0.4529,0.9823,233.660,59.010,20.685,0.91,0.0184,0.9455,2.9108,0.0174,2025-06-06T11:06:51.093611
11737,-0.2777,0.5876,1.0370,240.170,-49.910,57.260,0.91,0.0184,1.0000,2.9108,0.0087,2025-06-06T11:06:51.093611
11738,-0.1347,0.5841,0.5236,15.575,-165.655,22.680,0.90,0.0184,0.9183,2.9273,0.0000,2025-06-06T11:06:51.093611
11739,0.0864,0.6505,0.6432,-84.595,-149.695,1.785,0.92,0.0000,0.9183,2.9273,0.0087,2025-06-06T11:06:51.093611
11740,0.1874,0.5510,0.4743,-83.440,-77.560,1.925,0.91,0.0368,0.9455,2.8943,0.0087,2025-06-06T11:06:51.093611
11741,0.2201,0.3919,0.4314,126.420,44.345,4.865,0.93,0.0368,1.0548,2.9108,0.0174,2025-06-06T11:06:51.270562
11742,0.1498,0.3528,0.3182,130.935,130.655,-22.050,0.92,0.0184,0.9455,2.9108,0.0087,2025-06-06T11:06:51.270562
11743,0.0024,0.2933,0.6417,28.140,156.135,-35.875,0.93,0.0368,0.9455,2.8943,0.0174,2025-06-06T11:06:51.270562
11744,-0.1908,0.2020,0.9487,-10.535,145.775,-29.750,0.91,0.0184,1.0000,2.8943,0.0174,2025-06-06T11:06:51.270562
11745,-0.2982,0.2865,1.2815,30.765,110.425,-10.990,0.91,0.0368,0.9183,2.9273,0.0174,2025-06-06T11:06:51.270562
11746,-0.3274,0.3460,1.4211,35.980,57.505,2.940,0.91,0.0184,0.9183,2.9273,0.0087,2025-06-06T11:06:51.270562
11747,-0.3226,0.3221,1.3030,10.115,-4.200,-0.280,0.90,0.0184,0.8641,2.9273,0.0087,2025-06-06T11:06:51.270562
11748,-0.2718,0.2684,1.1727,-9.485,-32.830,-9.765,0.91,0.0368,0.8912,2.8943,0.0087,2025-06-06T11:06:51.270562
11749,-0.2147,0.2621,1.0175,-2.240,-39.235,-10.430,0.91,0.0368,0.9455,2.8943,0.0087,2025-06-06T11:06:51.270562
11750,-0.1401,0.2699,0.8618,1.225,-29.365,-9.555,0.91,0.0184,0.9183,2.8943,0.0000,2025-06-06T11:06:51.270562
11751,-0.0927,0.3152,0.8203,-4.480,-16.450,-7.350,0.93,0.0184,0.9455,2.9108,0.0000,2025-06-06T11:06:51.270562
11752,-0.0922,0.3426,0.8691,-2.905,-6.020,-5.495,0.91,0.0368,0.9183,2.8615,0.0174,2025-06-06T11:06:51.270562
11753,-0.1357,0.3567,0.8940,1.750,-2.275,-0.735,0.93,0.0184,0.9183,2.8779,0.0174,2025-06-06T11:06:51.270562
11754,-0.1562,0.3582,0.9052,-2.765,-5.250,-1.995,0.92,0.0184,0.8912,2.8943,0.0000,2025-06-06T11:06:51.270562
11755,-0.1352,0.4168,0.8867,-7.630,-9.030,-2.590,0.91,0.0368,0.9183,2.9108,0.0087,2025-06-06T11:06:51.481277
11756,-0.1142,0.4377,0.8847,-5.390,-2.415,-1.400,0.91,0.0184,0.9183,2.8943,0.0087,2025-06-06T11:06:51.481277
11757,-0.1181,0.4597,0.8955,7.840,5.635,3.395,0.90,0.0368,0.9455,2.9273,0.0087,2025-06-06T11:06:51.481277
11758,-0.1757,0.4055,0.9482,4.060,7.245,-2.030,0.92,0.0368,0.9183,2.8943,0.0174,2025-06-06T11:06:51.481277
11759,-0.1893,0.4192,0.9501,1.505,4.060,-2.905,0.91,0.0368,0.9455,2.9273,0.0087,2025-06-06T11:06:51.481277
11760,-0.1869,0.3943,0.9950,1.575,1.435,-0.560,0.92,0.0184,0.9183,2.9438,0.0087,2025-06-06T11:06:51.481277
11761,-0.1898,0.4085,0.9721,10.885,-1.680,1.365,0.93,0.0368,0.9455,2.9770,0.0087,2025-06-06T11:06:51.481277
11762,-0.1698,0.4050,0.9721,8.435,-10.640,5.390,0.92,0.0184,0.9455,2.9937,0.0087,2025-06-06T11:06:51.481277
11763,-0.1747,0.3762,0.9682,4.130,-24.115,6.615,0.90,0.0368,0.9455,2.9937,0.0087,2025-06-06T11:06:51.481277
11764,-0.1557,0.3245,0.8950,1.680,-21.840,7.210,0.91,0.0184,0.9455,3.0272,0.0087,2025-06-06T11:06:51.481277
11765,-0.1440,0.3187,0.8779,2.975,-6.720,2.940,0.91,0.0184,0.9455,3.0608,0.0174,2025-06-06T11:06:51.481277
11766,-0.1376,0.3738,0.8838,4.550,6.125,0.035,0.90,0.0368,0.9183,3.0777,0.0174,2025-06-06T11:06:51.481277
11767,-0.1357,0.4358,0.9409,6.965,7.350,3.955,0.88,0.0368,0.9183,3.0946,0.0087,2025-06-06T11:06:51.481277
11768,-0.1688,0.3875,1.0194,2.345,-4.725,0.385,0.92,0.0184,1.0000,3.1456,0.0174,2025-06-06T11:06:51.481277
11769,-0.1649,0.4075,0.9633,0.420,-13.195,2.380,0.92,0.0184,0.9455,3.1456,0.0087,2025-06-06T11:06:51.481277
11770,-0.1547,0.3909,0.9692,3.150,-14.455,2.590,0.91,0.0000,0.9455,3.2143,0.0087,2025-06-06T11:06:51.673097
11771,-0.1435,0.4075,0.9126,7.455,-9.730,3.430,0.91,0.0368,1.0274,3.2316,0.0174,2025-06-06T11:06:51.673097
11772,-0.1147,0.4275,0.8930,13.125,-7.350,6.370,0.91,0.0184,1.0000,3.2662,0.0087,2025-06-06T11:06:51.673097
11773,-0.0761,0.3611,0.8506,6.230,-2.100,2.100,0.91,0.0184,1.0823,3.3361,0.0087,2025-06-06T11:06:51.673097
11774,-0.1625,0.3211,0.8496,1.015,5.355,-5.390,0.92,0.0368,1.0823,3.3714,0.0174,2025-06-06T11:06:51.673097
11775,-0.1586,0.3353,0.8843,-3.500,8.855,-1.855,0.90,0.0184,1.0274,3.4424,0.0087,2025-06-06T11:06:51.673097
11776,-0.1669,0.3841,0.9545,0.805,11.095,-1.540,0.91,0.0184,1.1650,3.4424,0.0174,2025-06-06T11:06:51.673097
11777,-0.1747,0.4260,0.9662,-2.415,11.200,-2.870,0.91,0.0184,1.0000,3.5141,0.0174,2025-06-06T11:06:51.673097
11778,-0.1830,0.4324,1.0150,0.175,3.360,1.015,0.93,0.0368,1.1098,3.5503,0.0087,2025-06-06T11:06:51.673097
11779,-0.1723,0.4075,0.9984,-1.155,-9.485,2.310,0.91,0.0368,1.2483,3.6049,0.0087,2025-06-06T11:06:51.673097
11780,-0.1664,0.3909,0.9311,-1.120,-12.425,-8.820,0.91,0.0184,1.2205,3.6968,0.0000,2025-06-06T11:06:51.673097
11781,-0.1488,0.3675,0.9008,-2.730,-5.915,-1.260,0.91,0.0184,1.1650,3.7713,0.0087,2025-06-06T11:06:51.673097
11782,-0.1474,0.3714,0.8847,0.350,0.630,-3.115,0.92,0.0184,1.2762,3.8655,0.0087,2025-06-06T11:06:51.673097
11783,-0.1405,0.3904,0.9018,-1.715,4.340,-3.605,0.91,0.0184,1.3041,3.9035,0.0087,2025-06-06T11:06:51.673097
11784,-0.1532,0.4026,0.9252,-1.330,3.955,-2.380,0.92,0.0184,1.2483,3.9995,0.0174,2025-06-06T11:06:51.673097
11785,-0.2050,0.3562,0.9282,-4.410,6.300,-3.570,0.91,0.0368,1.3321,4.0382,0.0087,2025-06-06T11:06:51.885934
11786,-0.1610,0.3714,0.9282,-4.130,5.950,-8.085,0.92,0.0368,1.4164,4.0968,0.0087,2025-06-06T11:06:51.885934
11787,-0.1415,0.4729,0.9643,-1.680,2.765,3.325,0.92,0.0368,1.3882,4.1361,0.0087,2025-06-06T11:06:51.885934
11788,-0.1806,0.4597,1.0097,4.830,1.575,0.665,0.91,0.0552,1.4164,4.1954,0.0174,2025-06-06T11:06:51.885934
11789,-0.1669,0.4002,0.9633,-0.105,-2.660,-0.175,0.91,0.0184,1.4446,4.2954,0.0087,2025-06-06T11:06:51.885934
11790,-0.1942,0.3704,0.9199,-2.415,-7.840,0.105,0.91,0.0184,1.4446,4.3561,0.0000,2025-06-06T11:06:51.885934
11791,-0.1830,0.3904,0.9496,-2.485,-10.710,-0.315,0.90,0.0184,1.4729,4.4378,0.0087,2025-06-06T11:06:51.885934
11792,-0.1669,0.3860,0.9199,-1.260,-10.220,-0.315,0.92,0.0368,1.4729,4.4584,0.0087,2025-06-06T11:06:51.885934
11793,-0.1771,0.3728,0.9292,-2.415,-6.370,-1.295,0.91,0.0368,1.5012,4.4584,0.0087,2025-06-06T11:06:51.885934
11794,-0.1723,0.3972,0.9516,0.595,-6.195,-1.085,0.93,0.0368,1.5296,4.5204,0.0087,2025-06-06T11:06:51.885934
11795,-0.1566,0.3977,0.9316,0.945,-7.630,1.365,0.92,0.0184,1.5580,4.5621,0.0087,2025-06-06T11:06:51.885934
11796,-0.1625,0.3758,0.9189,-0.700,-6.405,-0.840,0.92,0.0184,1.5865,4.6040,0.0087,2025-06-06T11:06:51.885934
11797,-0.1601,0.3855,0.9067,-2.100,-5.110,-1.715,0.91,0.0184,1.5865,4.6040,0.0087,2025-06-06T11:06:51.885934
11798,-0.1396,0.4124,0.9233,3.010,-3.150,0.070,0.91,0.0368,1.5865,4.6250,0.0174,2025-06-06T11:06:51.885934
11799,-0.1464,0.4006,0.9262,2.380,-2.520,1.295,0.92,0.0368,1.5865,4.6461,0.0087,2025-06-06T11:06:51.885934
11800,-0.1972,0.3758,0.9428,0.385,-4.585,-1.365,0.91,0.0368,1.5865,4.6673,0.0087,2025-06-06T11:06:52.091906
11801,-0.1898,0.3709,0.9604,-2.625,-7.980,-0.770,0.91,0.0368,1.5865,4.7098,0.0174,2025-06-06T11:06:52.091906
11802,-0.1718,0.3992,0.9633,1.610,-12.040,1.680,0.92,0.0368,1.6151,4.7525,0.0087,2025-06-06T11:06:52.091906
11803,-0.1601,0.4006,0.9277,2.660,-10.850,3.255,0.91,0.0368,1.5580,4.7525,0.0087,2025-06-06T11:06:52.091906
11804,-0.1488,0.3802,0.9072,1.470,-9.695,3.675,0.91,0.0184,1.5865,4.7740,0.0174,2025-06-06T11:06:52.091906
11805,-0.1786,0.3518,0.9184,-4.165,-10.955,-2.660,0.91,0.0368,1.6151,4.7525,0.0087,2025-06-06T11:06:52.091906
11806,-0.1415,0.3831,0.8921,-5.215,-5.530,-1.995,0.90,0.0184,1.6151,4.7525,0.0087,2025-06-06T11:06:52.091906
11807,-0.1405,0.3982,0.9174,0.630,-0.070,-1.855,0.92,0.0368,1.6437,4.7955,0.0087,2025-06-06T11:06:52.091906
11808,-0.1479,0.4138,0.9062,3.080,5.740,0.455,0.91,0.0184,1.6437,4.7311,0.0087,2025-06-06T11:06:52.091906
11809,-0.1562,0.4055,0.9575,5.110,1.260,2.030,0.90,0.0184,1.5865,4.6885,0.0087,2025-06-06T11:06:52.091906
11810,-0.1893,0.3841,0.9618,-1.435,-3.850,-1.050,0.91,0.0000,1.6151,4.7098,0.0087,2025-06-06T11:06:52.091906
11811,-0.1635,0.3831,0.9374,-0.945,-7.000,0.035,0.91,0.0184,1.6151,4.7311,0.0087,2025-06-06T11:06:52.091906
11812,-0.1610,0.3889,0.9331,0.000,-5.600,0.420,0.91,0.0184,1.6151,4.7311,0.0174,2025-06-06T11:06:52.091906
11813,-0.1401,0.3928,0.9121,1.785,-4.655,0.560,0.88,0.0184,1.6151,4.6885,0.0000,2025-06-06T11:06:52.091906
11814,-0.1547,0.3982,0.9116,0.840,-1.085,-0.630,0.91,0.0184,1.6151,4.6673,0.0087,2025-06-06T11:06:52.091906
11815,-0.1547,0.3836,0.9316,1.050,1.715,-0.245,0.86,0.0184,1.5580,4.6461,0.0087,2025-06-06T11:06:52.091906
11816,-0.1791,0.3645,0.9184,2.660,3.325,-0.910,0.92,0.0184,1.5865,4.6040,0.0087,2025-06-06T11:06:52.142141
11817,-0.1737,0.3660,0.9204,0.070,6.545,-2.485,0.91,0.0368,1.6151,4.5412,0.0174,2025-06-06T11:06:52.142141
11818,-0.1776,0.3806,0.9326,0.140,8.680,-2.660,0.92,0.0368,1.5296,4.5204,0.0174,2025-06-06T11:06:52.142141
11819,-0.1796,0.3948,0.9560,0.595,6.090,-2.170,0.91,0.0368,1.6151,4.4790,0.0087,2025-06-06T11:06:52.142141
11820,-0.1806,0.3997,0.9560,-0.070,-0.105,-1.155,0.91,0.0368,1.6151,4.4790,0.0174,2025-06-06T11:06:52.189268
11821,-0.1723,0.3958,0.9243,-3.360,-3.395,-2.835,0.93,0.0184,1.6437,4.4790,0.0174,2025-06-06T11:06:52.189268
11822,-0.1498,0.4055,0.9062,-2.030,-1.330,-1.505,0.91,0.0368,1.5580,4.4378,0.0174,2025-06-06T11:06:52.189268
11823,-0.1454,0.4002,0.9048,3.955,5.145,0.245,0.89,0.0368,1.5865,4.3969,0.0174,2025-06-06T11:06:52.242878
11824,-0.1840,0.3650,0.9067,3.465,9.905,-0.770,0.91,0.0368,1.5865,4.3561,0.0087,2025-06-06T11:06:52.242878
11825,-0.2064,0.3309,0.9414,-5.215,11.970,-3.360,0.91,0.0368,1.5580,4.2753,0.0087,2025-06-06T11:06:52.242878
11826,-0.1962,0.3484,0.9433,-6.230,11.795,-7.140,0.92,0.0368,1.5580,4.2553,0.0087,2025-06-06T11:06:52.242878
11827,-0.1635,0.4070,1.0067,-10.745,17.185,-5.390,0.93,0.0184,1.4729,4.2353,0.0174,2025-06-06T11:06:52.294645
11828,-0.1527,0.4314,0.9316,1.190,17.570,-4.515,0.90,0.0184,1.5865,4.1954,0.0087,2025-06-06T11:06:52.294645
11829,-0.1942,0.3670,0.8926,-2.905,16.555,-2.800,0.92,0.0184,1.4729,4.0968,0.0087,2025-06-06T11:06:52.294645
11830,-0.2128,0.3558,0.9067,-1.820,16.380,-3.885,0.91,0.0368,1.4729,4.0577,0.0087,2025-06-06T11:06:52.556022
11831,-0.1972,0.4060,0.9272,-2.800,16.730,-4.515,0.91,0.0184,1.4446,3.9802,0.0174,2025-06-06T11:06:52.556022
11832,-0.2059,0.4260,0.9716,2.695,13.370,-0.910,0.93,0.0368,1.3882,3.9609,0.0087,2025-06-06T11:06:52.556022
11833,-0.2294,0.4041,0.9545,3.990,8.785,1.820,0.92,0.0368,1.3882,3.9226,0.0087,2025-06-06T11:06:52.556022
11834,-0.2377,0.3811,0.9257,5.250,11.025,2.205,0.90,0.0184,1.3882,3.8655,0.0087,2025-06-06T11:06:52.556022
11835,-0.2064,0.3836,0.8828,7.245,17.640,2.450,0.91,0.0184,1.3321,3.7900,0.0087,2025-06-06T11:06:52.556022
11836,-0.2050,0.3831,0.8589,8.995,26.145,1.120,0.91,0.0184,1.3041,3.6599,0.0087,2025-06-06T11:06:52.556022
11837,-0.2216,0.3645,0.8642,8.820,31.675,0.420,0.93,0.0184,1.2762,3.6231,0.0087,2025-06-06T11:06:52.556022
11838,-0.2440,0.3748,0.8945,8.435,35.280,-0.385,0.92,0.0184,1.2762,3.5684,0.0087,2025-06-06T11:06:52.556022
11839,-0.2489,0.4246,0.8950,8.365,34.020,-0.840,0.92,0.0184,1.3041,3.4602,0.0087,2025-06-06T11:06:52.556022
11840,-0.2743,0.3977,0.9545,5.530,31.465,-1.505,0.92,0.0184,1.1650,3.3714,0.0087,2025-06-06T11:06:52.556022
11841,-0.2835,0.4231,0.9584,8.260,25.865,0.000,0.91,0.0184,1.2205,3.3537,0.0174,2025-06-06T11:06:52.556022
11842,-0.2889,0.4143,0.9472,8.050,18.235,3.360,0.91,0.0000,1.1927,3.3011,0.0174,2025-06-06T11:06:52.556022
11843,-0.3016,0.3997,0.9277,8.925,10.990,3.850,0.92,0.0184,1.2205,3.3186,0.0174,2025-06-06T11:06:52.556022
11844,-0.3089,0.3802,0.9394,3.990,4.760,-0.350,0.94,0.0184,1.1650,3.3714,0.0174,2025-06-06T11:06:52.556022
11845,-0.2816,0.4182,0.9165,3.080,-2.415,-0.525,0.91,0.0184,1.1927,3.3011,0.0087,2025-06-06T11:06:52.556022
11846,-0.2679,0.4255,0.9043,1.925,-4.165,0.840,0.92,0.0184,1.2205,3.2489,0.0087,2025-06-06T11:06:52.556022
11847,-0.2791,0.4246,0.8916,8.190,-0.875,2.345,0.91,0.0184,1.1374,3.1627,0.0087,2025-06-06T11:06:52.556022
11848,-0.2860,0.4109,0.9008,9.380,-0.980,4.515,0.91,0.0368,1.0823,3.1627,0.0174,2025-06-06T11:06:52.602116
11849,-0.2943,0.3967,0.8916,8.960,-2.940,3.815,0.94,0.0368,1.1098,3.1286,0.0174,2025-06-06T11:06:52.602116
11850,-0.3030,0.4065,0.9174,8.610,-3.920,5.740,0.92,0.0184,1.1374,3.0777,0.0087,2025-06-06T11:06:52.602116
11851,-0.2738,0.4475,0.9321,15.365,-12.005,12.145,0.91,0.0184,1.0823,3.0272,0.0174,2025-06-06T11:06:52.602116
11852,-0.2694,0.4514,0.9194,15.225,-18.655,11.760,0.92,0.0368,1.0548,3.0104,0.0087,2025-06-06T11:06:52.602116
11853,-0.2845,0.3714,0.8633,6.685,-9.030,1.540,0.92,0.0368,1.0274,2.9604,0.0087,2025-06-06T11:06:52.660371
11854,-0.2640,0.3343,0.8076,-1.085,-7.420,-6.405,0.91,0.0368,1.0548,2.9770,0.0174,2025-06-06T11:06:52.660371
11855,-0.2201,0.3762,0.7564,-2.870,5.740,-11.025,0.91,0.0184,1.0548,2.9604,0.0087,2025-06-06T11:06:52.660371
11856,-0.2108,0.3909,0.7623,-3.570,31.780,-14.175,0.92,0.0184,1.0274,2.9604,0.0087,2025-06-06T11:06:52.660371
11857,-0.2211,0.3938,0.7779,-0.770,64.540,-31.815,0.91,0.0184,1.0823,2.9604,0.0087,2025-06-06T11:06:52.710883
11858,-0.1210,0.2098,0.6754,15.890,184.695,-58.940,0.91,0.0368,1.0548,2.9770,0.0174,2025-06-06T11:06:52.710883
11859,-0.3601,0.3631,0.5217,-12.600,170.870,-42.105,0.91,0.0368,1.0548,3.0104,0.0262,2025-06-06T11:06:52.710883
11860,-0.4392,0.4407,0.9072,-2.065,174.090,-26.250,0.92,0.0368,1.1098,3.0608,0.0087,2025-06-06T11:06:52.710883
11861,-0.5534,0.4602,1.0258,-10.290,131.075,1.400,0.95,0.0184,1.0548,3.0946,0.0087,2025-06-06T11:06:52.950509
11862,-0.5944,0.4870,1.1863,-10.570,77.910,2.590,0.92,0.0000,1.0548,3.1627,0.0087,2025-06-06T11:06:52.950509
11863,-0.5612,0.4812,1.1370,0.980,33.005,-0.420,0.91,0.0368,1.0823,3.1799,0.0174,2025-06-06T11:06:52.950509
11864,-0.5895,0.5007,1.0843,-1.155,-14.455,-3.395,0.91,0.0368,1.1098,3.1971,0.0087,2025-06-06T11:06:52.950509
11865,-0.5373,0.4690,0.9428,-2.310,-39.690,-0.490,0.91,0.0368,1.0548,3.2143,0.0087,2025-06-06T11:06:52.950509
11866,-0.4660,0.4358,0.8262,5.180,-48.090,9.345,0.91,0.0184,1.1374,3.2316,0.0087,2025-06-06T11:06:53.376083
11867,-0.4197,0.3865,0.7139,12.950,-37.485,12.250,0.90,0.0368,1.1374,3.2489,0.0087,2025-06-06T11:06:53.376083
11868,-0.4153,0.3645,0.6900,11.305,-12.530,6.055,0.92,0.0184,1.1098,3.2662,0.0087,2025-06-06T11:06:53.376083
11869,-0.4207,0.3782,0.7408,7.735,5.145,3.675,0.91,0.0184,1.1098,3.3011,0.0087,2025-06-06T11:06:53.376083
11870,-0.4260,0.4182,0.7979,10.185,8.645,4.130,0.91,0.0184,1.1650,3.3186,0.0087,2025-06-06T11:06:53.376083
11871,-0.4587,0.4636,0.9111,12.950,0.245,6.125,0.90,0.0368,1.1927,3.3361,0.0087,2025-06-06T11:06:53.376083
11872,-0.4987,0.4724,0.8725,12.600,-14.140,10.850,0.91,0.0184,1.2205,3.3361,0.0000,2025-06-06T11:06:53.376083
11873,-0.6817,0.4870,1.0360,22.960,-18.270,14.315,0.91,0.0184,1.1098,3.3537,0.0174,2025-06-06T11:06:53.376083
11874,-0.8638,0.5719,1.1790,39.060,-35.980,31.850,0.90,0.0184,1.1374,3.3361,0.0087,2025-06-06T11:06:53.376083
11875,-2.2272,0.9902,2.8602,172.060,-41.825,150.955,0.91,0.0000,1.1650,3.3361,0.0000,2025-06-06T11:06:53.376083
11876,-3.3526,1.7051,5.6144,636.475,-270.550,304.045,0.90,0.0368,1.1650,3.3361,0.0087,2025-06-06T11:06:53.376083
11877,-2.4249,1.1605,2.4146,324.590,-247.940,398.335,0.89,0.0368,1.1927,3.3361,0.0174,2025-06-06T11:06:53.376083
11878,-3.1461,0.3636,2.0198,206.710,-816.340,491.540,0.91,0.0368,1.2205,3.3361,0.0087,2025-06-06T11:06:53.376083
11879,-2.7753,0.1640,-0.3182,11.340,-1146.740,594.160,0.90,0.0368,1.1927,3.3361,0.0087,2025-06-06T11:06:53.376083
11880,-1.7036,1.0155,-2.5293,24.605,-1146.740,810.005,0.91,0.0368,1.1927,3.3011,0.0262,2025-06-06T11:06:53.376083
11881,-1.9261,0.1454,-2.0120,50.750,-1146.740,877.135,0.92,0.0184,1.0823,3.2143,0.0174,2025-06-06T11:06:53.376083
11882,-1.9881,-1.7993,-2.1018,242.585,-852.320,868.945,0.91,0.0184,1.1098,3.1456,0.0087,2025-06-06T11:06:53.376083
11883,-1.9647,-2.1184,-2.1531,81.025,-740.810,737.310,0.91,0.0184,1.1098,3.1286,0.0174,2025-06-06T11:06:53.376083
11884,-1.1019,-3.9421,-3.6424,-612.955,-1038.170,871.220,0.90,0.0368,1.1098,3.0272,0.0087,2025-06-06T11:06:53.376083
11885,-2.0369,-1.7368,-1.7314,-111.860,-64.470,308.945,0.92,0.0368,1.0823,3.0104,0.0087,2025-06-06T11:06:53.376083
11886,2.5317,-3.8059,-0.7574,63.315,382.830,-72.520,0.91,0.0184,1.0548,2.9438,0.0000,2025-06-06T11:06:53.376083
11887,2.8055,-3.7083,-4.2563,-148.995,682.185,-672.000,0.90,0.0184,1.0000,2.8615,0.0174,2025-06-06T11:06:53.376083
11888,-2.4454,-2.0106,-4.1626,-667.975,1146.740,-794.220,0.91,0.0184,1.0274,2.8289,0.0087,2025-06-06T11:06:53.376083
11889,-4.0772,-0.5397,-2.3556,-945.735,1146.740,-758.905,0.92,0.0368,1.0548,2.7964,0.0087,2025-06-06T11:06:53.376083
11890,-6.0683,-0.0054,-1.6455,-1138.935,1146.740,-430.395,0.91,0.0184,1.0274,2.7641,0.0087,2025-06-06T11:06:53.376083
11891,-8.8279,-0.5622,-1.9554,-914.585,1146.740,-126.665,0.91,0.0368,0.9727,2.7480,0.0087,2025-06-06T11:06:53.376083
11892,-9.1554,-0.8647,14.0334,1085.245,1146.740,900.515,0.91,0.0368,1.0548,2.7000,0.0174,2025-06-06T11:06:53.376083
11893,-3.0661,1.8954,8.4004,1146.740,809.795,216.510,0.91,0.0184,0.9455,2.6682,0.0087,2025-06-06T11:06:53.376083
11894,-1.6982,2.5815,0.1127,-617.995,-174.790,-339.500,0.91,0.0184,0.8641,2.6523,0.0087,2025-06-06T11:06:53.376083
11895,-1.3030,-0.0517,1.8500,-520.380,-429.905,-170.275,0.93,0.0184,0.8912,2.6365,0.0087,2025-06-06T11:06:53.376083
11896,-1.1341,0.2591,2.4927,-445.830,-813.050,-265.510,0.90,0.0368,0.8641,2.6365,0.0000,2025-06-06T11:06:53.376083
11897,-0.9418,0.0376,1.5645,-275.205,-451.325,-167.755,0.89,0.0368,0.7832,2.6207,0.0174,2025-06-06T11:06:53.376083
11898,-0.9594,0.2259,-0.1723,67.480,-335.545,-97.825,0.90,0.0368,0.8641,2.6207,0.0174,2025-06-06T11:06:53.376083
11899,0.1464,1.1200,0.4748,211.540,-143.990,47.705,0.91,0.0184,0.8912,2.6207,0.0087,2025-06-06T11:06:53.376083
11900,0.0366,0.7237,0.2181,116.200,-209.335,66.955,0.91,0.0184,0.7832,2.5580,0.0087,2025-06-06T11:06:53.376083
11901,0.1684,0.3177,0.1625,-7.350,-164.010,30.240,0.92,0.0184,0.7832,2.4959,0.0174,2025-06-06T11:06:53.376083
11902,0.0220,0.2147,0.5163,-17.255,-28.525,15.330,0.91,0.0368,0.7832,2.4497,0.0000,2025-06-06T11:06:53.376083
11903,0.0547,0.1771,0.4426,56.700,99.400,22.855,0.92,0.0184,0.7832,2.4497,0.0087,2025-06-06T11:06:53.376083
11904,-0.0708,0.0278,0.5954,111.580,189.000,14.630,0.91,0.0368,0.7563,2.4038,0.0174,2025-06-06T11:06:53.439110
11905,-0.2323,0.0922,0.3479,14.560,104.860,-3.745,0.91,0.0368,0.7295,2.3886,0.0087,2025-06-06T11:06:53.439110
11906,-0.1884,0.0020,0.6808,-79.310,83.475,-22.960,0.92,0.0184,0.7563,2.4038,0.0087,2025-06-06T11:06:53.439110
11907,-0.1625,0.1288,1.0014,-90.650,126.350,-27.790,0.91,0.0184,0.7295,2.4344,0.0087,2025-06-06T11:06:53.439110
11908,-0.2303,0.1557,1.1297,-9.765,162.750,-6.510,0.92,0.0368,0.7832,2.4191,0.0087,2025-06-06T11:06:53.439110
11909,-0.3392,0.0986,1.1829,33.040,156.625,13.895,0.90,0.0184,0.7563,2.4650,0.0087,2025-06-06T11:06:53.439110
11910,-0.4314,0.1342,1.4479,29.260,115.990,10.990,0.93,0.0368,0.6228,2.4497,0.0087,2025-06-06T11:06:53.439110
11911,-0.5090,0.1108,1.4347,25.200,44.835,0.700,0.90,0.0184,0.8370,2.4497,0.0174,2025-06-06T11:06:53.439110
11912,-0.5129,0.0059,1.2503,22.575,-12.670,-7.000,0.92,0.0368,0.7295,2.4344,0.0087,2025-06-06T11:06:53.439110
11913,-0.3836,0.0874,1.1361,25.375,-70.595,-7.840,0.90,0.0368,0.7295,2.4191,0.0174,2025-06-06T11:06:53.439110
11914,-0.2547,0.1757,0.9975,18.445,-90.195,-8.330,0.91,0.0000,0.7295,2.4191,0.0087,2025-06-06T11:06:53.490737
11915,-0.1908,0.2123,0.8340,22.400,-90.335,-1.225,0.91,0.0184,0.7295,2.4038,0.0087,2025-06-06T11:06:53.490737
11916,-0.1513,0.1947,0.6817,25.550,-68.005,10.185,0.90,0.0368,0.7295,2.4191,0.0000,2025-06-06T11:06:53.490737
11917,-0.1474,0.1786,0.6593,24.885,-34.230,15.645,0.91,0.0368,0.7832,2.4038,0.0087,2025-06-06T11:06:53.490737
11918,-0.2064,0.1269,0.6817,9.730,13.790,11.970,0.91,0.0368,0.7295,2.4038,0.0087,2025-06-06T11:06:53.729326
11919,-0.2601,0.0986,0.7574,-1.995,45.325,6.055,0.93,0.0184,0.6760,2.3734,0.0087,2025-06-06T11:06:53.729326
11920,-0.3152,0.1283,0.8886,-17.710,64.120,1.645,0.91,0.0184,0.7563,2.3583,0.0087,2025-06-06T11:06:53.729326
11921,-0.3665,0.1967,0.9955,-13.335,62.300,-1.190,0.91,0.0368,0.7295,2.3734,0.0087,2025-06-06T11:06:53.729326
11922,-0.3577,0.2562,1.0609,-17.185,50.225,-4.165,0.91,0.0184,0.7563,2.4038,0.0174,2025-06-06T11:06:53.729326
11923,-0.3504,0.3226,1.0838,-9.520,33.810,0.105,0.92,0.0368,0.7295,2.3432,0.0087,2025-06-06T11:06:53.729326
11924,-0.3406,0.3079,1.0765,3.710,16.240,9.100,0.91,0.0184,0.7563,2.3432,0.0087,2025-06-06T11:06:53.729326
11925,-0.3592,0.2830,1.0785,20.895,6.545,13.580,0.92,0.0368,0.7295,2.3886,0.0087,2025-06-06T11:06:53.729326
11926,-0.3621,0.2552,1.0497,23.940,-8.015,13.720,0.91,0.0368,0.7563,2.3734,0.0000,2025-06-06T11:06:53.729326
11927,-0.3650,0.1674,0.9970,18.340,-22.365,12.495,0.91,0.0184,0.7832,2.3886,0.0000,2025-06-06T11:06:53.729326
11928,-0.2518,0.1396,0.9828,16.205,-29.715,5.145,0.90,0.0184,0.7832,2.4497,0.0087,2025-06-06T11:06:53.729326
11929,-0.3192,0.1640,0.8906,5.005,-32.795,1.435,0.91,0.0184,0.7832,2.5113,0.0087,2025-06-06T11:06:53.729326
11930,-0.2679,0.1840,0.8384,-0.035,-25.550,-0.700,0.92,0.0184,0.8101,2.5580,0.0174,2025-06-06T11:06:53.729326
11931,-0.2406,0.2303,0.8101,1.505,-5.320,3.535,0.91,0.0184,0.9183,2.6365,0.0087,2025-06-06T11:06:53.729326
11932,-0.2684,0.1957,0.7984,2.415,17.080,6.790,0.92,0.0368,0.8641,2.7000,0.0000,2025-06-06T11:06:53.729326
11933,-0.3192,0.1498,0.8296,0.280,36.750,5.005,0.92,0.0000,0.9455,2.7964,0.0000,2025-06-06T11:06:53.729326
11934,-0.3260,0.1810,0.8872,-7.980,50.225,3.255,0.91,0.0184,1.0000,2.8943,0.0087,2025-06-06T11:06:53.729326
11935,-0.3479,0.2323,0.9740,-6.510,53.865,3.955,0.91,0.0184,1.0274,3.0104,0.0087,2025-06-06T11:06:53.777747
11936,-0.3782,0.2689,1.0082,0.700,48.860,7.490,0.91,0.0368,1.1098,3.0946,0.0000,2025-06-06T11:06:53.777747
11937,-0.3616,0.2704,1.0063,2.905,37.240,10.080,0.91,0.0368,1.1098,3.1799,0.0087,2025-06-06T11:06:53.777747
11938,-0.3684,0.2664,0.9804,6.160,23.730,11.655,0.90,0.0000,1.1098,3.3011,0.0087,2025-06-06T11:06:53.777747
11939,-0.3631,0.2406,0.9506,7.455,19.670,10.745,0.93,0.0184,1.2762,3.3714,0.0087,2025-06-06T11:06:53.777747
11940,-0.3235,0.2235,0.9209,9.520,16.870,11.480,0.91,0.0184,1.2762,3.4424,0.0087,2025-06-06T11:06:53.932984
11941,-0.3621,0.2323,0.9140,10.115,18.830,10.710,0.91,0.0184,1.3041,3.5141,0.0087,2025-06-06T11:06:53.932984
11942,-0.4011,0.1947,0.9340,7.840,19.180,10.955,0.91,0.0184,1.3601,3.5684,0.0087,2025-06-06T11:06:53.932984
11943,-0.4236,0.2181,0.9418,8.890,20.860,9.800,0.92,0.0184,1.3601,3.6599,0.0087,2025-06-06T11:06:53.932984
11944,-0.4368,0.2201,0.9570,6.895,20.090,6.195,0.92,0.0184,1.3882,3.6783,0.0087,2025-06-06T11:06:53.932984
11945,-0.4265,0.2211,0.9365,4.900,14.805,4.130,0.86,0.0184,1.3601,3.6783,0.0000,2025-06-06T11:06:53.932984
11946,-0.4363,0.2289,0.9292,1.015,10.570,1.750,0.91,0.0368,1.3321,3.6599,0.0087,2025-06-06T11:06:53.932984
11947,-0.4114,0.2338,0.9394,-0.175,5.775,0.840,0.92,0.0368,1.4164,3.6783,0.0174,2025-06-06T11:06:53.932984
11948,-0.4016,0.2284,0.9331,-0.770,1.540,-0.315,0.91,0.0184,1.3601,3.6415,0.0087,2025-06-06T11:06:53.932984
11949,-0.4109,0.2372,0.9301,1.330,-4.200,2.380,0.91,0.0184,1.3321,3.5866,0.0087,2025-06-06T11:06:53.932984
11950,-0.4255,0.3738,0.9531,5.950,-8.190,5.495,0.92,0.0184,1.3882,3.5503,0.0174,2025-06-06T11:06:53.932984
11951,-0.4182,0.2484,0.9672,7.910,-14.630,6.300,0.91,0.0184,1.3321,3.4781,0.0174,2025-06-06T11:06:54.149338
11952,-0.4133,0.2474,0.9487,8.680,-20.160,3.465,0.91,0.0184,1.2762,3.4245,0.0174,2025-06-06T11:06:54.149338
11953,-0.3958,0.2499,0.9067,5.110,-25.725,0.875,0.92,0.0184,1.2205,3.3537,0.0174,2025-06-06T11:06:54.149338
11954,-0.3821,0.2528,0.8686,4.305,-23.415,0.070,0.92,0.0184,1.2483,3.3186,0.0087,2025-06-06T11:06:54.149338
11955,-0.3577,0.2508,0.8423,4.200,-15.505,-1.505,0.91,0.0000,1.2205,3.2836,0.0087,2025-06-06T11:06:54.149338
11956,-0.3611,0.2528,0.8247,3.220,-4.445,-1.505,0.91,0.0184,1.1927,3.2662,0.0087,2025-06-06T11:06:54.149338
11957,-0.3567,0.2616,0.8438,1.505,5.320,-1.540,0.92,0.0368,1.1927,3.2489,0.0087,2025-06-06T11:06:54.149338
11958,-0.3865,0.2704,0.8745,3.010,14.035,-0.140,0.92,0.0184,1.2483,3.2316,0.0087,2025-06-06T11:06:54.149338
11959,-0.4050,0.2596,0.9101,4.620,17.815,2.240,0.92,0.0368,1.2762,3.1627,0.0087,2025-06-06T11:06:54.149338
11960,-0.4338,0.2430,0.9394,5.880,16.310,2.415,0.91,0.0184,1.2205,3.1627,0.0087,2025-06-06T11:06:54.149338
11961,-0.4426,0.2377,0.9618,4.725,12.460,0.035,0.91,0.0184,1.2205,3.1627,0.0174,2025-06-06T11:06:54.149338
11962,-0.4529,0.2386,0.9579,2.835,4.585,-1.120,0.91,0.0000,1.2483,3.1627,0.0087,2025-06-06T11:06:54.149338
11963,-0.4392,0.2479,0.9760,2.555,-4.235,-2.310,0.92,0.0184,1.2483,3.1799,0.0087,2025-06-06T11:06:54.149338
11964,-0.4377,0.2557,0.9536,3.920,-10.185,-3.710,0.91,0.0184,1.1927,3.1799,0.0087,2025-06-06T11:06:54.149338
11965,-0.3997,0.2567,0.9067,3.850,-17.990,-2.765,0.92,0.0184,1.2205,3.1286,0.0087,2025-06-06T11:06:54.149338
11966,-0.3753,0.2630,0.8721,3.500,-20.335,-0.980,0.91,0.0184,1.1374,3.0946,0.0087,2025-06-06T11:06:54.149338
11967,-0.3782,0.2635,0.8701,5.600,-14.980,2.415,0.91,0.0552,1.2205,3.1116,0.0087,2025-06-06T11:06:54.348533
11968,-0.3948,0.2347,0.8852,7.980,-7.455,6.125,0.91,0.0368,1.2762,3.0946,0.0087,2025-06-06T11:06:54.348533
11969,-0.4431,0.2440,0.9418,13.405,-1.715,12.880,0.91,0.0184,1.1650,3.0946,0.0174,2025-06-06T11:06:54.348533
11970,-0.4538,0.2733,0.9848,19.040,-8.505,16.730,0.91,0.0184,1.2483,3.0777,0.0087,2025-06-06T11:06:54.348533
11971,-0.4534,0.2538,1.0287,14.980,-23.800,7.280,0.92,0.0368,1.2205,3.0608,0.0087,2025-06-06T11:06:54.348533
11972,-0.4338,0.2718,0.9740,6.545,-38.150,-1.645,0.90,0.0368,1.2205,3.0440,0.0174,2025-06-06T11:06:54.348533
11973,-0.3758,0.2977,0.9194,1.365,-46.305,-5.075,0.92,0.0184,1.1927,3.0272,0.0087,2025-06-06T11:06:54.348533
11974,-0.3089,0.3387,0.8599,9.625,-46.410,-3.220,0.91,0.0368,1.1650,3.0104,0.0087,2025-06-06T11:06:54.348533
11975,-0.2777,0.3533,0.7901,13.860,-37.485,2.030,0.91,0.0184,1.1374,2.9937,0.0087,2025-06-06T11:06:54.348533
11976,-0.2713,0.3177,0.7418,16.450,-18.025,6.335,0.91,0.0184,1.1650,2.9770,0.0087,2025-06-06T11:06:54.348533
11977,-0.2918,0.2591,0.7222,14.140,3.710,8.785,0.91,0.0184,1.1374,2.9604,0.0087,2025-06-06T11:06:54.348533
11978,-0.3392,0.2235,0.7432,10.885,31.080,7.455,0.91,0.0368,1.1098,2.9438,0.0087,2025-06-06T11:06:54.348533
11979,-0.3616,0.2386,0.7544,2.170,44.695,6.440,0.92,0.0184,1.1374,2.9438,0.0000,2025-06-06T11:06:54.348533
11980,-0.3728,0.2420,0.8467,-3.500,56.945,2.415,0.91,0.0184,1.1927,2.9438,0.0174,2025-06-06T11:06:54.348533
11981,-0.3855,0.3045,0.8721,-3.745,59.150,-1.295,0.92,0.0552,1.1374,2.9273,0.0087,2025-06-06T11:06:54.348533
11982,-0.4177,0.3030,0.9174,-4.165,52.920,3.920,0.92,0.0184,1.1650,2.9438,0.0174,2025-06-06T11:06:54.459557
11983,-0.4519,0.2494,0.9672,-3.640,47.110,2.065,0.89,0.0368,1.1650,2.9273,0.0174,2025-06-06T11:06:54.459557
11984,-0.4699,0.2728,0.9428,-3.990,35.420,0.665,0.92,0.0368,1.1650,2.8943,0.0087,2025-06-06T11:06:54.459557
11985,-0.4748,0.2767,0.9326,-7.770,30.485,0.280,0.91,0.0368,1.1374,2.8943,0.0087,2025-06-06T11:06:54.459557
11986,-0.6349,0.2855,0.6022,-1.505,139.405,1.680,0.91,0.0368,1.0823,2.8615,0.0087,2025-06-06T11:06:54.459557
11987,-0.3450,0.2152,0.2777,19.670,99.260,18.060,0.90,0.0184,1.1098,2.8289,0.0087,2025-06-06T11:06:54.459557
11988,-0.4202,0.4153,0.9409,-17.395,107.380,29.680,0.91,0.0184,1.1374,2.8289,0.0087,2025-06-06T11:06:54.459557
11989,-0.6661,0.3841,0.9360,0.105,127.155,38.815,0.91,0.0184,1.0823,2.7964,0.0174,2025-06-06T11:06:54.548190
11990,-0.6798,0.3157,0.8911,15.015,114.240,51.625,0.92,0.0552,1.0823,2.7803,0.0087,2025-06-06T11:06:54.548190
11991,-0.6446,0.1752,0.9775,9.100,98.035,34.895,0.91,0.0368,1.0823,2.7480,0.0174,2025-06-06T11:06:54.548190
11992,-0.6886,0.2430,1.1034,-1.575,62.300,7.735,0.91,0.0368,1.1098,2.7480,0.0087,2025-06-06T11:06:54.548190
11993,-0.8023,0.2235,1.0438,-20.475,26.915,-18.725,0.92,0.0368,1.0274,2.7320,0.0174,2025-06-06T11:06:54.548190
11994,-0.8647,0.1376,0.9745,-37.660,-34.685,-31.640,0.92,0.0000,0.9727,2.7000,0.0087,2025-06-06T11:06:54.548190
11995,-0.6466,0.2386,0.7910,-39.515,-67.865,-45.325,0.92,0.0184,1.0274,2.6365,0.0087,2025-06-06T11:06:54.548190
11996,-0.6490,0.3196,0.8032,-47.880,-76.090,-68.635,0.91,0.0184,1.0274,2.6682,0.0174,2025-06-06T11:06:54.754130
11997,-0.7676,0.5783,0.7881,-22.890,-82.985,-56.945,0.91,0.0184,0.9183,2.5893,0.0087,2025-06-06T11:06:54.754130
11998,-0.6076,0.3860,0.6198,-39.200,-78.190,-4.130,0.90,0.0184,1.0000,2.6207,0.0174,2025-06-06T11:06:54.754130
11999,-0.4602,0.3401,0.5280,-2.205,-45.395,37.835,0.92,0.0184,1.0000,2.6050,0.0174,2025-06-06T11:06:54.754130
12000,-0.2523,0.3104,0.4080,3.430,27.685,67.410,0.90,0.0184,0.9727,2.6050,0.0087,2025-06-06T11:06:54.754130
12001,-0.1318,0.2391,1.0024,22.960,83.125,80.885,0.91,0.0184,0.9727,2.6207,0.0087,2025-06-06T11:06:54.754130
12002,0.0595,-0.1923,0.8594,8.295,62.720,3.395,0.91,0.0184,0.9727,2.6207,0.0087,2025-06-06T11:06:54.754130
12003,-0.6930,0.1547,1.1551,16.975,20.895,-62.300,0.91,0.0368,1.0000,2.6207,0.0000,2025-06-06T11:06:54.754130
12004,-0.7847,0.2704,0.9872,-41.125,-63.630,-71.365,0.91,0.0184,0.9727,2.6682,0.0087,2025-06-06T11:06:54.754130
12005,-0.7271,0.2743,0.9233,-20.300,-92.785,-48.580,0.91,0.0184,1.0000,2.6050,0.0000,2025-06-06T11:06:54.754130
12006,-0.6856,0.3338,0.7725,-3.675,-55.895,-21.875,0.91,0.0368,1.0000,2.5893,0.0087,2025-06-06T11:06:54.754130
12007,-0.4787,0.3777,0.7422,23.450,-13.055,-3.290,0.92,0.0368,0.9727,2.5893,0.0087,2025-06-06T11:06:54.754130
12008,-0.4978,0.3728,0.6437,18.620,0.280,24.535,0.91,0.0184,1.0548,2.5893,0.0087,2025-06-06T11:06:54.754130
12009,-0.3860,0.3201,0.6817,22.225,12.670,34.545,0.92,0.0184,0.9727,2.5580,0.0087,2025-06-06T11:06:54.754130
12010,-0.6900,0.1986,0.6617,20.720,13.755,54.740,0.92,0.0184,0.9455,2.5269,0.0087,2025-06-06T11:06:54.754130
12011,-0.5090,0.1952,0.7998,7.420,19.075,41.860,0.91,0.0368,0.9727,2.5269,0.0087,2025-06-06T11:06:55.004053
12012,-0.5641,0.1610,0.9516,-4.270,17.920,8.890,0.93,0.0184,0.9183,2.5113,0.0174,2025-06-06T11:06:55.004053
12013,-0.6251,0.2840,0.9326,2.030,7.980,-5.320,0.93,0.0368,0.9183,2.4959,0.0000,2025-06-06T11:06:55.004053
12014,-0.6227,0.2679,0.9360,-4.760,-4.340,2.695,0.91,0.0368,0.9455,2.4959,0.0174,2025-06-06T11:06:55.004053
12015,-0.5700,0.2499,0.9126,8.785,-9.345,19.740,0.92,0.0184,0.9183,2.4959,0.0087,2025-06-06T11:06:55.004053
12016,-0.4143,0.3138,0.6705,27.055,-6.965,54.635,0.93,0.0184,0.9455,2.4804,0.0087,2025-06-06T11:06:55.430607
12017,-0.4743,0.3743,0.6422,33.040,8.365,69.615,0.92,0.0184,0.9183,2.4804,0.0087,2025-06-06T11:06:55.430607
12018,-0.4446,0.3553,0.7408,33.425,23.065,62.825,0.91,0.0184,0.9183,2.4804,0.0087,2025-06-06T11:06:55.430607
12019,-0.5534,0.3035,0.8081,25.025,10.710,33.075,0.91,0.0184,0.9455,2.4804,0.0087,2025-06-06T11:06:55.430607
12020,-0.5627,0.2450,0.8774,4.970,4.795,13.055,0.92,0.0184,0.9455,2.4804,0.0087,2025-06-06T11:06:55.430607
12021,-0.6320,0.3831,0.8306,6.790,-10.640,3.815,0.92,0.0184,0.9183,2.4804,0.0087,2025-06-06T11:06:55.430607
12022,-0.5314,0.3094,0.8979,-8.330,-30.625,-3.290,0.91,0.0184,0.8912,2.4650,0.0087,2025-06-06T11:06:55.430607
12023,-0.4270,0.2869,0.8716,6.020,-50.820,-5.845,0.92,0.0184,0.8912,2.4650,0.0087,2025-06-06T11:06:55.430607
12024,-0.4880,0.2977,0.7959,-7.070,-61.215,-5.005,0.92,0.0000,0.8912,2.4650,0.0087,2025-06-06T11:06:55.430607
12025,-0.5051,0.3631,0.7588,2.135,-50.190,-11.445,0.91,0.0184,0.8912,2.4191,0.0087,2025-06-06T11:06:55.430607
12026,-0.4509,0.2718,0.7442,-10.920,-33.880,-29.225,0.92,0.0368,0.8912,2.4038,0.0087,2025-06-06T11:06:55.430607
12027,-0.4392,0.2899,0.7008,-27.440,-23.555,-45.675,0.91,0.0184,0.8912,2.3886,0.0174,2025-06-06T11:06:55.430607
12028,-0.5266,0.4085,0.6915,-30.275,-2.240,-35.945,0.92,0.0184,0.8912,2.3886,0.0087,2025-06-06T11:06:55.430607
12029,-0.4919,0.3816,0.8067,-13.545,19.740,6.125,0.91,0.0368,0.8912,2.4191,0.0174,2025-06-06T11:06:55.431597
12030,-0.5041,0.2991,0.8930,7.770,27.265,6.790,0.91,0.0184,0.9183,2.4038,0.0087,2025-06-06T11:06:55.431597
12031,-0.5627,0.3182,0.9540,2.135,5.880,3.185,0.91,0.0368,0.8641,2.3583,0.0174,2025-06-06T11:06:55.431597
12032,-0.5622,0.3143,0.9536,-2.205,-30.345,9.065,0.91,0.0184,0.9183,2.3734,0.0087,2025-06-06T11:06:55.431597
12033,-0.5734,0.3289,0.9170,11.305,-47.670,15.785,0.92,0.0368,0.8101,2.3281,0.0087,2025-06-06T11:06:55.431597
12034,-0.5519,0.2396,1.1097,11.340,-38.955,26.985,0.91,0.0368,0.8641,2.3432,0.0087,2025-06-06T11:06:55.431597
12035,-0.5041,0.2269,0.8174,13.335,-28.840,5.985,0.92,0.0184,0.8641,2.3131,0.0087,2025-06-06T11:06:55.431597
12036,-0.4812,0.3455,0.7510,-6.125,-27.300,-9.870,0.91,0.0184,0.9455,2.2981,0.0087,2025-06-06T11:06:55.431597
12037,-0.4275,0.3226,0.7418,-14.000,-16.625,-5.530,0.92,0.0368,0.8641,2.2533,0.0087,2025-06-06T11:06:55.431597
12038,-0.4026,0.2933,0.7852,-3.185,5.775,-2.975,0.89,0.0184,0.8641,2.2831,0.0087,2025-06-06T11:06:55.431597
12039,-0.4231,0.3109,0.7774,-0.490,20.650,-0.910,0.91,0.0368,0.9727,2.3281,0.0087,2025-06-06T11:06:55.431597
12040,-0.4782,0.3172,0.8247,-5.215,22.610,0.315,0.92,0.0184,0.8912,2.3281,0.0174,2025-06-06T11:06:55.431597
12041,-0.4641,0.3030,0.9023,-4.830,17.325,-1.330,0.92,0.0368,0.8641,2.3432,0.0087,2025-06-06T11:06:55.431597
12042,-0.5446,0.2908,0.8989,2.905,8.505,-3.115,0.92,0.0368,0.9455,2.3886,0.0262,2025-06-06T11:06:55.431597
12043,-0.5690,0.3245,0.8911,-1.225,1.995,-1.750,0.89,0.0368,0.9455,2.3734,0.0087,2025-06-06T11:06:55.431597
12044,-0.5651,0.3162,0.9023,-0.105,-2.765,-2.275,0.91,0.0368,0.9455,2.4038,0.0087,2025-06-06T11:06:55.431597
12045,-0.5104,0.3260,0.9096,6.160,-13.440,1.260,0.93,0.0368,0.8912,2.4191,0.0087,2025-06-06T11:06:55.431597
12046,-0.5134,0.3113,0.8457,8.085,-19.775,3.220,0.90,0.0368,0.8912,2.4344,0.0174,2025-06-06T11:06:55.431597
12047,-0.5022,0.2982,0.8008,5.320,-17.395,-1.190,0.92,0.0184,0.8912,2.4344,0.0087,2025-06-06T11:06:55.431597
12048,-0.4895,0.3182,0.7730,3.185,-4.620,-4.200,0.92,0.0184,0.8641,2.4650,0.0087,2025-06-06T11:06:55.431597
12049,-0.4294,0.3333,0.8023,4.095,0.665,0.280,0.91,0.0368,0.8912,2.4497,0.0174,2025-06-06T11:06:55.431597
12050,-0.4958,0.3079,0.8633,9.065,-0.315,1.785,0.91,0.0368,0.8641,2.4191,0.0174,2025-06-06T11:06:55.431597
12051,-0.5275,0.3040,0.8506,6.160,-4.795,-1.995,0.92,0.0368,0.9183,2.4344,0.0087,2025-06-06T11:06:55.431597
12052,-0.5353,0.3192,0.8472,1.470,-9.275,-4.865,0.92,0.0184,0.8912,2.3886,0.0174,2025-06-06T11:06:55.431597
12053,-0.5500,0.3455,0.8638,3.220,-7.105,-3.255,0.93,0.0184,0.9455,2.4650,0.0087,2025-06-06T11:06:55.431597
12054,-0.5163,0.3416,0.8716,11.585,-8.435,7.455,0.96,0.0184,0.8912,2.4804,0.0000,2025-06-06T11:06:55.431597
12055,-0.5348,0.3070,0.8706,14.805,-14.525,9.135,1.01,0.0368,0.9183,2.5113,0.0087,2025-06-06T11:06:55.431597
12056,-0.4943,0.3094,0.8306,9.065,-22.050,2.415,1.05,0.0368,0.9183,2.5113,0.0087,2025-06-06T11:06:55.431597
12057,-0.4685,0.3177,0.8086,2.310,-25.340,-0.245,1.12,0.0184,0.8641,2.5269,0.0174,2025-06-06T11:06:55.470663
12058,-0.4636,0.3270,0.7964,5.390,-16.940,2.625,1.18,0.0184,0.8912,2.5269,0.0087,2025-06-06T11:06:55.470663
12059,-0.4592,0.3416,0.8130,10.920,-9.695,6.405,1.26,0.0368,0.8641,2.5424,0.0087,2025-06-06T11:06:55.470663
12060,-0.4792,0.3104,0.8335,8.680,-7.420,3.185,1.23,0.0368,0.8912,2.5580,0.0087,2025-06-06T11:06:55.470663
12061,-0.4826,0.3035,0.8418,3.080,-11.515,-2.170,1.31,0.0368,0.8912,2.5424,0.0000,2025-06-06T11:06:55.470663
12062,-0.4626,0.3372,0.8477,0.665,-16.625,-2.205,1.32,0.0184,0.9183,2.5113,0.0087,2025-06-06T11:06:55.470663
12063,-0.4397,0.3533,0.8535,5.180,-18.970,0.630,1.34,0.0184,0.9455,2.5113,0.0087,2025-06-06T11:06:55.470663
12064,-0.4494,0.3489,0.8486,10.745,-17.220,5.740,1.35,0.0368,0.9183,2.4959,0.0087,2025-06-06T11:06:55.573370
12065,-0.4187,0.3836,0.8579,20.300,-16.415,10.850,1.33,0.0368,0.8101,2.4650,0.0087,2025-06-06T11:06:55.573370
12066,-0.4124,0.4358,0.8642,29.085,-20.090,18.270,1.34,0.0184,0.8641,2.4650,0.0174,2025-06-06T11:06:55.573370
12067,-0.4475,0.4860,0.9477,49.315,-31.500,32.445,1.31,0.0368,0.9727,2.4650,0.0174,2025-06-06T11:06:55.573370
12068,-0.4831,0.5168,1.0619,69.300,-47.985,51.345,1.36,0.0184,0.8641,2.4344,0.0000,2025-06-06T11:06:55.573370
12069,-0.5314,0.4573,1.0565,79.940,-82.600,57.120,1.36,0.0368,0.9183,2.4344,0.0087,2025-06-06T11:06:55.573370
12070,-0.5124,0.4075,0.9457,75.740,-101.325,56.630,1.37,0.0184,0.8641,2.4497,0.0000,2025-06-06T11:06:55.573370
12071,-0.5178,0.3445,0.8686,59.570,-98.035,55.895,1.36,0.0368,0.8641,2.4804,0.0174,2025-06-06T11:06:55.793166
12072,-0.4133,0.3704,0.7144,48.965,-85.540,39.480,1.38,0.0184,0.8641,2.4344,0.0087,2025-06-06T11:06:55.793166
12073,-0.3318,0.4646,0.6920,40.250,-66.535,39.060,1.36,0.0368,0.8641,2.4191,0.0087,2025-06-06T11:06:55.793166
12074,-0.2884,0.2479,0.6827,13.650,-50.050,26.460,1.37,0.0184,0.8641,2.3734,0.0087,2025-06-06T11:06:55.793166
12075,-0.2694,0.1674,0.6124,0.735,-26.495,2.800,1.37,0.0184,0.9455,2.4344,0.0174,2025-06-06T11:06:55.793166
12076,-0.2894,0.2108,0.5983,-28.560,-1.575,-31.535,1.37,0.0184,0.8912,2.4191,0.0000,2025-06-06T11:06:55.793166
12077,-0.2796,0.2259,0.5549,-56.840,41.650,-56.805,1.37,0.0184,0.8641,2.4191,0.0087,2025-06-06T11:06:55.793166
12078,-0.3523,0.1845,0.5797,-83.055,84.945,-82.005,1.37,0.0368,0.8101,2.4038,0.0087,2025-06-06T11:06:55.793166
12079,-0.3606,0.3631,0.6603,-93.065,122.500,-89.705,1.36,0.0368,0.8101,2.4038,0.0174,2025-06-06T11:06:55.793166
12080,-0.3396,0.4900,0.9101,-89.460,127.470,-62.580,1.37,0.0184,0.8641,2.3886,0.0087,2025-06-06T11:06:55.793166
12081,-0.4524,0.4963,1.0721,-57.995,102.620,-34.580,1.37,0.0184,0.8370,2.3734,0.0000,2025-06-06T11:06:55.793166
12082,-0.4812,0.5017,1.1151,-35.665,57.505,-12.775,1.36,0.0368,0.8641,2.3886,0.0087,2025-06-06T11:06:55.793166
12083,-0.4797,0.4519,1.0751,-30.905,6.545,0.595,1.35,0.0368,0.8641,2.3734,0.0087,2025-06-06T11:06:55.793166
12084,-0.4612,0.3460,0.9633,-19.110,-13.510,-2.345,1.37,0.0184,0.7832,2.3432,0.0087,2025-06-06T11:06:55.793166
12085,-0.4841,0.2952,0.8374,-14.350,-12.285,-8.575,1.37,0.0184,0.8641,2.3432,0.0174,2025-06-06T11:06:55.793166
12086,-0.4392,0.2650,0.6808,-26.985,3.290,-14.140,1.37,0.0368,0.9183,2.3281,0.0087,2025-06-06T11:06:55.793166
12087,-0.4480,0.3328,0.6988,-33.250,34.650,-12.985,1.37,0.0368,0.8641,2.3432,0.0087,2025-06-06T11:06:55.898395
12088,-0.4387,0.3719,0.7886,-25.550,56.105,-5.215,1.36,0.0184,0.8912,2.3432,0.0174,2025-06-06T11:06:55.898395
12089,-0.4494,0.4236,0.8945,-8.400,53.200,8.960,1.35,0.0184,0.8101,2.3583,0.0174,2025-06-06T11:06:55.898395
12090,-0.4875,0.4402,1.0067,7.945,30.940,22.365,1.35,0.0368,0.8370,2.3281,0.0087,2025-06-06T11:06:55.898395
12091,-0.5636,0.5026,1.0692,32.795,-7.805,42.665,1.35,0.0368,0.8101,2.3131,0.0087,2025-06-06T11:06:55.898395
12092,-0.5988,0.5187,1.2371,64.120,-34.580,58.415,1.35,0.0368,0.8370,2.3131,0.0174,2025-06-06T11:06:55.898395
12093,-0.6398,0.4577,1.2434,94.080,-71.190,65.135,1.35,0.0184,0.8641,2.3131,0.0087,2025-06-06T11:06:55.898395
12094,-0.8901,0.4046,1.2576,106.225,-99.995,49.070,1.35,0.0368,0.8370,2.3281,0.0087,2025-06-06T11:06:55.898395
12095,-0.9765,0.4412,1.2698,97.650,-120.085,27.650,1.34,0.0000,0.7027,2.3131,0.0174,2025-06-06T11:06:55.979940
12096,-1.0702,0.5705,1.4289,103.950,-128.905,17.675,1.33,0.0368,0.8641,2.3131,0.0087,2025-06-06T11:06:55.979940
12097,-1.1751,0.9282,1.8778,162.890,-188.755,77.035,1.33,0.0368,0.8641,2.3281,0.0087,2025-06-06T11:06:55.979940
12098,-1.3342,1.3742,2.2873,291.305,-334.390,237.825,1.31,0.0368,0.8370,2.3131,0.0087,2025-06-06T11:06:55.979940
12099,-1.9754,1.6758,2.6464,283.850,-577.360,361.935,1.31,0.0368,0.8370,2.3131,0.0087,2025-06-06T11:06:55.979940
12100,-2.3531,1.1531,1.5377,426.685,-833.770,555.730,1.32,0.0184,0.7832,2.2981,0.0087,2025-06-06T11:06:55.979940
12101,-2.9748,1.0433,1.5050,537.285,-889.350,661.465,1.30,0.0184,0.8641,2.2981,0.0174,2025-06-06T11:06:56.034699
12102,-2.3078,-0.8867,-0.4553,467.915,-722.785,660.555,1.30,0.0368,0.8641,2.3281,0.0087,2025-06-06T11:06:56.034699
12103,-0.5012,0.3392,-1.4201,10.990,-955.500,723.800,1.29,0.0368,0.7563,2.3281,0.0174,2025-06-06T11:06:56.034699
12104,-1.0028,-0.5241,-1.8076,-282.380,-806.610,657.860,1.28,0.0368,0.8370,2.3131,0.0087,2025-06-06T11:06:56.034699
12105,-0.7222,-3.1461,-3.0393,-310.590,-739.655,639.905,1.30,0.0368,0.8101,2.3131,0.0087,2025-06-06T11:06:56.188106
12106,0.0063,-2.3556,-1.7592,-146.055,-434.525,522.200,1.28,0.0184,0.8370,2.3131,0.0087,2025-06-06T11:06:56.188106
12107,-2.3282,-4.7321,-3.7888,-29.785,-570.570,485.730,1.26,0.0184,0.8641,2.3131,0.0174,2025-06-06T11:06:56.188106
12108,0.3475,-2.8216,-1.1639,394.450,331.730,-20.370,1.28,0.0368,0.8370,2.3131,0.0174,2025-06-06T11:06:56.188106
12109,0.0815,-3.5073,-5.0947,-310.240,781.410,-383.775,1.27,0.0184,0.8101,2.3131,0.0000,2025-06-06T11:06:56.188106
12110,-2.1287,-4.4184,-3.5404,-950.775,1146.740,-878.395,1.28,0.0184,0.8101,2.2831,0.0087,2025-06-06T11:06:56.188106
12111,-4.2954,-0.0322,-1.1390,-1121.505,1146.740,-799.470,1.26,0.0184,0.8101,2.2682,0.0087,2025-06-06T11:06:56.188106
12112,-4.9225,2.7416,0.6412,-1146.740,1146.740,-244.510,1.26,0.0184,0.8101,2.2533,0.0087,2025-06-06T11:06:56.188106
12113,-8.4570,-2.7045,8.1467,-449.435,1146.740,741.510,1.26,0.0184,0.8101,2.2385,0.0087,2025-06-06T11:06:56.188106
12114,-6.0771,-4.4184,14.6478,1146.040,449.575,348.985,1.26,0.0184,0.7832,2.2533,0.0087,2025-06-06T11:06:56.188106
12115,-1.5357,2.0232,4.5081,923.440,-267.190,24.395,1.27,0.0184,0.7832,2.2682,0.0000,2025-06-06T11:06:56.188106
12116,-1.2429,0.7115,1.0707,-823.795,-580.860,-207.305,1.25,0.0184,0.7832,2.2682,0.0087,2025-06-06T11:06:56.391798
12117,-1.1122,-1.5426,-0.6617,-1044.750,-838.565,-412.475,1.26,0.0368,0.8370,2.2831,0.0087,2025-06-06T11:06:56.391798
12118,-0.3640,0.6388,0.7017,-162.190,-687.645,-607.530,1.27,0.0368,0.8912,2.2981,0.0087,2025-06-06T11:06:56.391798
12119,0.0669,0.6505,2.6479,62.055,-308.385,-180.075,1.26,0.0184,0.8641,2.2682,0.0174,2025-06-06T11:06:56.391798
12120,0.2259,0.7203,1.8598,638.470,5.040,148.155,1.25,0.0184,0.7563,2.2981,0.0174,2025-06-06T11:06:56.391798
12121,0.1806,1.3796,0.3816,984.270,-169.015,213.115,1.25,0.0184,0.8101,2.2682,0.0087,2025-06-06T11:06:56.391798
12122,0.2479,0.9618,-0.0576,474.880,-347.480,159.320,1.28,0.0184,0.8101,2.2533,0.0087,2025-06-06T11:06:56.391798
12123,0.6900,0.6608,-0.1074,203.945,-252.560,104.930,1.26,0.0184,0.7563,2.2237,0.0000,2025-06-06T11:06:56.391798
12124,0.5793,0.2621,-0.3967,290.885,-221.095,90.405,1.27,0.0184,0.8101,2.2385,0.0087,2025-06-06T11:06:56.391798
12125,0.5212,-0.0732,-1.1317,265.755,-23.415,60.480,1.25,0.0184,0.8101,2.2385,0.0087,2025-06-06T11:06:56.391798
12126,0.4329,-0.3733,-1.2956,89.670,91.105,8.855,1.25,0.0184,0.7832,2.2385,0.0087,2025-06-06T11:06:56.391798
12127,0.9984,-0.3367,-1.1785,-138.810,204.645,-97.300,1.25,0.0184,0.8101,2.2385,0.0087,2025-06-06T11:06:56.391798
12128,0.7828,-0.2059,-0.9331,-214.130,407.960,-114.100,1.25,0.0368,0.8101,2.2385,0.0087,2025-06-06T11:06:56.391798
12129,-0.6847,-0.8262,-0.5300,-305.830,603.925,-111.860,1.25,0.0368,0.8101,2.2385,0.0087,2025-06-06T11:06:56.391798
12130,-0.6120,-0.7135,0.3665,-282.730,749.420,-97.475,1.25,0.0184,0.8101,2.2533,0.0087,2025-06-06T11:06:56.391798
12131,-1.4586,0.0610,1.5108,-271.845,706.020,19.005,1.24,0.0184,0.8101,2.2682,0.0087,2025-06-06T11:06:56.592040
12132,-1.9837,-0.0068,3.5824,-111.020,556.605,-0.875,1.25,0.0184,0.8641,2.2831,0.0174,2025-06-06T11:06:56.592040
12133,-1.9271,-0.1322,3.2174,20.790,340.200,-13.545,1.25,0.0184,0.8370,2.2831,0.0087,2025-06-06T11:06:56.592040
12134,-2.0872,-0.2338,3.6249,-35.770,-3.395,-85.295,1.25,0.0184,0.8370,2.2981,0.0174,2025-06-06T11:06:56.592040
12135,-2.7274,-0.0298,4.4813,74.900,-315.560,-45.990,1.23,0.0368,0.8370,2.2682,0.0174,2025-06-06T11:06:56.592040
12136,-3.6761,0.6891,5.1640,312.865,-670.040,38.815,1.25,0.0184,0.8101,2.2831,0.0000,2025-06-06T11:06:56.592040
12137,-4.5760,1.0868,3.8806,731.045,-1146.740,249.200,1.25,0.0184,0.8101,2.2831,0.0174,2025-06-06T11:06:56.592040
12138,-5.1455,0.5490,1.0634,1145.935,-1146.740,629.160,1.24,0.0184,0.8101,2.2682,0.0087,2025-06-06T11:06:56.592040
12139,-4.7141,0.0454,-2.1287,818.510,-1146.740,1079.610,1.25,0.0184,0.7832,2.2831,0.0174,2025-06-06T11:06:56.592040
12140,-2.6845,-2.7513,-2.7997,571.305,-999.145,1050.805,1.23,0.0368,0.8370,2.2981,0.0087,2025-06-06T11:06:56.592040
12141,-1.7475,-4.8624,-1.6368,543.970,-1044.610,614.460,1.25,0.0184,0.8101,2.2981,0.0087,2025-06-06T11:06:56.592040
12142,-2.3014,-3.0607,-1.9300,52.535,-818.755,547.365,1.24,0.0184,0.8101,2.2981,0.0087,2025-06-06T11:06:56.592040
12143,-1.7212,-2.9788,-2.6479,-234.465,-242.095,207.165,1.23,0.0184,0.8370,2.2981,0.0087,2025-06-06T11:06:56.592040
12144,-0.6159,-2.6606,-3.6317,-5.180,314.020,-89.740,1.25,0.0368,0.8101,2.3131,0.0087,2025-06-06T11:06:56.592040
12145,-0.7388,-2.2297,-3.3911,-71.995,683.550,-423.885,1.25,0.0368,0.8370,2.3131,0.0087,2025-06-06T11:06:56.592040
12146,-1.3820,-2.1204,-3.5268,-430.255,1124.830,-780.150,1.24,0.0368,0.8370,2.3583,0.0174,2025-06-06T11:06:56.644989
12147,-2.6772,-0.4270,-3.3164,-792.995,1146.740,-627.585,1.22,0.0368,0.8370,2.3432,0.0087,2025-06-06T11:06:56.644989
12148,-4.4154,-2.1492,-1.3459,-1146.740,1146.740,-727.370,1.24,0.0368,0.8370,2.3432,0.0174,2025-06-06T11:06:56.644989
12149,-6.1366,-0.7330,-0.1049,-1146.740,1146.740,-356.055,1.24,0.0368,0.8641,2.4038,0.0174,2025-06-06T11:06:56.644989
12150,-9.5331,0.2508,0.6027,-964.005,1146.740,316.890,1.24,0.0184,0.8641,2.3432,0.0174,2025-06-06T11:06:56.692124
12151,-7.8710,-1.9344,12.7685,308.245,1120.875,617.190,1.21,0.0368,0.8370,2.3432,0.0174,2025-06-06T11:06:56.692124
12152,-2.5537,-2.3902,8.8367,1041.600,533.400,426.440,1.24,0.0184,0.8101,2.3734,0.0087,2025-06-06T11:06:56.692124
12153,-2.8987,0.1581,4.0611,5.495,-359.345,-148.610,1.24,0.0184,0.7832,2.3734,0.0087,2025-06-06T11:06:56.749812
12154,-1.5709,0.5505,0.6124,-751.345,-670.460,-282.590,1.24,0.0368,0.7832,2.3734,0.0087,2025-06-06T11:06:56.749812
12155,-1.0663,0.1801,0.0776,-876.155,-964.530,-360.255,1.22,0.0368,0.7832,2.3734,0.0087,2025-06-06T11:06:56.749812
12156,-0.4997,0.1976,-0.0127,-220.885,-841.365,-491.225,1.25,0.0184,0.8641,2.3886,0.0087,2025-06-06T11:06:56.749812
12157,0.0098,0.7808,0.5407,182.035,-191.380,-107.975,1.24,0.0368,0.8912,2.3886,0.0087,2025-06-06T11:06:56.905536
12158,0.0073,0.5383,0.2782,342.195,190.750,108.850,1.23,0.0184,0.8370,2.3886,0.0087,2025-06-06T11:06:56.905536
12159,0.0727,0.5070,-0.0605,451.395,366.975,76.580,1.25,0.0184,0.8641,2.4038,0.0174,2025-06-06T11:06:56.905536
12160,0.0332,1.0136,0.5031,233.905,13.860,15.295,1.24,0.0184,0.8912,2.4344,0.0087,2025-06-06T11:06:56.905536
12161,0.4368,0.8642,0.2635,-84.175,-29.400,-8.925,1.24,0.0184,0.8370,2.4497,0.0087,2025-06-06T11:06:56.905536
12162,0.3967,0.5017,0.5065,-44.485,-83.125,30.135,1.29,0.0184,0.8370,2.4497,0.0087,2025-06-06T11:06:56.905536
12163,0.3177,0.0634,0.0488,39.340,17.465,72.870,1.23,0.0184,0.8912,2.4650,0.0087,2025-06-06T11:06:56.905536
12164,0.2401,-0.0908,0.2806,56.035,214.305,67.165,1.24,0.0184,0.8370,2.4959,0.0087,2025-06-06T11:06:56.905536
12165,-0.1039,-0.0859,0.8423,38.045,232.190,68.565,1.25,0.0184,0.8641,2.5269,0.0087,2025-06-06T11:06:56.905536
12166,-0.3665,-0.1420,1.1985,-2.030,208.495,59.710,1.23,0.0184,0.9183,2.5580,0.0000,2025-06-06T11:06:57.287150
12167,-0.6056,-0.3274,1.5035,-23.765,185.640,27.965,1.23,0.0184,0.9455,2.6050,0.0087,2025-06-06T11:06:57.287150
12168,-0.7042,-0.3284,1.7207,-7.735,135.870,5.775,1.24,0.0184,0.9455,2.6841,0.0087,2025-06-06T11:06:57.287150
12169,-0.6627,-0.1972,1.7797,1.995,42.420,-15.610,1.23,0.0368,0.9455,2.7320,0.0087,2025-06-06T11:06:57.287150
12170,-0.5680,-0.0073,1.5967,-8.225,-44.100,-29.540,1.25,0.0184,0.9455,2.7480,0.0174,2025-06-06T11:06:57.287150
12171,-0.3963,0.1288,1.3405,-9.905,-100.310,-34.685,1.25,0.0184,0.9455,2.8289,0.0174,2025-06-06T11:06:57.287150
12172,-0.2640,0.1845,1.0136,15.715,-120.575,-29.155,1.25,0.0368,0.9727,2.8615,0.0087,2025-06-06T11:06:57.287150
12173,-0.1298,0.2303,0.7696,26.740,-108.255,-20.965,1.23,0.0184,0.9455,2.8943,0.0087,2025-06-06T11:06:57.287150
12174,-0.0512,0.2962,0.5939,17.255,-76.300,-14.910,1.21,0.0184,1.0274,2.9604,0.0087,2025-06-06T11:06:57.287150
12175,-0.0024,0.2889,0.5729,2.240,-42.805,-3.220,1.25,0.0184,1.0823,3.0608,0.0087,2025-06-06T11:06:57.287150
12176,-0.0249,0.2098,0.6178,-6.895,2.975,-1.330,1.23,0.0184,1.1374,3.0777,0.0174,2025-06-06T11:06:57.287150
12177,-0.0561,0.2250,0.7340,-12.565,34.650,-0.350,1.25,0.0184,1.1374,3.1627,0.0000,2025-06-06T11:06:57.287150
12178,-0.1035,0.1923,0.8896,-23.030,55.860,5.040,1.24,0.0000,1.1098,3.1799,0.0087,2025-06-06T11:06:57.287150
12179,-0.1649,0.1742,1.0394,-12.005,60.410,8.750,1.24,0.0368,1.1098,3.1799,0.0087,2025-06-06T11:06:57.287150
12180,-0.2342,0.0956,1.1810,-11.830,49.910,2.625,1.23,0.0368,1.0548,3.1627,0.0000,2025-06-06T11:06:57.287150
12181,-0.3084,0.0634,1.2815,0.595,19.075,0.070,1.23,0.0368,1.1098,3.1799,0.0087,2025-06-06T11:06:57.287150
12182,-0.3035,0.0742,1.2278,3.850,-12.250,0.490,1.24,0.0184,1.1650,3.2143,0.0087,2025-06-06T11:06:57.287150
12183,-0.2840,0.1078,1.1673,12.215,-28.700,-2.065,1.23,0.0184,1.1374,3.2489,0.0087,2025-06-06T11:06:57.287150
12184,-0.2245,0.1254,1.0512,20.230,-31.045,0.140,1.24,0.0184,1.1650,3.2662,0.0087,2025-06-06T11:06:57.287150
12185,-0.2133,0.0654,0.9170,13.370,-27.370,-1.610,1.24,0.0368,1.1927,3.2836,0.0087,2025-06-06T11:06:57.287150
12186,-0.1693,0.1030,0.8486,7.105,-14.980,-2.450,1.23,0.0184,1.1927,3.2662,0.0087,2025-06-06T11:06:57.287150
12187,-0.1625,0.1703,0.8784,1.330,6.895,-3.675,1.24,0.0184,1.2205,3.2662,0.0087,2025-06-06T11:06:57.287150
12188,-0.1293,0.1718,1.0004,0.140,12.390,-3.080,1.24,0.0184,1.1650,3.2662,0.0087,2025-06-06T11:06:57.287150
12189,-0.1937,0.1762,1.0346,3.045,1.575,-0.735,1.24,0.0184,1.1650,3.2489,0.0087,2025-06-06T11:06:57.287150
12190,-0.1835,0.1518,1.0268,5.565,-9.625,6.055,1.24,0.0184,1.1650,3.2143,0.0087,2025-06-06T11:06:57.287150
12191,-0.1937,0.1396,1.0150,11.235,-7.980,5.180,1.24,0.0368,1.1650,3.2143,0.0087,2025-06-06T11:06:57.287150
12192,-0.2094,0.1279,0.9731,9.870,0.455,3.605,1.24,0.0368,1.1650,3.1627,0.0087,2025-06-06T11:06:57.287150
12193,-0.2328,0.0610,0.9872,1.190,1.995,0.105,1.24,0.0184,1.1650,3.1627,0.0174,2025-06-06T11:06:57.287150
12194,-0.2396,0.0688,0.9882,0.070,-3.710,-0.210,1.24,0.0368,1.1374,3.1799,0.0000,2025-06-06T11:06:57.287150
12195,-0.2084,0.1200,0.9975,-5.775,-5.635,-1.295,1.26,0.0368,1.1098,3.1286,0.0000,2025-06-06T11:06:57.310835
12196,-0.1952,0.1801,1.0019,-4.165,-2.800,-1.890,1.24,0.0368,1.1927,3.0608,0.0174,2025-06-06T11:06:57.310835
12197,-0.1806,0.1435,1.0204,-6.930,-2.135,-2.555,1.24,0.0368,1.1650,3.0440,0.0174,2025-06-06T11:06:57.310835
12198,-0.1908,0.1615,0.9980,1.680,-3.885,-1.925,1.24,0.0184,1.1098,3.0272,0.0087,2025-06-06T11:06:57.464964
12199,-0.1781,0.1601,0.9911,-2.625,-3.220,-0.315,1.24,0.0184,1.1374,3.0272,0.0087,2025-06-06T11:06:57.464964
12200,-0.1728,0.1737,0.9858,5.250,3.535,1.295,1.23,0.0368,1.1098,3.0104,0.0087,2025-06-06T11:06:57.464964
12201,-0.1942,0.1874,0.9867,6.300,11.445,3.710,1.23,0.0368,1.1098,2.9937,0.0087,2025-06-06T11:06:57.464964
12202,-0.2157,0.1083,1.0433,6.195,12.110,2.275,1.22,0.0184,1.0548,2.9770,0.0174,2025-06-06T11:06:57.464964
12203,-0.2630,0.0927,1.0521,7.455,1.155,-2.905,1.24,0.0368,1.0823,2.9937,0.0087,2025-06-06T11:06:57.464964
12204,-0.2308,0.1410,1.0394,4.270,-8.470,-2.345,1.25,0.0184,1.0823,2.9604,0.0087,2025-06-06T11:06:57.464964
12205,-0.2064,0.1698,1.0106,7.105,-9.835,-2.170,1.24,0.0000,1.0823,2.9438,0.0087,2025-06-06T11:06:57.464964
12206,-0.1728,0.1547,0.9867,10.430,-8.575,0.140,1.23,0.0368,1.0548,2.9438,0.0087,2025-06-06T11:06:57.464964
12207,-0.2118,0.1103,0.9916,9.065,-14.280,1.820,1.24,0.0184,1.0548,2.9273,0.0087,2025-06-06T11:06:57.464964
12208,-0.2147,0.1083,0.9550,5.425,-15.330,1.295,1.24,0.0184,1.0823,2.9108,0.0087,2025-06-06T11:06:57.464964
12209,-0.2162,0.1078,0.9389,-5.075,-7.210,-3.465,1.24,0.0368,1.0548,2.9108,0.0087,2025-06-06T11:06:57.621914
12210,-0.1996,0.1254,0.9423,-7.490,0.385,-4.270,1.24,0.0368,1.0823,2.9108,0.0087,2025-06-06T11:06:57.621914
12211,-0.1952,0.1376,0.9902,-10.290,4.760,-3.360,1.23,0.0368,1.0823,2.9273,0.0087,2025-06-06T11:06:57.621914
12212,-0.1972,0.1654,1.0214,-3.430,4.865,-0.945,1.22,0.0184,1.0548,2.9438,0.0087,2025-06-06T11:06:57.621914
12213,-0.2015,0.1874,1.0302,-4.270,3.045,-1.225,1.24,0.0368,1.0548,2.9604,0.0087,2025-06-06T11:06:57.621914
12214,-0.1874,0.1796,1.0516,0.770,-5.740,1.505,1.24,0.0184,1.0548,2.9273,0.0087,2025-06-06T11:06:57.621914
12215,-0.2230,0.1230,1.0292,2.170,-14.210,0.980,1.24,0.0368,1.0274,2.9438,0.0087,2025-06-06T11:06:57.621914
12216,-0.2172,0.1171,0.9775,2.835,-11.865,-0.735,1.25,0.0184,1.0000,2.9438,0.0087,2025-06-06T11:06:57.621914
12217,-0.2059,0.1264,0.9423,-4.130,-1.435,-3.605,1.24,0.0368,0.9727,2.9273,0.0087,2025-06-06T11:06:57.621914
12218,-0.1918,0.1630,0.9409,-1.190,6.860,0.035,1.24,0.0184,1.0274,2.9438,0.0087,2025-06-06T11:06:57.621914
12219,-0.1879,0.1518,1.0355,-1.645,4.515,2.905,1.24,0.0368,1.0274,2.9604,0.0087,2025-06-06T11:06:57.621914
12220,-0.2494,0.1264,1.0677,1.365,-2.625,-3.115,1.25,0.0184,1.0274,2.9273,0.0087,2025-06-06T11:06:57.621914
12221,-0.2167,0.1396,0.9984,-8.645,-8.960,-4.655,1.24,0.0368,1.0548,2.9604,0.0087,2025-06-06T11:06:57.751434
12222,-0.1991,0.1503,0.9721,-3.430,-5.495,-2.485,1.24,0.0368,0.9727,2.9770,0.0087,2025-06-06T11:06:57.751434
12223,-0.2045,0.1625,0.9838,3.045,4.795,1.295,1.25,0.0184,1.0274,2.9604,0.0087,2025-06-06T11:06:57.751434
12224,-0.2176,0.1259,1.0106,3.395,3.570,3.430,1.24,0.0368,1.0274,2.9604,0.0000,2025-06-06T11:06:57.751434
12225,-0.2333,0.0942,1.0209,-1.785,-3.640,-2.800,1.24,0.0368,1.0823,2.9937,0.0174,2025-06-06T11:06:57.751434
12226,-0.2216,0.1327,0.9906,-5.705,-5.565,-4.200,1.25,0.0368,1.0000,2.9770,0.0000,2025-06-06T11:06:57.751434
12227,-0.1962,0.1615,0.9740,-2.660,-1.120,-1.715,1.25,0.0184,1.0548,2.9770,0.0087,2025-06-06T11:06:57.751434
12228,-0.2035,0.1610,0.9828,0.525,5.740,-0.035,1.25,0.0184,1.0548,2.9770,0.0087,2025-06-06T11:06:57.751434
12229,-0.2084,0.1454,1.0082,0.630,2.275,1.295,1.26,0.0184,1.0000,2.9770,0.0087,2025-06-06T11:06:57.751434
12230,-0.2152,0.1415,1.0038,-0.980,-4.480,-1.260,1.27,0.0368,1.1374,2.9438,0.0087,2025-06-06T11:06:57.825749
12231,-0.2011,0.1532,0.9565,-3.220,-2.555,0.455,1.25,0.0368,1.0823,2.9604,0.0087,2025-06-06T11:06:57.825749
12232,-0.2157,0.1254,0.9521,-3.045,6.405,1.540,1.23,0.0184,1.0000,2.9438,0.0174,2025-06-06T11:06:57.825749
12233,-0.2279,0.1044,1.0043,-2.590,9.450,0.630,1.25,0.0184,1.0548,2.9273,0.0087,2025-06-06T11:06:57.825749
12234,-0.2460,0.1230,1.0414,-3.360,5.460,-0.280,1.25,0.0368,1.0823,2.9273,0.0087,2025-06-06T11:06:57.825749
12235,-0.2372,0.1318,1.0390,-3.535,-1.855,-0.665,1.24,0.0184,0.9727,2.9108,0.0087,2025-06-06T11:06:57.825749
12236,-0.2162,0.1366,1.0185,-2.765,-1.680,-3.185,1.24,0.0368,1.0000,2.9273,0.0087,2025-06-06T11:06:58.045839
12237,-0.2152,0.1391,0.9965,-0.420,-3.640,0.105,1.24,0.0368,1.0274,2.9108,0.0174,2025-06-06T11:06:58.045839
12238,-0.2264,0.1269,0.9975,1.855,-5.810,2.345,1.23,0.0368,1.0274,2.9108,0.0174,2025-06-06T11:06:58.045839
12239,-0.2313,0.1254,1.0038,1.155,-3.780,-0.385,1.26,0.0184,1.0274,2.8779,0.0087,2025-06-06T11:06:58.045839
12240,-0.2294,0.1415,0.9936,-1.015,-2.170,-1.505,1.24,0.0368,0.9455,2.8943,0.0087,2025-06-06T11:06:58.045839
12241,-0.2201,0.1474,0.9970,2.450,-2.730,0.595,1.24,0.0368,1.0000,2.8127,0.0087,2025-06-06T11:06:58.045839
12242,-0.2201,0.1347,0.9838,1.575,-1.575,-0.875,1.25,0.0184,1.0274,2.8127,0.0087,2025-06-06T11:06:58.045839
12243,-0.2284,0.1371,0.9755,-0.210,-0.315,-0.280,1.24,0.0184,0.9727,2.8452,0.0087,2025-06-06T11:06:58.045839
12244,-0.2284,0.1205,0.9906,-1.470,0.525,0.245,1.25,0.0184,1.0000,2.8289,0.0087,2025-06-06T11:06:58.045839
12245,-0.2455,0.1196,1.0297,0.595,-3.290,-1.050,1.24,0.0000,1.0000,2.7964,0.0087,2025-06-06T11:06:58.045839
12246,-0.2440,0.1342,1.0233,1.470,-9.345,-0.735,1.25,0.0184,0.9727,2.7964,0.0087,2025-06-06T11:06:58.045839
12247,-0.2284,0.1342,1.0043,0.140,-11.830,-0.280,1.24,0.0184,0.9727,2.7964,0.0174,2025-06-06T11:06:58.045839
12248,-0.2259,0.1386,0.9897,2.975,-7.210,-0.315,1.26,0.0184,0.9183,2.7803,0.0087,2025-06-06T11:06:58.045839
12249,-0.2323,0.1157,1.0170,1.015,-7.455,-1.960,1.24,0.0000,0.9727,2.7803,0.0087,2025-06-06T11:06:58.045839
12250,-0.2377,0.1381,1.0224,4.410,-14.000,-1.680,1.25,0.0368,1.0000,2.7803,0.0174,2025-06-06T11:06:58.045839
12251,-0.2172,0.1635,1.0063,1.645,-16.275,-1.435,1.24,0.0368,0.9455,2.7803,0.0174,2025-06-06T11:06:58.045839
12252,-0.1972,0.1571,0.9658,6.405,-13.475,2.100,1.24,0.0368,1.0000,2.7641,0.0174,2025-06-06T11:06:58.224254
12253,-0.2094,0.1137,0.9306,2.380,-7.385,-0.140,1.24,0.0184,0.9455,2.7964,0.0174,2025-06-06T11:06:58.224254
12254,-0.2020,0.1386,0.9238,0.700,-0.070,0.035,1.24,0.0184,0.8641,2.7803,0.0174,2025-06-06T11:06:58.224254
12255,-0.2030,0.1420,0.9628,-5.460,4.830,0.455,1.24,0.0184,0.8912,2.7803,0.0087,2025-06-06T11:06:58.224254
12256,-0.2137,0.1371,1.0033,-1.015,5.915,2.170,1.27,0.0368,0.9727,2.7803,0.0087,2025-06-06T11:06:58.224254
12257,-0.2401,0.1318,1.0272,-1.050,1.295,2.695,1.25,0.0368,0.9183,2.7641,0.0087,2025-06-06T11:06:58.224254
12258,-0.2250,0.1078,1.0546,-3.325,-6.090,-1.295,1.24,0.0184,0.9727,2.7803,0.0087,2025-06-06T11:06:58.224254
12259,-0.2342,0.1235,1.0341,-1.925,-18.130,-0.490,1.24,0.0184,0.9455,2.7803,0.0087,2025-06-06T11:06:58.224254
12260,-0.1874,0.1566,0.9301,0.805,-23.135,3.045,1.26,0.0184,0.9183,2.7803,0.0087,2025-06-06T11:06:58.224254
12261,-0.1088,0.1654,0.8281,-4.515,-22.715,10.920,1.24,0.0368,0.9455,2.7964,0.0087,2025-06-06T11:06:58.224254
12262,-0.1181,0.1039,0.7974,-10.850,-11.795,19.530,1.25,0.0368,0.9727,2.8452,0.0174,2025-06-06T11:06:58.224254
12263,-0.2396,0.0059,0.8560,-20.090,21.910,16.065,1.24,0.0184,0.9455,2.8127,0.0000,2025-06-06T11:06:58.224254
12264,-0.3192,-0.0015,0.9858,-36.995,39.830,0.280,1.24,0.0184,0.9727,2.8127,0.0087,2025-06-06T11:06:58.224254
12265,-0.3274,0.1098,1.1444,-41.615,40.985,-8.330,1.24,0.0000,0.9727,2.8289,0.0174,2025-06-06T11:06:58.224254
12266,-0.2957,0.1942,1.2517,-29.715,23.275,-6.895,1.24,0.0184,0.9727,2.8452,0.0087,2025-06-06T11:06:58.224254
12267,-0.2621,0.2440,1.2649,-3.535,0.945,-6.090,1.24,0.0368,0.9727,2.8452,0.0087,2025-06-06T11:06:58.441486
12268,-0.2113,0.2557,1.1644,15.155,-25.550,-1.820,1.25,0.0368,1.0548,2.8615,0.0087,2025-06-06T11:06:58.441486
12269,-0.1967,0.1972,1.0058,22.470,-35.000,4.165,1.24,0.0552,1.0274,2.8779,0.0174,2025-06-06T11:06:58.441486
12270,-0.2074,0.1083,0.8955,27.125,-23.800,7.525,1.24,0.0184,0.9727,2.8943,0.0087,2025-06-06T11:06:58.441486
12271,-0.2113,0.0556,0.8350,19.075,-5.390,5.460,1.24,0.0184,1.0274,2.8943,0.0087,2025-06-06T11:06:58.441486
12272,-0.2298,0.0434,0.8774,6.965,12.845,1.750,1.24,0.0368,1.0000,2.8943,0.0087,2025-06-06T11:06:58.441486
12273,-0.2464,0.0551,0.9838,-2.940,17.360,-0.315,1.25,0.0184,0.9727,2.8943,0.0087,2025-06-06T11:06:58.441486
12274,-0.2425,0.0825,1.0497,-2.135,13.195,-1.505,1.25,0.0368,1.0000,2.9108,0.0087,2025-06-06T11:06:58.441486
12275,-0.2479,0.1078,1.0965,-2.030,-1.610,-2.345,1.23,0.0184,1.0000,2.8943,0.0087,2025-06-06T11:06:58.441486
12276,-0.2386,0.1342,1.0712,2.730,-15.645,-0.210,1.24,0.0184,1.0274,2.9108,0.0174,2025-06-06T11:06:58.441486
12277,-0.2381,0.1327,1.0243,6.020,-20.440,0.980,1.24,0.0184,1.0000,2.9273,0.0087,2025-06-06T11:06:58.441486
12278,-0.2206,0.1235,0.9682,7.805,-15.855,-0.315,1.24,0.0184,1.0548,2.9273,0.0087,2025-06-06T11:06:58.441486
12279,-0.2152,0.1347,0.9355,4.865,-7.350,-1.295,1.24,0.0184,1.0548,2.9438,0.0087,2025-06-06T11:06:58.441486
12280,-0.2157,0.1303,0.9711,3.325,1.015,-0.175,1.23,0.0184,1.0548,2.9438,0.0087,2025-06-06T11:06:58.441486
12281,-0.2420,0.1322,1.0126,5.005,2.800,-1.400,1.24,0.0368,1.0274,2.9438,0.0087,2025-06-06T11:06:58.441486
12282,-0.2425,0.1352,1.0458,6.160,-4.655,-2.905,1.24,0.0368,1.0823,2.9604,0.0087,2025-06-06T11:06:58.545019
12283,-0.2235,0.1571,1.0248,7.245,-12.950,0.560,1.24,0.0368,1.0548,2.9937,0.0087,2025-06-06T11:06:58.545019
12284,-0.2196,0.1269,0.9955,8.680,-11.060,0.455,1.24,0.0368,1.0823,3.0104,0.0174,2025-06-06T11:06:58.545019
12285,-0.2230,0.1108,0.9599,12.145,-9.975,1.365,1.23,0.0368,1.0823,3.0104,0.0087,2025-06-06T11:06:58.545019
12286,-0.2196,0.1137,0.9560,5.180,-8.400,2.135,1.24,0.0184,1.0823,2.9937,0.0087,2025-06-06T11:06:58.545019
12287,-0.2157,0.0976,0.9672,0.735,-5.355,-0.700,1.24,0.0184,1.1374,3.0272,0.0087,2025-06-06T11:06:58.545019
12288,-0.2230,0.1181,0.9858,0.000,-4.060,-2.450,1.24,0.0184,1.0000,3.0272,0.0000,2025-06-06T11:06:58.545019
12289,-0.2176,0.1337,0.9970,-0.945,-5.495,-0.175,1.24,0.0368,1.0548,3.0272,0.0087,2025-06-06T11:06:58.660812
12290,-0.2074,0.1493,1.0038,0.210,-4.620,-0.140,1.23,0.0368,1.1098,3.0272,0.0087,2025-06-06T11:06:58.660812
12291,-0.2269,0.1357,1.0048,-0.175,-5.075,-1.295,1.24,0.0368,1.1098,3.0440,0.0087,2025-06-06T11:06:58.660812
12292,-0.2206,0.1459,0.9965,1.785,-7.000,0.945,1.24,0.0368,1.0548,3.0777,0.0087,2025-06-06T11:06:58.660812
12293,-0.2206,0.1518,0.9975,2.100,-5.600,1.330,1.24,0.0184,1.0823,3.0608,0.0087,2025-06-06T11:06:58.660812
12294,-0.2289,0.1220,1.0048,1.190,-3.990,0.105,1.24,0.0184,1.0274,3.0272,0.0087,2025-06-06T11:06:58.660812
12295,-0.2362,0.1200,0.9970,2.065,-4.445,-0.245,1.24,0.0184,1.0548,3.0440,0.0087,2025-06-06T11:06:58.660812
12296,-0.2216,0.1371,0.9999,0.455,-4.410,-0.630,1.24,0.0184,1.0548,3.0608,0.0087,2025-06-06T11:06:58.660812
12297,-0.2142,0.1581,0.9931,1.960,-3.150,-0.385,1.24,0.0368,1.0548,3.0440,0.0174,2025-06-06T11:06:58.660812
12298,-0.2147,0.1176,1.0150,0.280,-6.930,0.210,1.25,0.0368,1.1098,3.0608,0.0174,2025-06-06T11:06:58.890997
12299,-0.2240,0.1342,1.0063,3.430,-11.935,-0.910,1.24,0.0000,1.0823,3.0608,0.0174,2025-06-06T11:06:58.890997
12300,-0.2128,0.1381,0.9984,-2.415,-9.975,-1.365,1.23,0.0368,1.0548,3.0440,0.0087,2025-06-06T11:06:58.890997
12301,-0.2108,0.1449,0.9765,3.010,-5.110,-0.385,1.23,0.0184,1.0823,3.0272,0.0174,2025-06-06T11:06:58.890997
12302,-0.1996,0.1610,0.9643,2.905,-1.295,1.400,1.25,0.0184,1.0274,3.0272,0.0087,2025-06-06T11:06:58.890997
12303,-0.2025,0.1469,0.9984,2.135,-1.715,2.555,1.24,0.0184,1.0274,3.0272,0.0087,2025-06-06T11:06:58.890997
12304,-0.2347,0.1205,1.0024,1.750,-2.275,-0.105,1.23,0.0184,1.0274,2.9937,0.0087,2025-06-06T11:06:58.890997
12305,-0.2235,0.1322,0.9980,0.175,-1.225,-0.805,1.24,0.0184,1.0548,2.9604,0.0087,2025-06-06T11:06:58.890997
12306,-0.2211,0.1464,0.9970,1.295,0.000,0.595,1.23,0.0184,1.0274,2.9604,0.0087,2025-06-06T11:06:58.890997
12307,-0.2250,0.1357,1.0067,2.555,-1.505,1.190,1.23,0.0184,0.9727,2.9273,0.0087,2025-06-06T11:06:58.890997
12308,-0.2240,0.1376,1.0268,3.045,-6.475,0.770,1.23,0.0184,0.9727,2.8943,0.0087,2025-06-06T11:06:58.890997
12309,-0.2259,0.1327,1.0248,2.170,-11.935,1.505,1.24,0.0184,0.9727,2.8779,0.0087,2025-06-06T11:06:58.890997
12310,-0.2294,0.1264,1.0014,3.605,-11.830,0.350,1.25,0.0184,1.0000,2.8452,0.0087,2025-06-06T11:06:58.890997
12311,-0.2133,0.1552,0.9823,4.375,-7.735,0.455,1.24,0.0184,0.9455,2.8615,0.0087,2025-06-06T11:06:58.890997
