SeqNum,AccX,AccY,AccZ,GyroX,GyroY,GyroZ,Flex,Force1,Force2,Force3,Force4,TimestampReception
12443,-0.2830,-0.2118,0.8560,26.705,-55.405,7.490,394.00,505,446,419,336,2025-06-04T19:50:08.926676
12444,-0.1581,-0.3475,0.8750,30.555,-54.145,-19.810,404.00,483,410,358,342,2025-06-04T19:50:08.926987
12445,-0.2625,-0.3475,1.1219,31.675,-56.315,-14.140,345.00,452,306,412,366,2025-06-04T19:50:08.926987
12446,-0.4119,-0.3343,1.0463,32.200,-62.860,-15.470,382.00,429,324,431,368,2025-06-04T19:50:08.926987
12447,-0.4402,-0.3016,1.0341,28.875,-70.420,-18.375,385.00,415,383,427,377,2025-06-04T19:50:08.926987
12448,-0.4202,-0.2479,0.9994,27.790,-76.195,-18.305,340.00,409,411,414,353,2025-06-04T19:50:08.926987
12449,-0.2845,-0.2059,1.0072,29.085,-73.185,-14.700,367.00,413,419,397,370,2025-06-04T19:50:08.926987
12450,-0.2025,-0.1200,1.0175,24.640,-62.370,-12.460,333.00,418,431,427,386,2025-06-04T19:50:08.926987
12451,-0.1303,-0.0898,1.0141,22.750,-49.385,-10.465,359.00,408,420,432,355,2025-06-04T19:50:08.927714
12452,-0.1020,-0.0761,0.9804,20.895,-37.870,-7.945,392.00,409,413,432,347,2025-06-04T19:50:08.927714
12453,-0.1181,-0.0342,0.9760,20.125,-30.835,-7.455,387.00,401,421,421,328,2025-06-04T19:50:08.927714
12454,-0.0976,-0.0044,0.9755,18.025,-27.020,-8.785,382.00,406,401,420,361,2025-06-04T19:50:09.128670
12455,-0.0620,0.0107,0.9994,16.100,-23.730,-8.890,386.00,414,422,416,348,2025-06-04T19:50:09.128670
12456,0.2342,0.0903,0.9770,11.795,2.380,-2.065,381.00,415,422,425,358,2025-06-04T19:50:09.128670
12457,-0.4065,-0.0825,0.6861,-14.385,20.440,9.625,348.00,384,358,430,379,2025-06-04T19:50:09.128670
12458,-0.6593,-0.1845,0.7993,2.345,-9.800,-0.245,370.00,375,392,354,355,2025-06-04T19:50:09.128670
12459,-0.2445,-0.0117,0.9711,8.925,-21.945,-13.405,389.00,389,395,417,374,2025-06-04T19:50:09.128670
12460,0.1352,-0.0229,1.0160,-2.345,-17.325,-4.445,409.00,393,413,427,378,2025-06-04T19:50:09.128670
12461,-0.0244,-0.0244,1.1058,0.420,-29.785,-0.140,394.00,399,411,406,388,2025-06-04T19:50:09.128670
12462,-0.0454,0.0346,1.0980,1.295,-19.250,-1.575,372.00,383,428,385,372,2025-06-04T19:50:09.128670
12463,-0.1698,0.0083,1.1448,2.695,-19.600,-5.110,403.00,405,424,431,392,2025-06-04T19:50:09.128670
12464,-0.1835,0.0117,1.1483,1.085,-28.175,-4.690,394.00,414,361,414,351,2025-06-04T19:50:09.128670
12465,-0.0776,0.0468,1.1209,-5.355,-30.030,-5.040,397.00,418,345,418,378,2025-06-04T19:50:09.129671
12466,-0.0776,-0.0854,1.0975,-10.745,-29.330,-5.110,368.00,420,402,429,373,2025-06-04T19:50:09.129671
12467,-0.0488,-0.0039,1.0829,-6.615,-24.640,-5.075,393.00,419,395,428,369,2025-06-04T19:50:09.129671
12468,0.0151,0.4748,1.2932,10.080,-20.440,2.835,382.00,413,408,361,367,2025-06-04T19:50:09.129671
12469,-0.1362,-0.1030,1.2078,-12.915,-28.980,5.215,379.00,419,406,415,370,2025-06-04T19:50:09.129671
12470,0.0859,0.1152,1.1078,-1.225,-40.880,-0.315,363.00,422,418,437,369,2025-06-04T19:50:09.331886
12471,0.6647,0.7056,1.1156,-2.485,6.755,12.705,375.00,415,424,415,383,2025-06-04T19:50:09.331886
12472,-1.1219,-0.9975,0.9843,-38.045,-28.105,9.345,396.00,406,426,404,355,2025-06-04T19:50:09.331886
12473,-0.0664,0.0766,0.5890,15.575,-35.105,4.340,391.00,399,411,396,336,2025-06-04T19:50:09.331886
12474,-0.3723,0.0708,0.8438,-5.180,-31.290,15.715,353.00,396,406,348,337,2025-06-04T19:50:09.331886
12475,0.3655,-0.2020,0.9257,-13.440,-46.655,-4.690,368.00,378,433,411,356,2025-06-04T19:50:09.331886
12476,0.5397,-0.1488,0.9941,-2.170,-16.555,2.590,400.00,390,403,428,367,2025-06-04T19:50:09.331886
12477,0.7281,-0.4016,0.8701,-13.055,31.255,14.385,391.00,398,304,417,361,2025-06-04T19:50:09.331886
12478,0.4695,-0.2630,0.8520,1.855,65.905,26.530,384.00,401,384,439,383,2025-06-04T19:50:09.331886
12479,-0.0234,-0.1815,0.8716,4.515,80.290,41.265,400.00,406,418,419,373,2025-06-04T19:50:09.331886
12480,-0.1952,-0.3250,0.8115,-8.645,67.130,39.550,391.00,418,353,405,381,2025-06-04T19:50:09.331886
12481,-0.3601,-0.3182,0.8091,14.035,37.380,36.855,400.00,426,399,425,384,2025-06-04T19:50:09.331886
12482,-0.2982,-0.3577,0.8945,13.300,30.380,33.600,352.00,427,410,429,381,2025-06-04T19:50:09.332963
12483,-0.3348,-0.3274,0.9980,28.245,11.655,28.770,332.00,431,407,417,368,2025-06-04T19:50:09.332963
12484,-0.2416,-0.2777,1.0702,29.750,1.890,22.505,342.00,436,419,403,370,2025-06-04T19:50:09.332963
12485,-0.1879,-0.1879,1.1400,29.960,-8.330,16.940,385.00,430,405,422,377,2025-06-04T19:50:09.332963
12486,-0.1601,-0.1181,1.1766,32.130,-12.950,12.215,398.00,419,413,433,386,2025-06-04T19:50:09.332963
12487,-0.1757,-0.0571,1.1775,26.565,-8.960,5.915,403.00,411,395,346,379,2025-06-04T19:50:09.332963
12488,-0.1996,0.0268,1.1951,27.090,-18.585,2.555,401.00,413,400,399,387,2025-06-04T19:50:09.332963
12489,-0.1288,0.0595,1.1468,17.045,-15.470,-1.925,383.00,408,402,401,347,2025-06-04T19:50:09.594432
12490,-0.1030,0.0317,1.1170,13.580,-13.300,-3.990,382.00,416,400,410,338,2025-06-04T19:50:09.594432
12491,-0.0786,0.0102,1.1361,13.160,-12.075,-4.865,399.00,419,343,420,358,2025-06-04T19:50:09.594432
12492,-0.0605,-0.0063,1.1058,7.175,-9.205,-5.145,408.00,387,325,405,373,2025-06-04T19:50:09.594432
12493,-0.0639,-0.0268,1.1058,6.580,-9.940,-5.355,413.00,391,408,382,370,2025-06-04T19:50:09.594432
12494,-0.0156,-0.0586,1.0668,3.430,-4.865,-5.355,407.00,395,411,385,384,2025-06-04T19:50:09.594432
12495,-0.0307,-0.0625,1.0604,3.395,-3.150,-4.235,351.00,399,417,393,377,2025-06-04T19:50:09.594432
12496,-0.0566,-0.0791,1.0277,3.255,-1.890,-2.870,389.00,414,431,418,386,2025-06-04T19:50:09.594432
12497,-0.0478,-0.0981,1.0243,1.925,2.765,-2.380,352.00,407,402,418,382,2025-06-04T19:50:09.594432
12498,-0.0747,-0.1747,0.9936,0.840,6.405,-5.075,391.00,411,418,420,354,2025-06-04T19:50:09.594432
12499,-0.1049,-0.0024,1.0311,4.550,9.450,-2.660,349.00,418,426,404,362,2025-06-04T19:50:09.594432
12500,-0.0473,-0.1498,1.0092,0.875,13.230,-5.075,370.00,413,422,396,378,2025-06-04T19:50:09.594432
12501,-0.0937,-0.1010,1.0116,2.205,15.855,-6.510,402.00,380,426,337,367,2025-06-04T19:50:09.594432
12502,-0.1972,-0.1108,0.9872,-0.630,16.100,-7.945,385.00,397,401,387,382,2025-06-04T19:50:09.594432
12503,-0.2669,-0.0664,0.9862,4.375,4.095,-6.545,397.00,405,419,411,386,2025-06-04T19:50:09.594432
12504,-0.2796,-0.0600,1.0150,2.100,-6.125,-6.265,398.00,382,356,398,391,2025-06-04T19:50:09.594432
12505,-0.2342,-0.0732,1.0282,0.385,-14.210,-8.225,397.00,399,393,423,386,2025-06-04T19:50:09.594432
12506,-0.1840,-0.0517,1.0302,1.190,-18.515,-9.205,399.00,398,402,399,386,2025-06-04T19:50:09.594432
12507,-0.1732,-0.0581,1.0555,2.380,-21.210,-8.085,407.00,396,365,416,359,2025-06-04T19:50:09.594432
12508,-0.1737,-0.0405,1.0707,2.800,-24.535,-7.840,401.00,396,338,416,345,2025-06-04T19:50:09.594432
12509,-0.1484,-0.0415,1.0477,1.750,-26.145,-7.910,399.00,405,398,428,322,2025-06-04T19:50:09.818797
12510,-0.1527,-0.0590,1.0297,2.065,-26.985,-8.120,404.00,412,412,437,358,2025-06-04T19:50:09.818797
12511,-0.1718,-0.0473,1.0248,2.170,-29.330,-8.120,361.00,381,412,411,369,2025-06-04T19:50:09.818797
12512,-0.1596,-0.0625,1.0072,0.385,-31.150,-8.225,376.00,397,409,419,367,2025-06-04T19:50:09.818797
12513,-0.1425,-0.0586,0.9726,-0.700,-33.600,-9.730,384.00,407,348,401,360,2025-06-04T19:50:09.818797
12514,-0.1083,-0.0376,0.9618,-1.680,-31.185,-11.025,393.00,409,394,415,370,2025-06-04T19:50:09.819563
12515,-0.1205,-0.0449,0.9531,-2.800,-27.405,-11.585,409.00,415,427,347,368,2025-06-04T19:50:09.819563
12516,-0.0917,-0.0224,0.9584,-3.605,-27.300,-12.775,392.00,416,429,408,340,2025-06-04T19:50:09.819563
12517,-0.0610,-0.0215,0.9672,-7.840,-22.085,-12.705,374.00,417,415,391,364,2025-06-04T19:50:09.819563
12518,-0.0903,-0.0464,0.9833,-8.820,-17.675,-12.705,340.00,379,427,411,362,2025-06-04T19:50:09.819563
12519,-0.0732,-0.0415,0.9955,-6.545,-14.560,-11.690,368.00,396,379,389,330,2025-06-04T19:50:09.819563
12520,-0.0415,-0.0581,0.9994,-8.085,-8.680,-11.655,381.00,402,367,401,352,2025-06-04T19:50:09.819563
12521,-0.0649,-0.0503,1.0126,-7.630,-3.360,-12.670,340.00,409,409,401,375,2025-06-04T19:50:09.819563
12522,-0.0776,-0.0386,1.0160,-6.615,0.140,-13.510,382.00,410,407,389,378,2025-06-04T19:50:09.819563
12523,-0.1176,-0.0512,1.0165,-7.560,0.875,-13.440,396.00,419,426,401,381,2025-06-04T19:50:09.820554
12524,-0.1103,-0.0537,1.0092,-7.280,-0.945,-13.580,380.00,414,427,391,385,2025-06-04T19:50:09.820554
12525,-0.0815,-0.0595,1.0014,-7.490,-2.590,-13.020,399.00,407,406,400,394,2025-06-04T19:50:09.820554
12526,-0.0478,-0.0664,1.0209,-7.105,-1.715,-11.795,386.00,382,403,410,345,2025-06-04T19:50:09.820554
12527,-0.0390,-0.0771,1.0472,-7.350,1.575,-10.185,384.00,362,433,409,367,2025-06-04T19:50:09.820554
12528,-0.0600,-0.0639,1.0419,-8.295,3.080,-8.645,392.00,382,430,430,385,2025-06-04T19:50:09.994210
12529,-0.0576,-0.0844,1.0404,-9.065,4.760,-7.105,378.00,400,437,435,384,2025-06-04T19:50:09.994210
12530,-0.0561,-0.0800,1.0331,-10.010,5.425,-5.565,347.00,405,405,421,377,2025-06-04T19:50:09.994936
12531,-0.0508,-0.0776,1.0243,-10.290,7.280,-4.235,325.00,398,428,430,376,2025-06-04T19:50:09.994936
12532,-0.0781,-0.0712,1.0214,-11.270,7.560,-3.150,382.00,382,403,418,377,2025-06-04T19:50:09.994936
12533,-0.0747,-0.0922,1.0248,-11.340,7.350,-1.890,384.00,401,417,421,389,2025-06-04T19:50:09.994936
12534,-0.1118,-0.0913,1.0204,-11.235,5.005,-0.945,341.00,411,389,426,392,2025-06-04T19:50:09.994936
12535,-0.1015,-0.1098,1.0292,-9.800,2.730,-0.455,327.00,411,342,422,385,2025-06-04T19:50:09.994936
12536,-0.0981,-0.0996,1.0394,-9.485,0.595,-0.560,374.00,352,414,405,347,2025-06-04T19:50:09.994936
12537,-0.0342,-0.1205,1.0512,-6.125,2.380,-0.945,391.00,388,399,421,361,2025-06-04T19:50:09.995268
12538,-0.0351,-0.1098,1.0497,-7.385,1.715,0.455,383.00,408,352,408,381,2025-06-04T19:50:09.995268
12539,-0.0864,-0.1391,1.0380,-5.775,-1.470,0.700,398.00,382,391,405,374,2025-06-04T19:50:09.995268
12540,-0.1078,-0.1337,1.0024,-4.900,-0.910,-1.960,400.00,396,402,399,378,2025-06-04T19:50:09.995268
12541,-0.1410,-0.1493,1.0287,-3.955,-5.915,-3.990,392.00,374,408,417,388,2025-06-04T19:50:09.995268
12542,-0.1069,-0.1752,1.0507,0.630,-11.690,-7.035,394.00,399,390,397,380,2025-06-04T19:50:09.995268
12543,-0.0708,-0.2728,1.0624,3.885,-14.245,-10.745,352.00,376,402,353,371,2025-06-04T19:50:09.995268
12544,0.0088,-0.1571,1.0775,10.745,-20.720,-15.750,374.00,386,409,402,376,2025-06-04T19:50:09.995268
12545,-0.0088,-0.2255,1.1361,11.130,-24.255,-16.905,380.00,396,350,425,379,2025-06-04T19:50:09.995268
12546,0.0078,-0.1815,1.1463,14.140,-26.250,-20.020,384.00,412,417,405,379,2025-06-04T19:50:10.114760
12547,0.0381,-0.1854,1.1336,16.100,-20.685,-24.850,394.00,418,369,413,386,2025-06-04T19:50:10.114760
12548,0.0634,-0.1859,1.1136,20.020,-15.085,-31.255,407.00,416,407,398,315,2025-06-04T19:50:10.114760
12549,0.1030,-0.1845,1.0960,23.485,-8.855,-35.735,402.00,388,423,425,357,2025-06-04T19:50:10.114760
12550,0.0913,-0.1703,1.1209,28.560,-4.305,-39.585,403.00,402,405,415,370,2025-06-04T19:50:10.114760
12551,0.0400,-0.1396,1.1463,32.970,-3.115,-44.415,414.00,383,396,403,342,2025-06-04T19:50:10.114760
12552,-0.0039,-0.1171,1.1800,36.400,-7.175,-48.860,407.00,387,391,410,376,2025-06-04T19:50:10.114760
12553,-0.0142,-0.0947,1.1858,40.005,-13.405,-51.240,354.00,396,377,420,347,2025-06-04T19:50:10.114760
12554,0.0015,-0.0791,1.1839,44.275,-19.040,-51.940,383.00,407,415,414,372,2025-06-04T19:50:10.114760
12555,0.0132,-0.0620,1.1697,48.790,-23.170,-52.430,390.00,374,427,343,377,2025-06-04T19:50:10.114760
12556,0.0351,-0.0444,1.1556,53.270,-23.695,-52.710,403.00,397,414,394,386,2025-06-04T19:50:10.159874
12557,0.0717,-0.0303,1.1351,59.325,-21.280,-52.465,391.00,404,373,340,392,2025-06-04T19:50:10.159874
12558,0.0874,-0.0122,1.1244,64.295,-14.560,-51.765,372.00,370,387,399,349,2025-06-04T19:50:10.159874
12559,0.0517,0.0215,1.1131,70.105,-6.055,-52.675,380.00,389,396,379,328,2025-06-04T19:50:10.159874
12560,0.0449,0.0503,1.0897,75.565,2.625,-53.270,397.00,402,406,419,349,2025-06-04T19:50:10.320132
12561,0.0112,0.0815,1.0726,80.080,9.765,-53.340,403.00,409,409,429,369,2025-06-04T19:50:10.320132
12562,-0.0024,0.0976,1.0551,84.665,15.540,-51.730,391.00,403,424,410,388,2025-06-04T19:50:10.320132
12563,-0.0356,0.1113,1.0336,87.990,18.760,-49.770,365.00,408,377,414,380,2025-06-04T19:50:10.320132
12564,-0.1186,0.1240,1.0102,91.350,20.055,-48.720,374.00,410,380,397,373,2025-06-04T19:50:10.320132
12565,-0.1684,0.1210,0.9740,93.940,17.500,-48.195,392.00,379,410,414,387,2025-06-04T19:50:10.320132
12566,-0.1913,0.1352,0.9404,96.355,14.035,-47.110,405.00,386,415,410,381,2025-06-04T19:50:10.320132
12567,-0.1903,0.1464,0.9101,97.790,12.075,-45.920,352.00,360,399,409,377,2025-06-04T19:50:10.320132
12568,-0.1845,0.1542,0.8838,98.455,11.725,-45.500,365.00,377,413,395,380,2025-06-04T19:50:10.320132
12569,-0.1674,0.1401,0.8496,97.230,14.210,-45.605,394.00,401,411,411,375,2025-06-04T19:50:10.320132
12570,-0.1566,0.1449,0.8125,95.095,17.850,-46.165,398.00,378,423,408,390,2025-06-04T19:50:10.321205
12571,-0.1630,0.1396,0.8262,93.170,22.260,-47.005,411.00,392,433,398,392,2025-06-04T19:50:10.321205
12572,-0.2176,0.1298,0.8223,88.970,25.305,-48.230,410.00,412,444,424,389,2025-06-04T19:50:10.373515
12573,-0.2625,0.1020,0.8223,84.595,23.520,-49.875,399.00,418,367,342,345,2025-06-04T19:50:10.373683
12574,-0.3270,0.1176,0.8125,80.395,17.885,-51.205,412.00,423,333,379,365,2025-06-04T19:50:10.373683
12575,-0.3396,0.0883,0.8394,77.000,10.815,-51.555,418.00,416,346,405,383,2025-06-04T19:50:10.373683
12576,-0.3270,0.1279,0.8486,71.470,3.255,-51.275,417.00,405,417,409,382,2025-06-04T19:50:10.494493
12577,-0.3265,0.1000,0.8496,55.300,-0.525,-51.590,385.00,415,413,423,394,2025-06-04T19:50:10.494493
12578,-0.3226,0.1464,0.8652,56.875,-2.940,-49.070,396.00,407,423,412,372,2025-06-04T19:50:10.494493
12579,-0.3304,0.1728,0.8530,49.280,-4.270,-48.790,415.00,408,436,345,341,2025-06-04T19:50:10.494493
12580,-0.3279,0.1801,0.8560,41.510,-3.885,-46.130,428.00,382,438,350,378,2025-06-04T19:50:10.494493
12581,-0.3162,0.1679,0.8477,32.970,-5.215,-42.560,421.00,383,432,408,391,2025-06-04T19:50:10.494493
12582,-0.3567,0.2172,0.8252,24.185,-17.465,-40.425,372.00,371,417,402,390,2025-06-04T19:50:10.494493
12583,-0.3553,0.2157,0.8350,17.150,-10.325,-37.450,404.00,393,432,352,391,2025-06-04T19:50:10.494493
12584,-0.3357,0.2216,0.8218,8.925,-13.545,-35.490,401.00,390,409,381,389,2025-06-04T19:50:10.494493
12585,-0.3196,0.2006,0.8438,0.700,-13.265,-33.810,419.00,406,433,418,361,2025-06-04T19:50:10.494493
12586,-0.3221,0.2372,0.8594,-4.830,-11.585,-33.565,396.00,402,419,416,339,2025-06-04T19:50:10.599311
12587,-0.3440,0.2601,0.8896,-10.325,-5.950,-33.180,416.00,385,399,416,333,2025-06-04T19:50:10.599311
12588,-0.3055,0.2435,0.8989,-14.490,-2.345,-31.745,399.00,394,404,410,368,2025-06-04T19:50:10.599311
12589,-0.3543,0.2704,0.8916,-18.690,0.070,-30.345,392.00,395,393,393,384,2025-06-04T19:50:10.600303
12590,-0.4900,0.2928,0.9160,-20.755,1.610,-29.645,420.00,401,419,410,389,2025-06-04T19:50:10.600303
12591,-0.4080,0.2879,0.9521,-23.485,0.455,-29.295,398.00,370,428,440,407,2025-06-04T19:50:10.600303
12592,-0.3914,0.2918,0.9643,-26.985,-0.735,-29.085,406.00,395,349,344,402,2025-06-04T19:50:10.600303
12593,-0.3919,0.2855,0.9755,-28.525,-4.095,-27.685,365.00,408,388,347,394,2025-06-04T19:50:10.600303
12594,-0.3870,0.2938,0.9823,-28.490,-7.490,-27.160,390.00,407,409,389,381,2025-06-04T19:50:10.601310
12595,-0.3660,0.2845,0.9804,-29.330,-8.470,-26.810,406.00,408,429,413,391,2025-06-04T19:50:10.650652
12596,-0.3333,0.2874,0.9926,-28.560,-6.755,-27.020,418.00,422,416,414,401,2025-06-04T19:50:10.650652
12597,-0.3040,0.2869,0.9257,-29.785,-2.625,-26.915,405.00,414,350,421,386,2025-06-04T19:50:10.650652
12598,-0.2952,0.1235,1.1961,-3.010,33.320,-8.295,419.00,418,405,413,394,2025-06-04T19:50:10.650652
12599,-0.9150,0.5348,1.4996,-1.155,16.660,-18.445,408.00,390,411,347,379,2025-06-04T19:50:10.725327
12600,-0.3694,0.4665,1.1658,-7.105,-9.065,-26.250,401.00,399,340,387,342,2025-06-04T19:50:10.725327
12601,-0.1083,0.3587,0.9218,-20.720,-8.330,-16.345,405.00,401,395,421,362,2025-06-04T19:50:10.725327
12602,-0.2933,0.3001,0.8428,-18.865,-6.090,-18.830,404.00,406,419,399,328,2025-06-04T19:50:10.725327
12603,-0.2064,0.2777,0.7315,-13.055,2.415,-27.090,387.00,411,408,424,363,2025-06-04T19:50:10.842410
12604,-0.1015,0.2616,0.7613,-15.505,14.175,-31.185,389.00,415,404,380,352,2025-06-04T19:50:10.842410
12605,-0.2064,0.2347,0.8701,-20.510,17.780,-32.865,363.00,416,422,396,365,2025-06-04T19:50:10.846396
12606,-0.3636,0.1889,1.0053,-20.160,14.455,-33.705,349.00,417,420,358,385,2025-06-04T19:50:10.846396
12607,-0.4612,0.1874,1.1019,-17.220,13.020,-34.475,386.00,414,429,406,318,2025-06-04T19:50:10.846396
12608,-0.5388,0.1913,1.1419,-17.395,3.640,-33.880,417.00,416,383,385,350,2025-06-04T19:50:10.846396
12609,-0.5153,0.1718,1.0624,-21.315,-11.340,-31.325,417.00,419,391,369,334,2025-06-04T19:50:10.846396
12610,-0.4504,0.1298,0.9599,-24.850,-22.925,-26.810,361.00,410,342,406,362,2025-06-04T19:50:10.846396
12611,-0.3972,0.1479,0.8579,-25.935,-32.690,-24.640,371.00,383,333,412,343,2025-06-04T19:50:10.935263
12612,-0.3226,0.1249,0.8042,-26.775,-36.715,-22.015,379.00,398,404,356,378,2025-06-04T19:50:10.935263
12613,-0.2791,0.1118,0.7959,-27.125,-38.115,-20.055,371.00,397,396,333,378,2025-06-04T19:50:10.935263
12614,-0.3016,0.1059,0.9004,-26.075,-38.955,-19.565,405.00,408,418,392,389,2025-06-04T19:50:10.935263
12615,-0.3187,0.0991,0.9755,-21.945,-39.200,-20.195,398.00,412,412,407,345,2025-06-04T19:50:10.935263
12616,-0.3099,0.1113,1.0019,-18.165,-40.320,-20.720,394.00,418,408,405,369,2025-06-04T19:50:10.935263
12617,-0.2738,0.1298,0.9858,-16.030,-40.425,-21.980,406.00,418,408,413,386,2025-06-04T19:50:10.935263
12618,-0.2479,0.1391,0.9423,-12.845,-38.325,-23.275,390.00,388,434,426,375,2025-06-04T19:50:10.935263
12619,-0.2176,0.1430,0.9038,-8.820,-36.365,-23.800,348.00,401,438,428,386,2025-06-04T19:50:10.935263
12620,-0.1767,0.1513,0.8525,-3.570,-34.125,-23.205,386.00,403,420,413,396,2025-06-04T19:50:10.935263
12621,-0.1601,0.1645,0.8311,1.295,-32.025,-21.805,354.00,411,408,428,391,2025-06-04T19:50:10.935263
12622,-0.1562,0.1620,0.8018,6.650,-28.945,-20.230,388.00,410,429,421,387,2025-06-04T19:50:11.025752
12623,-0.1581,0.1586,0.8164,12.810,-24.780,-18.830,393.00,413,409,396,354,2025-06-04T19:50:11.025752
12624,-0.1981,0.1581,0.8628,16.625,-22.295,-18.410,406.00,410,437,414,366,2025-06-04T19:50:11.025752
12625,-0.2323,0.1566,0.9184,19.215,-22.785,-18.025,395.00,407,441,401,369,2025-06-04T19:50:11.025752
12626,-0.2503,0.1488,0.9677,21.560,-23.905,-17.465,377.00,402,403,411,362,2025-06-04T19:50:11.025752
12627,-0.2577,0.1430,1.0019,22.750,-25.445,-16.485,395.00,411,414,431,365,2025-06-04T19:50:11.025752
12628,-0.2503,0.1283,1.0204,23.590,-27.090,-15.365,400.00,386,429,427,367,2025-06-04T19:50:11.138495
12629,-0.2338,0.1113,1.0170,23.590,-28.840,-14.525,411.00,390,409,402,371,2025-06-04T19:50:11.138495
12630,-0.2020,0.0908,1.0155,23.065,-28.070,-13.965,360.00,409,438,417,386,2025-06-04T19:50:11.138495
12631,-0.1537,0.0825,1.0053,22.995,-26.285,-12.985,394.00,400,430,422,374,2025-06-04T19:50:11.138495
12632,-0.1025,0.0830,1.0106,22.680,-23.135,-11.375,356.00,374,413,403,370,2025-06-04T19:50:11.138495
12633,-0.0605,0.0771,1.0219,22.225,-17.780,-9.100,403.00,394,429,423,383,2025-06-04T19:50:11.138495
12634,-0.0664,0.0913,1.0546,20.650,-11.025,-8.610,402.00,405,430,429,345,2025-06-04T19:50:11.138495
12635,-0.0893,0.1030,1.1063,19.845,-4.445,-8.645,412.00,387,431,429,376,2025-06-04T19:50:11.138495
12636,-0.1352,0.1127,1.1624,19.040,0.560,-8.155,370.00,389,415,421,370,2025-06-04T19:50:11.240384
12637,-0.1718,0.1191,1.2010,18.900,3.815,-6.545,420.00,397,399,408,370,2025-06-04T19:50:11.240514
12638,-0.0595,0.1074,1.2698,26.495,17.815,-4.165,427.00,405,399,414,379,2025-06-04T19:50:11.240514
12639,-0.3001,-0.0029,1.1263,14.630,29.085,3.010,405.00,406,429,426,374,2025-06-04T19:50:11.240514
12640,-0.3323,-0.0459,1.0638,22.645,27.545,14.245,376.00,406,441,433,385,2025-06-04T19:50:11.240514
12641,-0.5954,-0.0498,1.0760,23.345,9.555,26.075,400.00,378,365,422,391,2025-06-04T19:50:11.240514
12642,-0.5719,0.0020,1.1497,28.770,-12.180,34.020,417.00,382,372,434,379,2025-06-04T19:50:11.240514
12643,-0.4582,0.0839,1.1517,28.210,-20.965,40.810,416.00,370,419,428,383,2025-06-04T19:50:11.544267
12644,-0.3455,0.1230,1.0926,28.315,-20.335,46.725,418.00,385,394,408,311,2025-06-04T19:50:11.544267
12645,-0.2733,0.1586,1.0082,28.315,-10.325,50.960,425.00,390,430,350,367,2025-06-04T19:50:11.544267
12646,-0.2323,0.1713,0.9550,29.330,5.320,53.585,397.00,408,403,403,385,2025-06-04T19:50:11.544267
12647,-0.2313,0.2201,0.9267,27.720,20.965,55.510,405.00,404,414,375,373,2025-06-04T19:50:11.544267
12648,-0.2533,0.2542,0.8984,24.885,35.700,57.820,406.00,411,394,409,373,2025-06-04T19:50:11.544267
12649,-0.2806,0.2752,0.8682,23.205,46.445,61.005,413.00,406,423,344,359,2025-06-04T19:50:11.544267
12650,-0.2879,0.2987,0.8442,20.125,56.000,65.135,415.00,412,384,397,378,2025-06-04T19:50:11.544267
12651,-0.3226,0.3255,0.8242,17.010,61.075,69.545,378.00,409,424,407,390,2025-06-04T19:50:11.544267
12652,-0.3436,0.3533,0.8032,12.775,65.135,74.235,309.00,412,399,420,384,2025-06-04T19:50:11.544267
12653,-0.3235,0.3401,0.7906,10.535,67.165,78.645,361.00,419,396,400,393,2025-06-04T19:50:11.544267
12654,-0.3479,0.3611,0.7950,6.510,65.800,82.950,392.00,413,426,367,385,2025-06-04T19:50:11.544267
12655,-0.3675,0.3723,0.7979,2.660,63.140,85.470,408.00,424,425,403,373,2025-06-04T19:50:11.544267
12656,-0.3865,0.3792,0.8081,-1.050,56.315,86.835,413.00,426,430,431,374,2025-06-04T19:50:11.544267
12657,-0.3138,0.2298,0.7540,-9.310,50.190,79.310,358.00,425,424,422,377,2025-06-04T19:50:11.544267
12658,-0.2572,0.4046,0.9121,-2.975,48.265,80.080,388.00,400,357,430,357,2025-06-04T19:50:11.544267
12659,-0.3065,0.3865,0.8755,-6.370,37.100,78.820,406.00,401,417,410,391,2025-06-04T19:50:11.544267
12660,-0.3382,0.3806,0.9477,-7.385,8.085,68.005,418.00,383,418,411,398,2025-06-04T19:50:11.544267
12661,-0.5178,0.0390,0.7413,-20.860,-5.180,54.565,428.00,376,392,370,392,2025-06-04T19:50:11.544267
12662,-0.3523,0.0420,1.0995,12.285,-26.845,4.725,360.00,333,414,397,398,2025-06-04T19:50:11.544267
12663,0.6627,0.3850,1.3215,35.910,-33.740,16.030,398.00,342,428,429,397,2025-06-04T19:50:11.544267
12664,0.2884,0.3948,1.0541,-5.740,10.150,38.360,389.00,365,430,420,327,2025-06-04T19:50:11.544267
12665,-0.1596,0.3084,0.9370,3.290,9.765,22.015,345.00,353,430,426,357,2025-06-04T19:50:11.545264
12666,-0.1962,0.4207,0.8042,5.180,27.860,18.795,379.00,377,419,430,380,2025-06-04T19:50:11.545264
12667,-0.3587,0.4631,0.8516,-7.175,33.075,26.145,360.00,393,426,429,376,2025-06-04T19:50:11.545264
12668,-0.5744,0.3538,0.7374,-12.880,10.360,20.965,384.00,366,429,423,367,2025-06-04T19:50:11.545264
12669,-0.4016,0.3684,0.8135,-18.270,-7.280,13.160,390.00,361,431,437,383,2025-06-04T19:50:11.631742
12670,-0.2235,0.3850,0.9130,-17.500,-13.020,13.545,385.00,385,413,413,386,2025-06-04T19:50:11.631742
12671,-0.1440,0.3836,0.9843,-18.585,-5.425,15.330,391.00,399,405,415,385,2025-06-04T19:50:11.631742
12672,-0.1293,0.3709,1.0106,-14.840,-4.865,14.630,406.00,411,419,417,407,2025-06-04T19:50:11.631742
12673,-0.1767,0.3953,1.0258,-15.995,-7.350,14.560,413.00,416,409,424,395,2025-06-04T19:50:11.631742
12674,-0.1449,0.4392,0.9867,-15.330,-2.975,11.200,397.00,419,427,437,401,2025-06-04T19:50:11.631742
12675,-0.0708,0.4519,0.9677,-7.875,3.780,17.780,386.00,379,423,407,396,2025-06-04T19:50:11.631742
12676,-0.0908,0.3299,0.9428,-7.350,7.105,12.880,353.00,390,432,306,386,2025-06-04T19:50:11.631742
12677,-0.1825,0.3499,0.9355,-2.240,-3.115,15.225,378.00,403,404,284,399,2025-06-04T19:50:11.631742
12678,-0.2542,0.3343,0.9423,-1.505,-12.285,17.605,381.00,392,403,379,379,2025-06-04T19:50:11.726670
12679,-0.2352,0.4231,0.9418,2.380,-15.960,18.235,401.00,403,409,395,389,2025-06-04T19:50:11.726670
12680,-0.2528,0.3504,0.9760,2.205,-10.325,16.065,393.00,375,347,381,387,2025-06-04T19:50:11.726670
12681,-0.2035,0.4060,0.9906,8.435,-13.195,17.010,380.00,356,411,385,388,2025-06-04T19:50:11.726670
12682,-0.1601,0.4119,0.9838,11.375,-8.085,15.505,401.00,377,428,345,377,2025-06-04T19:50:11.726670
12683,-0.1303,0.4065,0.9531,14.630,0.490,13.860,385.00,358,404,406,348,2025-06-04T19:50:11.727667
12684,-0.1005,0.3977,0.9243,18.480,10.220,12.110,393.00,377,427,415,373,2025-06-04T19:50:11.727667
12685,-0.0654,0.3782,0.8647,21.665,20.685,9.695,390.00,385,407,413,375,2025-06-04T19:50:11.727667
12686,-0.0561,0.3670,0.8179,24.815,29.750,5.705,398.00,359,410,422,387,2025-06-04T19:50:11.777601
12687,-0.0874,0.4031,0.7989,27.230,39.060,1.785,404.00,357,411,431,395,2025-06-04T19:50:11.777601
12688,-0.1210,0.4475,0.8184,28.875,48.580,-0.280,392.00,386,405,415,391,2025-06-04T19:50:11.777601
12689,-0.2274,0.4114,0.9082,33.215,53.165,-2.275,387.00,402,350,427,379,2025-06-04T19:50:11.777601
12690,-0.2201,0.4294,0.9599,41.195,53.095,-2.625,389.00,397,409,440,401,2025-06-04T19:50:11.939073
12691,-0.3855,0.4270,1.0302,46.970,51.275,3.500,387.00,403,412,426,328,2025-06-04T19:50:11.939729
12692,-0.7222,0.3694,1.1863,59.325,30.380,8.750,360.00,412,421,352,364,2025-06-04T19:50:11.939844
12693,-0.5900,0.5158,1.1400,71.890,10.325,17.710,408.00,383,399,386,382,2025-06-04T19:50:11.939844
12694,-0.5646,0.4978,1.1292,70.840,-14.525,25.550,421.00,396,347,407,379,2025-06-04T19:50:11.940068
12695,-0.6285,0.3255,1.2478,75.915,-49.350,22.785,405.00,398,396,382,389,2025-06-04T19:50:11.940068
12696,-0.5358,0.3128,1.2117,84.980,-68.005,17.045,406.00,403,422,428,350,2025-06-04T19:50:11.940068
12697,-0.0307,0.0468,1.0712,95.585,-63.035,5.950,403.00,410,416,376,342,2025-06-04T19:50:11.940068
12698,-0.0390,0.3240,1.3776,130.515,-11.095,-0.630,394.00,382,422,428,375,2025-06-04T19:50:11.940068
12699,0.0800,0.4163,1.3249,152.250,33.705,-6.300,390.00,395,403,397,389,2025-06-04T19:50:11.940068
12700,-0.1254,0.4294,1.1756,169.540,59.640,-6.580,354.00,413,349,414,398,2025-06-04T19:50:11.940068
12701,-0.3533,0.3948,1.0970,181.825,58.835,-6.650,394.00,406,380,418,402,2025-06-04T19:50:11.940068
12702,-0.5685,0.3436,1.0472,188.580,51.275,-7.000,387.00,414,400,358,355,2025-06-04T19:50:11.940068
12703,-0.6422,0.3523,0.8813,199.010,42.385,-4.865,405.00,417,400,397,375,2025-06-04T19:50:12.238995
12704,-0.5544,0.4255,0.7032,201.670,43.575,3.780,403.00,408,418,435,345,2025-06-04T19:50:12.239136
12705,-0.5588,0.4748,0.5754,199.885,45.640,13.440,405.00,406,405,412,364,2025-06-04T19:50:12.239136
12706,-0.6071,0.4987,0.3880,191.415,42.105,22.680,411.00,402,348,383,378,2025-06-04T19:50:12.239136
12707,-0.6744,0.5451,0.2630,181.020,31.885,31.150,425.00,401,417,391,386,2025-06-04T19:50:12.239136
12708,-0.7613,0.5890,0.1976,165.620,9.975,38.535,409.00,407,413,426,398,2025-06-04T19:50:12.239136
12709,-0.7208,0.6520,0.1440,147.210,-21.805,43.995,415.00,411,422,415,390,2025-06-04T19:50:12.239136
12710,-0.6393,0.6510,0.0683,124.460,-53.795,48.755,417.00,383,420,405,380,2025-06-04T19:50:12.239136
12711,-0.5344,0.6564,-0.0068,104.055,-77.735,48.895,415.00,391,403,424,393,2025-06-04T19:50:12.239136
12712,-0.3870,0.6749,-0.0708,87.045,-88.445,44.135,395.00,402,420,429,378,2025-06-04T19:50:12.239136
12713,-0.2274,0.6808,-0.0888,72.100,-85.925,37.345,360.00,403,414,392,385,2025-06-04T19:50:12.239136
12714,-0.0854,0.7052,-0.0678,58.520,-69.930,30.030,380.00,401,417,392,380,2025-06-04T19:50:12.239136
12715,-0.0195,0.7354,-0.0454,47.005,-46.795,21.350,396.00,378,398,414,377,2025-06-04T19:50:12.239136
12716,-0.0268,0.7544,0.0015,37.555,-26.285,13.265,392.00,393,418,411,389,2025-06-04T19:50:12.239765
12717,-0.0717,0.7920,0.0703,30.240,-13.825,6.475,348.00,370,407,431,387,2025-06-04T19:50:12.239765
12718,-0.1044,0.8359,0.1274,23.450,-7.910,0.210,390.00,387,342,380,383,2025-06-04T19:50:12.239765
12719,-0.0947,0.8823,0.1630,16.625,-6.580,-4.445,399.00,386,408,428,353,2025-06-04T19:50:12.366874
12720,-0.1078,0.9165,0.1771,12.670,-10.045,-8.610,404.00,403,417,405,363,2025-06-04T19:50:12.366874
12721,-0.1181,0.9623,0.2001,11.305,-18.165,-13.510,408.00,385,424,372,385,2025-06-04T19:50:12.366874
12722,-0.0615,1.0414,0.2630,10.220,-26.250,-19.355,384.00,366,428,399,387,2025-06-04T19:50:12.366874
12723,-0.0039,1.1448,0.3328,7.175,-34.055,-24.710,396.00,389,424,393,390,2025-06-04T19:50:12.366874
12724,0.0703,1.3254,0.3860,3.850,-43.260,-28.840,365.00,386,416,422,388,2025-06-04T19:50:12.366874
12725,0.1786,1.4928,0.4329,-2.485,-54.250,-32.865,340.00,369,402,433,382,2025-06-04T19:50:12.366874
12726,0.2264,1.7778,0.4333,-13.125,-66.115,-38.010,390.00,385,422,433,373,2025-06-04T19:50:12.366874
12727,0.3328,2.0886,0.4070,-26.460,-79.590,-42.420,400.00,363,421,424,386,2025-06-04T19:50:12.366874
12728,0.4099,2.4151,0.3436,-42.315,-99.715,-43.050,406.00,389,423,413,346,2025-06-04T19:50:12.366874
12729,0.4573,2.6664,0.2274,-60.830,-127.820,-33.670,390.00,403,395,414,336,2025-06-04T19:50:12.366874
12730,0.5651,2.8577,0.0093,-80.255,-155.260,-15.330,405.00,406,358,302,359,2025-06-04T19:50:12.366874
12731,0.6783,3.0066,-0.4143,-105.385,-181.090,9.695,402.00,403,328,326,367,2025-06-04T19:50:12.366874
12732,0.5412,3.1544,-0.7637,-126.280,-184.275,21.490,394.00,403,378,372,373,2025-06-04T19:50:12.367635
12733,0.3421,3.1959,-0.9906,-142.975,-172.235,21.490,401.00,375,426,348,380,2025-06-04T19:50:12.367635
12734,0.1196,3.0876,-1.0570,-169.085,-146.475,9.450,371.00,380,401,375,386,2025-06-04T19:50:12.367635
12735,0.0737,2.6332,-1.2146,-202.195,-119.105,-7.070,402.00,367,421,409,343,2025-06-04T19:50:12.426634
12736,-0.3762,2.0218,-1.1873,-245.595,-107.415,-26.740,388.00,350,424,358,370,2025-06-04T19:50:12.426634
12737,-0.8721,1.3669,-0.9013,-286.300,-134.015,-52.220,371.00,379,430,349,378,2025-06-04T19:50:12.426634
12738,-1.0380,0.5763,-0.5451,-335.475,-177.170,-84.000,397.00,400,419,330,374,2025-06-04T19:50:12.426634
12739,-0.8735,-0.2767,-0.2113,-385.840,-204.960,-115.430,395.00,399,423,409,373,2025-06-04T19:50:12.426634
12740,-0.6730,-1.3454,0.0478,-428.190,-184.765,-150.325,392.00,406,422,436,355,2025-06-04T19:50:12.426634
12741,-0.4763,-2.8777,0.8291,-471.240,-152.915,-179.550,387.00,410,406,439,368,2025-06-04T19:50:12.426634
12742,-1.0272,-4.6638,1.2444,-409.220,-73.150,-175.070,380.00,425,434,430,357,2025-06-04T19:50:12.556545
12743,-1.3435,-5.6842,1.6045,-376.775,-92.855,-136.430,336.00,399,424,384,381,2025-06-04T19:50:12.556904
12744,-0.8901,-4.9961,1.2708,-148.295,-195.265,-48.370,329.00,403,397,386,374,2025-06-04T19:50:12.556904
12745,0.4534,-3.9845,0.9321,-24.185,-163.905,55.020,303.00,355,397,403,404,2025-06-04T19:50:12.556904
12746,1.5728,-3.2603,1.0960,124.110,-56.455,125.825,330.00,385,409,414,390,2025-06-04T19:50:12.556904
12747,1.3298,-2.5347,1.0409,233.520,92.785,158.795,407.00,392,410,430,390,2025-06-04T19:50:12.556904
12748,0.7237,-2.0506,0.9848,256.270,165.095,154.945,411.00,404,387,437,401,2025-06-04T19:50:12.556904
12749,0.1337,-1.6119,1.0526,283.745,135.695,156.415,355.00,408,402,425,385,2025-06-04T19:50:12.556904
12750,-0.2684,-1.3776,0.9936,279.300,58.835,161.910,404.00,421,421,417,386,2025-06-04T19:50:12.556904
12751,-0.3553,-1.0331,0.9028,251.335,-16.765,144.515,408.00,391,423,438,398,2025-06-04T19:50:12.556904
12752,-0.0376,-0.6486,0.7950,250.985,-34.510,117.145,401.00,392,395,434,402,2025-06-04T19:50:12.556904
12753,0.4699,-0.3601,0.7735,237.195,2.730,105.910,390.00,375,398,433,401,2025-06-04T19:50:12.848096
12754,0.6671,-0.1410,0.7369,232.190,68.005,110.390,395.00,396,412,430,400,2025-06-04T19:50:12.848096
12755,0.4660,0.1669,0.6603,224.245,133.280,106.330,395.00,397,415,351,400,2025-06-04T19:50:12.848096
12756,0.0425,0.4714,0.5573,211.260,159.005,90.545,374.00,378,407,409,405,2025-06-04T19:50:12.848096
12757,-0.2396,0.6847,0.3616,199.570,143.465,75.390,402.00,396,404,427,359,2025-06-04T19:50:12.848096
12758,-0.5114,0.8647,0.2572,190.960,99.295,57.925,406.00,407,435,408,339,2025-06-04T19:50:12.848096
12759,-0.4416,1.0658,0.1918,184.485,50.435,33.985,400.00,405,405,419,365,2025-06-04T19:50:12.848096
12760,-0.1562,1.2078,0.1118,170.590,18.515,16.730,382.00,412,413,391,370,2025-06-04T19:50:12.849152
12761,0.0820,1.3644,-0.0229,154.770,5.250,9.135,399.00,412,359,406,382,2025-06-04T19:50:12.849152
12762,0.1747,1.4494,-0.1415,137.165,9.275,-5.180,397.00,409,416,426,339,2025-06-04T19:50:12.849389
12763,0.2396,1.4664,-0.2181,120.645,19.845,-17.920,385.00,406,423,407,362,2025-06-04T19:50:12.849389
12764,0.2230,1.4816,-0.1464,95.340,29.190,-30.450,379.00,416,416,436,339,2025-06-04T19:50:12.849389
12765,0.2904,1.4489,-0.0595,76.440,27.790,-33.880,395.00,415,410,363,346,2025-06-04T19:50:12.849389
12766,0.2391,1.4254,0.0234,55.545,19.530,-36.540,404.00,391,415,400,366,2025-06-04T19:50:12.850220
12767,0.1508,1.3981,0.0747,46.900,6.755,-43.750,398.00,405,425,430,341,2025-06-04T19:50:12.850220
12768,0.1859,1.4235,0.1152,42.035,-3.290,-49.910,401.00,411,414,383,353,2025-06-04T19:50:12.850220
12769,0.2416,1.4118,0.1288,38.990,-10.500,-53.095,398.00,386,378,379,369,2025-06-04T19:50:12.850220
12770,0.2577,1.3820,0.1552,35.210,-9.345,-55.755,405.00,398,408,391,367,2025-06-04T19:50:13.052703
12771,0.2381,1.3513,0.2162,30.905,-1.750,-57.190,402.00,375,421,415,381,2025-06-04T19:50:13.053080
12772,0.2416,1.3137,0.2708,24.570,7.455,-55.965,384.00,392,431,396,376,2025-06-04T19:50:13.053080
12773,0.1908,1.2654,0.2884,20.405,14.280,-52.605,344.00,375,407,339,371,2025-06-04T19:50:13.053080
12774,0.1601,1.2512,0.2879,20.825,20.440,-48.475,387.00,384,351,403,379,2025-06-04T19:50:13.053080
12775,0.0654,1.2161,0.3445,21.175,25.515,-48.020,402.00,395,410,428,376,2025-06-04T19:50:13.053080
12776,-0.0200,1.1985,0.3572,22.785,27.475,-43.085,406.00,405,433,427,392,2025-06-04T19:50:13.053080
12777,-0.1127,1.1741,0.3572,23.030,22.225,-38.115,371.00,414,431,405,393,2025-06-04T19:50:13.053080
12778,-0.1420,1.1409,0.3499,23.065,13.790,-32.410,376.00,419,414,433,395,2025-06-04T19:50:13.053080
12779,-0.1649,1.1180,0.3694,21.350,8.155,-26.495,372.00,425,423,427,397,2025-06-04T19:50:13.053080
12780,-0.1562,1.0907,0.3660,20.510,5.670,-19.915,332.00,417,349,407,383,2025-06-04T19:50:13.053080
12781,-0.1615,1.0565,0.3523,18.935,4.480,-14.490,376.00,419,398,414,353,2025-06-04T19:50:13.053080
12782,-0.1474,1.0155,0.3187,20.055,4.865,-7.980,392.00,410,439,398,327,2025-06-04T19:50:13.054073
12783,-0.1596,0.9994,0.3128,20.195,8.435,-3.500,382.00,410,431,413,342,2025-06-04T19:50:13.054073
12784,-0.1279,0.9755,0.3001,21.315,16.135,-1.085,381.00,409,397,425,371,2025-06-04T19:50:13.054073
12785,-0.0981,0.9618,0.3128,21.175,26.320,1.960,400.00,378,362,410,383,2025-06-04T19:50:13.054073
12786,-0.1103,0.9760,0.3104,20.685,39.620,4.305,404.00,397,391,399,383,2025-06-04T19:50:13.054073
12787,-0.1410,0.9487,0.3255,21.035,41.265,4.550,401.00,398,424,410,383,2025-06-04T19:50:13.054073
12788,-0.2328,0.9472,0.3318,18.305,37.835,4.970,381.00,404,408,426,377,2025-06-04T19:50:13.054073
12789,-0.2562,0.9379,0.3245,17.605,27.965,6.895,394.00,380,423,405,379,2025-06-04T19:50:13.162829
12790,-0.2826,0.9379,0.3279,15.085,15.995,7.735,403.00,394,434,409,383,2025-06-04T19:50:13.162829
12791,-0.2464,0.9160,0.2996,13.125,4.480,8.575,389.00,390,409,337,381,2025-06-04T19:50:13.162829
12792,-0.2040,0.9179,0.3040,11.235,-2.065,9.590,389.00,401,423,406,395,2025-06-04T19:50:13.162829
12793,-0.1859,0.9223,0.3172,9.380,-2.555,8.890,389.00,393,396,372,354,2025-06-04T19:50:13.397157
12794,-0.1547,0.9277,0.3367,6.755,-0.455,7.525,399.00,398,428,338,382,2025-06-04T19:50:13.397157
12795,-0.1684,0.9126,0.3299,3.815,1.260,5.915,406.00,405,418,392,378,2025-06-04T19:50:13.397157
12796,-0.1688,0.9062,0.3260,2.660,2.030,4.340,418.00,407,412,373,380,2025-06-04T19:50:13.397157
12797,-0.1737,0.8984,0.3235,0.805,3.150,2.590,396.00,404,383,383,383,2025-06-04T19:50:13.397157
12798,-0.1649,0.8921,0.3260,-0.070,3.780,0.420,387.00,409,394,418,391,2025-06-04T19:50:13.397157
12799,-0.1752,0.8847,0.3372,-1.260,5.040,-1.015,339.00,415,419,410,386,2025-06-04T19:50:13.397157
12800,-0.1825,0.8813,0.3450,-2.345,7.140,-3.150,384.00,412,426,404,391,2025-06-04T19:50:13.397157
12801,-0.1835,0.8779,0.3553,-2.730,10.640,-4.760,380.00,385,401,392,351,2025-06-04T19:50:13.397157
12802,-0.2064,0.8789,0.3650,-3.220,12.180,-5.740,384.00,398,406,406,367,2025-06-04T19:50:13.397157
12803,-0.2538,0.8760,0.3782,-3.325,12.180,-7.770,384.00,411,435,396,341,2025-06-04T19:50:13.397157
12804,-0.2669,0.8833,0.3953,-3.535,10.605,-8.435,390.00,422,407,400,334,2025-06-04T19:50:13.397157
12805,-0.2786,0.8686,0.3777,-3.500,8.120,-7.665,394.00,419,397,424,371,2025-06-04T19:50:13.397157
12806,-0.3079,0.8633,0.3753,-2.730,4.900,-6.895,347.00,414,415,408,341,2025-06-04T19:50:13.397157
12807,-0.3270,0.8652,0.3816,-2.205,1.295,-5.880,394.00,422,398,400,333,2025-06-04T19:50:13.397157
12808,-0.3304,0.8652,0.3826,-1.190,-2.415,-5.355,390.00,417,420,347,350,2025-06-04T19:50:13.397157
12809,-0.3148,0.8745,0.3967,-0.350,-4.340,-4.760,404.00,413,342,391,372,2025-06-04T19:50:13.397157
12810,-0.3079,0.8696,0.3884,-0.665,-4.690,-4.130,361.00,409,396,382,390,2025-06-04T19:50:13.397157
12811,-0.2991,0.8652,0.3899,-0.175,-4.130,-3.745,397.00,413,428,303,389,2025-06-04T19:50:13.397157
12812,-0.2923,0.8677,0.3943,-0.560,-3.605,-3.080,399.00,403,346,399,386,2025-06-04T19:50:13.397157
12813,-0.2952,0.8579,0.3845,-0.875,-3.955,-2.275,358.00,401,395,427,345,2025-06-04T19:50:13.397157
12814,-0.2977,0.8472,0.3787,-0.665,-5.565,-1.540,391.00,413,417,405,355,2025-06-04T19:50:13.397157
12815,-0.3030,0.8535,0.3860,-0.350,-6.545,-1.610,394.00,380,426,420,367,2025-06-04T19:50:13.397157
12816,-0.2894,0.8579,0.3928,-0.630,-7.665,-1.645,349.00,392,406,368,380,2025-06-04T19:50:13.397157
12817,-0.2806,0.8413,0.3909,-1.085,-8.575,-1.330,379.00,405,415,409,376,2025-06-04T19:50:13.397157
12818,-0.2650,0.8496,0.3889,-0.875,-8.435,-1.225,392.00,381,414,414,343,2025-06-04T19:50:13.397157
12819,-0.2718,0.8442,0.3748,-1.295,-6.755,-1.750,409.00,394,427,397,375,2025-06-04T19:50:13.398156
12820,-0.2601,0.8379,0.3650,-1.295,-4.620,-2.520,394.00,377,441,410,377,2025-06-04T19:50:13.467370
12821,-0.2445,0.8447,0.3738,-0.805,-1.610,-1.960,352.00,390,370,433,388,2025-06-04T19:50:13.467370
12822,-0.2816,0.8716,0.4089,-2.030,-1.855,-2.485,402.00,407,416,439,377,2025-06-04T19:50:13.467370
12823,-0.2865,0.8457,0.3826,-3.920,-1.785,-3.290,414.00,415,407,434,377,2025-06-04T19:50:13.467370
12824,-0.2948,0.8389,0.3684,-2.135,-3.955,-3.675,398.00,414,366,404,382,2025-06-04T19:50:13.467370
12825,-0.2835,0.8608,0.3992,-1.715,-5.635,-4.165,373.00,415,410,429,390,2025-06-04T19:50:13.467370
12826,-0.2645,0.8584,0.3943,-2.905,-7.105,-4.270,400.00,414,424,415,374,2025-06-04T19:50:13.468386
12827,-0.2684,0.8423,0.3645,-2.415,-7.805,-4.480,411.00,413,417,419,373,2025-06-04T19:50:13.558970
12828,-0.2596,0.8477,0.3645,-1.890,-7.245,-4.900,408.00,414,402,373,375,2025-06-04T19:50:13.558970
12829,-0.2303,0.8520,0.3797,-1.750,-3.255,-5.355,410.00,421,415,402,387,2025-06-04T19:50:13.558970
12830,-0.2289,0.8428,0.3943,-0.840,-2.065,-5.565,395.00,411,420,429,391,2025-06-04T19:50:13.558970
12831,-0.2606,0.8496,0.3933,-2.030,-1.365,-5.740,396.00,384,311,426,398,2025-06-04T19:50:13.558970
12832,-0.2786,0.8608,0.4089,-0.490,-2.030,-5.810,406.00,395,415,426,396,2025-06-04T19:50:13.558970
12833,-0.2908,0.8574,0.3928,-0.315,-3.255,-5.565,404.00,378,306,420,387,2025-06-04T19:50:13.558970
12834,-0.3162,0.8677,0.3938,-0.350,-4.935,-5.880,388.00,399,394,370,394,2025-06-04T19:50:13.558970
12835,-0.2811,0.8633,0.3919,0.910,-4.795,-5.705,408.00,377,338,360,388,2025-06-04T19:50:13.673280
12836,-0.2699,0.8638,0.3919,0.350,-3.780,-5.250,361.00,387,330,371,393,2025-06-04T19:50:13.673280
12837,-0.2796,0.8603,0.3870,-0.245,-2.730,-5.110,386.00,404,385,410,355,2025-06-04T19:50:13.673280
12838,-0.2821,0.8633,0.3899,-0.385,-2.520,-4.970,396.00,385,419,426,378,2025-06-04T19:50:13.673280
12839,-0.2982,0.8579,0.3855,-0.700,-3.640,-4.725,401.00,393,431,353,375,2025-06-04T19:50:13.673280
12840,-0.3094,0.8574,0.3841,-1.120,-4.865,-4.445,354.00,401,401,402,384,2025-06-04T19:50:13.673280
12841,-0.2996,0.8545,0.3836,-0.945,-5.600,-4.095,393.00,395,416,428,391,2025-06-04T19:50:13.673280
12842,-0.2879,0.8579,0.3806,-1.400,-4.445,-3.570,405.00,407,402,405,386,2025-06-04T19:50:13.674285
12843,-0.2879,0.8599,0.3806,-1.470,-2.450,-3.465,359.00,401,392,349,380,2025-06-04T19:50:13.719997
12844,-0.2889,0.8608,0.3821,-1.575,-0.770,-3.535,305.00,401,413,412,375,2025-06-04T19:50:13.719997
12845,-0.3011,0.8545,0.3845,-1.330,-1.190,-2.695,354.00,416,431,423,366,2025-06-04T19:50:13.719997
12846,-0.3226,0.8584,0.3919,-1.295,-3.010,-2.275,381.00,409,424,411,332,2025-06-04T19:50:13.719997
12847,-0.3216,0.8467,0.3948,-1.015,-4.830,-1.750,348.00,420,406,415,322,2025-06-04T19:50:13.980932
12848,-0.3240,0.8550,0.3850,0.035,-7.245,-0.840,389.00,418,351,409,362,2025-06-04T19:50:13.980932
12849,-0.3177,0.8520,0.3836,-0.700,-8.645,-0.385,398.00,423,400,374,369,2025-06-04T19:50:13.980932
12850,-0.3074,0.8520,0.3826,-0.315,-9.100,-0.385,385.00,387,412,416,376,2025-06-04T19:50:13.981994
12851,-0.2923,0.8472,0.3777,0.070,-7.700,-0.280,395.00,404,358,399,384,2025-06-04T19:50:13.981994
12852,-0.2806,0.8472,0.3806,0.385,-6.265,-0.140,404.00,416,409,402,349,2025-06-04T19:50:13.981994
12853,-0.2840,0.8428,0.3748,0.140,-5.880,-0.105,402.00,413,396,403,371,2025-06-04T19:50:13.981994
12854,-0.2923,0.8413,0.3728,0.420,-6.930,-0.980,422.00,412,408,389,375,2025-06-04T19:50:13.981994
12855,-0.2884,0.8350,0.3645,-0.140,-8.785,-2.485,397.00,405,398,403,381,2025-06-04T19:50:13.981994
12856,-0.2948,0.8286,0.3523,-0.560,-12.110,-3.570,391.00,401,411,403,381,2025-06-04T19:50:13.981994
12857,-0.3094,0.8340,0.3499,-0.980,-17.115,-5.180,407.00,405,419,424,385,2025-06-04T19:50:13.981994
12858,-0.3113,0.8467,0.3518,-1.785,-22.610,-7.630,405.00,403,428,406,393,2025-06-04T19:50:13.981994
12859,-0.3157,0.8584,0.3572,-3.710,-28.840,-10.290,410.00,410,437,347,390,2025-06-04T19:50:13.981994
12860,-0.2869,0.8750,0.3518,-7.070,-33.110,-13.720,361.00,415,404,352,400,2025-06-04T19:50:14.110123
12861,-0.2694,0.8891,0.3475,-10.535,-34.300,-18.375,364.00,407,420,387,391,2025-06-04T19:50:14.110123
12862,-0.2401,0.9170,0.3577,-13.720,-33.775,-24.535,392.00,354,424,393,384,2025-06-04T19:50:14.110123
12863,-0.1835,0.9414,0.3684,-17.570,-31.360,-30.765,400.00,345,413,409,387,2025-06-04T19:50:14.110123
12864,-0.1191,0.9858,0.3772,-21.735,-25.585,-37.135,406.00,372,374,418,386,2025-06-04T19:50:14.110123
12865,-0.0303,1.0604,0.3831,-26.110,-15.540,-42.140,361.00,388,405,395,390,2025-06-04T19:50:14.110123
12866,0.0239,1.2019,0.3919,-31.150,-6.230,-43.295,392.00,403,395,387,376,2025-06-04T19:50:14.110123
12867,0.0000,1.3791,0.3884,-35.945,-7.770,-39.690,382.00,373,402,430,374,2025-06-04T19:50:14.110123
12868,-0.0337,1.5845,0.3611,-40.005,-27.020,-31.325,394.00,397,403,400,386,2025-06-04T19:50:14.113054
12869,-0.0464,1.8368,0.2996,-47.880,-62.265,-17.990,383.00,392,422,420,341,2025-06-04T19:50:14.113054
12870,0.1049,2.0964,0.1606,-55.370,-99.925,-2.345,403.00,402,433,432,321,2025-06-04T19:50:14.113054
12871,0.3787,2.3951,-0.0673,-64.190,-118.440,12.600,402.00,381,423,407,350,2025-06-04T19:50:14.113054
12872,0.5251,2.6450,-0.3616,-73.220,-117.110,24.290,401.00,387,423,403,371,2025-06-04T19:50:14.113054
12873,0.6437,2.8636,-0.6759,-77.700,-98.875,28.735,393.00,397,423,404,353,2025-06-04T19:50:14.113054
12874,0.6071,3.0559,-0.9267,-92.505,-68.705,26.320,388.00,371,398,410,368,2025-06-04T19:50:14.113054
12875,0.4172,3.0754,-1.2815,-109.515,-57.505,13.370,347.00,384,437,401,382,2025-06-04T19:50:14.113054
12876,0.0937,2.9514,-1.4874,-137.445,-80.360,-7.070,387.00,387,417,427,386,2025-06-04T19:50:14.113054
12877,-0.1435,2.8011,-1.2971,-202.755,-132.125,-42.840,303.00,399,348,405,374,2025-06-04T19:50:14.114050
12878,-0.4216,2.3536,-1.3293,-269.325,-200.795,-84.980,374.00,409,379,411,381,2025-06-04T19:50:14.160257
12879,-0.4973,1.5548,-1.2673,-362.670,-266.070,-134.575,382.00,384,414,409,370,2025-06-04T19:50:14.161304
12880,-0.4582,0.5597,-1.0824,-457.590,-305.585,-168.665,362.00,395,345,407,377,2025-06-04T19:50:14.161304
12881,-0.1942,-0.8847,-0.2908,-536.060,-325.675,-171.745,398.00,409,400,358,375,2025-06-04T19:50:14.161304
12882,-0.5846,-2.5376,0.5573,-643.615,-283.255,-191.380,404.00,415,418,431,394,2025-06-04T19:50:14.161304
12883,-0.6871,-5.2533,1.1405,-562.905,-282.170,-245.175,424.00,382,438,430,393,2025-06-04T19:50:14.207132
12884,-1.2503,-6.4148,0.6861,-538.510,-254.345,-248.675,396.00,401,412,369,394,2025-06-04T19:50:14.207132
12885,-0.9057,-5.6789,0.4363,-384.685,-382.445,-204.190,414.00,407,425,413,395,2025-06-04T19:50:14.207132
12886,0.5168,-3.7117,-0.1054,-140.700,-420.665,-127.855,376.00,394,449,443,414,2025-06-04T19:50:14.207132
12887,2.9836,-2.9612,0.0239,-19.285,-202.230,-15.120,336.00,365,417,400,394,2025-06-04T19:50:14.410212
12888,3.8816,-2.5381,0.3928,129.990,82.250,128.905,404.00,393,435,415,400,2025-06-04T19:50:14.410212
12889,1.7026,-1.8573,0.6261,220.430,325.430,162.645,361.00,393,453,439,411,2025-06-04T19:50:14.410212
12890,-0.0449,-1.5435,0.8613,247.905,356.930,155.470,365.00,396,433,401,352,2025-06-04T19:50:14.410212
12891,-0.5988,-1.5684,0.8916,292.110,219.310,164.325,364.00,414,324,414,387,2025-06-04T19:50:14.410212
12892,-0.6876,-1.3591,0.9072,241.710,30.765,156.695,374.00,413,396,388,389,2025-06-04T19:50:14.410212
12893,-0.2489,-1.1941,0.9277,233.870,-59.570,143.045,344.00,420,420,403,374,2025-06-04T19:50:14.410212
12894,0.4031,-0.7437,0.9248,207.200,-62.370,121.135,402.00,386,421,433,390,2025-06-04T19:50:14.410212
12895,0.6588,-0.3152,1.0263,227.815,11.690,100.590,357.00,363,418,411,375,2025-06-04T19:50:14.410212
12896,0.7247,-0.1937,1.0785,207.620,94.465,90.825,399.00,378,381,407,381,2025-06-04T19:50:14.533954
12897,0.5134,-0.0493,1.0795,193.235,151.865,88.375,410.00,398,407,430,386,2025-06-04T19:50:14.533954
12898,0.2884,0.1176,0.9775,177.240,184.590,85.820,408.00,399,425,408,379,2025-06-04T19:50:14.533954
12899,-0.1264,0.2469,0.9272,166.985,209.335,72.870,409.00,401,402,431,385,2025-06-04T19:50:14.533954
12900,-0.4270,0.4343,0.8545,168.665,211.610,48.265,396.00,404,413,426,405,2025-06-04T19:50:14.533954
12901,-0.5680,0.5622,0.8179,180.390,192.185,22.400,403.00,409,392,407,406,2025-06-04T19:50:14.533954
12902,-0.6622,0.7896,0.7623,186.900,153.195,20.895,404.00,406,435,412,372,2025-06-04T19:50:14.533954
12903,-0.6222,0.9414,0.7730,192.220,115.640,7.210,367.00,408,436,422,344,2025-06-04T19:50:14.533954
12904,-0.5261,1.1078,0.7213,190.260,88.410,-3.990,394.00,419,428,420,377,2025-06-04T19:50:14.533954
12905,-0.3216,1.1985,0.5275,184.660,63.245,-4.935,399.00,385,350,404,337,2025-06-04T19:50:14.533954
12906,-0.2235,1.2927,0.3728,183.470,50.540,-2.170,409.00,393,405,408,332,2025-06-04T19:50:14.533954
12907,-0.3143,1.3186,0.2440,179.130,47.145,-5.075,317.00,404,410,425,362,2025-06-04T19:50:14.533954
12908,-0.3382,1.3386,0.1684,176.995,39.305,-14.805,321.00,405,397,349,365,2025-06-04T19:50:14.535017
12909,-0.3113,1.4020,0.1444,161.805,29.575,-20.160,363.00,396,420,419,375,2025-06-04T19:50:14.535017
12910,-0.1825,1.3664,0.0644,142.275,13.720,-17.570,392.00,402,362,401,385,2025-06-04T19:50:14.535017
12911,-0.1464,1.3937,0.0205,126.490,-4.235,-12.110,389.00,397,414,411,382,2025-06-04T19:50:14.535017
12912,-0.0913,1.3581,-0.0488,110.670,-15.260,-7.175,361.00,404,362,424,384,2025-06-04T19:50:14.535017
12913,-0.0551,1.3742,-0.0268,98.700,-15.995,-10.360,377.00,397,412,409,344,2025-06-04T19:50:14.612038
12914,0.0610,1.3308,-0.0317,87.045,-8.085,-12.775,346.00,375,340,424,330,2025-06-04T19:50:14.612038
12915,0.1488,1.3093,-0.0073,78.470,4.235,-11.060,370.00,401,401,424,358,2025-06-04T19:50:14.612038
12916,0.1171,1.2673,0.0102,70.455,19.495,-12.600,382.00,418,424,348,327,2025-06-04T19:50:14.612038
12917,0.0976,1.2273,0.0342,63.350,32.795,-14.945,394.00,412,404,397,357,2025-06-04T19:50:14.896201
12918,0.1000,1.1868,0.0478,57.575,42.035,-13.860,382.00,416,354,425,362,2025-06-04T19:50:14.896634
12919,0.0600,1.1531,0.0659,52.150,47.775,-12.425,382.00,409,406,432,340,2025-06-04T19:50:14.896634
12920,-0.0054,1.1385,0.1127,47.250,51.065,-11.130,360.00,419,411,413,367,2025-06-04T19:50:14.896634
12921,-0.0527,1.1165,0.1474,42.105,51.660,-10.640,388.00,422,430,347,378,2025-06-04T19:50:14.896634
12922,-0.0815,1.0892,0.1679,36.785,47.810,-8.575,383.00,420,350,354,371,2025-06-04T19:50:14.896634
12923,-0.1054,1.0804,0.1942,33.110,42.560,-5.250,392.00,425,403,390,384,2025-06-04T19:50:14.896634
12924,-0.1566,1.0453,0.2059,27.510,36.750,-3.115,411.00,419,418,425,383,2025-06-04T19:50:14.896634
12925,-0.1825,1.0155,0.1996,23.520,30.030,-0.945,394.00,418,418,410,383,2025-06-04T19:50:14.896634
12926,-0.1737,0.9862,0.2069,20.895,22.365,2.625,339.00,416,418,423,388,2025-06-04T19:50:14.896634
12927,-0.2259,0.9872,0.2455,18.200,18.620,3.115,362.00,415,435,398,391,2025-06-04T19:50:14.896634
12928,-0.2450,0.9877,0.2786,15.260,18.165,0.350,387.00,420,433,397,376,2025-06-04T19:50:14.896634
12929,-0.2391,0.9823,0.2977,12.880,19.775,-2.240,379.00,417,417,400,373,2025-06-04T19:50:14.896634
12930,-0.2108,0.9540,0.2928,9.310,23.835,-2.835,388.00,412,383,414,382,2025-06-04T19:50:14.896634
12931,-0.2420,0.9155,0.2728,7.455,28.455,-2.100,404.00,416,357,404,390,2025-06-04T19:50:14.896634
12932,-0.2572,0.8989,0.2796,7.560,30.240,0.700,397.00,413,408,413,387,2025-06-04T19:50:14.896634
12933,-0.3304,0.9082,0.3128,6.265,29.540,1.855,403.00,411,422,418,384,2025-06-04T19:50:14.896634
12934,-0.3772,0.9184,0.3426,4.480,27.020,2.275,359.00,415,434,401,385,2025-06-04T19:50:14.896634
12935,-0.4099,0.9135,0.3587,2.275,22.575,2.730,382.00,392,431,342,380,2025-06-04T19:50:14.896634
12936,-0.4114,0.9067,0.3577,0.770,17.115,4.025,390.00,410,428,417,384,2025-06-04T19:50:15.030432
12937,-0.4002,0.8940,0.3484,-0.560,12.915,5.950,359.00,405,429,392,381,2025-06-04T19:50:15.030432
12938,-0.3855,0.8852,0.3401,-0.630,11.445,7.280,381.00,399,413,408,339,2025-06-04T19:50:15.030432
12939,-0.3875,0.8813,0.3455,-0.700,12.005,7.490,389.00,400,354,375,359,2025-06-04T19:50:15.030432
12940,-0.3802,0.8711,0.3509,-1.050,12.040,8.295,376.00,412,385,391,366,2025-06-04T19:50:15.030432
12941,-0.3855,0.8696,0.3636,-1.715,10.500,8.960,379.00,403,401,410,376,2025-06-04T19:50:15.030432
12942,-0.3977,0.8603,0.3626,-3.185,10.045,8.470,396.00,414,419,423,381,2025-06-04T19:50:15.030432
12943,-0.3660,0.8525,0.3489,-3.255,9.940,9.590,400.00,417,352,407,388,2025-06-04T19:50:15.260007
12944,-0.3728,0.8516,0.3572,-3.955,10.815,9.520,408.00,420,296,416,360,2025-06-04T19:50:15.546558
12945,-0.3792,0.8511,0.3577,-4.480,11.410,8.435,408.00,392,398,413,378,2025-06-04T19:50:15.801536
12946,-0.3806,0.8442,0.3558,-5.110,10.255,7.805,350.00,401,340,432,378,2025-06-04T19:50:15.951039
12947,-0.3792,0.8281,0.3348,-5.950,7.700,8.330,384.00,410,392,431,388,2025-06-04T19:50:15.951039
12948,-0.4275,0.8184,0.3470,-4.305,7.105,7.490,360.00,406,404,411,369,2025-06-04T19:50:15.951039
12949,-0.3845,0.8452,0.3231,0.140,7.245,6.615,389.00,406,397,409,374,2025-06-04T19:50:15.951039
12950,-0.3548,0.8311,0.3504,-4.130,7.595,5.565,395.00,408,350,415,366,2025-06-04T19:50:15.951039
12951,-0.3640,0.8374,0.3621,-6.195,7.140,5.180,348.00,412,413,428,383,2025-06-04T19:50:15.951039
12952,-0.3889,0.8203,0.3328,-6.895,7.000,4.060,365.00,414,361,428,376,2025-06-04T19:50:15.951039
12953,-0.4138,0.8145,0.3279,-6.160,5.110,1.925,394.00,407,388,437,369,2025-06-04T19:50:15.951039
12954,-0.3802,0.8130,0.3333,-6.650,3.360,1.540,392.00,408,370,410,375,2025-06-04T19:50:15.951039
12955,-0.3640,0.8072,0.3250,-6.020,1.575,2.695,378.00,381,398,432,374,2025-06-04T19:50:15.951039
12956,-0.3982,0.8208,0.3562,-5.530,0.700,1.925,392.00,397,423,409,382,2025-06-04T19:50:15.951039
12957,-0.4094,0.8154,0.3533,-6.020,-1.470,0.665,408.00,407,407,406,390,2025-06-04T19:50:15.951039
12958,-0.3933,0.8023,0.3392,-5.180,-5.635,0.455,413.00,411,348,298,343,2025-06-04T19:50:15.951039
12959,-0.3948,0.8154,0.3592,-4.060,-7.700,-0.805,409.00,399,410,383,367,2025-06-04T19:50:15.951039
12960,-0.3694,0.8174,0.3738,-3.430,-7.175,-1.785,391.00,403,424,428,386,2025-06-04T19:50:15.951039
12961,-0.3426,0.8125,0.3640,-3.605,-5.460,-1.820,395.00,411,401,402,346,2025-06-04T19:50:15.951039
12962,-0.3558,0.8052,0.3460,-2.975,-2.800,-2.380,356.00,408,419,391,325,2025-06-04T19:50:15.951039
12963,-0.3650,0.8164,0.3645,-1.645,-0.420,-3.010,366.00,387,428,350,328,2025-06-04T19:50:15.951039
12964,-0.4568,0.8345,0.3719,-4.340,-3.640,-3.010,406.00,405,428,394,353,2025-06-04T19:50:15.951039
12965,-0.4124,0.8247,0.3470,-2.415,-3.920,-3.605,386.00,403,406,418,375,2025-06-04T19:50:15.951039
12966,-0.3933,0.8247,0.3558,-2.485,-7.070,-3.185,382.00,413,429,344,339,2025-06-04T19:50:15.951039
12967,-0.3909,0.8379,0.3709,-2.800,-9.485,-3.535,393.00,414,432,334,372,2025-06-04T19:50:15.951039
12968,-0.3689,0.8355,0.3655,-2.310,-9.695,-4.130,363.00,417,434,389,381,2025-06-04T19:50:15.951039
12969,-0.3616,0.8340,0.3616,-1.890,-8.785,-4.515,392.00,419,355,409,386,2025-06-04T19:50:15.951039
12970,-0.3582,0.8345,0.3606,-1.925,-8.015,-4.760,391.00,421,407,407,387,2025-06-04T19:50:15.951039
12971,-0.3733,0.8350,0.3665,-1.750,-8.260,-5.040,400.00,424,429,408,393,2025-06-04T19:50:15.951039
12972,-0.3797,0.8350,0.3631,-1.890,-9.660,-5.250,350.00,394,435,410,381,2025-06-04T19:50:15.951039
12973,-0.3787,0.8325,0.3587,-1.400,-11.060,-5.250,370.00,380,375,394,389,2025-06-04T19:50:15.951039
12974,-0.3645,0.8398,0.3626,-1.400,-10.920,-5.215,375.00,399,409,424,397,2025-06-04T19:50:15.951039
12975,-0.3479,0.8384,0.3558,-1.295,-9.695,-4.585,339.00,408,427,425,397,2025-06-04T19:50:15.951039
12976,-0.3616,0.8374,0.3548,-1.575,-8.645,-4.060,384.00,420,350,353,398,2025-06-04T19:50:15.951039
12977,-0.3748,0.8398,0.3548,-1.645,-8.610,-4.130,367.00,417,411,404,397,2025-06-04T19:50:15.951039
12978,-0.3660,0.8418,0.3533,-1.400,-9.485,-3.745,385.00,411,405,391,399,2025-06-04T19:50:15.952036
12979,-0.3714,0.8428,0.3514,-1.470,-9.625,-3.815,400.00,355,421,427,393,2025-06-04T19:50:15.952036
12980,-0.3499,0.8398,0.3470,-1.295,-8.820,-3.535,394.00,384,402,416,377,2025-06-04T19:50:15.952036
12981,-0.3523,0.8428,0.3523,-1.190,-7.875,-3.115,383.00,389,417,407,370,2025-06-04T19:50:15.952036
12982,-0.3626,0.8467,0.3543,-1.610,-7.385,-3.010,402.00,407,410,346,332,2025-06-04T19:50:15.952036
12983,-0.3704,0.8438,0.3577,-1.925,-8.295,-2.590,365.00,402,429,386,366,2025-06-04T19:50:15.952036
12984,-0.3699,0.8320,0.3416,-1.785,-10.325,-1.575,380.00,403,410,409,373,2025-06-04T19:50:15.952036
12985,-0.3728,0.8316,0.3499,-0.980,-11.900,-1.120,383.00,398,435,391,382,2025-06-04T19:50:15.952036
12986,-0.3558,0.8413,0.3640,-1.050,-12.005,-1.120,404.00,414,412,299,389,2025-06-04T19:50:15.952036
12987,-0.3577,0.8359,0.3626,-1.085,-12.285,-1.190,353.00,412,396,399,387,2025-06-04T19:50:15.952036
12988,-0.3504,0.8355,0.3553,-1.050,-12.565,-1.295,374.00,423,425,423,387,2025-06-04T19:50:15.952036
12989,-0.3470,0.8364,0.3587,-1.365,-11.725,-1.645,383.00,411,415,407,387,2025-06-04T19:50:15.952036
12990,-0.3167,0.8286,0.3411,-1.085,-7.105,-2.660,400.00,389,424,366,394,2025-06-04T19:50:15.952036
12991,-0.3123,0.8281,0.3528,-1.225,-5.565,-1.995,415.00,403,418,343,386,2025-06-04T19:50:15.952036
12992,-0.3387,0.8359,0.3650,-1.190,-3.290,-2.065,358.00,403,401,390,390,2025-06-04T19:50:15.952036
12993,-0.3523,0.8252,0.3558,0.560,-2.625,-1.925,393.00,401,392,397,395,2025-06-04T19:50:15.952036
12994,-0.3797,0.8276,0.3558,0.210,-3.430,-1.645,402.00,407,418,398,399,2025-06-04T19:50:15.952036
12995,-0.3880,0.8281,0.3577,0.210,-6.825,-2.065,384.00,375,342,418,386,2025-06-04T19:50:15.952036
12996,-0.3782,0.8233,0.3558,0.035,-8.785,-2.065,380.00,388,408,395,371,2025-06-04T19:50:15.952036
12997,-0.3514,0.8296,0.3587,0.455,-8.890,-1.470,397.00,403,433,343,365,2025-06-04T19:50:15.952036
12998,-0.3626,0.8335,0.3611,0.070,-6.895,-1.750,402.00,417,407,384,304,2025-06-04T19:50:15.952036
12999,-0.3621,0.8291,0.3562,-0.035,-5.775,-2.030,356.00,422,439,393,342,2025-06-04T19:50:15.952036
13000,-0.3670,0.8218,0.3523,-0.385,-5.740,-1.645,384.00,418,423,397,347,2025-06-04T19:50:15.952036
13001,-0.3811,0.8257,0.3567,-0.210,-7.070,-1.470,391.00,416,362,369,370,2025-06-04T19:50:15.952036
13002,-0.3860,0.8276,0.3514,-0.070,-8.225,-2.135,397.00,409,384,377,366,2025-06-04T19:50:15.952036
13003,-0.3753,0.8330,0.3533,-0.105,-8.435,-2.450,395.00,409,390,400,336,2025-06-04T19:50:15.953032
13004,-0.3572,0.8374,0.3553,-0.350,-7.315,-2.380,346.00,408,418,424,353,2025-06-04T19:50:15.953032
13005,-0.3562,0.8345,0.3587,-0.980,-5.110,-2.135,377.00,418,413,420,336,2025-06-04T19:50:15.953032
13006,-0.3689,0.8345,0.3597,-1.190,-3.150,-2.485,397.00,420,400,310,324,2025-06-04T19:50:15.953032
13007,-0.3728,0.8369,0.3655,-1.260,-2.660,-2.380,396.00,414,386,383,358,2025-06-04T19:50:15.953032
13008,-0.3880,0.8316,0.3592,-0.980,-3.255,-2.170,408.00,424,363,393,372,2025-06-04T19:50:15.953032
13009,-0.3919,0.8316,0.3592,-0.770,-4.480,-2.100,410.00,418,389,420,349,2025-06-04T19:50:15.953032
13010,-0.3924,0.8345,0.3650,-0.805,-5.670,-1.995,407.00,412,415,422,327,2025-06-04T19:50:15.953032
13011,-0.3899,0.8350,0.3660,-0.665,-6.755,-2.100,384.00,423,401,387,344,2025-06-04T19:50:15.953032
13012,-0.3855,0.8272,0.3636,-0.700,-7.665,-1.750,380.00,417,395,418,354,2025-06-04T19:50:15.953032
13013,-0.3836,0.8306,0.3680,0.070,-8.190,-1.435,388.00,425,418,414,346,2025-06-04T19:50:15.953032
13014,-0.3914,0.8111,0.3689,0.350,-7.665,-1.610,354.00,415,399,418,372,2025-06-04T19:50:15.953032
13015,-0.3850,0.8267,0.3553,2.765,-9.730,-0.945,338.00,388,434,417,373,2025-06-04T19:50:15.953032
13016,-0.3831,0.8291,0.3650,0.315,-11.095,-0.560,365.00,403,409,413,387,2025-06-04T19:50:15.953032
13017,-0.3860,0.8296,0.3494,-0.805,-11.445,-1.155,380.00,402,427,416,344,2025-06-04T19:50:15.953032
13018,-0.3616,0.8198,0.3470,0.490,-9.660,-1.190,367.00,413,414,380,358,2025-06-04T19:50:15.953032
13019,-0.3626,0.8203,0.3548,-0.350,-7.875,-1.645,340.00,391,409,335,373,2025-06-04T19:50:15.953032
13020,-0.3509,0.8169,0.3597,-0.910,-5.460,-2.100,381.00,388,367,385,380,2025-06-04T19:50:16.050764
13021,-0.3416,0.8223,0.3548,-1.330,-2.800,-2.520,383.00,398,401,412,356,2025-06-04T19:50:16.050764
13022,-0.3636,0.8067,0.3611,-2.765,-4.690,-2.975,396.00,408,376,428,341,2025-06-04T19:50:16.050764
13023,-0.3787,0.8115,0.3587,-3.150,-5.950,-3.710,384.00,419,410,418,373,2025-06-04T19:50:16.050764
13024,-0.3806,0.8091,0.3558,-1.960,-7.560,-4.305,383.00,411,398,400,351,2025-06-04T19:50:16.050764
13025,-0.3836,0.8115,0.3533,-2.485,-9.065,-4.690,377.00,413,402,413,368,2025-06-04T19:50:16.050764
13026,-0.3723,0.8096,0.3548,-2.800,-8.925,-5.950,405.00,418,423,410,383,2025-06-04T19:50:16.050764
13027,-0.3714,0.8145,0.3675,-3.430,-7.455,-6.300,410.00,389,413,419,378,2025-06-04T19:50:16.050764
13028,-0.3636,0.8184,0.3616,-2.485,-5.530,-6.615,398.00,406,373,416,371,2025-06-04T19:50:16.050764
13029,-0.3680,0.8194,0.3689,-3.500,-4.550,-7.210,388.00,415,413,416,375,2025-06-04T19:50:16.050764
13030,-0.3631,0.8208,0.3655,-3.780,-2.730,-7.770,406.00,414,401,419,382,2025-06-04T19:50:16.050764
13031,-0.3684,0.8154,0.3670,-2.870,-2.485,-7.490,397.00,410,383,402,387,2025-06-04T19:50:16.050764
13032,-0.3870,0.8208,0.3699,-4.865,-2.800,-7.490,402.00,416,370,419,387,2025-06-04T19:50:16.050764
13033,-0.3982,0.8208,0.3758,-3.710,-2.625,-7.350,392.00,420,410,431,390,2025-06-04T19:50:16.050764
13034,-0.3982,0.8311,0.3626,-3.500,-2.695,-6.895,403.00,389,407,424,384,2025-06-04T19:50:16.050764
13035,-0.4046,0.8291,0.3704,-4.025,-4.200,-6.650,390.00,409,406,304,376,2025-06-04T19:50:16.050764
13036,-0.4172,0.8330,0.3655,-3.920,-4.795,-6.650,400.00,415,410,385,387,2025-06-04T19:50:16.259301
13037,-0.4075,0.8291,0.3680,-2.835,-5.775,-6.195,406.00,426,432,412,394,2025-06-04T19:50:16.259709
13038,-0.3958,0.8262,0.3758,-3.185,-7.105,-6.020,394.00,430,357,399,396,2025-06-04T19:50:16.259709
13039,-0.3909,0.8345,0.3762,-3.185,-7.805,-5.775,351.00,424,413,406,395,2025-06-04T19:50:16.259709
13040,-0.3889,0.8325,0.3680,-3.605,-7.385,-5.460,385.00,420,355,414,390,2025-06-04T19:50:16.259709
13041,-0.3924,0.8198,0.3597,-3.360,-6.965,-5.600,391.00,417,406,414,395,2025-06-04T19:50:16.259709
13042,-0.3909,0.8208,0.3670,-3.955,-6.475,-5.775,382.00,424,411,423,398,2025-06-04T19:50:16.259709
13043,-0.3972,0.8233,0.3694,-3.850,-6.475,-5.530,393.00,422,423,423,386,2025-06-04T19:50:16.259709
13044,-0.4158,0.8286,0.3660,-4.445,-7.385,-5.670,360.00,395,401,399,380,2025-06-04T19:50:16.259709
13045,-0.4094,0.8164,0.3719,-4.375,-8.260,-5.810,395.00,408,427,428,353,2025-06-04T19:50:16.259709
13046,-0.4099,0.8179,0.3645,-5.390,-8.645,-5.985,381.00,406,393,423,366,2025-06-04T19:50:16.259709
13047,-0.4021,0.8081,0.3748,-5.565,-8.295,-5.880,349.00,402,411,413,376,2025-06-04T19:50:16.259709
13048,-0.4002,0.8057,0.3733,-6.125,-8.085,-5.285,388.00,409,342,411,370,2025-06-04T19:50:16.259709
13049,-0.4109,0.7974,0.3684,-6.720,-8.575,-5.320,405.00,408,335,417,375,2025-06-04T19:50:16.259709
13050,-0.4143,0.7964,0.3665,-7.000,-8.330,-5.460,399.00,403,384,377,373,2025-06-04T19:50:16.259709
13051,-0.4085,0.7920,0.3675,-6.930,-8.365,-5.530,395.00,404,389,397,373,2025-06-04T19:50:16.259709
13052,-0.4163,0.7998,0.3723,-7.420,-8.785,-5.810,402.00,420,382,425,367,2025-06-04T19:50:16.259709
13053,-0.4246,0.7930,0.3841,-7.315,-10.570,-6.160,391.00,420,417,427,379,2025-06-04T19:50:16.436816
13054,-0.4324,0.7915,0.3841,-7.700,-12.740,-7.595,385.00,423,416,404,307,2025-06-04T19:50:16.436816
13055,-0.4221,0.7896,0.3841,-7.455,-15.540,-8.260,387.00,416,402,425,351,2025-06-04T19:50:16.436816
13056,-0.4182,0.7862,0.3860,-8.050,-17.080,-9.065,339.00,420,419,394,360,2025-06-04T19:50:16.436816
13057,-0.4002,0.7876,0.3841,-8.085,-17.780,-9.240,375.00,420,402,396,367,2025-06-04T19:50:16.436816
13058,-0.4006,0.7828,0.3865,-8.575,-17.185,-9.660,374.00,386,384,358,382,2025-06-04T19:50:16.436816
13059,-0.3943,0.7788,0.3821,-8.925,-15.015,-10.255,402.00,402,379,381,386,2025-06-04T19:50:16.436816
13060,-0.3875,0.7823,0.3889,-8.680,-12.145,-10.815,396.00,371,396,400,384,2025-06-04T19:50:16.436816
13061,-0.3904,0.7730,0.3865,-9.660,-8.330,-11.200,406.00,387,420,405,378,2025-06-04T19:50:16.436816
13062,-0.4011,0.7759,0.3875,-10.045,-5.250,-11.760,355.00,393,417,414,378,2025-06-04T19:50:16.436816
13063,-0.4070,0.7701,0.3836,-11.550,-1.960,-11.900,385.00,392,414,429,368,2025-06-04T19:50:16.436816
13064,-0.4128,0.7691,0.3850,-12.705,-0.350,-11.830,349.00,407,415,398,378,2025-06-04T19:50:16.436816
13065,-0.4363,0.7637,0.3792,-14.805,0.175,-12.005,385.00,416,407,426,384,2025-06-04T19:50:16.436816
13066,-0.4416,0.7569,0.3655,-16.485,-0.245,-12.740,399.00,415,403,420,355,2025-06-04T19:50:16.437880
13067,-0.4348,0.7510,0.3470,-19.705,0.735,-14.000,350.00,422,347,405,357,2025-06-04T19:50:16.437880
13068,-0.4197,0.7476,0.3338,-21.910,3.325,-14.980,377.00,410,399,396,333,2025-06-04T19:50:16.489425
13069,-0.4119,0.7452,0.3148,-25.970,7.910,-16.310,388.00,409,417,412,355,2025-06-04T19:50:16.490634
13070,-0.4050,0.7359,0.3133,-29.890,13.055,-18.235,385.00,412,307,342,382,2025-06-04T19:50:16.490634
13071,-0.4226,0.7330,0.3304,-36.085,17.255,-19.845,356.00,374,363,401,388,2025-06-04T19:50:16.490634
13072,-0.4494,0.7257,0.3265,-42.525,17.500,-21.525,376.00,364,386,377,384,2025-06-04T19:50:16.668113
13073,-0.4709,0.7120,0.3045,-48.510,14.560,-22.750,381.00,387,418,417,392,2025-06-04T19:50:16.668113
13074,-0.5022,0.6998,0.2879,-54.180,10.220,-24.990,393.00,400,428,374,399,2025-06-04T19:50:16.668113
13075,-0.5070,0.6969,0.2865,-60.235,6.195,-27.720,406.00,380,421,412,362,2025-06-04T19:50:16.668113
13076,-0.4895,0.6925,0.2996,-67.165,3.290,-29.435,395.00,389,418,396,378,2025-06-04T19:50:16.668113
13077,-0.4826,0.6925,0.3060,-74.690,0.770,-30.555,408.00,402,431,400,375,2025-06-04T19:50:16.668113
13078,-0.4812,0.6886,0.3084,-82.180,0.245,-32.060,399.00,400,442,429,382,2025-06-04T19:50:16.668113
13079,-0.4914,0.6769,0.3084,-89.425,1.715,-33.985,407.00,406,433,415,379,2025-06-04T19:50:16.668113
13080,-0.4880,0.6583,0.3284,-95.935,2.625,-34.510,395.00,413,424,364,307,2025-06-04T19:50:16.668113
13081,-0.4807,0.6534,0.3875,-103.425,1.120,-33.460,388.00,420,430,396,357,2025-06-04T19:50:16.668113
13082,-0.5192,0.6451,0.4231,-109.620,-5.460,-30.940,400.00,389,408,404,378,2025-06-04T19:50:16.668113
13083,-0.5363,0.6359,0.4324,-115.850,-15.995,-28.595,398.00,374,417,388,357,2025-06-04T19:50:16.669112
13084,-0.5568,0.6227,0.4407,-121.695,-26.285,-26.740,400.00,359,397,398,381,2025-06-04T19:50:16.669112
13085,-0.5675,0.6105,0.4587,-125.825,-34.685,-25.970,388.00,388,431,423,368,2025-06-04T19:50:16.669112
13086,-0.5148,0.6012,0.5036,-128.590,-39.095,-23.940,392.00,401,417,401,363,2025-06-04T19:50:16.874000
13087,-0.4992,0.5856,0.5807,-132.825,-42.315,-19.460,401.00,406,426,424,340,2025-06-04T19:50:16.874000
13088,-0.4773,0.5773,0.6300,-135.940,-47.075,-13.125,356.00,379,426,408,319,2025-06-04T19:50:16.874000
13089,-0.5207,0.5617,0.6725,-138.600,-53.025,-6.650,370.00,396,361,408,320,2025-06-04T19:50:16.874000
13090,-0.5768,0.5412,0.6881,-140.910,-62.300,-0.595,389.00,403,408,424,350,2025-06-04T19:50:16.874000
13091,-0.5783,0.5148,0.6930,-140.560,-71.750,4.585,409.00,407,419,423,367,2025-06-04T19:50:16.874000
13092,-0.5636,0.4880,0.7169,-139.580,-79.765,10.815,382.00,421,415,399,377,2025-06-04T19:50:16.874000
13093,-0.5231,0.4699,0.7540,-137.830,-87.115,18.795,396.00,386,401,414,388,2025-06-04T19:50:16.874000
13094,-0.5129,0.4665,0.8086,-136.115,-91.735,25.165,367.00,402,388,383,385,2025-06-04T19:50:16.874000
13095,-0.4826,0.4416,0.8623,-133.105,-93.800,31.360,374.00,371,407,413,372,2025-06-04T19:50:16.874000
13096,-0.4953,0.4172,0.8926,-130.270,-97.300,37.660,343.00,396,384,423,371,2025-06-04T19:50:17.186365
13097,-0.4890,0.3787,0.8945,-127.715,-103.985,44.555,387.00,404,403,411,371,2025-06-04T19:50:17.186365
13098,-0.5217,0.3416,0.8974,-124.775,-114.030,52.640,392.00,383,398,381,364,2025-06-04T19:50:17.186365
13099,-0.5046,0.2855,0.9174,-120.190,-125.160,60.830,346.00,406,421,334,304,2025-06-04T19:50:17.186365
13100,-0.4690,0.2796,0.9311,-116.900,-134.365,66.955,330.00,411,410,329,337,2025-06-04T19:50:17.186365
13101,-0.4075,0.2572,0.9516,-112.595,-137.970,72.240,375.00,414,428,397,354,2025-06-04T19:50:17.186365
13102,-0.3601,0.2386,0.9599,-109.095,-137.235,77.315,383.00,412,419,400,376,2025-06-04T19:50:17.186365
13103,-0.2572,0.1893,0.9740,-103.425,-131.250,82.565,353.00,407,423,417,374,2025-06-04T19:50:17.186365
13104,-0.1649,0.1410,1.0253,-98.000,-117.705,87.290,391.00,403,402,407,373,2025-06-04T19:50:17.186365
13105,-0.1166,0.1142,1.0497,-92.785,-98.805,90.965,397.00,398,379,390,388,2025-06-04T19:50:17.186365
13106,-0.0669,0.0971,1.0272,-85.470,-76.580,92.995,364.00,376,419,399,378,2025-06-04T19:50:17.186365
13107,-0.0405,0.0410,1.0063,-79.520,-55.055,93.695,337.00,395,410,423,389,2025-06-04T19:50:17.186365
13108,-0.0498,0.0517,1.0258,-72.310,-34.090,94.815,372.00,376,405,426,384,2025-06-04T19:50:17.186365
13109,-0.0922,0.0102,1.0399,-65.835,-19.915,95.270,384.00,386,411,428,379,2025-06-04T19:50:17.186365
13110,-0.1581,0.0034,1.1009,-60.165,-12.355,96.040,377.00,392,400,413,386,2025-06-04T19:50:17.186365
13111,-0.1801,0.0015,1.1141,-54.985,-8.995,95.725,380.00,377,406,348,384,2025-06-04T19:50:17.186365
13112,-0.1674,-0.0093,1.1126,-49.070,-8.260,94.570,397.00,386,416,342,386,2025-06-04T19:50:17.186365
13113,-0.0771,-0.0844,1.1297,-37.415,-1.575,90.475,402.00,401,423,405,392,2025-06-04T19:50:17.186365
13114,0.2923,-0.0029,1.1522,-28.000,35.070,75.075,387.00,395,424,419,395,2025-06-04T19:50:17.186365
13115,0.3470,-0.0839,1.1326,-22.155,76.580,59.185,344.00,379,425,418,399,2025-06-04T19:50:17.186365
13116,0.1679,-0.0717,1.1653,-11.795,85.400,46.165,362.00,397,420,417,393,2025-06-04T19:50:17.186365
13117,-0.0625,-0.0532,1.2073,-7.105,71.120,35.035,386.00,411,406,379,387,2025-06-04T19:50:17.186365
13118,-0.2460,-0.0610,1.2522,-1.995,37.345,22.995,373.00,418,351,387,384,2025-06-04T19:50:17.186365
13119,-0.5836,-0.4055,1.0570,-30.940,-33.005,18.200,297.00,405,414,420,387,2025-06-04T19:50:17.186365
13120,-0.2708,0.2338,1.2200,14.910,-57.960,10.745,350.00,421,411,430,361,2025-06-04T19:50:17.278202
13121,0.0127,-0.3133,1.0370,-11.200,-29.435,-17.395,378.00,417,409,407,363,2025-06-04T19:50:17.278202
13122,0.2089,-0.1791,0.4768,-30.590,39.550,-7.245,385.00,423,416,347,361,2025-06-04T19:50:17.278202
13123,-0.1718,0.0146,1.0131,2.765,37.590,1.610,384.00,416,413,382,373,2025-06-04T19:50:17.278202
13124,0.0683,-0.0215,1.1683,0.245,54.390,2.800,379.00,411,410,419,375,2025-06-04T19:50:17.278202
13125,-0.3909,-0.0351,1.1800,-14.945,51.520,0.980,391.00,405,347,417,371,2025-06-04T19:50:17.278202
13126,-0.3494,-0.0190,1.1326,-5.425,20.860,2.100,395.00,398,388,354,372,2025-06-04T19:50:17.278202
13127,-0.2503,-0.0210,1.0024,-12.845,23.205,1.400,345.00,405,334,390,350,2025-06-04T19:50:17.278202
13128,-0.1537,0.0400,0.9331,-12.005,38.255,2.905,379.00,412,397,423,358,2025-06-04T19:50:17.278202
13129,-0.1322,0.1230,0.9418,-6.265,49.525,8.575,404.00,387,423,411,374,2025-06-04T19:50:17.278202
13130,-0.1562,0.1713,1.0106,-11.760,60.060,15.015,375.00,402,430,401,375,2025-06-04T19:50:17.278202
13131,-0.1381,0.1435,1.0453,-15.015,56.630,13.160,391.00,412,438,405,369,2025-06-04T19:50:17.278202
13132,-0.1737,0.0913,1.0555,-22.190,56.245,13.440,391.00,406,377,396,336,2025-06-04T19:50:17.278202
13133,-0.1918,0.0498,1.0863,-22.470,49.350,11.340,347.00,401,397,417,363,2025-06-04T19:50:17.278957
13134,-0.2162,0.0712,1.0970,-26.985,41.440,11.305,381.00,411,397,347,372,2025-06-04T19:50:17.278957
13135,-0.2591,0.0634,1.0673,-33.565,27.720,11.515,303.00,407,391,397,380,2025-06-04T19:50:17.278957
13136,-0.2943,0.0630,1.0370,-40.005,17.570,13.230,377.00,403,402,398,392,2025-06-04T19:50:17.382541
13137,-0.3270,0.0166,1.0521,-39.830,10.955,14.665,387.00,401,431,416,354,2025-06-04T19:50:17.382541
13138,-0.2972,0.0303,1.0365,-37.275,6.405,16.870,386.00,411,429,412,296,2025-06-04T19:50:17.382541
13139,-0.3357,0.0273,1.0575,-43.330,0.735,18.235,342.00,420,405,402,337,2025-06-04T19:50:17.382541
13140,-0.3636,-0.0224,1.0507,-43.260,-5.355,17.955,377.00,419,405,422,363,2025-06-04T19:50:17.382541
13141,-0.3821,-0.0185,1.0590,-42.875,-9.205,16.380,384.00,431,403,421,381,2025-06-04T19:50:17.382541
13142,-0.3138,-0.0151,1.0638,-41.860,-13.370,16.380,343.00,418,401,415,372,2025-06-04T19:50:17.383565
13143,-0.3006,0.0063,1.0268,-46.865,-13.510,15.925,387.00,418,418,404,392,2025-06-04T19:50:17.383565
13144,-0.2899,0.0176,1.0209,-53.410,-15.995,15.680,391.00,416,433,405,394,2025-06-04T19:50:17.465388
13145,-0.2542,0.0669,1.0126,-47.495,-16.205,16.800,398.00,422,354,421,379,2025-06-04T19:50:17.465388
13146,-0.2352,-0.0249,0.9906,-55.300,-14.070,18.060,383.00,414,342,424,387,2025-06-04T19:50:17.465388
13147,-0.2381,-0.0093,1.0414,-56.490,-13.545,19.530,384.00,391,404,432,380,2025-06-04T19:50:17.465388
13148,-0.2664,0.0024,0.9877,-59.675,-10.045,20.160,351.00,405,391,417,382,2025-06-04T19:50:17.465388
13149,-0.1869,0.0649,0.9492,-59.780,-4.865,22.925,387.00,411,427,421,384,2025-06-04T19:50:17.465388
13150,-0.3123,-0.0971,0.9277,-69.090,2.380,24.605,391.00,405,400,429,371,2025-06-04T19:50:17.465388
13151,-0.2679,0.0283,1.0170,-67.515,2.310,27.755,394.00,376,393,346,384,2025-06-04T19:50:17.517706
13152,-0.2616,0.0044,1.0106,-73.780,5.670,29.855,390.00,365,415,415,387,2025-06-04T19:50:17.517706
13153,-0.2460,-0.0307,0.9496,-72.030,2.905,33.705,375.00,388,309,422,399,2025-06-04T19:50:17.517706
13154,-0.2850,-0.1542,0.9096,-70.280,9.205,30.660,337.00,405,388,375,399,2025-06-04T19:50:17.517706
13155,-0.3050,-0.2284,0.9209,-66.850,13.405,29.645,359.00,412,355,408,402,2025-06-04T19:50:17.757888
13156,-0.3211,-0.2318,0.8760,-61.215,13.300,29.680,383.00,418,344,401,395,2025-06-04T19:50:17.757888
13157,-0.3841,-0.2264,0.8950,-56.805,13.895,26.845,385.00,418,420,441,404,2025-06-04T19:50:17.757888
13158,-0.3660,-0.2938,0.8525,-49.140,11.865,22.890,351.00,415,411,429,396,2025-06-04T19:50:17.757888
13159,-0.4255,-0.2518,0.8901,-45.955,5.740,19.740,341.00,406,365,416,363,2025-06-04T19:50:17.757888
13160,-0.4041,-0.2552,0.9243,-38.990,-0.315,15.820,378.00,413,415,421,386,2025-06-04T19:50:17.757888
13161,-0.3821,-0.2142,0.9950,-37.310,-7.245,12.530,396.00,423,414,353,343,2025-06-04T19:50:17.757888
13162,-0.3401,-0.1928,1.0219,-35.735,-12.250,10.500,389.00,421,408,350,380,2025-06-04T19:50:17.757888
13163,-0.3094,-0.2045,1.0199,-34.055,-17.745,8.995,383.00,424,382,415,390,2025-06-04T19:50:17.757888
13164,-0.2694,-0.2103,0.9955,-33.880,-20.020,10.150,410.00,393,420,407,390,2025-06-04T19:50:17.757888
13165,-0.2899,-0.2269,1.0092,-32.830,-19.775,12.145,368.00,374,437,436,372,2025-06-04T19:50:17.757888
13166,-0.2840,-0.1723,0.9389,-29.120,-18.130,12.880,382.00,367,405,420,376,2025-06-04T19:50:17.757888
13167,-0.3177,-0.1191,0.9189,-24.500,-17.535,12.985,418.00,368,435,421,350,2025-06-04T19:50:17.757888
13168,-0.3133,-0.1815,0.9096,-25.095,-20.440,14.315,420.00,395,439,405,380,2025-06-04T19:50:17.757888
13169,-0.3362,-0.1293,0.9262,-18.305,-13.230,14.490,420.00,373,355,400,357,2025-06-04T19:50:17.941088
13170,-0.3426,-0.1376,0.9028,-13.405,-11.830,12.950,425.00,406,363,429,384,2025-06-04T19:50:17.941088
13171,-0.3172,-0.1342,0.8911,-11.550,-5.215,12.985,371.00,408,402,359,385,2025-06-04T19:50:17.941088
13172,-0.3045,-0.1610,0.8794,-4.935,4.270,11.585,405.00,425,401,406,383,2025-06-04T19:50:17.941088
13173,-0.2918,-0.2484,0.8740,2.485,7.455,14.070,403.00,430,411,419,399,2025-06-04T19:50:17.941088
13174,-0.2743,-0.2274,0.8804,6.055,13.510,16.660,401.00,429,429,436,401,2025-06-04T19:50:17.941088
13175,-0.2840,-0.2386,0.8774,9.555,14.175,19.215,364.00,434,453,431,390,2025-06-04T19:50:17.941088
13176,-0.3640,-0.2601,0.9194,8.330,9.905,18.935,377.00,427,440,446,391,2025-06-04T19:50:17.941088
13177,-0.4046,-0.3650,0.9584,8.610,-2.030,15.225,396.00,428,407,421,396,2025-06-04T19:50:17.941088
13178,-0.4363,-0.3616,0.9853,7.455,-12.215,9.975,416.00,402,433,444,410,2025-06-04T19:50:17.941088
13179,-0.3982,-0.3250,0.9989,6.125,-14.560,7.000,414.00,411,436,382,367,2025-06-04T19:50:17.941088
13180,-0.3884,-0.2772,1.0126,1.995,-17.990,5.285,404.00,400,456,389,376,2025-06-04T19:50:17.941088
13181,-0.3831,-0.2713,0.9989,0.560,-24.990,1.470,407.00,410,424,391,385,2025-06-04T19:50:17.941088
13182,-0.3060,-0.2801,1.0141,-0.595,-32.270,2.415,402.00,408,409,424,395,2025-06-04T19:50:17.941088
13183,-0.2840,-0.1972,1.0204,-2.940,-32.655,2.450,393.00,418,446,385,403,2025-06-04T19:50:17.941088
13184,-0.2469,-0.1703,0.9936,-6.020,-34.300,6.405,382.00,420,431,438,398,2025-06-04T19:50:17.941088
13185,-0.2357,-0.1601,0.9623,-8.855,-26.600,10.570,400.00,429,436,452,400,2025-06-04T19:50:17.941088
13186,-0.3177,-0.1322,0.9135,-7.560,-20.965,12.740,418.00,425,436,454,400,2025-06-04T19:50:17.941088
13187,-0.3196,-0.2006,0.8501,-4.620,-20.370,15.540,362.00,427,454,416,401,2025-06-04T19:50:17.941088
13188,-0.3192,-0.1679,0.8496,1.925,-18.760,19.530,381.00,428,454,422,404,2025-06-04T19:50:18.104520
13189,-0.2298,-0.0547,0.8350,-0.070,-10.360,22.225,397.00,411,423,407,395,2025-06-04T19:50:18.104579
13190,-0.3006,-0.1898,0.8467,-6.755,-3.990,21.980,398.00,421,398,421,392,2025-06-04T19:50:18.104579
13191,-0.4041,-0.3094,0.9213,11.060,-16.625,17.255,358.00,415,424,409,398,2025-06-04T19:50:18.104579
13192,-0.3762,-0.3406,1.0189,1.330,-2.415,14.315,375.00,407,396,425,387,2025-06-04T19:50:18.104579
13193,-0.4978,-0.3152,1.0487,-0.175,-5.285,6.650,383.00,413,404,404,390,2025-06-04T19:50:18.104579
13194,-0.4841,-0.3192,1.0785,-2.450,-15.435,-1.225,382.00,413,411,400,383,2025-06-04T19:50:18.104579
13195,-0.3972,-0.3479,1.0448,-6.160,-16.590,-7.455,373.00,408,397,414,388,2025-06-04T19:50:18.104579
13196,-0.3265,-0.3328,1.0599,-8.225,-18.690,-10.220,395.00,401,418,357,348,2025-06-04T19:50:18.104579
13197,-0.2977,-0.3201,1.0668,-8.715,-24.255,-12.180,381.00,372,420,416,377,2025-06-04T19:50:18.104579
13198,-0.2113,-0.3016,1.0468,-7.210,-30.590,-10.710,400.00,392,415,415,381,2025-06-04T19:50:18.104579
13199,-0.2059,-0.2923,1.0048,-9.870,-34.825,-7.805,346.00,413,425,415,347,2025-06-04T19:50:18.104579
13200,-0.2396,-0.2923,0.9604,-7.490,-39.445,-6.825,380.00,374,437,421,352,2025-06-04T19:50:18.105581
13201,-0.2845,-0.2216,0.9316,-8.575,-43.330,-6.475,397.00,392,390,428,329,2025-06-04T19:50:18.105581
13202,-0.2606,-0.1484,0.8701,-5.040,-42.805,-3.360,380.00,379,400,435,352,2025-06-04T19:50:18.304934
13203,-0.2582,-0.1449,0.8355,-8.820,-35.945,-3.990,406.00,397,425,345,362,2025-06-04T19:50:18.304934
13204,-0.2172,-0.1566,0.8940,-8.015,-27.895,-3.430,397.00,400,404,407,373,2025-06-04T19:50:18.304934
13205,-0.1908,-0.1645,0.9130,-8.680,-17.745,-1.190,393.00,369,414,414,387,2025-06-04T19:50:18.304934
13206,-0.1942,-0.1625,0.9331,-10.815,-7.385,-0.315,396.00,390,410,347,372,2025-06-04T19:50:18.304934
13207,-0.1830,-0.1591,0.9584,-11.025,0.175,1.260,364.00,380,418,401,384,2025-06-04T19:50:18.304934
13208,-0.1718,-0.1752,0.9414,-12.810,6.090,1.680,378.00,364,401,337,366,2025-06-04T19:50:18.304934
13209,-0.1952,-0.1835,0.9784,-14.490,9.940,2.170,400.00,380,437,389,378,2025-06-04T19:50:18.304934
13210,-0.2133,-0.2167,1.0024,-17.255,14.000,4.620,389.00,361,411,335,339,2025-06-04T19:50:18.304934
13211,-0.2723,-0.1845,0.9882,-17.465,14.350,3.955,393.00,381,419,378,369,2025-06-04T19:50:18.304934
13212,-0.2499,-0.1718,0.9731,-20.510,14.175,3.080,407.00,400,438,402,378,2025-06-04T19:50:18.304934
13213,-0.2743,-0.2567,0.9775,-23.800,13.755,3.010,404.00,378,421,409,371,2025-06-04T19:50:18.304934
13214,-0.3250,-0.3035,0.9760,-23.520,12.005,0.910,405.00,399,355,414,378,2025-06-04T19:50:18.304934
13215,-0.3621,-0.3162,0.9623,-18.025,12.740,-2.940,415.00,399,335,407,375,2025-06-04T19:50:18.304934
13216,-0.3445,-0.2884,0.9628,-14.350,10.465,-6.720,387.00,405,385,340,339,2025-06-04T19:50:18.304934
13217,-0.2728,-0.2362,0.9306,-15.715,8.610,-8.715,344.00,373,392,381,359,2025-06-04T19:50:18.304934
13218,-0.1952,-0.2357,0.9150,-14.000,14.455,-8.330,362.00,389,400,402,381,2025-06-04T19:50:18.304934
13219,-0.1430,-0.2474,0.9794,-18.550,20.650,-3.360,391.00,404,407,415,384,2025-06-04T19:50:18.509503
13220,-0.1264,-0.1884,0.9638,-19.495,25.410,0.385,354.00,379,403,405,379,2025-06-04T19:50:18.509503
13221,-0.1327,0.0078,0.9506,-27.685,20.545,1.260,391.00,392,352,354,370,2025-06-04T19:50:18.509503
13222,-0.0146,0.1879,0.8355,-37.940,18.025,1.785,404.00,402,348,337,374,2025-06-04T19:50:18.509503
13223,0.1801,0.6969,0.6476,-33.915,4.865,15.715,388.00,412,288,396,378,2025-06-04T19:50:18.509503
13224,0.2591,-0.0693,0.2333,-39.515,7.455,42.420,407.00,418,385,418,392,2025-06-04T19:50:18.510156
13225,0.1972,-0.1942,0.7076,18.900,4.935,68.845,371.00,408,374,358,396,2025-06-04T19:50:18.510156
13226,-0.0488,-0.3914,0.5895,72.380,9.555,83.125,386.00,408,394,354,386,2025-06-04T19:50:18.510156
13227,0.0102,-0.5890,0.3323,115.430,-17.570,124.075,391.00,417,414,407,378,2025-06-04T19:50:18.510156
13228,-0.2435,-0.1191,1.2371,72.660,13.475,123.900,416.00,420,374,392,389,2025-06-04T19:50:18.510156
13229,-0.6798,-0.1552,1.8539,24.640,28.000,128.065,413.00,422,392,362,381,2025-06-04T19:50:18.510156
13230,-0.9033,-0.4958,1.3527,-63.035,-16.765,116.235,376.00,432,419,414,357,2025-06-04T19:50:18.510698
13231,-0.9736,-0.8560,0.6364,-57.575,-13.685,104.335,396.00,390,435,416,342,2025-06-04T19:50:18.510698
13232,-0.9687,-0.5836,1.3191,-40.145,-19.145,73.080,410.00,409,410,380,364,2025-06-04T19:50:18.510698
13233,-1.2044,-0.6642,1.3049,-56.735,14.980,40.460,412.00,377,436,408,388,2025-06-04T19:50:18.511156
13234,-1.2151,-0.7710,1.0712,-64.540,11.795,7.245,421.00,393,413,339,387,2025-06-04T19:50:18.511156
13235,-1.0570,-0.6227,0.8316,-45.220,-23.800,-23.380,415.00,406,414,362,355,2025-06-04T19:50:18.712587
13236,-0.7969,-0.5475,0.7188,-47.460,-28.175,-39.550,409.00,405,423,406,338,2025-06-04T19:50:18.712587
13237,-0.5002,-0.5178,0.7779,-43.190,-26.565,-48.160,439.00,399,417,394,364,2025-06-04T19:50:18.712587
13238,-0.3055,-0.5134,0.9174,-41.860,-32.235,-45.920,340.00,412,356,413,380,2025-06-04T19:50:18.712587
13239,-0.2025,-0.5446,0.8569,-37.415,-38.570,-36.540,348.00,402,389,343,367,2025-06-04T19:50:18.712587
13240,0.4353,-0.2899,0.7584,39.865,-94.640,6.160,385.00,412,421,391,380,2025-06-04T19:50:18.712587
13241,0.3396,-0.4758,0.0454,14.700,-76.230,5.425,345.00,411,418,424,342,2025-06-04T19:50:18.714752
13242,-0.0322,-0.1205,0.5871,47.775,-19.810,0.875,389.00,401,402,417,370,2025-06-04T19:50:18.714752
13243,-0.4402,0.1318,1.4347,0.525,-3.360,5.495,408.00,378,351,423,378,2025-06-04T19:50:18.714752
13244,-0.5139,-0.1762,1.4816,-32.865,-4.795,15.610,364.00,393,393,421,385,2025-06-04T19:50:18.714752
13245,-0.5378,-0.4919,1.1122,-84.385,-31.535,10.465,400.00,403,415,413,378,2025-06-04T19:50:18.714752
13246,-0.4363,-0.5495,1.0629,-73.115,-39.970,3.920,406.00,379,395,404,393,2025-06-04T19:50:18.889693
13247,-0.5744,-0.3172,1.1000,-62.545,-20.195,-1.610,398.00,393,405,416,348,2025-06-04T19:50:18.889693
13248,-0.5714,-0.3777,0.8203,-32.410,3.780,-7.420,406.00,405,418,392,359,2025-06-04T19:50:18.889693
13249,-0.4660,-0.2904,0.7876,-16.170,0.350,-9.870,397.00,401,408,342,368,2025-06-04T19:50:18.889693
13250,-0.3626,-0.2206,0.7330,-16.345,-11.970,-10.010,383.00,409,418,396,301,2025-06-04T19:50:18.889693
13251,-0.2445,-0.2567,0.7247,-4.340,-16.345,-8.680,396.00,420,312,407,349,2025-06-04T19:50:18.889693
13252,-0.2430,-0.1884,0.7305,30.555,-16.660,-18.130,404.00,407,371,422,363,2025-06-04T19:50:18.903870
13253,-0.4451,-0.0996,0.9067,26.810,-4.690,-34.020,389.00,411,398,427,374,2025-06-04T19:50:18.903870
13254,-0.1581,-0.1718,1.0199,15.960,-11.830,-19.460,401.00,412,358,379,369,2025-06-04T19:50:18.903870
13255,0.7745,0.2128,1.2766,3.395,-26.495,-11.445,388.00,404,394,417,374,2025-06-04T19:50:18.903870
13256,-0.0639,-0.4211,1.0516,-40.425,2.940,-0.315,348.00,411,418,407,385,2025-06-04T19:50:18.903870
13257,-0.3943,-0.4568,0.9994,7.630,-12.460,5.985,365.00,415,432,430,389,2025-06-04T19:50:18.903870
13258,-0.4670,-0.5168,1.0282,3.535,-24.745,0.980,371.00,413,403,341,385,2025-06-04T19:50:18.903870
13259,-0.4168,-0.4275,1.0838,-15.435,-24.290,4.900,341.00,418,403,409,382,2025-06-04T19:50:18.903870
13260,-0.6564,-0.6320,1.2420,-32.235,-38.185,3.920,363.00,409,391,419,388,2025-06-04T19:50:18.903870
13261,-0.4553,-0.7042,1.1400,-37.065,-41.265,0.630,359.00,418,408,374,394,2025-06-04T19:50:18.903870
13262,-0.2850,-0.6822,1.1727,-33.320,-34.825,-4.130,379.00,407,406,410,397,2025-06-04T19:50:18.903870
13263,-0.1903,-0.6969,1.1034,-29.750,-17.570,-3.605,397.00,414,357,427,382,2025-06-04T19:50:18.903870
13264,-0.1679,-0.6627,1.0731,-24.675,-10.675,-6.160,420.00,418,303,383,389,2025-06-04T19:50:18.903870
13265,-0.1737,-0.6676,1.0580,-19.005,-9.730,-6.440,393.00,384,353,399,375,2025-06-04T19:50:18.903870
13266,-0.1932,-0.6949,1.1663,-19.565,-17.675,-8.995,421.00,392,418,425,379,2025-06-04T19:50:18.903870
13267,-0.2796,-0.6949,1.1424,-17.430,-27.160,-7.315,413.00,405,417,427,386,2025-06-04T19:50:19.126016
13268,-0.0273,-0.7261,1.1053,-18.550,-43.190,-0.840,407.00,400,305,406,382,2025-06-04T19:50:19.126016
13269,-0.1342,-0.8325,1.1522,-22.715,-43.155,0.805,433.00,405,383,419,384,2025-06-04T19:50:19.126016
13270,-0.1064,-0.8496,1.0931,-16.905,-32.585,-3.850,363.00,376,351,395,389,2025-06-04T19:50:19.126016
13271,0.0059,-0.9550,0.8725,-30.940,18.200,-15.820,391.00,387,331,335,389,2025-06-04T19:50:19.126016
13272,0.1752,-1.0531,0.8389,-35.770,71.715,-30.100,408.00,396,414,404,371,2025-06-04T19:50:19.126016
13273,-0.0390,-1.0443,1.0155,-1.540,83.370,-40.845,354.00,413,393,408,388,2025-06-04T19:50:19.126016
13274,-0.1996,-0.9902,0.9994,5.845,91.945,-44.625,404.00,414,410,411,398,2025-06-04T19:50:19.126016
13275,-0.3431,-0.8696,1.1512,13.545,40.460,-45.220,418.00,412,413,428,368,2025-06-04T19:50:19.126016
13276,-0.3245,-0.8208,1.0058,28.525,2.695,-45.185,424.00,411,420,391,373,2025-06-04T19:50:19.126016
13277,-0.4221,-0.7740,0.9765,32.375,-22.995,-49.875,424.00,408,346,425,373,2025-06-04T19:50:19.126016
13278,-0.4065,-0.6954,0.9233,41.440,-40.110,-61.215,400.00,412,359,394,343,2025-06-04T19:50:19.126016
13279,-0.3343,-0.6261,0.8472,49.875,-51.170,-77.805,412.00,420,397,422,377,2025-06-04T19:50:19.126016
13280,-0.2333,-0.5880,0.7818,59.150,-55.160,-95.935,407.00,424,408,355,342,2025-06-04T19:50:19.126981
13281,-0.1879,-0.5627,0.7837,63.455,-51.170,-114.100,362.00,390,399,380,334,2025-06-04T19:50:19.126981
13282,-0.1747,-0.5402,0.7979,65.240,-46.760,-130.025,406.00,409,393,419,364,2025-06-04T19:50:19.126981
13283,-0.1562,-0.4978,0.7852,72.310,-48.755,-142.660,357.00,413,417,416,373,2025-06-04T19:50:19.126981
13284,-0.1562,-0.4290,0.7725,80.535,-54.145,-152.915,403.00,404,380,409,381,2025-06-04T19:50:19.126981
13285,-0.1166,-0.3811,0.7476,87.465,-59.360,-160.335,412.00,408,405,399,371,2025-06-04T19:50:19.328167
13286,-0.0566,-0.3431,0.7081,88.620,-61.985,-165.620,396.00,414,297,412,334,2025-06-04T19:50:19.328167
13287,-0.0015,-0.3250,0.7013,86.555,-64.190,-168.385,431.00,418,391,421,358,2025-06-04T19:50:19.328167
13288,0.0566,-0.3035,0.7237,84.280,-66.745,-170.415,368.00,409,388,366,374,2025-06-04T19:50:19.328167
13289,0.0068,-0.3353,0.6578,80.360,-56.560,-173.355,355.00,410,412,293,370,2025-06-04T19:50:19.328167
13290,-0.0244,-0.3392,0.7164,83.230,-45.920,-177.730,412.00,408,388,395,378,2025-06-04T19:50:19.328167
13291,-0.0156,-0.3299,0.7159,86.415,-37.030,-182.385,402.00,379,404,376,374,2025-06-04T19:50:19.328167
13292,-0.0205,-0.2806,0.7052,84.910,-25.375,-185.185,409.00,388,353,399,384,2025-06-04T19:50:19.328167
13293,0.0039,-0.2084,0.6500,83.475,-19.110,-184.975,417.00,402,369,395,391,2025-06-04T19:50:19.328167
13294,0.0239,-0.1352,0.6295,81.165,-15.365,-182.490,411.00,402,410,422,350,2025-06-04T19:50:19.328167
13295,0.0307,-0.0888,0.6437,75.775,-11.445,-178.220,426.00,408,412,372,297,2025-06-04T19:50:19.328167
13296,0.0195,-0.1093,0.7247,67.270,-9.625,-172.970,400.00,369,398,413,357,2025-06-04T19:50:19.328167
13297,-0.0273,-0.1576,0.7232,59.255,0.910,-171.360,408.00,366,395,413,374,2025-06-04T19:50:19.328167
13298,-0.0625,-0.1181,0.7920,55.755,9.345,-169.365,420.00,383,424,392,353,2025-06-04T19:50:19.328167
13299,-0.0527,-0.0991,0.7798,56.175,13.370,-167.370,411.00,398,422,370,373,2025-06-04T19:50:19.328167
13300,-0.0400,-0.0459,0.7906,47.075,16.065,-161.385,423.00,409,405,402,375,2025-06-04T19:50:19.328167
13301,-0.0322,-0.0298,0.7896,41.405,12.705,-154.245,395.00,401,429,417,391,2025-06-04T19:50:19.328167
13302,0.0088,-0.0439,0.7969,32.165,13.475,-145.425,415.00,408,352,403,383,2025-06-04T19:50:19.525291
13303,0.0034,-0.0898,0.7935,28.105,22.400,-138.180,413.00,415,409,399,384,2025-06-04T19:50:19.525291
13304,-0.0410,-0.0981,0.8076,35.700,33.040,-134.855,398.00,412,371,412,383,2025-06-04T19:50:19.525291
13305,1.1990,1.5221,-0.7803,14.035,143.745,-27.195,383.00,405,415,410,393,2025-06-04T19:50:19.525291
13306,-0.1391,-1.9998,1.9515,236.355,392.770,29.050,396.00,382,440,431,392,2025-06-04T19:50:19.525291
13307,-0.5973,0.5417,0.8555,139.860,364.875,84.455,350.00,391,351,438,356,2025-06-04T19:50:19.525291
13308,-1.1868,0.5666,0.9579,185.990,136.255,59.885,342.00,407,402,425,382,2025-06-04T19:50:19.525291
13309,-1.1107,0.1254,1.2742,157.990,128.380,40.215,368.00,386,302,408,385,2025-06-04T19:50:19.525291
13310,-0.9677,0.3494,1.1043,66.815,49.280,10.150,388.00,361,393,406,312,2025-06-04T19:50:19.525291
13311,-0.7540,0.1371,1.1190,63.280,31.220,-12.215,346.00,393,420,425,340,2025-06-04T19:50:19.525291
13312,-0.8159,0.1928,1.1068,51.310,0.770,-37.870,376.00,412,382,432,317,2025-06-04T19:50:19.525291
13313,-0.8589,0.2469,1.1068,34.510,-20.230,-65.730,406.00,423,403,432,361,2025-06-04T19:50:19.525291
13314,-0.7422,0.2991,1.0887,12.845,-48.440,-87.885,396.00,415,405,427,377,2025-06-04T19:50:19.525291
13315,-0.5558,0.2913,1.0555,-7.490,-89.005,-102.480,387.00,409,427,406,357,2025-06-04T19:50:19.525291
13316,-0.3782,0.2357,1.0141,-35.980,-99.890,-106.820,407.00,403,423,403,366,2025-06-04T19:50:19.525291
13317,-0.2669,0.1488,0.9887,-35.490,-114.415,-106.435,407.00,395,399,409,379,2025-06-04T19:50:19.525291
13318,-0.0976,0.0615,0.9257,-39.620,-113.960,-100.835,361.00,408,415,346,376,2025-06-04T19:50:19.798193
13319,0.0224,0.0268,0.8325,-35.420,-110.810,-96.110,403.00,412,407,395,377,2025-06-04T19:50:19.798193
13320,0.0878,0.0317,0.7725,-32.935,-96.880,-89.810,415.00,380,382,411,388,2025-06-04T19:50:19.798193
13321,0.1015,0.0551,0.7169,-30.135,-72.660,-85.575,411.00,400,415,417,389,2025-06-04T19:50:19.798193
13322,0.1152,0.0547,0.7159,-28.840,-50.155,-80.780,414.00,399,426,417,382,2025-06-04T19:50:19.798193
13323,0.2313,-0.3504,0.7823,-14.385,-23.625,-54.215,430.00,400,402,428,364,2025-06-04T19:50:19.798193
13324,0.1186,-0.3079,0.9731,32.025,42.280,-25.620,425.00,407,401,424,343,2025-06-04T19:50:19.798193
13325,0.0508,-0.1347,1.0106,91.805,72.450,0.875,370.00,414,423,399,352,2025-06-04T19:50:19.798193
13326,-0.2303,0.2684,0.9277,66.885,62.300,9.065,402.00,421,350,422,377,2025-06-04T19:50:19.798193
13327,-0.3177,0.2508,0.8896,46.515,47.495,3.185,404.00,416,413,428,377,2025-06-04T19:50:19.798193
13328,-0.3055,0.0054,0.9902,39.340,33.250,-10.220,395.00,410,422,429,384,2025-06-04T19:50:19.798193
13329,-0.2967,0.0952,0.9160,33.180,34.615,-20.370,397.00,413,396,380,346,2025-06-04T19:50:19.798193
13330,-0.3841,0.1376,0.9789,31.255,27.790,-30.625,397.00,414,401,413,369,2025-06-04T19:50:19.798193
13331,-0.4582,0.2094,0.9736,14.420,8.435,-41.020,408.00,393,399,399,371,2025-06-04T19:50:19.798193
13332,-0.4333,0.1498,1.0219,-1.435,-18.655,-46.655,387.00,400,427,421,382,2025-06-04T19:50:19.798193
13333,-0.3245,0.1464,0.9560,6.265,-6.895,-37.660,370.00,414,428,356,343,2025-06-04T19:50:19.919064
13334,-0.1732,-0.0303,1.0297,41.195,12.880,-20.125,405.00,411,418,352,332,2025-06-04T19:50:19.919064
13335,-0.2216,0.0791,1.0736,56.385,25.725,-7.000,396.00,384,379,380,356,2025-06-04T19:50:19.919064
13336,-0.6173,0.3616,1.3064,26.355,6.300,-8.995,410.00,408,401,403,368,2025-06-04T19:50:19.919064
13337,-0.5939,0.2435,1.2546,-9.975,-20.195,-18.445,375.00,400,431,402,390,2025-06-04T19:50:19.919064
13338,-0.4041,0.1889,1.0658,-20.020,-34.720,-28.070,370.00,409,435,344,392,2025-06-04T19:50:19.919064
13339,-0.2840,0.1713,0.9384,-15.470,-24.465,-31.395,386.00,412,431,408,383,2025-06-04T19:50:19.919064
13340,-0.2250,0.1937,0.8403,-6.370,-8.715,-26.530,345.00,404,424,421,379,2025-06-04T19:50:19.919064
13341,-0.3592,0.1840,0.9750,-0.490,-10.780,-23.590,375.00,399,433,406,386,2025-06-04T19:50:19.919064
13342,-0.4309,0.1796,1.0726,-7.350,-27.720,-23.100,390.00,413,424,408,380,2025-06-04T19:50:19.919064
13343,-0.3670,0.1679,1.0116,-20.650,-47.775,-22.960,392.00,409,423,405,374,2025-06-04T19:50:19.919064
13344,-0.3094,0.1210,0.9633,-18.970,-50.890,-21.875,420.00,418,412,359,380,2025-06-04T19:50:19.919064
13345,-0.3089,0.0947,0.9565,-11.970,-53.270,-21.910,361.00,410,417,421,384,2025-06-04T19:50:19.919064
13346,-0.2601,0.0737,0.8921,-7.630,-58.835,-21.910,403.00,405,426,377,391,2025-06-04T19:50:19.919064
13347,-0.2264,0.0605,0.8774,-6.580,-65.975,-21.910,409.00,407,409,412,390,2025-06-04T19:50:19.919064
13348,-0.1410,0.0664,0.8706,-2.170,-73.395,-19.285,364.00,407,424,420,377,2025-06-04T19:50:19.919064
13349,-0.1088,0.0376,0.8379,-3.185,-69.405,-17.010,398.00,410,439,413,386,2025-06-04T19:50:20.007827
13350,-0.0737,-0.0102,0.8706,-0.980,-63.945,-15.645,398.00,391,421,388,397,2025-06-04T19:50:20.007827
13351,-0.0795,-0.0215,0.9706,2.905,-60.725,-16.485,412.00,403,403,415,386,2025-06-04T19:50:20.007827
13352,-0.1298,-0.0996,1.0024,1.960,-56.700,-26.810,402.00,412,413,407,346,2025-06-04T19:50:20.007827
13353,-0.1196,-0.0917,1.0448,7.560,-52.850,-21.490,399.00,416,425,428,328,2025-06-04T19:50:20.007827
13354,-0.0952,-0.0834,1.0814,11.655,-52.150,-23.065,372.00,395,426,426,358,2025-06-04T19:50:20.007827
13355,-0.0566,-0.0737,1.0751,12.390,-50.015,-22.295,395.00,399,353,346,334,2025-06-04T19:50:20.007827
13356,0.0005,-0.0449,1.0619,16.695,-50.715,-20.580,405.00,392,394,384,365,2025-06-04T19:50:20.007827
13357,0.0400,-0.0015,1.0131,16.345,-50.575,-17.675,389.00,409,399,391,376,2025-06-04T19:50:20.007827
13358,0.0800,0.0161,0.9565,21.210,-53.690,-15.575,360.00,415,399,413,376,2025-06-04T19:50:20.121872
13359,0.0878,0.0630,0.9506,20.055,-47.285,-14.805,393.00,412,398,424,375,2025-06-04T19:50:20.121872
13360,0.1103,0.1035,1.0326,13.650,-40.215,-12.495,397.00,412,351,419,369,2025-06-04T19:50:20.121872
13361,0.1767,0.0410,1.0092,14.490,-38.605,-8.785,400.00,372,388,430,371,2025-06-04T19:50:20.121872
13362,0.1376,-0.0068,1.0453,13.580,-33.845,-5.565,387.00,395,418,407,378,2025-06-04T19:50:20.121872
13363,0.1030,-0.0322,1.0609,18.410,-27.790,-3.395,405.00,398,363,402,375,2025-06-04T19:50:20.121872
13364,0.0903,-0.0088,1.0497,23.660,-24.675,-1.715,383.00,395,408,413,340,2025-06-04T19:50:20.121872
13365,0.1147,0.0224,1.0258,24.500,-22.295,0.105,400.00,378,422,415,368,2025-06-04T19:50:20.121872
13366,0.1322,0.0522,0.9804,24.115,-18.060,2.135,410.00,398,422,417,369,2025-06-04T19:50:20.224723
13367,0.1259,0.0688,0.9418,25.865,-13.475,3.325,408.00,371,405,410,379,2025-06-04T19:50:20.224723
13368,0.1044,0.0937,0.9467,28.735,-6.370,3.150,396.00,383,411,426,392,2025-06-04T19:50:20.224723
13369,0.0956,0.1054,0.9848,30.520,3.850,1.995,406.00,401,419,417,380,2025-06-04T19:50:20.224723
13370,-0.0283,0.1381,1.0194,32.235,-0.770,-0.595,394.00,401,399,397,381,2025-06-04T19:50:20.224723
13371,0.0024,0.1118,1.0951,32.305,-10.395,-3.115,407.00,394,427,409,377,2025-06-04T19:50:20.224723
13372,-0.0181,0.1308,1.1014,21.560,-11.550,-1.540,403.00,390,378,420,383,2025-06-04T19:50:20.224723
13373,-0.0722,0.1693,1.1317,22.435,-11.550,0.245,394.00,398,422,406,385,2025-06-04T19:50:20.224723
13374,-0.0913,0.1786,1.1019,28.350,-17.885,1.890,396.00,401,422,422,390,2025-06-04T19:50:20.274623
13375,-0.0776,0.2357,1.0575,19.635,-22.820,4.935,365.00,409,404,436,351,2025-06-04T19:50:20.274623
13376,-0.0351,0.2860,1.0438,16.275,-31.395,7.805,331.00,402,366,425,367,2025-06-04T19:50:20.274623
13377,-0.0464,0.2757,1.0946,15.295,-31.360,9.905,369.00,407,391,416,353,2025-06-04T19:50:20.274623
13378,-0.0508,0.2552,1.0028,9.520,-31.360,9.905,382.00,419,395,415,371,2025-06-04T19:50:20.323461
13379,-0.0093,0.2284,0.9921,6.125,-37.905,9.835,379.00,412,302,420,336,2025-06-04T19:50:20.323461
13380,0.0625,0.2494,1.0038,7.035,-35.140,10.850,347.00,415,386,352,322,2025-06-04T19:50:20.323461
13381,0.0683,0.2411,1.0292,8.750,-31.815,12.915,391.00,412,418,399,356,2025-06-04T19:50:20.323461
13382,0.0576,0.2172,1.0326,12.845,-35.105,13.265,383.00,419,407,396,339,2025-06-04T19:50:20.374491
13383,0.0844,0.2025,0.9955,7.770,-40.565,11.935,381.00,411,397,396,369,2025-06-04T19:50:20.374491
13384,0.1230,0.1864,0.9814,5.740,-44.940,11.305,378.00,423,419,408,346,2025-06-04T19:50:20.374491
13385,0.1537,0.1991,1.0063,5.215,-44.520,11.550,389.00,416,362,376,337,2025-06-04T19:50:20.374491
13386,0.1625,0.1762,1.0126,6.160,-39.725,11.585,389.00,421,417,413,361,2025-06-04T19:50:20.374491
13387,0.1669,0.1635,1.0336,3.045,-38.290,11.130,379.00,416,388,376,340,2025-06-04T19:50:20.424620
13388,0.1806,0.1654,1.0092,1.715,-35.525,10.500,364.00,422,421,337,365,2025-06-04T19:50:20.424620
13389,0.1952,0.1625,1.0077,3.850,-28.210,9.520,382.00,421,413,408,380,2025-06-04T19:50:20.424620
13390,0.1771,0.1625,1.0043,6.580,-20.790,7.910,391.00,417,424,394,388,2025-06-04T19:50:20.424620
13391,0.1654,0.1430,1.0024,4.795,-13.860,5.285,397.00,413,394,423,385,2025-06-04T19:50:20.476499
13392,0.1532,0.1469,0.9848,1.820,-11.235,2.975,382.00,419,424,432,385,2025-06-04T19:50:20.476499
13393,0.1493,0.1464,0.9536,2.765,-8.050,1.610,340.00,392,428,401,380,2025-06-04T19:50:20.476499
13394,0.1318,0.1479,0.9789,7.035,-4.445,0.280,330.00,374,426,378,383,2025-06-04T19:50:20.527661
13395,0.1220,0.1610,1.0004,9.240,-3.115,-0.490,361.00,381,407,397,387,2025-06-04T19:50:20.527661
13396,0.1127,0.1762,0.9950,5.075,-3.045,-0.140,394.00,368,408,374,352,2025-06-04T19:50:20.733867
13397,0.1215,0.2172,0.9823,6.790,-6.405,1.225,381.00,377,409,338,369,2025-06-04T19:50:20.733867
13398,0.0961,0.2050,0.9814,8.225,-8.540,2.905,381.00,360,414,397,334,2025-06-04T19:50:20.733867
13399,0.0864,0.2284,0.9906,11.095,-11.690,4.445,360.00,390,420,377,350,2025-06-04T19:50:20.733867
13400,0.0810,0.2420,0.9897,8.575,-17.185,5.495,399.00,395,414,390,347,2025-06-04T19:50:20.733867
13401,0.0952,0.2635,1.0043,5.530,-22.400,7.210,403.00,401,412,422,374,2025-06-04T19:50:20.733867
13402,0.0937,0.2420,0.9843,5.075,-26.460,8.435,404.00,417,433,412,342,2025-06-04T19:50:20.733867
13403,0.1069,0.2142,0.9853,4.795,-31.710,9.345,415.00,413,436,418,362,2025-06-04T19:50:20.733867
13404,0.1274,0.2108,1.0048,5.985,-34.160,10.010,395.00,416,362,426,383,2025-06-04T19:50:20.733867
13405,0.1386,0.1957,1.0150,5.250,-35.525,10.920,401.00,415,402,430,393,2025-06-04T19:50:20.733867
13406,0.1542,0.1537,0.9453,5.215,-39.270,12.215,381.00,406,419,421,391,2025-06-04T19:50:20.733867
13407,0.1459,0.1742,0.9960,6.790,-40.355,11.760,394.00,420,390,437,395,2025-06-04T19:50:20.760464
13408,0.1708,0.1674,1.0087,6.930,-38.570,10.850,402.00,411,394,400,391,2025-06-04T19:50:20.760464
13409,0.1757,0.1889,0.9970,5.915,-36.680,10.010,402.00,422,401,411,380,2025-06-04T19:50:20.760464
13410,0.1791,0.2054,0.9794,5.460,-34.475,8.855,409.00,419,410,351,389,2025-06-04T19:50:20.760464
13411,0.1884,0.2157,0.9780,5.950,-32.655,7.945,392.00,391,409,405,394,2025-06-04T19:50:20.760464
13412,0.2001,0.2225,0.9765,5.985,-30.660,7.105,405.00,393,406,394,395,2025-06-04T19:50:20.760464
13413,0.2098,0.2225,0.9653,5.670,-29.330,6.545,384.00,406,389,428,401,2025-06-04T19:50:20.760464
13414,0.2172,0.2113,0.9521,4.375,-29.330,6.580,404.00,380,366,366,401,2025-06-04T19:50:20.760464
13415,0.2269,0.1962,0.9623,3.920,-29.680,6.545,345.00,361,405,409,384,2025-06-04T19:50:20.760464
13416,0.2347,0.1957,0.9838,5.530,-29.505,6.545,380.00,347,389,336,361,2025-06-04T19:50:20.760464
13417,0.2455,0.2020,0.9941,5.740,-29.750,6.650,395.00,382,431,402,367,2025-06-04T19:50:20.983506
13418,0.2538,0.2050,0.9882,5.530,-29.785,6.965,386.00,394,424,370,390,2025-06-04T19:50:20.983506
13419,0.2621,0.2118,0.9823,5.320,-28.700,7.280,396.00,393,427,414,384,2025-06-04T19:50:20.983506
13420,0.2630,0.2206,0.9775,5.320,-26.530,7.350,367.00,396,395,336,354,2025-06-04T19:50:20.983506
13421,0.2621,0.2225,0.9677,4.375,-24.920,6.860,393.00,403,419,407,360,2025-06-04T19:50:20.983506
13422,0.2616,0.2172,0.9531,2.940,-24.360,5.880,309.00,402,401,392,362,2025-06-04T19:50:20.983506
13423,0.2679,0.2079,0.9540,2.275,-23.415,4.970,374.00,405,420,408,378,2025-06-04T19:50:20.983506
13424,0.2757,0.2030,0.9638,2.450,-20.930,4.165,344.00,407,430,419,388,2025-06-04T19:50:20.983506
13425,0.2762,0.1976,0.9677,3.010,-18.165,3.430,370.00,412,414,428,347,2025-06-04T19:50:20.983506
13426,0.2738,0.1937,0.9662,2.730,-16.765,3.010,369.00,405,426,417,369,2025-06-04T19:50:20.983506
13427,0.2713,0.1889,0.9565,2.275,-15.295,2.450,377.00,411,430,378,339,2025-06-04T19:50:20.983506
13428,0.2718,0.1864,0.9321,3.570,-14.525,1.960,387.00,402,431,420,358,2025-06-04T19:50:20.984521
13429,0.2669,0.1889,0.9179,5.775,-14.070,1.505,361.00,403,428,391,377,2025-06-04T19:50:20.984521
13430,0.2655,0.1884,0.9174,8.225,-12.845,0.840,372.00,418,427,405,383,2025-06-04T19:50:20.984521
13431,0.2708,0.2108,0.9379,9.275,-12.425,0.385,392.00,413,406,417,344,2025-06-04T19:50:20.984521
13432,0.2630,0.2230,0.9711,8.575,-12.600,0.000,396.00,420,416,407,364,2025-06-04T19:50:21.179558
13433,0.2674,0.2279,0.9731,5.985,-13.020,-0.875,410.00,425,425,409,369,2025-06-04T19:50:21.179558
13434,0.2889,0.2460,0.9853,4.620,-12.110,-1.120,383.00,423,403,424,379,2025-06-04T19:50:21.179558
13435,0.3079,0.2518,0.9916,2.275,-8.365,-1.015,381.00,419,420,377,385,2025-06-04T19:50:21.179558
13436,0.3235,0.2503,0.9877,-8.680,-5.390,-0.665,376.00,389,406,419,384,2025-06-04T19:50:21.179558
13437,0.3128,0.2420,0.9570,-1.995,-4.130,-1.190,395.00,393,406,409,391,2025-06-04T19:50:21.179558
13438,0.3270,0.2225,0.9487,-4.305,-3.430,-1.680,400.00,410,420,405,381,2025-06-04T19:50:21.179558
13439,0.3099,0.2098,0.9199,-4.025,-1.995,-1.995,398.00,405,422,418,391,2025-06-04T19:50:21.179558
13440,0.2635,0.2347,0.9223,-1.295,-1.260,-3.850,392.00,380,351,401,373,2025-06-04T19:50:21.179558
13441,0.3353,0.2850,1.0765,-1.680,-2.625,-3.675,400.00,365,328,358,333,2025-06-04T19:50:21.179558
13442,0.3265,0.1991,0.9794,-16.660,5.495,-2.800,400.00,392,383,394,364,2025-06-04T19:50:21.179558
13443,0.2933,0.2181,0.9545,-8.085,1.575,-3.815,412.00,405,411,408,338,2025-06-04T19:50:21.179558
13444,0.2972,0.2001,0.9648,-7.525,6.790,-5.320,393.00,413,405,407,373,2025-06-04T19:50:21.179558
13445,0.3958,0.1898,0.9609,-7.490,14.490,-4.375,402.00,407,419,399,377,2025-06-04T19:50:21.179558
13446,0.2855,0.2216,0.9867,-4.025,16.835,-7.665,403.00,412,441,417,389,2025-06-04T19:50:21.179558
13447,0.3094,0.2259,0.9389,-5.460,13.055,-8.085,391.00,422,416,428,346,2025-06-04T19:50:21.179558
13448,0.3689,0.2191,0.9575,-7.350,20.230,-7.875,368.00,389,421,418,367,2025-06-04T19:50:21.179558
13449,0.3045,0.3328,0.8691,-7.210,19.390,-7.140,384.00,373,405,399,366,2025-06-04T19:50:21.469788
13450,0.3104,0.2089,0.9560,-4.410,21.280,-5.565,381.00,396,401,397,382,2025-06-04T19:50:21.469788
13451,0.2840,0.1781,0.9721,-2.555,22.120,-3.605,409.00,399,345,384,389,2025-06-04T19:50:21.469788
13452,0.1723,0.1435,0.8760,-1.785,26.425,-5.145,403.00,372,398,390,391,2025-06-04T19:50:21.469788
13453,0.2162,0.1771,1.0004,2.030,28.840,-4.865,391.00,390,411,396,348,2025-06-04T19:50:21.470785
13454,0.1952,0.1859,0.9780,-1.155,31.780,-6.790,364.00,404,391,385,356,2025-06-04T19:50:21.470785
13455,0.2308,0.1937,1.0214,-1.995,30.205,-6.405,331.00,399,405,381,377,2025-06-04T19:50:21.470785
13456,0.1991,0.1947,0.9496,-1.190,28.000,-8.925,368.00,401,419,392,382,2025-06-04T19:50:21.470785
13457,0.1771,0.2094,1.0160,-1.015,27.895,-8.120,372.00,398,418,404,390,2025-06-04T19:50:21.470785
13458,0.1625,0.1957,1.0175,-1.540,26.670,-7.595,386.00,377,394,366,384,2025-06-04T19:50:21.470785
13459,0.1698,0.1737,1.0277,-3.395,25.095,-6.650,345.00,363,415,412,389,2025-06-04T19:50:21.470785
13460,0.1391,0.1552,1.0214,-4.690,25.410,-6.160,374.00,357,423,408,349,2025-06-04T19:50:21.470785
13461,0.1484,0.1606,1.0126,-1.260,29.505,-5.705,386.00,377,422,398,367,2025-06-04T19:50:21.471452
13462,0.0693,0.1718,1.0038,1.855,32.550,-7.700,397.00,394,405,417,371,2025-06-04T19:50:21.471452
13463,0.0937,0.1942,0.9604,5.810,28.700,-9.030,402.00,412,425,409,374,2025-06-04T19:50:21.471452
13464,0.0600,0.2030,0.9438,0.350,27.405,-11.060,414.00,420,416,428,389,2025-06-04T19:50:21.471452
13465,0.0527,0.1967,0.9770,2.940,26.285,-13.335,387.00,413,399,423,393,2025-06-04T19:50:21.601613
13466,0.0434,0.1757,0.9833,-1.015,25.865,-15.995,343.00,418,404,433,393,2025-06-04T19:50:21.601613
13467,0.0542,0.1742,0.9892,1.785,24.675,-18.585,374.00,423,402,370,379,2025-06-04T19:50:21.601613
13468,0.0371,0.1688,1.1180,4.235,24.710,-19.355,375.00,410,391,389,383,2025-06-04T19:50:21.601613
13469,0.0376,0.2011,0.9970,8.015,20.405,-19.635,383.00,402,367,421,377,2025-06-04T19:50:21.601613
13470,0.0483,0.2167,0.9945,6.965,15.330,-18.760,379.00,406,419,403,379,2025-06-04T19:50:21.601613
13471,0.0712,0.1972,0.9614,4.445,12.495,-18.340,379.00,413,421,386,373,2025-06-04T19:50:21.602208
13472,0.0464,0.2045,0.9804,4.760,9.520,-18.830,401.00,412,434,342,385,2025-06-04T19:50:21.602208
13473,0.0634,0.2123,0.9843,7.000,12.460,-19.075,394.00,418,390,412,360,2025-06-04T19:50:21.602208
13474,0.0483,0.2064,0.9760,7.805,11.760,-20.125,367.00,423,396,359,373,2025-06-04T19:50:21.602208
13475,0.0600,0.2176,0.9594,10.290,10.815,-19.565,388.00,420,406,339,379,2025-06-04T19:50:21.602208
13476,0.0483,0.2167,1.0097,7.245,11.095,-18.970,395.00,416,303,318,388,2025-06-04T19:50:21.602208
13477,0.0093,0.2342,1.0482,6.895,6.405,-20.090,405.00,412,401,383,386,2025-06-04T19:50:21.602208
13478,0.0566,0.2167,1.0687,5.355,5.775,-18.725,393.00,413,398,410,395,2025-06-04T19:50:21.602208
13479,0.0664,0.1928,1.0931,-1.295,11.200,-17.675,400.00,423,405,420,394,2025-06-04T19:50:21.602208
13480,0.0190,0.1893,1.0311,4.200,9.415,-17.220,396.00,425,403,349,386,2025-06-04T19:50:21.602208
13481,-0.0005,0.2406,1.0385,3.360,10.675,-16.345,382.00,414,375,411,382,2025-06-04T19:50:21.602208
13482,-0.0156,0.2347,1.0033,-0.595,5.740,-14.840,391.00,414,411,396,342,2025-06-04T19:50:21.602208
13483,-0.0176,0.2835,0.9726,0.070,-8.925,-16.170,382.00,391,391,390,329,2025-06-04T19:50:21.602208
13484,0.0239,0.2850,0.9272,-4.480,-16.555,-17.115,374.00,371,387,416,357,2025-06-04T19:50:21.793151
13485,0.0176,0.2762,0.9409,-8.435,-20.265,-19.670,391.00,397,410,413,377,2025-06-04T19:50:21.793151
13486,0.0332,0.1918,0.9082,-8.435,-16.590,-20.720,381.00,408,399,417,382,2025-06-04T19:50:21.793151
13487,0.0615,0.1279,1.0594,-8.365,-10.780,-20.370,378.00,376,354,398,377,2025-06-04T19:50:21.793151
13488,0.0303,0.1035,1.0497,1.645,-4.095,-19.635,379.00,387,408,383,372,2025-06-04T19:50:21.793151
13489,0.0034,0.1488,0.9936,5.670,-7.175,-16.940,382.00,403,418,423,377,2025-06-04T19:50:21.793151
13490,-0.0259,0.2045,0.9960,5.740,-12.005,-16.905,398.00,386,406,402,375,2025-06-04T19:50:21.793151
13491,-0.0673,0.2874,0.9858,4.340,-24.115,-19.110,379.00,390,422,414,384,2025-06-04T19:50:21.793151
13492,-0.0405,0.2943,0.9477,-3.290,-34.440,-21.000,391.00,408,408,422,349,2025-06-04T19:50:21.793151
13493,0.0073,0.2216,0.9506,-10.185,-42.630,-21.140,387.00,412,431,418,381,2025-06-04T19:50:21.793731
13494,0.0605,0.1889,0.9511,-10.325,-41.230,-20.020,383.00,407,426,412,381,2025-06-04T19:50:21.793731
13495,0.0537,0.1557,0.9692,-5.670,-30.590,-18.340,374.00,406,419,391,388,2025-06-04T19:50:21.793731
13496,0.0678,0.1606,0.9540,3.185,-20.930,-15.295,342.00,402,441,422,344,2025-06-04T19:50:21.793731
13497,0.0444,0.2084,0.9643,9.870,-16.240,-11.760,382.00,350,402,424,325,2025-06-04T19:50:21.793731
13498,0.0166,0.2582,0.9653,13.335,-15.960,-8.785,397.00,379,414,426,363,2025-06-04T19:50:21.793731
13499,0.0312,0.2943,0.9414,8.190,-20.930,-6.510,394.00,390,423,394,373,2025-06-04T19:50:21.883621
13500,0.0747,0.2933,0.9296,2.975,-23.205,-3.290,403.00,405,411,387,373,2025-06-04T19:50:21.883621
13501,0.0927,0.2777,0.9418,1.470,-22.785,0.805,403.00,406,407,386,377,2025-06-04T19:50:21.883621
13502,0.1020,0.2279,1.0224,3.710,-19.740,5.425,387.00,404,411,412,353,2025-06-04T19:50:21.883621
13503,0.0459,0.1976,1.0702,4.970,-22.995,9.590,395.00,413,403,430,348,2025-06-04T19:50:21.883621
13504,-0.0039,0.2059,1.0775,5.740,-32.970,11.585,344.00,422,410,427,368,2025-06-04T19:50:21.883621
13505,-0.0264,0.2469,1.0756,8.785,-45.010,11.025,344.00,394,304,399,368,2025-06-04T19:50:21.884067
13506,0.0166,0.2318,0.9819,6.055,-54.040,13.300,344.00,371,323,397,364,2025-06-04T19:50:21.884067
13507,0.0712,0.2181,0.9560,6.300,-51.625,16.415,383.00,388,340,410,371,2025-06-04T19:50:21.884067
13508,0.0561,0.2137,0.9706,10.570,-51.205,18.585,394.00,400,384,432,384,2025-06-04T19:50:21.884067
13509,0.0508,0.1889,1.0336,9.450,-47.740,18.795,401.00,400,378,356,380,2025-06-04T19:50:21.960823
13510,0.0961,0.1503,1.0209,7.945,-49.595,19.215,365.00,399,414,419,390,2025-06-04T19:50:21.960823
13511,0.1113,0.1469,0.9902,7.875,-47.075,17.780,374.00,415,406,427,389,2025-06-04T19:50:21.960823
13512,0.1498,0.1986,0.9960,15.750,-44.100,16.170,387.00,419,418,430,344,2025-06-04T19:50:21.960823
13513,0.1830,0.2342,0.9828,17.360,-32.585,16.380,367.00,411,396,381,367,2025-06-04T19:50:21.960823
13514,0.1859,0.2538,0.9843,13.475,-27.685,14.630,392.00,382,417,339,383,2025-06-04T19:50:21.960823
13515,0.1752,0.2577,0.9687,9.135,-30.415,12.670,386.00,393,404,288,374,2025-06-04T19:50:22.072259
13516,0.1932,0.2450,0.9682,6.545,-29.470,11.270,343.00,409,402,377,371,2025-06-04T19:50:22.073206
13517,0.2054,0.2274,0.9745,9.765,-28.490,10.815,379.00,407,427,385,368,2025-06-04T19:50:22.073206
13518,0.2142,0.2479,0.9858,10.150,-28.420,10.640,301.00,410,433,398,369,2025-06-04T19:50:22.073206
13519,0.2147,0.2508,0.9765,8.820,-29.785,10.465,370.00,410,445,415,381,2025-06-04T19:50:22.073206
13520,0.2289,0.2772,0.9892,8.610,-30.940,7.735,387.00,419,424,380,384,2025-06-04T19:50:22.073206
13521,0.2167,0.2289,0.9780,2.660,-26.425,9.450,402.00,426,426,358,393,2025-06-04T19:50:22.073206
13522,0.2172,0.2606,0.9687,4.060,-25.585,7.945,407.00,412,423,385,381,2025-06-04T19:50:22.073206
13523,0.2420,0.2552,0.9482,5.705,-24.045,6.370,390.00,378,353,383,343,2025-06-04T19:50:22.073206
13524,0.2679,0.2801,0.9623,1.925,-19.005,5.705,385.00,364,371,334,367,2025-06-04T19:50:22.171018
13525,0.2489,0.2855,0.9731,3.220,-17.290,4.655,400.00,380,295,410,382,2025-06-04T19:50:22.171018
13526,0.2464,0.3026,0.9594,1.330,-16.520,3.920,391.00,398,355,393,386,2025-06-04T19:50:22.171018
13527,0.2635,0.2835,0.9570,-1.680,-14.980,3.570,407.00,412,409,395,381,2025-06-04T19:50:22.171018
13528,0.2572,0.2821,0.9526,-2.975,-14.315,3.500,406.00,418,412,386,373,2025-06-04T19:50:22.171018
13529,0.2523,0.2664,0.9487,-1.505,-12.915,3.780,385.00,414,426,340,385,2025-06-04T19:50:22.171018
13530,0.2503,0.2523,0.9540,-2.065,-12.950,3.535,380.00,418,394,391,395,2025-06-04T19:50:22.171018
13531,0.2513,0.2450,0.9482,-2.660,-14.525,3.430,398.00,424,408,424,366,2025-06-04T19:50:22.171018
13532,0.2518,0.2372,0.9492,-3.080,-12.950,3.290,356.00,417,429,395,366,2025-06-04T19:50:22.300802
13533,0.2445,0.2289,0.9501,-0.560,-11.480,2.905,357.00,380,376,408,340,2025-06-04T19:50:22.300802
13534,0.2367,0.2303,0.9609,-0.315,-9.345,1.715,384.00,398,413,340,360,2025-06-04T19:50:22.300802
13535,0.2372,0.2191,0.9589,-0.840,-7.630,0.630,379.00,407,404,369,365,2025-06-04T19:50:22.300802
13536,0.2381,0.2147,0.9492,-1.120,-5.705,-0.350,393.00,408,423,420,345,2025-06-04T19:50:22.300802
13537,0.2255,0.2133,0.9438,0.490,-2.765,-1.295,392.00,356,430,406,341,2025-06-04T19:50:22.300802
13538,0.2176,0.2181,0.9453,2.940,-2.030,-2.065,396.00,346,419,412,367,2025-06-04T19:50:22.300802
13539,0.2172,0.2269,0.9565,3.290,-1.295,-2.240,392.00,379,428,378,368,2025-06-04T19:50:22.300802
13540,0.2094,0.2445,0.9745,2.660,-2.030,-2.065,399.00,391,414,395,368,2025-06-04T19:50:22.300802
13541,0.2015,0.2562,0.9877,1.400,-3.115,-1.610,363.00,405,418,413,367,2025-06-04T19:50:22.300802
13542,0.2050,0.2640,0.9872,0.455,-4.900,-0.945,372.00,415,423,411,375,2025-06-04T19:50:22.354086
13543,0.1986,0.2650,0.9692,-0.035,-8.645,0.000,381.00,411,417,417,389,2025-06-04T19:50:22.354086
13544,0.2084,0.2669,0.9672,-0.210,-10.955,1.050,376.00,420,345,418,382,2025-06-04T19:50:22.354086
13545,0.2118,0.2591,0.9672,-1.190,-11.970,2.240,405.00,408,369,418,350,2025-06-04T19:50:22.354086
13546,0.2113,0.2547,0.9618,-0.560,-14.070,2.695,414.00,382,405,405,322,2025-06-04T19:50:22.631679
13547,0.2211,0.2396,0.9545,-1.820,-15.960,2.835,376.00,392,427,425,362,2025-06-04T19:50:22.631679
13548,0.2289,0.2328,0.9584,-2.100,-15.820,2.940,354.00,373,424,428,365,2025-06-04T19:50:22.631679
13549,0.2342,0.2362,0.9545,0.315,-14.560,2.835,367.00,386,422,436,370,2025-06-04T19:50:22.632465
13550,0.2391,0.2313,0.9618,0.455,-13.650,2.555,394.00,408,436,445,373,2025-06-04T19:50:22.632465
13551,0.2381,0.2347,0.9584,0.630,-13.300,2.100,397.00,404,438,436,373,2025-06-04T19:50:22.632465
13552,0.2460,0.2323,0.9370,0.560,-12.915,1.680,400.00,383,420,397,373,2025-06-04T19:50:22.632465
13553,0.2489,0.2323,0.9360,1.505,-11.550,1.435,388.00,389,429,420,381,2025-06-04T19:50:22.632465
13554,0.2518,0.2333,0.9453,3.185,-9.870,1.085,394.00,373,428,417,381,2025-06-04T19:50:22.632465
13555,0.2577,0.2406,0.9501,3.010,-9.170,0.735,402.00,400,355,420,349,2025-06-04T19:50:22.632465
13556,0.2552,0.2464,0.9618,1.680,-8.400,0.175,381.00,397,398,350,331,2025-06-04T19:50:22.632465
13557,0.2611,0.2435,0.9599,0.945,-7.490,-0.140,384.00,380,410,366,361,2025-06-04T19:50:22.778773
13558,0.2606,0.2445,0.9565,1.925,-6.300,-0.420,382.00,388,405,412,346,2025-06-04T19:50:22.778773
13559,0.2528,0.2499,0.9579,2.065,-4.655,-0.735,397.00,396,370,421,371,2025-06-04T19:50:22.778773
13560,0.2489,0.2489,0.9550,1.435,-4.655,-0.875,401.00,400,418,436,386,2025-06-04T19:50:22.778773
13561,0.2455,0.2450,0.9531,0.000,-4.865,-1.050,392.00,378,401,423,378,2025-06-04T19:50:22.778773
13562,0.2430,0.2425,0.9550,0.315,-4.200,-1.085,407.00,395,390,408,343,2025-06-04T19:50:22.778773
13563,0.2406,0.2440,0.9628,1.260,-3.955,-1.015,397.00,407,425,407,360,2025-06-04T19:50:22.778773
13564,0.2328,0.2391,0.9633,0.735,-3.640,-1.050,358.00,411,400,398,362,2025-06-04T19:50:22.778773
13565,0.2338,0.2411,0.9643,0.910,-4.725,-1.015,377.00,415,421,423,370,2025-06-04T19:50:22.778773
13566,0.2274,0.2430,0.9648,0.525,-4.690,-0.910,379.00,417,399,406,378,2025-06-04T19:50:22.778773
13567,0.2264,0.2396,0.9599,1.330,-5.110,-0.630,381.00,406,416,362,388,2025-06-04T19:50:22.778773
13568,0.2235,0.2435,0.9599,1.540,-5.635,-0.490,356.00,352,390,396,355,2025-06-04T19:50:22.778773
13569,0.2250,0.2440,0.9589,0.630,-6.475,-0.280,391.00,368,421,396,365,2025-06-04T19:50:22.778773
13570,0.2255,0.2445,0.9618,0.700,-7.315,-0.070,406.00,360,416,396,384,2025-06-04T19:50:22.778773
13571,0.2274,0.2450,0.9628,0.735,-7.770,0.245,391.00,374,425,415,383,2025-06-04T19:50:22.778773
13572,0.2269,0.2469,0.9628,1.120,-8.365,0.315,385.00,387,393,415,375,2025-06-04T19:50:22.778773
13573,0.2333,0.2464,0.9638,0.735,-8.785,0.525,388.00,405,424,432,354,2025-06-04T19:50:22.778773
13574,0.2338,0.2460,0.9594,0.525,-9.135,0.595,385.00,416,411,398,341,2025-06-04T19:50:22.778773
13575,0.2372,0.2445,0.9545,0.560,-9.275,0.595,378.00,414,429,418,374,2025-06-04T19:50:22.778773
13576,0.2440,0.2460,0.9545,0.455,-9.030,0.525,387.00,380,356,354,386,2025-06-04T19:50:22.778773
13577,0.2425,0.2435,0.9550,0.455,-8.715,0.420,396.00,390,372,362,351,2025-06-04T19:50:22.981347
13578,0.2430,0.2401,0.9570,0.490,-8.505,0.315,403.00,393,421,384,339,2025-06-04T19:50:22.981347
13579,0.2460,0.2430,0.9570,0.665,-7.840,0.140,387.00,369,420,348,324,2025-06-04T19:50:22.981688
13580,0.2455,0.2420,0.9560,0.770,-7.315,-0.035,306.00,398,424,338,317,2025-06-04T19:50:22.981688
13581,0.2464,0.2435,0.9575,0.875,-6.720,-0.245,353.00,403,353,403,359,2025-06-04T19:50:22.981688
13582,0.2445,0.2450,0.9550,0.805,-6.475,-0.350,378.00,411,398,414,369,2025-06-04T19:50:22.981688
13583,0.2445,0.2440,0.9545,0.770,-6.160,-0.455,394.00,418,432,420,386,2025-06-04T19:50:22.981688
13584,0.2406,0.2445,0.9560,0.805,-5.915,-0.490,412.00,424,422,422,384,2025-06-04T19:50:22.981688
13585,0.2391,0.2445,0.9584,0.805,-5.810,-0.525,388.00,413,347,411,368,2025-06-04T19:50:22.981688
13586,0.2372,0.2445,0.9599,0.805,-5.880,-0.490,372.00,408,411,411,385,2025-06-04T19:50:22.981688
13587,0.2377,0.2474,0.9584,0.770,-5.985,-0.455,392.00,376,425,426,376,2025-06-04T19:50:22.981688
13588,0.2357,0.2464,0.9589,0.665,-6.160,-0.385,371.00,389,415,418,394,2025-06-04T19:50:22.981688
13589,0.2352,0.2440,0.9614,0.735,-6.335,-0.315,392.00,405,406,437,383,2025-06-04T19:50:22.981688
13590,0.2352,0.2469,0.9565,0.700,-6.755,-0.245,400.00,414,348,362,354,2025-06-04T19:50:22.981688
13591,0.2328,0.2435,0.9609,0.630,-6.825,-0.140,406.00,411,404,414,378,2025-06-04T19:50:22.982684
13592,0.2342,0.2445,0.9614,0.770,-7.070,-0.070,352.00,385,396,426,374,2025-06-04T19:50:22.982684
13593,0.2347,0.2435,0.9570,0.630,-7.280,-0.035,390.00,409,417,399,379,2025-06-04T19:50:22.982684
13594,0.2381,0.2455,0.9609,0.700,-7.490,0.035,375.00,408,420,411,375,2025-06-04T19:50:22.982946
13595,0.2352,0.2469,0.9589,0.595,-7.490,0.105,388.00,412,351,414,389,2025-06-04T19:50:22.982946
13596,0.2386,0.2474,0.9584,0.875,-7.700,0.070,402.00,419,390,433,390,2025-06-04T19:50:22.982946
13597,0.2386,0.2455,0.9570,0.560,-7.595,0.105,400.00,421,429,427,384,2025-06-04T19:50:23.060016
13598,0.2406,0.2440,0.9589,0.735,-7.630,0.105,398.00,425,407,414,388,2025-06-04T19:50:23.060016
13599,0.2416,0.2425,0.9575,0.595,-7.490,0.035,409.00,412,348,436,384,2025-06-04T19:50:23.060016
13600,0.2411,0.2435,0.9579,0.630,-7.350,0.000,347.00,399,420,373,376,2025-06-04T19:50:23.060016
13601,0.2420,0.2445,0.9560,0.665,-7.280,-0.105,392.00,418,421,417,390,2025-06-04T19:50:23.060016
13602,0.2411,0.2435,0.9575,0.665,-7.175,-0.105,393.00,417,415,349,346,2025-06-04T19:50:23.220064
13603,0.2416,0.2420,0.9565,0.630,-6.825,-0.175,404.00,422,409,388,372,2025-06-04T19:50:23.220064
13604,0.2416,0.2460,0.9575,0.630,-6.685,-0.210,392.00,426,433,414,390,2025-06-04T19:50:23.220064
13605,0.2386,0.2455,0.9584,0.665,-6.650,-0.280,408.00,423,403,398,362,2025-06-04T19:50:23.220064
13606,0.2391,0.2445,0.9555,0.630,-6.440,-0.280,393.00,413,420,399,363,2025-06-04T19:50:23.220064
13607,0.2425,0.2479,0.9594,0.840,-6.475,-0.280,389.00,413,409,422,378,2025-06-04T19:50:23.220064
13608,0.2377,0.2440,0.9560,0.455,-6.370,-0.350,382.00,385,403,407,371,2025-06-04T19:50:23.220064
13609,0.2416,0.2489,0.9599,0.840,-6.860,-0.280,401.00,405,424,401,388,2025-06-04T19:50:23.220064
13610,0.2377,0.2425,0.9575,0.420,-6.475,-0.175,392.00,415,349,416,393,2025-06-04T19:50:23.220064
13611,0.2367,0.2474,0.9575,1.015,-7.105,-0.245,383.00,380,369,386,390,2025-06-04T19:50:23.220064
13612,0.2377,0.2455,0.9575,0.560,-6.720,-0.175,400.00,400,351,414,381,2025-06-04T19:50:23.220064
13613,0.2406,0.2460,0.9614,0.525,-7.140,-0.105,400.00,400,383,413,388,2025-06-04T19:50:23.220064
13614,0.2386,0.2425,0.9579,0.630,-7.070,-0.140,350.00,413,413,425,380,2025-06-04T19:50:23.220064
13615,0.2396,0.2455,0.9575,0.525,-7.350,-0.105,394.00,382,428,428,338,2025-06-04T19:50:23.220064
13616,0.2396,0.2450,0.9594,0.875,-7.105,-0.105,385.00,398,418,351,343,2025-06-04T19:50:23.220064
13617,0.2362,0.2440,0.9555,0.525,-7.280,-0.070,379.00,401,408,415,361,2025-06-04T19:50:23.499523
13618,0.2391,0.2450,0.9579,0.595,-6.965,-0.175,377.00,395,413,396,333,2025-06-04T19:50:23.499523
13619,0.2406,0.2460,0.9589,0.770,-6.965,-0.035,376.00,402,409,425,353,2025-06-04T19:50:23.499523
13620,0.2411,0.2460,0.9589,0.700,-7.000,-0.210,376.00,377,404,429,377,2025-06-04T19:50:23.499523
13621,0.2411,0.2445,0.9560,0.595,-7.070,-0.105,401.00,396,416,358,391,2025-06-04T19:50:23.499523
13622,0.2416,0.2460,0.9579,1.015,-7.210,-0.140,412.00,415,422,398,390,2025-06-04T19:50:23.499523
13623,0.2381,0.2503,0.9565,0.280,-7.140,0.000,409.00,410,431,415,385,2025-06-04T19:50:23.499523
13624,0.2445,0.2430,0.9565,0.805,-7.000,-0.175,402.00,419,405,400,375,2025-06-04T19:50:23.499523
13625,0.2391,0.2464,0.9570,0.735,-7.105,-0.175,399.00,415,412,423,375,2025-06-04T19:50:23.499523
13626,0.2396,0.2474,0.9555,0.245,-6.650,-0.140,400.00,385,422,409,373,2025-06-04T19:50:23.499523
13627,0.2401,0.2460,0.9570,0.875,-6.825,-0.280,384.00,405,421,403,341,2025-06-04T19:50:23.499523
13628,0.2396,0.2425,0.9579,0.350,-6.440,-0.280,378.00,378,403,418,355,2025-06-04T19:50:23.499523
13629,0.2411,0.2450,0.9575,0.875,-6.685,-0.175,393.00,384,411,387,362,2025-06-04T19:50:23.499523
13630,0.2357,0.2450,0.9540,0.595,-6.580,-0.210,356.00,368,379,398,377,2025-06-04T19:50:23.500277
13631,0.2411,0.2469,0.9609,1.085,-6.930,-0.245,381.00,388,405,405,380,2025-06-04T19:50:23.500277
13632,0.2381,0.2430,0.9599,0.700,-6.475,-0.105,380.00,407,405,401,382,2025-06-04T19:50:23.500277
13633,0.2381,0.2518,0.9521,0.525,-7.280,-0.175,395.00,408,356,402,312,2025-06-04T19:50:23.500277
13634,0.2406,0.2450,0.9550,0.700,-6.650,-0.245,390.00,375,406,424,313,2025-06-04T19:50:23.633640
13635,0.2372,0.2474,0.9618,0.560,-6.895,-0.105,408.00,403,414,430,319,2025-06-04T19:50:23.633640
13636,0.2386,0.2425,0.9560,0.630,-6.755,-0.210,387.00,392,406,427,357,2025-06-04T19:50:23.633640
13637,0.2406,0.2455,0.9570,0.840,-7.210,-0.105,382.00,410,353,420,371,2025-06-04T19:50:23.633640
13638,0.2381,0.2386,0.9599,0.245,-6.615,-0.245,378.00,404,362,430,380,2025-06-04T19:50:23.633640
13639,0.2411,0.2484,0.9570,1.190,-7.315,-0.105,380.00,411,388,428,383,2025-06-04T19:50:23.633640
13640,0.2381,0.2455,0.9531,0.385,-6.790,-0.140,377.00,406,419,433,377,2025-06-04T19:50:23.633640
13641,0.2411,0.2479,0.9623,0.945,-7.315,-0.105,377.00,407,427,340,335,2025-06-04T19:50:23.633640
13642,0.2396,0.2440,0.9555,0.560,-6.755,-0.245,381.00,418,408,353,356,2025-06-04T19:50:23.633640
13643,0.2455,0.2484,0.9560,0.840,-7.245,-0.105,361.00,404,407,388,344,2025-06-04T19:50:23.634701
13644,0.2372,0.2455,0.9584,0.350,-7.035,-0.140,350.00,404,345,416,366,2025-06-04T19:50:23.634701
13645,0.2420,0.2435,0.9584,0.525,-7.105,-0.070,346.00,403,406,409,379,2025-06-04T19:50:23.634701
13646,0.2381,0.2460,0.9545,0.770,-7.245,-0.210,363.00,411,421,429,388,2025-06-04T19:50:23.634701
