SeqNum,AccX,AccY,AccZ,GyroX,GyroY,GyroZ,Flex,Force1,Force2,Force3,Force4,TimestampReception
1,-0.4250,0.5466,0.8789,-21.490,-64.050,59.570,410,342,200,261,244,2025-05-24T00:20:34.357940
2,-0.1630,0.4524,0.8808,-2.030,-63.210,48.510,404,351,200,278,252,2025-05-24T00:20:34.358013
3,-0.1791,0.4348,0.8999,6.440,-49.490,40.950,379,372,197,285,245,2025-05-24T00:20:34.358028
4,-0.1757,0.4070,0.9121,11.060,-33.880,30.800,367,356,194,289,244,2025-05-24T00:20:34.358037
5,-0.1645,0.3704,0.9252,12.460,-13.790,18.060,398,365,214,288,225,2025-05-24T00:20:34.358045
6,-0.1718,0.3070,0.9248,13.090,9.870,2.450,371,343,221,284,217,2025-05-24T00:20:34.358052
7,-0.1898,0.2181,0.9335,15.050,29.680,-14.000,328,377,212,292,248,2025-05-24T00:20:34.358063
8,-0.2216,0.1557,0.9243,19.180,57.820,-28.280,383,362,217,302,255,2025-05-24T00:20:34.358069
9,-0.3094,0.1688,0.9462,24.080,82.110,-42.210,371,352,220,297,252,2025-05-24T00:20:34.358078
10,-0.4314,0.2494,1.0063,26.600,90.370,-42.560,409,347,219,288,239,2025-05-24T00:20:34.358084
11,-0.5890,0.3440,1.0350,22.260,81.480,-35.140,339,348,217,296,215,2025-05-24T00:20:34.358091
12,-0.8101,0.3562,1.0072,16.030,53.760,-21.420,399,378,204,299,258,2025-05-24T00:20:34.358098
13,-0.4909,0.3284,0.8926,8.680,34.300,7.140,340,325,187,295,256,2025-05-24T00:20:34.358104
14,-0.4050,0.3094,0.7437,5.670,25.900,22.400,400,304,196,305,241,2025-05-24T00:20:34.358111
15,-0.3133,0.3079,0.6193,4.900,17.990,18.270,344,302,211,297,240,2025-05-24T00:20:34.358117
16,-0.2123,0.3309,0.5802,0.700,19.110,6.300,360,310,219,291,253,2025-05-24T00:20:34.358123
17,-0.2103,0.3645,0.5871,-5.670,24.080,1.260,410,377,211,284,253,2025-05-24T00:20:34.358152
18,-0.3138,0.4085,0.6285,-14.210,25.760,2.380,394,365,208,289,210,2025-05-24T00:20:34.358159
19,-0.3987,0.4475,0.6876,-27.510,19.250,5.110,407,298,195,286,258,2025-05-24T00:20:34.463931
20,-0.3714,0.4929,0.7227,-37.940,5.670,9.590,402,368,217,303,246,2025-05-24T00:20:34.463984
21,-0.3450,0.5627,0.7671,-46.690,0.700,10.010,393,299,216,306,253,2025-05-24T00:20:34.464017
22,-0.3294,0.5968,0.8057,-51.940,5.040,5.670,406,358,218,254,252,2025-05-24T00:20:34.464029
23,-0.3362,0.6173,0.8374,-49.350,9.520,2.310,407,364,219,303,240,2025-05-24T00:20:34.464040
24,-0.3919,0.6617,0.8779,-44.310,15.050,0.070,375,360,196,303,252,2025-05-24T00:20:34.464050
25,-0.4548,0.6891,0.9150,-35.210,17.220,-0.350,408,362,211,287,214,2025-05-24T00:20:34.464066
26,-0.4904,0.6720,0.9209,-23.170,11.760,2.870,397,344,205,294,253,2025-05-24T00:20:34.464077
27,-0.4997,0.6417,0.9126,-11.270,2.240,9.310,384,350,217,284,216,2025-05-24T00:20:34.464088
28,-0.4787,0.5729,0.8994,-2.940,-4.900,14.210,375,362,217,271,240,2025-05-24T00:20:34.464103
29,-0.4333,0.4812,0.8555,1.470,-9.800,17.710,349,350,228,292,236,2025-05-24T00:20:34.902922
30,-0.3884,0.4163,0.8115,3.150,-10.850,18.830,393,362,223,298,246,2025-05-24T00:20:34.902992
31,-0.3553,0.3743,0.7842,1.470,-9.310,17.500,407,357,211,251,214,2025-05-24T00:20:34.903005
32,-0.3309,0.3514,0.7823,-2.170,-6.580,15.400,340,349,210,253,252,2025-05-24T00:20:34.903016
33,-0.3177,0.3518,0.7862,-6.300,-3.710,11.480,398,328,214,305,242,2025-05-24T00:20:34.903026
34,-0.3089,0.3611,0.8013,-10.150,-0.560,7.490,388,260,215,255,240,2025-05-24T00:20:34.903036
35,-0.3011,0.3806,0.8213,-12.040,2.520,4.060,294,318,219,291,213,2025-05-24T00:20:34.903050
36,-0.3133,0.4109,0.8545,-13.720,4.690,0.490,312,351,222,282,255,2025-05-24T00:20:34.903060
37,-0.3314,0.4348,0.8882,-14.770,5.740,-1.470,372,354,222,309,216,2025-05-24T00:20:34.903069
38,-0.3484,0.4392,0.9116,-15.820,5.740,-3.220,377,358,214,304,245,2025-05-24T00:20:34.903078
39,-0.3509,0.4314,0.9213,-15.960,5.530,-4.130,383,373,220,293,259,2025-05-24T00:20:34.903087
40,-0.3509,0.4055,0.9150,-13.370,4.760,-4.130,401,353,218,308,217,2025-05-24T00:20:34.903096
41,-0.3401,0.3987,0.9082,-8.260,4.060,-3.920,416,302,218,303,211,2025-05-24T00:20:34.903104
42,-0.3318,0.4085,0.8999,-3.150,3.430,-4.130,384,346,222,267,254,2025-05-24T00:20:34.903118
43,-0.3387,0.4304,0.8906,-0.980,2.310,-5.600,402,370,198,308,253,2025-05-24T00:20:34.903127
44,-0.3523,0.4309,0.8847,-0.700,-0.560,-6.790,394,324,218,272,251,2025-05-24T00:20:34.903177
45,-0.3601,0.4246,0.8735,-1.120,-2.800,-6.650,379,340,222,264,244,2025-05-24T00:20:34.903186
46,-0.3640,0.4080,0.8686,-1.540,-4.130,-5.950,407,344,217,281,247,2025-05-24T00:20:34.903194
47,-0.3640,0.4006,0.8628,-1.820,-4.690,-6.090,407,347,219,252,233,2025-05-24T00:20:34.903203
48,-0.3528,0.3870,0.8594,-2.380,-3.710,-7.420,389,359,214,312,248,2025-05-24T00:20:34.903211
49,-0.3553,0.3753,0.8501,-2.590,-1.820,-10.010,416,330,219,299,218,2025-05-24T00:20:34.903222
50,-0.3704,0.3806,0.8560,-1.540,-0.420,-11.900,352,294,196,307,216,2025-05-24T00:20:35.190265
51,-0.3997,0.3997,0.8647,-1.190,-17.920,-12.670,341,346,192,270,258,2025-05-24T00:20:35.190452
52,-0.4172,0.3933,0.8721,-1.400,-1.820,-10.010,371,340,210,310,257,2025-05-24T00:20:35.190466
53,-0.4333,0.3855,0.8818,-0.420,-4.200,-5.880,395,356,211,291,241,2025-05-24T00:20:35.190507
54,-0.4368,0.3816,0.8872,1.050,-5.950,-0.560,378,358,215,300,262,2025-05-24T00:20:35.190519
55,-0.4250,0.3753,0.8784,2.730,-6.860,1.540,404,317,207,273,245,2025-05-24T00:20:35.190529
56,-0.4187,0.3802,0.8652,4.060,-7.770,1.330,328,342,224,259,257,2025-05-24T00:20:35.190538
57,-0.4070,0.3875,0.8555,5.600,-7.210,0.560,387,345,192,297,261,2025-05-24T00:20:35.190562
58,-0.3948,0.3963,0.8516,7.210,-5.040,0.140,321,332,190,307,254,2025-05-24T00:20:35.190577
59,-0.3943,0.4070,0.8530,8.960,-4.060,-0.840,348,250,213,305,256,2025-05-24T00:20:35.190591
60,-0.3904,0.4231,0.8569,10.150,-3.220,-2.170,396,333,209,291,256,2025-05-24T00:20:35.190604
61,-0.3831,0.4358,0.8579,11.270,-2.240,-3.080,401,289,212,293,249,2025-05-24T00:20:35.190612
62,-0.3904,0.4407,0.8525,12.810,-1.610,-3.080,387,364,215,296,255,2025-05-24T00:20:35.190624
63,-0.3963,0.4416,0.8481,14.630,-2.800,-2.240,391,362,178,299,233,2025-05-24T00:20:35.190632
64,-0.3821,0.4446,0.8418,15.120,-5.180,-1.610,389,342,224,277,218,2025-05-24T00:20:35.190643
65,-0.3645,0.4270,0.8242,14.980,-6.860,-1.540,375,334,218,259,259,2025-05-24T00:20:35.190690
66,-0.3601,0.4133,0.8106,15.190,-8.540,-2.030,317,287,193,312,256,2025-05-24T00:20:35.190700
67,-0.3631,0.4124,0.8008,15.050,-9.800,-3.010,387,357,215,293,242,2025-05-24T00:20:35.190709
68,-0.3611,0.4133,0.7969,13.370,-10.010,-3.920,373,364,216,230,248,2025-05-24T00:20:35.190717
69,-0.3577,0.4163,0.7940,10.640,-8.260,-4.760,332,376,209,287,257,2025-05-24T00:20:35.190726
70,-0.3699,0.4182,0.7886,8.540,-5.180,-6.090,305,354,221,308,249,2025-05-24T00:20:35.190734
71,-0.3860,0.4260,0.7964,7.770,-2.730,-7.000,356,324,218,273,259,2025-05-24T00:20:35.190746
72,-0.3992,0.4333,0.8111,6.370,-1.260,-7.490,387,338,207,289,259,2025-05-24T00:20:35.275664
73,-0.4041,0.4285,0.8208,4.620,-0.700,-7.910,389,336,210,294,260,2025-05-24T00:20:35.275713
74,-0.4104,0.4202,0.8281,4.340,-0.840,-8.820,343,338,223,308,241,2025-05-24T00:20:35.275728
75,-0.4143,0.4197,0.8364,6.230,-0.140,-10.500,378,332,204,305,248,2025-05-24T00:20:35.275740
76,-0.4207,0.4192,0.8462,9.240,1.540,-11.760,396,303,221,259,252,2025-05-24T00:20:35.275751
77,-0.4382,0.4065,0.8560,12.040,2.100,-11.900,409,347,221,291,253,2025-05-24T00:20:35.275761
78,-0.4719,0.4036,0.8647,15.680,-0.560,-12.110,401,362,224,281,244,2025-05-24T00:20:35.275797
79,-0.4763,0.4031,0.8652,18.970,-5.180,-12.460,365,360,212,311,221,2025-05-24T00:20:35.275807
80,-0.4636,0.3967,0.8594,21.420,-7.280,-12.670,376,368,199,289,258,2025-05-24T00:20:35.275817
81,-0.4524,0.3870,0.8535,22.890,-6.300,-14.490,323,334,198,307,257,2025-05-24T00:20:35.275826
82,-0.4524,0.3684,0.8555,25.200,-4.270,-16.380,349,360,218,294,224,2025-05-24T00:20:35.275836
83,-0.4490,0.3572,0.8477,27.580,-0.140,-18.690,389,293,224,282,236,2025-05-24T00:20:35.275845
84,-0.4494,0.3538,0.8447,30.450,4.830,-21.350,397,337,223,299,263,2025-05-24T00:20:35.275855
85,-0.4597,0.3572,0.8408,32.340,7.140,-24.150,391,333,211,311,258,2025-05-24T00:20:35.275868
86,-0.4714,0.3494,0.8330,34.370,7.490,-24.850,404,295,201,311,249,2025-05-24T00:20:35.275880
87,-0.4909,0.3558,0.8281,36.330,4.130,-24.080,392,357,217,256,198,2025-05-24T00:20:35.275924
88,-0.4768,0.3777,0.8169,37.800,-0.630,-22.820,346,327,217,299,243,2025-05-24T00:20:35.275935
89,-0.4514,0.4046,0.8028,37.800,-3.920,-22.610,384,371,221,307,264,2025-05-24T00:20:35.279005
90,-0.4250,0.4363,0.7881,36.750,-5.530,-23.450,375,363,221,291,256,2025-05-24T00:20:35.279034
91,-0.4153,0.4665,0.7725,35.560,-5.880,-24.500,345,285,195,307,258,2025-05-24T00:20:35.279044
92,-0.4128,0.5012,0.7618,35.000,-6.650,-24.290,361,351,203,304,263,2025-05-24T00:20:35.279067
93,-0.4109,0.5431,0.7520,33.740,-9.310,-22.260,389,348,225,302,264,2025-05-24T00:20:35.350441
94,-0.3997,0.5788,0.7393,30.310,-11.970,-19.670,335,356,211,302,267,2025-05-24T00:20:35.350490
95,-0.3582,0.6022,0.7169,26.880,-13.860,-16.800,362,349,220,311,256,2025-05-24T00:20:35.350504
96,-0.3182,0.6154,0.6944,24.500,-13.230,-15.610,354,297,222,305,250,2025-05-24T00:20:35.350518
97,-0.3045,0.6183,0.6798,21.700,-12.460,-16.520,378,362,223,311,252,2025-05-24T00:20:35.350529
98,-0.2967,0.5431,0.6578,17.780,-12.880,-19.740,373,351,219,314,262,2025-05-24T00:20:35.350541
99,-0.2826,0.5129,0.6608,11.900,-10.500,-23.170,403,346,221,301,264,2025-05-24T00:20:35.350571
100,-0.3221,0.5417,0.7022,5.950,-8.400,-23.590,340,311,225,310,232,2025-05-24T00:20:35.350582
101,-0.3714,0.5378,0.7432,-0.700,-8.960,-22.820,377,342,230,297,263,2025-05-24T00:20:35.350594
102,-0.4128,0.5641,0.7886,-5.600,-13.440,-18.130,387,363,225,275,255,2025-05-24T00:20:35.350604
103,-0.4431,0.5734,0.8330,-7.630,-19.180,-11.550,393,364,223,305,222,2025-05-24T00:20:35.350615
104,-0.4416,0.5675,0.8481,-6.160,-21.630,-7.140,331,349,228,278,267,2025-05-24T00:20:35.451553
105,-0.4260,0.5456,0.8520,-3.150,-20.860,-6.580,368,322,210,312,267,2025-05-24T00:20:35.451683
106,-0.4094,0.5031,0.8345,-0.280,-16.940,-7.840,388,350,229,316,264,2025-05-24T00:20:35.451723
107,-0.4065,0.4714,0.8179,1.260,-10.780,-10.150,384,302,202,314,259,2025-05-24T00:20:35.451735
108,-0.4182,0.4538,0.8008,1.820,-6.720,-11.760,380,290,226,279,251,2025-05-24T00:20:35.451746
109,-0.4221,0.4470,0.7871,0.560,-4.200,-12.460,378,365,230,265,264,2025-05-24T00:20:35.451757
110,-0.4207,0.4485,0.7720,-1.050,-1.750,-11.900,380,364,221,299,264,2025-05-24T00:20:35.451774
111,-0.4119,0.4724,0.7627,-3.080,-0.140,-11.900,400,345,225,316,270,2025-05-24T00:20:35.624276
112,-0.3943,0.4890,0.7530,-5.600,2.520,-12.600,388,296,232,305,265,2025-05-24T00:20:35.624327
113,-0.3821,0.4860,0.7437,-7.420,4.270,-12.810,395,347,227,300,253,2025-05-24T00:20:35.624356
114,-0.3904,0.4841,0.7476,-8.400,5.110,-12.390,408,258,233,312,262,2025-05-24T00:20:35.624366
115,-0.4153,0.4797,0.7754,-8.820,3.010,-10.780,356,334,226,301,224,2025-05-24T00:20:35.624374
116,-0.4514,0.4704,0.7945,-10.080,-2.730,-8.820,400,364,232,317,262,2025-05-24T00:20:35.624383
117,-0.4582,0.4641,0.8111,-11.760,-6.860,-6.020,369,347,216,273,223,2025-05-24T00:20:35.624391
118,-0.4675,0.4582,0.8257,-12.670,-7.280,-4.620,389,354,224,315,254,2025-05-24T00:20:35.624399
119,-0.4738,0.4626,0.8350,-11.830,-4.900,-4.130,392,361,217,305,229,2025-05-24T00:20:35.624407
120,-0.4748,0.4621,0.8276,-9.730,-0.420,-3.850,393,341,230,315,259,2025-05-24T00:20:35.624417
121,-0.4763,0.4592,0.8233,-7.070,5.040,-2.870,402,304,221,274,260,2025-05-24T00:20:35.790986
122,-0.4812,0.4675,0.8262,-4.830,8.260,-1.890,347,366,204,267,254,2025-05-24T00:20:35.791030
123,-0.4860,0.4695,0.8223,-2.730,9.520,-1.120,324,359,227,291,260,2025-05-24T00:20:35.791041
124,-0.4885,0.4626,0.8174,-1.190,8.540,-0.420,405,377,227,262,264,2025-05-24T00:20:35.791050
125,-0.4826,0.4651,0.8159,-0.700,6.930,0.490,387,361,227,289,262,2025-05-24T00:20:35.791059
126,-0.4768,0.4573,0.8081,-0.140,6.930,0.980,355,341,186,264,232,2025-05-24T00:20:35.791067
127,-0.4665,0.4534,0.7950,0.000,8.470,0.490,405,362,226,301,251,2025-05-24T00:20:35.791090
128,-0.4577,0.4534,0.7862,0.000,10.500,-0.210,366,363,222,278,236,2025-05-24T00:20:35.791099
129,-0.4543,0.4480,0.7793,0.280,13.020,-0.490,379,292,204,289,259,2025-05-24T00:20:35.791107
130,-0.4597,0.4504,0.7735,0.700,15.120,-0.980,401,355,223,302,252,2025-05-24T00:20:35.791119
131,-0.4665,0.4558,0.7666,0.700,15.680,-0.910,350,347,233,236,262,2025-05-24T00:20:35.791127
132,-0.4646,0.4568,0.7603,0.560,13.930,0.070,380,308,229,311,249,2025-05-24T00:20:35.791135
133,-0.4616,0.4660,0.7564,-0.630,12.180,1.610,327,346,221,295,222,2025-05-24T00:20:35.791142
134,-0.4597,0.4709,0.7593,-2.030,10.990,1.960,372,345,200,302,263,2025-05-24T00:20:35.791156
135,-0.4631,0.4680,0.7608,-3.360,10.290,1.750,377,348,207,310,252,2025-05-24T00:20:35.791163
136,-0.4699,0.4553,0.7647,-4.060,9.380,1.960,352,321,227,292,265,2025-05-24T00:20:35.791209
137,-0.4758,0.4504,0.7706,-3.780,8.960,2.100,370,361,227,308,197,2025-05-24T00:20:35.791222
138,-0.4846,0.4436,0.7696,-3.360,8.750,1.960,368,358,212,298,256,2025-05-24T00:20:35.981687
139,-0.4919,0.4416,0.7666,-2.800,8.750,1.960,390,367,234,310,268,2025-05-24T00:20:35.981732
140,-0.4968,0.4465,0.7696,-2.800,9.170,2.310,376,375,228,295,249,2025-05-24T00:20:35.981744
141,-0.5065,0.4446,0.7652,-3.220,8.540,3.150,374,360,217,302,266,2025-05-24T00:20:35.981754
142,-0.5290,0.4524,0.7754,-3.080,6.720,4.410,393,353,225,313,260,2025-05-24T00:20:35.981782
143,-0.5285,0.4563,0.7774,-2.660,4.340,5.320,389,358,208,268,238,2025-05-24T00:20:35.981791
144,-0.5217,0.4504,0.7632,-2.450,3.080,6.020,377,349,233,298,237,2025-05-24T00:20:35.981800
145,-0.5207,0.4524,0.7642,-1.610,2.730,6.300,360,349,218,308,222,2025-05-24T00:20:35.981808
146,-0.5124,0.4431,0.7549,0.070,3.290,6.370,397,337,230,301,248,2025-05-24T00:20:35.981817
147,-0.5144,0.4451,0.7525,1.750,3.570,6.580,396,359,223,294,252,2025-05-24T00:20:35.981829
148,-0.5178,0.4573,0.7564,2.730,2.380,6.790,371,346,205,294,254,2025-05-24T00:20:35.981838
149,-0.5197,0.4592,0.7608,2.660,-1.610,7.280,327,339,227,292,269,2025-05-24T00:20:35.981849
150,-0.5085,0.4573,0.7676,2.100,-6.650,7.700,304,341,223,319,252,2025-05-24T00:20:35.981861
151,-0.4875,0.4543,0.7784,2.170,-10.010,7.560,346,350,221,306,263,2025-05-24T00:20:35.981869
152,-0.4763,0.4407,0.7891,3.150,-11.550,6.440,386,253,225,308,262,2025-05-24T00:20:35.981876
153,-0.4768,0.4250,0.7925,4.480,-11.760,5.460,387,354,200,322,255,2025-05-24T00:20:35.981917
154,-0.4704,0.4314,0.7935,6.790,-10.080,4.410,374,302,211,297,261,2025-05-24T00:20:35.981925
155,-0.4753,0.4480,0.7901,8.890,-7.700,4.760,386,374,222,303,249,2025-05-24T00:20:35.981934
156,-0.4719,0.4778,0.7823,9.800,-5.180,5.810,378,343,200,304,230,2025-05-24T00:20:35.981946
157,-0.4670,0.4968,0.7715,9.870,-3.710,6.860,314,339,197,308,265,2025-05-24T00:20:36.160126
158,-0.4563,0.5153,0.7662,8.190,-2.240,7.490,352,341,214,301,248,2025-05-24T00:20:36.160170
159,-0.4460,0.5139,0.7481,6.720,-0.560,7.000,385,347,225,312,265,2025-05-24T00:20:36.160181
160,-0.4455,0.5090,0.7359,7.070,0.770,6.370,377,346,205,309,253,2025-05-24T00:20:36.160191
161,-0.4426,0.5158,0.7188,7.770,4.130,5.250,378,315,225,258,264,2025-05-24T00:20:36.160200
162,-0.4534,0.5280,0.7076,6.860,9.730,3.710,388,363,224,262,250,2025-05-24T00:20:36.160209
163,-0.4641,0.5207,0.6920,4.620,15.330,3.080,371,337,222,300,250,2025-05-24T00:20:36.160238
164,-0.4709,0.5114,0.6798,1.820,23.030,3.640,321,357,198,296,245,2025-05-24T00:20:36.160248
165,-0.4929,0.5119,0.6852,-1.680,31.780,4.970,364,304,207,314,201,2025-05-24T00:20:36.160257
166,-0.5139,0.5109,0.6983,-6.720,39.130,6.370,360,337,198,301,260,2025-05-24T00:20:36.160266
167,-0.5373,0.5007,0.7213,-11.690,42.280,8.680,309,359,224,321,268,2025-05-24T00:20:36.160275
168,-0.5412,0.4953,0.7354,-15.890,42.840,11.480,351,367,221,291,253,2025-05-24T00:20:36.160284
169,-0.5612,0.4665,0.7432,-16.030,38.290,14.910,339,370,200,312,239,2025-05-24T00:20:36.160292
170,-0.5661,0.4465,0.7457,-12.880,32.200,17.710,266,348,218,281,246,2025-05-24T00:20:36.160307
171,-0.5490,0.4441,0.7447,-10.640,31.290,18.340,376,324,226,315,247,2025-05-24T00:20:36.160315
172,-0.5412,0.4499,0.7501,-9.870,36.470,18.550,386,360,212,266,264,2025-05-24T00:20:36.430946
173,-0.5353,0.4612,0.7393,-9.240,45.150,18.900,358,355,215,305,257,2025-05-24T00:20:36.430993
174,-0.5490,0.4836,0.7418,-9.450,54.040,17.990,377,349,215,298,254,2025-05-24T00:20:36.431009
175,-0.5807,0.5007,0.7413,-9.870,59.220,17.430,377,354,191,310,264,2025-05-24T00:20:36.431043
176,-0.6900,0.5197,0.7779,-11.970,55.230,16.800,316,351,210,319,259,2025-05-24T00:20:36.431268
177,-0.7130,0.4841,0.7710,-11.550,40.180,24.010,314,342,212,261,258,2025-05-24T00:20:36.431284
178,-0.7086,0.4621,0.7559,-7.350,28.140,34.720,361,350,211,313,255,2025-05-24T00:20:36.431294
179,-0.6690,0.4685,0.7466,-2.450,24.360,38.640,358,351,207,292,233,2025-05-24T00:20:36.431304
180,-0.6364,0.4685,0.7100,1.540,25.760,37.450,265,339,205,310,194,2025-05-24T00:20:36.431313
181,-0.5807,0.5051,0.6715,7.770,29.960,36.540,320,337,209,309,243,2025-05-24T00:20:36.431322
182,-0.6002,0.5407,0.6690,10.570,33.530,35.420,372,349,204,266,264,2025-05-24T00:20:36.431331
183,-0.6383,0.5588,0.6671,11.340,26.320,34.580,324,360,173,289,256,2025-05-24T00:20:36.431340
184,-0.6354,0.5412,0.6637,10.500,12.880,36.610,381,356,213,261,245,2025-05-24T00:20:36.431348
185,-0.5729,0.4963,0.6534,10.710,0.420,43.190,351,351,182,307,242,2025-05-24T00:20:36.431357
186,-0.5104,0.4797,0.6486,14.280,-5.880,45.500,357,336,187,308,262,2025-05-24T00:20:36.431365
187,-0.4221,0.4885,0.6339,19.040,-6.370,41.300,361,343,185,298,247,2025-05-24T00:20:36.431406
188,-0.3889,0.5222,0.6368,22.330,-1.820,34.860,373,358,215,287,247,2025-05-24T00:20:36.431419
189,-0.3924,0.5617,0.6661,21.630,6.230,26.320,339,332,192,300,246,2025-05-24T00:20:36.617895
190,-0.4416,0.5700,0.6871,18.760,9.660,21.490,303,340,210,271,233,2025-05-24T00:20:36.617955
191,-0.4753,0.5597,0.6974,16.170,9.870,23.030,360,323,205,296,257,2025-05-24T00:20:36.617970
192,-0.4709,0.5270,0.6954,15.890,8.680,27.300,386,355,211,256,220,2025-05-24T00:20:36.617982
193,-0.4402,0.5173,0.6837,16.450,6.230,26.460,387,344,213,303,251,2025-05-24T00:20:36.617994
194,-0.3694,0.5114,0.6515,17.080,8.330,22.680,387,344,207,308,245,2025-05-24T00:20:36.618005
195,-0.3089,0.4978,0.6490,17.500,15.190,17.640,379,339,213,294,251,2025-05-24T00:20:36.618016
196,-0.3343,0.5080,0.6564,18.480,20.650,12.390,360,362,206,309,256,2025-05-24T00:20:36.618027
197,-0.3279,0.5466,0.6334,20.720,22.960,4.830,362,316,190,284,196,2025-05-24T00:20:36.618039
198,-0.3113,0.6007,0.6159,20.510,21.630,-2.100,308,357,202,309,246,2025-05-24T00:20:36.618071
199,-0.3167,0.6588,0.6193,15.680,18.690,-10.010,374,347,208,320,262,2025-05-24T00:20:36.618082
200,-0.3187,0.6256,0.6090,10.290,14.770,-16.030,359,351,208,315,247,2025-05-24T00:20:36.618092
201,-0.4075,0.6022,0.6515,7.840,10.710,-19.740,376,358,202,298,250,2025-05-24T00:20:36.840762
202,-0.4353,0.5978,0.6554,8.610,10.850,-24.010,333,328,216,262,257,2025-05-24T00:20:36.840785
203,-0.4407,0.6002,0.6583,10.710,21.630,-28.350,313,338,217,298,264,2025-05-24T00:20:36.840793
204,-0.4987,0.6300,0.6564,10.360,40.040,-37.310,375,340,205,295,248,2025-05-24T00:20:36.840853
205,-0.5651,0.6393,0.6051,11.340,55.370,-45.780,390,336,210,310,256,2025-05-24T00:20:36.840860
206,-0.6944,0.6295,0.5910,15.050,65.100,-48.860,326,360,216,317,254,2025-05-24T00:20:36.884771
207,-0.8823,0.6217,0.5919,18.690,55.440,-47.320,310,341,211,290,260,2025-05-24T00:20:36.884818
208,-1.0199,0.6217,0.5978,18.760,32.970,-41.160,339,335,204,271,257,2025-05-24T00:20:36.884846
209,-1.0424,0.6525,0.5983,14.210,13.230,-32.270,360,311,216,277,264,2025-05-24T00:20:36.884857
210,-1.0385,0.6832,0.6276,7.000,4.760,-22.890,367,349,218,298,255,2025-05-24T00:20:36.884868
211,-1.0629,0.6559,0.6407,4.340,4.130,-15.400,378,367,217,311,252,2025-05-24T00:20:36.884878
212,-1.0668,0.6403,0.6593,2.030,8.820,-9.660,373,333,188,280,262,2025-05-24T00:20:36.884889
213,-1.0702,0.5910,0.5983,5.110,18.970,-6.230,329,347,212,312,224,2025-05-24T00:20:36.884899
214,-1.0297,0.5680,0.5431,15.540,33.110,-3.850,320,310,215,259,250,2025-05-24T00:20:36.884909
215,-0.9687,0.5895,0.5109,18.410,59.360,-6.860,370,364,205,291,241,2025-05-24T00:20:36.884923
216,-0.9311,0.5797,0.4675,17.850,97.580,-13.860,370,344,209,306,215,2025-05-24T00:20:36.884932
217,-1.0282,0.6276,0.5153,12.670,126.140,-21.000,360,368,185,255,240,2025-05-24T00:20:36.884941
218,-1.1566,0.6515,0.5934,2.660,143.220,-21.770,383,339,209,284,189,2025-05-24T00:20:36.884950
219,-1.1976,0.6476,0.6207,-9.170,140.840,-14.350,350,360,202,304,218,2025-05-24T00:20:36.884959
220,-1.1312,0.6232,0.6037,-20.650,138.600,0.630,337,342,205,302,238,2025-05-24T00:20:36.885004
221,-1.0624,0.6027,0.5773,-20.930,138.740,16.170,355,345,199,247,249,2025-05-24T00:20:36.885014
222,-1.0463,0.6080,0.5690,-13.720,137.480,24.920,361,333,199,283,236,2025-05-24T00:20:36.885027
223,-0.9892,0.6149,0.5358,-2.310,136.220,26.600,373,341,198,267,240,2025-05-24T00:20:36.885036
224,-0.9033,0.6451,0.5051,5.110,141.680,24.080,351,284,207,287,243,2025-05-24T00:20:36.980161
225,-0.8613,0.6895,0.4719,4.270,157.220,22.610,364,318,201,279,241,2025-05-24T00:20:36.980205
226,-0.8579,0.6944,0.4089,-1.610,179.340,22.680,298,339,208,289,231,2025-05-24T00:20:36.980217
227,-0.8721,0.6886,0.3528,-7.980,195.440,27.160,354,332,191,281,242,2025-05-24T00:20:36.980227
228,-0.8882,0.6715,0.3333,-12.460,196.140,34.930,350,351,206,294,243,2025-05-24T00:20:36.980236
229,-0.8930,0.6622,0.3089,-13.370,176.610,40.740,365,320,210,304,243,2025-05-24T00:20:36.980261
230,-0.7896,0.6730,0.2743,-12.600,154.910,44.870,379,324,185,243,206,2025-05-24T00:20:36.980275
231,-0.6920,0.6954,0.2367,-11.830,143.150,44.590,367,338,183,299,240,2025-05-24T00:20:36.980283
232,-0.6593,0.7100,0.2128,-11.480,134.890,39.830,332,314,204,297,240,2025-05-24T00:20:36.980291
233,-0.6295,0.7183,0.1928,-10.640,126.490,39.480,342,350,201,285,244,2025-05-24T00:20:36.980299
234,-0.6647,0.7242,0.1810,-13.230,120.820,38.570,353,325,208,267,234,2025-05-24T00:20:36.980308
235,-0.6837,0.7159,0.1684,-15.610,109.130,39.620,372,354,211,282,204,2025-05-24T00:20:36.980316
236,-0.7013,0.6978,0.1474,-18.340,96.460,40.110,358,340,176,264,231,2025-05-24T00:20:36.980327
237,-0.7340,0.6974,0.1557,-20.090,85.750,36.400,364,352,199,269,237,2025-05-24T00:20:36.980335
238,-0.7374,0.6988,0.1762,-22.540,75.880,32.970,360,341,202,292,244,2025-05-24T00:20:36.980373
239,-0.7130,0.6993,0.1786,-24.710,64.820,30.730,257,327,175,265,241,2025-05-24T00:20:36.980382
240,-0.6944,0.6964,0.1718,-26.040,58.590,28.630,339,274,176,282,244,2025-05-24T00:20:37.184873
241,-0.6988,0.6983,0.1610,-25.130,54.390,24.850,306,337,172,270,239,2025-05-24T00:20:37.184943
242,-0.6983,0.6954,0.1464,-22.260,49.280,21.770,283,320,195,256,213,2025-05-24T00:20:37.184957
243,-0.7218,0.6949,0.1366,-19.670,45.850,19.810,364,329,196,263,243,2025-05-24T00:20:37.184972
244,-0.7476,0.6730,0.1249,-18.690,40.390,18.200,366,354,205,290,234,2025-05-24T00:20:37.184983
245,-0.7735,0.6471,0.1098,-17.780,34.370,18.130,367,268,192,276,244,2025-05-24T00:20:37.184994
246,-0.7954,0.6085,0.0952,-16.030,28.840,16.030,339,339,191,244,232,2025-05-24T00:20:37.185004
247,-0.7813,0.5797,0.0795,-13.090,25.130,15.610,336,240,195,283,232,2025-05-24T00:20:37.185014
248,-0.7486,0.5612,0.0698,-10.640,28.140,17.150,296,339,191,290,207,2025-05-24T00:20:37.185025
249,-0.7344,0.5378,0.0517,-10.850,35.210,17.640,334,340,198,281,227,2025-05-24T00:20:37.185035
250,-0.7135,0.5251,0.0356,-11.060,41.510,17.990,322,325,202,294,248,2025-05-24T00:20:37.185049
251,-0.6847,0.5290,0.0224,-12.180,47.110,20.160,304,342,198,290,245,2025-05-24T00:20:37.185058
252,-0.6778,0.5510,0.0102,-14.210,52.500,21.420,355,345,202,292,220,2025-05-24T00:20:37.185067
253,-0.6842,0.5602,-0.0088,-16.310,52.710,21.560,374,315,198,293,229,2025-05-24T00:20:37.185080
254,-0.6993,0.5783,-0.0342,-17.850,50.120,22.750,363,336,174,268,246,2025-05-24T00:20:37.185126
255,-0.6852,0.6120,-0.0444,-18.830,46.550,25.480,366,276,183,288,236,2025-05-24T00:20:37.185136
256,-0.6695,0.6315,-0.0576,-19.530,44.450,27.580,370,324,196,291,242,2025-05-24T00:20:37.185146
257,-0.6466,0.6359,-0.0595,-21.770,42.280,29.120,365,346,200,298,232,2025-05-24T00:20:37.425159
258,-0.6139,0.6451,-0.0464,-23.310,41.230,30.590,326,319,196,263,232,2025-05-24T00:20:37.425213
259,-0.6017,0.6525,-0.0337,-25.410,39.620,32.270,362,281,196,288,250,2025-05-24T00:20:37.425228
260,-0.5968,0.6495,-0.0185,-26.880,33.950,32.340,361,344,193,285,206,2025-05-24T00:20:37.425241
261,-0.5871,0.6446,-0.0171,-26.390,24.220,31.290,369,332,198,256,244,2025-05-24T00:20:37.425252
262,-0.5500,0.6476,-0.0146,-23.940,14.350,29.050,341,340,187,241,247,2025-05-24T00:20:37.425627
263,-0.5339,0.6368,-0.0268,-19.740,7.490,24.850,331,278,194,285,244,2025-05-24T00:20:37.425641
264,-0.5148,0.6320,-0.0351,-12.740,6.510,21.420,320,305,199,291,207,2025-05-24T00:20:37.425666
265,-0.5036,0.6300,-0.0395,-7.490,10.570,18.760,328,241,174,282,243,2025-05-24T00:20:37.425677
266,-0.5041,0.6227,-0.0439,-5.250,19.460,16.730,362,345,179,285,212,2025-05-24T00:20:37.425687
267,-0.5061,0.6149,-0.0337,-6.300,28.140,16.800,372,328,204,277,251,2025-05-24T00:20:37.425697
268,-0.5378,0.6320,-0.0351,-11.690,35.700,16.590,367,344,200,287,251,2025-05-24T00:20:37.425706
269,-0.5427,0.6564,-0.0434,-17.290,39.060,15.330,287,348,195,293,249,2025-05-24T00:20:37.425716
270,-0.5622,0.6612,-0.0634,-23.030,37.380,13.580,345,339,202,279,233,2025-05-24T00:20:37.425725
271,-0.5636,0.6759,-0.0874,-23.030,35.000,11.970,359,352,183,279,247,2025-05-24T00:20:37.425777
272,-0.5285,0.6920,-0.1108,-18.690,35.140,13.230,286,340,191,299,235,2025-05-24T00:20:37.425788
273,-0.5119,0.7003,-0.1249,-12.950,40.250,15.330,340,343,175,289,235,2025-05-24T00:20:37.425798
274,-0.4953,0.7266,-0.1264,-13.020,50.680,17.010,357,331,200,282,251,2025-05-24T00:20:37.425807
275,-0.5148,0.7369,-0.1342,-18.760,63.490,18.550,364,347,193,281,235,2025-05-24T00:20:37.425816
276,-0.5519,0.7442,-0.1396,-25.130,70.700,20.720,344,347,203,295,250,2025-05-24T00:20:37.425831
277,-0.5832,0.7510,-0.1479,-33.810,71.820,24.780,362,336,201,255,237,2025-05-24T00:20:37.593096
278,-0.6012,0.7505,-0.1562,-41.930,67.900,27.860,347,314,191,278,247,2025-05-24T00:20:37.593147
279,-0.5958,0.7540,-0.1586,-45.850,58.240,30.940,334,289,206,296,188,2025-05-24T00:20:37.593162
280,-0.5480,0.7686,-0.1562,-46.340,51.520,35.210,291,331,207,284,238,2025-05-24T00:20:37.593173
281,-0.4963,0.7823,-0.1479,-45.850,49.490,39.200,325,278,207,282,248,2025-05-24T00:20:37.593184
282,-0.4753,0.7852,-0.1342,-45.920,50.540,40.880,359,325,200,280,251,2025-05-24T00:20:37.593195
283,-0.4670,0.8018,-0.1157,-47.180,51.940,42.350,346,358,183,293,245,2025-05-24T00:20:37.593205
284,-0.4895,0.8174,-0.1015,-50.260,51.940,42.910,333,275,210,250,255,2025-05-24T00:20:37.593215
285,-0.5002,0.8276,-0.0961,-54.810,50.260,41.720,344,279,206,299,207,2025-05-24T00:20:37.593225
286,-0.5100,0.8252,-0.0727,-58.660,45.360,39.620,346,296,201,245,241,2025-05-24T00:20:37.593250
287,-0.5183,0.8213,-0.0581,-58.240,36.120,37.520,368,343,201,291,240,2025-05-24T00:20:37.593261
288,-0.5080,0.8145,-0.0547,-53.550,26.950,34.580,302,334,182,283,247,2025-05-24T00:20:37.593270
289,-0.4802,0.8276,-0.0429,-49.140,21.000,31.430,356,337,194,280,223,2025-05-24T00:20:37.593280
290,-0.4538,0.8345,-0.0229,-42.770,0.420,29.960,347,323,198,284,248,2025-05-24T00:20:37.593290
291,-0.4607,0.8306,-0.0146,-38.360,15.680,27.790,367,348,161,285,207,2025-05-24T00:20:37.863814
292,-0.4797,0.8345,-0.0083,-34.020,12.740,25.200,337,275,202,291,232,2025-05-24T00:20:37.863860
293,-0.4909,0.8364,-0.0068,-30.100,7.700,20.580,368,349,191,291,240,2025-05-24T00:20:37.863886
294,-0.4846,0.8428,-0.0083,-27.650,4.830,17.010,370,358,192,293,234,2025-05-24T00:20:37.863897
295,-0.4826,0.8394,-0.0239,-24.920,2.310,14.700,367,344,191,278,245,2025-05-24T00:20:37.863908
296,-0.4758,0.8320,-0.0322,-21.840,0.910,10.920,365,323,198,249,244,2025-05-24T00:20:37.863922
297,-0.4612,0.8223,-0.0390,-17.710,0.560,7.910,344,348,195,289,232,2025-05-24T00:20:37.863932
298,-0.4626,0.8003,-0.0517,-14.070,1.190,5.740,307,329,175,284,211,2025-05-24T00:20:37.863941
299,-0.4724,0.7906,-0.0600,-11.270,1.400,3.500,338,349,198,278,210,2025-05-24T00:20:37.863950
300,-0.4963,0.8013,-0.0669,-11.410,0.420,2.730,342,346,208,275,240,2025-05-24T00:20:37.863964
301,-0.5051,0.8306,-0.0761,-14.560,-2.240,2.520,341,321,184,245,234,2025-05-24T00:20:37.863973
302,-0.5168,0.8306,-0.0956,-18.480,-6.440,0.070,364,328,223,282,208,2025-05-24T00:20:37.863982
303,-0.5266,0.8272,-0.1225,-17.150,-13.580,-0.840,299,314,206,294,216,2025-05-24T00:20:37.863991
304,-0.5158,0.8325,-0.1288,-11.550,-18.900,-0.070,247,346,217,289,239,2025-05-24T00:20:37.864000
305,-0.5104,0.8428,-0.1244,-6.440,-22.890,0.140,327,348,219,282,251,2025-05-24T00:20:37.864039
306,-0.4875,0.8530,-0.1088,-4.690,-26.670,-0.840,326,279,218,284,235,2025-05-24T00:20:37.864049
307,-0.4826,0.8462,-0.1039,-6.370,-28.210,-1.330,334,342,212,281,234,2025-05-24T00:20:37.864061
308,-0.4807,0.8438,-0.0917,-8.470,-27.720,-1.540,349,317,215,280,247,2025-05-24T00:20:38.049543
309,-0.4836,0.8418,-0.0830,-10.570,-25.270,-0.210,328,320,171,277,244,2025-05-24T00:20:38.049608
310,-0.4992,0.8272,-0.0776,-10.220,-24.150,1.050,363,327,214,259,237,2025-05-24T00:20:38.049628
311,-0.4914,0.8130,-0.0644,-7.980,-25.830,2.940,360,339,210,289,246,2025-05-24T00:20:38.049645
312,-0.4846,0.8047,-0.0537,-2.800,-27.930,4.200,338,239,213,284,217,2025-05-24T00:20:38.049661
313,-0.4753,0.8120,-0.0390,2.660,-30.940,4.900,364,317,217,290,234,2025-05-24T00:20:38.049695
314,-0.4612,0.8184,-0.0190,5.670,-35.280,4.760,350,333,212,283,228,2025-05-24T00:20:38.049716
315,-0.4543,0.8198,-0.0146,6.090,-39.970,3.640,362,311,209,292,216,2025-05-24T00:20:38.049731
316,-0.4397,0.8272,-0.0200,5.810,-41.860,3.710,359,321,220,249,247,2025-05-24T00:20:38.049751
317,-0.4270,0.8369,-0.0185,6.020,-41.370,3.430,348,273,216,296,248,2025-05-24T00:20:38.049766
318,-0.4182,0.8447,-0.0190,6.580,-40.320,1.820,252,339,208,255,237,2025-05-24T00:20:38.049780
319,-0.4275,0.8379,-0.0234,7.560,-40.320,-0.210,327,319,217,295,242,2025-05-24T00:20:38.049794
320,-0.4290,0.8457,-0.0190,9.660,-42.070,-1.470,359,336,202,288,227,2025-05-24T00:20:38.049814
321,-0.4285,0.8496,-0.0185,12.110,-45.920,-2.660,367,339,212,289,249,2025-05-24T00:20:38.049833
322,-0.4207,0.8457,-0.0161,14.140,-50.120,-4.900,307,334,214,269,250,2025-05-24T00:20:38.049895
323,-0.4036,0.8452,-0.0044,17.010,-52.850,-7.000,345,329,216,275,208,2025-05-24T00:20:38.049910
324,-0.4036,0.8335,0.0020,17.850,-54.600,-8.470,320,327,187,227,228,2025-05-24T00:20:38.049925
325,-0.4089,0.8154,0.0088,18.760,-54.740,-10.430,364,320,191,263,237,2025-05-24T00:20:38.223598
326,-0.4070,0.7935,0.0176,20.440,-54.110,-10.990,344,343,209,288,249,2025-05-24T00:20:38.223653
327,-0.3967,0.7974,0.0244,22.190,-51.520,-11.130,361,268,225,247,234,2025-05-24T00:20:38.223669
328,-0.3972,0.8150,0.0298,24.080,-48.930,-12.390,341,272,218,252,238,2025-05-24T00:20:38.223697
329,-0.4026,0.8330,0.0327,27.020,-48.230,-14.630,297,321,219,304,227,2025-05-24T00:20:38.223709
330,-0.4216,0.8584,0.0386,28.560,-47.390,-16.520,359,322,195,289,247,2025-05-24T00:20:38.223720
331,-0.4421,0.8750,0.0395,29.610,-47.670,-17.920,357,321,213,249,237,2025-05-24T00:20:38.223731
332,-0.4534,0.8872,0.0405,30.240,-48.790,-19.110,339,336,205,296,213,2025-05-24T00:20:38.223741
333,-0.4616,0.8847,0.0410,30.380,-48.440,-19.390,355,326,214,254,252,2025-05-24T00:20:38.223751
334,-0.4607,0.8955,0.0522,30.170,-47.530,-19.530,322,328,215,297,250,2025-05-24T00:20:38.223767
335,-0.4709,0.9101,0.0586,30.380,-46.900,-20.580,352,341,213,281,252,2025-05-24T00:20:38.223781
336,-0.4612,0.9511,0.0737,32.900,-46.130,-22.190,363,318,212,288,251,2025-05-24T00:20:38.223791
337,-0.4665,0.9360,0.0795,37.030,-44.940,-26.460,339,340,214,256,252,2025-05-24T00:20:38.223801
338,-0.4768,0.9082,0.1000,41.510,-44.730,-32.970,348,275,190,290,251,2025-05-24T00:20:38.223811
339,-0.4836,0.8808,0.1200,43.190,-42.000,-36.960,357,332,204,309,241,2025-05-24T00:20:38.223860
340,-0.4953,0.8633,0.1401,41.650,-35.910,-38.710,366,287,191,294,251,2025-05-24T00:20:38.223872
341,-0.4992,0.8560,0.1630,38.920,-29.470,-39.270,288,317,214,306,246,2025-05-24T00:20:38.223882
342,-0.5261,0.8672,0.1869,37.170,-25.900,-38.780,360,308,208,299,211,2025-05-24T00:20:38.223896
343,-0.5544,0.8823,0.2098,36.680,-23.520,-40.110,360,288,225,254,229,2025-05-24T00:20:38.223906
344,-0.5793,0.8974,0.2157,36.470,-24.220,-42.000,366,281,221,304,244,2025-05-24T00:20:38.317862
345,-0.6110,0.9101,0.2206,35.350,-25.830,-43.540,352,302,223,286,258,2025-05-24T00:20:38.317911
346,-0.6407,0.9052,0.2240,33.600,-27.580,-44.450,369,275,221,293,245,2025-05-24T00:20:38.317924
347,-0.6783,0.8886,0.2313,31.570,-30.380,-45.080,289,328,222,310,250,2025-05-24T00:20:38.318139
348,-0.7071,0.8706,0.2406,28.420,-33.880,-44.450,339,332,223,289,249,2025-05-24T00:20:38.318292
349,-0.7188,0.8530,0.2401,24.360,-35.490,-41.930,346,283,211,262,231,2025-05-24T00:20:38.318341
350,-0.7291,0.8394,0.2372,19.600,-36.610,-39.340,355,268,180,270,216,2025-05-24T00:20:38.318353
351,-0.7330,0.8276,0.2338,14.840,-36.960,-35.630,329,314,220,307,246,2025-05-24T00:20:38.577898
352,-0.7130,0.8203,0.2347,10.430,-36.610,-30.590,363,337,215,300,250,2025-05-24T00:20:38.577945
353,-0.6827,0.8145,0.2318,6.160,-35.980,-25.830,359,343,213,292,248,2025-05-24T00:20:38.577958
354,-0.6339,0.8052,0.2289,2.380,-35.280,-22.680,361,341,223,251,252,2025-05-24T00:20:38.577969
355,-0.5685,0.7910,0.2211,0.350,-33.390,-20.440,376,279,212,290,249,2025-05-24T00:20:38.577978
356,-0.4963,0.7779,0.2069,-0.210,-29.470,-20.090,368,238,224,277,242,2025-05-24T00:20:38.577988
357,-0.4514,0.7671,0.1937,0.910,-25.410,-20.790,350,307,221,307,216,2025-05-24T00:20:38.577999
358,-0.4324,0.7681,0.1845,1.750,-20.370,-21.700,291,336,224,310,242,2025-05-24T00:20:38.578008
359,-0.4353,0.7730,0.1796,0.910,-16.170,-23.100,366,344,215,298,241,2025-05-24T00:20:38.578017
360,-0.4607,0.7793,0.1664,-1.960,-13.230,-25.970,356,293,222,306,225,2025-05-24T00:20:38.578026
361,-0.4870,0.7925,0.1581,-4.830,-12.110,-28.350,370,307,219,285,240,2025-05-24T00:20:38.578034
362,-0.5202,0.8042,0.1430,-6.020,-10.920,-29.190,302,345,213,299,239,2025-05-24T00:20:38.578043
363,-0.5602,0.8023,0.1230,-5.600,-9.800,-29.050,339,343,212,298,258,2025-05-24T00:20:38.578052
364,-0.6095,0.7935,0.1005,-3.710,-9.240,-28.770,352,345,215,300,253,2025-05-24T00:20:38.578061
365,-0.6632,0.7915,0.0830,-2.450,-9.380,-27.720,341,344,210,262,223,2025-05-24T00:20:38.578104
366,-0.7144,0.7891,0.0717,-3.010,-8.120,-25.970,287,322,215,293,211,2025-05-24T00:20:38.578114
367,-0.7769,0.7793,0.0537,-3.710,-7.980,-23.940,284,292,219,302,217,2025-05-24T00:20:38.578122
368,-0.8364,0.7666,0.0395,-3.850,-9.450,-20.300,366,341,216,306,247,2025-05-24T00:20:38.578130
369,-0.8682,0.7540,0.0322,-4.690,-12.180,-16.870,342,292,213,300,236,2025-05-24T00:20:38.578139
370,-0.8769,0.7525,0.0303,-7.140,-15.470,-12.180,349,323,223,300,254,2025-05-24T00:20:38.578147
371,-0.8501,0.7510,0.0283,-9.450,-17.710,-6.720,367,308,224,305,245,2025-05-24T00:20:38.670454
372,-0.8037,0.7491,0.0464,-10.780,-17.710,-1.680,352,352,221,260,251,2025-05-24T00:20:38.670497
373,-0.7618,0.7408,0.0615,-10.850,-16.450,1.540,336,312,225,300,246,2025-05-24T00:20:38.670508
374,-0.7271,0.7344,0.0752,-9.520,-15.400,3.850,322,330,226,276,248,2025-05-24T00:20:38.670519
375,-0.7037,0.7335,0.0839,-7.630,-14.630,5.110,361,311,224,277,217,2025-05-24T00:20:38.670527
376,-0.6622,0.7408,0.0981,-6.720,-13.580,5.250,366,341,227,300,257,2025-05-24T00:20:38.670535
377,-0.6256,0.7379,0.1005,-7.000,-11.270,3.710,365,338,227,291,240,2025-05-24T00:20:38.670543
378,-0.5968,0.7359,0.1049,-7.630,-8.610,2.170,370,275,218,305,240,2025-05-24T00:20:38.849953
379,-0.5734,0.7261,0.0996,-8.400,-6.020,0.770,366,275,220,257,250,2025-05-24T00:20:38.850005
380,-0.5680,0.7183,0.0961,-8.960,-4.200,-1.470,339,338,198,276,232,2025-05-24T00:20:38.850021
381,-0.5632,0.7144,0.0996,-9.100,-2.450,-3.290,342,328,209,306,252,2025-05-24T00:20:38.850033
382,-0.5671,0.7037,0.0956,-9.100,-1.610,-6.020,321,341,219,307,257,2025-05-24T00:20:38.850045
383,-0.5841,0.6949,0.0913,-8.680,-1.400,-8.820,326,326,223,298,228,2025-05-24T00:20:38.850055
384,-0.6076,0.6891,0.0937,-6.930,-2.100,-10.990,328,291,222,299,245,2025-05-24T00:20:38.850066
385,-0.6324,0.6817,0.1000,-5.320,-3.570,-13.090,365,320,227,293,254,2025-05-24T00:20:38.850078
386,-0.6637,0.6739,0.0986,-3.500,-6.650,-14.770,365,330,183,286,238,2025-05-24T00:20:38.850088
387,-0.6876,0.6651,0.1010,-1.890,-8.680,-15.750,364,306,230,299,253,2025-05-24T00:20:38.850100
388,-0.7125,0.6534,0.1030,-0.280,-9.380,-16.870,331,342,199,303,260,2025-05-24T00:20:38.850111
389,-0.7300,0.6407,0.1074,1.960,-9.310,-17.010,374,275,225,304,227,2025-05-24T00:20:38.850121
390,-0.7466,0.6285,0.1078,4.410,-7.560,-17.010,341,335,231,298,218,2025-05-24T00:20:38.850133
391,-0.7662,0.6232,0.1161,6.790,-5.530,-15.820,325,269,231,295,215,2025-05-24T00:20:38.850143
392,-0.7871,0.6168,0.1220,9.100,-4.480,-14.700,353,318,200,290,247,2025-05-24T00:20:38.850154
393,-0.7915,0.6144,0.1303,10.710,-3.780,-12.740,366,349,227,297,217,2025-05-24T00:20:39.034501
394,-0.7881,0.6110,0.1484,11.900,-3.010,-11.130,349,335,225,301,244,2025-05-24T00:20:39.034549
395,-0.7784,0.6066,0.1596,12.530,-3.010,-9.590,366,346,211,302,247,2025-05-24T00:20:39.034561
396,-0.7608,0.6061,0.1752,13.160,-3.080,-8.050,337,338,222,306,247,2025-05-24T00:20:39.034572
397,-0.7544,0.6066,0.1884,14.490,-3.150,-7.210,340,309,218,314,263,2025-05-24T00:20:39.034582
398,-0.7481,0.6198,0.2079,16.030,-3.640,-6.930,338,335,230,299,213,2025-05-24T00:20:39.034592
399,-0.7652,0.6246,0.2211,18.270,-6.090,-7.630,338,331,219,290,247,2025-05-24T00:20:39.034601
400,-0.7891,0.6232,0.2401,20.370,-11.130,-8.470,355,331,216,266,246,2025-05-24T00:20:39.034612
401,-0.8013,0.6256,0.2567,23.170,-15.960,-9.170,327,318,227,287,244,2025-05-24T00:20:39.034622
402,-0.7993,0.6251,0.2674,25.620,-21.840,-10.220,365,345,223,253,252,2025-05-24T00:20:39.034631
403,-0.7847,0.6266,0.2713,27.440,-24.710,-11.130,367,277,225,295,254,2025-05-24T00:20:39.034640
404,-0.7745,0.6271,0.2684,28.700,-24.850,-11.060,347,316,203,299,246,2025-05-24T00:20:39.034649
405,-0.7637,0.6310,0.2616,27.930,-21.140,-10.710,339,272,199,306,258,2025-05-24T00:20:39.034657
406,-0.7637,0.6354,0.2523,26.810,-16.380,-9.800,358,334,231,291,241,2025-05-24T00:20:39.034669
407,-0.7730,0.6403,0.2391,25.130,-13.510,-8.680,362,323,230,260,253,2025-05-24T00:20:39.034709
408,-0.7871,0.6427,0.2220,24.430,-12.180,-7.700,352,327,226,309,253,2025-05-24T00:20:39.034719
409,-0.7828,0.6568,0.2098,24.640,-14.280,-6.090,358,327,218,269,247,2025-05-24T00:20:39.034727
410,-0.7393,0.6842,0.2069,23.800,-14.560,-4.130,335,337,227,289,249,2025-05-24T00:20:39.034736
411,-0.7008,0.7100,0.1947,22.540,-11.900,-3.990,288,282,225,302,218,2025-05-24T00:20:39.229451
412,-0.6817,0.7305,0.1884,21.910,-10.500,-4.410,310,328,201,295,244,2025-05-24T00:20:39.229498
413,-0.6754,0.7481,0.1688,21.840,-9.450,-5.950,359,345,231,290,217,2025-05-24T00:20:39.229510
414,-0.6676,0.7735,0.1576,21.000,-8.050,-6.930,362,345,227,278,246,2025-05-24T00:20:39.229519
415,-0.6632,0.7896,0.1366,19.250,-6.300,-8.610,360,285,218,307,248,2025-05-24T00:20:39.229529
416,-0.6583,0.7950,0.1176,16.380,-3.500,-11.410,308,314,220,309,216,2025-05-24T00:20:39.229538
417,-0.6529,0.7959,0.0922,14.490,-1.260,-13.370,331,341,218,301,224,2025-05-24T00:20:39.229547
418,-0.6505,0.7847,0.0625,11.410,1.890,-14.700,308,342,230,281,249,2025-05-24T00:20:39.229556
419,-0.6529,0.7754,0.0361,7.630,3.990,-15.680,331,343,220,306,220,2025-05-24T00:20:39.229565
420,-0.6573,0.7691,0.0132,3.150,5.320,-15.960,354,339,227,310,197,2025-05-24T00:20:39.229574
421,-0.6730,0.7632,-0.0049,-1.470,5.670,-17.150,348,286,201,301,215,2025-05-24T00:20:39.229584
422,-0.6886,0.7559,-0.0220,-4.830,3.850,-17.710,361,269,225,299,246,2025-05-24T00:20:39.229592
423,-0.6934,0.7525,-0.0405,-9.380,1.400,-17.640,365,344,213,291,249,2025-05-24T00:20:39.229600
424,-0.6974,0.7354,-0.0630,-13.650,0.000,-18.270,360,329,224,262,225,2025-05-24T00:20:39.229610
425,-0.7056,0.7218,-0.0669,-16.870,-2.100,-18.550,335,332,214,304,219,2025-05-24T00:20:39.229647
426,-0.7086,0.6974,-0.0703,-19.950,-2.870,-18.270,288,351,207,288,254,2025-05-24T00:20:39.229657
427,-0.7242,0.6637,-0.0747,-22.120,-2.100,-17.290,339,319,228,278,257,2025-05-24T00:20:39.434394
428,-0.7466,0.6393,-0.0786,-22.330,-0.490,-15.190,344,351,220,278,230,2025-05-24T00:20:39.434439
429,-0.7706,0.6227,-0.0742,-21.560,2.520,-13.720,358,333,230,302,231,2025-05-24T00:20:39.434452
430,-0.7803,0.6212,-0.0644,-20.790,6.300,-12.530,362,276,188,277,243,2025-05-24T00:20:39.434462
431,-0.7901,0.6173,-0.0566,-20.300,10.010,-11.830,308,305,201,301,249,2025-05-24T00:20:39.434473
432,-0.8052,0.6139,-0.0346,-19.460,14.980,-11.060,360,298,230,310,258,2025-05-24T00:20:39.434482
433,-0.8374,0.6080,-0.0146,-17.710,17.360,-10.150,340,297,223,300,220,2025-05-24T00:20:39.434597
434,-0.8750,0.5944,0.1235,-15.190,16.240,-9.520,372,341,229,231,254,2025-05-24T00:20:39.434607
435,-0.9043,0.5832,0.0142,-12.740,11.970,-8.260,369,329,232,308,260,2025-05-24T00:20:39.434618
436,-0.9228,0.5724,0.0278,-10.640,6.090,-6.440,356,341,230,309,255,2025-05-24T00:20:39.434627
437,-0.9272,0.5597,0.0381,-7.070,1.330,-4.620,356,324,231,312,226,2025-05-24T00:20:39.434636
438,-0.9155,0.5578,0.0464,-3.080,-3.010,-2.800,364,245,223,305,247,2025-05-24T00:20:39.434645
439,-0.9106,0.5597,0.0532,0.840,-4.410,-1.050,342,337,231,287,255,2025-05-24T00:20:39.434654
440,-0.9043,0.5797,0.0551,3.080,-4.760,0.350,336,327,228,272,254,2025-05-24T00:20:39.434662
441,-0.9067,0.5910,0.0517,5.390,-4.270,0.770,345,316,234,299,216,2025-05-24T00:20:39.434670
442,-0.9111,0.5929,0.0464,7.490,-4.690,0.000,302,340,235,298,221,2025-05-24T00:20:39.434709
443,-0.9111,0.5832,0.0303,10.290,-6.370,-1.190,331,335,220,304,258,2025-05-24T00:20:39.434718
444,-0.9096,0.5680,0.0210,13.160,-9.240,-3.150,302,344,226,295,247,2025-05-24T00:20:39.434727
445,-0.8818,0.5539,0.0146,15.190,-13.090,-4.480,355,271,225,310,265,2025-05-24T00:20:39.484616
446,-0.8418,0.5412,0.0098,16.030,-14.140,-5.740,350,282,204,315,249,2025-05-24T00:20:39.484666
447,-0.7935,0.5417,0.0205,16.660,-13.720,-7.000,341,332,223,290,260,2025-05-24T00:20:39.484679
448,-0.7603,0.5368,0.0224,17.780,-11.760,-8.820,346,321,225,294,259,2025-05-24T00:20:39.484690
449,-0.7647,0.5329,0.0224,20.300,-9.730,-10.430,287,340,216,295,260,2025-05-24T00:20:39.533627
450,-0.7584,0.5446,0.0371,23.100,-9.660,-11.410,349,347,202,304,257,2025-05-24T00:20:39.533671
451,-0.7476,0.5651,0.0449,24.010,-10.220,-12.600,368,351,221,308,238,2025-05-24T00:20:39.533683
452,-0.7340,0.5890,0.0473,23.660,-10.990,-13.580,358,326,204,278,250,2025-05-24T00:20:39.533693
453,-0.7227,0.6032,0.0444,23.520,-11.900,-14.630,351,330,212,309,255,2025-05-24T00:20:39.583852
454,-0.7291,0.6090,0.0386,24.990,-12.320,-15.610,357,347,201,306,252,2025-05-24T00:20:39.583899
455,-0.7364,0.6129,0.0327,28.140,-14.000,-15.260,323,312,226,294,253,2025-05-24T00:20:39.583911
456,-0.7535,0.6271,0.0366,30.940,-15.120,-14.770,351,337,234,294,219,2025-05-24T00:20:39.583920
457,-0.7740,0.6378,0.0264,32.550,-15.610,-14.210,335,333,231,297,218,2025-05-24T00:20:39.841635
458,-0.7867,0.6456,0.0220,33.250,-14.070,-12.390,343,330,235,256,220,2025-05-24T00:20:39.841690
459,-0.8042,0.6559,0.0117,33.320,-11.340,-10.010,341,322,225,289,257,2025-05-24T00:20:39.841704
460,-0.8194,0.6578,0.0059,33.250,-10.290,-7.140,372,333,236,269,255,2025-05-24T00:20:39.841716
461,-0.8247,0.6603,-0.0078,32.760,-10.360,-4.060,343,328,238,297,254,2025-05-24T00:20:39.841727
462,-0.8272,0.6583,-0.0142,32.620,-11.900,-1.610,365,325,230,310,249,2025-05-24T00:20:39.841737
463,-0.8111,0.6661,-0.0171,32.620,-13.300,0.490,335,340,211,308,255,2025-05-24T00:20:39.841748
464,-0.7891,0.6715,-0.0283,31.780,-14.140,2.170,332,345,225,292,252,2025-05-24T00:20:39.841758
465,-0.7691,0.6744,-0.0395,30.590,-13.440,3.150,322,325,229,310,249,2025-05-24T00:20:39.841767
466,-0.7471,0.6842,-0.0464,28.560,-11.480,3.990,336,293,233,301,245,2025-05-24T00:20:39.841778
467,-0.7374,0.6861,-0.0527,26.320,-8.330,3.920,357,337,231,257,251,2025-05-24T00:20:39.841788
468,-0.7266,0.6832,-0.0561,23.870,-5.180,3.430,294,342,185,305,220,2025-05-24T00:20:39.841798
469,-0.7325,0.6769,-0.0620,22.190,-3.080,2.730,340,344,215,300,258,2025-05-24T00:20:39.841807
470,-0.7344,0.6749,-0.0566,20.510,-1.960,2.170,350,339,232,296,246,2025-05-24T00:20:39.841821
471,-0.7369,0.6817,-0.0561,17.640,-1.050,1.610,357,338,204,306,255,2025-05-24T00:20:39.841868
472,-0.7413,0.6817,-0.0503,13.860,-0.350,0.490,358,334,225,287,246,2025-05-24T00:20:39.841878
473,-0.7462,0.6827,-0.0464,10.570,-0.560,-0.280,371,318,234,270,249,2025-05-24T00:20:39.841887
474,-0.7608,0.6783,-0.0425,8.120,-0.980,-1.470,337,275,225,259,256,2025-05-24T00:20:39.841896
475,-0.7720,0.6744,-0.0405,6.160,-1.610,-2.170,353,272,232,294,262,2025-05-24T00:20:39.841905
476,-0.7793,0.6622,-0.0420,3.710,-1.260,-2.800,360,310,230,293,249,2025-05-24T00:20:39.841914
477,-0.7964,0.6544,-0.0434,1.960,-0.490,-3.080,359,325,227,306,249,2025-05-24T00:20:39.929941
478,-0.8042,0.6407,-0.0376,1.050,0.280,-2.730,364,337,235,289,250,2025-05-24T00:20:39.929991
479,-0.8145,0.6324,-0.0400,0.350,0.840,-1.890,294,345,222,301,247,2025-05-24T00:20:39.930004
480,-0.8237,0.6207,-0.0356,-0.280,-0.070,-0.980,351,335,233,299,218,2025-05-24T00:20:39.930015
481,-0.8208,0.6154,-0.0351,-0.210,-0.700,-0.350,346,335,226,301,262,2025-05-24T00:20:39.930026
482,-0.8145,0.6139,-0.0366,-0.210,-1.050,0.070,316,299,229,299,233,2025-05-24T00:20:39.930036
483,-0.8111,0.6100,-0.0327,-0.420,-0.490,0.210,339,341,226,303,253,2025-05-24T00:20:40.050143
484,-0.8115,0.6051,-0.0307,-0.980,-0.560,0.140,356,342,233,256,259,2025-05-24T00:20:40.050194
485,-0.8130,0.6012,-0.0293,-1.540,-2.030,-0.280,350,350,230,307,259,2025-05-24T00:20:40.050207
486,-0.8135,0.5919,-0.0322,-1.050,-3.430,-0.210,338,352,227,288,248,2025-05-24T00:20:40.050219
487,-0.8067,0.5871,-0.0322,0.070,-3.850,0.490,330,289,231,292,228,2025-05-24T00:20:40.050231
488,-0.7891,0.5827,-0.0312,0.630,-2.520,1.470,341,334,241,302,260,2025-05-24T00:20:40.050241
489,-0.7710,0.5861,-0.0298,1.610,-0.420,2.730,295,348,238,306,252,2025-05-24T00:20:40.050251
490,-0.7603,0.5968,-0.0273,2.380,1.750,2.520,349,352,235,271,249,2025-05-24T00:20:40.050261
491,-0.7584,0.6071,-0.0327,3.220,3.220,1.470,365,327,232,304,197,2025-05-24T00:20:40.050271
492,-0.7554,0.6188,-0.0386,3.780,4.620,0.420,328,288,189,295,245,2025-05-24T00:20:40.050280
493,-0.7613,0.6217,-0.0454,3.640,5.110,-0.910,289,335,238,306,249,2025-05-24T00:20:40.050290
494,-0.7618,0.6237,-0.0547,3.220,5.530,-1.750,283,329,237,290,236,2025-05-24T00:20:40.050299
495,-0.7588,0.6246,-0.0625,2.310,6.160,-2.800,364,348,237,290,258,2025-05-24T00:20:40.050308
496,-0.7554,0.6261,-0.0625,1.330,6.860,-2.870,363,322,236,316,260,2025-05-24T00:20:40.291339
497,-0.7525,0.6290,-0.0678,0.770,8.470,-2.310,301,341,227,283,247,2025-05-24T00:20:40.291396
498,-0.7686,0.6359,-0.0634,0.910,10.010,-2.170,357,346,229,306,266,2025-05-24T00:20:40.291417
499,-0.7793,0.6486,-0.0566,0.420,10.220,-1.680,349,275,230,295,243,2025-05-24T00:20:40.291430
500,-0.7896,0.6539,-0.0551,-0.910,9.590,-1.750,339,325,234,263,246,2025-05-24T00:20:40.291443
501,-0.8081,0.6554,-0.0547,-1.890,7.700,-2.170,328,347,225,305,244,2025-05-24T00:20:40.422184
502,-0.8252,0.6486,-0.0556,-1.820,5.600,-2.520,323,340,207,309,258,2025-05-24T00:20:40.422221
503,-0.8433,0.6417,-0.0561,-1.680,4.060,-2.450,345,326,229,256,250,2025-05-24T00:20:40.422234
504,-0.8550,0.6295,-0.0532,-1.820,3.290,-1.820,368,300,214,307,258,2025-05-24T00:20:40.422244
505,-0.8550,0.6183,-0.0561,-2.590,4.340,-0.980,365,320,214,312,222,2025-05-24T00:20:40.422254
506,-0.8682,0.6115,-0.0512,-2.940,6.720,0.630,371,325,232,233,245,2025-05-24T00:20:40.422267
507,-0.8862,0.5998,-0.0468,-2.940,7.700,1.960,366,325,205,290,262,2025-05-24T00:20:40.422280
508,-0.8886,0.5954,-0.0381,-3.430,6.580,3.710,299,332,207,289,259,2025-05-24T00:20:40.422290
509,-0.7501,0.5939,-0.0322,-4.830,5.040,4.830,332,320,222,263,248,2025-05-24T00:20:40.422300
510,-0.8496,0.5861,-0.0283,-5.880,3.290,4.900,333,322,237,293,252,2025-05-24T00:20:40.422768
511,-0.8194,0.5714,-0.0259,-5.320,1.540,4.550,356,341,235,257,245,2025-05-24T00:20:40.422836
512,-0.7920,0.5632,-0.0200,-4.620,0.280,4.060,356,345,234,313,249,2025-05-24T00:20:40.422847
513,-0.7618,0.5588,-0.0205,-3.430,-0.210,3.150,361,340,237,293,252,2025-05-24T00:20:40.473735
514,-0.7383,0.5583,-0.0146,-2.520,-0.210,2.100,295,318,241,316,243,2025-05-24T00:20:40.473785
515,-0.7198,0.5602,-0.0166,-1.540,0.770,0.840,299,246,241,292,200,2025-05-24T00:20:40.473947
516,-0.6954,0.5690,-0.0151,-0.280,2.100,-0.350,369,349,237,298,259,2025-05-24T00:20:40.473964
517,-0.6720,0.5700,-0.0176,0.630,4.130,-2.450,343,324,227,289,220,2025-05-24T00:20:40.473975
518,-0.6593,0.5768,-0.0229,2.590,5.880,-4.900,331,344,239,303,221,2025-05-24T00:20:40.473986
519,-0.6568,0.5822,-0.0361,4.830,8.120,-6.860,352,327,236,311,257,2025-05-24T00:20:40.473996
520,-0.6671,0.5880,-0.0512,7.070,10.150,-9.310,352,356,230,308,261,2025-05-24T00:20:40.474219
521,-0.6910,0.5973,-0.0625,8.050,11.270,-10.780,344,301,228,235,259,2025-05-24T00:20:40.474231
522,-0.7188,0.6066,-0.0776,8.330,11.620,-11.620,369,328,232,294,258,2025-05-24T00:20:40.474469
523,-0.7340,0.6120,-0.0927,7.840,11.620,-12.040,356,335,226,277,227,2025-05-24T00:20:40.474481
524,-0.7413,0.6217,-0.1069,7.630,12.670,-10.990,347,323,239,302,223,2025-05-24T00:20:40.474495
525,-0.7593,0.6295,-0.1157,7.980,14.770,-10.080,334,334,231,289,252,2025-05-24T00:20:40.474505
526,-0.7710,0.6407,-0.1230,8.260,16.660,-9.240,331,332,233,292,255,2025-05-24T00:20:40.474514
527,-0.7871,0.6544,-0.1279,7.630,18.760,-8.750,335,338,232,300,256,2025-05-24T00:20:40.474524
528,-0.7998,0.6642,-0.1352,6.860,20.580,-8.050,310,346,216,279,261,2025-05-24T00:20:40.474574
529,-0.8091,0.6686,-0.1459,5.880,22.050,-7.070,343,341,227,310,262,2025-05-24T00:20:40.474585
530,-0.8184,0.6739,-0.1503,4.550,23.730,-5.950,350,351,232,310,249,2025-05-24T00:20:40.474596
531,-0.8325,0.6739,-0.1620,2.800,24.010,-4.410,366,352,223,305,258,2025-05-24T00:20:40.664617
532,-0.8355,0.6744,-0.1679,0.280,23.450,-2.520,315,349,229,294,265,2025-05-24T00:20:40.664661
533,-0.8452,0.6710,-0.1723,-2.450,22.400,-1.120,354,337,232,311,257,2025-05-24T00:20:40.664673
534,-0.8355,0.6695,-0.1781,-4.550,21.490,1.050,339,333,235,272,224,2025-05-24T00:20:40.664683
535,-0.8286,0.6642,-0.1820,-6.160,21.980,3.360,341,345,227,296,262,2025-05-24T00:20:40.664692
536,-0.8145,0.6734,-0.1840,-8.120,23.310,4.970,343,278,239,300,254,2025-05-24T00:20:40.664701
537,-0.8028,0.6837,-0.1884,-11.200,24.500,5.110,296,308,235,259,259,2025-05-24T00:20:40.664710
538,-0.8003,0.6822,-0.1903,-14.140,24.920,4.970,357,279,222,311,246,2025-05-24T00:20:40.664720
539,-0.7910,0.6822,-0.1928,-17.010,24.920,4.970,367,339,227,299,221,2025-05-24T00:20:40.664728
540,-0.7867,0.6769,-0.1952,-19.600,25.200,5.040,357,328,215,311,263,2025-05-24T00:20:40.664739
541,-0.7891,0.6695,-0.1962,-21.770,24.710,5.250,350,325,225,299,250,2025-05-24T00:20:40.664748
542,-0.8028,0.6554,-0.2011,-23.450,23.170,6.510,343,325,233,261,255,2025-05-24T00:20:40.664757
543,-0.8174,0.6529,-0.2035,-23.800,20.510,7.700,303,275,242,288,240,2025-05-24T00:20:40.664766
544,-0.8223,0.6534,-0.2006,-24.010,17.500,8.470,344,291,241,311,263,2025-05-24T00:20:40.664774
545,-0.8213,0.6627,-0.2035,-24.920,15.540,8.680,356,291,228,262,264,2025-05-24T00:20:40.664811
546,-0.8213,0.6666,-0.2103,-25.970,15.400,9.100,366,306,210,290,268,2025-05-24T00:20:40.664821
547,-0.8291,0.6627,-0.2186,-27.020,15.190,9.240,338,336,233,296,225,2025-05-24T00:20:40.871127
548,-0.8345,0.6588,-0.2274,-27.930,14.560,9.100,359,332,240,293,250,2025-05-24T00:20:40.871185
549,-0.8286,0.6490,-0.2347,-28.350,14.070,9.170,367,338,238,268,267,2025-05-24T00:20:40.871201
550,-0.8091,0.6446,-0.2362,-29.190,14.840,11.200,358,342,221,296,203,2025-05-24T00:20:40.871215
551,-0.8047,0.6417,-0.2342,-30.030,16.450,12.600,362,347,235,260,257,2025-05-24T00:20:40.871228
552,-0.7969,0.6393,-0.2259,-31.220,16.660,12.740,345,333,241,309,249,2025-05-24T00:20:40.871240
553,-0.7906,0.6344,-0.2225,-31.850,16.170,12.530,358,325,230,309,253,2025-05-24T00:20:40.871253
554,-0.7842,0.6242,-0.2186,-32.340,15.750,11.830,362,285,238,285,264,2025-05-24T00:20:40.871265
555,-0.7769,0.6251,-0.2137,-31.920,14.630,11.620,324,330,213,299,224,2025-05-24T00:20:40.871276
556,-0.7642,0.6329,-0.2094,-32.200,14.490,11.060,361,349,242,313,251,2025-05-24T00:20:40.871312
557,-0.7554,0.6359,-0.2118,-33.320,13.790,9.660,371,337,241,313,236,2025-05-24T00:20:40.871323
558,-0.7505,0.6324,-0.2167,-33.390,12.740,9.310,300,327,230,270,235,2025-05-24T00:20:40.871335
559,-0.7588,0.6290,-0.2152,-33.040,13.020,9.100,357,339,211,306,258,2025-05-24T00:20:40.871345
560,-0.7686,0.6281,-0.2103,-32.550,12.740,8.400,353,320,219,290,264,2025-05-24T00:20:40.871356
561,-0.7720,0.6290,-0.2094,-32.830,11.900,8.330,354,352,235,316,253,2025-05-24T00:20:40.871407
562,-0.7745,0.6329,-0.2089,-33.110,11.410,8.540,350,348,213,293,261,2025-05-24T00:20:40.871420
563,-0.7759,0.6324,-0.2089,-32.900,10.780,8.120,370,309,233,309,252,2025-05-24T00:20:40.871436
564,-0.7867,0.6320,-0.2133,-32.130,9.870,7.770,360,344,239,304,267,2025-05-24T00:20:40.871447
565,-0.7920,0.6329,-0.2176,-31.570,8.750,8.330,347,346,239,309,250,2025-05-24T00:20:41.103970
566,-0.8018,0.6378,-0.2255,-31.430,8.400,8.680,363,328,227,310,261,2025-05-24T00:20:41.104058
567,-0.8130,0.6403,-0.2298,-31.570,7.980,9.100,343,281,217,296,225,2025-05-24T00:20:41.104082
568,-0.8286,0.6378,-0.2342,-31.430,7.350,9.940,365,343,216,267,252,2025-05-24T00:20:41.104101
569,-0.8423,0.6364,-0.2294,-31.990,6.580,11.060,296,343,238,305,258,2025-05-24T00:20:41.104119
570,-0.8491,0.6344,-0.2338,-32.760,5.530,13.300,289,324,236,287,253,2025-05-24T00:20:41.104138
571,-0.8457,0.6364,-0.2289,-33.530,5.250,15.330,347,323,233,308,256,2025-05-24T00:20:41.104158
572,-0.8394,0.6368,-0.2220,-33.670,5.040,16.870,325,341,240,236,232,2025-05-24T00:20:41.104177
573,-0.8296,0.6486,-0.2147,-33.530,4.620,18.620,371,334,238,313,225,2025-05-24T00:20:41.104195
574,-0.8233,0.6534,-0.2118,-34.090,4.830,19.460,348,350,243,309,224,2025-05-24T00:20:41.104214
575,-0.8247,0.6525,-0.2142,-33.950,4.270,20.230,341,338,230,316,230,2025-05-24T00:20:41.104231
576,-0.8306,0.6539,-0.2094,-33.320,3.990,22.050,341,345,238,313,260,2025-05-24T00:20:41.104255
577,-0.8311,0.6608,-0.1972,-33.530,3.780,24.010,345,331,233,300,259,2025-05-24T00:20:41.104271
578,-0.8408,0.6661,-0.1806,-34.790,1.750,25.620,363,330,234,313,267,2025-05-24T00:20:41.104288
579,-0.8330,0.6686,-0.1645,-36.120,-1.680,28.560,352,328,234,286,264,2025-05-24T00:20:41.104362
580,-0.8096,0.6627,-0.1493,-35.770,-4.970,30.940,355,340,221,314,269,2025-05-24T00:20:41.104380
581,-0.7749,0.6725,-0.1200,-34.510,-7.560,33.180,370,339,242,315,259,2025-05-24T00:20:41.104397
582,-0.7398,0.6832,-0.1010,-32.970,-8.330,34.510,366,351,235,302,203,2025-05-24T00:20:41.104414
583,-0.7100,0.6949,-0.0776,-31.570,-7.630,35.560,363,343,247,310,261,2025-05-24T00:20:41.104430
584,-0.6793,0.7022,-0.0630,-29.680,-6.440,35.420,342,324,219,303,257,2025-05-24T00:20:41.153546
585,-0.6510,0.7105,-0.0425,-28.210,-5.040,34.020,335,277,239,305,248,2025-05-24T00:20:41.153592
586,-0.6339,0.7008,-0.0342,-26.950,-3.500,31.570,295,273,239,305,258,2025-05-24T00:20:41.153603
587,-0.6095,0.7008,-0.0195,-26.320,-2.170,29.540,351,345,241,302,263,2025-05-24T00:20:41.153612
588,-0.5944,0.7032,-0.0078,-24.920,-1.610,27.720,352,330,215,301,263,2025-05-24T00:20:41.291198
589,-0.5836,0.7061,0.0102,-22.610,-1.960,25.620,362,320,195,303,260,2025-05-24T00:20:41.291245
590,-0.5724,0.7125,0.0229,-19.600,-3.290,23.170,297,342,233,310,269,2025-05-24T00:20:41.291258
591,-0.5602,0.7261,0.0381,-16.520,-4.200,20.230,329,345,234,321,253,2025-05-24T00:20:41.291269
592,-0.5495,0.7427,0.0439,-13.720,-3.920,16.730,347,340,246,317,256,2025-05-24T00:20:41.291279
593,-0.5524,0.7496,0.0537,-12.110,-3.570,13.090,332,346,247,313,261,2025-05-24T00:20:41.291288
594,-0.5597,0.7525,0.0571,-9.800,-3.640,9.170,361,328,195,306,240,2025-05-24T00:20:41.291298
595,-0.5661,0.7584,0.0654,-7.840,-3.290,5.670,355,338,235,294,266,2025-05-24T00:20:41.291307
596,-0.5758,0.7603,0.0688,-6.720,-2.870,2.240,367,346,240,290,258,2025-05-24T00:20:41.291318
597,-0.5880,0.7598,0.0737,-7.070,-2.380,0.350,372,352,235,306,256,2025-05-24T00:20:41.291328
598,-0.6207,0.7549,0.0742,-7.560,-2.450,-1.260,306,286,248,310,258,2025-05-24T00:20:41.291337
599,-0.6388,0.7525,0.0747,-7.840,-3.430,-1.470,377,336,220,302,257,2025-05-24T00:20:41.291347
600,-0.6603,0.7481,0.0766,-7.280,-5.110,-1.330,342,330,236,301,260,2025-05-24T00:20:41.482957
601,-0.6642,0.7515,0.0771,-7.420,-6.020,-0.770,332,347,213,304,253,2025-05-24T00:20:41.483034
602,-0.6505,0.7569,0.0791,-8.960,-6.090,0.070,337,353,243,315,255,2025-05-24T00:20:41.483047
603,-0.6481,0.7632,0.0908,-11.690,-4.830,1.330,258,298,245,315,251,2025-05-24T00:20:41.483057
604,-0.6603,0.7598,0.0996,-13.650,-3.780,2.380,348,349,242,317,255,2025-05-24T00:20:41.483066
605,-0.6827,0.7632,0.1088,-14.910,-3.640,4.550,361,346,237,312,266,2025-05-24T00:20:41.483075
606,-0.6920,0.7774,0.1191,-15.540,-2.100,6.650,351,274,234,271,259,2025-05-24T00:20:41.483190
607,-0.6769,0.7954,0.1264,-16.310,1.400,9.310,344,291,247,305,226,2025-05-24T00:20:41.483200
608,-0.6822,0.7989,0.1318,-16.310,6.090,12.180,352,319,234,312,266,2025-05-24T00:20:41.483209
609,-0.6891,0.8194,0.1454,-15.400,9.590,14.840,303,329,235,299,226,2025-05-24T00:20:41.483217
610,-0.7164,0.8384,0.1640,-14.770,13.090,16.940,358,332,215,314,271,2025-05-24T00:20:41.483225
611,-0.7379,0.8672,0.1913,-16.170,14.000,19.180,370,287,240,301,263,2025-05-24T00:20:41.483234
612,-0.7462,0.8818,0.2113,-20.370,14.910,21.070,357,337,233,305,262,2025-05-24T00:20:41.483242
613,-0.7725,0.8872,0.2186,-24.010,15.750,23.240,343,342,244,277,266,2025-05-24T00:20:41.483250
614,-0.7891,0.8989,0.2186,-24.780,14.980,27.580,357,350,220,268,237,2025-05-24T00:20:41.483258
615,-0.7901,0.8945,0.2157,-24.080,13.020,33.460,375,334,236,316,258,2025-05-24T00:20:41.483299
616,-0.7837,0.8769,0.2123,-23.870,12.530,38.640,348,308,243,311,265,2025-05-24T00:20:41.554235
617,-0.7569,0.8740,0.2084,-24.780,11.900,44.940,361,290,230,302,241,2025-05-24T00:20:41.554478
618,-0.7325,0.8555,0.1957,-26.950,11.550,50.470,365,328,212,317,260,2025-05-24T00:20:41.554494
619,-0.6900,0.8394,0.1815,-29.680,11.410,54.670,361,352,226,319,263,2025-05-24T00:20:41.554503
620,-0.6505,0.8242,0.1688,-32.760,9.940,59.080,293,349,234,301,263,2025-05-24T00:20:41.554517
621,-0.6027,0.8057,0.1659,-35.980,7.980,60.130,339,326,235,309,260,2025-05-24T00:20:41.688349
622,-0.5402,0.7735,0.1635,-38.150,6.020,58.310,325,328,211,263,224,2025-05-24T00:20:41.688389
623,-0.4778,0.7496,0.1723,-38.080,6.370,54.460,316,346,238,274,269,2025-05-24T00:20:41.688401
624,-0.4055,0.7515,0.1967,-37.450,10.990,50.330,334,355,238,296,234,2025-05-24T00:20:41.688409
625,-0.3748,0.7374,0.2176,-37.310,22.330,46.410,350,302,231,302,268,2025-05-24T00:20:41.688418
626,-0.3709,0.7218,0.2235,-36.120,36.750,40.740,369,340,240,291,264,2025-05-24T00:20:41.688426
627,-0.3831,0.7330,0.2347,-33.250,50.820,38.220,378,353,242,307,261,2025-05-24T00:20:41.688434
628,-0.4109,0.7398,0.2352,-30.450,61.250,35.910,357,344,234,308,227,2025-05-24T00:20:41.688442
629,-0.4299,0.7300,0.2216,-27.440,65.240,31.850,344,293,229,304,252,2025-05-24T00:20:41.688449
630,-0.4280,0.7505,0.2089,-21.700,65.450,28.350,307,270,215,300,225,2025-05-24T00:20:41.688456
631,-0.4358,0.7710,0.2089,-16.590,65.170,26.460,340,277,200,230,221,2025-05-24T00:20:41.688463
632,-0.4573,0.7881,0.2274,-13.510,60.900,24.500,360,330,230,281,244,2025-05-24T00:20:41.688470
633,-0.4709,0.7959,0.2338,-13.020,53.130,23.800,354,298,234,295,254,2025-05-24T00:20:41.922781
634,-0.4729,0.7945,0.2196,-10.500,47.460,22.680,354,276,231,297,241,2025-05-24T00:20:41.922828
635,-0.4509,0.8057,0.2103,-5.880,47.390,22.190,353,271,206,291,254,2025-05-24T00:20:41.922839
636,-0.4836,0.7950,0.1801,1.120,49.140,22.190,366,326,223,298,252,2025-05-24T00:20:41.922849
637,-0.5168,0.8028,0.1630,6.230,47.180,22.050,343,326,224,296,251,2025-05-24T00:20:41.922858
638,-0.5319,0.8135,0.1645,9.730,43.050,21.770,360,344,201,305,240,2025-05-24T00:20:41.922867
639,-0.5266,0.8203,0.1542,9.730,37.030,20.440,352,338,233,301,250,2025-05-24T00:20:41.922876
640,-0.5334,0.8125,0.1137,8.960,32.410,17.570,339,343,218,302,219,2025-05-24T00:20:41.922886
641,-0.5441,0.8203,0.0976,9.170,26.460,16.590,360,350,229,287,249,2025-05-24T00:20:41.922894
642,-0.5695,0.8213,0.1000,7.980,16.030,16.940,342,328,230,260,233,2025-05-24T00:20:41.922903
643,-0.5778,0.8194,0.1000,4.690,4.060,16.380,342,331,218,307,256,2025-05-24T00:20:41.922911
644,-0.5597,0.8247,0.0981,1.680,-10.850,14.630,341,345,232,229,250,2025-05-24T00:20:41.922919
645,-0.5134,0.8145,0.0825,-0.210,-18.830,13.160,359,340,200,278,257,2025-05-24T00:20:41.922927
646,-0.5065,0.7969,0.0673,3.080,-21.770,11.410,361,300,224,292,247,2025-05-24T00:20:41.922935
647,-0.5139,0.8194,0.0781,5.880,-24.360,9.660,289,343,229,293,251,2025-05-24T00:20:41.922943
648,-0.5026,0.8316,0.0971,4.410,-27.020,7.840,280,275,227,306,249,2025-05-24T00:20:41.922983
649,-0.4987,0.8233,0.1015,0.350,-29.050,5.880,334,343,220,290,257,2025-05-24T00:20:41.922992
650,-0.4680,0.8272,0.1152,-2.730,-29.330,4.130,310,285,219,298,217,2025-05-24T00:20:41.923000
651,-0.4397,0.8213,0.1352,-4.620,-26.740,1.610,353,328,227,308,218,2025-05-24T00:20:42.105931
652,-0.4514,0.8047,0.1532,-4.690,-26.180,-0.140,343,318,214,297,237,2025-05-24T00:20:42.105998
653,-0.4660,0.8106,0.1757,-4.270,-29.540,-2.800,354,342,217,305,218,2025-05-24T00:20:42.106008
654,-0.4665,0.8150,0.1815,-2.800,-33.880,-4.760,369,341,222,289,243,2025-05-24T00:20:42.106016
655,-0.4616,0.8237,0.1801,1.260,-36.890,-5.040,365,276,196,288,256,2025-05-24T00:20:42.106046
656,-0.4592,0.8384,0.1747,5.600,-40.040,-5.460,361,336,223,253,241,2025-05-24T00:20:42.106055
657,-0.4299,0.8535,0.1742,7.420,-40.530,-6.300,342,338,216,264,247,2025-05-24T00:20:42.106062
658,-0.3904,0.8672,0.1674,4.970,-35.420,-8.050,304,335,228,292,232,2025-05-24T00:20:42.106069
659,-0.3811,0.8730,0.1547,2.730,-28.000,-10.500,303,321,226,313,259,2025-05-24T00:20:42.106078
660,-0.3889,0.8755,0.1371,1.750,-23.940,-14.070,329,338,228,308,238,2025-05-24T00:20:42.106085
661,-0.3919,0.8813,0.1308,1.890,-21.980,-18.480,358,291,224,306,244,2025-05-24T00:20:42.106092
662,-0.4192,0.8633,0.1244,2.870,-23.660,-21.910,354,278,214,259,226,2025-05-24T00:20:42.106101
663,-0.4446,0.8525,0.1337,4.970,-31.360,-24.640,363,325,224,307,245,2025-05-24T00:20:42.106107
664,-0.4773,0.8291,0.1376,7.070,-41.440,-26.320,368,239,225,288,258,2025-05-24T00:20:42.106114
665,-0.4953,0.8135,0.1362,9.660,-53.270,-27.440,347,318,212,279,244,2025-05-24T00:20:42.106120
666,-0.4568,0.8150,0.1464,10.220,-60.480,-27.300,362,332,210,315,244,2025-05-24T00:20:42.106145
667,-0.4324,0.8023,0.1254,9.660,-59.150,-27.370,324,291,221,306,259,2025-05-24T00:20:42.300867
668,-0.4319,0.8023,0.1093,11.760,-49.770,-27.720,345,331,221,294,258,2025-05-24T00:20:42.300905
669,-0.4387,0.8106,0.1015,14.560,-38.920,-27.510,345,337,181,288,225,2025-05-24T00:20:42.300915
670,-0.4743,0.8047,0.0766,14.980,-26.880,-28.280,312,326,212,276,218,2025-05-24T00:20:42.300923
671,-0.4943,0.8203,0.0737,11.480,-18.550,-29.050,337,345,196,302,248,2025-05-24T00:20:42.300933
672,-0.5036,0.8281,0.0742,7.210,-17.150,-29.120,324,275,227,290,257,2025-05-24T00:20:42.300940
673,-0.5236,0.8052,0.0542,3.990,-19.250,-27.440,304,329,216,309,254,2025-05-24T00:20:42.300947
674,-0.5280,0.8076,0.0498,5.460,-21.140,-25.970,347,318,218,262,246,2025-05-24T00:20:42.300957
675,-0.5275,0.8037,0.0239,8.750,-22.820,-25.130,348,348,210,307,214,2025-05-24T00:20:42.300964
676,-0.5192,0.8408,0.0142,12.600,-20.020,-22.750,341,322,197,308,245,2025-05-24T00:20:42.300971
677,-0.5392,0.8721,0.0005,12.180,-13.020,-19.460,288,337,214,292,242,2025-05-24T00:20:42.300978
678,-0.5763,0.8901,-0.0171,10.360,-7.560,-17.220,339,323,218,305,241,2025-05-24T00:20:42.300986
679,-0.5754,0.9194,-0.0351,7.700,-3.360,-14.840,358,276,203,297,254,2025-05-24T00:20:42.300993
680,-0.5807,0.9248,-0.0556,5.460,2.870,-13.930,317,345,216,287,245,2025-05-24T00:20:42.301000
681,-0.5773,0.9335,-0.0644,4.270,10.220,-14.140,360,325,223,285,252,2025-05-24T00:20:42.301034
682,-0.5466,0.9492,-0.0576,2.800,16.030,-13.300,357,334,216,271,249,2025-05-24T00:20:42.301041
683,-0.5431,0.9536,-0.0595,0.210,23.450,-13.790,337,326,192,291,249,2025-05-24T00:20:42.301052
684,-0.5505,0.9648,-0.0429,-0.630,27.230,-13.720,351,338,223,296,255,2025-05-24T00:20:42.464496
685,-0.5573,0.9701,-0.0220,-0.770,26.810,-13.020,356,353,218,294,257,2025-05-24T00:20:42.464546
686,-0.5592,0.9584,-0.0161,-0.770,25.480,-12.810,362,323,191,299,251,2025-05-24T00:20:42.464559
687,-0.5378,0.9467,-0.0024,-0.350,23.800,-11.060,364,322,211,289,244,2025-05-24T00:20:42.464569
688,-0.5270,0.9287,0.0015,-0.350,22.890,-9.520,323,341,218,300,256,2025-05-24T00:20:42.464578
689,-0.5114,0.9072,0.0073,-0.910,21.700,-7.980,315,322,197,302,256,2025-05-24T00:20:42.464588
690,-0.4968,0.8926,0.0078,-1.750,20.020,-6.790,358,331,221,255,239,2025-05-24T00:20:42.464599
691,-0.4856,0.8823,0.0049,-2.310,18.690,-5.390,348,320,200,274,243,2025-05-24T00:20:42.464608
692,-0.4695,0.8774,0.0068,-2.380,17.780,-4.340,354,282,214,291,236,2025-05-24T00:20:42.464723
693,-0.4636,0.8755,0.0005,-2.940,18.200,-4.480,344,276,217,296,190,2025-05-24T00:20:42.464731
694,-0.4743,0.8774,-0.0083,-2.450,18.550,-5.110,346,304,221,288,256,2025-05-24T00:20:42.464738
695,-0.4841,0.8872,-0.0102,-1.960,18.340,-3.920,367,314,225,283,243,2025-05-24T00:20:42.464746
696,-0.4943,0.8867,-0.0195,-1.610,18.060,-3.850,337,324,206,294,249,2025-05-24T00:20:42.464753
697,-0.5046,0.8711,-0.0273,-0.490,16.170,-3.710,357,268,219,275,239,2025-05-24T00:20:42.718120
698,-0.5134,0.8628,-0.0376,1.470,13.370,-3.710,353,338,222,290,232,2025-05-24T00:20:42.718163
699,-0.5348,0.8618,-0.0376,3.780,10.430,-3.990,291,339,225,302,254,2025-05-24T00:20:42.718176
700,-0.5451,0.8745,-0.0332,5.320,7.420,-3.850,352,324,218,305,248,2025-05-24T00:20:42.718186
701,-0.5485,0.8877,-0.0366,5.460,6.370,-3.430,359,330,202,302,193,2025-05-24T00:20:42.718197
702,-0.5539,0.8935,-0.0371,6.090,6.370,-3.150,350,345,223,296,230,2025-05-24T00:20:42.718206
703,-0.5568,0.8867,-0.0425,7.770,6.160,-2.380,355,337,220,280,227,2025-05-24T00:20:42.718215
704,-0.5675,0.8769,-0.0468,10.220,5.880,-1.540,348,307,217,256,249,2025-05-24T00:20:42.718225
705,-0.5724,0.8677,-0.0478,11.690,5.180,-1.050,360,339,194,259,215,2025-05-24T00:20:42.718234
706,-0.5602,0.8725,-0.0493,12.110,4.620,-0.140,336,303,223,254,255,2025-05-24T00:20:42.718246
707,-0.5495,0.8745,-0.0586,11.340,5.390,0.420,358,333,223,298,219,2025-05-24T00:20:42.718254
708,-0.5353,0.8994,-0.0639,10.430,6.160,1.050,351,333,215,301,254,2025-05-24T00:20:42.718263
709,-0.5085,0.9116,-0.0752,9.100,7.420,1.680,353,330,225,300,250,2025-05-24T00:20:42.718272
710,-0.4880,0.9179,-0.0756,7.140,9.520,1.750,339,328,212,292,217,2025-05-24T00:20:42.718280
711,-0.4577,0.9204,-0.0771,5.530,11.340,1.050,289,342,198,293,243,2025-05-24T00:20:42.718288
712,-0.4387,0.9189,-0.0766,3.500,12.180,0.000,354,330,227,307,226,2025-05-24T00:20:42.718329
713,-0.4299,0.9174,-0.0654,1.750,12.180,-1.260,346,278,217,286,250,2025-05-24T00:20:42.718338
714,-0.4480,0.9121,-0.0547,-0.070,8.960,-3.850,337,318,232,310,263,2025-05-24T00:20:42.718347
715,-0.4748,0.9067,-0.0527,-0.070,3.430,-6.510,336,306,228,266,251,2025-05-24T00:20:42.718356
716,-0.4743,0.9155,-0.0449,-0.700,0.840,-7.000,358,307,218,259,251,2025-05-24T00:20:42.718365
717,-0.4846,0.9077,-0.0493,-2.590,2.310,-7.000,358,331,230,295,255,2025-05-24T00:20:42.718375
718,-0.4982,0.9033,-0.0503,-4.200,5.390,-5.180,343,327,223,299,257,2025-05-24T00:20:42.807378
719,-0.5241,0.8886,-0.0576,-4.620,8.330,-2.730,312,351,219,300,240,2025-05-24T00:20:42.807421
720,-0.5573,0.8789,-0.0615,-3.360,8.680,-0.770,335,319,219,289,261,2025-05-24T00:20:42.807434
721,-0.5666,0.8891,-0.0630,-3.290,6.860,1.750,290,347,223,293,257,2025-05-24T00:20:42.807443
722,-0.5827,0.8960,-0.0581,-4.970,5.460,3.290,329,330,231,308,227,2025-05-24T00:20:42.807452
723,-0.5910,0.9135,-0.0493,-7.000,2.800,3.640,286,347,218,279,250,2025-05-24T00:20:42.915375
724,-0.5846,0.9243,-0.0381,-9.730,0.700,5.180,360,340,232,292,252,2025-05-24T00:20:42.915428
725,-0.5797,0.9121,-0.0376,-11.620,-0.210,6.370,364,306,219,294,263,2025-05-24T00:20:42.915444
726,-0.5812,0.8911,-0.0400,-11.620,-0.770,7.980,343,319,223,289,257,2025-05-24T00:20:42.915458
727,-0.5705,0.8784,-0.0371,-10.500,-1.050,9.100,359,326,220,296,247,2025-05-24T00:20:42.915469
728,-0.5646,0.8725,-0.0234,-9.940,-1.890,9.940,355,321,228,292,230,2025-05-24T00:20:42.915481
729,-0.5519,0.8804,-0.0156,-11.550,-4.480,9.660,255,318,222,290,255,2025-05-24T00:20:42.915492
730,-0.5373,0.8838,-0.0146,-13.860,-7.840,9.450,354,349,227,273,255,2025-05-24T00:20:42.915503
731,-0.5246,0.8745,-0.0239,-14.560,-10.850,8.540,359,323,220,296,225,2025-05-24T00:20:42.915514
732,-0.5036,0.8764,-0.0312,-13.300,-13.440,8.260,358,342,217,307,244,2025-05-24T00:20:42.915525
733,-0.4709,0.8857,-0.0356,-13.300,-13.020,7.910,342,355,231,301,256,2025-05-24T00:20:42.915536
734,-0.4465,0.8867,-0.0366,-15.120,-11.270,6.510,355,277,230,260,247,2025-05-24T00:20:42.915547
735,-0.4314,0.8779,-0.0361,-17.010,-9.030,4.410,334,349,223,314,258,2025-05-24T00:20:43.121738
736,-0.4255,0.8555,-0.0473,-18.060,-6.020,2.170,289,328,214,279,248,2025-05-24T00:20:43.121778
737,-0.4324,0.8501,-0.0434,-17.010,-4.130,0.420,290,308,213,309,219,2025-05-24T00:20:43.121790
738,-0.4382,0.8535,-0.0434,-15.750,-4.130,-1.330,285,340,236,297,247,2025-05-24T00:20:43.121799
739,-0.4343,0.8506,-0.0464,-14.700,-5.740,-4.340,350,343,230,277,263,2025-05-24T00:20:43.121808
740,-0.4182,0.8569,-0.0517,-12.880,-5.810,-6.580,350,353,228,299,254,2025-05-24T00:20:43.121817
741,-0.4119,0.8628,-0.0508,-10.850,-4.060,-8.190,360,338,236,292,201,2025-05-24T00:20:43.121825
742,-0.4138,0.8628,-0.0483,-9.240,-2.800,-11.270,368,327,222,309,250,2025-05-24T00:20:43.121834
743,-0.4309,0.8613,-0.0444,-7.700,-3.850,-14.910,257,278,236,297,260,2025-05-24T00:20:43.121842
744,-0.4455,0.8535,-0.0342,-6.090,-7.140,-19.180,371,343,222,306,252,2025-05-24T00:20:43.121850
745,-0.4597,0.8335,-0.0342,-2.660,-9.590,-24.150,360,285,236,312,225,2025-05-24T00:20:43.121859
746,-0.4660,0.8223,-0.0332,1.960,-8.890,-28.770,343,339,237,260,251,2025-05-24T00:20:43.121872
747,-0.4792,0.8267,-0.0259,7.000,-5.040,-31.920,343,337,204,280,227,2025-05-24T00:20:43.121880
748,-0.5041,0.8340,-0.0224,12.460,-0.420,-34.790,361,324,235,312,263,2025-05-24T00:20:43.121888
749,-0.5456,0.8403,-0.0176,16.660,2.380,-37.870,293,338,225,296,223,2025-05-24T00:20:43.121923
750,-0.5666,0.8389,-0.0176,21.910,3.570,-43.890,349,347,232,309,250,2025-05-24T00:20:43.121932
751,-0.5822,0.8198,-0.0176,28.000,5.180,-48.230,340,347,234,301,249,2025-05-24T00:20:43.121941
752,-0.6120,0.8096,-0.0059,33.740,8.190,-49.140,291,339,237,299,258,2025-05-24T00:20:43.354813
753,-0.6437,0.8223,0.0166,35.980,6.930,-46.830,361,353,229,293,263,2025-05-24T00:20:43.354840
754,-0.7130,0.8281,0.0215,34.580,0.560,-43.120,346,353,230,306,253,2025-05-24T00:20:43.354846
755,-0.7364,0.8560,0.0181,32.130,-6.160,-39.340,316,280,234,270,257,2025-05-24T00:20:43.354851
756,-0.7359,0.8667,-0.0073,31.220,-9.170,-34.790,361,342,225,305,256,2025-05-24T00:20:43.354856
757,-0.8745,0.8706,-0.0278,33.180,-8.750,-30.030,354,349,228,285,250,2025-05-24T00:20:43.354861
758,-0.7754,0.8672,-0.0298,35.210,-10.360,-26.950,315,356,239,304,229,2025-05-24T00:20:43.354866
759,-0.7759,0.8623,-0.0273,33.250,-14.910,-22.890,371,274,206,301,253,2025-05-24T00:20:43.354870
760,-0.7964,0.8320,-0.0322,27.650,-20.440,-19.670,374,286,236,314,260,2025-05-24T00:20:43.354874
761,-0.7828,0.8037,-0.0278,21.140,-26.040,-16.520,379,344,237,281,251,2025-05-24T00:20:43.354878
762,-0.7535,0.7725,-0.0205,16.240,-30.520,-12.460,353,327,233,263,249,2025-05-24T00:20:43.354882
763,-0.7281,0.7457,-0.0215,11.760,-33.880,-8.050,366,361,205,290,267,2025-05-24T00:20:43.354886
764,-0.6993,0.7383,-0.0210,10.360,-38.710,-4.830,374,284,224,276,230,2025-05-24T00:20:43.354890
765,-0.6471,0.7427,-0.0200,10.220,-43.330,-3.080,371,353,228,294,252,2025-05-24T00:20:43.354894
766,-0.6037,0.7413,-0.0293,9.660,-46.620,-3.570,305,338,229,305,253,2025-05-24T00:20:43.354917
767,-0.5578,0.7520,-0.0366,7.770,-47.530,-5.180,364,348,212,271,248,2025-05-24T00:20:43.354922
768,-0.5231,0.7510,-0.0473,3.500,-45.500,-7.210,345,343,230,320,261,2025-05-24T00:20:43.354926
769,-0.5275,0.7227,-0.0698,0.560,-39.270,-9.940,364,337,239,298,238,2025-05-24T00:20:43.354931
770,-0.5241,0.7227,-0.0722,-1.050,-30.870,-11.970,347,339,235,308,237,2025-05-24T00:20:43.354936
771,-0.5222,0.7144,-0.0703,-3.220,-20.090,-13.720,360,311,238,318,225,2025-05-24T00:20:43.354940
772,-0.5583,0.6954,-0.0522,-5.390,-11.550,-14.910,356,349,240,316,203,2025-05-24T00:20:43.531130
773,-0.5622,0.6939,-0.0303,-6.580,-6.720,-15.750,361,333,239,305,260,2025-05-24T00:20:43.531173
774,-0.5700,0.6910,-0.0010,-7.910,-2.940,-15.330,303,334,239,280,268,2025-05-24T00:20:43.531185
775,-0.5841,0.6886,0.0478,-7.700,0.000,-14.070,354,330,239,297,248,2025-05-24T00:20:43.531196
776,-0.5871,0.6900,0.0864,-6.440,-0.420,-11.690,358,351,232,317,261,2025-05-24T00:20:43.531205
777,-0.5856,0.6920,0.1171,-4.410,-2.870,-9.870,348,342,236,289,265,2025-05-24T00:20:43.531215
778,-0.5524,0.7003,0.1508,-1.960,-4.690,-10.290,352,299,241,293,262,2025-05-24T00:20:43.531587
779,-0.5192,0.6871,0.1713,1.260,-4.060,-13.020,358,354,242,319,261,2025-05-24T00:20:43.531605
780,-0.5412,0.6398,0.1762,8.680,-2.310,-15.680,369,331,231,310,264,2025-05-24T00:20:43.531614
781,-0.5866,0.6310,0.1923,19.530,-2.310,-20.860,358,356,237,293,254,2025-05-24T00:20:43.531623
782,-0.6456,0.6095,0.1742,29.750,-3.010,-28.000,368,349,231,294,256,2025-05-24T00:20:43.531632
783,-0.7032,0.5993,0.1401,37.310,-4.340,-34.230,304,282,236,302,267,2025-05-24T00:20:43.531640
784,-0.7603,0.6085,0.1015,43.400,-5.670,-35.000,313,347,233,310,244,2025-05-24T00:20:43.531647
785,-0.7974,0.6232,0.0503,46.060,-6.440,-34.790,349,349,233,309,263,2025-05-24T00:20:43.531655
786,-0.8394,0.6120,-0.0176,45.920,-7.350,-33.600,352,348,215,299,256,2025-05-24T00:20:43.733606
787,-0.9052,0.5900,-0.0874,47.810,-9.100,-31.220,296,305,244,302,245,2025-05-24T00:20:43.733655
788,-0.9560,0.6017,-0.1127,49.420,-13.720,-26.250,342,352,193,317,251,2025-05-24T00:20:43.733668
789,-0.9770,0.6271,-0.1396,48.230,-20.650,-21.630,357,337,243,299,252,2025-05-24T00:20:43.733679
790,-0.9653,0.6442,-0.1591,42.000,-26.250,-16.380,364,293,240,301,265,2025-05-24T00:20:43.733689
791,-0.9423,0.6617,-0.1571,32.690,-31.150,-11.200,378,355,238,278,264,2025-05-24T00:20:43.733860
792,-0.9062,0.6666,-0.1376,23.310,-34.090,-4.760,365,280,245,309,265,2025-05-24T00:20:43.733889
793,-0.8701,0.6671,-0.1010,15.540,-35.490,-0.490,348,327,209,304,259,2025-05-24T00:20:43.733901
794,-0.8320,0.6544,-0.0649,9.800,-36.890,2.380,365,345,228,315,227,2025-05-24T00:20:43.733911
795,-0.7925,0.6515,-0.0127,6.790,-38.430,4.690,360,357,233,263,257,2025-05-24T00:20:43.733921
796,-0.7510,0.6461,0.0303,4.970,-38.430,6.650,342,322,224,300,241,2025-05-24T00:20:43.733931
797,-0.7144,0.6466,0.0712,4.900,-36.960,7.630,357,338,239,307,255,2025-05-24T00:20:43.733941
798,-0.6764,0.6471,0.1010,5.320,-33.320,7.420,347,329,210,301,256,2025-05-24T00:20:43.733955
799,-0.6554,0.6412,0.1181,7.070,-28.070,5.250,356,301,236,288,203,2025-05-24T00:20:43.733964
800,-0.6442,0.6446,0.1376,9.520,-22.400,2.450,339,344,244,315,252,2025-05-24T00:20:43.734028
801,-0.6495,0.6403,0.1513,13.370,-17.010,-0.560,348,353,242,319,254,2025-05-24T00:20:43.864320
802,-0.6588,0.6329,0.1484,17.430,-13.790,-3.500,297,283,247,319,266,2025-05-24T00:20:43.864352
803,-0.6739,0.6300,0.1425,22.330,-10.290,-5.250,315,345,244,307,265,2025-05-24T00:20:43.940188
804,-0.6812,0.6364,0.1313,26.810,-6.510,-6.020,341,336,239,263,265,2025-05-24T00:20:43.940544
805,-0.7047,0.6398,0.1171,30.380,-2.730,-6.580,343,341,237,311,257,2025-05-24T00:20:43.940562
806,-0.7247,0.6549,0.0966,31.990,-0.140,-6.650,358,362,246,315,262,2025-05-24T00:20:43.940575
807,-0.7593,0.6632,0.0717,32.410,0.420,-6.930,350,325,246,317,264,2025-05-24T00:20:43.940586
808,-0.7915,0.6690,0.0449,32.690,-0.910,-7.140,321,316,226,305,204,2025-05-24T00:20:43.940598
809,-0.8228,0.6769,0.0229,32.970,-3.570,-6.720,355,354,243,309,253,2025-05-24T00:20:43.940609
810,-0.8477,0.6744,-0.0020,32.830,-5.460,-6.020,337,331,233,311,263,2025-05-24T00:20:43.940621
811,-0.8594,0.6812,-0.0166,31.850,-6.160,-5.180,356,312,214,313,249,2025-05-24T00:20:43.940634
812,-0.8657,0.6866,-0.0303,30.100,-5.390,-3.430,293,347,244,322,255,2025-05-24T00:20:43.940647
813,-0.8633,0.6891,-0.0386,26.950,-4.830,-1.120,363,329,229,297,245,2025-05-24T00:20:43.940658
814,-0.8686,0.6895,-0.0478,23.030,-5.250,0.910,373,330,213,295,259,2025-05-24T00:20:43.940669
815,-0.8613,0.6905,-0.0537,19.390,-6.720,2.940,355,329,244,239,252,2025-05-24T00:20:43.940681
816,-0.8423,0.6978,-0.0478,15.190,-8.680,4.480,259,355,240,264,255,2025-05-24T00:20:43.940692
817,-0.8213,0.6969,-0.0473,11.760,-11.830,5.600,354,306,242,268,255,2025-05-24T00:20:43.940742
818,-0.7945,0.7003,-0.0503,8.540,-14.140,6.160,292,289,243,306,266,2025-05-24T00:20:43.940754
819,-0.7701,0.7096,-0.0434,6.720,-16.310,6.370,350,350,245,294,254,2025-05-24T00:20:43.940766
820,-0.7413,0.7174,-0.0400,5.180,-16.800,6.020,307,338,234,301,247,2025-05-24T00:20:43.990087
821,-0.7164,0.7237,-0.0337,2.310,-14.910,4.760,364,344,247,308,256,2025-05-24T00:20:43.990136
822,-0.7076,0.7247,-0.0273,-0.770,-12.250,4.130,363,351,236,314,255,2025-05-24T00:20:43.990149
823,-0.7061,0.7247,-0.0195,-3.220,-10.640,3.710,360,349,237,313,256,2025-05-24T00:20:43.990160
824,-0.7032,0.7164,-0.0112,-5.250,-9.800,2.450,355,278,241,298,258,2025-05-24T00:20:43.990172
825,-0.7081,0.6993,-0.0161,-5.880,-9.170,1.400,345,347,239,287,261,2025-05-24T00:20:44.166102
826,-0.7154,0.7022,-0.0146,-5.740,-8.050,1.680,343,334,245,309,263,2025-05-24T00:20:44.166146
827,-0.7193,0.7027,-0.0102,-5.810,-7.280,2.170,341,281,208,297,249,2025-05-24T00:20:44.166159
828,-0.7066,0.7052,-0.0088,-7.140,-5.880,2.730,291,333,236,312,222,2025-05-24T00:20:44.166169
829,-0.6964,0.7061,-0.0063,-9.030,-3.010,3.640,352,290,234,301,248,2025-05-24T00:20:44.166179
830,-0.7232,0.6939,-0.0166,-8.890,1.400,3.640,369,335,237,309,218,2025-05-24T00:20:44.166188
831,-0.7354,0.7066,-0.0137,-7.210,3.710,4.410,328,326,236,302,259,2025-05-24T00:20:44.166384
832,-0.7354,0.7159,-0.0117,-7.560,5.460,5.460,343,332,209,312,220,2025-05-24T00:20:44.166404
833,-0.7466,0.7042,-0.0195,-9.380,5.530,5.880,362,338,237,298,261,2025-05-24T00:20:44.166416
834,-0.7462,0.7076,-0.0229,-10.500,3.990,6.860,355,343,232,303,261,2025-05-24T00:20:44.166428
835,-0.7354,0.7139,-0.0181,-11.550,2.940,7.840,358,330,233,296,260,2025-05-24T00:20:44.166437
836,-0.7198,0.7164,-0.0137,-13.160,0.700,8.750,311,351,235,309,246,2025-05-24T00:20:44.166446
837,-0.6915,0.7183,-0.0044,-14.420,-0.910,9.240,335,349,228,295,245,2025-05-24T00:20:44.166454
838,-0.6715,0.7139,-0.0088,-14.770,-0.210,9.450,354,351,225,294,255,2025-05-24T00:20:44.166463
839,-0.6622,0.7188,0.0049,-13.230,2.100,9.730,336,349,227,291,255,2025-05-24T00:20:44.212176
840,-0.6505,0.7213,0.0156,-12.670,3.500,9.170,305,347,228,263,243,2025-05-24T00:20:44.212222
841,-0.6388,0.7227,0.0312,-13.790,2.240,7.840,360,349,224,310,253,2025-05-24T00:20:44.212234
842,-0.6066,0.7266,0.0410,-15.680,-0.490,6.860,291,340,213,299,254,2025-05-24T00:20:44.212243
843,-0.5827,0.7281,0.0464,-16.940,-2.100,6.090,300,342,209,303,244,2025-05-24T00:20:44.260641
844,-0.5758,0.7213,0.0527,-17.780,-3.640,3.220,305,342,223,308,266,2025-05-24T00:20:44.260686
845,-0.5734,0.7169,0.0630,-17.430,-8.400,-0.140,366,331,203,295,261,2025-05-24T00:20:44.260698
846,-0.5544,0.7120,0.0590,-16.310,-13.440,-4.130,312,302,219,262,260,2025-05-24T00:20:44.260707
847,-0.5329,0.7047,0.0551,-14.000,-15.050,-8.330,371,352,227,312,226,2025-05-24T00:20:44.337503
848,-0.5153,0.6954,0.0571,-11.060,-14.210,-12.880,353,344,218,313,242,2025-05-24T00:20:44.337550
849,-0.5046,0.6856,0.0537,-5.810,-12.530,-18.200,296,281,241,299,217,2025-05-24T00:20:44.337562
850,-0.5158,0.6690,0.0464,-1.330,-10.850,-24.920,289,323,237,295,245,2025-05-24T00:20:44.337572
851,-0.5436,0.6398,0.0181,3.990,-7.560,-32.200,354,349,238,270,221,2025-05-24T00:20:44.552100
852,-0.5627,0.6432,0.0044,8.540,-3.500,-39.270,328,347,238,314,224,2025-05-24T00:20:44.552287
853,-0.5763,0.6446,-0.0049,9.450,3.780,-43.610,344,339,235,308,252,2025-05-24T00:20:44.552309
854,-0.5978,0.6520,-0.0054,8.680,12.250,-46.130,358,352,238,261,260,2025-05-24T00:20:44.552323
855,-0.6100,0.6573,-0.0059,6.440,23.030,-48.930,366,279,236,313,250,2025-05-24T00:20:44.552341
856,-0.6276,0.6427,-0.0307,5.950,33.180,-52.500,373,357,231,307,256,2025-05-24T00:20:44.552356
857,-0.6090,0.6393,-0.0468,5.180,55.160,-54.950,365,340,214,314,263,2025-05-24T00:20:44.552368
858,-0.6085,0.6310,-0.0688,5.670,87.010,-56.210,356,295,242,298,250,2025-05-24T00:20:44.552381
859,-0.6324,0.6149,-0.0927,4.690,126.280,-56.280,360,278,239,300,260,2025-05-24T00:20:44.552393
860,-0.6285,0.6168,-0.1059,4.900,170.800,-54.040,378,363,234,295,248,2025-05-24T00:20:44.552405
861,-0.6476,0.6007,-0.1601,5.530,218.190,-51.170,358,352,231,292,233,2025-05-24T00:20:44.552416
862,-0.6993,0.5773,-0.2308,7.700,254.170,-48.300,361,337,228,263,260,2025-05-24T00:20:44.552428
863,-0.7969,0.5456,-0.3182,14.490,287.980,-46.270,374,337,237,310,239,2025-05-24T00:20:44.552440
864,-0.7906,0.5700,-0.4085,20.860,318.850,-41.230,369,276,227,315,258,2025-05-24T00:20:44.552584
865,-0.7647,0.5793,-0.5022,23.030,354.340,-30.520,344,310,230,314,266,2025-05-24T00:20:44.552635
866,-0.8242,0.6002,-0.6198,22.820,385.630,-18.480,359,341,207,306,259,2025-05-24T00:20:44.552648
867,-0.9130,0.6027,-0.6803,22.050,395.430,-9.520,344,294,230,307,260,2025-05-24T00:20:44.552659
868,-1.0277,0.6032,-0.7066,19.950,382.200,-2.240,358,283,229,293,257,2025-05-24T00:20:44.552670
869,-1.0946,0.5797,-0.7310,22.400,337.610,5.390,365,323,228,299,251,2025-05-24T00:20:44.552680
870,-1.0263,0.6100,-0.7159,22.260,282.170,13.930,351,273,230,298,261,2025-05-24T00:20:44.552692
871,-0.9423,0.6227,-0.7096,22.050,222.810,21.000,373,328,229,307,256,2025-05-24T00:20:44.790190
872,-0.8032,0.6534,-0.7081,19.040,164.360,29.190,368,290,191,235,258,2025-05-24T00:20:44.790237
873,-0.6788,0.6544,-0.7154,10.780,117.390,35.000,366,312,233,261,246,2025-05-24T00:20:44.790251
874,-0.6261,0.6368,-0.7159,6.930,72.870,37.240,378,333,227,259,222,2025-05-24T00:20:44.790262
875,-0.5348,0.6407,-0.7052,6.650,31.640,38.570,366,329,240,310,265,2025-05-24T00:20:44.790272
876,-0.4719,0.6227,-0.7169,8.330,14.070,40.180,293,323,233,312,222,2025-05-24T00:20:44.790285
877,-0.4368,0.6242,-0.6861,11.970,-1.330,38.080,366,331,241,309,259,2025-05-24T00:20:44.790295
878,-0.3963,0.7476,-0.6647,14.490,-11.130,32.410,358,354,242,311,199,2025-05-24T00:20:44.790305
879,-0.3523,0.6212,-0.6471,17.430,-15.750,25.130,358,354,223,298,259,2025-05-24T00:20:44.790314
880,-0.3450,0.6041,-0.6456,21.000,-15.890,19.460,294,330,242,316,248,2025-05-24T00:20:44.790323
881,-0.2943,0.6095,-0.6451,23.240,-8.890,13.370,321,340,224,235,250,2025-05-24T00:20:44.790333
882,-0.2782,0.6037,-0.6578,25.340,16.660,7.770,354,336,235,290,250,2025-05-24T00:20:44.790342
883,-0.3045,0.5866,-0.6749,29.050,5.530,4.270,372,284,243,306,257,2025-05-24T00:20:44.790351
884,-0.3533,0.5915,-0.6739,31.920,2.660,2.590,370,338,229,292,247,2025-05-24T00:20:44.790360
885,-0.3626,0.5963,-0.6710,30.870,-7.630,0.840,345,347,207,313,220,2025-05-24T00:20:44.790368
886,-0.3475,0.6124,-0.6803,25.200,-17.500,1.890,355,332,231,315,260,2025-05-24T00:20:44.790413
887,-0.3748,0.5773,-0.7130,21.280,-27.650,3.920,350,286,234,298,222,2025-05-24T00:20:44.790424
888,-0.4041,0.5661,-0.7310,21.350,-38.080,4.130,351,334,227,289,263,2025-05-24T00:20:44.972728
889,-0.3587,0.5714,-0.7442,21.700,-45.290,2.800,370,346,238,311,261,2025-05-24T00:20:44.972773
890,-0.3396,0.5602,-0.7569,21.420,-42.420,2.170,330,339,246,298,266,2025-05-24T00:20:44.972786
891,-0.3465,0.5651,-0.7452,21.420,-35.700,1.400,373,351,240,311,262,2025-05-24T00:20:44.972796
892,-0.3723,0.5588,-0.7525,21.840,-30.310,-0.140,376,362,241,313,222,2025-05-24T00:20:44.972805
893,-0.4016,0.5490,-0.7501,22.260,-29.050,-1.050,355,337,251,296,243,2025-05-24T00:20:44.972815
894,-0.4231,0.5539,-0.7393,21.560,-34.370,1.470,370,312,240,299,260,2025-05-24T00:20:44.972824
895,-0.4612,0.5397,-0.7354,20.440,-44.520,6.860,357,327,215,309,262,2025-05-24T00:20:44.972832
896,-0.4616,0.5441,-0.7335,19.320,-59.430,11.900,359,352,248,300,262,2025-05-24T00:20:44.972844
897,-0.4494,0.5363,-0.7418,17.080,-70.140,13.930,380,351,233,300,267,2025-05-24T00:20:44.972853
898,-0.4397,0.5339,-0.7437,17.150,-76.020,15.750,357,354,238,303,260,2025-05-24T00:20:44.972862
899,-0.4504,0.5466,-0.7349,17.500,-76.300,16.940,352,252,248,297,253,2025-05-24T00:20:44.972870
900,-0.4621,0.5485,-0.7242,18.270,-75.880,17.220,378,306,217,302,252,2025-05-24T00:20:44.972879
901,-0.5017,0.5348,-0.7183,18.900,-79.660,18.270,384,291,237,260,267,2025-05-24T00:20:44.972887
902,-0.5363,0.5329,-0.7120,19.600,-84.490,19.180,355,352,227,320,267,2025-05-24T00:20:44.972895
903,-0.5388,0.5373,-0.6988,19.390,-91.280,19.390,353,359,235,300,259,2025-05-24T00:20:44.972931
904,-0.5158,0.5470,-0.6954,17.430,-94.430,19.880,298,323,231,309,254,2025-05-24T00:20:44.972939
905,-0.4851,0.5612,-0.6959,11.340,-86.940,20.020,309,362,242,316,232,2025-05-24T00:20:44.972948
906,-0.4885,0.5568,-0.6891,4.760,-75.250,19.250,312,360,234,305,268,2025-05-24T00:20:45.167221
907,-0.5353,0.5431,-0.6881,1.050,-64.960,17.990,360,323,228,307,254,2025-05-24T00:20:45.167270
908,-0.5851,0.5339,-0.6710,-0.630,-62.160,18.270,374,359,232,237,228,2025-05-24T00:20:45.167282
909,-0.7486,0.5397,-0.6544,-1.330,-65.730,19.670,385,334,246,302,260,2025-05-24T00:20:45.167292
910,-0.6310,0.5339,-0.6529,-1.890,-72.800,20.650,347,345,241,311,256,2025-05-24T00:20:45.167302
911,-0.6261,0.5305,-0.6554,-1.470,-78.540,21.980,387,338,256,272,263,2025-05-24T00:20:45.167312
912,-0.6525,0.5397,-0.6476,-1.050,-84.840,23.870,414,370,245,307,264,2025-05-24T00:20:45.167321
913,-0.6495,0.5632,-0.6139,-1.890,-90.440,24.920,429,342,220,303,257,2025-05-24T00:20:45.167330
914,-0.6295,0.5592,-0.6193,-6.370,-90.790,25.270,393,362,245,260,255,2025-05-24T00:20:45.167339
915,-0.6398,0.5446,-0.6066,-10.430,-86.590,27.370,421,366,238,278,263,2025-05-24T00:20:45.167348
916,-0.6949,0.5261,-0.5885,-9.240,-85.750,30.170,406,361,227,317,271,2025-05-24T00:20:45.167357
917,-0.7686,0.4929,-0.5876,-1.960,-93.870,34.720,413,382,237,312,240,2025-05-24T00:20:45.167366
918,-0.8472,0.5051,-0.5685,5.670,-117.250,40.810,384,387,255,338,275,2025-05-24T00:20:45.167375
919,-0.9945,0.4704,-0.5866,10.990,-163.450,50.960,404,327,253,332,274,2025-05-24T00:20:45.167384
920,-1.1380,0.4109,-0.6451,24.990,-217.350,65.590,422,368,249,359,283,2025-05-24T00:20:45.167428
921,-1.1629,0.4265,-0.6651,39.830,-294.000,78.050,402,387,292,325,312,2025-05-24T00:20:45.167438
922,-1.1004,0.4636,-0.6598,47.390,-355.250,89.600,395,406,292,352,306,2025-05-24T00:20:45.373913
923,-0.9267,0.4958,-0.6598,57.400,-393.610,111.860,360,424,295,356,312,2025-05-24T00:20:45.373969
924,-0.9326,0.5124,-0.5924,62.650,-405.510,128.100,380,418,304,338,318,2025-05-24T00:20:45.373984
925,-0.9916,0.5314,-0.5300,69.160,-417.690,145.880,396,417,297,364,317,2025-05-24T00:20:45.373997
926,-0.9462,0.6134,-0.4314,66.990,-422.100,158.270,391,430,313,373,327,2025-05-24T00:20:45.374009
927,-0.8618,0.6690,-0.3738,59.500,-413.000,166.250,400,429,420,414,507,2025-05-24T00:20:45.374051
928,-0.7603,0.7032,-0.2982,49.700,-390.320,169.820,409,429,571,549,639,2025-05-24T00:20:45.374065
929,-0.7764,0.6539,-0.2469,45.010,-360.360,169.050,401,420,710,585,696,2025-05-24T00:20:45.374078
930,-0.6202,0.7305,-0.2196,36.820,-342.720,158.480,402,374,748,566,731,2025-05-24T00:20:45.374089
931,-0.4978,0.7471,-0.1723,48.090,-301.770,149.310,399,407,770,615,730,2025-05-24T00:20:45.374099
932,-0.3304,0.8008,-0.0937,49.350,-250.670,139.160,403,423,762,625,751,2025-05-24T00:20:45.374109
933,-0.3143,0.8579,-0.0117,47.740,-209.160,131.880,426,406,719,616,758,2025-05-24T00:20:45.374120
934,-0.3021,0.9174,0.0249,40.880,-182.700,124.180,422,393,621,639,746,2025-05-24T00:20:45.374131
935,-0.2738,0.9579,0.0698,28.980,-161.070,113.470,400,391,557,648,745,2025-05-24T00:20:45.374149
936,-0.2445,0.9653,0.0712,12.320,-142.800,101.500,386,341,487,649,751,2025-05-24T00:20:45.374158
937,-0.2308,0.9462,0.0756,-3.290,-126.070,90.790,399,406,435,630,735,2025-05-24T00:20:45.374209
938,-0.2323,0.9394,0.0942,-13.090,-112.980,82.110,407,424,440,644,728,2025-05-24T00:20:45.374222
939,-0.1981,0.9316,0.1098,-21.280,-100.240,72.520,421,401,424,595,729,2025-05-24T00:20:45.615811
940,-0.1893,0.8974,0.1269,-26.600,-86.660,67.130,409,400,423,622,744,2025-05-24T00:20:45.615859
941,-0.1879,0.8530,0.1259,-29.820,-69.160,62.160,413,395,406,624,731,2025-05-24T00:20:45.615876
942,-0.2757,0.8198,0.1518,-24.150,-61.110,58.870,400,348,373,610,711,2025-05-24T00:20:45.615887
943,-0.3353,0.7954,0.1464,-11.130,-65.590,58.660,404,409,386,611,682,2025-05-24T00:20:45.615914
944,-0.3133,0.8062,0.1659,-4.060,-70.280,57.750,404,298,393,594,669,2025-05-24T00:20:45.615924
945,-0.2830,0.8355,0.1928,0.490,-69.160,53.270,421,388,364,550,665,2025-05-24T00:20:45.615933
946,-0.2723,0.8804,0.2118,-1.400,-67.690,48.300,388,400,372,457,482,2025-05-24T00:20:45.615943
947,-0.2699,0.8774,0.2220,-4.690,-64.470,42.210,412,335,367,433,418,2025-05-24T00:20:45.615952
948,-0.2113,0.8867,0.2445,-5.950,-60.060,33.600,421,390,379,353,372,2025-05-24T00:20:45.615963
949,-0.2830,0.8804,0.2108,-7.420,-50.120,27.790,403,398,375,388,342,2025-05-24T00:20:45.616111
950,-0.2899,0.8550,0.2445,-5.460,-45.640,25.900,404,301,364,358,332,2025-05-24T00:20:45.616129
951,-0.3221,0.8320,0.2372,-0.770,-47.740,28.070,410,382,369,396,367,2025-05-24T00:20:45.761981
952,-0.3357,0.8340,0.2611,8.050,-53.620,29.820,415,412,377,382,364,2025-05-24T00:20:45.762022
953,-0.2923,0.8618,0.2796,11.690,-55.020,29.330,406,425,384,397,365,2025-05-24T00:20:45.762115
954,-0.2425,0.9013,0.3070,9.310,-51.520,26.530,387,394,389,378,355,2025-05-24T00:20:45.762131
955,-0.2201,0.8921,0.2835,8.190,-46.690,22.610,415,409,384,298,331,2025-05-24T00:20:45.762145
956,-0.2406,0.9043,0.2938,5.320,-43.540,20.230,397,390,390,388,318,2025-05-24T00:20:45.762158
957,-0.2118,0.8784,0.2625,6.930,-42.070,17.850,422,401,381,379,363,2025-05-24T00:20:45.762169
958,-0.1928,0.8906,0.2328,9.170,-37.240,14.420,392,341,343,383,354,2025-05-24T00:20:45.762210
959,-0.1762,0.9126,0.2338,8.120,-29.820,10.430,353,404,370,377,363,2025-05-24T00:20:45.783752
960,-0.1820,0.9252,0.2694,4.830,-28.140,8.330,383,421,372,398,379,2025-05-24T00:20:45.783809
961,-0.1928,0.9350,0.2650,0.700,-33.180,6.440,425,409,378,406,341,2025-05-24T00:20:45.783825
962,-0.1967,0.9365,0.2757,-11.550,-33.600,3.640,401,430,386,393,375,2025-05-24T00:20:45.783840
963,-0.1586,0.9111,0.2743,-14.350,-28.560,1.400,397,351,343,403,373,2025-05-24T00:20:45.783853
964,-0.1474,0.8623,0.2430,-14.350,-21.910,0.280,415,413,360,405,377,2025-05-24T00:20:45.783866
965,-0.1815,0.8813,0.2762,-9.170,-13.580,-0.420,396,416,376,390,371,2025-05-24T00:20:45.783878
966,-0.2069,0.9106,0.3245,-7.070,-7.420,-1.260,400,397,389,383,372,2025-05-24T00:20:45.783890
967,-0.2411,0.9365,0.3567,-9.100,-4.410,-2.730,425,390,389,393,379,2025-05-24T00:20:45.783902
968,-0.2987,0.9496,0.3850,-12.810,-6.580,-3.920,419,411,393,385,375,2025-05-24T00:20:45.783913
969,-0.3231,0.9355,0.3704,-18.060,-14.980,-4.060,389,428,381,385,375,2025-05-24T00:20:45.783926
970,-0.3123,0.9213,0.3343,-19.810,-23.870,-3.710,395,413,382,352,400,2025-05-24T00:20:45.783938
971,-0.2601,0.8911,0.2991,-17.220,-25.060,-2.660,396,432,348,346,350,2025-05-24T00:20:45.783949
972,-0.2074,0.8789,0.3026,-12.110,-18.130,-0.350,414,430,364,408,390,2025-05-24T00:20:45.783961
973,-0.1903,0.9023,0.3460,-7.910,-10.080,1.330,384,387,360,375,385,2025-05-24T00:20:45.989883
974,-0.1957,0.9379,0.3670,-4.830,-1.470,0.000,394,407,364,383,384,2025-05-24T00:20:45.989937
975,-0.2123,0.9472,0.3797,-7.420,3.360,-2.800,394,402,347,409,388,2025-05-24T00:20:45.989951
976,-0.2206,0.9335,0.3587,-10.990,5.180,-5.250,396,397,367,400,401,2025-05-24T00:20:45.989963
977,-0.2250,0.9379,0.3587,-14.280,4.270,-6.440,387,396,367,407,391,2025-05-24T00:20:45.989975
978,-0.2401,0.9072,0.3299,-14.840,-2.730,-4.690,400,365,362,416,389,2025-05-24T00:20:45.989985
979,-0.2357,0.8969,0.3294,-13.510,-12.390,-2.590,412,364,344,359,354,2025-05-24T00:20:45.989995
980,-0.1893,0.9057,0.3240,-13.720,-15.750,-1.820,410,404,294,404,411,2025-05-24T00:20:45.990006
981,-0.1547,0.9101,0.3260,-14.700,-12.530,-1.820,397,406,343,399,404,2025-05-24T00:20:45.990015
982,-0.1669,0.9091,0.3206,-15.680,-5.810,-2.240,390,434,371,401,397,2025-05-24T00:20:45.990026
983,-0.1932,0.9121,0.3338,-14.700,-0.490,-3.710,412,432,377,408,357,2025-05-24T00:20:45.990035
984,-0.2318,0.9267,0.3684,-15.400,0.840,-5.740,413,408,389,414,319,2025-05-24T00:20:45.990044
985,-0.2489,0.9043,0.3421,-15.330,-2.310,-6.090,420,357,379,412,359,2025-05-24T00:20:45.990053
986,-0.2523,0.9101,0.3704,-14.140,-3.010,-5.390,426,416,385,401,400,2025-05-24T00:20:45.990062
987,-0.2489,0.9179,0.3758,-12.880,-2.380,-3.710,373,420,379,402,361,2025-05-24T00:20:45.990106
988,-0.2333,0.9106,0.3816,-10.220,-2.240,-2.240,393,406,386,409,399,2025-05-24T00:20:45.990115
989,-0.2323,0.8843,0.3577,-7.210,1.470,-0.770,411,391,343,411,388,2025-05-24T00:20:45.990124
990,-0.2572,0.8721,0.3572,-3.920,3.430,1.260,425,416,365,408,370,2025-05-24T00:20:45.990136
991,-0.2625,0.9126,0.3582,0.140,3.290,2.170,411,423,375,415,404,2025-05-24T00:20:46.191814
992,-0.2381,0.9506,0.3489,0.280,8.470,1.540,420,420,383,410,412,2025-05-24T00:20:46.191844
993,-0.2294,0.9701,0.3235,-5.950,16.520,-1.820,420,425,394,375,360,2025-05-24T00:20:46.191852
994,-0.2103,0.9496,0.2923,-13.510,25.130,-7.140,399,423,392,401,405,2025-05-24T00:20:46.191858
995,-0.1752,0.9443,0.2601,-18.690,38.640,-13.300,388,380,386,401,359,2025-05-24T00:20:46.191864
996,-0.1371,0.9345,0.2074,-27.230,55.440,-20.860,335,409,392,410,398,2025-05-24T00:20:46.191870
997,-0.0839,0.8867,0.1762,-35.140,92.540,-32.620,356,399,373,401,402,2025-05-24T00:20:46.191876
998,-0.0947,0.8174,0.0454,-39.760,137.690,-38.500,379,427,371,410,408,2025-05-24T00:20:46.191881
999,-0.2367,0.7784,0.1171,-36.400,164.220,-40.810,416,390,387,416,408,2025-05-24T00:20:46.191887
1000,-0.3797,0.8208,0.1698,-32.970,164.920,-37.800,381,401,376,357,412,2025-05-24T00:20:46.191892
1001,-0.4485,0.8691,0.2235,-36.680,147.840,-33.320,355,413,340,416,375,2025-05-24T00:20:46.191897
1002,-0.4358,0.9048,0.2806,-49.280,129.640,-32.060,384,436,329,405,402,2025-05-24T00:20:46.191903
1003,-0.4104,0.8838,0.3279,-60.130,112.700,-28.630,415,353,311,413,395,2025-05-24T00:20:46.191909
1004,-0.4304,0.8491,0.3684,-58.660,96.390,-24.080,417,411,345,401,356,2025-05-24T00:20:46.191916
1005,-0.4470,0.8525,0.4026,-51.660,80.990,-19.530,348,408,325,411,413,2025-05-24T00:20:46.191941
1006,-0.4412,0.8355,0.4109,-37.940,72.240,-15.960,388,358,357,408,365,2025-05-24T00:20:46.191948
1007,-0.4748,0.8203,0.4651,-27.790,60.760,-13.020,387,411,361,411,356,2025-05-24T00:20:46.191954
1008,-0.5456,0.7896,0.4480,-9.870,34.790,-6.510,343,399,354,404,415,2025-05-24T00:20:46.239348
1009,-0.5319,0.8037,0.4577,-0.140,12.740,-0.490,399,389,376,398,362,2025-05-24T00:20:46.239391
1010,-0.4577,0.8457,0.4504,4.970,5.530,1.960,405,392,370,373,411,2025-05-24T00:20:46.239406
1011,-0.3889,0.8647,0.4275,3.290,14.840,0.000,394,402,344,351,403,2025-05-24T00:20:46.239415
1012,-0.3226,0.8594,0.3850,-2.730,38.430,-6.790,415,407,354,411,424,2025-05-24T00:20:46.319069
1013,-0.3167,0.8286,0.3333,-8.330,63.980,-17.010,431,401,354,363,396,2025-05-24T00:20:46.319115
1014,-0.3274,0.7935,0.2918,-11.130,87.710,-27.020,421,408,338,348,364,2025-05-24T00:20:46.319389
1015,-0.3406,0.7608,0.2455,-12.460,108.430,-35.700,425,396,371,392,386,2025-05-24T00:20:46.319403
1016,-0.3460,0.7676,0.2582,-17.010,132.160,-46.480,347,389,334,411,422,2025-05-24T00:20:46.411049
1017,-0.3919,0.7696,0.2469,-21.840,150.150,-55.300,407,424,363,420,418,2025-05-24T00:20:46.411086
1018,-0.4519,0.7710,0.2625,-28.280,154.840,-61.950,394,422,378,412,428,2025-05-24T00:20:46.411097
1019,-0.5358,0.7632,0.2708,-34.230,146.650,-64.050,381,407,365,362,386,2025-05-24T00:20:46.411105
1020,-0.5475,0.7764,0.3074,-40.670,129.710,-65.380,387,342,363,398,429,2025-05-24T00:20:46.411112
1021,-0.5549,0.7623,0.3050,-47.390,119.840,-65.520,391,396,335,367,423,2025-05-24T00:20:46.411120
1022,-0.6168,0.7291,0.3328,-48.160,105.560,-64.120,338,415,363,399,437,2025-05-24T00:20:46.411128
1023,-0.6934,0.7418,0.3626,-43.540,85.260,-58.870,406,426,342,377,385,2025-05-24T00:20:46.411135
1024,-0.8125,0.7530,0.3943,-36.610,50.400,-46.130,402,419,361,353,312,2025-05-24T00:20:46.411143
1025,-0.8472,0.7496,0.3816,-26.530,18.970,-29.960,380,378,371,334,292,2025-05-24T00:20:46.411150
1026,-0.9072,0.7696,0.4250,-16.590,-17.640,-17.640,411,335,383,317,290,2025-05-24T00:20:46.462142
1027,-0.9218,0.7969,0.4587,-9.730,-49.630,-5.740,394,391,372,317,296,2025-05-24T00:20:46.462166
1028,-0.8350,0.8477,0.4636,-4.830,-65.100,3.640,417,397,378,344,265,2025-05-24T00:20:46.462171
1029,-0.7647,0.8760,0.4407,-2.660,-62.020,11.550,396,411,382,357,307,2025-05-24T00:20:46.462175
1030,-0.6978,0.8652,0.4085,-2.870,-53.550,15.750,387,399,390,361,304,2025-05-24T00:20:46.513929
1031,-0.6603,0.8677,0.3933,-6.860,-36.470,14.980,389,431,389,347,305,2025-05-24T00:20:46.513979
1032,-0.6378,0.8252,0.3367,-9.870,-19.670,12.390,410,415,379,352,315,2025-05-24T00:20:46.513992
1033,-0.6144,0.7788,0.2943,-10.010,-3.080,11.130,418,404,372,350,264,2025-05-24T00:20:46.514003
1034,-0.6407,0.7442,0.2879,-6.300,2.520,12.040,427,415,380,362,321,2025-05-24T00:20:46.768075
1035,-0.6217,0.7457,0.2933,-2.590,0.980,14.980,403,422,382,356,321,2025-05-24T00:20:46.768108
1036,-0.6032,0.7369,0.2879,-1.610,-2.170,19.250,376,365,385,339,312,2025-05-24T00:20:46.768117
1037,-0.6154,0.7330,0.2967,-4.130,-9.870,19.880,422,398,377,368,303,2025-05-24T00:20:46.768124
1038,-0.5656,0.7584,0.2904,-7.210,-17.360,18.900,422,432,388,320,315,2025-05-24T00:20:46.768130
1039,-0.5261,0.7501,0.2889,-10.710,-18.200,17.010,407,424,339,364,285,2025-05-24T00:20:46.768136
1040,-0.5139,0.7486,0.2913,-11.550,-17.360,14.000,384,382,362,370,262,2025-05-24T00:20:46.768143
1041,-0.5153,0.7476,0.3006,-11.690,-18.060,10.080,295,327,361,379,299,2025-05-24T00:20:46.768148
1042,-0.5046,0.7471,0.2996,-10.920,-18.340,8.120,394,395,369,369,311,2025-05-24T00:20:46.768155
1043,-0.5168,0.7291,0.3143,-10.570,-19.180,7.070,417,387,368,341,316,2025-05-24T00:20:46.768161
1044,-0.5295,0.7354,0.3494,-10.010,-23.030,6.510,360,409,377,353,310,2025-05-24T00:20:46.768167
1045,-0.5392,0.7398,0.3670,-7.350,-29.400,6.650,389,411,383,369,321,2025-05-24T00:20:46.768173
1046,-0.5314,0.7569,0.3860,-5.950,-33.250,6.370,414,411,370,292,318,2025-05-24T00:20:46.768182
1047,-0.5397,0.7510,0.3875,-5.600,-33.950,4.620,404,425,380,321,298,2025-05-24T00:20:46.768187
1048,-0.5436,0.7349,0.3977,-3.850,-32.900,3.010,399,390,394,364,267,2025-05-24T00:20:46.768245
1049,-0.5344,0.7261,0.3782,0.980,-29.750,1.680,387,386,392,394,278,2025-05-24T00:20:46.768252
1050,-0.5700,0.7276,0.3972,7.070,-28.770,3.150,350,391,389,383,308,2025-05-24T00:20:46.768259
1051,-0.6183,0.7398,0.4216,11.340,-37.590,4.830,364,395,379,396,318,2025-05-24T00:20:46.768266
1052,-0.6105,0.7779,0.4358,12.040,-45.850,6.580,408,413,339,389,306,2025-05-24T00:20:46.768271
1053,-0.5905,0.7989,0.4377,8.120,-54.530,7.910,422,350,354,348,306,2025-05-24T00:20:46.768276
1054,-0.5344,0.8003,0.4270,3.920,-54.740,8.050,347,386,331,370,277,2025-05-24T00:20:47.037796
1055,-0.5065,0.7520,0.3621,5.250,-47.950,7.770,402,409,350,355,305,2025-05-24T00:20:47.037846
1056,-0.5324,0.7369,0.3924,12.390,-46.620,9.030,410,382,373,391,292,2025-05-24T00:20:47.037860
1057,-0.5397,0.7393,0.3748,19.530,-47.880,12.740,417,425,380,365,306,2025-05-24T00:20:47.037871
1058,-0.5675,0.7647,0.4046,23.800,-71.050,16.800,425,345,368,404,313,2025-05-24T00:20:47.037882
1059,-0.5622,0.8003,0.4075,23.870,-61.740,19.880,409,376,381,393,331,2025-05-24T00:20:47.037893
1060,-0.5017,0.8296,0.4065,17.430,-63.420,19.180,387,337,385,401,316,2025-05-24T00:20:47.037904
1061,-0.4543,0.8550,0.3831,8.400,-56.490,15.610,425,411,391,402,289,2025-05-24T00:20:47.037914
1062,-0.4192,0.8247,0.3699,3.850,-42.700,10.080,403,415,386,407,340,2025-05-24T00:20:47.037923
1063,-0.4231,0.7671,0.3328,0.770,-29.820,5.390,375,417,389,405,351,2025-05-24T00:20:47.037933
1064,-0.4372,0.7271,0.2948,9.660,-20.510,3.920,391,426,391,388,357,2025-05-24T00:20:47.037943
1065,-0.4548,0.7847,0.3616,18.690,-9.590,5.250,336,395,377,393,342,2025-05-24T00:20:47.037952
1066,-0.4763,0.8111,0.3762,18.830,-4.620,6.510,412,345,340,411,348,2025-05-24T00:20:47.037962
1067,-0.5051,0.8296,0.3816,13.650,-8.890,8.750,355,384,371,397,333,2025-05-24T00:20:47.037971
1068,-0.4904,0.8189,0.3558,7.770,-13.230,9.380,404,425,365,409,347,2025-05-24T00:20:47.037980
1069,-0.4778,0.8057,0.3494,5.880,-17.010,8.470,400,396,364,350,295,2025-05-24T00:20:47.038024
1070,-0.4358,0.7842,0.3070,9.660,-14.210,5.600,405,402,375,327,292,2025-05-24T00:20:47.038038
1071,-0.3909,0.8111,0.3416,11.690,-5.880,3.290,401,397,370,374,351,2025-05-24T00:20:47.038047
1072,-0.3855,0.7891,0.3597,13.930,-0.210,3.220,412,378,374,392,365,2025-05-24T00:20:47.038057
1073,-0.4182,0.7886,0.3782,16.730,7.560,6.370,398,393,379,388,316,2025-05-24T00:20:47.038065
1074,-0.4846,0.7359,0.3411,25.970,7.560,9.730,340,396,375,383,338,2025-05-24T00:20:47.038074
1075,-0.5358,0.7784,0.3919,37.940,-2.520,13.510,345,389,382,392,358,2025-05-24T00:20:47.083635
1076,-0.5173,0.8311,0.3967,42.560,-16.450,15.120,410,424,376,345,353,2025-05-24T00:20:47.083683
1077,-0.4558,0.8877,0.3982,37.870,-18.270,14.280,370,306,371,391,345,2025-05-24T00:20:47.083695
1078,-0.4236,0.8550,0.3436,27.230,-15.680,8.190,381,403,378,411,361,2025-05-24T00:20:47.083706
1079,-0.4290,0.8603,0.3553,22.470,-9.940,1.890,423,419,369,388,363,2025-05-24T00:20:47.083717
1080,-0.4216,0.8682,0.3587,20.510,-3.780,-0.840,422,365,374,392,317,2025-05-24T00:20:47.083726
1081,-0.4494,0.8579,0.3265,17.710,1.120,0.910,419,416,334,366,315,2025-05-24T00:20:47.083734
1082,-0.4660,0.8823,0.3494,9.870,-0.700,3.080,418,432,367,399,345,2025-05-24T00:20:47.131657
1083,-0.4402,0.8896,0.3401,0.910,-5.040,6.650,392,434,375,393,353,2025-05-24T00:20:47.131702
1084,-0.4460,0.8701,0.3987,-2.170,-14.490,8.750,409,426,380,401,309,2025-05-24T00:20:47.131714
1085,-0.4246,0.8018,0.2938,0.070,-13.580,7.560,384,385,379,388,356,2025-05-24T00:20:47.131724
1086,-0.4358,0.8189,0.3328,2.660,-14.140,6.370,360,430,380,400,368,2025-05-24T00:20:47.181398
1087,-0.4046,0.8057,0.2987,7.350,-12.670,6.370,408,408,381,409,365,2025-05-24T00:20:47.181449
1088,-0.4226,0.8447,0.3484,7.490,-8.050,6.720,385,429,389,413,377,2025-05-24T00:20:47.181462
1089,-0.4377,0.8799,0.3792,3.360,-8.750,7.420,392,391,394,400,328,2025-05-24T00:20:47.181472
1090,-0.4695,0.8823,0.3704,2.660,-10.290,7.630,405,415,348,408,385,2025-05-24T00:20:47.420405
1091,-0.4690,0.8721,0.3640,-2.450,-14.070,7.910,406,407,364,403,390,2025-05-24T00:20:47.420450
1092,-0.4538,0.8477,0.3172,-4.900,-19.180,7.280,340,356,378,409,382,2025-05-24T00:20:47.420462
1093,-0.4392,0.8477,0.3558,-4.340,-17.780,7.560,414,371,340,418,392,2025-05-24T00:20:47.420472
1094,-0.4055,0.8355,0.3318,1.400,-12.110,8.540,356,416,371,404,406,2025-05-24T00:20:47.420482
1095,-0.4163,0.8506,0.3314,2.800,-7.980,7.140,414,412,304,393,400,2025-05-24T00:20:47.420491
1096,-0.3884,0.8652,0.3348,1.400,-2.450,6.020,401,395,304,407,413,2025-05-24T00:20:47.420499
1097,-0.3728,0.8672,0.3265,-0.840,5.810,4.690,418,402,346,416,400,2025-05-24T00:20:47.420508
1098,-0.3816,0.8657,0.3284,-3.850,10.500,2.520,399,410,369,393,385,2025-05-24T00:20:47.420520
1099,-0.4148,0.8677,0.3113,-10.990,13.790,-1.050,413,431,370,415,390,2025-05-24T00:20:47.420530
1100,-0.4036,0.8481,0.2782,-16.660,15.050,-3.290,428,426,377,413,390,2025-05-24T00:20:47.420539
1101,-0.4197,0.7701,0.2294,-17.500,14.420,-2.100,363,409,369,392,385,2025-05-24T00:20:47.569108
1102,-0.4119,0.7871,0.2567,-12.600,10.780,-1.050,407,399,377,396,370,2025-05-24T00:20:47.569143
1103,-0.3723,0.8145,0.2669,-11.340,15.260,-0.840,424,421,373,393,381,2025-05-24T00:20:47.569154
1104,-0.3758,0.8233,0.2811,-14.840,20.440,-3.220,411,434,373,398,366,2025-05-24T00:20:47.569223
1105,-0.3601,0.8145,0.2738,-17.220,24.080,-5.880,413,426,342,388,396,2025-05-24T00:20:47.569234
1106,-0.3704,0.8276,0.2943,-20.440,26.110,-7.910,415,342,355,380,407,2025-05-24T00:20:47.569244
1107,-0.4055,0.8252,0.3060,-22.750,29.260,-9.730,420,411,363,393,401,2025-05-24T00:20:47.569254
1108,-0.4460,0.8281,0.3221,-23.520,29.820,-11.340,437,396,376,400,409,2025-05-24T00:20:47.569264
1109,-0.4485,0.8364,0.3333,-24.080,27.020,-10.990,432,426,377,406,371,2025-05-24T00:20:47.569274
1110,-0.4577,0.8262,0.3382,-24.220,25.760,-10.010,412,391,388,421,379,2025-05-24T00:20:47.634212
1111,-0.4758,0.8140,0.3562,-21.700,23.240,-7.910,391,336,314,396,385,2025-05-24T00:20:47.634262
1112,-0.4890,0.8184,0.3792,-17.360,18.130,-5.810,390,388,343,403,402,2025-05-24T00:20:47.634276
1113,-0.4714,0.8530,0.3875,-15.960,18.060,-5.040,391,408,358,417,391,2025-05-24T00:20:47.634286
1114,-0.4748,0.8686,0.3948,-17.430,21.420,-5.390,336,351,361,392,348,2025-05-24T00:20:47.634297
1115,-0.4836,0.8520,0.3728,-19.670,24.710,-6.720,327,329,369,396,399,2025-05-24T00:20:47.634307
1116,-0.4860,0.8340,0.3631,-21.070,29.820,-7.560,411,330,369,411,405,2025-05-24T00:20:47.634316
1117,-0.5070,0.7808,0.3094,-19.530,32.060,-6.440,410,335,380,394,402,2025-05-24T00:20:47.634325
1118,-0.5451,0.7588,0.3192,-11.690,27.230,-2.870,420,380,354,369,394,2025-05-24T00:20:47.634334
1119,-0.5261,0.8145,0.3601,-7.560,21.210,0.420,429,410,328,404,351,2025-05-24T00:20:47.634342
1120,-0.4851,0.8423,0.3572,-11.620,21.490,3.430,430,414,347,407,381,2025-05-24T00:20:47.634469
1121,-0.4709,0.8535,0.3475,-19.040,27.230,2.660,406,352,364,396,386,2025-05-24T00:20:47.634478
1122,-0.4690,0.8316,0.3211,-23.730,32.970,0.140,373,407,375,385,378,2025-05-24T00:20:47.634487
1123,-0.4626,0.8169,0.3255,-27.650,35.770,-3.500,412,360,382,401,398,2025-05-24T00:20:47.634496
1124,-0.4514,0.7701,0.2869,-27.440,43.050,-5.530,399,376,345,349,396,2025-05-24T00:20:47.634540
1125,-0.4587,0.7735,0.3250,-25.480,46.830,-8.540,427,415,351,380,366,2025-05-24T00:20:47.634549
1126,-0.4626,0.7774,0.3123,-24.430,48.300,-8.540,420,429,363,397,337,2025-05-24T00:20:47.634558
1127,-0.4904,0.7691,0.3328,-23.870,45.080,-7.840,404,360,364,413,367,2025-05-24T00:20:47.855554
1128,-0.4973,0.7915,0.3670,-25.550,39.550,-7.350,407,385,382,404,397,2025-05-24T00:20:47.855600
1129,-0.4826,0.8023,0.3782,-29.050,37.660,-8.540,428,376,351,403,393,2025-05-24T00:20:47.855612
1130,-0.4719,0.8057,0.3748,-31.290,40.670,-10.640,405,407,364,414,413,2025-05-24T00:20:47.855623
1131,-0.4680,0.7979,0.3875,-31.920,47.250,-15.050,342,427,378,414,422,2025-05-24T00:20:47.855634
1132,-0.4729,0.7774,0.3733,-30.800,55.440,-20.790,380,353,379,404,377,2025-05-24T00:20:47.855643
1133,-0.5158,0.7618,0.4002,-29.190,62.580,-24.500,399,395,378,353,337,2025-05-24T00:20:47.855653
1134,-0.5949,0.7437,0.4231,-24.850,56.910,-22.400,404,407,374,379,372,2025-05-24T00:20:47.855662
1135,-0.6529,0.7471,0.4460,-20.790,42.070,-15.680,404,417,371,389,376,2025-05-24T00:20:47.855671
1136,-0.6959,0.7535,0.4607,-16.030,21.210,-8.820,419,415,377,379,395,2025-05-24T00:20:47.855680
1137,-0.6842,0.7540,0.4587,-11.480,8.820,-2.100,431,405,367,381,393,2025-05-24T00:20:47.855689
1138,-0.6334,0.7735,0.4577,-10.150,4.900,0.490,401,409,362,401,396,2025-05-24T00:20:47.855699
1139,-0.5876,0.7788,0.4368,-9.870,9.030,0.070,399,424,342,388,404,2025-05-24T00:20:47.855708
1140,-0.5817,0.7671,0.4128,-9.520,14.420,-1.750,377,431,368,356,402,2025-05-24T00:20:47.855720
1141,-0.5778,0.7627,0.3943,-7.770,20.300,-2.940,415,419,375,391,391,2025-05-24T00:20:47.855759
1142,-0.5783,0.7544,0.3865,-5.880,23.870,-3.570,415,433,379,399,403,2025-05-24T00:20:47.855769
1143,-0.6227,0.7422,0.3802,-3.150,17.710,-1.750,391,431,389,388,393,2025-05-24T00:20:47.855777
1144,-0.6246,0.7520,0.3845,-1.540,7.070,2.240,419,426,393,398,409,2025-05-24T00:20:47.855786
1145,-0.6022,0.7554,0.3738,-1.190,-0.280,5.110,411,431,380,397,413,2025-05-24T00:20:47.855795
1146,-0.5729,0.7632,0.3850,-1.750,-3.920,5.040,397,432,377,396,416,2025-05-24T00:20:47.939622
1147,-0.5383,0.7725,0.3831,-2.870,-1.540,3.220,367,398,345,403,393,2025-05-24T00:20:47.939667
1148,-0.5348,0.7706,0.3836,-4.200,1.330,0.140,387,410,360,358,392,2025-05-24T00:20:47.939679
1149,-0.5466,0.7579,0.3762,-4.130,0.210,-1.400,407,419,365,393,379,2025-05-24T00:20:47.939688
1150,-0.5588,0.7486,0.3758,-2.660,-4.410,-1.330,400,426,339,393,338,2025-05-24T00:20:47.939698
1151,-0.5578,0.7554,0.3880,-0.140,-10.360,-0.350,420,379,364,358,383,2025-05-24T00:20:48.034966
1152,-0.5397,0.7540,0.3958,1.680,-12.320,1.050,397,408,377,401,406,2025-05-24T00:20:48.035012
1153,-0.5568,0.7510,0.3899,3.150,-12.670,1.610,401,399,383,387,409,2025-05-24T00:20:48.035026
1154,-0.5627,0.7632,0.3899,5.460,-10.920,0.630,394,380,356,356,394,2025-05-24T00:20:48.035036
1155,-0.5588,0.7666,0.3709,6.160,-7.000,-0.770,342,425,367,400,353,2025-05-24T00:20:48.035046
1156,-0.5885,0.7584,0.3865,7.700,-7.630,-1.470,405,411,375,399,379,2025-05-24T00:20:48.035057
1157,-0.5827,0.7681,0.3894,8.540,-9.450,-1.400,412,422,382,402,396,2025-05-24T00:20:48.035070
1158,-0.5939,0.7593,0.3850,9.520,-12.390,-0.910,410,405,375,386,392,2025-05-24T00:20:48.035081
1159,-0.6032,0.7608,0.3928,11.830,-17.080,0.420,357,405,374,387,382,2025-05-24T00:20:48.035092
1160,-0.5836,0.7598,0.3875,13.230,-21.420,3.220,402,421,374,402,391,2025-05-24T00:20:48.035102
1161,-0.6041,0.7549,0.3777,15.680,-27.230,7.210,413,415,385,411,409,2025-05-24T00:20:48.084636
1162,-0.6100,0.7725,0.3748,17.010,-33.810,10.290,424,435,375,352,411,2025-05-24T00:20:48.084679
1163,-0.5934,0.7637,0.3601,17.850,-38.360,10.920,414,377,333,389,392,2025-05-24T00:20:48.084690
1164,-0.5773,0.7745,0.3767,18.970,-39.410,10.570,420,391,344,304,389,2025-05-24T00:20:48.084700
1165,-0.5539,0.7891,0.3870,17.920,-37.660,9.730,345,390,373,365,384,2025-05-24T00:20:48.133174
1166,-0.5739,0.7837,0.4124,16.870,-39.970,9.450,338,424,373,397,396,2025-05-24T00:20:48.133357
1167,-0.5627,0.7857,0.4114,16.940,-44.030,10.780,413,419,372,406,353,2025-05-24T00:20:48.133591
1168,-0.5466,0.7784,0.3987,18.410,-46.620,12.320,398,405,384,350,377,2025-05-24T00:20:48.133605
1169,-0.5246,0.7784,0.3806,19.600,-48.860,12.670,389,432,377,326,400,2025-05-24T00:20:48.207752
1170,-0.4968,0.7876,0.3660,19.600,-48.020,12.180,406,432,351,384,404,2025-05-24T00:20:48.207798
1171,-0.4812,0.7901,0.3445,18.130,-46.620,10.010,418,417,372,408,405,2025-05-24T00:20:48.207810
1172,-0.4797,0.7808,0.3489,16.310,-45.360,7.700,413,425,337,387,403,2025-05-24T00:20:48.207820
1173,-0.4851,0.7788,0.3533,14.770,-47.460,6.440,418,405,352,401,394,2025-05-24T00:20:48.424700
1174,-0.4963,0.7725,0.3567,12.880,-51.590,6.370,416,373,360,310,404,2025-05-24T00:20:48.424743
1175,-0.5056,0.7676,0.3440,12.250,-57.610,7.770,403,411,366,393,401,2025-05-24T00:20:48.424755
1176,-0.4953,0.7593,0.3113,12.460,-63.070,9.450,393,387,378,352,348,2025-05-24T00:20:48.424769
1177,-0.4934,0.7491,0.3148,16.240,-67.690,12.880,416,423,387,377,363,2025-05-24T00:20:48.424779
1178,-0.4709,0.7740,0.3196,18.830,-69.090,16.450,426,407,389,383,376,2025-05-24T00:20:48.424788
1179,-0.4651,0.8072,0.3450,17.920,-67.550,17.430,359,338,388,349,379,2025-05-24T00:20:48.424797
1180,-0.4704,0.8291,0.3675,13.020,-66.850,16.170,403,389,387,379,406,2025-05-24T00:20:48.424806
1181,-0.4558,0.8398,0.3821,7.350,-63.840,12.600,397,421,371,389,395,2025-05-24T00:20:48.424815
1182,-0.4358,0.8184,0.3719,4.130,-55.720,9.030,419,425,383,385,409,2025-05-24T00:20:48.424824
1183,-0.4153,0.8067,0.4002,6.300,-45.360,5.320,419,418,374,395,410,2025-05-24T00:20:48.424834
1184,-0.4241,0.8072,0.4177,9.940,-34.230,4.200,418,409,377,380,358,2025-05-24T00:20:48.424842
1185,-0.4543,0.8145,0.4294,13.510,-29.050,5.530,425,432,350,393,371,2025-05-24T00:20:48.424852
1186,-0.4773,0.8335,0.4392,15.960,-29.050,6.930,418,356,331,402,399,2025-05-24T00:20:48.424861
1187,-0.4680,0.8467,0.4470,15.260,-29.190,7.280,390,405,364,406,408,2025-05-24T00:20:48.424901
1188,-0.4582,0.8472,0.4573,13.300,-28.560,6.440,423,341,377,388,368,2025-05-24T00:20:48.424911
1189,-0.4563,0.8403,0.4494,12.530,-27.090,4.410,429,382,385,406,344,2025-05-24T00:20:48.424919
1190,-0.4177,0.8208,0.4211,13.510,-22.750,3.220,406,347,389,400,384,2025-05-24T00:20:48.424927
1191,-0.4085,0.8184,0.4202,16.590,-17.360,3.080,423,381,390,416,401,2025-05-24T00:20:48.424936
1192,-0.4050,0.8252,0.4314,18.900,-11.410,3.360,422,418,381,423,401,2025-05-24T00:20:48.424944
1193,-0.4382,0.8242,0.4358,19.670,-11.480,3.500,419,404,383,399,400,2025-05-24T00:20:48.663912
1194,-0.4529,0.8340,0.4290,19.950,-17.010,4.410,431,400,386,413,397,2025-05-24T00:20:48.663965
1195,-0.4280,0.8350,0.4211,19.250,-21.280,5.810,425,402,385,417,385,2025-05-24T00:20:48.663978
1196,-0.4197,0.8218,0.4050,18.690,-24.220,6.930,411,419,373,400,349,2025-05-24T00:20:48.663993
1197,-0.4065,0.8223,0.3948,18.830,-27.230,6.300,410,415,379,414,385,2025-05-24T00:20:48.664004
1198,-0.3860,0.8403,0.3899,18.060,-28.070,5.250,396,419,342,313,398,2025-05-24T00:20:48.664015
1199,-0.3655,0.8418,0.4046,15.750,-25.830,3.710,416,405,370,383,389,2025-05-24T00:20:48.664025
1200,-0.3699,0.8457,0.4207,13.860,-24.080,1.750,400,401,374,358,397,2025-05-24T00:20:48.664036
1201,-0.3733,0.8472,0.4270,13.580,-23.100,-0.070,427,419,381,398,414,2025-05-24T00:20:48.664047
1202,-0.3704,0.8472,0.4280,13.930,-22.050,-1.400,427,347,341,389,403,2025-05-24T00:20:48.664057
1203,-0.3762,0.8418,0.4250,14.070,-23.310,-2.100,397,388,353,404,354,2025-05-24T00:20:48.664066
1204,-0.4006,0.8316,0.4226,14.140,-30.730,-1.820,420,397,367,398,347,2025-05-24T00:20:48.664075
1205,-0.3928,0.8208,0.4089,13.790,-38.080,-1.050,430,432,369,411,386,2025-05-24T00:20:48.664084
1206,-0.3719,0.8169,0.4187,14.700,-39.550,0.280,425,428,339,397,378,2025-05-24T00:20:48.664206
1207,-0.3523,0.8174,0.4177,16.520,-37.940,-0.560,402,429,349,389,401,2025-05-24T00:20:48.664216
1208,-0.3318,0.8418,0.4270,17.010,-33.460,-2.450,397,415,356,416,400,2025-05-24T00:20:48.664263
1209,-0.3382,0.8496,0.4343,15.120,-27.510,-5.950,406,350,339,401,403,2025-05-24T00:20:48.664272
1210,-0.3606,0.8525,0.4255,12.950,-27.090,-9.520,404,413,346,356,407,2025-05-24T00:20:48.664281
1211,-0.3880,0.8560,0.4070,10.710,-29.680,-12.040,428,405,321,375,406,2025-05-24T00:20:48.664290
1212,-0.4006,0.8481,0.3826,8.820,-33.530,-11.760,397,424,328,408,411,2025-05-24T00:20:48.664299
1213,-0.4348,0.8364,0.3631,9.590,-38.920,-9.520,390,413,353,393,405,2025-05-24T00:20:48.664308
1214,-0.4299,0.8428,0.3294,11.900,-45.080,-7.770,398,407,370,418,415,2025-05-24T00:20:48.713392
1215,-0.4060,0.8520,0.3309,13.510,-47.040,-6.860,416,361,377,408,369,2025-05-24T00:20:48.713435
1216,-0.4021,0.8750,0.3475,12.040,-45.150,-7.490,420,415,381,391,389,2025-05-24T00:20:48.713446
1217,-0.3850,0.8779,0.3465,8.260,-39.760,-9.170,417,423,364,358,353,2025-05-24T00:20:48.713455
1218,-0.3938,0.8721,0.3431,5.320,-34.440,-10.290,409,395,357,380,352,2025-05-24T00:20:48.764781
1219,-0.4250,0.8555,0.3567,3.640,-33.320,-9.800,424,393,377,397,380,2025-05-24T00:20:48.764830
1220,-0.4387,0.8306,0.3509,3.990,-36.470,-8.190,406,403,336,413,344,2025-05-24T00:20:48.764846
1221,-0.4631,0.8394,0.3572,5.110,-43.820,-6.020,405,425,365,405,362,2025-05-24T00:20:48.764857
1222,-0.4324,0.8452,0.3504,6.720,-48.510,-3.570,428,379,361,393,387,2025-05-24T00:20:48.887584
1223,-0.3992,0.8520,0.3538,8.330,-48.370,-1.050,428,345,368,350,355,2025-05-24T00:20:48.887645
1224,-0.4006,0.8686,0.3680,10.150,-46.620,0.140,404,360,338,351,329,2025-05-24T00:20:48.887654
1225,-0.3914,0.8745,0.3728,10.290,-43.330,-0.140,391,403,365,383,372,2025-05-24T00:20:48.887662
1226,-0.3699,0.8721,0.3733,8.470,-37.380,-1.540,368,407,371,377,382,2025-05-24T00:20:48.887669
1227,-0.3562,0.8677,0.3728,5.880,-30.170,-3.850,334,395,381,387,386,2025-05-24T00:20:48.887676
1228,-0.3411,0.8560,0.3626,4.900,-23.310,-5.740,336,418,337,385,404,2025-05-24T00:20:48.887683
1229,-0.3572,0.8364,0.3548,6.440,-21.210,-5.810,384,432,356,391,386,2025-05-24T00:20:48.887690
1230,-0.3528,0.8394,0.3518,9.100,-23.940,-4.760,417,403,358,395,396,2025-05-24T00:20:49.212359
1231,-0.3289,0.8477,0.3597,10.360,-27.510,-2.800,379,434,365,387,405,2025-05-24T00:20:49.212508
1232,-0.3206,0.8511,0.3665,10.640,-29.470,-2.170,411,409,375,404,369,2025-05-24T00:20:49.212522
1233,-0.2972,0.8540,0.3670,10.220,-29.540,-3.430,402,427,380,367,385,2025-05-24T00:20:49.212533
1234,-0.2840,0.8686,0.3748,8.820,-26.600,-6.370,394,410,389,335,402,2025-05-24T00:20:49.212542
1235,-0.2918,0.8647,0.3855,6.370,-23.100,-9.870,394,399,373,381,408,2025-05-24T00:20:49.212551
1236,-0.2899,0.8520,0.3792,3.990,-20.020,-11.760,407,424,387,390,394,2025-05-24T00:20:49.212560
1237,-0.3060,0.8384,0.3811,3.010,-19.950,-12.810,428,435,384,410,397,2025-05-24T00:20:49.212569
1238,-0.3177,0.8247,0.3919,6.160,-20.160,-11.480,421,401,371,412,367,2025-05-24T00:20:49.212577
1239,-0.3240,0.8394,0.3992,10.500,-22.680,-9.170,425,406,388,414,397,2025-05-24T00:20:49.212586
1240,-0.3304,0.8628,0.4114,12.390,-26.250,-8.120,402,379,373,410,403,2025-05-24T00:20:49.212594
1241,-0.3231,0.8779,0.4041,12.040,-26.390,-8.680,413,421,373,414,405,2025-05-24T00:20:49.212602
1242,-0.3074,0.8828,0.3904,10.220,-23.660,-9.520,425,402,374,416,363,2025-05-24T00:20:49.212610
1243,-0.3187,0.8750,0.3928,8.120,-20.860,-10.710,412,414,380,354,344,2025-05-24T00:20:49.212618
1244,-0.3274,0.8711,0.3963,5.880,-17.710,-11.690,422,433,382,401,365,2025-05-24T00:20:49.212666
1245,-0.3226,0.8564,0.3767,4.620,-15.470,-11.550,395,425,382,374,338,2025-05-24T00:20:49.212675
1246,-0.3187,0.8481,0.3748,5.530,-13.650,-10.780,419,415,365,379,378,2025-05-24T00:20:49.212683
1247,-0.3177,0.8638,0.3933,7.840,-11.130,-9.380,437,409,360,351,397,2025-05-24T00:20:49.212691
1248,-0.3396,0.8711,0.4089,8.190,-11.830,-8.610,434,425,371,375,408,2025-05-24T00:20:49.212701
1249,-0.3689,0.8696,0.4099,7.210,-17.010,-7.420,407,422,391,402,394,2025-05-24T00:20:49.212709
1250,-0.3670,0.8716,0.4080,7.000,-20.860,-5.460,370,399,395,399,387,2025-05-24T00:20:49.433836
1251,-0.3455,0.8740,0.4011,7.490,-20.160,-3.500,388,348,360,352,404,2025-05-24T00:20:49.666366
1252,-0.3455,0.8789,0.3831,7.700,-17.220,-3.080,424,395,374,386,411,2025-05-24T00:20:49.666394
1253,-0.3260,0.8647,0.3665,7.350,-12.600,-2.590,348,386,384,393,407,2025-05-24T00:20:49.666404
1254,-0.3265,0.8472,0.3504,7.980,-9.030,-0.700,411,401,382,396,371,2025-05-24T00:20:49.666412
1255,-0.3499,0.8442,0.3714,10.080,-8.400,1.750,402,362,386,350,341,2025-05-24T00:20:49.666424
1256,-0.3626,0.8642,0.3826,11.480,-8.400,4.130,421,381,377,385,380,2025-05-24T00:20:49.666429
1257,-0.3572,0.8857,0.3880,9.660,-8.540,4.550,408,391,375,381,345,2025-05-24T00:20:49.666434
1258,-0.3426,0.8911,0.3806,6.580,-7.000,4.200,424,397,381,400,395,2025-05-24T00:20:49.666438
1259,-0.3362,0.8940,0.3777,3.710,-4.760,3.290,415,416,386,421,403,2025-05-24T00:20:49.666443
1260,-0.3392,0.8911,0.3782,2.240,-4.410,2.940,417,396,343,414,390,2025-05-24T00:20:49.666447
1261,-0.3343,0.8779,0.3606,0.700,-4.690,2.940,380,419,364,365,374,2025-05-24T00:20:49.666451
1262,-0.3357,0.8652,0.3675,0.280,-4.620,3.220,418,407,363,331,391,2025-05-24T00:20:49.666456
1263,-0.3382,0.8501,0.3606,1.750,-4.340,4.200,413,422,382,378,389,2025-05-24T00:20:49.666460
1264,-0.3294,0.8633,0.3606,2.800,-3.430,4.830,400,430,346,349,401,2025-05-24T00:20:49.666464
1265,-0.3192,0.8760,0.3645,1.470,-1.400,4.480,387,397,367,387,415,2025-05-24T00:20:49.666504
