SeqNum,AccX,AccY,AccZ,GyroX,GyroY,GyroZ,Flex,Force1,Force2,Force3,Force4,TimestampReception
1,-0.4982,0.9975,-0.0044,38.115,-57.680,-11.095,0.00,0.00,0.00,0.00,0.00,2025-06-05T16:04:01.475834
2,-0.5470,0.8379,0.0830,-25.270,27.020,0.455,0.00,0.01,0.01,0.00,0.01,2025-06-05T16:04:01.475834
3,-0.7754,0.8599,0.0547,-68.530,46.130,-3.710,0.00,0.00,0.00,0.00,0.00,2025-06-05T16:04:01.703187
4,-0.7515,0.6017,0.0673,-85.120,59.535,-3.850,0.00,0.00,0.00,0.01,0.00,2025-06-05T16:04:01.703187
5,-0.8818,0.3338,0.1240,-40.705,20.475,-19.810,0.00,0.00,0.00,0.00,0.00,2025-06-05T16:04:02.074744
6,-1.0189,0.4221,0.3060,-7.070,24.150,-32.620,0.01,0.01,0.01,0.01,0.00,2025-06-05T16:04:02.074744
7,-0.8311,0.4441,0.3284,7.175,-9.835,-22.715,0.00,0.01,0.00,0.00,0.00,2025-06-05T16:04:02.074744
8,-0.7408,0.5641,0.3675,24.745,-6.930,-31.955,0.00,0.00,0.00,0.01,0.00,2025-06-05T16:04:02.280194
9,-0.7925,0.4914,0.2850,30.730,-42.210,-30.940,0.00,0.01,0.00,0.01,0.00,2025-06-05T16:04:02.280194
10,-0.8247,0.5627,0.2982,34.825,-29.120,-27.335,0.00,0.01,0.01,0.00,0.00,2025-06-05T16:04:02.516873
11,-0.8091,0.5251,0.2357,22.365,-23.800,-11.585,0.01,0.00,0.00,0.00,0.01,2025-06-05T16:04:02.516873
12,-0.7735,0.4407,0.2899,15.715,-27.825,5.250,0.00,0.00,0.00,0.01,0.00,2025-06-05T16:04:02.696392
13,-0.8135,0.5514,0.2762,7.455,-13.930,-2.765,0.01,0.00,0.00,0.01,0.00,2025-06-05T16:04:02.696392
14,-0.7218,0.5466,0.2162,-8.330,14.945,6.615,0.00,0.00,0.00,0.00,0.00,2025-06-05T16:04:03.143296
15,-0.8169,0.4743,0.1440,-11.620,10.115,0.105,0.00,0.01,0.01,0.00,0.00,2025-06-05T16:04:03.143296
16,-0.8750,0.4207,0.1835,-25.095,8.925,4.655,0.00,0.01,0.00,0.00,0.00,2025-06-05T16:04:03.143296
17,-0.9252,0.3631,0.2274,-9.240,-6.580,-11.725,0.00,0.00,0.00,0.00,0.01,2025-06-05T16:04:03.143439
18,-0.9277,0.3894,0.2377,5.985,-21.945,-14.840,0.01,0.01,0.01,0.00,0.00,2025-06-05T16:04:03.540189
19,-0.8735,0.4231,0.1664,18.585,-21.840,-9.905,0.00,0.00,0.00,0.01,0.00,2025-06-05T16:04:03.540189
20,-0.8843,0.4085,0.2621,21.105,-24.570,3.255,0.00,0.00,0.00,0.00,0.01,2025-06-05T16:04:03.540189
21,-0.8442,0.3684,0.3221,25.340,-24.535,-1.260,0.00,0.00,0.00,0.00,0.01,2025-06-05T16:04:03.721653
22,-0.8301,0.3845,0.3299,28.280,-23.695,-14.595,0.00,0.00,0.00,0.01,0.00,2025-06-05T16:04:03.721653
23,-0.8999,0.4041,0.2957,24.325,-19.705,-20.055,0.00,0.00,0.00,0.00,0.00,2025-06-05T16:04:03.978126
24,-0.9204,0.4387,0.3021,19.285,-10.430,-17.430,0.00,0.01,0.00,0.00,0.00,2025-06-05T16:04:03.978126
25,-0.9126,0.3709,0.3528,9.730,-19.145,-12.705,0.00,0.00,0.00,0.00,0.00,2025-06-05T16:04:04.231447
26,-0.8433,0.3460,0.3777,7.875,-19.390,-13.195,0.01,0.00,0.00,0.00,0.01,2025-06-05T16:04:04.231447
27,-0.8501,0.3924,0.3811,17.605,-20.580,-15.750,0.00,0.00,0.01,0.00,0.00,2025-06-05T16:04:04.231447
28,-0.9394,0.3538,0.3943,11.375,-19.390,-14.420,0.01,0.00,0.00,0.00,0.00,2025-06-05T16:04:04.602797
29,-0.8467,0.3694,0.3684,7.525,-17.255,-10.885,0.00,0.00,0.00,0.00,0.00,2025-06-05T16:04:04.602797
30,-0.8316,0.3431,0.3338,6.440,-3.395,-2.625,0.00,0.00,0.00,0.00,0.00,2025-06-05T16:04:04.843376
31,-0.8511,0.3533,0.3753,-12.425,-3.115,-3.290,0.01,0.01,0.01,0.00,0.00,2025-06-05T16:04:04.843376
32,-0.8784,0.3401,0.3850,-10.150,-1.260,-0.700,0.01,0.00,0.00,0.00,0.00,2025-06-05T16:04:04.843494
33,-0.8872,0.2869,0.4050,-12.285,0.455,0.630,0.01,0.01,0.01,0.00,0.00,2025-06-05T16:04:05.112588
34,-0.8833,0.2694,0.3924,-6.300,-4.795,-2.520,0.00,0.00,0.00,0.01,0.00,2025-06-05T16:04:05.112588
35,-0.8364,0.2621,0.3802,-4.585,-0.560,2.940,0.00,0.00,0.00,0.01,0.00,2025-06-05T16:04:05.398822
36,-0.9501,0.2533,0.4065,-5.565,-7.280,-2.065,0.00,0.01,0.01,0.01,0.01,2025-06-05T16:04:05.398822
37,-0.9370,0.2635,0.3938,-8.365,-6.300,2.415,0.00,0.00,0.01,0.00,0.00,2025-06-05T16:04:05.398822
38,-0.8911,0.2381,0.3880,-2.975,-8.155,-1.925,0.01,0.01,0.01,0.00,0.01,2025-06-05T16:04:05.776664
39,-0.8667,0.2728,0.3660,-2.625,0.350,-10.465,0.01,0.00,0.00,0.00,0.00,2025-06-05T16:04:05.776664
40,-0.9223,0.3074,0.3314,-7.560,-2.310,-3.920,0.00,0.00,0.00,0.01,0.00,2025-06-05T16:04:05.776664
41,-0.9116,0.2523,0.3426,-8.820,3.185,1.995,0.00,0.00,0.01,0.00,0.01,2025-06-05T16:04:06.110159
42,-0.9570,0.2474,0.3865,-14.175,-1.505,2.555,0.01,0.00,0.01,0.01,0.00,2025-06-05T16:04:06.110159
43,-0.9160,0.2220,0.3562,-6.615,-0.210,2.905,0.01,0.00,0.00,0.00,0.00,2025-06-05T16:04:06.110159
44,-0.9033,0.2098,0.3109,-0.945,9.905,-7.420,0.00,0.01,0.01,0.00,0.00,2025-06-05T16:04:06.381640
45,-0.9321,0.1742,0.2704,-16.800,6.790,-17.640,0.00,0.00,0.00,0.01,0.00,2025-06-05T16:04:06.381640
46,-0.9731,0.1752,0.3055,-9.205,7.000,-15.540,0.01,0.00,0.00,0.00,0.00,2025-06-05T16:04:06.587359
47,-0.9765,0.1484,0.3011,-1.715,5.355,-10.850,0.00,0.01,0.00,0.00,0.00,2025-06-05T16:04:06.587359
48,-0.9726,0.1332,0.2879,4.340,1.855,-6.370,0.00,0.01,0.00,0.00,0.01,2025-06-05T16:04:07.092410
49,-0.9823,0.1376,0.2464,5.005,-0.560,-7.525,0.01,0.00,0.01,0.00,0.00,2025-06-05T16:04:07.092410
50,-0.9897,0.1518,0.2396,0.595,-3.395,-4.060,0.00,0.01,0.00,0.00,0.00,2025-06-05T16:04:07.092410
51,-0.9780,0.1381,0.2333,-9.660,-4.200,0.770,0.00,0.00,0.00,0.00,0.01,2025-06-05T16:04:07.092410
52,-0.9833,0.1157,0.2142,-14.105,1.050,0.490,0.00,0.00,0.01,0.01,0.00,2025-06-05T16:04:07.233035
53,-1.0204,0.1244,0.1937,-14.805,-0.140,-2.555,0.01,0.01,0.00,0.01,0.00,2025-06-05T16:04:07.233035
54,-1.0873,0.1269,0.2962,10.640,-22.610,6.615,0.00,0.01,0.01,0.01,0.01,2025-06-05T16:04:07.401000
55,-0.9994,0.2113,0.2674,26.880,-12.285,32.795,0.00,0.00,0.00,0.00,0.00,2025-06-05T16:04:07.636644
56,-0.9048,0.1425,0.1786,65.450,-3.080,26.950,0.00,0.00,0.01,0.01,0.01,2025-06-05T16:04:07.636644
57,-0.9877,0.2777,0.0434,64.365,-0.245,11.515,0.00,0.01,0.01,0.00,0.00,2025-06-05T16:04:07.813172
58,-0.7950,0.2889,0.1064,28.595,-13.895,7.000,0.00,0.00,0.01,0.01,0.01,2025-06-05T16:04:07.813172
59,-0.9184,0.3382,0.2528,19.565,-19.180,-6.230,0.00,0.00,0.01,0.00,0.00,2025-06-05T16:04:08.024608
60,-0.9750,0.3670,0.3855,25.865,-39.445,6.160,0.00,0.01,0.00,0.00,0.00,2025-06-05T16:04:08.024608
61,-1.0043,0.5348,0.4690,27.125,-52.010,36.155,0.00,0.00,0.01,0.00,0.00,2025-06-05T16:04:08.222336
62,-0.7310,0.4075,0.2250,28.000,-31.500,32.025,0.00,0.00,0.00,0.01,0.00,2025-06-05T16:04:08.222336
63,-0.5397,0.2240,0.0190,0.980,-29.785,-2.870,0.00,0.01,0.01,0.01,0.00,2025-06-05T16:04:08.451720
64,-0.6886,0.3406,0.2718,-41.300,-2.485,-48.300,0.00,0.00,0.00,0.00,0.00,2025-06-05T16:04:08.451720
65,-1.0155,0.3416,0.4592,-18.165,20.965,-63.735,0.00,0.00,0.01,0.01,0.00,2025-06-05T16:04:08.658895
66,-1.1004,0.2757,0.3548,-17.010,16.240,-43.470,0.00,0.00,0.00,0.00,0.00,2025-06-05T16:04:08.888375
67,-1.0282,0.1830,0.3021,-13.650,14.245,-20.475,0.00,0.00,0.00,0.00,0.00,2025-06-05T16:04:08.888375
68,-1.0228,0.1923,0.3762,1.190,10.290,-8.330,0.01,0.00,0.00,0.00,0.00,2025-06-05T16:04:09.280777
69,-0.9311,0.1103,0.2630,-12.180,-10.955,1.295,0.00,0.01,0.00,0.01,0.01,2025-06-05T16:04:09.280777
70,-0.9209,0.0400,0.2586,3.990,-13.440,0.700,0.00,0.00,0.01,0.01,0.00,2025-06-05T16:04:09.280777
71,-0.9204,0.1103,0.2987,0.140,-3.605,-9.205,0.00,0.00,0.00,0.00,0.00,2025-06-05T16:04:09.280777
72,-0.9706,0.1254,0.3255,-12.040,-9.310,-7.665,0.01,0.00,0.01,0.01,0.00,2025-06-05T16:04:09.652700
73,-0.9994,0.0756,0.2928,-3.045,-0.700,-1.190,0.00,0.00,0.01,0.00,0.00,2025-06-05T16:04:09.652700
74,-1.0521,0.1035,0.2855,-21.490,-5.460,7.980,0.01,0.01,0.00,0.00,0.00,2025-06-05T16:04:09.968154
75,-0.9677,0.1044,0.2596,-11.865,3.290,20.195,0.00,0.01,0.01,0.00,0.01,2025-06-05T16:04:09.968154
76,-0.9770,0.1879,0.2391,-13.370,3.710,26.705,0.00,0.00,0.00,0.00,0.00,2025-06-05T16:04:09.968154
77,-0.9604,0.2991,0.1898,-30.450,4.935,36.995,0.01,0.00,0.00,0.00,0.00,2025-06-05T16:04:10.284179
78,-1.0199,0.3548,0.0654,-45.675,2.590,40.110,0.00,0.01,0.01,0.01,0.00,2025-06-05T16:04:10.284179
79,-0.8423,0.2323,0.0927,-31.640,15.365,34.160,0.00,0.01,0.00,0.01,0.01,2025-06-05T16:04:10.284179
80,-1.1922,0.2464,0.2162,-10.605,-9.905,-14.875,0.00,0.00,0.00,0.01,0.00,2025-06-05T16:04:10.284179
81,-0.8379,0.3640,0.1786,-1.715,20.755,4.900,0.01,0.01,0.00,0.01,0.01,2025-06-05T16:04:10.518552
82,-0.9082,0.3967,0.2255,4.795,-10.325,15.295,0.01,0.01,0.00,0.00,0.00,2025-06-05T16:04:10.518552
83,-0.8330,0.2806,0.2899,17.675,7.105,25.200,0.01,0.01,0.00,0.00,0.01,2025-06-05T16:04:10.698477
84,-0.8560,0.4089,0.1918,25.130,-3.640,13.720,0.00,0.00,0.00,0.01,0.00,2025-06-05T16:04:10.888052
85,-0.9360,0.3743,0.3026,21.070,-14.910,-0.350,0.00,0.00,0.00,0.00,0.01,2025-06-05T16:04:10.888052
86,-0.7891,0.4260,0.2308,26.985,-20.580,-6.580,0.00,0.00,0.01,0.00,0.00,2025-06-05T16:04:11.330729
87,-0.5563,0.4797,0.3304,18.375,40.145,9.940,0.00,0.00,0.00,0.00,0.00,2025-06-05T16:04:11.330729
88,-0.9618,0.4333,0.1688,-16.450,-18.025,-8.785,0.01,0.01,0.00,0.01,0.00,2025-06-05T16:04:11.330729
89,-0.9809,0.5675,0.2040,-48.125,9.870,-3.080,0.00,0.01,0.00,0.00,0.00,2025-06-05T16:04:11.330729
90,-0.9252,0.4592,-0.0005,-26.460,-35.315,4.305,0.01,0.01,0.00,0.01,0.00,2025-06-05T16:04:11.506259
91,-0.7105,0.5744,0.0185,-11.865,32.270,13.055,0.00,0.00,0.00,0.00,0.00,2025-06-05T16:04:11.768556
92,-0.8496,0.6041,0.1332,-44.695,-16.450,19.110,0.01,0.01,0.01,0.00,0.00,2025-06-05T16:04:11.768556
93,-0.8877,0.5607,0.2357,-34.510,-10.920,41.930,0.00,0.00,0.00,0.00,0.00,2025-06-05T16:04:11.906153
94,-0.8018,0.6359,0.3909,-40.495,26.005,46.305,0.01,0.01,0.00,0.01,0.01,2025-06-05T16:04:11.906153
95,-0.6583,0.6334,0.2884,-34.300,35.455,43.330,0.00,0.00,0.00,0.00,0.00,2025-06-05T16:04:12.135541
96,-0.5495,0.6207,0.1186,-69.510,57.785,53.585,0.00,0.00,0.00,0.00,0.00,2025-06-05T16:04:12.135541
97,-1.0887,0.4485,0.1157,-77.630,49.875,20.685,0.01,0.00,0.00,0.00,0.00,2025-06-05T16:04:12.327414
98,-0.8408,0.3845,0.1430,-14.630,26.495,10.150,0.00,0.01,0.00,0.00,0.00,2025-06-05T16:04:12.327414
99,-0.9057,0.4338,0.1913,10.605,4.795,-4.375,0.00,0.00,0.01,0.00,0.01,2025-06-05T16:04:12.670495
100,-1.0687,0.3528,0.2777,41.440,-47.250,27.020,0.00,0.00,0.01,0.00,0.00,2025-06-05T16:04:12.670495
101,-0.9067,0.4807,0.0200,71.470,-111.545,3.010,0.01,0.01,0.00,0.01,0.00,2025-06-05T16:04:12.942582
102,-0.4143,0.8647,-0.2079,106.050,-130.340,-12.880,0.00,0.01,0.01,0.01,0.01,2025-06-05T16:04:12.942582
103,-0.1171,1.1624,0.0049,62.405,-92.155,1.295,0.00,0.00,0.00,0.00,0.00,2025-06-05T16:04:12.942582
104,-0.4895,1.0751,0.0420,-30.310,-29.085,-9.730,0.00,0.00,0.01,0.00,0.00,2025-06-05T16:04:13.134934
105,-0.5661,0.8228,0.1122,-42.770,52.150,-15.085,0.00,0.00,0.00,0.00,0.01,2025-06-05T16:04:13.134934
106,-0.6285,0.6734,0.1874,-48.755,42.770,-12.600,0.00,0.00,0.01,0.00,0.00,2025-06-05T16:04:13.441203
107,-0.8067,0.6198,0.1405,-23.450,28.525,-18.690,0.00,0.01,0.00,0.01,0.01,2025-06-05T16:04:13.849124
108,-0.8350,0.5553,0.2323,-20.300,-10.500,3.395,0.01,0.00,0.01,0.01,0.00,2025-06-05T16:04:13.849124
109,-0.7427,0.5510,0.2655,9.870,-22.085,11.340,0.00,0.01,0.00,0.00,0.00,2025-06-05T16:04:13.849124
110,-0.6661,0.6232,0.1845,11.305,-26.005,-1.260,0.00,0.00,0.00,0.01,0.00,2025-06-05T16:04:13.849124
111,-0.9301,0.5480,0.1322,12.915,-39.235,-25.515,0.01,0.01,0.00,0.00,0.00,2025-06-05T16:04:14.201204
112,-0.8657,0.5680,0.1025,9.030,-42.875,0.665,0.01,0.00,0.00,0.01,0.00,2025-06-05T16:04:14.201204
113,-0.5627,0.7657,0.2264,13.160,-10.745,24.150,0.01,0.00,0.00,0.01,0.00,2025-06-05T16:04:14.201204
114,-0.8296,0.9321,0.4099,-19.985,-36.505,21.875,0.01,0.00,0.01,0.00,0.00,2025-06-05T16:04:14.201204
115,-0.4675,0.5270,0.2743,-23.555,-11.060,40.845,0.00,0.01,0.01,0.00,0.00,2025-06-05T16:04:14.568961
116,-0.1332,1.0165,0.2821,-17.605,-75.880,24.465,0.00,0.01,0.01,0.00,0.01,2025-06-05T16:04:14.568961
117,-0.5641,1.4835,0.5802,-58.345,-76.790,-44.380,0.01,0.00,0.00,0.00,0.00,2025-06-05T16:04:14.568961
118,-0.8579,0.4382,0.6354,-66.080,-144.830,-99.085,0.00,0.00,0.01,0.00,0.00,2025-06-05T16:04:14.838322
119,-0.3109,-0.9292,0.8560,-59.605,-102.620,-145.775,0.00,0.00,0.01,0.01,0.00,2025-06-05T16:04:14.838322
120,-0.3162,-0.3782,0.8921,-2.555,57.050,78.470,0.00,0.00,0.00,0.00,0.00,2025-06-05T16:04:15.034503
121,-0.5758,-0.2962,0.8408,49.910,91.035,150.885,0.01,0.01,0.01,0.01,0.01,2025-06-05T16:04:15.034503
122,-0.3074,0.7647,0.6007,61.110,98.455,78.890,0.00,0.00,0.00,0.00,0.00,2025-06-05T16:04:15.370646
123,-0.3333,0.8189,0.5832,39.865,35.875,7.840,0.01,0.01,0.00,0.01,0.00,2025-06-05T16:04:15.370646
124,-0.2894,1.5089,0.6368,19.005,-29.085,-11.235,0.01,0.00,0.01,0.00,0.00,2025-06-05T16:04:15.370646
125,-0.2396,1.4123,0.4241,-56.245,-73.710,-54.180,0.01,0.00,0.00,0.01,0.00,2025-06-05T16:04:15.594444
126,-0.4290,0.2440,0.5924,-107.870,-119.455,-148.505,0.00,0.00,0.00,0.00,0.00,2025-06-05T16:04:15.594444
127,0.1401,-0.7730,0.8145,-35.805,-72.695,-128.940,0.00,0.00,0.01,0.01,0.00,2025-06-05T16:04:15.729793
128,-0.4763,-0.4968,0.8106,45.150,83.370,164.815,0.01,0.01,0.00,0.01,0.00,2025-06-05T16:04:15.918322
129,-0.3787,0.4851,0.6027,80.115,111.335,140.665,0.01,0.00,0.00,0.00,0.00,2025-06-05T16:04:15.918322
130,-0.1898,1.2302,0.5012,44.695,59.955,41.755,0.00,0.00,0.00,0.01,0.01,2025-06-05T16:04:16.016060
131,-0.3104,0.7061,0.4802,9.905,34.755,-8.400,0.01,0.01,0.01,0.00,0.00,2025-06-05T16:04:16.206608
132,-0.3845,0.4665,0.4358,-6.300,28.770,-5.565,0.00,0.00,0.01,0.00,0.00,2025-06-05T16:04:16.206608
133,-0.5402,0.8374,0.4519,20.335,16.870,-0.595,0.00,0.00,0.00,0.00,0.00,2025-06-05T16:04:16.449754
134,-0.9321,0.9072,0.3245,42.455,-17.570,-7.560,0.00,0.00,0.00,0.00,0.00,2025-06-05T16:04:16.637426
135,-0.6037,0.4714,0.1850,29.260,-22.295,20.405,0.01,0.00,0.01,0.01,0.00,2025-06-05T16:04:16.637426
136,-0.5680,0.3875,0.2411,92.190,-90.650,-6.965,0.00,0.01,0.01,0.00,0.00,2025-06-05T16:04:16.736478
137,-0.6891,1.4577,0.3309,71.225,-73.395,-5.110,0.01,0.01,0.01,0.00,0.00,2025-06-05T16:04:17.037488
138,-0.1088,0.6920,0.1127,13.300,-55.405,29.855,0.00,0.01,0.01,0.01,0.00,2025-06-05T16:04:17.037488
139,-0.0610,0.4226,0.0669,27.125,12.460,-7.070,0.00,0.01,0.00,0.00,0.00,2025-06-05T16:04:17.037488
140,-0.6041,0.9355,0.4538,26.775,31.675,-60.865,0.00,0.00,0.00,0.00,0.00,2025-06-05T16:04:17.270861
141,-0.8633,0.9950,0.2796,-20.370,-18.410,-46.795,0.00,0.00,0.00,0.01,0.01,2025-06-05T16:04:17.270861
142,-0.4670,0.7725,-0.1078,-28.385,5.390,-5.040,0.01,0.01,0.00,0.00,0.01,2025-06-05T16:04:17.454945
143,-0.5412,0.7139,-0.0727,-19.285,12.320,-0.840,0.01,0.00,0.01,0.00,0.00,2025-06-05T16:04:17.854946
144,-0.6578,0.5871,0.1318,-6.895,-14.105,-10.640,0.00,0.01,0.01,0.00,0.00,2025-06-05T16:04:17.854946
145,-0.6500,0.7852,0.1503,40.145,-33.425,4.900,0.00,0.00,0.01,0.00,0.00,2025-06-05T16:04:17.854946
146,-0.5944,0.8130,0.2094,23.625,-22.050,1.120,0.00,0.00,0.00,0.00,0.00,2025-06-05T16:04:17.854946
147,-0.6690,0.6764,0.2645,-14.525,-37.380,3.080,0.01,0.00,0.00,0.01,0.00,2025-06-05T16:04:18.071632
148,-0.6285,0.5285,0.2723,-8.960,-25.095,-21.980,0.00,0.00,0.01,0.00,0.00,2025-06-05T16:04:18.071632
149,-0.7427,0.6051,0.3060,-12.915,-33.565,-52.360,0.00,0.01,0.00,0.00,0.00,2025-06-05T16:04:18.271175
150,-0.8886,0.7047,0.4743,-4.760,-42.840,-52.955,0.00,0.00,0.00,0.01,0.00,2025-06-05T16:04:18.271175
151,-0.6412,0.5095,0.2318,4.410,-11.200,-17.115,0.01,0.01,0.01,0.00,0.00,2025-06-05T16:04:18.698992
152,-0.5388,0.5329,0.1005,29.890,7.420,-18.585,0.00,0.00,0.00,0.00,0.00,2025-06-05T16:04:18.698992
153,-0.9057,0.6251,0.3323,10.360,19.425,-46.760,0.00,0.01,0.00,0.00,0.00,2025-06-05T16:04:18.698992
154,-0.9472,0.4685,0.3274,-37.030,-19.425,-36.540,0.00,0.00,0.00,0.00,0.00,2025-06-05T16:04:18.894657
155,-0.8847,0.3362,0.2713,-32.025,-16.625,-24.080,0.01,0.00,0.00,0.01,0.00,2025-06-05T16:04:18.894657
156,-0.8189,0.1981,0.3309,-9.660,1.575,-16.695,0.00,0.01,0.00,0.00,0.00,2025-06-05T16:04:19.085326
157,-0.9233,0.2133,0.3567,10.920,-7.455,-9.135,0.00,0.00,0.01,0.00,0.01,2025-06-05T16:04:19.085326
158,-0.9121,0.2352,0.3470,26.600,2.835,7.035,0.00,0.00,0.00,0.00,0.00,2025-06-05T16:04:19.300919
159,-0.9321,0.3655,0.2606,33.215,14.105,23.345,0.00,0.00,0.00,0.01,0.00,2025-06-05T16:04:19.300919
160,-0.8730,0.5783,0.1854,10.920,48.510,55.160,0.01,0.01,0.01,0.00,0.00,2025-06-05T16:04:19.525093
161,-0.8052,0.6520,0.1513,-19.740,24.045,47.110,0.00,0.00,0.01,0.01,0.00,2025-06-05T16:04:19.525093
162,-0.6617,0.5451,0.0600,-24.745,-6.440,28.665,0.01,0.00,0.01,0.01,0.00,2025-06-05T16:04:19.704913
163,-0.6451,0.9160,-0.0483,-17.080,-69.160,-0.035,0.00,0.00,0.01,0.00,0.00,2025-06-05T16:04:19.898190
164,-0.4773,1.6665,-0.1244,-104.580,-107.520,91.035,0.01,0.01,0.00,0.00,0.00,2025-06-05T16:04:19.899188
165,-0.9404,1.2542,-0.0883,-131.845,-33.880,137.025,0.00,0.00,0.00,0.00,0.00,2025-06-05T16:04:20.140391
166,-0.4997,-0.4290,0.7657,-99.505,-133.525,-27.300,0.00,0.00,0.01,0.00,0.01,2025-06-05T16:04:20.140391
167,0.3572,-1.2620,0.8091,-20.930,6.370,-150.745,0.00,0.00,0.00,0.00,0.00,2025-06-05T16:04:20.342849
168,-0.1757,-0.5612,1.0385,-9.765,27.300,80.010,0.00,0.00,0.00,0.00,0.00,2025-06-05T16:04:20.343884
169,-0.3479,-0.3475,0.8950,27.825,79.345,137.165,0.01,0.00,0.00,0.01,0.01,2025-06-05T16:04:20.618479
170,-0.6202,0.4319,0.6773,31.815,69.440,48.230,0.01,0.01,0.01,0.01,0.00,2025-06-05T16:04:20.618479
171,-0.6647,0.8579,0.4880,70.735,57.680,-62.545,0.00,0.00,0.01,0.00,0.00,2025-06-05T16:04:20.958047
172,-0.6281,0.9321,0.4656,97.545,-11.410,-82.390,0.01,0.00,0.00,0.00,0.00,2025-06-05T16:04:20.958047
173,-0.6739,0.7364,0.4529,51.905,-23.030,-29.120,0.00,0.00,0.00,0.00,0.01,2025-06-05T16:04:20.958047
174,-0.6285,0.5783,0.3748,10.675,-0.945,-12.775,0.00,0.00,0.00,0.00,0.00,2025-06-05T16:04:21.136955
175,-0.6686,0.5134,0.3040,-13.125,14.840,-18.060,0.00,0.01,0.01,0.00,0.00,2025-06-05T16:04:21.136955
176,-0.9209,0.6305,0.3196,-28.700,15.645,-22.085,0.00,0.00,0.01,0.00,0.00,2025-06-05T16:04:21.436341
177,-0.8062,0.3611,0.2952,-19.145,15.400,-13.370,0.01,0.00,0.01,0.01,0.00,2025-06-05T16:04:21.436341
178,-0.8296,0.2879,0.3582,20.020,-6.895,-21.735,0.00,0.00,0.00,0.00,0.00,2025-06-05T16:04:21.920629
179,-0.7901,0.2386,0.3670,35.490,-7.000,-43.050,0.00,0.00,0.00,0.01,0.01,2025-06-05T16:04:21.920629
180,-0.9575,0.3733,0.3762,37.205,-22.470,-29.190,0.00,0.00,0.00,0.00,0.00,2025-06-05T16:04:21.921194
181,-0.9711,0.2464,0.3938,43.855,-4.725,5.740,0.00,0.00,0.01,0.01,0.00,2025-06-05T16:04:21.921194
182,-0.7315,0.1601,0.2308,32.025,10.325,-15.225,0.01,0.01,0.01,0.00,0.00,2025-06-05T16:04:22.155235
183,-0.9550,0.2137,0.3299,18.375,25.375,-51.275,0.00,0.01,0.01,0.01,0.01,2025-06-05T16:04:22.155235
184,-0.8516,0.2786,0.4177,8.120,11.095,-28.315,0.00,0.00,0.01,0.00,0.00,2025-06-05T16:04:22.155235
185,-0.9921,0.2445,0.2913,-17.080,-28.875,-4.340,0.00,0.01,0.01,0.01,0.01,2025-06-05T16:04:22.353887
186,-0.9858,0.1352,0.2416,-33.880,-19.495,14.140,0.00,0.00,0.00,0.00,0.00,2025-06-05T16:04:22.353887
187,-0.9555,0.0771,0.2284,-26.880,-10.780,5.110,0.01,0.00,0.00,0.01,0.00,2025-06-05T16:04:22.663584
188,-0.9618,0.0683,0.2669,-24.570,-0.910,0.945,0.01,0.01,0.00,0.00,0.00,2025-06-05T16:04:22.664088
189,-0.9511,0.0669,0.2948,-22.295,-2.800,-2.135,0.01,0.00,0.00,0.01,0.01,2025-06-05T16:04:23.203637
190,-0.9677,0.1010,0.2582,-18.235,-12.425,-8.820,0.01,0.01,0.00,0.00,0.01,2025-06-05T16:04:23.203637
191,-0.9384,0.0644,0.2557,-7.980,5.040,-3.815,0.01,0.01,0.00,0.00,0.00,2025-06-05T16:04:23.203637
192,-0.9472,0.0781,0.2347,6.405,-0.735,-2.695,0.00,0.01,0.00,0.01,0.00,2025-06-05T16:04:23.203637
193,-0.9780,0.0761,0.2362,4.620,-7.770,-1.785,0.00,0.00,0.00,0.00,0.00,2025-06-05T16:04:23.203637
194,-0.9638,0.0600,0.2425,1.050,-11.305,-1.680,0.00,0.00,0.00,0.00,0.00,2025-06-05T16:04:23.480122
195,-0.9618,0.0307,0.2494,7.070,-10.955,-6.580,0.01,0.00,0.00,0.00,0.00,2025-06-05T16:04:23.480122
196,-0.9872,0.0820,0.2469,8.890,-7.280,-6.265,0.00,0.01,0.00,0.00,0.00,2025-06-05T16:04:23.687568
197,-0.9862,0.0449,0.2518,5.495,-5.775,0.700,0.01,0.01,0.00,0.01,0.00,2025-06-05T16:04:23.688564
198,-0.9701,0.0473,0.2708,5.810,-0.385,-2.030,0.00,0.00,0.00,0.01,0.00,2025-06-05T16:04:24.102719
199,-0.9887,0.0415,0.2557,-0.315,-9.275,-4.935,0.01,0.01,0.01,0.00,0.00,2025-06-05T16:04:24.102719
200,-0.9999,0.0522,0.2601,-9.485,-9.170,-6.510,0.01,0.00,0.01,0.00,0.00,2025-06-05T16:04:24.102719
201,-0.9892,0.0517,0.2743,-13.650,-13.790,-1.365,0.00,0.00,0.00,0.00,0.01,2025-06-05T16:04:24.351525
202,-0.9653,0.0000,0.2850,-12.110,-10.745,3.045,0.00,0.01,0.00,0.00,0.00,2025-06-05T16:04:24.404384
203,-0.9887,-0.0224,0.2801,-9.415,-14.385,0.665,0.00,0.00,0.00,0.00,0.00,2025-06-05T16:04:24.405381
204,-0.9570,-0.0410,0.2801,0.350,-7.000,-2.940,0.00,0.00,0.00,0.00,0.00,2025-06-05T16:04:24.640752
205,-0.9833,-0.0185,0.2782,1.890,-9.940,-1.470,0.01,0.00,0.00,0.01,0.00,2025-06-05T16:04:24.640752
206,-0.9448,-0.0146,0.2752,13.090,-1.995,-5.215,0.00,0.00,0.01,0.00,0.01,2025-06-05T16:04:24.829680
207,-1.0224,0.0366,0.2874,9.975,0.175,-14.420,0.01,0.01,0.01,0.00,0.01,2025-06-05T16:04:24.829680
208,-0.9892,0.0137,0.2811,-1.925,-12.495,0.700,0.00,0.00,0.00,0.01,0.01,2025-06-05T16:04:25.122892
209,-0.9945,0.0200,0.2718,-4.305,-8.785,-0.105,0.00,0.00,0.00,0.00,0.01,2025-06-05T16:04:25.122892
210,-1.0380,-0.0229,0.2811,-4.165,-7.525,4.060,0.00,0.01,0.00,0.00,0.00,2025-06-05T16:04:25.122892
211,-1.0272,-0.0190,0.2826,-0.525,-11.795,2.800,0.00,0.00,0.01,0.00,0.00,2025-06-05T16:04:25.280690
212,-0.9819,-0.0073,0.2889,2.415,-7.420,-0.945,0.00,0.00,0.00,0.00,0.00,2025-06-05T16:04:25.631260
213,-0.9794,0.0244,0.2645,-4.235,-5.425,-4.830,0.00,0.01,0.01,0.00,0.00,2025-06-05T16:04:25.631260
214,-0.9658,-0.0054,0.2762,-4.760,2.100,2.415,0.00,0.00,0.00,0.01,0.00,2025-06-05T16:04:25.631260
215,-0.9731,-0.0054,0.2499,4.900,1.050,-3.465,0.01,0.01,0.01,0.00,0.00,2025-06-05T16:04:25.847151
216,-0.9575,0.0283,0.2699,-9.940,-5.425,1.435,0.00,0.01,0.01,0.00,0.00,2025-06-05T16:04:25.847175
217,-0.9843,0.0244,0.2425,-12.425,-1.435,0.560,0.01,0.01,0.00,0.00,0.00,2025-06-05T16:04:26.084517
218,-1.0053,-0.0454,0.2596,-15.610,-13.370,15.995,0.00,0.00,0.01,0.01,0.01,2025-06-05T16:04:26.084517
219,-0.9814,-0.0146,0.2484,-8.155,-7.455,7.350,0.00,0.01,0.00,0.00,0.00,2025-06-05T16:04:26.268795
220,-0.9472,-0.0283,0.2767,-10.290,-6.090,8.505,0.01,0.00,0.01,0.01,0.00,2025-06-05T16:04:26.268795
221,-0.9038,-0.0429,0.3050,-10.920,-5.075,6.195,0.00,0.00,0.00,0.00,0.00,2025-06-05T16:04:26.655041
222,-1.0033,-0.0659,0.2957,1.890,-5.740,-2.415,0.00,0.00,0.00,0.01,0.00,2025-06-05T16:04:26.655041
223,-0.9736,-0.0366,0.3226,3.430,2.765,0.630,0.00,0.00,0.01,0.01,0.00,2025-06-05T16:04:26.655041
224,-0.9374,-0.0571,0.3279,20.020,-11.480,-6.510,0.00,0.00,0.00,0.00,0.00,2025-06-05T16:04:26.992680
225,-0.9804,-0.0390,0.3421,30.485,-6.055,-9.485,0.01,0.01,0.01,0.01,0.00,2025-06-05T16:04:26.992680
226,-0.9872,-0.0737,0.3362,37.135,-17.500,-17.605,0.00,0.00,0.00,0.01,0.00,2025-06-05T16:04:26.992680
227,-0.9189,-0.0503,0.3279,46.515,-5.845,-19.320,0.01,0.01,0.00,0.01,0.01,2025-06-05T16:04:27.090043
228,-0.9687,-0.0303,0.2830,36.365,-8.610,-22.050,0.00,0.01,0.01,0.01,0.00,2025-06-05T16:04:27.569903
229,-0.9057,-0.0044,0.2211,23.625,-3.290,-10.430,0.00,0.00,0.01,0.01,0.00,2025-06-05T16:04:27.569903
230,-1.0336,0.0561,0.1845,11.830,-4.165,-6.440,0.00,0.01,0.00,0.01,0.00,2025-06-05T16:04:27.569903
231,-1.0214,0.0229,0.1274,2.205,4.095,3.115,0.01,0.01,0.00,0.00,0.00,2025-06-05T16:04:27.886502
232,-1.0292,0.0425,0.0390,-7.525,-12.145,8.330,0.01,0.00,0.01,0.01,0.00,2025-06-05T16:04:27.886502
233,-1.0268,-0.0195,0.0517,-16.170,-9.240,17.395,0.00,0.00,0.00,0.00,0.01,2025-06-05T16:04:27.887217
234,-0.9248,0.0434,0.1035,-16.590,-0.980,10.150,0.00,0.00,0.00,0.00,0.00,2025-06-05T16:04:27.887217
235,-1.0472,0.0054,0.1688,-22.155,-21.735,5.495,0.00,0.00,0.00,0.01,0.00,2025-06-05T16:04:28.092104
236,-1.0497,0.0869,0.1786,-22.470,-7.840,2.380,0.00,0.00,0.00,0.00,0.01,2025-06-05T16:04:28.092104
237,-0.9414,0.0337,0.2572,-22.820,3.885,17.780,0.00,0.01,0.00,0.00,0.00,2025-06-05T16:04:28.507338
238,-0.9848,-0.0102,0.2982,-20.930,-9.135,15.890,0.00,0.00,0.00,0.00,0.00,2025-06-05T16:04:28.507338
239,-0.9570,-0.0029,0.2913,-14.420,-8.470,13.055,0.00,0.01,0.00,0.01,0.00,2025-06-05T16:04:28.507338
240,-1.0043,-0.0137,0.3226,-8.225,-11.340,7.910,0.01,0.00,0.00,0.00,0.00,2025-06-05T16:04:28.711792
241,-0.9355,0.0156,0.2996,-2.800,-7.980,3.325,0.00,0.01,0.01,0.00,0.01,2025-06-05T16:04:28.711792
242,-0.9789,0.0224,0.3060,-3.115,-14.630,-10.045,0.01,0.01,0.01,0.00,0.00,2025-06-05T16:04:28.910260
243,-0.9618,0.0098,0.3001,1.855,-10.850,-3.185,0.00,0.00,0.01,0.00,0.01,2025-06-05T16:04:28.910260
244,-0.9823,0.0029,0.2777,11.760,-8.365,-5.145,0.00,0.00,0.01,0.01,0.00,2025-06-05T16:04:29.146634
245,-0.9765,0.0166,0.2767,13.930,-5.250,-5.005,0.00,0.00,0.01,0.01,0.00,2025-06-05T16:04:29.146634
246,-0.9711,0.0259,0.3109,9.170,-4.410,-5.950,0.00,0.00,0.00,0.00,0.00,2025-06-05T16:04:29.530584
247,-0.9545,0.0239,0.3094,11.725,-5.320,-7.840,0.00,0.00,0.01,0.01,0.00,2025-06-05T16:04:29.530584
248,-0.9799,0.0259,0.2894,8.680,-7.455,-5.985,0.01,0.01,0.01,0.00,0.00,2025-06-05T16:04:29.530584
249,-0.9721,0.0307,0.2777,3.465,-5.460,-4.620,0.00,0.00,0.01,0.01,0.00,2025-06-05T16:04:29.793307
250,-0.9843,0.0073,0.2782,-5.635,-7.805,1.505,0.01,0.01,0.01,0.01,0.01,2025-06-05T16:04:29.793307
251,-0.9745,-0.0078,0.2704,-2.765,-5.495,-0.070,0.00,0.00,0.00,0.00,0.01,2025-06-05T16:04:29.990000
252,-0.9536,-0.0151,0.2752,-1.995,-5.460,3.535,0.01,0.00,0.01,0.01,0.00,2025-06-05T16:04:29.990000
253,-0.9414,-0.0059,0.2557,4.130,-3.710,0.385,0.01,0.00,0.00,0.00,0.00,2025-06-05T16:04:30.219149
254,-0.9379,0.0234,0.2308,4.830,0.840,-0.910,0.00,0.00,0.00,0.01,0.01,2025-06-05T16:04:30.219149
255,-0.9687,0.0586,0.2347,-4.900,2.240,1.995,0.00,0.01,0.00,0.00,0.00,2025-06-05T16:04:30.354077
256,-0.9906,0.0361,0.2094,-11.200,-6.930,9.380,0.01,0.00,0.01,0.00,0.00,2025-06-05T16:04:30.354077
257,-0.9584,0.0508,0.1884,-11.935,-2.030,16.345,0.01,0.01,0.00,0.00,0.00,2025-06-05T16:04:30.544213
258,-0.9321,0.0820,0.1581,-8.540,2.975,5.705,0.00,0.00,0.00,0.00,0.00,2025-06-05T16:04:30.879317
259,-0.9809,0.1074,0.1342,-11.725,1.330,2.100,0.00,0.00,0.00,0.01,0.00,2025-06-05T16:04:30.879317
260,-0.9945,0.0678,0.1371,-4.375,-0.980,3.185,0.00,0.00,0.00,0.01,0.00,2025-06-05T16:04:30.879317
261,-0.9828,0.1030,0.1430,6.055,-4.375,-2.520,0.01,0.00,0.01,0.00,0.00,2025-06-05T16:04:31.159859
262,-0.9921,0.1108,0.1376,10.185,-6.510,-4.200,0.00,0.00,0.01,0.01,0.00,2025-06-05T16:04:31.159859
263,-0.9980,0.1142,0.1337,8.540,-17.990,0.385,0.00,0.00,0.00,0.00,0.00,2025-06-05T16:04:31.159859
264,-1.0077,0.0703,0.1527,11.655,-11.515,-1.785,0.00,0.00,0.01,0.00,0.00,2025-06-05T16:04:31.512740
265,-0.9565,0.1298,0.1728,6.265,-15.155,-1.960,0.00,0.00,0.00,0.00,0.00,2025-06-05T16:04:31.512740
266,-0.9726,0.0390,0.2118,11.025,-10.675,0.525,0.00,0.01,0.01,0.01,0.01,2025-06-05T16:04:31.512740
267,-0.9570,0.0547,0.2162,17.955,-3.325,-7.035,0.01,0.00,0.01,0.01,0.01,2025-06-05T16:04:31.788681
268,-0.9975,0.0493,0.2123,7.665,-5.985,-8.680,0.00,0.00,0.01,0.01,0.00,2025-06-05T16:04:31.788681
269,-0.9877,0.0181,0.2152,3.325,-6.510,2.205,0.00,0.00,0.00,0.01,0.00,2025-06-05T16:04:31.983256
270,-0.9311,0.0283,0.2347,8.120,-1.995,-1.680,0.01,0.00,0.00,0.00,0.00,2025-06-05T16:04:31.983256
271,-0.9828,0.0410,0.2440,-6.195,-9.030,-6.720,0.00,0.00,0.00,0.00,0.00,2025-06-05T16:04:32.200576
272,-1.0326,0.0317,0.2621,-14.490,-21.455,0.490,0.01,0.00,0.01,0.00,0.00,2025-06-05T16:04:32.200576
273,-0.9892,0.0249,0.2386,-3.570,-13.685,7.000,0.00,0.01,0.00,0.00,0.00,2025-06-05T16:04:32.304538
274,-0.9731,0.0117,0.2284,0.910,-11.830,7.560,0.00,0.01,0.01,0.00,0.00,2025-06-05T16:04:32.593039
275,-0.9633,0.0093,0.2552,-1.330,-8.155,3.850,0.01,0.00,0.00,0.01,0.00,2025-06-05T16:04:32.593039
276,-0.9257,0.0400,0.2635,0.070,-2.240,-1.435,0.01,0.00,0.00,0.00,0.01,2025-06-05T16:04:32.830469
277,-0.9780,0.0888,0.2635,-3.920,0.525,-4.690,0.00,0.01,0.01,0.01,0.00,2025-06-05T16:04:32.830469
278,-0.9955,0.0673,0.2928,-11.515,-0.560,7.980,0.00,0.00,0.00,0.00,0.00,2025-06-05T16:04:33.027964
279,-1.0072,0.0664,0.2830,-18.060,-9.485,13.090,0.01,0.01,0.00,0.00,0.01,2025-06-05T16:04:33.027964
280,-1.0087,0.1362,0.2059,-35.035,-11.480,25.270,0.00,0.00,0.01,0.01,0.00,2025-06-05T16:04:33.285263
281,-0.9511,0.0927,0.1801,-33.075,-6.370,20.965,0.01,0.00,0.01,0.00,0.01,2025-06-05T16:04:33.285263
282,-0.9423,0.0800,0.1840,-24.500,3.675,8.260,0.00,0.01,0.01,0.00,0.00,2025-06-05T16:04:33.493627
283,-0.9653,0.1235,0.2064,-9.835,4.130,2.135,0.00,0.01,0.00,0.01,0.00,2025-06-05T16:04:33.493754
284,-0.9731,0.1986,0.1557,-5.390,-6.265,3.990,0.01,0.00,0.00,0.01,0.00,2025-06-05T16:04:33.645221
285,-0.9906,0.1703,0.1176,7.245,-24.570,8.995,0.00,0.00,0.00,0.00,0.00,2025-06-05T16:04:33.645221
286,-0.9238,0.3172,0.1235,25.095,-9.695,0.280,0.01,0.00,0.01,0.01,0.01,2025-06-05T16:04:33.828551
287,-0.9057,0.3035,0.2303,33.635,4.445,13.020,0.00,0.01,0.00,0.00,0.01,2025-06-05T16:04:34.034003
288,-0.9531,0.3011,0.1937,22.295,-5.810,-1.960,0.00,0.01,0.00,0.00,0.01,2025-06-05T16:04:34.034003
289,-0.8574,0.3294,0.1420,7.875,-7.350,-11.830,0.00,0.00,0.00,0.01,0.00,2025-06-05T16:04:34.273335
290,-1.0438,0.4392,0.1967,-70.070,-26.320,9.590,0.00,0.00,0.00,0.00,0.00,2025-06-05T16:04:34.273335
291,-0.8843,0.2523,0.2547,-156.345,-78.050,17.080,0.00,0.00,0.00,0.00,0.00,2025-06-05T16:04:34.644311
292,-0.8408,-0.1347,0.3714,-137.830,-85.995,26.670,0.00,0.00,0.00,0.00,0.01,2025-06-05T16:04:34.644311
293,-0.8496,-0.3006,0.4841,-35.945,-31.255,5.950,0.01,0.00,0.00,0.00,0.00,2025-06-05T16:04:34.644311
294,-0.7998,-0.2489,0.5017,42.385,22.785,-12.250,0.00,0.01,0.01,0.01,0.00,2025-06-05T16:04:34.951559
295,-0.8760,0.0015,0.4909,75.250,29.365,-23.660,0.00,0.00,0.00,0.00,0.00,2025-06-05T16:04:34.951559
296,-0.9604,0.1386,0.4446,64.225,25.095,-19.985,0.00,0.01,0.00,0.00,0.00,2025-06-05T16:04:35.095184
297,-0.9296,0.1518,0.4094,50.505,26.145,-10.185,0.00,0.01,0.00,0.01,0.01,2025-06-05T16:04:35.095184
298,-0.8379,0.2484,0.3465,40.075,24.815,-3.010,0.00,0.00,0.00,0.00,0.00,2025-06-05T16:04:35.350056
299,-0.8847,0.4494,0.2123,-3.395,38.255,31.430,0.01,0.00,0.00,0.01,0.00,2025-06-05T16:04:35.350056
300,-1.1302,0.2084,0.1420,-25.620,25.270,59.640,0.00,0.00,0.00,0.00,0.00,2025-06-05T16:04:35.559833
301,-1.0531,0.0127,0.1957,-26.250,-9.940,19.845,0.00,0.00,0.00,0.00,0.00,2025-06-05T16:04:35.559833
302,-0.9594,0.0532,0.2079,-2.310,-29.960,-18.655,0.00,0.00,0.00,0.00,0.01,2025-06-05T16:04:35.673530
303,-0.9916,0.1454,0.2401,29.330,-38.850,-36.960,0.00,0.00,0.00,0.00,0.00,2025-06-05T16:04:35.895524
304,-1.0980,0.1625,0.3162,37.030,-70.700,-33.810,0.01,0.00,0.00,0.01,0.00,2025-06-05T16:04:35.895524
305,-0.9199,0.1645,0.3797,37.590,-65.590,-20.685,0.00,0.01,0.00,0.00,0.00,2025-06-05T16:04:36.076042
306,-0.9023,0.1127,0.3767,40.390,-7.945,-24.115,0.00,0.01,0.01,0.00,0.01,2025-06-05T16:04:36.076770
307,-0.8667,0.1220,0.3948,24.675,8.190,-31.255,0.00,0.00,0.00,0.00,0.00,2025-06-05T16:04:36.364074
308,-0.8472,0.1279,0.3982,19.250,-0.245,-25.480,0.01,0.00,0.00,0.00,0.00,2025-06-05T16:04:36.364074
309,-0.8877,0.1845,0.4177,15.995,0.560,-10.815,0.00,0.00,0.00,0.01,0.00,2025-06-05T16:04:36.526823
310,-0.9365,0.2098,0.3728,6.335,3.255,-5.215,0.00,0.00,0.01,0.00,0.00,2025-06-05T16:04:36.526823
311,-1.0341,0.1132,0.2181,16.240,-12.565,-9.030,0.01,0.00,0.01,0.00,0.01,2025-06-05T16:04:36.828614
312,-0.9287,0.1728,0.1576,11.830,13.335,-9.695,0.00,0.00,0.00,0.00,0.00,2025-06-05T16:04:36.828614
313,-0.9970,0.0742,0.2020,4.830,-16.030,-8.330,0.00,0.00,0.01,0.00,0.00,2025-06-05T16:04:36.899555
314,-1.0541,0.0171,0.2952,23.905,-12.740,-13.335,0.00,0.00,0.00,0.01,0.00,2025-06-05T16:04:37.000807
315,-1.0282,0.0234,0.3211,16.065,-11.200,-13.720,0.01,0.01,0.01,0.01,0.00,2025-06-05T16:04:37.102777
316,-0.8486,-0.0527,0.4050,20.160,-8.540,-13.825,0.01,0.00,0.00,0.00,0.00,2025-06-05T16:04:37.601658
317,-0.9501,-0.0122,0.4441,14.805,-19.320,-15.330,0.01,0.00,0.00,0.00,0.00,2025-06-05T16:04:37.601658
318,-0.8711,0.0166,0.4587,3.745,-10.255,-0.420,0.00,0.00,0.01,0.00,0.00,2025-06-05T16:04:37.601658
319,-0.8711,0.0054,0.4436,3.745,-18.340,2.485,0.00,0.00,0.00,0.00,0.00,2025-06-05T16:04:37.601658
320,-0.8555,-0.0224,0.4636,-9.520,-5.285,19.670,0.00,0.00,0.01,0.01,0.00,2025-06-05T16:04:37.709357
321,-0.9106,-0.0029,0.4065,-24.115,-7.000,10.815,0.01,0.00,0.01,0.01,0.01,2025-06-05T16:04:37.822257
322,-0.8926,0.0478,0.3504,-28.070,-0.840,3.255,0.01,0.01,0.00,0.00,0.00,2025-06-05T16:04:37.922765
323,-0.9804,-0.0566,0.2621,-18.270,-14.525,-8.470,0.01,0.01,0.01,0.00,0.00,2025-06-05T16:04:38.146047
324,-0.9862,-0.0561,0.1654,-15.610,-18.585,-0.175,0.01,0.00,0.01,0.00,0.00,2025-06-05T16:04:38.146047
325,-0.9994,-0.0220,0.2172,1.365,-16.905,8.400,0.00,0.00,0.00,0.00,0.00,2025-06-05T16:04:38.324479
326,-1.0721,0.0229,0.3255,9.100,1.295,-0.805,0.00,0.00,0.01,0.00,0.01,2025-06-05T16:04:38.324913
327,-0.9643,0.0361,0.3382,-2.730,7.420,8.995,0.00,0.00,0.00,0.00,0.00,2025-06-05T16:04:38.463118
328,-1.0043,-0.0283,0.3494,-3.255,-11.480,5.110,0.00,0.01,0.00,0.01,0.01,2025-06-05T16:04:38.774175
329,-0.9570,0.0268,0.3406,-0.210,-4.690,10.045,0.00,0.01,0.00,0.00,0.00,2025-06-05T16:04:38.774175
330,-0.9584,0.0483,0.3509,1.785,-2.730,8.015,0.00,0.00,0.00,0.00,0.00,2025-06-05T16:04:38.774175
331,-0.9545,0.0517,0.3270,-2.730,-2.205,6.965,0.01,0.00,0.00,0.01,0.00,2025-06-05T16:04:38.953694
332,-0.9340,0.0590,0.3221,-13.055,-3.850,6.895,0.00,0.00,0.00,0.00,0.00,2025-06-05T16:04:39.046300
333,-0.9516,0.0454,0.3221,-15.890,-7.665,3.570,0.00,0.01,0.01,0.01,0.00,2025-06-05T16:04:39.147436
334,-0.9575,0.0576,0.3401,-16.695,-2.765,6.615,0.00,0.00,0.00,0.00,0.00,2025-06-05T16:04:39.400351
335,-0.9623,0.0844,0.3499,-14.665,-5.845,9.520,0.00,0.00,0.01,0.00,0.00,2025-06-05T16:04:39.400351
336,-0.9623,0.0698,0.3616,-14.420,-13.860,15.715,0.00,0.00,0.00,0.00,0.00,2025-06-05T16:04:39.584842
337,-0.9292,0.0420,0.3406,-3.605,-8.505,8.015,0.00,0.01,0.01,0.01,0.00,2025-06-05T16:04:39.584842
338,-0.9360,0.0556,0.3328,4.620,-0.420,-5.145,0.01,0.01,0.00,0.00,0.00,2025-06-05T16:04:39.675602
339,-0.9692,0.0791,0.3460,2.730,-0.980,-8.120,0.00,0.01,0.01,0.00,0.01,2025-06-05T16:04:39.969814
340,-0.9492,0.0586,0.3572,-0.385,-1.855,-5.775,0.00,0.00,0.00,0.00,0.00,2025-06-05T16:04:39.969814
341,-0.9604,0.0522,0.3440,3.115,-5.670,-5.915,0.00,0.01,0.00,0.01,0.00,2025-06-05T16:04:40.069302
342,-0.9545,0.0571,0.3382,7.805,-7.805,-4.095,0.01,0.01,0.00,0.00,0.01,2025-06-05T16:04:40.177928
343,-0.9540,0.0493,0.3289,4.690,-7.280,-2.205,0.00,0.00,0.00,0.00,0.01,2025-06-05T16:04:40.394331
344,-0.9672,0.0439,0.3255,1.260,-11.340,-3.465,0.00,0.00,0.00,0.01,0.01,2025-06-05T16:04:40.394331
345,-0.9350,0.0664,0.3235,6.020,-4.410,-1.855,0.00,0.00,0.00,0.00,0.00,2025-06-05T16:04:40.485089
346,-0.9545,0.0410,0.3328,-3.360,-7.805,2.415,0.00,0.00,0.01,0.00,0.00,2025-06-05T16:04:40.783629
347,-0.9238,0.0488,0.3074,-0.595,-3.815,-3.185,0.00,0.00,0.00,0.01,0.00,2025-06-05T16:04:40.783629
348,-0.9526,0.0625,0.3074,-4.340,0.595,-4.130,0.00,0.00,0.00,0.00,0.00,2025-06-05T16:04:41.070907
349,-0.9575,0.0468,0.2591,-6.300,3.535,-5.705,0.01,0.01,0.01,0.00,0.00,2025-06-05T16:04:41.071749
350,-0.9916,0.0478,0.2289,-5.775,2.905,-8.890,0.00,0.01,0.00,0.00,0.01,2025-06-05T16:04:41.210844
351,-1.0209,0.0468,0.2206,-9.345,-1.470,-0.525,0.00,0.01,0.00,0.00,0.00,2025-06-05T16:04:41.388486
352,-1.0321,-0.0146,0.2347,-5.110,-13.825,4.935,0.00,0.00,0.00,0.00,0.00,2025-06-05T16:04:41.509133
353,-0.9575,-0.0005,0.2489,15.120,-9.765,5.390,0.01,0.00,0.00,0.01,0.00,2025-06-05T16:04:41.509133
354,-0.9902,0.0781,0.2362,16.800,-10.115,-1.225,0.01,0.01,0.00,0.01,0.01,2025-06-05T16:04:41.509133
355,-0.9555,0.1122,0.2523,-0.665,-3.010,5.110,0.01,0.01,0.00,0.01,0.00,2025-06-05T16:04:41.918814
356,-0.9628,0.0254,0.2689,-2.555,-17.710,8.890,0.01,0.01,0.01,0.01,0.01,2025-06-05T16:04:41.918814
357,-0.9326,0.0517,0.3001,4.690,-4.060,8.365,0.00,0.00,0.00,0.00,0.01,2025-06-05T16:04:42.020869
358,-0.9335,0.0508,0.3353,-7.035,-12.040,0.875,0.00,0.00,0.01,0.01,0.00,2025-06-05T16:04:42.020869
359,-0.9379,0.0063,0.3484,-9.415,-9.660,-0.385,0.00,0.00,0.00,0.00,0.00,2025-06-05T16:04:42.226811
360,-0.9248,0.0122,0.3660,1.505,-5.390,-2.730,0.01,0.01,0.00,0.01,0.01,2025-06-05T16:04:42.226811
361,-0.9550,0.0098,0.3811,4.760,-5.355,-5.425,0.00,0.01,0.00,0.00,0.00,2025-06-05T16:04:42.459858
362,-0.9331,0.0156,0.3943,6.370,-11.270,-4.480,0.00,0.00,0.01,0.00,0.00,2025-06-05T16:04:42.459858
363,-0.9623,0.0259,0.3806,11.690,-10.675,-4.375,0.01,0.00,0.01,0.00,0.00,2025-06-05T16:04:42.555614
364,-0.9428,0.0327,0.3440,4.865,-10.360,-4.480,0.00,0.01,0.00,0.00,0.00,2025-06-05T16:04:42.756718
365,-0.9531,0.0312,0.3396,-0.210,-10.815,-5.180,0.00,0.01,0.00,0.00,0.00,2025-06-05T16:04:43.091327
366,-0.9633,0.0390,0.3470,-1.190,-3.395,-1.715,0.00,0.00,0.01,0.00,0.00,2025-06-05T16:04:43.091327
367,-0.9589,0.0464,0.3338,-5.845,-9.240,2.940,0.01,0.00,0.01,0.00,0.00,2025-06-05T16:04:43.091327
368,-0.9453,0.0429,0.3011,-5.145,-3.955,5.355,0.00,0.00,0.01,0.00,0.00,2025-06-05T16:04:43.277642
369,-0.9648,0.0400,0.3026,-6.860,-6.055,4.305,0.01,0.01,0.00,0.01,0.00,2025-06-05T16:04:43.277642
370,-0.9462,0.0381,0.2879,-3.465,-3.465,3.290,0.00,0.00,0.01,0.00,0.00,2025-06-05T16:04:43.546845
371,-0.9614,0.0268,0.3128,2.205,-1.750,1.190,0.00,0.00,0.00,0.00,0.00,2025-06-05T16:04:43.547843
372,-1.0014,0.0259,0.3436,8.785,-13.685,2.555,0.01,0.01,0.01,0.00,0.00,2025-06-05T16:04:43.651497
373,-0.9531,0.0542,0.2952,6.335,-17.780,-3.885,0.00,0.00,0.00,0.00,0.00,2025-06-05T16:04:43.861566
374,-0.9599,0.0376,0.3387,3.010,-21.595,-1.190,0.01,0.01,0.01,0.01,0.00,2025-06-05T16:04:43.862160
375,-0.9511,0.0415,0.3084,1.820,-14.105,-1.820,0.00,0.01,0.00,0.00,0.00,2025-06-05T16:04:43.990581
376,-0.9399,0.0254,0.3182,-5.740,-8.575,4.445,0.00,0.00,0.00,0.00,0.00,2025-06-05T16:04:44.201257
377,-0.8725,0.0005,0.2987,4.235,-4.515,-1.750,0.01,0.01,0.00,0.01,0.01,2025-06-05T16:04:44.201257
378,-0.9467,0.0615,0.2967,6.265,3.570,-7.875,0.00,0.01,0.01,0.00,0.00,2025-06-05T16:04:44.535591
379,-0.9984,0.0473,0.3357,-1.015,5.425,-3.955,0.01,0.01,0.01,0.01,0.01,2025-06-05T16:04:44.535940
380,-0.9721,0.1015,0.2542,-7.595,-7.945,3.640,0.00,0.00,0.00,0.00,0.00,2025-06-05T16:04:44.535940
381,-1.0004,0.0405,0.2611,0.070,-13.720,3.395,0.00,0.01,0.01,0.01,0.00,2025-06-05T16:04:44.709558
382,-0.9848,0.0278,0.2816,-2.940,-4.760,8.540,0.00,0.01,0.00,0.00,0.00,2025-06-05T16:04:44.994361
383,-0.9589,0.0293,0.2850,-0.210,-7.350,-2.520,0.01,0.00,0.01,0.00,0.00,2025-06-05T16:04:44.994550
384,-0.9618,0.0166,0.3035,9.625,-11.690,-6.230,0.00,0.01,0.01,0.00,0.01,2025-06-05T16:04:44.994550
385,-0.9579,0.0293,0.2747,16.730,-12.705,-10.920,0.01,0.00,0.00,0.01,0.00,2025-06-05T16:04:45.151120
386,-0.9326,-0.0093,0.2542,10.570,-19.740,-33.600,0.00,0.00,0.01,0.01,0.00,2025-06-05T16:04:45.188537
387,-0.8955,-0.0503,0.3592,13.755,-22.400,-32.445,0.00,0.00,0.00,0.00,0.00,2025-06-05T16:04:45.293982
388,-0.8877,-0.0820,0.4470,29.295,-19.460,-21.105,0.00,0.00,0.00,0.00,0.01,2025-06-05T16:04:45.390917
389,-0.9575,-0.1640,0.4553,19.425,-13.965,-8.995,0.01,0.00,0.01,0.01,0.00,2025-06-05T16:04:45.530354
390,-0.8340,-0.1235,0.4294,1.540,-8.505,3.045,0.00,0.00,0.01,0.01,0.00,2025-06-05T16:04:45.703019
391,-0.8076,-0.0551,0.4041,-19.040,-1.540,5.705,0.00,0.00,0.01,0.01,0.00,2025-06-05T16:04:45.805109
392,-0.9228,-0.1527,0.3504,-29.085,-19.985,17.710,0.01,0.01,0.00,0.01,0.00,2025-06-05T16:04:45.912618
393,-1.2922,-0.1596,0.1815,-9.485,-8.610,-0.595,0.00,0.00,0.00,0.00,0.00,2025-06-05T16:04:46.111798
394,-0.9965,-0.1142,0.2079,25.480,0.945,-7.560,0.00,0.00,0.01,0.00,0.00,2025-06-05T16:04:46.111798
395,-0.8516,-0.0434,0.1967,28.455,-2.520,-19.390,0.00,0.00,0.00,0.00,0.00,2025-06-05T16:04:46.331663
396,-0.9789,-0.2147,0.3621,22.015,-10.115,-29.295,0.00,0.01,0.01,0.01,0.01,2025-06-05T16:04:46.331663
397,-0.8398,-0.1420,0.4407,22.050,-8.680,-25.270,0.00,0.00,0.01,0.01,0.00,2025-06-05T16:04:46.601212
398,-0.9018,-0.1108,0.4387,19.915,-16.835,-19.845,0.00,0.00,0.01,0.01,0.00,2025-06-05T16:04:46.601212
399,-0.8530,-0.1898,0.5031,1.260,13.125,-4.725,0.01,0.00,0.01,0.01,0.01,2025-06-05T16:04:46.729041
400,-0.8662,-0.2172,0.4455,0.735,-3.360,-1.820,0.01,0.00,0.00,0.00,0.00,2025-06-05T16:04:46.836705
401,-0.9013,-0.2172,0.4109,8.050,-3.815,-4.935,0.01,0.01,0.01,0.00,0.01,2025-06-05T16:04:46.960744
402,-0.9755,-0.2586,0.3665,-1.330,-18.445,-7.770,0.00,0.01,0.01,0.01,0.00,2025-06-05T16:04:47.057529
403,-0.9414,-0.2957,0.3606,5.215,-9.345,-10.465,0.01,0.00,0.01,0.01,0.00,2025-06-05T16:04:47.235286
404,-0.9360,-0.2801,0.3538,13.790,-2.660,-11.795,0.00,0.00,0.00,0.01,0.00,2025-06-05T16:04:47.235286
405,-0.9321,-0.2796,0.3719,17.115,0.140,-6.930,0.00,0.00,0.00,0.00,0.01,2025-06-05T16:04:47.355142
406,-0.8833,-0.2308,0.3762,26.740,-3.430,-2.310,0.00,0.00,0.00,0.00,0.00,2025-06-05T16:04:47.544638
407,-0.9584,-0.2172,0.3787,14.490,-10.360,4.025,0.01,0.00,0.00,0.01,0.00,2025-06-05T16:04:47.544638
408,-0.9223,-0.2308,0.3982,8.925,-13.055,8.260,0.01,0.01,0.00,0.00,0.01,2025-06-05T16:04:47.772657
409,-0.8989,-0.2284,0.3992,5.915,-19.985,11.130,0.00,0.00,0.00,0.00,0.00,2025-06-05T16:04:47.772657
410,-0.8481,-0.0449,0.2938,8.610,16.205,20.650,0.00,0.01,0.00,0.00,0.00,2025-06-05T16:04:48.059507
411,-0.9589,-0.0224,0.3431,13.895,33.425,15.925,0.00,0.00,0.01,0.01,0.00,2025-06-05T16:04:48.059507
412,-0.9048,-0.0664,0.4480,-12.705,22.260,11.165,0.00,0.00,0.01,0.00,0.00,2025-06-05T16:04:48.163792
413,-0.9150,-0.1449,0.3826,-36.540,-26.670,4.760,0.00,0.00,0.00,0.00,0.00,2025-06-05T16:04:48.362478
414,-0.9345,-0.1288,0.3040,-19.845,-2.275,1.750,0.01,0.00,0.01,0.01,0.00,2025-06-05T16:04:48.362478
415,-0.9823,-0.1503,0.3143,-10.745,0.560,2.940,0.00,0.00,0.00,0.01,0.01,2025-06-05T16:04:48.585236
416,-0.9335,-0.1518,0.2972,-7.245,-4.935,2.695,0.00,0.00,0.01,0.00,0.01,2025-06-05T16:04:48.585236
417,-0.9179,-0.1366,0.2577,-2.170,-1.750,1.785,0.01,0.00,0.01,0.01,0.00,2025-06-05T16:04:48.779008
418,-1.0292,-0.1405,0.2913,-0.805,-7.245,-3.535,0.00,0.00,0.00,0.01,0.00,2025-06-05T16:04:48.979226
419,-0.8867,-0.1225,0.2523,3.150,-15.435,3.640,0.01,0.00,0.00,0.01,0.00,2025-06-05T16:04:48.979226
420,-0.9096,-0.1078,0.2821,7.035,6.685,-5.635,0.00,0.00,0.00,0.01,0.00,2025-06-05T16:04:49.241807
421,-0.9130,-0.1322,0.2889,0.630,-9.380,-4.935,0.00,0.00,0.01,0.01,0.01,2025-06-05T16:04:49.241807
422,-0.8628,-0.1176,0.2738,5.005,-5.320,-2.590,0.00,0.00,0.01,0.00,0.00,2025-06-05T16:04:49.420061
423,-0.8091,-0.1347,0.2865,-0.035,3.395,5.320,0.01,0.01,0.01,0.00,0.00,2025-06-05T16:04:49.420061
424,-0.9457,-0.1645,0.3304,0.385,-23.520,-2.240,0.00,0.00,0.00,0.01,0.00,2025-06-05T16:04:49.688743
425,-0.9575,-0.1771,0.3074,5.915,-0.805,-1.995,0.00,0.00,0.00,0.01,0.00,2025-06-05T16:04:49.688743
426,-0.9399,-0.1078,0.2928,11.445,-3.115,-2.380,0.01,0.00,0.00,0.01,0.00,2025-06-05T16:04:49.796379
427,-0.9150,-0.0547,0.2816,-3.360,3.710,9.835,0.01,0.00,0.00,0.01,0.00,2025-06-05T16:04:49.929759
428,-1.0106,-0.1088,0.3396,-7.875,-33.880,18.585,0.00,0.00,0.01,0.01,0.01,2025-06-05T16:04:50.023448
429,-0.9287,-0.1527,0.3806,-2.940,-26.390,26.425,0.00,0.00,0.01,0.01,0.00,2025-06-05T16:04:50.205602
430,-0.9516,-0.0429,0.3797,5.740,-14.735,8.400,0.00,0.01,0.01,0.01,0.00,2025-06-05T16:04:50.205602
431,-0.8511,-0.0049,0.3694,14.140,1.680,5.670,0.01,0.00,0.00,0.00,0.00,2025-06-05T16:04:50.322402
432,-0.9067,0.0156,0.3465,5.355,0.665,-1.085,0.00,0.00,0.00,0.00,0.00,2025-06-05T16:04:50.475718
433,-0.9287,0.0029,0.3587,-9.065,16.555,7.035,0.01,0.01,0.00,0.01,0.01,2025-06-05T16:04:50.612968
434,-1.0063,0.0429,0.3792,-25.725,2.100,3.185,0.01,0.00,0.01,0.01,0.00,2025-06-05T16:04:50.612968
435,-0.9799,-0.0356,0.4153,-19.810,-6.860,11.760,0.00,0.00,0.01,0.00,0.00,2025-06-05T16:04:50.743096
436,-0.8891,0.0156,0.3392,-16.030,-3.955,7.210,0.01,0.00,0.00,0.01,0.00,2025-06-05T16:04:50.954261
437,-0.9443,-0.0346,0.3592,-25.270,4.340,11.165,0.00,0.00,0.01,0.01,0.00,2025-06-05T16:04:51.027103
438,-0.9516,-0.0464,0.3504,-38.220,-1.890,12.460,0.01,0.00,0.01,0.00,0.00,2025-06-05T16:04:51.137426
439,-0.9545,-0.0996,0.3509,-42.280,-13.790,13.370,0.00,0.00,0.01,0.00,0.01,2025-06-05T16:04:51.233165
440,-0.9384,-0.0517,0.3465,-24.570,-11.620,10.325,0.00,0.01,0.01,0.01,0.00,2025-06-05T16:04:51.461587
441,-0.9540,-0.0200,0.3006,-15.505,-13.580,10.850,0.00,0.01,0.01,0.01,0.00,2025-06-05T16:04:51.461740
442,-0.8882,0.0068,0.3514,-9.590,-5.005,11.095,0.01,0.00,0.00,0.00,0.00,2025-06-05T16:04:51.671836
443,-0.8886,0.0966,0.3860,5.880,16.240,6.125,0.00,0.00,0.01,0.01,0.00,2025-06-05T16:04:51.671836
444,-1.0853,0.2860,0.3328,-25.970,-23.100,24.150,0.00,0.01,0.01,0.01,0.00,2025-06-05T16:04:51.840554
445,-1.2371,0.0703,0.3728,3.395,-36.295,41.405,0.00,0.00,0.00,0.01,0.00,2025-06-05T16:04:52.091181
446,-0.9384,0.0712,0.2059,51.030,-22.050,20.370,0.00,0.01,0.01,0.01,0.00,2025-06-05T16:04:52.091321
447,-0.5695,0.1571,0.2264,48.615,10.360,29.680,0.00,0.01,0.00,0.00,0.00,2025-06-05T16:04:52.580346
448,-0.9599,0.4094,0.5324,25.305,-1.470,2.660,0.01,0.00,0.01,0.01,0.01,2025-06-05T16:04:52.580346
449,-1.1941,0.3977,0.5788,8.960,-28.840,25.480,0.00,0.01,0.00,0.00,0.00,2025-06-05T16:04:52.580346
450,-0.7598,0.2054,0.4231,-0.630,0.245,31.220,0.00,0.01,0.01,0.01,0.00,2025-06-05T16:04:52.580346
451,-0.5675,0.1937,0.3675,-6.020,7.700,16.730,0.01,0.01,0.01,0.00,0.00,2025-06-05T16:04:52.663929
452,-0.7940,0.4451,0.3338,-24.045,7.910,-20.195,0.01,0.00,0.00,0.00,0.00,2025-06-05T16:04:52.663929
453,-0.7627,0.5539,0.4480,-53.480,-8.365,8.190,0.00,0.00,0.00,0.00,0.01,2025-06-05T16:04:52.901180
454,-0.8516,0.4265,0.3148,-7.455,-14.140,-0.910,0.00,0.01,0.00,0.01,0.01,2025-06-05T16:04:52.901180
455,-0.6690,0.4202,0.2660,9.800,-7.525,9.030,0.00,0.01,0.00,0.00,0.00,2025-06-05T16:04:53.084513
456,-0.8008,0.4246,0.3094,21.140,-15.925,-9.380,0.00,0.00,0.01,0.00,0.01,2025-06-05T16:04:53.274584
457,-0.9394,0.5183,0.4324,15.785,-21.350,0.245,0.01,0.01,0.01,0.00,0.00,2025-06-05T16:04:53.274584
458,-0.9072,0.4885,0.4660,-0.630,-25.480,6.510,0.00,0.00,0.00,0.01,0.00,2025-06-05T16:04:53.382739
459,-0.7579,0.1972,0.4987,2.170,-35.280,2.485,0.00,0.00,0.01,0.00,0.01,2025-06-05T16:04:53.645248
460,-0.6549,0.2284,0.4807,24.360,-4.830,-16.765,0.00,0.00,0.00,0.00,0.00,2025-06-05T16:04:53.897918
461,-0.8042,0.3880,0.5797,15.960,-10.220,-30.030,0.00,0.00,0.00,0.00,0.00,2025-06-05T16:04:53.897918
462,-0.8096,0.4202,0.5651,-5.985,-29.750,-17.640,0.00,0.01,0.00,0.00,0.00,2025-06-05T16:04:53.897918
463,-0.8125,0.3689,0.5070,-18.515,-16.765,-14.910,0.00,0.00,0.00,0.00,0.00,2025-06-05T16:04:54.004751
464,-0.8286,0.3152,0.4758,-27.475,-7.245,-7.000,0.00,0.00,0.00,0.01,0.00,2025-06-05T16:04:54.095433
465,-0.8843,0.2855,0.4138,-17.220,3.745,-10.570,0.00,0.00,0.00,0.01,0.00,2025-06-05T16:04:54.342956
466,-0.8857,0.3094,0.4085,-8.085,7.245,-4.725,0.00,0.00,0.00,0.01,0.00,2025-06-05T16:04:54.342956
467,-0.8457,0.3167,0.4133,15.365,16.555,-4.025,0.00,0.00,0.00,0.00,0.00,2025-06-05T16:04:54.608924
468,-0.9048,0.3045,0.4519,24.850,-12.915,-8.715,0.01,0.01,0.00,0.01,0.00,2025-06-05T16:04:54.609920
469,-0.8218,0.3065,0.4841,22.680,0.140,-0.805,0.00,0.01,0.00,0.01,0.00,2025-06-05T16:04:54.707823
470,-1.0238,0.1825,0.3709,27.475,-5.530,-8.820,0.00,0.00,0.00,0.01,0.00,2025-06-05T16:04:54.819921
471,-0.8589,0.2015,0.4573,17.605,-3.220,-11.025,0.00,0.01,0.00,0.01,0.00,2025-06-05T16:04:54.974408
472,-0.8462,0.1947,0.4782,4.095,0.245,-12.915,0.01,0.01,0.00,0.00,0.00,2025-06-05T16:04:54.975404
473,-0.8213,0.2386,0.5592,-0.875,3.465,-8.680,0.00,0.01,0.01,0.00,0.00,2025-06-05T16:04:55.264904
474,-0.8930,0.2230,0.4441,-4.970,-27.965,10.185,0.00,0.00,0.00,0.00,0.00,2025-06-05T16:04:55.524412
475,-0.8716,0.2147,0.3948,-0.980,-1.820,13.930,0.00,0.00,0.01,0.00,0.01,2025-06-05T16:04:55.525405
476,-0.8462,0.2591,0.4446,-12.530,-9.520,10.045,0.01,0.00,0.01,0.00,0.01,2025-06-05T16:04:55.525405
477,-0.8784,0.2582,0.4363,-9.100,-50.785,19.390,0.00,0.00,0.00,0.00,0.01,2025-06-05T16:04:55.780807
478,-0.7569,0.3655,0.4592,-5.425,1.330,6.790,0.00,0.00,0.01,0.01,0.01,2025-06-05T16:04:55.781809
479,-0.9360,0.3684,0.4255,-26.005,21.210,-7.560,0.00,0.01,0.00,0.01,0.00,2025-06-05T16:04:56.048488
480,-1.1468,0.2113,0.3016,-7.385,-29.015,20.125,0.01,0.01,0.00,0.00,0.00,2025-06-05T16:04:56.049506
481,-0.7242,0.3045,0.3992,-4.760,-20.440,16.065,0.01,0.00,0.00,0.01,0.01,2025-06-05T16:04:56.146474
482,-0.8052,0.3733,0.4875,-4.410,-22.365,5.425,0.01,0.00,0.01,0.00,0.00,2025-06-05T16:04:56.146474
483,-0.9023,0.3855,0.3845,-2.800,-19.040,3.395,0.00,0.01,0.00,0.00,0.01,2025-06-05T16:04:56.358073
484,-0.8242,0.2826,0.4470,1.435,-22.050,8.960,0.01,0.00,0.00,0.01,0.00,2025-06-05T16:04:56.358073
485,-0.7154,0.3899,0.3758,2.555,-8.890,-5.635,0.00,0.00,0.01,0.00,0.01,2025-06-05T16:04:56.685995
486,-0.7247,0.2786,0.4919,5.075,7.875,-23.345,0.00,0.00,0.00,0.00,0.01,2025-06-05T16:04:56.685995
487,-0.8896,0.3411,0.4499,21.700,-2.065,-2.240,0.01,0.00,0.00,0.01,0.00,2025-06-05T16:04:56.865424
488,-0.8550,0.2704,0.3216,7.665,17.605,17.290,0.00,0.00,0.00,0.00,0.01,2025-06-05T16:04:56.865962
489,-0.8911,0.3392,0.3372,-4.235,-12.355,13.580,0.00,0.00,0.01,0.00,0.01,2025-06-05T16:04:56.959969
490,-0.8154,0.3572,0.5129,-14.665,2.065,0.700,0.01,0.01,0.01,0.01,0.00,2025-06-05T16:04:57.167701
491,-0.9116,0.4246,0.4738,-1.960,4.130,22.820,0.00,0.01,0.01,0.00,0.01,2025-06-05T16:04:57.167701
492,-0.9043,0.2708,0.3621,8.890,-1.505,38.080,0.00,0.00,0.01,0.01,0.00,2025-06-05T16:04:57.267996
493,-0.7779,0.2689,0.3533,3.080,10.710,27.195,0.00,0.00,0.00,0.00,0.00,2025-06-05T16:04:57.497668
494,-0.7993,0.4168,0.3850,-2.520,0.105,-5.040,0.00,0.01,0.01,0.01,0.01,2025-06-05T16:04:57.497668
495,-0.8857,0.5134,0.4143,-0.805,-23.730,1.785,0.00,0.01,0.00,0.00,0.00,2025-06-05T16:04:57.595453
496,-0.8447,0.4509,0.3816,4.620,-18.830,17.990,0.00,0.00,0.01,0.01,0.00,2025-06-05T16:04:57.781076
497,-0.7491,0.5100,0.3304,6.195,-21.000,15.715,0.00,0.01,0.01,0.00,0.00,2025-06-05T16:04:57.882027
498,-0.6573,0.5266,0.2328,1.295,-3.255,17.815,0.01,0.00,0.01,0.00,0.00,2025-06-05T16:04:58.033267
499,-0.6886,0.6476,0.2425,3.640,12.180,11.130,0.00,0.00,0.00,0.00,0.01,2025-06-05T16:04:58.209574
500,-0.7549,0.8091,0.3201,-12.005,-12.285,25.935,0.01,0.00,0.00,0.01,0.00,2025-06-05T16:04:58.209574
501,-0.6398,0.6871,0.2811,-6.160,-7.490,42.945,0.01,0.01,0.00,0.01,0.00,2025-06-05T16:04:58.525757
502,-0.5900,0.6056,0.2420,-4.585,-30.275,36.050,0.01,0.01,0.01,0.00,0.00,2025-06-05T16:04:58.525757
503,-0.4714,0.6246,0.2435,8.225,-33.425,25.305,0.00,0.01,0.01,0.01,0.00,2025-06-05T16:04:58.525757
504,-0.4026,0.8306,0.3889,15.155,-12.670,-11.725,0.01,0.00,0.01,0.00,0.01,2025-06-05T16:04:58.604847
505,-0.5056,0.8023,0.3743,-7.385,-16.415,-7.455,0.00,0.01,0.01,0.01,0.00,2025-06-05T16:04:59.024908
506,-0.5114,0.6661,0.3684,10.080,7.980,-0.525,0.01,0.01,0.01,0.01,0.00,2025-06-05T16:04:59.024908
507,-0.5549,0.6925,0.4299,-0.840,-3.710,-2.835,0.00,0.00,0.00,0.00,0.00,2025-06-05T16:04:59.024908
508,-0.5827,0.7374,0.4524,4.480,-4.270,3.045,0.00,0.01,0.00,0.00,0.00,2025-06-05T16:04:59.121200
509,-0.6285,0.7242,0.4148,7.210,-12.530,17.885,0.01,0.00,0.01,0.01,0.00,2025-06-05T16:04:59.200005
510,-0.4758,0.6486,0.3855,9.590,-6.090,11.165,0.00,0.00,0.01,0.01,0.00,2025-06-05T16:04:59.431272
511,-0.4460,0.6656,0.3699,1.855,-5.670,-18.445,0.00,0.01,0.00,0.00,0.00,2025-06-05T16:04:59.431272
512,-0.5090,0.6608,0.3699,-3.465,0.420,-40.460,0.00,0.00,0.00,0.00,0.00,2025-06-05T16:04:59.663558
513,-0.5802,0.7183,0.3924,-3.080,-5.390,-39.235,0.01,0.00,0.01,0.01,0.01,2025-06-05T16:04:59.663558
514,-0.6378,0.6837,0.3255,1.925,18.410,-16.170,0.01,0.01,0.01,0.00,0.00,2025-06-05T16:04:59.746977
515,-0.6803,0.7130,0.3357,-18.165,-5.810,1.540,0.00,0.00,0.01,0.00,0.00,2025-06-05T16:05:00.136965
516,-0.6910,0.5988,0.2987,-19.950,4.970,-2.205,0.00,0.00,0.01,0.00,0.00,2025-06-05T16:05:00.136965
517,-0.7105,0.6051,0.3440,-13.790,3.465,-5.705,0.00,0.00,0.00,0.01,0.00,2025-06-05T16:05:00.136965
518,-0.7432,0.5929,0.3694,-4.690,-2.940,-10.360,0.00,0.00,0.01,0.01,0.00,2025-06-05T16:05:00.290754
519,-0.7120,0.6032,0.3528,2.345,-4.235,-4.900,0.01,0.00,0.00,0.01,0.00,2025-06-05T16:05:00.460298
520,-0.7139,0.5978,0.3304,9.065,-5.320,-3.395,0.00,0.00,0.00,0.00,0.00,2025-06-05T16:05:00.460298
521,-0.7130,0.5788,0.3231,12.110,-7.350,-2.765,0.00,0.01,0.01,0.00,0.00,2025-06-05T16:05:00.748436
522,-0.7227,0.5817,0.3445,7.140,-9.450,-2.590,0.01,0.00,0.00,0.00,0.00,2025-06-05T16:05:00.748436
