SeqNum,AccX,AccY,AccZ,GyroX,GyroY,GyroZ,Flex,Force1,Force2,Force3,Force4,TimestampReception
1,-0.3938,0.0791,0.9609,0.490,-3.640,-0.280,456,435,299,346,391,2025-05-28T14:08:42.205961
2,-0.3889,0.0786,0.9555,-0.035,-4.095,0.770,427,418,307,406,382,2025-05-28T14:08:42.206347
3,-0.3894,0.0766,0.9555,0.175,-4.270,1.085,428,416,350,413,398,2025-05-28T14:08:42.206347
4,-0.3909,0.0795,0.9560,0.280,-4.200,1.120,401,419,355,405,404,2025-05-28T14:08:42.206551
5,-0.3948,0.0732,0.9560,0.455,-4.200,1.190,378,410,365,389,393,2025-05-28T14:08:42.206551
6,-0.3958,0.0786,0.9560,0.490,-4.305,1.225,406,415,354,391,398,2025-05-28T14:08:42.206551
7,-0.3943,0.0761,0.9560,0.490,-4.480,1.120,375,431,371,392,385,2025-05-28T14:08:42.206551
8,-0.3982,0.0742,0.9540,0.595,-4.445,1.085,407,395,369,406,393,2025-05-28T14:08:42.206551
9,-0.3953,0.0766,0.9579,0.595,-4.830,0.945,417,402,327,395,388,2025-05-28T14:08:42.206551
10,-0.3972,0.0761,0.9618,0.560,-5.145,0.840,361,416,343,402,393,2025-05-28T14:08:42.207449
11,-0.3977,0.0781,0.9584,0.315,-5.285,0.805,391,401,347,415,407,2025-05-28T14:08:42.207449
12,-0.3987,0.0791,0.9638,0.245,-5.810,0.525,415,401,353,392,355,2025-05-28T14:08:42.207449
13,-0.3894,0.0776,0.9633,-0.035,-5.810,0.525,362,388,339,378,391,2025-05-28T14:08:42.207449
14,-0.3914,0.0771,0.9618,-0.245,-5.705,0.350,420,404,362,415,402,2025-05-28T14:08:42.207449
15,-0.3841,0.0771,0.9653,-0.420,-5.390,0.140,367,336,331,415,388,2025-05-28T14:08:42.207449
16,-0.3821,0.0761,0.9662,-0.700,-5.040,0.105,339,388,349,401,381,2025-05-28T14:08:42.207449
17,-0.3767,0.0761,0.9687,-0.945,-4.585,0.035,393,401,370,412,400,2025-05-28T14:08:42.207449
18,-0.3782,0.0781,0.9677,-1.155,-4.235,0.000,418,343,373,412,353,2025-05-28T14:08:42.207449
19,-0.3841,0.0800,0.9638,-1.365,-3.850,0.000,415,409,360,350,371,2025-05-28T14:08:42.207449
20,-0.3836,0.0864,0.9599,-1.610,-3.745,0.175,406,411,355,381,390,2025-05-28T14:08:42.207449
21,-0.3875,0.0888,0.9589,-1.855,-4.130,0.560,382,417,368,344,400,2025-05-28T14:08:42.208447
22,-0.3928,0.0961,0.9599,-2.450,-4.760,0.910,419,424,367,383,404,2025-05-28T14:08:42.208447
23,-0.4046,0.0947,0.9628,-2.730,-5.880,1.120,428,353,374,392,352,2025-05-28T14:08:42.273785
24,-0.4075,0.0908,0.9701,-2.975,-7.910,1.295,424,406,390,406,371,2025-05-28T14:08:42.273785
25,-0.4002,0.0883,0.9697,-3.465,-9.065,1.540,399,393,388,422,399,2025-05-28T14:08:42.273785
26,-0.3948,0.0825,0.9716,-3.920,-10.115,1.680,398,431,390,412,413,2025-05-28T14:08:42.273785
27,-0.3836,0.0795,0.9672,-4.130,-10.500,1.505,423,391,383,408,357,2025-05-28T14:08:42.273785
28,-0.3777,0.0761,0.9623,-4.235,-10.290,1.120,416,411,380,371,378,2025-05-28T14:08:42.273785
29,-0.3665,0.0722,0.9653,-4.410,-8.995,0.735,397,423,377,373,381,2025-05-28T14:08:42.273785
30,-0.3655,0.0639,0.9682,-4.305,-7.700,0.210,416,412,371,404,403,2025-05-28T14:08:42.523598
31,-0.3631,0.0630,0.9701,-4.060,-5.915,-0.455,430,357,372,416,398,2025-05-28T14:08:42.523598
32,-0.3670,0.0634,0.9716,-3.990,-4.550,-1.155,401,395,359,415,346,2025-05-28T14:08:42.523598
33,-0.3704,0.0639,0.9697,-3.710,-3.570,-1.400,398,398,367,406,385,2025-05-28T14:08:42.523598
34,-0.3758,0.0659,0.9628,-3.465,-3.290,-1.750,427,432,373,394,304,2025-05-28T14:08:42.523598
35,-0.3792,0.0688,0.9594,-3.430,-3.045,-2.100,417,400,333,341,349,2025-05-28T14:08:42.523598
36,-0.3845,0.0683,0.9545,-2.975,-3.010,-2.170,392,422,353,387,384,2025-05-28T14:08:42.523598
37,-0.3826,0.0683,0.9482,-2.310,-3.500,-2.065,391,407,361,394,383,2025-05-28T14:08:42.523598
38,-0.3797,0.0683,0.9399,-1.960,-3.675,-1.785,389,399,367,397,394,2025-05-28T14:08:42.523598
39,-0.3831,0.0639,0.9389,-0.875,-4.340,-1.435,419,421,374,401,394,2025-05-28T14:08:42.523598
40,-0.3675,0.0659,0.9389,-0.140,-4.445,-0.875,420,391,332,396,403,2025-05-28T14:08:42.523598
41,-0.3626,0.0625,0.9389,0.840,-4.515,-0.280,395,424,361,400,315,2025-05-28T14:08:42.523598
42,-0.3538,0.0630,0.9433,1.925,-3.955,0.140,417,390,377,340,278,2025-05-28T14:08:42.523598
43,-0.3533,0.0595,0.9492,2.905,-3.010,0.420,415,400,336,325,357,2025-05-28T14:08:42.523598
44,-0.3509,0.0581,0.9521,3.780,-1.155,0.525,400,400,357,375,379,2025-05-28T14:08:42.523598
45,-0.3567,0.0527,0.9594,4.375,8.855,0.630,417,433,352,387,394,2025-05-28T14:08:42.523598
46,-0.3587,0.0498,0.9628,4.970,1.015,0.490,436,403,372,300,352,2025-05-28T14:08:42.523598
47,-0.3655,0.0488,0.9692,5.355,2.170,0.385,435,421,366,382,394,2025-05-28T14:08:42.523598
48,-0.3753,0.0532,0.9770,5.215,2.940,0.210,410,433,376,403,348,2025-05-28T14:08:42.523598
49,-0.3845,0.0605,0.9843,4.725,2.625,0.175,409,409,367,385,388,2025-05-28T14:08:42.723738
50,-0.3860,0.0698,0.9838,4.165,2.170,0.420,412,347,368,387,399,2025-05-28T14:08:42.723738
51,-0.3875,0.0791,0.9755,3.395,1.260,0.840,339,397,358,407,381,2025-05-28T14:08:42.723738
52,-0.3831,0.0888,0.9692,2.695,0.105,1.225,414,408,375,413,399,2025-05-28T14:08:42.723738
53,-0.3723,0.0986,0.9628,1.855,-0.840,2.065,393,404,338,415,379,2025-05-28T14:08:42.723738
54,-0.3899,0.0908,0.9740,1.470,-2.135,2.345,403,402,284,412,395,2025-05-28T14:08:42.723738
55,-0.3792,0.0952,0.9945,0.210,-2.730,3.080,415,406,348,418,393,2025-05-28T14:08:42.723738
56,-0.4124,0.0942,0.9931,-1.015,-4.305,3.255,416,371,359,413,378,2025-05-28T14:08:42.723738
57,-0.3811,0.0942,0.9921,-1.890,-4.935,3.745,436,392,342,394,407,2025-05-28T14:08:42.723738
58,-0.3860,0.0874,0.9775,-2.485,-5.915,3.885,408,363,353,390,409,2025-05-28T14:08:42.723738
59,-0.3660,0.0849,0.9614,-2.905,-5.005,4.165,418,407,355,388,398,2025-05-28T14:08:42.723738
60,-0.3626,0.0747,0.9555,-3.150,-4.900,4.305,418,405,353,406,347,2025-05-28T14:08:42.723738
61,-0.3645,0.0727,0.9584,-3.220,-4.235,4.515,428,356,329,397,328,2025-05-28T14:08:42.723738
62,-0.3738,0.0688,0.9643,-2.975,-3.185,4.585,434,385,364,346,374,2025-05-28T14:08:42.723738
63,-0.3743,0.0717,0.9726,-3.115,-2.940,4.480,409,416,381,383,388,2025-05-28T14:08:42.723738
64,-0.3777,0.0703,0.9643,-2.905,-2.555,4.445,424,420,348,390,401,2025-05-28T14:08:42.723738
65,-0.3748,0.0664,0.9555,-2.555,-1.680,4.060,427,421,350,303,383,2025-05-28T14:08:42.723738
66,-0.3767,0.0703,0.9482,-2.170,-0.630,3.640,422,438,329,367,375,2025-05-28T14:08:42.723738
67,-0.3748,0.0727,0.9409,-1.715,0.035,3.290,395,345,342,334,385,2025-05-28T14:08:42.723738
68,-0.3855,0.0766,0.9418,-1.330,0.245,2.835,397,405,369,387,387,2025-05-28T14:08:42.807534
69,-0.4016,0.0786,0.9584,-1.330,-0.140,2.450,416,372,377,412,399,2025-05-28T14:08:42.807534
70,-0.4133,0.0834,0.9736,-1.470,-1.015,1.995,410,371,379,416,389,2025-05-28T14:08:42.807534
71,-0.4197,0.0844,0.9814,-2.100,-2.695,1.715,417,412,382,409,396,2025-05-28T14:08:42.807534
72,-0.4177,0.0854,0.9794,-2.730,-4.375,1.225,379,397,367,412,393,2025-05-28T14:08:42.807534
73,-0.4099,0.0820,0.9692,-3.115,-5.705,0.805,412,430,372,417,388,2025-05-28T14:08:42.807534
74,-0.3914,0.0781,0.9536,-3.360,-6.230,0.420,416,387,358,376,363,2025-05-28T14:08:42.807534
75,-0.3806,0.0727,0.9472,-3.640,-6.055,0.245,400,420,323,397,390,2025-05-28T14:08:42.807534
76,-0.3767,0.0673,0.9550,-3.605,-5.600,0.245,381,411,350,403,382,2025-05-28T14:08:42.897424
77,-0.3855,0.0664,0.9716,-3.990,-6.300,0.595,415,403,373,407,337,2025-05-28T14:08:42.897424
78,-0.3802,0.0776,0.9858,-4.655,-7.945,1.295,407,397,373,406,390,2025-05-28T14:08:42.897424
79,-0.3875,0.0810,0.9984,-5.915,-9.380,1.925,435,393,372,415,403,2025-05-28T14:08:42.897424
80,-0.3865,0.0756,1.0004,-6.860,-10.500,2.275,406,397,365,406,388,2025-05-28T14:08:42.897424
81,-0.3802,0.0722,0.9931,-7.630,-11.060,2.345,362,367,357,401,383,2025-05-28T14:08:42.897424
82,-0.3660,0.0712,0.9780,-8.225,-10.710,2.345,408,410,371,386,402,2025-05-28T14:08:42.897424
83,-0.3543,0.0664,0.9638,-8.365,-9.520,2.345,416,397,367,391,399,2025-05-28T14:08:42.994327
84,-0.3553,0.0551,0.9618,-8.155,-8.190,1.995,420,359,358,367,341,2025-05-28T14:08:42.994327
85,-0.3528,0.0508,0.9682,-7.735,-7.350,1.820,425,415,371,394,351,2025-05-28T14:08:42.994327
86,-0.3626,0.0478,0.9716,-7.455,-7.000,1.715,418,380,333,392,380,2025-05-28T14:08:42.994327
87,-0.3762,0.0454,0.9726,-7.175,-7.105,1.575,402,394,370,369,372,2025-05-28T14:08:42.994327
88,-0.3777,0.0444,0.9638,-6.790,-6.895,1.225,402,359,370,337,370,2025-05-28T14:08:42.994327
89,-0.3777,0.0464,0.9531,-6.265,-7.385,0.980,418,425,371,386,342,2025-05-28T14:08:42.994327
90,-0.3758,0.0449,0.9511,-5.670,-8.015,0.945,399,415,360,341,370,2025-05-28T14:08:42.994327
91,-0.3909,0.0449,0.9438,-4.935,-9.450,0.840,355,393,372,291,389,2025-05-28T14:08:43.090095
92,-0.3845,0.0439,0.9482,-4.165,-9.870,0.840,408,379,365,349,402,2025-05-28T14:08:43.090095
93,-0.3826,0.0439,0.9511,-3.640,-10.780,0.350,426,393,367,382,414,2025-05-28T14:08:43.090095
94,-0.3714,0.0464,0.9575,-2.905,-10.990,0.175,356,421,376,405,399,2025-05-28T14:08:43.090095
95,-0.3611,0.0468,0.9589,-2.030,-11.130,-0.070,384,402,376,351,380,2025-05-28T14:08:43.090095
96,-0.3479,0.0468,0.9628,-1.400,-10.255,-0.210,353,410,378,389,401,2025-05-28T14:08:43.090095
97,-0.3406,0.0439,0.9633,-0.770,-8.890,-0.665,395,421,367,409,397,2025-05-28T14:08:43.090095
98,-0.3338,0.0415,0.9692,-0.315,-7.000,-1.190,406,352,364,408,388,2025-05-28T14:08:43.090095
99,-0.3270,0.0405,0.9745,0.315,-4.515,-1.855,422,383,366,390,388,2025-05-28T14:08:43.208705
100,-0.3284,0.0400,0.9833,0.980,-1.890,-2.555,429,415,377,395,386,2025-05-28T14:08:43.208705
101,-0.3401,0.0410,0.9819,1.400,-0.525,-2.800,411,398,303,413,406,2025-05-28T14:08:43.208705
102,-0.3445,0.0449,0.9780,1.680,0.525,-2.975,401,430,354,419,398,2025-05-28T14:08:43.208705
103,-0.3553,0.0493,0.9711,1.925,0.910,-2.940,381,424,320,401,376,2025-05-28T14:08:43.208705
104,-0.3597,0.0561,0.9579,2.345,0.350,-2.870,390,416,353,348,397,2025-05-28T14:08:43.208705
105,-0.3675,0.0590,0.9570,2.555,-0.595,-2.555,397,391,324,385,401,2025-05-28T14:08:43.208705
106,-0.3772,0.0630,0.9565,2.835,-2.275,-2.240,409,419,350,348,402,2025-05-28T14:08:43.208705
107,-0.3899,0.0600,0.9584,2.905,-4.515,-1.890,428,401,355,382,356,2025-05-28T14:08:43.208705
108,-0.3953,0.0600,0.9623,3.080,-6.825,-1.645,435,405,371,335,366,2025-05-28T14:08:43.208705
109,-0.3909,0.0615,0.9658,3.045,-8.505,-1.505,420,425,374,287,348,2025-05-28T14:08:43.257230
110,-0.3850,0.0551,0.9721,2.730,-10.185,-1.750,376,362,368,383,374,2025-05-28T14:08:43.257230
111,-0.3772,0.0503,0.9731,2.730,-11.585,-2.030,418,406,330,384,382,2025-05-28T14:08:43.257230
112,-0.3553,0.0493,0.9716,2.555,-11.725,-2.310,418,378,318,365,377,2025-05-28T14:08:43.257230
113,-0.3499,0.0468,0.9775,2.345,-10.885,-2.765,425,414,354,402,347,2025-05-28T14:08:43.257230
114,-0.3392,0.0444,0.9882,2.065,-9.695,-3.150,345,388,368,351,381,2025-05-28T14:08:43.525889
115,-0.3362,0.0459,0.9945,1.750,-8.995,-3.430,332,421,372,386,402,2025-05-28T14:08:43.525889
116,-0.3396,0.0429,1.0009,0.805,-7.525,-3.605,410,407,359,338,395,2025-05-28T14:08:43.525889
117,-0.3362,0.0425,1.0058,0.175,-6.580,-3.990,420,389,375,365,388,2025-05-28T14:08:43.525889
118,-0.3333,0.0547,1.0087,-0.595,-5.390,-4.235,425,388,335,404,405,2025-05-28T14:08:43.525889
119,-0.3357,0.0610,1.0087,-1.960,-5.005,-4.340,409,411,360,397,347,2025-05-28T14:08:43.525889
120,-0.3367,0.0678,1.0106,-3.115,-4.760,-4.025,414,399,328,354,385,2025-05-28T14:08:43.525889
121,-0.3436,0.0717,1.0087,-4.480,-5.005,-4.165,341,413,352,378,406,2025-05-28T14:08:43.525889
122,-0.3436,0.0747,1.0063,-5.565,-5.075,-3.815,414,407,369,406,414,2025-05-28T14:08:43.525889
123,-0.3406,0.0756,1.0150,-6.930,-5.670,-3.395,345,425,362,401,386,2025-05-28T14:08:43.525889
124,-0.3372,0.0717,1.0048,-8.015,-6.930,-3.010,388,390,376,391,336,2025-05-28T14:08:43.525889
125,-0.3338,0.0649,1.0033,-8.680,-7.105,-2.345,418,418,387,399,383,2025-05-28T14:08:43.538079
126,-0.3279,0.0571,0.9936,-9.100,-6.755,-1.960,398,393,377,407,379,2025-05-28T14:08:43.538079
127,-0.3211,0.0468,0.9862,-9.275,-6.230,-1.540,412,366,367,411,397,2025-05-28T14:08:43.538079
128,-0.3118,0.0425,0.9726,-8.960,-5.075,-1.120,398,360,383,393,390,2025-05-28T14:08:43.538246
129,-0.3060,0.0405,0.9682,-8.295,-3.780,-0.630,423,408,379,381,403,2025-05-28T14:08:43.538283
130,-0.3065,0.0400,0.9726,-7.805,-2.695,0.070,406,431,377,404,410,2025-05-28T14:08:43.538353
131,-0.3123,0.0468,0.9745,-7.245,-2.135,0.910,408,349,335,405,406,2025-05-28T14:08:43.538353
132,-0.2987,0.0537,0.9765,-6.965,-0.490,2.625,428,351,347,391,409,2025-05-28T14:08:43.538353
133,-0.2679,0.0473,0.9814,-5.845,1.855,4.585,410,381,353,404,363,2025-05-28T14:08:43.538353
134,-0.2508,0.0634,0.9867,-4.305,6.020,8.190,398,418,361,398,342,2025-05-28T14:08:43.538460
135,-0.2372,0.0756,0.9809,-2.100,10.395,9.135,426,424,362,409,367,2025-05-28T14:08:43.706664
136,-0.2430,0.0654,0.9848,-0.035,18.970,8.575,434,413,361,389,382,2025-05-28T14:08:43.706664
137,-0.2699,0.0307,1.0619,1.470,26.285,7.385,354,395,362,344,347,2025-05-28T14:08:43.706664
138,-0.3518,-0.0386,1.1756,-0.070,29.785,6.125,386,427,361,396,349,2025-05-28T14:08:43.706664
139,-0.4377,-0.0942,1.2293,-3.605,28.420,6.720,407,423,330,403,373,2025-05-28T14:08:43.706664
140,-0.5075,-0.1542,1.2190,-5.180,23.310,8.925,400,391,356,424,341,2025-05-28T14:08:43.706664
141,-0.4236,-0.2455,1.2044,-1.330,38.780,8.890,417,429,355,400,393,2025-05-28T14:08:43.706664
142,-0.5065,-0.3704,0.9365,-2.765,64.855,22.120,348,353,368,413,392,2025-05-28T14:08:43.706664
143,-0.7354,-0.4929,0.9897,17.885,70.455,39.200,391,410,368,377,401,2025-05-28T14:08:43.706664
144,-0.8164,-0.4250,1.1610,44.555,64.960,56.210,341,403,368,409,412,2025-05-28T14:08:43.706664
145,-0.8125,-0.2826,1.2268,55.125,69.580,64.680,388,382,361,416,357,2025-05-28T14:08:43.706664
146,-0.7857,-0.1864,1.2000,59.640,74.130,70.805,415,416,382,405,367,2025-05-28T14:08:43.706664
147,-0.7598,-0.1235,1.1390,70.070,72.310,76.790,420,360,374,409,337,2025-05-28T14:08:43.706664
148,-0.7510,-0.0634,1.0912,78.295,69.720,81.060,344,387,375,349,378,2025-05-28T14:08:43.706664
149,-0.7286,-0.0146,1.0438,84.140,68.915,86.835,386,396,339,372,349,2025-05-28T14:08:43.706664
150,-0.6964,0.0078,1.0053,91.770,64.400,93.135,424,421,351,386,388,2025-05-28T14:08:43.706664
151,-0.6486,0.0522,0.9726,96.565,65.520,100.765,421,417,364,391,392,2025-05-28T14:08:43.788869
152,-0.6178,0.1078,0.9658,98.700,70.105,108.325,361,423,367,407,398,2025-05-28T14:08:43.788869
153,-0.5388,0.1791,0.9443,99.015,75.040,115.115,403,410,328,362,383,2025-05-28T14:08:43.788869
154,-0.4743,0.2406,0.8750,97.440,87.605,120.925,397,414,349,398,403,2025-05-28T14:08:43.788869
155,-0.4597,0.2948,0.8125,95.340,105.980,124.040,393,394,374,399,414,2025-05-28T14:08:43.788869
156,-0.4338,0.3343,0.7788,91.245,119.875,131.285,425,349,373,404,397,2025-05-28T14:08:43.788869
157,-0.4455,0.3894,0.7359,86.520,134.015,134.330,433,397,334,346,387,2025-05-28T14:08:43.788869
158,-0.4748,0.4094,0.6822,84.140,143.010,136.080,401,395,345,330,392,2025-05-28T14:08:43.883623
159,-0.4792,0.4602,0.6534,79.485,146.055,137.200,395,402,359,377,385,2025-05-28T14:08:43.883623
160,-0.4875,0.5080,0.6124,74.690,146.440,138.145,400,427,361,391,404,2025-05-28T14:08:43.883623
161,-0.5109,0.5187,0.5573,67.970,139.895,136.850,430,416,369,389,407,2025-05-28T14:08:43.883623
162,-0.5441,0.5339,0.5261,62.895,122.150,134.855,424,430,384,409,411,2025-05-28T14:08:43.883623
163,-0.5388,0.5456,0.5070,57.435,99.155,130.200,416,370,383,412,408,2025-05-28T14:08:44.007174
164,-0.5305,0.5656,0.5012,50.260,75.565,125.825,423,398,387,399,383,2025-05-28T14:08:44.007174
165,-0.4851,0.5700,0.4782,44.170,53.795,120.715,423,397,339,379,387,2025-05-28T14:08:44.007174
166,-0.4412,0.5934,0.4504,39.270,36.260,114.870,397,406,354,407,383,2025-05-28T14:08:44.007174
167,-0.3811,0.6037,0.4514,35.000,24.990,108.045,402,407,323,391,392,2025-05-28T14:08:44.007174
168,-0.3279,0.6183,0.4558,30.555,18.445,101.675,411,388,356,399,380,2025-05-28T14:08:44.007174
169,-0.2855,0.6373,0.4597,26.740,16.625,95.200,405,406,330,413,402,2025-05-28T14:08:44.007174
170,-0.2786,0.6461,0.4587,22.295,17.150,88.585,304,399,346,403,378,2025-05-28T14:08:44.007174
171,-0.2606,0.6490,0.4431,19.285,17.430,79.765,404,397,319,383,380,2025-05-28T14:08:44.007174
172,-0.2347,0.6471,0.4382,18.095,18.725,72.590,399,429,358,410,360,2025-05-28T14:08:44.007174
173,-0.2191,0.6637,0.4216,17.500,23.170,66.535,423,440,361,412,392,2025-05-28T14:08:44.007174
174,-0.2089,0.6852,0.4558,16.520,29.155,59.500,408,439,370,412,412,2025-05-28T14:08:44.007174
175,-0.2352,0.6949,0.4709,15.785,33.075,53.095,403,433,334,417,404,2025-05-28T14:08:44.007174
176,-0.2499,0.6993,0.4817,14.280,34.510,48.405,421,408,349,412,359,2025-05-28T14:08:44.139811
177,-0.3060,0.6949,0.4924,13.895,33.775,42.560,421,426,362,417,388,2025-05-28T14:08:44.139811
178,-0.3304,0.6983,0.6232,13.230,29.190,37.520,406,438,366,371,394,2025-05-28T14:08:44.139811
179,-0.3528,0.7164,0.5207,12.215,23.975,32.795,425,431,367,392,349,2025-05-28T14:08:44.139811
180,-0.3616,0.7203,0.5226,11.480,18.620,29.190,427,401,376,396,337,2025-05-28T14:08:44.139811
181,-0.3748,0.7320,0.5363,11.375,13.755,25.375,416,435,377,387,377,2025-05-28T14:08:44.139811
182,-0.3855,0.7247,0.5246,11.060,7.140,22.645,419,429,371,408,345,2025-05-28T14:08:44.139811
183,-0.4011,0.7340,0.5383,10.850,-0.210,19.775,403,398,373,404,339,2025-05-28T14:08:44.139811
184,-0.4060,0.7413,0.5446,10.710,-7.875,17.150,404,406,383,406,384,2025-05-28T14:08:44.139811
185,-0.3943,0.7354,0.5353,9.625,-12.600,14.280,401,392,343,390,404,2025-05-28T14:08:44.423423
186,-0.3831,0.7330,0.5358,8.540,-13.090,10.815,427,399,363,390,386,2025-05-28T14:08:44.423423
187,-0.3626,0.7403,0.5324,7.315,-10.605,8.820,365,387,353,403,406,2025-05-28T14:08:44.423423
188,-0.3475,0.7408,0.5319,6.055,-6.055,7.455,419,416,372,383,392,2025-05-28T14:08:44.423423
189,-0.3655,0.7340,0.5256,4.795,0.210,6.685,401,415,379,385,402,2025-05-28T14:08:44.423423
190,-0.3875,0.7349,0.5207,4.620,5.005,6.090,394,430,387,382,398,2025-05-28T14:08:44.423423
191,-0.4080,0.7466,0.5280,5.040,8.365,5.530,413,422,370,342,363,2025-05-28T14:08:44.423423
192,-0.4314,0.7515,0.5348,4.655,10.675,4.795,425,412,382,379,384,2025-05-28T14:08:44.423423
193,-0.4543,0.7540,0.5363,4.095,10.535,4.375,419,410,385,340,397,2025-05-28T14:08:44.423423
194,-0.4685,0.7569,0.5241,3.885,8.820,4.305,418,304,341,362,352,2025-05-28T14:08:44.423423
195,-0.4753,0.7593,0.5202,4.620,6.790,4.375,424,362,362,405,394,2025-05-28T14:08:44.423423
196,-0.4778,0.7657,0.5173,4.060,5.565,4.095,402,418,361,396,358,2025-05-28T14:08:44.423423
197,-0.4865,0.7691,0.5173,4.095,4.235,4.585,374,409,366,369,373,2025-05-28T14:08:44.423423
198,-0.4831,0.7696,0.5158,3.640,2.485,5.145,421,421,364,396,382,2025-05-28T14:08:44.423423
199,-0.4924,0.7671,0.5148,3.150,1.330,5.565,429,413,374,402,393,2025-05-28T14:08:44.423423
200,-0.4865,0.7671,0.5153,2.100,0.910,5.705,420,401,333,401,399,2025-05-28T14:08:44.423423
201,-0.4753,0.7647,0.5041,1.715,0.665,6.475,420,408,360,371,401,2025-05-28T14:08:44.574531
202,-0.4738,0.7647,0.4963,2.030,-0.455,8.120,399,426,362,399,409,2025-05-28T14:08:44.574531
203,-0.4778,0.7647,0.4963,3.045,-3.150,9.170,420,401,365,390,388,2025-05-28T14:08:44.574531
204,-0.4851,0.7701,0.5017,4.060,-6.965,9.660,401,396,329,386,381,2025-05-28T14:08:44.574531
205,-0.4895,0.7774,0.5026,3.780,-11.585,8.890,418,419,349,402,383,2025-05-28T14:08:44.574531
206,-0.4602,0.7769,0.4968,3.360,-14.630,8.505,395,426,324,370,401,2025-05-28T14:08:44.574531
207,-0.4402,0.7793,0.4924,2.870,-15.575,8.330,415,395,347,404,396,2025-05-28T14:08:44.574531
208,-0.4290,0.7793,0.4885,1.890,-14.350,7.805,355,401,319,400,347,2025-05-28T14:08:44.574531
209,-0.4216,0.7803,0.4753,1.435,-13.020,7.875,415,404,314,403,373,2025-05-28T14:08:44.574531
210,-0.4143,0.7793,0.4753,1.015,-11.760,7.840,422,430,348,396,360,2025-05-28T14:08:44.574531
211,-0.4060,0.7808,0.4724,0.630,-9.625,8.015,400,426,367,403,393,2025-05-28T14:08:44.574531
212,-0.3992,0.7701,0.4636,0.490,-8.575,8.680,420,389,371,410,393,2025-05-28T14:08:44.574531
213,-0.4094,0.7647,0.4656,1.120,-8.295,8.610,412,376,331,408,385,2025-05-28T14:08:44.574531
214,-0.4124,0.7652,0.4782,1.505,-8.855,8.225,415,408,324,359,381,2025-05-28T14:08:44.574531
215,-0.4158,0.7706,0.4865,1.295,-10.745,7.070,405,420,320,366,409,2025-05-28T14:08:44.574531
216,-0.4089,0.7730,0.4904,0.910,-12.845,5.180,422,400,356,387,399,2025-05-28T14:08:44.574531
217,-0.3977,0.7657,0.4875,0.315,-13.685,2.765,415,410,292,343,397,2025-05-28T14:08:44.574531
218,-0.3802,0.7666,0.4773,0.350,-14.000,1.575,410,404,305,382,410,2025-05-28T14:08:44.574531
219,-0.3709,0.7579,0.4714,1.225,-13.615,0.770,407,417,339,409,410,2025-05-28T14:08:44.622515
220,-0.3621,0.7608,0.4729,2.065,-11.655,-0.140,410,384,328,391,391,2025-05-28T14:08:44.622515
221,-0.3606,0.7608,0.4753,3.115,-9.205,-1.015,417,417,341,403,385,2025-05-28T14:08:44.622515
222,-0.3577,0.7637,0.4792,3.955,-6.965,-1.470,417,426,356,355,375,2025-05-28T14:08:44.622515
223,-0.3626,0.7652,0.4782,4.130,-4.865,-2.380,403,414,367,396,404,2025-05-28T14:08:44.622515
224,-0.3728,0.7598,0.4782,3.990,-4.200,-3.395,358,429,377,393,347,2025-05-28T14:08:44.622515
225,-0.3802,0.7623,0.4763,4.095,-4.830,-3.885,409,432,342,400,335,2025-05-28T14:08:44.622515
226,-0.3684,0.7715,0.4836,4.445,-6.020,-4.480,428,367,364,368,284,2025-05-28T14:08:44.622515
227,-0.3743,0.7740,0.4846,3.815,-6.370,-4.970,419,336,378,295,362,2025-05-28T14:08:44.622515
228,-0.3748,0.7701,0.4724,3.430,-7.035,-4.970,421,389,383,354,395,2025-05-28T14:08:44.723189
229,-0.3728,0.7696,0.4621,4.200,-7.700,-4.235,402,424,375,404,402,2025-05-28T14:08:44.723189
230,-0.3645,0.7759,0.4670,4.585,-7.140,-3.080,425,430,376,413,389,2025-05-28T14:08:44.723189
231,-0.3601,0.7857,0.4753,4.340,-4.655,-2.415,392,425,380,396,405,2025-05-28T14:08:44.723189
232,-0.3650,0.7847,0.4743,3.500,-1.400,-1.820,417,404,387,403,410,2025-05-28T14:08:44.723189
233,-0.3806,0.7862,0.4763,2.940,0.910,-1.435,400,374,389,402,396,2025-05-28T14:08:44.723189
234,-0.3953,0.7823,0.4753,2.485,1.435,-1.225,403,424,389,388,351,2025-05-28T14:08:44.790198
235,-0.4041,0.7818,0.4738,2.310,0.525,-1.085,419,404,375,398,352,2025-05-28T14:08:44.790198
236,-0.4216,0.7842,0.4817,1.960,-1.225,-1.015,399,392,341,387,383,2025-05-28T14:08:44.790198
237,-0.4241,0.7832,0.4773,1.260,-3.500,-0.665,417,418,367,387,387,2025-05-28T14:08:44.790198
238,-0.4226,0.7769,0.4763,1.120,-5.075,-0.105,426,430,378,364,342,2025-05-28T14:08:44.790198
239,-0.4202,0.7745,0.4778,0.840,-5.565,0.315,427,392,339,389,366,2025-05-28T14:08:44.790198
240,-0.4158,0.7759,0.4797,0.875,-4.970,0.735,406,418,332,362,378,2025-05-28T14:08:44.790198
241,-0.4060,0.7764,0.4851,0.560,-2.905,1.225,420,376,360,382,379,2025-05-28T14:08:44.790198
242,-0.4153,0.7852,0.4846,0.385,-0.595,1.820,429,407,366,363,387,2025-05-28T14:08:45.057666
243,-0.4255,0.7876,0.4865,1.050,0.910,2.275,403,392,370,397,400,2025-05-28T14:08:45.057666
244,-0.4329,0.7818,0.4895,2.100,2.065,2.835,404,433,365,406,404,2025-05-28T14:08:45.057666
245,-0.4441,0.7788,0.4929,3.290,2.415,3.535,377,440,298,417,393,2025-05-28T14:08:45.057666
246,-0.4494,0.7862,0.5022,4.410,2.240,4.480,393,418,351,417,399,2025-05-28T14:08:45.057666
247,-0.4509,0.7906,0.5031,5.425,2.100,5.705,386,408,334,403,399,2025-05-28T14:08:45.057666
248,-0.4460,0.7930,0.5070,6.475,2.485,6.860,415,391,350,413,402,2025-05-28T14:08:45.057666
249,-0.4455,0.7950,0.5085,7.840,3.290,8.050,429,397,368,375,384,2025-05-28T14:08:45.057666
250,-0.4451,0.8003,0.5168,8.820,4.865,9.520,396,400,366,404,402,2025-05-28T14:08:45.057666
251,-0.4426,0.8130,0.5275,9.240,6.930,11.340,376,398,366,410,367,2025-05-28T14:08:45.057666
252,-0.4412,0.8208,0.5305,10.150,9.065,13.370,386,428,346,370,400,2025-05-28T14:08:45.057666
253,-0.4514,0.8262,0.5378,11.235,11.830,15.540,421,348,354,389,385,2025-05-28T14:08:45.057666
254,-0.4568,0.8369,0.5475,12.425,13.300,17.640,416,390,375,410,347,2025-05-28T14:08:45.057666
255,-0.4695,0.8447,0.5412,14.105,13.265,20.930,395,411,364,397,325,2025-05-28T14:08:45.057666
256,-0.4763,0.8594,0.5461,16.065,12.215,24.150,420,420,374,362,360,2025-05-28T14:08:45.057666
257,-0.4704,0.8779,0.5505,17.710,11.060,27.405,424,425,381,410,380,2025-05-28T14:08:45.057666
258,-0.4651,0.8764,0.5324,19.425,9.905,31.220,406,427,382,416,387,2025-05-28T14:08:45.057666
259,-0.4592,0.8794,0.5163,21.455,8.155,33.985,402,433,366,419,394,2025-05-28T14:08:45.057666
260,-0.4358,0.8735,0.4939,23.240,7.350,36.575,400,429,375,392,387,2025-05-28T14:08:45.057666
261,-0.4104,0.8628,0.4782,24.255,7.490,38.430,389,430,386,412,399,2025-05-28T14:08:45.058716
262,-0.3958,0.8472,0.4485,23.520,7.210,39.200,423,418,388,422,371,2025-05-28T14:08:45.058716
263,-0.3680,0.8276,0.4109,22.750,5.635,39.200,424,363,379,405,385,2025-05-28T14:08:45.256800
264,-0.3489,0.7969,0.3733,21.035,4.655,38.605,396,412,372,357,391,2025-05-28T14:08:45.256800
265,-0.3240,0.7764,0.3489,19.320,3.080,37.100,342,352,380,398,410,2025-05-28T14:08:45.256800
266,-0.2967,0.7579,0.3211,16.940,1.435,34.545,391,396,383,403,409,2025-05-28T14:08:45.256800
267,-0.2699,0.7554,0.3157,14.385,0.350,30.730,386,425,366,415,385,2025-05-28T14:08:45.256800
268,-0.2518,0.7374,0.2904,12.460,-0.945,25.690,402,424,361,392,401,2025-05-28T14:08:45.256800
269,-0.2499,0.7178,0.2762,10.185,-1.785,19.565,416,372,375,400,392,2025-05-28T14:08:45.256800
270,-0.2362,0.7232,0.2796,8.085,-1.925,13.125,392,426,371,386,384,2025-05-28T14:08:45.256800
271,-0.2240,0.7266,0.2826,4.795,-0.385,7.980,424,435,376,395,378,2025-05-28T14:08:45.256800
272,-0.2308,0.7237,0.2782,2.905,2.835,2.345,425,415,379,405,380,2025-05-28T14:08:45.256800
273,-0.2445,0.7300,0.2796,2.310,5.180,-2.170,382,397,375,409,395,2025-05-28T14:08:45.256800
274,-0.2821,0.7593,0.3133,1.750,7.350,-6.720,411,414,305,396,406,2025-05-28T14:08:45.256800
275,-0.3104,0.7832,0.3455,-0.175,7.490,-10.255,426,403,300,401,409,2025-05-28T14:08:45.256800
276,-0.3406,0.8032,0.3582,-1.715,5.530,-13.685,415,411,346,359,398,2025-05-28T14:08:45.256800
277,-0.3655,0.8223,0.3684,-1.785,2.205,-16.030,417,418,336,378,357,2025-05-28T14:08:45.256800
278,-0.3899,0.8486,0.3914,-1.260,-1.925,-17.185,404,368,368,403,390,2025-05-28T14:08:45.256800
279,-0.3953,0.8862,0.4319,-0.665,-4.865,-17.185,412,420,346,353,386,2025-05-28T14:08:45.339746
280,-0.3987,0.9111,0.4490,-0.665,-7.595,-15.820,408,424,359,402,365,2025-05-28T14:08:45.339746
281,-0.3997,0.9209,0.4538,-0.420,-9.030,-14.105,403,421,360,389,390,2025-05-28T14:08:45.339746
282,-0.4002,0.9350,0.4626,0.770,-9.170,-11.060,391,406,373,404,389,2025-05-28T14:08:45.339746
283,-0.4055,0.9472,0.4787,1.260,-8.260,-7.700,393,390,373,389,340,2025-05-28T14:08:45.339746
284,-0.4143,0.9462,0.4802,1.050,-7.630,-3.955,343,400,364,405,386,2025-05-28T14:08:45.339746
285,-0.4104,0.9487,0.4826,0.875,-7.385,0.000,410,345,363,388,407,2025-05-28T14:08:45.339746
286,-0.4216,0.9399,0.4743,0.035,-7.070,3.010,398,374,337,340,371,2025-05-28T14:08:45.339746
287,-0.4221,0.9311,0.4729,-0.455,-7.560,6.440,383,397,366,332,402,2025-05-28T14:08:45.339746
288,-0.4138,0.9135,0.4534,-1.155,-10.010,9.625,429,405,367,325,381,2025-05-28T14:08:45.439995
289,-0.4065,0.8940,0.4353,-1.190,-12.810,12.215,423,420,376,392,405,2025-05-28T14:08:45.439995
290,-0.3875,0.8862,0.4197,-0.735,-15.155,13.545,402,404,367,389,350,2025-05-28T14:08:45.439995
291,-0.3889,0.8779,0.4109,0.315,-20.685,12.740,380,369,362,405,381,2025-05-28T14:08:45.455611
292,-0.3489,0.8852,0.4138,2.135,-28.385,10.535,404,416,341,419,389,2025-05-28T14:08:45.456049
293,-0.2450,0.9404,0.4519,3.010,-38.010,6.790,428,398,368,404,346,2025-05-28T14:08:45.456049
294,-0.0732,1.0492,0.4904,-0.035,-43.645,0.980,404,404,338,406,370,2025-05-28T14:08:45.456049
295,0.1342,1.1980,0.5046,-10.535,-44.940,-7.700,381,389,334,410,400,2025-05-28T14:08:45.456683
296,0.2894,1.3649,0.5295,-24.675,-45.430,-15.890,421,421,355,348,369,2025-05-28T14:08:45.456683
297,0.5056,1.5328,0.5656,-44.415,-49.280,-27.125,397,424,370,398,389,2025-05-28T14:08:45.573423
298,0.6120,1.7104,0.5534,-62.650,-61.285,-39.410,342,427,371,402,393,2025-05-28T14:08:45.573423
299,0.6827,1.8481,0.5236,-79.030,-87.255,-51.765,389,428,365,413,387,2025-05-28T14:08:45.588997
300,0.6881,1.9457,0.5075,-91.350,-119.805,-65.415,340,389,378,374,383,2025-05-28T14:08:45.588997
301,0.6246,1.9827,0.4621,-105.140,-156.590,-81.270,386,405,381,388,363,2025-05-28T14:08:45.588997
302,0.6593,2.0540,0.4402,-121.555,-184.275,-101.290,389,392,348,382,337,2025-05-28T14:08:45.589338
303,0.6764,2.0764,0.3992,-146.615,-199.395,-127.680,413,403,354,343,363,2025-05-28T14:08:45.589338
304,0.6466,1.8930,0.3172,-164.290,-205.520,-144.445,401,400,369,393,375,2025-05-28T14:08:45.589575
305,0.5602,1.8890,0.1825,-180.285,-212.415,-166.985,342,395,371,403,397,2025-05-28T14:08:45.773597
306,0.3792,1.5787,-0.0547,-179.060,-228.200,-182.105,384,409,378,418,387,2025-05-28T14:08:45.773597
307,0.1064,1.4225,0.0669,-182.945,-247.800,-203.490,401,426,369,389,392,2025-05-28T14:08:45.773597
308,-0.0722,1.2371,0.2289,-197.750,-267.505,-234.745,414,441,371,384,387,2025-05-28T14:08:45.773597
309,-0.2440,0.9423,0.3128,-223.020,-283.010,-263.515,398,401,373,404,386,2025-05-28T14:08:45.773597
310,-0.2064,0.4255,0.2176,-251.090,-294.560,-280.980,430,415,365,402,344,2025-05-28T14:08:45.773597
311,-0.2089,-0.1410,0.0420,-277.165,-290.710,-291.550,366,427,366,404,386,2025-05-28T14:08:45.773597
312,-0.0010,-0.8960,0.0015,-290.745,-271.075,-287.455,410,419,364,404,403,2025-05-28T14:08:45.773597
313,0.1820,-1.3971,0.2630,-301.980,-216.755,-289.695,413,435,360,354,401,2025-05-28T14:08:45.773597
314,0.0420,-2.2331,0.5671,-320.530,-131.250,-305.340,419,413,353,400,410,2025-05-28T14:08:45.773597
315,-0.1230,-2.8001,0.7813,-326.305,-55.965,-307.545,400,383,363,387,393,2025-05-28T14:08:45.773597
316,-0.7271,-3.2774,1.0004,-279.720,-18.200,-281.190,343,372,332,397,403,2025-05-28T14:08:45.773597
317,-1.4986,-3.4048,0.8994,-199.150,-59.080,-177.415,407,419,363,401,395,2025-05-28T14:08:45.773597
318,-1.6260,-3.0344,1.0819,-85.575,-156.520,-34.440,423,343,367,401,343,2025-05-28T14:08:45.773597
319,-0.9731,-2.8402,1.1956,24.535,-220.500,109.060,422,389,375,412,387,2025-05-28T14:08:45.773597
320,-0.2430,-2.8255,0.9858,125.230,-197.715,195.090,415,421,366,409,379,2025-05-28T14:08:45.773597
321,0.3899,-2.6230,1.0682,206.675,-84.665,236.845,391,434,378,413,397,2025-05-28T14:08:45.773597
322,0.5168,-2.2824,1.0233,251.895,47.495,244.475,395,396,353,409,400,2025-05-28T14:08:45.773597
323,0.4841,-1.9491,0.9555,270.620,134.190,253.575,415,421,365,383,402,2025-05-28T14:08:45.956578
324,0.2991,-1.5806,0.9160,278.355,188.475,253.400,426,401,355,337,383,2025-05-28T14:08:45.956578
325,0.1620,-1.2122,0.9033,281.225,218.855,242.130,421,400,373,326,384,2025-05-28T14:08:45.956578
326,0.0322,-0.7632,0.8203,278.670,241.570,234.885,431,405,366,344,353,2025-05-28T14:08:45.956578
327,-0.1230,-0.3640,0.7764,272.790,239.015,226.240,423,421,361,377,387,2025-05-28T14:08:45.956578
328,-0.1820,-0.0200,0.6715,264.635,224.420,213.430,422,428,340,401,379,2025-05-28T14:08:45.956578
329,-0.1674,0.3816,0.6544,251.160,191.660,201.845,407,404,358,398,361,2025-05-28T14:08:45.956578
330,-0.1069,0.7017,0.6124,235.025,149.100,191.205,391,403,355,389,332,2025-05-28T14:08:45.956578
331,0.0381,0.9335,0.5348,219.800,105.700,178.535,413,411,361,385,367,2025-05-28T14:08:45.956578
332,0.2255,1.1112,0.4207,204.960,71.260,155.960,395,411,369,400,349,2025-05-28T14:08:45.956578
333,0.4607,1.2263,0.3709,192.150,50.575,134.085,408,419,370,409,364,2025-05-28T14:08:45.956578
334,0.5773,1.3161,0.3182,186.830,36.155,113.925,404,379,332,352,343,2025-05-28T14:08:45.956578
335,0.6827,1.3274,0.2557,181.230,30.975,91.385,391,336,357,396,351,2025-05-28T14:08:45.956578
336,0.7344,1.3903,0.2006,175.000,35.175,67.025,392,291,363,389,384,2025-05-28T14:08:45.956578
337,0.7623,1.4079,0.1552,166.530,42.420,51.835,368,406,375,414,347,2025-05-28T14:08:45.956578
338,0.6895,1.4674,0.0996,155.645,48.510,40.775,383,339,373,413,385,2025-05-28T14:08:46.256522
339,0.6539,1.5026,0.0922,141.015,52.570,30.870,402,413,368,356,398,2025-05-28T14:08:46.256522
340,0.6266,1.5162,0.0795,122.745,62.125,22.995,389,403,359,382,368,2025-05-28T14:08:46.256522
341,0.5344,1.4625,0.0576,98.665,71.925,17.115,421,419,374,366,401,2025-05-28T14:08:46.256522
342,0.3772,1.3854,0.0605,91.805,70.245,10.150,426,411,380,392,406,2025-05-28T14:08:46.256522
343,0.1386,1.3113,0.1157,78.120,58.450,0.770,428,399,372,302,412,2025-05-28T14:08:46.256522
344,0.1903,1.2649,0.2045,65.135,38.150,-5.705,377,428,329,380,415,2025-05-28T14:08:46.256522
345,0.1405,1.2244,0.2513,53.200,19.040,-12.530,392,436,333,395,398,2025-05-28T14:08:46.256522
346,0.1064,1.1702,0.2664,44.450,5.005,-17.255,398,431,344,346,403,2025-05-28T14:08:46.256522
347,0.0815,1.1414,0.3167,39.655,-2.870,-20.405,410,438,358,402,360,2025-05-28T14:08:46.256522
348,0.0678,1.1170,0.3558,34.755,-2.625,-22.540,398,433,374,350,374,2025-05-28T14:08:46.256522
349,0.0488,1.1019,0.3582,31.115,2.975,-21.980,393,399,385,378,397,2025-05-28T14:08:46.256522
350,0.0293,1.0790,0.3811,28.910,12.460,-20.545,336,410,391,397,397,2025-05-28T14:08:46.256522
351,-0.0229,1.0721,0.3782,26.285,25.305,-17.325,400,426,391,387,398,2025-05-28T14:08:46.412607
352,-0.0678,1.0585,0.3680,24.290,36.645,-13.545,432,419,386,409,409,2025-05-28T14:08:46.412607
353,-0.1386,1.0458,0.3636,21.385,43.785,-9.730,408,426,375,405,400,2025-05-28T14:08:46.412607
354,-0.1859,1.0419,0.3675,18.375,47.495,-6.265,345,403,371,409,399,2025-05-28T14:08:46.412607
355,-0.2747,1.0414,0.3787,13.860,47.285,-4.515,405,411,358,372,346,2025-05-28T14:08:46.412607
356,-0.3372,1.0311,0.3709,9.170,39.270,-2.660,387,395,325,377,380,2025-05-28T14:08:46.425528
357,-0.3880,1.0146,0.3758,4.690,25.550,-1.295,420,398,351,383,396,2025-05-28T14:08:46.425528
358,-0.3792,0.9941,0.3699,1.190,13.055,0.945,379,413,362,412,363,2025-05-28T14:08:46.425528
359,-0.3518,0.9745,0.3543,-2.940,6.195,3.570,423,346,326,406,397,2025-05-28T14:08:46.425528
360,-0.3406,0.9555,0.3553,-5.845,1.750,5.145,400,420,349,392,386,2025-05-28T14:08:46.425528
361,-0.2962,0.9482,0.3689,-8.505,1.890,7.385,423,398,359,383,396,2025-05-28T14:08:46.425528
362,-0.2733,0.9331,0.3782,-10.570,5.635,9.345,362,380,373,400,370,2025-05-28T14:08:46.425528
363,-0.2518,0.9160,0.3738,-11.585,12.320,11.620,382,395,369,389,389,2025-05-28T14:08:46.425528
364,-0.2508,0.9067,0.3836,-12.005,18.025,13.335,413,400,372,394,399,2025-05-28T14:08:46.425528
365,-0.2518,0.8882,0.3914,-12.040,24.465,14.420,411,420,368,367,395,2025-05-28T14:08:46.425528
366,-0.2655,0.8760,0.3987,-11.060,27.090,15.190,417,392,344,367,381,2025-05-28T14:08:46.425528
367,-0.3118,0.8579,0.4163,-9.170,23.765,15.085,414,413,371,391,397,2025-05-28T14:08:46.425528
368,-0.3187,0.8481,0.4216,-7.105,14.980,14.630,396,352,376,365,404,2025-05-28T14:08:46.425528
369,-0.2879,0.8418,0.4294,-5.425,5.110,14.140,417,411,372,395,390,2025-05-28T14:08:46.425528
370,-0.2528,0.8433,0.4148,-3.780,1.050,13.685,417,421,367,385,380,2025-05-28T14:08:46.425528
371,-0.2196,0.8413,0.4060,-2.205,0.945,12.915,352,423,370,411,396,2025-05-28T14:08:46.425528
372,-0.1762,0.8472,0.4080,-0.980,5.775,11.725,354,419,359,413,387,2025-05-28T14:08:46.425528
373,-0.1503,0.8545,0.4080,-0.735,13.125,10.675,405,407,366,415,389,2025-05-28T14:08:46.425528
374,-0.1469,0.8501,0.3953,-0.700,21.035,9.625,385,409,363,403,401,2025-05-28T14:08:46.425528
375,-0.1654,0.8462,0.3787,-0.105,25.410,8.925,401,404,332,401,388,2025-05-28T14:08:46.425528
376,-0.1918,0.8530,0.3884,0.770,27.370,8.365,418,399,355,420,382,2025-05-28T14:08:46.425528
377,-0.2206,0.8608,0.3914,1.225,26.250,6.720,405,397,361,413,397,2025-05-28T14:08:46.573878
378,-0.2635,0.8618,0.3972,2.170,20.650,5.040,393,422,338,398,410,2025-05-28T14:08:46.573878
379,-0.2957,0.8789,0.4148,2.765,12.180,2.870,427,430,320,363,352,2025-05-28T14:08:46.573878
380,-0.2806,0.8857,0.4202,3.010,3.535,1.085,379,411,306,373,390,2025-05-28T14:08:46.573878
381,-0.2664,0.8891,0.4099,2.940,-1.085,0.210,343,426,354,398,365,2025-05-28T14:08:46.573878
382,-0.2445,0.8872,0.3924,2.975,-3.745,0.455,385,355,358,415,402,2025-05-28T14:08:46.573878
383,-0.2323,0.8926,0.3884,3.220,-3.570,0.735,392,348,377,416,366,2025-05-28T14:08:46.573878
384,-0.2255,0.8955,0.3943,2.730,-2.100,-0.105,410,416,303,343,388,2025-05-28T14:08:46.573878
385,-0.2211,0.8999,0.3914,1.960,-1.050,-0.455,427,418,344,394,351,2025-05-28T14:08:46.573878
386,-0.2211,0.8906,0.3909,1.365,0.490,-0.140,427,403,357,395,377,2025-05-28T14:08:46.573878
387,-0.2279,0.8877,0.3894,0.875,1.855,0.070,417,395,356,351,373,2025-05-28T14:08:46.573878
388,-0.2303,0.8818,0.3826,0.595,2.730,0.630,399,388,326,404,349,2025-05-28T14:08:46.573878
389,-0.2445,0.8774,0.3889,0.560,2.450,0.910,417,393,353,387,381,2025-05-28T14:08:46.573878
390,-0.2445,0.8838,0.3963,0.245,1.120,1.400,406,376,364,387,339,2025-05-28T14:08:46.573878
391,-0.2420,0.8862,0.3992,-0.175,-0.560,1.645,387,387,361,396,369,2025-05-28T14:08:46.773419
392,-0.2386,0.8960,0.3933,-0.805,-1.330,1.435,414,407,374,374,395,2025-05-28T14:08:46.773419
393,-0.2294,0.8969,0.3850,-1.505,-2.170,1.260,419,431,374,393,391,2025-05-28T14:08:46.773419
394,-0.2118,0.8955,0.3758,-1.855,-2.240,1.470,423,392,301,399,384,2025-05-28T14:08:46.773419
395,-0.2059,0.8945,0.3753,-2.275,-1.295,1.820,411,412,305,407,373,2025-05-28T14:08:46.773419
396,-0.2040,0.8965,0.3889,-2.485,0.595,1.960,400,429,352,353,367,2025-05-28T14:08:46.773419
397,-0.2113,0.8940,0.3928,-2.765,2.065,2.100,413,392,323,393,376,2025-05-28T14:08:46.773419
398,-0.2196,0.8930,0.4011,-2.730,2.345,1.715,422,412,281,381,387,2025-05-28T14:08:46.773419
399,-0.2211,0.8930,0.4109,-2.555,1.470,1.435,392,433,338,408,359,2025-05-28T14:08:46.773419
400,-0.2220,0.8965,0.4080,-2.520,0.385,1.505,412,435,345,407,332,2025-05-28T14:08:46.773419
401,-0.2298,0.8882,0.3938,-2.275,-1.470,0.770,397,430,355,347,367,2025-05-28T14:08:46.773419
402,-0.2264,0.8935,0.3953,-1.680,-3.395,-0.070,345,403,358,379,382,2025-05-28T14:08:46.773419
403,-0.2201,0.8935,0.3948,-1.400,-4.410,-0.455,335,387,369,404,361,2025-05-28T14:08:46.773419
404,-0.2142,0.8935,0.3884,-1.435,-4.270,-1.155,399,416,364,390,379,2025-05-28T14:08:46.773419
405,-0.2025,0.8926,0.3841,-1.400,-4.060,-1.225,389,402,382,404,353,2025-05-28T14:08:46.773419
406,-0.2040,0.8862,0.3845,-1.120,-3.185,-1.085,398,411,382,401,381,2025-05-28T14:08:46.773419
407,-0.2064,0.8877,0.3899,-0.735,-2.310,-0.980,423,406,378,395,392,2025-05-28T14:08:46.773419
408,-0.2094,0.8877,0.3948,-0.490,-1.365,-0.945,362,409,379,402,408,2025-05-28T14:08:47.081255
409,-0.2191,0.8901,0.3977,-0.140,0.105,-0.560,393,419,379,388,409,2025-05-28T14:08:47.081255
410,-0.2259,0.8916,0.3943,0.210,1.225,0.175,422,365,371,389,385,2025-05-28T14:08:47.081255
411,-0.2342,0.8930,0.3914,0.245,1.995,0.000,417,414,378,393,383,2025-05-28T14:08:47.081255
412,-0.2396,0.8965,0.3909,0.420,1.610,-0.210,419,431,379,388,402,2025-05-28T14:08:47.081255
413,-0.2464,0.8965,0.3865,0.350,0.350,0.070,399,349,377,385,397,2025-05-28T14:08:47.081255
414,-0.2469,0.8960,0.3860,0.245,-0.945,0.140,393,390,373,388,407,2025-05-28T14:08:47.081255
415,-0.2469,0.8911,0.3826,-0.140,-1.750,0.315,383,418,382,408,369,2025-05-28T14:08:47.081255
416,-0.2479,0.8843,0.3797,0.105,-2.415,0.875,419,396,374,353,384,2025-05-28T14:08:47.089050
417,-0.2499,0.8882,0.3884,0.245,-2.870,1.400,372,393,363,375,374,2025-05-28T14:08:47.089186
418,-0.2450,0.8823,0.3919,-0.420,-2.625,1.225,391,416,339,402,359,2025-05-28T14:08:47.089300
419,-0.2386,0.8833,0.3919,-0.910,-2.450,1.155,412,352,363,411,374,2025-05-28T14:08:47.089300
420,-0.2406,0.8838,0.3914,-1.260,-2.240,1.190,343,413,362,401,389,2025-05-28T14:08:47.089688
421,-0.2362,0.8818,0.3909,-1.225,-2.100,1.330,396,404,367,413,399,2025-05-28T14:08:47.089968
422,-0.2372,0.8838,0.3958,-1.365,-1.645,1.015,387,409,379,394,390,2025-05-28T14:08:47.090048
423,-0.2464,0.8808,0.3977,-1.120,-1.610,0.770,412,349,368,364,400,2025-05-28T14:08:47.090119
424,-0.2518,0.8794,0.3977,-0.630,-2.940,0.945,301,378,380,404,354,2025-05-28T14:08:47.090119
425,-0.2518,0.8774,0.3963,0.035,-4.690,1.470,369,416,347,405,393,2025-05-28T14:08:47.239378
426,-0.2455,0.8804,0.4026,0.770,-5.705,1.400,406,424,356,400,401,2025-05-28T14:08:47.239378
427,-0.2391,0.8862,0.4114,0.910,-5.705,1.400,416,423,352,397,399,2025-05-28T14:08:47.239378
428,-0.2294,0.8872,0.4065,0.665,-5.005,1.120,344,416,321,406,375,2025-05-28T14:08:47.239378
429,-0.2269,0.8911,0.4050,0.560,-4.060,1.015,384,437,354,351,370,2025-05-28T14:08:47.239378
430,-0.2216,0.8877,0.3938,0.560,-3.080,1.365,406,422,360,389,386,2025-05-28T14:08:47.239378
431,-0.2225,0.8877,0.3914,0.560,-2.065,1.680,401,430,363,385,391,2025-05-28T14:08:47.239378
432,-0.2196,0.8930,0.3938,0.315,-1.050,1.750,386,430,376,400,400,2025-05-28T14:08:47.239378
433,-0.2289,0.8906,0.3948,0.560,-0.910,1.645,407,401,372,410,402,2025-05-28T14:08:47.239378
434,-0.2220,0.8969,0.4006,0.630,-1.225,1.680,415,397,377,417,391,2025-05-28T14:08:47.239378
435,-0.2313,0.8930,0.3953,0.560,-1.330,1.085,392,417,378,399,386,2025-05-28T14:08:47.239378
436,-0.2318,0.8965,0.3948,0.385,-1.610,0.525,345,405,336,405,400,2025-05-28T14:08:47.239378
437,-0.2313,0.8911,0.3904,0.525,-1.995,-0.175,412,302,359,404,390,2025-05-28T14:08:47.239378
438,-0.2255,0.8960,0.3889,0.280,-2.870,-0.840,418,407,364,403,394,2025-05-28T14:08:47.239378
439,-0.2289,0.8911,0.3831,0.280,-4.725,-0.490,417,402,378,373,403,2025-05-28T14:08:47.239378
440,-0.2318,0.8906,0.3831,0.490,-6.160,-0.210,397,424,335,392,410,2025-05-28T14:08:47.239378
441,-0.2240,0.8935,0.3772,0.350,-7.000,-0.420,360,425,355,403,407,2025-05-28T14:08:47.239378
442,-0.2181,0.8921,0.3767,-0.035,-6.545,-0.350,398,357,375,403,353,2025-05-28T14:08:47.239378
443,-0.2186,0.8901,0.3826,-0.385,-5.425,-1.190,403,416,377,394,334,2025-05-28T14:08:47.239378
444,-0.2054,0.8901,0.3782,-1.295,-4.480,-1.190,414,419,338,412,375,2025-05-28T14:08:47.239378
445,-0.2069,0.8867,0.3699,-2.240,-2.870,-1.260,418,404,355,388,380,2025-05-28T14:08:47.239378
446,-0.2191,0.8774,0.3709,-2.660,-2.275,-1.855,424,423,360,393,389,2025-05-28T14:08:47.488718
447,-0.2123,0.8764,0.3753,-3.080,-2.975,-2.660,405,411,359,382,393,2025-05-28T14:08:47.489575
448,-0.2152,0.8730,0.3836,-3.570,-4.165,-3.955,402,384,377,396,363,2025-05-28T14:08:47.489575
449,-0.2064,0.8745,0.3855,-4.305,-5.320,-6.195,416,389,382,416,390,2025-05-28T14:08:47.489575
450,-0.1918,0.8784,0.3826,-5.635,-7.035,-8.085,426,421,370,373,383,2025-05-28T14:08:47.489575
451,-0.1620,0.8877,0.3782,-8.260,-8.155,-10.640,399,389,330,405,384,2025-05-28T14:08:47.490011
452,-0.1244,0.9174,0.3748,-12.250,-8.960,-14.385,411,407,355,406,399,2025-05-28T14:08:47.490011
453,-0.0708,0.9882,0.3894,-17.990,-9.835,-19.355,414,412,367,416,368,2025-05-28T14:08:47.490011
454,-0.0181,1.0638,0.4055,-28.875,-13.755,-25.060,420,374,368,415,400,2025-05-28T14:08:47.490011
455,0.0298,1.1917,0.4592,-42.805,-23.695,-31.955,344,296,327,404,387,2025-05-28T14:08:47.490011
456,0.0434,1.3581,0.4856,-58.205,-49.350,-39.620,395,402,350,402,387,2025-05-28T14:08:47.490011
457,0.1503,1.5099,0.5148,-78.540,-92.715,-51.135,417,409,370,416,402,2025-05-28T14:08:47.490011
458,0.2982,1.7553,0.5207,-101.010,-148.015,-61.915,342,418,366,356,387,2025-05-28T14:08:47.490011
459,0.5368,1.9896,0.4338,-124.775,-201.740,-69.720,411,415,372,382,387,2025-05-28T14:08:47.590136
460,0.6959,2.1472,0.3138,-140.140,-241.360,-75.635,426,418,366,364,400,2025-05-28T14:08:47.590136
461,0.7857,2.2531,0.2611,-156.835,-262.500,-78.155,430,400,381,385,400,2025-05-28T14:08:47.590136
462,0.7286,2.2624,0.2313,-169.645,-273.210,-73.990,426,435,382,391,385,2025-05-28T14:08:47.590136
463,0.6163,2.2399,0.1674,-181.230,-280.805,-72.695,402,431,379,414,361,2025-05-28T14:08:47.590136
464,0.5031,2.0125,0.0649,-190.610,-287.945,-69.125,407,405,364,415,387,2025-05-28T14:08:47.590136
465,0.3797,2.0720,0.0527,-198.870,-289.135,-70.070,402,429,361,399,396,2025-05-28T14:08:47.590136
466,0.3816,2.0413,0.0439,-209.545,-272.265,-75.180,385,422,372,407,396,2025-05-28T14:08:47.590136
467,0.3196,1.9037,-0.0932,-222.985,-243.600,-78.855,375,406,369,346,346,2025-05-28T14:08:47.590136
468,0.2255,1.6968,-0.1889,-234.115,-211.330,-86.555,414,367,361,395,377,2025-05-28T14:08:47.590136
469,0.0620,1.4806,-0.1903,-251.895,-176.085,-102.865,414,433,372,399,393,2025-05-28T14:08:47.590136
470,-0.1781,1.1385,-0.1757,-276.605,-167.510,-120.925,422,412,335,415,389,2025-05-28T14:08:47.590136
471,-0.4138,0.6603,-0.2333,-304.185,-185.255,-139.370,411,414,315,403,340,2025-05-28T14:08:47.590136
472,-0.3841,0.1903,-0.1283,-328.650,-226.030,-155.785,429,411,350,414,382,2025-05-28T14:08:47.590136
473,-0.2494,-0.4104,0.0098,-357.665,-247.100,-188.475,434,405,366,380,402,2025-05-28T14:08:47.590136
474,0.1288,-1.1268,0.0142,-390.495,-237.055,-212.835,402,425,372,406,416,2025-05-28T14:08:47.590136
475,0.5880,-2.0857,-0.0839,-417.760,-194.635,-218.750,421,431,364,415,385,2025-05-28T14:08:47.706289
476,0.7662,-3.4126,0.2767,-423.290,-112.770,-229.005,425,427,374,368,392,2025-05-28T14:08:47.706289
477,0.4465,-4.3656,0.9618,-402.920,-36.015,-224.245,408,425,369,398,345,2025-05-28T14:08:47.706289
478,-0.4192,-4.2768,1.4337,-312.480,-18.515,-184.100,432,432,328,394,340,2025-05-28T14:08:47.706289
479,-0.6993,-3.8367,0.9516,-153.300,-52.885,-77.910,419,413,341,409,329,2025-05-28T14:08:47.706289
480,-0.1952,-3.5024,0.7100,23.310,-130.830,74.655,394,380,364,362,281,2025-05-28T14:08:47.706289
481,0.6002,-3.0768,0.8808,168.980,-97.125,176.120,402,418,365,373,359,2025-05-28T14:08:47.706289
482,1.0204,-2.9202,1.2015,253.540,29.050,235.060,389,416,371,399,390,2025-05-28T14:08:47.706289
483,0.8564,-2.7504,1.1790,295.610,153.580,262.220,396,402,388,369,383,2025-05-28T14:08:47.706289
484,0.5314,-2.5596,0.9335,319.935,195.125,275.730,388,391,377,402,406,2025-05-28T14:08:48.023545
485,0.3538,-2.1833,0.7706,333.865,193.270,260.680,426,426,382,394,354,2025-05-28T14:08:48.023545
486,0.2821,-1.6763,0.6983,340.795,208.180,233.170,399,397,375,381,374,2025-05-28T14:08:48.023545
487,0.3587,-1.0268,0.5480,332.955,222.320,213.290,405,404,342,385,393,2025-05-28T14:08:48.023545
488,0.5724,-0.3880,0.4675,321.265,232.750,194.600,405,422,370,396,366,2025-05-28T14:08:48.023545
489,0.7022,0.1850,0.5085,299.495,249.445,173.775,404,414,379,389,335,2025-05-28T14:08:48.023545
490,0.5466,0.5168,0.5719,274.785,270.550,160.825,408,364,369,388,383,2025-05-28T14:08:48.023545
491,0.3587,0.7027,0.4890,257.530,274.820,147.140,411,413,364,412,387,2025-05-28T14:08:48.023545
492,0.2352,0.7974,0.2704,257.215,252.420,139.965,397,422,327,408,405,2025-05-28T14:08:48.023545
493,0.0205,0.9941,0.2338,260.155,233.730,123.200,421,397,350,418,390,2025-05-28T14:08:48.023545
494,0.0200,1.2693,0.2147,251.545,226.205,108.570,414,424,327,403,402,2025-05-28T14:08:48.023545
495,0.1069,1.5421,0.2679,226.205,202.615,101.290,391,429,355,391,388,2025-05-28T14:08:48.023545
496,0.1820,1.5797,0.1771,201.215,174.895,98.175,352,413,365,413,381,2025-05-28T14:08:48.023545
497,0.0595,1.6260,0.1566,170.520,136.990,89.110,396,387,365,405,395,2025-05-28T14:08:48.023545
498,0.0542,1.5797,0.1269,144.830,100.065,80.360,396,399,361,410,405,2025-05-28T14:08:48.023545
499,0.0737,1.5514,0.1488,124.250,50.785,74.305,393,417,375,346,407,2025-05-28T14:08:48.023545
500,0.2616,1.4904,0.1752,106.820,17.220,65.240,393,399,381,365,410,2025-05-28T14:08:48.023545
501,0.4158,1.4240,0.2011,94.570,4.760,54.985,349,421,376,366,417,2025-05-28T14:08:48.155453
502,0.5266,1.4479,0.2518,87.990,9.450,47.075,408,409,364,359,397,2025-05-28T14:08:48.155453
503,0.5924,1.3923,0.2655,79.625,19.110,40.845,397,396,373,333,400,2025-05-28T14:08:48.155453
504,0.5661,1.3459,0.2948,71.785,31.255,27.615,356,393,368,369,349,2025-05-28T14:08:48.189338
505,0.5241,1.2888,0.3411,65.450,36.120,32.655,395,387,371,391,366,2025-05-28T14:08:48.189338
506,0.4480,1.2346,0.3601,61.215,39.690,30.240,417,415,333,397,393,2025-05-28T14:08:48.189338
507,0.3333,1.1771,0.3636,58.065,34.930,27.265,397,345,358,425,383,2025-05-28T14:08:48.189338
508,0.2494,1.1444,0.3841,57.505,22.260,22.190,418,403,363,414,394,2025-05-28T14:08:48.189338
509,0.1991,1.1029,0.4050,55.650,12.180,14.910,357,405,357,395,394,2025-05-28T14:08:48.189338
510,0.2216,1.0673,0.4119,51.975,4.130,8.435,395,342,339,378,349,2025-05-28T14:08:48.189338
511,0.2347,1.0394,0.4104,48.475,3.500,3.325,412,417,365,395,389,2025-05-28T14:08:48.189338
512,0.2460,1.0150,0.4075,43.645,13.125,-2.625,402,419,375,399,405,2025-05-28T14:08:48.189338
513,0.1781,1.0063,0.4128,39.620,25.585,-8.365,414,420,343,403,410,2025-05-28T14:08:48.189338
514,0.0649,0.9775,0.3924,35.140,31.185,-12.600,421,414,359,387,394,2025-05-28T14:08:48.189338
515,-0.0278,0.9511,0.3841,31.605,28.665,-16.275,383,415,375,390,395,2025-05-28T14:08:48.189338
516,-0.1288,0.9496,0.3748,27.755,19.495,-18.900,396,303,381,404,387,2025-05-28T14:08:48.189338
517,-0.1786,0.9550,0.3880,24.150,7.770,-21.420,409,410,377,404,386,2025-05-28T14:08:48.189338
518,-0.1786,0.9731,0.4041,19.495,-0.840,-23.100,401,426,374,388,406,2025-05-28T14:08:48.189338
519,-0.1371,0.9897,0.4021,15.995,-0.070,-23.660,414,433,380,395,350,2025-05-28T14:08:48.189338
520,-0.1215,0.9780,0.3826,12.600,6.440,-22.085,389,350,381,400,399,2025-05-28T14:08:48.189338
521,-0.1410,0.9740,0.3733,9.695,18.270,-21.105,394,364,392,390,411,2025-05-28T14:08:48.189338
522,-0.1859,0.9726,0.3650,7.105,27.195,-19.005,393,392,387,405,410,2025-05-28T14:08:48.189338
523,-0.2489,0.9638,0.3753,5.215,29.260,-15.680,370,405,388,409,397,2025-05-28T14:08:48.189338
524,-0.3026,0.9521,0.3816,3.710,25.725,-12.390,393,401,368,399,393,2025-05-28T14:08:48.189338
525,-0.3367,0.9540,0.4236,2.975,21.105,-11.165,405,419,364,411,411,2025-05-28T14:08:48.506803
526,-0.3504,0.9418,0.4153,2.345,13.825,-8.540,342,433,364,379,348,2025-05-28T14:08:48.506803
527,-0.3450,0.9379,0.4104,2.835,5.075,-5.600,348,420,368,388,396,2025-05-28T14:08:48.506803
528,-0.3353,0.9365,0.4094,3.325,-0.945,-3.465,401,398,377,412,350,2025-05-28T14:08:48.506803
529,-0.3099,0.9374,0.4041,3.150,-3.745,-0.875,413,342,381,395,390,2025-05-28T14:08:48.506803
530,-0.2547,0.9340,0.3777,3.290,-3.150,2.695,421,402,341,394,345,2025-05-28T14:08:48.506803
531,-0.2386,0.9218,0.3709,3.675,0.805,6.020,397,420,362,413,370,2025-05-28T14:08:48.506803
532,-0.2381,0.9209,0.3767,4.025,6.125,7.630,381,413,375,416,301,2025-05-28T14:08:48.506803
533,-0.2445,0.9204,0.3870,4.550,8.225,8.470,388,412,380,403,356,2025-05-28T14:08:48.506803
534,-0.2582,0.9174,0.3889,4.550,6.650,9.240,420,403,383,398,376,2025-05-28T14:08:48.506803
535,-0.2557,0.9145,0.3816,4.340,3.710,9.170,353,420,349,404,401,2025-05-28T14:08:48.506803
536,-0.2269,0.9091,0.3719,3.920,2.730,9.030,393,417,358,401,387,2025-05-28T14:08:48.506803
537,-0.2113,0.9077,0.3626,2.940,3.920,9.275,412,430,339,340,398,2025-05-28T14:08:48.506803
538,-0.2035,0.9004,0.3601,1.750,7.630,8.225,406,403,362,351,400,2025-05-28T14:08:48.506803
539,-0.2045,0.9033,0.3631,0.665,9.625,8.855,381,407,369,394,378,2025-05-28T14:08:48.506803
540,-0.2274,0.9023,0.3655,-0.105,9.590,9.030,417,424,371,400,388,2025-05-28T14:08:48.506803
541,-0.2406,0.8950,0.3670,-1.015,8.225,8.225,424,430,381,390,307,2025-05-28T14:08:48.506803
542,-0.2284,0.9033,0.3743,-1.820,6.440,7.980,408,430,368,392,360,2025-05-28T14:08:48.506803
543,-0.2269,0.8969,0.3860,-2.940,5.355,7.350,414,365,370,398,380,2025-05-28T14:08:48.506803
544,-0.2220,0.8999,0.4041,-3.290,3.325,7.070,413,418,386,350,399,2025-05-28T14:08:48.672899
545,-0.2103,0.9023,0.4148,-3.815,1.155,6.090,412,408,384,395,382,2025-05-28T14:08:48.672899
546,-0.2211,0.8930,0.4070,-4.410,0.245,4.480,427,406,391,388,394,2025-05-28T14:08:48.672899
547,-0.2089,0.8916,0.4104,-4.200,-1.435,3.850,413,403,343,401,384,2025-05-28T14:08:48.672899
548,-0.1893,0.8911,0.4094,-3.675,-1.645,4.200,410,354,354,346,385,2025-05-28T14:08:48.672899
549,-0.1845,0.8867,0.4216,-3.675,1.085,3.745,425,382,362,378,401,2025-05-28T14:08:48.672899
550,-0.1923,0.8818,0.4158,-3.080,3.570,3.780,425,418,377,391,407,2025-05-28T14:08:48.672899
551,-0.2020,0.8779,0.4143,-1.925,5.530,4.410,402,409,377,388,407,2025-05-28T14:08:48.672899
552,-0.2094,0.8843,0.4275,-1.190,6.930,5.425,389,418,385,381,395,2025-05-28T14:08:48.672899
553,-0.2269,0.8896,0.4324,-1.330,7.560,5.110,397,396,334,396,392,2025-05-28T14:08:48.672899
554,-0.2372,0.8867,0.4241,-1.645,5.705,5.495,371,419,363,415,410,2025-05-28T14:08:48.672899
555,-0.2411,0.8843,0.4026,-1.610,3.150,5.425,407,406,363,350,392,2025-05-28T14:08:48.672899
556,-0.2362,0.8857,0.3972,-1.330,-0.105,4.900,404,377,374,394,404,2025-05-28T14:08:48.672899
557,-0.2216,0.8823,0.4011,-1.505,-2.415,4.375,404,423,379,391,386,2025-05-28T14:08:48.672899
558,-0.1991,0.8852,0.4006,-1.925,-3.290,3.255,395,405,363,406,399,2025-05-28T14:08:48.672899
559,-0.1864,0.8769,0.4016,-2.485,-3.325,2.485,415,404,380,407,387,2025-05-28T14:08:48.672899
560,-0.1874,0.8818,0.3992,-2.730,-3.290,1.785,404,419,366,408,345,2025-05-28T14:08:48.672899
561,-0.1825,0.8750,0.3933,-2.870,-3.605,1.015,389,425,362,407,379,2025-05-28T14:08:48.672899
562,-0.1825,0.8755,0.3938,-2.800,-3.500,0.980,410,408,366,392,349,2025-05-28T14:08:48.672899
563,-0.1810,0.8794,0.3914,-3.010,-2.590,0.875,401,408,349,407,366,2025-05-28T14:08:48.672899
564,-0.1781,0.8818,0.3845,-2.485,-0.455,1.120,299,418,328,412,403,2025-05-28T14:08:48.672899
565,-0.1771,0.8877,0.3841,-2.135,2.275,1.470,399,401,363,408,404,2025-05-28T14:08:48.823872
566,-0.1923,0.8886,0.3894,-1.505,4.375,1.715,395,390,380,376,351,2025-05-28T14:08:48.823872
567,-0.1937,0.8935,0.4016,-1.050,5.390,2.205,388,350,375,395,370,2025-05-28T14:08:48.823872
568,-0.2015,0.8877,0.3894,-0.665,5.705,2.555,395,386,348,403,336,2025-05-28T14:08:48.823872
569,-0.2050,0.8867,0.3855,0.280,5.285,2.765,390,342,337,404,344,2025-05-28T14:08:48.823872
570,-0.2137,0.8906,0.3909,1.225,3.780,2.870,346,368,359,394,329,2025-05-28T14:08:48.823872
571,-0.2191,0.8852,0.3841,1.540,2.310,2.240,335,411,365,378,380,2025-05-28T14:08:48.823872
572,-0.2074,0.8911,0.3928,1.890,1.155,1.995,330,358,378,386,300,2025-05-28T14:08:48.823872
573,-0.2089,0.8921,0.3943,1.610,1.155,1.505,371,386,382,403,355,2025-05-28T14:08:48.823872
574,-0.2103,0.8882,0.3831,1.365,1.190,1.015,334,393,342,349,382,2025-05-28T14:08:48.823872
575,-0.2128,0.8857,0.3933,1.575,0.210,1.085,409,343,355,401,387,2025-05-28T14:08:48.823872
576,-0.2201,0.8838,0.4011,1.575,-0.350,0.630,422,418,376,409,384,2025-05-28T14:08:48.823872
577,-0.2089,0.8867,0.4172,1.435,-0.140,0.595,405,346,385,385,402,2025-05-28T14:08:48.823872
578,-0.2089,0.8847,0.4172,1.295,-0.105,0.140,423,398,387,387,393,2025-05-28T14:08:48.823872
579,-0.2128,0.8862,0.4202,1.400,-0.210,-0.525,416,382,369,394,391,2025-05-28T14:08:49.024411
580,-0.2162,0.8857,0.4231,1.505,-1.050,-0.630,411,407,378,408,415,2025-05-28T14:08:49.024411
581,-0.2118,0.8891,0.4148,1.260,-1.890,-1.085,421,341,374,411,402,2025-05-28T14:08:49.024411
582,-0.2045,0.8862,0.4119,1.085,-1.680,-1.330,428,383,372,415,402,2025-05-28T14:08:49.024411
583,-0.1996,0.8916,0.4041,0.875,-0.945,-1.785,441,416,379,414,389,2025-05-28T14:08:49.024411
584,-0.2035,0.8896,0.3987,0.805,-0.210,-1.960,425,426,375,391,383,2025-05-28T14:08:49.024411
585,-0.2133,0.8877,0.4002,0.700,0.175,-2.415,408,396,388,410,405,2025-05-28T14:08:49.024411
586,-0.2259,0.8872,0.4021,0.735,-0.420,-3.465,424,407,382,417,385,2025-05-28T14:08:49.024411
587,-0.2303,0.8906,0.4060,0.700,-1.785,-4.305,432,405,367,400,388,2025-05-28T14:08:49.024411
588,-0.2430,0.8867,0.3972,0.455,-3.640,-4.970,407,404,327,408,391,2025-05-28T14:08:49.024411
589,-0.2406,0.8852,0.3884,0.595,-5.390,-5.390,407,402,358,397,397,2025-05-28T14:08:49.024411
590,-0.2342,0.8872,0.3943,0.770,-5.950,-5.565,430,407,360,388,368,2025-05-28T14:08:49.024411
591,-0.2240,0.8950,0.3909,0.070,-4.655,-5.005,419,404,376,395,394,2025-05-28T14:08:49.024411
592,-0.2308,0.8911,0.3802,-0.280,-3.150,-4.445,371,399,379,389,366,2025-05-28T14:08:49.024411
593,-0.2401,0.8911,0.3782,-0.245,-2.695,-3.325,406,385,376,403,394,2025-05-28T14:08:49.024411
594,-0.2435,0.8940,0.3816,-0.315,-2.345,-2.905,423,389,376,419,389,2025-05-28T14:08:49.024411
595,-0.2328,0.8965,0.3870,-0.385,-2.625,-2.345,407,413,373,352,386,2025-05-28T14:08:49.377197
596,-0.2308,0.8960,0.3821,-0.665,-2.345,-1.750,399,403,362,396,396,2025-05-28T14:08:49.377197
597,-0.2274,0.8930,0.3855,-0.700,-1.820,-1.645,414,425,372,405,379,2025-05-28T14:08:49.377197
598,-0.2255,0.8926,0.3904,-0.490,-2.310,-0.980,425,434,370,412,346,2025-05-28T14:08:49.377197
599,-0.2269,0.8921,0.3948,-0.455,-3.010,-0.560,418,417,360,422,395,2025-05-28T14:08:49.377197
600,-0.2264,0.8886,0.4011,-0.210,-3.885,-0.665,409,417,326,429,403,2025-05-28T14:08:49.377197
601,-0.2225,0.8916,0.4050,0.140,-5.460,-0.700,414,419,337,416,407,2025-05-28T14:08:49.377197
602,-0.2230,0.8896,0.4104,0.770,-6.895,-0.910,433,431,361,423,392,2025-05-28T14:08:49.377197
603,-0.2064,0.8857,0.4109,1.645,-8.190,-1.365,427,411,359,407,384,2025-05-28T14:08:49.377197
604,-0.1957,0.8901,0.4070,2.170,-7.980,-1.295,397,410,361,410,402,2025-05-28T14:08:49.377197
605,-0.1908,0.8847,0.4021,2.870,-6.440,-1.330,404,437,363,417,384,2025-05-28T14:08:49.377197
606,-0.1879,0.8891,0.4016,3.325,-4.550,-1.015,400,432,340,352,395,2025-05-28T14:08:49.377197
607,-0.2001,0.8916,0.3938,3.430,-2.730,-1.190,401,416,324,399,403,2025-05-28T14:08:49.377197
608,-0.2108,0.8979,0.3899,3.010,-1.120,-1.575,391,399,354,354,373,2025-05-28T14:08:49.377197
609,-0.2264,0.8994,0.3821,2.485,-0.980,-1.750,413,417,371,330,349,2025-05-28T14:08:49.377197
610,-0.2396,0.8969,0.3816,1.750,-2.380,-1.890,342,398,378,391,383,2025-05-28T14:08:49.377197
611,-0.2460,0.9008,0.3753,1.365,-4.865,-1.925,383,401,375,414,388,2025-05-28T14:08:49.377197
612,-0.2538,0.8989,0.3723,1.120,-7.070,-2.170,393,418,367,412,343,2025-05-28T14:08:49.489535
613,-0.2357,0.8979,0.3762,0.840,-9.065,-1.890,413,399,332,404,382,2025-05-28T14:08:49.489535
614,-0.2274,0.9043,0.3758,0.385,-9.065,-1.995,304,415,361,396,347,2025-05-28T14:08:49.489535
615,-0.2186,0.9033,0.3733,0.245,-7.945,-1.645,322,433,355,401,372,2025-05-28T14:08:49.489535
616,-0.2084,0.9028,0.3733,-0.140,-6.650,-0.910,403,438,373,412,355,2025-05-28T14:08:49.489535
617,-0.2040,0.9038,0.3719,-0.560,-3.780,-0.315,404,383,370,369,327,2025-05-28T14:08:49.489535
618,-0.2225,0.9013,0.3762,-0.945,-1.120,-0.175,391,397,364,388,367,2025-05-28T14:08:49.489535
619,-0.2362,0.9033,0.3792,-1.015,-0.875,-0.280,408,378,368,410,394,2025-05-28T14:08:49.489535
620,-0.2440,0.8989,0.3821,-1.225,-3.115,-0.315,378,415,358,374,403,2025-05-28T14:08:49.489535
621,-0.2440,0.9008,0.3806,-1.295,-5.215,-0.280,422,350,365,409,406,2025-05-28T14:08:49.489535
622,-0.2396,0.9013,0.3904,-1.505,-6.930,-0.420,404,377,371,409,403,2025-05-28T14:08:49.489535
623,-0.2352,0.8994,0.3899,-1.960,-7.665,-0.385,406,406,375,397,408,2025-05-28T14:08:49.489535
624,-0.2313,0.8989,0.3963,-2.065,-8.120,-0.350,429,399,380,368,402,2025-05-28T14:08:49.489535
625,-0.2225,0.9013,0.4026,-1.820,-8.155,0.035,418,369,384,407,405,2025-05-28T14:08:49.489535
626,-0.2118,0.9013,0.4026,-2.100,-6.720,0.420,415,392,355,406,407,2025-05-28T14:08:49.489535
627,-0.2025,0.8994,0.4055,-2.240,-4.375,0.910,393,396,374,375,395,2025-05-28T14:08:49.489535
628,-0.2089,0.8974,0.4080,-2.135,-2.275,1.470,416,408,346,399,384,2025-05-28T14:08:49.489535
629,-0.2240,0.8955,0.4089,-2.240,-1.575,1.295,380,399,366,412,405,2025-05-28T14:08:49.489535
630,-0.2294,0.8911,0.4055,-2.345,-2.520,1.260,406,399,375,393,400,2025-05-28T14:08:49.489535
631,-0.2328,0.8877,0.3982,-2.240,-4.690,1.120,365,417,368,344,404,2025-05-28T14:08:49.489535
632,-0.2289,0.8886,0.4036,-2.135,-6.755,0.595,364,391,367,383,397,2025-05-28T14:08:49.489535
633,-0.2255,0.8935,0.4050,-1.960,-8.715,-0.105,400,400,361,400,307,2025-05-28T14:08:49.838415
634,-0.2167,0.8916,0.4089,-1.750,-10.150,-0.805,339,416,358,396,373,2025-05-28T14:08:49.838415
635,-0.2020,0.8926,0.4094,-1.785,-10.290,-1.575,382,359,353,389,389,2025-05-28T14:08:49.838415
636,-0.1898,0.8930,0.4016,-1.855,-9.240,-1.680,396,394,327,409,347,2025-05-28T14:08:49.838415
637,-0.1903,0.8916,0.3977,-1.960,-7.385,-1.855,394,405,347,388,387,2025-05-28T14:08:49.838415
638,-0.1986,0.8906,0.3938,-2.135,-5.565,-2.205,407,413,320,401,382,2025-05-28T14:08:49.838415
639,-0.2172,0.8886,0.3924,-2.030,-4.830,-1.890,434,427,354,412,402,2025-05-28T14:08:49.838415
640,-0.2298,0.8886,0.3997,-2.170,-4.900,-1.925,419,420,330,403,410,2025-05-28T14:08:49.838415
641,-0.2352,0.8901,0.4031,-2.275,-6.020,-1.960,395,425,358,421,409,2025-05-28T14:08:49.838415
642,-0.2401,0.8901,0.4011,-2.800,-7.525,-2.100,342,352,332,408,403,2025-05-28T14:08:49.838415
643,-0.2381,0.8872,0.3982,-3.080,-8.715,-2.345,401,387,341,417,406,2025-05-28T14:08:49.838415
644,-0.2240,0.8882,0.3953,-3.325,-8.855,-2.345,345,392,353,398,397,2025-05-28T14:08:49.838415
645,-0.2240,0.8857,0.3967,-3.710,-8.260,-2.240,384,430,365,394,396,2025-05-28T14:08:49.838415
646,-0.2240,0.8833,0.3938,-3.710,-7.910,-2.065,417,422,346,344,346,2025-05-28T14:08:49.838415
647,-0.2216,0.8794,0.4006,-3.360,-8.155,-1.225,415,398,354,396,353,2025-05-28T14:08:49.838415
648,-0.2235,0.8847,0.4070,-3.080,-7.665,-0.805,411,400,335,394,391,2025-05-28T14:08:49.838415
649,-0.2250,0.8843,0.4177,-2.800,-6.790,-1.050,397,423,349,403,399,2025-05-28T14:08:49.838415
650,-0.2279,0.8799,0.4177,-2.695,-6.720,-1.190,388,407,353,411,387,2025-05-28T14:08:49.838415
651,-0.2240,0.8789,0.4080,-2.205,-7.280,-0.980,409,395,355,396,360,2025-05-28T14:08:50.030045
652,-0.2152,0.8804,0.4080,-1.855,-7.070,-0.840,416,404,322,407,395,2025-05-28T14:08:50.030045
653,-0.2137,0.8789,0.4016,-1.855,-5.985,-0.490,344,402,355,404,404,2025-05-28T14:08:50.030045
654,-0.2108,0.8852,0.4065,-1.645,-5.180,-0.420,394,430,373,405,392,2025-05-28T14:08:50.030045
655,-0.2220,0.8818,0.4197,-1.645,-5.250,-0.665,389,438,366,350,393,2025-05-28T14:08:50.030045
656,-0.2250,0.8784,0.4216,-1.365,-6.685,-0.630,401,402,327,390,386,2025-05-28T14:08:50.030045
657,-0.2264,0.8755,0.4246,-0.945,-8.785,-0.875,345,387,356,389,396,2025-05-28T14:08:50.030045
658,-0.2094,0.8755,0.4255,-0.490,-9.870,-1.470,348,422,374,398,364,2025-05-28T14:08:50.030045
659,-0.2015,0.8760,0.4333,0.245,-10.255,-2.170,408,408,375,407,389,2025-05-28T14:08:50.031044
660,-0.1952,0.8740,0.4426,1.120,-10.710,-3.185,418,405,370,354,346,2025-05-28T14:08:50.031044
661,-0.1874,0.8764,0.4524,1.890,-11.200,-4.410,350,420,326,345,377,2025-05-28T14:08:50.031044
662,-0.1923,0.8740,0.4680,2.800,-12.425,-7.280,414,416,315,384,380,2025-05-28T14:08:50.031044
663,-0.1976,0.8696,0.4738,3.535,-15.540,-11.760,421,413,349,383,394,2025-05-28T14:08:50.031044
664,-0.1932,0.8618,0.4885,3.360,-21.350,-19.635,398,429,364,349,380,2025-05-28T14:08:50.031044
665,-0.1776,0.8491,0.4997,2.590,-28.805,-29.715,427,424,369,387,401,2025-05-28T14:08:50.031044
666,-0.1606,0.8613,0.5100,1.470,-43.750,-39.725,406,357,373,410,412,2025-05-28T14:08:50.031044
667,-0.1303,0.9394,0.4963,-1.435,-66.150,-55.405,305,409,378,408,416,2025-05-28T14:08:50.031044
668,-0.0781,1.0824,0.4748,-6.895,-97.020,-72.870,407,398,388,401,385,2025-05-28T14:08:50.031044
669,0.0820,1.3435,0.4016,-16.555,-129.570,-88.795,341,400,344,414,361,2025-05-28T14:08:50.031044
670,0.3026,1.6924,0.3196,-29.995,-156.695,-100.205,399,408,373,408,343,2025-05-28T14:08:50.031545
671,0.5270,2.1521,0.2660,-52.920,-172.515,-101.290,416,425,375,406,388,2025-05-28T14:08:50.031545
672,0.8394,2.5010,0.1469,-79.345,-185.955,-88.725,426,420,371,394,401,2025-05-28T14:08:50.031545
673,0.8511,2.7323,-0.0425,-105.385,-187.775,-74.515,393,426,347,406,402,2025-05-28T14:08:50.031545
674,0.9448,2.8577,-0.2381,-125.090,-180.740,-55.195,426,433,365,416,393,2025-05-28T14:08:50.031545
675,0.9140,2.9900,-0.3933,-138.810,-156.800,-34.790,420,418,336,407,393,2025-05-28T14:08:50.189364
676,0.8028,2.9797,-0.6705,-150.920,-134.995,-17.710,414,403,356,364,355,2025-05-28T14:08:50.189364
677,0.6163,2.9651,-0.7657,-164.430,-128.030,-11.725,406,420,357,376,375,2025-05-28T14:08:50.189364
678,0.4475,2.9300,-0.9052,-182.840,-136.675,-23.520,419,398,363,379,383,2025-05-28T14:08:50.189364
679,0.4080,2.7840,-0.9457,-214.480,-149.520,-56.035,403,409,370,388,344,2025-05-28T14:08:50.189364
680,0.2035,2.3971,-0.9755,-248.115,-174.405,-105.700,373,436,345,400,348,2025-05-28T14:08:50.189364
681,0.0483,1.8080,-0.9843,-299.250,-232.435,-164.290,388,444,357,408,328,2025-05-28T14:08:50.189364
682,0.0693,1.1087,-1.0072,-358.575,-282.660,-220.185,421,406,366,408,379,2025-05-28T14:08:50.189364
683,0.1200,0.1274,-1.0375,-418.110,-351.750,-248.255,409,386,333,396,386,2025-05-28T14:08:50.189364
684,0.2406,-0.7930,-0.8130,-471.345,-391.650,-269.045,429,403,355,385,385,2025-05-28T14:08:50.189364
685,0.5056,-2.4649,-0.0917,-522.900,-381.675,-285.075,422,424,335,381,401,2025-05-28T14:08:50.189364
686,0.3148,-5.0752,1.3684,-532.420,-309.015,-290.955,428,421,356,393,409,2025-05-28T14:08:50.189364
687,-0.0791,-6.2908,2.0750,-463.400,-216.020,-273.665,417,436,377,390,405,2025-05-28T14:08:50.189364
688,-0.6290,-6.4699,1.8393,-314.230,-168.980,-143.115,431,402,384,384,364,2025-05-28T14:08:50.189364
689,0.2762,-6.2371,0.6803,-63.910,-159.180,58.310,388,367,372,343,367,2025-05-28T14:08:50.189364
690,1.5333,-5.0083,0.4392,213.360,-95.445,213.885,415,413,373,383,390,2025-05-28T14:08:50.189364
691,2.1980,-3.2881,0.9223,349.195,72.135,256.235,364,409,380,347,401,2025-05-28T14:08:50.189364
692,1.5650,-2.3605,1.4708,341.775,378.070,218.575,411,393,379,377,350,2025-05-28T14:08:50.456494
693,0.7359,-1.7373,0.9809,292.285,480.480,248.220,419,398,384,386,377,2025-05-28T14:08:50.457494
694,0.1342,-1.5318,0.3636,261.450,393.855,250.145,394,410,343,380,401,2025-05-28T14:08:50.457494
695,-0.0429,-1.1244,0.3489,253.050,282.800,227.570,337,416,334,397,407,2025-05-28T14:08:50.457494
696,-0.1591,-0.5578,0.5617,234.290,232.995,201.005,404,404,361,403,399,2025-05-28T14:08:50.457494
697,-0.1225,-0.1464,0.6105,217.035,223.160,184.170,399,400,338,399,407,2025-05-28T14:08:50.457494
698,-0.1615,0.0678,0.4631,211.295,203.070,163.450,344,390,356,306,364,2025-05-28T14:08:50.457494
699,-0.2440,0.3582,0.4431,208.880,182.070,135.310,356,398,373,372,400,2025-05-28T14:08:50.457494
700,-0.1620,0.5368,0.4441,199.080,175.700,123.060,413,397,373,378,399,2025-05-28T14:08:50.457494
701,-0.1859,0.7881,0.4412,192.325,186.060,110.565,423,428,370,405,401,2025-05-28T14:08:50.457494
702,-0.2128,0.8813,0.3548,183.680,196.805,85.015,409,423,376,413,410,2025-05-28T14:08:50.457494
703,-0.2103,0.9584,0.2923,174.965,196.105,71.925,403,404,337,394,391,2025-05-28T14:08:50.457494
704,-0.3187,1.0887,0.2167,162.960,183.435,65.030,390,431,321,400,357,2025-05-28T14:08:50.457494
705,-0.3611,1.2229,0.2255,155.925,161.630,57.820,394,425,355,386,374,2025-05-28T14:08:50.457494
706,-0.4006,1.2673,0.2508,146.370,126.630,49.210,415,441,369,384,404,2025-05-28T14:08:50.457494
707,-0.4070,1.3259,0.2572,138.635,94.080,38.675,387,409,327,391,382,2025-05-28T14:08:50.457494
708,-0.3187,1.3518,0.2562,132.860,49.665,32.130,404,377,342,365,384,2025-05-28T14:08:50.457494
709,-0.2035,1.4167,0.2342,129.360,9.310,27.510,407,391,317,389,392,2025-05-28T14:08:50.457494
710,-0.0142,1.4713,0.2069,124.810,-17.220,21.805,402,374,360,390,400,2025-05-28T14:08:50.457494
711,0.2059,1.4889,0.2045,118.860,-26.215,16.730,415,342,368,374,346,2025-05-28T14:08:50.457494
712,0.3187,1.4816,0.1659,113.925,-21.105,14.350,380,347,367,384,390,2025-05-28T14:08:50.573231
713,0.3416,1.4884,0.1557,109.655,-16.905,11.865,343,388,374,388,411,2025-05-28T14:08:50.573231
714,0.3157,1.4786,0.1552,105.105,-19.775,10.150,407,406,386,409,388,2025-05-28T14:08:50.573231
715,0.3089,1.4547,0.1566,98.455,-26.005,8.015,361,426,352,417,396,2025-05-28T14:08:50.573231
716,0.3162,1.4284,0.1542,89.425,-27.755,4.655,363,393,353,414,391,2025-05-28T14:08:50.573231
717,0.2957,1.3986,0.1596,79.975,-20.545,0.035,398,346,376,411,381,2025-05-28T14:08:50.573231
718,0.2655,1.3698,0.1830,69.195,-9.380,-4.445,401,404,339,411,404,2025-05-28T14:08:50.573231
719,0.2045,1.3459,0.2181,59.780,-1.015,-8.680,402,405,350,394,352,2025-05-28T14:08:50.573231
720,0.1410,1.3127,0.2308,46.970,3.710,-11.340,378,378,355,412,360,2025-05-28T14:08:50.573231
721,0.0874,1.2620,0.2245,35.455,10.465,-12.775,391,339,356,418,401,2025-05-28T14:08:50.573231
722,0.0288,1.2259,0.2386,26.180,16.905,-14.595,409,338,367,404,353,2025-05-28T14:08:50.573231
723,-0.0473,1.1849,0.2669,18.550,21.560,-15.435,394,387,378,414,383,2025-05-28T14:08:50.573231
724,-0.1181,1.1439,0.3109,11.305,23.415,-15.890,408,347,370,403,402,2025-05-28T14:08:50.672882
725,-0.1679,1.1063,0.3299,5.285,23.065,-15.575,412,415,366,421,406,2025-05-28T14:08:50.672882
726,-0.2176,1.0702,0.3299,-0.140,22.575,-14.840,388,417,331,412,349,2025-05-28T14:08:50.672882
727,-0.2445,1.0336,0.3314,-3.290,22.680,-11.445,410,398,349,410,381,2025-05-28T14:08:50.672882
728,-0.2874,0.9994,0.3353,-5.635,23.905,-8.610,396,412,356,422,386,2025-05-28T14:08:50.672882
729,-0.3162,0.9784,0.3499,-7.350,25.795,-7.420,354,418,339,398,399,2025-05-28T14:08:50.672882
730,-0.3440,0.9638,0.3728,-8.995,26.670,-5.950,333,429,367,400,401,2025-05-28T14:08:50.672882
731,-0.3758,0.9374,0.3699,-10.010,25.970,-4.165,401,398,368,413,388,2025-05-28T14:08:50.672882
732,-0.3933,0.9209,0.3704,-10.220,25.235,-2.450,420,414,339,394,353,2025-05-28T14:08:50.773126
733,-0.4241,0.9145,0.3728,-10.395,24.290,-1.540,408,437,350,366,369,2025-05-28T14:08:50.773126
734,-0.4241,0.9023,0.3723,-10.500,21.840,-0.630,395,408,334,362,382,2025-05-28T14:08:50.773126
735,-0.4343,0.8886,0.3528,-10.885,19.215,0.490,397,417,361,400,391,2025-05-28T14:08:50.773126
736,-0.4172,0.8691,0.3455,-10.535,16.975,2.310,417,412,338,391,345,2025-05-28T14:08:50.773126
737,-0.4148,0.8784,0.3611,-9.975,17.990,4.130,416,429,360,393,380,2025-05-28T14:08:50.773126
738,-0.4143,0.8682,0.3626,-10.150,19.915,5.355,415,431,357,390,400,2025-05-28T14:08:50.773126
739,-0.4275,0.8613,0.3631,-9.800,19.355,5.810,304,415,371,396,350,2025-05-28T14:08:50.773126
740,-0.4309,0.8652,0.3704,-8.925,17.080,5.880,407,417,370,389,389,2025-05-28T14:08:50.923919
741,-0.4416,0.8599,0.3572,-8.540,13.055,6.440,423,428,363,392,383,2025-05-28T14:08:50.923919
742,-0.4382,0.8564,0.3553,-7.385,8.015,6.300,422,399,373,401,393,2025-05-28T14:08:50.923919
743,-0.4148,0.8642,0.3582,-6.860,4.025,6.160,397,398,379,402,392,2025-05-28T14:08:50.923919
744,-0.3982,0.8584,0.3484,-6.755,3.675,5.775,425,420,388,356,401,2025-05-28T14:08:50.923919
745,-0.3880,0.8535,0.3367,-6.510,4.935,5.495,404,431,384,381,389,2025-05-28T14:08:50.923919
746,-0.3821,0.8384,0.3314,-5.740,5.985,6.300,416,416,348,350,404,2025-05-28T14:08:50.923919
747,-0.3933,0.8369,0.3377,-5.250,7.735,7.805,426,418,364,383,415,2025-05-28T14:08:50.923919
748,-0.4055,0.8301,0.3475,-5.180,8.610,7.595,428,433,373,385,404,2025-05-28T14:08:50.923919
749,-0.4177,0.8237,0.3640,-4.340,7.560,7.210,419,405,365,379,405,2025-05-28T14:08:50.923919
750,-0.4202,0.8272,0.3733,-3.570,5.215,7.140,399,417,373,379,406,2025-05-28T14:08:50.923919
751,-0.4153,0.8189,0.3675,-2.870,2.730,6.405,344,425,378,417,402,2025-05-28T14:08:50.923919
752,-0.3977,0.8335,0.3753,-2.415,1.225,6.195,392,363,372,415,399,2025-05-28T14:08:51.286849
753,-0.3977,0.8325,0.3699,-1.820,-0.070,5.845,422,417,367,393,388,2025-05-28T14:08:51.286849
754,-0.3841,0.8389,0.3660,-1.540,-1.330,5.250,376,375,361,393,380,2025-05-28T14:08:51.286849
755,-0.3758,0.8442,0.3704,-1.190,-2.135,5.320,371,392,333,394,358,2025-05-28T14:08:51.286849
756,-0.3670,0.8418,0.3684,-1.190,-1.925,5.985,373,410,314,391,382,2025-05-28T14:08:51.286849
757,-0.3680,0.8457,0.3738,-1.330,-0.875,5.250,396,399,346,407,400,2025-05-28T14:08:51.286849
758,-0.3621,0.8594,0.3889,-1.330,-0.140,4.480,355,399,351,405,392,2025-05-28T14:08:51.286849
759,-0.3587,0.8594,0.3914,-1.890,0.175,3.955,390,404,364,369,345,2025-05-28T14:08:51.286849
760,-0.3733,0.8525,0.3733,-2.205,-0.595,3.255,388,429,356,332,288,2025-05-28T14:08:51.287848
761,-0.3733,0.8555,0.3855,-1.890,-3.185,3.010,419,438,367,385,369,2025-05-28T14:08:51.287848
762,-0.3758,0.8677,0.4036,-2.100,-5.810,1.820,424,355,368,411,380,2025-05-28T14:08:51.288026
763,-0.3660,0.8618,0.3938,-2.870,-8.190,0.665,388,367,369,416,381,2025-05-28T14:08:51.288026
764,-0.3655,0.8579,0.3792,-3.045,-11.515,0.175,400,351,331,346,406,2025-05-28T14:08:51.288026
765,-0.3494,0.8574,0.3845,-2.170,-13.895,0.315,405,410,351,393,406,2025-05-28T14:08:51.288280
766,-0.3265,0.8647,0.3963,-2.240,-14.035,0.630,433,393,356,403,404,2025-05-28T14:08:51.288392
767,-0.3104,0.8599,0.3836,-2.870,-12.355,-0.175,428,395,367,393,407,2025-05-28T14:08:51.288392
768,-0.2821,0.8457,0.3772,-2.660,-10.045,-0.735,345,390,367,409,403,2025-05-28T14:08:51.288392
769,-0.2640,0.8398,0.3806,-2.310,-6.230,-1.330,405,408,369,387,398,2025-05-28T14:08:51.288392
770,-0.2630,0.8364,0.3733,-2.310,-2.205,-2.765,403,413,364,406,354,2025-05-28T14:08:51.288977
771,-0.2689,0.8301,0.3762,-1.855,-0.525,-4.935,364,426,370,391,394,2025-05-28T14:08:51.288977
772,-0.2713,0.8369,0.3753,-1.680,0.910,-6.895,397,429,359,416,360,2025-05-28T14:08:51.288977
773,-0.2991,0.8364,0.3665,-1.610,0.945,-8.785,417,421,331,392,375,2025-05-28T14:08:51.439372
774,-0.3157,0.8408,0.3650,-1.050,-1.820,-9.835,408,414,360,389,398,2025-05-28T14:08:51.439372
775,-0.3231,0.8423,0.3562,-0.805,-4.725,-10.920,369,422,339,400,391,2025-05-28T14:08:51.439372
776,-0.3318,0.8491,0.3538,-0.665,-6.055,-11.690,401,422,360,404,401,2025-05-28T14:08:51.439372
777,-0.3323,0.8569,0.3523,-0.210,-6.230,-11.935,393,425,360,347,403,2025-05-28T14:08:51.439372
778,-0.3387,0.8623,0.3533,-0.210,-6.125,-12.005,424,438,332,398,411,2025-05-28T14:08:51.439372
779,-0.3523,0.8628,0.3562,-0.595,-5.355,-11.270,423,430,319,407,388,2025-05-28T14:08:51.439372
780,-0.3601,0.8667,0.3567,-0.455,-4.760,-10.115,426,402,307,344,386,2025-05-28T14:08:51.439372
781,-0.3689,0.8721,0.3616,-0.560,-3.045,-8.260,427,418,349,392,357,2025-05-28T14:08:51.439372
782,-0.3738,0.8804,0.3636,-0.735,-0.875,-6.265,348,387,353,398,385,2025-05-28T14:08:51.439372
783,-0.3826,0.8813,0.3709,-0.525,0.245,-4.025,387,410,367,412,383,2025-05-28T14:08:51.439372
784,-0.3865,0.8843,0.3758,-0.525,1.085,-2.520,398,411,362,364,397,2025-05-28T14:08:51.439372
785,-0.3924,0.8862,0.3826,-0.595,1.435,-1.155,391,389,367,375,393,2025-05-28T14:08:51.439372
786,-0.3963,0.8852,0.3850,-0.665,0.560,0.105,411,415,365,372,391,2025-05-28T14:08:51.439372
787,-0.3972,0.8843,0.3919,-0.735,-1.260,1.190,407,398,376,392,358,2025-05-28T14:08:51.439372
788,-0.3953,0.8847,0.3953,-1.050,-3.045,2.100,307,406,389,386,393,2025-05-28T14:08:51.439372
789,-0.3997,0.8784,0.3933,-1.260,-5.320,2.625,373,424,386,370,347,2025-05-28T14:08:51.439372
790,-0.3836,0.8789,0.3982,-1.505,-7.000,3.570,415,416,347,369,377,2025-05-28T14:08:51.439372
791,-0.3655,0.8730,0.3919,-2.030,-6.825,4.410,407,429,368,399,396,2025-05-28T14:08:51.439372
792,-0.3533,0.8642,0.3811,-2.975,-5.600,4.200,369,427,378,398,405,2025-05-28T14:08:51.439372
793,-0.3523,0.8603,0.3797,-3.360,-3.990,3.815,337,404,372,348,366,2025-05-28T14:08:51.439372
794,-0.3514,0.8545,0.3845,-4.060,-2.940,3.255,392,406,336,351,378,2025-05-28T14:08:51.622621
795,-0.3577,0.8477,0.3816,-4.690,-3.395,2.660,405,420,371,377,395,2025-05-28T14:08:51.622621
796,-0.3640,0.8472,0.3870,-5.075,-4.900,2.030,390,421,377,391,386,2025-05-28T14:08:51.622621
797,-0.3655,0.8403,0.3875,-5.460,-6.440,1.330,421,431,386,395,379,2025-05-28T14:08:51.622621
798,-0.3626,0.8330,0.3845,-5.635,-7.455,0.455,422,411,374,412,395,2025-05-28T14:08:51.622621
799,-0.3538,0.8311,0.3880,-5.600,-8.120,0.210,418,428,379,392,404,2025-05-28T14:08:51.622621
800,-0.3567,0.8340,0.3953,-5.285,-7.350,-0.245,412,369,366,407,401,2025-05-28T14:08:51.622621
801,-0.3558,0.8340,0.3948,-5.075,-6.615,-0.770,395,393,379,411,392,2025-05-28T14:08:51.849214
802,-0.3528,0.8379,0.3924,-4.690,-6.125,-0.560,420,367,365,391,340,2025-05-28T14:08:51.849214
803,-0.3528,0.8350,0.3924,-3.920,-4.935,-0.315,401,418,373,405,329,2025-05-28T14:08:51.849214
804,-0.3548,0.8330,0.3967,-3.115,-3.815,-0.175,342,404,336,410,325,2025-05-28T14:08:51.849214
805,-0.3616,0.8369,0.3948,-2.240,-3.500,-0.035,409,412,370,409,319,2025-05-28T14:08:51.849214
806,-0.3631,0.8433,0.4026,-1.715,-3.745,0.070,391,340,365,397,359,2025-05-28T14:08:51.849214
807,-0.3631,0.8457,0.3987,-1.540,-3.885,0.210,389,399,361,404,389,2025-05-28T14:08:51.849214
808,-0.3689,0.8433,0.3884,-1.050,-4.445,0.280,411,420,342,396,381,2025-05-28T14:08:51.849214
809,-0.3631,0.8496,0.3899,-0.700,-5.005,0.490,405,422,366,419,383,2025-05-28T14:08:51.850396
810,-0.3597,0.8467,0.3884,-0.595,-5.075,0.700,414,429,363,386,391,2025-05-28T14:08:51.850396
811,-0.3533,0.8506,0.3875,-0.525,-4.445,0.945,341,413,369,404,386,2025-05-28T14:08:51.850396
812,-0.3548,0.8525,0.3865,-0.490,-3.570,1.015,337,422,370,353,389,2025-05-28T14:08:51.850396
813,-0.3587,0.8491,0.3860,-0.490,-3.395,1.645,389,426,380,378,403,2025-05-28T14:08:51.850396
814,-0.3636,0.8477,0.3928,-0.385,-3.570,1.505,393,391,380,402,367,2025-05-28T14:08:51.850396
815,-0.3597,0.8472,0.4011,-0.490,-3.920,1.050,396,405,378,390,395,2025-05-28T14:08:51.850396
816,-0.3597,0.8418,0.3958,-1.015,-4.445,1.085,419,418,372,367,384,2025-05-28T14:08:51.850396
817,-0.3533,0.8369,0.3841,-1.155,-5.355,1.050,411,411,365,400,404,2025-05-28T14:08:51.850396
818,-0.3465,0.8301,0.3841,-1.190,-5.635,0.280,423,428,375,404,403,2025-05-28T14:08:51.850396
819,-0.3387,0.8311,0.3899,-1.260,-5.495,-0.315,429,395,377,391,383,2025-05-28T14:08:51.850396
820,-0.3401,0.8237,0.3894,-1.295,-5.985,-1.645,404,406,382,404,408,2025-05-28T14:08:51.850396
821,-0.3475,0.8208,0.3938,-1.330,-7.280,-3.640,400,397,366,410,412,2025-05-28T14:08:51.850396
822,-0.3401,0.8154,0.3928,-1.470,-8.820,-4.795,428,397,359,404,347,2025-05-28T14:08:51.850396
823,-0.3489,0.8067,0.3924,-1.225,-9.765,-5.810,393,399,354,417,369,2025-05-28T14:08:51.850396
824,-0.3548,0.8057,0.3982,-0.700,-10.885,-7.245,392,381,367,397,391,2025-05-28T14:08:51.850396
825,-0.3548,0.8101,0.4036,-0.455,-12.040,-8.540,410,426,376,395,400,2025-05-28T14:08:51.850396
826,-0.3548,0.8154,0.4070,-0.245,-11.550,-9.345,397,424,367,395,386,2025-05-28T14:08:51.850396
827,-0.3475,0.8228,0.4046,-0.245,-10.360,-9.380,349,396,336,409,382,2025-05-28T14:08:51.850396
828,-0.3518,0.8247,0.3992,-0.070,-7.875,-9.345,408,378,367,415,385,2025-05-28T14:08:51.850396
829,-0.3543,0.8247,0.3914,0.630,-5.425,-8.505,422,417,330,415,377,2025-05-28T14:08:51.850396
830,-0.3601,0.8311,0.3943,1.190,-2.905,-7.840,403,406,317,414,391,2025-05-28T14:08:52.108172
831,-0.3743,0.8369,0.3982,1.540,-0.245,-7.385,397,420,347,415,384,2025-05-28T14:08:52.108172
832,-0.3875,0.8398,0.4016,1.960,0.105,-6.405,373,415,319,409,378,2025-05-28T14:08:52.108172
833,-0.3938,0.8501,0.4075,2.415,-0.630,-5.495,422,413,339,349,385,2025-05-28T14:08:52.108172
834,-0.4026,0.8579,0.4119,2.520,-2.135,-4.935,399,424,317,331,389,2025-05-28T14:08:52.108172
835,-0.3977,0.8599,0.4153,2.590,-4.095,-3.955,392,382,351,392,389,2025-05-28T14:08:52.108172
836,-0.3880,0.8652,0.4124,2.800,-5.915,-2.940,417,417,366,374,409,2025-05-28T14:08:52.108172
837,-0.3767,0.8696,0.4041,2.695,-6.195,-1.855,390,359,371,394,403,2025-05-28T14:08:52.108172
838,-0.3684,0.8730,0.4031,2.800,-5.425,-0.945,338,350,382,368,408,2025-05-28T14:08:52.108172
839,-0.3631,0.8716,0.4094,2.765,-4.270,0.105,389,418,375,406,351,2025-05-28T14:08:52.108172
840,-0.3601,0.8706,0.4094,2.345,-3.395,0.770,414,420,337,402,402,2025-05-28T14:08:52.108172
841,-0.3606,0.8682,0.4041,2.030,-2.765,1.680,422,394,371,410,362,2025-05-28T14:08:52.108172
842,-0.3675,0.8623,0.3972,1.925,-2.520,1.995,432,361,375,390,366,2025-05-28T14:08:52.108172
843,-0.3645,0.8657,0.4046,1.750,-2.835,2.065,421,402,375,417,383,2025-05-28T14:08:52.108172
844,-0.3616,0.8647,0.4050,1.085,-2.975,2.065,389,416,387,391,373,2025-05-28T14:08:52.108172
845,-0.3626,0.8613,0.3958,0.350,-3.465,2.170,344,433,386,409,376,2025-05-28T14:08:52.108172
846,-0.3616,0.8608,0.3909,0.210,-3.885,2.205,383,432,380,413,338,2025-05-28T14:08:52.108172
847,-0.3626,0.8560,0.3875,0.000,-4.060,1.750,398,405,373,396,326,2025-05-28T14:08:52.108172
848,-0.3626,0.8545,0.3841,-0.350,-4.445,1.330,343,400,380,414,376,2025-05-28T14:08:52.109220
849,-0.3543,0.8467,0.3865,-0.630,-4.550,1.120,348,413,371,408,341,2025-05-28T14:08:52.109220
850,-0.3562,0.8398,0.3816,-0.630,-4.305,1.260,380,417,377,403,384,2025-05-28T14:08:52.109220
851,-0.3567,0.8418,0.3889,-0.945,-3.395,1.435,387,403,378,398,398,2025-05-28T14:08:52.305864
852,-0.3587,0.8394,0.3821,-1.540,-1.435,1.155,401,420,377,381,401,2025-05-28T14:08:52.305864
853,-0.3636,0.8350,0.3821,-1.820,-0.945,0.910,408,370,385,392,391,2025-05-28T14:08:52.305864
854,-0.3704,0.8281,0.3758,-1.820,-1.365,1.470,415,386,373,408,345,2025-05-28T14:08:52.305864
855,-0.3797,0.8233,0.3802,-1.610,-2.170,1.015,418,395,362,371,371,2025-05-28T14:08:52.305864
856,-0.3816,0.8179,0.3802,-1.155,-3.150,0.455,391,413,375,374,400,2025-05-28T14:08:52.305864
857,-0.3758,0.8184,0.3836,-0.700,-3.815,0.140,392,360,367,388,392,2025-05-28T14:08:52.305864
858,-0.3767,0.8213,0.3919,-0.490,-3.955,-0.455,393,421,375,380,385,2025-05-28T14:08:52.305864
859,-0.3684,0.8252,0.3943,-0.280,-3.990,-0.805,425,397,361,404,363,2025-05-28T14:08:52.305864
860,-0.3675,0.8267,0.3904,-0.245,-3.815,-0.700,418,362,376,389,370,2025-05-28T14:08:52.305864
861,-0.3650,0.8252,0.3909,0.070,-3.185,-0.840,412,357,376,349,298,2025-05-28T14:08:52.305864
862,-0.3621,0.8291,0.3919,0.315,-2.345,-0.980,347,384,372,390,317,2025-05-28T14:08:52.305864
863,-0.3611,0.8311,0.3967,0.315,-1.260,-0.910,409,418,375,409,318,2025-05-28T14:08:52.305864
864,-0.3655,0.8330,0.3967,0.420,-0.735,-0.700,408,427,376,395,378,2025-05-28T14:08:52.305864
865,-0.3694,0.8389,0.4036,0.525,-0.840,-0.665,362,407,381,388,396,2025-05-28T14:08:52.305864
866,-0.3670,0.8442,0.4041,0.315,-0.805,-0.560,405,400,337,401,403,2025-05-28T14:08:52.305864
867,-0.3714,0.8472,0.3977,0.175,-0.910,-0.595,407,391,357,395,407,2025-05-28T14:08:52.305864
868,-0.3689,0.8477,0.3967,0.280,-0.840,-0.805,424,385,329,385,385,2025-05-28T14:08:52.305864
869,-0.3694,0.8535,0.3987,0.315,-1.120,-0.875,400,418,362,346,396,2025-05-28T14:08:52.531408
870,-0.3733,0.8574,0.4016,0.315,-1.925,-1.120,419,396,338,332,405,2025-05-28T14:08:52.531408
871,-0.3723,0.8574,0.3982,0.000,-2.520,-1.505,417,416,364,345,393,2025-05-28T14:08:52.531408
872,-0.3753,0.8599,0.4006,-0.105,-3.395,-1.365,427,424,367,375,389,2025-05-28T14:08:52.531408
873,-0.3738,0.8613,0.3992,-0.595,-4.025,-0.945,423,415,329,404,393,2025-05-28T14:08:52.531408
874,-0.3709,0.8599,0.3953,-1.155,-4.795,-0.805,434,359,355,348,349,2025-05-28T14:08:52.531408
875,-0.3665,0.8545,0.3933,-1.435,-4.935,-0.315,424,382,336,337,383,2025-05-28T14:08:52.531408
876,-0.3694,0.8560,0.3938,-1.295,-4.340,-0.140,410,396,325,378,386,2025-05-28T14:08:52.531408
877,-0.3704,0.8520,0.3924,-1.155,-3.780,0.280,392,386,354,388,342,2025-05-28T14:08:52.531408
878,-0.3675,0.8525,0.3943,-0.980,-3.185,0.770,407,384,339,406,390,2025-05-28T14:08:52.531408
879,-0.3738,0.8481,0.3982,-0.945,-2.730,1.015,305,412,352,416,355,2025-05-28T14:08:52.531408
880,-0.3733,0.8472,0.3948,-0.805,-2.660,1.715,399,413,322,366,371,2025-05-28T14:08:52.531408
881,-0.3743,0.8467,0.3948,-0.665,-2.765,2.205,396,431,356,336,380,2025-05-28T14:08:52.531408
882,-0.3806,0.8501,0.3953,-0.455,-2.940,2.310,394,436,338,381,400,2025-05-28T14:08:52.531408
883,-0.3767,0.8447,0.3884,-0.525,-3.010,2.380,378,419,347,381,389,2025-05-28T14:08:52.531408
884,-0.3792,0.8486,0.3924,-0.315,-3.045,2.835,409,420,362,393,379,2025-05-28T14:08:52.531408
885,-0.3758,0.8452,0.3938,-0.910,-3.150,3.080,396,406,373,391,382,2025-05-28T14:08:52.531408
886,-0.3787,0.8438,0.3870,-1.330,-3.640,3.255,344,432,340,361,388,2025-05-28T14:08:52.531408
887,-0.3743,0.8394,0.3904,-1.295,-4.340,4.025,412,435,361,377,394,2025-05-28T14:08:52.531408
888,-0.3694,0.8394,0.3963,-1.435,-3.990,4.095,346,413,358,387,394,2025-05-28T14:08:52.721868
889,-0.3640,0.8408,0.3987,-1.820,-3.080,3.990,396,406,359,387,382,2025-05-28T14:08:52.722019
890,-0.3670,0.8418,0.3977,-2.065,-2.415,4.235,365,410,370,395,404,2025-05-28T14:08:52.722199
891,-0.3719,0.8398,0.3992,-1.960,-2.240,4.340,404,409,366,416,406,2025-05-28T14:08:52.722455
892,-0.3719,0.8374,0.4011,-1.680,-2.380,4.480,398,411,377,399,396,2025-05-28T14:08:52.722589
893,-0.3670,0.8408,0.4114,-1.470,-2.660,4.655,395,409,364,402,396,2025-05-28T14:08:52.722589
894,-0.3680,0.8452,0.4104,-1.575,-3.080,4.690,355,395,365,407,378,2025-05-28T14:08:52.722589
895,-0.3699,0.8398,0.4065,-1.540,-3.815,4.480,424,384,376,365,389,2025-05-28T14:08:52.722957
896,-0.3704,0.8389,0.4075,-1.295,-5.005,4.305,421,389,366,385,379,2025-05-28T14:08:52.722957
897,-0.3626,0.8413,0.4065,-1.225,-5.845,4.305,395,394,380,399,399,2025-05-28T14:08:52.722957
898,-0.3533,0.8423,0.4075,-1.120,-5.915,4.130,409,415,371,388,390,2025-05-28T14:08:52.722957
899,-0.3465,0.8403,0.4046,-1.085,-4.865,4.130,430,402,375,391,406,2025-05-28T14:08:52.722957
900,-0.3460,0.8408,0.4046,-1.015,-3.255,4.270,350,402,372,385,386,2025-05-28T14:08:52.722957
901,-0.3494,0.8384,0.4060,-0.980,-1.995,4.375,364,367,364,356,402,2025-05-28T14:08:52.722957
902,-0.3572,0.8335,0.4080,-0.805,-1.785,4.200,394,407,360,384,393,2025-05-28T14:08:52.722957
903,-0.3587,0.8364,0.4055,-0.980,-2.205,4.340,340,431,374,399,400,2025-05-28T14:08:52.979146
904,-0.3587,0.8359,0.3909,-0.945,-2.765,4.410,339,415,375,391,403,2025-05-28T14:08:52.979146
905,-0.3533,0.8379,0.3948,-0.665,-3.080,4.130,400,392,338,411,384,2025-05-28T14:08:52.979146
906,-0.3470,0.8398,0.4036,-0.770,-3.080,3.920,342,401,319,396,340,2025-05-28T14:08:52.979146
907,-0.3489,0.8398,0.4036,-0.945,-2.905,3.885,342,418,348,412,325,2025-05-28T14:08:52.979146
908,-0.3465,0.8413,0.4031,-0.945,-3.045,3.535,394,423,364,412,340,2025-05-28T14:08:52.979146
909,-0.3445,0.8408,0.4006,-0.980,-3.115,3.010,394,380,342,414,329,2025-05-28T14:08:52.979146
910,-0.3470,0.8374,0.3953,-0.980,-3.465,2.730,420,400,329,410,384,2025-05-28T14:08:52.979146
911,-0.3372,0.8384,0.3967,-0.595,-4.165,2.800,432,387,361,403,395,2025-05-28T14:08:52.979146
912,-0.3348,0.8403,0.4065,-0.560,-3.675,2.380,407,431,369,387,343,2025-05-28T14:08:52.979146
913,-0.3343,0.8394,0.4046,-0.700,-2.625,1.855,406,375,371,403,370,2025-05-28T14:08:52.980698
914,-0.3323,0.8423,0.4026,-0.525,-2.275,1.925,433,424,331,399,331,2025-05-28T14:08:52.980698
915,-0.3353,0.8428,0.4046,-0.385,-1.995,1.785,403,405,347,383,369,2025-05-28T14:08:52.980698
916,-0.3328,0.8462,0.4080,-0.525,-1.715,1.330,414,426,356,349,370,2025-05-28T14:08:52.980698
917,-0.3299,0.8423,0.3972,-0.665,-1.225,1.050,401,426,363,389,374,2025-05-28T14:08:52.980698
918,-0.3362,0.8442,0.4011,-0.525,-1.190,0.945,380,353,362,305,373,2025-05-28T14:08:52.980698
919,-0.3362,0.8457,0.4021,-0.700,-1.085,0.455,411,395,325,369,378,2025-05-28T14:08:52.980698
920,-0.3431,0.8481,0.4055,-1.015,-0.980,-0.070,417,413,355,396,340,2025-05-28T14:08:52.980698
921,-0.3416,0.8516,0.4080,-0.945,-1.855,-0.245,367,396,375,344,370,2025-05-28T14:08:52.980698
922,-0.3489,0.8535,0.4089,-0.805,-2.310,-0.455,406,425,380,333,351,2025-05-28T14:08:52.980698
923,-0.3455,0.8569,0.4060,-0.945,-2.415,-0.805,428,364,350,381,381,2025-05-28T14:08:52.981693
924,-0.3455,0.8530,0.4055,-0.875,-2.590,-0.210,395,335,365,405,337,2025-05-28T14:08:53.023623
925,-0.3499,0.8530,0.4099,-0.700,-2.100,0.000,383,350,367,387,365,2025-05-28T14:08:53.023623
926,-0.3470,0.8530,0.4143,-0.980,-1.470,0.595,421,398,368,396,338,2025-05-28T14:08:53.023623
927,-0.3514,0.8520,0.4099,-1.050,-0.805,0.945,416,426,336,364,335,2025-05-28T14:08:53.023623
928,-0.3587,0.8501,0.4075,-1.015,-0.700,1.540,402,408,358,385,325,2025-05-28T14:08:53.023623
929,-0.3601,0.8511,0.4104,-0.980,-1.155,1.715,414,408,358,343,335,2025-05-28T14:08:53.023623
930,-0.3572,0.8545,0.4133,-0.980,-1.855,2.065,419,422,293,368,378,2025-05-28T14:08:53.288791
931,-0.3553,0.8535,0.4119,-1.155,-2.310,2.205,427,416,348,389,340,2025-05-28T14:08:53.288791
932,-0.3523,0.8501,0.4094,-1.260,-2.555,2.450,434,413,368,385,365,2025-05-28T14:08:53.288791
933,-0.3504,0.8486,0.4026,-1.225,-2.590,2.765,427,403,359,389,388,2025-05-28T14:08:53.288791
934,-0.3440,0.8467,0.4026,-1.050,-2.240,3.080,392,425,370,403,388,2025-05-28T14:08:53.288791
935,-0.3431,0.8501,0.4075,-1.050,-1.540,2.905,420,366,383,412,347,2025-05-28T14:08:53.288791
936,-0.3421,0.8467,0.4046,-1.435,-0.875,2.835,396,412,309,380,335,2025-05-28T14:08:53.288791
937,-0.3392,0.8447,0.3899,-1.575,-0.560,3.185,397,403,352,405,384,2025-05-28T14:08:53.288791
938,-0.3401,0.8413,0.3919,-1.715,0.000,3.150,410,420,370,392,360,2025-05-28T14:08:53.288791
939,-0.3362,0.8472,0.3997,-2.520,0.700,2.975,361,420,362,407,377,2025-05-28T14:08:53.288791
940,-0.3289,0.8467,0.3953,-3.570,0.910,3.220,417,423,367,412,383,2025-05-28T14:08:53.288791
941,-0.3304,0.8423,0.3889,-4.760,0.840,2.835,431,416,331,397,339,2025-05-28T14:08:53.288791
942,-0.3206,0.8335,0.3767,-5.425,1.260,2.590,414,384,362,306,382,2025-05-28T14:08:53.288791
943,-0.2972,0.8091,0.3694,-5.635,1.960,3.010,426,413,355,376,381,2025-05-28T14:08:53.288791
944,-0.2611,0.7652,0.3538,-5.670,3.430,3.605,403,404,332,356,390,2025-05-28T14:08:53.288791
945,-0.1698,0.7115,0.2840,-4.690,9.485,6.475,403,407,360,337,381,2025-05-28T14:08:53.288791
946,-0.0395,0.6520,0.2381,-4.095,28.315,10.255,431,405,365,371,400,2025-05-28T14:08:53.288791
947,0.2011,0.6124,0.1649,-3.605,63.840,13.405,392,303,360,380,404,2025-05-28T14:08:53.288791
948,0.4099,0.5226,0.1088,-0.910,126.245,12.600,418,384,367,400,369,2025-05-28T14:08:53.288791
949,0.6720,0.4836,0.0683,0.875,187.425,-0.175,421,409,364,407,379,2025-05-28T14:08:53.288791
950,0.7871,0.3787,-0.0449,-0.875,272.860,-14.525,431,390,335,408,398,2025-05-28T14:08:53.288791
951,0.8247,0.3348,-0.2176,-6.685,351.540,-39.130,397,399,360,365,396,2025-05-28T14:08:53.537423
952,0.6695,0.1078,-0.3109,-2.275,405.720,-61.215,402,305,367,398,352,2025-05-28T14:08:53.537423
953,0.6573,0.0288,-0.2679,8.575,421.050,-93.310,412,341,381,413,369,2025-05-28T14:08:53.537423
954,0.5490,-0.0649,-0.2518,25.130,425.810,-127.120,420,390,372,418,344,2025-05-28T14:08:53.537423
955,0.5187,-0.1576,-0.2782,45.010,417.480,-150.360,416,373,360,359,326,2025-05-28T14:08:53.537423
956,0.4319,-0.1518,-0.3396,76.475,407.470,-171.465,401,411,358,380,366,2025-05-28T14:08:53.537423
957,0.4382,-0.0264,-0.3782,109.620,409.430,-191.660,428,402,361,402,386,2025-05-28T14:08:53.537423
958,0.3938,0.2108,-0.5241,140.175,430.045,-199.185,383,387,357,420,363,2025-05-28T14:08:53.537423
959,0.2240,0.5519,-0.6910,166.565,457.590,-201.425,391,414,361,389,386,2025-05-28T14:08:53.537423
960,0.0468,0.7881,-0.8847,186.025,481.880,-194.880,379,426,375,392,400,2025-05-28T14:08:53.537423
961,-0.2625,1.1644,-1.2410,192.500,500.220,-177.730,373,412,366,400,405,2025-05-28T14:08:53.537423
962,-0.6622,1.5006,-1.4957,193.795,502.390,-151.655,404,393,361,406,414,2025-05-28T14:08:53.537423
963,-0.9892,1.9647,-1.7212,181.020,489.895,-130.270,348,343,359,397,352,2025-05-28T14:08:53.537423
964,-1.3449,2.4390,-1.9305,152.635,465.710,-115.080,355,402,361,397,372,2025-05-28T14:08:53.537423
965,-1.4650,2.9490,-2.1370,102.025,430.010,-99.820,389,407,373,400,392,2025-05-28T14:08:53.537423
966,-1.4498,3.3262,-2.4434,42.175,381.850,-79.275,383,399,365,396,391,2025-05-28T14:08:53.537423
967,-1.4254,3.4443,-3.0041,-19.915,338.730,-58.590,420,422,364,350,385,2025-05-28T14:08:53.537423
968,-1.6997,3.3443,-3.3843,-83.895,295.400,-31.850,420,413,329,379,395,2025-05-28T14:08:53.537423
969,-1.6031,3.1666,-3.5199,-144.235,230.230,0.105,425,435,359,400,358,2025-05-28T14:08:53.537423
970,-1.4113,2.7899,-3.5712,-208.915,169.085,22.610,399,414,363,412,376,2025-05-28T14:08:53.537423
971,-1.1244,2.2141,-3.4965,-259.070,142.870,37.380,354,408,363,411,387,2025-05-28T14:08:53.795676
972,-1.0619,1.5626,-3.2740,-324.835,124.460,42.700,400,380,375,397,384,2025-05-28T14:08:53.795676
973,-1.1570,0.8316,-2.9636,-354.795,96.320,42.700,390,407,362,303,388,2025-05-28T14:08:53.795676
974,-1.3093,0.0644,-2.6362,-371.735,51.590,48.125,376,306,360,341,382,2025-05-28T14:08:53.795676
975,-1.3928,-0.6578,-2.1086,-361.620,2.240,63.350,368,286,374,401,343,2025-05-28T14:08:53.795676
976,-1.2444,-1.2498,-1.4455,-327.460,-41.230,76.055,407,406,383,345,360,2025-05-28T14:08:53.795676
977,-0.8023,-1.7954,-0.9560,-274.890,-41.405,90.055,430,422,374,394,387,2025-05-28T14:08:53.795676
978,-0.4475,-2.5713,-0.6666,-213.535,1.400,84.875,423,425,383,382,386,2025-05-28T14:08:53.795676
979,-0.3924,-3.0124,-0.4963,-144.795,72.275,63.140,422,419,390,398,346,2025-05-28T14:08:53.796674
980,-0.7164,-3.1090,-0.0942,-96.215,104.125,30.345,386,359,387,386,390,2025-05-28T14:08:53.796674
981,-0.8955,-2.9382,0.3148,-68.985,59.815,0.385,405,388,358,404,389,2025-05-28T14:08:53.796674
982,-1.0228,-2.8587,0.4036,-41.475,-11.270,-34.860,430,405,362,401,393,2025-05-28T14:08:53.796674
983,-0.9658,-2.5888,0.4168,-10.325,-113.715,-60.900,418,305,357,413,400,2025-05-28T14:08:53.796674
984,-0.7491,-2.2916,0.3260,24.500,-177.765,-83.370,412,411,371,406,407,2025-05-28T14:08:53.796674
985,-0.5012,-1.9330,0.1586,60.025,-203.350,-97.895,400,423,371,345,404,2025-05-28T14:08:53.796674
986,-0.3416,-1.5226,0.0327,97.825,-196.175,-101.465,398,424,363,396,409,2025-05-28T14:08:53.796674
987,-0.3924,-1.1302,-0.2020,125.755,-185.150,-101.850,344,425,370,412,405,2025-05-28T14:08:53.796674
988,-0.5939,-0.7544,-0.4221,158.760,-187.670,-99.225,417,396,375,409,403,2025-05-28T14:08:53.796674
989,-0.8716,-0.3484,-0.7100,187.320,-204.120,-94.360,413,402,387,405,402,2025-05-28T14:08:53.796674
990,-1.1092,0.0976,-1.1131,212.380,-244.335,-86.170,416,388,386,397,344,2025-05-28T14:08:54.004618
991,-1.1795,0.5666,-1.5704,230.580,-279.510,-80.360,406,395,364,383,384,2025-05-28T14:08:54.004618
992,-1.2156,1.0960,-2.0062,242.690,-308.070,-63.630,397,395,375,403,385,2025-05-28T14:08:54.004618
993,-1.1741,1.8085,-2.1814,237.020,-317.030,-57.995,421,421,369,408,396,2025-05-28T14:08:54.004618
994,-1.2717,2.2194,-2.2536,219.275,-296.765,-38.360,424,377,358,373,384,2025-05-28T14:08:54.004618
995,-1.4664,2.5840,-2.1760,177.275,-264.845,-12.600,433,417,370,409,380,2025-05-28T14:08:54.004618
996,-1.6670,2.7152,-2.0110,125.685,-255.675,17.255,376,404,369,413,379,2025-05-28T14:08:54.004618
997,-1.8808,2.6640,-1.7392,73.255,-271.145,42.000,417,392,379,391,379,2025-05-28T14:08:54.004618
998,-1.8890,2.5610,-1.3801,32.970,-307.895,71.190,422,401,374,410,388,2025-05-28T14:08:54.004618
999,-1.6792,2.3600,-1.0917,-6.160,-339.395,89.145,380,343,379,388,404,2025-05-28T14:08:54.004618
1000,-1.3074,2.1126,-0.8589,-31.640,-369.740,100.590,371,385,369,400,371,2025-05-28T14:08:54.004618
1001,-0.9062,1.9544,-0.8247,-48.230,-365.995,117.635,410,380,341,406,383,2025-05-28T14:08:54.004618
1002,-0.6364,1.6938,-0.6920,-59.115,-343.630,130.375,404,402,367,417,375,2025-05-28T14:08:54.004618
1003,-0.4441,1.4972,-0.5675,-65.590,-319.095,141.715,415,342,366,397,403,2025-05-28T14:08:54.004618
1004,-0.3606,1.3137,-0.4724,-73.465,-305.690,150.325,395,399,370,370,409,2025-05-28T14:08:54.004618
1005,-0.2835,1.1424,-0.3836,-79.485,-297.815,150.850,425,408,344,381,407,2025-05-28T14:08:54.004618
1006,-0.0649,0.9887,-0.3328,-82.915,-290.990,149.555,415,431,362,389,411,2025-05-28T14:08:54.004618
1007,0.0947,0.8545,-0.3167,-85.540,-271.635,143.990,407,402,369,390,406,2025-05-28T14:08:54.004618
1008,0.2557,0.7501,-0.2684,-85.715,-252.385,134.400,399,413,335,405,388,2025-05-28T14:08:54.004618
1009,0.2884,0.6612,-0.2391,-81.760,-227.255,126.140,430,410,357,399,398,2025-05-28T14:08:54.004618
1010,0.3289,0.6202,-0.1889,-75.635,-209.020,114.380,411,415,328,397,387,2025-05-28T14:08:54.255792
1011,0.3597,0.5846,-0.1474,-68.915,-192.570,100.905,421,401,356,393,339,2025-05-28T14:08:54.255792
1012,0.3504,0.5441,-0.0932,-61.740,-177.660,85.190,418,403,370,356,333,2025-05-28T14:08:54.255792
1013,0.3455,0.5339,-0.0400,-54.845,-160.825,68.320,419,418,378,339,381,2025-05-28T14:08:54.255792
1014,0.3543,0.5285,0.0068,-50.575,-140.980,52.990,391,422,380,346,344,2025-05-28T14:08:54.255792
1015,0.3260,0.5314,0.0288,-45.500,-116.900,39.340,408,404,384,376,377,2025-05-28T14:08:54.255792
1016,0.2469,0.5309,0.0571,-39.165,-98.315,26.215,403,419,387,389,392,2025-05-28T14:08:54.255792
1017,0.2108,0.5622,0.1074,-31.255,-77.105,9.065,407,404,374,386,364,2025-05-28T14:08:54.255792
1018,0.1054,0.5768,0.1581,-24.325,-60.865,9.625,361,403,370,387,334,2025-05-28T14:08:54.255792
1019,0.0620,0.6163,0.2015,-17.990,-46.410,3.500,343,402,367,409,379,2025-05-28T14:08:54.255792
1020,-0.0595,0.6266,0.2264,-13.440,-37.030,-1.680,395,404,331,403,380,2025-05-28T14:08:54.255792
1021,-0.1718,0.6583,0.2694,-7.245,-34.160,-5.215,380,381,346,413,340,2025-05-28T14:08:54.255792
1022,-0.2211,0.6886,0.2933,-1.435,-37.030,-6.825,414,409,373,416,388,2025-05-28T14:08:54.255792
1023,-0.2352,0.7310,0.3113,3.045,-39.130,-6.930,419,424,338,420,347,2025-05-28T14:08:54.255792
1024,-0.2025,0.7647,0.3104,6.650,-34.790,-6.720,414,434,370,426,368,2025-05-28T14:08:54.255792
1025,-0.2006,0.7974,0.3123,8.575,-25.200,-5.320,305,408,328,376,359,2025-05-28T14:08:54.255792
1026,-0.2006,0.8262,0.3026,9.730,-16.240,-3.605,396,425,356,389,367,2025-05-28T14:08:54.255792
1027,-0.2118,0.8403,0.2948,10.465,-6.790,-1.015,419,411,362,393,373,2025-05-28T14:08:54.255792
1028,-0.2108,0.8642,0.3118,10.885,2.345,2.205,429,422,376,404,343,2025-05-28T14:08:54.255792
1029,-0.2230,0.8867,0.3172,10.150,12.600,4.515,403,432,379,384,376,2025-05-28T14:08:54.255792
1030,-0.2489,0.9048,0.3172,9.520,19.600,6.965,396,429,371,394,400,2025-05-28T14:08:54.255792
1031,-0.2679,0.9184,0.3333,8.470,22.365,8.995,400,422,379,405,384,2025-05-28T14:08:54.456866
1032,-0.2904,0.9160,0.3309,7.175,24.255,9.660,402,430,386,420,402,2025-05-28T14:08:54.456866
1033,-0.3099,0.9145,0.3484,6.055,23.730,10.010,406,371,370,359,400,2025-05-28T14:08:54.456866
1034,-0.2996,0.9160,0.3572,4.725,22.820,10.290,420,404,362,401,398,2025-05-28T14:08:54.456866
1035,-0.3050,0.9179,0.3601,3.535,23.100,10.115,405,412,330,408,352,2025-05-28T14:08:54.456866
1036,-0.3138,0.9150,0.3714,2.730,23.415,9.870,355,421,358,413,327,2025-05-28T14:08:54.456866
1037,-0.3187,0.9189,0.3904,1.750,22.925,9.380,397,429,356,395,360,2025-05-28T14:08:54.456866
1038,-0.3260,0.9057,0.3836,0.280,22.960,8.505,418,410,375,401,379,2025-05-28T14:08:54.456866
1039,-0.3377,0.8906,0.3704,0.035,22.925,8.330,395,425,377,408,361,2025-05-28T14:08:54.456866
1040,-0.3518,0.8828,0.3636,0.945,21.875,8.470,335,417,384,398,395,2025-05-28T14:08:54.456866
1041,-0.3548,0.8872,0.3684,1.715,20.965,8.400,399,426,379,411,406,2025-05-28T14:08:54.456866
1042,-0.3616,0.8886,0.3694,1.400,19.320,8.365,375,421,372,376,406,2025-05-28T14:08:54.456866
1043,-0.3504,0.8896,0.3772,1.225,16.940,8.470,391,426,365,393,410,2025-05-28T14:08:54.456866
1044,-0.3572,0.8930,0.3743,0.210,14.840,8.470,393,429,369,340,348,2025-05-28T14:08:54.456866
1045,-0.3538,0.8882,0.3582,-0.735,12.180,8.225,415,434,386,377,327,2025-05-28T14:08:54.456866
1046,-0.3367,0.8926,0.3504,-1.085,10.115,7.875,416,425,377,378,361,2025-05-28T14:08:54.456866
1047,-0.3270,0.8886,0.3475,-1.260,8.750,6.965,417,409,379,399,371,2025-05-28T14:08:54.456866
1048,-0.3138,0.8921,0.3470,-1.260,8.330,7.210,416,412,341,401,390,2025-05-28T14:08:54.456866
1049,-0.2996,0.8843,0.3499,-1.435,9.135,6.685,418,411,359,407,340,2025-05-28T14:08:54.555746
1050,-0.2962,0.8823,0.3572,-1.645,11.200,5.985,409,411,364,367,380,2025-05-28T14:08:54.555746
1051,-0.2982,0.8862,0.3567,-1.820,13.090,5.600,407,347,326,386,391,2025-05-28T14:08:54.555746
1052,-0.3182,0.8838,0.3533,-1.505,12.600,5.075,402,367,357,411,384,2025-05-28T14:08:54.555746
1053,-0.3172,0.8828,0.3528,-1.155,9.555,4.620,421,407,357,399,377,2025-05-28T14:08:54.555746
1054,-0.3177,0.8769,0.3538,-1.050,5.740,4.165,400,350,364,346,398,2025-05-28T14:08:54.555746
1055,-0.3226,0.8721,0.3572,-0.945,2.555,3.605,405,413,374,402,415,2025-05-28T14:08:54.555746
1056,-0.3221,0.8804,0.3597,-0.875,-2.275,3.045,388,350,368,306,413,2025-05-28T14:08:54.775452
1057,-0.3152,0.8735,0.3523,-1.330,-6.230,1.855,399,386,371,357,407,2025-05-28T14:08:54.775452
1058,-0.2899,0.8818,0.3528,-1.470,-7.210,0.490,410,407,378,397,412,2025-05-28T14:08:54.775452
1059,-0.2879,0.8828,0.3455,-1.645,-6.055,-0.875,394,401,377,395,415,2025-05-28T14:08:54.775452
1060,-0.2816,0.8779,0.3338,-1.190,-4.585,-2.135,396,348,374,415,415,2025-05-28T14:08:54.787835
1061,-0.2694,0.8764,0.3240,-0.840,-3.710,-2.590,413,406,379,394,419,2025-05-28T14:08:54.788255
1062,-0.2728,0.9970,0.3318,-0.455,-1.540,-2.415,342,378,339,397,406,2025-05-28T14:08:54.788255
1063,-0.2782,0.8799,0.3357,-0.315,1.050,-2.485,339,410,366,348,371,2025-05-28T14:08:54.788602
1064,-0.2889,0.8804,0.3265,-0.455,2.485,-2.765,396,398,369,325,394,2025-05-28T14:08:54.788602
1065,-0.2845,0.8799,0.3152,-0.350,2.800,-3.465,393,420,341,367,406,2025-05-28T14:08:54.788899
1066,-0.2777,0.8725,0.3201,-0.105,3.185,-3.920,357,404,356,384,372,2025-05-28T14:08:54.789037
1067,-0.3050,0.8818,0.3309,-0.385,3.710,-4.865,369,396,374,345,386,2025-05-28T14:08:54.789037
1068,-0.3182,0.8886,0.3338,-0.700,2.695,-5.075,404,418,370,384,405,2025-05-28T14:08:54.789233
1069,-0.3270,0.8818,0.3314,-0.735,0.700,-5.950,395,410,338,402,405,2025-05-28T14:08:54.789233
1070,-0.3323,0.8804,0.3260,-0.315,-2.205,-6.125,426,438,356,409,394,2025-05-28T14:08:54.789233
1071,-0.3187,0.8730,0.3084,0.525,-4.935,-5.355,427,420,319,399,386,2025-05-28T14:08:54.789233
1072,-0.3070,0.8779,0.3035,1.225,-4.830,-5.180,428,408,360,371,398,2025-05-28T14:08:54.789233
1073,-0.2957,0.8818,0.3113,1.330,-1.470,-5.950,415,423,360,383,392,2025-05-28T14:08:54.789233
1074,-0.3118,0.8750,0.3001,1.540,0.805,-5.005,426,426,365,383,383,2025-05-28T14:08:54.789233
1075,-0.3240,0.8730,0.2962,1.820,1.330,-4.410,402,401,372,411,391,2025-05-28T14:08:54.789233
1076,-0.3357,0.8764,0.3118,1.785,1.785,-4.655,412,358,378,417,394,2025-05-28T14:08:54.972262
1077,-0.3314,0.8847,0.3162,1.050,1.610,-4.270,425,404,390,380,384,2025-05-28T14:08:54.972262
1078,-0.3426,0.8808,0.2996,0.630,-0.140,-3.990,363,400,341,383,403,2025-05-28T14:08:54.972262
1079,-0.3431,0.8872,0.3128,0.560,-1.680,-4.130,395,390,360,349,405,2025-05-28T14:08:54.972262
1080,-0.3377,0.8906,0.3187,0.420,-2.765,-3.920,409,401,361,388,410,2025-05-28T14:08:54.972262
1081,-0.3284,0.8926,0.3157,0.245,-3.150,-3.500,427,410,366,392,395,2025-05-28T14:08:54.972262
1082,-0.3143,0.8891,0.3187,0.490,-2.625,-2.660,393,342,378,404,405,2025-05-28T14:08:54.972262
1083,-0.3089,0.8955,0.3265,0.350,0.175,-1.750,417,336,389,398,348,2025-05-28T14:08:54.972262
1084,-0.3152,0.8921,0.3270,0.315,2.800,-1.260,367,406,385,398,379,2025-05-28T14:08:54.972262
1085,-0.3304,0.8945,0.3348,0.875,3.990,-0.770,416,400,352,369,344,2025-05-28T14:08:54.972262
1086,-0.3431,0.9052,0.3436,0.840,3.710,-0.210,401,416,362,383,366,2025-05-28T14:08:54.972262
1087,-0.3392,0.9106,0.3387,0.700,2.975,0.350,366,350,363,405,392,2025-05-28T14:08:54.972262
1088,-0.3450,0.9155,0.3362,0.455,2.240,1.260,351,407,365,347,400,2025-05-28T14:08:54.972262
1089,-0.3445,0.9204,0.3362,-0.070,1.120,1.890,360,387,326,335,383,2025-05-28T14:08:54.972262
1090,-0.3396,0.9252,0.3392,-1.085,0.175,2.345,407,420,352,393,393,2025-05-28T14:08:54.972262
1091,-0.3382,0.9262,0.3411,-2.030,-0.700,2.835,399,421,351,402,391,2025-05-28T14:08:54.972262
1092,-0.3436,0.9267,0.3401,-2.765,-1.365,3.115,404,402,359,394,400,2025-05-28T14:08:55.072244
1093,-0.3431,0.9199,0.3362,-3.360,-2.590,3.675,359,422,327,389,387,2025-05-28T14:08:55.072244
1094,-0.3475,0.9179,0.3440,-3.605,-3.430,4.130,399,424,344,345,374,2025-05-28T14:08:55.072244
1095,-0.3436,0.9150,0.3401,-4.060,-4.165,4.305,427,405,354,336,385,2025-05-28T14:08:55.072244
1096,-0.3377,0.9023,0.3362,-4.200,-4.060,5.005,419,435,323,369,399,2025-05-28T14:08:55.072244
1097,-0.3289,0.9023,0.3431,-4.095,-3.815,5.425,394,422,352,362,367,2025-05-28T14:08:55.072244
1098,-0.3328,0.8940,0.3362,-4.130,-3.640,5.985,408,383,360,378,389,2025-05-28T14:08:55.072244
1099,-0.3294,0.8862,0.3367,-3.605,-4.095,6.090,413,411,368,402,398,2025-05-28T14:08:55.272286
1100,-0.3196,0.8838,0.3343,-3.570,-3.815,6.195,371,420,350,414,351,2025-05-28T14:08:55.272286
1101,-0.3172,0.8838,0.3279,-3.745,-2.870,6.160,405,399,360,359,370,2025-05-28T14:08:55.552203
1102,-0.3157,0.8769,0.3182,-3.360,-2.135,6.195,421,417,360,389,399,2025-05-28T14:08:55.552203
1103,-0.3123,0.8706,0.3152,-2.940,-1.540,6.580,406,431,331,344,407,2025-05-28T14:08:55.552203
1104,-0.3060,0.8725,0.3162,-2.765,-0.490,6.475,411,426,363,385,398,2025-05-28T14:08:55.552203
1105,-0.3035,0.8696,0.3109,-2.800,0.805,6.440,411,417,369,405,410,2025-05-28T14:08:55.552203
1106,-0.3006,0.8706,0.3206,-2.660,1.855,6.230,426,403,363,385,386,2025-05-28T14:08:55.552203
1107,-0.3123,0.8672,0.3270,-3.115,2.275,5.740,353,397,362,362,402,2025-05-28T14:08:55.553202
1108,-0.3260,0.8599,0.3255,-3.150,0.420,4.690,408,375,369,390,361,2025-05-28T14:08:55.553202
1109,-0.3323,0.8535,0.3216,-2.730,-2.345,3.885,388,393,365,387,396,2025-05-28T14:08:55.553202
1110,-0.3299,0.8555,0.3299,-2.310,-5.355,3.185,389,404,364,394,386,2025-05-28T14:08:55.553202
1111,-0.3133,0.8550,0.3309,-1.925,-7.280,2.310,357,408,347,397,401,2025-05-28T14:08:55.553202
1112,-0.2908,0.8535,0.3377,-1.680,-7.140,1.155,410,351,359,403,386,2025-05-28T14:08:55.553561
1113,-0.2869,0.8511,0.3357,-1.680,-5.705,0.245,402,397,363,402,401,2025-05-28T14:08:55.553561
1114,-0.2894,0.8452,0.3440,-1.505,-3.640,-0.980,392,398,365,410,411,2025-05-28T14:08:55.553561
1115,-0.3065,0.8423,0.3499,-1.085,-2.240,-2.695,397,420,329,398,357,2025-05-28T14:08:55.553561
1116,-0.3304,0.8394,0.3572,-0.945,-2.870,-3.990,413,431,359,385,370,2025-05-28T14:08:55.553561
1117,-0.3509,0.8389,0.3621,-0.560,-4.725,-5.320,366,412,370,346,379,2025-05-28T14:08:55.553561
1118,-0.3611,0.8438,0.3670,-0.140,-6.720,-6.440,407,426,366,358,387,2025-05-28T14:08:55.553561
1119,-0.3645,0.8511,0.3655,-0.070,-8.540,-7.000,418,364,335,380,386,2025-05-28T14:08:55.553561
1120,-0.3645,0.8574,0.3621,0.385,-10.360,-7.560,358,416,357,335,374,2025-05-28T14:08:55.553561
1121,-0.3548,0.8696,0.3640,0.875,-11.270,-7.245,390,405,370,371,392,2025-05-28T14:08:55.553561
1122,-0.3460,0.8833,0.3621,1.225,-10.990,-6.335,343,401,366,341,385,2025-05-28T14:08:55.553561
1123,-0.3455,0.8911,0.3518,1.540,-10.290,-5.460,394,417,368,342,381,2025-05-28T14:08:55.553561
1124,-0.3431,0.9033,0.3484,2.415,-9.660,-4.515,422,426,380,389,398,2025-05-28T14:08:55.553561
1125,-0.3406,0.9116,0.3411,3.080,-9.205,-3.675,421,403,373,407,387,2025-05-28T14:08:55.553561
1126,-0.3401,0.9209,0.3323,3.500,-9.765,-2.310,415,400,382,415,395,2025-05-28T14:08:55.553561
1127,-0.3318,0.9296,0.3338,4.025,-10.360,-0.980,399,423,365,410,408,2025-05-28T14:08:55.553561
1128,-0.3177,0.9360,0.3362,3.850,-10.255,0.245,386,431,326,355,390,2025-05-28T14:08:55.553561
1129,-0.3094,0.9350,0.3279,3.150,-9.695,1.715,399,416,315,377,388,2025-05-28T14:08:55.553561
1130,-0.3026,0.9267,0.3192,2.275,-9.450,2.660,420,386,345,377,386,2025-05-28T14:08:55.554446
1131,-0.2928,0.9238,0.3128,1.575,-9.205,3.570,399,390,325,392,382,2025-05-28T14:08:55.554446
1132,-0.2899,0.9174,0.3099,0.385,-8.505,4.270,415,400,320,386,404,2025-05-28T14:08:55.554446
1133,-0.2913,0.9106,0.3050,-0.525,-7.770,4.655,390,389,343,343,399,2025-05-28T14:08:55.554446
1134,-0.2913,0.9096,0.3109,-1.295,-7.525,4.655,408,408,366,396,366,2025-05-28T14:08:55.554446
1135,-0.2860,0.9008,0.3123,-2.100,-7.665,4.830,307,403,359,390,399,2025-05-28T14:08:55.554446
1136,-0.2786,0.8940,0.3172,-2.800,-7.490,4.480,374,346,357,410,402,2025-05-28T14:08:55.689019
1137,-0.2689,0.8886,0.3235,-3.360,-6.965,4.515,397,379,375,347,383,2025-05-28T14:08:55.689019
1138,-0.2694,0.8808,0.3240,-3.955,-5.530,4.165,405,336,335,369,394,2025-05-28T14:08:55.689019
1139,-0.2718,0.8696,0.3250,-3.990,-4.515,3.850,427,408,361,399,407,2025-05-28T14:08:55.689019
1140,-0.2747,0.8613,0.3309,-3.640,-4.060,3.500,427,417,367,385,390,2025-05-28T14:08:55.689019
1141,-0.2718,0.8618,0.3353,-3.325,-3.465,2.975,364,353,357,387,389,2025-05-28T14:08:55.689019
1142,-0.2777,0.8550,0.3328,-2.660,-3.080,2.485,397,383,368,390,405,2025-05-28T14:08:55.689019
1143,-0.2757,0.8540,0.3426,-1.540,-2.695,1.505,391,409,363,403,406,2025-05-28T14:08:55.689019
1144,-0.2772,0.8623,0.3426,-1.295,-2.240,0.385,404,428,348,398,391,2025-05-28T14:08:55.689019
1145,-0.2860,0.8584,0.3431,-0.595,-2.520,-0.315,419,394,322,397,387,2025-05-28T14:08:55.689019
1146,-0.2791,0.8618,0.3406,0.490,-2.905,-0.840,400,422,365,408,305,2025-05-28T14:08:55.689019
1147,-0.2840,0.8613,0.3392,1.120,-1.750,-1.155,416,417,358,348,362,2025-05-28T14:08:55.689019
1148,-0.2826,0.8647,0.3372,1.575,0.560,-1.330,419,429,362,407,396,2025-05-28T14:08:55.689019
1149,-0.3001,0.8667,0.3401,1.960,2.135,-1.750,386,429,375,410,358,2025-05-28T14:08:55.689019
1150,-0.3148,0.8725,0.3460,2.275,2.380,-2.100,344,413,359,409,389,2025-05-28T14:08:55.689019
1151,-0.3265,0.8764,0.3528,2.310,1.435,-2.275,400,414,333,400,305,2025-05-28T14:08:55.900329
1152,-0.3338,0.8838,0.3470,2.310,-0.665,-2.450,396,422,362,401,351,2025-05-28T14:08:55.900329
1153,-0.3333,0.8867,0.3509,2.485,-2.800,-2.415,415,406,377,410,380,2025-05-28T14:08:55.900329
1154,-0.3226,0.8886,0.3514,2.310,-3.605,-2.030,406,419,384,309,370,2025-05-28T14:08:55.900329
1155,-0.3172,0.8906,0.3475,1.925,-3.080,-1.890,403,410,349,372,402,2025-05-28T14:08:55.900329
1156,-0.3187,0.8896,0.3431,1.540,-1.715,-1.575,348,411,325,401,404,2025-05-28T14:08:55.900329
1157,-0.3270,0.8906,0.3514,1.505,-0.910,-1.470,382,431,348,349,389,2025-05-28T14:08:55.900329
1158,-0.3333,0.8950,0.3514,1.225,-0.805,-1.330,414,382,330,377,391,2025-05-28T14:08:55.900329
1159,-0.3440,0.8965,0.3523,1.085,-1.925,-1.400,341,391,339,377,390,2025-05-28T14:08:55.900329
1160,-0.3499,0.9004,0.3504,1.120,-3.395,-1.645,413,346,362,386,388,2025-05-28T14:08:55.900329
1161,-0.3416,0.8974,0.3538,0.980,-5.530,-1.400,342,406,377,399,388,2025-05-28T14:08:55.900329
1162,-0.3396,0.8994,0.3489,0.630,-7.245,-1.295,406,369,369,380,345,2025-05-28T14:08:55.900329
1163,-0.3211,0.8965,0.3436,0.560,-8.015,-1.190,337,412,363,382,332,2025-05-28T14:08:55.900329
1164,-0.3133,0.9018,0.3431,0.000,-7.525,-0.735,383,422,365,343,378,2025-05-28T14:08:55.900329
1165,-0.3065,0.9018,0.3328,-0.665,-6.125,-0.280,415,407,372,396,404,2025-05-28T14:08:55.900329
1166,-0.3089,0.8969,0.3323,-1.015,-5.005,-0.175,405,388,350,404,401,2025-05-28T14:08:55.900329
1167,-0.3138,0.8950,0.3362,-0.980,-4.340,-0.385,418,303,366,415,411,2025-05-28T14:08:55.900329
1168,-0.3265,0.8896,0.3377,-1.190,-4.690,-0.735,406,393,377,404,349,2025-05-28T14:08:55.900329
1169,-0.3221,0.8852,0.3328,-1.050,-6.265,-0.455,409,418,373,394,290,2025-05-28T14:08:56.121200
1170,-0.3182,0.8847,0.3314,-1.225,-7.280,-0.245,378,409,371,405,356,2025-05-28T14:08:56.121200
1171,-0.3104,0.8867,0.3348,-1.190,-6.440,-0.525,390,409,382,350,375,2025-05-28T14:08:56.121200
1172,-0.3060,0.8872,0.3372,-1.470,-5.880,-0.420,403,431,338,382,402,2025-05-28T14:08:56.121200
1173,-0.3065,0.8843,0.3328,-1.575,-5.495,-0.455,406,427,364,391,386,2025-05-28T14:08:56.121200
1174,-0.3030,0.8847,0.3411,-1.470,-5.145,-0.350,406,429,365,396,394,2025-05-28T14:08:56.121200
1175,-0.3021,0.8823,0.3411,-1.855,-4.375,-0.105,422,409,363,402,399,2025-05-28T14:08:56.121200
1176,-0.3133,0.8784,0.3289,-1.960,-4.795,-0.105,404,421,363,400,350,2025-05-28T14:08:56.121200
1177,-0.3065,0.8735,0.3318,-1.680,-5.880,0.455,356,383,376,406,386,2025-05-28T14:08:56.121200
1178,-0.2991,0.8799,0.3338,-1.505,-5.635,0.910,390,424,378,399,398,2025-05-28T14:08:56.121200
1179,-0.2899,0.8755,0.3309,-1.400,-4.060,1.120,415,405,381,397,346,2025-05-28T14:08:56.121200
1180,-0.2904,0.8804,0.3323,-1.155,-2.380,1.645,402,402,374,407,389,2025-05-28T14:08:56.121200
1181,-0.2928,0.8813,0.3431,-0.910,-1.190,2.030,391,405,375,390,355,2025-05-28T14:08:56.121200
1182,-0.2913,0.8823,0.3470,-1.015,-0.525,2.275,385,421,363,389,397,2025-05-28T14:08:56.121200
1183,-0.2874,0.8779,0.3406,-0.840,0.245,2.310,414,404,379,403,394,2025-05-28T14:08:56.121200
1184,-0.2918,0.8789,0.3416,-0.455,0.700,2.310,402,394,383,396,405,2025-05-28T14:08:56.121200
1185,-0.2991,0.8784,0.3465,-0.105,0.280,1.750,415,412,374,415,414,2025-05-28T14:08:56.121200
1186,-0.2991,0.8838,0.3514,-0.070,-1.085,0.875,412,425,367,406,398,2025-05-28T14:08:56.339270
1187,-0.2991,0.8789,0.3475,0.210,-2.275,0.350,373,343,376,364,399,2025-05-28T14:08:56.339270
1188,-0.3016,0.8808,0.3460,0.315,-3.080,-0.210,405,406,385,335,387,2025-05-28T14:08:56.339270
1189,-0.3016,0.8794,0.3475,0.595,-2.975,-1.085,398,352,385,370,392,2025-05-28T14:08:56.339270
1190,-0.2952,0.8799,0.3489,0.525,-2.380,-1.400,380,420,349,334,347,2025-05-28T14:08:56.339270
1191,-0.2977,0.8804,0.3499,0.175,-1.295,-1.890,416,431,355,364,350,2025-05-28T14:08:56.339270
1192,-0.3030,0.8804,0.3509,0.000,-0.070,-1.890,416,420,369,334,389,2025-05-28T14:08:56.339270
1193,-0.3231,0.8818,0.3538,-0.350,-0.105,-1.890,404,400,369,375,392,2025-05-28T14:08:56.339270
1194,-0.3289,0.8779,0.3489,-0.560,-1.295,-1.925,426,426,375,385,389,2025-05-28T14:08:56.339270
1195,-0.3328,0.8823,0.3528,-0.700,-2.730,-1.785,424,415,363,376,390,2025-05-28T14:08:56.339270
1196,-0.3299,0.8799,0.3577,-0.840,-3.430,-1.785,424,427,376,361,402,2025-05-28T14:08:56.339270
1197,-0.3221,0.8833,0.3523,-1.120,-3.115,-1.820,431,432,373,390,420,2025-05-28T14:08:56.339270
1198,-0.3304,0.8799,0.3470,-1.085,-3.255,-1.610,385,425,359,403,393,2025-05-28T14:08:56.339270
1199,-0.3353,0.8818,0.3504,-0.630,-3.430,-1.820,389,399,359,415,382,2025-05-28T14:08:56.339270
1200,-0.3357,0.8808,0.3543,-0.385,-3.955,-1.820,406,349,339,348,359,2025-05-28T14:08:56.339270
1201,-0.3314,0.8794,0.3499,-0.280,-5.075,-1.365,394,412,314,378,377,2025-05-28T14:08:56.339270
1202,-0.3211,0.8760,0.3509,-0.035,-5.425,-0.805,409,403,346,347,386,2025-05-28T14:08:56.339270
1203,-0.3123,0.8760,0.3470,-0.175,-4.410,-0.665,406,420,361,390,354,2025-05-28T14:08:56.339270
1204,-0.3128,0.8779,0.3445,-0.035,-3.430,-0.385,404,434,334,403,377,2025-05-28T14:08:56.339270
1205,-0.3104,0.8755,0.3436,0.210,-3.045,-0.280,340,399,360,415,383,2025-05-28T14:08:56.339270
1206,-0.3089,0.8843,0.3470,0.105,-2.555,-0.245,395,406,368,314,396,2025-05-28T14:08:56.506010
1207,-0.3074,0.8828,0.3406,0.210,-2.170,-0.315,393,424,374,323,405,2025-05-28T14:08:56.506010
1208,-0.3148,0.8828,0.3377,0.525,-3.150,-0.315,420,425,359,358,393,2025-05-28T14:08:56.506010
1209,-0.3089,0.8838,0.3372,0.840,-4.270,0.070,430,410,373,376,365,2025-05-28T14:08:56.506010
1210,-0.3030,0.8872,0.3387,0.910,-4.165,-8.925,417,406,372,340,337,2025-05-28T14:08:56.506010
1211,-0.2991,0.8838,0.3353,0.770,-3.010,0.035,416,355,362,397,379,2025-05-28T14:08:56.506010
1212,-0.3006,0.8843,0.3387,0.630,-1.820,0.070,418,414,334,412,367,2025-05-28T14:08:56.506010
1213,-0.3070,0.8843,0.3479,0.350,-1.260,-0.315,401,345,355,407,388,2025-05-28T14:08:56.506010
1214,-0.3055,0.8808,0.3455,-0.280,-1.470,0.000,407,412,373,406,391,2025-05-28T14:08:56.506010
1215,-0.3138,0.8804,0.3484,-0.175,-2.765,0.140,416,398,338,415,396,2025-05-28T14:08:56.506010
1216,-0.3148,0.8740,0.3475,-0.140,-3.500,0.245,357,395,367,401,381,2025-05-28T14:08:56.506010
1217,-0.3001,0.8808,0.3450,-0.245,-2.765,0.840,400,421,370,350,389,2025-05-28T14:08:56.506010
1218,-0.3016,0.8804,0.3475,-0.210,-1.435,0.840,394,429,372,379,410,2025-05-28T14:08:56.506010
1219,-0.3143,0.8764,0.3518,0.105,-0.315,0.700,408,409,376,404,409,2025-05-28T14:08:56.506010
1220,-0.3192,0.8784,0.3538,0.525,-0.525,0.630,416,422,377,412,372,2025-05-28T14:08:56.506010
1221,-0.3279,0.8799,0.3562,0.805,-1.995,0.490,425,409,379,400,357,2025-05-28T14:08:56.705531
1222,-0.3255,0.8745,0.3572,1.330,-3.010,0.140,407,402,377,406,393,2025-05-28T14:08:56.705531
1223,-0.3177,0.8735,0.3543,2.065,-3.745,0.140,401,409,374,366,347,2025-05-28T14:08:56.705531
1224,-0.3138,0.8716,0.3533,2.170,-3.220,0.280,414,431,376,356,384,2025-05-28T14:08:56.705531
1225,-0.3104,0.8677,0.3436,2.065,-1.645,-0.070,367,412,368,400,406,2025-05-28T14:08:56.705531
1226,-0.3162,0.8560,0.3348,2.100,-0.735,-0.805,417,418,366,348,411,2025-05-28T14:08:56.705531
1227,-0.3226,0.8486,0.3387,2.450,-0.805,-1.540,420,429,374,394,403,2025-05-28T14:08:56.705531
1228,-0.3182,0.8408,0.3436,2.450,-1.785,-2.275,426,390,380,362,402,2025-05-28T14:08:56.705531
1229,-0.3172,0.8345,0.3416,2.660,-2.695,-3.430,414,428,352,402,397,2025-05-28T14:08:56.705531
1230,-0.3157,0.8267,0.3426,2.940,-3.080,-4.935,416,412,366,407,408,2025-05-28T14:08:56.705531
1231,-0.3089,0.8120,0.3421,2.975,-3.080,-7.000,417,392,378,358,403,2025-05-28T14:08:56.705531
1232,-0.3045,0.7915,0.3382,3.150,-3.080,-17.710,417,423,388,349,406,2025-05-28T14:08:56.705531
1233,-0.3026,0.7706,0.3338,3.500,-3.255,-10.920,395,429,375,381,388,2025-05-28T14:08:56.705531
1234,-0.2840,0.7393,0.3396,3.990,-3.045,-13.650,377,422,376,393,388,2025-05-28T14:08:56.705531
1235,-0.2494,0.6861,0.3338,4.095,-1.260,-16.800,340,406,376,364,388,2025-05-28T14:08:56.705531
1236,-0.1889,0.6046,0.3216,4.340,1.575,-20.895,395,416,371,381,387,2025-05-28T14:08:56.705531
1237,-0.0874,0.5046,0.2928,4.270,10.920,-25.060,396,358,362,404,309,2025-05-28T14:08:56.954173
1238,0.0620,0.4124,0.2611,4.480,29.750,-32.305,409,388,380,376,357,2025-05-28T14:08:56.954173
1239,0.2733,0.2938,0.2162,6.265,60.375,-42.455,417,415,370,349,384,2025-05-28T14:08:56.954173
1240,0.4514,0.1488,0.1313,9.310,102.830,-57.645,370,408,373,390,398,2025-05-28T14:08:56.954173
1241,0.6764,0.0298,0.0342,15.470,155.295,-75.810,413,412,330,369,395,2025-05-28T14:08:56.954437
1242,0.9209,-0.0259,-0.0415,25.515,199.255,-96.810,405,422,344,403,404,2025-05-28T14:08:56.954437
1243,1.1058,-0.0425,-0.1449,41.685,272.580,-111.125,403,410,368,371,398,2025-05-28T14:08:56.954437
1244,1.2532,-0.0024,-0.3396,65.555,355.600,-129.220,374,409,369,399,397,2025-05-28T14:08:56.954533
1245,1.3806,0.0693,-0.5402,97.055,440.510,-144.725,402,305,365,388,344,2025-05-28T14:08:56.954533
1246,1.3762,0.2606,-0.7252,131.040,516.845,-157.710,372,392,343,403,381,2025-05-28T14:08:56.954533
1247,1.4108,0.5680,-0.9994,159.110,584.605,-157.255,402,342,286,394,391,2025-05-28T14:08:56.954533
1248,1.3542,1.0331,-1.2976,191.660,653.870,-143.045,402,367,326,405,406,2025-05-28T14:08:56.954533
1249,1.0731,1.6167,-1.5426,215.390,706.125,-121.555,422,422,363,346,412,2025-05-28T14:08:56.954533
1250,0.5714,2.1418,-1.6182,220.850,743.890,-106.610,410,437,357,330,401,2025-05-28T14:08:56.954533
1251,-0.0917,2.8729,-1.5284,208.600,732.585,-89.460,413,406,375,367,408,2025-05-28T14:08:57.064890
1252,-0.6969,3.1417,-1.5606,182.980,673.995,-80.360,420,410,379,378,404,2025-05-28T14:08:57.064890
1253,-0.9755,3.5195,-1.6548,137.585,560.875,-81.480,430,423,380,406,394,2025-05-28T14:08:57.064890
1254,-1.0087,3.7625,-1.9964,84.945,452.480,-76.440,405,410,351,405,398,2025-05-28T14:08:57.064890
1255,-0.9267,3.7732,-2.6947,38.605,374.675,-71.575,406,427,350,415,387,2025-05-28T14:08:57.064890
1256,-0.9550,3.4760,-3.4389,-20.370,331.415,-53.200,427,425,369,403,394,2025-05-28T14:08:57.064890
1257,-0.8135,3.1422,-3.9157,-85.190,280.980,-34.300,398,383,377,396,397,2025-05-28T14:08:57.206090
1258,-0.5724,2.5205,-4.3125,-158.760,245.630,-9.135,411,422,384,408,412,2025-05-28T14:08:57.206090
1259,-0.6915,2.1223,-4.2217,-239.610,218.575,-15.400,356,380,372,393,411,2025-05-28T14:08:57.206090
1260,-0.9501,1.2878,-4.2612,-303.170,167.895,-13.545,400,431,376,408,359,2025-05-28T14:08:57.206090
1261,-1.3713,0.4621,-3.8152,-344.610,95.655,-15.645,410,416,330,361,375,2025-05-28T14:08:57.206090
1262,-1.5572,-0.3475,-3.2208,-352.415,-17.850,4.480,424,412,350,382,359,2025-05-28T14:08:57.206090
1263,-1.4264,-1.2146,-2.4878,-337.400,-93.450,27.895,344,395,320,395,386,2025-05-28T14:08:57.206090
1264,-0.9038,-2.2028,-1.9169,-298.830,-96.040,48.300,372,399,345,396,351,2025-05-28T14:08:57.206090
1265,-0.6080,-3.0573,-1.3991,-250.005,-57.260,49.595,412,434,374,395,370,2025-05-28T14:08:57.206090
1266,-0.3977,-3.4062,-0.7091,-198.940,25.445,24.045,408,387,374,417,371,2025-05-28T14:08:57.206090
1267,-0.5944,-3.3979,0.0132,-150.535,65.940,-14.630,395,401,367,404,358,2025-05-28T14:08:57.206090
1268,-1.1951,-3.4497,0.4412,-106.365,15.925,-55.440,424,429,376,389,388,2025-05-28T14:08:57.206090
1269,-1.5357,-3.1749,0.6681,-45.185,-132.860,-87.220,402,412,384,368,405,2025-05-28T14:08:57.206090
1270,-1.2224,-2.7465,0.7149,3.220,-292.145,-105.875,400,379,374,408,398,2025-05-28T14:08:57.206090
1271,-0.5495,-2.2233,0.5485,59.780,-341.355,-117.600,407,408,387,411,411,2025-05-28T14:08:57.206090
1272,0.0215,-1.7588,0.1932,110.005,-314.755,-123.725,403,347,371,406,410,2025-05-28T14:08:57.206090
1273,0.1684,-1.2937,-0.0473,157.605,-225.015,-124.285,415,412,303,408,369,2025-05-28T14:08:57.206090
1274,0.0132,-0.9179,-0.2508,198.695,-153.825,-120.575,400,418,352,390,385,2025-05-28T14:08:57.206090
