SeqNum,AccX,AccY,AccZ,GyroX,GyroY,GyroZ,Flex,Force1,Force2,Force3,Force4,TimestampReception
1,0.0956,0.2050,1.0004,0.280,-4.130,-0.210,1.00,0.01,0.00,0.01,0.00,2025-06-06T10:43:04.959030
2,-0.8125,-0.0971,0.6032,0.035,-4.760,-0.245,1.00,0.00,0.00,0.02,0.00,2025-06-06T10:43:04.959030
3,-0.8125,-0.0932,0.6041,0.525,-4.900,-0.140,2.00,0.01,0.01,0.02,0.00,2025-06-06T10:43:04.959030
4,-0.8125,-0.0991,0.6017,0.315,-4.690,-0.385,0.00,0.00,0.01,0.00,0.00,2025-06-06T10:43:04.959030
5,-0.8125,-0.0971,0.6017,0.315,-4.445,-0.315,1.00,0.01,0.01,0.00,0.00,2025-06-06T10:43:04.959030
6,-0.8120,-0.0991,0.6080,0.175,-4.130,-0.280,2.00,0.01,0.01,0.01,0.01,2025-06-06T10:43:04.959030
7,-0.8174,-0.0956,0.6002,0.140,-3.920,-0.420,0.00,0.00,0.01,0.00,0.00,2025-06-06T10:43:04.959030
8,-0.8125,-0.0981,0.6080,0.070,-3.990,-0.350,2.00,0.00,0.00,0.00,0.01,2025-06-06T10:43:04.959030
9,-0.8154,-0.0996,0.6041,0.070,-3.780,-0.420,2.00,0.00,0.01,0.00,0.00,2025-06-06T10:43:04.959030
10,-0.8101,-0.0976,0.6085,0.280,-3.920,-0.385,0.00,0.00,0.00,0.00,0.01,2025-06-06T10:43:04.959030
11,-0.8150,-0.1000,0.6032,0.245,-3.955,-0.420,0.00,0.01,0.00,0.00,0.00,2025-06-06T10:43:04.959030
12,-0.8159,-0.0956,0.6037,0.105,-3.885,-0.385,2.00,0.00,0.00,0.00,0.00,2025-06-06T10:43:04.959030
13,-0.8159,-0.0971,0.6071,-0.035,-3.885,-0.385,3.00,0.00,0.01,0.01,0.00,2025-06-06T10:43:04.959030
14,-0.8125,-0.0996,0.6051,-0.070,-3.955,-0.385,2.00,0.00,0.00,0.01,0.00,2025-06-06T10:43:04.959030
15,-0.8135,-0.0976,0.6027,0.315,-3.990,-0.350,2.00,0.01,0.00,0.00,0.00,2025-06-06T10:43:04.959030
16,-0.8125,-0.1005,0.6027,0.385,-4.200,-0.280,1.00,0.01,0.00,0.01,0.00,2025-06-06T10:43:04.959030
17,-0.8135,-0.0991,0.6002,0.035,-3.955,-0.350,0.00,0.00,0.00,0.01,0.00,2025-06-06T10:43:04.959030
18,-0.8135,-0.0942,0.6017,0.035,-4.130,-0.350,1.00,0.00,0.00,0.01,0.00,2025-06-06T10:43:04.959030
19,-0.8111,-0.0991,0.6041,0.385,-4.340,-0.420,5.00,0.01,0.00,0.01,0.00,2025-06-06T10:43:04.959030
20,-0.8169,-0.0986,0.6022,0.350,-4.305,-0.315,2.00,0.00,0.00,0.01,0.01,2025-06-06T10:43:04.959030
21,-0.8111,-0.0981,0.6046,0.245,-4.410,-0.280,2.00,0.00,0.00,0.00,0.01,2025-06-06T10:43:04.959030
22,-0.8154,-0.0996,0.6017,0.140,-4.410,-0.245,0.00,0.01,0.01,0.02,0.00,2025-06-06T10:43:05.186991
23,-0.8169,-0.0947,0.6041,0.175,-4.410,-0.385,2.00,0.01,0.01,0.01,0.00,2025-06-06T10:43:05.186991
24,-0.8140,-0.0996,0.6032,0.245,-4.270,-0.350,0.00,0.01,0.01,0.00,0.01,2025-06-06T10:43:05.186991
25,-0.8140,-0.0981,0.6027,0.245,-4.235,-0.280,1.00,0.01,0.00,0.00,0.00,2025-06-06T10:43:05.186991
26,-0.8154,-0.0956,0.6027,0.315,-4.270,-0.315,2.00,0.01,0.00,0.02,0.00,2025-06-06T10:43:05.186991
27,-0.8120,-0.0971,0.6056,0.315,-4.130,-0.385,1.00,0.01,0.00,0.00,0.00,2025-06-06T10:43:05.186991
28,-0.8150,-0.0986,0.6037,0.070,-3.990,-0.280,1.00,0.01,0.00,0.01,0.00,2025-06-06T10:43:05.186991
29,-0.8145,-0.0976,0.6051,0.665,-4.340,-0.350,2.00,0.00,0.01,0.01,0.00,2025-06-06T10:43:05.186991
30,-0.8174,-0.0991,0.6022,0.945,-4.760,-0.525,0.00,0.01,0.00,0.00,0.00,2025-06-06T10:43:05.186991
31,-0.8125,-0.0986,0.6041,0.070,-4.480,-0.350,1.00,0.00,0.00,0.00,0.00,2025-06-06T10:43:05.186991
32,-0.8140,-0.0947,0.6056,-0.805,-3.815,-0.210,1.00,0.00,0.01,0.01,0.00,2025-06-06T10:43:05.186991
33,-0.8150,-0.0981,0.6012,0.385,-4.235,-0.280,5.00,0.00,0.01,0.01,0.00,2025-06-06T10:43:05.186991
34,-0.8130,-0.0952,0.6027,0.350,-4.375,-0.245,2.00,0.00,0.00,0.00,0.00,2025-06-06T10:43:05.186991
35,-0.8140,-0.0971,0.6027,0.315,-4.270,-0.350,1.00,0.00,0.00,0.01,0.00,2025-06-06T10:43:05.186991
36,-0.8130,-0.0971,0.6041,0.070,-3.955,-0.350,2.00,0.00,0.00,0.01,0.00,2025-06-06T10:43:05.186991
37,-0.8140,-0.0981,0.6027,0.105,-3.885,-0.350,2.00,0.00,0.01,0.01,0.00,2025-06-06T10:43:05.186991
38,-0.8130,-0.0961,0.6071,0.280,-4.025,-0.385,1.00,0.01,0.01,0.01,0.01,2025-06-06T10:43:05.395813
39,-0.8154,-0.0952,0.6032,0.175,-3.955,-0.385,2.00,0.00,0.01,0.02,0.00,2025-06-06T10:43:05.395813
40,-0.8154,-0.0961,0.6071,0.420,-4.305,-0.315,0.00,0.01,0.01,0.01,0.00,2025-06-06T10:43:05.395813
41,-0.8159,-0.0976,0.6046,0.070,-4.445,-0.315,2.00,0.00,0.01,0.01,0.00,2025-06-06T10:43:05.395813
42,-0.8164,-0.0966,0.6041,0.070,-4.270,-0.280,1.00,0.01,0.00,0.01,0.01,2025-06-06T10:43:05.395813
43,-0.8125,-0.0966,0.6056,0.105,-4.410,-0.315,0.00,0.00,0.00,0.01,0.00,2025-06-06T10:43:05.395813
44,-0.8145,-0.0961,0.6012,0.455,-4.585,-0.315,0.00,0.00,0.01,0.01,0.00,2025-06-06T10:43:05.395813
45,-0.8130,-0.0966,0.6061,0.245,-4.480,-0.280,1.00,0.00,0.00,0.02,0.00,2025-06-06T10:43:05.395813
46,-0.8145,-0.0981,0.6037,0.210,-4.340,-0.350,2.00,0.00,0.00,0.01,0.00,2025-06-06T10:43:05.395813
47,-0.8140,-0.0971,0.6027,0.035,-3.955,-0.245,3.00,0.00,0.00,0.00,0.00,2025-06-06T10:43:05.395813
48,-0.8164,-0.0976,0.6032,0.315,-3.920,-0.455,1.00,0.00,0.00,0.01,0.00,2025-06-06T10:43:05.395813
49,-0.8154,-0.1005,0.6022,0.420,-4.025,-0.420,2.00,0.00,0.00,0.00,0.00,2025-06-06T10:43:05.395813
50,-0.8145,-0.0976,0.6032,0.175,-3.990,-0.315,3.00,0.00,0.00,0.00,0.00,2025-06-06T10:43:05.395813
51,-0.8150,-0.0966,0.6022,0.105,-3.850,-0.350,1.00,0.00,0.01,0.02,0.00,2025-06-06T10:43:05.395813
52,-0.8150,-0.0971,0.6012,0.000,-3.920,-0.315,0.00,0.01,0.00,0.00,0.00,2025-06-06T10:43:05.395813
53,-0.8154,-0.0971,0.6022,0.175,-4.130,-0.385,1.00,0.00,0.01,0.02,0.00,2025-06-06T10:43:05.395813
54,-0.8140,-0.0981,0.6032,0.350,-4.340,-0.350,2.00,0.00,0.01,0.00,0.01,2025-06-06T10:43:05.496165
55,-0.8159,-0.0952,0.6037,0.350,-4.445,-0.315,2.00,0.01,0.01,0.01,0.00,2025-06-06T10:43:05.496165
56,-0.8140,-0.0971,0.6012,0.175,-4.445,-0.315,0.00,0.00,0.00,0.03,0.01,2025-06-06T10:43:05.496165
57,-0.8115,-0.0981,0.6046,0.105,-4.235,-0.280,2.00,0.01,0.01,0.00,0.00,2025-06-06T10:43:05.496165
58,-0.8164,-0.0956,0.6027,0.420,-4.340,-0.280,2.00,0.01,0.02,0.01,0.01,2025-06-06T10:43:05.496165
59,-0.8125,-0.0952,0.6027,0.280,-4.305,-0.385,2.00,0.00,0.01,0.00,0.00,2025-06-06T10:43:05.496165
60,-0.8145,-0.0976,0.6051,0.140,-4.270,-0.280,1.00,0.00,0.00,0.01,0.00,2025-06-06T10:43:05.496165
61,-0.8135,-0.0981,0.6046,0.000,-4.130,-0.385,2.00,0.00,0.00,0.01,0.00,2025-06-06T10:43:05.496165
62,-0.8130,-0.0966,0.6032,0.175,-4.165,-0.280,0.00,0.00,0.01,0.00,0.00,2025-06-06T10:43:05.601153
63,-0.8159,-0.0976,0.6056,0.350,-4.410,-0.350,2.00,0.00,0.02,0.01,0.00,2025-06-06T10:43:05.601153
64,-0.8130,-0.0971,0.6032,0.245,-4.340,-0.385,1.00,0.01,0.00,0.01,0.01,2025-06-06T10:43:05.601153
65,-0.8135,-0.0996,0.6046,0.175,-4.305,-0.350,3.00,0.00,0.01,0.00,0.01,2025-06-06T10:43:05.601153
66,-0.8179,-0.0971,0.6051,0.105,-4.165,-0.350,1.00,0.00,0.01,0.01,0.01,2025-06-06T10:43:05.601153
67,-0.8135,-0.0956,0.6041,0.210,-4.130,-0.175,3.00,0.01,0.02,0.01,0.00,2025-06-06T10:43:05.601153
68,-0.8150,-0.1015,0.6017,0.175,-4.025,-0.350,0.00,0.00,0.00,0.02,0.00,2025-06-06T10:43:05.601153
69,-0.8150,-0.0956,0.6017,0.140,-3.990,-0.385,2.00,0.01,0.01,0.03,0.00,2025-06-06T10:43:05.601153
70,-0.8140,-0.0976,0.6027,0.140,-3.990,-0.350,0.00,0.01,0.01,0.00,0.00,2025-06-06T10:43:05.650220
71,-0.8140,-0.0966,0.6027,0.315,-4.060,-0.315,4.00,0.00,0.00,0.03,0.00,2025-06-06T10:43:05.650220
72,-0.8154,-0.0981,0.6032,0.070,-4.130,-0.280,1.00,0.01,0.00,0.01,0.01,2025-06-06T10:43:05.650220
73,-0.8150,-0.0976,0.6022,0.210,-4.130,-0.210,0.00,0.00,0.01,0.01,0.00,2025-06-06T10:43:05.650220
74,-0.8140,-0.0991,0.6037,0.210,-4.340,-0.350,1.00,0.01,0.01,0.02,0.00,2025-06-06T10:43:05.801466
75,-0.8130,-0.0971,0.6022,0.175,-4.550,-0.315,2.00,0.00,0.01,0.01,0.00,2025-06-06T10:43:05.801466
76,-0.8130,-0.0976,0.6027,0.210,-4.550,-0.210,3.00,0.00,0.00,0.00,0.00,2025-06-06T10:43:05.801466
77,-0.8140,-0.0991,0.6041,0.140,-4.410,-0.280,1.00,0.01,0.01,0.01,0.00,2025-06-06T10:43:05.801466
78,-0.8145,-0.0966,0.6017,0.175,-4.305,-0.210,1.00,0.00,0.00,0.01,0.00,2025-06-06T10:43:05.801466
79,-0.8140,-0.0986,0.6056,0.350,-4.270,-0.420,0.00,0.01,0.02,0.00,0.01,2025-06-06T10:43:05.801466
80,-0.8154,-0.0976,0.6046,0.245,-4.130,-0.350,2.00,0.00,0.00,0.00,0.00,2025-06-06T10:43:05.801466
81,-0.8145,-0.0956,0.6027,0.210,-4.060,-0.280,4.00,0.00,0.00,0.00,0.00,2025-06-06T10:43:05.801466
82,-0.8150,-0.0986,0.6032,0.105,-3.990,-0.280,2.00,0.00,0.00,0.00,0.00,2025-06-06T10:43:05.801466
83,-0.8145,-0.0986,0.6012,0.140,-4.025,-0.315,3.00,0.00,0.00,0.01,0.00,2025-06-06T10:43:05.801466
84,-0.8169,-0.0981,0.6022,0.210,-4.095,-0.385,1.00,0.00,0.01,0.01,0.00,2025-06-06T10:43:05.801466
85,-0.8115,-0.0986,0.6051,0.105,-4.060,-0.315,0.00,0.00,0.00,0.01,0.00,2025-06-06T10:43:05.801466
86,-0.8145,-0.0986,0.6012,-0.035,-4.060,-0.245,5.00,0.01,0.00,0.01,0.01,2025-06-06T10:43:05.849975
87,-0.8174,-0.0942,0.6041,0.315,-4.305,-0.280,4.00,0.01,0.00,0.01,0.00,2025-06-06T10:43:05.849975
88,-0.8135,-0.0956,0.5998,0.175,-4.340,-0.420,7.00,0.01,0.02,0.02,0.00,2025-06-06T10:43:05.849975
89,-0.8145,-0.0976,0.6007,0.280,-4.270,-0.245,2.00,0.01,0.00,0.00,0.01,2025-06-06T10:43:05.904612
90,-0.8174,-0.1020,0.6017,0.140,-4.410,-0.315,4.00,0.01,0.00,0.00,0.00,2025-06-06T10:43:05.904612
91,-0.8120,-0.0971,0.6041,0.210,-3.885,-0.315,0.00,0.01,0.00,0.02,0.01,2025-06-06T10:43:05.904612
92,-0.8145,-0.0981,0.6012,0.070,-3.885,-0.245,2.00,0.01,0.01,0.00,0.00,2025-06-06T10:43:05.904612
93,-0.8164,-0.0947,0.6017,0.140,-3.850,-0.385,0.00,0.01,0.00,0.03,0.00,2025-06-06T10:43:06.007059
94,-0.8140,-0.0956,0.6017,0.245,-4.095,-0.350,2.00,0.01,0.00,0.00,0.00,2025-06-06T10:43:06.007059
95,-0.8140,-0.0971,0.6022,0.490,-4.270,-0.420,2.00,0.01,0.01,0.00,0.00,2025-06-06T10:43:06.007059
96,-0.8174,-0.0966,0.6022,0.105,-4.200,-0.175,2.00,0.01,0.02,0.00,0.01,2025-06-06T10:43:06.007059
97,-0.8140,-0.0956,0.6037,0.245,-4.480,-0.315,1.00,0.01,0.00,0.00,0.01,2025-06-06T10:43:06.007059
98,-0.8159,-0.0976,0.6041,0.105,-4.550,-0.350,1.00,0.00,0.01,0.01,0.00,2025-06-06T10:43:06.007059
99,-0.8140,-0.0986,0.6027,0.280,-4.550,-0.280,2.00,0.01,0.02,0.01,0.01,2025-06-06T10:43:06.007059
100,-0.8130,-0.0966,0.6041,0.280,-4.340,-0.245,1.00,0.00,0.00,0.01,0.00,2025-06-06T10:43:06.007059
101,-0.8154,-0.0976,0.6032,0.175,-4.095,-0.280,2.00,0.00,0.01,0.01,0.00,2025-06-06T10:43:06.111510
102,-0.8184,-0.0956,0.6046,0.245,-4.130,-0.280,2.00,0.00,0.01,0.02,0.00,2025-06-06T10:43:06.111510
103,-0.8096,-0.1000,0.5978,0.035,-3.990,-0.560,3.00,0.00,0.00,0.01,0.00,2025-06-06T10:43:06.111510
104,-0.8145,-0.0961,0.5998,0.350,-3.885,-0.210,2.00,0.01,0.00,0.02,0.00,2025-06-06T10:43:06.111510
105,-0.8130,-0.0981,0.6032,0.140,-4.270,-0.420,0.00,0.01,0.03,0.01,0.00,2025-06-06T10:43:06.111510
106,-0.8169,-0.0961,0.6007,0.420,-4.305,-0.315,0.00,0.01,0.00,0.01,0.00,2025-06-06T10:43:06.111510
107,-0.8145,-0.0971,0.6022,-0.105,-4.410,-0.245,1.00,0.00,0.00,0.01,0.00,2025-06-06T10:43:06.111510
108,-0.8120,-0.0971,0.6032,0.350,-4.340,-0.315,0.00,0.01,0.00,0.01,0.00,2025-06-06T10:43:06.111510
109,-0.8159,-0.0976,0.6007,0.280,-4.340,-0.210,2.00,0.01,0.00,0.00,0.00,2025-06-06T10:43:06.214608
110,-0.8130,-0.0966,0.6002,0.175,-4.305,-0.280,1.00,0.01,0.00,0.00,0.01,2025-06-06T10:43:06.214608
111,-0.8159,-0.0966,0.6061,0.315,-4.165,-0.280,0.00,0.01,0.00,0.01,0.00,2025-06-06T10:43:06.214608
112,-0.8145,-0.0971,0.6017,-0.175,-4.025,-0.490,1.00,0.00,0.00,0.00,0.00,2025-06-06T10:43:06.214608
113,-0.8154,-0.0952,0.6022,0.210,-3.885,-0.315,0.00,0.00,0.02,0.00,0.00,2025-06-06T10:43:06.214608
114,-0.8145,-0.0976,0.6027,0.210,-4.165,-0.315,1.00,0.00,0.01,0.00,0.00,2025-06-06T10:43:06.214608
115,-0.8159,-0.0961,0.6022,0.245,-4.235,-0.420,2.00,0.01,0.01,0.01,0.00,2025-06-06T10:43:06.214608
116,-0.8145,-0.0981,0.6022,-0.035,-4.200,-0.315,0.00,0.00,0.00,0.00,0.00,2025-06-06T10:43:06.214608
117,-0.8135,-0.0966,0.6032,0.210,-4.445,-0.210,2.00,0.00,0.01,0.00,0.01,2025-06-06T10:43:06.410116
118,-0.8145,-0.0976,0.5998,0.350,-4.655,-0.315,3.00,0.00,0.00,0.01,0.01,2025-06-06T10:43:06.410116
119,-0.8140,-0.0956,0.6032,0.350,-4.690,-0.315,1.00,0.01,0.01,0.01,0.01,2025-06-06T10:43:06.410116
120,-0.8154,-0.0991,0.6002,0.175,-4.550,-0.210,0.00,0.01,0.00,0.00,0.01,2025-06-06T10:43:06.410116
121,-0.8106,-0.0961,0.6051,0.315,-4.305,-0.210,1.00,0.01,0.00,0.01,0.00,2025-06-06T10:43:06.410116
122,-0.8189,-0.0981,0.6012,0.210,-3.955,-0.350,1.00,0.00,0.01,0.02,0.00,2025-06-06T10:43:06.410116
123,-0.8111,-0.0971,0.6022,-0.070,-3.885,-0.420,0.00,0.00,0.00,0.01,0.00,2025-06-06T10:43:06.410116
124,-0.8169,-0.0966,0.6037,0.315,-3.815,-0.385,2.00,0.01,0.01,0.01,0.00,2025-06-06T10:43:06.410116
125,-0.8145,-0.1010,0.6051,0.000,-3.920,-0.455,1.00,0.01,0.00,0.00,0.00,2025-06-06T10:43:06.410116
126,-0.8179,-0.0956,0.6051,0.000,-3.710,-0.210,4.00,0.00,0.00,0.01,0.01,2025-06-06T10:43:06.410116
127,-0.8154,-0.0971,0.6032,0.070,-4.095,-0.350,2.00,0.00,0.01,0.01,0.00,2025-06-06T10:43:06.410116
128,-0.8169,-0.0961,0.6002,0.350,-4.165,-0.420,2.00,0.01,0.00,0.01,0.00,2025-06-06T10:43:06.410116
129,-0.8135,-0.0971,0.6032,0.210,-4.515,-0.315,1.00,0.00,0.01,0.00,0.00,2025-06-06T10:43:06.410116
130,-0.8130,-0.0976,0.6037,0.245,-4.515,-0.245,3.00,0.00,0.01,0.01,0.00,2025-06-06T10:43:06.410116
131,-0.8145,-0.0971,0.6012,0.210,-4.550,-0.245,0.00,0.00,0.00,0.00,0.00,2025-06-06T10:43:06.410116
132,-0.8140,-0.0981,0.6027,0.140,-4.550,-0.210,1.00,0.01,0.00,0.01,0.00,2025-06-06T10:43:06.410116
133,-0.8169,-0.0961,0.6027,0.245,-4.410,-0.350,3.00,0.01,0.01,0.02,0.00,2025-06-06T10:43:06.456974
134,-0.8145,-0.0986,0.6017,0.175,-4.375,-0.385,2.00,0.01,0.02,0.02,0.01,2025-06-06T10:43:06.456974
135,-0.8135,-0.0952,0.6032,0.315,-4.060,-0.245,1.00,0.01,0.00,0.03,0.00,2025-06-06T10:43:06.456974
136,-0.8154,-0.0996,0.6012,0.245,-4.130,-0.420,0.00,0.00,0.01,0.01,0.01,2025-06-06T10:43:06.716720
137,-0.8120,-0.0956,0.6037,0.140,-4.025,-0.315,1.00,0.00,0.02,0.02,0.01,2025-06-06T10:43:06.716720
138,-0.8164,-0.0961,0.6012,0.245,-4.130,-0.315,1.00,0.00,0.01,0.00,0.00,2025-06-06T10:43:06.716720
139,-0.8125,-0.0956,0.6017,0.280,-4.130,-0.350,0.00,0.00,0.01,0.02,0.01,2025-06-06T10:43:06.716720
140,-0.8150,-0.0976,0.5993,0.385,-4.340,-0.385,0.00,0.00,0.00,0.00,0.00,2025-06-06T10:43:06.716720
141,-0.8120,-0.0991,0.5998,0.420,-4.270,-0.315,1.00,0.00,0.00,0.01,0.00,2025-06-06T10:43:06.716720
142,-0.8145,-0.0966,0.5998,0.000,-4.165,-0.315,1.00,0.00,0.00,0.00,0.01,2025-06-06T10:43:06.716720
143,-0.8130,-0.0961,0.6017,0.280,-4.235,-0.315,1.00,0.00,0.01,0.01,0.00,2025-06-06T10:43:06.716720
144,-0.8159,-0.1000,0.5993,0.105,-4.235,-0.280,1.00,0.01,0.00,0.01,0.01,2025-06-06T10:43:06.716720
145,-0.8184,-0.0956,0.6022,0.315,-4.305,-0.280,0.00,0.00,0.01,0.00,0.00,2025-06-06T10:43:06.716720
146,-0.8145,-0.0991,0.6002,0.105,-4.235,-0.315,1.00,0.01,0.00,0.01,0.00,2025-06-06T10:43:06.716720
147,-0.8159,-0.0991,0.5998,0.175,-4.200,-0.210,3.00,0.00,0.01,0.01,0.00,2025-06-06T10:43:06.716720
148,-0.8145,-0.0971,0.6007,0.175,-4.060,-0.315,0.00,0.00,0.01,0.01,0.01,2025-06-06T10:43:06.716720
149,-0.8154,-0.0971,0.6027,0.280,-4.095,-0.350,0.00,0.00,0.00,0.01,0.00,2025-06-06T10:43:06.716720
150,-0.8150,-0.0976,0.6041,0.140,-4.165,-0.350,1.00,0.01,0.00,0.02,0.01,2025-06-06T10:43:06.716720
151,-0.8135,-0.0966,0.6012,0.070,-4.060,-0.210,1.00,0.01,0.01,0.01,0.01,2025-06-06T10:43:06.716720
152,-0.8159,-0.0956,0.6017,0.490,-4.200,-0.280,2.00,0.01,0.01,0.01,0.00,2025-06-06T10:43:06.716720
153,-0.8150,-0.0986,0.6002,0.350,-4.480,-0.350,6.00,0.01,0.01,0.01,0.00,2025-06-06T10:43:06.716720
154,-0.8140,-0.0971,0.6012,0.315,-4.480,-0.315,0.00,0.00,0.00,0.02,0.00,2025-06-06T10:43:06.716720
155,-0.8150,-0.0966,0.6002,0.315,-4.480,-0.210,3.00,0.01,0.01,0.01,0.00,2025-06-06T10:43:06.816784
156,-0.8106,-0.0996,0.6002,0.210,-4.445,-0.280,0.00,0.00,0.01,0.01,0.00,2025-06-06T10:43:06.816784
157,-0.8150,-0.1005,0.5998,0.280,-4.375,-0.315,4.00,0.01,0.02,0.03,0.00,2025-06-06T10:43:06.816784
158,-0.8140,-0.0971,0.6027,0.315,-4.235,-0.245,0.00,0.01,0.00,0.01,0.01,2025-06-06T10:43:06.816784
159,-0.8135,-0.0971,0.6007,0.175,-4.095,-0.315,2.00,0.00,0.00,0.01,0.00,2025-06-06T10:43:06.816784
160,-0.8154,-0.0966,0.6017,0.140,-4.060,-0.350,1.00,0.00,0.00,0.01,0.01,2025-06-06T10:43:06.816784
161,-0.8150,-0.0956,0.6032,0.105,-3.990,-0.385,0.00,0.01,0.00,0.02,0.00,2025-06-06T10:43:06.816784
162,-0.8179,-0.0956,0.6012,0.140,-4.130,-0.315,0.00,0.00,0.00,0.02,0.00,2025-06-06T10:43:06.816784
163,-0.8159,-0.0971,0.6022,0.315,-4.165,-0.350,1.00,0.01,0.01,0.01,0.00,2025-06-06T10:43:06.816784
164,-0.8159,-0.0986,0.6022,0.210,-4.235,-0.350,1.00,0.00,0.01,0.01,0.01,2025-06-06T10:43:07.022918
165,-0.8115,-0.0966,0.6041,0.140,-4.270,-0.315,0.00,0.00,0.01,0.02,0.00,2025-06-06T10:43:07.022918
166,-0.8203,-0.0961,0.5968,0.140,-4.200,-0.420,1.00,0.01,0.01,0.01,0.01,2025-06-06T10:43:07.022918
167,-0.8130,-0.0971,0.6032,0.280,-4.410,-0.315,2.00,0.00,0.00,0.03,0.00,2025-06-06T10:43:07.022918
168,-0.8159,-0.1005,0.5993,0.175,-4.410,-0.350,0.00,0.00,0.01,0.02,0.00,2025-06-06T10:43:07.022918
169,-0.8145,-0.0961,0.6022,0.280,-4.235,-0.420,1.00,0.00,0.01,0.02,0.00,2025-06-06T10:43:07.022918
170,-0.8145,-0.0976,0.6012,0.105,-4.305,-0.245,0.00,0.00,0.01,0.01,0.00,2025-06-06T10:43:07.022918
171,-0.8174,-0.0966,0.5988,0.350,-4.270,-0.280,0.00,0.01,0.00,0.00,0.00,2025-06-06T10:43:07.022918
172,-0.8130,-0.0966,0.6002,0.175,-4.305,-0.315,0.00,0.01,0.00,0.01,0.00,2025-06-06T10:43:07.022918
173,-0.8140,-0.0991,0.6017,0.420,-4.200,-0.315,0.00,0.01,0.01,0.01,0.00,2025-06-06T10:43:07.022918
174,-0.8150,-0.0952,0.6041,0.140,-4.235,-0.315,3.00,0.01,0.01,0.02,0.00,2025-06-06T10:43:07.022918
175,-0.8145,-0.0991,0.6037,0.245,-4.270,-0.315,0.00,0.00,0.01,0.01,0.01,2025-06-06T10:43:07.022918
176,-0.8169,-0.0981,0.6032,0.175,-4.235,-0.175,0.00,0.00,0.00,0.01,0.00,2025-06-06T10:43:07.022918
177,-0.8150,-0.0966,0.5993,-0.140,-4.025,-0.350,0.00,0.01,0.01,0.00,0.00,2025-06-06T10:43:07.022918
178,-0.8164,-0.0971,0.6027,0.315,-4.305,-0.315,0.00,0.00,0.00,0.01,0.00,2025-06-06T10:43:07.022918
179,-0.8154,-0.0986,0.6017,0.630,-4.270,-0.315,0.00,0.00,0.01,0.01,0.00,2025-06-06T10:43:07.022918
180,-0.8159,-0.0976,0.6032,-0.175,-3.990,-0.280,1.00,0.00,0.01,0.02,0.00,2025-06-06T10:43:07.237743
181,-0.8154,-0.0986,0.6037,-0.210,-3.955,-0.245,3.00,0.00,0.00,0.01,0.00,2025-06-06T10:43:07.237743
182,-0.8164,-0.0986,0.6022,0.210,-4.200,-0.245,0.00,0.01,0.00,0.00,0.00,2025-06-06T10:43:07.237743
183,-0.8145,-0.0981,0.6007,0.210,-4.270,-0.420,2.00,0.00,0.01,0.02,0.00,2025-06-06T10:43:07.237743
184,-0.8154,-0.0942,0.6022,-0.035,-4.165,-0.280,4.00,0.00,0.01,0.00,0.01,2025-06-06T10:43:07.237743
185,-0.8145,-0.0976,0.6051,0.070,-4.165,-0.245,0.00,0.00,0.01,0.00,0.00,2025-06-06T10:43:07.237743
186,-0.8169,-0.0966,0.6051,0.140,-4.130,-0.280,1.00,0.01,0.01,0.01,0.00,2025-06-06T10:43:07.237743
187,-0.8159,-0.0971,0.6032,0.525,-4.410,-0.315,2.00,0.00,0.01,0.00,0.00,2025-06-06T10:43:07.237743
188,-0.8169,-0.0971,0.6022,0.315,-4.340,-0.245,1.00,0.00,0.01,0.01,0.01,2025-06-06T10:43:07.237743
189,-0.8174,-0.0956,0.6022,-0.210,-4.200,-0.245,1.00,0.01,0.00,0.00,0.00,2025-06-06T10:43:07.237743
190,-0.8135,-0.0971,0.6007,-0.105,-4.130,-0.350,2.00,0.00,0.00,0.01,0.00,2025-06-06T10:43:07.237743
191,-0.8159,-0.0976,0.6022,0.315,-4.200,-0.315,1.00,0.00,0.02,0.01,0.00,2025-06-06T10:43:07.237743
192,-0.8130,-0.0976,0.6007,0.455,-4.480,-0.350,2.00,0.01,0.00,0.01,0.00,2025-06-06T10:43:07.237743
193,-0.8159,-0.0961,0.6037,0.105,-4.165,-0.315,1.00,0.00,0.01,0.01,0.00,2025-06-06T10:43:07.237743
194,-0.8164,-0.0966,0.6027,-0.105,-4.130,-0.315,0.00,0.00,0.00,0.01,0.00,2025-06-06T10:43:07.237743
195,-0.8135,-0.0971,0.6037,0.105,-4.200,-0.280,0.00,0.01,0.01,0.02,0.00,2025-06-06T10:43:07.237743
196,-0.8159,-0.0971,0.6012,0.245,-4.340,-0.315,2.00,0.01,0.00,0.01,0.00,2025-06-06T10:43:07.315263
197,-0.8145,-0.0981,0.5988,0.245,-4.200,-0.315,1.00,0.01,0.01,0.03,0.00,2025-06-06T10:43:07.315263
198,-0.8111,-0.0991,0.5993,0.175,-4.095,-0.210,3.00,0.01,0.01,0.01,0.00,2025-06-06T10:43:07.315263
199,-0.8272,-0.0932,0.6051,0.385,-4.130,-0.385,2.00,0.01,0.01,0.01,0.01,2025-06-06T10:43:07.371526
200,-0.8106,-0.1054,0.6027,0.070,-4.200,-0.560,4.00,0.01,0.00,0.00,0.00,2025-06-06T10:43:07.371526
201,-0.8111,-0.0917,0.6066,0.280,-3.955,0.035,2.00,0.00,0.00,0.01,0.00,2025-06-06T10:43:07.504193
202,-0.8228,-0.0971,0.6022,0.000,-4.725,-0.490,2.00,0.00,0.00,0.01,0.00,2025-06-06T10:43:07.504193
203,-0.8081,-0.0927,0.6046,0.420,-4.095,-0.385,3.00,0.01,0.00,0.01,0.00,2025-06-06T10:43:07.504193
204,-0.8194,-0.0996,0.6007,0.035,-4.725,-0.175,1.00,0.00,0.00,0.00,0.00,2025-06-06T10:43:07.504193
205,-0.8150,-0.0966,0.6061,0.595,-4.655,-0.385,0.00,0.01,0.01,0.01,0.00,2025-06-06T10:43:07.504193
206,-0.8164,-0.0981,0.6007,0.035,-4.305,-0.245,0.00,0.00,0.01,0.00,0.01,2025-06-06T10:43:07.504193
207,-0.8154,-0.0952,0.6032,0.175,-3.990,-0.210,0.00,0.00,0.00,0.01,0.00,2025-06-06T10:43:07.504193
208,-0.8150,-0.0981,0.5998,0.175,-4.025,-0.385,1.00,0.00,0.01,0.01,0.00,2025-06-06T10:43:07.504193
209,-0.8189,-0.0942,0.6017,0.490,-4.095,-0.385,2.00,0.00,0.00,0.00,0.01,2025-06-06T10:43:07.504193
210,-0.8140,-0.0981,0.6027,0.175,-4.060,-0.420,1.00,0.01,0.00,0.02,0.00,2025-06-06T10:43:07.504193
211,-0.8169,-0.0952,0.6027,-0.070,-3.710,-0.350,3.00,0.01,0.00,0.01,0.00,2025-06-06T10:43:07.558902
212,-0.8135,-0.0976,0.6027,-0.035,-3.955,-0.280,1.00,0.00,0.01,0.01,0.00,2025-06-06T10:43:07.558902
213,-0.8159,-0.0961,0.6012,0.350,-4.165,-0.385,3.00,0.00,0.00,0.01,0.00,2025-06-06T10:43:07.558902
214,-0.8174,-0.0991,0.5998,0.280,-4.375,-0.140,0.00,0.01,0.01,0.00,0.00,2025-06-06T10:43:07.558902
215,-0.8150,-0.0986,0.6007,0.210,-4.480,-0.315,2.00,0.01,0.00,0.02,0.01,2025-06-06T10:43:07.558902
216,-0.8164,-0.0986,0.6012,0.385,-4.445,-0.280,1.00,0.00,0.00,0.01,0.01,2025-06-06T10:43:07.558902
217,-0.8164,-0.0966,0.6027,0.210,-4.550,-0.245,1.00,0.00,0.01,0.01,0.00,2025-06-06T10:43:07.558902
218,-0.8140,-0.0956,0.6041,0.280,-4.550,-0.245,2.00,0.00,0.00,0.01,0.00,2025-06-06T10:43:07.558902
219,-0.8198,-0.0956,0.6046,0.175,-4.410,-0.350,3.00,0.01,0.01,0.01,0.00,2025-06-06T10:43:07.687802
220,-0.8106,-0.0961,0.6066,0.000,-4.235,-0.350,0.00,0.01,0.00,0.00,0.00,2025-06-06T10:43:07.687802
221,-0.8169,-0.0971,0.6027,0.210,-4.165,-0.245,2.00,0.00,0.01,0.01,0.00,2025-06-06T10:43:07.687802
222,-0.8145,-0.0971,0.6012,0.140,-4.095,-0.280,2.00,0.00,0.01,0.01,0.01,2025-06-06T10:43:07.687802
223,-0.8145,-0.0966,0.6002,0.280,-3.955,-0.350,2.00,0.01,0.00,0.01,0.01,2025-06-06T10:43:07.687802
224,-0.8150,-0.0961,0.6007,0.210,-4.130,-0.385,5.00,0.01,0.00,0.00,0.00,2025-06-06T10:43:07.687802
225,-0.8150,-0.0971,0.6027,0.245,-4.200,-0.385,2.00,0.00,0.01,0.01,0.00,2025-06-06T10:43:07.687802
226,-0.8150,-0.0956,0.6017,0.105,-4.095,-0.280,1.00,0.00,0.01,0.00,0.01,2025-06-06T10:43:07.687802
227,-0.8130,-0.0976,0.6002,0.035,-4.235,-0.280,1.00,0.00,0.00,0.01,0.00,2025-06-06T10:43:07.687802
228,-0.8179,-0.0966,0.5998,0.175,-4.270,-0.245,4.00,0.00,0.01,0.02,0.00,2025-06-06T10:43:07.687802
229,-0.8159,-0.0976,0.6007,0.350,-4.515,-0.350,2.00,0.01,0.01,0.03,0.00,2025-06-06T10:43:07.924931
230,-0.8179,-0.0961,0.6022,0.315,-4.305,-0.385,2.00,0.00,0.00,0.01,0.00,2025-06-06T10:43:07.924931
231,-0.8154,-0.0986,0.6022,0.175,-4.410,-0.315,3.00,0.00,0.00,0.01,0.01,2025-06-06T10:43:07.924931
232,-0.8150,-0.0986,0.6046,0.210,-4.130,-0.280,2.00,0.00,0.01,0.00,0.00,2025-06-06T10:43:07.924931
233,-0.8174,-0.0961,0.5963,0.385,-4.305,-0.315,0.00,0.00,0.00,0.00,0.01,2025-06-06T10:43:07.924931
234,-0.8047,-0.0961,0.5934,0.350,-4.270,-0.350,0.00,0.00,0.01,0.01,0.00,2025-06-06T10:43:07.924931
235,-0.8194,-0.0991,0.6041,0.490,-4.690,-0.245,2.00,0.00,0.01,0.01,0.01,2025-06-06T10:43:07.924931
236,-0.8159,-0.0996,0.6037,0.070,-4.445,-0.280,1.00,0.01,0.00,0.02,0.00,2025-06-06T10:43:07.924931
237,-0.8150,-0.0952,0.6046,-0.035,-4.270,-0.210,3.00,0.00,0.01,0.00,0.00,2025-06-06T10:43:07.924931
238,-0.8194,-0.0961,0.6046,0.245,-4.445,-0.315,0.00,0.00,0.01,0.01,0.00,2025-06-06T10:43:07.924931
239,-0.8111,-0.0971,0.6022,0.420,-4.410,-0.420,2.00,0.00,0.01,0.01,0.00,2025-06-06T10:43:07.924931
240,-0.8150,-0.1005,0.6012,0.525,-4.375,-0.350,1.00,0.00,0.01,0.00,0.00,2025-06-06T10:43:07.924931
241,-0.8154,-0.0976,0.6037,0.140,-3.990,-0.315,1.00,0.00,0.01,0.01,0.00,2025-06-06T10:43:07.924931
242,-0.8164,-0.0966,0.5998,0.035,-3.780,-0.350,2.00,0.01,0.00,0.02,0.01,2025-06-06T10:43:07.924931
243,-0.8184,-0.0991,0.6012,0.140,-3.780,-0.420,3.00,0.01,0.01,0.01,0.01,2025-06-06T10:43:07.924931
244,-0.8145,-0.0966,0.5993,0.280,-3.920,-0.385,2.00,0.00,0.01,0.01,0.01,2025-06-06T10:43:07.924931
245,-0.8159,-0.0971,0.5998,0.560,-4.165,-0.245,1.00,0.00,0.01,0.01,0.01,2025-06-06T10:43:07.924931
246,-0.8154,-0.0986,0.5988,0.350,-4.445,-0.350,0.00,0.00,0.01,0.00,0.00,2025-06-06T10:43:07.924931
247,-0.8174,-0.0942,0.6037,0.210,-4.480,-0.245,0.00,0.01,0.00,0.01,0.00,2025-06-06T10:43:07.924931
248,-0.8189,-0.0961,0.5993,-0.035,-4.620,-0.245,1.00,0.00,0.01,0.01,0.00,2025-06-06T10:43:08.053511
249,-0.8125,-0.0996,0.6076,0.315,-4.795,-0.245,0.00,0.00,0.00,0.01,0.01,2025-06-06T10:43:08.053511
250,-0.8179,-0.0971,0.6022,0.105,-4.445,-0.245,2.00,0.00,0.00,0.01,0.00,2025-06-06T10:43:08.053511
251,-0.8062,-0.1015,0.5958,0.105,-4.305,-0.315,3.00,0.01,0.01,0.01,0.01,2025-06-06T10:43:08.053511
252,-0.8101,-0.1039,0.6046,0.350,-4.235,-0.070,0.00,0.00,0.00,0.01,0.00,2025-06-06T10:43:08.053511
253,-0.8340,-0.0844,0.5998,0.490,-4.200,-0.455,4.00,0.01,0.00,0.02,0.01,2025-06-06T10:43:08.053511
254,-0.7998,-0.1010,0.6012,-0.070,-3.745,-0.630,3.00,0.00,0.00,0.01,0.01,2025-06-06T10:43:08.053511
255,-0.8233,-0.0952,0.5963,-0.595,-3.255,-0.280,0.00,0.00,0.00,0.00,0.00,2025-06-06T10:43:08.053511
256,-0.8159,-0.1049,0.6046,0.245,-4.480,-0.525,2.00,0.00,0.01,0.00,0.00,2025-06-06T10:43:08.053511
257,-0.8062,-0.1005,0.6056,1.085,-4.235,-0.175,2.00,0.00,0.00,0.01,0.00,2025-06-06T10:43:08.053511
258,-0.8218,-0.0913,0.5968,0.385,-4.340,-0.105,0.00,0.01,0.02,0.00,0.01,2025-06-06T10:43:08.053511
259,-0.8154,-0.0903,0.6012,-0.280,-4.515,-0.385,1.00,0.01,0.01,0.01,0.01,2025-06-06T10:43:08.253019
260,-0.8198,-0.1000,0.5993,0.210,-5.075,-0.315,4.00,0.01,0.01,0.00,0.00,2025-06-06T10:43:08.253019
261,-0.8091,-0.1044,0.6076,0.840,-5.005,-0.210,3.00,0.01,0.00,0.00,0.00,2025-06-06T10:43:08.253019
262,-0.8198,-0.0937,0.6017,0.420,-4.200,-0.105,2.00,0.00,0.02,0.02,0.00,2025-06-06T10:43:08.253019
263,-0.8179,-0.0917,0.5983,-0.385,-3.955,-0.350,1.00,0.00,0.00,0.00,0.00,2025-06-06T10:43:08.253019
264,-0.8159,-0.0976,0.5968,0.000,-4.025,-0.455,1.00,0.00,0.00,0.01,0.01,2025-06-06T10:43:08.253019
265,-0.8140,-0.1010,0.6046,0.490,-4.200,-0.490,1.00,0.00,0.00,0.01,0.01,2025-06-06T10:43:08.253019
266,-0.8140,-0.0996,0.6032,0.490,-3.780,-0.175,1.00,0.00,0.01,0.00,0.00,2025-06-06T10:43:08.253019
267,-0.8184,-0.0932,0.5998,-0.140,-3.500,-0.210,1.00,0.00,0.02,0.00,0.00,2025-06-06T10:43:08.253019
268,-0.8179,-0.0956,0.5978,0.000,-4.305,-0.420,1.00,0.00,0.00,0.01,0.00,2025-06-06T10:43:08.253019
269,-0.8145,-0.0996,0.6017,0.525,-4.725,-0.315,0.00,0.00,0.00,0.02,0.00,2025-06-06T10:43:08.253019
270,-0.8140,-0.1005,0.6027,0.490,-4.830,-0.245,0.00,0.00,0.00,0.01,0.00,2025-06-06T10:43:08.253019
271,-0.8140,-0.0947,0.6012,0.175,-4.410,-0.070,2.00,0.00,0.01,0.01,0.00,2025-06-06T10:43:08.253019
272,-0.8169,-0.0937,0.5998,0.070,-4.515,-0.280,0.00,0.00,0.00,0.01,0.01,2025-06-06T10:43:08.253019
273,-0.8164,-0.0981,0.6007,0.350,-4.690,-0.350,1.00,0.00,0.01,0.00,0.00,2025-06-06T10:43:08.253019
274,-0.8130,-0.1025,0.6032,0.245,-4.375,-0.385,2.00,0.01,0.01,0.02,0.00,2025-06-06T10:43:08.370148
275,-0.8159,-0.0966,0.6041,0.140,-3.920,-0.315,1.00,0.01,0.02,0.04,0.00,2025-06-06T10:43:08.370148
276,-0.8154,-0.0937,0.5983,0.070,-3.780,-0.385,1.00,0.00,0.00,0.06,0.01,2025-06-06T10:43:08.370148
277,-0.8140,-0.0966,0.6002,0.035,-3.850,-0.490,6.00,0.01,0.01,0.09,0.00,2025-06-06T10:43:08.370148
278,-0.8154,-0.1000,0.6007,0.140,-3.955,-0.420,0.00,0.00,0.01,0.12,0.01,2025-06-06T10:43:08.370148
279,-0.8135,-0.0981,0.6017,0.245,-4.025,-0.245,0.00,0.00,0.01,0.13,0.00,2025-06-06T10:43:08.370148
280,-0.8154,-0.0966,0.6012,0.315,-4.305,-0.315,3.00,0.01,0.00,0.17,0.01,2025-06-06T10:43:08.370148
281,-0.8184,-0.0971,0.6002,0.280,-4.480,-0.315,0.00,0.01,0.00,0.21,0.00,2025-06-06T10:43:08.370148
282,-0.8150,-0.0966,0.6027,0.035,-4.445,-0.280,1.00,0.00,0.01,0.24,0.01,2025-06-06T10:43:08.467714
283,-0.8159,-0.0986,0.6027,0.245,-4.480,-0.280,1.00,0.00,0.01,0.29,0.00,2025-06-06T10:43:08.467714
284,-0.8174,-0.0956,0.5993,0.315,-4.270,-0.245,1.00,0.01,0.00,0.33,0.00,2025-06-06T10:43:08.467714
285,-0.8164,-0.0932,0.6012,0.035,-4.235,-0.315,1.00,0.00,0.00,0.35,0.00,2025-06-06T10:43:08.467714
286,-0.8159,-0.0961,0.6027,0.210,-4.270,-0.315,1.00,0.01,0.01,0.38,0.00,2025-06-06T10:43:08.467714
287,-0.8174,-0.1005,0.6017,0.210,-4.235,-0.350,1.00,0.00,0.00,0.42,0.00,2025-06-06T10:43:08.467714
288,-0.8150,-0.0981,0.6002,0.350,-4.305,-0.245,2.00,0.00,0.01,0.46,0.01,2025-06-06T10:43:08.467714
289,-0.8159,-0.0976,0.6017,0.350,-4.270,-0.280,3.00,0.00,0.00,0.50,0.01,2025-06-06T10:43:08.467714
290,-0.8154,-0.0961,0.6007,0.175,-4.375,-0.350,1.00,0.00,0.00,0.52,0.00,2025-06-06T10:43:08.566166
291,-0.8159,-0.0981,0.6017,0.105,-4.480,-0.280,1.00,0.00,0.01,0.56,0.00,2025-06-06T10:43:08.566166
292,-0.8150,-0.0976,0.6012,0.140,-4.375,-0.245,4.00,0.00,0.03,0.58,0.00,2025-06-06T10:43:08.566166
293,-0.8150,-0.0952,0.6012,0.000,-3.955,-0.280,0.00,0.01,0.00,0.59,0.00,2025-06-06T10:43:08.566166
294,-0.8159,-0.0971,0.6007,0.630,-4.375,-0.280,1.00,0.00,0.00,0.60,0.01,2025-06-06T10:43:08.566166
295,-0.8179,-0.0976,0.6017,1.120,-4.515,-0.315,1.00,0.00,0.01,0.60,0.00,2025-06-06T10:43:08.566166
296,-0.8159,-0.0966,0.6002,0.560,-4.550,-0.420,1.00,0.00,0.01,0.62,0.00,2025-06-06T10:43:08.566166
297,-0.8145,-0.0991,0.5993,0.035,-3.745,-0.280,1.00,0.01,0.00,0.66,0.00,2025-06-06T10:43:08.618329
298,-0.8179,-0.0976,0.6002,8.820,-3.780,-0.245,0.00,0.01,0.00,0.65,0.00,2025-06-06T10:43:08.618329
299,-0.8150,-0.0981,0.6017,0.490,-4.445,-0.350,1.00,0.01,0.01,0.66,0.00,2025-06-06T10:43:08.618329
300,-0.8135,-0.0981,0.5993,0.490,-4.550,-0.280,1.00,0.01,0.01,0.67,0.01,2025-06-06T10:43:08.618329
301,-0.8164,-0.0961,0.6017,0.175,-4.445,-0.280,0.00,0.00,0.00,0.67,0.00,2025-06-06T10:43:08.665802
302,-0.8130,-0.0981,0.5993,0.105,-4.375,-0.350,2.00,0.01,0.00,0.71,0.00,2025-06-06T10:43:08.665802
303,-0.8140,-0.1000,0.6007,0.175,-4.375,-0.350,3.00,0.01,0.00,0.73,0.00,2025-06-06T10:43:08.665802
304,-0.8150,-0.0981,0.6017,0.350,-4.480,-0.350,0.00,0.00,0.01,0.73,0.00,2025-06-06T10:43:08.665802
305,-0.8159,-0.0966,0.6032,0.315,-4.305,-0.350,2.00,0.01,0.00,0.75,0.00,2025-06-06T10:43:08.714382
306,-0.8189,-0.0956,0.6017,0.105,-4.025,-0.280,2.00,0.00,0.01,0.77,0.00,2025-06-06T10:43:08.714382
307,-0.8150,-0.0952,0.5993,0.070,-4.025,-0.420,0.00,0.00,0.00,0.77,0.00,2025-06-06T10:43:08.714382
308,-0.8140,-0.0952,0.6017,0.105,-4.095,-0.350,4.00,0.01,0.01,0.79,0.00,2025-06-06T10:43:08.714382
309,-0.8169,-0.0981,0.6007,0.350,-4.200,-0.315,2.00,0.00,0.01,0.81,0.00,2025-06-06T10:43:08.872850
310,-0.8145,-0.0937,0.6017,0.280,-4.270,-0.210,2.00,0.00,0.00,0.83,0.00,2025-06-06T10:43:08.872850
311,-0.8154,-0.0986,0.6002,0.175,-4.340,-0.315,0.00,0.00,0.00,0.85,0.01,2025-06-06T10:43:08.872850
312,-0.8154,-0.0986,0.6017,0.105,-4.270,-0.245,2.00,0.01,0.02,0.86,0.00,2025-06-06T10:43:08.872850
313,-0.8159,-0.0991,0.6017,0.105,-4.340,-0.350,3.00,0.00,0.02,0.88,0.00,2025-06-06T10:43:08.872850
314,-0.8159,-0.0971,0.6017,0.210,-4.270,-0.245,3.00,0.00,0.00,0.90,0.00,2025-06-06T10:43:08.872850
315,-0.8145,-0.0966,0.5988,0.175,-4.340,-0.315,1.00,0.00,0.01,0.90,0.00,2025-06-06T10:43:08.872850
316,-0.8169,-0.0956,0.6027,0.140,-4.375,-0.385,0.00,0.00,0.00,0.92,0.00,2025-06-06T10:43:08.872850
317,-0.8164,-0.0976,0.6017,0.245,-4.340,-0.315,4.00,0.00,0.01,0.92,0.00,2025-06-06T10:43:08.872850
318,-0.8125,-0.0981,0.6027,0.245,-4.165,-0.350,1.00,0.00,0.00,0.92,0.00,2025-06-06T10:43:08.872850
319,-0.8154,-0.0942,0.6002,0.070,-4.165,-0.245,1.00,0.00,0.00,0.90,0.00,2025-06-06T10:43:08.872850
320,-0.8184,-0.1000,0.5993,0.245,-4.410,-0.315,2.00,0.01,0.00,0.90,0.00,2025-06-06T10:43:08.872850
321,-0.8145,-0.0966,0.6012,0.350,-4.165,-0.350,0.00,0.00,0.01,0.88,0.00,2025-06-06T10:43:08.988526
322,-0.8159,-0.0966,0.5998,0.315,-4.165,-0.280,2.00,0.01,0.00,0.86,0.01,2025-06-06T10:43:08.988526
323,-0.8169,-0.0947,0.5988,0.210,-4.200,-0.350,1.00,0.00,0.00,0.86,0.00,2025-06-06T10:43:08.988526
324,-0.8164,-0.0996,0.6012,0.105,-4.165,-0.350,4.00,0.00,0.00,0.87,0.00,2025-06-06T10:43:08.988526
325,-0.8169,-0.0966,0.6007,0.140,-4.130,-0.175,1.00,0.00,0.00,0.87,0.00,2025-06-06T10:43:08.988526
326,-0.8174,-0.0966,0.6007,0.175,-4.235,-0.245,0.00,0.01,0.01,0.84,0.00,2025-06-06T10:43:08.988526
327,-0.8135,-0.0971,0.6002,0.175,-4.305,-0.280,0.00,0.00,0.01,0.79,0.01,2025-06-06T10:43:08.988526
328,-0.8135,-0.0976,0.6012,0.210,-4.235,-0.245,1.00,0.00,0.00,0.69,0.00,2025-06-06T10:43:08.988526
329,-0.8174,-0.0952,0.6002,0.210,-4.235,-0.210,2.00,0.01,0.03,0.55,0.00,2025-06-06T10:43:09.042443
330,-0.8198,-0.0942,0.6032,0.245,-4.340,-0.280,3.00,0.00,0.02,0.42,0.01,2025-06-06T10:43:09.043440
331,-0.8145,-0.0937,0.6002,0.175,-4.375,-0.280,0.00,0.01,0.01,0.34,0.00,2025-06-06T10:43:09.043440
332,-0.8125,-0.1005,0.5973,0.070,-4.305,-0.315,1.00,0.01,0.00,0.29,0.00,2025-06-06T10:43:09.043440
333,-0.8174,-0.0966,0.6017,0.245,-4.375,-0.210,0.00,0.00,0.00,0.24,0.00,2025-06-06T10:43:09.173967
334,-0.8154,-0.0961,0.6032,0.245,-4.235,-0.385,2.00,0.01,0.00,0.17,0.00,2025-06-06T10:43:09.173967
335,-0.8164,-0.0971,0.5993,0.175,-4.095,-0.315,1.00,0.01,0.02,0.12,0.00,2025-06-06T10:43:09.173967
336,-0.8169,-0.0966,0.6002,0.000,-4.200,-0.210,1.00,0.01,0.03,0.11,0.00,2025-06-06T10:43:09.173967
337,-0.8169,-0.0952,0.6032,0.280,-4.410,-0.420,2.00,0.00,0.00,0.09,0.00,2025-06-06T10:43:09.173967
338,-0.8140,-0.0981,0.6012,0.315,-4.410,-0.315,3.00,0.00,0.00,0.04,0.00,2025-06-06T10:43:09.173967
339,-0.8159,-0.0971,0.6027,0.070,-4.235,-0.280,3.00,0.01,0.00,0.04,0.01,2025-06-06T10:43:09.173967
340,-0.8140,-0.0971,0.5993,0.070,-4.340,-0.350,1.00,0.00,0.01,0.03,0.00,2025-06-06T10:43:09.173967
341,-0.8164,-0.0991,0.5998,0.385,-4.515,-0.315,2.00,0.01,0.01,0.04,0.00,2025-06-06T10:43:09.173967
342,-0.8145,-0.0976,0.6032,0.455,-4.410,-0.245,0.00,0.00,0.00,0.02,0.00,2025-06-06T10:43:09.173967
343,-0.8154,-0.0956,0.6027,0.175,-4.165,-0.175,1.00,0.00,0.02,0.01,0.00,2025-06-06T10:43:09.173967
344,-0.8174,-0.0932,0.5988,0.105,-4.025,-0.385,2.00,0.00,0.01,0.01,0.00,2025-06-06T10:43:09.287407
345,-0.8154,-0.0971,0.5998,0.105,-4.095,-0.350,3.00,0.01,0.00,0.02,0.01,2025-06-06T10:43:09.287407
346,-0.8154,-0.0976,0.6032,0.210,-4.200,-0.385,3.00,0.00,0.01,0.01,0.00,2025-06-06T10:43:09.287407
347,-0.8179,-0.0966,0.6012,0.280,-4.270,-0.350,0.00,0.01,0.01,0.01,0.00,2025-06-06T10:43:09.287407
348,-0.8154,-0.0981,0.5993,0.280,-4.235,-0.280,0.00,0.00,0.01,0.00,0.01,2025-06-06T10:43:09.287407
349,-0.8174,-0.0981,0.5998,0.280,-4.655,-0.350,2.00,0.00,0.02,0.01,0.00,2025-06-06T10:43:09.287407
350,-0.8179,-0.0947,0.5978,-0.140,-4.165,-0.280,2.00,0.01,0.01,0.01,0.00,2025-06-06T10:43:09.287407
351,-0.8164,-0.0971,0.5998,-0.385,-3.920,-0.245,0.00,0.00,0.02,0.02,0.00,2025-06-06T10:43:09.428585
352,-0.8174,-0.0961,0.6032,-0.350,-4.305,-0.280,4.00,0.01,0.03,0.01,0.00,2025-06-06T10:43:09.428585
353,-0.8169,-0.0966,0.6022,-0.105,-3.955,-0.210,3.00,0.01,0.03,0.00,0.00,2025-06-06T10:43:09.428585
354,-0.8150,-0.0966,0.6002,-0.700,-4.235,-0.245,3.00,0.00,0.02,0.02,0.00,2025-06-06T10:43:09.428585
355,-0.8150,-0.0961,0.6017,0.070,-3.850,-0.210,1.00,0.00,0.04,0.03,0.00,2025-06-06T10:43:09.428585
356,-0.8164,-0.0947,0.6027,-0.910,-4.025,-0.350,3.00,0.01,0.04,0.00,0.00,2025-06-06T10:43:09.428585
357,-0.8154,-0.0961,0.6017,0.735,-4.235,-0.280,1.00,0.00,0.04,0.01,0.00,2025-06-06T10:43:09.428585
358,-0.8154,-0.0961,0.6012,-0.245,-4.200,-0.350,2.00,0.00,0.06,0.02,0.00,2025-06-06T10:43:09.428585
359,-0.8164,-0.0966,0.6002,0.315,-4.130,-0.280,0.00,0.00,0.07,0.00,0.00,2025-06-06T10:43:09.428585
360,-0.8164,-0.0956,0.6002,-0.105,-4.165,-0.350,2.00,0.00,0.09,0.00,0.00,2025-06-06T10:43:09.472080
361,-0.8159,-0.0971,0.6022,0.280,-4.270,-0.315,2.00,0.01,0.09,0.01,0.01,2025-06-06T10:43:09.472080
362,-0.8159,-0.0971,0.6007,0.210,-4.270,-0.350,2.00,0.01,0.10,0.02,0.01,2025-06-06T10:43:09.472080
363,-0.8150,-0.0976,0.5993,0.280,-4.130,-0.350,2.00,0.00,0.10,0.00,0.01,2025-06-06T10:43:09.472080
364,-0.8189,-0.0966,0.6002,0.070,-4.130,-0.385,3.00,0.00,0.12,0.01,0.00,2025-06-06T10:43:09.596296
365,-0.8150,-0.0961,0.6002,0.315,-4.235,-0.315,0.00,0.01,0.13,0.00,0.00,2025-06-06T10:43:09.596296
366,-0.8184,-0.0966,0.5983,0.140,-4.130,-0.280,1.00,0.00,0.14,0.01,0.00,2025-06-06T10:43:09.596296
367,-0.8169,-0.0981,0.6017,0.210,-4.235,-0.455,2.00,0.00,0.15,0.00,0.00,2025-06-06T10:43:09.596296
368,-0.8140,-0.0966,0.5998,0.175,-4.095,-0.315,1.00,0.01,0.15,0.00,0.00,2025-06-06T10:43:09.596296
369,-0.8179,-0.0966,0.6017,0.140,-4.235,-0.385,1.00,0.00,0.16,0.01,0.00,2025-06-06T10:43:09.596296
370,-0.8174,-0.0956,0.6012,0.140,-4.095,-0.350,2.00,0.00,0.17,0.01,0.00,2025-06-06T10:43:09.596296
371,-0.8150,-0.0952,0.6012,0.210,-4.095,-0.315,1.00,0.00,0.16,0.00,0.00,2025-06-06T10:43:09.596296
372,-0.8174,-0.0981,0.5993,0.280,-4.235,-0.315,1.00,0.01,0.15,0.01,0.00,2025-06-06T10:43:09.596296
373,-0.8164,-0.0956,0.6012,0.210,-4.270,-0.315,1.00,0.01,0.16,0.01,0.00,2025-06-06T10:43:09.596296
374,-0.8179,-0.0961,0.6007,0.175,-4.340,-0.280,3.00,0.01,0.14,0.02,0.01,2025-06-06T10:43:09.596296
375,-0.8179,-0.0937,0.5993,0.175,-4.445,-0.280,1.00,0.00,0.14,0.01,0.00,2025-06-06T10:43:09.596296
376,-0.8154,-0.0966,0.6007,0.245,-4.445,-0.210,2.00,0.01,0.12,0.02,0.01,2025-06-06T10:43:09.693296
377,-0.8154,-0.0976,0.6002,0.385,-4.515,-0.315,3.00,0.01,0.11,0.01,0.00,2025-06-06T10:43:09.693296
378,-0.8179,-0.0956,0.5998,0.280,-4.445,-0.210,3.00,0.00,0.10,0.02,0.00,2025-06-06T10:43:09.693296
379,-0.8154,-0.0991,0.6012,0.140,-4.375,-0.315,1.00,0.01,0.09,0.03,0.01,2025-06-06T10:43:09.693296
380,-0.8154,-0.0976,0.6012,0.280,-4.340,-0.245,2.00,0.00,0.09,0.01,0.00,2025-06-06T10:43:09.693296
381,-0.8154,-0.0947,0.6002,0.070,-4.270,-0.280,4.00,0.00,0.09,0.03,0.00,2025-06-06T10:43:09.693296
382,-0.8169,-0.0947,0.6002,0.210,-4.270,-0.350,3.00,0.00,0.09,0.04,0.00,2025-06-06T10:43:09.693296
383,-0.8159,-0.0966,0.6022,0.175,-4.305,-0.315,2.00,0.00,0.10,0.03,0.00,2025-06-06T10:43:09.741273
384,-0.8154,-0.0976,0.6017,0.210,-4.235,-0.315,2.00,0.00,0.10,0.05,0.01,2025-06-06T10:43:09.741273
385,-0.8145,-0.0986,0.6002,0.070,-4.025,-0.210,2.00,0.01,0.10,0.07,0.00,2025-06-06T10:43:09.741273
386,-0.8164,-0.0971,0.6007,0.105,-4.165,-0.315,0.00,0.01,0.10,0.09,0.01,2025-06-06T10:43:09.741273
387,-0.8174,-0.0956,0.6002,0.315,-4.235,-0.385,3.00,0.00,0.11,0.10,0.00,2025-06-06T10:43:09.796718
388,-0.8150,-0.0971,0.6022,0.280,-4.270,-0.385,1.00,0.01,0.11,0.12,0.00,2025-06-06T10:43:09.796718
389,-0.8169,-0.0952,0.6022,-0.035,-4.060,-0.350,0.00,0.01,0.10,0.14,0.00,2025-06-06T10:43:09.796718
390,-0.7891,-0.0971,0.6681,1.645,-2.135,-1.190,1.00,0.00,0.10,0.15,0.00,2025-06-06T10:43:09.903285
391,-0.7749,-0.1157,0.6344,4.165,3.920,-1.365,1.00,0.00,0.10,0.16,0.01,2025-06-06T10:43:09.903285
392,-0.7081,-0.0839,0.8120,4.795,15.715,-2.485,1.00,0.00,0.09,0.19,0.01,2025-06-06T10:43:09.903285
393,-0.7325,0.0356,0.8262,1.470,31.255,-4.375,1.00,0.01,0.06,0.21,0.00,2025-06-06T10:43:09.903285
394,-0.9043,-0.0747,0.4680,-31.570,53.585,-3.185,3.00,0.00,0.07,0.24,0.00,2025-06-06T10:43:09.903285
395,-0.8579,-0.0869,0.5768,-12.635,36.505,-9.170,0.00,0.01,0.05,0.26,0.00,2025-06-06T10:43:09.903285
396,-0.9262,-0.2923,0.3640,-32.445,31.360,-6.720,2.00,0.00,0.04,0.31,0.00,2025-06-06T10:43:09.903285
397,-0.7237,-0.2440,0.6349,-20.580,15.820,0.000,1.00,0.00,0.02,0.32,0.00,2025-06-06T10:43:09.903285
398,-0.6515,-0.1274,0.7588,-13.335,16.205,4.760,0.00,0.01,0.02,0.35,0.00,2025-06-06T10:43:09.903285
399,-0.9121,-0.1713,0.3992,-25.515,30.660,8.225,2.00,0.01,0.01,0.38,0.00,2025-06-06T10:43:10.128102
400,-0.9931,-0.1967,0.3621,-29.890,52.850,17.185,3.00,0.00,0.02,0.41,0.00,2025-06-06T10:43:10.128102
401,-0.8403,-0.1830,0.5968,0.980,43.085,16.205,2.00,0.00,0.04,0.45,0.01,2025-06-06T10:43:10.128102
402,-0.7710,-0.0449,0.7793,15.890,37.835,17.115,2.00,0.01,0.03,0.45,0.00,2025-06-06T10:43:10.128102
403,-0.8228,-0.2025,0.5422,-9.800,53.270,26.180,2.00,0.00,0.02,0.48,0.00,2025-06-06T10:43:10.128102
404,-0.9282,-0.3109,0.4607,-33.845,65.135,32.655,0.00,0.00,0.02,0.52,0.00,2025-06-06T10:43:10.128102
405,-1.0224,-0.1932,0.5363,-25.620,29.505,38.605,2.00,0.00,0.03,0.53,0.00,2025-06-06T10:43:10.128102
406,-1.1058,-0.1064,0.4524,4.865,22.540,44.380,3.00,0.01,0.03,0.58,0.00,2025-06-06T10:43:10.128102
407,-1.0541,-0.0869,0.3426,14.105,22.260,50.015,1.00,0.00,0.02,0.60,0.00,2025-06-06T10:43:10.128102
408,-1.1209,-0.0039,0.4168,16.800,32.095,63.035,2.00,0.01,0.03,0.61,0.00,2025-06-06T10:43:10.128102
409,-0.9789,0.0010,0.4265,23.240,23.940,78.050,2.00,0.00,0.02,0.67,0.01,2025-06-06T10:43:10.128102
410,-1.0429,0.0361,0.4670,31.430,11.270,94.955,1.00,0.01,0.03,0.69,0.00,2025-06-06T10:43:10.128102
411,-1.0648,-0.0176,0.4372,44.940,2.800,109.725,1.00,0.00,0.02,0.73,0.01,2025-06-06T10:43:10.128102
412,-1.0838,-0.0571,0.4529,50.015,6.440,119.210,1.00,0.00,0.03,0.75,0.00,2025-06-06T10:43:10.128102
413,-1.0321,-0.0171,0.4109,54.040,15.995,125.545,1.00,0.00,0.02,0.80,0.00,2025-06-06T10:43:10.128102
414,-1.0194,-0.0112,0.4324,57.925,28.805,129.780,2.00,0.01,0.02,0.82,0.01,2025-06-06T10:43:10.363047
415,-1.0531,0.0283,0.4900,62.055,34.160,130.060,0.00,0.00,0.03,0.86,0.00,2025-06-06T10:43:10.363047
416,-1.0399,0.2162,0.5583,58.975,34.440,131.740,0.00,0.00,0.02,0.87,0.00,2025-06-06T10:43:10.363047
417,-1.1366,0.1235,0.5729,58.415,27.405,129.500,3.00,0.00,0.02,0.90,0.00,2025-06-06T10:43:10.363047
418,-1.0594,0.1776,0.5090,61.600,14.490,128.590,3.00,0.00,0.02,0.91,0.01,2025-06-06T10:43:10.363047
419,-1.0897,0.2865,0.4612,70.560,7.245,129.220,2.00,0.00,0.02,0.93,0.01,2025-06-06T10:43:10.363047
420,-0.9306,0.3436,0.3802,73.710,12.180,139.580,1.00,0.00,0.03,0.95,0.00,2025-06-06T10:43:10.363047
421,-0.8491,0.3675,0.2933,78.575,28.000,151.200,0.00,0.00,0.02,0.95,0.00,2025-06-06T10:43:10.363047
422,-0.8701,0.5012,0.3611,76.895,37.940,164.535,0.00,0.00,0.02,0.96,0.00,2025-06-06T10:43:10.363047
423,-0.8394,0.5378,0.3011,76.405,39.655,177.765,1.00,0.00,0.03,0.94,0.00,2025-06-06T10:43:10.363047
424,-0.8301,0.5246,0.2460,82.005,35.455,183.750,0.00,0.00,0.02,0.94,0.00,2025-06-06T10:43:10.363047
425,-0.8047,0.6041,0.2601,86.345,40.075,186.585,1.00,0.00,0.02,0.95,0.00,2025-06-06T10:43:10.363047
426,-0.7261,0.6222,0.3567,77.875,45.290,192.815,1.00,0.00,0.03,0.96,0.00,2025-06-06T10:43:10.363047
427,-0.5900,0.5788,0.3396,67.445,46.900,197.470,1.00,0.00,0.03,0.97,0.00,2025-06-06T10:43:10.363047
428,-0.6695,0.5256,0.4250,64.610,47.565,199.220,1.00,0.00,0.02,0.99,0.00,2025-06-06T10:43:10.363047
429,-0.7369,0.5168,0.4241,59.255,42.140,192.605,2.00,0.00,0.03,0.98,0.00,2025-06-06T10:43:10.363047
430,-0.8003,0.5251,0.3504,56.035,35.980,179.445,1.00,0.00,0.04,0.97,0.01,2025-06-06T10:43:10.363047
431,-0.8374,0.6139,0.2025,64.715,33.530,163.170,2.00,0.00,0.03,0.95,0.00,2025-06-06T10:43:10.363047
432,-0.5954,0.7642,0.2713,71.400,19.075,150.920,2.00,0.00,0.04,0.92,0.00,2025-06-06T10:43:10.363047
433,-0.4880,0.7359,0.2928,66.325,7.805,148.120,1.00,0.00,0.01,0.86,0.01,2025-06-06T10:43:10.514872
434,-0.4011,0.7598,0.2513,62.160,9.170,142.450,2.00,0.00,0.03,0.80,0.00,2025-06-06T10:43:10.514872
435,-0.7052,0.5788,0.3899,53.900,12.600,132.545,2.00,0.01,0.03,0.68,0.00,2025-06-06T10:43:10.514872
436,-0.5085,0.5031,0.1557,45.535,4.690,116.795,4.00,0.01,0.04,0.55,0.00,2025-06-06T10:43:10.514872
437,-0.7042,0.6383,0.3421,56.315,0.210,98.035,1.00,0.01,0.03,0.44,0.00,2025-06-06T10:43:10.514872
438,-0.3772,0.7686,0.1737,58.625,-16.730,95.760,2.00,0.00,0.03,0.32,0.00,2025-06-06T10:43:10.514872
439,-0.2894,0.8545,0.0571,74.935,-25.060,93.100,1.00,0.00,0.02,0.22,0.00,2025-06-06T10:43:10.514872
440,-0.0425,0.8926,-0.1264,93.310,-29.575,88.865,0.00,0.00,0.03,0.17,0.00,2025-06-06T10:43:10.514872
441,-0.1635,1.0326,-0.2201,124.530,-24.290,81.795,5.00,0.00,0.02,0.14,0.00,2025-06-06T10:43:10.514872
442,-0.2445,1.0360,-0.0400,130.480,-11.445,64.015,1.00,0.00,0.02,0.09,0.00,2025-06-06T10:43:10.514872
443,-0.1376,1.8139,-0.2923,149.940,-17.115,91.595,0.00,0.00,0.02,0.07,0.00,2025-06-06T10:43:10.514872
444,-0.3279,0.4299,0.1137,139.020,18.865,55.230,1.00,0.00,0.02,0.05,0.00,2025-06-06T10:43:10.514872
445,0.0512,0.3582,-0.7657,120.610,3.920,78.225,1.00,0.00,0.02,0.04,0.00,2025-06-06T10:43:10.721764
446,0.2874,1.0609,-0.2269,125.685,20.475,64.505,1.00,0.00,0.02,0.02,0.00,2025-06-06T10:43:10.721764
447,0.7169,0.4714,-0.4153,25.585,22.960,44.205,2.00,0.01,0.02,0.02,0.00,2025-06-06T10:43:10.721764
448,1.5577,0.2772,-0.5144,-23.765,44.380,17.395,2.00,0.01,0.01,0.03,0.01,2025-06-06T10:43:10.721764
449,2.3697,-0.4543,0.2582,-275.765,70.105,-91.980,1.00,0.00,0.01,0.02,0.01,2025-06-06T10:43:10.721764
450,3.2691,-1.0082,0.7935,-304.570,238.385,-136.465,2.00,0.00,0.02,0.03,0.00,2025-06-06T10:43:10.721764
451,2.1433,-1.4455,0.0683,-377.510,218.365,-257.635,2.00,0.00,0.01,0.00,0.00,2025-06-06T10:43:10.721764
452,-1.8066,-2.3341,-2.2228,-446.845,254.100,-460.285,1.00,0.00,0.01,0.02,0.00,2025-06-06T10:43:10.721764
453,-2.7865,-0.1220,-1.6499,-5.740,150.185,-704.970,1.00,0.00,0.02,0.02,0.01,2025-06-06T10:43:10.721764
454,-5.5510,1.5011,-0.0756,-100.940,119.350,-861.280,0.00,0.01,0.01,0.01,0.00,2025-06-06T10:43:10.721764
455,-7.6406,0.8218,1.1014,-130.095,135.625,-963.375,1.00,0.01,0.01,0.01,0.00,2025-06-06T10:43:10.721764
456,-4.6253,0.7569,2.3990,-57.400,24.500,-928.655,2.00,0.00,0.01,0.02,0.00,2025-06-06T10:43:10.721764
457,-3.2110,-0.0859,3.2784,7.315,-164.500,-712.180,0.00,0.01,0.01,0.01,0.00,2025-06-06T10:43:10.721764
458,-0.9594,0.4460,1.3845,-69.230,-327.915,-428.330,1.00,0.00,0.01,0.01,0.01,2025-06-06T10:43:10.721764
459,0.6871,1.0336,-1.2581,95.410,-541.345,-186.305,2.00,0.00,0.01,0.01,0.01,2025-06-06T10:43:10.721764
460,1.1385,1.4577,-2.4034,128.765,-423.185,174.755,1.00,0.00,0.01,0.02,0.01,2025-06-06T10:43:10.818745
461,-0.2147,0.3128,-2.3278,87.535,-102.060,244.650,1.00,0.00,0.00,0.00,0.00,2025-06-06T10:43:10.818745
462,-0.8262,0.0922,-1.5987,-93.590,132.125,214.270,1.00,0.01,0.02,0.02,0.01,2025-06-06T10:43:10.818745
463,-1.3684,-0.6676,-1.0673,-73.675,400.925,186.655,2.00,0.01,0.00,0.01,0.00,2025-06-06T10:43:10.818745
464,-2.1740,-0.4778,0.6564,18.480,420.245,156.800,2.00,0.00,0.01,0.02,0.00,2025-06-06T10:43:10.818745
465,-2.5815,-0.1571,2.2780,24.745,236.565,94.710,2.00,0.00,0.02,0.01,0.00,2025-06-06T10:43:10.818745
466,-2.5010,-0.2372,2.2702,21.210,-55.335,46.480,0.00,0.00,0.01,0.01,0.00,2025-06-06T10:43:10.818745
467,-1.8266,-0.1898,1.2351,44.100,-224.525,9.730,1.00,0.01,0.01,0.01,0.00,2025-06-06T10:43:10.818745
468,-1.3332,0.0483,0.7418,25.830,-274.365,-4.410,1.00,0.00,0.01,0.01,0.00,2025-06-06T10:43:10.868869
469,-0.7627,0.2508,0.1845,21.735,-239.645,11.305,2.00,0.01,0.01,0.00,0.01,2025-06-06T10:43:10.868869
470,-0.5373,-0.1005,-0.4587,0.210,-114.590,29.715,2.00,0.00,0.03,0.01,0.00,2025-06-06T10:43:10.868869
471,-0.6930,-0.0176,-0.2313,2.485,29.120,41.930,2.00,0.01,0.02,0.01,0.00,2025-06-06T10:43:10.868869
472,-0.9389,0.1786,0.1767,-6.615,90.125,53.760,1.00,0.01,0.02,0.00,0.01,2025-06-06T10:43:11.121559
473,-1.3147,0.1313,0.4094,3.465,87.290,60.795,0.00,0.00,0.02,0.00,0.01,2025-06-06T10:43:11.121559
474,-1.4762,0.4397,0.7027,35.770,12.250,67.060,2.00,0.00,0.02,0.02,0.00,2025-06-06T10:43:11.121559
475,-1.4996,0.5592,0.6554,28.665,-53.795,78.505,0.00,0.00,0.02,0.01,0.01,2025-06-06T10:43:11.121559
476,-1.3352,0.4475,0.5578,45.115,-103.180,85.960,0.00,0.00,0.02,0.01,0.01,2025-06-06T10:43:11.121559
477,-1.2083,0.2645,0.3855,50.610,-121.310,89.530,2.00,0.01,0.00,0.01,0.00,2025-06-06T10:43:11.121559
478,-1.0590,0.1391,0.2708,62.125,-114.065,91.840,1.00,0.00,0.01,0.00,0.01,2025-06-06T10:43:11.121559
479,-0.8901,0.1078,0.3235,71.400,-91.700,94.535,0.00,0.00,0.01,0.02,0.00,2025-06-06T10:43:11.121559
480,-0.7486,0.0937,0.2499,75.985,-52.220,100.275,2.00,0.00,0.01,0.01,0.00,2025-06-06T10:43:11.121559
481,-0.7725,0.1586,0.2152,84.840,-13.615,106.400,0.00,0.00,0.01,0.01,0.00,2025-06-06T10:43:11.121559
482,-0.7749,0.3592,0.2474,81.655,17.220,114.520,0.00,0.00,0.00,0.03,0.00,2025-06-06T10:43:11.121559
483,-0.7242,0.4597,0.2708,78.225,35.035,123.025,1.00,0.00,0.01,0.01,0.00,2025-06-06T10:43:11.121559
484,-0.9052,0.5412,0.3645,63.000,40.040,131.215,0.00,0.00,0.00,0.01,0.00,2025-06-06T10:43:11.121559
485,-0.6446,0.6588,0.3065,65.800,25.480,144.375,1.00,0.00,0.01,0.01,0.00,2025-06-06T10:43:11.121559
486,-1.0346,0.3933,0.3655,66.535,33.005,145.005,0.00,0.00,0.01,0.02,0.00,2025-06-06T10:43:11.121559
487,-0.7496,0.4563,0.4455,76.230,29.190,139.545,0.00,0.01,0.00,0.02,0.00,2025-06-06T10:43:11.121559
488,-0.6339,0.3938,0.2699,72.100,21.490,143.045,2.00,0.00,0.01,0.01,0.00,2025-06-06T10:43:11.121559
489,-0.7159,0.4455,0.1776,73.395,41.160,136.220,1.00,0.00,0.01,0.02,0.00,2025-06-06T10:43:11.121559
490,-0.5251,0.4724,0.2074,68.845,51.590,133.420,1.00,0.01,0.00,0.02,0.00,2025-06-06T10:43:11.121559
491,-0.4929,0.5051,0.2137,58.065,60.655,134.470,1.00,0.00,0.01,0.04,0.00,2025-06-06T10:43:11.343653
492,-0.6456,0.5802,0.2333,51.940,67.550,133.420,1.00,0.00,0.01,0.03,0.00,2025-06-06T10:43:11.343653
493,-0.5910,0.5729,0.3157,57.365,60.165,131.180,2.00,0.01,0.01,0.05,0.00,2025-06-06T10:43:11.343653
494,-0.6656,0.6281,0.3562,54.845,42.175,128.450,1.00,0.01,0.01,0.05,0.01,2025-06-06T10:43:11.343653
495,-0.7857,0.6808,0.3880,52.150,28.840,121.660,2.00,0.00,0.01,0.05,0.01,2025-06-06T10:43:11.343653
496,-0.8569,0.6715,0.4577,44.695,13.440,112.875,0.00,0.00,0.01,0.07,0.00,2025-06-06T10:43:11.343653
497,-0.5329,0.6837,0.4660,53.550,-12.880,105.245,1.00,0.00,0.01,0.06,0.00,2025-06-06T10:43:11.343653
498,-0.2425,0.7427,0.4099,108.920,-44.940,113.995,2.00,0.01,0.01,0.08,0.01,2025-06-06T10:43:11.343653
499,-0.3543,0.6295,0.2250,98.595,-49.140,111.510,1.00,0.01,0.00,0.06,0.00,2025-06-06T10:43:11.343653
500,-0.7154,0.5754,0.1889,54.915,-26.950,96.530,1.00,0.00,0.01,0.09,0.00,2025-06-06T10:43:11.343653
501,-0.7764,0.5924,0.1479,22.155,-4.305,81.480,2.00,0.00,0.02,0.11,0.00,2025-06-06T10:43:11.517535
502,-0.8374,0.6139,0.1630,40.075,3.605,81.725,1.00,0.01,0.01,0.11,0.00,2025-06-06T10:43:11.517535
503,-0.6593,0.7213,0.1893,57.400,3.045,56.175,1.00,0.01,0.02,0.10,0.00,2025-06-06T10:43:11.517535
504,-0.4973,0.7891,0.1664,77.840,-2.555,56.770,1.00,0.00,0.03,0.09,0.00,2025-06-06T10:43:11.517535
505,-0.2982,0.9135,-0.0678,85.995,-2.135,53.725,1.00,0.00,0.05,0.07,0.00,2025-06-06T10:43:11.517535
506,-0.3518,0.9126,-0.1771,70.875,4.795,56.245,1.00,0.00,0.06,0.06,0.00,2025-06-06T10:43:11.517535
507,-0.4631,0.9516,-0.1220,55.125,13.895,63.280,2.00,0.01,0.07,0.05,0.00,2025-06-06T10:43:11.538116
508,-0.5412,0.9916,-0.0625,66.465,14.105,66.780,1.00,0.01,0.09,0.01,0.01,2025-06-06T10:43:11.538116
509,-0.3816,0.9799,-0.0805,92.435,11.935,65.345,4.00,0.00,0.13,0.03,0.00,2025-06-06T10:43:11.538116
510,-0.3470,0.9443,-0.1425,109.060,14.840,64.890,2.00,0.01,0.15,0.02,0.00,2025-06-06T10:43:11.538116
511,-0.3084,0.9545,-0.2230,106.085,29.155,61.880,2.00,0.00,0.17,0.00,0.00,2025-06-06T10:43:11.538116
512,-0.4846,0.9389,-0.2064,42.210,52.815,51.520,0.00,0.00,0.17,0.01,0.00,2025-06-06T10:43:11.538116
513,-0.2738,0.9282,-0.1186,29.645,70.210,52.395,3.00,0.01,0.20,0.01,0.00,2025-06-06T10:43:11.538116
514,-0.3660,0.9770,-0.0088,31.045,65.800,52.535,0.00,0.01,0.21,0.01,0.00,2025-06-06T10:43:11.538116
515,-0.4348,0.9174,-0.0532,20.825,69.545,44.975,1.00,0.00,0.21,0.01,0.00,2025-06-06T10:43:11.538116
516,-0.3143,0.9130,-0.0952,12.005,75.635,35.700,1.00,0.00,0.23,0.01,0.00,2025-06-06T10:43:11.538116
517,-0.2118,0.9653,-0.2025,6.965,77.840,26.390,0.00,0.00,0.23,0.01,0.01,2025-06-06T10:43:11.538116
518,-0.2894,0.8086,-0.1854,5.250,82.565,19.950,2.00,0.00,0.22,0.01,0.00,2025-06-06T10:43:11.538116
519,-0.1737,0.8711,-0.0503,10.115,66.815,19.075,2.00,0.00,0.23,0.01,0.00,2025-06-06T10:43:11.538116
520,-0.1181,0.8755,-0.0327,12.425,47.600,22.540,0.00,0.00,0.24,0.01,0.00,2025-06-06T10:43:11.538116
521,-0.0268,0.6544,-0.1122,11.270,37.905,24.220,0.00,0.00,0.24,0.01,0.01,2025-06-06T10:43:11.538116
522,-0.2006,0.7676,-0.1649,20.685,35.175,6.300,0.00,0.01,0.23,0.01,0.01,2025-06-06T10:43:11.639373
523,-0.1967,0.6978,-0.1732,11.025,41.510,-14.875,0.00,0.01,0.21,0.01,0.00,2025-06-06T10:43:11.639373
524,-0.4612,0.4099,-0.2303,0.665,55.300,-39.690,3.00,0.00,0.19,0.01,0.00,2025-06-06T10:43:11.639373
525,-0.2386,0.7462,0.0332,19.530,24.605,-52.325,3.00,0.01,0.18,0.01,0.00,2025-06-06T10:43:11.639373
526,-0.1347,0.9975,0.2186,20.265,-13.405,-40.600,0.00,0.01,0.14,0.01,0.00,2025-06-06T10:43:11.639373
527,-0.1537,0.9106,0.0346,0.665,-39.760,-28.070,0.00,0.00,0.11,0.01,0.00,2025-06-06T10:43:11.639373
528,-0.2733,0.8867,-0.1039,0.140,-54.495,-26.635,1.00,0.00,0.11,0.01,0.00,2025-06-06T10:43:11.639373
529,-0.2406,0.9135,-0.1825,0.840,-61.250,-32.410,3.00,0.00,0.07,0.01,0.00,2025-06-06T10:43:11.639373
530,-0.2216,0.9350,-0.3045,-16.030,-50.435,-41.580,3.00,0.00,0.06,0.01,0.00,2025-06-06T10:43:11.686581
531,-0.3357,0.9443,-0.3440,-59.535,-20.930,-51.380,1.00,0.00,0.05,0.01,0.01,2025-06-06T10:43:11.686581
532,-0.1357,1.0897,-0.1606,-74.725,-15.540,-38.325,0.00,0.00,0.04,0.01,0.00,2025-06-06T10:43:11.686581
533,0.0854,1.3825,-0.2015,-32.165,-26.110,-40.705,0.00,0.00,0.04,0.01,0.00,2025-06-06T10:43:11.737535
534,0.5461,1.5499,-0.3070,7.910,-56.210,-22.435,2.00,0.01,0.03,0.00,0.01,2025-06-06T10:43:11.737535
535,1.2981,1.5167,-0.6183,-32.970,-75.670,-8.575,0.00,0.01,0.03,0.01,0.00,2025-06-06T10:43:11.737535
536,2.5908,1.2224,-0.7130,-165.690,-59.255,-24.465,0.00,0.00,0.03,0.01,0.00,2025-06-06T10:43:11.737535
537,3.5360,0.1845,-0.9179,-292.985,100.905,-21.105,4.00,0.01,0.03,0.02,0.00,2025-06-06T10:43:11.835773
538,4.1963,-1.0746,-0.0190,-217.420,358.435,-22.015,0.00,0.00,0.04,0.00,0.00,2025-06-06T10:43:11.835773
539,0.9345,-3.0256,0.3128,-307.825,529.970,-185.955,4.00,0.01,0.04,0.01,0.01,2025-06-06T10:43:11.835773
540,0.9072,-1.2063,2.5903,-172.830,529.970,-337.855,2.00,0.01,0.03,0.01,0.00,2025-06-06T10:43:11.835773
541,-3.7757,-2.4078,-1.2581,-7.105,44.275,-581.910,0.00,0.00,0.02,0.01,0.00,2025-06-06T10:43:11.835773
542,-5.9658,-1.2625,-2.3834,176.995,-0.595,-830.410,1.00,0.00,0.02,0.01,0.01,2025-06-06T10:43:11.835773
543,-7.9363,0.5783,-1.0921,80.535,-5.670,-982.660,2.00,0.00,0.03,0.01,0.00,2025-06-06T10:43:11.835773
544,-7.3220,1.4098,-0.2469,113.050,-14.490,-1062.390,0.00,0.00,0.03,0.01,0.00,2025-06-06T10:43:11.835773
545,-1.9647,1.3440,1.5738,120.050,-64.050,-797.930,0.00,0.01,0.03,0.01,0.00,2025-06-06T10:43:11.913132
546,-1.1444,-0.0673,-0.7427,-61.670,-19.845,-486.290,2.00,0.01,0.03,0.02,0.00,2025-06-06T10:43:11.913132
547,-1.1712,5.9209,2.1091,255.990,-355.915,300.545,3.00,0.01,0.03,0.02,0.01,2025-06-06T10:43:11.913132
548,-1.2039,-1.6875,-2.9090,-127.855,-137.375,458.640,4.00,0.00,0.02,0.03,0.01,2025-06-06T10:43:12.117975
549,-3.1613,-1.0209,-1.1419,-5.810,235.235,402.570,1.00,0.00,0.03,0.04,0.00,2025-06-06T10:43:12.117975
550,-1.6524,0.0151,0.5373,29.820,222.145,283.430,1.00,0.01,0.02,0.05,0.01,2025-06-06T10:43:12.117975
551,-1.9408,-0.1020,1.0014,-54.845,113.645,228.095,1.00,0.00,0.03,0.05,0.01,2025-06-06T10:43:12.117975
552,-2.0115,-0.4782,0.4343,-4.760,-2.800,123.970,1.00,0.00,0.03,0.05,0.00,2025-06-06T10:43:12.117975
553,-1.5514,-0.0429,0.4133,-9.485,-104.370,28.070,0.00,0.00,0.02,0.07,0.00,2025-06-06T10:43:12.117975
554,-1.0433,0.4153,0.2913,11.445,-188.825,-6.965,5.00,0.00,0.02,0.07,0.00,2025-06-06T10:43:12.117975
555,-0.6407,0.1035,-0.2464,29.050,-241.535,-29.960,3.00,0.00,0.02,0.08,0.00,2025-06-06T10:43:12.117975
556,-0.3919,0.2777,-0.3860,68.810,-244.790,-22.995,1.00,0.01,0.01,0.10,0.00,2025-06-06T10:43:12.117975
557,-0.4358,0.1762,-0.3831,39.410,-187.950,-6.790,2.00,0.00,0.02,0.11,0.00,2025-06-06T10:43:12.117975
558,-0.3797,-0.0322,-0.5505,16.625,-106.820,14.105,1.00,0.00,0.02,0.13,0.01,2025-06-06T10:43:12.117975
559,-0.4865,-0.0634,-0.4426,14.700,-8.645,37.170,0.00,0.00,0.02,0.16,0.00,2025-06-06T10:43:12.117975
560,-0.6310,0.1444,-0.2123,-7.700,61.600,62.230,0.00,0.01,0.01,0.16,0.01,2025-06-06T10:43:12.117975
561,-0.9882,0.1688,0.0664,-27.615,101.395,75.810,0.00,0.01,0.02,0.19,0.01,2025-06-06T10:43:12.117975
562,-0.9887,0.3328,0.1986,-20.475,94.815,87.500,1.00,0.00,0.02,0.21,0.00,2025-06-06T10:43:12.117975
563,-1.0233,0.4280,0.2616,-21.350,48.440,98.630,0.00,0.00,0.01,0.25,0.00,2025-06-06T10:43:12.117975
564,-1.1161,0.4221,0.2533,9.065,-8.330,102.025,3.00,0.00,0.01,0.28,0.00,2025-06-06T10:43:12.117975
565,-0.8906,0.6110,0.3314,20.965,-69.965,113.505,0.00,0.00,0.01,0.32,0.01,2025-06-06T10:43:12.117975
566,-0.9023,0.5309,0.3240,10.500,-110.635,127.155,1.00,0.00,0.01,0.33,0.00,2025-06-06T10:43:12.228186
567,-0.8921,0.4002,0.3045,8.015,-128.940,133.595,3.00,0.00,0.02,0.36,0.00,2025-06-06T10:43:12.228186
568,-0.9048,0.4138,0.2342,15.960,-126.210,132.335,0.00,0.01,0.02,0.40,0.00,2025-06-06T10:43:12.228186
569,-0.9418,0.4324,0.0234,13.965,-106.715,129.430,2.00,0.01,0.01,0.43,0.01,2025-06-06T10:43:12.228186
570,-0.8916,0.4753,0.0264,22.260,-89.565,121.520,0.00,0.01,0.01,0.43,0.00,2025-06-06T10:43:12.228186
571,-0.8111,0.4978,0.0049,36.330,-62.405,132.265,3.00,0.01,0.02,0.45,0.00,2025-06-06T10:43:12.281612
572,-0.6534,0.5915,0.1698,32.165,-46.410,116.410,1.00,0.00,0.02,0.48,0.00,2025-06-06T10:43:12.281612
573,-0.5700,0.6515,0.2284,24.325,-26.845,135.590,2.00,0.01,0.02,0.50,0.00,2025-06-06T10:43:12.281612
574,-0.4939,0.7325,0.1889,15.855,-7.525,103.355,2.00,0.00,0.03,0.54,0.00,2025-06-06T10:43:12.281612
575,-0.4943,0.7096,0.1430,13.335,13.860,110.215,0.00,0.00,0.04,0.55,0.00,2025-06-06T10:43:12.281612
576,-0.5671,0.7213,0.2103,11.760,26.495,102.305,1.00,0.00,0.03,0.55,0.01,2025-06-06T10:43:12.281612
577,-0.5968,0.6324,0.1864,11.480,34.440,97.895,1.00,0.01,0.04,0.57,0.01,2025-06-06T10:43:12.281612
578,-0.6886,0.6939,0.2152,17.150,35.035,90.300,3.00,0.00,0.06,0.57,0.00,2025-06-06T10:43:12.354260
579,-0.7169,0.8213,0.3104,17.360,33.460,83.965,0.00,0.01,0.05,0.59,0.00,2025-06-06T10:43:12.354260
580,-0.6588,0.8257,0.3367,17.115,29.015,87.220,2.00,0.00,0.07,0.61,0.01,2025-06-06T10:43:12.354260
581,-0.5807,0.7491,0.3099,9.100,27.055,86.695,1.00,0.01,0.09,0.64,0.00,2025-06-06T10:43:12.354260
582,-0.5412,0.7769,0.3338,11.970,10.745,99.610,3.00,0.00,0.08,0.61,0.00,2025-06-06T10:43:12.354260
583,-0.5280,0.8091,0.2987,22.680,-4.620,87.850,0.00,0.00,0.10,0.64,0.00,2025-06-06T10:43:12.403778
584,-0.5802,0.7164,0.2489,25.865,-11.305,85.050,2.00,0.01,0.11,0.65,0.00,2025-06-06T10:43:12.403778
585,-0.5241,0.6315,0.1806,36.855,-4.025,83.475,4.00,0.00,0.11,0.64,0.00,2025-06-06T10:43:12.403778
586,-0.5695,0.7525,0.2069,57.470,-4.830,77.910,1.00,0.01,0.11,0.65,0.00,2025-06-06T10:43:12.403778
587,-0.5514,0.8208,0.2211,75.740,-6.510,76.930,4.00,0.00,0.14,0.65,0.00,2025-06-06T10:43:12.454757
588,-0.4778,0.8140,0.2040,98.280,-5.740,63.700,0.00,0.00,0.14,0.67,0.00,2025-06-06T10:43:12.454757
589,-0.4660,0.8477,0.1767,95.865,-5.320,63.280,4.00,0.00,0.14,0.67,0.00,2025-06-06T10:43:12.454757
590,-0.4109,0.8823,0.1552,86.555,-4.410,65.625,2.00,0.01,0.15,0.69,0.01,2025-06-06T10:43:12.454757
591,-0.3367,0.9170,0.1576,88.690,-9.135,69.090,1.00,0.00,0.15,0.69,0.00,2025-06-06T10:43:12.559517
592,-0.3543,0.8843,0.0854,93.065,-14.455,73.710,0.00,0.00,0.15,0.68,0.00,2025-06-06T10:43:12.559517
593,-0.3367,0.8623,0.0244,87.150,-13.195,70.420,2.00,0.00,0.16,0.68,0.00,2025-06-06T10:43:12.559517
594,-0.5358,0.8813,0.0605,80.325,-6.615,65.380,1.00,0.00,0.15,0.69,0.01,2025-06-06T10:43:12.559517
595,-0.4831,0.9355,0.0312,46.970,-6.965,59.605,1.00,0.00,0.13,0.71,0.00,2025-06-06T10:43:12.559517
596,-0.3065,0.8721,0.0200,26.320,-1.540,59.290,3.00,0.00,0.11,0.72,0.00,2025-06-06T10:43:12.559517
597,-0.2367,0.9048,0.0405,19.810,-1.505,61.775,1.00,0.00,0.10,0.73,0.00,2025-06-06T10:43:12.559517
598,-0.2147,0.9062,-0.0639,25.760,-0.070,63.385,0.00,0.01,0.08,0.74,0.00,2025-06-06T10:43:12.559517
599,-0.3152,0.8340,-0.1352,23.345,13.545,58.940,2.00,0.01,0.08,0.75,0.00,2025-06-06T10:43:12.605887
600,-0.3660,0.7969,-0.1225,23.030,27.160,53.690,2.00,0.00,0.06,0.74,0.00,2025-06-06T10:43:12.605887
601,-0.5022,0.8101,-0.0415,25.480,36.295,43.960,1.00,0.00,0.06,0.74,0.00,2025-06-06T10:43:12.605887
602,-0.5095,0.8452,0.0049,27.230,38.780,33.460,0.00,0.01,0.05,0.75,0.00,2025-06-06T10:43:12.647015
603,-0.4133,0.9248,0.0605,26.110,36.470,29.050,0.00,0.01,0.04,0.74,0.00,2025-06-06T10:43:12.647015
604,-0.3626,0.9521,0.0747,24.605,32.970,27.615,1.00,0.01,0.05,0.75,0.00,2025-06-06T10:43:12.647015
605,-0.3523,0.9618,0.1088,23.415,25.760,26.320,1.00,0.00,0.04,0.75,0.00,2025-06-06T10:43:12.647015
606,-0.2157,0.9804,0.0864,20.825,11.585,28.840,1.00,0.00,0.03,0.77,0.00,2025-06-06T10:43:12.756954
607,-0.2904,0.9838,-0.0161,12.880,14.280,25.515,2.00,0.01,0.03,0.77,0.00,2025-06-06T10:43:12.756954
608,-0.2928,0.9462,-0.0805,8.575,19.425,18.375,0.00,0.00,0.04,0.78,0.00,2025-06-06T10:43:12.756954
609,-0.1610,0.9906,-0.1059,11.585,20.615,11.900,1.00,0.00,0.03,0.77,0.00,2025-06-06T10:43:12.756954
610,-0.0273,1.0438,-0.1161,13.300,20.335,7.140,2.00,0.01,0.02,0.79,0.01,2025-06-06T10:43:12.756954
611,-0.0317,1.0653,-0.1118,11.235,21.700,-4.025,1.00,0.00,0.02,0.78,0.00,2025-06-06T10:43:12.756954
612,0.0444,1.1175,-0.1078,6.545,23.660,-16.975,4.00,0.00,0.01,0.78,0.00,2025-06-06T10:43:12.756954
613,0.1044,1.1263,-0.1376,3.290,33.810,-37.030,1.00,0.00,0.02,0.77,0.00,2025-06-06T10:43:12.756954
614,0.2240,1.0009,-0.1493,-2.170,47.670,-61.740,2.00,0.00,0.03,0.76,0.00,2025-06-06T10:43:12.866273
615,0.3060,1.2176,0.0537,-16.450,39.725,-81.445,2.00,0.01,0.01,0.75,0.00,2025-06-06T10:43:12.866273
616,0.4743,0.7735,0.1986,-50.540,33.600,-97.510,0.00,0.00,0.02,0.75,0.01,2025-06-06T10:43:12.866273
617,1.2615,0.5758,0.6227,-87.430,12.775,-115.010,3.00,0.00,0.01,0.75,0.00,2025-06-06T10:43:12.866273
618,2.9275,0.8662,1.1263,-133.350,-123.445,-112.630,1.00,0.01,0.02,0.75,0.00,2025-06-06T10:43:12.866273
619,4.5657,0.0454,0.1532,-216.545,-175.560,-169.750,1.00,0.00,0.02,0.75,0.00,2025-06-06T10:43:12.866273
620,4.1251,-0.4553,-0.8745,-321.020,-43.435,-100.590,1.00,0.01,0.00,0.75,0.01,2025-06-06T10:43:12.866273
621,2.6420,-1.7875,-2.2062,-227.395,272.265,-145.215,0.00,0.00,0.02,0.74,0.01,2025-06-06T10:43:12.866273
622,-0.3894,-2.5791,-2.6537,-120.750,484.925,-354.060,2.00,0.00,0.01,0.73,0.01,2025-06-06T10:43:12.920694
623,-6.3567,-2.7645,-2.1838,188.090,550.200,-589.960,2.00,0.00,0.01,0.73,0.01,2025-06-06T10:43:12.920694
624,-10.7175,0.3196,-0.0161,296.310,314.965,-841.820,4.00,0.01,0.02,0.73,0.01,2025-06-06T10:43:12.920694
625,-8.7289,1.5943,1.8998,152.810,-40.110,-1063.685,1.00,0.01,0.03,0.74,0.00,2025-06-06T10:43:12.920694
626,-2.2189,0.6588,0.7442,156.835,-461.440,-919.800,2.00,0.01,0.03,0.70,0.01,2025-06-06T10:43:12.966396
627,-1.6450,-0.5817,-1.5338,243.390,-455.840,-699.055,3.00,0.00,0.01,0.72,0.00,2025-06-06T10:43:12.966396
628,1.6255,1.1346,-3.3804,6.300,-142.450,-407.575,1.00,0.00,0.02,0.71,0.00,2025-06-06T10:43:12.966396
629,0.5773,1.6436,-0.7027,126.630,-38.290,126.210,2.00,0.01,0.02,0.71,0.01,2025-06-06T10:43:13.017463
630,1.6045,1.3845,-1.6680,48.545,28.455,509.985,3.00,0.00,0.02,0.69,0.01,2025-06-06T10:43:13.017463
631,-3.7649,0.2606,-2.5171,-85.855,389.375,495.635,0.00,0.00,0.01,0.70,0.00,2025-06-06T10:43:13.017463
632,-3.8728,-0.6027,0.3406,160.230,266.945,302.505,1.00,0.01,0.02,0.69,0.00,2025-06-06T10:43:13.017463
633,-3.2052,-0.2762,-0.3304,86.485,192.115,287.385,1.00,0.01,0.01,0.69,0.00,2025-06-06T10:43:13.173472
634,-4.2378,-0.1996,1.3288,-46.795,54.425,135.380,0.00,0.01,0.03,0.67,0.01,2025-06-06T10:43:13.173472
635,-2.4337,-0.0688,0.8350,-12.880,-133.315,80.115,2.00,0.00,0.02,0.67,0.00,2025-06-06T10:43:13.173472
636,-1.4977,-0.1596,0.1176,-91.245,-236.810,49.665,1.00,0.01,0.02,0.67,0.01,2025-06-06T10:43:13.173472
637,-0.8721,0.0215,0.0059,37.485,-325.255,55.895,2.00,0.00,0.02,0.67,0.00,2025-06-06T10:43:13.173472
638,-0.6051,0.3231,-0.0351,-9.310,-320.285,86.380,3.00,0.01,0.01,0.66,0.00,2025-06-06T10:43:13.173472
639,-0.4002,0.1586,-0.4636,12.075,-267.470,114.625,2.00,0.00,0.02,0.67,0.01,2025-06-06T10:43:13.173472
640,-0.3528,0.0244,-0.7823,3.955,-172.515,133.070,0.00,0.01,0.01,0.69,0.00,2025-06-06T10:43:13.173472
641,-0.4255,-0.0171,-0.7530,9.940,-75.775,143.955,2.00,0.01,0.02,0.70,0.00,2025-06-06T10:43:13.173472
642,-0.5797,0.0971,-0.5417,-8.015,41.020,143.780,0.00,0.00,0.02,0.70,0.01,2025-06-06T10:43:13.173472
643,-0.6612,0.1806,-0.2923,-33.635,110.670,143.780,0.00,0.00,0.03,0.72,0.00,2025-06-06T10:43:13.173472
644,-0.7340,0.3089,0.0220,-28.140,139.055,143.535,1.00,0.01,0.02,0.73,0.00,2025-06-06T10:43:13.173472
645,-0.8125,0.5539,0.3079,-11.375,110.915,140.945,1.00,0.01,0.02,0.75,0.00,2025-06-06T10:43:13.315517
646,-0.8091,0.6783,0.3231,-14.245,72.940,138.145,1.00,0.00,0.02,0.76,0.01,2025-06-06T10:43:13.315517
647,-1.0853,0.5924,0.3445,-14.945,16.625,133.630,2.00,0.00,0.01,0.76,0.01,2025-06-06T10:43:13.315517
648,-1.0458,0.5256,0.3562,-5.950,-32.235,125.370,0.00,0.00,0.02,0.77,0.00,2025-06-06T10:43:13.315517
649,-0.9804,0.4987,0.3680,12.810,-79.870,115.115,1.00,0.00,0.01,0.77,0.01,2025-06-06T10:43:13.315517
650,-0.7979,0.6178,0.3670,24.430,-117.320,108.395,1.00,0.00,0.02,0.75,0.00,2025-06-06T10:43:13.315517
651,-0.6720,0.6661,0.2508,25.095,-128.415,107.030,2.00,0.00,0.02,0.73,0.00,2025-06-06T10:43:13.435883
652,-0.5402,0.6266,0.1610,29.155,-123.585,107.065,1.00,0.00,0.03,0.75,0.01,2025-06-06T10:43:13.435883
653,-0.5031,0.7320,0.1620,29.750,-106.330,106.820,2.00,0.00,0.03,0.76,0.00,2025-06-06T10:43:13.548193
654,-0.5436,0.6856,0.0810,25.935,-76.195,103.460,1.00,0.00,0.02,0.76,0.00,2025-06-06T10:43:13.548193
655,-0.7437,0.5261,0.0795,25.865,-39.655,92.610,0.00,0.00,0.03,0.72,0.01,2025-06-06T10:43:13.548193
656,-0.7227,0.5163,0.0264,23.975,-1.680,83.090,2.00,0.01,0.05,0.73,0.00,2025-06-06T10:43:13.548193
657,-0.5168,0.5314,0.1044,40.460,16.345,93.730,1.00,0.00,0.05,0.71,0.00,2025-06-06T10:43:13.548193
658,-0.3694,0.8213,0.1889,47.845,16.240,101.325,1.00,0.01,0.05,0.72,0.01,2025-06-06T10:43:13.548193
659,-0.3255,0.8930,0.2669,41.895,20.580,78.155,2.00,0.01,0.05,0.72,0.01,2025-06-06T10:43:13.548193
660,-0.2313,0.9418,0.3245,25.410,20.055,87.920,2.00,0.00,0.05,0.72,0.01,2025-06-06T10:43:13.548193
661,-0.3426,0.7832,0.3606,13.860,23.380,86.205,0.00,0.00,0.06,0.71,0.00,2025-06-06T10:43:13.548193
662,-0.4353,0.8350,0.2704,18.830,13.650,114.660,2.00,0.01,0.08,0.71,0.00,2025-06-06T10:43:13.548193
663,-0.4573,0.7701,0.3192,61.600,-3.360,118.440,2.00,0.01,0.07,0.71,0.00,2025-06-06T10:43:13.548193
664,-0.3494,0.7647,0.2762,90.580,-19.530,88.445,1.00,0.00,0.10,0.71,0.00,2025-06-06T10:43:13.548193
665,-0.3333,0.7403,0.2045,110.985,-32.200,92.890,2.00,0.01,0.11,0.73,0.00,2025-06-06T10:43:13.548193
666,-0.3040,0.7920,0.1376,95.095,-30.380,78.050,0.00,0.01,0.12,0.72,0.00,2025-06-06T10:43:13.548193
667,-0.3211,0.8067,0.0761,73.850,-25.620,73.815,1.00,0.00,0.13,0.73,0.00,2025-06-06T10:43:13.548193
668,-0.4036,0.7125,0.0449,43.890,-18.340,67.410,2.00,0.00,0.14,0.74,0.00,2025-06-06T10:43:13.548193
669,-0.2943,0.9165,0.1171,57.260,-23.065,64.960,3.00,0.00,0.15,0.73,0.00,2025-06-06T10:43:13.548193
670,-0.3235,0.9374,0.1708,77.735,-23.485,62.580,1.00,0.00,0.15,0.73,0.01,2025-06-06T10:43:13.548193
671,-0.3309,0.7984,0.0766,57.225,-15.505,58.205,2.00,0.00,0.17,0.74,0.00,2025-06-06T10:43:13.548193
672,-0.3221,0.8442,-0.0010,33.600,-1.435,51.625,0.00,0.01,0.18,0.73,0.00,2025-06-06T10:43:13.709728
673,-0.2889,0.8804,-0.0078,22.960,10.710,43.505,1.00,0.01,0.18,0.75,0.00,2025-06-06T10:43:13.709728
674,-0.2826,0.7286,-0.0566,7.840,15.435,38.255,2.00,0.01,0.19,0.74,0.00,2025-06-06T10:43:13.709728
675,-0.4168,0.9023,0.0117,7.700,12.845,29.680,0.00,0.01,0.20,0.74,0.00,2025-06-06T10:43:13.709728
676,-0.4124,1.0756,0.0927,29.715,12.950,28.245,2.00,0.01,0.20,0.74,0.00,2025-06-06T10:43:13.709728
677,-0.2547,0.9667,0.0703,38.710,8.505,34.825,1.00,0.01,0.20,0.73,0.01,2025-06-06T10:43:13.709728
678,-0.2869,0.8979,0.0278,12.530,3.570,41.860,2.00,0.01,0.19,0.74,0.00,2025-06-06T10:43:13.709728
679,-0.2474,0.9599,0.0346,11.340,-0.105,47.145,1.00,0.00,0.19,0.74,0.00,2025-06-06T10:43:13.709728
680,-0.2308,0.9692,-0.0195,15.155,-7.490,50.995,2.00,0.00,0.18,0.72,0.00,2025-06-06T10:43:13.709728
681,-0.2708,0.9340,-0.0942,14.980,-7.805,52.430,0.00,0.00,0.16,0.74,0.01,2025-06-06T10:43:13.709728
682,-0.3836,0.8872,-0.1039,13.440,-5.110,49.700,0.00,0.01,0.16,0.73,0.00,2025-06-06T10:43:13.709728
683,-0.2591,0.9379,-0.0698,22.085,-8.330,48.825,2.00,0.00,0.15,0.74,0.00,2025-06-06T10:43:13.766695
684,-0.2147,0.9628,-0.0327,25.620,-9.940,50.190,2.00,0.00,0.12,0.71,0.00,2025-06-06T10:43:13.766695
685,-0.1391,0.9599,-0.0478,23.485,-10.115,51.100,1.00,0.00,0.10,0.72,0.00,2025-06-06T10:43:13.766695
686,-0.0571,0.9667,-0.0644,26.355,-9.730,51.520,4.00,0.01,0.08,0.70,0.00,2025-06-06T10:43:13.766695
687,-0.0537,0.8725,-0.1376,24.150,-6.300,50.680,0.00,0.01,0.08,0.70,0.01,2025-06-06T10:43:13.766695
688,-0.2357,1.0160,-0.0117,25.585,-4.025,43.260,1.00,0.01,0.06,0.70,0.00,2025-06-06T10:43:13.766695
689,-0.2118,0.9599,-0.1586,19.565,6.405,34.335,3.00,0.00,0.06,0.71,0.00,2025-06-06T10:43:13.891302
690,-0.1908,0.9389,-0.1435,15.575,9.625,26.460,0.00,0.00,0.06,0.71,0.00,2025-06-06T10:43:13.891302
691,-0.1298,1.0004,-0.1030,22.295,10.395,22.050,1.00,0.00,0.05,0.70,0.00,2025-06-06T10:43:13.891302
692,-0.1200,1.0199,-0.0742,16.380,14.280,16.975,3.00,0.01,0.05,0.69,0.00,2025-06-06T10:43:13.891302
693,-0.0195,1.0106,-0.1176,8.295,17.675,13.545,0.00,0.00,0.05,0.69,0.00,2025-06-06T10:43:13.891302
694,-0.0800,0.9892,-0.1362,4.025,23.450,7.735,1.00,0.01,0.05,0.71,0.00,2025-06-06T10:43:13.891302
695,-0.2133,0.9853,-0.1186,-4.410,27.650,-0.805,2.00,0.00,0.05,0.70,0.01,2025-06-06T10:43:13.891302
696,-0.1610,0.9916,-0.0717,2.240,18.760,-6.475,0.00,0.00,0.05,0.67,0.00,2025-06-06T10:43:13.891302
697,-0.0512,1.0926,0.0117,19.285,2.170,-3.255,2.00,0.01,0.04,0.66,0.00,2025-06-06T10:43:13.891302
698,-0.0683,1.1195,0.0054,9.345,-9.135,2.135,2.00,0.00,0.04,0.65,0.00,2025-06-06T10:43:13.891302
699,-0.0654,1.0902,-0.0454,2.660,-14.560,2.590,2.00,0.01,0.03,0.66,0.01,2025-06-06T10:43:13.942008
700,0.0444,1.0726,-0.1708,4.970,-23.590,4.130,1.00,0.01,0.04,0.65,0.01,2025-06-06T10:43:13.942008
701,0.1332,1.1195,-0.3040,4.830,-19.320,4.585,2.00,0.00,0.04,0.62,0.00,2025-06-06T10:43:13.942008
702,0.1420,1.1497,-0.3904,-2.450,1.960,3.920,1.00,0.00,0.02,0.58,0.01,2025-06-06T10:43:13.942008
703,0.1928,1.1888,-0.3728,-8.995,17.290,3.640,1.00,0.00,0.02,0.58,0.01,2025-06-06T10:43:13.992688
704,0.2704,1.2639,-0.3094,-5.320,22.015,2.940,2.00,0.01,0.03,0.57,0.00,2025-06-06T10:43:13.992688
705,0.5422,1.2922,-0.1918,-10.325,11.935,0.140,0.00,0.01,0.02,0.53,0.00,2025-06-06T10:43:13.992688
706,1.1922,1.2385,-0.0634,-30.240,1.400,3.815,1.00,0.01,0.03,0.54,0.00,2025-06-06T10:43:14.120226
707,2.2614,0.6773,0.1025,-113.050,25.900,19.810,2.00,0.01,0.03,0.51,0.00,2025-06-06T10:43:14.120226
708,3.7942,-0.6251,0.0102,-174.650,45.500,-26.355,1.00,0.00,0.02,0.52,0.00,2025-06-06T10:43:14.120226
709,4.1451,-1.6197,0.4109,-285.390,154.665,44.100,4.00,0.00,0.03,0.51,0.01,2025-06-06T10:43:14.120226
710,2.5659,-2.8675,0.7452,-159.005,325.395,-23.030,3.00,0.01,0.02,0.49,0.00,2025-06-06T10:43:14.120226
711,-0.5158,-3.1305,0.7642,-59.220,317.485,-287.420,0.00,0.00,0.02,0.48,0.01,2025-06-06T10:43:14.120226
712,-2.8216,-2.4093,-0.1064,142.590,152.740,-557.970,1.00,0.00,0.02,0.48,0.00,2025-06-06T10:43:14.120226
713,-7.3337,0.5968,-1.2068,135.870,88.130,-864.185,1.00,0.01,0.03,0.46,0.00,2025-06-06T10:43:14.120226
714,-9.0251,3.3111,0.1147,108.710,23.625,-1146.740,1.00,0.00,0.02,0.47,0.01,2025-06-06T10:43:14.120226
715,-6.0014,2.7006,0.0034,39.270,-180.740,-1146.740,1.00,0.00,0.02,0.46,0.00,2025-06-06T10:43:14.228049
716,-0.4621,0.3333,-0.8828,250.775,-299.845,-1081.815,2.00,0.01,0.03,0.45,0.00,2025-06-06T10:43:14.228049
717,0.3899,2.0691,-1.5899,-74.480,-39.620,-818.720,0.00,0.00,0.03,0.43,0.01,2025-06-06T10:43:14.228049
718,2.4834,0.6568,-3.0295,-197.050,228.165,-409.115,1.00,0.01,0.02,0.43,0.00,2025-06-06T10:43:14.228049
719,-6.9623,0.9906,2.2609,180.670,10.990,253.575,1.00,0.00,0.03,0.43,0.01,2025-06-06T10:43:14.228049
720,1.3908,-0.9838,-0.0044,53.935,-245.490,518.385,3.00,0.00,0.01,0.42,0.01,2025-06-06T10:43:14.228049
721,-4.7765,-2.9456,-3.0349,-83.720,187.145,397.635,1.00,0.00,0.02,0.42,0.00,2025-06-06T10:43:14.228049
722,-3.1808,-2.7362,-0.4421,-21.140,359.415,223.545,3.00,0.00,0.02,0.44,0.01,2025-06-06T10:43:14.228049
723,-2.6503,0.4250,1.2908,-71.120,272.615,216.615,2.00,0.01,0.03,0.41,0.01,2025-06-06T10:43:14.228049
724,-2.7372,-0.3743,1.2581,-135.275,10.605,183.400,2.00,0.00,0.02,0.43,0.01,2025-06-06T10:43:14.402633
725,-1.6475,0.1318,0.3226,38.220,-220.675,152.425,2.00,0.00,0.02,0.43,0.00,2025-06-06T10:43:14.402633
726,-0.8921,0.3196,-0.2430,-22.260,-265.580,153.090,2.00,0.01,0.02,0.42,0.01,2025-06-06T10:43:14.402633
727,-0.7032,0.9067,-0.1928,48.125,-310.520,170.695,3.00,0.01,0.02,0.42,0.00,2025-06-06T10:43:14.402633
728,-0.8447,0.4021,-0.4997,-12.880,-292.915,163.975,2.00,0.00,0.03,0.41,0.00,2025-06-06T10:43:14.402633
729,-0.7325,-0.0322,-0.7925,40.565,-243.390,143.220,0.00,0.01,0.03,0.42,0.00,2025-06-06T10:43:14.402633
730,-0.5797,0.1025,-0.6407,46.410,-162.995,125.825,0.00,0.00,0.02,0.40,0.00,2025-06-06T10:43:14.402633
731,-0.5539,0.1118,-0.4812,21.840,-65.485,124.880,1.00,0.00,0.03,0.38,0.00,2025-06-06T10:43:14.402633
732,-0.6417,0.1405,-0.1161,1.855,27.685,127.820,3.00,0.00,0.02,0.37,0.00,2025-06-06T10:43:14.402633
733,-0.4963,0.1688,0.0961,-14.490,86.555,140.455,1.00,0.00,0.02,0.37,0.00,2025-06-06T10:43:14.402633
734,-0.5539,0.4319,0.2596,4.200,98.630,156.870,1.00,0.01,0.02,0.34,0.00,2025-06-06T10:43:14.402633
735,-0.7686,0.5065,0.3221,-2.135,99.435,168.280,1.00,0.01,0.02,0.32,0.00,2025-06-06T10:43:14.402633
736,-0.7832,0.6949,0.2962,-0.420,65.695,166.705,1.00,0.00,0.02,0.33,0.00,2025-06-06T10:43:14.402633
737,-0.9116,0.8237,0.3743,-21.140,7.595,166.530,1.00,0.01,0.02,0.34,0.00,2025-06-06T10:43:14.504215
738,-0.8926,0.6549,0.3738,-17.780,-41.720,158.795,2.00,0.00,0.02,0.37,0.00,2025-06-06T10:43:14.504215
739,-0.6886,0.5861,0.3782,-7.280,-103.320,150.745,0.00,0.01,0.02,0.35,0.00,2025-06-06T10:43:14.504215
740,-0.5876,0.5890,0.3201,4.760,-136.710,146.055,2.00,0.01,0.02,0.34,0.00,2025-06-06T10:43:14.504215
741,-0.5358,0.6188,0.1923,18.270,-150.290,140.630,1.00,0.01,0.02,0.33,0.00,2025-06-06T10:43:14.504215
742,-0.6315,0.6603,0.0991,17.780,-148.995,130.235,1.00,0.00,0.02,0.32,0.00,2025-06-06T10:43:14.504215
743,-0.5919,0.7427,-0.0166,25.235,-136.185,115.710,2.00,0.01,0.03,0.32,0.00,2025-06-06T10:43:14.504215
744,-0.5353,0.7554,-0.0878,27.720,-114.660,101.185,1.00,0.00,0.03,0.32,0.00,2025-06-06T10:43:14.504215
745,-0.5329,0.7710,-0.0932,28.070,-80.640,88.445,2.00,0.01,0.02,0.33,0.01,2025-06-06T10:43:14.555260
746,-0.4050,0.7515,-0.0849,21.525,-42.560,80.675,1.00,0.00,0.02,0.31,0.00,2025-06-06T10:43:14.555260
747,-0.3167,0.7759,0.0229,23.555,-9.450,76.475,0.00,0.00,0.02,0.30,0.00,2025-06-06T10:43:14.555260
748,-0.2323,0.8301,0.1249,18.515,15.645,76.615,3.00,0.00,0.02,0.30,0.00,2025-06-06T10:43:14.555260
749,-0.2694,0.8511,0.2338,10.640,26.285,78.015,2.00,0.01,0.02,0.28,0.01,2025-06-06T10:43:14.815902
750,-0.2069,0.7745,0.3094,5.005,23.905,80.045,0.00,0.00,0.02,0.26,0.01,2025-06-06T10:43:14.815902
751,-0.3919,0.9008,0.2655,4.165,11.200,80.290,1.00,0.01,0.02,0.26,0.01,2025-06-06T10:43:14.815902
752,-0.4407,0.9545,0.2074,4.550,7.420,74.830,2.00,0.00,0.02,0.24,0.01,2025-06-06T10:43:14.815902
753,-0.3592,0.8950,0.1688,5.740,4.095,69.650,2.00,0.00,0.02,0.24,0.01,2025-06-06T10:43:14.815902
754,-0.5114,0.8911,0.2747,5.320,-0.455,66.080,1.00,0.00,0.01,0.22,0.00,2025-06-06T10:43:14.815902
755,-0.4485,0.8779,0.2704,1.330,-11.655,81.375,1.00,0.01,0.02,0.21,0.01,2025-06-06T10:43:14.815902
756,-0.3601,0.8520,0.2186,6.405,-22.610,75.110,1.00,0.00,0.02,0.21,0.00,2025-06-06T10:43:14.815902
757,-0.3992,0.8940,0.1527,12.950,-32.305,74.445,1.00,0.00,0.02,0.21,0.00,2025-06-06T10:43:14.815902
758,-0.3982,1.0775,0.1591,27.125,-35.560,98.420,2.00,0.00,0.02,0.20,0.01,2025-06-06T10:43:14.815902
759,-0.3709,1.0131,0.1601,26.215,-30.415,83.020,0.00,0.01,0.01,0.18,0.00,2025-06-06T10:43:14.815902
760,-0.3592,0.9228,0.1366,68.635,-18.410,68.810,1.00,0.00,0.02,0.17,0.00,2025-06-06T10:43:14.815902
761,-0.2762,1.0263,0.0956,74.830,-3.430,37.695,1.00,0.00,0.02,0.17,0.00,2025-06-06T10:43:14.815902
762,-0.2250,1.0497,0.0654,87.675,0.560,31.290,0.00,0.01,0.01,0.16,0.00,2025-06-06T10:43:14.815902
763,-0.2840,1.0468,0.0073,96.845,8.400,32.130,1.00,0.00,0.02,0.18,0.00,2025-06-06T10:43:14.815902
764,-0.2128,1.0204,0.0283,91.770,11.165,30.555,2.00,0.00,0.02,0.19,0.00,2025-06-06T10:43:14.815902
765,-0.1215,1.0199,0.0620,106.015,10.115,33.320,0.00,0.00,0.02,0.17,0.00,2025-06-06T10:43:14.815902
766,-0.1137,0.9975,0.1020,111.370,7.595,36.365,1.00,0.00,0.02,0.19,0.01,2025-06-06T10:43:14.815902
767,-0.0961,0.9306,0.0561,101.430,9.625,39.200,1.00,0.00,0.01,0.17,0.01,2025-06-06T10:43:14.815902
768,-0.1776,0.8808,0.0600,68.495,18.375,39.620,0.00,0.00,0.02,0.17,0.00,2025-06-06T10:43:14.914958
769,-0.2567,0.8345,0.0190,24.850,26.425,35.000,1.00,0.00,0.02,0.18,0.00,2025-06-06T10:43:14.914958
770,-0.1679,0.8286,0.0122,22.820,24.080,33.215,2.00,0.01,0.04,0.17,0.01,2025-06-06T10:43:14.914958
771,-0.2338,0.9575,0.0410,27.300,17.710,32.830,0.00,0.00,0.02,0.16,0.01,2025-06-06T10:43:14.914958
772,-0.1835,0.9833,0.0756,15.855,16.590,33.705,4.00,0.01,0.03,0.16,0.00,2025-06-06T10:43:14.914958
773,-0.1225,0.9287,0.0508,9.345,10.255,37.345,2.00,0.00,0.04,0.16,0.01,2025-06-06T10:43:14.914958
774,-0.1274,0.8711,-0.0244,10.255,4.515,37.940,1.00,0.01,0.04,0.16,0.00,2025-06-06T10:43:14.914958
775,-0.1801,0.8164,-0.1171,14.210,7.385,35.420,2.00,0.00,0.05,0.14,0.00,2025-06-06T10:43:14.914958
776,-0.4085,0.8159,-0.0927,15.925,18.340,19.005,2.00,0.00,0.05,0.15,0.01,2025-06-06T10:43:14.971779
777,-0.2889,0.9135,-0.1108,23.030,22.155,3.080,4.00,0.01,0.06,0.14,0.00,2025-06-06T10:43:14.971779
778,-0.1713,0.9570,-0.1171,22.680,32.340,-4.060,1.00,0.00,0.07,0.14,0.00,2025-06-06T10:43:14.971779
779,-0.1981,0.9921,-0.0878,19.005,45.430,-9.695,2.00,0.00,0.08,0.14,0.00,2025-06-06T10:43:14.971779
780,-0.1552,1.0170,-0.0791,18.130,52.325,-10.500,1.00,0.00,0.11,0.15,0.00,2025-06-06T10:43:15.125817
781,-0.2035,1.1161,0.0415,5.740,51.590,-6.440,2.00,0.01,0.10,0.14,0.00,2025-06-06T10:43:15.125817
782,-0.0073,1.0336,0.0791,8.785,41.510,7.245,2.00,0.00,0.10,0.14,0.00,2025-06-06T10:43:15.125817
783,-0.1054,1.0829,0.1298,14.210,17.325,15.225,0.00,0.00,0.12,0.14,0.00,2025-06-06T10:43:15.125817
784,-0.2420,1.0287,-0.0078,15.505,7.735,17.080,1.00,0.00,0.14,0.15,0.00,2025-06-06T10:43:15.125817
785,-0.3601,0.9570,-0.0908,16.240,3.955,8.435,2.00,0.01,0.14,0.16,0.00,2025-06-06T10:43:15.125817
786,-0.1469,0.9355,-0.1649,24.115,0.105,1.190,1.00,0.00,0.15,0.15,0.01,2025-06-06T10:43:15.125817
787,-0.1293,1.0160,-0.1074,27.650,2.205,-3.080,2.00,0.00,0.16,0.13,0.00,2025-06-06T10:43:15.125817
788,-0.0996,1.0516,-0.0830,25.795,3.640,-3.780,2.00,0.00,0.16,0.15,0.00,2025-06-06T10:43:15.125817
789,0.0283,1.0326,-0.0908,25.200,-1.785,-0.875,3.00,0.01,0.15,0.14,0.00,2025-06-06T10:43:15.125817
790,0.0342,1.0248,-0.0830,28.105,-2.240,0.070,0.00,0.00,0.16,0.13,0.00,2025-06-06T10:43:15.125817
791,0.0259,0.9941,-0.1283,23.380,3.150,-3.955,2.00,0.00,0.16,0.14,0.00,2025-06-06T10:43:15.322433
792,-0.0044,0.8877,-0.2098,17.220,18.795,-18.550,1.00,0.00,0.16,0.14,0.01,2025-06-06T10:43:15.322433
793,0.0405,0.8145,-0.2303,8.365,33.180,-32.760,1.00,0.00,0.16,0.12,0.00,2025-06-06T10:43:15.322433
794,-0.0234,0.8032,-0.1596,6.265,45.290,-48.720,0.00,0.01,0.15,0.14,0.00,2025-06-06T10:43:15.322433
795,-0.1088,0.8472,-0.0425,-0.245,46.900,-69.510,3.00,0.00,0.11,0.15,0.01,2025-06-06T10:43:15.322433
796,0.0181,0.8940,-0.0029,-10.920,37.485,-87.010,3.00,0.00,0.09,0.12,0.00,2025-06-06T10:43:15.322433
797,0.1015,0.8208,0.0395,-24.535,33.460,-100.940,0.00,0.01,0.08,0.12,0.00,2025-06-06T10:43:15.322433
798,0.0395,0.7330,0.0034,-37.905,29.190,-121.835,2.00,0.00,0.07,0.13,0.01,2025-06-06T10:43:15.322433
799,0.0088,0.7701,-0.0590,-46.550,24.360,-144.760,0.00,0.01,0.06,0.14,0.00,2025-06-06T10:43:15.322433
800,-0.4421,0.5246,-0.1893,-62.790,24.815,-170.625,0.00,0.00,0.06,0.14,0.01,2025-06-06T10:43:15.322433
801,-0.1279,0.7047,-0.2264,-94.325,9.940,-197.960,2.00,0.00,0.06,0.15,0.01,2025-06-06T10:43:15.454028
802,0.3279,1.1024,0.2035,-91.665,-22.470,-201.180,2.00,0.01,0.05,0.15,0.00,2025-06-06T10:43:15.454028
803,1.0985,1.3117,0.5104,-97.755,-71.995,-186.410,2.00,0.01,0.04,0.15,0.01,2025-06-06T10:43:15.454028
804,1.6080,1.1531,0.2660,-86.485,-37.275,-219.415,1.00,0.01,0.02,0.16,0.00,2025-06-06T10:43:15.454028
805,2.6162,0.8286,0.2279,-73.010,65.765,-182.035,1.00,0.01,0.03,0.15,0.01,2025-06-06T10:43:15.454028
806,3.8123,0.4372,0.3640,-81.340,104.160,-78.015,2.00,0.00,0.03,0.16,0.00,2025-06-06T10:43:15.454028
807,4.0802,-1.1312,0.0590,-201.635,227.815,-25.060,0.00,0.00,0.03,0.16,0.00,2025-06-06T10:43:15.454028
808,1.7895,-3.1086,-0.6969,-194.530,393.435,-71.225,1.00,0.01,0.04,0.15,0.01,2025-06-06T10:43:15.454028
809,-1.8202,-3.6361,-2.1311,162.330,385.105,-286.370,1.00,0.01,0.03,0.16,0.00,2025-06-06T10:43:15.454028
810,-4.4540,-2.5400,-2.4371,387.695,316.470,-515.480,0.00,0.00,0.02,0.16,0.00,2025-06-06T10:43:15.454028
811,-7.3459,-0.2508,-1.4328,404.915,111.965,-754.915,2.00,0.00,0.03,0.17,0.00,2025-06-06T10:43:15.454028
812,-6.7403,4.8434,-7.1497,532.210,532.595,-809.795,1.00,0.01,0.03,0.16,0.00,2025-06-06T10:43:15.454028
813,-4.3081,-0.4787,-4.1622,48.965,232.295,-488.985,4.00,0.00,0.02,0.15,0.00,2025-06-06T10:43:15.454028
814,-6.3220,3.0500,-0.7291,-129.710,192.115,35.770,2.00,0.00,0.03,0.16,0.00,2025-06-06T10:43:15.474960
815,-3.0485,-1.1712,1.2615,-70.630,-238.000,240.590,1.00,0.01,0.02,0.17,0.01,2025-06-06T10:43:15.474960
816,-5.2143,3.6463,1.2688,-150.955,-162.575,348.775,3.00,0.00,0.02,0.16,0.01,2025-06-06T10:43:15.474960
817,-4.1119,-3.7849,-2.6820,-321.930,-110.705,126.910,1.00,0.00,0.02,0.16,0.00,2025-06-06T10:43:15.474960
818,-0.3670,1.3513,-0.6446,157.150,-299.215,167.090,2.00,0.01,0.02,0.16,0.00,2025-06-06T10:43:15.527489
819,-0.7037,0.2372,-1.2786,-233.625,-341.600,202.020,3.00,0.00,0.03,0.15,0.01,2025-06-06T10:43:15.527489
820,-0.6671,-1.2317,-1.3298,199.220,-228.900,175.105,1.00,0.01,0.02,0.16,0.00,2025-06-06T10:43:15.527489
821,-0.1298,-0.7940,-1.1263,42.560,-123.725,138.635,2.00,0.01,0.03,0.16,0.00,2025-06-06T10:43:15.623270
822,-0.3919,-0.5944,-0.1166,71.470,-79.625,121.415,4.00,0.00,0.03,0.16,0.00,2025-06-06T10:43:15.623270
823,-0.0508,-0.1298,-0.1903,73.045,-76.685,127.820,3.00,0.01,0.03,0.15,0.01,2025-06-06T10:43:15.623270
824,-0.0542,-0.0161,-0.1654,73.675,-38.955,150.745,1.00,0.00,0.03,0.15,0.00,2025-06-06T10:43:15.623270
825,0.1030,0.0752,-0.2733,76.090,-11.165,186.235,1.00,0.01,0.02,0.15,0.01,2025-06-06T10:43:15.623270
826,0.0537,0.3436,-0.2508,62.020,9.835,157.430,1.00,0.00,0.03,0.15,0.00,2025-06-06T10:43:15.623270
827,-0.0625,0.3201,-0.3909,41.475,44.590,144.060,2.00,0.00,0.03,0.15,0.00,2025-06-06T10:43:15.623270
828,-0.1928,0.2796,-0.2523,38.710,71.610,131.040,1.00,0.01,0.03,0.15,0.01,2025-06-06T10:43:15.623270
829,-0.4558,0.2069,-0.0708,29.680,79.030,114.660,1.00,0.01,0.02,0.15,0.01,2025-06-06T10:43:15.733932
830,-0.5612,0.6505,0.2611,64.260,46.760,117.495,2.00,0.01,0.03,0.15,0.00,2025-06-06T10:43:15.733932
831,-0.4904,0.2562,-0.1908,37.660,9.765,116.760,0.00,0.01,0.03,0.15,0.00,2025-06-06T10:43:15.733932
832,-0.5388,0.4782,-0.0410,74.935,-20.265,115.430,0.00,0.00,0.02,0.15,0.00,2025-06-06T10:43:15.733932
833,-0.0693,0.8428,-0.2713,12.180,-47.740,119.420,1.00,0.01,0.03,0.15,0.00,2025-06-06T10:43:15.733932
834,-0.2274,0.6027,-0.1074,-28.385,-63.350,119.210,2.00,0.01,0.03,0.15,0.00,2025-06-06T10:43:15.733932
835,-0.0834,0.6598,-0.0576,-61.320,-74.480,113.855,1.00,0.00,0.02,0.14,0.00,2025-06-06T10:43:15.733932
836,-0.0874,0.3406,-0.1049,-88.725,-64.085,114.345,2.00,0.01,0.03,0.15,0.00,2025-06-06T10:43:15.733932
837,-0.3143,0.7998,0.0947,-34.790,-57.400,99.505,2.00,0.01,0.02,0.15,0.00,2025-06-06T10:43:15.836399
838,-0.0639,0.4582,-0.2347,-89.215,-19.775,90.055,1.00,0.01,0.02,0.15,0.01,2025-06-06T10:43:15.836399
839,-0.1713,0.6827,0.0010,-27.160,-22.820,82.425,2.00,0.00,0.02,0.15,0.00,2025-06-06T10:43:15.836399
840,-0.0146,0.7169,-0.1484,-28.245,-1.155,76.650,1.00,0.01,0.02,0.15,0.01,2025-06-06T10:43:15.836399
841,0.0063,0.8891,-0.0107,-8.820,7.070,78.435,1.00,0.01,0.02,0.15,0.00,2025-06-06T10:43:15.836399
842,-0.0346,0.8125,0.0576,-73.745,10.010,82.880,1.00,0.00,0.02,0.15,0.00,2025-06-06T10:43:15.836399
843,-0.3396,0.5275,0.0000,-12.775,-1.400,77.770,0.00,0.01,0.02,0.15,0.00,2025-06-06T10:43:15.836399
844,-0.0586,0.7432,-0.0600,27.195,4.550,71.855,1.00,0.00,0.02,0.15,0.00,2025-06-06T10:43:15.836399
845,-0.0913,1.0799,0.0600,-68.880,-8.575,65.205,3.00,0.01,0.02,0.15,0.00,2025-06-06T10:43:15.935864
846,-0.4055,0.8501,-0.2708,-82.110,-53.480,55.580,1.00,0.01,0.02,0.15,0.01,2025-06-06T10:43:15.935864
847,-0.3514,0.7296,0.0776,-107.625,-26.145,25.620,0.00,0.00,0.02,0.16,0.00,2025-06-06T10:43:15.935864
848,-0.3909,0.9770,0.0551,-99.225,-55.440,7.875,3.00,0.00,0.02,0.17,0.00,2025-06-06T10:43:15.935864
849,-0.2728,1.1195,0.2411,-102.480,-33.915,13.370,0.00,0.00,0.02,0.17,0.00,2025-06-06T10:43:15.935864
850,-0.4055,1.2088,0.0478,-172.165,-34.440,56.980,2.00,0.01,0.02,0.16,0.00,2025-06-06T10:43:15.935864
851,-0.5475,0.9965,0.1303,-172.480,-43.435,21.805,2.00,0.01,0.02,0.16,0.00,2025-06-06T10:43:15.935864
852,-0.3611,1.0253,0.1449,-168.350,-36.330,-17.080,4.00,0.00,0.02,0.16,0.01,2025-06-06T10:43:15.935864
853,-0.4407,1.0741,0.1200,-76.825,-27.440,-24.920,0.00,0.00,0.02,0.15,0.00,2025-06-06T10:43:15.991481
854,-0.5226,1.1429,0.2176,-30.450,-18.410,-12.250,1.00,0.00,0.02,0.15,0.00,2025-06-06T10:43:15.991481
855,-0.3533,1.0853,0.2313,-48.825,-25.620,-28.245,0.00,0.01,0.03,0.15,0.00,2025-06-06T10:43:15.991481
856,-0.3924,1.1639,0.2777,-19.180,-35.735,-16.380,1.00,0.01,0.02,0.16,0.00,2025-06-06T10:43:16.136286
857,-0.3284,1.1136,0.1723,3.885,-47.565,-3.955,1.00,0.01,0.02,0.15,0.00,2025-06-06T10:43:16.136286
858,-0.2640,1.1048,0.0498,0.455,-44.625,5.250,4.00,0.01,0.01,0.16,0.00,2025-06-06T10:43:16.136286
859,-0.2084,1.0980,-0.0195,7.805,-30.485,15.750,1.00,0.01,0.02,0.17,0.00,2025-06-06T10:43:16.136286
860,-0.2181,1.0106,-0.0386,-14.035,-2.415,23.730,2.00,0.00,0.03,0.17,0.00,2025-06-06T10:43:16.136286
861,-0.2625,0.9662,0.0317,-32.760,17.885,24.465,0.00,0.01,0.02,0.17,0.01,2025-06-06T10:43:16.136286
862,-0.3255,0.9477,0.1298,-28.805,32.340,22.015,0.00,0.00,0.02,0.18,0.00,2025-06-06T10:43:16.136286
863,-0.4592,0.8843,0.1967,-28.210,36.715,16.520,1.00,0.00,0.02,0.18,0.00,2025-06-06T10:43:16.136286
864,-0.4851,0.8852,0.3611,-21.735,28.490,13.090,3.00,0.00,0.02,0.19,0.00,2025-06-06T10:43:16.136286
865,-0.4582,0.9384,0.3914,4.760,7.630,14.105,2.00,0.00,0.02,0.18,0.00,2025-06-06T10:43:16.136286
866,-0.3938,0.9404,0.3611,28.000,-15.610,16.065,1.00,0.00,0.02,0.18,0.01,2025-06-06T10:43:16.136286
867,-0.3870,0.9238,0.2801,32.550,-24.990,17.255,2.00,0.00,0.02,0.18,0.00,2025-06-06T10:43:16.136286
868,-0.4255,0.8779,0.1596,29.890,-24.360,11.550,1.00,0.00,0.02,0.19,0.01,2025-06-06T10:43:16.183561
869,-0.3070,0.8550,0.0815,36.470,-18.445,5.250,2.00,0.01,0.03,0.19,0.00,2025-06-06T10:43:16.183561
870,-0.3650,0.8779,0.0952,24.395,-7.140,-1.295,0.00,0.00,0.02,0.20,0.00,2025-06-06T10:43:16.183561
871,-0.3719,0.8882,0.1279,9.065,2.940,-7.910,1.00,0.01,0.03,0.20,0.01,2025-06-06T10:43:16.351112
872,-0.2845,0.9150,0.2040,19.495,-0.560,-6.335,2.00,0.00,0.03,0.21,0.01,2025-06-06T10:43:16.351112
873,-0.3118,0.9794,0.2338,22.750,-8.540,-2.135,0.00,0.00,0.03,0.21,0.01,2025-06-06T10:43:16.351112
874,-0.2596,0.9604,0.1884,19.845,-10.535,3.605,2.00,0.00,0.02,0.22,0.00,2025-06-06T10:43:16.351112
875,-0.2250,0.9472,0.1796,18.095,-11.760,7.315,3.00,0.01,0.03,0.23,0.00,2025-06-06T10:43:16.351112
876,-0.2396,0.9057,0.1244,8.960,-8.015,7.910,0.00,0.00,0.03,0.25,0.00,2025-06-06T10:43:16.351112
877,-0.3265,0.8945,0.0673,-3.220,2.030,3.430,1.00,0.00,0.01,0.25,0.00,2025-06-06T10:43:16.351112
878,-0.2889,0.9130,0.1269,-0.910,3.885,0.420,2.00,0.00,0.03,0.26,0.00,2025-06-06T10:43:16.351112
879,-0.3245,0.9482,0.2347,0.980,-2.520,0.245,0.00,0.00,0.02,0.28,0.00,2025-06-06T10:43:16.351112
880,-0.3060,0.9170,0.2191,1.330,-10.920,0.490,1.00,0.00,0.02,0.30,0.00,2025-06-06T10:43:16.351112
881,-0.2816,0.8999,0.1781,1.855,-16.135,1.470,0.00,0.00,0.03,0.31,0.00,2025-06-06T10:43:16.351112
882,-0.3089,0.8813,0.1240,-3.710,-13.860,-1.190,5.00,0.01,0.02,0.32,0.01,2025-06-06T10:43:16.351112
883,-0.2733,0.8579,0.0537,-12.810,-7.035,-4.900,2.00,0.01,0.02,0.34,0.00,2025-06-06T10:43:16.449760
884,-0.3538,0.9028,0.0390,-17.115,-1.610,-10.045,1.00,0.00,0.03,0.35,0.00,2025-06-06T10:43:16.449760
885,-0.3138,0.9223,0.1264,-14.560,-3.605,-12.110,1.00,0.01,0.02,0.37,0.00,2025-06-06T10:43:16.449760
886,-0.4031,0.9243,0.1996,-8.715,-11.935,-11.690,0.00,0.00,0.02,0.37,0.00,2025-06-06T10:43:16.449760
887,-0.4153,0.8965,0.1791,-5.530,-18.515,-11.760,2.00,0.00,0.03,0.38,0.00,2025-06-06T10:43:16.449760
888,-0.3333,0.9062,0.1566,1.120,-19.425,-10.465,2.00,0.00,0.03,0.39,0.00,2025-06-06T10:43:16.449760
889,-0.3148,0.9130,0.1205,0.665,-15.155,-9.590,1.00,0.00,0.03,0.40,0.00,2025-06-06T10:43:16.449760
890,-0.3226,0.8804,0.0459,-11.480,-2.905,-10.010,3.00,0.00,0.03,0.41,0.00,2025-06-06T10:43:16.449760
891,-0.3865,0.8677,0.0595,-24.150,6.685,-11.865,4.00,0.01,0.02,0.42,0.00,2025-06-06T10:43:16.501966
892,-0.3284,0.9326,0.1523,-23.030,2.835,-12.320,2.00,0.00,0.03,0.41,0.01,2025-06-06T10:43:16.501966
893,-0.3680,0.9579,0.2006,-12.985,-8.925,-10.780,4.00,0.00,0.03,0.41,0.01,2025-06-06T10:43:16.501966
894,-0.4275,0.9228,0.1889,7.525,-12.775,-9.660,0.00,0.01,0.03,0.39,0.01,2025-06-06T10:43:16.501966
895,-0.3548,0.9453,0.2201,13.265,-19.985,-9.310,2.00,0.00,0.03,0.37,0.00,2025-06-06T10:43:16.550385
896,-0.3011,0.9404,0.2074,14.035,-23.485,-8.330,2.00,0.01,0.03,0.36,0.01,2025-06-06T10:43:16.550385
897,-0.3309,0.8901,0.1269,7.210,-14.490,-7.840,0.00,0.01,0.03,0.35,0.00,2025-06-06T10:43:16.550385
898,-0.2972,0.8940,0.0693,7.945,-4.270,-8.260,0.00,0.00,0.03,0.34,0.00,2025-06-06T10:43:16.550385
899,-0.3806,0.9101,0.0254,4.690,5.810,-12.880,0.00,0.01,0.04,0.33,0.00,2025-06-06T10:43:16.658719
900,-0.3845,0.9277,0.0464,7.490,15.295,-16.695,0.00,0.00,0.03,0.32,0.00,2025-06-06T10:43:16.658719
901,-0.4202,0.9121,0.1464,8.925,16.205,-16.975,2.00,0.00,0.04,0.30,0.01,2025-06-06T10:43:16.658719
902,-0.3948,0.9428,0.2118,11.060,11.515,-14.490,1.00,0.01,0.04,0.29,0.00,2025-06-06T10:43:16.658719
903,-0.4236,0.9199,0.2279,7.700,5.180,-12.390,3.00,0.00,0.04,0.28,0.00,2025-06-06T10:43:16.658719
904,-0.4333,0.8804,0.2094,2.800,4.655,-36.330,5.00,0.00,0.04,0.28,0.01,2025-06-06T10:43:16.658719
905,-0.4895,0.8672,0.1479,5.740,-2.870,-8.750,4.00,0.01,0.04,0.27,0.00,2025-06-06T10:43:16.658719
906,-0.5309,0.8408,0.1235,1.855,-1.610,-11.060,1.00,0.00,0.04,0.25,0.00,2025-06-06T10:43:16.658719
907,-0.5695,0.8389,0.1401,3.605,-2.835,-14.630,6.00,0.00,0.04,0.24,0.00,2025-06-06T10:43:16.759823
908,-0.4856,0.8486,0.2001,9.975,-14.105,-16.380,0.00,0.00,0.03,0.24,0.00,2025-06-06T10:43:16.759823
909,-0.4914,0.8359,0.2201,14.840,-26.250,-16.800,3.00,0.00,0.02,0.25,0.01,2025-06-06T10:43:16.759823
910,-0.4836,0.8247,0.1557,24.220,-29.365,-15.995,3.00,0.01,0.03,0.23,0.01,2025-06-06T10:43:16.759823
911,-0.4358,0.8174,0.1078,25.165,-33.110,-16.625,3.00,0.01,0.02,0.24,0.00,2025-06-06T10:43:16.759823
912,-0.3977,0.8072,0.0805,18.760,-32.025,-17.395,0.00,0.01,0.03,0.23,0.00,2025-06-06T10:43:16.759823
913,-0.4041,0.8023,0.0293,2.625,-27.965,-19.530,0.00,0.00,0.02,0.22,0.00,2025-06-06T10:43:16.759823
914,-0.3889,0.7803,0.0273,-7.035,-24.080,-23.520,2.00,0.00,0.02,0.23,0.00,2025-06-06T10:43:16.848362
915,-0.3938,0.7725,0.0834,-16.170,-22.120,-30.450,0.00,0.00,0.00,0.22,0.00,2025-06-06T10:43:16.848362
916,-0.4246,0.7793,0.1083,-28.980,-21.490,-37.450,1.00,0.01,0.03,0.21,0.00,2025-06-06T10:43:16.848362
917,-0.4294,0.7559,0.0996,-35.525,-22.925,-45.955,3.00,0.01,0.03,0.20,0.00,2025-06-06T10:43:16.848362
918,-0.4065,0.7691,0.1210,-12.985,-26.705,-54.985,1.00,0.00,0.01,0.22,0.00,2025-06-06T10:43:16.848362
919,-0.4192,0.8013,0.1288,-10.885,-34.965,-62.195,2.00,0.01,0.02,0.21,0.00,2025-06-06T10:43:16.848362
920,-0.4870,0.8286,0.1220,-12.495,-38.885,-69.825,4.00,0.01,0.02,0.21,0.00,2025-06-06T10:43:16.848362
921,-0.5544,0.8081,0.1523,-15.365,-44.065,-79.205,2.00,0.00,0.01,0.21,0.01,2025-06-06T10:43:16.848362
922,-0.4895,0.8735,0.1967,-8.995,-54.215,-86.415,3.00,0.01,0.02,0.22,0.00,2025-06-06T10:43:17.065107
923,-0.4699,0.9184,0.1552,-12.565,-56.070,-89.215,4.00,0.00,0.02,0.20,0.00,2025-06-06T10:43:17.065107
924,-0.4573,0.8862,0.0708,-18.725,-44.310,-88.550,0.00,0.00,0.01,0.19,0.00,2025-06-06T10:43:17.065107
925,-0.4275,0.9204,0.0512,-22.715,-27.930,-83.895,3.00,0.01,0.02,0.20,0.00,2025-06-06T10:43:17.065107
926,-0.4534,0.9477,0.0410,-28.000,-10.220,-75.950,5.00,0.01,0.01,0.22,0.01,2025-06-06T10:43:17.065107
927,-0.5061,0.8984,0.0839,-30.380,8.750,-64.435,0.00,0.01,0.01,0.20,0.01,2025-06-06T10:43:17.065107
928,-0.5841,0.9082,0.2279,-30.520,10.115,-56.070,2.00,0.00,0.02,0.21,0.00,2025-06-06T10:43:17.065107
929,-0.7154,0.7505,0.3094,-28.945,-3.045,-52.290,4.00,0.00,0.03,0.19,0.01,2025-06-06T10:43:17.065107
930,-0.8257,0.8359,0.3494,-26.355,-24.710,-51.905,1.00,0.00,0.02,0.21,0.00,2025-06-06T10:43:17.065107
931,-0.7315,0.7808,0.3572,-16.660,-47.005,-47.635,2.00,0.01,0.01,0.20,0.01,2025-06-06T10:43:17.065107
932,-0.6251,0.7954,0.2991,-5.740,-62.090,-38.675,4.00,0.01,0.03,0.19,0.00,2025-06-06T10:43:17.065107
933,-0.5383,0.8067,0.1620,-6.965,-50.785,-23.625,2.00,0.00,0.02,0.19,0.00,2025-06-06T10:43:17.065107
934,-0.5124,0.7081,0.0415,-14.490,-24.220,-15.225,1.00,0.00,0.03,0.19,0.00,2025-06-06T10:43:17.065107
935,-0.5383,0.7325,0.1352,-15.715,0.210,-9.590,5.00,0.00,0.03,0.20,0.00,2025-06-06T10:43:17.065107
936,-0.6066,0.7374,0.2303,-16.975,13.790,-5.740,1.00,0.00,0.02,0.18,0.00,2025-06-06T10:43:17.065107
937,-0.6373,0.7178,0.3309,-12.845,15.330,-4.690,1.00,0.00,0.03,0.18,0.01,2025-06-06T10:43:17.169885
938,-0.6988,0.7130,0.4333,-9.415,4.060,-5.250,4.00,0.01,0.02,0.17,0.00,2025-06-06T10:43:17.169885
939,-0.6534,0.6476,0.3972,-4.830,-13.790,-5.985,1.00,0.00,0.03,0.19,0.00,2025-06-06T10:43:17.169885
940,-0.5695,0.7008,0.3279,1.155,-21.945,-1.925,3.00,0.01,0.02,0.18,0.00,2025-06-06T10:43:17.169885
941,-0.5924,0.7325,0.2313,-1.190,-18.725,1.715,0.00,0.01,0.02,0.16,0.01,2025-06-06T10:43:17.169885
942,-0.5431,0.7213,0.1571,-4.970,-0.665,8.505,0.00,0.00,0.02,0.17,0.00,2025-06-06T10:43:17.169885
943,-0.5968,0.6651,0.1825,-4.690,15.295,11.690,1.00,0.00,0.02,0.19,0.01,2025-06-06T10:43:17.169885
944,-0.5983,0.6451,0.2162,-3.150,27.230,13.335,0.00,0.00,0.01,0.18,0.00,2025-06-06T10:43:17.169885
945,-0.6271,0.5944,0.1903,2.030,40.495,13.615,2.00,0.00,0.01,0.17,0.00,2025-06-06T10:43:17.375090
946,-0.6573,0.6120,0.1693,8.855,49.210,12.705,1.00,0.01,0.01,0.18,0.01,2025-06-06T10:43:17.375090
947,-0.7491,0.6388,0.1596,14.035,56.000,11.480,2.00,0.00,0.01,0.17,0.00,2025-06-06T10:43:17.375090
948,-0.7115,0.6647,0.2108,21.910,55.615,13.055,2.00,0.01,0.01,0.17,0.01,2025-06-06T10:43:17.375090
949,-0.6398,0.7149,0.3128,28.105,44.975,18.480,2.00,0.00,0.02,0.17,0.01,2025-06-06T10:43:17.375090
950,-0.6544,0.7071,0.3201,27.020,36.680,22.960,5.00,0.00,0.02,0.16,0.00,2025-06-06T10:43:17.375090
951,-0.6178,0.7032,0.2718,22.820,32.725,31.290,1.00,0.00,0.01,0.16,0.00,2025-06-06T10:43:17.797012
952,-0.6383,0.7071,0.2133,22.610,35.910,34.370,1.00,0.01,0.02,0.17,0.00,2025-06-06T10:43:17.797012
953,-0.6744,0.6934,0.1464,19.775,46.305,32.620,1.00,0.01,0.02,0.16,0.01,2025-06-06T10:43:17.797012
954,-0.7808,0.7027,0.1581,17.500,60.865,27.510,1.00,0.00,0.01,0.17,0.01,2025-06-06T10:43:17.797012
955,-0.7359,0.7188,0.2572,18.760,59.745,21.210,2.00,0.01,0.02,0.18,0.00,2025-06-06T10:43:17.797012
956,-0.7554,0.7266,0.3074,16.415,48.440,13.930,0.00,0.01,0.01,0.18,0.01,2025-06-06T10:43:17.797012
957,-0.7393,0.7281,0.2972,16.030,34.055,6.405,2.00,0.01,0.01,0.19,0.01,2025-06-06T10:43:17.797012
958,-0.6969,0.7481,0.2704,15.085,21.840,0.840,1.00,0.00,0.00,0.18,0.01,2025-06-06T10:43:17.797012
959,-0.7174,0.7769,0.2342,12.425,11.095,-5.040,1.00,0.01,0.01,0.17,0.00,2025-06-06T10:43:17.797012
960,-0.7271,0.7876,0.2201,6.475,2.450,-9.275,2.00,0.00,0.01,0.17,0.00,2025-06-06T10:43:17.797012
961,-0.6788,0.7613,0.2250,4.760,-6.790,-11.095,2.00,0.01,0.02,0.16,0.01,2025-06-06T10:43:17.797012
962,-0.6549,0.7881,0.2123,5.740,-18.165,-11.760,0.00,0.00,0.02,0.18,0.01,2025-06-06T10:43:17.797012
963,-0.6422,0.8076,0.1488,2.450,-20.860,-11.550,1.00,0.01,0.02,0.17,0.00,2025-06-06T10:43:17.797012
964,-0.5973,0.7910,0.0732,-0.455,-15.295,-9.415,2.00,0.01,0.02,0.18,0.01,2025-06-06T10:43:17.797012
965,-0.6866,0.7959,0.0615,-0.455,-8.365,-8.540,0.00,0.00,0.01,0.17,0.00,2025-06-06T10:43:17.797012
966,-0.5827,0.8369,0.0966,-8.855,-4.340,-4.095,2.00,0.00,0.01,0.17,0.01,2025-06-06T10:43:17.797012
967,-0.6881,0.8218,0.1547,-6.055,-3.045,0.805,2.00,0.01,0.01,0.18,0.00,2025-06-06T10:43:17.797012
968,-0.7476,0.7959,0.1669,-8.470,-3.990,3.045,0.00,0.01,0.01,0.17,0.00,2025-06-06T10:43:17.797012
969,-0.7115,0.8179,0.1586,-6.300,-12.005,7.105,2.00,0.01,0.01,0.18,0.01,2025-06-06T10:43:17.797012
970,-0.7383,0.8106,0.1069,-7.455,-12.915,9.520,1.00,0.00,0.01,0.19,0.00,2025-06-06T10:43:17.797012
971,-0.7120,0.7881,0.0122,-6.055,-9.485,13.440,0.00,0.00,0.02,0.18,0.01,2025-06-06T10:43:17.797012
972,-0.6817,0.7984,0.0283,-2.800,-6.370,18.375,2.00,0.00,0.01,0.19,0.00,2025-06-06T10:43:17.797012
973,-0.6110,0.8233,0.0956,0.000,-9.870,25.865,3.00,0.00,0.02,0.19,0.00,2025-06-06T10:43:17.797012
974,-0.6276,0.8179,0.1020,-0.595,-13.090,32.655,0.00,0.01,0.00,0.18,0.00,2025-06-06T10:43:17.797012
975,-0.7076,0.8145,0.1000,-1.855,-12.810,37.695,7.00,0.00,0.01,0.19,0.01,2025-06-06T10:43:17.797012
976,-0.7218,0.7876,0.1464,-0.385,-11.375,42.140,1.00,0.01,0.01,0.20,0.01,2025-06-06T10:43:17.797012
977,-0.7344,0.7681,0.2664,-2.835,-9.905,45.010,0.00,0.01,0.02,0.22,0.00,2025-06-06T10:43:17.797012
978,-0.6500,0.7403,0.3518,-3.990,-18.270,49.630,0.00,0.00,0.01,0.21,0.00,2025-06-06T10:43:17.797012
979,-0.6154,0.7193,0.3606,-0.455,-34.195,54.810,2.00,0.00,0.01,0.23,0.00,2025-06-06T10:43:17.797012
980,-0.5802,0.6900,0.3084,37.695,-38.640,58.030,0.00,0.00,0.01,0.24,0.00,2025-06-06T10:43:17.797012
981,-0.4841,0.6886,0.1366,61.635,-42.455,58.660,6.00,0.01,0.01,0.25,0.00,2025-06-06T10:43:17.797012
982,-0.5100,0.6632,0.0551,59.640,-31.990,54.355,4.00,0.00,0.01,0.27,0.00,2025-06-06T10:43:17.797012
983,-0.3192,0.6842,0.0708,36.540,-23.415,53.900,2.00,0.00,0.01,0.27,0.00,2025-06-06T10:43:17.797012
984,-0.3099,0.7125,0.0893,11.935,-20.580,54.320,1.00,0.00,0.01,0.29,0.00,2025-06-06T10:43:17.797012
985,-0.3953,0.7203,0.0307,-7.910,-15.540,49.770,0.00,0.01,0.01,0.31,0.00,2025-06-06T10:43:17.797012
986,-0.3689,0.7603,0.0361,-14.700,-15.085,45.710,1.00,0.01,0.01,0.33,0.00,2025-06-06T10:43:17.797012
987,-0.5309,0.8096,0.0630,-17.010,-17.080,40.460,2.00,0.00,0.02,0.36,0.00,2025-06-06T10:43:17.797012
988,-0.2518,0.9145,0.1435,-6.020,-28.315,44.415,0.00,0.01,0.02,0.37,0.00,2025-06-06T10:43:17.797012
989,-0.3279,0.9155,0.1186,-7.105,-32.165,48.020,0.00,0.01,0.02,0.40,0.01,2025-06-06T10:43:17.797012
990,-0.3640,0.8965,0.0088,-18.480,-21.560,46.235,0.00,0.00,0.02,0.42,0.00,2025-06-06T10:43:17.797012
991,-0.3074,0.8965,-0.0215,-25.655,-1.155,41.510,0.00,0.01,0.03,0.44,0.00,2025-06-06T10:43:17.797012
992,-0.3709,0.9174,0.0059,-32.550,7.280,34.965,0.00,0.00,0.01,0.46,0.00,2025-06-06T10:43:17.929000
993,-0.3460,0.9135,0.0459,-38.710,18.375,29.960,0.00,0.01,0.02,0.48,0.00,2025-06-06T10:43:17.929000
994,-0.4070,0.9389,0.1454,-36.120,23.065,26.915,4.00,0.01,0.02,0.49,0.00,2025-06-06T10:43:17.929000
995,-0.4382,0.9448,0.2333,-24.395,21.875,22.960,0.00,0.00,0.02,0.48,0.01,2025-06-06T10:43:17.929000
996,-0.4719,0.9453,0.2479,7.945,19.425,19.740,4.00,0.00,0.02,0.49,0.00,2025-06-06T10:43:17.929000
997,-0.4895,0.9643,0.3089,9.240,6.615,15.225,0.00,0.00,0.02,0.49,0.00,2025-06-06T10:43:17.929000
998,-0.3826,0.9814,0.3494,12.460,-12.355,16.625,0.00,0.00,0.02,0.51,0.00,2025-06-06T10:43:17.929000
999,-0.4163,0.9780,0.2806,13.125,-26.880,17.920,1.00,0.00,0.03,0.52,0.01,2025-06-06T10:43:17.929000
1000,-0.3650,0.9335,0.1903,28.665,-29.120,17.465,3.00,0.00,0.03,0.52,0.00,2025-06-06T10:43:17.929000
1001,-0.3182,0.8960,0.1127,40.040,-21.980,15.785,0.00,0.01,0.01,0.53,0.01,2025-06-06T10:43:17.929000
1002,-0.2962,0.8374,0.0503,25.340,-7.000,11.235,3.00,0.00,0.03,0.55,0.01,2025-06-06T10:43:17.929000
1003,-0.3743,0.8135,0.0478,8.260,10.955,3.920,3.00,0.00,0.04,0.54,0.00,2025-06-06T10:43:18.090246
1004,-0.3650,0.8247,0.1479,0.910,19.425,-1.680,1.00,0.01,0.04,0.54,0.00,2025-06-06T10:43:18.090246
1005,-0.3709,0.8413,0.2733,1.085,10.430,-2.765,1.00,0.00,0.05,0.55,0.00,2025-06-06T10:43:18.090246
1006,-0.4470,0.8233,0.2894,-0.735,-3.395,-3.150,2.00,0.01,0.04,0.53,0.00,2025-06-06T10:43:18.090246
1007,-0.4372,0.8384,0.2821,6.125,-22.540,-2.415,1.00,0.00,0.05,0.51,0.00,2025-06-06T10:43:18.090246
1008,-0.4231,0.8418,0.2362,10.290,-33.145,-0.665,2.00,0.01,0.07,0.52,0.00,2025-06-06T10:43:18.090246
1009,-0.3723,0.8452,0.1767,5.460,-35.525,2.310,1.00,0.00,0.06,0.49,0.00,2025-06-06T10:43:18.090246
1010,-0.3518,0.8233,0.1118,-2.800,-29.890,2.625,1.00,0.00,0.07,0.47,0.00,2025-06-06T10:43:18.090246
1011,-0.3548,0.8247,0.0595,-11.550,-20.615,0.665,1.00,0.01,0.07,0.46,0.00,2025-06-06T10:43:18.090246
1012,-0.3616,0.8355,0.0434,-21.700,-9.905,-3.500,0.00,0.00,0.07,0.40,0.00,2025-06-06T10:43:18.090246
1013,-0.4124,0.8642,0.0834,-29.015,-1.540,-7.595,0.00,0.00,0.07,0.33,0.00,2025-06-06T10:43:18.090246
1014,-0.4153,0.8862,0.1693,-5.495,0.700,-10.500,2.00,0.01,0.09,0.29,0.00,2025-06-06T10:43:18.090246
1015,-0.4329,0.8882,0.1957,2.520,-5.740,-12.600,0.00,0.01,0.10,0.23,0.00,2025-06-06T10:43:18.293595
1016,-0.4494,0.9043,0.2294,5.845,-15.400,-13.685,2.00,0.00,0.11,0.19,0.01,2025-06-06T10:43:18.293595
1017,-0.4343,0.9052,0.2338,3.290,-20.160,-13.965,2.00,0.01,0.09,0.16,0.01,2025-06-06T10:43:18.293595
1018,-0.4207,0.8916,0.1850,4.655,-22.785,-13.475,1.00,0.00,0.08,0.09,0.00,2025-06-06T10:43:18.293595
1019,-0.3689,0.9165,0.1557,5.705,-21.560,-11.865,0.00,0.00,0.09,0.07,0.01,2025-06-06T10:43:18.293595
1020,-0.3577,0.9257,0.1215,2.905,-15.505,-10.045,1.00,0.01,0.10,0.06,0.00,2025-06-06T10:43:18.293595
1021,-0.3582,0.9106,0.0888,0.105,-8.855,-8.260,0.00,0.00,0.09,0.05,0.00,2025-06-06T10:43:18.293595
1022,-0.3753,0.9135,0.1044,0.980,-4.970,-7.140,2.00,0.01,0.09,0.04,0.00,2025-06-06T10:43:18.293595
1023,-0.4133,0.9096,0.1274,2.905,-4.515,-6.860,1.00,0.00,0.08,0.03,0.00,2025-06-06T10:43:18.293595
1024,-0.4163,0.9013,0.1440,4.935,-5.845,-6.020,0.00,0.01,0.08,0.02,0.00,2025-06-06T10:43:18.293595
1025,-0.4241,0.8896,0.1908,4.305,-8.085,-4.445,0.00,0.00,0.07,0.03,0.00,2025-06-06T10:43:18.293595
1026,-0.3928,0.8974,0.1893,5.390,-11.760,-3.255,1.00,0.00,0.07,0.03,0.01,2025-06-06T10:43:18.293595
1027,-0.4002,0.8769,0.1679,4.830,-11.480,-2.695,0.00,0.01,0.06,0.04,0.00,2025-06-06T10:43:18.293595
1028,-0.3958,0.8530,0.1205,4.900,-8.120,-3.395,1.00,0.00,0.05,0.01,0.00,2025-06-06T10:43:18.293595
1029,-0.4553,0.8818,0.0971,6.160,-5.250,-5.810,1.00,0.00,0.05,0.02,0.00,2025-06-06T10:43:18.293595
1030,-0.3933,0.9374,0.1362,7.595,-2.835,-5.110,0.00,0.00,0.04,0.01,0.00,2025-06-06T10:43:18.422092
1031,-0.4080,0.8872,0.1952,4.480,-4.830,-3.780,2.00,0.00,0.04,0.01,0.00,2025-06-06T10:43:18.422092
1032,-0.4080,0.8730,0.1869,3.395,-9.205,-2.870,3.00,0.00,0.03,0.02,0.01,2025-06-06T10:43:18.422092
1033,-0.4065,0.8808,0.1708,5.880,-15.715,-2.870,1.00,0.00,0.03,0.01,0.01,2025-06-06T10:43:18.422092
1034,-0.4353,0.8852,0.1576,5.110,-18.060,-4.550,1.00,0.01,0.03,0.02,0.00,2025-06-06T10:43:18.422092
1035,-0.3841,0.9033,0.1571,3.395,-17.570,-6.055,2.00,0.00,0.02,0.00,0.00,2025-06-06T10:43:18.422092
1036,-0.3865,0.8818,0.1557,3.325,-15.820,-8.015,0.00,0.00,0.02,0.03,0.00,2025-06-06T10:43:18.422092
1037,-0.3762,0.8896,0.1298,2.065,-12.495,-9.800,1.00,0.00,0.03,0.01,0.01,2025-06-06T10:43:18.422092
1038,-0.3743,0.8945,0.1171,2.590,-9.870,-11.305,1.00,0.01,0.02,0.01,0.01,2025-06-06T10:43:18.523122
1039,-0.4119,0.9126,0.1440,1.575,-9.030,-15.540,1.00,0.00,0.03,0.02,0.00,2025-06-06T10:43:18.523122
1040,-0.3553,0.9174,0.1850,-0.980,-11.585,-16.030,0.00,0.01,0.03,0.01,0.00,2025-06-06T10:43:18.524117
1041,-0.3826,0.8657,0.1776,-3.675,-13.300,-18.235,0.00,0.00,0.02,0.01,0.01,2025-06-06T10:43:18.524117
1042,-0.3709,0.8633,0.1703,-4.305,-15.050,-22.575,3.00,0.00,0.02,0.01,0.00,2025-06-06T10:43:18.524117
1043,-0.3426,0.8843,0.1684,-4.305,-18.760,-27.510,0.00,0.00,0.02,0.01,0.00,2025-06-06T10:43:18.524117
1044,-0.3626,0.8838,0.1566,-7.595,-19.285,-36.470,2.00,0.00,0.02,0.01,0.00,2025-06-06T10:43:18.524117
1045,-0.3211,0.8579,0.1405,-8.575,-20.650,-50.050,1.00,0.00,0.02,0.01,0.01,2025-06-06T10:43:18.524117
1046,-0.2572,0.8086,0.1596,-8.680,-24.430,-63.980,5.00,0.01,0.02,0.01,0.00,2025-06-06T10:43:18.524117
1047,-0.2694,0.7749,0.1498,-10.815,-27.860,-82.250,0.00,0.00,0.02,0.01,0.01,2025-06-06T10:43:18.593415
1048,-0.7066,0.7183,0.1332,-24.115,-28.840,-110.670,0.00,0.01,0.04,0.00,0.00,2025-06-06T10:43:18.593415
1049,-0.8667,0.6168,0.0986,-26.915,-42.140,-145.880,2.00,0.00,0.02,0.01,0.00,2025-06-06T10:43:18.593415
1050,-0.3562,0.7945,0.4299,1.575,-83.230,-159.950,4.00,0.01,0.02,0.00,0.01,2025-06-06T10:43:18.593415
1051,-0.2528,0.9199,0.5446,-2.520,-129.395,-163.310,2.00,0.00,0.02,0.01,0.01,2025-06-06T10:43:18.593415
1052,-0.4011,1.0370,0.3626,-31.220,-152.845,-114.030,0.00,0.00,0.02,0.01,0.00,2025-06-06T10:43:18.593415
1053,-0.4280,0.9038,0.1181,-52.255,-151.480,-132.300,1.00,0.00,0.02,0.00,0.01,2025-06-06T10:43:18.593415
1054,-0.7374,0.7315,0.0449,-62.300,-150.675,-177.240,1.00,0.01,0.02,0.00,0.01,2025-06-06T10:43:18.703176
1055,-0.5939,0.7598,0.0268,-52.080,-147.630,-187.180,0.00,0.00,0.02,0.01,0.01,2025-06-06T10:43:18.703176
1056,-0.5558,0.7769,0.1337,-37.800,-150.360,-189.560,5.00,0.01,0.02,0.01,0.00,2025-06-06T10:43:18.703176
1057,-0.3558,0.8403,0.2269,-38.465,-159.250,-173.145,0.00,0.01,0.00,0.01,0.00,2025-06-06T10:43:18.703176
1058,-0.1874,0.8608,0.1684,-46.235,-168.350,-159.775,4.00,0.01,0.02,0.01,0.00,2025-06-06T10:43:18.703176
1059,-0.2704,0.6866,-0.0034,-90.160,-157.185,-143.570,0.00,0.00,0.00,0.01,0.00,2025-06-06T10:43:18.703176
1060,-0.5680,0.3992,0.1181,-113.155,-133.035,-126.245,1.00,0.00,0.01,0.00,0.00,2025-06-06T10:43:18.703176
1061,-0.9770,0.2889,0.3396,-86.590,-106.855,-136.465,1.00,0.00,0.02,0.01,0.00,2025-06-06T10:43:18.837092
1062,-0.6993,0.2943,0.6124,-60.830,-117.040,-131.810,0.00,0.00,0.01,0.01,0.01,2025-06-06T10:43:18.837092
1063,-0.6300,0.3133,0.7788,-63.840,-114.870,-112.315,0.00,0.01,0.01,0.01,0.00,2025-06-06T10:43:18.837092
1064,-0.6315,0.2225,0.7584,-89.040,-93.100,-96.285,1.00,0.01,0.02,0.01,0.00,2025-06-06T10:43:18.837092
1065,-0.5900,0.2216,0.6227,-103.180,-68.985,-83.790,3.00,0.00,0.01,0.01,0.00,2025-06-06T10:43:18.837092
1066,-0.7086,0.1230,0.4758,-99.715,-51.275,-80.360,1.00,0.01,0.01,0.02,0.00,2025-06-06T10:43:18.837092
1067,-0.7993,0.0522,0.4211,-80.185,-44.030,-82.250,2.00,0.00,0.02,0.01,0.00,2025-06-06T10:43:18.837092
1068,-0.8369,0.0454,0.5558,-54.390,-41.860,-85.680,0.00,0.00,0.01,0.01,0.00,2025-06-06T10:43:18.837092
1069,-0.8442,0.0742,0.8067,-37.905,-47.705,-80.570,1.00,0.01,0.02,0.01,0.00,2025-06-06T10:43:18.837092
1070,-0.7047,0.1220,0.9345,-39.060,-53.480,-69.335,2.00,0.01,0.00,0.00,0.00,2025-06-06T10:43:18.837092
1071,-0.6407,0.2035,0.9404,-44.625,-50.470,-52.955,2.00,0.00,0.01,0.01,0.01,2025-06-06T10:43:18.913078
1072,-0.6832,0.1186,0.8760,-60.970,-42.630,-42.035,0.00,0.00,0.01,0.01,0.00,2025-06-06T10:43:18.913078
1073,-0.8023,0.1815,0.8325,-60.200,-51.660,-36.645,2.00,0.01,0.01,0.01,0.00,2025-06-06T10:43:18.913078
1074,-0.7959,0.0834,0.8115,-56.735,-53.970,-34.580,0.00,0.01,0.02,0.03,0.00,2025-06-06T10:43:18.913078
1075,-0.8423,0.1205,0.8047,-39.025,-68.705,-39.340,1.00,0.01,0.01,0.01,0.00,2025-06-06T10:43:18.913078
1076,-1.0414,0.2743,0.8018,-38.430,-70.105,-45.815,1.00,0.00,0.02,0.01,0.01,2025-06-06T10:43:18.913078
1077,-0.6700,0.1098,0.7330,-31.815,-68.040,-46.830,5.00,0.00,0.02,0.01,0.01,2025-06-06T10:43:19.010746
1078,-0.6725,0.1254,0.8667,-36.085,-53.480,-45.710,2.00,0.01,0.01,0.01,0.00,2025-06-06T10:43:19.010746
1079,-0.9013,0.1474,0.9365,-37.485,-26.320,-51.030,2.00,0.01,0.02,0.01,0.00,2025-06-06T10:43:19.010746
1080,-0.6041,-0.0093,0.9462,-52.885,-15.610,-43.960,2.00,0.00,0.01,0.01,0.00,2025-06-06T10:43:19.010746
1081,-0.6608,0.1005,0.8472,-52.535,-9.870,-38.675,1.00,0.00,0.01,0.01,0.01,2025-06-06T10:43:19.010746
1082,-0.5817,0.1318,0.7100,-63.630,1.085,-35.385,3.00,0.00,0.02,0.01,0.00,2025-06-06T10:43:19.010746
1083,-0.5300,0.1049,0.6964,-66.640,8.645,-32.970,1.00,0.00,0.02,0.01,0.00,2025-06-06T10:43:19.010746
1084,-0.5583,0.0771,0.7105,-74.445,24.150,-33.005,4.00,0.00,0.00,0.01,0.00,2025-06-06T10:43:19.057309
1085,-0.5168,-0.0351,0.7788,-76.230,27.930,-31.360,2.00,0.00,0.01,0.01,0.00,2025-06-06T10:43:19.057309
1086,-0.8106,0.4890,2.0847,-138.880,-45.360,-20.230,0.00,0.00,0.04,0.01,0.00,2025-06-06T10:43:19.057309
1087,-1.7197,-0.0093,1.0873,-135.590,-23.835,36.505,1.00,0.01,0.02,0.01,0.00,2025-06-06T10:43:19.057309
1088,-0.4778,-0.6710,0.6852,58.450,-96.425,17.500,2.00,0.01,0.01,0.01,0.00,2025-06-06T10:43:19.319455
1089,-0.9511,0.1098,0.8408,4.970,-61.110,-2.940,1.00,0.01,0.01,0.01,0.00,2025-06-06T10:43:19.319455
1090,-0.3055,0.4119,0.8418,-8.890,-59.080,4.515,1.00,0.01,0.01,0.01,0.01,2025-06-06T10:43:19.319455
1091,-0.6407,-0.3411,0.9672,-23.310,-18.725,17.430,2.00,0.01,0.02,0.01,0.00,2025-06-06T10:43:19.319455
1092,-0.6998,-0.0893,0.8096,-6.055,-40.495,5.040,3.00,0.01,0.00,0.01,0.00,2025-06-06T10:43:19.319455
1093,-0.4929,0.0073,0.8677,24.675,-50.050,5.005,0.00,0.01,0.01,0.01,0.00,2025-06-06T10:43:19.319455
1094,-0.4236,-0.1498,0.8428,-0.595,-36.435,9.940,1.00,0.00,0.02,0.01,0.00,2025-06-06T10:43:19.319455
1095,-0.5519,0.0200,0.8028,-12.180,-21.245,16.065,0.00,0.00,0.01,0.01,0.00,2025-06-06T10:43:19.319455
1096,-0.6515,-0.0298,0.8047,-15.785,-29.890,12.250,2.00,0.00,0.01,0.00,0.00,2025-06-06T10:43:19.319455
1097,-0.7056,-0.0005,0.7842,6.510,-43.400,10.640,1.00,0.00,0.03,0.01,0.00,2025-06-06T10:43:19.319455
1098,-0.6656,-0.0337,0.8037,-1.190,-50.400,9.065,5.00,0.01,0.03,0.01,0.00,2025-06-06T10:43:19.319455
1099,-0.6773,0.0151,0.7964,9.380,-56.455,6.230,2.00,0.00,0.03,0.00,0.00,2025-06-06T10:43:19.319455
1100,-0.6837,0.2533,1.1678,31.080,-61.075,-12.215,2.00,0.01,0.03,0.01,0.00,2025-06-06T10:43:19.319455
1101,-0.4060,0.0020,0.8062,9.240,-52.885,-12.810,4.00,0.00,0.02,0.01,0.00,2025-06-06T10:43:19.447114
1102,-0.2196,-0.1366,0.9023,-0.035,-30.170,-5.600,0.00,0.01,0.03,0.01,0.00,2025-06-06T10:43:19.447114
1103,-0.2640,-0.1322,1.2239,2.240,-2.415,-2.590,0.00,0.00,0.02,0.01,0.00,2025-06-06T10:43:19.447114
1104,-0.2826,0.0161,0.9135,5.215,7.315,5.215,1.00,0.01,0.02,0.01,0.00,2025-06-06T10:43:19.447114
1105,-0.6163,0.0054,0.8286,-10.465,17.535,-0.980,1.00,0.00,0.01,0.01,0.00,2025-06-06T10:43:19.447114
1106,-0.6159,0.1171,0.8906,-2.275,7.245,-3.815,0.00,0.01,0.02,0.01,0.00,2025-06-06T10:43:19.447114
1107,-0.6364,-0.0649,0.8398,0.875,1.960,-5.425,2.00,0.00,0.04,0.01,0.00,2025-06-06T10:43:19.524906
1108,-0.5305,-0.0473,0.8520,-0.840,1.155,-1.260,0.00,0.01,0.02,0.01,0.00,2025-06-06T10:43:19.524906
1109,-0.5832,-0.0332,0.8311,-0.525,-5.040,2.065,0.00,0.01,0.02,0.01,0.00,2025-06-06T10:43:19.524906
1110,-0.6144,0.0259,0.8120,2.765,-13.055,0.910,0.00,0.01,0.01,0.00,0.01,2025-06-06T10:43:19.524906
1111,-0.5817,0.0283,0.8594,1.225,-17.675,-0.420,0.00,0.01,0.01,0.01,0.00,2025-06-06T10:43:19.524906
1112,-0.5285,-0.0176,0.8657,0.630,-18.060,0.035,4.00,0.00,0.03,0.01,0.00,2025-06-06T10:43:19.524906
1113,-0.5061,-0.0283,0.8960,1.715,-16.835,0.875,7.00,0.00,0.02,0.01,0.00,2025-06-06T10:43:19.524906
1114,-0.4997,0.0000,0.9145,2.905,-12.950,1.120,3.00,0.01,0.01,0.01,0.00,2025-06-06T10:43:19.524906
1115,-0.4987,0.0171,0.9106,0.840,-8.400,0.140,5.00,0.00,0.01,0.01,0.00,2025-06-06T10:43:19.524906
1116,-0.4939,0.0044,0.9038,-0.105,-4.375,-0.560,1.00,0.00,0.02,0.01,0.01,2025-06-06T10:43:19.524906
1117,-0.4934,-0.0049,0.9052,-0.420,-0.105,-0.700,0.00,0.01,0.03,0.01,0.01,2025-06-06T10:43:19.524906
1118,-0.5124,-0.0102,0.9008,-0.455,3.080,-0.595,1.00,0.00,0.00,0.01,0.00,2025-06-06T10:43:19.524906
1119,-0.5324,0.0010,0.8794,-0.525,4.165,-0.595,0.00,0.00,0.00,0.01,0.01,2025-06-06T10:43:19.524906
1120,-0.5470,0.0010,0.8589,-0.385,2.905,-0.735,2.00,0.01,0.00,0.00,0.01,2025-06-06T10:43:19.524906
1121,-0.5539,-0.0029,0.8540,-0.385,-8.785,-0.525,0.00,0.00,0.02,0.01,0.01,2025-06-06T10:43:19.524906
1122,-0.5636,-0.0039,0.8613,-0.420,-3.255,-0.280,1.00,0.00,0.01,0.00,0.01,2025-06-06T10:43:19.524906
1123,-0.5632,-0.0059,0.8599,0.350,-5.460,-0.140,1.00,0.01,0.01,0.02,0.00,2025-06-06T10:43:19.524906
1124,-0.5495,-0.0054,0.8555,1.120,-7.910,0.000,0.00,0.01,0.01,0.01,0.00,2025-06-06T10:43:19.572779
1125,-0.5402,-0.0029,0.8623,0.910,-9.835,0.280,3.00,0.01,0.01,0.01,0.00,2025-06-06T10:43:19.572779
1126,-0.5314,-0.0024,0.8779,0.875,-10.150,0.315,2.00,0.00,0.01,0.01,0.00,2025-06-06T10:43:19.572779
1127,-0.5231,0.0015,0.8911,1.120,-9.030,0.175,2.00,0.00,0.01,0.01,0.01,2025-06-06T10:43:19.622755
1128,-0.5153,-0.0024,0.8916,0.630,-7.035,-0.070,2.00,0.00,0.01,0.01,0.01,2025-06-06T10:43:19.622755
1129,-0.5124,0.0000,0.8916,0.805,-4.900,-0.210,1.00,0.01,0.01,0.01,0.00,2025-06-06T10:43:19.622755
1130,-0.5134,-0.0015,0.8926,0.420,-3.290,-0.280,0.00,0.00,0.02,0.01,0.01,2025-06-06T10:43:19.622755
1131,-0.5207,-0.0005,0.8882,0.070,-1.890,-0.350,3.00,0.00,0.00,0.01,0.00,2025-06-06T10:43:19.727240
1132,-0.5285,0.0000,0.8799,0.280,-1.015,-0.385,2.00,0.00,0.01,0.01,0.01,2025-06-06T10:43:19.727240
1133,-0.5383,-0.0015,0.8745,-0.105,-1.155,-0.385,2.00,0.01,0.01,0.01,0.00,2025-06-06T10:43:19.727240
1134,-0.5368,-0.0005,0.8672,0.420,-1.995,-0.280,5.00,0.00,0.01,0.00,0.00,2025-06-06T10:43:19.727240
1135,-0.5427,-0.0034,0.8677,0.315,-3.430,-0.210,3.00,0.00,0.01,0.01,0.00,2025-06-06T10:43:19.727240
1136,-0.5466,-0.0010,0.8647,0.175,-4.620,-0.035,0.00,0.01,0.00,0.00,0.00,2025-06-06T10:43:19.727240
1137,-0.5402,-0.0020,0.8706,0.315,-5.845,-0.140,9.00,0.00,0.00,0.01,0.00,2025-06-06T10:43:19.727240
1138,-0.5373,-0.0024,0.8706,0.560,-6.755,0.070,1.00,0.01,0.01,0.01,0.00,2025-06-06T10:43:19.727240
1139,-0.5319,-0.0024,0.8755,0.385,-6.965,0.070,1.00,0.00,0.00,0.01,0.00,2025-06-06T10:43:19.771760
1140,-0.5266,0.0000,0.8823,0.770,-6.650,-0.070,2.00,0.00,0.01,0.00,0.00,2025-06-06T10:43:19.771760
1141,-0.5222,-0.0020,0.8843,0.455,-5.915,0.000,0.00,0.00,0.00,0.01,0.00,2025-06-06T10:43:19.771760
1142,-0.5217,-0.0029,0.8847,0.350,-4.655,-0.175,2.00,0.01,0.00,0.00,0.00,2025-06-06T10:43:19.771760
1143,-0.5236,-0.0015,0.8838,0.035,-3.745,-0.140,2.00,0.00,0.01,0.01,0.01,2025-06-06T10:43:19.825853
1144,-0.5246,-0.0010,0.8813,-0.035,-2.870,-0.315,1.00,0.00,0.00,0.01,0.01,2025-06-06T10:43:19.825853
1145,-0.5290,-0.0015,0.8794,0.000,-2.695,-0.385,0.00,0.00,0.00,0.01,0.01,2025-06-06T10:43:19.825853
1146,-0.5339,-0.0029,0.8760,0.000,-2.695,-0.245,3.00,0.00,0.01,0.01,0.01,2025-06-06T10:43:19.825853
1147,-0.5363,-0.0020,0.8711,0.000,-3.080,-0.210,2.00,0.00,0.00,0.01,0.01,2025-06-06T10:43:19.872555
1148,-0.5392,-0.0005,0.8721,0.175,-3.850,-0.105,1.00,0.01,0.00,0.01,0.00,2025-06-06T10:43:19.872555
1149,-0.5378,-0.0024,0.8730,0.175,-4.620,-0.175,2.00,0.01,0.01,0.01,0.00,2025-06-06T10:43:19.872555
1150,-0.5358,-0.0024,0.8750,0.315,-5.390,-0.140,5.00,0.00,0.02,0.00,0.00,2025-06-06T10:43:19.872555
1151,-0.5344,-0.0029,0.8755,0.455,-5.845,-0.035,3.00,0.00,0.00,0.00,0.01,2025-06-06T10:43:20.036277
1152,-0.5305,-0.0005,0.8784,0.315,-5.810,-0.070,1.00,0.00,0.01,0.01,0.00,2025-06-06T10:43:20.037037
1153,-0.5275,-0.0015,0.8804,0.385,-5.565,-0.035,5.00,0.01,0.01,0.01,0.01,2025-06-06T10:43:20.037037
1154,-0.5280,-0.0029,0.8813,0.385,-4.935,-0.105,0.00,0.00,0.00,0.01,0.00,2025-06-06T10:43:20.037037
1155,-0.5246,-0.0015,0.8847,0.315,-4.375,-0.070,1.00,0.00,0.01,0.01,0.01,2025-06-06T10:43:20.037037
1156,-0.5275,-0.0020,0.8818,0.140,-3.745,-0.175,1.00,0.00,0.00,0.00,0.00,2025-06-06T10:43:20.037037
1157,-0.5285,-0.0005,0.8789,0.175,-3.430,-0.210,0.00,0.00,0.01,0.01,0.00,2025-06-06T10:43:20.037037
1158,-0.5309,0.0005,0.8764,0.140,-3.325,-0.210,2.00,0.00,0.00,0.01,0.00,2025-06-06T10:43:20.037037
1159,-0.5334,-0.0034,0.8760,0.035,-3.640,-0.140,4.00,0.00,0.00,0.02,0.00,2025-06-06T10:43:20.037037
1160,-0.5339,-0.0039,0.8750,0.245,-4.060,-0.105,0.00,0.00,0.00,0.00,0.00,2025-06-06T10:43:20.037037
1161,-0.5344,-0.0034,0.8725,0.350,-4.445,-0.175,3.00,0.00,0.00,0.01,0.00,2025-06-06T10:43:20.037037
1162,-0.5305,-0.0015,0.8789,0.700,-5.145,0.070,0.00,0.00,0.00,0.01,0.00,2025-06-06T10:43:20.037037
1163,-0.5388,0.0083,0.8789,-0.035,-5.180,-0.175,1.00,0.00,0.01,0.01,0.00,2025-06-06T10:43:20.087416
1164,-0.5290,-0.0020,0.8730,0.420,-4.620,-0.490,2.00,0.00,0.01,0.01,0.00,2025-06-06T10:43:20.087416
1165,-0.5241,-0.0083,0.8779,0.560,-5.215,0.070,2.00,0.00,0.00,0.01,0.00,2025-06-06T10:43:20.087416
1166,-0.5300,-0.0020,0.8799,0.210,-4.165,-0.070,2.00,0.00,0.00,0.01,0.01,2025-06-06T10:43:20.087416
1167,-0.5319,0.0024,0.8818,0.210,-4.060,-0.140,3.00,0.01,0.01,0.00,0.00,2025-06-06T10:43:20.351409
1168,-0.5305,-0.0020,0.8760,0.350,-4.060,-0.315,1.00,0.00,0.00,0.00,0.00,2025-06-06T10:43:20.351409
1169,-0.5280,-0.0020,0.8769,0.035,-4.200,-0.070,2.00,0.00,0.01,0.01,0.01,2025-06-06T10:43:20.351409
1170,-0.5314,-0.0020,0.8779,0.210,-4.235,0.000,1.00,0.00,0.01,0.02,0.00,2025-06-06T10:43:20.351409
1171,-0.5329,-0.0015,0.8779,0.245,-4.585,-0.175,1.00,0.00,0.01,0.01,0.00,2025-06-06T10:43:20.351409
1172,-0.5295,-0.0020,0.8789,0.420,-4.585,-0.210,1.00,0.00,0.01,0.01,0.00,2025-06-06T10:43:20.351409
1173,-0.5290,-0.0005,0.8750,0.105,-4.515,-0.070,0.00,0.00,0.01,0.01,0.00,2025-06-06T10:43:20.351409
1174,-0.5300,-0.0024,0.8794,0.105,-4.620,-0.175,1.00,0.00,0.01,0.01,0.00,2025-06-06T10:43:20.351409
1175,-0.5280,0.0010,0.8818,0.070,-3.815,-0.105,2.00,0.00,0.01,0.01,0.00,2025-06-06T10:43:20.351409
1176,-0.5319,0.0005,0.8799,-0.525,-3.605,-0.175,1.00,0.00,0.00,0.01,0.00,2025-06-06T10:43:20.351409
1177,-0.5309,-0.0029,0.8755,0.420,-3.955,-0.175,1.00,0.01,0.00,0.01,0.00,2025-06-06T10:43:20.351409
1178,-0.5309,-0.0020,0.8755,0.455,-4.165,-0.140,2.00,0.00,0.00,0.01,0.00,2025-06-06T10:43:20.351409
1179,-0.5339,0.0005,0.8794,0.385,-4.305,-0.140,1.00,0.00,0.00,0.00,0.00,2025-06-06T10:43:20.351409
1180,-0.5339,-0.0020,0.8750,0.595,-4.795,-0.175,1.00,0.00,0.01,0.01,0.00,2025-06-06T10:43:20.351409
1181,-0.5305,-0.0039,0.8750,0.385,-4.480,-0.105,2.00,0.00,0.00,0.02,0.00,2025-06-06T10:43:20.351409
1182,-0.5305,-0.0010,0.8769,0.280,-4.725,-0.035,0.00,0.00,0.01,0.00,0.00,2025-06-06T10:43:20.351409
1183,-0.5319,-0.0005,0.8784,0.350,-5.425,-0.140,0.00,0.00,0.00,0.01,0.00,2025-06-06T10:43:20.351409
1184,-0.5305,-0.0015,0.8799,1.120,-5.040,-0.210,6.00,0.00,0.00,0.01,0.01,2025-06-06T10:43:20.351409
1185,-0.5305,-0.0024,0.8794,-0.070,-4.620,-0.245,2.00,0.00,0.01,0.01,0.00,2025-06-06T10:43:20.351409
1186,-0.5300,-0.0010,0.8774,0.035,-4.025,-0.105,2.00,0.01,0.00,0.01,0.00,2025-06-06T10:43:20.512329
1187,-0.5324,-0.0015,0.8794,0.175,-4.165,-0.210,2.00,0.01,0.01,0.01,0.00,2025-06-06T10:43:20.512329
1188,-0.5319,-0.0015,0.8769,0.210,-3.990,-0.245,1.00,0.01,0.01,0.01,0.00,2025-06-06T10:43:20.512329
1189,-0.5290,-0.0005,0.8750,0.000,-3.990,-0.140,2.00,0.00,0.01,0.01,0.00,2025-06-06T10:43:20.512329
1190,-0.5344,-0.0034,0.8769,0.175,-4.200,-0.105,4.00,0.01,0.01,0.01,0.00,2025-06-06T10:43:20.512329
1191,-0.5339,-0.0010,0.8779,0.175,-4.235,-0.105,1.00,0.01,0.01,0.01,0.00,2025-06-06T10:43:20.512329
1192,-0.5319,-0.0005,0.8774,0.210,-4.410,-0.140,1.00,0.00,0.01,0.01,0.00,2025-06-06T10:43:20.512329
1193,-0.5329,-0.0024,0.8730,0.175,-4.725,-0.140,0.00,0.00,0.01,0.01,0.00,2025-06-06T10:43:20.512329
1194,-0.5305,-0.0024,0.8764,0.245,-4.690,-0.140,1.00,0.01,0.01,0.01,0.00,2025-06-06T10:43:20.512329
1195,-0.5309,-0.0024,0.8799,0.315,-4.515,-0.140,1.00,0.01,0.00,0.01,0.00,2025-06-06T10:43:20.512329
1196,-0.5300,0.0010,0.8784,0.315,-4.375,-0.140,0.00,0.00,0.00,0.01,0.01,2025-06-06T10:43:20.512329
1197,-0.5280,-0.0024,0.8784,0.175,-4.340,-0.210,1.00,0.00,0.00,0.01,0.00,2025-06-06T10:43:20.512329
1198,-0.5300,-0.0005,0.8784,0.210,-4.130,-0.140,2.00,0.00,0.00,0.01,0.01,2025-06-06T10:43:20.648205
1199,-0.5314,-0.0020,0.8779,0.140,-4.025,-0.175,4.00,0.00,0.01,0.01,0.00,2025-06-06T10:43:20.648205
