SeqNum,AccX,AccY,AccZ,GyroX,GyroY,GyroZ,Flex,Force1,Force2,Force3,Force4,TimestampReception
956,-0.3514,0.0425,0.9526,3.430,-3.570,-3.850,476,427,285,413,371,2025-05-27T22:31:58.152396
957,-0.3523,0.0303,0.9862,-0.280,0.420,0.245,465,422,300,359,366,2025-05-27T22:31:58.153717
958,-0.3636,0.0283,0.9843,0.035,-0.630,0.420,407,390,298,387,380,2025-05-27T22:31:58.153717
959,-0.3636,0.0215,0.9858,0.525,-2.240,0.455,427,399,342,404,348,2025-05-27T22:31:58.153717
960,-0.3567,0.0220,0.9862,0.875,-3.640,0.315,428,428,326,413,395,2025-05-27T22:31:58.153717
961,-0.3475,0.0244,0.9819,0.840,-4.165,0.000,413,405,358,420,388,2025-05-27T22:31:58.153717
962,-0.3406,0.0268,0.9775,0.735,-4.060,-0.210,355,413,368,409,346,2025-05-27T22:31:58.153717
963,-0.3333,0.0273,0.9799,0.350,-3.745,-0.420,384,424,380,398,401,2025-05-27T22:31:58.255399
964,-0.3348,0.0268,0.9848,0.280,-2.940,-0.385,412,353,377,353,380,2025-05-27T22:31:58.255399
965,-0.3357,0.0249,0.9858,0.245,-2.765,-0.595,403,404,343,383,390,2025-05-27T22:31:58.255399
966,-0.3372,0.0264,0.9838,0.140,-2.975,-0.805,418,343,363,411,394,2025-05-27T22:31:58.255399
967,-0.3401,0.0234,0.9809,-0.070,-2.940,-0.840,347,396,346,401,344,2025-05-27T22:31:58.255399
968,-0.3367,0.0273,0.9780,-0.315,-2.590,-0.805,415,405,359,386,378,2025-05-27T22:31:58.255399
969,-0.3357,0.0293,0.9789,-0.455,-2.345,-0.840,424,357,372,400,362,2025-05-27T22:31:58.255399
970,-0.3377,0.0298,0.9819,-0.700,-2.030,-0.875,395,396,382,413,378,2025-05-27T22:31:58.255399
971,-0.3421,0.0322,0.9819,-0.945,-1.820,-0.805,391,404,377,420,396,2025-05-27T22:31:58.255399
972,-0.3450,0.0346,0.9804,-1.190,-1.820,-0.700,428,429,391,397,393,2025-05-27T22:31:58.393398
973,-0.3489,0.0366,0.9794,-1.505,-1.925,-0.490,401,413,392,409,380,2025-05-27T22:31:58.393398
974,-0.3489,0.0346,0.9760,-1.575,-2.065,-0.070,370,399,372,415,382,2025-05-27T22:31:58.393398
975,-0.3518,0.0366,0.9745,-1.470,-2.520,0.350,386,301,385,417,388,2025-05-27T22:31:58.393398
976,-0.3484,0.0346,0.9750,-1.470,-2.975,0.420,399,372,389,421,396,2025-05-27T22:31:58.393398
977,-0.3455,0.0327,0.9716,-1.400,-3.010,0.280,387,399,386,422,407,2025-05-27T22:31:58.393398
978,-0.3460,0.0298,0.9745,-1.295,-2.800,0.140,391,402,396,382,397,2025-05-27T22:31:58.393398
979,-0.3421,0.0249,0.9740,-1.120,-2.765,-0.070,391,388,313,380,408,2025-05-27T22:31:58.393398
980,-0.3401,0.0249,0.9745,-0.770,-2.555,-0.210,405,411,347,387,403,2025-05-27T22:31:58.393398
981,-0.3406,0.0215,0.9770,-0.350,-1.820,-0.315,394,392,373,409,405,2025-05-27T22:31:58.393398
982,-0.3460,0.0220,0.9770,0.070,-1.505,-0.630,413,402,381,398,404,2025-05-27T22:31:58.393398
983,-0.3436,0.0239,0.9736,0.245,-1.470,-0.910,359,406,389,409,409,2025-05-27T22:31:58.393398
984,-0.3450,0.0249,0.9780,0.350,-1.015,-0.945,413,415,394,400,402,2025-05-27T22:31:58.563488
985,-0.3455,0.0254,0.9765,0.490,-0.700,-0.980,399,420,397,397,405,2025-05-27T22:31:58.564488
986,-0.3479,0.0303,0.9770,0.455,-0.875,-1.050,341,407,393,382,398,2025-05-27T22:31:58.564488
987,-0.3509,0.0322,0.9799,0.140,-0.770,-0.945,362,435,346,386,389,2025-05-27T22:31:58.564488
988,-0.3538,0.0351,0.9780,0.070,-0.910,-0.875,408,441,354,410,393,2025-05-27T22:31:58.564488
989,-0.3538,0.0361,0.9809,-0.070,-1.575,-0.490,421,434,375,402,350,2025-05-27T22:31:58.564488
990,-0.3548,0.0351,0.9794,-0.280,-1.960,-0.315,413,428,334,388,379,2025-05-27T22:31:58.564488
991,-0.3514,0.0342,0.9799,-0.350,-2.170,0.070,412,428,315,409,388,2025-05-27T22:31:58.564488
992,-0.3489,0.0342,0.9789,-0.420,-2.520,0.455,383,390,340,371,400,2025-05-27T22:31:58.564488
993,-0.3470,0.0337,0.9760,-0.735,-2.660,0.525,374,350,356,407,388,2025-05-27T22:31:58.564488
994,-0.3460,0.0303,0.9721,-0.665,-2.555,0.735,399,413,365,399,382,2025-05-27T22:31:58.565485
995,-0.3460,0.0303,0.9740,-0.735,-2.625,0.735,430,431,364,412,306,2025-05-27T22:31:58.565485
996,-0.3436,0.0288,0.9721,-0.700,-2.520,0.595,416,353,372,397,358,2025-05-27T22:31:58.565485
997,-0.3431,0.0264,0.9736,-0.735,-2.065,0.420,433,337,385,393,395,2025-05-27T22:31:58.565485
998,-0.3479,0.0249,0.9740,-0.630,-1.785,0.140,393,391,378,403,407,2025-05-27T22:31:58.665947
999,-0.3460,0.0244,0.9745,-0.700,-1.890,-0.105,421,343,388,412,408,2025-05-27T22:31:58.665947
1000,-0.3509,0.0239,0.9780,-0.560,-1.890,-0.350,362,389,376,403,404,2025-05-27T22:31:58.665947
1001,-0.3533,0.0210,0.9750,-0.385,-2.205,-0.315,384,416,373,418,412,2025-05-27T22:31:58.665947
1002,-0.3523,0.0190,0.9750,-0.140,-2.520,-0.245,413,413,382,420,413,2025-05-27T22:31:58.665947
1003,-0.3494,0.0171,0.9780,0.245,-2.555,-0.455,414,346,346,418,403,2025-05-27T22:31:58.665947
1004,-0.3499,0.0190,0.9804,0.315,-2.660,-0.525,394,365,367,416,403,2025-05-27T22:31:58.665947
1005,-0.3504,0.0200,0.9804,0.490,-2.800,-0.455,411,388,385,397,390,2025-05-27T22:31:58.665947
1006,-0.3514,0.0215,0.9745,0.490,-3.185,-0.420,408,406,383,394,406,2025-05-27T22:31:58.807534
1007,-0.3509,0.0190,0.9740,0.245,-3.290,-0.490,405,401,379,403,353,2025-05-27T22:31:58.807534
1008,-0.3518,0.0195,0.9716,0.070,-3.500,-0.560,419,396,382,397,371,2025-05-27T22:31:58.807534
1009,-0.3450,0.0215,0.9706,-0.035,-3.605,-0.525,391,412,380,348,393,2025-05-27T22:31:58.807534
1010,-0.3465,0.0215,0.9726,-0.070,-3.325,-0.525,419,417,343,382,418,2025-05-27T22:31:58.807534
1011,-0.3518,0.0210,0.9736,-0.140,-3.185,-0.700,400,394,355,391,420,2025-05-27T22:31:58.807534
1012,-0.3558,0.0224,0.9755,-0.035,-3.430,-0.875,410,409,369,406,374,2025-05-27T22:31:58.807534
1013,-0.3528,0.0215,0.9770,-0.070,-3.675,-0.840,417,395,379,401,382,2025-05-27T22:31:58.808537
1014,-0.3528,0.0239,0.9789,0.140,-3.640,-0.840,436,390,375,385,372,2025-05-27T22:31:58.808537
1015,-0.3484,0.0259,0.9780,0.350,-3.570,-0.700,403,402,379,402,401,2025-05-27T22:31:58.808537
1016,-0.3450,0.0283,0.9750,0.665,-3.430,-0.455,412,300,386,421,400,2025-05-27T22:31:58.808537
1017,-0.3431,0.0361,0.9731,0.735,-3.080,-0.070,415,371,383,405,398,2025-05-27T22:31:58.808537
1018,-0.3406,0.0400,0.9721,0.525,-2.135,0.175,405,387,385,412,353,2025-05-27T22:31:58.891700
1019,-0.3445,0.0415,0.9701,0.280,-2.100,0.525,427,396,392,352,391,2025-05-27T22:31:58.891700
1020,-0.3455,0.0420,0.9682,0.035,-2.555,0.735,430,409,375,372,397,2025-05-27T22:31:58.891700
1021,-0.3455,0.0420,0.9692,-0.350,-2.590,0.910,425,412,340,389,392,2025-05-27T22:31:58.891700
1022,-0.3494,0.0410,0.9750,-0.595,-2.660,1.190,411,392,356,402,403,2025-05-27T22:31:58.891700
1023,-0.3533,0.0337,0.9736,-0.560,-3.115,1.260,407,414,381,385,398,2025-05-27T22:31:58.891700
1024,-0.3514,0.0307,0.9755,-0.490,-3.220,1.470,404,433,374,391,385,2025-05-27T22:31:58.891700
1025,-0.3562,0.0224,0.9784,-0.315,-3.080,1.680,413,393,374,368,362,2025-05-27T22:31:59.214261
1026,-0.3567,0.0181,0.9780,0.070,-3.150,1.505,421,396,388,393,394,2025-05-27T22:31:59.214261
1027,-0.3577,0.0176,0.9780,0.420,-3.360,1.505,438,298,393,383,395,2025-05-27T22:31:59.214261
1028,-0.3518,0.0176,0.9750,0.595,-3.500,1.330,408,395,381,391,395,2025-05-27T22:31:59.214261
1029,-0.3475,0.0200,0.9765,0.665,-3.395,1.120,395,409,373,388,411,2025-05-27T22:31:59.214261
1030,-0.3455,0.0200,0.9740,0.665,-3.360,0.700,413,405,382,347,348,2025-05-27T22:31:59.214261
1031,-0.3377,0.0205,0.9780,0.630,-3.185,0.420,381,384,351,393,393,2025-05-27T22:31:59.214261
1032,-0.3382,0.0229,0.9789,0.560,-2.835,0.175,422,361,354,426,410,2025-05-27T22:31:59.214261
1033,-0.3362,0.0278,0.9804,0.630,-2.485,0.245,388,406,362,429,399,2025-05-27T22:31:59.214261
1034,-0.3416,0.0288,0.9819,0.560,-2.170,0.210,390,347,375,392,404,2025-05-27T22:31:59.214261
1035,-0.3465,0.0322,0.9819,0.385,-2.170,0.105,340,407,340,408,398,2025-05-27T22:31:59.214261
1036,-0.3499,0.0322,0.9838,0.140,-2.590,0.315,384,381,365,416,396,2025-05-27T22:31:59.214261
1037,-0.3494,0.0312,0.9809,-0.035,-3.010,0.420,385,399,379,423,389,2025-05-27T22:31:59.214261
1038,-0.3494,0.0303,0.9804,-0.315,-3.290,0.525,403,428,389,413,397,2025-05-27T22:31:59.214261
1039,-0.3489,0.0268,0.9789,-0.420,-3.430,0.560,413,407,380,378,351,2025-05-27T22:31:59.214261
1040,-0.3475,0.0249,0.9789,-0.315,-3.395,0.630,411,344,369,409,382,2025-05-27T22:31:59.214261
1041,-0.3445,0.0249,0.9760,-0.385,-3.080,0.595,391,389,377,391,398,2025-05-27T22:31:59.214261
1042,-0.3431,0.0224,0.9760,-0.385,-2.940,0.455,416,431,369,393,401,2025-05-27T22:31:59.214261
1043,-0.3431,0.0244,0.9755,-0.455,-2.835,0.350,405,415,363,410,411,2025-05-27T22:31:59.214261
1044,-0.3436,0.0273,0.9765,-0.280,-2.660,0.140,416,400,380,417,419,2025-05-27T22:31:59.214261
1045,-0.3455,0.0293,0.9784,-0.280,-2.730,-0.070,426,415,371,393,407,2025-05-27T22:31:59.214261
1046,-0.3455,0.0273,0.9789,-0.210,-3.010,-0.140,406,407,385,385,406,2025-05-27T22:31:59.383686
1047,-0.3479,0.0288,0.9809,-0.210,-3.395,-0.280,418,400,390,385,392,2025-05-27T22:31:59.383686
1048,-0.3489,0.0278,0.9799,-0.070,-3.640,-0.280,300,341,386,347,411,2025-05-27T22:31:59.383686
1049,-0.3475,0.0249,0.9809,0.000,-3.535,-0.350,388,355,382,359,393,2025-05-27T22:31:59.383686
1050,-0.3445,0.0239,0.9823,0.210,-3.500,-0.315,414,402,387,379,387,2025-05-27T22:31:59.383686
1051,-0.3450,0.0249,0.9814,0.070,-3.570,-0.245,338,406,392,402,397,2025-05-27T22:31:59.383686
1052,-0.3470,0.0229,0.9799,0.070,-3.290,-0.420,376,395,391,400,414,2025-05-27T22:31:59.383686
1053,-0.3489,0.0244,0.9794,-0.070,-3.185,-0.280,387,417,349,407,415,2025-05-27T22:31:59.383686
1054,-0.3479,0.0234,0.9780,-0.245,-3.360,-0.280,388,431,365,394,418,2025-05-27T22:31:59.383686
1055,-0.3484,0.0249,0.9789,-0.140,-3.500,-0.245,419,435,331,387,400,2025-05-27T22:31:59.383686
1056,-0.3494,0.0254,0.9750,-0.210,-3.570,-0.245,409,404,353,398,414,2025-05-27T22:31:59.384683
1057,-0.3470,0.0283,0.9765,-0.105,-3.710,0.000,411,408,371,409,406,2025-05-27T22:31:59.384683
1058,-0.3470,0.0293,0.9765,-0.105,-3.850,0.070,424,426,370,410,408,2025-05-27T22:31:59.384683
1059,-0.3455,0.0312,0.9750,-0.140,-3.815,0.210,381,420,368,371,384,2025-05-27T22:31:59.384683
1060,-0.3470,0.0327,0.9789,-0.070,-3.675,0.210,337,395,362,406,384,2025-05-27T22:31:59.384683
1061,-0.3440,0.0327,0.9765,0.000,-3.640,0.245,386,348,371,406,381,2025-05-27T22:31:59.384683
1062,-0.3436,0.0361,0.9750,-0.035,-3.430,0.350,335,390,385,394,387,2025-05-27T22:31:59.384683
1063,-0.3421,0.0351,0.9775,-0.140,-3.255,0.490,399,420,390,352,345,2025-05-27T22:31:59.384683
1064,-0.3426,0.0337,0.9765,-0.210,-3.080,0.735,429,400,391,399,382,2025-05-27T22:31:59.384683
1065,-0.3411,0.0371,0.9750,-0.245,-3.115,0.910,409,412,388,415,381,2025-05-27T22:31:59.384683
1066,-0.3416,0.0342,0.9721,-0.350,-3.045,0.945,422,429,381,395,395,2025-05-27T22:31:59.384683
1067,-0.3431,0.0327,0.9721,-0.385,-2.940,1.015,419,396,381,399,388,2025-05-27T22:31:59.698356
1068,-0.3450,0.0322,0.9726,-0.385,-3.010,0.980,415,407,377,394,403,2025-05-27T22:31:59.698356
1069,-0.3465,0.0254,0.9770,-0.245,-2.835,1.120,433,421,382,371,402,2025-05-27T22:31:59.698356
1070,-0.3479,0.0234,0.9814,-0.175,-2.975,1.085,405,397,374,396,400,2025-05-27T22:31:59.698356
1071,-0.3479,0.0234,0.9809,0.140,-3.150,1.050,387,396,374,411,408,2025-05-27T22:31:59.698356
1072,-0.3479,0.0224,0.9823,0.175,-3.430,1.015,414,370,386,395,393,2025-05-27T22:31:59.698356
1073,-0.3450,0.0210,0.9828,0.350,-3.500,0.910,398,406,382,346,345,2025-05-27T22:31:59.700892
1074,-0.3440,0.0190,0.9819,0.525,-3.780,0.560,398,403,385,388,384,2025-05-27T22:31:59.700892
1075,-0.3392,0.0210,0.9799,0.455,-3.815,0.315,430,372,354,351,362,2025-05-27T22:31:59.700892
1076,-0.3353,0.0220,0.9828,0.420,-3.535,0.210,409,396,343,384,385,2025-05-27T22:31:59.700892
1077,-0.3362,0.0224,0.9809,0.385,-3.010,-0.140,339,411,367,384,397,2025-05-27T22:31:59.700892
1078,-0.3372,0.0229,0.9853,0.245,-2.800,-0.315,398,402,370,414,393,2025-05-27T22:31:59.700892
1079,-0.3372,0.0239,0.9853,0.035,-2.730,-0.245,401,391,374,378,403,2025-05-27T22:31:59.700892
1080,-0.3411,0.0273,0.9819,0.035,-2.625,-0.105,402,391,381,392,406,2025-05-27T22:31:59.700892
1081,-0.3411,0.0259,0.9789,-0.140,-2.555,-0.070,377,383,384,364,370,2025-05-27T22:31:59.700892
1082,-0.3416,0.0283,0.9765,-0.280,-2.660,-0.070,403,424,388,393,403,2025-05-27T22:31:59.700892
1083,-0.3411,0.0322,0.9755,-0.420,-2.520,0.070,341,428,395,398,395,2025-05-27T22:31:59.700892
1084,-0.3416,0.0342,0.9770,-0.665,-2.345,0.140,399,424,396,346,403,2025-05-27T22:31:59.700892
1085,-0.3465,0.0346,0.9789,-0.700,-2.275,0.315,415,431,394,373,387,2025-05-27T22:31:59.700892
1086,-0.3484,0.0293,0.9794,-0.770,-2.520,0.315,417,422,385,397,408,2025-05-27T22:31:59.700892
1087,-0.3484,0.0298,0.9794,-0.735,-2.870,0.315,377,399,388,414,398,2025-05-27T22:32:00.075714
1088,-0.3494,0.0278,0.9784,-0.525,-3.080,0.490,400,430,394,374,387,2025-05-27T22:32:00.075714
1089,-0.3455,0.0278,0.9775,-0.280,-3.150,0.490,406,440,347,398,395,2025-05-27T22:32:00.075714
1090,-0.3450,0.0268,0.9765,-0.140,-3.185,0.525,416,438,373,399,392,2025-05-27T22:32:00.075714
1091,-0.3431,0.0264,0.9794,-0.105,-3.150,0.350,302,423,370,417,408,2025-05-27T22:32:00.075714
1092,-0.3445,0.0244,0.9794,-0.105,-3.290,0.105,351,438,391,391,394,2025-05-27T22:32:00.075714
1093,-0.3436,0.0210,0.9804,0.000,-3.290,0.070,402,429,386,368,406,2025-05-27T22:32:00.075714
1094,-0.3421,0.0195,0.9809,0.245,-3.395,0.000,403,427,389,375,401,2025-05-27T22:32:00.075714
1095,-0.3416,0.0205,0.9814,0.350,-3.360,-0.035,416,380,382,342,385,2025-05-27T22:32:00.075714
1096,-0.3426,0.0224,0.9828,0.420,-3.465,0.000,387,416,350,342,349,2025-05-27T22:32:00.075714
1097,-0.3421,0.0239,0.9833,0.455,-3.710,0.105,401,430,367,380,344,2025-05-27T22:32:00.075714
1098,-0.3401,0.0273,0.9809,0.245,-3.780,0.210,374,427,363,402,384,2025-05-27T22:32:00.075714
1099,-0.3372,0.0254,0.9823,0.105,-3.430,0.035,400,353,376,397,394,2025-05-27T22:32:00.075714
1100,-0.3382,0.0220,0.9853,-0.105,-3.360,-0.070,354,386,379,383,397,2025-05-27T22:32:00.075714
1101,-0.3382,0.0229,0.9809,-0.140,-3.570,-0.175,400,372,343,388,401,2025-05-27T22:32:00.075714
1102,-0.3382,0.0273,0.9784,-0.070,-3.325,-0.140,409,395,355,387,406,2025-05-27T22:32:00.076428
1103,-0.3426,0.0264,0.9770,-0.280,-3.080,-0.315,406,412,367,405,398,2025-05-27T22:32:00.076428
1104,-0.3470,0.0268,0.9789,-0.385,-3.080,-0.455,378,427,370,406,349,2025-05-27T22:32:00.076428
1105,-0.3484,0.0278,0.9814,-0.420,-3.465,-0.490,413,349,359,384,376,2025-05-27T22:32:00.076428
1106,-0.3518,0.0259,0.9819,-0.210,-3.710,-0.385,419,403,375,404,403,2025-05-27T22:32:00.076428
1107,-0.3509,0.0234,0.9853,0.035,-4.235,-0.070,396,351,372,402,354,2025-05-27T22:32:00.076428
1108,-0.3411,0.0288,0.9814,0.035,-4.480,0.385,397,408,352,350,381,2025-05-27T22:32:00.129512
1109,-0.3357,0.0317,0.9750,0.315,-4.410,0.630,393,400,357,377,404,2025-05-27T22:32:00.129512
1110,-0.3299,0.0361,0.9731,0.280,-3.850,0.840,428,419,372,362,354,2025-05-27T22:32:00.129512
1111,-0.3245,0.0366,0.9706,0.210,-3.395,0.840,415,403,373,387,379,2025-05-27T22:32:00.129512
1112,-0.3255,0.0381,0.9716,0.000,-2.730,0.735,398,374,342,399,390,2025-05-27T22:32:00.129512
1113,-0.3284,0.0361,0.9726,-0.280,-2.100,0.525,423,391,363,405,389,2025-05-27T22:32:00.129512
1114,-0.3357,0.0346,0.9745,-0.560,-1.785,0.315,422,428,369,405,399,2025-05-27T22:32:00.129512
1115,-0.3445,0.0283,0.9755,-0.735,-1.855,0.210,395,417,376,403,389,2025-05-27T22:32:00.129512
1116,-0.3475,0.0215,0.9775,-0.560,-2.240,0.315,404,356,386,404,403,2025-05-27T22:32:00.129512
1117,-0.3499,0.0220,0.9770,-0.280,-2.730,0.560,427,408,391,410,417,2025-05-27T22:32:00.129512
1118,-0.3523,0.0176,0.9784,0.035,-2.835,0.770,428,297,380,416,421,2025-05-27T22:32:00.129512
1119,-0.3484,0.0190,0.9789,0.385,-2.975,0.805,423,386,374,357,415,2025-05-27T22:32:00.129512
1120,-0.3465,0.0210,0.9804,0.525,-2.940,0.770,423,424,381,331,399,2025-05-27T22:32:00.129512
1121,-0.3416,0.0229,0.9823,0.560,-2.765,0.735,425,425,392,363,410,2025-05-27T22:32:00.129512
1122,-0.3387,0.0259,0.9823,0.525,-2.835,0.665,371,433,375,371,396,2025-05-27T22:32:00.129512
1123,-0.3372,0.0283,0.9809,0.560,-3.115,0.420,392,389,369,334,390,2025-05-27T22:32:00.129512
1124,-0.3279,0.0293,0.9780,0.350,-2.940,0.385,370,424,344,401,397,2025-05-27T22:32:00.129512
1125,-0.3270,0.0317,0.9794,0.385,-2.065,0.280,405,424,373,405,389,2025-05-27T22:32:00.129512
1126,-0.3328,0.0332,0.9843,0.175,-1.645,-0.035,399,423,371,389,406,2025-05-27T22:32:00.129512
1127,-0.3382,0.0332,0.9843,-0.070,-1.890,0.035,367,422,337,341,414,2025-05-27T22:32:00.129512
1128,-0.3426,0.0327,0.9833,-0.385,-2.345,0.070,369,396,369,390,409,2025-05-27T22:32:00.129512
1129,-0.3475,0.0298,0.9848,-0.490,-2.695,0.210,326,342,386,412,411,2025-05-27T22:32:00.355718
1130,-0.3509,0.0254,0.9838,-0.595,-3.115,0.420,384,387,385,418,392,2025-05-27T22:32:00.355718
1131,-0.3440,0.0229,0.9833,-0.420,-3.325,0.630,340,347,378,403,408,2025-05-27T22:32:00.355718
1132,-0.3465,0.0229,0.9862,-0.140,-3.570,0.805,395,401,385,394,409,2025-05-27T22:32:00.355718
1133,-0.3421,0.0210,0.9853,0.035,-3.850,0.665,413,400,310,343,402,2025-05-27T22:32:00.355718
1134,-0.3357,0.0220,0.9833,0.070,-3.990,0.525,405,424,312,330,394,2025-05-27T22:32:00.355718
1135,-0.3348,0.0249,0.9775,0.315,-3.710,0.245,420,345,341,378,351,2025-05-27T22:32:00.355718
1136,-0.3328,0.0278,0.9819,0.245,-3.570,-0.105,399,402,366,355,392,2025-05-27T22:32:00.355718
1137,-0.3314,0.0293,0.9828,0.140,-3.605,-0.315,384,382,378,339,406,2025-05-27T22:32:00.355718
1138,-0.3314,0.0307,0.9838,-0.140,-3.605,-0.455,407,423,384,377,391,2025-05-27T22:32:00.355718
1139,-0.3318,0.0273,0.9823,-0.315,-3.185,-0.525,343,422,349,378,393,2025-05-27T22:32:00.355718
1140,-0.3401,0.0234,0.9799,-0.350,-3.360,-0.385,377,423,370,348,394,2025-05-27T22:32:00.355718
1141,-0.3401,0.0220,0.9804,-0.280,-3.675,-0.385,416,381,380,355,409,2025-05-27T22:32:00.355718
1142,-0.3416,0.0234,0.9775,-0.315,-3.710,-0.420,399,397,343,398,361,2025-05-27T22:32:00.355718
1143,-0.3436,0.0210,0.9760,-0.280,-3.745,-0.525,420,406,330,356,352,2025-05-27T22:32:00.355718
1144,-0.3396,0.0195,0.9794,-0.280,-3.745,-0.595,416,351,316,334,294,2025-05-27T22:32:00.597132
1145,-0.3377,0.0249,0.9819,-0.245,-3.430,-0.665,410,391,342,392,339,2025-05-27T22:32:00.597132
1146,-0.3372,0.0259,0.9833,-0.035,-3.220,-0.595,399,389,365,396,328,2025-05-27T22:32:00.597132
1147,-0.3362,0.0268,0.9833,-0.070,-3.080,-0.490,399,410,382,389,380,2025-05-27T22:32:00.601431
1148,-0.3348,0.0303,0.9784,0.000,-2.835,-0.175,379,403,370,401,386,2025-05-27T22:32:00.601431
1149,-0.3357,0.0342,0.9755,-0.035,-2.520,0.140,334,346,387,398,370,2025-05-27T22:32:00.601431
1150,-0.3343,0.0376,0.9765,-0.210,-2.345,0.455,385,375,382,417,336,2025-05-27T22:32:00.601431
1151,-0.3372,0.0366,0.9770,-0.280,-2.450,0.595,395,405,380,395,374,2025-05-27T22:32:00.601431
1152,-0.3353,0.0371,0.9736,-0.595,-2.625,0.700,341,387,374,397,390,2025-05-27T22:32:00.601431
1153,-0.3367,0.0332,0.9736,-0.630,-2.415,0.735,413,416,377,408,358,2025-05-27T22:32:00.601431
1154,-0.3401,0.0303,0.9736,-0.630,-2.380,0.700,399,395,376,405,398,2025-05-27T22:32:00.601431
1155,-0.3426,0.0259,0.9765,-0.455,-2.485,0.700,418,415,369,391,405,2025-05-27T22:32:00.601431
1156,-0.3450,0.0224,0.9794,0.000,-2.660,0.700,413,391,371,393,393,2025-05-27T22:32:00.819371
1157,-0.3445,0.0239,0.9794,0.210,-2.765,0.770,389,411,376,387,377,2025-05-27T22:32:00.819371
1158,-0.3426,0.0224,0.9823,0.595,-2.695,0.875,382,344,385,399,385,2025-05-27T22:32:00.819371
1159,-0.3401,0.0234,0.9809,0.700,-2.765,0.805,332,342,391,410,388,2025-05-27T22:32:00.819371
1160,-0.3387,0.0234,0.9823,0.875,-2.695,0.700,373,384,396,415,402,2025-05-27T22:32:00.819371
1161,-0.3328,0.0249,0.9823,0.735,-2.660,0.455,418,354,394,403,400,2025-05-27T22:32:00.819371
1162,-0.3323,0.0259,0.9819,0.630,-2.275,0.455,401,407,384,351,397,2025-05-27T22:32:00.819371
1163,-0.3338,0.0283,0.9823,0.385,-2.205,0.280,398,297,385,379,391,2025-05-27T22:32:00.819371
1164,-0.3333,0.0259,0.9848,0.245,-2.205,0.315,404,378,339,397,397,2025-05-27T22:32:00.819371
1165,-0.3367,0.0259,0.9843,0.070,-1.995,0.280,392,370,372,399,407,2025-05-27T22:32:00.845912
1166,-0.3406,0.0239,0.9882,-0.140,-2.030,0.245,424,417,368,399,399,2025-05-27T22:32:00.847872
1167,-0.3460,0.0244,0.9862,-0.280,-2.485,0.455,409,420,385,382,402,2025-05-27T22:32:00.847872
1168,-0.3465,0.0220,0.9872,-0.350,-3.010,0.735,411,393,369,385,406,2025-05-27T22:32:00.847872
1169,-0.3470,0.0229,0.9858,-0.245,-3.325,0.945,397,414,372,389,409,2025-05-27T22:32:00.847872
1170,-0.3445,0.0220,0.9877,-0.140,-3.990,0.980,398,440,333,400,392,2025-05-27T22:32:00.847872
1171,-0.3387,0.0229,0.9838,-0.140,-4.760,0.735,354,425,350,369,396,2025-05-27T22:32:00.847872
1172,-0.3314,0.0239,0.9814,0.000,-4.585,0.665,345,411,371,385,406,2025-05-27T22:32:00.847872
1173,-0.3304,0.0254,0.9814,0.070,-3.955,0.245,404,305,376,395,402,2025-05-27T22:32:00.847872
1174,-0.3265,0.0239,0.9814,-0.035,-3.885,-0.175,361,410,345,393,390,2025-05-27T22:32:00.847872
1175,-0.3270,0.0229,0.9819,-0.245,-3.640,-0.595,410,424,372,404,350,2025-05-27T22:32:00.847872
1176,-0.3314,0.0229,0.9823,-0.035,-3.115,-0.840,401,423,387,416,392,2025-05-27T22:32:00.847872
1177,-0.3328,0.0234,0.9809,-0.070,-3.010,-0.910,410,427,391,423,397,2025-05-27T22:32:00.847872
1178,-0.3357,0.0224,0.9794,0.000,-3.325,-1.120,401,399,378,404,350,2025-05-27T22:32:00.847872
1179,-0.3353,0.0249,0.9789,-0.140,-3.220,-1.190,342,416,381,404,392,2025-05-27T22:32:00.847872
1180,-0.3377,0.0254,0.9784,-0.035,-2.975,-0.945,386,429,369,398,409,2025-05-27T22:32:00.847872
1181,-0.3411,0.0278,0.9814,-0.070,-3.045,-0.840,390,411,374,415,390,2025-05-27T22:32:00.847872
1182,-0.3372,0.0298,0.9833,-0.035,-3.185,-0.525,371,424,388,404,350,2025-05-27T22:32:00.847872
1183,-0.3333,0.0327,0.9823,-0.035,-3.115,-0.350,397,347,383,344,367,2025-05-27T22:32:00.847872
1184,-0.3323,0.0361,0.9780,-0.070,-2.660,-0.315,410,383,375,329,370,2025-05-27T22:32:00.847872
1185,-0.3294,0.0332,0.9804,-0.245,-2.275,0.000,414,418,344,384,400,2025-05-27T22:32:00.847872
1186,-0.3318,0.0346,0.9784,-0.280,-1.820,0.245,428,425,369,407,407,2025-05-27T22:32:01.016754
1187,-0.3338,0.0337,0.9770,-0.385,-1.575,0.420,400,441,374,417,387,2025-05-27T22:32:01.016754
1188,-0.3382,0.0346,0.9740,-0.490,-1.680,0.630,396,406,377,386,378,2025-05-27T22:32:01.016754
1189,-0.3362,0.0322,0.9731,-0.455,-1.925,0.630,423,404,347,381,390,2025-05-27T22:32:01.016754
1190,-0.3392,0.0327,0.9721,-0.455,-1.855,0.700,349,393,358,405,346,2025-05-27T22:32:01.016754
1191,-0.3396,0.0293,0.9775,-0.420,-2.135,0.630,378,426,364,414,329,2025-05-27T22:32:01.016754
1192,-0.3401,0.0273,0.9809,-0.315,-2.205,0.665,395,441,362,418,363,2025-05-27T22:32:01.016754
1193,-0.3431,0.0254,0.9838,-0.070,-1.855,0.770,389,395,377,415,394,2025-05-27T22:32:01.016754
1194,-0.3470,0.0229,0.9819,0.385,-1.890,0.875,339,395,382,356,388,2025-05-27T22:32:01.016754
1195,-0.3431,0.0210,0.9828,0.665,-2.170,0.840,408,356,386,355,387,2025-05-27T22:32:01.016754
1196,-0.3411,0.0220,0.9809,0.875,-2.240,0.840,427,385,386,383,386,2025-05-27T22:32:01.016754
1197,-0.3362,0.0234,0.9819,0.805,-2.380,0.595,404,398,386,390,349,2025-05-27T22:32:01.016754
1198,-0.3338,0.0224,0.9809,0.560,-2.590,0.420,417,387,386,414,394,2025-05-27T22:32:01.016754
1199,-0.3309,0.0234,0.9814,0.490,-2.520,0.140,423,422,381,393,396,2025-05-27T22:32:01.016754
1200,-0.3314,0.0215,0.9848,0.420,-2.240,0.070,377,429,380,409,396,2025-05-27T22:32:01.016754
1201,-0.3333,0.0234,0.9867,0.315,-2.065,0.105,393,413,384,374,395,2025-05-27T22:32:01.016754
1202,-0.3382,0.0205,0.9867,0.350,-2.030,0.035,385,420,376,338,406,2025-05-27T22:32:01.016754
1203,-0.3396,0.0244,0.9858,0.385,-1.925,0.140,412,353,373,376,407,2025-05-27T22:32:01.016754
1204,-0.3406,0.0278,0.9848,0.210,-2.170,0.140,413,378,367,340,414,2025-05-27T22:32:01.172921
1205,-0.3406,0.0293,0.9833,-0.105,-2.765,0.105,424,414,342,385,411,2025-05-27T22:32:01.172921
1206,-0.3396,0.0303,0.9843,-0.315,-2.870,0.105,343,401,359,383,385,2025-05-27T22:32:01.173920
1207,-0.3377,0.0278,0.9843,-0.490,-3.080,0.210,402,409,380,410,409,2025-05-27T22:32:01.173920
1208,-0.3333,0.0278,0.9838,-0.455,-3.185,0.210,415,338,373,401,395,2025-05-27T22:32:01.173920
1209,-0.3304,0.0273,0.9809,-0.700,-2.730,0.280,410,391,365,346,350,2025-05-27T22:32:01.174180
1210,-0.3357,0.0293,0.9775,-0.630,-2.450,0.385,431,415,379,398,377,2025-05-27T22:32:01.174254
1211,-0.3382,0.0278,0.9784,-0.525,-2.730,0.350,429,426,340,400,345,2025-05-27T22:32:01.174254
1212,-0.3367,0.0273,0.9784,-0.315,-3.150,0.455,395,413,353,384,377,2025-05-27T22:32:01.174254
1213,-0.3387,0.0268,0.9765,-0.140,-3.115,0.385,396,434,328,388,397,2025-05-27T22:32:01.331145
1214,-0.3362,0.0259,0.9789,-0.105,-3.115,0.210,394,404,362,398,367,2025-05-27T22:32:01.331145
1215,-0.3372,0.0234,0.9794,-0.035,-2.975,0.070,337,419,361,388,347,2025-05-27T22:32:01.338566
1216,-0.3377,0.0195,0.9789,-0.070,-2.730,-0.175,371,411,371,386,380,2025-05-27T22:32:01.338566
1217,-0.3387,0.0190,0.9789,-0.035,-2.520,-0.280,337,418,376,397,382,2025-05-27T22:32:01.338566
1218,-0.3392,0.0171,0.9775,-0.070,-2.520,-0.385,380,409,367,407,389,2025-05-27T22:32:01.338566
1219,-0.3431,0.0200,0.9780,0.175,-2.310,-0.560,418,430,383,400,406,2025-05-27T22:32:01.338566
1220,-0.3411,0.0195,0.9770,0.140,-2.275,-0.560,401,395,386,398,369,2025-05-27T22:32:01.338566
1221,-0.3440,0.0229,0.9784,0.070,-2.380,-0.490,418,366,392,369,389,2025-05-27T22:32:01.338566
1222,-0.3406,0.0259,0.9799,0.070,-2.345,-0.245,387,325,385,393,407,2025-05-27T22:32:01.338566
1223,-0.3382,0.0283,0.9838,0.070,-2.415,-0.035,390,393,384,413,402,2025-05-27T22:32:01.338566
1224,-0.3396,0.0317,0.9814,-0.035,-2.695,0.175,410,396,348,405,401,2025-05-27T22:32:01.338566
1225,-0.3382,0.0322,0.9819,0.070,-2.730,0.245,420,407,373,404,404,2025-05-27T22:32:01.338566
1226,-0.3348,0.0361,0.9780,0.035,-2.695,0.315,425,404,340,350,374,2025-05-27T22:32:01.338566
1227,-0.3357,0.0390,0.9828,0.035,-2.695,0.385,420,396,334,381,386,2025-05-27T22:32:01.338566
1228,-0.3377,0.0342,0.9853,-0.035,-2.940,0.385,303,410,361,395,383,2025-05-27T22:32:01.338566
1229,-0.3387,0.0332,0.9853,-0.175,-3.255,0.245,401,423,376,386,397,2025-05-27T22:32:01.338566
1230,-0.3401,0.0278,0.9858,-0.175,-3.360,0.315,425,426,371,410,361,2025-05-27T22:32:01.338566
1231,-0.3392,0.0254,0.9843,-0.245,-3.115,0.315,403,400,339,346,385,2025-05-27T22:32:01.429394
1232,-0.3387,0.0224,0.9828,-0.210,-2.975,0.350,401,390,350,399,401,2025-05-27T22:32:01.429394
1233,-0.3411,0.0220,0.9819,-0.140,-3.255,0.245,387,419,326,391,406,2025-05-27T22:32:01.429394
1234,-0.3377,0.0200,0.9784,-0.140,-3.430,0.210,419,403,352,410,406,2025-05-27T22:32:01.429394
1235,-0.3333,0.0200,0.9770,-0.035,-3.290,0.140,424,426,363,397,350,2025-05-27T22:32:01.429394
1236,-0.3314,0.0264,0.9745,-0.035,-3.220,0.140,428,377,377,408,390,2025-05-27T22:32:01.429394
1237,-0.3309,0.0254,0.9765,-0.105,-3.045,-0.280,433,420,351,405,389,2025-05-27T22:32:01.429394
1238,-0.3274,0.0244,0.9804,-0.140,-2.590,-0.595,403,430,371,352,380,2025-05-27T22:32:01.429394
1239,-0.3284,0.0283,0.9804,-0.210,-2.030,-0.875,358,384,380,378,389,2025-05-27T22:32:01.578637
1240,-0.3328,0.0254,0.9823,-0.210,-1.715,-1.015,411,394,378,388,386,2025-05-27T22:32:01.578637
1241,-0.3377,0.0215,0.9833,-0.210,-1.435,-0.980,415,402,389,386,381,2025-05-27T22:32:01.578637
1242,-0.3416,0.0224,0.9823,-0.140,-1.295,-0.875,400,387,387,404,352,2025-05-27T22:32:01.578637
1243,-0.3440,0.0239,0.9814,-0.105,-1.295,-0.595,394,412,345,390,385,2025-05-27T22:32:01.578637
1244,-0.3440,0.0249,0.9784,-0.105,-1.330,-0.350,410,410,371,403,401,2025-05-27T22:32:01.578637
1245,-0.3460,0.0288,0.9784,-0.315,-1.645,-0.210,395,425,375,403,409,2025-05-27T22:32:01.578637
1246,-0.3426,0.0298,0.9750,-0.490,-1.960,-0.175,405,400,382,418,413,2025-05-27T22:32:01.578637
1247,-0.3377,0.0303,0.9726,-0.525,-1.960,0.000,385,415,386,408,409,2025-05-27T22:32:01.838178
1248,-0.3362,0.0298,0.9745,-0.665,-1.750,0.035,393,421,386,419,353,2025-05-27T22:32:01.838178
1249,-0.3401,0.0278,0.9765,-0.560,-1.470,0.105,401,409,372,376,292,2025-05-27T22:32:01.838178
1250,-0.3392,0.0278,0.9780,-0.420,-1.400,0.000,396,353,344,354,310,2025-05-27T22:32:01.838178
1251,-0.3406,0.0249,0.9789,-0.210,-1.155,0.070,364,417,357,396,369,2025-05-27T22:32:01.838178
1252,-0.3401,0.0273,0.9794,-0.070,-1.260,0.140,408,400,360,393,399,2025-05-27T22:32:01.838178
1253,-0.3426,0.0283,0.9823,-0.035,-1.330,0.140,406,421,369,408,376,2025-05-27T22:32:01.838178
1254,-0.3436,0.0249,0.9814,0.140,-1.540,-0.070,425,399,360,354,340,2025-05-27T22:32:01.838178
1255,-0.3436,0.0234,0.9814,0.070,-1.645,-0.070,396,353,361,376,376,2025-05-27T22:32:01.838178
1256,-0.3396,0.0220,0.9828,0.070,-1.715,-0.035,409,412,385,400,349,2025-05-27T22:32:01.838178
1257,-0.3416,0.0210,0.9819,0.140,-1.610,-0.140,394,407,391,405,387,2025-05-27T22:32:01.838178
1258,-0.3411,0.0215,0.9794,0.175,-1.715,0.000,417,422,388,407,395,2025-05-27T22:32:01.838178
1259,-0.3426,0.0239,0.9809,0.105,-1.645,0.070,431,426,392,400,347,2025-05-27T22:32:01.838178
1260,-0.3411,0.0210,0.9799,-0.035,-1.540,0.175,425,407,392,413,388,2025-05-27T22:32:01.838178
1261,-0.3436,0.0234,0.9819,-0.070,-1.470,0.140,401,407,382,400,387,2025-05-27T22:32:01.838178
1262,-0.3416,0.0234,0.9819,0.070,-1.470,0.280,394,428,387,405,406,2025-05-27T22:32:01.838178
1263,-0.3436,0.0224,0.9828,0.035,-1.435,0.280,415,428,384,368,409,2025-05-27T22:32:01.838178
1264,-0.3440,0.0254,0.9804,-0.035,-1.505,0.105,399,401,385,337,403,2025-05-27T22:32:01.838178
1265,-0.3450,0.0254,0.9780,0.000,-1.715,-0.105,382,421,379,387,405,2025-05-27T22:32:01.838178
1266,-0.3470,0.0239,0.9784,0.070,-1.855,-0.035,410,303,382,303,393,2025-05-27T22:32:01.838178
1267,-0.3484,0.0229,0.9814,0.245,-2.310,-0.035,408,383,384,380,415,2025-05-27T22:32:01.838178
1268,-0.3514,0.0210,0.9823,0.280,-2.940,-0.105,421,382,383,381,398,2025-05-27T22:32:01.987413
1269,-0.3484,0.0210,0.9828,0.350,-3.360,0.035,417,409,376,386,402,2025-05-27T22:32:01.987413
1270,-0.3489,0.0200,0.9823,0.315,-3.745,0.000,401,410,380,367,383,2025-05-27T22:32:01.987413
1271,-0.3455,0.0200,0.9789,0.210,-4.025,-0.175,414,356,383,379,390,2025-05-27T22:32:01.987413
1272,-0.3455,0.0205,0.9770,0.105,-4.305,-0.245,400,337,379,390,392,2025-05-27T22:32:01.987413
1273,-0.3401,0.0181,0.9760,-0.070,-4.270,-0.280,409,384,379,403,346,2025-05-27T22:32:01.987413
1274,-0.3396,0.0185,0.9726,-0.070,-3.885,-0.455,347,392,392,387,391,2025-05-27T22:32:01.987413
1275,-0.3416,0.0171,0.9721,0.000,-3.360,-0.455,407,397,375,397,405,2025-05-27T22:32:01.987413
1276,-0.3450,0.0185,0.9726,0.070,-3.080,-0.630,423,341,365,402,406,2025-05-27T22:32:01.987413
1277,-0.3499,0.0220,0.9750,0.175,-3.465,-0.770,418,403,336,409,386,2025-05-27T22:32:01.987413
1278,-0.3484,0.0229,0.9760,0.280,-3.745,-0.840,425,343,352,365,400,2025-05-27T22:32:01.987413
1279,-0.3460,0.0268,0.9799,0.350,-3.500,-0.630,428,289,367,379,408,2025-05-27T22:32:01.987413
1280,-0.3421,0.0278,0.9765,0.525,-3.185,-0.455,352,382,370,344,408,2025-05-27T22:32:01.987413
1281,-0.3416,0.0342,0.9784,0.700,-2.660,-0.175,341,338,386,400,407,2025-05-27T22:32:01.987413
1282,-0.3372,0.0371,0.9750,0.455,-2.310,0.245,384,370,356,386,409,2025-05-27T22:32:02.152845
1283,-0.3372,0.0395,0.9750,0.105,-2.485,0.455,410,297,359,389,394,2025-05-27T22:32:02.153508
1284,-0.3377,0.0381,0.9716,-0.140,-2.765,0.595,427,391,367,401,349,2025-05-27T22:32:02.153508
1285,-0.3396,0.0337,0.9711,-0.245,-2.625,0.805,418,419,377,402,333,2025-05-27T22:32:02.153508
1286,-0.3416,0.0317,0.9750,-0.350,-2.695,0.770,420,414,379,408,378,2025-05-27T22:32:02.153508
1287,-0.3416,0.0254,0.9755,-0.175,-2.765,0.665,419,417,367,395,393,2025-05-27T22:32:02.153508
1288,-0.3470,0.0229,0.9809,0.000,-2.590,0.700,408,431,369,389,401,2025-05-27T22:32:02.153508
1289,-0.3470,0.0220,0.9828,0.385,-2.205,0.875,420,401,386,386,392,2025-05-27T22:32:02.153508
1290,-0.3543,0.0176,0.9838,0.665,-2.275,0.665,401,402,392,360,407,2025-05-27T22:32:02.153508
1291,-0.3518,0.0205,0.9833,0.840,-2.765,0.770,385,409,384,335,407,2025-05-27T22:32:02.153508
1292,-0.3470,0.0210,0.9804,1.015,-3.220,0.665,384,398,390,402,408,2025-05-27T22:32:02.153508
1293,-0.3426,0.0239,0.9799,0.875,-3.465,0.560,397,422,382,417,402,2025-05-27T22:32:02.153508
1294,-0.3362,0.0259,0.9804,0.735,-3.220,0.490,392,421,377,401,410,2025-05-27T22:32:02.153508
1295,-0.3348,0.0264,0.9799,0.525,-2.905,0.385,388,423,371,343,395,2025-05-27T22:32:02.153508
1296,-0.3343,0.0259,0.9804,0.315,-2.695,0.490,423,398,369,367,351,2025-05-27T22:32:02.153508
1297,-0.3382,0.0244,0.9809,0.070,-2.765,0.560,417,397,369,374,402,2025-05-27T22:32:02.153508
1298,-0.3396,0.0239,0.9799,-0.035,-2.695,0.700,404,393,338,361,400,2025-05-27T22:32:02.153508
1299,-0.3465,0.0215,0.9838,-0.140,-2.800,0.875,427,410,363,398,351,2025-05-27T22:32:02.241932
1300,-0.3445,0.0220,0.9823,-0.105,-3.325,0.945,413,429,376,392,379,2025-05-27T22:32:02.241932
1301,-0.3416,0.0249,0.9794,-0.035,-3.360,0.840,408,353,371,388,399,2025-05-27T22:32:02.241932
1302,-0.3411,0.0268,0.9765,-0.070,-3.080,0.630,412,410,369,409,396,2025-05-27T22:32:02.241932
1303,-0.3406,0.0283,0.9770,-0.140,-2.905,0.385,405,395,371,400,396,2025-05-27T22:32:02.241932
1304,-0.3445,0.0259,0.9833,-0.280,-2.870,0.140,397,385,365,387,388,2025-05-27T22:32:02.241932
1305,-0.3440,0.0244,0.9843,-0.035,-2.940,0.140,409,385,377,393,345,2025-05-27T22:32:02.241932
1306,-0.3465,0.0249,0.9799,0.140,-3.255,0.140,398,415,383,404,338,2025-05-27T22:32:02.592905
1307,-0.3426,0.0259,0.9765,0.315,-3.290,0.280,425,417,378,408,378,2025-05-27T22:32:02.592905
1308,-0.3416,0.0278,0.9770,0.350,-3.080,0.385,389,424,341,392,379,2025-05-27T22:32:02.592905
1309,-0.3406,0.0273,0.9745,0.280,-3.010,0.420,414,390,369,396,349,2025-05-27T22:32:02.592905
1310,-0.3406,0.0293,0.9765,0.350,-3.185,0.280,397,411,365,415,389,2025-05-27T22:32:02.592905
1311,-0.3416,0.0288,0.9775,0.280,-3.290,0.245,389,413,377,401,395,2025-05-27T22:32:02.592905
1312,-0.3426,0.0322,0.9799,0.105,-3.430,0.315,409,427,387,405,385,2025-05-27T22:32:02.592905
1313,-0.3426,0.0268,0.9828,0.070,-3.640,0.210,343,347,376,371,377,2025-05-27T22:32:02.592905
1314,-0.3431,0.0239,0.9838,0.000,-3.570,0.140,382,367,383,336,398,2025-05-27T22:32:02.592905
1315,-0.3445,0.0200,0.9843,0.035,-3.675,0.140,423,393,378,388,370,2025-05-27T22:32:02.592905
1316,-0.3436,0.0200,0.9804,0.175,-3.745,0.035,306,346,390,389,398,2025-05-27T22:32:02.592905
1317,-0.3426,0.0181,0.9804,0.245,-3.710,0.035,396,385,381,395,405,2025-05-27T22:32:02.592905
1318,-0.3387,0.0215,0.9789,0.245,-3.430,0.140,422,344,390,391,397,2025-05-27T22:32:02.592905
1319,-0.3406,0.0224,0.9750,0.245,-3.290,0.035,414,387,373,380,309,2025-05-27T22:32:02.592905
1320,-0.3353,0.0254,0.9770,0.035,-3.115,-0.105,421,404,378,397,358,2025-05-27T22:32:02.592905
1321,-0.3367,0.0273,0.9770,0.035,-3.220,-0.105,400,397,371,409,377,2025-05-27T22:32:02.592905
1322,-0.3377,0.0317,0.9775,0.000,-3.255,0.070,385,405,374,401,386,2025-05-27T22:32:02.592905
1323,-0.3333,0.0342,0.9736,0.000,-3.115,0.315,375,421,369,412,393,2025-05-27T22:32:02.592905
1324,-0.3323,0.0351,0.9765,0.140,-2.765,0.350,400,430,386,418,384,2025-05-27T22:32:02.592905
1325,-0.3362,0.0376,0.9804,0.105,-2.590,0.350,378,408,378,417,400,2025-05-27T22:32:02.592905
1326,-0.3406,0.0386,0.9814,0.000,-2.660,0.420,415,429,391,403,404,2025-05-27T22:32:02.592905
1327,-0.3416,0.0371,0.9838,-0.035,-2.800,0.420,431,414,382,413,418,2025-05-27T22:32:02.798934
1328,-0.3450,0.0337,0.9843,-0.140,-2.835,0.490,407,423,340,422,419,2025-05-27T22:32:02.798934
1329,-0.3431,0.0322,0.9828,-0.175,-3.010,0.595,397,403,351,420,397,2025-05-27T22:32:02.798934
1330,-0.3411,0.0268,0.9819,-0.105,-3.115,0.840,414,400,325,413,403,2025-05-27T22:32:02.798934
1331,-0.3401,0.0264,0.9784,-0.140,-3.185,0.770,415,399,355,417,411,2025-05-27T22:32:02.798934
1332,-0.3382,0.0254,0.9819,-0.070,-3.010,0.805,414,344,346,401,389,2025-05-27T22:32:02.798934
1333,-0.3377,0.0229,0.9775,-0.035,-3.080,0.840,385,418,359,410,386,2025-05-27T22:32:02.798934
1334,-0.3343,0.0268,0.9775,-0.070,-2.940,0.805,390,389,376,409,387,2025-05-27T22:32:02.798934
1335,-0.3372,0.0273,0.9770,-0.105,-2.590,0.700,409,416,374,417,348,2025-05-27T22:32:02.798934
1336,-0.3338,0.0259,0.9780,-0.105,-2.520,0.525,417,415,380,365,368,2025-05-27T22:32:02.798934
1337,-0.3387,0.0268,0.9789,-0.140,-2.485,0.420,380,297,368,401,386,2025-05-27T22:32:02.798934
1338,-0.3353,0.0254,0.9794,-0.175,-2.135,0.315,384,324,331,416,389,2025-05-27T22:32:02.798934
1339,-0.3421,0.0264,0.9814,-0.210,-1.995,0.315,334,390,354,357,397,2025-05-27T22:32:02.798934
1340,-0.3479,0.0234,0.9838,-0.210,-2.415,0.245,403,336,371,396,374,2025-05-27T22:32:02.798934
1341,-0.3450,0.0229,0.9814,-0.245,-2.905,0.280,415,405,383,396,390,2025-05-27T22:32:02.798934
1342,-0.3455,0.0220,0.9804,-0.280,-3.255,0.210,402,378,391,400,371,2025-05-27T22:32:02.916083
1343,-0.3450,0.0190,0.9853,-0.245,-3.080,0.350,389,329,388,366,401,2025-05-27T22:32:02.916083
1344,-0.3450,0.0181,0.9862,-0.140,-3.640,0.245,387,404,384,387,395,2025-05-27T22:32:02.916083
1345,-0.3411,0.0190,0.9828,0.000,-4.340,0.280,417,426,396,397,384,2025-05-27T22:32:02.916083
1346,-0.3401,0.0176,0.9828,0.210,-4.165,0.245,429,422,352,304,384,2025-05-27T22:32:02.916083
1347,-0.3392,0.0195,0.9843,0.210,-4.025,-0.105,346,396,357,376,398,2025-05-27T22:32:02.916083
1348,-0.3328,0.0224,0.9819,0.210,-3.990,-0.315,412,411,375,391,382,2025-05-27T22:32:02.916083
1349,-0.3294,0.0278,0.9823,0.210,-3.535,-0.385,383,424,372,390,407,2025-05-27T22:32:02.916083
1350,-0.3299,0.0283,0.9814,0.070,-3.185,-0.560,389,414,373,413,407,2025-05-27T22:32:02.916083
1351,-0.3318,0.0298,0.9804,-0.245,-3.185,-0.595,413,396,374,401,392,2025-05-27T22:32:02.916083
1352,-0.3323,0.0307,0.9804,-0.455,-3.290,-0.700,396,371,384,349,379,2025-05-27T22:32:02.916083
1353,-0.3367,0.0317,0.9780,-0.525,-3.255,-0.595,395,327,366,398,354,2025-05-27T22:32:02.916083
1354,-0.3406,0.0298,0.9814,-0.525,-3.255,-0.455,347,369,368,343,371,2025-05-27T22:32:02.916083
1355,-0.3455,0.0283,0.9833,-0.455,-3.325,-0.140,383,427,378,372,359,2025-05-27T22:32:02.916083
1356,-0.3450,0.0278,0.9858,-0.350,-3.675,0.070,413,397,368,361,395,2025-05-27T22:32:02.916083
1357,-0.3436,0.0288,0.9853,-0.245,-3.990,0.280,389,391,380,359,400,2025-05-27T22:32:02.916083
1358,-0.3382,0.0312,0.9789,-0.175,-3.990,0.525,405,419,383,336,412,2025-05-27T22:32:02.916083
1359,-0.3372,0.0317,0.9721,-0.140,-3.535,0.525,426,404,393,370,403,2025-05-27T22:32:02.916083
1360,-0.3353,0.0327,0.9780,-0.175,-3.395,0.735,393,431,380,411,408,2025-05-27T22:32:02.916083
1361,-0.3299,0.0337,0.9760,-0.105,-3.290,0.770,418,432,376,392,409,2025-05-27T22:32:02.916083
1362,-0.3299,0.0327,0.9745,-0.385,-2.800,0.805,338,413,386,420,402,2025-05-27T22:32:02.916083
1363,-0.3314,0.0337,0.9745,-0.525,-2.590,0.630,387,422,374,354,389,2025-05-27T22:32:02.968326
1364,-0.3333,0.0283,0.9770,-0.700,-2.765,0.455,403,405,364,359,384,2025-05-27T22:32:02.968326
1365,-0.3392,0.0229,0.9775,-0.770,-2.695,0.420,413,422,378,397,388,2025-05-27T22:32:02.968326
1366,-0.3436,0.0205,0.9819,-0.595,-2.590,0.455,403,414,373,388,308,2025-05-27T22:32:02.968326
1367,-0.3484,0.0171,0.9853,-0.280,-3.010,0.595,420,383,380,359,370,2025-05-27T22:32:02.968326
1368,-0.3465,0.0156,0.9833,0.070,-3.255,0.700,418,400,381,399,381,2025-05-27T22:32:03.064820
1369,-0.3460,0.0156,0.9853,0.350,-3.535,0.700,342,392,352,397,407,2025-05-27T22:32:03.064820
1370,-0.3401,0.0171,0.9843,0.595,-3.745,0.560,399,426,364,355,349,2025-05-27T22:32:03.064820
1371,-0.3343,0.0190,0.9809,0.700,-3.710,0.350,413,416,369,394,395,2025-05-27T22:32:03.064820
1372,-0.3289,0.0205,0.9799,0.735,-3.220,0.245,398,432,388,411,395,2025-05-27T22:32:03.064820
1373,-0.3260,0.0254,0.9823,0.665,-2.835,0.000,389,411,377,389,394,2025-05-27T22:32:03.069800
1374,-0.3274,0.0278,0.9828,0.735,-2.695,-0.175,380,406,371,404,312,2025-05-27T22:32:03.069800
1375,-0.3289,0.0259,0.9848,0.595,-2.380,-0.140,367,406,384,408,376,2025-05-27T22:32:03.069800
1376,-0.3314,0.0307,0.9809,0.420,-2.275,-0.070,400,347,377,409,342,2025-05-27T22:32:03.297643
1377,-0.3323,0.0307,0.9814,0.245,-2.345,0.140,407,414,372,420,346,2025-05-27T22:32:03.297643
1378,-0.3328,0.0288,0.9784,0.000,-2.345,0.245,425,423,366,358,366,2025-05-27T22:32:03.297643
1379,-0.3362,0.0317,0.9804,-0.105,-2.450,0.245,403,421,372,341,382,2025-05-27T22:32:03.297643
1380,-0.3362,0.0307,0.9794,-0.070,-2.800,0.245,410,401,365,394,394,2025-05-27T22:32:03.297643
1381,-0.3367,0.0303,0.9804,-0.105,-2.835,0.280,411,390,372,306,389,2025-05-27T22:32:03.297643
1382,-0.3333,0.0254,0.9823,-0.070,-2.555,0.280,422,399,334,330,410,2025-05-27T22:32:03.297643
1383,-0.3387,0.0239,0.9833,0.070,-2.345,0.315,413,414,358,393,411,2025-05-27T22:32:03.297643
1384,-0.3387,0.0259,0.9858,0.245,-2.415,0.175,387,394,371,384,373,2025-05-27T22:32:03.297643
1385,-0.3377,0.0278,0.9809,0.315,-2.450,0.070,398,343,364,351,381,2025-05-27T22:32:03.297643
1386,-0.3338,0.0293,0.9814,0.350,-2.380,0.105,414,398,369,377,397,2025-05-27T22:32:03.297643
1387,-0.3357,0.0293,0.9823,0.210,-2.415,-0.070,421,390,382,414,413,2025-05-27T22:32:03.297643
1388,-0.3362,0.0293,0.9828,0.035,-2.520,-0.175,396,430,384,415,409,2025-05-27T22:32:03.297643
1389,-0.3353,0.0273,0.9819,-0.070,-2.590,-0.210,415,401,342,410,316,2025-05-27T22:32:03.297643
1390,-0.3382,0.0259,0.9828,-0.105,-2.695,-0.140,405,415,353,410,380,2025-05-27T22:32:03.297643
1391,-0.3401,0.0249,0.9828,-0.035,-2.625,0.140,345,421,362,375,400,2025-05-27T22:32:03.297643
1392,-0.3392,0.0234,0.9833,0.140,-2.905,0.210,413,398,347,338,390,2025-05-27T22:32:03.297643
1393,-0.3372,0.0224,0.9814,0.140,-2.870,0.280,359,412,371,390,353,2025-05-27T22:32:03.297643
1394,-0.3377,0.0249,0.9794,0.210,-2.905,0.385,405,402,383,407,388,2025-05-27T22:32:03.297643
1395,-0.3343,0.0254,0.9799,0.175,-2.905,0.175,397,393,340,420,381,2025-05-27T22:32:03.297643
1396,-0.3348,0.0220,0.9784,0.105,-2.625,0.105,339,402,325,412,396,2025-05-27T22:32:03.478705
1397,-0.3353,0.0229,0.9828,0.280,-2.450,-0.035,413,437,316,416,369,2025-05-27T22:32:03.478705
1398,-0.3348,0.0249,0.9833,0.385,-2.275,-0.035,417,397,346,408,408,2025-05-27T22:32:03.478705
1399,-0.3387,0.0254,0.9804,0.490,-2.135,-0.175,368,380,362,393,408,2025-05-27T22:32:03.478705
1400,-0.3382,0.0322,0.9823,0.560,-1.995,-0.175,423,406,342,409,409,2025-05-27T22:32:03.478705
1401,-0.3416,0.0307,0.9823,0.280,-2.205,-0.140,423,426,374,354,407,2025-05-27T22:32:03.478705
1402,-0.3421,0.0327,0.9862,0.245,-2.660,-0.105,400,375,373,384,403,2025-05-27T22:32:03.478705
1403,-0.3396,0.0327,0.9853,0.175,-3.150,0.140,411,418,376,413,405,2025-05-27T22:32:03.478705
1404,-0.3377,0.0307,0.9848,0.070,-3.395,0.315,420,388,339,401,398,2025-05-27T22:32:03.478705
1405,-0.3318,0.0298,0.9833,0.000,-3.150,0.560,415,392,370,376,351,2025-05-27T22:32:03.479698
1406,-0.3318,0.0298,0.9799,-0.140,-2.870,0.700,394,386,348,400,339,2025-05-27T22:32:03.479698
1407,-0.3328,0.0288,0.9794,-0.070,-2.765,0.840,393,414,364,307,374,2025-05-27T22:32:03.479698
1408,-0.3328,0.0278,0.9775,0.000,-2.905,0.805,409,417,380,379,395,2025-05-27T22:32:03.479698
1409,-0.3353,0.0273,0.9794,0.070,-2.835,0.700,413,394,382,416,359,2025-05-27T22:32:03.479698
1410,-0.3338,0.0283,0.9809,-0.035,-2.800,0.665,395,409,372,397,376,2025-05-27T22:32:03.479698
1411,-0.3367,0.0264,0.9814,-0.070,-2.800,0.420,429,424,338,304,377,2025-05-27T22:32:03.782932
1412,-0.3406,0.0273,0.9833,-0.175,-3.115,0.175,419,415,349,377,398,2025-05-27T22:32:03.782932
1413,-0.3431,0.0224,0.9828,-0.070,-3.150,0.140,362,396,338,382,351,2025-05-27T22:32:03.782932
1414,-0.3411,0.0185,0.9823,-0.105,-3.290,0.210,403,406,324,344,371,2025-05-27T22:32:03.782932
1415,-0.3392,0.0185,0.9814,0.070,-3.395,0.245,419,420,359,401,338,2025-05-27T22:32:03.782932
1416,-0.3372,0.0185,0.9775,0.175,-3.325,0.210,418,395,366,412,333,2025-05-27T22:32:03.782932
1417,-0.3353,0.0229,0.9804,0.105,-3.325,0.140,396,301,371,420,367,2025-05-27T22:32:03.782932
1418,-0.3343,0.0244,0.9809,-0.070,-3.185,-0.035,413,368,343,389,392,2025-05-27T22:32:03.782932
1419,-0.3353,0.0254,0.9833,-0.140,-3.185,-0.035,413,406,360,387,391,2025-05-27T22:32:03.782932
1420,-0.3323,0.0264,0.9823,-0.070,-3.500,0.000,412,395,327,405,384,2025-05-27T22:32:03.782932
1421,-0.3289,0.0288,0.9780,0.070,-3.360,-0.035,365,387,354,391,388,2025-05-27T22:32:03.782932
1422,-0.3279,0.0351,0.9794,0.175,-2.765,0.070,343,417,370,401,394,2025-05-27T22:32:03.782932
1423,-0.3314,0.0351,0.9819,0.105,-2.485,0.000,340,367,334,306,409,2025-05-27T22:32:03.782932
1424,-0.3333,0.0346,0.9828,-0.105,-2.660,-0.035,384,390,321,368,410,2025-05-27T22:32:03.782932
1425,-0.3372,0.0351,0.9838,-0.210,-3.010,0.035,406,421,357,338,350,2025-05-27T22:32:03.782932
1426,-0.3367,0.0327,0.9819,-0.315,-2.975,0.140,421,348,374,378,399,2025-05-27T22:32:03.782932
1427,-0.3406,0.0298,0.9848,-0.385,-3.185,0.140,417,383,381,409,390,2025-05-27T22:32:03.783943
1428,-0.3406,0.0259,0.9804,-0.315,-3.500,0.280,398,369,374,377,342,2025-05-27T22:32:03.783943
1429,-0.3372,0.0244,0.9833,-0.280,-3.500,0.385,428,402,343,336,285,2025-05-27T22:32:03.783943
1430,-0.3382,0.0210,0.9833,-0.210,-3.535,0.350,424,402,354,333,352,2025-05-27T22:32:03.877190
1431,-0.3338,0.0244,0.9804,-0.105,-3.500,0.385,396,420,382,392,375,2025-05-27T22:32:03.877190
1432,-0.3304,0.0239,0.9804,-0.070,-3.185,0.315,410,341,389,404,380,2025-05-27T22:32:03.877190
1433,-0.3294,0.0273,0.9804,0.000,-2.940,0.245,382,394,380,403,381,2025-05-27T22:32:03.877190
1434,-0.3323,0.0268,0.9814,-0.035,-2.730,0.000,407,412,387,393,384,2025-05-27T22:32:03.877190
1435,-0.3328,0.0283,0.9823,-0.035,-2.660,0.210,397,402,350,354,401,2025-05-27T22:32:03.877190
1436,-0.3357,0.0293,0.9823,-0.035,-2.660,0.210,417,393,360,332,357,2025-05-27T22:32:03.877190
1437,-0.3387,0.0264,0.9833,0.000,-2.800,0.280,412,405,371,373,392,2025-05-27T22:32:03.877190
1438,-0.3421,0.0264,0.9814,0.035,-2.905,0.210,394,379,336,400,399,2025-05-27T22:32:03.877190
1439,-0.3411,0.0244,0.9814,0.070,-3.150,0.315,415,386,365,400,310,2025-05-27T22:32:03.877190
1440,-0.3367,0.0234,0.9789,0.210,-3.220,0.385,404,375,362,403,367,2025-05-27T22:32:03.877190
1441,-0.3338,0.0278,0.9819,0.210,-3.220,0.490,388,399,379,404,375,2025-05-27T22:32:03.877190
1442,-0.3343,0.0244,0.9828,0.070,-3.220,0.350,421,428,344,372,395,2025-05-27T22:32:03.877190
1443,-0.3304,0.0259,0.9828,0.000,-3.360,0.245,415,400,364,404,410,2025-05-27T22:32:03.877190
1444,-0.3318,0.0259,0.9848,0.000,-3.045,0.210,379,390,376,424,394,2025-05-27T22:32:03.877190
1445,-0.3323,0.0229,0.9814,-0.035,-2.870,0.175,337,412,382,426,347,2025-05-27T22:32:04.030261
1446,-0.3328,0.0268,0.9809,0.000,-3.150,0.245,412,370,388,356,363,2025-05-27T22:32:04.030261
1447,-0.3333,0.0293,0.9794,0.000,-3.255,0.280,416,418,351,381,376,2025-05-27T22:32:04.030261
1448,-0.3323,0.0278,0.9789,-0.070,-3.010,0.245,405,410,362,344,404,2025-05-27T22:32:04.030261
1449,-0.3314,0.0278,0.9819,0.035,-2.905,0.175,403,412,368,381,392,2025-05-27T22:32:04.030261
1450,-0.3348,0.0288,0.9828,0.035,-2.835,0.140,300,355,360,341,408,2025-05-27T22:32:04.030261
1451,-0.3357,0.0254,0.9838,-0.140,-2.905,0.105,397,389,369,397,358,2025-05-27T22:32:04.030261
1452,-0.3357,0.0249,0.9833,0.035,-2.975,0.140,408,407,340,412,378,2025-05-27T22:32:04.030261
1453,-0.3333,0.0268,0.9828,0.000,-3.115,0.175,394,423,355,353,378,2025-05-27T22:32:04.030261
1454,-0.3348,0.0259,0.9823,0.070,-2.975,0.175,369,341,361,404,412,2025-05-27T22:32:04.030261
1455,-0.3304,0.0259,0.9838,-0.035,-2.870,0.105,363,409,376,397,391,2025-05-27T22:32:04.030261
1456,-0.3314,0.0264,0.9833,0.035,-2.765,0.140,383,416,391,406,350,2025-05-27T22:32:04.265908
1457,-0.3304,0.0283,0.9833,-0.105,-2.625,0.070,400,348,348,406,335,2025-05-27T22:32:04.293603
1458,-0.3348,0.0239,0.9828,-0.175,-2.485,0.070,419,382,374,371,381,2025-05-27T22:32:04.293603
1459,-0.3338,0.0259,0.9809,-0.035,-2.625,0.070,419,408,350,394,402,2025-05-27T22:32:04.293603
1460,-0.3353,0.0264,0.9784,-8.960,-2.590,0.035,428,375,369,389,394,2025-05-27T22:32:04.293603
1461,-0.3343,0.0273,0.9819,0.070,-2.660,0.035,386,416,372,364,386,2025-05-27T22:32:04.293603
1462,-0.3353,0.0278,0.9819,0.035,-2.730,-0.070,375,417,384,357,342,2025-05-27T22:32:04.293603
1463,-0.3348,0.0264,0.9828,-0.035,-2.765,-0.070,382,429,370,352,344,2025-05-27T22:32:04.293603
1464,-0.3314,0.0268,0.9814,0.035,-2.450,0.070,357,423,375,390,393,2025-05-27T22:32:04.293603
1465,-0.3348,0.0254,0.9833,0.000,-2.555,0.035,406,401,382,410,416,2025-05-27T22:32:04.293603
1466,-0.3348,0.0268,0.9843,0.070,-2.555,0.105,407,422,383,402,421,2025-05-27T22:32:04.293603
1467,-0.3333,0.0273,0.9823,-0.105,-2.590,0.070,389,418,339,408,368,2025-05-27T22:32:04.293603
1468,-0.3323,0.0264,0.9828,-0.105,-2.625,0.070,424,411,367,398,353,2025-05-27T22:32:04.293603
1469,-0.3323,0.0278,0.9833,-0.035,-2.590,0.070,427,340,381,386,383,2025-05-27T22:32:04.293603
1470,-0.3314,0.0298,0.9858,-0.140,-2.555,0.175,416,390,374,410,340,2025-05-27T22:32:04.293603
1471,-0.3304,0.0288,0.9848,-0.210,-2.450,0.245,354,405,385,411,373,2025-05-27T22:32:04.293603
1472,-0.3304,0.0293,0.9828,-0.280,-2.310,0.245,409,400,390,427,401,2025-05-27T22:32:04.293603
1473,-0.3304,0.0283,0.9843,-0.315,-2.205,0.350,417,413,377,415,395,2025-05-27T22:32:04.293603
1474,-0.3314,0.0293,0.9916,-0.420,-2.345,0.805,339,414,384,412,388,2025-05-27T22:32:04.293603
1475,-0.3226,0.0298,0.9970,-0.595,-2.380,1.330,407,419,339,409,403,2025-05-27T22:32:04.293603
1476,-0.3089,0.0303,1.0150,-0.630,-2.135,2.275,396,426,365,414,355,2025-05-27T22:32:04.293603
1477,-0.3001,0.0273,1.0350,8.715,-2.275,5.320,402,413,330,374,399,2025-05-27T22:32:04.293603
1478,-0.2806,0.0063,1.0526,2.625,-3.185,9.590,383,389,316,301,384,2025-05-27T22:32:04.293603
1479,-0.2879,-0.0063,1.0760,6.335,-1.435,11.620,293,368,340,380,366,2025-05-27T22:32:04.427156
1480,-0.3118,-0.0044,1.0936,9.695,1.435,10.780,324,415,365,404,352,2025-05-27T22:32:04.427156
1481,-0.3284,0.0185,1.1390,12.180,0.805,9.590,399,401,378,400,330,2025-05-27T22:32:04.427156
1482,-0.2991,0.0059,1.1400,14.630,-2.800,6.090,421,406,376,403,367,2025-05-27T22:32:04.427156
1483,-0.2674,0.0264,1.1727,18.620,-4.690,3.185,415,424,387,410,382,2025-05-27T22:32:04.427156
1484,-0.2240,0.0376,1.2102,25.725,-3.850,-0.210,391,433,388,357,372,2025-05-27T22:32:04.427156
1485,-0.1854,0.0722,1.2395,31.395,-1.470,-3.255,356,428,378,408,356,2025-05-27T22:32:04.441335
1486,-0.1435,0.0776,1.2512,34.965,4.690,-7.245,383,434,359,389,377,2025-05-27T22:32:04.441335
1487,-0.1288,0.0825,1.2659,43.085,14.560,-10.780,413,434,325,406,391,2025-05-27T22:32:04.441335
1488,-0.1337,0.1083,1.2537,47.285,20.265,-13.930,418,430,363,413,404,2025-05-27T22:32:04.441335
1489,-0.1352,0.1098,1.2273,53.305,25.935,-17.360,420,410,363,392,373,2025-05-27T22:32:04.441335
1490,-0.1332,0.1225,1.1893,59.220,33.355,-21.105,399,397,362,387,393,2025-05-27T22:32:04.441335
1491,-0.1283,0.1259,1.1536,65.520,45.080,-23.870,410,372,363,339,379,2025-05-27T22:32:04.441335
1492,-0.1488,0.1518,1.1112,70.210,58.695,-27.720,414,412,301,361,342,2025-05-27T22:32:04.525075
1493,-0.1518,0.1371,1.0682,74.795,75.320,-31.080,426,349,353,394,389,2025-05-27T22:32:04.525075
1494,-0.2074,0.1449,1.0331,78.260,90.930,-33.460,423,397,376,416,347,2025-05-27T22:32:04.525075
1495,-0.2869,0.1444,0.9916,81.200,101.360,-35.490,412,428,375,388,388,2025-05-27T22:32:04.525075
1496,-0.3494,0.1415,0.9428,82.915,106.015,-35.875,420,436,339,400,400,2025-05-27T22:32:04.525075
1497,-0.4231,0.1659,0.9018,84.805,107.555,-35.665,425,435,358,398,414,2025-05-27T22:32:04.525075
1498,-0.4324,0.1679,0.8813,84.140,110.740,-33.985,361,419,359,407,398,2025-05-27T22:32:04.845763
1499,-0.4607,0.1767,0.8491,81.760,115.500,-29.960,407,423,378,416,411,2025-05-27T22:32:04.845763
1500,-0.4860,0.1898,0.8023,78.540,122.570,-18.060,413,430,381,409,411,2025-05-27T22:32:04.845763
1501,-0.4885,0.1923,0.7476,75.215,133.980,-23.520,418,427,381,416,408,2025-05-27T22:32:04.845763
1502,-0.4939,0.1942,0.6895,71.890,151.830,-17.850,395,413,373,409,351,2025-05-27T22:32:04.845763
1503,-0.5139,0.1923,0.6515,69.825,174.440,-10.920,421,405,374,415,393,2025-05-27T22:32:04.846679
1504,-0.5802,0.1850,0.5900,68.845,196.070,-4.165,393,427,368,372,384,2025-05-27T22:32:04.846679
1505,-0.6515,0.1879,0.5373,68.565,213.325,1.715,415,424,385,406,394,2025-05-27T22:32:04.846679
1506,-0.7071,0.2054,0.5178,67.480,224.175,7.805,433,416,352,370,350,2025-05-27T22:32:04.846679
1507,-0.7910,0.2230,0.4831,65.765,231.035,12.845,400,430,364,406,401,2025-05-27T22:32:04.846679
1508,-0.8496,0.2406,0.4490,62.965,229.950,19.705,401,431,378,403,389,2025-05-27T22:32:04.846679
1509,-0.8960,0.2562,0.4114,60.200,224.525,26.705,412,428,391,400,390,2025-05-27T22:32:04.846679
1510,-0.9453,0.2664,0.3548,58.450,216.755,33.565,348,436,351,416,344,2025-05-27T22:32:04.846679
1511,-0.9745,0.2747,0.3113,56.420,204.400,40.425,416,354,293,385,372,2025-05-27T22:32:04.846679
1512,-1.0058,0.2957,0.2830,54.460,192.710,47.145,391,334,340,395,377,2025-05-27T22:32:04.846679
1513,-1.0185,0.3148,0.2538,50.820,176.785,51.730,335,394,288,395,396,2025-05-27T22:32:04.847719
1514,-1.0150,0.3343,0.2216,47.145,162.470,56.630,385,389,328,405,403,2025-05-27T22:32:05.011835
1515,-1.0136,0.3387,0.1884,43.295,149.450,60.130,401,433,342,392,403,2025-05-27T22:32:05.012049
1516,-0.9916,0.3533,0.1566,39.970,138.075,63.385,414,407,362,414,356,2025-05-27T22:32:05.012049
1517,-0.9780,0.3694,0.1362,37.205,128.940,66.605,417,389,333,393,369,2025-05-27T22:32:05.012049
1518,-0.9765,0.3758,0.1118,34.825,122.115,69.265,340,393,358,406,359,2025-05-27T22:32:05.012049
1519,-0.9653,0.3972,0.0927,31.920,116.900,71.925,408,420,334,403,389,2025-05-27T22:32:05.012049
1520,-0.9555,0.4075,0.0673,29.120,113.365,74.585,397,418,330,416,352,2025-05-27T22:32:05.012049
1521,-0.9501,0.4236,0.0415,26.250,110.950,76.580,397,404,366,419,372,2025-05-27T22:32:05.012049
1522,-0.9501,0.4343,0.0254,24.115,108.325,78.820,348,413,369,391,395,2025-05-27T22:32:05.012049
1523,-0.9438,0.4416,0.0029,23.100,102.515,81.165,403,399,377,347,384,2025-05-27T22:32:05.012049
1524,-0.9277,0.4582,-0.0068,22.750,95.340,83.370,407,402,390,394,410,2025-05-27T22:32:05.012049
1525,-0.9038,0.4685,-0.0161,22.960,86.380,86.345,419,407,373,383,396,2025-05-27T22:32:05.012049
1526,-0.8813,0.4787,-0.0332,26.250,76.440,92.295,360,402,376,387,387,2025-05-27T22:32:05.012049
1527,-0.8950,0.4924,-0.0044,28.945,69.090,96.670,399,404,387,405,388,2025-05-27T22:32:05.012049
1528,-0.8847,0.5251,0.0098,28.210,57.680,98.490,422,391,344,392,389,2025-05-27T22:32:05.014396
1529,-0.8833,0.5388,0.0029,24.570,46.900,97.545,409,396,335,398,368,2025-05-27T22:32:05.014396
1530,-0.8686,0.5422,-0.0151,20.510,35.805,93.835,398,421,351,345,379,2025-05-27T22:32:05.014396
1531,-0.8208,0.5480,-0.0405,18.375,23.030,91.245,340,398,333,372,404,2025-05-27T22:32:05.014396
1532,-0.7720,0.5749,-0.0488,18.690,13.300,88.515,410,421,350,387,395,2025-05-27T22:32:05.014396
1533,-0.7110,0.6085,-0.0576,16.940,7.770,86.975,416,422,365,345,394,2025-05-27T22:32:05.014396
1534,-0.6871,0.6217,-0.0615,13.685,1.855,84.490,409,426,378,383,400,2025-05-27T22:32:05.124009
1535,-0.6568,0.6256,-0.0547,12.635,-0.420,80.570,418,430,377,397,381,2025-05-27T22:32:05.124009
1536,-0.6622,0.6437,-0.0625,10.640,-1.995,76.335,421,402,388,388,405,2025-05-27T22:32:05.124009
1537,-0.6505,0.6710,-0.0317,8.925,-5.915,72.625,414,375,341,343,407,2025-05-27T22:32:05.124009
1538,-0.5944,0.6832,-0.0493,7.700,-8.015,69.790,422,429,358,381,404,2025-05-27T22:32:05.124009
1539,-0.5871,0.7227,-0.0264,4.620,-4.340,65.450,404,414,382,394,391,2025-05-27T22:32:05.124009
1540,-0.5934,0.7457,-0.0200,3.325,2.835,62.265,397,423,386,389,385,2025-05-27T22:32:05.125002
1541,-0.6041,0.7793,-0.0161,-0.210,3.045,60.270,400,427,371,382,404,2025-05-27T22:32:05.125002
1542,-0.6051,0.8081,0.0127,-2.170,-1.015,58.660,420,377,375,383,396,2025-05-27T22:32:05.125002
1543,-0.6159,0.8340,0.0298,-3.990,-2.275,55.930,420,410,369,338,392,2025-05-27T22:32:05.125002
1544,-0.6124,0.8682,0.0722,-6.965,-4.830,54.005,399,400,384,394,403,2025-05-27T22:32:05.125002
1545,-0.6110,0.9077,0.0761,-10.255,-10.220,52.185,389,400,379,401,411,2025-05-27T22:32:05.125002
1546,-0.6120,0.9243,0.0800,-13.965,-15.260,50.365,400,418,385,412,368,2025-05-27T22:32:05.125002
1547,-0.6124,0.9589,0.0937,-17.010,-19.635,48.790,422,381,370,353,369,2025-05-27T22:32:05.125002
1548,-0.5719,0.9775,0.1142,-20.895,-24.220,45.850,388,413,377,384,397,2025-05-27T22:32:05.257129
1549,-0.5510,1.0063,0.1147,-26.180,-25.305,43.995,411,400,344,389,387,2025-05-27T22:32:05.258126
1550,-0.5329,1.0331,0.1420,-30.205,-25.550,41.405,390,403,360,411,399,2025-05-27T22:32:05.258126
1551,-0.5446,1.0404,0.1742,-35.175,-29.330,36.960,421,341,371,407,386,2025-05-27T22:32:05.258126
1552,-0.5422,1.0360,0.2025,-39.270,-40.110,33.180,430,410,375,397,385,2025-05-27T22:32:05.258126
1553,-0.5348,1.0297,0.2118,-42.315,-54.110,29.400,401,408,387,394,348,2025-05-27T22:32:05.258126
1554,-0.5036,1.0180,0.2108,-43.925,-65.940,24.955,379,424,355,389,394,2025-05-27T22:32:05.258126
1555,-0.4758,1.0077,0.2045,-44.240,-75.460,20.860,402,412,375,392,371,2025-05-27T22:32:05.258126
1556,-0.4285,0.9906,0.2006,-43.400,-81.235,15.330,405,417,381,408,378,2025-05-27T22:32:05.258126
1557,-0.4168,0.9755,0.2098,-42.595,-82.530,10.185,378,372,344,393,383,2025-05-27T22:32:05.258126
1558,-0.4075,0.9672,0.2264,-42.315,-84.455,5.320,406,349,367,402,397,2025-05-27T22:32:05.258126
1559,-0.4104,0.9511,0.2523,-41.685,-87.920,0.805,422,410,381,391,405,2025-05-27T22:32:05.331051
1560,-0.4128,0.9492,0.2264,-42.735,-90.405,-7.245,398,433,374,398,353,2025-05-27T22:32:05.331051
1561,-0.4319,0.9350,0.2059,-45.010,-94.255,-12.040,415,429,378,406,346,2025-05-27T22:32:05.331051
1562,-0.4631,0.9243,0.1889,-48.475,-100.100,-17.080,344,436,344,348,349,2025-05-27T22:32:05.331051
1563,-0.5022,0.8989,0.2152,-50.190,-112.735,-22.680,401,429,358,356,291,2025-05-27T22:32:05.331051
1564,-0.5573,0.8579,0.2259,-51.835,-131.705,-28.385,417,426,374,400,361,2025-05-27T22:32:05.331051
1565,-0.5988,0.8106,0.2152,-53.060,-155.435,-33.355,396,430,344,411,393,2025-05-27T22:32:05.331051
1566,-0.6281,0.7706,0.2235,-52.745,-187.425,-36.260,395,418,362,401,396,2025-05-27T22:32:05.656517
1567,-0.6730,0.7457,0.2479,-53.585,-209.335,-40.005,368,364,370,395,396,2025-05-27T22:32:05.656517
1568,-0.6930,0.7052,0.2425,-57.505,-244.475,-43.190,293,397,379,386,411,2025-05-27T22:32:05.656517
1569,-0.6305,0.6832,0.2186,-62.440,-277.165,-46.970,379,416,382,392,357,2025-05-27T22:32:05.656517
1570,-0.5880,0.6647,0.2196,-67.025,-296.940,-50.925,407,408,357,383,390,2025-05-27T22:32:05.656517
1571,-0.5563,0.6403,0.2089,-73.430,-312.410,-53.515,357,394,380,302,379,2025-05-27T22:32:05.656517
1572,-0.5246,0.6129,0.2269,-78.470,-329.385,-55.370,411,416,340,385,399,2025-05-27T22:32:05.656517
1573,-0.5017,0.5700,0.2308,-83.580,-344.470,-54.845,420,402,373,390,392,2025-05-27T22:32:05.656517
1574,-0.4851,0.5300,0.2640,-88.550,-355.530,-53.865,421,393,378,415,400,2025-05-27T22:32:05.661505
1575,-0.4626,0.5017,0.2865,-94.395,-372.435,-54.740,383,409,383,352,367,2025-05-27T22:32:05.661505
1576,-0.4021,0.4641,0.2835,-99.890,-385.875,-55.475,403,406,350,376,405,2025-05-27T22:32:05.661888
1577,-0.2811,0.4021,0.2757,-101.185,-387.870,-49.070,401,412,325,405,400,2025-05-27T22:32:05.661888
1578,-0.1318,0.3714,0.2933,-101.045,-374.675,-41.405,395,397,362,423,405,2025-05-27T22:32:05.661888
1579,0.0864,0.3460,0.3523,-104.265,-338.905,-37.625,415,406,372,407,391,2025-05-27T22:32:05.662893
1580,0.3030,0.3182,0.4412,-112.420,-272.405,-35.420,407,409,383,421,413,2025-05-27T22:32:05.662893
1581,0.4143,0.2479,0.5373,-121.240,-205.205,-31.570,414,427,377,410,394,2025-05-27T22:32:05.662893
1582,0.3845,0.1767,0.6432,-123.025,-106.960,-27.965,384,434,340,394,403,2025-05-27T22:32:05.811287
1583,0.2586,0.1327,0.7657,-122.850,-43.120,-27.405,420,356,371,383,404,2025-05-27T22:32:05.811287
1584,0.1054,0.0898,0.8901,-118.440,-4.375,-25.935,401,389,381,400,399,2025-05-27T22:32:05.811287
1585,-0.1030,0.0517,1.0302,-107.975,15.855,-22.575,397,391,370,421,400,2025-05-27T22:32:05.811287
1586,-0.3255,0.0293,1.1736,-91.840,10.535,-18.585,388,344,370,418,354,2025-05-27T22:32:05.821598
1587,-0.4607,0.0268,1.2771,-72.485,-16.835,-17.045,399,401,364,402,380,2025-05-27T22:32:05.821598
1588,-0.4997,0.0600,1.3723,-55.265,-53.725,-16.800,377,423,376,412,395,2025-05-27T22:32:05.821598
1589,-0.4499,0.0961,1.4211,-31.220,-83.510,-14.945,386,430,378,423,404,2025-05-27T22:32:05.821598
1590,-0.3001,0.1557,1.4416,-6.090,-98.210,-13.825,409,401,381,399,413,2025-05-27T22:32:05.821598
1591,-0.1405,0.2069,1.4372,16.975,-98.280,-13.685,389,430,376,351,409,2025-05-27T22:32:05.821598
1592,0.0444,0.2401,1.4162,36.540,-72.275,-15.645,384,435,382,376,354,2025-05-27T22:32:05.821598
1593,0.1854,0.2796,1.3991,52.185,-26.180,-18.585,416,311,379,378,392,2025-05-27T22:32:05.821598
1594,0.2381,0.3035,1.3518,64.085,27.930,-19.530,412,404,394,389,386,2025-05-27T22:32:05.821598
1595,0.1889,0.3270,1.2942,79.485,78.645,-18.375,303,345,373,389,403,2025-05-27T22:32:05.821598
1596,0.0659,0.3572,1.2493,93.835,110.495,-15.855,390,412,390,420,409,2025-05-27T22:32:05.821598
1597,-0.0220,0.3977,1.2024,106.225,135.555,-13.510,335,399,378,357,409,2025-05-27T22:32:05.821598
1598,-0.1444,0.4319,1.1370,117.565,149.660,-8.680,403,410,386,380,402,2025-05-27T22:32:05.821598
1599,-0.2323,0.4665,1.0912,128.170,152.005,-2.380,417,424,355,388,399,2025-05-27T22:32:05.821598
1600,-0.2523,0.4885,1.0063,135.520,147.735,4.620,418,429,373,386,388,2025-05-27T22:32:05.821598
1601,-0.2440,0.5109,0.8994,140.175,149.065,10.360,378,351,385,398,367,2025-05-27T22:32:05.821598
1602,-0.2206,0.5217,0.7828,143.570,156.940,15.750,394,394,379,410,402,2025-05-27T22:32:06.065529
1603,-0.1996,0.5578,0.6734,144.655,171.920,22.540,405,390,383,396,409,2025-05-27T22:32:06.065529
1604,-0.1737,0.5998,0.5661,143.010,189.070,30.660,417,416,379,407,412,2025-05-27T22:32:06.065529
1605,-0.1952,0.6403,0.4924,138.075,208.565,37.485,407,418,372,410,393,2025-05-27T22:32:06.065529
1606,-0.2591,0.6427,0.4607,131.635,224.875,44.485,421,406,366,394,402,2025-05-27T22:32:06.312414
1607,-0.2830,0.6471,0.4016,123.795,231.840,50.575,407,405,381,393,398,2025-05-27T22:32:06.312414
1608,-0.3016,0.6383,0.3240,116.935,235.480,56.980,409,388,381,409,384,2025-05-27T22:32:06.312414
1609,-0.3016,0.6407,0.2342,112.980,239.680,63.910,409,414,377,405,379,2025-05-27T22:32:06.312414
1610,-0.3177,0.6812,0.2001,107.415,243.425,66.815,338,372,353,400,381,2025-05-27T22:32:06.312414
1611,-0.3323,0.6847,0.1674,100.765,242.970,69.930,380,386,346,414,344,2025-05-27T22:32:06.312414
1612,-0.3318,0.7227,0.1401,93.590,239.995,71.260,422,343,368,413,367,2025-05-27T22:32:06.312414
1613,-0.2977,0.7505,0.1078,85.295,238.280,71.925,415,399,363,407,371,2025-05-27T22:32:06.312414
1614,-0.3070,0.7642,0.0830,75.845,238.280,73.080,390,369,366,393,377,2025-05-27T22:32:06.312414
1615,-0.3045,0.7793,0.0527,65.625,230.930,74.165,409,394,376,350,400,2025-05-27T22:32:06.312414
1616,-0.3250,0.7886,0.0381,58.030,216.405,72.870,419,390,372,398,416,2025-05-27T22:32:06.312414
1617,-0.3611,0.7603,0.0171,51.065,202.510,69.755,406,426,373,412,407,2025-05-27T22:32:06.312414
1618,-0.3694,0.7671,0.0088,48.020,180.775,66.640,395,413,369,416,357,2025-05-27T22:32:06.312414
1619,-0.3762,0.7842,0.0386,45.535,154.630,61.495,391,423,369,406,338,2025-05-27T22:32:06.312414
1620,-0.3543,0.8023,0.0620,41.335,129.150,56.315,402,401,365,409,385,2025-05-27T22:32:06.312414
1621,-0.3201,0.8198,0.0747,37.835,105.630,52.185,402,405,378,408,404,2025-05-27T22:32:06.312414
1622,-0.3050,0.8408,0.0830,36.435,84.245,49.245,406,433,382,410,393,2025-05-27T22:32:06.312414
1623,-0.2625,0.8774,0.1108,35.105,67.025,45.815,394,380,387,415,399,2025-05-27T22:32:06.312414
1624,-0.2128,0.9287,0.1420,33.390,56.665,41.370,420,423,390,412,388,2025-05-27T22:32:06.312414
1625,-0.1703,0.9643,0.1601,32.305,52.815,37.205,433,392,384,366,392,2025-05-27T22:32:06.312414
1626,-0.1537,1.0072,0.1864,31.605,49.805,34.195,401,394,392,339,397,2025-05-27T22:32:06.312414
1627,-0.1518,1.0468,0.2206,30.555,46.760,30.100,392,342,384,382,401,2025-05-27T22:32:06.312414
1628,-0.1444,1.0985,0.2621,28.665,44.135,25.410,398,404,378,416,400,2025-05-27T22:32:06.312414
1629,-0.1513,1.1351,0.2796,27.125,41.860,21.280,387,337,384,398,398,2025-05-27T22:32:06.312414
1630,-0.1542,1.1673,0.3070,26.110,38.115,17.570,418,394,379,407,408,2025-05-27T22:32:06.312414
1631,-0.1342,1.1902,0.3065,25.725,34.650,15.470,422,403,383,413,410,2025-05-27T22:32:06.312414
1632,-0.1264,1.2215,0.3104,25.445,32.375,13.475,426,416,390,378,412,2025-05-27T22:32:06.312414
1633,-0.1127,1.3693,0.3274,23.905,32.130,10.885,437,414,394,415,407,2025-05-27T22:32:06.312414
1634,-0.1166,1.2815,0.3406,20.055,31.710,6.615,408,416,355,409,405,2025-05-27T22:32:06.312414
1635,-0.1118,1.3005,0.3592,14.175,30.275,1.890,399,421,364,350,364,2025-05-27T22:32:06.312414
1636,-0.1118,1.3137,0.3567,7.000,26.075,-2.870,427,440,376,382,351,2025-05-27T22:32:06.312414
1637,-0.0956,1.3147,0.3455,-7.770,20.650,-8.715,411,423,383,384,374,2025-05-27T22:32:06.312414
1638,-0.0683,1.2932,0.3211,-4.795,17.885,-14.910,347,393,390,389,399,2025-05-27T22:32:06.312414
1639,-0.0654,1.2644,0.3035,-8.400,14.665,-20.440,323,337,378,374,351,2025-05-27T22:32:06.312414
1640,-0.0859,1.2424,0.3011,-11.165,6.790,-25.935,392,395,342,408,334,2025-05-27T22:32:06.312414
1641,-0.0922,1.2244,0.2967,-15.085,-4.970,-33.915,424,407,364,399,381,2025-05-27T22:32:06.548794
1642,-0.1103,1.2005,0.2913,-19.705,-17.325,-42.595,412,428,369,389,378,2025-05-27T22:32:06.548794
1643,-0.1430,1.1751,0.2855,-23.450,-33.460,-51.520,420,424,386,407,404,2025-05-27T22:32:06.548794
1644,-0.1503,1.1502,0.2606,-28.525,-54.740,-61.040,407,423,390,354,395,2025-05-27T22:32:06.548794
1645,-0.1352,1.1195,0.2074,-32.620,-68.705,-69.965,396,387,373,391,352,2025-05-27T22:32:06.548794
1646,-0.1274,1.0985,0.1854,-36.715,-79.310,-77.245,412,357,374,391,382,2025-05-27T22:32:06.548794
1647,-0.1454,1.0878,0.1771,-42.210,-89.670,-85.995,396,412,379,388,341,2025-05-27T22:32:06.548794
1648,-0.2030,1.0668,0.1786,-47.600,-106.890,-93.170,420,405,382,397,376,2025-05-27T22:32:06.548794
1649,-0.2826,1.0487,0.1991,-54.635,-131.110,-100.065,417,395,376,394,405,2025-05-27T22:32:06.548794
1650,-0.3592,1.0365,0.2250,-61.635,-163.485,-107.135,419,391,368,375,407,2025-05-27T22:32:06.548794
1651,-0.4158,1.0067,0.2250,-71.015,-193.900,-113.610,409,407,379,376,394,2025-05-27T22:32:06.548794
1652,-0.4494,0.9672,0.1976,-77.910,-235.725,-118.020,421,409,391,399,390,2025-05-27T22:32:06.548794
1653,-0.4621,0.9228,0.1596,-83.265,-275.240,-120.085,417,423,378,357,396,2025-05-27T22:32:06.548794
1654,-0.4714,0.9091,0.1410,-89.460,-309.400,-121.975,418,403,340,379,395,2025-05-27T22:32:06.548794
1655,-0.4675,0.8799,0.1327,-96.635,-336.245,-122.990,398,393,352,402,397,2025-05-27T22:32:06.548794
1656,-0.4480,0.8560,0.1449,-107.905,-355.880,-122.150,384,387,358,408,369,2025-05-27T22:32:06.548794
1657,-0.4465,0.8208,0.1835,-117.915,-368.375,-117.915,407,414,381,407,390,2025-05-27T22:32:06.548794
1658,-0.4455,0.7730,0.2259,-133.140,-376.040,-110.950,422,401,374,406,393,2025-05-27T22:32:06.548794
1659,-0.4407,0.7222,0.2708,-149.450,-381.605,-101.430,420,399,377,419,380,2025-05-27T22:32:06.548794
1660,-0.4455,0.6500,0.3270,-165.725,-385.105,-91.280,408,408,382,416,344,2025-05-27T22:32:06.649202
1661,-0.4763,0.5622,0.3728,-180.005,-387.065,-81.165,299,385,391,411,380,2025-05-27T22:32:06.649202
1662,-0.4460,0.4782,0.4280,-190.015,-391.860,-71.715,353,404,390,418,381,2025-05-27T22:32:06.649202
1663,-0.4460,0.3987,0.4900,-194.215,-395.675,-58.695,383,417,348,421,401,2025-05-27T22:32:06.649202
1664,-0.4290,0.3050,0.5431,-193.970,-399.140,-46.445,402,422,365,416,407,2025-05-27T22:32:06.649202
1665,-0.3011,0.2152,0.5944,-189.980,-400.190,-33.285,409,429,375,388,392,2025-05-27T22:32:06.649202
1666,-0.1596,0.1269,0.6593,-186.620,-385.840,-20.510,406,441,369,403,399,2025-05-27T22:32:06.649202
1667,0.0161,0.0659,0.6876,-181.090,-354.095,-10.885,421,426,339,397,405,2025-05-27T22:32:06.649202
1668,0.1981,0.0151,0.7471,-177.100,-317.590,-4.200,345,389,355,413,412,2025-05-27T22:32:06.649202
1669,0.2952,-0.0639,0.8364,-172.725,-260.015,0.035,345,399,354,423,407,2025-05-27T22:32:06.649202
1670,0.3089,-0.1659,0.9414,-166.950,-201.880,7.875,399,422,376,419,397,2025-05-27T22:32:06.649202
1671,0.1669,-0.2928,1.0287,-155.435,-156.450,19.915,418,417,378,418,395,2025-05-27T22:32:06.649202
1672,0.0161,-0.3714,1.1492,-141.260,-132.160,30.275,412,400,339,414,397,2025-05-27T22:32:06.649202
1673,-0.0761,-0.4509,1.2415,-130.235,-121.065,40.110,412,435,368,356,400,2025-05-27T22:32:06.649202
1674,-0.1274,-0.5046,1.2849,-112.980,-101.150,51.625,378,361,369,390,414,2025-05-27T22:32:06.649202
1675,-0.1098,-0.5431,1.2400,-92.470,-98.595,64.295,346,394,345,344,403,2025-05-27T22:32:06.966100
1676,-0.0200,-0.5207,1.1624,-69.825,-83.475,76.265,396,414,373,389,396,2025-05-27T22:32:06.966100
1677,0.0903,-0.4577,1.1366,-51.275,-52.850,92.155,421,399,379,380,388,2025-05-27T22:32:06.966100
1678,0.1440,-0.3470,1.1507,-40.845,-9.380,107.065,409,392,385,400,394,2025-05-27T22:32:06.966100
1679,0.1337,-0.2723,1.1732,-40.390,29.120,117.600,403,392,349,406,388,2025-05-27T22:32:06.966100
1680,0.0825,-0.2503,1.1771,-41.370,60.725,124.355,421,404,375,411,405,2025-05-27T22:32:06.966100
1681,0.0815,-0.2430,1.1307,-41.090,93.275,132.930,404,426,390,400,402,2025-05-27T22:32:06.966100
1682,0.2411,-0.2499,1.0770,-37.345,112.000,141.190,379,419,388,399,393,2025-05-27T22:32:06.966100
1683,0.1679,-0.2181,1.0482,-31.360,141.050,147.035,401,406,377,396,411,2025-05-27T22:32:06.966100
1684,0.2435,-0.1996,1.0321,-23.520,176.715,152.880,337,394,386,415,351,2025-05-27T22:32:06.966100
1685,0.2796,-0.1698,1.0258,-16.450,216.300,158.375,401,410,379,412,385,2025-05-27T22:32:06.966100
1686,0.2850,-0.1322,1.0024,-8.470,255.500,161.280,386,408,386,385,384,2025-05-27T22:32:06.966100
1687,0.2743,-0.0874,0.9984,-1.400,290.395,161.665,412,405,376,397,391,2025-05-27T22:32:06.966100
1688,0.2957,-0.0576,1.0111,8.050,327.705,161.420,396,298,385,388,412,2025-05-27T22:32:06.966100
1689,0.2943,0.0063,1.0116,17.010,359.590,160.020,412,387,387,383,415,2025-05-27T22:32:06.966100
1690,0.2938,0.0512,0.9853,23.030,408.695,157.885,395,390,340,381,405,2025-05-27T22:32:06.966100
1691,0.2201,0.1054,0.9209,28.770,461.370,156.555,416,417,352,392,412,2025-05-27T22:32:06.966100
1692,0.0830,0.1571,0.8901,34.685,510.370,156.135,420,426,333,407,388,2025-05-27T22:32:06.966100
1693,-0.1049,0.1962,0.8511,40.460,548.415,158.130,362,357,347,412,392,2025-05-27T22:32:06.966100
1694,-0.3338,0.2362,0.8257,45.605,569.205,164.290,351,403,366,410,395,2025-05-27T22:32:07.062579
1695,-0.5505,0.2591,0.7969,51.625,573.475,172.340,417,390,343,349,340,2025-05-27T22:32:07.062579
1696,-0.7535,0.2689,0.7627,58.590,568.295,184.100,380,346,363,384,395,2025-05-27T22:32:07.062939
1697,-0.9145,0.2699,0.7593,69.195,545.230,204.190,385,412,380,386,309,2025-05-27T22:32:07.064349
1698,-1.0599,0.2811,0.7867,80.850,508.130,206.360,414,400,379,400,375,2025-05-27T22:32:07.064349
1699,-1.1043,0.3377,0.8042,89.250,468.475,213.290,415,339,366,406,385,2025-05-27T22:32:07.064349
1700,-1.0751,0.3309,0.7676,93.380,436.310,220.710,402,387,367,389,393,2025-05-27T22:32:07.065350
1701,-1.0424,0.3270,0.6627,97.510,411.530,231.210,394,389,364,362,405,2025-05-27T22:32:07.065350
1702,-0.9658,0.3665,0.5783,102.025,389.935,239.540,419,404,337,386,412,2025-05-27T22:32:07.065350
1703,-0.9711,0.3440,0.4714,106.470,377.650,245.315,401,391,357,388,419,2025-05-27T22:32:07.065350
1704,-0.9662,0.3860,0.4192,111.545,367.290,251.650,391,337,367,404,422,2025-05-27T22:32:07.065350
1705,-1.0468,0.3733,0.4250,115.115,344.925,256.270,421,378,304,373,404,2025-05-27T22:32:07.065350
1706,-1.0311,0.3904,0.3665,116.795,314.755,263.270,426,394,342,388,418,2025-05-27T22:32:07.065350
1707,-0.9994,0.3689,0.3265,116.690,280.875,267.785,429,413,353,343,390,2025-05-27T22:32:07.065350
1708,-0.9370,0.3528,0.2269,119.035,245.910,269.815,430,426,331,329,404,2025-05-27T22:32:07.066344
1709,-0.8203,0.3616,0.0976,122.780,213.115,266.315,416,432,334,372,400,2025-05-27T22:32:07.294778
1710,-0.7828,0.3514,-0.0083,129.850,190.155,257.565,403,423,353,393,407,2025-05-27T22:32:07.294778
1711,-0.7803,0.3870,-0.0317,135.940,174.930,244.755,399,411,364,412,408,2025-05-27T22:32:07.294778
1712,-0.8003,0.4148,0.0142,139.370,145.565,230.755,422,410,375,387,418,2025-05-27T22:32:07.294778
1713,-0.8101,0.4319,0.0224,142.660,108.255,217.700,434,439,370,416,415,2025-05-27T22:32:07.294778
1714,-0.8037,0.4529,-0.0522,139.825,67.795,200.830,422,431,377,408,411,2025-05-27T22:32:07.294778
1715,-0.8618,0.4987,-0.0727,139.265,23.065,183.050,410,410,382,410,415,2025-05-27T22:32:07.294778
1716,-0.9204,0.5129,-0.1449,142.380,-31.185,159.565,426,430,390,395,391,2025-05-27T22:32:07.294778
1717,-0.9584,0.5724,-0.2074,147.350,-88.410,133.245,411,421,378,390,384,2025-05-27T22:32:07.294778
1718,-0.9604,0.6393,-0.3001,154.840,-141.050,109.830,380,371,365,385,386,2025-05-27T22:32:07.294778
1719,-0.9487,0.6934,-0.4285,162.820,-183.505,87.885,408,413,373,402,401,2025-05-27T22:32:07.294778
1720,-0.9623,0.7418,-0.5378,167.965,-229.145,69.685,414,432,343,404,417,2025-05-27T22:32:07.294778
1721,-1.0199,0.8052,-0.6061,166.460,-269.535,48.860,404,418,334,411,396,2025-05-27T22:32:07.294778
1722,-1.0780,0.8101,-0.7086,159.320,-315.700,32.795,429,348,369,408,352,2025-05-27T22:32:07.294778
1723,-1.1527,0.7959,-0.8252,153.125,-370.790,23.240,372,409,376,397,382,2025-05-27T22:32:07.294778
1724,-1.2259,0.7930,-0.9345,148.645,-428.155,16.275,372,380,380,397,403,2025-05-27T22:32:07.294778
1725,-1.3064,0.7886,-1.0263,140.595,-482.230,8.190,404,426,346,388,364,2025-05-27T22:32:07.294778
1726,-1.3596,0.8198,-1.0594,128.065,-524.160,-0.035,403,400,354,405,387,2025-05-27T22:32:07.294778
1727,-1.3542,0.8608,-1.0873,110.565,-572.355,-16.905,388,348,365,394,402,2025-05-27T22:32:07.294778
1728,-1.2956,0.8613,-1.1380,93.450,-606.620,-18.375,424,294,376,411,398,2025-05-27T22:32:07.464476
1729,-1.1951,0.9067,-1.1204,76.300,-622.895,-25.655,369,383,378,399,384,2025-05-27T22:32:07.464476
1730,-1.1405,0.9311,-1.0370,59.150,-623.735,-28.980,417,338,377,385,406,2025-05-27T22:32:07.464476
1731,-1.1639,0.9360,-0.9775,40.110,-617.890,-32.515,431,375,367,392,390,2025-05-27T22:32:07.473365
1732,-1.2424,0.9384,-0.8520,23.555,-611.345,-34.545,398,393,383,407,400,2025-05-27T22:32:07.473365
1733,-1.3313,0.8750,-0.7652,4.305,-610.925,-34.650,382,421,374,412,409,2025-05-27T22:32:07.474061
1734,-1.5045,0.8037,-0.6974,-8.225,-618.590,-30.800,402,409,366,417,396,2025-05-27T22:32:07.474061
1735,-1.6006,0.6915,-0.6812,-14.490,-639.135,-24.675,301,404,372,425,344,2025-05-27T22:32:07.474061
1736,-1.6831,0.6178,-0.6232,-20.020,-664.965,-14.490,397,416,341,415,385,2025-05-27T22:32:07.474061
1737,-1.6856,0.6124,-0.5373,-26.985,-679.245,1.365,380,428,317,410,395,2025-05-27T22:32:07.474061
1738,-1.6011,0.6007,-0.4656,-35.105,-680.225,17.255,334,349,353,350,401,2025-05-27T22:32:07.474061
1739,-1.4220,0.5773,-0.3924,-42.910,-661.955,31.570,379,331,354,396,371,2025-05-27T22:32:07.474061
1740,-1.1600,0.5544,-0.3250,-50.890,-617.225,44.170,389,384,333,402,402,2025-05-27T22:32:07.474786
1741,-0.9828,0.4963,-0.2640,-49.175,-560.210,61.670,417,389,360,310,416,2025-05-27T22:32:07.474786
1742,-0.7691,0.4241,-0.1430,-46.830,-480.515,82.110,370,392,367,365,353,2025-05-27T22:32:07.774861
1743,-0.5680,0.3914,0.0298,-44.135,-397.320,121.205,386,340,380,357,372,2025-05-27T22:32:07.774861
1744,-0.5329,0.3670,0.2059,-48.930,-311.990,158.375,413,394,353,388,390,2025-05-27T22:32:07.774861
1745,-0.5061,0.3284,0.3772,-61.565,-235.900,183.855,425,409,361,399,402,2025-05-27T22:32:07.774861
1746,-0.5119,0.2913,0.4870,-71.960,-174.195,214.270,376,424,333,409,412,2025-05-27T22:32:07.774861
1747,-0.5612,0.2123,0.5129,-81.690,-128.555,241.115,376,365,356,396,359,2025-05-27T22:32:07.774861
1748,-0.6305,0.1352,0.5397,-88.375,-106.960,260.435,398,403,358,391,384,2025-05-27T22:32:07.774861
1749,-0.7086,0.0634,0.5573,-85.365,-107.625,276.150,393,426,371,398,394,2025-05-27T22:32:07.774861
1750,-0.6720,-0.0112,0.5710,-73.535,-120.295,283.115,342,416,383,411,347,2025-05-27T22:32:07.774861
1751,-0.5915,-0.0937,0.6090,-62.020,-136.465,288.995,406,416,395,387,387,2025-05-27T22:32:07.774861
1752,-0.3963,-0.2474,0.6085,-50.505,-144.655,295.365,400,403,382,408,398,2025-05-27T22:32:07.774861
1753,-0.1845,-0.1474,0.6110,-41.475,-136.745,303.555,375,418,394,404,393,2025-05-27T22:32:07.774861
1754,-0.0024,-0.1771,0.6144,-34.195,-114.065,309.680,396,409,382,405,401,2025-05-27T22:32:07.774861
1755,0.1381,-0.1967,0.5739,-32.235,-76.510,316.645,410,417,392,420,355,2025-05-27T22:32:07.774861
1756,0.2079,-0.2499,0.5470,-30.310,-35.665,320.670,399,345,376,421,372,2025-05-27T22:32:08.076739
1757,0.2869,-0.2791,0.5724,-28.070,-5.530,324.940,410,391,371,356,392,2025-05-27T22:32:08.076739
1758,0.3235,-0.3035,0.6378,-26.950,28.700,326.130,382,372,340,399,410,2025-05-27T22:32:08.076739
1759,0.4250,-0.3123,0.7413,-26.005,63.805,326.095,417,382,359,386,365,2025-05-27T22:32:08.076739
1760,0.4738,-0.3509,0.8247,-26.390,101.990,324.030,405,392,370,340,338,2025-05-27T22:32:08.076739
1761,0.5519,-0.3919,0.8603,-24.220,139.440,317.800,357,419,339,385,381,2025-05-27T22:32:08.076739
1762,0.6417,-0.4616,0.8852,-16.695,172.970,314.055,396,348,326,364,367,2025-05-27T22:32:08.076739
1763,0.7081,-0.5334,0.9004,-5.110,208.600,312.060,402,401,354,390,395,2025-05-27T22:32:08.076739
1764,0.6930,-0.5871,0.9252,14.595,246.890,307.055,403,412,332,399,409,2025-05-27T22:32:08.076739
1765,0.6398,-0.6271,0.9648,37.415,278.950,296.135,397,418,368,400,412,2025-05-27T22:32:08.076739
1766,0.5856,-0.6486,1.0453,61.530,316.610,285.355,398,423,375,405,405,2025-05-27T22:32:08.076739
1767,0.4865,-0.6446,1.1927,82.180,348.950,268.905,425,420,378,404,354,2025-05-27T22:32:08.076739
1768,0.3099,-0.6276,1.3400,96.145,374.290,245.945,425,430,375,392,390,2025-05-27T22:32:08.076739
1769,0.1103,-0.6359,1.4406,105.385,384.405,218.435,370,427,375,405,400,2025-05-27T22:32:08.076739
1770,0.0015,-0.6510,1.4986,123.200,373.170,198.520,366,402,376,311,397,2025-05-27T22:32:08.076739
1771,-0.0922,-0.6959,1.4782,137.620,350.560,186.795,332,375,372,385,388,2025-05-27T22:32:08.076739
1772,-0.1562,-0.6612,1.4513,162.015,334.950,175.280,383,409,374,385,398,2025-05-27T22:32:08.076739
1773,-0.1732,-0.5958,1.4694,181.370,321.860,162.995,379,423,381,391,389,2025-05-27T22:32:08.076739
1774,-0.2098,-0.5627,1.4401,193.130,315.910,154.070,392,380,389,403,404,2025-05-27T22:32:08.076739
1775,-0.2338,-0.5202,1.4396,202.020,308.210,145.600,376,394,343,400,401,2025-05-27T22:32:08.076739
1776,-0.3074,-0.4841,1.4142,210.805,300.370,138.495,390,426,370,375,408,2025-05-27T22:32:08.076739
1777,-0.3875,-0.4631,1.4113,216.650,289.730,131.460,375,415,382,400,403,2025-05-27T22:32:08.076739
1778,-0.5266,-0.4631,1.3610,226.835,268.870,125.440,419,405,370,367,395,2025-05-27T22:32:08.076739
1779,-0.6734,-0.4412,1.3376,238.140,236.180,119.770,425,404,344,343,380,2025-05-27T22:32:08.076739
1780,-0.7618,-0.4221,1.3205,253.365,189.420,113.120,428,371,369,373,395,2025-05-27T22:32:08.076739
1781,-0.8520,-0.3899,1.2976,267.680,146.720,105.175,417,391,366,392,360,2025-05-27T22:32:08.287570
1782,-0.8784,-0.3396,1.2966,281.295,97.055,94.745,403,381,363,392,376,2025-05-27T22:32:08.287570
1783,-0.8843,-0.2772,1.2839,290.920,52.150,82.530,406,396,301,385,400,2025-05-27T22:32:08.287570
1784,-0.8325,-0.2318,1.1697,296.065,14.980,72.940,390,427,349,388,354,2025-05-27T22:32:08.287570
1785,-0.7847,-0.2264,0.9565,303.730,-8.575,58.870,406,415,354,405,398,2025-05-27T22:32:08.287570
1786,-0.6847,-0.1801,0.7593,315.770,-17.780,45.605,424,428,374,423,403,2025-05-27T22:32:08.287570
1787,-0.6100,-0.0903,0.5212,324.135,-12.705,33.040,424,373,364,395,393,2025-05-27T22:32:08.287570
1788,-0.5231,0.0205,0.3172,328.685,6.545,26.355,426,426,338,396,409,2025-05-27T22:32:08.287570
1789,-0.5153,0.1440,0.1981,322.035,27.825,24.360,426,347,359,389,410,2025-05-27T22:32:08.287570
1790,-0.5768,0.2704,0.1049,310.380,53.025,26.215,400,402,373,403,420,2025-05-27T22:32:08.287570
1791,-0.6520,0.3118,-0.0356,293.090,66.675,28.910,362,360,384,354,356,2025-05-27T22:32:08.287570
1792,-0.6715,0.3562,-0.2435,274.155,69.930,29.575,390,421,375,394,377,2025-05-27T22:32:08.289373
1793,-0.7100,0.4148,-0.4270,256.550,81.480,37.345,336,345,369,407,382,2025-05-27T22:32:08.289373
1794,-0.7208,0.4914,-0.5915,241.150,95.550,43.260,381,394,383,399,388,2025-05-27T22:32:08.289373
1795,-0.7608,0.5910,-0.6798,221.165,100.940,48.230,415,418,348,408,385,2025-05-27T22:32:08.290369
1796,-0.8618,0.6598,-0.7310,196.560,87.710,52.150,414,412,370,417,376,2025-05-27T22:32:08.290369
1797,-0.8994,0.6983,-0.7627,172.690,52.220,54.250,382,377,363,403,341,2025-05-27T22:32:08.290369
1798,-0.9209,0.7237,-0.8394,149.205,0.175,54.075,383,390,382,402,371,2025-05-27T22:32:08.290369
1799,-0.8701,0.7701,-0.9008,127.680,-55.825,50.820,407,396,384,406,302,2025-05-27T22:32:08.290369
1800,-0.7769,0.8003,-0.9433,108.570,-107.940,46.585,419,421,387,383,371,2025-05-27T22:32:08.290369
1801,-0.6505,0.8569,-0.9565,89.880,-150.955,40.635,404,414,391,388,392,2025-05-27T22:32:08.290369
1802,-0.5026,0.9038,-0.9599,74.270,-176.540,33.285,427,393,374,384,397,2025-05-27T22:32:08.435618
1803,-0.3235,0.9575,-0.9648,55.020,-181.335,27.090,342,403,377,396,417,2025-05-27T22:32:08.435618
1804,-0.2181,0.9843,-0.9418,37.520,-170.205,22.155,381,423,383,404,402,2025-05-27T22:32:08.435618
1805,-0.1391,0.9970,-0.8930,21.560,-145.460,18.445,411,419,388,415,395,2025-05-27T22:32:08.440569
1806,-0.0937,0.9872,-0.8345,6.720,-117.635,14.245,419,419,385,349,382,2025-05-27T22:32:08.440569
1807,-0.1088,0.9775,-0.7662,-7.315,-89.880,10.395,426,372,375,373,346,2025-05-27T22:32:08.440811
1808,-0.1537,0.9682,-0.6837,-26.250,-67.270,7.560,398,416,345,336,331,2025-05-27T22:32:08.440934
1809,-0.1932,0.9560,-0.6095,-28.735,-52.535,5.005,408,425,369,367,359,2025-05-27T22:32:08.440934
1810,-0.2259,0.9394,-0.5207,-39.515,-43.365,2.695,419,407,379,395,398,2025-05-27T22:32:08.441203
1811,-0.2860,0.9204,-0.4348,-48.965,-35.700,1.155,419,391,384,397,407,2025-05-27T22:32:08.441261
1812,-0.3518,0.9038,-0.3401,-56.980,-37.205,-0.630,418,407,368,358,312,2025-05-27T22:32:08.441354
1813,-0.3938,0.8872,-0.2840,-63.105,-44.940,-1.995,402,404,377,395,368,2025-05-27T22:32:08.441354
1814,-0.4372,0.8564,-0.2367,-65.660,-54.950,-2.065,300,395,381,411,385,2025-05-27T22:32:08.441354
1815,-0.4758,0.8335,-0.1913,-66.500,-69.020,-1.715,395,405,389,412,347,2025-05-27T22:32:08.441816
1816,-0.4973,0.8262,-0.1435,-67.130,-84.805,-1.750,389,406,392,416,331,2025-05-27T22:32:08.441816
1817,-0.4714,0.8247,-0.1181,-69.755,-102.900,-2.765,396,422,379,403,356,2025-05-27T22:32:08.441816
1818,-0.4338,0.8242,-0.1074,-73.605,-113.260,-5.075,424,409,378,352,346,2025-05-27T22:32:08.441816
1819,-0.4080,0.8311,-0.0805,-78.820,-119.560,-7.560,426,420,305,389,387,2025-05-27T22:32:08.441816
1820,-0.3831,0.8272,-0.0639,-85.085,-124.880,-10.780,396,401,346,397,397,2025-05-27T22:32:08.441816
1821,-0.3719,0.8169,-0.0268,-90.230,-126.140,-13.825,424,399,347,389,345,2025-05-27T22:32:08.597372
1822,-0.3567,0.8150,0.0268,-97.020,-124.600,-17.290,391,356,377,393,373,2025-05-27T22:32:08.597372
1823,-0.3387,0.8135,0.0532,-104.580,-123.130,-20.930,387,409,383,386,385,2025-05-27T22:32:08.597372
1824,-0.2904,0.7974,0.0737,-112.140,-119.455,-25.060,412,410,376,417,390,2025-05-27T22:32:08.597372
1825,-0.2879,0.8228,0.0805,-117.670,-111.580,-28.490,376,383,370,397,400,2025-05-27T22:32:08.597372
1826,-0.2884,0.8745,0.1898,-124.355,-106.890,-30.555,409,397,377,389,383,2025-05-27T22:32:08.597372
1827,-0.3460,1.0272,0.3216,-134.295,-110.530,-28.245,386,409,370,406,408,2025-05-27T22:32:08.597372
1828,-0.4060,1.0965,0.4333,-143.115,-125.090,-22.750,370,433,369,412,395,2025-05-27T22:32:08.597372
1829,-0.4026,1.0716,0.4699,-145.565,-147.280,-15.680,398,404,370,422,404,2025-05-27T22:32:08.597372
1830,-0.3265,0.9374,0.4060,-143.815,-163.555,-8.610,355,404,347,413,411,2025-05-27T22:32:08.597372
1831,-0.2664,0.7535,0.3509,-136.290,-166.600,-2.800,379,416,362,407,386,2025-05-27T22:32:08.597372
1832,-0.2347,0.6344,0.3392,-124.600,-161.630,-4.200,398,407,367,412,308,2025-05-27T22:32:08.597372
1833,-0.2528,0.5592,0.3670,-116.550,-146.125,-12.810,374,386,378,406,380,2025-05-27T22:32:08.597372
1834,-0.2342,0.5207,0.4250,-118.790,-121.835,-21.840,397,407,383,412,410,2025-05-27T22:32:08.597372
1835,-0.2733,0.5075,0.5431,-127.575,-97.370,-23.275,423,412,310,392,408,2025-05-27T22:32:08.597372
1836,-0.2684,0.4675,0.6022,-136.115,-78.015,-20.265,411,408,341,404,366,2025-05-27T22:32:08.710821
1837,-0.2879,0.3865,0.5822,-145.040,-54.145,-16.800,422,425,364,348,339,2025-05-27T22:32:08.710821
1838,-0.3704,0.2943,0.5583,-147.035,-31.605,-16.380,404,392,362,395,370,2025-05-27T22:32:08.710821
1839,-0.3719,0.2469,0.5534,-143.010,-9.170,-18.375,431,406,302,398,353,2025-05-27T22:32:08.710821
1840,-0.3675,0.2347,0.6007,-140.770,13.090,-20.580,418,402,338,416,383,2025-05-27T22:32:08.710821
1841,-0.3880,0.2323,0.6842,-144.235,37.205,-21.910,415,396,358,421,403,2025-05-27T22:32:08.710821
1842,-0.4329,0.2255,0.7730,-148.715,50.155,-20.685,415,419,372,415,391,2025-05-27T22:32:08.710821
1843,-0.5412,0.1972,0.8418,-151.410,47.810,-19.950,411,416,370,408,408,2025-05-27T22:32:08.710821
1844,-0.6320,0.1610,0.8638,-151.865,37.170,-21.175,356,423,372,399,396,2025-05-27T22:32:08.849242
1845,-0.6734,0.1518,0.9121,-146.685,22.540,-22.925,410,436,384,393,385,2025-05-27T22:32:08.849242
1846,-0.6959,0.1552,0.9555,-137.340,-2.975,-24.325,396,422,382,413,381,2025-05-27T22:32:08.849242
1847,-0.6032,0.1732,0.9794,-128.345,-27.755,-25.620,401,425,383,419,408,2025-05-27T22:32:08.849242
1848,-0.5466,0.1767,0.9994,-119.560,-44.590,-26.810,387,431,390,411,409,2025-05-27T22:32:08.849242
1849,-0.5144,0.1918,1.0575,-112.945,-56.735,-29.715,416,358,348,360,414,2025-05-27T22:32:08.849242
1850,-0.5954,0.1869,1.1146,-99.470,-73.115,-34.160,421,408,358,404,423,2025-05-27T22:32:08.849242
1851,-0.6120,0.1728,1.1429,-101.465,-92.680,-36.890,416,376,364,389,410,2025-05-27T22:32:08.849242
1852,-0.5963,0.1571,1.1629,-92.050,-104.965,-34.930,394,423,377,341,351,2025-05-27T22:32:08.849242
1853,-0.5305,0.1469,1.1326,-81.690,-107.905,-31.360,420,371,375,375,378,2025-05-27T22:32:08.849242
1854,-0.4285,0.1484,1.0902,-71.820,-93.625,-29.330,428,412,338,395,396,2025-05-27T22:32:08.849242
1855,-0.3650,0.1479,1.0551,-65.520,-64.190,-28.245,350,418,355,345,394,2025-05-27T22:32:08.849242
1856,-0.3587,0.1430,1.0663,-61.915,-30.275,-27.545,410,413,367,388,419,2025-05-27T22:32:09.009964
1857,-0.4143,0.1391,1.0702,-59.745,-1.435,-22.995,416,423,375,410,411,2025-05-27T22:32:09.009964
1858,-0.4997,0.1347,1.0355,-59.220,16.170,-16.800,415,421,387,409,386,2025-05-27T22:32:09.009964
1859,-0.5988,0.1357,1.0214,-58.905,21.280,-11.620,387,416,375,399,375,2025-05-27T22:32:09.009964
1860,-0.6281,0.1430,1.0331,-59.535,16.170,-8.610,410,438,375,401,399,2025-05-27T22:32:09.009964
1861,-0.4612,0.1420,1.1336,-60.690,10.045,-10.150,389,399,377,410,362,2025-05-27T22:32:09.009964
1862,-0.0981,0.0800,1.3562,-51.415,42.315,-21.070,411,401,386,414,399,2025-05-27T22:32:09.009964
1863,-0.4675,-0.0454,1.5382,-13.335,64.575,-15.190,396,412,395,413,398,2025-05-27T22:32:09.009964
1864,-0.5500,0.0527,1.6104,12.040,22.260,-11.760,382,350,389,407,392,2025-05-27T22:32:09.009964
1865,-0.4953,0.1737,1.4367,14.735,-21.000,-15.295,358,407,384,407,385,2025-05-27T22:32:09.009964
1866,-0.4104,0.2054,1.0570,0.140,-18.690,-14.630,327,388,358,412,402,2025-05-27T22:32:09.009964
1867,-0.4455,0.1454,0.8530,-0.910,7.490,-11.025,390,372,379,386,413,2025-05-27T22:32:09.009964
1868,-0.4836,0.1137,0.8208,2.975,5.845,-7.525,382,426,395,403,404,2025-05-27T22:32:09.009964
1869,-0.4778,0.1196,0.8857,0.945,-9.975,-5.355,395,422,360,415,391,2025-05-27T22:32:09.111438
1870,-0.4333,0.1186,0.9335,-4.445,-12.180,-3.290,409,403,333,415,394,2025-05-27T22:32:09.111438
1871,-0.3919,0.1005,0.9335,-4.690,-9.940,-0.805,416,376,322,424,392,2025-05-27T22:32:09.111438
1872,-0.3889,0.0961,0.9140,-5.635,-11.655,1.225,355,414,344,400,390,2025-05-27T22:32:09.111438
1873,-0.4060,0.0893,0.8935,-6.720,-10.535,2.275,393,339,348,347,384,2025-05-27T22:32:09.111438
1874,-0.4226,0.0878,0.8867,-5.950,-3.535,2.975,357,392,372,393,395,2025-05-27T22:32:09.111438
1875,-0.4441,0.0864,0.9067,-6.020,-2.905,2.205,394,423,383,404,401,2025-05-27T22:32:09.111438
1876,-0.4538,0.0815,0.9272,-5.845,-5.810,0.875,410,410,377,345,380,2025-05-27T22:32:09.111438
1877,-0.4392,0.0834,0.9438,-3.745,-4.970,0.665,371,399,376,348,399,2025-05-27T22:32:09.111438
1878,-0.4314,0.0864,0.9536,-2.170,-3.290,0.665,411,422,351,373,397,2025-05-27T22:32:09.259717
1879,-0.4338,0.0956,0.9516,-1.890,-3.710,-0.070,400,377,368,408,368,2025-05-27T22:32:09.259717
1880,-0.4470,0.0883,0.9433,-1.260,-3.430,-0.805,419,412,347,398,350,2025-05-27T22:32:09.259717
1881,-0.4431,0.0844,0.9179,-0.840,-2.905,-0.875,376,410,334,408,397,2025-05-27T22:32:09.260653
1882,-0.4460,0.0810,0.9033,-0.280,-3.115,-1.330,418,383,350,421,391,2025-05-27T22:32:09.260653
1883,-0.4416,0.0810,0.9038,0.770,-2.450,-1.785,412,417,374,399,396,2025-05-27T22:32:09.260653
1884,-0.4372,0.0756,0.9111,1.610,-1.400,-2.275,414,419,371,410,352,2025-05-27T22:32:09.260653
1885,-0.4241,0.0766,0.9199,2.135,-1.505,-2.520,430,407,362,351,384,2025-05-27T22:32:09.260653
1886,-0.4104,0.0834,0.9311,2.275,-0.875,-2.695,380,353,372,395,382,2025-05-27T22:32:09.260653
1887,-0.4172,0.0820,0.9340,2.030,1.015,-3.045,384,390,378,349,378,2025-05-27T22:32:09.260653
1888,-0.4207,0.0864,0.9345,2.100,2.240,-3.360,397,408,340,395,382,2025-05-27T22:32:09.260653
1889,-0.4353,0.0937,0.9282,2.170,2.135,-3.675,412,430,370,409,387,2025-05-27T22:32:09.260653
1890,-0.4353,0.1010,0.9360,1.785,2.205,-3.675,401,394,370,427,387,2025-05-27T22:32:09.260653
1891,-0.4353,0.1030,0.9399,1.190,1.680,-3.465,420,406,391,351,403,2025-05-27T22:32:09.507981
1892,-0.4319,0.1078,0.9355,0.840,1.470,-3.535,409,430,393,395,408,2025-05-27T22:32:09.507981
1893,-0.4314,0.1059,0.9272,0.630,1.645,-3.430,303,392,345,381,407,2025-05-27T22:32:09.507981
1894,-0.4329,0.1069,0.9223,0.700,2.100,-2.975,379,402,365,407,400,2025-05-27T22:32:09.507981
1895,-0.4421,0.1030,0.9311,0.420,2.135,-2.450,354,418,376,399,405,2025-05-27T22:32:09.507981
1896,-0.4499,0.0991,0.9467,-0.385,1.785,-1.365,387,402,374,405,403,2025-05-27T22:32:09.507981
1897,-0.4729,0.0927,0.9540,-0.875,0.070,-0.735,332,431,383,412,395,2025-05-27T22:32:09.507981
1898,-0.4709,0.0864,0.9438,-0.840,-1.260,0.175,401,427,386,405,403,2025-05-27T22:32:09.507981
1899,-0.4792,0.0805,0.9414,-0.805,-1.505,0.805,384,419,390,381,397,2025-05-27T22:32:09.507981
1900,-0.4841,0.0825,0.9340,-0.770,-1.995,1.295,418,435,388,363,400,2025-05-27T22:32:09.507981
1901,-0.4743,0.0766,0.9301,-0.280,-3.780,1.400,429,397,386,377,407,2025-05-27T22:32:09.507981
1902,-0.4660,0.0800,0.9301,-0.245,-4.340,2.030,419,394,393,401,410,2025-05-27T22:32:09.507981
1903,-0.4509,0.0834,0.9301,-0.630,-4.165,2.450,377,415,383,409,414,2025-05-27T22:32:09.507981
1904,-0.4446,0.0795,0.9335,-0.945,-4.340,1.960,405,403,381,412,392,2025-05-27T22:32:09.507981
1905,-0.4499,0.0776,0.9360,-1.225,-4.165,1.505,409,407,386,353,389,2025-05-27T22:32:09.507981
1906,-0.4475,0.0781,0.9301,-1.295,-3.815,1.260,416,404,385,369,387,2025-05-27T22:32:09.757654
1907,-0.4558,0.0727,0.9257,-0.910,-3.780,0.840,395,399,384,396,347,2025-05-27T22:32:09.757654
1908,-0.4485,0.0781,0.9267,-0.455,-3.500,0.945,412,415,386,408,355,2025-05-27T22:32:09.757654
1909,-0.4524,0.0795,0.9248,-0.245,-3.570,0.945,429,411,385,393,373,2025-05-27T22:32:09.757654
1910,-0.4538,0.0844,0.9223,0.140,-3.710,0.665,413,417,385,403,393,2025-05-27T22:32:09.757654
1911,-0.4514,0.0854,0.9248,0.140,-3.920,0.490,415,414,312,399,403,2025-05-27T22:32:09.757654
1912,-0.4524,0.0917,0.9209,-0.070,-3.675,0.350,392,302,346,307,403,2025-05-27T22:32:09.757654
1913,-0.4548,0.0898,0.9238,-0.105,-3.570,0.350,387,369,353,368,421,2025-05-27T22:32:09.757654
1914,-0.4514,0.0937,0.9277,-0.140,-3.815,0.490,408,373,356,358,397,2025-05-27T22:32:09.757654
1915,-0.4529,0.0903,0.9248,-0.070,-3.885,0.385,401,394,378,403,392,2025-05-27T22:32:09.757654
1916,-0.4509,0.0917,0.9238,0.210,-4.095,0.385,431,401,369,402,309,2025-05-27T22:32:09.757654
1917,-0.4504,0.0893,0.9233,0.455,-4.095,0.455,420,423,380,407,371,2025-05-27T22:32:09.758678
1918,-0.4534,0.0878,0.9282,0.420,-4.200,0.315,390,428,353,349,369,2025-05-27T22:32:09.758678
1919,-0.4480,0.0859,0.9335,0.385,-4.795,0.280,409,420,364,396,394,2025-05-27T22:32:09.758678
1920,-0.4426,0.0922,0.9311,0.315,-4.900,0.630,396,379,377,410,396,2025-05-27T22:32:09.758678
1921,-0.4436,0.0883,0.9277,0.140,-4.270,0.595,410,405,369,403,388,2025-05-27T22:32:09.758678
1922,-0.4470,0.0898,0.9306,0.245,-3.990,0.595,432,403,369,411,406,2025-05-27T22:32:09.758678
1923,-0.4519,0.0888,0.9287,0.105,-4.690,0.945,435,412,368,420,404,2025-05-27T22:32:09.758678
1924,-0.4582,0.0947,0.9316,-0.070,-5.530,1.120,366,424,381,353,383,2025-05-27T22:32:09.758678
1925,-0.4509,0.0927,0.9340,-0.315,-5.705,1.155,403,431,336,334,344,2025-05-27T22:32:09.974925
1926,-0.4421,0.0898,0.9335,-0.350,-5.530,1.400,351,409,366,390,384,2025-05-27T22:32:09.974925
1927,-0.4348,0.0917,0.9345,-0.560,-5.355,1.610,344,377,380,364,394,2025-05-27T22:32:09.974925
1928,-0.4353,0.0942,0.9301,-0.665,-5.180,2.030,384,418,348,400,390,2025-05-27T22:32:09.974925
1929,-0.4309,0.0947,0.9262,-0.805,-4.830,1.785,396,385,355,344,385,2025-05-27T22:32:09.974925
1930,-0.4216,0.0937,0.9213,-0.805,-3.885,1.365,425,393,372,352,392,2025-05-27T22:32:09.974925
1931,-0.4226,0.0908,0.9282,-1.015,-2.030,0.490,394,410,385,399,391,2025-05-27T22:32:09.974925
1932,-0.4421,0.0883,0.9389,-1.575,-1.575,0.000,398,358,390,401,398,2025-05-27T22:32:09.974925
1933,-0.4480,0.0854,0.9331,-1.400,-3.115,0.210,415,405,390,400,354,2025-05-27T22:32:09.974925
1934,-0.4387,0.0878,0.9262,-1.015,-3.360,0.385,436,365,392,390,378,2025-05-27T22:32:09.974925
1935,-0.4338,0.0849,0.9209,-0.840,-1.225,0.105,428,422,353,410,392,2025-05-27T22:32:09.974925
1936,-0.4416,0.0834,0.9379,-0.945,-0.595,-0.210,396,362,361,393,403,2025-05-27T22:32:09.974925
1937,-0.4568,0.0791,0.9340,-0.490,-3.045,0.315,400,387,357,386,347,2025-05-27T22:32:09.974925
1938,-0.4441,0.0825,0.9287,-0.315,-4.305,0.875,429,403,369,401,372,2025-05-27T22:32:10.081840
1939,-0.4314,0.0839,0.9233,-0.105,-2.660,0.560,429,401,374,393,384,2025-05-27T22:32:10.081840
1940,-0.4314,0.0878,0.9345,-0.420,-1.085,0.140,413,391,382,348,395,2025-05-27T22:32:10.081840
1941,-0.4475,0.0844,0.9311,-0.560,-1.750,0.105,408,375,372,384,362,2025-05-27T22:32:10.081840
1942,-0.4446,0.0883,0.9252,-0.035,-2.485,0.070,404,425,384,341,375,2025-05-27T22:32:10.081840
1943,-0.4392,0.0903,0.9238,0.175,-1.330,0.105,415,421,372,371,402,2025-05-27T22:32:10.081840
1944,-0.4490,0.0888,0.9282,-0.210,-0.805,-0.175,359,409,381,402,407,2025-05-27T22:32:10.081840
1945,-0.4548,0.0869,0.9335,-0.105,-1.890,-0.140,385,431,384,363,395,2025-05-27T22:32:10.081840
1946,-0.4558,0.0830,0.9316,0.000,-3.010,0.070,393,402,381,390,410,2025-05-27T22:32:10.081840
1947,-0.4499,0.0839,0.9306,0.000,-2.835,0.175,417,400,374,412,420,2025-05-27T22:32:10.081840
1948,-0.4470,0.0815,0.9321,-0.140,-2.415,0.105,373,415,369,404,365,2025-05-27T22:32:10.081840
1949,-0.4470,0.0834,0.9331,-0.175,-2.380,0.455,401,418,387,392,394,2025-05-27T22:32:10.081840
1950,-0.4485,0.0849,0.9292,0.000,-2.765,0.805,429,398,383,409,406,2025-05-27T22:32:10.081840
1951,-0.4431,0.0883,0.9311,-0.070,-3.115,1.015,409,339,382,422,417,2025-05-27T22:32:10.081840
1952,-0.4402,0.0917,0.9287,-0.210,-3.150,0.770,386,394,392,421,355,2025-05-27T22:32:10.081840
1953,-0.4372,0.0913,0.9316,-0.245,-3.220,0.875,413,414,389,388,379,2025-05-27T22:32:10.081840
1954,-0.4416,0.0893,0.9311,-0.175,-3.395,0.875,421,403,374,415,402,2025-05-27T22:32:10.082838
1955,-0.4441,0.0917,0.9345,-0.420,-3.500,0.630,383,407,383,418,409,2025-05-27T22:32:10.082838
1956,-0.4480,0.0878,0.9345,-0.630,-3.640,0.700,397,403,376,401,407,2025-05-27T22:32:10.082838
1957,-0.4480,0.0834,0.9345,-0.560,-4.025,0.665,385,421,376,370,406,2025-05-27T22:32:10.082838
1958,-0.4460,0.0844,0.9306,-0.455,-4.060,0.875,407,404,374,398,368,2025-05-27T22:32:10.082838
1959,-0.4485,0.0815,0.9277,-0.350,-3.955,0.805,391,407,379,411,394,2025-05-27T22:32:10.476034
1960,-0.4426,0.0839,0.9282,-0.175,-3.990,0.875,418,399,372,376,388,2025-05-27T22:32:10.476034
1961,-0.4412,0.0844,0.9282,-0.455,-3.920,0.665,424,401,372,340,370,2025-05-27T22:32:10.476034
1962,-0.4412,0.0854,0.9296,-0.525,-3.885,0.245,416,414,387,386,384,2025-05-27T22:32:10.476034
1963,-0.4343,0.0830,0.9306,-0.385,-3.850,0.210,371,337,382,390,351,2025-05-27T22:32:10.476603
1964,-0.4299,0.0859,0.9316,-0.175,-3.290,0.140,401,404,383,387,377,2025-05-27T22:32:10.476603
1965,-0.4309,0.0893,0.9267,0.070,-2.660,0.175,396,415,374,415,398,2025-05-27T22:32:10.476603
1966,-0.4299,0.0888,0.9296,0.105,-2.485,0.350,418,379,382,411,397,2025-05-27T22:32:10.476603
1967,-0.4402,0.0898,0.9316,0.210,-2.555,0.525,429,412,355,399,382,2025-05-27T22:32:10.476603
1968,-0.4382,0.0942,0.9301,0.140,-2.765,0.560,429,404,336,350,386,2025-05-27T22:32:10.476603
1969,-0.4397,0.0947,0.9311,0.000,-2.730,0.490,400,372,360,295,377,2025-05-27T22:32:10.476603
1970,-0.4402,0.0913,0.9296,-0.140,-2.310,0.140,406,392,381,363,401,2025-05-27T22:32:10.476603
1971,-0.4397,0.0869,0.9277,0.070,-1.820,0.035,420,390,390,382,355,2025-05-27T22:32:10.476603
1972,-0.4421,0.0869,0.9296,0.070,-1.750,-0.035,424,429,376,406,402,2025-05-27T22:32:10.476603
1973,-0.4426,0.0834,0.9331,0.105,-1.470,0.000,431,419,386,416,391,2025-05-27T22:32:10.476603
1974,-0.4387,0.0825,0.9355,0.070,-1.855,0.385,417,419,389,411,398,2025-05-27T22:32:10.476603
1975,-0.4382,0.0874,0.9370,0.070,-1.960,0.560,426,427,383,388,394,2025-05-27T22:32:10.476603
1976,-0.4416,0.0898,0.9365,-0.280,-1.820,0.630,407,420,308,356,408,2025-05-27T22:32:10.476603
1977,-0.4485,0.0908,0.9340,-0.455,-2.030,0.595,355,422,310,356,366,2025-05-27T22:32:10.476603
1978,-0.4538,0.0898,0.9311,-0.385,-2.940,0.665,414,424,351,387,391,2025-05-27T22:32:10.476603
1979,-0.4499,0.0898,0.9272,-0.350,-3.535,0.875,398,375,370,411,384,2025-05-27T22:32:10.476603
1980,-0.4460,0.0864,0.9311,-0.350,-3.465,0.945,373,403,371,404,354,2025-05-27T22:32:10.586328
1981,-0.4446,0.0849,0.9296,-0.455,-3.290,0.805,412,401,371,340,334,2025-05-27T22:32:10.586328
1982,-0.4431,0.0844,0.9331,-0.805,-3.430,0.945,414,375,369,387,372,2025-05-27T22:32:10.586328
1983,-0.4377,0.0839,0.9331,-0.875,-3.395,0.665,414,422,380,358,380,2025-05-27T22:32:10.586328
1984,-0.4329,0.0854,0.9301,-0.945,-2.730,0.420,416,435,387,399,398,2025-05-27T22:32:10.586328
1985,-0.4402,0.0849,0.9287,-0.875,-2.800,0.595,345,419,373,408,395,2025-05-27T22:32:10.586328
1986,-0.4392,0.0820,0.9199,-0.245,-3.220,0.700,389,416,386,416,353,2025-05-27T22:32:10.586328
1987,-0.4397,0.0844,0.9238,0.385,-3.045,0.560,338,430,385,403,399,2025-05-27T22:32:10.586328
1988,-0.4412,0.0849,0.9277,0.350,-2.170,0.315,406,437,376,351,391,2025-05-27T22:32:10.587335
1989,-0.4441,0.0849,0.9345,0.210,-2.100,-0.035,387,422,374,388,350,2025-05-27T22:32:10.587335
1990,-0.4441,0.0834,0.9316,0.245,-2.415,-0.385,399,396,385,404,335,2025-05-27T22:32:10.587335
1991,-0.4397,0.0844,0.9335,0.350,-2.275,-0.280,384,343,382,420,366,2025-05-27T22:32:10.587335
1992,-0.4387,0.0869,0.9331,0.420,-1.890,0.455,385,384,392,419,374,2025-05-27T22:32:10.587335
1993,-0.4494,0.0864,0.9331,0.490,-2.555,0.770,416,416,399,415,388,2025-05-27T22:32:10.587335
1994,-0.4538,0.0864,0.9335,0.420,-3.185,0.490,359,416,347,351,387,2025-05-27T22:32:10.587335
1995,-0.4490,0.0903,0.9292,0.350,-3.570,0.490,376,361,354,399,403,2025-05-27T22:32:10.587335
1996,-0.4372,0.0908,0.9267,0.280,-3.430,0.630,399,393,378,406,369,2025-05-27T22:32:10.587335
1997,-0.4338,0.0839,0.9296,0.315,-2.870,0.315,402,416,346,405,389,2025-05-27T22:32:10.587335
1998,-0.4416,0.0864,0.9335,0.245,-2.730,0.560,338,412,360,392,396,2025-05-27T22:32:10.587335
1999,-0.4397,0.0874,0.9345,0.070,-3.080,1.015,335,427,373,407,397,2025-05-27T22:32:10.587335
2000,-0.4338,0.0859,0.9267,0.070,-3.185,0.980,409,422,373,411,405,2025-05-27T22:32:10.587335
2001,-0.4285,0.0932,0.9233,0.210,-2.205,0.595,399,425,364,373,385,2025-05-27T22:32:10.746807
2002,-0.4280,0.0937,0.9345,-0.630,-1.120,-0.035,414,432,345,383,397,2025-05-27T22:32:10.747890
2003,-0.4455,0.0893,0.9374,-0.910,-1.820,-0.035,388,416,324,300,347,2025-05-27T22:32:10.747890
2004,-0.4455,0.0898,0.9360,-0.560,-3.185,0.210,398,380,355,365,366,2025-05-27T22:32:10.747890
2005,-0.4441,0.0903,0.9306,-0.420,-3.185,0.455,372,408,330,402,394,2025-05-27T22:32:10.747890
2006,-0.4451,0.0844,0.9301,-0.280,-2.450,0.630,392,401,355,416,349,2025-05-27T22:32:10.747890
2007,-0.4480,0.0849,0.9311,0.105,-3.150,0.700,406,402,370,415,387,2025-05-27T22:32:10.747890
2008,-0.4475,0.0849,0.9287,0.210,-3.710,0.630,389,423,370,405,378,2025-05-27T22:32:10.747890
2009,-0.4421,0.0883,0.9287,0.070,-3.290,0.525,396,422,376,351,392,2025-05-27T22:32:10.747890
2010,-0.4358,0.0878,0.9296,-0.245,-2.800,0.280,360,347,339,396,364,2025-05-27T22:32:10.747890
2011,-0.4392,0.0849,0.9282,-0.105,-2.625,-0.140,389,400,325,390,384,2025-05-27T22:32:10.747890
2012,-0.4338,0.0830,0.9301,-0.035,-2.065,-0.210,374,376,363,383,382,2025-05-27T22:32:10.747890
2013,-0.4392,0.0874,0.9355,0.140,-1.855,0.280,391,389,369,409,396,2025-05-27T22:32:10.747890
2014,-0.4431,0.0874,0.9301,0.175,-2.275,0.350,428,395,368,404,394,2025-05-27T22:32:10.747890
2015,-0.4392,0.0874,0.9248,0.280,-2.240,0.105,433,416,348,405,381,2025-05-27T22:32:10.747890
2016,-0.4431,0.0898,0.9301,0.140,-1.365,-0.210,415,395,322,401,397,2025-05-27T22:32:10.969140
2017,-0.4524,0.0849,0.9350,-0.070,-2.205,0.105,407,398,358,410,411,2025-05-27T22:32:10.969140
2018,-0.4499,0.0854,0.9340,0.210,-3.710,0.595,399,414,362,353,385,2025-05-27T22:32:10.969140
2019,-0.4451,0.0854,0.9292,0.560,-3.745,0.875,415,410,384,352,395,2025-05-27T22:32:10.969140
2020,-0.4382,0.0864,0.9277,0.595,-2.765,0.980,402,426,394,403,399,2025-05-27T22:32:10.969140
2021,-0.4397,0.0888,0.9262,0.525,-2.520,0.630,421,351,371,391,407,2025-05-27T22:32:10.969140
2022,-0.4412,0.0903,0.9296,0.245,-2.590,0.490,399,385,384,393,387,2025-05-27T22:32:10.969140
2023,-0.4372,0.0903,0.9340,0.070,-2.520,0.630,416,427,388,399,339,2025-05-27T22:32:10.969140
2024,-0.4416,0.0908,0.9374,-0.140,-2.345,0.630,422,422,391,399,376,2025-05-27T22:32:10.969140
2025,-0.4485,0.0874,0.9360,0.000,-2.730,0.490,425,398,382,371,376,2025-05-27T22:32:10.969140
2026,-0.4441,0.0893,0.9326,-0.175,-2.905,0.490,401,413,386,339,398,2025-05-27T22:32:10.969140
2027,-0.4431,0.0888,0.9331,-0.245,-2.940,0.455,372,424,396,404,394,2025-05-27T22:32:10.969140
2028,-0.4470,0.0874,0.9326,-0.280,-3.150,0.175,386,377,350,417,396,2025-05-27T22:32:10.969140
2029,-0.4407,0.0854,0.9287,-0.070,-3.675,0.105,339,386,362,356,392,2025-05-27T22:32:10.969140
2030,-0.4338,0.0874,0.9282,0.035,-3.220,0.315,390,426,378,365,380,2025-05-27T22:32:10.969140
2031,-0.4392,0.0854,0.9272,0.175,-2.800,0.455,357,438,370,397,382,2025-05-27T22:32:10.969140
2032,-0.4392,0.0874,0.9301,0.280,-2.800,0.420,420,415,363,409,399,2025-05-27T22:32:10.969140
2033,-0.4402,0.0878,0.9292,0.175,-2.520,0.280,397,418,373,400,350,2025-05-27T22:32:10.969140
2034,-0.4451,0.0864,0.9326,0.140,-2.240,0.315,412,405,381,398,386,2025-05-27T22:32:11.047499
2035,-0.4436,0.0859,0.9326,0.175,-3.150,0.455,421,407,385,395,394,2025-05-27T22:32:11.047499
2036,-0.4416,0.0913,0.9321,0.035,-3.290,0.420,362,407,370,394,394,2025-05-27T22:32:11.047499
2037,-0.4372,0.0922,0.9345,0.000,-2.800,0.630,411,400,344,404,407,2025-05-27T22:32:11.047499
2038,-0.4421,0.0898,0.9296,0.105,-2.870,0.490,391,397,370,397,391,2025-05-27T22:32:11.047499
2039,-0.4402,0.0893,0.9282,0.245,-2.835,0.105,407,388,382,397,392,2025-05-27T22:32:11.047499
2040,-0.4387,0.0898,0.9252,0.350,-2.310,0.035,418,427,380,408,351,2025-05-27T22:32:11.047499
2041,-0.4436,0.0874,0.9296,0.245,-2.030,-0.350,417,415,377,393,372,2025-05-27T22:32:11.307678
2042,-0.4431,0.0893,0.9301,0.105,-2.310,-0.525,356,426,345,386,397,2025-05-27T22:32:11.308022
2043,-0.4421,0.0878,0.9350,0.175,-2.205,-0.700,393,406,377,386,408,2025-05-27T22:32:11.308177
2044,-0.4475,0.0864,0.9326,0.245,-2.170,-0.560,414,401,381,396,408,2025-05-27T22:32:11.308177
2045,-0.4446,0.0869,0.9296,0.210,-2.345,-0.350,379,412,382,389,408,2025-05-27T22:32:11.308177
2046,-0.4421,0.0869,0.9282,0.210,-2.240,-0.175,402,406,394,379,417,2025-05-27T22:32:11.308177
2047,-0.4426,0.0888,0.9316,0.385,-2.310,0.490,423,419,393,396,419,2025-05-27T22:32:11.308177
2048,-0.4392,0.0913,0.9335,0.525,-2.940,0.700,410,419,394,419,393,2025-05-27T22:32:11.308177
2049,-0.4372,0.0947,0.9282,0.315,-2.765,0.525,387,422,382,415,387,2025-05-27T22:32:11.308177
2050,-0.4387,0.0932,0.9306,0.000,-2.310,0.350,416,383,343,345,375,2025-05-27T22:32:11.308177
2051,-0.4431,0.0917,0.9321,-0.140,-2.520,0.245,390,367,356,354,396,2025-05-27T22:32:11.308177
2052,-0.4412,0.0913,0.9321,-0.245,-3.045,0.140,404,362,329,378,365,2025-05-27T22:32:11.308177
2053,-0.4412,0.0908,0.9326,-0.560,-2.485,0.140,339,377,345,390,401,2025-05-27T22:32:11.308177
2054,-0.4436,0.0849,0.9306,-0.385,-2.135,0.385,408,391,370,411,404,2025-05-27T22:32:11.308177
2055,-0.4441,0.0805,0.9311,-0.140,-2.485,0.280,414,392,378,363,408,2025-05-27T22:32:11.308177
2056,-0.4455,0.0830,0.9267,-0.105,-2.380,0.140,384,406,378,383,404,2025-05-27T22:32:11.535086
2057,-0.4455,0.0839,0.9272,-0.210,-2.135,0.105,409,410,388,386,398,2025-05-27T22:32:11.535086
2058,-0.4460,0.0825,0.9292,0.000,-2.625,0.070,358,383,383,341,310,2025-05-27T22:32:11.535086
2059,-0.4441,0.0849,0.9321,0.000,-3.010,0.210,400,345,380,324,375,2025-05-27T22:32:11.535086
2060,-0.4402,0.0903,0.9301,-0.175,-2.765,0.245,393,412,339,377,391,2025-05-27T22:32:11.535086
2061,-0.4333,0.0908,0.9301,-0.105,-2.590,0.070,393,421,364,417,388,2025-05-27T22:32:11.535086
2062,-0.4314,0.0937,0.9282,-0.035,-1.855,0.000,403,410,378,401,391,2025-05-27T22:32:11.535086
2063,-0.4343,0.0937,0.9301,-0.035,-1.155,-0.175,338,417,388,371,406,2025-05-27T22:32:11.535086
2064,-0.4416,0.0937,0.9355,-0.210,-1.470,-0.140,378,406,380,368,353,2025-05-27T22:32:11.535086
2065,-0.4446,0.0927,0.9360,-0.175,-2.240,0.000,400,368,383,375,394,2025-05-27T22:32:11.535086
2066,-0.4485,0.0932,0.9340,-0.280,-2.485,0.070,388,400,394,350,406,2025-05-27T22:32:11.535086
2067,-0.4455,0.0903,0.9331,-0.245,-2.485,0.105,383,388,380,388,355,2025-05-27T22:32:11.535086
2068,-0.4470,0.0878,0.9296,-0.280,-2.555,0.175,384,373,385,408,397,2025-05-27T22:32:11.535086
2069,-0.4480,0.0839,0.9311,-0.210,-2.555,-0.035,333,405,384,382,411,2025-05-27T22:32:11.535086
2070,-0.4421,0.0888,0.9311,-0.350,-2.275,0.140,326,402,385,389,417,2025-05-27T22:32:11.535086
2071,-0.4431,0.0859,0.9277,-0.385,-2.240,0.315,374,431,378,406,364,2025-05-27T22:32:11.535086
2072,-0.4421,0.0839,0.9335,-0.350,-2.310,0.245,413,396,335,404,395,2025-05-27T22:32:11.535086
2073,-0.4416,0.0844,0.9316,-0.525,-2.310,0.070,392,400,323,408,391,2025-05-27T22:32:11.535086
2074,-0.4402,0.0854,0.9301,-0.735,-2.135,0.140,400,418,352,357,397,2025-05-27T22:32:11.535086
2075,-0.4368,0.0874,0.9277,-0.700,-1.785,0.035,409,426,369,373,348,2025-05-27T22:32:11.535086
2076,-0.4353,0.0878,0.9301,-0.630,-1.575,0.315,413,397,370,404,332,2025-05-27T22:32:11.858154
2077,-0.4416,0.0917,0.9345,-0.735,-1.680,0.665,421,424,374,419,362,2025-05-27T22:32:11.858154
2078,-0.4441,0.0893,0.9316,-0.805,-1.925,0.595,360,375,366,405,390,2025-05-27T22:32:11.858154
2079,-0.4436,0.0903,0.9301,-0.980,-1.820,0.490,391,395,365,412,404,2025-05-27T22:32:11.858154
2080,-0.4465,0.0893,0.9292,-0.945,-1.645,0.595,298,406,370,361,385,2025-05-27T22:32:11.858154
2081,-0.4480,0.0893,0.9287,-0.910,-1.890,0.595,390,413,378,380,406,2025-05-27T22:32:11.858154
2082,-0.4553,0.0908,0.9326,-0.945,-2.240,0.665,390,410,382,390,417,2025-05-27T22:32:11.858154
2083,-0.4577,0.0898,0.9292,-1.015,-2.660,0.735,406,426,374,389,397,2025-05-27T22:32:11.858154
2084,-0.4573,0.0869,0.9292,-1.015,-3.220,0.735,411,426,383,392,363,2025-05-27T22:32:11.858154
2085,-0.4509,0.0864,0.9287,-1.050,-3.500,1.015,395,397,385,393,378,2025-05-27T22:32:11.858154
2086,-0.4470,0.0830,0.9287,-0.910,-3.500,1.085,414,417,379,392,401,2025-05-27T22:32:11.858154
2087,-0.4407,0.0810,0.9262,-0.700,-3.395,0.980,423,415,378,412,408,2025-05-27T22:32:11.858154
2088,-0.4343,0.0795,0.9252,-0.420,-2.975,0.875,364,412,373,397,402,2025-05-27T22:32:11.858154
2089,-0.4319,0.0820,0.9257,-0.315,-2.275,0.560,380,404,376,409,395,2025-05-27T22:32:11.858154
2090,-0.4338,0.0820,0.9287,-0.210,-1.680,0.035,403,415,381,403,387,2025-05-27T22:32:11.858154
2091,-0.4392,0.0869,0.9296,-0.315,-1.190,-0.455,341,391,337,398,403,2025-05-27T22:32:11.858154
2092,-0.4372,0.0864,0.9272,-0.210,-1.015,-0.490,390,402,369,386,390,2025-05-27T22:32:11.858154
2093,-0.4455,0.0849,0.9277,-0.175,-0.805,-0.420,419,430,375,396,350,2025-05-27T22:32:11.858154
2094,-0.4460,0.0859,0.9296,-0.070,-0.665,-0.315,409,408,342,395,389,2025-05-27T22:32:11.858154
2095,-0.4534,0.0834,0.9282,-0.035,-1.085,-0.280,406,348,353,387,391,2025-05-27T22:32:11.858154
2096,-0.4509,0.0825,0.9272,0.280,-1.435,-0.280,416,415,373,377,395,2025-05-27T22:32:11.959418
2097,-0.4548,0.0854,0.9257,0.455,-1.575,-0.315,395,397,364,342,400,2025-05-27T22:32:11.959418
2098,-0.4470,0.0844,0.9267,0.350,-1.330,-0.350,422,412,364,387,404,2025-05-27T22:32:11.959418
2099,-0.4460,0.0864,0.9262,0.280,-1.295,-0.560,396,383,371,340,401,2025-05-27T22:32:11.959418
2100,-0.4416,0.0834,0.9282,0.175,-1.190,-0.665,397,402,380,359,407,2025-05-27T22:32:11.959418
2101,-0.4402,0.0859,0.9292,0.070,-0.665,-0.630,407,426,384,377,409,2025-05-27T22:32:11.959418
2102,-0.4392,0.0869,0.9296,0.035,-0.350,-0.665,426,403,381,388,357,2025-05-27T22:32:11.959418
2103,-0.4446,0.0839,0.9267,-0.070,-0.210,-0.525,421,421,385,384,352,2025-05-27T22:32:11.959418
2104,-0.4514,0.0854,0.9262,0.035,-0.105,-0.490,371,400,379,393,387,2025-05-27T22:32:11.959418
2105,-0.4592,0.0859,0.9248,0.035,-0.350,-0.350,392,402,389,404,309,2025-05-27T22:32:11.959418
2106,-0.4577,0.0844,0.9277,0.070,-0.770,-0.315,398,395,390,391,348,2025-05-27T22:32:11.959418
2107,-0.4587,0.0830,0.9311,-0.070,-1.330,-0.175,344,380,357,389,390,2025-05-27T22:32:11.959418
2108,-0.4612,0.0830,0.9277,0.105,-1.820,-0.140,384,293,377,386,394,2025-05-27T22:32:11.959418
2109,-0.4568,0.0844,0.9292,0.035,-2.275,0.000,365,400,376,412,408,2025-05-27T22:32:11.959418
2110,-0.4543,0.0854,0.9243,0.105,-2.415,0.070,410,412,339,405,406,2025-05-27T22:32:11.959418
2111,-0.4519,0.0839,0.9213,0.070,-2.170,0.035,397,340,370,410,411,2025-05-27T22:32:11.959418
2112,-0.4509,0.0849,0.9204,0.175,-2.240,0.000,411,388,385,352,408,2025-05-27T22:32:11.959418
2113,-0.4519,0.0864,0.9218,0.105,-2.415,0.175,422,402,342,396,417,2025-05-27T22:32:11.959418
2114,-0.4514,0.0864,0.9204,0.035,-2.380,-0.035,408,359,357,403,390,2025-05-27T22:32:11.959418
2115,-0.4514,0.0883,0.9248,-0.105,-2.415,-0.105,398,336,376,361,393,2025-05-27T22:32:11.959418
2116,-0.4509,0.0849,0.9257,-0.245,-2.555,-0.105,389,408,357,373,401,2025-05-27T22:32:11.959418
2117,-0.4514,0.0854,0.9282,-0.280,-2.695,0.000,388,432,332,402,366,2025-05-27T22:32:12.115032
2118,-0.4524,0.0878,0.9243,-0.385,-2.765,0.140,407,414,363,389,386,2025-05-27T22:32:12.115032
2119,-0.4524,0.0854,0.9238,-0.525,-2.870,0.280,436,369,370,406,384,2025-05-27T22:32:12.115032
2120,-0.4558,0.0854,0.9248,-0.455,-3.045,0.245,434,415,375,411,381,2025-05-27T22:32:12.115032
2121,-0.4577,0.0839,0.9233,-0.280,-3.325,0.455,399,428,389,391,384,2025-05-27T22:32:12.115032
2122,-0.4538,0.0820,0.9223,-0.175,-3.605,0.525,380,429,376,404,354,2025-05-27T22:32:12.115032
2123,-0.4553,0.0810,0.9267,-0.035,-3.500,0.350,353,404,343,402,371,2025-05-27T22:32:12.115032
2124,-0.4514,0.0815,0.9267,-0.070,-3.360,0.315,329,299,363,345,371,2025-05-27T22:32:12.115032
2125,-0.4524,0.0825,0.9282,0.105,-2.940,0.175,402,386,343,373,387,2025-05-27T22:32:12.115032
2126,-0.4519,0.0839,0.9252,0.105,-2.940,0.175,405,386,361,402,359,2025-05-27T22:32:12.115032
2127,-0.4543,0.0834,0.9262,0.035,-3.220,0.315,389,401,362,395,377,2025-05-27T22:32:12.115032
2128,-0.4529,0.0839,0.9228,0.140,-3.745,0.210,385,342,334,404,343,2025-05-27T22:32:12.115032
2129,-0.4485,0.0859,0.9257,0.140,-3.465,0.070,333,372,331,389,383,2025-05-27T22:32:12.115032
2130,-0.4485,0.0834,0.9262,0.070,-3.010,0.000,389,388,320,411,379,2025-05-27T22:32:12.115032
2131,-0.4485,0.0844,0.9282,0.175,-3.115,0.035,415,402,358,401,409,2025-05-27T22:32:12.191416
2132,-0.4499,0.0849,0.9316,0.245,-3.080,0.105,415,414,367,390,421,2025-05-27T22:32:12.191416
2133,-0.4553,0.0849,0.9262,0.245,-3.115,-0.035,420,416,380,414,400,2025-05-27T22:32:12.191416
2134,-0.4553,0.0864,0.9257,0.140,-3.430,0.070,393,405,379,410,353,2025-05-27T22:32:12.191416
2135,-0.4548,0.0864,0.9277,0.280,-3.710,0.140,412,417,381,406,388,2025-05-27T22:32:12.191416
2136,-0.4504,0.0834,0.9287,0.245,-3.955,0.280,390,401,390,409,403,2025-05-27T22:32:12.191416
2137,-0.4460,0.0849,0.9287,0.140,-3.675,0.175,392,361,390,415,396,2025-05-27T22:32:12.281390
2138,-0.4431,0.0830,0.9316,0.000,-3.290,0.315,410,417,374,419,392,2025-05-27T22:32:12.281390
2139,-0.4451,0.0859,0.9282,-0.245,-2.905,0.455,425,421,378,405,387,2025-05-27T22:32:12.281390
2140,-0.4480,0.0878,0.9296,-0.210,-2.975,0.490,341,384,342,414,386,2025-05-27T22:32:12.281390
2141,-0.4499,0.0898,0.9296,-0.245,-3.290,0.840,413,410,338,413,400,2025-05-27T22:32:12.281390
2142,-0.4490,0.0927,0.9272,-0.245,-3.535,0.980,354,395,351,404,405,2025-05-27T22:32:12.281390
2143,-0.4490,0.0908,0.9252,-0.210,-3.570,1.015,410,412,360,410,412,2025-05-27T22:32:12.281390
2144,-0.4480,0.0883,0.9238,-0.070,-3.570,1.015,394,403,373,406,394,2025-05-27T22:32:12.281390
2145,-0.4465,0.0869,0.9277,-0.175,-3.465,0.805,391,415,371,388,408,2025-05-27T22:32:12.381736
2146,-0.4470,0.0839,0.9311,-0.420,-3.255,0.665,394,426,346,361,389,2025-05-27T22:32:12.381736
2147,-0.4475,0.0800,0.9331,-0.420,-3.220,0.525,407,422,322,389,394,2025-05-27T22:32:12.381736
2148,-0.4485,0.0810,0.9311,-0.455,-3.010,0.700,361,409,348,306,386,2025-05-27T22:32:12.381736
2149,-0.4480,0.0800,0.9282,-0.455,-2.905,0.875,292,403,353,318,413,2025-05-27T22:32:12.381736
2150,-0.4504,0.0761,0.9218,-0.350,-3.080,0.805,391,423,368,375,402,2025-05-27T22:32:12.381736
2151,-0.4455,0.0786,0.9204,-0.245,-3.150,0.560,418,437,384,389,416,2025-05-27T22:32:12.381736
2152,-0.4407,0.0820,0.9248,-0.315,-3.045,0.245,434,422,390,358,372,2025-05-27T22:32:12.381736
2153,-0.4358,0.0815,0.9228,-0.385,-2.485,-0.105,351,395,376,400,388,2025-05-27T22:32:12.381736
2154,-0.4407,0.0834,0.9252,-0.245,-1.960,-0.455,382,377,387,389,380,2025-05-27T22:32:12.597362
2155,-0.4441,0.0854,0.9267,-0.210,-1.295,-0.560,336,414,390,370,405,2025-05-27T22:32:12.597362
2156,-0.4509,0.0878,0.9306,-0.210,-1.155,-0.595,399,394,380,385,391,2025-05-27T22:32:12.597683
2157,-0.4577,0.0937,0.9306,-0.245,-1.295,-0.560,338,400,348,403,403,2025-05-27T22:32:12.597683
2158,-0.4587,0.0917,0.9335,-0.525,-1.785,-0.525,380,382,335,413,406,2025-05-27T22:32:12.597683
2159,-0.4592,0.0932,0.9335,-0.805,-2.380,-0.350,416,395,364,427,409,2025-05-27T22:32:12.597683
2160,-0.4553,0.0908,0.9335,-1.050,-2.940,-0.210,340,349,358,419,395,2025-05-27T22:32:12.597683
2161,-0.4534,0.0869,0.9277,-1.120,-3.360,-0.070,372,389,367,418,411,2025-05-27T22:32:12.597683
2162,-0.4465,0.0883,0.9272,-1.050,-3.710,0.315,397,405,376,419,395,2025-05-27T22:32:12.597683
2163,-0.4460,0.0893,0.9228,-1.085,-3.395,0.245,339,411,364,416,353,2025-05-27T22:32:12.597683
2164,-0.4421,0.0849,0.9223,-1.190,-2.975,0.035,384,382,383,418,393,2025-05-27T22:32:12.597683
2165,-0.4402,0.0878,0.9233,-1.050,-2.625,0.105,422,421,385,357,400,2025-05-27T22:32:12.697218
2166,-0.4392,0.0869,0.9233,-1.015,-2.520,-0.105,406,359,372,381,400,2025-05-27T22:32:12.698259
2167,-0.4407,0.0874,0.9218,-1.085,-1.890,-0.070,391,412,373,383,393,2025-05-27T22:32:12.698259
2168,-0.4441,0.0883,0.9267,-1.085,-1.645,0.140,415,419,386,404,394,2025-05-27T22:32:12.698259
2169,-0.4514,0.0849,0.9282,-0.770,-1.855,0.315,400,429,392,396,406,2025-05-27T22:32:12.698259
2170,-0.4529,0.0888,0.9311,-1.015,-2.030,0.490,429,420,380,393,412,2025-05-27T22:32:12.698259
2171,-0.4592,0.0844,0.9267,-0.875,-2.415,0.770,373,416,344,367,392,2025-05-27T22:32:12.698259
2172,-0.4568,0.0834,0.9292,-0.735,-3.185,0.770,412,358,360,340,392,2025-05-27T22:32:12.698259
2173,-0.4543,0.0805,0.9252,-0.735,-3.605,0.875,356,384,374,387,389,2025-05-27T22:32:12.698259
2174,-0.4514,0.0771,0.9277,-0.735,-3.570,0.735,400,415,385,341,377,2025-05-27T22:32:12.698259
2175,-0.4504,0.0752,0.9262,-0.560,-3.570,0.770,338,364,342,374,404,2025-05-27T22:32:12.698259
2176,-0.4475,0.0732,0.9252,-0.385,-3.535,0.735,400,423,373,405,406,2025-05-27T22:32:12.698259
2177,-0.4441,0.0732,0.9287,-0.070,-3.010,0.490,378,436,392,414,412,2025-05-27T22:32:12.698259
2178,-0.4465,0.0742,0.9321,-0.105,-2.695,0.350,378,431,389,399,355,2025-05-27T22:32:12.699225
2179,-0.4480,0.0752,0.9340,-0.245,-2.730,0.175,389,428,383,385,368,2025-05-27T22:32:12.843305
2180,-0.4499,0.0805,0.9321,-0.350,-2.730,-0.035,400,422,376,399,370,2025-05-27T22:32:12.843305
2181,-0.4504,0.0800,0.9301,-0.140,-2.870,-0.140,428,415,367,345,336,2025-05-27T22:32:12.843305
2182,-0.4475,0.0820,0.9267,-0.035,-2.975,-0.385,373,401,372,356,377,2025-05-27T22:32:12.843305
2183,-0.4509,0.0815,0.9287,-0.210,-2.660,-0.420,413,420,306,377,400,2025-05-27T22:32:12.843305
2184,-0.4573,0.0810,0.9321,-0.420,-2.835,-0.280,299,410,346,410,399,2025-05-27T22:32:12.843305
2185,-0.4558,0.0791,0.9282,-0.350,-3.290,-0.140,379,418,372,353,398,2025-05-27T22:32:12.843305
2186,-0.4514,0.0795,0.9277,-0.350,-3.605,-0.245,370,382,376,352,416,2025-05-27T22:32:12.843305
2187,-0.4490,0.0830,0.9272,-0.350,-3.535,-0.070,408,373,372,400,321,2025-05-27T22:32:12.843305
2188,-0.4494,0.0810,0.9248,-0.245,-3.710,-0.245,428,348,343,400,379,2025-05-27T22:32:13.007694
2189,-0.4446,0.0820,0.9282,-0.350,-3.710,-0.315,340,360,338,395,395,2025-05-27T22:32:13.010919
2190,-0.4421,0.0805,0.9292,-0.630,-3.325,-0.455,392,296,356,354,391,2025-05-27T22:32:13.010919
2191,-0.4441,0.0810,0.9282,-0.525,-3.080,-0.560,387,402,382,388,359,2025-05-27T22:32:13.010919
2192,-0.4451,0.0805,0.9282,-0.420,-2.975,-0.700,412,358,379,390,376,2025-05-27T22:32:13.010919
2193,-0.4485,0.0786,0.9282,-0.280,-2.695,-0.595,406,391,382,405,399,2025-05-27T22:32:13.010919
2194,-0.4475,0.0786,0.9267,0.105,-2.800,-0.490,422,413,390,424,408,2025-05-27T22:32:13.010919
2195,-0.4514,0.0795,0.9311,0.175,-2.975,-0.420,376,432,364,374,411,2025-05-27T22:32:13.010919
2196,-0.4460,0.0810,0.9306,0.210,-3.080,-0.420,332,306,329,390,405,2025-05-27T22:32:13.010919
2197,-0.4490,0.0805,0.9262,0.035,-3.185,-0.490,373,393,364,397,396,2025-05-27T22:32:13.010919
2198,-0.4460,0.0800,0.9262,0.140,-3.080,-0.420,372,298,378,363,348,2025-05-27T22:32:13.010919
2199,-0.4465,0.0805,0.9272,-0.070,-2.765,-0.315,404,322,342,363,390,2025-05-27T22:32:13.010919
2200,-0.4446,0.0810,0.9257,0.000,-2.625,-0.315,413,394,331,387,412,2025-05-27T22:32:13.010919
2201,-0.4446,0.0839,0.9257,0.000,-2.625,-0.210,438,431,361,406,364,2025-05-27T22:32:13.010919
2202,-0.4446,0.0839,0.9311,-0.105,-2.450,-0.280,390,401,371,416,341,2025-05-27T22:32:13.010919
2203,-0.4455,0.0839,0.9277,-0.210,-2.205,-0.070,386,360,335,394,290,2025-05-27T22:32:13.010919
2204,-0.4441,0.0859,0.9292,-0.315,-2.345,0.175,398,415,316,346,308,2025-05-27T22:32:13.010919
2205,-0.4470,0.0849,0.9287,-0.245,-2.415,0.735,343,424,348,349,371,2025-05-27T22:32:13.010919
2206,-0.4465,0.0820,0.9272,-0.245,-2.380,0.840,400,309,368,406,385,2025-05-27T22:32:13.273170
2207,-0.4509,0.0825,0.9282,-0.210,-2.415,1.085,382,383,381,423,384,2025-05-27T22:32:13.273170
2208,-0.4529,0.0810,0.9296,-0.140,-2.765,1.155,386,423,369,411,341,2025-05-27T22:32:13.273170
2209,-0.4509,0.0771,0.9272,0.035,-3.080,1.330,399,407,362,406,383,2025-05-27T22:32:13.273170
2210,-0.4504,0.0786,0.9296,8.925,-3.045,1.400,337,417,371,394,352,2025-05-27T22:32:13.273170
2211,-0.4519,0.0747,0.9301,0.035,-3.115,1.400,391,397,369,395,380,2025-05-27T22:32:13.273170
2212,-0.4490,0.0752,0.9287,0.245,-3.185,1.400,377,405,367,402,390,2025-05-27T22:32:13.273170
2213,-0.4490,0.0761,0.9301,0.245,-3.080,1.190,415,406,374,417,388,2025-05-27T22:32:13.273170
2214,-0.4485,0.0732,0.9287,0.315,-3.115,0.945,400,428,386,417,397,2025-05-27T22:32:13.273170
2215,-0.4446,0.0742,0.9301,0.245,-3.255,0.805,406,425,384,356,402,2025-05-27T22:32:13.273170
2216,-0.4441,0.0771,0.9306,0.280,-3.150,0.700,405,436,339,375,399,2025-05-27T22:32:13.273170
2217,-0.4460,0.0737,0.9301,0.315,-2.660,0.560,414,380,289,386,396,2025-05-27T22:32:13.273170
