SeqNum,AccX,AccY,AccZ,GyroX,GyroY,GyroZ,Flex,Force1,Force2,Force3,Force4,TimestampReception
23276,0.0015,-0.0215,1.0355,-38.570,-10.780,-23.660,357,372,261,345,302,2025-05-23T21:54:35.254374
23277,-1.0199,0.0834,-0.5017,6.300,77.420,-18.830,461,445,300,416,388,2025-05-23T21:54:35.254463
23278,-1.0248,0.0898,-0.4768,17.010,80.920,-15.820,425,403,343,418,398,2025-05-23T21:54:35.254483
23279,-1.0516,0.1327,-0.4065,18.200,78.050,-12.110,424,374,369,416,399,2025-05-23T21:54:35.254496
23280,-1.0155,0.1508,-0.3655,21.980,71.050,-14.000,417,333,378,424,348,2025-05-23T21:54:35.254505
23281,-0.9614,0.1932,-0.3460,21.280,66.220,-15.890,344,343,384,410,388,2025-05-23T21:54:35.413374
23282,-0.9448,0.1845,-0.3899,6.930,74.060,-14.980,380,404,393,407,386,2025-05-23T21:54:35.413407
23283,-0.9170,0.1640,-0.4460,1.540,98.420,-11.970,415,403,392,401,393,2025-05-23T21:54:35.413416
23284,-0.8603,0.1440,-0.5236,-3.710,129.710,-9.240,412,373,380,354,352,2025-05-23T21:54:35.413423
23285,-0.9179,0.1391,-0.5807,-9.590,141.890,-7.000,357,338,378,378,396,2025-05-23T21:54:35.413429
23286,-0.9218,0.1493,-0.6134,-13.720,153.020,-6.230,398,408,385,394,391,2025-05-23T21:54:35.413436
23287,-0.9667,0.1337,-0.6412,-13.930,149.660,-4.690,419,423,393,403,385,2025-05-23T21:54:35.413443
23288,-0.9575,0.1371,-0.6364,-4.550,140.560,-5.740,402,429,384,405,384,2025-05-23T21:54:35.413458
23289,-0.9716,0.1381,-0.6061,-11.620,118.160,-2.520,351,418,395,387,392,2025-05-23T21:54:35.413465
23290,-0.8023,0.1474,-0.6237,-10.710,111.230,2.450,385,416,398,348,399,2025-05-23T21:54:35.413471
23291,-0.7296,0.1640,-0.6500,-23.450,119.770,6.650,402,435,377,393,400,2025-05-23T21:54:35.413477
23292,-0.7374,0.1493,-0.6617,-16.030,138.950,6.930,349,424,372,390,362,2025-05-23T21:54:35.413483
23293,-0.7852,0.1679,-0.6690,-19.110,143.710,7.700,396,366,388,387,337,2025-05-23T21:54:35.413492
23294,-0.8267,0.1440,-0.6910,-19.040,137.340,8.330,383,414,384,368,371,2025-05-23T21:54:35.462941
23295,-0.8564,0.1337,-0.7281,-26.880,116.690,10.080,393,407,350,387,399,2025-05-23T21:54:35.463001
23296,-0.8506,0.1459,-0.6993,-25.480,86.380,8.050,437,423,380,416,406,2025-05-23T21:54:35.463013
23297,-0.7945,0.1698,-0.7261,-30.380,68.320,2.380,440,441,384,413,412,2025-05-23T21:54:35.463023
23298,-0.7603,0.1879,-0.6617,-28.490,33.530,-0.490,414,390,357,420,357,2025-05-23T21:54:35.518304
23299,-0.6949,0.2279,-0.6588,-34.370,12.810,-7.210,408,422,387,413,378,2025-05-23T21:54:35.518354
23300,-0.6354,0.2059,-0.6578,-46.550,5.880,-13.090,431,416,384,406,381,2025-05-23T21:54:35.518368
23301,-0.6329,0.2011,-0.6617,-47.530,5.320,-17.220,406,361,384,398,405,2025-05-23T21:54:35.518380
23302,-0.7198,0.1771,-0.6295,-41.160,-7.140,-20.090,427,405,384,412,412,2025-05-23T21:54:35.626079
23303,-0.8032,0.1396,-0.6271,-27.860,-38.360,-24.640,395,418,389,353,405,2025-05-23T21:54:35.626126
23304,-0.8062,0.1322,-0.5627,-14.980,-77.070,-31.710,406,403,377,383,374,2025-05-23T21:54:35.626138
23305,-0.7315,0.1591,-0.4724,-10.080,-118.370,-40.180,334,378,383,380,390,2025-05-23T21:54:35.626148
23306,-0.6749,0.1791,-0.4446,-10.430,-128.450,-47.110,282,333,382,380,364,2025-05-23T21:54:35.626158
23307,-0.6564,0.1713,-0.4021,-6.300,-115.010,-53.620,391,412,344,384,390,2025-05-23T21:54:35.626167
23308,-0.6647,0.1508,-0.3855,-3.850,-103.390,-56.350,411,418,366,404,403,2025-05-23T21:54:35.626177
23309,-0.7276,0.1283,-0.3762,7.980,-106.470,-53.760,406,430,379,400,390,2025-05-23T21:54:35.626268
23310,-0.8433,0.0986,-0.3582,18.340,-134.470,-49.350,412,421,381,407,404,2025-05-23T21:54:35.626517
23311,-0.9867,0.0600,-0.3060,26.250,-169.750,-50.890,420,433,389,409,388,2025-05-23T21:54:35.822734
23312,-1.0014,0.0878,-0.2786,44.100,-206.500,-59.990,369,351,392,372,404,2025-05-23T21:54:35.822784
23313,-1.0106,0.1015,-0.2513,49.000,-241.780,-66.080,417,374,393,335,395,2025-05-23T21:54:35.822796
23314,-1.0487,0.1210,-0.2455,47.180,-282.520,-69.510,404,417,391,369,409,2025-05-23T21:54:35.822807
23315,-1.0770,0.1308,-0.2206,49.000,-323.330,-69.930,424,403,388,379,398,2025-05-23T21:54:35.822817
23316,-1.0746,0.1244,-0.2274,41.860,-361.410,-70.840,362,300,391,398,355,2025-05-23T21:54:35.822827
23317,-0.9287,0.1327,-0.2245,34.860,-375.130,-75.460,327,388,400,391,380,2025-05-23T21:54:35.822853
23318,-0.7964,0.1181,-0.1820,23.450,-366.660,-78.190,334,402,398,409,392,2025-05-23T21:54:35.822859
23319,-0.7398,0.0878,-0.1440,15.750,-320.460,-79.870,401,422,358,399,388,2025-05-23T21:54:35.822865
23320,-0.7154,0.0673,-0.0786,10.080,-239.680,-80.780,301,411,334,417,386,2025-05-23T21:54:35.822870
23321,-0.7720,0.0542,-0.0015,-0.420,-158.620,-76.370,358,420,359,416,312,2025-05-23T21:54:35.822879
23322,-0.8721,0.0600,0.0283,-11.550,-94.430,-63.350,417,423,359,410,370,2025-05-23T21:54:35.822884
23323,-0.9984,0.0200,0.0561,-19.600,-58.030,-51.730,384,426,373,391,394,2025-05-23T21:54:35.822889
23324,-1.0975,-0.0400,0.0590,-36.610,-56.140,-47.880,430,424,386,399,411,2025-05-23T21:54:35.822914
23325,-1.1165,-0.0820,0.0508,-46.900,-54.390,-47.040,406,427,376,399,393,2025-05-23T21:54:35.822922
23326,-1.1336,-0.1220,0.0405,-48.160,-47.600,-46.620,412,433,374,417,391,2025-05-23T21:54:35.822927
23327,-1.1619,-0.1157,0.0405,-46.410,-35.630,-45.640,417,424,386,406,390,2025-05-23T21:54:35.822932
23328,-1.1980,-0.1469,0.0303,-35.490,-23.870,-39.340,361,422,382,400,364,2025-05-23T21:54:36.039155
23329,-1.2361,-0.1674,0.0307,-26.880,-18.690,-28.070,390,428,396,421,407,2025-05-23T21:54:36.039206
23330,-1.2371,-0.1571,0.0390,-19.040,-24.150,-15.190,417,447,389,431,363,2025-05-23T21:54:36.039218
23331,-1.2029,-0.1342,0.0566,-16.800,-25.970,-5.460,405,433,371,404,298,2025-05-23T21:54:36.039229
23332,-1.1692,-0.1113,0.0834,-13.650,-15.050,2.450,398,416,384,394,366,2025-05-23T21:54:36.039251
23333,-1.1517,-0.0825,0.1161,-14.490,0.070,9.170,387,413,369,406,380,2025-05-23T21:54:36.039263
23334,-1.1302,-0.0605,0.1322,-14.210,14.770,16.240,420,362,385,398,356,2025-05-23T21:54:36.039274
23335,-1.1263,-0.0342,0.1410,-13.160,20.650,21.420,285,383,358,370,327,2025-05-23T21:54:36.039283
23336,-1.1531,-0.0288,0.1366,-12.530,17.850,27.020,367,382,366,396,382,2025-05-23T21:54:36.039292
23337,-1.1897,-0.0273,0.1283,-9.170,12.460,31.500,381,412,377,405,389,2025-05-23T21:54:36.039301
23338,-1.1780,0.0000,0.1464,-5.460,10.080,31.360,407,410,336,356,346,2025-05-23T21:54:36.039310
23339,-1.1551,0.0107,0.1557,-5.390,8.750,29.190,406,407,345,388,338,2025-05-23T21:54:36.039323
23340,-1.1473,0.0220,0.1566,-5.530,11.830,28.560,389,397,366,396,341,2025-05-23T21:54:36.039332
23341,-1.1610,0.0029,0.1469,-7.420,15.260,29.680,410,402,368,396,371,2025-05-23T21:54:36.039342
23342,-1.1585,-0.0273,0.1249,-9.800,19.670,31.920,394,370,337,395,378,2025-05-23T21:54:36.039381
23343,-1.2093,-0.0634,0.0854,-7.630,20.790,38.570,409,406,354,353,401,2025-05-23T21:54:36.039390
23344,-1.2429,-0.0854,0.0849,-1.960,15.890,43.890,426,419,366,384,367,2025-05-23T21:54:36.039399
23345,-1.2273,-0.0781,0.1000,3.360,9.800,45.850,397,345,364,383,370,2025-05-23T21:54:36.231644
23346,-1.1756,-0.0434,0.1083,2.870,2.940,43.540,403,388,350,363,390,2025-05-23T21:54:36.231707
23347,-1.1258,-0.0185,0.0991,-2.310,-4.410,39.340,405,422,361,375,392,2025-05-23T21:54:36.231720
23348,-1.0746,-0.0005,0.0786,-6.300,-9.030,34.720,418,414,383,384,367,2025-05-23T21:54:36.231731
23349,-1.0502,-0.0127,0.0371,-11.410,-9.100,30.170,416,401,391,393,398,2025-05-23T21:54:36.231741
23350,-1.0575,-0.0434,-0.0239,-10.570,-7.280,28.280,356,392,392,363,350,2025-05-23T21:54:36.231756
23351,-1.0780,-0.0649,-0.0727,-4.620,-9.870,28.420,334,410,384,377,382,2025-05-23T21:54:36.231766
23352,-1.1219,-0.0693,-0.0732,4.480,-14.700,28.770,383,423,374,384,367,2025-05-23T21:54:36.231776
23353,-1.1317,-0.0600,-0.0561,9.800,-21.070,26.460,394,406,373,392,336,2025-05-23T21:54:36.231792
23354,-1.1492,-0.0307,-0.0312,11.480,-22.470,20.370,412,438,374,368,374,2025-05-23T21:54:36.231801
23355,-1.1888,-0.0327,-0.0107,5.320,-23.170,15.890,412,403,341,382,345,2025-05-23T21:54:36.231811
23356,-1.2337,-0.0610,-0.0264,-0.070,-25.690,14.350,395,394,369,412,386,2025-05-23T21:54:36.231820
23357,-1.2371,-0.1127,-0.0425,-5.810,-33.040,16.310,393,410,387,404,384,2025-05-23T21:54:36.231829
23358,-1.2400,-0.1747,-0.0830,-4.900,-38.010,21.560,425,426,392,353,391,2025-05-23T21:54:36.231837
23359,-1.2478,-0.2225,-0.0908,2.800,-37.730,26.950,431,429,406,406,435,2025-05-23T21:54:36.233146
23360,-1.2454,-0.2430,-0.0669,13.090,-32.830,27.860,410,440,410,403,399,2025-05-23T21:54:36.233183
23361,-1.2420,-0.2357,-0.0307,23.100,-21.980,25.270,415,410,386,410,394,2025-05-23T21:54:36.233194
23362,-1.2434,-0.2494,-0.0195,23.870,-11.690,19.810,412,406,315,414,416,2025-05-23T21:54:36.436855
23363,-1.2434,-0.2572,-0.0171,21.350,-3.150,15.960,359,415,314,361,403,2025-05-23T21:54:36.436931
23364,-1.2639,-0.2660,-0.0224,18.200,-1.400,17.360,399,402,354,401,409,2025-05-23T21:54:36.436947
23365,-1.2815,-0.2889,-0.0390,17.430,-1.050,20.930,417,413,366,358,392,2025-05-23T21:54:36.436960
23366,-1.2644,-0.3055,-0.0542,21.000,-0.280,24.150,395,398,378,381,384,2025-05-23T21:54:36.436972
23367,-1.2439,-0.3099,-0.0420,25.130,0.700,24.570,425,414,392,387,395,2025-05-23T21:54:36.436985
23368,-1.2180,-0.2967,-0.0303,28.630,3.290,21.000,411,409,381,392,409,2025-05-23T21:54:36.436997
23369,-1.2000,-0.2904,-0.0215,29.540,11.340,14.770,417,420,374,368,370,2025-05-23T21:54:36.437012
23370,-1.1775,-0.2826,-0.0146,28.140,23.730,7.770,397,404,388,400,386,2025-05-23T21:54:36.437023
23371,-1.1507,-0.2655,-0.0034,25.060,39.130,1.960,398,420,387,409,400,2025-05-23T21:54:36.437034
23372,-1.1522,-0.2630,-0.0142,19.670,49.140,-0.560,301,382,382,418,414,2025-05-23T21:54:36.437045
23373,-1.1634,-0.2699,-0.0346,17.290,56.420,-0.630,398,427,384,356,416,2025-05-23T21:54:36.437055
23374,-1.1434,-0.2611,-0.0449,17.500,58.310,-0.280,422,377,386,352,412,2025-05-23T21:54:36.437070
23375,-1.1151,-0.2391,-0.0429,19.950,65.520,-2.730,380,399,380,405,399,2025-05-23T21:54:36.437080
23376,-1.1185,-0.1903,-0.0195,20.230,74.550,-5.810,410,418,381,416,407,2025-05-23T21:54:36.437132
23377,-1.1771,-0.1479,-0.0166,18.830,78.960,-6.930,391,402,375,356,417,2025-05-23T21:54:36.437143
23378,-1.2039,-0.1171,-0.0254,16.240,79.240,-6.510,421,417,370,380,321,2025-05-23T21:54:36.437153
23379,-1.1927,-0.0952,-0.0517,7.980,68.180,-5.110,405,414,381,371,354,2025-05-23T21:54:36.486175
23380,-1.1619,-0.0869,-0.0942,2.940,56.700,-0.630,348,401,368,357,384,2025-05-23T21:54:36.486231
23381,-1.1634,-0.0791,-0.1225,5.040,56.630,4.900,406,401,333,391,400,2025-05-23T21:54:36.486269
23382,-1.1917,-0.0634,-0.1566,11.410,65.100,13.090,368,414,324,391,399,2025-05-23T21:54:36.486287
23383,-1.2517,-0.0356,-0.1527,20.300,73.710,18.270,398,355,350,418,412,2025-05-23T21:54:36.537856
23384,-1.3366,-0.0283,-0.1523,27.090,76.230,21.700,420,350,378,414,377,2025-05-23T21:54:36.537904
23385,-1.4318,0.0205,-0.1347,29.260,65.310,23.870,408,416,391,392,401,2025-05-23T21:54:36.537919
23386,-1.4103,0.0634,-0.1240,22.260,50.890,29.330,412,426,379,397,405,2025-05-23T21:54:36.537930
23387,-1.3766,0.0956,-0.1523,10.990,43.680,40.950,387,400,389,404,405,2025-05-23T21:54:36.642372
23388,-1.3196,0.0952,-0.1801,3.990,44.170,57.330,418,418,377,395,415,2025-05-23T21:54:36.642422
23389,-1.2420,0.1127,-0.1937,-0.490,54.040,73.080,418,420,347,389,395,2025-05-23T21:54:36.642451
23390,-1.2459,0.0952,-0.2216,-0.210,60.830,84.350,410,413,351,403,399,2025-05-23T21:54:36.642462
23391,-1.2049,0.1327,-0.1996,2.870,61.460,93.310,409,412,325,404,396,2025-05-23T21:54:36.642472
23392,-1.1214,0.1806,-0.1537,1.330,51.310,102.830,368,416,353,348,387,2025-05-23T21:54:36.642483
23393,-0.9887,0.2225,-0.1166,-4.830,38.080,108.360,409,416,375,385,391,2025-05-23T21:54:36.642494
23394,-0.8779,0.2362,-0.0903,-11.480,25.200,112.000,396,373,371,388,359,2025-05-23T21:54:36.642505
23395,-0.7696,0.2430,-0.0664,-19.600,13.020,116.410,400,403,368,387,333,2025-05-23T21:54:36.642515
23396,-0.7178,0.2133,-0.0791,-20.580,8.120,118.510,390,435,377,387,365,2025-05-23T21:54:36.847796
23397,-0.6564,0.2035,-0.0854,-17.570,3.500,117.670,401,430,389,406,390,2025-05-23T21:54:36.847849
23398,-0.6022,0.2206,-0.0883,-10.990,-2.170,117.040,408,434,384,399,402,2025-05-23T21:54:36.847864
23399,-0.5529,0.2513,-0.0834,-5.250,-7.210,114.030,420,428,377,395,390,2025-05-23T21:54:36.847877
23400,-0.4851,0.3148,-0.0864,-1.260,-7.210,107.520,358,307,377,395,402,2025-05-23T21:54:36.847889
23401,-0.4348,0.3845,-0.1035,3.290,0.840,99.190,404,378,389,348,398,2025-05-23T21:54:36.847899
23402,-0.4485,0.3865,-0.1444,3.220,10.430,92.610,432,295,374,333,405,2025-05-23T21:54:36.847910
23403,-0.4734,0.3992,-0.1952,5.460,7.910,88.480,409,393,374,344,370,2025-05-23T21:54:36.847937
23404,-0.4631,0.4270,-0.2142,2.170,1.890,86.170,424,427,389,381,393,2025-05-23T21:54:36.847947
23405,-0.4343,0.4353,-0.2533,0.420,-5.320,82.670,399,410,360,361,347,2025-05-23T21:54:36.847961
23406,-0.4636,0.4207,-0.3074,1.960,-7.840,77.280,417,430,363,364,375,2025-05-23T21:54:36.847971
23407,-0.4387,0.4656,-0.3172,7.140,-6.090,71.680,418,409,375,377,388,2025-05-23T21:54:36.847981
23408,-0.4470,0.5007,-0.3357,8.890,7.210,67.130,409,398,378,391,392,2025-05-23T21:54:36.847990
23409,-0.5290,0.5251,-0.3440,0.770,25.270,61.040,385,418,384,399,384,2025-05-23T21:54:36.847999
23410,-0.6368,0.5568,-0.3592,-10.570,40.040,58.380,369,428,388,414,404,2025-05-23T21:54:36.848049
23411,-0.7818,0.5329,-0.4138,-18.900,43.820,58.240,372,378,381,419,407,2025-05-23T21:54:36.848060
23412,-0.8530,0.5275,-0.4451,-29.750,32.550,62.230,381,404,381,397,414,2025-05-23T21:54:36.848070
23413,-0.9067,0.5007,-0.4929,-34.860,14.840,67.060,415,410,381,405,398,2025-05-23T21:54:37.052348
23414,-0.8843,0.5246,-0.4680,-36.330,-1.750,69.790,405,399,386,415,380,2025-05-23T21:54:37.052411
23415,-0.8218,0.5646,-0.4246,-41.160,-4.130,72.100,375,396,397,415,387,2025-05-23T21:54:37.052424
23416,-0.7647,0.6115,-0.3884,-51.100,1.820,74.620,333,385,395,399,386,2025-05-23T21:54:37.052435
23417,-0.7466,0.6466,-0.3479,-62.160,11.760,79.170,378,400,384,415,389,2025-05-23T21:54:37.052452
23418,-0.7969,0.5836,-0.3616,-73.430,8.470,85.260,337,398,382,390,385,2025-05-23T21:54:37.052462
23419,-0.8013,0.5710,-0.3333,-77.980,0.700,93.590,374,425,381,399,391,2025-05-23T21:54:37.052471
23420,-0.7969,0.5646,-0.2835,-79.240,-15.400,100.590,403,400,390,358,404,2025-05-23T21:54:37.052482
23421,-0.7310,0.5919,-0.2435,-81.900,-26.180,107.520,392,303,386,336,373,2025-05-23T21:54:37.052492
23422,-0.6359,0.6578,-0.2211,-85.610,-16.030,115.010,391,386,393,366,407,2025-05-23T21:54:37.052501
23423,-0.5797,0.6881,-0.1781,-89.670,-1.680,122.780,416,398,398,392,410,2025-05-23T21:54:37.052510
23424,-0.5915,0.6700,-0.2011,-85.820,23.450,122.920,352,383,398,394,352,2025-05-23T21:54:37.052525
23425,-0.5919,0.6852,-0.2035,-84.000,25.200,125.160,338,418,385,400,332,2025-05-23T21:54:37.052620
23426,-0.6159,0.6573,-0.2059,-83.300,17.710,126.210,376,434,389,408,387,2025-05-23T21:54:37.052632
23427,-0.5812,0.6852,-0.1937,-87.080,1.190,127.540,416,434,383,396,391,2025-05-23T21:54:37.052675
23428,-0.4953,0.7056,-0.1864,-89.950,-8.960,128.590,411,418,391,387,400,2025-05-23T21:54:37.052685
23429,-0.3997,0.6930,-0.1747,-85.680,-6.370,125.860,353,425,392,398,398,2025-05-23T21:54:37.052695
23430,-0.3250,0.6637,-0.1679,-78.890,4.970,118.650,355,403,388,392,354,2025-05-23T21:54:37.276571
23431,-0.3616,0.6149,-0.1815,-63.420,18.690,111.370,394,430,397,377,374,2025-05-23T21:54:37.276627
23432,-0.3406,0.6651,-0.1249,-52.920,21.560,107.450,400,423,391,343,377,2025-05-23T21:54:37.276639
23433,-0.2835,0.7266,-0.0620,-55.720,18.480,109.550,409,407,373,374,406,2025-05-23T21:54:37.276654
23434,-0.2894,0.7364,-0.0488,-62.440,14.980,112.350,377,428,310,388,405,2025-05-23T21:54:37.276663
23435,-0.2279,0.7798,-0.0303,-63.000,18.410,110.040,337,424,352,407,412,2025-05-23T21:54:37.276672
23436,-0.2015,0.7950,-0.0415,-52.080,26.390,105.350,390,425,369,402,400,2025-05-23T21:54:37.276684
23437,-0.1732,0.8252,-0.0498,-39.480,28.840,99.120,372,416,370,353,385,2025-05-23T21:54:37.276693
23438,-0.1161,0.8506,-0.0366,-26.670,29.890,91.630,408,429,370,380,384,2025-05-23T21:54:37.276705
23439,-0.1303,0.8169,-0.0376,-17.710,29.050,82.950,415,421,363,385,374,2025-05-23T21:54:37.276713
23440,-0.1923,0.7998,-0.0151,-12.040,24.080,77.140,417,421,377,387,383,2025-05-23T21:54:37.276722
23441,-0.2069,0.8130,0.0307,-17.360,13.090,71.540,415,431,385,404,384,2025-05-23T21:54:37.276730
23442,-0.1313,0.8228,0.0278,-29.050,0.000,67.200,405,426,383,411,342,2025-05-23T21:54:37.276892
23443,-0.1113,0.7788,0.0210,-34.510,-4.480,61.530,426,436,348,397,369,2025-05-23T21:54:37.276902
23444,-0.1064,0.7501,0.0083,-29.750,-5.740,51.940,419,408,358,401,333,2025-05-23T21:54:37.276937
23445,-0.0756,0.7642,0.0273,-16.170,0.140,45.920,394,305,359,386,389,2025-05-23T21:54:37.276950
23446,-0.0922,0.7759,0.0210,-4.130,3.780,36.050,402,402,373,382,410,2025-05-23T21:54:37.276958
23447,-0.0932,0.8145,0.0151,2.030,1.610,26.950,378,356,385,399,397,2025-05-23T21:54:37.276966
23448,-0.0971,0.8457,0.0093,4.620,-6.090,21.070,391,412,392,350,390,2025-05-23T21:54:37.328642
23449,-0.1200,0.8535,-0.0078,2.310,-18.830,15.680,415,404,394,393,389,2025-05-23T21:54:37.328687
23450,-0.0893,0.8965,-0.0317,-2.240,-26.740,10.500,419,420,386,402,357,2025-05-23T21:54:37.328699
23451,-0.0532,0.9335,-0.0498,-8.890,-30.450,5.810,418,431,383,386,390,2025-05-23T21:54:37.328708
23452,-0.0703,0.9682,-0.0786,-8.540,-28.630,-2.520,416,418,385,413,397,2025-05-23T21:54:37.328717
23453,-0.0649,1.0287,-0.0742,-5.740,-24.710,-7.070,340,395,382,420,356,2025-05-23T21:54:37.461922
23454,-0.1435,1.0551,-0.0742,-2.800,-22.750,-9.450,380,356,381,415,389,2025-05-23T21:54:37.462204
23455,-0.2020,1.0965,-0.0307,-2.520,-23.590,-10.290,403,410,375,397,383,2025-05-23T21:54:37.462216
23456,-0.2264,1.1043,0.0161,-5.040,-27.160,-9.310,402,423,378,411,384,2025-05-23T21:54:37.462226
23457,-0.2538,1.0770,0.0229,-8.680,-28.700,-8.050,402,354,374,398,399,2025-05-23T21:54:37.462236
23458,-0.2396,1.0551,0.0351,-9.660,-24.500,-6.720,405,393,370,353,391,2025-05-23T21:54:37.462245
23459,-0.2386,1.0199,0.0590,-10.010,-15.890,-5.040,409,411,383,386,398,2025-05-23T21:54:37.462259
23460,-0.2625,1.0038,0.0937,-8.260,-7.770,-5.390,423,428,344,359,406,2025-05-23T21:54:37.462268
23461,-0.3050,0.9540,0.1215,-5.670,-1.260,-4.830,427,412,377,378,401,2025-05-23T21:54:37.462276
23462,-0.4109,0.9379,0.1596,-1.330,-5.250,-3.990,404,406,379,381,398,2025-05-23T21:54:37.462284
23463,-0.4455,0.9365,0.1913,-0.280,-14.000,-0.560,420,407,389,396,356,2025-05-23T21:54:37.462292
23464,-0.4377,0.9321,0.2162,-2.030,-21.560,3.080,418,421,382,415,394,2025-05-23T21:54:37.509343
23465,-0.4109,0.9194,0.2069,-5.950,-19.950,6.370,395,414,393,408,395,2025-05-23T21:54:37.509411
23466,-0.3855,0.9101,0.1903,-6.440,-13.370,8.400,395,394,379,414,359,2025-05-23T21:54:37.509425
23467,-0.3518,0.9067,0.1850,-2.520,-3.500,7.280,366,412,377,394,383,2025-05-23T21:54:37.509440
23468,-0.3836,0.8969,0.1669,2.940,2.030,2.660,415,351,366,364,391,2025-05-23T21:54:37.561456
23469,-0.4172,0.9043,0.1571,8.820,-0.350,-1.330,417,329,378,402,411,2025-05-23T21:54:37.561498
23470,-0.4407,0.9116,0.1484,12.390,-4.760,-2.240,400,338,373,397,406,2025-05-23T21:54:37.561509
23471,-0.4504,0.9165,0.1322,13.860,-8.470,-2.730,407,396,354,398,402,2025-05-23T21:54:37.561518
23472,-0.4412,0.9262,0.1235,13.090,-7.630,-3.220,403,336,374,405,386,2025-05-23T21:54:37.561527
23473,-0.4358,0.9179,0.1147,10.430,-6.230,-3.290,395,406,375,405,391,2025-05-23T21:54:37.667682
23474,-0.4543,0.9023,0.1142,7.420,-6.790,-4.550,416,418,371,349,379,2025-05-23T21:54:37.667729
23475,-0.4724,0.8930,0.2489,4.830,-11.620,-5.320,419,404,370,379,381,2025-05-23T21:54:37.667741
23476,-0.4880,0.8764,0.1371,2.380,-18.690,-5.040,390,406,383,379,386,2025-05-23T21:54:37.689360
23477,-0.4904,0.8696,0.1469,0.980,-22.050,-5.180,418,405,380,410,402,2025-05-23T21:54:37.689396
23478,-0.4563,0.8789,0.1474,-0.630,-23.380,-4.620,398,427,390,401,384,2025-05-23T21:54:37.689407
23479,-0.4333,0.8764,0.1391,-1.190,-19.040,-3.080,423,427,389,407,402,2025-05-23T21:54:37.689416
23480,-0.4168,0.8789,0.1288,-0.280,-13.160,-2.310,406,438,393,406,397,2025-05-23T21:54:37.689424
23481,-0.3772,0.8901,0.1303,0.000,-10.290,-3.430,339,401,385,348,395,2025-05-23T21:54:37.717259
23482,-0.3440,0.9013,0.1279,0.490,-8.680,-5.110,407,425,389,387,408,2025-05-23T21:54:37.717306
23483,-0.3528,0.9077,0.1293,-0.140,-7.910,-7.420,349,423,392,306,396,2025-05-23T21:54:37.717320
23484,-0.3465,0.9150,0.1288,-0.280,-6.790,-8.960,403,409,345,364,405,2025-05-23T21:54:37.717329
23485,-0.3406,0.9087,0.1191,0.070,-5.250,-9.660,403,409,357,384,398,2025-05-23T21:54:37.717340
23486,-0.3314,0.9179,0.1137,0.070,-3.080,-8.890,424,408,369,388,408,2025-05-23T21:54:37.870358
23487,-0.3104,0.9311,0.1166,-2.100,1.750,-7.840,420,421,379,388,414,2025-05-23T21:54:37.870401
23488,-0.3104,0.9306,0.1147,-5.040,7.350,-6.230,400,366,382,407,402,2025-05-23T21:54:37.870413
23489,-0.3104,0.9467,0.1171,-8.050,10.360,-5.110,393,337,390,408,355,2025-05-23T21:54:37.870423
23490,-0.3021,0.9560,0.1069,-11.480,9.660,-5.180,397,396,354,397,389,2025-05-23T21:54:37.870432
23491,-0.2801,0.9711,0.0952,-14.070,5.180,-5.180,411,394,365,416,407,2025-05-23T21:54:37.870441
23492,-0.2582,0.9828,0.0815,-14.910,3.430,-6.020,421,426,382,419,400,2025-05-23T21:54:37.870450
23493,-0.2338,0.9828,0.0566,-14.630,5.320,-7.700,420,367,367,410,407,2025-05-23T21:54:37.870459
23494,-0.2274,0.9819,0.0459,-12.880,8.400,-8.610,404,420,384,419,404,2025-05-23T21:54:37.870468
23495,-0.2420,0.9882,0.0517,-10.850,10.780,-9.310,405,404,392,412,373,2025-05-23T21:54:37.870477
23496,-0.2718,0.9848,0.0610,-10.500,10.640,-10.360,393,418,393,416,387,2025-05-23T21:54:37.870485
23497,-0.3035,0.9838,0.0639,-9.660,8.120,-10.570,409,400,362,402,404,2025-05-23T21:54:37.870493
23498,-0.3260,0.9853,0.0615,-10.080,4.690,-10.010,356,405,368,377,409,2025-05-23T21:54:38.075807
23499,-0.3362,0.9731,0.0503,-8.820,2.450,-9.170,378,306,380,343,410,2025-05-23T21:54:38.075855
23500,-0.3279,0.9643,0.0459,-8.260,2.030,-7.560,342,403,370,335,355,2025-05-23T21:54:38.075867
23501,-0.3328,0.9506,0.0439,-6.930,3.220,-6.160,408,302,377,385,339,2025-05-23T21:54:38.075879
23502,-0.3284,0.9545,0.0512,-5.810,5.040,-3.710,412,400,346,385,368,2025-05-23T21:54:38.075889
23503,-0.3162,0.9501,0.0512,-4.690,8.260,-1.470,420,396,328,348,384,2025-05-23T21:54:38.075898
23504,-0.3206,0.9501,0.0449,-3.080,9.800,0.350,354,347,350,388,348,2025-05-23T21:54:38.075909
23505,-0.3133,0.9501,0.0410,-0.980,8.890,1.610,401,410,376,363,374,2025-05-23T21:54:38.075921
23506,-0.3089,0.9433,0.0327,0.630,5.250,2.520,419,423,384,342,387,2025-05-23T21:54:38.075929
23507,-0.2889,0.9443,0.0288,1.050,1.260,3.570,403,399,375,379,378,2025-05-23T21:54:38.075940
23508,-0.2786,0.9277,0.0176,0.770,-1.050,3.920,417,415,386,390,360,2025-05-23T21:54:38.075949
23509,-0.2616,0.9213,0.0117,0.630,-1.190,4.200,429,426,355,386,386,2025-05-23T21:54:38.075959
23510,-0.2577,0.9204,0.0137,0.840,-0.140,4.130,391,406,367,389,405,2025-05-23T21:54:38.075968
23511,-0.2772,0.9174,0.0068,1.470,-1.330,3.220,415,422,373,397,394,2025-05-23T21:54:38.075977
23512,-0.2733,0.9301,0.0093,3.010,-4.620,2.800,425,393,370,349,389,2025-05-23T21:54:38.076019
23513,-0.2586,0.9428,0.0122,2.870,-7.490,2.310,394,420,376,385,406,2025-05-23T21:54:38.076028
23514,-0.2723,0.9345,-0.0015,3.220,-7.280,1.890,420,357,369,379,393,2025-05-23T21:54:38.076037
23515,-0.2835,0.9394,0.0044,4.620,-5.320,1.400,405,374,386,394,410,2025-05-23T21:54:38.076046
23516,-0.2938,0.9487,0.0171,5.740,-5.670,0.910,416,377,395,398,359,2025-05-23T21:54:38.146208
23517,-0.3026,0.9599,0.0244,4.690,-8.400,0.840,427,390,385,389,368,2025-05-23T21:54:38.146234
23518,-0.3050,0.9584,0.0259,3.150,-10.290,0.630,378,377,390,397,398,2025-05-23T21:54:38.146239
23519,-0.2977,0.9638,0.0307,2.800,-9.940,1.190,400,413,392,391,397,2025-05-23T21:54:38.146245
23520,-0.2845,0.9692,0.0351,2.870,-7.210,0.560,404,410,396,407,405,2025-05-23T21:54:38.281592
23521,-0.2796,0.9667,0.0361,3.360,-4.130,-0.140,412,426,381,412,413,2025-05-23T21:54:38.281634
23522,-0.2791,0.9653,0.0429,3.850,-2.940,-1.540,416,419,384,411,388,2025-05-23T21:54:38.281646
23523,-0.2894,0.9721,0.0483,4.550,-4.340,-3.360,402,415,377,419,400,2025-05-23T21:54:38.281657
23524,-0.3094,0.9770,0.0551,4.480,-7.000,-3.150,417,407,375,397,411,2025-05-23T21:54:38.281668
23525,-0.3284,0.9867,0.0522,3.010,-11.060,-3.150,391,422,391,389,415,2025-05-23T21:54:38.281678
23526,-0.3123,0.9882,0.0439,0.700,-14.280,-2.660,335,433,390,408,408,2025-05-23T21:54:38.281688
23527,-0.2967,0.9701,0.0322,0.630,-14.910,-2.520,382,413,379,411,405,2025-05-23T21:54:38.281797
23528,-0.2869,0.9648,0.0327,1.190,-13.440,-3.150,411,424,387,402,406,2025-05-23T21:54:38.281807
23529,-0.2889,0.9589,0.0434,0.840,-10.290,-3.500,432,381,388,377,397,2025-05-23T21:54:38.281816
23530,-0.2977,0.9453,0.0508,-0.560,-10.500,-4.130,426,403,390,346,395,2025-05-23T21:54:38.281831
23531,-0.2996,0.9321,0.0625,-1.330,-17.010,-5.110,418,402,388,374,364,2025-05-23T21:54:38.281841
23532,-0.2913,0.9111,0.0737,-1.330,-26.600,-6.580,412,425,380,385,390,2025-05-23T21:54:38.281849
23533,-0.2840,0.8969,0.0698,-0.140,-33.180,-10.010,350,398,384,397,407,2025-05-23T21:54:38.485443
23534,-0.2923,0.8994,0.0727,1.050,-37.380,-12.810,390,349,381,409,393,2025-05-23T21:54:38.485484
23535,-0.3299,0.8984,0.0683,1.820,-41.300,-16.310,401,385,379,420,410,2025-05-23T21:54:38.485496
23536,-0.3450,0.9170,0.0903,-1.120,-47.320,-19.950,394,418,389,427,403,2025-05-23T21:54:38.485506
23537,-0.3860,0.9067,0.1186,-7.350,-56.280,-23.450,414,381,382,402,408,2025-05-23T21:54:38.485516
23538,-0.4773,0.8813,0.1713,-10.290,-68.670,-30.660,407,405,373,354,414,2025-05-23T21:54:38.485525
23539,-0.5544,0.8184,0.2440,-9.170,-83.160,-39.480,422,433,384,337,388,2025-05-23T21:54:38.485536
23540,-0.5958,0.7252,0.2723,-6.580,-110.530,-50.610,381,416,361,376,413,2025-05-23T21:54:38.485545
23541,-0.5139,0.6671,0.2738,-6.650,-137.270,-59.150,388,399,364,346,354,2025-05-23T21:54:38.485555
23542,-0.4119,0.6188,0.3050,-5.530,-148.750,-66.850,423,404,366,335,384,2025-05-23T21:54:38.485564
23543,-0.3314,0.7559,0.3587,-5.600,-135.730,-77.490,365,383,367,394,352,2025-05-23T21:54:38.485573
23544,-0.2796,0.9038,0.4436,-9.380,-111.510,-86.240,385,421,383,346,385,2025-05-23T21:54:38.485582
23545,-0.2547,1.1658,0.5124,-25.340,-109.200,-90.580,415,422,391,381,389,2025-05-23T21:54:38.485591
23546,-0.2123,1.5640,0.6866,-41.370,-131.180,-94.010,418,439,382,395,407,2025-05-23T21:54:38.485599
23547,-0.1200,2.4615,0.8013,-44.520,-202.650,-91.210,407,435,374,411,393,2025-05-23T21:54:38.485655
23548,0.0117,3.4106,0.8911,-69.370,-335.440,-59.360,409,416,339,348,400,2025-05-23T21:54:38.485664
23549,0.0293,4.2554,0.7906,-116.830,-514.990,13.160,373,414,360,395,390,2025-05-23T21:54:38.485672
23550,0.7842,4.2973,0.5158,-197.680,-746.900,101.360,397,428,343,386,409,2025-05-23T21:54:38.696076
23551,2.1248,3.8894,-0.1840,-270.550,-918.190,161.840,411,417,362,356,401,2025-05-23T21:54:38.696121
23552,3.1618,3.6829,-1.2390,-242.200,-752.430,142.520,391,436,379,388,424,2025-05-23T21:54:38.696171
23553,3.5575,3.4399,-2.1882,-95.620,-395.220,81.200,344,386,388,410,423,2025-05-23T21:54:38.696187
23554,2.8860,3.5697,-2.4424,14.000,-122.500,26.670,378,402,361,378,379,2025-05-23T21:54:38.696197
23555,1.6743,3.7669,-1.9100,56.070,137.130,17.850,390,348,378,352,401,2025-05-23T21:54:38.696223
23556,0.4738,2.9173,-1.9774,-58.310,238.770,-68.600,402,413,370,356,369,2025-05-23T21:54:38.696233
23557,1.2649,2.2189,-1.4211,-508.900,-268.450,-183.960,402,385,366,332,342,2025-05-23T21:54:38.696242
23558,1.8642,-0.2137,-1.1741,-814.310,-713.370,-279.370,418,400,382,376,290,2025-05-23T21:54:38.696251
23559,0.2606,-2.9036,-1.3069,-691.110,-591.710,-359.800,405,388,390,393,363,2025-05-23T21:54:38.696261
23560,-0.2616,-3.9679,-0.0537,-661.500,-299.810,-441.350,417,391,383,406,399,2025-05-23T21:54:38.696270
23561,-0.5661,-6.0902,1.4786,-545.090,-161.000,-548.520,401,404,396,415,405,2025-05-23T21:54:38.696279
23562,-0.9038,-7.9998,1.8080,-759.500,-113.610,-659.610,344,447,380,367,400,2025-05-23T21:54:38.696289
23563,-1.3430,-7.3527,0.9443,-601.580,71.190,-658.350,415,445,383,401,406,2025-05-23T21:54:38.696330
23564,-2.5371,-4.9127,0.5402,-466.620,344.750,-537.880,408,390,367,343,407,2025-05-23T21:54:38.696341
23565,-4.4027,-3.2188,0.3802,-250.810,374.360,-218.050,401,438,387,376,424,2025-05-23T21:54:38.696351
23566,-3.1086,-2.6376,0.3845,44.450,148.400,154.630,421,446,384,364,405,2025-05-23T21:54:38.696359
23567,-0.0610,-2.6625,0.7198,173.670,151.200,268.030,406,441,367,369,399,2025-05-23T21:54:38.895420
23568,0.5236,-2.4190,1.0868,-67.200,14.910,458.710,389,428,346,353,407,2025-05-23T21:54:38.895473
23569,0.4455,-2.7899,0.7544,-27.720,-168.560,596.260,402,443,364,380,390,2025-05-23T21:54:38.895490
23570,0.1308,-3.0227,0.0966,388.920,-12.740,563.290,420,424,384,390,405,2025-05-23T21:54:38.895502
23571,-0.0024,-2.8187,0.0820,527.660,75.460,522.480,408,360,341,410,361,2025-05-23T21:54:38.895513
23572,0.3587,-2.4288,0.3484,476.070,245.770,462.280,392,403,365,405,394,2025-05-23T21:54:38.895524
23573,0.4329,-1.8978,0.6407,410.830,347.200,429.730,346,406,334,410,398,2025-05-23T21:54:38.895533
23574,0.3997,-1.4147,0.7569,378.840,384.440,395.010,336,362,366,413,393,2025-05-23T21:54:38.895543
23575,0.4046,-0.9189,0.8999,227.220,327.390,388.430,371,405,365,394,411,2025-05-23T21:54:38.895551
23576,0.2430,-0.6373,0.8452,146.720,335.720,390.180,390,390,383,416,401,2025-05-23T21:54:38.895560
23577,0.0317,-0.4426,0.9121,134.960,353.570,374.010,379,415,372,412,395,2025-05-23T21:54:38.895569
23578,0.0322,-0.1557,0.9926,130.970,357.630,337.820,322,416,373,386,361,2025-05-23T21:54:38.895578
23579,0.1806,0.1732,0.7886,144.130,354.970,260.680,318,355,375,402,346,2025-05-23T21:54:38.895587
23580,0.5836,0.8740,0.5963,158.200,323.820,192.360,370,410,376,413,383,2025-05-23T21:54:38.895597
23581,0.7559,1.3723,0.4299,172.760,279.860,161.700,394,427,370,403,397,2025-05-23T21:54:38.895644
23582,0.4734,1.8329,0.6803,190.890,236.810,142.450,403,422,383,403,403,2025-05-23T21:54:38.895654
23583,0.0268,1.9910,1.0355,192.080,195.020,122.780,344,375,384,372,406,2025-05-23T21:54:38.895663
23584,-0.0449,2.0164,1.2815,176.890,114.730,103.530,374,375,385,400,409,2025-05-23T21:54:38.948988
23585,0.3928,2.3444,1.2005,147.140,17.290,79.310,358,444,382,441,380,2025-05-23T21:54:38.949042
23586,0.9687,2.6035,0.6446,139.160,-13.790,50.820,342,453,343,402,398,2025-05-23T21:54:38.949056
23587,0.9750,2.5356,0.0278,196.560,97.230,49.840,386,445,364,412,411,2025-05-23T21:54:38.949068
23588,0.3543,2.4376,-0.0625,279.160,243.530,63.630,389,412,367,413,392,2025-05-23T21:54:38.999170
23589,-0.2582,2.6157,0.6159,269.640,299.110,110.040,346,402,319,370,366,2025-05-23T21:54:38.999221
23590,-0.2069,2.4659,0.8579,159.810,220.080,178.220,406,416,317,389,377,2025-05-23T21:54:38.999234
23591,0.3333,2.1199,1.0219,-7.840,95.060,207.480,422,417,358,403,401,2025-05-23T21:54:38.999244
23592,1.0590,1.5226,1.1165,-128.870,-39.620,173.390,430,438,398,426,384,2025-05-23T21:54:39.052822
23593,1.6475,0.9731,0.9516,-140.420,-69.160,152.250,418,428,392,427,385,2025-05-23T21:54:39.052868
23594,1.1854,0.6983,0.5475,11.900,-48.020,110.390,419,409,392,425,396,2025-05-23T21:54:39.052880
23595,0.9706,0.7266,0.2923,96.950,-16.310,79.380,345,415,383,416,368,2025-05-23T21:54:39.052890
23596,0.5934,0.7842,0.0449,131.670,-26.250,52.080,366,389,354,362,347,2025-05-23T21:54:39.301144
23597,0.2298,0.7852,-0.1854,54.810,-55.370,32.130,395,397,361,393,384,2025-05-23T21:54:39.301192
23598,0.0234,0.7315,-0.3323,-71.960,-82.950,14.350,377,354,344,355,402,2025-05-23T21:54:39.301204
23599,-0.0195,0.5441,-0.4231,-94.080,-61.740,-0.350,411,373,367,399,397,2025-05-23T21:54:39.301216
23600,0.0786,0.6403,-0.2484,-30.310,-20.720,-4.130,344,405,368,392,400,2025-05-23T21:54:39.301229
23601,0.1718,0.8325,0.0351,3.500,36.330,-0.770,404,362,381,392,358,2025-05-23T21:54:39.301239
23602,0.2850,0.8818,0.3255,9.240,88.830,-2.310,397,399,371,403,375,2025-05-23T21:54:39.301250
23603,0.1903,0.8242,0.5041,13.510,74.760,-13.930,412,351,382,378,383,2025-05-23T21:54:39.301260
23604,0.1186,0.8857,0.6246,22.820,10.570,-27.930,411,375,385,404,387,2025-05-23T21:54:39.301273
23605,0.1049,0.9784,0.5998,21.980,-47.950,-36.050,414,393,375,391,385,2025-05-23T21:54:39.301283
23606,0.1254,1.0658,0.5124,23.030,-77.770,-41.930,419,404,385,391,403,2025-05-23T21:54:39.301293
23607,0.1562,1.1629,0.4036,34.510,-71.750,-42.000,407,392,341,409,392,2025-05-23T21:54:39.301302
23608,0.0981,1.2381,0.3387,54.670,-38.640,-41.720,418,398,327,405,409,2025-05-23T21:54:39.301311
23609,-0.0073,1.2444,0.3211,67.270,-8.050,-40.740,420,427,357,355,399,2025-05-23T21:54:39.301319
23610,-0.0639,1.3254,0.4329,59.710,-10.290,-38.640,422,403,377,394,409,2025-05-23T21:54:39.301564
23611,-0.0078,1.3859,0.4524,35.070,-53.690,-40.180,407,397,373,406,373,2025-05-23T21:54:39.301576
23612,0.3265,1.5806,0.4275,-1.050,-124.810,-46.270,408,406,379,386,384,2025-05-23T21:54:39.301585
23613,0.6080,1.8554,0.3675,-31.220,-164.220,-54.250,421,405,383,406,393,2025-05-23T21:54:39.301595
23614,1.0848,2.1111,0.4441,-69.300,-198.730,-60.760,422,409,389,407,397,2025-05-23T21:54:39.301604
23615,1.0951,2.2897,0.6866,-102.060,-219.800,-56.210,406,436,382,407,403,2025-05-23T21:54:39.301613
23616,1.1639,2.6274,0.5788,-124.600,-275.660,-48.020,394,429,369,402,407,2025-05-23T21:54:39.512595
23617,1.1434,3.1159,0.5022,-123.760,-315.700,-23.100,404,428,339,404,409,2025-05-23T21:54:39.512667
23618,1.2166,3.2979,0.3528,-135.590,-399.420,13.720,411,421,354,402,412,2025-05-23T21:54:39.512686
23619,1.8720,3.1134,-0.0800,-167.440,-496.090,45.500,403,408,323,401,407,2025-05-23T21:54:39.512704
23620,2.3136,2.9070,-0.6944,-215.810,-530.110,44.030,408,370,347,396,374,2025-05-23T21:54:39.512721
23621,2.7504,2.6606,-1.3386,-238.420,-495.880,-2.940,415,408,359,388,396,2025-05-23T21:54:39.512736
23622,2.8475,2.4249,-1.5845,-245.000,-394.800,-61.110,323,427,372,375,410,2025-05-23T21:54:39.512751
23623,2.6601,2.1218,-1.6602,-315.980,-312.830,-140.770,389,415,376,398,358,2025-05-23T21:54:39.512766
23624,1.7065,1.1888,-1.8368,-440.930,-289.450,-209.370,403,402,384,344,386,2025-05-23T21:54:39.512781
23625,0.5978,-0.0766,-1.6397,-524.090,-322.560,-288.190,422,417,389,377,399,2025-05-23T21:54:39.512801
23626,0.2313,-1.1063,-1.0394,-574.140,-450.030,-368.410,389,410,387,397,400,2025-05-23T21:54:39.512817
23627,0.1078,-2.5049,-0.3235,-677.950,-603.680,-390.320,425,419,396,414,425,2025-05-23T21:54:39.512833
23628,-0.0581,-4.1543,0.4602,-856.380,-614.950,-422.660,404,379,393,422,428,2025-05-23T21:54:39.512848
23629,0.0425,-5.4656,1.2176,-908.110,-407.400,-431.830,406,442,349,421,426,2025-05-23T21:54:39.512929
23630,-0.6080,-6.4758,1.9510,-715.610,-125.860,-468.860,359,453,375,417,409,2025-05-23T21:54:39.512945
23631,-0.9623,-6.3874,2.1628,-572.740,-57.330,-465.500,401,422,370,426,396,2025-05-23T21:54:39.512959
23632,-1.0087,-5.1045,1.4904,-325.850,82.250,-382.410,422,472,383,412,435,2025-05-23T21:54:39.512976
23633,-1.4630,-3.1535,1.2693,-38.220,335.230,-196.700,405,457,343,406,400,2025-05-23T21:54:39.512991
23634,-1.8973,-1.8383,0.9326,134.890,435.820,106.050,412,468,337,401,419,2025-05-23T21:54:39.714955
23635,-1.6070,-1.5958,0.6539,271.320,371.770,325.710,423,445,350,411,411,2025-05-23T21:54:39.715007
23636,-0.9140,-1.8583,0.9687,321.860,266.980,399.420,415,429,367,397,387,2025-05-23T21:54:39.715020
23637,-0.7315,-2.3707,1.0624,277.480,137.690,405.300,412,442,383,399,398,2025-05-23T21:54:39.715032
23638,-0.4197,-2.9002,0.4153,241.360,41.160,413.910,399,432,349,387,385,2025-05-23T21:54:39.715043
23639,-0.1098,-2.6738,0.2137,350.210,81.200,413.420,401,404,370,410,401,2025-05-23T21:54:39.715054
23640,0.1557,-2.1330,0.3177,375.690,198.100,388.990,417,402,350,410,355,2025-05-23T21:54:39.715065
23641,0.2489,-1.7568,0.2240,364.420,366.240,368.060,426,413,374,399,389,2025-05-23T21:54:39.715076
23642,0.0615,-1.1366,0.1435,341.320,525.560,363.160,420,383,366,412,399,2025-05-23T21:54:39.715086
23643,-0.0747,-0.4875,-0.0307,259.210,621.600,370.580,403,418,368,369,392,2025-05-23T21:54:39.715097
23644,-0.3919,-0.1176,-0.0527,209.440,641.480,371.000,403,401,381,405,388,2025-05-23T21:54:39.715107
23645,-0.7422,0.0405,0.0839,182.700,608.230,356.720,378,409,371,386,362,2025-05-23T21:54:39.715116
23646,-0.8086,0.3021,0.3704,164.710,479.710,333.620,387,401,371,398,401,2025-05-23T21:54:39.715126
23647,-0.3396,0.9780,0.6861,148.190,330.050,310.310,310,340,363,355,368,2025-05-23T21:54:39.715172
23648,0.4158,1.4972,0.6769,87.150,154.630,291.130,392,399,361,390,381,2025-05-23T21:54:39.715183
23649,0.9775,1.7270,0.1654,70.700,42.910,273.070,404,418,379,409,402,2025-05-23T21:54:39.715196
23650,1.1390,1.8139,-0.1693,166.040,169.820,227.990,422,412,385,411,400,2025-05-23T21:54:39.715207
23651,0.6481,1.9779,0.1191,213.640,281.470,197.820,428,412,355,382,404,2025-05-23T21:54:39.929224
23652,0.2059,2.1999,0.8154,250.320,271.250,188.440,404,378,363,403,384,2025-05-23T21:54:39.929281
23653,0.1859,2.2760,1.1292,222.110,209.510,196.210,400,355,379,402,399,2025-05-23T21:54:39.929296
23654,0.7476,2.2863,1.0580,116.060,8.190,187.180,415,399,373,408,402,2025-05-23T21:54:39.929308
23655,1.3537,2.1330,0.7642,0.840,-214.900,163.240,422,424,374,419,400,2025-05-23T21:54:39.929320
23656,2.3200,1.8690,0.3348,-31.220,-209.440,120.610,356,351,369,405,398,2025-05-23T21:54:39.929333
23657,2.5405,1.6094,0.2874,83.300,148.470,90.300,400,401,367,409,385,2025-05-23T21:54:39.929344
23658,1.5338,1.6572,1.4464,102.340,256.340,61.880,410,420,331,410,387,2025-05-23T21:54:39.929355
23659,0.5685,1.5294,1.9993,109.270,182.490,43.050,423,399,349,413,395,2025-05-23T21:54:39.929366
23660,0.5661,1.2483,1.8188,60.410,66.360,12.810,412,355,364,404,351,2025-05-23T21:54:39.929377
23661,0.8960,1.0546,1.2288,-1.120,-110.670,-12.670,411,387,360,361,375,2025-05-23T21:54:39.929388
23662,1.1014,0.9706,0.6100,-55.650,-247.310,-31.360,394,391,376,398,345,2025-05-23T21:54:39.929399
23663,0.8150,0.8926,-0.0703,-7.630,-134.540,-57.050,407,409,384,350,371,2025-05-23T21:54:39.929410
23664,0.2084,0.8960,-0.2377,34.230,50.120,-59.780,415,412,311,382,347,2025-05-23T21:54:39.929420
23665,-0.1732,0.8652,-0.2962,38.990,136.430,-49.350,406,417,340,360,391,2025-05-23T21:54:39.929474
23666,-0.4719,0.8730,-0.2830,49.420,211.120,-44.170,403,430,370,361,398,2025-05-23T21:54:39.929486
23667,-0.4372,0.8525,-0.0849,63.980,154.770,-57.050,395,424,341,395,406,2025-05-23T21:54:39.929497
23668,-0.2655,0.9731,0.1010,-6.440,-27.930,-38.150,352,395,319,409,393,2025-05-23T21:54:40.132095
23669,-0.0703,0.9311,0.1288,-45.010,-140.560,-24.710,397,405,344,374,388,2025-05-23T21:54:40.132154
23670,-0.1093,0.9043,0.1396,-35.280,-136.710,-26.250,355,418,330,403,385,2025-05-23T21:54:40.132174
23671,-0.0893,0.9243,0.1898,7.840,-53.410,-18.200,408,400,363,402,403,2025-05-23T21:54:40.132191
23672,-0.0917,0.9902,0.3416,35.000,7.420,-11.550,408,434,383,392,354,2025-05-23T21:54:40.132205
23673,-0.0747,1.0624,0.4255,55.160,23.100,-2.030,392,408,381,409,390,2025-05-23T21:54:40.132218
23674,-0.0590,1.0917,0.4241,55.230,3.990,-0.910,406,412,376,378,400,2025-05-23T21:54:40.132231
23675,-0.0078,1.0882,0.3392,37.030,-44.100,-7.000,412,388,369,392,366,2025-05-23T21:54:40.132246
23676,0.0283,1.0926,0.2362,29.120,-59.920,-10.850,401,421,383,340,376,2025-05-23T21:54:40.604604
23677,0.0083,1.0931,0.1259,26.600,-31.850,-15.610,412,424,387,375,380,2025-05-23T21:54:40.604648
23678,-0.0493,1.0653,0.0146,22.330,1.120,-16.170,414,356,376,406,348,2025-05-23T21:54:40.604661
23679,-0.0874,1.0619,0.0181,17.850,28.630,-12.180,422,410,391,412,338,2025-05-23T21:54:40.604673
23680,-0.1493,1.0594,0.0708,9.520,18.550,-8.120,428,435,371,408,380,2025-05-23T21:54:40.604683
23681,-0.1220,1.0492,0.0810,-0.840,-19.460,-7.910,429,407,364,364,395,2025-05-23T21:54:40.604693
23682,-0.0688,1.0272,0.0600,-3.220,-46.620,-6.230,426,423,362,387,411,2025-05-23T21:54:40.604756
23683,-0.0395,1.0419,0.0371,-2.310,-51.800,-3.780,403,428,344,405,390,2025-05-23T21:54:40.604768
23684,-0.0698,1.0634,0.0761,2.100,-36.120,0.210,364,352,359,410,392,2025-05-23T21:54:40.604779
23685,-0.1166,1.0663,0.1357,4.760,-23.240,4.900,358,413,374,417,405,2025-05-23T21:54:40.604791
23686,-0.1381,1.0394,0.1420,4.620,-26.530,8.260,383,392,371,417,413,2025-05-23T21:54:40.604800
23687,-0.0971,1.0311,0.1322,4.690,-43.470,11.900,381,423,375,402,396,2025-05-23T21:54:40.604813
23688,-0.0356,1.0019,0.0791,0.070,-54.880,13.230,402,415,381,389,390,2025-05-23T21:54:40.604821
23689,0.0415,0.9584,0.0249,-1.750,-46.970,12.250,422,360,386,413,392,2025-05-23T21:54:40.604830
23690,0.0283,0.9643,0.0381,-0.280,-18.620,9.310,397,413,394,407,400,2025-05-23T21:54:40.604839
23691,-0.0673,0.9819,0.0493,2.100,-0.910,5.320,395,397,376,375,405,2025-05-23T21:54:40.604847
23692,-0.0820,0.9887,0.0386,0.630,2.030,6.090,389,411,368,339,403,2025-05-23T21:54:40.604856
23693,-0.0371,0.9848,0.0224,-2.660,-10.990,4.900,388,410,338,389,396,2025-05-23T21:54:40.604963
23694,0.0181,0.9716,-0.0015,-5.950,-15.610,1.890,400,391,366,409,402,2025-05-23T21:54:40.604972
23695,0.0205,0.9628,0.0063,-4.550,-8.050,-1.750,427,414,347,416,413,2025-05-23T21:54:40.604981
23696,-0.0049,0.9633,0.0254,-2.100,7.560,-2.800,404,435,351,419,410,2025-05-23T21:54:40.604991
23697,-0.0459,0.9584,0.0630,-0.490,17.220,-0.630,426,424,379,398,377,2025-05-23T21:54:40.605017
23698,-0.0771,0.9814,0.1200,0.420,14.280,-0.700,397,400,387,345,393,2025-05-23T21:54:40.605027
23699,-0.0454,0.9921,0.1391,-2.800,-2.800,-2.660,411,409,388,336,397,2025-05-23T21:54:40.605037
23700,-0.0317,0.9862,0.1200,-5.950,-13.790,-4.410,397,409,390,377,394,2025-05-23T21:54:40.605046
23701,-0.0215,0.9667,0.1020,-4.480,-8.120,-5.180,395,398,393,383,393,2025-05-23T21:54:40.605056
23702,-0.0044,0.9833,0.0976,-1.120,6.090,-4.970,410,351,389,407,400,2025-05-23T21:54:40.605066
23703,0.0024,1.0146,0.1181,1.470,17.010,-5.600,420,418,360,412,410,2025-05-23T21:54:40.605077
23704,-0.0649,1.0150,0.1332,-0.140,0.000,-7.280,414,356,376,407,410,2025-05-23T21:54:40.605086
23705,-0.1108,1.0155,0.1444,-4.340,8.190,-8.190,350,385,379,398,415,2025-05-23T21:54:40.605095
23706,-0.1039,1.0136,0.1508,-8.190,-10.080,-5.880,414,376,371,408,368,2025-05-23T21:54:40.605103
23707,-0.0981,1.0111,0.1464,-8.820,-22.330,-5.810,421,413,365,387,391,2025-05-23T21:54:40.605112
23708,-0.0644,0.9828,0.1240,-7.280,-23.450,-7.630,401,413,380,410,365,2025-05-23T21:54:40.605120
23709,-0.0190,0.9736,0.1118,-3.710,-11.410,-5.110,410,408,310,404,381,2025-05-23T21:54:40.605130
23710,-0.0220,0.9960,0.1059,0.700,2.940,-3.430,413,420,352,412,361,2025-05-23T21:54:40.605140
23711,-0.0590,0.9862,0.0854,3.150,18.200,-3.990,389,409,372,369,368,2025-05-23T21:54:40.605160
23712,-0.1244,0.9970,0.0922,4.830,20.230,-3.640,377,404,344,340,344,2025-05-23T21:54:40.605170
23713,-0.1444,0.9965,0.0932,1.610,6.020,-0.840,410,434,329,382,357,2025-05-23T21:54:40.605179
23714,-0.1215,1.0053,0.0844,-2.380,-6.020,2.660,343,348,322,404,340,2025-05-23T21:54:40.605187
23715,-0.0942,1.0067,0.0830,-3.500,-9.730,4.060,377,387,340,414,333,2025-05-23T21:54:40.605196
23716,-0.0503,1.0053,0.0810,-4.130,-2.380,4.480,413,417,359,411,379,2025-05-23T21:54:40.605218
23717,-0.0444,0.9858,0.0791,-2.450,8.540,3.010,396,396,364,423,384,2025-05-23T21:54:40.605227
23718,-0.0449,0.9687,0.0815,-0.490,10.360,2.310,373,417,377,407,380,2025-05-23T21:54:40.605236
23719,-0.0449,0.9858,0.0976,1.680,4.550,1.960,348,417,381,410,401,2025-05-23T21:54:40.605244
23720,-0.0434,1.0014,0.1118,0.210,1.400,0.700,403,404,382,411,397,2025-05-23T21:54:40.742752
23721,-0.0444,0.9960,0.1069,-2.660,2.310,-0.630,417,418,386,413,396,2025-05-23T21:54:40.742798
23722,-0.0249,0.9867,0.1113,-4.340,4.200,-2.730,412,370,377,404,367,2025-05-23T21:54:40.742810
23723,-0.0307,0.9789,0.1196,-4.550,2.450,-5.670,409,420,349,384,394,2025-05-23T21:54:40.742821
23724,-0.0488,0.9853,0.1352,-2.450,-1.890,-6.510,414,433,371,407,396,2025-05-23T21:54:40.742845
23725,-0.0771,0.9936,0.1532,-0.770,-0.560,-7.210,367,392,384,405,391,2025-05-23T21:54:40.742855
23726,-0.0976,0.9784,0.1606,-1.400,2.660,-7.280,408,400,391,412,366,2025-05-23T21:54:40.742867
23727,-0.1054,0.9648,0.1479,-0.910,5.460,-6.650,344,389,390,424,342,2025-05-23T21:54:40.742877
23728,-0.1030,0.9540,0.1376,0.560,3.850,-7.140,409,395,382,407,375,2025-05-23T21:54:40.742886
23729,-0.0956,0.9584,0.1215,1.820,-1.050,-7.560,408,417,376,315,392,2025-05-23T21:54:40.742897
23730,-0.1171,0.9755,0.1137,3.850,-3.710,-7.070,422,378,387,362,394,2025-05-23T21:54:40.742906
23731,-0.1230,1.0058,0.1078,4.900,-0.420,-6.790,422,412,377,395,390,2025-05-23T21:54:40.742918
23732,-0.1254,1.0024,0.1005,4.760,0.770,-6.510,353,417,384,396,350,2025-05-23T21:54:40.742927
23733,-0.1210,1.0014,0.0878,3.920,0.210,-5.810,393,421,380,404,340,2025-05-23T21:54:40.742935
23734,-0.1215,0.9960,0.0820,2.380,-2.940,-5.740,388,383,382,411,386,2025-05-23T21:54:40.742977
23735,-0.1235,0.9945,0.0859,0.770,-3.640,-5.530,403,394,378,393,401,2025-05-23T21:54:40.742986
23736,-0.1352,1.0067,0.1000,0.070,-3.570,-3.010,396,422,386,402,416,2025-05-23T21:54:40.742995
23737,-0.1274,1.0160,0.1176,-0.280,-1.820,-2.030,354,429,387,394,401,2025-05-23T21:54:40.946713
23738,-0.1200,1.0063,0.1362,-1.190,-0.630,-1.400,385,414,375,377,390,2025-05-23T21:54:40.946762
23739,-0.1054,0.9936,0.1347,0.140,0.210,-0.770,349,397,380,403,413,2025-05-23T21:54:40.946775
23740,-0.0849,0.9872,0.1332,1.890,1.330,-1.050,376,382,381,397,358,2025-05-23T21:54:40.946785
23741,-0.0722,0.9872,0.1303,3.500,2.660,-1.680,419,397,373,395,388,2025-05-23T21:54:40.946797
23742,-0.0712,0.9877,0.1181,3.780,3.290,-2.660,381,419,375,395,396,2025-05-23T21:54:40.946808
23743,-0.0776,0.9916,0.1118,3.780,1.330,-3.500,419,346,385,414,355,2025-05-23T21:54:40.946819
23744,-0.1200,0.9877,0.1078,3.640,-4.270,-5.040,421,399,388,408,373,2025-05-23T21:54:40.946830
23745,-0.1230,0.9833,0.1093,3.150,-12.390,-5.320,400,403,384,408,349,2025-05-23T21:54:40.946841
23746,-0.1318,0.9799,0.1108,2.520,-16.660,-5.180,415,396,395,408,389,2025-05-23T21:54:40.946851
23747,-0.1152,0.9750,0.1039,3.220,-17.850,-4.970,416,376,362,408,362,2025-05-23T21:54:40.946860
23748,-0.1122,0.9701,0.0869,5.320,-12.670,-4.620,399,390,374,420,398,2025-05-23T21:54:40.946868
23749,-0.0966,0.9765,0.0791,7.070,-3.710,-4.410,424,423,372,401,400,2025-05-23T21:54:40.946877
23750,-0.0942,0.9823,0.0791,6.650,2.380,-4.410,373,421,380,354,406,2025-05-23T21:54:40.946885
23751,-0.1093,0.9872,0.0874,4.200,3.640,-4.130,410,430,386,339,403,2025-05-23T21:54:40.946926
23752,-0.1064,0.9960,0.1035,2.240,0.770,-3.780,339,415,388,367,389,2025-05-23T21:54:40.946936
23753,-0.1161,0.9994,0.1098,0.490,-4.270,-4.270,386,428,349,395,400,2025-05-23T21:54:40.946946
23754,-0.0976,0.9999,0.1166,-0.280,-9.450,-4.060,401,415,367,401,398,2025-05-23T21:54:40.995642
23755,-0.0952,1.0048,0.1157,-0.350,-10.920,-4.690,395,411,358,393,386,2025-05-23T21:54:40.995685
23756,-0.0737,1.0141,0.1118,0.840,-8.960,-5.040,370,413,360,346,359,2025-05-23T21:54:40.995697
23757,-0.0864,1.0155,0.1122,0.980,-3.850,-4.830,407,396,377,397,335,2025-05-23T21:54:40.995707
23758,-0.1264,1.0111,0.1157,1.260,0.630,-5.110,391,417,384,409,377,2025-05-23T21:54:41.159075
23759,-0.1469,1.0185,0.1298,0.630,-0.840,-3.150,407,422,348,414,363,2025-05-23T21:54:41.159122
23760,-0.1464,1.0155,0.1318,-0.910,-5.460,-1.540,416,407,356,313,382,2025-05-23T21:54:41.159135
23761,-0.1308,1.0121,0.1259,-1.540,-8.610,-0.630,419,414,328,343,380,2025-05-23T21:54:41.159147
23762,-0.1103,1.0048,0.1205,-0.210,-7.210,-0.280,399,416,321,392,408,2025-05-23T21:54:41.159159
23763,-0.1122,0.9994,0.1069,1.890,-2.590,-0.070,371,392,349,410,408,2025-05-23T21:54:41.159170
23764,-0.1039,0.9994,0.0991,3.920,1.470,1.050,337,414,360,424,377,2025-05-23T21:54:41.159179
23765,-0.1200,0.9911,0.0932,3.360,0.770,1.400,388,421,374,362,402,2025-05-23T21:54:41.159188
23766,-0.1166,0.9867,0.0908,1.610,-3.150,1.470,413,414,345,388,410,2025-05-23T21:54:41.159198
23767,-0.1108,0.9770,0.0854,-0.490,-6.720,1.540,428,367,355,389,413,2025-05-23T21:54:41.159207
23768,-0.1137,0.9697,0.0854,-0.420,-5.670,0.630,347,388,327,376,373,2025-05-23T21:54:41.159216
23769,-0.1083,0.9760,0.0893,-0.140,-2.380,0.630,391,409,356,390,405,2025-05-23T21:54:41.159225
23770,-0.1020,0.9692,0.0888,0.280,-0.140,0.140,385,416,370,350,402,2025-05-23T21:54:41.159235
23771,-0.0893,0.9614,0.0888,0.420,0.840,-0.630,394,396,371,378,374,2025-05-23T21:54:41.218551
23772,-0.1025,0.9589,0.0952,1.610,-0.350,-1.470,399,399,368,370,388,2025-05-23T21:54:41.218594
23773,-0.1035,0.9697,0.1132,1.820,-2.590,-2.450,425,399,373,378,412,2025-05-23T21:54:41.218605
23774,-0.0952,0.9789,0.1176,1.540,-3.920,-3.150,417,395,386,409,418,2025-05-23T21:54:41.218616
23775,-0.1044,0.9809,0.1142,1.820,-3.780,-4.340,397,412,391,411,402,2025-05-23T21:54:41.218625
23776,-0.0966,0.9945,0.1142,3.780,-4.270,-4.270,345,398,378,417,390,2025-05-23T21:54:41.218634
23777,-0.1039,1.0053,0.1118,4.690,-3.010,-4.760,396,398,344,427,349,2025-05-23T21:54:41.353960
23778,-0.1108,0.9989,0.1015,4.270,-2.730,-4.550,399,411,358,403,330,2025-05-23T21:54:41.354027
23779,-0.1249,0.9936,0.1010,4.830,-2.590,-4.340,380,408,376,413,362,2025-05-23T21:54:41.354329
23780,-0.1152,0.9911,0.0947,5.110,-4.270,-3.220,408,401,382,402,377,2025-05-23T21:54:41.354350
23781,-0.1205,1.0033,0.0956,5.670,-3.430,-1.960,386,402,388,398,399,2025-05-23T21:54:41.354365
23782,-0.1230,1.0102,0.0971,4.480,-1.260,-1.820,415,389,388,364,408,2025-05-23T21:54:41.354379
23783,-0.1078,1.0131,0.0859,4.550,0.000,-1.190,416,419,384,390,400,2025-05-23T21:54:41.354392
23784,-0.1049,1.0121,0.0805,4.480,-0.700,-0.980,422,407,381,400,402,2025-05-23T21:54:41.354406
23785,-0.1030,1.0102,0.0761,4.270,-1.890,-1.400,417,427,367,418,412,2025-05-23T21:54:41.354421
23786,-0.1030,1.0053,0.0820,3.290,-3.430,-1.470,409,427,384,419,386,2025-05-23T21:54:41.354433
23787,-0.1098,0.9931,0.0888,2.100,-3.710,-1.470,404,411,367,393,402,2025-05-23T21:54:41.354446
23788,-0.1220,0.9760,0.1010,1.750,-3.500,-1.400,398,409,365,414,392,2025-05-23T21:54:41.408792
23789,-0.1264,0.9745,0.1093,2.660,-3.710,-1.610,366,411,378,405,383,2025-05-23T21:54:41.408836
23790,-0.1171,0.9701,0.1098,3.220,-2.450,-1.540,408,423,387,391,401,2025-05-23T21:54:41.408848
23791,-0.1122,0.9614,0.1044,4.620,-0.840,-2.240,418,404,348,362,397,2025-05-23T21:54:41.408857
23792,-0.1083,0.9609,0.0947,6.580,1.540,-3.290,412,412,331,371,385,2025-05-23T21:54:41.408866
23793,-0.1118,0.9662,0.0732,7.980,2.450,-4.130,406,428,316,390,360,2025-05-23T21:54:41.562264
23794,-0.1044,0.9745,0.0644,7.630,2.310,-4.690,401,393,346,393,372,2025-05-23T21:54:41.562314
23795,-0.1054,0.9750,0.0547,6.440,1.540,-5.040,354,404,342,407,342,2025-05-23T21:54:41.562328
23796,-0.1074,0.9672,0.0556,5.530,0.840,-5.530,332,373,354,412,368,2025-05-23T21:54:41.562340
23797,-0.1122,0.9653,0.0678,5.880,0.070,-5.530,356,300,367,392,337,2025-05-23T21:54:41.562353
23798,-0.1327,0.9628,0.0913,7.070,-1.890,-5.460,374,329,383,399,388,2025-05-23T21:54:41.562365
23799,-0.1474,0.9843,0.1074,8.050,-3.570,-5.390,419,406,377,407,401,2025-05-23T21:54:41.562375
23800,-0.1503,1.0009,0.1088,8.610,-3.920,-4.760,398,422,381,414,394,2025-05-23T21:54:41.562385
23801,-0.1503,1.0038,0.1030,9.520,-1.960,-4.550,371,393,380,372,390,2025-05-23T21:54:41.562395
23802,-0.1474,1.0087,0.1035,10.570,1.750,-3.500,384,397,392,339,400,2025-05-23T21:54:41.562404
23803,-0.1649,1.0097,0.1049,11.200,3.220,-2.380,390,428,395,374,397,2025-05-23T21:54:41.562414
23804,-0.1737,1.0136,0.0952,10.010,1.540,-1.680,415,412,353,395,385,2025-05-23T21:54:41.562423
23805,-0.1620,1.0160,0.0747,7.560,-1.050,-0.630,394,422,374,394,400,2025-05-23T21:54:41.562434
23806,-0.1601,1.0209,0.0581,5.740,-2.940,0.210,384,435,365,407,390,2025-05-23T21:54:41.613580
23807,-0.1649,1.0155,0.0429,5.950,-2.030,1.260,397,409,368,401,390,2025-05-23T21:54:41.613640
23808,-0.1635,1.0180,0.0571,6.020,-2.240,2.310,299,395,372,370,352,2025-05-23T21:54:41.613652
23809,-0.1537,1.0043,0.0659,4.620,-3.920,3.920,399,415,382,377,374,2025-05-23T21:54:41.613662
23810,-0.1435,0.9931,0.0708,4.270,-4.970,4.760,422,430,388,410,407,2025-05-23T21:54:41.762099
23811,-0.1264,0.9989,0.0747,5.250,-3.640,5.390,349,424,357,392,406,2025-05-23T21:54:41.762146
23812,-0.1230,0.9931,0.0703,6.160,0.350,6.090,385,427,363,405,412,2025-05-23T21:54:41.762159
23813,-0.1322,0.9848,0.0649,6.090,3.430,6.440,405,400,368,395,404,2025-05-23T21:54:41.762170
23814,-0.1318,0.9604,0.0595,5.390,3.010,6.930,412,351,386,413,394,2025-05-23T21:54:41.762181
23815,-0.1410,0.9496,0.0610,4.830,0.770,7.420,368,292,391,412,413,2025-05-23T21:54:41.762192
23816,-0.1488,0.9492,0.0756,3.570,0.560,7.490,388,387,388,417,397,2025-05-23T21:54:41.762201
23817,-0.1425,0.9550,0.0917,3.360,2.730,7.490,411,430,384,417,406,2025-05-23T21:54:41.762210
23818,-0.1342,0.9570,0.1078,4.130,4.480,7.560,378,397,374,425,411,2025-05-23T21:54:41.762219
23819,-0.1230,0.9628,0.1210,5.530,5.950,6.720,335,383,366,402,403,2025-05-23T21:54:41.762228
23820,-0.1137,0.9721,0.1215,6.650,6.860,4.970,373,418,371,408,378,2025-05-23T21:54:41.762236
23821,-0.1078,0.9814,0.1137,6.930,7.630,3.010,394,418,374,354,395,2025-05-23T21:54:41.762245
23822,-0.1103,0.9745,0.1000,5.880,9.450,1.330,414,412,336,396,352,2025-05-23T21:54:41.762254
23823,-0.1259,0.9618,0.0947,5.390,10.080,-1.470,407,405,351,413,387,2025-05-23T21:54:41.978710
23824,-0.1405,0.9555,0.1044,5.320,9.030,-6.300,418,421,330,393,381,2025-05-23T21:54:41.978754
23825,-0.1401,0.9531,0.1244,4.200,4.480,-11.200,414,308,321,387,405,2025-05-23T21:54:41.978768
23826,-0.1469,0.9667,0.1474,1.470,0.910,-16.450,391,394,348,410,416,2025-05-23T21:54:41.978778
23827,-0.1601,0.9789,0.1640,-2.100,-4.830,-19.950,427,344,366,413,406,2025-05-23T21:54:41.978787
23828,-0.1581,0.9750,0.1747,-3.430,-10.010,-24.010,425,411,379,392,417,2025-05-23T21:54:41.978796
23829,-0.1362,0.9482,0.1640,-3.710,-14.490,-28.420,409,424,388,415,394,2025-05-23T21:54:41.978808
23830,-0.0664,0.9165,0.1420,-2.660,-13.650,-32.760,408,416,398,420,353,2025-05-23T21:54:41.978817
23831,-0.0059,0.8769,0.1152,-1.890,-8.050,-37.730,394,428,402,420,397,2025-05-23T21:54:41.978826
23832,0.0229,0.8613,0.0908,-0.140,4.830,-42.420,420,429,389,420,400,2025-05-23T21:54:41.978835
23833,0.0386,0.8511,0.0644,2.240,19.250,-50.470,407,424,391,406,366,2025-05-23T21:54:41.978844
23834,0.0264,0.8316,0.0366,2.870,23.730,-60.130,398,375,374,414,386,2025-05-23T21:54:41.978852
23835,0.0220,0.8276,0.0102,2.870,17.150,-69.090,377,416,354,406,383,2025-05-23T21:54:41.978860
23836,-0.0229,0.8067,-0.0327,3.640,11.480,-73.500,396,349,369,395,384,2025-05-23T21:54:41.978868
23837,-0.1669,0.7774,-0.0312,5.040,17.010,-72.520,343,397,379,403,391,2025-05-23T21:54:41.978916
23838,-0.1952,0.7310,-0.0420,18.130,30.590,-80.570,381,424,389,350,360,2025-05-23T21:54:41.978926
23839,-0.2069,0.7003,-0.0517,28.280,28.630,-86.660,369,393,382,338,389,2025-05-23T21:54:41.978934
23840,-0.1684,0.6749,-0.0717,31.640,16.870,-90.440,384,351,385,391,400,2025-05-23T21:54:42.172321
23841,-0.2269,0.5358,-0.0102,35.280,20.160,-75.390,393,391,346,390,390,2025-05-23T21:54:42.172367
23842,-0.4080,0.6149,0.0883,31.780,26.320,-88.060,395,364,368,370,389,2025-05-23T21:54:42.172379
23843,-0.4211,0.5436,0.0259,77.770,72.240,-111.230,390,390,367,383,395,2025-05-23T21:54:42.172389
23844,-0.3450,0.5231,-0.0742,105.420,84.980,-116.060,398,404,379,384,366,2025-05-23T21:54:42.172402
23845,-0.3572,0.4050,-0.1020,94.290,63.490,-114.450,400,365,382,343,389,2025-05-23T21:54:42.172413
23846,-0.3518,0.3060,-0.1010,65.170,7.630,-121.170,424,375,387,333,380,2025-05-23T21:54:42.172423
23847,-0.3221,0.2308,-0.0937,63.630,-28.490,-138.740,427,404,393,377,386,2025-05-23T21:54:42.172433
23848,-0.2967,0.1854,-0.1103,87.780,-39.760,-156.100,426,415,395,378,397,2025-05-23T21:54:42.172443
23849,-0.2757,0.1488,-0.1015,102.410,-35.770,-173.670,414,403,379,405,388,2025-05-23T21:54:42.172457
23850,-0.2172,0.0756,-0.1010,104.860,-36.190,-196.910,416,358,376,411,397,2025-05-23T21:54:42.172467
23851,-0.2591,-0.0122,-0.1327,111.300,-40.250,-217.630,401,402,348,357,380,2025-05-23T21:54:42.172476
23852,-0.3719,-0.0942,-0.1308,126.700,-46.410,-240.520,350,397,369,379,388,2025-05-23T21:54:42.172485
23853,-0.5754,-0.1459,-0.1547,140.000,-48.020,-256.480,407,398,382,389,392,2025-05-23T21:54:42.172522
23854,-0.7076,-0.1293,-0.1645,139.580,-49.420,-272.650,359,396,378,408,411,2025-05-23T21:54:42.172531
23855,-0.7413,-0.1874,-0.2508,136.990,-54.740,-284.690,402,425,379,399,410,2025-05-23T21:54:42.172540
23856,-0.7749,-0.2245,-0.2723,143.570,-70.840,-298.620,407,418,372,353,400,2025-05-23T21:54:42.172550
23857,-0.8159,-0.2640,-0.3074,149.590,-82.180,-312.970,378,417,361,387,394,2025-05-23T21:54:42.225939
23858,-1.0346,-0.3572,-0.3743,154.770,-79.730,-323.470,414,417,374,387,399,2025-05-23T21:54:42.225987
23859,-1.2429,-0.4124,-0.4646,164.080,-73.780,-327.600,426,402,375,405,385,2025-05-23T21:54:42.225999
23860,-1.3752,-0.3338,-0.4900,169.120,-62.510,-334.530,417,407,372,411,375,2025-05-23T21:54:42.226010
23861,-1.4450,-0.2147,-0.5251,163.380,-52.640,-331.450,399,423,339,403,396,2025-05-23T21:54:42.379010
23862,-1.5865,-0.1069,-0.5900,153.440,-28.630,-325.500,356,390,353,405,395,2025-05-23T21:54:42.379384
23863,-1.7222,-0.0883,-0.6832,154.910,2.660,-309.680,401,384,328,414,401,2025-05-23T21:54:42.379410
23864,-1.7519,0.0503,-0.6573,162.050,11.200,-299.250,396,364,286,423,388,2025-05-23T21:54:42.379543
23865,-1.6104,0.1801,-0.6388,160.860,-4.620,-290.150,419,397,329,413,343,2025-05-23T21:54:42.379554
23866,-1.5211,0.3211,-0.6681,154.980,-43.750,-277.830,415,398,353,390,396,2025-05-23T21:54:42.379564
23867,-1.3923,0.5134,-0.7203,138.250,-56.700,-270.200,405,343,361,409,397,2025-05-23T21:54:42.379575
23868,-1.4093,0.6739,-0.8911,121.940,-30.590,-256.830,405,392,303,373,395,2025-05-23T21:54:42.379584
23869,-1.3937,1.1029,-1.0648,102.760,55.790,-237.300,396,366,350,301,388,2025-05-23T21:54:42.379594
23870,-1.4977,1.5621,-1.2249,110.740,159.600,-205.310,391,415,364,342,399,2025-05-23T21:54:42.379603
23871,-1.6470,2.2521,-1.4889,117.950,241.710,-167.650,403,429,366,390,411,2025-05-23T21:54:42.379611
23872,-1.7851,3.1647,-1.8890,104.300,300.440,-134.890,425,405,359,406,366,2025-05-23T21:54:42.379620
23873,-1.7656,3.8630,-2.6733,30.170,326.550,-110.180,400,406,373,350,351,2025-05-23T21:54:42.379630
23874,-2.4058,4.1426,-3.9284,-88.060,399.980,-54.880,417,407,337,368,351,2025-05-23T21:54:42.581612
23875,-4.2080,4.0538,-5.3885,-174.510,518.280,31.780,404,430,352,400,295,2025-05-23T21:54:42.581657
23876,-4.8473,3.7122,-6.2967,-288.540,562.730,153.160,395,412,339,401,361,2025-05-23T21:54:42.600637
23877,-4.6931,2.9509,-7.0443,-454.860,342.720,157.290,417,394,357,392,392,2025-05-23T21:54:42.600666
23878,-4.2290,1.5445,-7.6865,-635.880,167.370,206.710,389,397,362,406,392,2025-05-23T21:54:42.600675
23879,-3.9338,0.1484,-8.2135,-761.180,17.640,234.500,415,429,373,387,395,2025-05-23T21:54:42.600683
23880,-3.9347,-0.9999,-8.4361,-848.540,10.780,286.090,435,412,372,409,398,2025-05-23T21:54:42.600691
23881,-3.7752,-1.9818,-8.1760,-892.220,86.170,324.590,433,404,345,398,415,2025-05-23T21:54:42.600698
23882,-3.6766,-2.9031,-7.6914,-945.910,140.560,336.630,342,297,351,375,346,2025-05-23T21:54:42.600705
23883,-3.6380,-3.5565,-7.0545,-919.380,148.120,331.730,402,377,370,398,332,2025-05-23T21:54:42.600712
23884,-3.4750,-3.9469,-6.3298,-890.610,73.150,309.260,428,354,339,410,381,2025-05-23T21:54:42.600718
23885,-2.8714,-3.9953,-5.3836,-859.880,-50.610,305.900,398,349,364,374,397,2025-05-23T21:54:42.600724
23886,-1.9930,-4.2812,-4.6594,-805.700,-133.280,313.460,411,382,337,390,407,2025-05-23T21:54:42.600730
23887,-0.9628,-4.9913,-3.5160,-723.800,-178.920,320.250,424,396,363,393,393,2025-05-23T21:54:42.600773
23888,-0.4753,-5.6042,-2.6059,-621.390,-125.300,353.290,426,410,383,344,392,2025-05-23T21:54:42.600779
23889,-0.9823,-5.8072,-1.3693,-456.610,-27.090,257.670,380,354,374,376,408,2025-05-23T21:54:42.600786
23890,-0.5309,-5.3636,-0.8047,-367.990,144.900,192.360,386,403,374,412,374,2025-05-23T21:54:42.787238
23891,-0.1503,-5.0040,-0.5192,-239.050,97.440,105.910,395,415,385,392,392,2025-05-23T21:54:42.787290
23892,0.2045,-4.2095,-0.1347,-96.320,59.920,38.290,402,417,378,397,402,2025-05-23T21:54:42.787304
23893,0.1518,-3.3121,0.2660,-2.730,25.480,-4.480,408,307,377,396,392,2025-05-23T21:54:42.787317
23894,0.1469,-2.5674,0.3436,-14.000,-38.990,-35.840,389,397,369,384,401,2025-05-23T21:54:42.787329
23895,0.0678,-2.0418,0.3772,5.040,-34.230,-65.590,419,389,378,348,414,2025-05-23T21:54:42.787340
23896,-0.1113,-1.5270,0.3621,75.040,12.530,-88.200,422,410,347,372,424,2025-05-23T21:54:42.787351
23897,-0.4568,-0.9745,0.3802,129.640,59.640,-104.580,423,397,372,404,419,2025-05-23T21:54:42.787363
23898,-0.6773,-0.5061,0.3567,186.060,87.290,-109.970,422,413,370,405,411,2025-05-23T21:54:42.787374
23899,-0.8667,-0.0854,0.2879,231.560,100.520,-118.580,391,402,385,407,398,2025-05-23T21:54:42.787385
23900,-0.9038,0.2650,0.0766,220.080,52.990,-129.710,371,345,383,406,396,2025-05-23T21:54:42.787395
23901,-0.9804,0.4787,-0.0337,224.770,-0.840,-146.720,390,396,345,388,390,2025-05-23T21:54:42.787406
23902,-1.0673,0.7676,0.0107,241.290,-46.900,-158.900,412,358,370,413,386,2025-05-23T21:54:42.787416
23903,-1.1405,1.0399,-0.0210,241.080,-87.430,-164.150,416,405,367,413,395,2025-05-23T21:54:42.787426
23904,-1.1585,1.3074,-0.1440,244.160,-88.900,-164.780,389,393,373,416,401,2025-05-23T21:54:42.787471
23905,-1.1117,1.4411,-0.4333,260.470,-58.800,-162.540,412,403,371,407,401,2025-05-23T21:54:42.787481
23906,-1.0721,1.5714,-0.5846,277.690,-39.690,-157.290,343,407,385,408,407,2025-05-23T21:54:42.787492
23907,-1.0809,1.7051,-0.5841,286.720,-25.060,-158.130,394,413,376,410,397,2025-05-23T21:54:42.991539
23908,-1.1722,1.9178,-0.3675,256.060,-42.490,-163.030,393,389,372,407,402,2025-05-23T21:54:42.991748
23909,-1.2376,2.0354,-0.2777,191.800,-92.960,-161.560,416,358,372,410,400,2025-05-23T21:54:42.991765
23910,-1.1448,2.0296,-0.3206,140.770,-144.970,-156.940,406,393,374,418,410,2025-05-23T21:54:42.991780
23911,-0.9755,1.9876,-0.4080,130.830,-175.420,-137.690,405,421,381,427,358,2025-05-23T21:54:42.991794
23912,-0.7793,1.8949,-0.4738,149.940,-168.000,-105.910,405,404,340,404,338,2025-05-23T21:54:42.991807
23913,-0.5885,1.7685,-0.4880,163.800,-119.980,-75.110,421,419,322,411,328,2025-05-23T21:54:42.991821
23914,-0.5832,1.7056,-0.4338,169.050,-44.310,-49.840,407,424,351,406,364,2025-05-23T21:54:42.991834
23915,-0.6144,1.6860,-0.3167,142.240,-12.390,-26.460,366,427,322,400,300,2025-05-23T21:54:42.991847
23916,-0.6144,1.6011,-0.2733,103.460,-5.810,-14.840,399,415,360,359,356,2025-05-23T21:54:42.992066
23917,-0.5744,1.5675,-0.2811,71.680,-43.960,-8.890,355,404,343,396,385,2025-05-23T21:54:42.992090
23918,-0.4709,1.5294,-0.2738,60.830,-96.320,0.350,391,390,363,405,344,2025-05-23T21:54:42.992104
23919,-0.4133,1.4542,-0.2440,61.390,-131.110,12.320,351,387,372,395,381,2025-05-23T21:54:42.992118
23920,-0.2957,1.3576,-0.2045,53.270,-140.420,23.870,377,413,370,409,391,2025-05-23T21:54:42.992185
23921,-0.2313,1.2049,-0.2196,54.250,-111.370,34.580,384,401,387,413,403,2025-05-23T21:54:42.992200
23922,-0.2728,1.1156,-0.1981,61.600,-67.130,40.740,334,345,379,396,388,2025-05-23T21:54:42.992214
23923,-0.2972,1.0653,-0.1791,58.800,-44.520,45.850,361,390,386,413,400,2025-05-23T21:54:42.992226
23924,-0.3733,1.0121,-0.2172,49.980,-41.650,45.360,383,410,380,421,405,2025-05-23T21:54:43.196257
23925,-0.4011,1.0028,-0.2035,29.330,-64.120,36.960,402,426,381,410,358,2025-05-23T21:54:43.196304
23926,-0.3816,0.9579,-0.2181,12.320,-88.480,29.330,397,431,374,372,349,2025-05-23T21:54:43.196317
23927,-0.3572,0.8979,-0.2220,6.930,-97.510,24.080,420,314,387,374,390,2025-05-23T21:54:43.196328
23928,-0.3274,0.8511,-0.2167,5.950,-89.390,21.070,378,408,390,347,345,2025-05-23T21:54:43.196339
23929,-0.3270,0.8452,-0.1898,11.550,-63.070,19.950,392,392,382,379,381,2025-05-23T21:54:43.196352
23930,-0.3782,0.8667,-0.1537,16.380,-38.920,18.830,335,408,351,384,402,2025-05-23T21:54:43.196361
23931,-0.4372,0.8794,-0.1366,15.820,-29.330,17.570,329,421,365,400,395,2025-05-23T21:54:43.196370
23932,-0.4821,0.8935,-0.1391,10.640,-32.830,16.590,392,415,337,398,392,2025-05-23T21:54:43.196379
23933,-0.5026,0.8950,-0.1596,2.450,-43.960,14.280,408,425,353,345,404,2025-05-23T21:54:43.196388
23934,-0.4690,0.8652,-0.1815,1.540,-48.020,12.250,426,418,377,393,396,2025-05-23T21:54:43.196397
23935,-0.4002,0.8023,-0.1488,4.340,-44.940,11.830,422,385,382,413,406,2025-05-23T21:54:43.196407
23936,-0.4085,0.7857,-0.1566,8.540,-30.240,11.130,360,407,372,409,387,2025-05-23T21:54:43.196415
23937,-0.4285,0.8037,-0.1591,11.690,-12.390,10.290,408,411,374,415,395,2025-05-23T21:54:43.196424
23938,-0.4509,0.7974,-0.1566,9.380,-8.260,10.640,404,413,377,404,384,2025-05-23T21:54:43.196465
23939,-0.5002,0.8486,-0.1708,7.840,-11.900,11.270,399,396,380,417,386,2025-05-23T21:54:43.196475
23940,-0.5026,0.8755,-0.1684,3.080,-22.260,9.030,300,407,369,416,360,2025-05-23T21:54:43.196484
23941,-0.5153,0.8774,-0.1947,6.020,-25.690,7.420,353,393,364,313,376,2025-05-23T21:54:43.244868
23942,-0.5324,0.8867,-0.1981,9.730,-22.820,7.070,400,383,375,366,360,2025-05-23T21:54:43.244916
23943,-0.5100,0.8882,-0.1991,9.590,-20.160,8.820,421,399,380,378,391,2025-05-23T21:54:43.244928
23944,-0.4846,0.8725,-0.1952,7.350,-17.710,10.360,425,399,383,399,392,2025-05-23T21:54:43.244938
23945,-0.4509,0.8711,-0.1762,4.900,-13.930,9.730,405,408,391,396,390,2025-05-23T21:54:43.400259
23946,-0.4904,0.8457,-0.1728,2.940,-6.020,8.820,416,353,378,416,403,2025-05-23T21:54:43.400430
23947,-0.5324,0.8516,-0.1562,2.170,-0.630,7.700,415,406,391,389,406,2025-05-23T21:54:43.400444
23948,-0.5290,0.8613,-0.1435,-3.430,-2.380,7.070,426,407,394,395,411,2025-05-23T21:54:43.400454
23949,-0.5300,0.8608,-0.1547,-8.960,-11.760,5.530,403,418,399,391,396,2025-05-23T21:54:43.400464
23950,-0.5119,0.8589,-0.1649,-10.500,-18.060,7.000,433,416,403,401,394,2025-05-23T21:54:43.400473
23951,-0.4992,0.8418,-0.1708,-9.100,-16.590,6.790,404,303,378,408,411,2025-05-23T21:54:43.400481
23952,-0.5017,0.8355,-0.1728,-5.250,-6.090,7.350,410,283,367,419,410,2025-05-23T21:54:43.400490
23953,-0.5212,0.8242,-0.1669,-1.890,1.190,8.750,351,379,377,416,400,2025-05-23T21:54:43.400500
23954,-0.5461,0.8296,-0.1537,-1.400,2.450,9.520,408,415,375,394,390,2025-05-23T21:54:43.400508
23955,-0.5539,0.8364,-0.1405,-4.060,-3.570,9.660,367,394,352,398,365,2025-05-23T21:54:43.400516
23956,-0.5524,0.8247,-0.1474,-5.880,-10.920,9.100,329,412,365,347,371,2025-05-23T21:54:43.400524
23957,-0.5285,0.8340,-0.1352,-4.830,-13.020,8.120,378,430,378,394,399,2025-05-23T21:54:43.400532
23958,-0.5100,0.8364,-0.1410,-3.850,-12.180,6.300,413,426,391,394,402,2025-05-23T21:54:43.610781
23959,-0.5007,0.8296,-0.1596,0.560,-5.530,4.970,380,365,383,389,406,2025-05-23T21:54:43.610824
23960,-0.5026,0.8423,-0.1459,4.550,-0.630,4.340,395,400,386,398,407,2025-05-23T21:54:43.610835
23961,-0.5017,0.8491,-0.1332,6.160,-0.350,4.340,412,351,391,398,407,2025-05-23T21:54:43.610844
23962,-0.5114,0.8579,-0.1215,3.990,-2.380,3.010,409,401,350,367,409,2025-05-23T21:54:43.610853
23963,-0.5290,0.8657,-0.1152,0.000,-6.300,1.470,419,386,374,392,393,2025-05-23T21:54:43.610862
23964,-0.5427,0.8823,-0.1152,-2.590,-11.620,0.490,409,399,385,341,399,2025-05-23T21:54:43.610907
23965,-0.5422,0.8886,-0.1249,-5.600,-18.060,-0.140,399,394,348,389,393,2025-05-23T21:54:43.610917
23966,-0.5427,0.8847,-0.1347,-8.680,-22.680,-0.140,414,418,361,403,389,2025-05-23T21:54:43.610926
23967,-0.5246,0.8872,-0.1435,-11.270,-22.050,1.050,344,367,362,377,399,2025-05-23T21:54:43.610934
23968,-0.5222,0.8945,-0.1527,-13.440,-16.870,2.380,394,392,370,407,391,2025-05-23T21:54:43.610942
23969,-0.5295,0.8877,-0.1547,-14.000,-13.090,2.870,339,410,342,400,311,2025-05-23T21:54:43.610953
23970,-0.5285,0.8867,-0.1474,-15.470,-12.180,3.500,398,375,367,402,382,2025-05-23T21:54:43.610961
23971,-0.5339,0.8760,-0.1459,-18.760,-17.710,4.410,389,389,369,395,398,2025-05-23T21:54:43.610970
23972,-0.5192,0.8667,-0.1459,-20.580,-23.730,5.460,410,418,336,393,390,2025-05-23T21:54:43.611008
23973,-0.4929,0.8530,-0.1454,-19.390,-26.670,6.300,423,397,365,413,402,2025-05-23T21:54:43.611016
23974,-0.4768,0.8408,-0.1405,-16.800,-24.360,6.650,426,417,376,416,357,2025-05-23T21:54:43.611024
23975,-0.4602,0.8355,-0.1371,-12.110,-20.160,6.650,413,420,379,417,392,2025-05-23T21:54:43.611031
23976,-0.4514,0.8311,-0.1293,-9.030,-15.330,6.860,370,406,384,417,408,2025-05-23T21:54:43.812425
23977,-0.4670,0.8203,-0.1362,-4.480,-11.970,6.580,387,390,356,417,392,2025-05-23T21:54:43.812493
23978,-0.4612,0.8233,-0.1318,-1.050,-8.890,7.070,396,420,367,393,412,2025-05-23T21:54:43.812510
23979,-0.4582,0.8306,-0.1313,-0.630,-7.490,7.280,420,354,366,399,415,2025-05-23T21:54:43.812526
23980,-0.4792,0.8233,-0.1410,-1.120,-5.250,7.070,399,411,363,401,353,2025-05-23T21:54:43.812540
23981,-0.4646,0.8413,-0.1386,-2.030,-5.180,6.510,403,414,337,389,334,2025-05-23T21:54:43.812556
23982,-0.4470,0.8394,-0.1381,-2.030,-5.320,5.810,415,396,356,417,359,2025-05-23T21:54:43.812571
23983,-0.4529,0.8369,-0.1430,0.420,-3.290,4.900,397,420,369,420,380,2025-05-23T21:54:43.812587
23984,-0.4524,0.8501,-0.1171,2.100,-1.540,4.270,397,408,340,399,339,2025-05-23T21:54:43.812600
23985,-0.4397,0.8613,-0.0961,2.590,-1.330,1.960,380,405,365,389,385,2025-05-23T21:54:43.812618
23986,-0.4538,0.8638,-0.0883,2.660,-2.030,-0.140,411,423,364,404,392,2025-05-23T21:54:43.812631
23987,-0.4890,0.8789,-0.0717,3.640,-4.270,-0.910,395,429,370,414,404,2025-05-23T21:54:43.812645
23988,-0.5222,0.9067,-0.0610,3.710,-7.420,-1.120,404,423,337,395,405,2025-05-23T21:54:43.812661
23989,-0.5456,0.9252,-0.0542,2.450,-12.460,-1.610,408,433,349,385,399,2025-05-23T21:54:43.812672
23990,-0.5617,0.9087,-0.0527,-0.490,-17.430,-2.170,427,420,374,408,389,2025-05-23T21:54:43.812723
23991,-0.5592,0.8896,-0.0478,-3.010,-23.660,-2.100,349,400,338,398,391,2025-05-23T21:54:43.812736
23992,-0.5461,0.8838,-0.0498,-4.480,-24.500,-2.240,397,403,316,366,394,2025-05-23T21:54:43.812748
23993,-0.5314,0.8823,-0.0503,-3.780,-17.570,-1.680,397,400,358,395,390,2025-05-23T21:54:43.862280
23994,-0.5148,0.8965,-0.0498,-3.080,-8.750,-0.840,353,396,334,410,395,2025-05-23T21:54:43.862333
23995,-0.5236,0.9033,-0.0566,-3.710,-3.920,-0.490,377,410,330,416,396,2025-05-23T21:54:43.862347
23996,-0.5285,0.8960,-0.0791,-5.110,-4.060,-0.490,394,419,349,418,393,2025-05-23T21:54:43.862360
23997,-0.5231,0.8921,-0.0956,-7.490,-10.150,-0.770,396,354,359,404,359,2025-05-23T21:54:43.913745
23998,-0.5275,0.8852,-0.1088,-10.640,-17.570,-1.050,409,405,362,406,383,2025-05-23T21:54:43.913793
23999,-0.5290,0.8725,-0.1215,-11.830,-19.600,-0.280,339,424,375,409,406,2025-05-23T21:54:43.913806
24000,-0.5261,0.8477,-0.1308,-13.160,-19.390,1.050,401,418,390,400,396,2025-05-23T21:54:43.913816
24001,-0.5061,0.8355,-0.1274,-13.090,-17.920,1.470,411,424,351,409,392,2025-05-23T21:54:44.024765
24002,-0.4817,0.8262,-0.1127,-12.810,-16.590,1.890,417,414,326,401,398,2025-05-23T21:54:44.024809
24003,-0.4665,0.8233,-0.1010,-12.040,-13.860,2.310,399,411,349,386,398,2025-05-23T21:54:44.024821
24004,-0.4485,0.8257,-0.0981,-10.290,-8.680,2.450,418,387,362,375,388,2025-05-23T21:54:44.024831
24005,-0.4441,0.8316,-0.0981,-9.380,-4.970,1.470,414,360,337,398,349,2025-05-23T21:54:44.024843
24006,-0.4441,0.8364,-0.0981,-7.910,-4.900,0.350,394,337,349,394,390,2025-05-23T21:54:44.024853
24007,-0.4524,0.8267,-0.0996,-6.510,-7.350,-0.420,378,403,358,307,379,2025-05-23T21:54:44.024862
24008,-0.4636,0.8247,-0.0966,-2.800,-10.710,-0.560,335,416,331,376,407,2025-05-23T21:54:44.024871
24009,-0.4675,0.8325,-0.0800,0.350,-9.380,-0.770,384,407,357,412,408,2025-05-23T21:54:44.024880
24010,-0.4612,0.8291,-0.0742,2.100,-4.340,-1.610,419,393,357,415,404,2025-05-23T21:54:44.220690
24011,-0.4636,0.8257,-0.0625,2.800,2.380,-1.960,402,363,366,399,392,2025-05-23T21:54:44.220813
24012,-0.4719,0.8330,-0.0551,3.150,4.970,-2.100,400,415,368,397,385,2025-05-23T21:54:44.220826
24013,-0.4992,0.8364,-0.0639,3.710,5.250,-2.450,385,398,342,351,345,2025-05-23T21:54:44.220837
24014,-0.5231,0.8491,-0.0654,4.900,1.330,-2.730,383,417,352,393,377,2025-05-23T21:54:44.220847
24015,-0.5148,0.8594,-0.0610,5.110,-2.380,-2.520,401,399,364,415,377,2025-05-23T21:54:44.220857
24016,-0.5226,0.8603,-0.0639,5.600,-4.550,-2.240,415,346,367,413,401,2025-05-23T21:54:44.220868
24017,-0.5236,0.8589,-0.0537,6.370,-3.220,-1.750,411,405,376,360,403,2025-05-23T21:54:44.220879
24018,-0.5202,0.8657,-0.0488,6.090,-2.730,-1.260,420,419,370,341,399,2025-05-23T21:54:44.220888
24019,-0.5236,0.8569,-0.0576,5.110,-2.520,-1.680,347,410,348,332,404,2025-05-23T21:54:44.220897
24020,-0.5129,0.8652,-0.0615,5.110,-3.150,-1.400,398,424,360,383,391,2025-05-23T21:54:44.220906
24021,-0.5100,0.8789,-0.0576,5.110,-3.080,-1.750,393,406,367,405,403,2025-05-23T21:54:44.220914
24022,-0.5163,0.8838,-0.0625,5.110,-1.470,-2.100,412,354,384,413,403,2025-05-23T21:54:44.220923
24023,-0.5256,0.8828,-0.0722,4.410,-1.050,-2.170,426,383,387,406,414,2025-05-23T21:54:44.220935
24024,-0.5109,0.8799,-0.0771,3.080,-3.640,-1.960,399,401,368,355,399,2025-05-23T21:54:44.220974
24025,-0.5026,0.8730,-0.0766,1.260,-6.370,-2.030,343,410,377,382,397,2025-05-23T21:54:44.220984
24026,-0.5187,0.8574,-0.0888,0.840,-5.600,-2.100,402,360,388,356,398,2025-05-23T21:54:44.220994
24027,-0.5222,0.8647,-0.0869,2.310,-3.010,-1.330,379,402,383,400,397,2025-05-23T21:54:44.425779
24028,-0.5109,0.8774,-0.0810,1.470,-2.520,-0.700,396,424,377,409,408,2025-05-23T21:54:44.425830
24029,-0.5031,0.8716,-0.0766,0.770,-3.850,-0.420,422,409,385,412,399,2025-05-23T21:54:44.425844
24030,-0.4904,0.8740,-0.0732,0.140,-4.830,-0.840,408,405,386,406,411,2025-05-23T21:54:44.425972
24031,-0.4929,0.8745,-0.0805,1.400,-2.870,-0.560,414,408,350,421,402,2025-05-23T21:54:44.425983
24032,-0.4900,0.8838,-0.0849,2.450,-1.120,0.770,397,346,345,356,413,2025-05-23T21:54:44.425993
24033,-0.4831,0.8877,-0.0859,1.470,0.280,1.050,399,412,369,382,408,2025-05-23T21:54:44.426006
24034,-0.4773,0.8833,-0.0766,0.770,0.420,0.770,413,409,372,383,355,2025-05-23T21:54:44.426016
24035,-0.4778,0.8784,-0.0712,0.140,-0.980,0.350,417,403,367,404,373,2025-05-23T21:54:44.426063
24036,-0.4900,0.8696,-0.0703,1.400,-0.910,0.280,344,413,339,391,382,2025-05-23T21:54:44.426073
24037,-0.5022,0.8672,-0.0737,1.610,-0.980,0.210,328,353,365,391,400,2025-05-23T21:54:44.426082
24038,-0.5109,0.8657,-0.0732,1.190,-0.420,0.280,373,399,365,406,357,2025-05-23T21:54:44.426091
24039,-0.5217,0.8706,-0.0722,0.840,-0.770,1.330,401,389,370,354,395,2025-05-23T21:54:44.426100
24040,-0.5144,0.8730,-0.0732,1.330,-0.210,2.520,391,395,371,396,405,2025-05-23T21:54:44.426108
24041,-0.5051,0.8721,-0.0722,1.050,0.210,2.870,409,392,384,407,407,2025-05-23T21:54:44.426151
24042,-0.5056,0.8721,-0.0771,1.750,1.540,2.450,392,424,391,410,399,2025-05-23T21:54:44.426161
24043,-0.5051,0.8764,-0.0815,1.750,1.470,2.170,421,402,392,399,409,2025-05-23T21:54:44.426170
24044,-0.5022,0.8789,-0.0761,0.770,0.280,2.310,390,409,388,395,387,2025-05-23T21:54:44.629128
24045,-0.5046,0.8789,-0.0712,-1.330,-1.540,1.540,391,408,391,390,409,2025-05-23T21:54:44.629177
24046,-0.5114,0.8735,-0.0683,-2.310,-2.590,0.840,410,427,381,404,402,2025-05-23T21:54:44.629190
24047,-0.5095,0.8740,-0.0634,-2.520,-2.940,0.490,408,403,386,421,385,2025-05-23T21:54:44.629202
24048,-0.5187,0.8677,-0.0644,-2.450,-2.660,0.770,342,356,382,407,392,2025-05-23T21:54:44.629212
24049,-0.5163,0.8628,-0.0630,-1.750,-2.450,1.050,404,404,361,403,348,2025-05-23T21:54:44.629226
24050,-0.5046,0.8662,-0.0698,-1.750,-2.660,1.400,345,414,332,391,331,2025-05-23T21:54:44.629237
24051,-0.4914,0.8633,-0.0698,-1.120,-3.150,1.750,381,399,363,378,328,2025-05-23T21:54:44.629247
24052,-0.4782,0.8696,-0.0683,-1.820,-3.150,1.190,377,414,366,403,375,2025-05-23T21:54:44.629256
24053,-0.4748,0.8667,-0.0683,-2.940,-3.850,0.420,404,390,383,412,387,2025-05-23T21:54:44.629265
24054,-0.4753,0.8633,-0.0698,-3.360,-3.500,-0.350,406,431,385,397,395,2025-05-23T21:54:44.629273
24055,-0.4768,0.8618,-0.0722,-3.010,-3.430,-1.400,421,399,370,396,406,2025-05-23T21:54:44.629284
24056,-0.4997,0.8633,-0.0737,-2.380,-2.310,-1.540,405,410,373,350,394,2025-05-23T21:54:44.629293
24057,-0.5100,0.8638,-0.0781,-1.750,-2.520,-1.330,362,436,384,374,363,2025-05-23T21:54:44.629302
24058,-0.5104,0.8613,-0.0830,-1.330,-2.660,-1.120,405,425,377,383,395,2025-05-23T21:54:44.629341
24059,-0.5051,0.8657,-0.0810,-0.770,-3.500,-0.700,338,401,380,362,397,2025-05-23T21:54:44.629351
24060,-0.5022,0.8701,-0.0761,-0.840,-3.220,-0.070,394,384,373,331,381,2025-05-23T21:54:44.629360
24061,-0.4860,0.8716,-0.0693,-1.610,-2.800,-0.140,406,419,380,347,396,2025-05-23T21:54:44.676927
24062,-0.4856,0.8686,-0.0727,-2.310,-2.800,-1.050,371,411,369,365,399,2025-05-23T21:54:44.676975
24063,-0.4821,0.8730,-0.0791,-1.400,-3.850,-1.050,404,404,380,380,414,2025-05-23T21:54:44.676987
24064,-0.4753,0.8808,-0.0708,-0.840,-4.480,-1.050,431,421,386,365,388,2025-05-23T21:54:44.676997
24065,-0.4719,0.8779,-0.0669,-2.100,-3.290,-1.330,381,421,381,330,385,2025-05-23T21:54:44.728677
24066,-0.4909,0.8628,-0.0722,-2.520,-0.490,-2.100,406,431,381,369,395,2025-05-23T21:54:44.728743
24067,-0.4982,0.8613,-0.0776,-1.540,0.210,-2.170,409,412,346,379,386,2025-05-23T21:54:44.728759
24068,-0.4929,0.8682,-0.0693,-1.120,-0.840,-1.470,352,422,380,396,403,2025-05-23T21:54:44.728773
24069,-0.5056,0.8662,-0.0683,-1.820,-1.330,-1.610,406,375,374,399,401,2025-05-23T21:54:44.834781
24070,-0.5183,0.8662,-0.0737,-1.050,0.140,-1.540,403,393,371,394,410,2025-05-23T21:54:44.834833
24071,-0.5163,0.8750,-0.0698,0.000,0.420,-0.560,349,396,385,410,417,2025-05-23T21:54:44.834848
24072,-0.5109,0.8760,-0.0669,0.910,-1.260,-0.630,372,356,313,396,410,2025-05-23T21:54:44.834859
24073,-0.5070,0.8745,-0.0620,-0.070,-2.660,-0.980,402,339,334,387,353,2025-05-23T21:54:44.834870
24074,-0.5104,0.8721,-0.0688,-1.470,-3.570,-0.910,421,413,364,406,395,2025-05-23T21:54:44.834880
24075,-0.5056,0.8608,-0.0766,-1.400,-2.940,-0.630,410,430,346,365,386,2025-05-23T21:54:44.834889
24076,-0.5061,0.8574,-0.0805,-0.840,-2.660,-0.700,360,404,367,397,403,2025-05-23T21:54:44.852153
24077,-0.5070,0.8608,-0.0717,-1.260,-1.960,-0.490,394,419,368,404,398,2025-05-23T21:54:44.852182
24078,-0.5026,0.8599,-0.0673,-2.590,-2.030,-0.210,427,349,370,411,403,2025-05-23T21:54:44.852192
24079,-0.5046,0.8569,-0.0722,-2.030,-1.540,-0.840,407,404,381,416,353,2025-05-23T21:54:45.038907
24080,-0.4939,0.8667,-0.0688,-1.050,-2.240,-1.120,421,421,383,393,375,2025-05-23T21:54:45.038956
24081,-0.4856,0.8740,-0.0625,-0.630,-2.100,-1.400,414,422,387,384,398,2025-05-23T21:54:45.038969
24082,-0.4870,0.8730,-0.0590,-0.630,-1.260,-2.030,360,390,386,387,397,2025-05-23T21:54:45.038979
24083,-0.5056,0.8657,-0.0712,0.140,-0.280,-2.380,379,391,371,397,400,2025-05-23T21:54:45.039117
24084,-0.5139,0.8677,-0.0703,1.680,-0.840,-1.750,359,411,381,408,406,2025-05-23T21:54:45.039129
24085,-0.5212,0.8721,-0.0678,1.470,-2.310,-1.400,414,418,387,395,396,2025-05-23T21:54:45.039141
24086,-0.5222,0.8721,-0.0649,0.420,-3.640,-1.260,402,355,384,349,386,2025-05-23T21:54:45.039151
24087,-0.5192,0.8721,-0.0620,-0.420,-3.290,-0.840,415,404,379,387,402,2025-05-23T21:54:45.039160
24088,-0.5095,0.8711,-0.0551,-0.840,-3.430,-0.560,375,423,377,384,412,2025-05-23T21:54:45.039170
24089,-0.4992,0.8682,-0.0595,-1.190,-3.990,-0.770,396,427,370,385,389,2025-05-23T21:54:45.039179
24090,-0.4973,0.8608,-0.0698,-1.470,-4.760,-1.260,399,422,373,379,407,2025-05-23T21:54:45.039187
24091,-0.4953,0.8613,-0.0722,-0.980,-5.530,-1.540,410,433,377,397,405,2025-05-23T21:54:45.039196
24092,-0.4919,0.8633,-0.0742,-0.280,-5.600,-2.030,413,423,387,404,414,2025-05-23T21:54:45.039204
24093,-0.4904,0.8642,-0.0747,-0.210,-4.200,-2.310,345,429,374,412,397,2025-05-23T21:54:45.039250
24094,-0.4978,0.8677,-0.0761,-0.210,-1.120,-1.890,396,423,382,404,389,2025-05-23T21:54:45.039259
24095,-0.5051,0.8730,-0.0717,0.490,0.910,-1.470,383,402,388,359,394,2025-05-23T21:54:45.039270
24096,-0.5095,0.8789,-0.0634,0.770,0.910,-1.400,407,420,397,329,389,2025-05-23T21:54:45.243935
24097,-0.5178,0.8745,-0.0669,0.350,-1.330,-1.120,405,420,397,326,397,2025-05-23T21:54:45.243984
24098,-0.5163,0.8784,-0.0649,-0.770,-3.500,-0.490,388,308,393,324,417,2025-05-23T21:54:45.244461
24099,-0.5129,0.8735,-0.0654,-1.540,-4.340,-0.070,333,380,360,383,419,2025-05-23T21:54:45.244474
24100,-0.5226,0.8638,-0.0747,-1.470,-3.570,0.000,380,351,371,401,402,2025-05-23T21:54:45.244486
24101,-0.5129,0.8682,-0.0830,-0.350,-2.940,1.190,409,416,389,388,361,2025-05-23T21:54:45.244497
24102,-0.5075,0.8730,-0.0815,-1.120,-3.780,1.330,423,418,383,403,391,2025-05-23T21:54:45.244510
24103,-0.4987,0.8667,-0.0825,-1.470,-4.200,1.120,403,428,313,393,390,2025-05-23T21:54:45.244520
24104,-0.4982,0.8603,-0.0805,-1.260,-2.940,0.630,424,375,342,359,405,2025-05-23T21:54:45.244530
24105,-0.4948,0.8628,-0.0781,-0.630,-1.260,0.560,415,415,364,363,404,2025-05-23T21:54:45.244541
24106,-0.5046,0.8667,-0.0673,-0.490,-1.400,0.420,396,366,370,378,410,2025-05-23T21:54:45.244551
24107,-0.4997,0.8672,-0.0673,-1.610,-2.660,0.210,390,413,375,392,419,2025-05-23T21:54:45.244564
24108,-0.5002,0.8608,-0.0669,-2.240,-3.710,-0.140,402,402,390,388,414,2025-05-23T21:54:45.244574
24109,-0.4987,0.8579,-0.0712,-1.050,-3.710,0.140,425,405,391,399,411,2025-05-23T21:54:45.244584
24110,-0.4973,0.8633,-0.0698,0.000,-2.170,0.140,344,351,388,400,411,2025-05-23T21:54:45.244628
24111,-0.4987,0.8603,-0.0708,-0.490,-1.260,-0.280,387,381,380,409,415,2025-05-23T21:54:45.244638
24112,-0.5085,0.8599,-0.0742,-0.770,-0.980,-0.560,407,410,378,420,377,2025-05-23T21:54:45.244648
24113,-0.5056,0.8682,-0.0727,-1.050,-3.220,-0.210,400,355,373,408,404,2025-05-23T21:54:45.449622
24114,-0.4904,0.8706,-0.0708,-1.610,-4.480,-0.280,418,412,384,414,399,2025-05-23T21:54:45.449675
24115,-0.4997,0.8633,-0.0722,-1.470,-3.430,-0.980,431,406,383,414,353,2025-05-23T21:54:45.449809
24116,-0.5022,0.8662,-0.0732,-0.350,-1.190,-1.190,416,410,385,412,345,2025-05-23T21:54:45.449822
24117,-0.5002,0.8721,-0.0683,0.350,-0.840,-0.770,403,408,350,354,385,2025-05-23T21:54:45.449835
24118,-0.4997,0.8686,-0.0630,-0.980,-2.730,-0.770,425,402,339,392,309,2025-05-23T21:54:45.449849
24119,-0.5085,0.8560,-0.0717,-0.980,-3.010,-0.910,413,405,351,409,373,2025-05-23T21:54:45.449983
24120,-0.5129,0.8608,-0.0693,0.000,-3.010,-0.350,418,413,378,361,378,2025-05-23T21:54:45.449997
24121,-0.5022,0.8662,-0.0683,0.350,-2.800,-0.210,406,357,376,405,385,2025-05-23T21:54:45.450009
24122,-0.5022,0.8633,-0.0708,-0.560,-2.310,-0.140,416,344,383,401,390,2025-05-23T21:54:45.450021
24123,-0.5046,0.8642,-0.0742,-0.420,-1.470,-0.280,369,412,389,348,402,2025-05-23T21:54:45.450032
24124,-0.5090,0.8711,-0.0693,-0.280,-1.540,-0.210,393,390,392,351,392,2025-05-23T21:54:45.450044
24125,-0.5104,0.8672,-0.0737,-0.280,-3.150,-0.210,377,413,392,397,392,2025-05-23T21:54:45.450055
24126,-0.5012,0.8686,-0.0698,-1.050,-3.920,-0.210,417,423,394,367,401,2025-05-23T21:54:45.450067
24127,-0.4943,0.8652,-0.0659,-1.750,-4.340,-0.560,409,426,352,349,399,2025-05-23T21:54:45.450124
24128,-0.4968,0.8628,-0.0605,-0.770,-3.920,-0.420,410,428,329,372,358,2025-05-23T21:54:45.450135
24129,-0.4943,0.8686,-0.0566,0.140,-3.010,-0.700,395,420,364,408,389,2025-05-23T21:54:45.450148
24130,-0.4963,0.8725,-0.0615,0.350,-2.380,-0.980,384,408,385,396,392,2025-05-23T21:54:45.658263
24131,-0.5090,0.8740,-0.0590,0.350,-2.660,-1.050,404,432,339,409,383,2025-05-23T21:54:45.658314
24132,-0.5178,0.8745,-0.0561,0.280,-5.320,-1.050,393,411,359,400,399,2025-05-23T21:54:45.658321
24133,-0.5139,0.8662,-0.0537,-0.280,-7.070,-0.420,392,376,341,399,407,2025-05-23T21:54:45.658327
24134,-0.5051,0.8516,-0.0503,-1.260,-8.190,-0.490,412,364,330,412,413,2025-05-23T21:54:45.658332
24135,-0.4880,0.8350,-0.0425,-0.490,-7.770,-0.420,398,415,344,361,399,2025-05-23T21:54:45.658337
24136,-0.4773,0.8179,-0.0361,0.630,-6.790,-1.260,339,340,354,380,410,2025-05-23T21:54:45.658343
24137,-0.4807,0.7828,-0.0371,1.400,-6.160,-3.570,392,385,359,387,409,2025-05-23T21:54:45.658348
24138,-0.4758,0.7110,-0.0137,4.340,-9.170,-7.490,337,406,382,356,363,2025-05-23T21:54:45.658353
24139,-0.4494,0.5163,0.0117,2.030,-18.620,-12.180,378,402,377,395,375,2025-05-23T21:54:45.658358
24140,-0.3904,0.4778,0.0337,3.080,-24.010,-23.520,381,399,376,389,397,2025-05-23T21:54:45.658363
24141,-0.3592,0.3060,0.0654,6.090,-26.810,-39.760,391,396,379,402,417,2025-05-23T21:54:45.658369
24142,-0.3416,0.1401,0.0795,13.300,-26.040,-60.060,393,404,384,352,359,2025-05-23T21:54:45.658373
24143,-0.3182,-0.0088,0.1069,28.700,-28.070,-82.950,412,370,342,374,380,2025-05-23T21:54:45.658378
24144,-0.2933,-0.1464,0.1610,42.910,-34.580,-101.920,378,348,359,374,388,2025-05-23T21:54:45.658401
24145,-0.2655,-0.2845,0.2176,54.880,-42.140,-128.730,391,398,366,359,386,2025-05-23T21:54:45.658406
24146,-0.2943,-0.4607,0.2650,72.310,-45.640,-161.490,415,418,368,359,387,2025-05-23T21:54:45.658411
24147,-0.3387,-0.5890,0.2874,71.890,-55.720,-200.620,423,413,380,359,411,2025-05-23T21:54:45.858784
24148,-0.4636,-0.7247,0.2464,116.480,-55.370,-244.160,418,433,376,386,361,2025-05-23T21:54:45.858839
24149,-0.5290,-0.7818,0.1981,156.870,-51.310,-280.700,411,397,380,364,341,2025-05-23T21:54:45.858854
24150,-0.6344,-0.8379,0.1108,167.440,-31.360,-308.980,389,401,389,383,366,2025-05-23T21:54:45.858867
24151,-0.7950,-0.8882,0.0205,185.500,-2.520,-328.160,424,424,359,400,345,2025-05-23T21:54:45.858879
24152,-1.0370,-0.8877,-0.1049,200.270,30.800,-339.010,396,384,379,392,381,2025-05-23T21:54:45.858891
24153,-1.3230,-0.9170,-0.2689,216.720,54.110,-349.090,403,420,387,394,342,2025-05-23T21:54:45.858907
24154,-1.5582,-0.9662,-0.4016,234.430,50.680,-374.500,305,404,378,396,382,2025-05-23T21:54:45.858918
24155,-1.5040,-0.9687,-0.4397,243.250,11.200,-389.410,335,409,385,402,408,2025-05-23T21:54:45.858929
24156,-1.3874,-0.9765,-0.4704,234.500,-42.560,-394.170,285,410,386,415,355,2025-05-23T21:54:45.858940
24157,-1.3732,-1.0785,-0.5695,224.560,-53.270,-403.620,365,420,382,367,387,2025-05-23T21:54:45.858951
24158,-1.6089,-1.1600,-0.8281,226.100,-1.820,-407.470,404,437,389,386,404,2025-05-23T21:54:45.858963
24159,-1.7202,-1.1980,-1.0282,222.810,36.400,-417.760,363,421,388,414,401,2025-05-23T21:54:45.858974
24160,-1.9178,-1.1322,-1.2342,238.140,63.700,-415.450,399,433,387,405,392,2025-05-23T21:54:45.859023
24161,-2.0877,-0.7935,-1.2498,275.380,51.800,-403.480,406,364,392,408,365,2025-05-23T21:54:45.859037
24162,-2.1711,-0.5251,-1.1849,271.740,22.330,-383.880,392,403,390,376,392,2025-05-23T21:54:45.859049
24163,-2.1526,-0.1152,-1.1639,243.390,14.490,-344.540,413,408,395,390,371,2025-05-23T21:54:45.859061
24164,-2.3053,0.3680,-1.1634,202.510,52.780,-300.790,396,425,398,392,300,2025-05-23T21:54:45.909657
24165,-2.4161,0.8511,-1.2586,147.210,96.390,-254.590,351,425,397,403,356,2025-05-23T21:54:45.909707
24166,-2.4361,1.1961,-1.4904,131.740,113.610,-201.950,380,433,392,415,381,2025-05-23T21:54:45.909720
24167,-2.3483,1.4821,-1.7392,121.800,100.590,-143.850,404,442,363,398,402,2025-05-23T21:54:45.909732
24168,-2.3897,1.8407,-1.8798,138.600,90.300,-99.120,416,396,343,350,400,2025-05-23T21:54:45.958953
24169,-2.3278,2.2424,-1.8720,113.190,72.940,-46.410,381,393,369,392,411,2025-05-23T21:54:45.959005
24170,-2.4947,2.5366,-1.9862,36.470,72.940,-3.360,389,391,380,395,390,2025-05-23T21:54:45.959018
24171,-2.6118,2.6264,-2.1936,-81.340,59.640,37.100,423,394,377,404,391,2025-05-23T21:54:45.959029
24172,-2.3912,2.6269,-2.4463,-172.830,62.860,67.550,423,400,347,383,391,2025-05-23T21:54:46.063657
24173,-2.4298,2.3873,-2.9607,-211.260,76.230,114.870,344,419,361,397,391,2025-05-23T21:54:46.063697
24174,-2.5566,2.1565,-3.1764,-218.540,99.540,157.010,386,359,377,396,406,2025-05-23T21:54:46.063707
24175,-2.5840,1.7949,-3.7088,-257.950,157.010,191.450,341,335,369,388,394,2025-05-23T21:54:46.063715
24176,-3.3648,1.2668,-4.9561,-333.970,271.880,234.920,330,404,380,385,406,2025-05-23T21:54:46.063723
24177,-4.1475,0.6320,-6.5158,-439.810,436.800,281.540,383,420,376,346,412,2025-05-23T21:54:46.063731
24178,-4.5794,-0.0547,-7.5952,-573.370,520.940,299.250,363,414,376,399,419,2025-05-23T21:54:46.063739
24179,-4.4901,-0.9618,-8.0198,-721.840,428.470,285.460,385,420,377,403,406,2025-05-23T21:54:46.063746
24180,-3.9918,-2.1340,-7.9588,-826.070,220.710,270.130,411,347,365,389,405,2025-05-23T21:54:46.063756
24181,-3.4711,-3.0861,-7.6987,-981.190,11.200,261.590,413,325,377,409,393,2025-05-23T21:54:46.267770
24182,-3.0246,-3.5595,-7.2053,-1050.140,-45.430,286.090,396,287,335,387,409,2025-05-23T21:54:46.267815
24183,-3.1588,-3.8572,-6.9267,-999.250,10.920,315.840,399,369,357,383,389,2025-05-23T21:54:46.267829
24184,-2.8665,-4.2827,-6.2118,-866.810,104.160,324.940,399,412,368,347,343,2025-05-23T21:54:46.267841
24185,-2.4195,-4.5120,-5.1757,-817.530,94.500,288.050,392,386,369,380,333,2025-05-23T21:54:46.267855
24186,-2.3883,-4.3749,-3.7644,-752.290,15.400,254.870,388,407,365,384,390,2025-05-23T21:54:46.267865
24187,-2.5044,-4.2622,-2.8934,-649.530,-30.660,267.330,389,410,375,401,403,2025-05-23T21:54:46.267876
24188,-1.5484,-4.6267,-2.1940,-625.100,-188.440,292.320,397,398,376,353,397,2025-05-23T21:54:46.267887
24189,-0.6588,-4.7424,-1.9652,-542.500,-2.730,288.890,400,407,375,395,392,2025-05-23T21:54:46.267897
24190,-0.5124,-4.1539,-1.6109,-454.790,125.650,235.480,374,404,376,394,389,2025-05-23T21:54:46.267908
24191,-0.4914,-3.4824,-1.2971,-338.030,124.810,176.890,404,352,387,405,395,2025-05-23T21:54:46.267917
24192,-0.0034,-3.4150,-0.7218,-260.400,89.250,114.100,398,388,345,411,401,2025-05-23T21:54:46.267928
24193,0.4514,-3.3077,-0.2440,-215.740,33.810,60.200,396,414,361,418,422,2025-05-23T21:54:46.267938
24194,0.4568,-3.0188,0.1532,-168.210,-31.640,24.360,411,428,378,420,413,2025-05-23T21:54:46.267981
24195,0.3597,-2.7099,0.4368,-80.080,-68.740,-5.390,403,431,390,429,413,2025-05-23T21:54:46.267992
24196,0.3094,-2.1940,0.5939,19.040,-43.890,-22.890,412,427,384,424,369,2025-05-23T21:54:46.268002
24197,0.2308,-1.7065,0.7178,104.930,2.100,-48.300,391,430,387,418,384,2025-05-23T21:54:46.268122
24198,0.1205,-1.1546,0.6886,171.920,43.260,-69.930,378,420,389,404,347,2025-05-23T21:54:46.472284
24199,-0.0434,-0.6949,0.5383,212.800,52.430,-91.700,403,405,380,358,346,2025-05-23T21:54:46.472343
24200,-0.0927,-0.3333,0.4085,234.220,33.460,-115.780,415,398,346,395,387,2025-05-23T21:54:46.472359
24201,-0.3699,-0.0132,0.1859,268.870,5.530,-133.210,419,418,367,412,387,2025-05-23T21:54:46.472373
24202,-0.7427,0.3972,-0.0610,319.410,-24.010,-139.930,402,426,380,411,402,2025-05-23T21:54:46.472385
24203,-0.7788,0.9116,-0.1893,350.840,-36.050,-145.460,412,423,391,394,409,2025-05-23T21:54:46.472398
24204,-0.7706,1.2317,-0.3055,328.440,-52.150,-150.080,399,407,372,408,414,2025-05-23T21:54:46.472409
24205,-0.6812,1.3830,-0.6022,304.780,-42.350,-157.290,398,361,368,357,409,2025-05-23T21:54:46.472424
24206,-1.0014,1.4440,-0.5114,278.530,-31.290,-165.340,390,413,380,378,367,2025-05-23T21:54:46.472435
24207,-1.4318,1.4655,-0.5544,268.520,-47.810,-168.770,337,421,379,393,379,2025-05-23T21:54:46.472446
24208,-1.5762,1.5840,-0.5846,261.170,-94.500,-172.200,379,408,386,407,380,2025-05-23T21:54:46.472458
24209,-1.4254,1.7885,-0.5812,250.180,-135.870,-171.290,393,401,377,409,400,2025-05-23T21:54:46.472468
24210,-1.2302,1.8017,-0.6266,221.900,-192.430,-165.830,301,413,380,395,404,2025-05-23T21:54:46.472478
24211,-0.8755,1.7509,-0.6129,179.830,-222.110,-152.950,400,380,389,344,385,2025-05-23T21:54:46.472526
24212,-0.8164,1.7187,-0.6183,141.330,-147.770,-129.850,384,381,386,396,351,2025-05-23T21:54:46.472538
24213,-0.9789,1.6075,-0.4089,147.770,-56.070,-101.500,402,397,391,402,297,2025-05-23T21:54:46.472550
24214,-1.1834,1.6045,-0.2303,136.150,-4.970,-75.460,401,386,395,411,354,2025-05-23T21:54:46.472562
24215,-1.2429,1.5792,-0.1444,132.370,-15.680,-53.130,419,410,357,419,391,2025-05-23T21:54:46.523897
24216,-0.8823,1.5313,-0.1357,114.520,-92.400,-42.770,420,408,380,419,390,2025-05-23T21:54:46.523947
24217,-0.6168,1.4235,-0.2011,83.860,-212.030,-32.130,404,417,387,407,409,2025-05-23T21:54:46.523960
24218,-0.3880,1.3269,-0.2513,69.930,-255.710,-22.330,417,409,382,412,419,2025-05-23T21:54:46.523970
24219,-0.3348,1.2532,-0.3684,78.540,-203.210,-11.620,422,424,348,415,419,2025-05-23T21:54:46.573390
24220,-0.4255,1.1761,-0.3884,97.440,-99.610,1.050,421,415,359,396,417,2025-05-23T21:54:46.573435
24221,-0.4748,1.1019,-0.3670,100.870,-33.460,12.950,393,345,357,402,415,2025-05-23T21:54:46.573447
24222,-0.5173,1.0219,-0.3782,97.930,-2.450,20.510,397,391,377,401,415,2025-05-23T21:54:46.573457
24223,-0.4851,0.9365,-0.3845,77.070,-45.570,14.070,396,417,383,347,409,2025-05-23T21:54:46.624266
24224,-0.5348,0.9487,-0.3680,46.200,-106.260,8.330,413,425,381,393,398,2025-05-23T21:54:46.624354
24225,-0.5607,0.9672,-0.3714,42.280,-127.260,7.350,407,426,396,367,392,2025-05-23T21:54:46.624374
24226,-0.5226,1.0131,-0.3660,48.300,-120.470,8.540,401,429,381,398,354,2025-05-23T21:54:46.624384
24227,-0.5114,1.0277,-0.3816,60.130,-81.200,16.520,420,430,380,392,387,2025-05-23T21:54:46.870815
24228,-0.5436,1.0341,-0.3567,67.760,-40.810,27.300,399,392,388,398,361,2025-05-23T21:54:46.870868
24229,-0.6520,1.0238,-0.3231,65.240,-23.310,39.900,395,416,314,403,370,2025-05-23T21:54:46.870883
24230,-0.7300,1.0058,-0.2899,60.830,-24.850,48.860,398,421,346,405,378,2025-05-23T21:54:46.870896
24231,-0.7115,0.9814,-0.2860,41.090,-45.780,52.640,376,406,356,420,391,2025-05-23T21:54:46.870907
24232,-0.6393,0.9677,-0.2987,25.270,-65.310,55.580,388,428,378,416,357,2025-05-23T21:54:46.870917
24233,-0.5617,0.9614,-0.2962,18.270,-66.850,56.700,411,419,378,415,385,2025-05-23T21:54:46.870927
24234,-0.4880,0.9599,-0.2977,16.240,-50.330,58.310,399,436,388,402,405,2025-05-23T21:54:46.870937
24235,-0.4529,0.9414,-0.2913,17.920,-27.790,59.500,397,404,355,392,366,2025-05-23T21:54:46.870947
24236,-0.4368,0.9008,-0.2704,11.760,-22.540,57.890,413,346,365,403,388,2025-05-23T21:54:46.870956
24237,-0.4104,0.8467,-0.2347,6.440,-29.540,54.810,406,411,368,412,392,2025-05-23T21:54:46.870966
24238,-0.4016,0.7920,-0.1732,-2.100,-43.120,49.910,413,412,365,391,385,2025-05-23T21:54:46.870976
24239,-0.3894,0.7315,-0.1459,-6.930,-57.120,44.100,416,372,371,399,387,2025-05-23T21:54:46.870986
24240,-0.3762,0.6866,-0.1606,-3.010,-61.180,36.540,390,412,369,402,402,2025-05-23T21:54:46.870995
24241,-0.3597,0.6730,-0.1591,6.790,-59.780,30.450,354,431,376,371,390,2025-05-23T21:54:46.871041
24242,-0.3543,0.6842,-0.1869,14.700,-53.550,23.800,413,429,372,381,384,2025-05-23T21:54:46.871052
24243,-0.3401,0.6930,-0.2172,20.930,-42.140,18.760,420,410,383,403,384,2025-05-23T21:54:46.871061
24244,-0.3572,0.7232,-0.2298,24.290,-27.090,14.910,307,418,391,350,399,2025-05-23T21:54:46.871071
24245,-0.4046,0.7515,-0.2674,25.480,-9.100,10.150,373,349,377,374,392,2025-05-23T21:54:46.871080
24246,-0.4436,0.7710,-0.2933,27.020,4.060,6.160,356,406,388,341,400,2025-05-23T21:54:46.871089
24247,-0.4607,0.8111,-0.2840,23.730,5.950,1.890,402,384,380,392,415,2025-05-23T21:54:47.096209
24248,-0.5056,0.8355,-0.2630,17.150,-1.540,-3.010,412,344,359,376,360,2025-05-23T21:54:47.096256
24249,-0.5427,0.8467,-0.2552,11.060,-8.400,-6.930,425,387,362,356,378,2025-05-23T21:54:47.096273
24250,-0.5388,0.8686,-0.2489,8.540,-9.310,-7.840,402,392,368,381,383,2025-05-23T21:54:47.096286
24251,-0.5207,0.8774,-0.2259,5.810,-6.720,-7.070,413,391,365,401,383,2025-05-23T21:54:47.096296
24252,-0.5231,0.8789,-0.2211,2.310,-0.490,-6.300,420,412,369,391,386,2025-05-23T21:54:47.096306
24253,-0.5431,0.8764,-0.2303,-0.210,6.090,-5.460,351,415,373,407,388,2025-05-23T21:54:47.096316
24254,-0.5431,0.8960,-0.2211,-3.220,6.440,-2.590,385,407,374,398,350,2025-05-23T21:54:47.096326
24255,-0.5324,0.8994,-0.2094,-10.360,2.450,-0.980,394,402,385,404,346,2025-05-23T21:54:47.096335
24256,-0.5734,0.8667,-0.2508,-15.260,-2.870,-0.910,417,393,344,367,331,2025-05-23T21:54:47.096345
24257,-0.5563,0.8608,-0.2499,-13.440,-6.790,0.560,417,346,359,397,381,2025-05-23T21:54:47.096355
24258,-0.5226,0.8730,-0.2425,-14.000,-8.820,2.730,401,400,381,404,400,2025-05-23T21:54:47.096364
24259,-0.4943,0.8594,-0.2362,-17.360,-6.370,3.990,416,405,374,415,351,2025-05-23T21:54:47.096372
24260,-0.4895,0.8237,-0.2557,-18.690,2.100,4.550,426,395,384,366,335,2025-05-23T21:54:47.096381
24261,-0.5012,0.8169,-0.2411,-17.080,7.140,5.110,427,426,343,393,363,2025-05-23T21:54:47.096421
24262,-0.5212,0.8076,-0.2279,-14.700,8.750,6.440,389,394,367,404,373,2025-05-23T21:54:47.096431
24263,-0.5358,0.7969,-0.2235,-14.280,5.250,8.260,385,421,382,393,385,2025-05-23T21:54:47.096441
24264,-0.5280,0.7881,-0.2094,-13.370,2.100,7.770,418,416,350,352,404,2025-05-23T21:54:47.096449
24265,-0.5241,0.7818,-0.1967,-11.060,0.420,6.650,379,418,367,392,413,2025-05-23T21:54:47.096459
24266,-0.5222,0.7759,-0.1854,-6.440,0.910,5.180,381,415,374,349,408,2025-05-23T21:54:47.146316
24267,-0.5353,0.7764,-0.1830,-3.570,2.800,4.060,341,340,373,387,413,2025-05-23T21:54:47.146374
24268,-0.5285,0.7930,-0.1698,-2.660,4.550,3.850,395,396,383,397,390,2025-05-23T21:54:47.146390
24269,-0.5461,0.7950,-0.1747,-3.430,5.600,2.800,415,345,368,395,387,2025-05-23T21:54:47.146403
24270,-0.5583,0.8062,-0.1786,-3.990,5.180,2.030,399,385,365,403,395,2025-05-23T21:54:47.146415
24271,-0.5539,0.8135,-0.1781,-4.760,3.150,0.910,416,415,375,399,382,2025-05-23T21:54:47.292294
24272,-0.5397,0.8179,-0.1840,-6.160,-0.210,-1.120,350,358,378,402,364,2025-05-23T21:54:47.292342
24273,-0.5402,0.8174,-0.2001,-5.460,-1.190,-2.660,380,408,311,394,397,2025-05-23T21:54:47.292357
24274,-0.5417,0.8291,-0.2011,-4.620,0.630,-2.870,413,414,341,383,390,2025-05-23T21:54:47.292369
24275,-0.5451,0.8355,-0.1976,-4.060,4.270,-3.500,427,407,370,357,396,2025-05-23T21:54:47.292380
24276,-0.5671,0.8398,-0.2059,-5.110,4.900,-3.920,407,423,378,396,416,2025-05-23T21:54:47.527787
24277,-0.5700,0.8403,-0.2142,-6.790,1.400,-2.870,417,431,381,403,410,2025-05-23T21:54:47.527845
24278,-0.5451,0.8467,-0.2157,-11.830,-3.010,-2.450,358,403,368,354,409,2025-05-23T21:54:47.527861
24279,-0.5080,0.8369,-0.2147,-16.520,-5.040,-2.520,385,427,377,377,413,2025-05-23T21:54:47.527875
24280,-0.4778,0.8296,-0.2045,-17.780,-1.750,-3.360,389,424,353,378,380,2025-05-23T21:54:47.528130
24281,-0.4236,0.8262,-0.1854,-18.830,2.940,-5.600,402,377,357,401,344,2025-05-23T21:54:47.528145
24282,-0.4211,0.7964,-0.1972,-17.710,5.810,-6.580,399,417,377,404,386,2025-05-23T21:54:47.528157
24283,-0.3938,0.7979,-0.1884,-11.480,8.260,-6.580,426,410,380,412,395,2025-05-23T21:54:47.528228
24284,-0.3626,0.8091,-0.1698,-9.940,12.320,-8.470,405,396,346,411,403,2025-05-23T21:54:47.528242
24285,-0.3904,0.7984,-0.1986,-12.250,20.370,-11.200,411,414,369,400,396,2025-05-23T21:54:47.528256
24286,-0.4372,0.7930,-0.2264,-11.690,28.770,-12.600,378,424,377,404,359,2025-05-23T21:54:47.528268
24287,-0.4895,0.7984,-0.2377,-9.730,28.490,-12.880,409,405,385,411,381,2025-05-23T21:54:47.528281
24288,-0.5266,0.8042,-0.2445,-7.560,18.900,-13.230,410,437,377,400,346,2025-05-23T21:54:47.528294
24289,-0.5363,0.8189,-0.2333,-8.050,7.770,-13.160,403,400,386,393,366,2025-05-23T21:54:47.528307
24290,-0.5617,0.8276,-0.2313,-7.980,5.880,-12.390,344,409,376,357,377,2025-05-23T21:54:47.528321
24291,-0.5797,0.8345,-0.2338,-5.530,9.380,-10.290,368,406,375,395,395,2025-05-23T21:54:47.528332
24292,-0.5919,0.8394,-0.2245,-2.240,14.700,-7.840,379,431,374,407,380,2025-05-23T21:54:47.528343
24293,-0.6056,0.8467,-0.2191,0.490,18.130,-5.460,400,411,367,404,361,2025-05-23T21:54:47.528355
24294,-0.6178,0.8520,-0.2118,1.330,19.250,-3.640,397,424,381,393,337,2025-05-23T21:54:47.528366
24295,-0.6339,0.8608,-0.2035,1.610,20.160,-1.190,339,425,370,388,365,2025-05-23T21:54:47.528377
24296,-0.6412,0.8672,-0.1937,-1.120,19.460,0.420,375,423,379,392,401,2025-05-23T21:54:47.528388
24297,-0.6529,0.8501,-0.2030,-5.530,15.960,1.050,405,408,339,389,389,2025-05-23T21:54:47.528419
24298,-0.6446,0.8384,-0.2020,-7.630,8.680,1.540,408,348,333,341,398,2025-05-23T21:54:47.528431
24299,-0.6217,0.8262,-0.1996,-9.590,-0.140,1.680,421,411,347,327,387,2025-05-23T21:54:47.528442
24300,-0.6066,0.8115,-0.2079,-9.870,-4.270,1.470,404,350,357,321,350,2025-05-23T21:54:47.549181
24301,-0.5783,0.8120,-0.1991,-8.470,-3.570,1.750,397,405,368,361,388,2025-05-23T21:54:47.549238
24302,-0.5485,0.8018,-0.2098,-7.770,-0.490,1.400,389,397,374,358,391,2025-05-23T21:54:47.549251
24303,-0.5358,0.7920,-0.2118,-4.970,3.430,0.490,394,412,389,390,395,2025-05-23T21:54:47.549261
24304,-0.5422,0.7906,-0.2108,-3.780,3.570,-0.840,391,407,380,392,408,2025-05-23T21:54:47.702654
24305,-0.5558,0.7896,-0.2216,-2.940,2.730,-1.610,418,427,373,411,391,2025-05-23T21:54:47.702713
24306,-0.5573,0.7954,-0.2225,-3.570,0.420,-1.960,418,431,385,392,407,2025-05-23T21:54:47.702727
24307,-0.5646,0.7852,-0.2206,-4.480,-0.210,-1.540,340,400,378,354,367,2025-05-23T21:54:47.702739
24308,-0.5622,0.7984,-0.2377,-5.600,0.910,-1.750,390,428,376,379,382,2025-05-23T21:54:47.702750
24309,-0.5514,0.7979,-0.2420,-5.600,2.240,-0.770,392,358,380,410,349,2025-05-23T21:54:47.702761
24310,-0.5480,0.8032,-0.2396,-2.240,4.830,-0.070,410,367,379,391,390,2025-05-23T21:54:47.702771
24311,-0.5534,0.8013,-0.2230,-3.640,3.710,-0.490,411,407,371,394,405,2025-05-23T21:54:47.702781
24312,-0.5534,0.8081,-0.2103,-2.800,3.360,0.070,387,428,343,390,415,2025-05-23T21:54:47.702791
24313,-0.5470,0.8111,-0.1996,-5.460,-2.240,0.140,413,425,360,362,368,2025-05-23T21:54:47.702801
24314,-0.5456,0.8067,-0.2035,-4.900,-2.380,0.070,412,428,337,386,356,2025-05-23T21:54:47.702811
24315,-0.5422,0.8135,-0.2001,-6.720,-4.060,0.210,379,420,330,406,394,2025-05-23T21:54:47.702820
24316,-0.5495,0.8067,-0.2084,-6.930,-4.410,-0.210,390,434,327,348,400,2025-05-23T21:54:47.702830
24317,-0.5358,0.8101,-0.2079,-6.580,-5.320,0.210,417,409,312,391,411,2025-05-23T21:54:47.906014
24318,-0.5251,0.8145,-0.2074,-5.740,-5.320,-0.070,424,407,307,380,363,2025-05-23T21:54:47.906039
24319,-0.5207,0.8208,-0.2054,-5.180,-4.620,-0.700,343,413,351,336,337,2025-05-23T21:54:47.906044
24320,-0.5119,0.8257,-0.2118,-5.670,-3.220,-2.660,386,425,372,390,383,2025-05-23T21:54:47.906049
24321,-0.5178,0.8213,-0.2401,-7.490,-3.640,-4.900,384,402,386,416,381,2025-05-23T21:54:47.906054
24322,-0.5183,0.8169,-0.2616,-9.730,-4.900,-7.490,416,430,391,392,399,2025-05-23T21:54:47.906058
24323,-0.5290,0.8047,-0.2660,-10.640,-6.370,-8.260,408,412,315,362,395,2025-05-23T21:54:47.906063
24324,-0.5475,0.7925,-0.2464,-11.480,-7.630,-8.400,385,431,354,395,410,2025-05-23T21:54:47.906067
24325,-0.5617,0.7964,-0.2137,-12.040,-8.820,-7.980,422,426,369,405,399,2025-05-23T21:54:47.906070
24326,-0.5836,0.7993,-0.1840,-12.600,-11.830,-7.350,409,414,372,400,392,2025-05-23T21:54:47.906075
24327,-0.5939,0.8086,-0.1684,-13.090,-16.730,-6.510,394,427,376,412,405,2025-05-23T21:54:47.906079
24328,-0.5919,0.8111,-0.1615,-12.950,-20.930,-6.510,390,363,370,412,396,2025-05-23T21:54:47.906083
24329,-0.5836,0.8120,-0.1688,-12.880,-22.540,-5.810,361,327,373,413,390,2025-05-23T21:54:47.906087
24330,-0.5871,0.8213,-0.1762,-10.570,-18.130,-3.850,335,386,340,365,396,2025-05-23T21:54:47.906091
24331,-0.5915,0.8184,-0.1713,-10.360,-17.430,-1.400,340,419,361,370,409,2025-05-23T21:54:47.906112
24332,-0.5841,0.8218,-0.1557,-7.140,-16.310,0.700,382,427,371,391,415,2025-05-23T21:54:47.906116
24333,-0.5788,0.8203,-0.1371,-4.410,-17.220,2.100,398,418,381,393,358,2025-05-23T21:54:47.906120
24334,-0.5793,0.8237,-0.1196,-0.910,-16.100,3.710,387,399,370,384,388,2025-05-23T21:54:47.957804
24335,-0.5846,0.8276,-0.1152,1.120,-15.120,5.390,393,397,375,343,395,2025-05-23T21:54:47.957844
24336,-0.5802,0.8267,-0.1196,2.100,-14.420,5.880,400,422,382,376,411,2025-05-23T21:54:47.957855
24337,-0.5641,0.8301,-0.1347,1.120,-14.840,7.280,397,409,343,383,410,2025-05-23T21:54:47.957864
24338,-0.5607,0.8213,-0.1552,0.560,-15.120,8.260,378,402,363,405,354,2025-05-23T21:54:48.010461
24339,-0.5641,0.8174,-0.1698,1.890,-13.300,8.680,404,349,365,401,367,2025-05-23T21:54:48.010487
24340,-0.5544,0.8194,-0.1762,3.990,-13.510,8.960,399,397,369,408,337,2025-05-23T21:54:48.010492
24341,-0.5431,0.8223,-0.1767,4.060,-15.540,8.680,390,419,338,413,364,2025-05-23T21:54:48.010498
24342,-0.5339,0.8286,-0.1713,2.870,-16.870,7.980,361,345,352,398,401,2025-05-23T21:54:48.010503
24343,-0.5334,0.8272,-0.1664,1.750,-15.960,7.000,396,411,361,407,409,2025-05-23T21:54:48.059971
24344,-0.5485,0.8184,-0.1552,1.260,-14.000,6.930,421,422,372,397,403,2025-05-23T21:54:48.060009
24345,-0.5607,0.8223,-0.1498,0.700,-13.790,7.070,427,419,388,422,402,2025-05-23T21:54:48.060022
24346,-0.5534,0.8223,-0.1591,-0.490,-16.450,7.490,398,427,391,349,411,2025-05-23T21:54:48.060033
24347,-0.5392,0.8252,-0.1674,-1.540,-17.360,8.400,416,423,390,393,397,2025-05-23T21:54:48.114602
24348,-0.5353,0.8296,-0.1664,1.330,-12.250,9.170,400,414,352,386,399,2025-05-23T21:54:48.114646
24349,-0.5397,0.8359,-0.1654,3.780,-7.070,8.890,396,356,375,403,350,2025-05-23T21:54:48.114657
24350,-0.5417,0.8403,-0.1562,4.060,-5.740,8.610,407,382,386,403,372,2025-05-23T21:54:48.114667
24351,-0.5397,0.8384,-0.1498,3.570,-6.650,8.540,303,378,361,345,379,2025-05-23T21:54:48.316933
24352,-0.5514,0.8418,-0.1362,2.170,-11.340,8.680,380,424,377,381,396,2025-05-23T21:54:48.316976
24353,-0.5427,0.8398,-0.1288,0.630,-13.930,8.400,406,408,385,382,365,2025-05-23T21:54:48.316992
24354,-0.5305,0.8413,-0.1337,0.000,-13.230,8.330,338,425,389,382,399,2025-05-23T21:54:48.317002
24355,-0.5187,0.8350,-0.1401,-0.070,-13.020,8.610,324,402,392,347,411,2025-05-23T21:54:48.317011
24356,-0.5114,0.8291,-0.1449,2.100,-11.830,8.540,371,413,348,343,405,2025-05-23T21:54:48.317022
24357,-0.5002,0.8369,-0.1430,3.080,-10.360,7.980,406,434,360,344,397,2025-05-23T21:54:48.317033
24358,-0.4963,0.8413,-0.1405,3.640,-7.840,7.420,410,426,363,327,397,2025-05-23T21:54:48.317044
24359,-0.5012,0.8374,-0.1386,4.060,-5.740,6.160,394,393,373,383,393,2025-05-23T21:54:48.317053
24360,-0.4870,0.8389,-0.1342,3.780,-6.090,5.110,397,417,385,397,391,2025-05-23T21:54:48.317063
24361,-0.4924,0.8423,-0.1366,2.590,-6.860,4.550,416,408,344,399,348,2025-05-23T21:54:48.317071
24362,-0.5026,0.8394,-0.1410,1.820,-6.790,3.290,422,349,361,403,391,2025-05-23T21:54:48.317080
24363,-0.5148,0.8311,-0.1532,2.520,-6.650,3.290,427,396,384,415,345,2025-05-23T21:54:48.317088
24364,-0.5192,0.8301,-0.1532,3.850,-8.330,3.850,412,399,374,406,347,2025-05-23T21:54:48.317183
24365,-0.3787,0.8384,-0.1493,3.500,-9.800,4.130,424,360,384,413,385,2025-05-23T21:54:48.317220
24366,-0.4846,0.8477,-0.1415,2.100,-8.260,4.270,418,412,392,369,346,2025-05-23T21:54:48.317231
24367,-0.4953,0.8447,-0.1459,2.520,-3.990,3.080,395,403,378,339,382,2025-05-23T21:54:48.317240
24368,-0.5031,0.8452,-0.1498,5.250,-1.120,2.450,390,430,339,371,394,2025-05-23T21:54:48.371559
24369,-0.4948,0.8535,-0.1459,5.390,-2.940,1.960,345,429,360,391,400,2025-05-23T21:54:48.371603
24370,-0.5192,0.8477,-0.1566,4.410,-6.090,1.890,409,400,384,397,411,2025-05-23T21:54:48.371615
24371,-0.5300,0.8447,-0.1566,3.920,-7.770,2.240,391,409,385,395,413,2025-05-23T21:54:48.371625
24372,-0.5270,0.8462,-0.1562,3.850,-7.910,2.310,396,420,381,400,422,2025-05-23T21:54:48.371634
24373,-0.5207,0.8452,-0.1537,4.200,-6.090,2.590,369,393,386,420,424,2025-05-23T21:54:48.520657
24374,-0.5329,0.8335,-0.1571,4.060,-4.480,3.010,381,391,374,412,409,2025-05-23T21:54:48.520733
24375,-0.5305,0.8467,-0.1493,4.410,-3.220,3.780,412,392,386,374,360,2025-05-23T21:54:48.520746
24376,-0.5163,0.8457,-0.1503,3.710,-3.010,3.570,409,416,383,374,396,2025-05-23T21:54:48.520756
24377,-0.5148,0.8452,-0.1488,2.310,-2.520,3.500,362,399,375,401,385,2025-05-23T21:54:48.520767
24378,-0.5246,0.8423,-0.1498,1.680,-2.800,3.220,399,385,371,401,402,2025-05-23T21:54:48.520778
24379,-0.5226,0.8379,-0.1444,0.700,-4.410,2.870,412,412,340,348,406,2025-05-23T21:54:48.520787
24380,-0.5270,0.8276,-0.1527,0.630,-7.070,2.660,428,397,362,390,404,2025-05-23T21:54:48.520796
24381,-0.5300,0.8223,-0.1488,1.890,-10.430,1.960,362,371,365,380,395,2025-05-23T21:54:48.520807
24382,-0.5295,0.8335,-0.1401,2.520,-12.040,1.190,400,402,335,381,396,2025-05-23T21:54:48.520817
24383,-0.5329,0.8379,-0.1405,1.890,-12.180,1.120,403,406,357,389,391,2025-05-23T21:54:48.520826
24384,-0.5309,0.8374,-0.1420,2.450,-8.470,1.890,391,390,364,391,389,2025-05-23T21:54:48.520834
24385,-0.5446,0.8394,-0.1420,3.360,-7.420,2.310,405,416,383,401,383,2025-05-23T21:54:48.725430
24386,-0.5544,0.8384,-0.1405,4.900,-9.240,2.520,343,394,386,393,341,2025-05-23T21:54:48.725475
24387,-0.5510,0.8403,-0.1401,5.180,-12.460,3.360,383,391,378,409,379,2025-05-23T21:54:48.725486
24388,-0.5612,0.8379,-0.1352,4.130,-16.310,3.430,416,413,390,374,379,2025-05-23T21:54:48.725496
24389,-0.5763,0.8335,-0.1303,4.620,-19.460,4.270,401,412,384,361,395,2025-05-23T21:54:48.725508
24390,-0.5895,0.8311,-0.1205,5.600,-22.540,4.690,343,393,379,380,367,2025-05-23T21:54:48.725521
24391,-0.5905,0.8233,-0.1152,5.460,-25.970,5.320,403,404,347,395,383,2025-05-23T21:54:48.725530
24392,-0.5876,0.8237,-0.1113,4.480,-28.210,6.090,414,421,370,390,340,2025-05-23T21:54:48.725541
24393,-0.5822,0.8130,-0.1039,3.640,-28.350,6.370,424,408,371,388,373,2025-05-23T21:54:48.725551
24394,-0.6110,0.7930,-0.1015,5.390,-28.350,5.250,410,424,370,399,377,2025-05-23T21:54:48.725562
24395,-0.6446,0.7754,-0.0805,8.330,-33.740,3.710,419,405,382,394,401,2025-05-23T21:54:48.725571
24396,-0.6881,0.7813,-0.0483,8.610,-48.230,1.610,417,417,372,308,410,2025-05-23T21:54:48.725580
24397,-0.7183,0.7969,-0.0171,5.950,-64.540,-1.470,409,403,374,384,381,2025-05-23T21:54:48.725589
24398,-0.7520,0.8072,0.0059,2.380,-85.470,-4.340,399,399,385,402,382,2025-05-23T21:54:48.725598
24399,-0.7759,0.8213,0.0283,0.630,-106.540,-7.280,424,404,394,414,394,2025-05-23T21:54:48.725607
24400,-0.8208,0.8247,0.0459,-0.840,-127.260,-11.200,369,387,392,414,411,2025-05-23T21:54:48.725646
24401,-0.8716,0.8047,0.0386,0.630,-151.060,-17.920,410,428,383,400,399,2025-05-23T21:54:48.725657
24402,-0.8594,0.7803,0.0420,4.270,-174.160,-26.530,394,307,387,397,346,2025-05-23T21:54:48.725666
24403,-0.8086,0.7706,0.0537,7.840,-187.600,-34.090,413,397,390,345,375,2025-05-23T21:54:48.771985
24404,-0.7340,0.8272,0.0859,7.280,-190.610,-40.740,429,429,384,389,381,2025-05-23T21:54:48.772027
24405,-0.6559,0.9033,0.1103,1.190,-181.790,-48.860,407,421,380,397,379,2025-05-23T21:54:48.772041
24406,-0.5788,1.1019,0.1767,-5.740,-167.160,-57.190,413,427,374,417,383,2025-05-23T21:54:48.820803
24407,-0.4934,1.3571,0.2167,-21.700,-167.090,-67.060,408,381,370,406,394,2025-05-23T21:54:48.820847
24408,-0.5173,1.6031,0.2708,-45.220,-181.860,-75.670,419,420,369,390,398,2025-05-23T21:54:48.820859
24409,-0.6193,1.9803,0.4016,-73.290,-219.450,-76.720,398,416,379,393,409,2025-05-23T21:54:48.820869
24410,-0.7305,2.3888,0.4329,-117.670,-295.190,-69.860,408,419,375,397,394,2025-05-23T21:54:48.930883
24411,-0.7437,2.8314,0.4241,-180.600,-401.940,-49.700,423,400,386,414,395,2025-05-23T21:54:48.930929
24412,-0.7662,3.1905,0.3484,-228.830,-508.970,-7.490,405,408,356,403,399,2025-05-23T21:54:48.930941
24413,-0.6324,3.3238,0.1728,-289.940,-598.150,47.600,407,416,343,392,409,2025-05-23T21:54:48.930951
24414,-0.1879,3.2530,-0.0132,-340.270,-638.750,108.290,392,363,363,392,410,2025-05-23T21:54:48.930960
24415,0.2240,3.1798,-0.2328,-353.430,-615.230,176.470,409,335,364,369,398,2025-05-23T21:54:48.930970
24416,0.5856,3.1740,-0.3972,-314.650,-485.030,203.350,395,406,304,374,357,2025-05-23T21:54:48.930979
24417,0.8198,3.0700,-0.4890,-244.300,-314.650,236.950,411,411,345,394,392,2025-05-23T21:54:48.930989
24418,0.7989,2.8533,-0.4821,-176.470,-167.720,256.760,430,417,361,418,392,2025-05-23T21:54:48.930998
24419,0.6578,2.6401,-0.5183,-122.640,-68.950,261.240,423,436,365,404,307,2025-05-23T21:54:48.979717
24420,0.6368,2.3941,-0.6412,-98.770,-27.580,253.820,417,416,367,383,313,2025-05-23T21:54:48.979764
24421,0.6886,2.1872,-0.7886,-103.950,-60.200,220.150,415,408,384,346,370,2025-05-23T21:54:48.979777
24422,1.0614,1.9827,-1.0014,-133.070,-138.110,149.660,416,428,338,335,381,2025-05-23T21:54:48.979787
24423,1.2947,1.5767,-1.0380,-199.640,-185.710,51.100,424,405,353,390,384,2025-05-23T21:54:49.135070
24424,1.2444,0.9531,-0.9911,-277.480,-200.340,-52.430,422,435,369,405,382,2025-05-23T21:54:49.135119
24425,1.1795,0.1269,-0.8174,-376.600,-202.230,-148.050,372,418,373,399,384,2025-05-23T21:54:49.135135
24426,0.6812,-1.0834,-0.5954,-436.030,-129.570,-225.540,393,394,383,391,390,2025-05-23T21:54:49.135146
24427,-0.2035,-1.9808,-0.4177,-394.310,-112.770,-323.540,420,416,345,399,377,2025-05-23T21:54:49.135158
24428,-0.8862,-2.8524,0.0000,-398.370,-171.710,-409.150,422,405,358,416,382,2025-05-23T21:54:49.135171
24429,-0.9184,-4.1256,0.5158,-441.770,-281.120,-482.790,378,394,366,401,385,2025-05-23T21:54:49.135184
24430,-0.8350,-5.2070,0.8867,-525.000,-438.900,-520.100,388,394,379,393,402,2025-05-23T21:54:49.135195
24431,-0.6193,-5.2079,0.7135,-512.750,-304.920,-494.550,346,408,381,388,395,2025-05-23T21:54:49.135205
24432,-0.6944,-4.2998,0.4587,-371.140,-56.770,-417.410,380,354,342,386,409,2025-05-23T21:54:49.135215
24433,-0.9091,-3.3199,0.3387,-247.170,237.090,-320.950,336,392,361,389,415,2025-05-23T21:54:49.135225
24434,-1.1488,-2.2116,0.3231,-105.000,437.430,-130.970,390,303,374,413,396,2025-05-23T21:54:49.135251
24435,-1.2190,-1.7778,0.4992,128.660,401.240,134.330,407,401,367,416,398,2025-05-23T21:54:49.135260
24436,-0.7383,-1.7719,0.7105,184.940,260.120,305.200,426,407,363,402,413,2025-05-23T21:54:49.342232
24437,-0.3021,-1.8632,0.8423,115.430,63.350,381.570,418,416,373,385,394,2025-05-23T21:54:49.342280
24438,-0.2201,-2.2482,0.7359,155.330,-93.450,411.530,396,422,366,384,396,2025-05-23T21:54:49.342293
24439,0.0088,-2.4307,0.4626,287.420,-12.670,357.280,420,404,334,383,393,2025-05-23T21:54:49.342305
24440,0.3694,-2.1101,0.0849,359.590,67.550,324.240,417,341,359,345,391,2025-05-23T21:54:49.342315
24441,0.3592,-1.7524,0.3338,424.480,207.970,300.440,403,391,361,397,413,2025-05-23T21:54:49.342344
24442,0.3977,-1.4991,0.4660,431.060,336.770,285.740,417,420,349,379,408,2025-05-23T21:54:49.342354
24443,0.2918,-1.0946,0.6193,359.170,411.740,272.090,348,379,363,404,376,2025-05-23T21:54:49.342363
24444,0.1059,-0.7120,0.7178,284.900,450.520,268.170,363,415,358,407,337,2025-05-23T21:54:49.342373
24445,-0.1137,-0.3284,0.7471,232.890,498.330,259.770,404,352,359,408,330,2025-05-23T21:54:49.342382
24446,-0.3201,-0.0351,0.7686,200.550,542.780,250.320,417,391,360,415,369,2025-05-23T21:54:49.342391
24447,-0.5636,0.2908,0.7535,191.590,547.890,252.140,405,415,376,401,386,2025-05-23T21:54:49.342509
24448,-0.8115,0.5754,0.9174,196.280,521.500,255.430,425,349,385,415,392,2025-05-23T21:54:49.342523
24449,-0.9565,0.7945,1.1283,182.000,434.770,248.500,397,385,378,358,404,2025-05-23T21:54:49.342564
24450,-0.8677,0.9409,1.3537,134.750,290.010,229.670,367,339,384,334,409,2025-05-23T21:54:49.342574
24451,-0.6847,1.0570,1.3581,97.650,134.120,213.990,403,403,389,383,392,2025-05-23T21:54:49.342583
24452,-0.4270,1.0185,1.2376,99.260,18.410,205.520,399,408,382,397,400,2025-05-23T21:54:49.342593
24453,-0.0839,1.2239,1.0433,126.770,8.400,178.430,430,412,355,392,355,2025-05-23T21:54:49.546044
24454,0.2318,1.3586,0.7749,172.340,62.650,161.560,447,425,397,413,408,2025-05-23T21:54:49.546111
24455,0.2123,1.4996,0.8872,223.510,126.070,145.740,441,428,392,357,408,2025-05-23T21:54:49.546130
24456,0.0576,1.6167,1.1317,240.940,152.670,128.870,412,430,392,376,414,2025-05-23T21:54:49.546149
24457,0.1025,1.5972,1.1302,186.830,107.660,116.340,408,372,365,401,392,2025-05-23T21:54:49.546164
24458,0.2616,1.4323,0.8642,107.940,21.490,96.320,417,388,367,398,412,2025-05-23T21:54:49.546177
24459,0.5368,1.2747,0.4699,79.310,-29.260,75.110,360,418,372,354,353,2025-05-23T21:54:49.546192
24460,0.8023,1.1941,0.2079,101.080,-8.540,52.010,383,395,378,393,387,2025-05-23T21:54:49.546205
24461,0.7393,1.0746,-0.0224,147.630,79.310,31.710,382,372,394,389,384,2025-05-23T21:54:49.546218
24462,0.5197,1.2659,0.2294,185.990,128.590,20.790,359,404,388,387,397,2025-05-23T21:54:49.546231
24463,0.3787,1.3537,0.4270,168.350,151.620,25.200,357,314,364,374,361,2025-05-23T21:54:49.546244
24464,0.2596,1.3527,0.3948,128.730,124.950,29.750,391,388,377,397,392,2025-05-23T21:54:49.546258
24465,0.2694,1.3078,0.2786,70.700,38.010,26.950,397,387,385,406,402,2025-05-23T21:54:49.546271
24466,0.2840,1.2122,0.1376,39.270,-49.280,17.990,390,425,389,415,403,2025-05-23T21:54:49.546283
24467,0.3436,1.1497,0.0756,38.500,-98.000,14.140,385,422,383,389,352,2025-05-23T21:54:49.546343
24468,0.2206,1.0917,0.1518,45.640,-89.950,17.430,392,430,376,366,385,2025-05-23T21:54:49.546356
24469,0.0781,1.1209,0.3109,56.490,-75.040,12.460,386,433,380,298,403,2025-05-23T21:54:49.546369
24470,0.0805,1.1185,0.3113,53.480,-59.850,10.360,407,423,381,373,390,2025-05-23T21:54:49.595885
24471,0.1030,1.1024,0.2323,48.160,-61.180,2.800,380,429,386,405,401,2025-05-23T21:54:49.595943
24472,0.1596,1.1078,0.1454,43.190,-67.760,-7.630,392,431,377,397,393,2025-05-23T21:54:49.595959
24473,0.0927,1.1131,0.0761,39.760,-58.100,-12.250,384,421,384,415,393,2025-05-23T21:54:49.595973
24474,0.0161,1.1043,0.0244,37.800,-22.470,-15.470,412,403,369,419,388,2025-05-23T21:54:49.750961
24475,-0.0966,1.0668,0.0229,34.790,3.920,-12.040,423,400,338,363,388,2025-05-23T21:54:49.751005
24476,-0.2050,1.0653,0.0659,30.730,14.420,-7.000,425,402,365,373,391,2025-05-23T21:54:50.004870
24477,-0.2762,1.0438,0.0903,19.880,-7.420,-2.380,420,342,370,401,384,2025-05-23T21:54:50.004912
24478,-0.2616,1.0282,0.1113,8.120,-42.490,1.750,354,353,365,407,400,2025-05-23T21:54:50.004928
24479,-0.2045,1.0038,0.1215,5.880,-64.050,4.480,345,391,365,355,393,2025-05-23T21:54:50.004939
24480,-0.1196,0.9823,0.0747,13.580,-58.520,6.510,330,401,376,393,397,2025-05-23T21:54:50.004949
24481,-0.0908,0.9609,0.0654,32.900,-37.660,7.630,378,363,381,395,390,2025-05-23T21:54:50.004959
24482,-0.0683,0.9745,0.0654,47.530,-8.750,7.700,403,391,382,356,356,2025-05-23T21:54:50.004968
24483,-0.1352,0.9936,0.0927,51.380,8.330,7.770,360,417,380,401,392,2025-05-23T21:54:50.004976
24484,-0.1884,1.0180,0.1015,44.940,2.380,7.420,408,413,381,393,385,2025-05-23T21:54:50.004985
24485,-0.2123,1.0268,0.0839,32.480,-19.460,5.670,412,425,387,396,385,2025-05-23T21:54:50.004994
24486,-0.1991,1.0194,0.0468,20.020,-32.200,3.500,413,417,388,351,341,2025-05-23T21:54:50.005002
24487,-0.1649,1.0180,0.0307,13.860,-38.150,2.450,419,420,376,360,387,2025-05-23T21:54:50.005055
24488,-0.1796,1.0082,0.0312,13.230,-31.290,1.470,403,393,380,358,409,2025-05-23T21:54:50.005066
24489,-0.1879,1.0028,0.0415,16.240,-17.290,2.450,397,394,388,351,401,2025-05-23T21:54:50.005076
24490,-0.2015,1.0043,0.0590,17.710,-9.240,3.710,400,405,375,390,411,2025-05-23T21:54:50.005085
24491,-0.2040,1.0072,0.0898,17.010,-9.800,3.850,410,375,387,388,376,2025-05-23T21:54:50.005094
24492,-0.2323,1.0043,0.0927,13.860,-12.390,1.190,405,405,389,402,366,2025-05-23T21:54:50.005104
24493,-0.2230,1.0170,0.0830,10.850,-15.680,-0.070,421,421,346,374,395,2025-05-23T21:54:50.005113
24494,-0.2147,1.0238,0.0512,5.810,-13.930,-0.630,343,395,358,409,410,2025-05-23T21:54:50.005122
24495,-0.2025,1.0063,0.0195,-0.630,-11.410,-1.260,390,357,365,393,395,2025-05-23T21:54:50.005131
24496,-0.1981,0.9648,-0.0142,-3.360,-8.260,-0.980,412,382,374,369,385,2025-05-23T21:54:50.005140
24497,-0.2015,0.9589,-0.0137,-2.380,-7.910,-0.350,419,389,382,404,349,2025-05-23T21:54:50.005148
24498,-0.1986,0.9609,0.0005,-1.960,-7.630,-0.490,392,345,386,404,295,2025-05-23T21:54:50.005157
24499,-0.2181,0.9662,0.0146,-1.540,-6.860,-1.470,404,340,375,408,331,2025-05-23T21:54:50.005165
24500,-0.2006,0.9872,0.0327,-3.780,-4.060,-0.770,409,395,369,389,363,2025-05-23T21:54:50.005174
24501,-0.2040,0.9833,0.0410,-5.390,-1.820,-1.260,415,409,383,386,401,2025-05-23T21:54:50.005200
24502,-0.2196,0.9731,0.0425,-5.040,-0.210,-2.240,405,423,385,396,355,2025-05-23T21:54:50.005209
24503,-0.2313,0.9726,0.0429,-3.080,-0.980,-2.520,412,413,382,398,372,2025-05-23T21:54:50.005217
24504,-0.2469,0.9726,0.0376,-1.260,-2.170,-2.940,372,396,377,405,392,2025-05-23T21:54:50.161481
24505,-0.2474,0.9887,0.0527,-0.700,-3.500,-2.730,296,423,383,406,391,2025-05-23T21:54:50.161636
24506,-0.2411,0.9828,0.0581,-1.610,-2.870,-1.050,384,420,377,408,414,2025-05-23T21:54:50.161655
