SeqNum,AccX,AccY,AccZ,GyroX,GyroY,GyroZ,Flex,Force1,Force2,Force3,Force4,TimestampReception
1,-0.8804,0.2782,0.3987,0.140,-4.095,0.000,0.00,0.0184,0.0254,0.0100,0.0087,2025-06-06T10:56:46.748556
2,-0.4333,0.4939,-0.0010,109.060,-59.710,141.225,3.00,0.0184,0.0508,0.0200,0.0087,2025-06-06T10:56:46.748556
3,-0.3953,0.6076,0.3479,114.310,-33.075,113.960,4.00,0.0184,0.0254,0.0100,0.0087,2025-06-06T10:56:46.749560
4,-0.4412,0.7788,0.4133,88.900,-37.380,94.780,1.00,0.0368,0.0000,0.0100,0.0087,2025-06-06T10:56:46.749560
5,-0.3816,0.8950,0.4202,73.115,-66.535,112.700,0.00,0.0184,0.0254,0.0100,0.0174,2025-06-06T10:56:46.749560
6,-0.3992,0.9701,0.4758,63.980,-87.465,137.095,0.00,0.0368,0.0508,0.0100,0.0000,2025-06-06T10:56:46.749560
7,-0.3767,0.9423,0.1425,62.370,-109.970,157.570,3.00,0.0184,0.0254,0.0200,0.0087,2025-06-06T10:56:46.749560
8,-0.2255,0.7544,0.3396,80.850,-97.720,175.245,2.00,0.0184,0.0254,0.0200,0.0087,2025-06-06T10:56:46.749560
9,-0.1952,0.6842,0.3309,84.070,-86.730,161.875,1.00,0.0184,0.0508,0.0200,0.0087,2025-06-06T10:56:46.749560
10,-0.1210,0.6222,0.3880,62.020,-66.465,140.665,1.00,0.0184,0.0508,0.0100,0.0087,2025-06-06T10:56:46.749560
11,-0.1557,0.6061,0.3997,31.780,-51.100,98.630,5.00,0.0184,0.0508,0.0100,0.0087,2025-06-06T10:56:46.749560
12,-0.0937,0.6510,0.3709,-0.630,-42.140,68.705,4.00,0.0184,0.0254,0.0300,0.0087,2025-06-06T10:56:46.749560
13,-0.0449,0.7271,0.4031,-7.350,-27.790,46.725,2.00,0.0184,0.0254,0.0100,0.0174,2025-06-06T10:56:46.749560
14,-0.0537,0.7618,0.4124,-16.135,-15.960,34.615,10.00,0.0368,0.0508,0.0200,0.0087,2025-06-06T10:56:46.997193
15,-0.0356,0.7593,0.3977,-22.155,-13.195,29.085,0.00,0.0184,0.0254,0.0200,0.0087,2025-06-06T10:56:46.997193
16,0.0000,0.7735,0.4436,-15.750,-5.845,25.550,1.00,0.0184,0.0000,0.0100,0.0174,2025-06-06T10:56:46.997193
17,-0.0083,0.8242,0.4333,-8.855,-4.585,20.440,0.00,0.0184,0.0254,0.0100,0.0174,2025-06-06T10:56:46.997193
18,-0.0015,0.8481,0.3845,-10.885,-7.245,22.190,0.00,0.0000,0.0762,0.0100,0.0087,2025-06-06T10:56:46.997193
19,0.0127,0.8223,0.3743,-14.945,-8.400,19.320,0.00,0.0000,0.0254,0.0300,0.0087,2025-06-06T10:56:46.997193
20,-0.0093,0.7793,0.3938,-14.385,4.270,6.125,4.00,0.0000,0.0254,0.0100,0.0087,2025-06-06T10:56:46.997193
21,-0.0049,0.7793,0.3694,-19.915,18.060,-12.880,2.00,0.0184,0.0508,0.0100,0.0174,2025-06-06T10:56:46.997193
22,-0.0366,0.7706,0.3704,-31.535,33.565,-25.585,1.00,0.0184,0.0508,0.0200,0.0174,2025-06-06T10:56:46.997193
23,-0.0093,0.7847,0.4675,-22.260,45.185,-25.375,3.00,0.0184,0.0000,0.0100,0.0087,2025-06-06T10:56:46.997193
24,-0.0234,0.8672,0.5329,-0.140,53.235,-21.000,2.00,0.0184,0.0508,0.0200,0.0087,2025-06-06T10:56:46.997193
25,-0.0742,0.8740,0.6368,1.855,48.475,-20.545,0.00,0.0184,0.0254,0.0100,0.0087,2025-06-06T10:56:46.997193
26,-0.1332,0.8584,0.5773,-1.820,29.015,-17.290,3.00,0.0184,0.0508,0.0200,0.0087,2025-06-06T10:56:46.997193
27,-0.1498,0.8813,0.7261,-10.220,1.820,-14.525,0.00,0.0368,0.0762,0.0100,0.0087,2025-06-06T10:56:46.997193
28,-0.0712,0.9692,0.7515,-30.100,-34.265,-2.835,0.00,0.0184,0.0508,0.0200,0.0174,2025-06-06T10:56:46.997193
29,-0.1054,0.9462,0.6700,-27.160,-69.930,17.325,2.00,0.0368,0.0508,0.0200,0.0087,2025-06-06T10:56:46.997193
30,-0.0644,0.9877,0.6149,-20.055,-86.730,33.495,1.00,0.0184,0.0254,0.0200,0.0000,2025-06-06T10:56:46.997193
31,0.1225,0.9643,0.5178,-10.430,-95.025,55.020,0.00,0.0184,0.0762,0.0000,0.0087,2025-06-06T10:56:47.159143
32,0.0039,0.9467,0.4387,6.545,-94.290,69.825,5.00,0.0184,0.0508,0.0200,0.0087,2025-06-06T10:56:47.159143
33,0.0337,0.8926,0.4207,20.230,-83.440,81.200,2.00,0.0184,0.1018,0.0100,0.0087,2025-06-06T10:56:47.159143
34,0.0312,0.8613,0.4006,26.075,-72.730,80.220,13.00,0.0184,0.0508,0.0300,0.0087,2025-06-06T10:56:47.159143
35,0.1157,0.8540,0.3694,18.480,-67.620,71.295,6.00,0.0184,0.0254,0.0200,0.0087,2025-06-06T10:56:47.159143
36,0.0532,0.8262,0.2430,13.475,-58.310,66.780,9.00,0.0184,0.0254,0.0200,0.0087,2025-06-06T10:56:47.159143
37,0.0917,0.8223,0.2752,24.710,-41.580,64.470,0.00,0.0368,0.0508,0.0100,0.0087,2025-06-06T10:56:47.159143
38,0.1088,0.8525,0.3357,29.015,-22.785,56.630,2.00,0.0184,0.0508,0.0200,0.0174,2025-06-06T10:56:47.159143
39,0.1435,0.8618,0.3841,28.420,-20.090,49.455,0.00,0.0000,0.0508,0.0100,0.0087,2025-06-06T10:56:47.159143
40,0.1205,0.8852,0.4124,16.415,-21.175,56.805,0.00,0.0368,0.0508,0.0200,0.0000,2025-06-06T10:56:47.159143
41,0.1415,0.9184,0.4494,19.600,-30.415,63.980,3.00,0.0000,0.0000,0.0100,0.0087,2025-06-06T10:56:47.159143
42,0.1679,0.9370,0.4002,19.775,-36.960,70.875,0.00,0.0184,0.0000,0.0200,0.0087,2025-06-06T10:56:47.159143
43,0.2342,0.8564,0.3318,6.755,-50.680,67.130,2.00,0.0184,0.0254,0.0100,0.0087,2025-06-06T10:56:47.159143
44,0.1752,0.8989,0.3797,-15.015,-40.180,46.830,5.00,0.0184,0.0508,0.0300,0.0087,2025-06-06T10:56:47.159143
45,0.1049,0.7989,0.3928,-24.920,-33.950,29.190,0.00,0.0184,0.0508,0.0200,0.0087,2025-06-06T10:56:47.345255
46,0.2494,0.8120,0.4407,-11.165,-13.230,23.940,0.00,0.0000,0.0762,0.0200,0.0087,2025-06-06T10:56:47.345255
47,0.2225,0.8579,0.5187,-5.915,-6.440,22.995,0.00,0.0184,0.0508,0.0200,0.0087,2025-06-06T10:56:47.345255
48,0.1932,0.8511,0.5480,-8.750,-10.815,29.120,2.00,0.0184,0.0508,0.0200,0.0087,2025-06-06T10:56:47.345255
49,0.2333,0.8237,0.5890,-10.570,-26.390,36.960,0.00,0.0184,0.0508,0.0100,0.0000,2025-06-06T10:56:47.345255
50,0.2381,0.8072,0.5744,-8.645,-39.620,43.365,3.00,0.0184,0.0254,0.0100,0.0087,2025-06-06T10:56:47.345255
51,0.2694,0.8477,0.5104,-6.860,-48.580,44.800,2.00,0.0184,0.0254,0.0100,0.0087,2025-06-06T10:56:47.345255
52,0.2840,0.9052,0.4485,-3.605,-46.690,45.360,0.00,0.0184,0.0254,0.0100,0.0087,2025-06-06T10:56:47.345255
53,0.3118,0.8857,0.4163,1.820,-44.870,48.615,2.00,0.0184,0.0508,0.0100,0.0087,2025-06-06T10:56:47.345255
54,0.3279,0.8355,0.4177,6.510,-42.420,48.895,2.00,0.0184,0.0508,0.0200,0.0087,2025-06-06T10:56:47.345255
55,0.3279,0.8330,0.4168,8.085,-38.150,42.980,0.00,0.0184,0.0508,0.0200,0.0087,2025-06-06T10:56:47.345255
56,0.3196,0.8501,0.3894,13.615,-30.695,37.765,0.00,0.0184,0.0254,0.0200,0.0087,2025-06-06T10:56:47.345255
57,0.3231,0.8520,0.4275,15.890,-28.105,37.135,0.00,0.0184,0.0508,0.0401,0.0087,2025-06-06T10:56:47.345255
58,0.3206,0.8642,0.4392,13.510,-33.180,38.745,4.00,0.0184,0.0254,0.0300,0.0174,2025-06-06T10:56:47.345255
59,0.3265,0.8252,0.4538,5.915,-42.000,42.385,1.00,0.0184,0.0254,0.0300,0.0174,2025-06-06T10:56:47.537142
60,0.3538,0.7574,0.4299,0.840,-52.325,44.450,2.00,0.0184,0.0508,0.0300,0.0174,2025-06-06T10:56:47.537142
61,0.3719,0.7354,0.3572,-4.200,-54.425,41.230,0.00,0.0368,0.0000,0.0200,0.0087,2025-06-06T10:56:47.537142
62,0.4168,0.7281,0.2952,-6.090,-45.570,31.605,1.00,0.0184,0.0508,0.0200,0.0174,2025-06-06T10:56:47.537142
63,0.4353,0.7100,0.2552,-8.855,-27.160,19.950,3.00,0.0368,0.0254,0.0200,0.0174,2025-06-06T10:56:47.537142
64,0.4265,0.6915,0.3016,-7.840,-5.215,2.765,0.00,0.0184,0.0000,0.0100,0.0000,2025-06-06T10:56:47.537142
65,0.4055,0.7271,0.3323,-10.535,11.445,-19.110,0.00,0.0184,0.0254,0.0300,0.0087,2025-06-06T10:56:47.537142
66,0.3982,0.8047,0.3523,-14.560,20.160,-25.270,1.00,0.0184,0.0508,0.0200,0.0087,2025-06-06T10:56:47.537142
67,0.3865,0.8589,0.4021,-14.875,15.715,-9.100,0.00,0.0184,0.0254,0.0100,0.0000,2025-06-06T10:56:47.537142
68,0.3748,0.8550,0.4582,-12.005,3.640,-6.055,2.00,0.0184,0.0508,0.0200,0.0174,2025-06-06T10:56:47.537142
69,0.3728,0.8379,0.4675,-15.400,-4.550,-2.380,2.00,0.0368,0.0254,0.0300,0.0087,2025-06-06T10:56:47.537142
70,0.3909,0.8145,0.4226,-18.410,-9.380,-0.385,4.00,0.0184,0.0762,0.0100,0.0000,2025-06-06T10:56:47.537142
71,0.4148,0.8062,0.4080,-12.670,-5.005,-1.085,2.00,0.0368,0.0000,0.0100,0.0087,2025-06-06T10:56:47.537142
72,0.4109,0.8159,0.4060,-6.755,3.045,-4.830,1.00,0.0184,0.0254,0.0200,0.0087,2025-06-06T10:56:47.537142
73,0.3967,0.8267,0.4153,-7.105,7.245,-9.205,6.00,0.0368,0.0508,0.0100,0.0087,2025-06-06T10:56:47.636740
74,0.3899,0.8272,0.4294,-7.000,6.230,-8.925,0.00,0.0184,0.0254,0.0100,0.0174,2025-06-06T10:56:47.636740
75,0.3894,0.8325,0.4299,-3.360,2.975,-4.095,3.00,0.0368,0.0508,0.0200,0.0087,2025-06-06T10:56:47.636740
76,0.3889,0.8281,0.4285,-2.030,0.280,-1.295,0.00,0.0368,0.0000,0.0100,0.0174,2025-06-06T10:56:47.636740
77,0.3792,0.8028,0.4309,-3.500,1.050,-3.920,2.00,0.0368,0.0254,0.0100,0.0349,2025-06-06T10:56:47.636740
78,0.3855,0.7754,0.4436,-5.390,4.340,-10.955,4.00,0.0368,0.0762,0.0100,0.0087,2025-06-06T10:56:47.636740
79,0.3728,0.7754,0.4665,-5.285,7.000,-15.505,3.00,0.0184,0.0000,0.0200,0.0087,2025-06-06T10:56:47.636740
80,0.3748,0.7935,0.4660,-5.320,5.355,-16.555,2.00,0.0184,0.0508,0.0100,0.0087,2025-06-06T10:56:47.738772
81,0.3562,0.8272,0.4743,-3.010,3.010,-14.560,0.00,0.0368,0.0762,0.0300,0.0087,2025-06-06T10:56:47.738772
82,0.3514,0.8403,0.4646,-2.800,0.350,-11.270,0.00,0.0184,0.0000,0.0100,0.0174,2025-06-06T10:56:47.738772
83,0.3528,0.8540,0.4675,-1.085,-1.015,-8.225,2.00,0.0184,0.0254,0.0300,0.0087,2025-06-06T10:56:47.738772
84,0.3431,0.8369,0.4626,-1.330,-4.165,-3.570,2.00,0.0368,0.0508,0.0200,0.0087,2025-06-06T10:56:47.738772
85,0.3406,0.8101,0.4524,-0.910,-8.330,0.210,7.00,0.0368,0.0254,0.0100,0.0174,2025-06-06T10:56:47.738772
86,0.3475,0.8008,0.4416,-1.995,-7.280,-1.260,2.00,0.0368,0.0254,0.0200,0.0087,2025-06-06T10:56:47.738772
87,0.3489,0.8096,0.4260,-1.085,-2.310,-5.600,0.00,0.0368,0.0000,0.0200,0.0087,2025-06-06T10:56:47.738772
88,0.3528,0.8106,0.4280,-0.350,2.590,-7.595,1.00,0.0184,0.0254,0.0200,0.0087,2025-06-06T10:56:47.877281
89,0.3372,0.8364,0.4499,1.470,6.265,-10.465,0.00,0.0184,0.0508,0.0300,0.0087,2025-06-06T10:56:47.877281
90,0.3240,0.8467,0.4602,-1.680,5.075,-10.325,0.00,0.0184,0.0508,0.0300,0.0087,2025-06-06T10:56:47.877281
91,0.3211,0.8511,0.4675,-1.715,0.700,-6.265,5.00,0.0368,0.0254,0.0200,0.0087,2025-06-06T10:56:47.877281
92,0.3226,0.8520,0.4612,1.610,-2.555,-1.575,5.00,0.0184,0.0254,0.0300,0.0087,2025-06-06T10:56:47.877281
93,0.3182,0.8603,0.4485,2.485,-3.220,0.315,7.00,0.0184,0.0508,0.0300,0.0087,2025-06-06T10:56:47.877281
94,0.3274,0.8413,0.4412,0.665,-2.275,-0.035,9.00,0.0184,0.0508,0.0200,0.0087,2025-06-06T10:56:47.877281
95,0.3255,0.8189,0.4504,2.905,0.210,-1.155,0.00,0.0184,0.0508,0.0200,0.0262,2025-06-06T10:56:47.877281
96,0.3279,0.8018,0.4621,3.815,2.345,-3.640,3.00,0.0184,0.0508,0.0200,0.0087,2025-06-06T10:56:47.877281
97,0.3211,0.8062,0.4646,2.625,1.925,-5.950,2.00,0.0184,0.0254,0.0100,0.0087,2025-06-06T10:56:47.877281
98,0.3201,0.8447,0.4553,3.395,3.570,-7.175,0.00,0.0184,0.0508,0.0000,0.0000,2025-06-06T10:56:48.059355
99,0.3255,0.8672,0.4329,2.905,3.885,-5.390,3.00,0.0368,0.0254,0.0200,0.0087,2025-06-06T10:56:48.059355
100,0.3274,0.8613,0.4280,5.565,4.900,-2.065,0.00,0.0368,0.0508,0.0200,0.0087,2025-06-06T10:56:48.059355
101,0.3216,0.8511,0.4451,6.090,4.305,-0.315,0.00,0.0184,0.0254,0.0200,0.0174,2025-06-06T10:56:48.059355
102,0.3240,0.8237,0.4480,4.340,3.115,-0.455,0.00,0.0368,0.0508,0.0300,0.0174,2025-06-06T10:56:48.059355
103,0.3318,0.8057,0.4573,3.675,4.550,-1.330,0.00,0.0184,0.0508,0.0100,0.0087,2025-06-06T10:56:48.059355
104,0.3333,0.7964,0.4587,4.235,4.690,-1.890,3.00,0.0184,0.0254,0.0200,0.0087,2025-06-06T10:56:48.059355
105,0.3353,0.8057,0.4621,4.095,5.460,-2.520,10.00,0.0368,0.0254,0.0100,0.0087,2025-06-06T10:56:48.059355
106,0.3284,0.8150,0.4651,1.715,3.045,-1.225,1.00,0.0184,0.0254,0.0200,0.0087,2025-06-06T10:56:48.059355
107,0.3377,0.8159,0.4651,1.750,0.315,0.490,0.00,0.0184,0.0000,0.0300,0.0087,2025-06-06T10:56:48.059355
108,0.3396,0.8179,0.4699,1.785,-1.610,2.555,0.00,0.0184,0.0254,0.0000,0.0087,2025-06-06T10:56:48.059355
109,0.3494,0.8208,0.4753,2.485,-2.870,2.695,6.00,0.0368,0.0000,0.0401,0.0087,2025-06-06T10:56:48.059355
110,0.3518,0.8169,0.4626,1.890,-4.445,2.905,7.00,0.0368,0.0508,0.0100,0.0000,2025-06-06T10:56:48.059355
111,0.3548,0.8145,0.4582,3.395,-5.530,3.465,3.00,0.0184,0.0508,0.0100,0.0087,2025-06-06T10:56:48.059355
112,0.3509,0.8081,0.4607,3.115,-5.740,1.855,0.00,0.0184,0.0508,0.0200,0.0174,2025-06-06T10:56:48.149294
113,0.3426,0.8164,0.4577,3.115,-4.760,-1.225,0.00,0.0184,0.0254,0.0401,0.0087,2025-06-06T10:56:48.149294
114,0.3343,0.8413,0.4451,1.015,-4.865,-3.395,0.00,0.0368,0.0762,0.0200,0.0087,2025-06-06T10:56:48.149294
115,0.3284,0.8555,0.4436,2.450,-5.495,-1.785,9.00,0.0368,0.0762,0.0200,0.0174,2025-06-06T10:56:48.149294
116,0.3157,0.8520,0.4480,3.220,-6.230,0.980,2.00,0.0184,0.0254,0.0200,0.0087,2025-06-06T10:56:48.149294
117,0.3045,0.8589,0.4553,4.270,-8.750,2.100,0.00,0.0368,0.0254,0.0200,0.0000,2025-06-06T10:56:48.149294
118,0.3065,0.8682,0.4309,0.315,-11.550,3.675,1.00,0.0184,0.0508,0.0300,0.0087,2025-06-06T10:56:48.149294
119,0.3167,0.8584,0.4109,0.700,-13.265,7.770,2.00,0.0368,0.0508,0.0100,0.0087,2025-06-06T10:56:48.250748
120,0.3201,0.8384,0.4046,3.220,-10.955,8.715,9.00,0.0184,0.1273,0.0200,0.0087,2025-06-06T10:56:48.250748
121,0.3240,0.8194,0.4055,2.660,-5.705,5.215,6.00,0.0368,0.0508,0.0100,0.0087,2025-06-06T10:56:48.250748
122,0.3255,0.8233,0.4304,2.625,1.715,-1.400,0.00,0.0184,0.0254,0.0300,0.0087,2025-06-06T10:56:48.250748
123,0.3172,0.8237,0.4660,3.115,3.850,-3.220,0.00,0.0184,0.0508,0.0200,0.0087,2025-06-06T10:56:48.250748
124,0.3099,0.8369,0.4880,2.800,0.875,-1.015,1.00,0.0184,0.0254,0.0300,0.0087,2025-06-06T10:56:48.250748
125,0.3001,0.8511,0.4778,0.525,-6.580,3.115,2.00,0.0368,0.0254,0.0000,0.0087,2025-06-06T10:56:48.250748
126,0.3060,0.8589,0.4778,1.190,-11.725,7.455,4.00,0.0368,0.0254,0.0300,0.0087,2025-06-06T10:56:48.355224
127,0.3138,0.8403,0.4685,1.680,-14.630,12.285,4.00,0.0184,0.0508,0.0200,0.0087,2025-06-06T10:56:48.355224
128,0.3265,0.8276,0.4602,1.855,-15.470,11.165,0.00,0.0184,0.0254,0.0200,0.0087,2025-06-06T10:56:48.355224
129,0.2718,0.7847,0.3748,-1.575,-23.590,11.200,14.00,0.0184,0.0254,0.0200,0.0087,2025-06-06T10:56:48.355224
130,0.3562,0.8125,0.3919,-6.160,-17.885,6.965,1.00,0.0184,0.0508,0.0100,0.0087,2025-06-06T10:56:48.355224
131,0.3499,0.8130,0.3743,-2.940,-9.765,3.780,2.00,0.0184,0.0508,0.0300,0.0087,2025-06-06T10:56:48.355224
132,0.3421,0.8125,0.3875,0.770,-3.850,-0.385,9.00,0.0184,0.0254,0.0200,0.0087,2025-06-06T10:56:48.355224
133,0.3470,0.8481,0.4168,-2.380,-0.070,-2.905,8.00,0.0184,0.0508,0.0200,0.0174,2025-06-06T10:56:48.355224
134,0.3362,0.8472,0.4265,-1.785,0.280,-2.170,0.00,0.0368,0.0254,0.0200,0.0000,2025-06-06T10:56:48.462913
135,0.3328,0.8672,0.4524,1.085,-2.240,1.295,6.00,0.0368,0.0762,0.0300,0.0174,2025-06-06T10:56:48.463187
136,0.3343,0.8745,0.4641,0.630,-5.530,4.445,1.00,0.0368,0.0254,0.0200,0.0174,2025-06-06T10:56:48.463187
137,0.3421,0.8550,0.4538,-0.420,-10.360,9.065,0.00,0.0184,0.0508,0.0100,0.0174,2025-06-06T10:56:48.463187
138,0.3582,0.8355,0.4397,1.715,-12.740,11.515,0.00,0.0184,0.0762,0.0200,0.0000,2025-06-06T10:56:48.463187
139,0.3670,0.8174,0.4324,2.170,-10.675,10.255,0.00,0.0184,0.0254,0.0200,0.0087,2025-06-06T10:56:48.463187
140,0.3684,0.7993,0.4250,1.750,-7.735,5.005,0.00,0.0000,0.0254,0.0100,0.0087,2025-06-06T10:56:48.463187
141,0.3728,0.7964,0.4255,1.505,-4.655,1.190,5.00,0.0184,0.0254,0.0100,0.0087,2025-06-06T10:56:48.463187
142,0.3772,0.7998,0.4207,1.435,-3.430,0.105,8.00,0.0184,0.0508,0.0100,0.0087,2025-06-06T10:56:48.610907
143,0.3733,0.8032,0.4226,1.365,-2.520,-0.420,2.00,0.0184,0.0508,0.0200,0.0087,2025-06-06T10:56:48.610907
144,0.3728,0.7969,0.4329,1.855,-1.330,-1.750,8.00,0.0368,0.0508,0.0200,0.0087,2025-06-06T10:56:48.610907
145,0.3675,0.8052,0.4407,0.665,-1.155,-3.710,0.00,0.0368,0.0762,0.0501,0.0174,2025-06-06T10:56:48.610907
146,0.3670,0.8125,0.4299,-0.140,-1.995,-4.025,2.00,0.0368,0.0508,0.0100,0.0087,2025-06-06T10:56:48.610907
147,0.3680,0.8189,0.4363,0.280,-0.805,-4.340,1.00,0.0000,0.0508,0.0300,0.0087,2025-06-06T10:56:48.610907
148,0.3626,0.8237,0.4402,1.295,-1.050,-3.080,1.00,0.0184,0.0508,0.0100,0.0000,2025-06-06T10:56:48.610907
149,0.3538,0.8223,0.4514,1.050,-1.050,-3.430,1.00,0.0184,0.0508,0.0401,0.0087,2025-06-06T10:56:48.804519
150,0.3455,0.8267,0.4612,0.840,-2.450,-3.605,3.00,0.0368,0.0254,0.0000,0.0087,2025-06-06T10:56:48.804519
151,0.3431,0.8340,0.4402,-0.630,-5.670,-1.540,22.00,0.0184,0.0508,0.0200,0.0087,2025-06-06T10:56:48.804519
152,0.3514,0.8428,0.4329,-1.295,-9.730,1.470,1.00,0.0184,0.0508,0.0100,0.0174,2025-06-06T10:56:48.804519
153,0.3597,0.8213,0.4055,0.245,-9.975,4.235,0.00,0.0184,0.0254,0.0300,0.0174,2025-06-06T10:56:48.804519
154,0.3675,0.8115,0.3992,0.980,-5.880,3.430,5.00,0.0184,0.0254,0.0300,0.0087,2025-06-06T10:56:48.804519
155,0.3562,0.8081,0.4094,1.330,-1.085,-0.280,0.00,0.0184,0.0000,0.0300,0.0087,2025-06-06T10:56:48.807957
156,0.3523,0.8130,0.4280,0.595,1.540,-3.605,10.00,0.0184,0.0508,0.0300,0.0000,2025-06-06T10:56:48.807957
157,0.3494,0.8252,0.4314,-1.330,1.820,-4.515,1.00,0.0368,0.0254,0.0200,0.0174,2025-06-06T10:56:48.807957
158,0.3509,0.8330,0.4441,-0.980,0.595,-2.205,0.00,0.0184,0.0254,0.0200,0.0087,2025-06-06T10:56:48.807957
159,0.3528,0.8194,0.4548,-0.455,-1.785,1.365,0.00,0.0184,0.0000,0.0200,0.0087,2025-06-06T10:56:48.807957
160,0.3484,0.8052,0.4553,-1.995,-5.740,1.050,2.00,0.0184,0.0508,0.0200,0.0174,2025-06-06T10:56:48.807957
161,0.3514,0.8140,0.4260,-5.565,-7.455,-0.840,0.00,0.0368,0.0254,0.0300,0.0087,2025-06-06T10:56:48.807957
162,0.3621,0.8267,0.4002,-4.865,-5.565,-1.820,3.00,0.0368,0.0508,0.0300,0.0087,2025-06-06T10:56:48.807957
163,0.3621,0.8325,0.3972,-0.560,1.085,-2.030,4.00,0.0184,0.0254,0.0100,0.0174,2025-06-06T10:56:48.807957
164,0.3587,0.8125,0.4299,0.910,4.095,-2.870,0.00,0.0184,0.0762,0.0300,0.0174,2025-06-06T10:56:48.807957
165,0.3470,0.8115,0.4543,-0.140,3.080,-4.760,3.00,0.0368,0.0254,0.0200,0.0174,2025-06-06T10:56:48.807957
166,0.3387,0.8276,0.4670,-1.505,1.365,-4.865,2.00,0.0184,0.0508,0.0300,0.0087,2025-06-06T10:56:48.807957
167,0.3396,0.8472,0.4660,-0.140,-0.350,-2.625,5.00,0.0184,0.0254,0.0200,0.0087,2025-06-06T10:56:48.870261
168,0.3416,0.8452,0.4709,0.595,-3.570,0.070,0.00,0.0184,0.0762,0.0200,0.0174,2025-06-06T10:56:48.870261
169,0.3396,0.8330,0.4719,0.245,-6.475,0.945,0.00,0.0368,0.0508,0.0200,0.0174,2025-06-06T10:56:48.870261
170,0.3411,0.8316,0.4534,-0.525,-7.910,0.630,0.00,0.0184,0.0254,0.0200,0.0087,2025-06-06T10:56:48.870261
171,0.3450,0.8345,0.4329,1.400,-6.475,0.140,26.00,0.0184,0.0508,0.0200,0.0174,2025-06-06T10:56:48.870261
172,0.3426,0.8428,0.4324,2.625,-4.340,-0.665,1.00,0.0368,0.0508,0.0200,0.0087,2025-06-06T10:56:48.970280
173,0.3426,0.8340,0.4294,1.610,-4.025,-0.560,0.00,0.0184,0.0254,0.0300,0.0174,2025-06-06T10:56:48.970280
174,0.3406,0.8262,0.4412,2.135,-3.850,-0.980,2.00,0.0184,0.0508,0.0300,0.0087,2025-06-06T10:56:48.970280
175,0.3372,0.8301,0.4304,1.820,-4.235,-1.435,2.00,0.0368,0.0254,0.0300,0.0087,2025-06-06T10:56:48.970280
176,0.3392,0.8345,0.4236,-0.175,-3.675,-2.555,1.00,0.0000,0.0762,0.0300,0.0087,2025-06-06T10:56:48.970280
177,0.3348,0.8325,0.4265,0.455,-1.750,-2.415,0.00,0.0368,0.0508,0.0401,0.0174,2025-06-06T10:56:48.970280
178,0.3328,0.8296,0.4319,1.085,-1.785,-1.785,4.00,0.0184,0.0508,0.0401,0.0087,2025-06-06T10:56:48.970280
179,0.3411,0.8218,0.4299,0.315,-2.485,-0.245,0.00,0.0184,0.0000,0.0300,0.0087,2025-06-06T10:56:48.970280
180,0.3367,0.8267,0.4319,0.910,-2.520,-0.280,2.00,0.0368,0.0508,0.0300,0.0087,2025-06-06T10:56:49.071350
181,0.3436,0.8345,0.4255,0.700,-1.855,-0.665,0.00,0.0368,0.0508,0.0300,0.0087,2025-06-06T10:56:49.071350
182,0.3421,0.8267,0.4392,0.210,-0.700,-0.525,8.00,0.0184,0.0508,0.0200,0.0087,2025-06-06T10:56:49.071350
183,0.3460,0.8135,0.4451,0.490,-1.610,-0.105,1.00,0.0368,0.0508,0.0200,0.0087,2025-06-06T10:56:49.071350
184,0.3445,0.8140,0.4426,-0.560,-2.415,-0.805,2.00,0.0368,0.0508,0.0200,0.0087,2025-06-06T10:56:49.071350
185,0.3465,0.8237,0.4392,-1.715,-1.120,-2.940,9.00,0.0184,0.0508,0.0100,0.0174,2025-06-06T10:56:49.071350
186,0.3514,0.8330,0.4368,-0.315,0.385,-3.885,1.00,0.0184,0.0000,0.0300,0.0087,2025-06-06T10:56:49.071350
187,0.3465,0.8452,0.4460,0.385,0.700,-3.710,3.00,0.0368,0.0508,0.0300,0.0087,2025-06-06T10:56:49.071350
188,0.3396,0.8369,0.4538,0.945,-0.595,-2.520,0.00,0.0368,0.0254,0.0200,0.0087,2025-06-06T10:56:49.316182
189,0.3382,0.8364,0.4568,1.260,-2.695,-1.085,1.00,0.0368,0.0508,0.0200,0.0174,2025-06-06T10:56:49.316182
190,0.3382,0.8423,0.4514,3.185,-3.675,0.315,2.00,0.0368,0.0508,0.0200,0.0087,2025-06-06T10:56:49.316182
191,0.3338,0.8247,0.4558,1.470,-4.690,0.840,0.00,0.0184,0.1273,0.0200,0.0087,2025-06-06T10:56:49.316182
192,0.3455,0.8169,0.4465,1.645,-5.145,0.385,0.00,0.0184,0.0254,0.0200,0.0174,2025-06-06T10:56:49.316182
193,0.3440,0.8145,0.4465,1.750,-4.340,-0.280,0.00,0.0368,0.0000,0.0300,0.0087,2025-06-06T10:56:49.316182
194,0.3387,0.8135,0.4382,1.960,-3.325,-1.715,1.00,0.0184,0.0254,0.0100,0.0087,2025-06-06T10:56:49.316182
195,0.3338,0.8218,0.4260,-0.735,-3.150,-3.465,0.00,0.0184,0.0254,0.0100,0.0087,2025-06-06T10:56:49.316182
196,0.3348,0.8247,0.4324,0.175,-2.450,-3.920,1.00,0.0184,0.0508,0.0300,0.0174,2025-06-06T10:56:49.316182
197,0.3328,0.8257,0.4407,1.260,-1.050,-3.710,1.00,0.0184,0.0254,0.0100,0.0174,2025-06-06T10:56:49.316182
198,0.3260,0.8350,0.4563,1.085,-2.380,-3.080,2.00,0.0000,0.0000,0.0200,0.0087,2025-06-06T10:56:49.316182
199,0.3270,0.8423,0.4524,-1.085,-5.215,-1.645,1.00,0.0184,0.0508,0.0200,0.0087,2025-06-06T10:56:49.316182
200,0.3294,0.8350,0.4387,-0.665,-6.860,0.525,4.00,0.0184,0.0000,0.0100,0.0087,2025-06-06T10:56:49.316182
201,0.3338,0.8389,0.4275,0.210,-7.245,1.190,5.00,0.0184,0.0254,0.0100,0.0087,2025-06-06T10:56:49.449814
202,0.3318,0.8418,0.4241,0.665,-4.865,-0.420,2.00,0.0184,0.0508,0.0200,0.0087,2025-06-06T10:56:49.449814
203,0.3274,0.8555,0.4236,1.715,-1.400,-3.500,0.00,0.0184,0.0508,0.0200,0.0174,2025-06-06T10:56:49.530232
204,0.3279,0.8608,0.4314,2.065,-0.245,-3.045,0.00,0.0368,0.0508,0.0200,0.0174,2025-06-06T10:56:49.530232
205,0.3260,0.8599,0.4431,2.905,-1.925,-1.260,1.00,0.0184,0.0254,0.0300,0.0087,2025-06-06T10:56:49.530232
206,0.3177,0.8491,0.4460,1.575,-4.900,0.700,4.00,0.0184,0.0508,0.0100,0.0000,2025-06-06T10:56:49.530232
207,0.3250,0.8384,0.4407,1.015,-6.335,1.015,1.00,0.0368,0.0254,0.0100,0.0174,2025-06-06T10:56:49.530232
208,0.3304,0.8223,0.4265,1.050,-5.005,0.805,1.00,0.0184,0.0508,0.0100,0.0087,2025-06-06T10:56:49.530232
209,0.3318,0.8184,0.4314,1.925,-3.745,-0.420,5.00,0.0368,0.0254,0.0100,0.0087,2025-06-06T10:56:49.530232
210,0.3387,0.8189,0.4187,0.455,-2.415,-1.015,0.00,0.0184,0.0000,0.0000,0.0087,2025-06-06T10:56:49.530232
211,0.3421,0.8179,0.4231,2.450,-0.490,-1.120,0.00,0.0368,0.0508,0.0200,0.0087,2025-06-06T10:56:49.530232
212,0.3299,0.8164,0.4250,1.855,1.050,-2.450,0.00,0.0000,0.0254,0.0200,0.0087,2025-06-06T10:56:49.530232
213,0.3260,0.8335,0.4431,0.875,2.555,-5.670,0.00,0.0184,0.0254,0.0501,0.0087,2025-06-06T10:56:49.530232
214,0.3240,0.8462,0.4402,-0.945,2.415,-6.475,2.00,0.0184,0.0508,0.0300,0.0087,2025-06-06T10:56:49.530232
215,0.3221,0.8447,0.4485,-0.210,-0.070,-3.185,19.00,0.0184,0.0000,0.0200,0.0000,2025-06-06T10:56:49.530232
216,0.3206,0.8403,0.4558,0.700,-3.010,-0.385,3.00,0.0184,0.0254,0.0401,0.0087,2025-06-06T10:56:49.530232
217,0.3206,0.8447,0.4568,1.820,-3.115,0.070,3.00,0.0184,0.0254,0.0100,0.0087,2025-06-06T10:56:49.530232
218,0.3250,0.8516,0.4441,2.695,-2.835,0.280,4.00,0.0184,0.0000,0.0100,0.0087,2025-06-06T10:56:49.530232
219,0.3250,0.8403,0.4372,1.750,-4.515,2.345,0.00,0.0184,0.0508,0.0200,0.0087,2025-06-06T10:56:49.530232
220,0.3318,0.8330,0.4446,2.240,-5.425,3.395,5.00,0.0368,0.0508,0.0200,0.0174,2025-06-06T10:56:49.530232
221,0.3274,0.8267,0.4426,1.260,-4.865,1.960,0.00,0.0368,0.0508,0.0300,0.0262,2025-06-06T10:56:49.722058
222,0.3304,0.8154,0.4480,0.945,-3.920,0.455,1.00,0.0368,0.0254,0.0401,0.0087,2025-06-06T10:56:49.722058
223,0.3294,0.8194,0.4329,0.595,-2.800,-1.855,1.00,0.0184,0.0254,0.0200,0.0087,2025-06-06T10:56:49.722058
224,0.3294,0.8237,0.4231,-0.455,-3.080,-1.925,9.00,0.0184,0.0254,0.0100,0.0087,2025-06-06T10:56:49.722058
225,0.3328,0.8389,0.4207,0.805,-1.540,-1.190,0.00,0.0184,0.0000,0.0100,0.0087,2025-06-06T10:56:49.722058
226,0.3294,0.8350,0.4153,1.925,-0.280,-0.630,3.00,0.0368,0.0254,0.0200,0.0087,2025-06-06T10:56:49.722058
227,0.3260,0.8306,0.4192,0.910,-0.210,-0.560,4.00,0.0184,0.0254,0.0300,0.0087,2025-06-06T10:56:49.722058
228,0.3328,0.8174,0.4343,1.750,0.910,-1.155,0.00,0.0184,0.0254,0.0200,0.0087,2025-06-06T10:56:49.722058
229,0.3279,0.8150,0.4343,1.785,1.645,-1.715,1.00,0.0184,0.0762,0.0100,0.0174,2025-06-06T10:56:49.722058
230,0.3240,0.8281,0.4573,0.945,2.870,-4.095,6.00,0.0184,0.0762,0.0200,0.0000,2025-06-06T10:56:49.722058
231,0.3196,0.8550,0.4548,0.350,2.030,-4.515,2.00,0.0184,0.0254,0.0300,0.0087,2025-06-06T10:56:49.722058
232,0.3192,0.8564,0.4519,-0.245,-1.645,-1.295,1.00,0.0184,0.0000,0.0200,0.0000,2025-06-06T10:56:49.722058
233,0.3148,0.8472,0.4529,0.385,-4.445,1.155,2.00,0.0184,0.0508,0.0100,0.0087,2025-06-06T10:56:49.722058
234,0.3250,0.8286,0.4397,-0.980,-6.335,0.910,2.00,0.0184,0.0508,0.0200,0.0087,2025-06-06T10:56:49.890671
235,0.3284,0.8252,0.4211,-0.980,-4.690,-0.980,4.00,0.0184,0.0254,0.0200,0.0174,2025-06-06T10:56:49.890671
236,0.3260,0.8477,0.4192,0.490,1.715,-6.125,0.00,0.0184,0.0508,0.0100,0.0087,2025-06-06T10:56:49.890671
237,0.3250,0.8550,0.4124,0.735,4.550,-7.035,1.00,0.0184,0.0254,0.0300,0.0087,2025-06-06T10:56:49.890671
238,0.3187,0.8477,0.4207,1.435,4.095,-5.075,2.00,0.0184,0.0254,0.0300,0.0174,2025-06-06T10:56:49.890671
239,0.3187,0.8423,0.4270,2.380,2.240,-3.990,0.00,0.0184,0.0254,0.0200,0.0087,2025-06-06T10:56:49.890671
240,0.3123,0.8325,0.4124,1.470,2.450,-4.585,1.00,0.0184,0.0254,0.0200,0.0087,2025-06-06T10:56:49.890671
241,0.3177,0.8267,0.4153,1.505,5.530,-8.225,2.00,0.0368,0.0508,0.0100,0.0000,2025-06-06T10:56:49.890671
242,0.3216,0.8179,0.4211,1.365,10.290,-11.235,0.00,0.0184,0.0254,0.0000,0.0087,2025-06-06T10:56:49.891671
243,0.3211,0.7940,0.4348,0.210,10.885,-12.775,5.00,0.0184,0.0254,0.0200,0.0087,2025-06-06T10:56:49.891671
244,0.3162,0.7842,0.4407,-1.715,10.325,-16.030,1.00,0.0368,0.0254,0.0401,0.0087,2025-06-06T10:56:49.891671
245,0.3167,0.7930,0.4280,-5.460,12.285,-20.405,1.00,0.0184,0.0254,0.0300,0.0174,2025-06-06T10:56:49.891671
246,0.3157,0.8150,0.4216,-7.070,16.695,-25.690,1.00,0.0368,0.0000,0.0200,0.0174,2025-06-06T10:56:49.891671
247,0.3152,0.7896,0.4016,-9.065,19.180,-26.565,1.00,0.0184,0.0508,0.0300,0.0087,2025-06-06T10:56:49.891671
248,0.3011,0.8042,0.4236,-7.245,21.945,-28.595,4.00,0.0184,0.0508,0.0100,0.0087,2025-06-06T10:56:49.891671
249,0.2869,0.8198,0.4607,-7.875,27.090,-31.220,0.00,0.0184,0.0254,0.0200,0.0087,2025-06-06T10:56:50.041032
250,0.2728,0.8364,0.4904,-5.915,27.405,-31.675,0.00,0.0184,0.0508,0.0300,0.0087,2025-06-06T10:56:50.041032
251,0.2704,0.8345,0.5017,-9.135,22.995,-28.910,8.00,0.0368,0.0254,0.0100,0.0174,2025-06-06T10:56:50.041032
252,0.2708,0.8115,0.3762,-12.495,12.565,-24.920,0.00,0.0368,0.0508,0.0401,0.0000,2025-06-06T10:56:50.041032
253,0.2806,0.7696,0.4534,-16.870,6.440,-23.730,1.00,0.0184,0.0508,0.0401,0.0174,2025-06-06T10:56:50.041032
254,0.2840,0.7486,0.4192,-19.845,10.955,-32.060,3.00,0.0184,0.0254,0.0300,0.0087,2025-06-06T10:56:50.041032
255,0.3045,0.7130,0.3889,-22.225,24.710,-43.225,1.00,0.0184,0.0000,0.0100,0.0087,2025-06-06T10:56:50.041032
256,0.2894,0.7061,0.3880,-20.825,46.620,-60.900,1.00,0.0368,0.0000,0.0200,0.0087,2025-06-06T10:56:50.041032
257,0.2430,0.6978,0.3884,-23.275,60.690,-72.380,2.00,0.0368,0.0508,0.0200,0.0174,2025-06-06T10:56:50.041032
258,0.2752,0.6939,0.3645,-27.195,70.700,-81.655,1.00,0.0184,0.0508,0.0300,0.0087,2025-06-06T10:56:50.041032
259,0.2211,0.7164,0.4089,-31.955,84.735,-90.370,0.00,0.0184,0.0508,0.0300,0.0087,2025-06-06T10:56:50.041032
260,0.1854,0.7110,0.3850,-33.110,101.255,-100.940,2.00,0.0368,0.0508,0.0300,0.0087,2025-06-06T10:56:50.314925
261,0.1484,0.6900,0.3714,-36.505,122.325,-112.560,0.00,0.0184,0.0508,0.0300,0.0087,2025-06-06T10:56:50.314925
262,0.0766,0.7305,0.3235,-35.455,138.320,-118.405,0.00,0.0184,0.0508,0.0300,0.0087,2025-06-06T10:56:50.314925
263,0.0766,0.7105,0.2987,-40.530,150.080,-118.720,2.00,0.0184,0.0254,0.0401,0.0174,2025-06-06T10:56:50.314925
264,-0.0254,0.6749,0.3377,-42.875,165.550,-126.770,4.00,0.0184,0.0000,0.0100,0.0087,2025-06-06T10:56:50.314925
265,-0.1166,0.7305,0.3226,-41.895,193.620,-141.330,0.00,0.0184,0.0254,0.0300,0.0087,2025-06-06T10:56:50.314925
266,-0.2108,0.7798,0.3274,-33.460,216.895,-147.665,2.00,0.0184,0.0254,0.0200,0.0174,2025-06-06T10:56:50.314925
267,-0.2708,0.7906,0.3694,-20.335,231.385,-144.690,0.00,0.0184,0.0254,0.0100,0.0087,2025-06-06T10:56:50.314925
268,-0.3904,0.7954,0.4880,8.120,258.195,-143.360,0.00,0.0184,0.0254,0.0100,0.0087,2025-06-06T10:56:50.314925
269,-0.4002,0.6237,0.3050,3.325,269.500,-129.325,2.00,0.0368,0.0000,0.0200,0.0174,2025-06-06T10:56:50.314925
270,-0.5978,0.7096,0.5100,22.645,266.385,-134.540,0.00,0.0184,0.0508,0.0000,0.0174,2025-06-06T10:56:50.314925
271,-0.6803,0.8311,0.6237,12.250,253.365,-130.550,4.00,0.0368,0.0254,0.0200,0.0174,2025-06-06T10:56:50.314925
272,-0.7354,0.8808,0.6647,13.510,217.700,-120.960,2.00,0.0184,0.0762,0.0200,0.0087,2025-06-06T10:56:50.314925
273,-0.7871,0.8789,0.6983,9.905,161.665,-104.370,2.00,0.0184,0.0508,0.0000,0.0087,2025-06-06T10:56:50.314925
274,-0.7779,0.8745,0.6632,8.015,112.630,-82.215,0.00,0.0368,0.0254,0.0100,0.0087,2025-06-06T10:56:50.314925
275,-0.7793,0.8008,0.6285,-0.245,63.980,-70.840,0.00,0.0184,0.0508,0.0100,0.0000,2025-06-06T10:56:50.314925
276,-0.7715,0.8428,0.5144,-5.880,37.030,-66.185,6.00,0.0184,0.0508,0.0000,0.0087,2025-06-06T10:56:50.314925
277,-0.7398,0.8408,0.4260,-4.620,24.955,-55.265,2.00,0.0184,0.0254,0.0100,0.0087,2025-06-06T10:56:50.506055
278,-0.7486,0.8247,0.3967,7.140,24.605,-41.685,2.00,0.0184,0.0508,0.0401,0.0087,2025-06-06T10:56:50.506055
279,-0.7398,0.8062,0.4002,25.830,28.805,-28.385,0.00,0.0368,0.0508,0.0200,0.0174,2025-06-06T10:56:50.506055
280,-0.7579,0.8130,0.3938,36.225,28.420,-21.385,4.00,0.0368,0.0508,0.0100,0.0087,2025-06-06T10:56:50.506055
281,-0.7593,0.7886,0.4094,33.810,21.875,-16.695,3.00,0.0184,0.0508,0.0200,0.0087,2025-06-06T10:56:50.506055
282,-0.7603,0.7823,0.4163,31.080,9.065,-14.700,0.00,0.0000,0.0254,0.0300,0.0087,2025-06-06T10:56:50.506055
283,-0.7535,0.7808,0.3977,27.580,-4.655,-11.550,1.00,0.0184,0.0508,0.0200,0.0174,2025-06-06T10:56:50.506055
284,-0.7193,0.7579,0.3665,21.140,-22.715,-4.480,3.00,0.0184,0.0762,0.0300,0.0174,2025-06-06T10:56:50.506055
285,-0.7003,0.7452,0.3187,16.240,-31.745,0.140,18.00,0.0184,0.0000,0.0300,0.0087,2025-06-06T10:56:50.506055
286,-0.6900,0.7213,0.2830,16.415,-31.745,1.015,0.00,0.0184,0.0508,0.0200,0.0087,2025-06-06T10:56:50.506055
287,-0.6656,0.7032,0.2513,15.750,-24.885,-0.210,1.00,0.0184,0.0254,0.0300,0.0000,2025-06-06T10:56:50.506055
288,-0.6515,0.6759,0.2489,13.405,-16.870,-0.525,0.00,0.0368,0.0000,0.0200,0.0087,2025-06-06T10:56:50.506055
289,-0.6251,0.6705,0.2425,12.250,-7.175,-0.700,5.00,0.0184,0.0254,0.0200,0.0087,2025-06-06T10:56:50.506055
290,-0.6246,0.6656,0.2469,13.370,-0.280,-1.540,3.00,0.0184,0.0254,0.0100,0.0174,2025-06-06T10:56:50.506055
291,-0.6290,0.6852,0.2577,9.905,3.955,-3.010,6.00,0.0184,0.0254,0.0300,0.0087,2025-06-06T10:56:50.506055
292,-0.6359,0.6998,0.2747,7.175,5.040,-3.325,0.00,0.0184,0.0000,0.0000,0.0087,2025-06-06T10:56:50.506055
293,-0.6422,0.7052,0.2879,4.480,2.625,-2.135,2.00,0.0184,0.0000,0.0300,0.0174,2025-06-06T10:56:50.506055
294,-0.6481,0.6895,0.2982,1.120,-2.100,3.045,1.00,0.0368,0.0762,0.0200,0.0087,2025-06-06T10:56:50.764966
295,-0.6461,0.6852,0.3030,-0.805,-4.690,5.425,0.00,0.0368,0.0254,0.0100,0.0087,2025-06-06T10:56:50.764966
296,-0.6437,0.6934,0.2894,-3.045,-4.830,2.625,3.00,0.0368,0.0254,0.0200,0.0087,2025-06-06T10:56:50.764966
297,-0.6359,0.6817,0.2796,-9.555,-4.830,-0.140,0.00,0.0368,0.0508,0.0100,0.0174,2025-06-06T10:56:50.764966
298,-0.6202,0.6642,0.2772,-12.565,-3.955,-0.840,0.00,0.0368,0.0508,0.0200,0.0087,2025-06-06T10:56:50.764966
299,-0.6339,0.6627,0.2860,-12.460,1.050,-3.360,4.00,0.0184,0.0254,0.0100,0.0174,2025-06-06T10:56:50.764966
300,-0.6251,0.6710,0.2826,-14.840,4.900,-5.670,0.00,0.0000,0.0508,0.0100,0.0087,2025-06-06T10:56:50.764966
301,-0.6256,0.6798,0.2938,-16.240,8.330,-5.600,0.00,0.0184,0.0254,0.0300,0.0087,2025-06-06T10:56:50.764966
302,-0.6266,0.6852,0.3099,-13.055,12.740,-4.235,1.00,0.0184,0.0254,0.0200,0.0174,2025-06-06T10:56:50.764966
303,-0.6222,0.6764,0.3235,-9.380,14.280,-3.815,3.00,0.0184,0.0508,0.0200,0.0087,2025-06-06T10:56:50.764966
304,-0.6276,0.6481,0.3309,-12.775,12.250,-8.050,0.00,0.0184,0.0508,0.0100,0.0087,2025-06-06T10:56:50.764966
305,-0.6134,0.6276,0.3245,-23.345,10.920,-17.010,3.00,0.0000,0.0508,0.0200,0.0087,2025-06-06T10:56:50.764966
306,-0.6007,0.6012,0.2948,-32.375,13.475,-41.440,0.00,0.0184,0.0254,0.0100,0.0087,2025-06-06T10:56:50.764966
307,-0.5724,0.5934,0.2591,-40.180,24.115,-59.150,1.00,0.0368,0.0762,0.0200,0.0087,2025-06-06T10:56:50.764966
308,-0.6012,0.5573,0.1659,-50.050,39.480,-84.875,7.00,0.0184,0.0508,0.0300,0.0087,2025-06-06T10:56:50.764966
309,-0.5456,0.5641,0.1737,-52.535,59.535,-103.390,4.00,0.0184,0.0254,0.0100,0.0174,2025-06-06T10:56:50.764966
310,-0.5778,0.3465,0.1771,-59.605,75.565,-115.955,0.00,0.0184,0.0508,0.0200,0.0087,2025-06-06T10:56:50.764966
311,-0.7637,0.4860,0.1923,-58.975,93.940,-133.490,2.00,0.0184,0.0254,0.0200,0.0174,2025-06-06T10:56:50.764966
312,-0.4343,0.5724,0.1020,-56.035,111.195,-133.980,0.00,0.0368,0.1018,0.0300,0.0087,2025-06-06T10:56:50.946056
313,-0.5588,0.5768,0.1523,-24.115,150.255,-134.155,6.00,0.0184,0.0508,0.0200,0.0174,2025-06-06T10:56:50.946056
314,-0.4846,0.5319,0.2948,40.390,180.215,-136.535,10.00,0.0368,0.0508,0.0200,0.0174,2025-06-06T10:56:50.946056
315,-0.3548,0.3977,0.2757,75.250,198.170,-143.150,2.00,0.0368,0.0508,0.0200,0.0087,2025-06-06T10:56:50.946056
316,-0.2342,0.3143,0.2176,120.470,195.685,-155.365,0.00,0.0184,0.0508,0.0200,0.0087,2025-06-06T10:56:50.946056
317,-1.9540,2.4698,3.6180,26.180,-89.705,-23.345,0.00,0.0368,0.0000,0.0200,0.0087,2025-06-06T10:56:50.946056
318,-0.4031,0.0024,0.0459,21.105,-57.330,18.025,1.00,0.0184,0.0508,0.0200,0.0087,2025-06-06T10:56:50.946056
319,-0.9111,0.3118,-0.3065,-89.670,-197.190,32.655,0.00,0.0000,0.0254,0.0200,0.0000,2025-06-06T10:56:50.946056
320,-0.2518,0.1386,0.2489,86.450,-2.905,-5.460,0.00,0.0184,0.0508,0.0200,0.0087,2025-06-06T10:56:50.946056
321,-2.6650,0.6110,-0.7013,54.390,140.910,-39.235,2.00,0.0368,0.0254,0.0200,0.0087,2025-06-06T10:56:50.946056
322,-0.8877,0.3338,0.0337,21.070,2.975,4.515,4.00,0.0184,0.0000,0.0200,0.0000,2025-06-06T10:56:50.946056
323,-0.9579,0.4768,0.0181,-35.595,-58.205,28.735,0.00,0.0000,0.0762,0.0100,0.0087,2025-06-06T10:56:50.946056
324,-0.7164,0.2952,-0.0342,5.355,-8.050,14.070,3.00,0.0368,0.0254,0.0200,0.0174,2025-06-06T10:56:50.946056
325,-0.8306,0.4646,0.0122,13.125,21.490,-5.320,2.00,0.0184,0.0000,0.0300,0.0087,2025-06-06T10:56:50.946056
326,-0.8828,0.5744,0.1523,-6.580,5.775,-12.845,2.00,0.0000,0.0508,0.0200,0.0087,2025-06-06T10:56:50.946056
327,-0.9082,0.6212,0.2015,-12.355,-16.100,-11.935,2.00,0.0184,0.0508,0.0300,0.0174,2025-06-06T10:56:51.120305
328,-0.8760,0.4616,0.1601,14.175,-11.410,-13.685,0.00,0.0184,0.1018,0.0300,0.0087,2025-06-06T10:56:51.120305
329,-0.8804,0.3743,0.1137,5.355,-4.550,-12.110,5.00,0.0000,0.0254,0.0300,0.0087,2025-06-06T10:56:51.120305
330,-0.8838,0.3709,0.1054,-1.750,1.330,-3.920,2.00,0.0368,0.0508,0.0401,0.0174,2025-06-06T10:56:51.120305
331,-0.8955,0.4221,0.1127,5.950,0.910,5.320,0.00,0.0184,0.0762,0.0300,0.0087,2025-06-06T10:56:51.120305
332,-0.8886,0.4494,0.1147,4.515,-4.480,9.660,0.00,0.0368,0.0508,0.0300,0.0087,2025-06-06T10:56:51.120305
333,-0.8652,0.4787,0.1030,-1.890,-4.270,5.215,1.00,0.0184,0.0254,0.0401,0.0087,2025-06-06T10:56:51.120305
334,-0.8642,0.4826,0.1025,-2.275,-1.610,0.000,5.00,0.0184,0.0508,0.0200,0.0087,2025-06-06T10:56:51.120305
335,-0.8789,0.4743,0.1035,-1.190,-5.390,-0.490,2.00,0.0184,0.0254,0.0300,0.0087,2025-06-06T10:56:51.120305
336,-0.8779,0.4553,0.1020,-3.255,-8.785,-0.070,6.00,0.0184,0.0508,0.0100,0.0087,2025-06-06T10:56:51.120305
337,-0.8682,0.4538,0.1118,-2.870,-4.760,-1.855,4.00,0.0000,0.0254,0.0200,0.0087,2025-06-06T10:56:51.120305
338,-0.8808,0.4743,0.1440,-0.385,-2.800,-2.835,1.00,0.0184,0.0254,0.0100,0.0087,2025-06-06T10:56:51.120305
339,-0.8862,0.4738,0.1469,1.050,-4.690,-1.960,3.00,0.0184,0.0254,0.0300,0.0174,2025-06-06T10:56:51.120305
340,-0.8789,0.4577,0.1264,3.640,-3.745,-1.470,0.00,0.0184,0.0000,0.0300,0.0087,2025-06-06T10:56:51.208912
341,-0.8750,0.4421,0.1118,4.480,-1.470,-1.050,3.00,0.0368,0.0000,0.0200,0.0087,2025-06-06T10:56:51.208912
342,-0.8789,0.4416,0.1025,2.555,-1.680,0.105,2.00,0.0184,0.0254,0.0300,0.0087,2025-06-06T10:56:51.208912
343,-0.8769,0.4529,0.1000,1.750,-2.940,1.190,3.00,0.0368,0.0254,0.0200,0.0087,2025-06-06T10:56:51.208912
344,-0.8745,0.4646,0.1049,1.190,-3.885,0.350,0.00,0.0368,0.0254,0.0300,0.0174,2025-06-06T10:56:51.328126
345,-0.8764,0.4641,0.1059,-1.120,-5.075,-0.805,1.00,0.0184,0.0254,0.0401,0.0087,2025-06-06T10:56:51.328126
346,-0.8789,0.4573,0.1078,-2.450,-5.565,-1.155,7.00,0.0184,0.0762,0.0200,0.0087,2025-06-06T10:56:51.328126
347,-0.8740,0.4480,0.1122,-1.855,-5.215,-0.525,2.00,0.0368,0.0254,0.0300,0.0174,2025-06-06T10:56:51.328126
348,-0.8823,0.4480,0.1220,-1.505,-4.690,0.455,1.00,0.0184,0.0762,0.0100,0.0087,2025-06-06T10:56:51.328126
349,-0.8804,0.4577,0.1293,-0.525,-4.060,1.015,0.00,0.0184,0.0762,0.0200,0.0087,2025-06-06T10:56:51.328126
350,-0.8794,0.4670,0.1288,1.120,-3.150,0.805,1.00,0.0184,0.0508,0.0200,0.0087,2025-06-06T10:56:51.328126
351,-0.8808,0.4704,0.1215,2.485,-3.010,0.140,1.00,0.0184,0.0254,0.0300,0.0000,2025-06-06T10:56:51.447481
352,-0.8735,0.4651,0.1098,2.275,-3.115,-1.050,0.00,0.0184,0.0254,0.0200,0.0087,2025-06-06T10:56:51.447481
353,-0.8735,0.4573,0.1025,1.750,-3.360,-1.610,1.00,0.0184,0.0508,0.0200,0.0087,2025-06-06T10:56:51.447481
354,-0.8769,0.4524,0.1039,1.120,-3.955,-1.540,2.00,0.0000,0.0508,0.0200,0.0087,2025-06-06T10:56:51.447481
355,-0.7520,0.4499,0.1098,-0.035,-4.410,-1.015,0.00,0.0184,0.0508,0.0200,0.0000,2025-06-06T10:56:51.447481
356,-0.8823,0.4543,0.1166,-0.035,-4.900,-0.385,2.00,0.0368,0.0254,0.0200,0.0174,2025-06-06T10:56:51.447481
357,-0.8823,0.4534,0.1161,-0.805,-4.375,0.105,1.00,0.0368,0.0508,0.0501,0.0087,2025-06-06T10:56:51.447481
358,-0.8779,0.4548,0.1147,-0.560,-3.710,0.770,0.00,0.0184,0.0254,0.0200,0.0087,2025-06-06T10:56:51.447481
359,-0.8774,0.4553,0.1147,0.105,-4.025,1.050,2.00,0.0184,0.0508,0.0401,0.0174,2025-06-06T10:56:51.447481
360,-0.8764,0.4597,0.1127,0.665,-4.130,0.700,1.00,0.0184,0.0508,0.0501,0.0000,2025-06-06T10:56:51.447481
361,-0.8789,0.4651,0.1137,-0.560,-4.130,0.280,0.00,0.0184,0.0254,0.0401,0.0087,2025-06-06T10:56:51.447481
362,-0.8769,0.4621,0.1113,-0.280,-4.200,-0.350,1.00,0.0184,0.0254,0.0200,0.0087,2025-06-06T10:56:51.447481
363,-0.8799,0.4626,0.1166,0.770,-4.200,-0.910,1.00,0.0184,0.1018,0.0401,0.0087,2025-06-06T10:56:51.578746
364,-0.8804,0.4568,0.1108,1.750,-4.095,-1.155,0.00,0.0184,0.0508,0.0401,0.0087,2025-06-06T10:56:51.578746
365,-0.8794,0.4558,0.1161,2.590,-4.795,-0.770,0.00,0.0184,0.0508,0.0300,0.0087,2025-06-06T10:56:51.578746
366,-0.8828,0.4524,0.1176,0.980,-4.585,-0.280,2.00,0.0184,0.0000,0.0300,0.0000,2025-06-06T10:56:51.578746
367,-0.8769,0.4534,0.1113,-0.490,-3.570,0.280,0.00,0.0184,0.0508,0.0200,0.0000,2025-06-06T10:56:51.578746
368,-0.8764,0.4490,0.1088,2.135,-4.130,0.175,2.00,0.0184,0.0508,0.0200,0.0087,2025-06-06T10:56:51.578746
369,-0.8813,0.4548,0.1181,0.560,-4.830,0.175,3.00,0.0184,0.0254,0.0300,0.0087,2025-06-06T10:56:51.578746
370,-0.8813,0.4558,0.1127,-2.030,-4.060,0.420,0.00,0.0184,0.0000,0.0300,0.0087,2025-06-06T10:56:51.578746
371,-0.8750,0.4568,0.1078,-0.385,-3.675,0.000,0.00,0.0184,0.0000,0.0401,0.0174,2025-06-06T10:56:51.578746
372,-0.8760,0.4597,0.1171,-0.280,-4.235,-0.245,1.00,0.0184,0.0508,0.0300,0.0000,2025-06-06T10:56:51.578746
373,-0.8828,0.4587,0.1152,0.280,-4.795,0.000,0.00,0.0368,0.0508,0.0200,0.0087,2025-06-06T10:56:51.578746
374,-0.8799,0.4577,0.1200,1.050,-4.410,-0.350,11.00,0.0184,0.0508,0.0200,0.0087,2025-06-06T10:56:51.747526
375,-0.8779,0.4543,0.1191,0.875,-4.060,-0.385,2.00,0.0184,0.0254,0.0401,0.0174,2025-06-06T10:56:51.747526
376,-0.8804,0.4568,0.1157,0.455,-3.675,-0.490,18.00,0.0368,0.0000,0.0401,0.0087,2025-06-06T10:56:51.747526
377,-0.8784,0.4543,0.1122,0.770,-3.535,-0.350,2.00,0.0368,0.0254,0.0501,0.0087,2025-06-06T10:56:51.747526
378,-0.8818,0.4558,0.1122,0.350,-3.955,-0.175,2.00,0.0368,0.0508,0.0602,0.0087,2025-06-06T10:56:51.747526
379,-0.8794,0.4548,0.1118,0.315,-3.780,-0.210,0.00,0.0184,0.0254,0.0401,0.0087,2025-06-06T10:56:51.747526
380,-0.8769,0.4558,0.1127,-0.700,-3.535,-0.035,2.00,0.0368,0.0508,0.0200,0.0000,2025-06-06T10:56:51.747526
381,-0.8755,0.4548,0.1069,-0.700,-3.430,-0.175,2.00,0.0184,0.0508,0.0200,0.0087,2025-06-06T10:56:51.747526
382,-0.8789,0.4587,0.1137,-1.400,-3.500,-0.140,2.00,0.0184,0.0254,0.0300,0.0087,2025-06-06T10:56:51.747526
383,-0.8784,0.4577,0.1078,0.000,-4.165,-0.105,2.00,0.0184,0.0508,0.0401,0.0087,2025-06-06T10:56:51.748311
384,-0.8804,0.4587,0.1152,0.350,-4.200,-0.105,0.00,0.0184,0.0508,0.0300,0.0087,2025-06-06T10:56:51.748311
385,-0.8808,0.4577,0.1147,0.665,-4.340,0.000,1.00,0.0184,0.0254,0.0200,0.0087,2025-06-06T10:56:51.748311
386,-0.8799,0.4577,0.1166,0.280,-4.130,-0.140,0.00,0.0368,0.0762,0.0300,0.0174,2025-06-06T10:56:51.748311
387,-0.8784,0.4573,0.1161,1.120,-3.990,-0.245,1.00,0.0368,0.0508,0.0200,0.0087,2025-06-06T10:56:51.836413
388,-0.8794,0.4558,0.1142,0.770,-4.025,-0.315,0.00,0.0552,0.0254,0.0000,0.0087,2025-06-06T10:56:51.836413
389,-0.8789,0.4558,0.1113,0.350,-3.955,-0.350,8.00,0.0368,0.0508,0.0200,0.0087,2025-06-06T10:56:51.836413
390,-0.8774,0.4538,0.1118,0.175,-3.675,-0.315,2.00,0.0184,0.0508,0.0300,0.0174,2025-06-06T10:56:51.836413
391,-0.8799,0.4538,0.1093,0.315,-3.850,-0.175,0.00,0.0184,0.0000,0.0100,0.0087,2025-06-06T10:56:51.938330
392,-0.8755,0.4543,0.1127,0.210,-4.095,-0.105,1.00,0.0184,0.0000,0.0300,0.0087,2025-06-06T10:56:51.938330
393,-0.8813,0.4563,0.1118,0.280,-4.235,0.070,1.00,0.0368,0.0000,0.0200,0.0174,2025-06-06T10:56:51.938330
394,-0.8794,0.4568,0.1122,-0.035,-4.165,-0.105,0.00,0.0368,0.0254,0.0401,0.0174,2025-06-06T10:56:51.938330
395,-0.8789,0.4553,0.1132,-0.035,-4.130,-0.035,9.00,0.0184,0.0254,0.0300,0.0087,2025-06-06T10:56:51.938330
396,-0.8799,0.4582,0.1147,0.175,-4.025,-0.070,3.00,0.0000,0.0254,0.0300,0.0087,2025-06-06T10:56:51.938330
397,-0.8813,0.4568,0.1137,0.385,-4.060,-0.105,2.00,0.0184,0.0508,0.0200,0.0087,2025-06-06T10:56:51.938330
398,-0.8818,0.4568,0.1127,0.525,-4.025,-0.105,0.00,0.0368,0.0508,0.0200,0.0087,2025-06-06T10:56:51.938330
399,-0.8804,0.4553,0.1157,0.525,-3.955,-0.175,2.00,0.0368,0.0254,0.0000,0.0087,2025-06-06T10:56:51.938330
400,-0.8789,0.4553,0.1103,0.560,-3.815,-0.175,0.00,0.0184,0.0254,0.0401,0.0087,2025-06-06T10:56:51.938330
401,-0.8794,0.4553,0.1122,0.560,-3.850,-0.245,4.00,0.0368,0.0508,0.0200,0.0087,2025-06-06T10:56:51.938330
402,-0.8804,0.4543,0.1113,0.350,-4.025,-0.245,0.00,0.0368,0.0762,0.0000,0.0087,2025-06-06T10:56:52.043888
403,-0.8789,0.4548,0.1127,0.210,-4.165,-0.245,0.00,0.0184,0.0508,0.0401,0.0174,2025-06-06T10:56:52.043888
404,-0.8774,0.4558,0.1142,0.105,-4.130,-0.175,7.00,0.0184,0.0508,0.0300,0.0174,2025-06-06T10:56:52.043888
405,-0.8804,0.4553,0.1122,0.105,-4.235,-0.070,2.00,0.0184,0.0762,0.0300,0.0174,2025-06-06T10:56:52.043888
406,-0.8813,0.4558,0.1147,0.105,-4.165,0.035,2.00,0.0184,0.0254,0.0401,0.0087,2025-06-06T10:56:52.043888
407,-0.8799,0.4563,0.1142,0.210,-3.990,-0.035,0.00,0.0184,0.0000,0.0200,0.0174,2025-06-06T10:56:52.043888
408,-0.8769,0.4568,0.1132,0.140,-3.920,0.000,0.00,0.0184,0.0254,0.0200,0.0174,2025-06-06T10:56:52.043888
409,-0.8799,0.4568,0.1113,0.490,-3.920,-0.035,1.00,0.0184,0.0000,0.0300,0.0087,2025-06-06T10:56:52.143216
410,-0.8799,0.4558,0.1108,0.560,-4.095,-0.175,3.00,0.0184,0.0508,0.0300,0.0087,2025-06-06T10:56:52.143216
411,-0.8808,0.4582,0.1118,0.385,-4.130,-0.105,1.00,0.0368,0.0000,0.0200,0.0174,2025-06-06T10:56:52.143216
412,-0.8799,0.4558,0.1088,0.315,-3.955,-0.245,1.00,0.0184,0.0508,0.0501,0.0087,2025-06-06T10:56:52.143216
413,-0.8804,0.4543,0.1127,0.140,-3.955,-0.315,0.00,0.0000,0.0000,0.0200,0.0087,2025-06-06T10:56:52.143216
414,-0.8774,0.4534,0.1127,0.245,-4.060,-0.210,0.00,0.0184,0.0254,0.0100,0.0087,2025-06-06T10:56:52.143216
415,-0.8784,0.4558,0.1118,0.350,-4.095,0.000,5.00,0.0184,0.0254,0.0100,0.0087,2025-06-06T10:56:52.143216
416,-0.8813,0.4558,0.1122,0.280,-4.235,0.070,5.00,0.0368,0.0254,0.0200,0.0087,2025-06-06T10:56:52.143216
417,-0.8789,0.4558,0.1122,0.210,-3.955,0.105,4.00,0.0184,0.0508,0.0100,0.0087,2025-06-06T10:56:52.247344
418,-0.8804,0.4558,0.1132,0.175,-3.815,0.000,2.00,0.0184,0.0000,0.0100,0.0087,2025-06-06T10:56:52.247344
419,-0.8779,0.4543,0.1122,0.175,-3.955,0.000,0.00,0.0368,0.0254,0.0100,0.0087,2025-06-06T10:56:52.247344
420,-0.8789,0.4573,0.1122,0.210,-4.165,-0.035,1.00,0.0184,0.0508,0.0100,0.0087,2025-06-06T10:56:52.247344
421,-0.8789,0.4592,0.1132,0.350,-4.130,-0.140,0.00,0.0368,0.0508,0.0501,0.0174,2025-06-06T10:56:52.247344
422,-0.8799,0.4553,0.1127,0.245,-4.060,-0.245,0.00,0.0184,0.0508,0.0300,0.0087,2025-06-06T10:56:52.247344
423,-0.8784,0.4543,0.1122,0.245,-3.990,-0.385,0.00,0.0184,0.0254,0.0200,0.0087,2025-06-06T10:56:52.247344
424,-0.8774,0.4538,0.1127,0.140,-3.920,-0.175,0.00,0.0184,0.0254,0.0000,0.0174,2025-06-06T10:56:52.247344
425,-0.8804,0.4548,0.1103,0.280,-4.025,-0.105,5.00,0.0368,0.0508,0.0200,0.0174,2025-06-06T10:56:52.469965
426,-0.8799,0.4553,0.1142,0.385,-4.130,0.035,1.00,0.0368,0.0254,0.0200,0.0174,2025-06-06T10:56:52.469965
427,-0.8813,0.4548,0.1122,0.350,-4.025,0.035,0.00,0.0368,0.0254,0.0300,0.0174,2025-06-06T10:56:52.469965
428,-0.8808,0.4543,0.1103,0.280,-3.885,0.000,0.00,0.0184,0.0254,0.0200,0.0087,2025-06-06T10:56:52.469965
429,-0.8779,0.4553,0.1113,0.140,-3.955,0.105,5.00,0.0184,0.0254,0.0200,0.0087,2025-06-06T10:56:52.469965
430,-0.8804,0.4558,0.1103,0.280,-4.060,-0.070,0.00,0.0184,0.0508,0.0100,0.0087,2025-06-06T10:56:52.469965
431,-0.8779,0.4548,0.1132,0.315,-4.130,-0.035,0.00,0.0184,0.0254,0.0300,0.0087,2025-06-06T10:56:52.469965
432,-0.8769,0.4553,0.1122,0.210,-4.095,-0.175,5.00,0.0184,0.0254,0.0200,0.0174,2025-06-06T10:56:52.469965
433,-0.8799,0.4548,0.1137,0.210,-4.060,-0.280,0.00,0.0184,0.0508,0.0000,0.0087,2025-06-06T10:56:52.469965
434,-0.8784,0.4553,0.1137,0.245,-4.095,-0.315,7.00,0.0184,0.0762,0.0200,0.0087,2025-06-06T10:56:52.469965
435,-0.8794,0.4558,0.1127,0.210,-3.990,-0.105,0.00,0.0184,0.0254,0.0000,0.0174,2025-06-06T10:56:52.469965
436,-0.8794,0.4568,0.1127,0.210,-4.025,-0.105,0.00,0.0368,0.0508,0.0501,0.0087,2025-06-06T10:56:52.469965
437,-0.8804,0.4563,0.1127,0.385,-4.025,-0.070,1.00,0.0368,0.0000,0.0200,0.0087,2025-06-06T10:56:52.469965
438,-0.8804,0.4577,0.1142,0.315,-4.095,0.070,0.00,0.0368,0.0254,0.0000,0.0174,2025-06-06T10:56:52.469965
439,-0.8784,0.4548,0.1118,0.315,-3.955,0.140,1.00,0.0184,0.0254,0.0000,0.0087,2025-06-06T10:56:52.469965
440,-0.8774,0.4577,0.1118,0.280,-3.955,0.000,2.00,0.0184,0.0762,0.0000,0.0174,2025-06-06T10:56:52.469965
441,-0.8799,0.4543,0.1113,0.140,-4.060,-0.105,3.00,0.0368,0.0508,0.0100,0.0087,2025-06-06T10:56:52.659013
442,-0.8799,0.4558,0.1127,0.105,-4.025,-0.140,1.00,0.0368,0.0508,0.0602,0.0087,2025-06-06T10:56:52.659013
443,-0.8789,0.4543,0.1127,0.315,-4.235,-0.210,1.00,0.0368,0.0508,0.0200,0.0087,2025-06-06T10:56:52.659013
444,-0.8804,0.4543,0.1132,0.350,-4.270,-0.175,1.00,0.0000,0.0508,0.0200,0.0174,2025-06-06T10:56:52.659013
445,-0.8794,0.4568,0.1103,-0.210,-3.955,-0.140,7.00,0.0368,0.0508,0.0000,0.0174,2025-06-06T10:56:52.659013
446,-0.8799,0.4538,0.1127,0.175,-3.710,-0.175,3.00,0.0184,0.1018,0.0200,0.0087,2025-06-06T10:56:52.659013
447,-0.8799,0.4553,0.1132,0.840,-3.920,-0.070,1.00,0.0368,0.0000,0.0300,0.0174,2025-06-06T10:56:52.659013
448,-0.8818,0.4538,0.1152,0.525,-4.305,0.175,2.00,0.0184,0.0254,0.0401,0.0087,2025-06-06T10:56:52.659013
449,-0.8799,0.4563,0.1113,0.280,-3.990,0.035,2.00,0.0184,0.1273,0.0300,0.0087,2025-06-06T10:56:52.659013
450,-0.8808,0.4558,0.1113,0.210,-3.885,0.000,2.00,0.0368,0.0254,0.0300,0.0087,2025-06-06T10:56:52.659013
451,-0.8784,0.4558,0.1098,-0.105,-3.885,-0.175,0.00,0.0000,0.0508,0.0401,0.0000,2025-06-06T10:56:52.659013
452,-0.8774,0.4568,0.1113,0.385,-4.165,-0.210,2.00,0.0368,0.0508,0.0602,0.0087,2025-06-06T10:56:52.659013
453,-0.8818,0.4563,0.1127,0.280,-4.235,-0.175,5.00,0.0184,0.0254,0.0200,0.0174,2025-06-06T10:56:52.659013
454,-0.8808,0.4553,0.1118,0.210,-4.270,-0.105,8.00,0.0184,0.0762,0.0300,0.0000,2025-06-06T10:56:52.659013
455,-0.8813,0.4553,0.1118,0.035,-4.060,-0.070,2.00,0.0368,0.0762,0.0501,0.0174,2025-06-06T10:56:52.659013
456,-0.8774,0.4529,0.1132,0.105,-3.745,-0.035,0.00,0.0368,0.1529,0.0200,0.0174,2025-06-06T10:56:52.868446
457,-0.8794,0.4558,0.1103,0.280,-3.990,0.035,0.00,0.0368,0.0508,0.0703,0.0087,2025-06-06T10:56:52.868446
458,-0.8813,0.4553,0.1118,0.455,-3.990,-0.070,0.00,0.0184,0.0508,0.0000,0.0174,2025-06-06T10:56:52.868446
459,-0.8789,0.4558,0.1118,0.455,-4.200,0.070,2.00,0.0368,0.0508,0.0401,0.0174,2025-06-06T10:56:52.868446
460,-0.8794,0.4558,0.1098,0.210,-4.060,-0.105,1.00,0.0184,0.0254,0.0000,0.0000,2025-06-06T10:56:52.868446
461,-0.8789,0.4563,0.1113,0.070,-3.920,-0.175,2.00,0.0368,0.0508,0.0300,0.0087,2025-06-06T10:56:52.868446
462,-0.8799,0.4548,0.1113,0.210,-4.025,-0.140,6.00,0.0000,0.0762,0.0100,0.0087,2025-06-06T10:56:52.868446
463,-0.8789,0.4548,0.1118,0.315,-4.305,-0.105,2.00,0.0368,0.0508,0.0000,0.0087,2025-06-06T10:56:52.868446
464,-0.8804,0.4548,0.1122,0.070,-4.270,-0.140,12.00,0.0184,0.1018,0.0703,0.0087,2025-06-06T10:56:52.868446
465,-0.8808,0.4534,0.1122,0.175,-4.025,-0.070,2.00,0.0184,0.0508,0.0200,0.0087,2025-06-06T10:56:52.868446
466,-0.8808,0.4553,0.1118,0.280,-3.955,0.000,1.00,0.0000,0.0254,0.0100,0.0174,2025-06-06T10:56:52.868446
467,-0.8799,0.4553,0.1113,0.280,-3.920,0.035,3.00,0.0184,0.0508,0.0100,0.0087,2025-06-06T10:56:52.868446
468,-0.8789,0.4577,0.1127,0.385,-3.990,0.035,0.00,0.0184,0.0254,0.0000,0.0087,2025-06-06T10:56:52.868446
469,-0.8799,0.4553,0.1108,0.385,-4.060,-0.035,0.00,0.0368,0.0508,0.0000,0.0087,2025-06-06T10:56:52.868446
470,-0.8794,0.4553,0.1113,0.210,-4.165,-0.140,0.00,0.0184,0.0508,0.0401,0.0087,2025-06-06T10:56:52.868446
471,-0.8779,0.4558,0.1113,0.175,-3.955,-0.210,0.00,0.0184,0.0254,0.0906,0.0087,2025-06-06T10:56:52.962261
472,-0.8804,0.4558,0.1113,0.245,-4.130,-0.175,0.00,0.0184,0.0000,0.0501,0.0087,2025-06-06T10:56:52.962261
473,-0.8804,0.4534,0.1118,0.140,-4.095,-0.140,2.00,0.0184,0.0508,0.0000,0.0087,2025-06-06T10:56:52.962261
474,-0.8823,0.4543,0.1122,0.175,-3.955,-0.070,3.00,0.0184,0.0508,0.0000,0.0174,2025-06-06T10:56:52.962261
475,-0.8804,0.4568,0.1142,0.280,-4.165,-0.070,1.00,0.0184,0.0254,0.0300,0.0174,2025-06-06T10:56:52.962261
476,-0.8799,0.4538,0.1118,0.315,-4.060,0.070,2.00,0.0368,0.0508,0.0804,0.0000,2025-06-06T10:56:52.962261
477,-0.8808,0.4538,0.1142,1.155,-4.305,0.000,3.00,0.0368,0.0508,0.0000,0.0087,2025-06-06T10:56:52.962261
478,-0.8774,0.4543,0.1098,-0.455,-3.290,-0.035,0.00,0.0184,0.0254,0.0000,0.0087,2025-06-06T10:56:52.962261
479,-0.8789,0.4529,0.1118,0.980,-4.445,-0.280,1.00,0.0184,0.0254,0.0401,0.0087,2025-06-06T10:56:53.111154
480,-0.8838,0.4602,0.1186,-0.175,-4.585,0.035,0.00,0.0368,0.0254,0.0300,0.0174,2025-06-06T10:56:53.111154
481,-0.8774,0.4543,0.1078,-0.035,-3.955,0.000,1.00,0.0368,0.0508,0.0100,0.0000,2025-06-06T10:56:53.111154
482,-0.8774,0.4553,0.1161,1.085,-4.165,-0.105,2.00,0.0184,0.0254,0.0300,0.0087,2025-06-06T10:56:53.111154
483,-0.8823,0.4548,0.1132,0.000,-4.515,-0.175,0.00,0.0368,0.0762,0.0200,0.0174,2025-06-06T10:56:53.111154
484,-0.8764,0.4558,0.1059,-0.735,-3.045,-0.140,2.00,0.0184,0.0508,0.0000,0.0087,2025-06-06T10:56:53.111154
485,-0.8750,0.4504,0.1132,1.295,-4.620,-0.350,3.00,0.0368,0.0254,0.0000,0.0087,2025-06-06T10:56:53.111154
486,-0.8823,0.4577,0.1118,0.630,-4.480,0.070,1.00,0.0368,0.0000,0.0000,0.0087,2025-06-06T10:56:53.111154
487,-0.8804,0.4543,0.1054,-0.630,-3.990,-0.140,0.00,0.0184,0.0254,0.0200,0.0087,2025-06-06T10:56:53.111154
488,-0.8764,0.4563,0.1137,0.630,-3.465,0.035,3.00,0.0184,0.1018,0.0401,0.0174,2025-06-06T10:56:53.111154
489,-0.8808,0.4553,0.1108,-0.035,-4.025,-0.035,4.00,0.0184,0.0000,0.0000,0.0174,2025-06-06T10:56:53.283671
490,-0.8799,0.4573,0.1122,0.875,-4.130,-0.175,1.00,0.0368,0.0254,0.0000,0.0174,2025-06-06T10:56:53.283671
491,-0.8789,0.4558,0.1118,-0.210,-4.375,-0.105,2.00,0.0368,0.0762,0.0100,0.0087,2025-06-06T10:56:53.283671
492,-0.8828,0.4573,0.1122,-0.420,-4.025,-0.035,0.00,0.0368,0.0508,0.0200,0.0087,2025-06-06T10:56:53.283671
493,-0.8774,0.4534,0.1069,0.350,-3.850,-0.175,2.00,0.0184,0.1529,0.0501,0.0087,2025-06-06T10:56:53.283671
494,-0.8818,0.4548,0.1147,0.070,-3.990,-0.105,3.00,0.0368,0.0000,0.0000,0.0174,2025-06-06T10:56:53.283671
495,-0.8779,0.4534,0.1108,0.140,-4.060,-0.070,1.00,0.0184,0.0254,0.0703,0.0087,2025-06-06T10:56:53.283671
496,-0.8828,0.4563,0.1132,0.210,-4.165,0.070,1.00,0.0184,0.0508,0.0100,0.0174,2025-06-06T10:56:53.283671
497,-0.8799,0.4548,0.1093,0.070,-4.060,0.105,1.00,0.0184,0.0254,0.0200,0.0000,2025-06-06T10:56:53.283671
498,-0.8779,0.4548,0.1122,0.385,-3.850,-0.140,3.00,0.0368,0.0762,0.0501,0.0174,2025-06-06T10:56:53.283671
499,-0.8779,0.4538,0.1093,0.315,-3.990,-0.070,2.00,0.0184,0.0254,0.0703,0.0174,2025-06-06T10:56:53.283671
500,-0.8808,0.4548,0.1137,0.000,-4.165,-0.105,3.00,0.0368,0.0508,0.0100,0.0087,2025-06-06T10:56:53.283671
501,-0.8804,0.4548,0.1098,0.175,-4.130,0.000,3.00,0.0184,0.0000,0.0906,0.0174,2025-06-06T10:56:53.429006
502,-0.8804,0.4548,0.1132,0.245,-4.235,-0.175,1.00,0.0368,0.0762,0.0000,0.0174,2025-06-06T10:56:53.474613
503,-0.8789,0.4548,0.1113,0.245,-4.060,-0.105,0.00,0.0184,0.0254,0.0300,0.0087,2025-06-06T10:56:53.474613
504,-0.8808,0.4538,0.1103,0.280,-3.955,0.000,4.00,0.0184,0.0000,0.0100,0.0262,2025-06-06T10:56:53.474613
505,-0.8799,0.4553,0.1108,0.350,-4.025,-0.070,0.00,0.0368,0.0254,0.0100,0.0087,2025-06-06T10:56:53.474613
506,-0.8804,0.4563,0.1103,0.210,-3.990,0.000,1.00,0.0184,0.0508,0.0200,0.0174,2025-06-06T10:56:53.474613
507,-0.8804,0.4543,0.1118,0.350,-4.060,-0.035,0.00,0.0000,0.0000,0.0000,0.0087,2025-06-06T10:56:53.474613
508,-0.8789,0.4553,0.1098,0.035,-4.095,-0.105,0.00,0.0184,0.0254,0.0300,0.0087,2025-06-06T10:56:53.474613
509,-0.8789,0.4563,0.1108,-0.070,-4.095,-0.140,1.00,0.0368,0.0254,0.0300,0.0087,2025-06-06T10:56:53.474613
510,-0.8774,0.4534,0.1093,-0.070,-4.130,-0.105,2.00,0.0368,0.0508,0.0200,0.0174,2025-06-06T10:56:53.474613
511,-0.8794,0.4553,0.1103,0.070,-4.095,-0.035,2.00,0.0184,0.0254,0.0100,0.0087,2025-06-06T10:56:53.474613
512,-0.8804,0.4553,0.1127,0.210,-4.095,-0.070,1.00,0.0184,0.0508,0.0300,0.0000,2025-06-06T10:56:53.474613
513,-0.8804,0.4543,0.1118,0.560,-4.165,0.070,5.00,0.0368,0.0762,0.0703,0.0000,2025-06-06T10:56:53.474613
514,-0.8794,0.4529,0.1142,0.560,-4.025,-0.070,1.00,0.0000,0.0254,0.0300,0.0000,2025-06-06T10:56:53.474613
515,-0.8794,0.4558,0.1108,0.175,-3.745,-0.035,2.00,0.0184,0.0508,0.0501,0.0000,2025-06-06T10:56:53.474613
516,-0.8808,0.4558,0.1108,-0.140,-3.710,-0.070,5.00,0.0184,0.2043,0.0401,0.0087,2025-06-06T10:56:53.474613
517,-0.8818,0.4553,0.1098,-0.035,-3.570,-0.070,2.00,0.0184,0.0254,0.0401,0.0087,2025-06-06T10:56:53.596525
518,-0.8779,0.4558,0.1069,0.385,-4.025,-0.035,2.00,0.0184,0.1018,0.0501,0.0174,2025-06-06T10:56:53.596525
519,-0.8804,0.4534,0.1137,0.945,-4.760,-0.070,3.00,0.0552,0.0254,0.0300,0.0087,2025-06-06T10:56:53.596525
520,-0.8818,0.4568,0.1132,0.315,-4.410,-0.105,1.00,0.0368,0.0254,0.0401,0.0087,2025-06-06T10:56:53.596525
521,-0.8794,0.4529,0.1108,-0.280,-3.885,-0.070,3.00,0.0184,0.0508,0.0602,0.0087,2025-06-06T10:56:53.596525
522,-0.8794,0.4548,0.1118,0.420,-3.710,-0.140,5.00,0.0184,0.0762,0.0401,0.0174,2025-06-06T10:56:53.596525
523,-0.8818,0.4558,0.1118,0.385,-4.060,0.070,0.00,0.0184,0.0508,0.0401,0.0087,2025-06-06T10:56:53.596525
524,-0.8813,0.4568,0.1122,0.105,-4.200,0.070,1.00,0.0368,0.0254,0.0401,0.0087,2025-06-06T10:56:53.596525
525,-0.8804,0.4563,0.1127,0.210,-4.025,0.000,1.00,0.0368,0.1018,0.0501,0.0087,2025-06-06T10:56:53.680494
526,-0.8813,0.4548,0.1098,0.350,-3.955,-0.175,1.00,0.0184,0.0254,0.0501,0.0087,2025-06-06T10:56:53.680494
527,-0.8794,0.4553,0.1098,0.350,-4.095,-0.175,2.00,0.0184,0.0254,0.0602,0.0174,2025-06-06T10:56:53.680494
528,-0.8779,0.4548,0.1122,0.140,-3.990,-0.105,3.00,0.0368,0.1529,0.0300,0.0174,2025-06-06T10:56:53.680494
529,-0.8784,0.4553,0.1083,0.490,-4.200,8.925,1.00,0.0184,0.0762,0.0401,0.0174,2025-06-06T10:56:53.680494
530,-0.8818,0.4563,0.1142,0.245,-4.270,-0.105,2.00,0.0184,0.0254,0.0401,0.0087,2025-06-06T10:56:53.680494
531,-0.8823,0.4534,0.1108,0.525,-4.130,-0.105,3.00,0.0184,0.0000,0.0100,0.0087,2025-06-06T10:56:53.680494
532,-0.8799,0.4534,0.1108,-0.105,-3.990,0.070,3.00,0.0368,0.0000,0.0300,0.0174,2025-06-06T10:56:53.821780
533,-0.8794,0.4563,0.1103,0.105,-3.745,-0.035,0.00,0.0184,0.0762,0.0501,0.0087,2025-06-06T10:56:53.821780
534,-0.8823,0.4543,0.1108,0.175,-4.130,-8.925,2.00,0.0184,0.0254,0.0401,0.0087,2025-06-06T10:56:53.821780
535,-0.8808,0.4558,0.1118,0.385,-4.130,0.035,1.00,0.0184,0.0254,0.0501,0.0087,2025-06-06T10:56:53.821780
536,-0.8794,0.4543,0.1132,0.315,-4.025,-0.140,2.00,0.0368,0.0762,0.0401,0.0262,2025-06-06T10:56:53.821780
537,-0.8813,0.4538,0.1098,0.105,-3.990,-0.070,0.00,0.0184,0.0000,0.0401,0.0000,2025-06-06T10:56:53.821780
538,-0.8789,0.4534,0.1122,-0.070,-3.955,-0.175,0.00,0.0552,0.0508,0.0401,0.0174,2025-06-06T10:56:53.821780
539,-0.8818,0.4548,0.1113,0.280,-3.955,-0.070,2.00,0.0000,0.0254,0.0401,0.0087,2025-06-06T10:56:53.821780
540,-0.8808,0.4568,0.1118,0.210,-4.060,-0.070,2.00,0.0368,0.0000,0.0401,0.0174,2025-06-06T10:56:53.919715
541,-0.8784,0.4548,0.1142,0.175,-4.025,0.000,1.00,0.0184,0.0508,0.0501,0.0087,2025-06-06T10:56:53.919715
542,-0.8799,0.4543,0.1098,0.210,-4.025,-0.070,2.00,0.0368,0.1018,0.0401,0.0174,2025-06-06T10:56:53.919715
543,-0.8799,0.4558,0.1108,0.280,-3.920,-0.035,1.00,0.0368,0.0762,0.0300,0.0087,2025-06-06T10:56:53.919715
544,-0.8794,0.4543,0.1122,0.210,-4.130,-0.035,1.00,0.0184,0.0508,0.0401,0.0087,2025-06-06T10:56:53.919715
545,-0.8794,0.4548,0.1108,0.350,-3.990,0.000,1.00,0.0184,0.0508,0.0300,0.0087,2025-06-06T10:56:53.919715
546,-0.8794,0.4543,0.1132,0.140,-4.060,-0.035,3.00,0.0184,0.0254,0.0401,0.0087,2025-06-06T10:56:53.919715
547,-0.8838,0.4577,0.1113,0.105,-4.025,0.000,0.00,0.0184,0.0254,0.0401,0.0087,2025-06-06T10:56:53.919715
548,-0.8804,0.4577,0.1108,0.210,-3.955,8.925,2.00,0.0368,0.0254,0.0401,0.0087,2025-06-06T10:56:53.919715
549,-0.8804,0.4558,0.1103,0.210,-3.955,-0.105,0.00,0.0184,0.0762,0.0200,0.0087,2025-06-06T10:56:53.919715
550,-0.8779,0.4534,0.1113,0.140,-3.885,-0.105,0.00,0.0184,0.0254,0.0300,0.0174,2025-06-06T10:56:54.090990
551,-0.8799,0.4543,0.1108,0.315,-4.060,-0.140,2.00,0.0368,0.0762,0.0300,0.0174,2025-06-06T10:56:54.090990
552,-0.8799,0.4563,0.1118,0.315,-4.060,-0.175,0.00,0.0368,0.0000,0.0300,0.0087,2025-06-06T10:56:54.090990
553,-0.8808,0.4548,0.1113,0.035,-4.130,-0.105,2.00,0.0184,0.0254,0.0300,0.0087,2025-06-06T10:56:54.090990
554,-0.8813,0.4543,0.1103,0.245,-3.920,-0.105,2.00,0.0184,0.0508,0.0300,0.0087,2025-06-06T10:56:54.090990
555,-0.8799,0.4534,0.1113,0.140,-3.850,-0.105,0.00,0.0184,0.0254,0.0200,0.0087,2025-06-06T10:56:54.090990
556,-0.8789,0.4548,0.1122,0.315,-4.025,0.105,1.00,0.0552,0.0254,0.0000,0.0087,2025-06-06T10:56:54.090990
557,-0.8808,0.4548,0.1118,0.315,-4.165,0.000,3.00,0.0368,0.0762,0.0300,0.0087,2025-06-06T10:56:54.090990
558,-0.8799,0.4553,0.1118,0.350,-4.095,0.035,0.00,0.0184,0.1018,0.0300,0.0087,2025-06-06T10:56:54.090990
559,-0.8818,0.4558,0.1098,0.140,-4.025,-0.070,0.00,0.0184,0.0508,0.0300,0.0087,2025-06-06T10:56:54.090990
560,-0.8808,0.4553,0.1083,0.070,-3.955,-0.245,1.00,0.0184,0.0508,0.0300,0.0087,2025-06-06T10:56:54.090990
561,-0.8789,0.4553,0.1108,0.140,-3.990,-0.210,2.00,0.0184,0.0000,0.0300,0.0087,2025-06-06T10:56:54.090990
562,-0.8818,0.4543,0.1108,0.280,-4.375,0.000,0.00,0.0184,0.0254,0.0300,0.0000,2025-06-06T10:56:54.090990
563,-0.8804,0.4538,0.1132,0.175,-4.095,-0.070,3.00,0.0184,0.0508,0.0501,0.0174,2025-06-06T10:56:54.299418
564,-0.8808,0.4553,0.1098,0.175,-3.850,0.000,4.00,0.0184,0.0254,0.0501,0.0174,2025-06-06T10:56:54.299418
565,-0.8774,0.4543,0.1098,0.245,-3.780,0.000,2.00,0.0368,0.1529,0.0501,0.0087,2025-06-06T10:56:54.299418
566,-0.8784,0.4548,0.1108,0.490,-3.885,0.000,1.00,0.0368,0.0254,0.0300,0.0262,2025-06-06T10:56:54.299418
567,-0.8808,0.4573,0.1098,0.420,-4.165,0.000,2.00,0.0000,0.0762,0.0401,0.0087,2025-06-06T10:56:54.299418
568,-0.8789,0.4563,0.1108,0.280,-4.165,-0.035,8.00,0.0368,0.0254,0.0300,0.0087,2025-06-06T10:56:54.299418
569,-0.8779,0.4558,0.1103,0.140,-4.025,-0.175,3.00,0.0368,0.0508,0.0300,0.0087,2025-06-06T10:56:54.299418
570,-0.8784,0.4558,0.1118,0.070,-3.990,-0.210,0.00,0.0184,0.0254,0.0401,0.0087,2025-06-06T10:56:54.299418
571,-0.8813,0.4529,0.1142,0.070,-4.025,-0.105,0.00,0.0368,0.0254,0.0401,0.0174,2025-06-06T10:56:54.299418
572,-0.8804,0.4538,0.1137,0.245,-4.095,-0.175,2.00,0.0368,0.0508,0.0602,0.0087,2025-06-06T10:56:54.299418
573,-0.8818,0.4538,0.1108,0.210,-4.060,0.070,0.00,0.0184,0.0508,0.0703,0.0000,2025-06-06T10:56:54.299418
574,-0.8813,0.4543,0.1113,0.420,-3.990,0.035,5.00,0.0368,0.0508,0.0804,0.0087,2025-06-06T10:56:54.299418
575,-0.8818,0.4558,0.1122,-0.280,-4.060,0.175,2.00,0.0368,0.1018,0.1109,0.0087,2025-06-06T10:56:54.299418
576,-0.8764,0.4538,0.1074,0.140,-3.675,0.070,2.00,0.0000,0.1529,0.1519,0.0087,2025-06-06T10:56:54.299418
577,-0.8779,0.4529,0.1113,0.840,-4.235,-0.175,0.00,0.0184,0.1529,0.1519,0.0087,2025-06-06T10:56:54.299418
578,-0.8813,0.4548,0.1108,0.210,-4.305,-0.070,3.00,0.0368,0.1018,0.1828,0.0087,2025-06-06T10:56:54.299418
579,-0.8789,0.4538,0.1093,-0.175,-3.990,-0.175,6.00,0.0184,0.1018,0.2139,0.0087,2025-06-06T10:56:54.401952
580,-0.8794,0.4548,0.1113,0.280,-3.920,-0.175,5.00,0.0368,0.1018,0.1828,0.0087,2025-06-06T10:56:54.401952
581,-0.8794,0.4563,0.1118,0.105,-4.060,0.000,2.00,0.0184,0.1018,0.2243,0.0087,2025-06-06T10:56:54.401952
582,-0.8813,0.4538,0.1113,0.070,-3.955,0.000,6.00,0.0184,0.1018,0.2243,0.0087,2025-06-06T10:56:54.401952
583,-0.8794,0.4519,0.1113,0.105,-3.885,0.035,1.00,0.0184,0.0508,0.2557,0.0087,2025-06-06T10:56:54.401952
584,-0.8818,0.4543,0.1103,0.420,-3.990,0.140,2.00,0.0184,0.1018,0.2767,0.0000,2025-06-06T10:56:54.401952
585,-0.8799,0.4558,0.1118,0.245,-4.200,0.070,4.00,0.0184,0.0508,0.2557,0.0087,2025-06-06T10:56:54.401952
586,-0.8784,0.4573,0.1113,0.280,-4.060,-0.035,1.00,0.0184,0.1018,0.2978,0.0087,2025-06-06T10:56:54.401952
587,-0.8794,0.4568,0.1113,0.210,-3.955,-0.140,1.00,0.0368,0.1273,0.2452,0.0087,2025-06-06T10:56:54.455495
588,-0.8779,0.4543,0.1108,0.245,-3.990,-0.035,7.00,0.0368,0.0762,0.2452,0.0174,2025-06-06T10:56:54.455495
589,-0.8813,0.4553,0.1108,0.140,-3.990,-0.140,2.00,0.0184,0.0762,0.2452,0.0087,2025-06-06T10:56:54.455495
590,-0.8813,0.4543,0.1113,0.315,-4.165,-0.175,2.00,0.0184,0.1018,0.2557,0.0174,2025-06-06T10:56:54.713395
591,-0.8779,0.4558,0.1142,0.910,-4.550,0.070,6.00,0.0368,0.0762,0.2139,0.0174,2025-06-06T10:56:54.713395
592,-0.8833,0.4563,0.1093,-0.875,-3.955,0.210,1.00,0.0184,0.0762,0.1622,0.0174,2025-06-06T10:56:54.713395
593,-0.8730,0.4460,0.1078,2.415,-3.955,-0.280,1.00,0.0184,0.1273,0.1622,0.0174,2025-06-06T10:56:54.713395
594,-0.8823,0.4568,0.1235,-0.280,-4.025,0.000,0.00,0.0184,0.0762,0.1725,0.0087,2025-06-06T10:56:54.713395
595,-0.8804,0.4543,0.1010,-1.435,-3.710,0.035,2.00,0.0368,0.0254,0.1622,0.0174,2025-06-06T10:56:54.713395
596,-0.8764,0.4563,0.1093,-0.420,-3.290,-0.140,3.00,0.0184,0.0762,0.1519,0.0087,2025-06-06T10:56:54.713395
597,-0.8760,0.4529,0.1093,0.385,-4.375,-0.140,0.00,0.0368,0.1018,0.1008,0.0174,2025-06-06T10:56:54.713395
598,-0.8852,0.4592,0.1122,-0.140,-4.200,0.070,1.00,0.0184,0.0508,0.1212,0.0174,2025-06-06T10:56:54.713395
599,-0.8769,0.4529,0.1074,0.035,-3.745,-0.140,3.00,0.0368,0.1018,0.0804,0.0087,2025-06-06T10:56:54.713395
600,-0.8804,0.4529,0.1132,0.420,-3.920,-0.175,0.00,0.0184,0.0508,0.0602,0.0174,2025-06-06T10:56:54.713395
601,-0.8804,0.4543,0.1108,0.035,-4.340,0.035,1.00,0.0184,0.0508,0.0401,0.0087,2025-06-06T10:56:54.713395
602,-0.8828,0.4558,0.1108,0.315,-4.095,-0.070,2.00,0.0184,0.0508,0.0501,0.0087,2025-06-06T10:56:54.713395
603,-0.8804,0.4534,0.1113,0.455,-4.025,-0.105,2.00,0.0368,0.0508,0.0200,0.0087,2025-06-06T10:56:54.713395
604,-0.8813,0.4538,0.1118,0.420,-4.095,-0.105,1.00,0.0184,0.0254,0.0501,0.0000,2025-06-06T10:56:54.713395
605,-0.8808,0.4558,0.1113,0.105,-4.025,8.925,2.00,0.0184,0.0508,0.0200,0.0174,2025-06-06T10:56:54.713395
606,-0.8784,0.4553,0.1093,0.315,-3.850,-0.035,0.00,0.0184,0.0508,0.0300,0.0087,2025-06-06T10:56:54.713395
607,-0.8813,0.4543,0.1113,0.105,-4.060,-0.035,0.00,0.0184,0.0508,0.0401,0.0087,2025-06-06T10:56:54.813754
608,-0.8813,0.4558,0.1103,0.210,-3.990,-0.070,0.00,0.0368,0.0508,0.0401,0.0174,2025-06-06T10:56:54.813754
609,-0.8794,0.4568,0.1103,0.175,-4.025,-0.140,0.00,0.0184,0.1018,0.0100,0.0087,2025-06-06T10:56:54.813754
610,-0.8804,0.4548,0.1108,0.070,-3.955,-0.105,5.00,0.0368,0.0254,0.0300,0.0087,2025-06-06T10:56:54.813754
611,-0.8779,0.4548,0.1122,0.175,-4.025,-0.175,1.00,0.0368,0.0508,0.0300,0.0087,2025-06-06T10:56:54.813754
612,-0.8813,0.4548,0.1103,0.280,-4.060,0.000,2.00,0.0368,0.0000,0.0100,0.0174,2025-06-06T10:56:54.813754
613,-0.8813,0.4563,0.1108,0.315,-4.060,0.035,0.00,0.0184,0.0254,0.0200,0.0087,2025-06-06T10:56:54.813754
614,-0.8804,0.4543,0.1108,0.280,-4.095,0.000,2.00,0.0184,0.0762,0.0000,0.0087,2025-06-06T10:56:55.013433
615,-0.8818,0.4563,0.1127,0.210,-3.990,-0.035,2.00,0.0368,0.0762,0.0200,0.0087,2025-06-06T10:56:55.013433
616,-0.8789,0.4563,0.1108,0.245,-3.990,-0.140,1.00,0.0368,0.0254,0.0100,0.0087,2025-06-06T10:56:55.013433
617,-0.8799,0.4534,0.1118,0.315,-4.060,-0.105,2.00,0.0368,0.0508,0.0501,0.0087,2025-06-06T10:56:55.013433
618,-0.8813,0.4543,0.1108,0.350,-4.165,-0.070,6.00,0.0552,0.0508,0.0100,0.0087,2025-06-06T10:56:55.013701
619,-0.8813,0.4543,0.1113,0.210,-4.060,0.035,2.00,0.0184,0.0508,0.0602,0.0087,2025-06-06T10:56:55.013701
620,-0.8804,0.4553,0.1083,0.140,-4.025,-0.035,3.00,0.0184,0.0508,0.0100,0.0087,2025-06-06T10:56:55.013701
621,-0.8789,0.4553,0.1122,0.070,-3.920,0.000,0.00,0.0184,0.0254,0.0401,0.0174,2025-06-06T10:56:55.013701
622,-0.8799,0.4514,0.1103,0.105,-3.920,-0.105,0.00,0.0184,0.0254,0.0100,0.0087,2025-06-06T10:56:55.013701
623,-0.8774,0.4548,0.1127,0.105,-4.025,-0.035,3.00,0.0184,0.0254,0.0100,0.0087,2025-06-06T10:56:55.013701
624,-0.8794,0.4558,0.1122,0.210,-4.130,0.070,0.00,0.0184,0.1018,0.0401,0.0000,2025-06-06T10:56:55.013701
625,-0.8833,0.4568,0.1088,0.140,-4.060,-0.035,0.00,0.0184,0.0508,0.0000,0.0174,2025-06-06T10:56:55.013701
626,-0.8804,0.4558,0.1103,0.175,-3.885,-0.105,3.00,0.0184,0.0254,0.0200,0.0087,2025-06-06T10:56:55.013701
627,-0.8794,0.4534,0.1088,0.105,-3.885,-0.070,0.00,0.0184,0.0000,0.0100,0.0087,2025-06-06T10:56:55.013701
628,-0.8789,0.4553,0.1113,0.245,-4.165,-0.070,3.00,0.0184,0.0508,0.0401,0.0087,2025-06-06T10:56:55.013701
629,-0.8823,0.4538,0.1127,0.245,-4.235,0.000,2.00,0.0184,0.0508,0.0300,0.0174,2025-06-06T10:56:55.013701
630,-0.8799,0.4543,0.1088,0.175,-4.095,-0.035,7.00,0.0368,0.0254,0.0000,0.0087,2025-06-06T10:56:55.013701
631,-0.8818,0.4563,0.1113,0.245,-3.815,-0.070,2.00,0.0184,0.0254,0.0100,0.0087,2025-06-06T10:56:55.013701
632,-0.8808,0.4543,0.1103,0.210,-3.990,-0.105,0.00,0.0184,0.0508,0.0200,0.0087,2025-06-06T10:56:55.215806
633,-0.8794,0.4548,0.1118,0.245,-4.095,-0.070,0.00,0.0184,0.0508,0.0200,0.0174,2025-06-06T10:56:55.215806
634,-0.8818,0.4548,0.1127,0.210,-4.060,-0.035,2.00,0.0184,0.0508,0.0501,0.0087,2025-06-06T10:56:55.215806
635,-0.8823,0.4543,0.1118,0.070,-4.060,0.000,2.00,0.0368,0.0254,0.0200,0.0087,2025-06-06T10:56:55.215806
636,-0.8794,0.4558,0.1098,0.175,-3.955,0.105,1.00,0.0184,0.0508,0.0000,0.0087,2025-06-06T10:56:55.215806
637,-0.8799,0.4534,0.1098,0.280,-3.885,-0.105,3.00,0.0368,0.0254,0.0401,0.0087,2025-06-06T10:56:55.215806
638,-0.8789,0.4548,0.1127,0.385,-4.095,8.925,2.00,0.0368,0.0508,0.0100,0.0087,2025-06-06T10:56:55.215806
639,-0.8818,0.4548,0.1103,0.315,-4.095,0.000,4.00,0.0368,0.0508,0.0000,0.0000,2025-06-06T10:56:55.215806
640,-0.8808,0.4543,0.1118,0.245,-4.095,-0.105,1.00,0.0368,0.0254,0.0000,0.0087,2025-06-06T10:56:55.215806
641,-0.8804,0.4538,0.1113,0.105,-3.990,0.035,1.00,0.0184,0.0762,0.0200,0.0174,2025-06-06T10:56:55.215806
642,-0.8808,0.4563,0.1074,0.175,-3.920,-0.035,5.00,0.0184,0.0000,0.0401,0.0087,2025-06-06T10:56:55.215806
643,-0.8794,0.4538,0.1113,0.245,-3.850,-0.070,1.00,0.0184,0.0254,0.0602,0.0087,2025-06-06T10:56:55.215806
644,-0.8808,0.4543,0.1108,0.140,-4.060,0.000,3.00,0.0184,0.0762,0.0401,0.0087,2025-06-06T10:56:55.215806
645,-0.8804,0.4558,0.1113,0.245,-4.025,-0.070,0.00,0.0368,0.0254,0.0200,0.0087,2025-06-06T10:56:55.215806
646,-0.8794,0.4548,0.1098,0.070,-4.130,-0.105,0.00,0.0184,0.0254,0.0200,0.0000,2025-06-06T10:56:55.215806
647,-0.8813,0.4553,0.1103,0.245,-4.025,0.000,2.00,0.0368,0.1273,0.0200,0.0087,2025-06-06T10:56:55.215806
648,-0.8799,0.4543,0.1098,0.210,-3.955,-0.105,4.00,0.0184,0.1018,0.0000,0.0174,2025-06-06T10:56:55.266143
649,-0.8804,0.4543,0.1093,0.105,-3.990,-0.070,0.00,0.0184,0.0508,0.0300,0.0174,2025-06-06T10:56:55.266143
650,-0.8813,0.4573,0.1113,0.210,-4.095,0.000,2.00,0.0368,0.0254,0.0200,0.0087,2025-06-06T10:56:55.266143
651,-0.8794,0.4534,0.1088,0.350,-4.025,0.000,1.00,0.0184,0.0000,0.0000,0.0174,2025-06-06T10:56:55.444751
652,-0.8799,0.4548,0.1103,0.315,-4.095,-0.070,1.00,0.0184,0.0508,0.0200,0.0174,2025-06-06T10:56:55.444751
653,-0.8789,0.4548,0.1098,0.245,-4.060,-0.035,2.00,0.0368,0.0762,0.0300,0.0174,2025-06-06T10:56:55.444751
654,-0.8784,0.4538,0.1113,0.105,-3.955,-0.070,0.00,0.0184,0.0254,0.0804,0.0087,2025-06-06T10:56:55.444751
655,-0.8804,0.4568,0.1108,0.070,-4.095,0.000,0.00,0.0368,0.0254,0.0401,0.0087,2025-06-06T10:56:55.444751
656,-0.8789,0.4563,0.1137,0.350,-4.200,0.000,4.00,0.0184,0.1018,0.0703,0.0087,2025-06-06T10:56:55.444751
657,-0.8818,0.4568,0.1083,0.280,-4.060,-0.070,7.00,0.0368,0.0254,0.1314,0.0174,2025-06-06T10:56:55.444751
658,-0.8808,0.4548,0.1098,0.105,-4.060,-0.070,2.00,0.0184,0.1018,0.2139,0.0000,2025-06-06T10:56:55.444751
659,-0.8789,0.4534,0.1088,0.070,-3.885,-0.140,2.00,0.0368,0.0508,0.3509,0.0087,2025-06-06T10:56:55.444751
660,-0.8804,0.4548,0.1103,0.175,-3.920,-0.070,0.00,0.0368,0.1529,0.4370,0.0174,2025-06-06T10:56:55.444751
661,-0.8833,0.4553,0.1103,0.315,-4.200,0.140,0.00,0.0184,0.1529,0.5911,0.0174,2025-06-06T10:56:55.444751
662,-0.8813,0.4543,0.1093,0.315,-4.130,-0.105,2.00,0.0000,0.2043,0.7268,0.0087,2025-06-06T10:56:55.444751
663,-0.8774,0.4543,0.1113,0.315,-4.025,0.000,0.00,0.0184,0.2818,0.8542,0.0087,2025-06-06T10:56:55.444751
664,-0.8794,0.4529,0.1108,0.245,-3.885,0.000,2.00,0.0368,0.2818,1.0570,0.0087,2025-06-06T10:56:55.629139
665,-0.8808,0.4538,0.1098,0.175,-3.745,-0.105,3.00,0.0368,0.4643,1.4079,0.0174,2025-06-06T10:56:55.629139
666,-0.8818,0.4538,0.1088,0.315,-3.955,-0.070,0.00,0.0184,0.5169,1.5121,0.0087,2025-06-06T10:56:55.629139
667,-0.8833,0.4543,0.1118,0.175,-4.200,-8.960,0.00,0.0184,0.6228,1.8505,0.0087,2025-06-06T10:56:55.629139
668,-0.8808,0.4553,0.1108,0.210,-4.060,-0.070,5.00,0.0184,0.6494,2.0056,0.0087,2025-06-06T10:56:55.629139
669,-0.8804,0.4538,0.1127,0.245,-4.025,-0.140,5.00,0.0184,0.7295,2.2831,0.0174,2025-06-06T10:56:55.629139
670,-0.8813,0.4577,0.1127,-0.070,-4.025,-0.105,0.00,0.0184,0.9727,2.3886,0.0174,2025-06-06T10:56:55.629139
671,-0.8808,0.4538,0.1093,0.035,-3.990,-0.035,2.00,0.0184,1.0274,2.5424,0.0000,2025-06-06T10:56:55.629139
672,-0.8799,0.4534,0.1122,0.350,-4.025,-0.035,0.00,0.0368,1.1098,2.6207,0.0087,2025-06-06T10:56:55.629139
673,-0.8813,0.4563,0.1113,-0.140,-4.095,0.000,4.00,0.0184,1.1650,2.8452,0.0087,2025-06-06T10:56:55.629139
674,-0.8808,0.4548,0.1083,-0.350,-3.570,-0.070,0.00,0.0184,1.2483,3.0608,0.0087,2025-06-06T10:56:55.629139
675,-0.8799,0.4534,0.1083,1.715,-4.410,-0.140,3.00,0.0368,1.1374,3.1627,0.0087,2025-06-06T10:56:55.629139
676,-0.8833,0.4543,0.1157,0.700,-4.585,-0.035,1.00,0.0184,1.2205,3.2143,0.0087,2025-06-06T10:56:55.629139
677,-0.8847,0.4592,0.1127,-1.645,-4.025,0.105,1.00,0.0368,1.3321,3.3011,0.0087,2025-06-06T10:56:55.629139
678,-0.9989,0.4568,0.1059,-0.455,-3.255,-0.070,3.00,0.0368,1.4164,3.3361,0.0174,2025-06-06T10:56:55.629139
679,-0.8774,0.4538,0.1122,0.420,-3.920,-0.105,2.00,0.0184,1.3882,3.4602,0.0174,2025-06-06T10:56:55.726358
680,-0.8828,0.4534,0.1118,0.805,-4.445,0.000,1.00,0.0368,1.4729,3.4781,0.0174,2025-06-06T10:56:55.726358
681,-0.8828,0.4543,0.1127,0.350,-4.375,0.035,1.00,0.0184,1.5296,3.6415,0.0087,2025-06-06T10:56:55.726358
682,-0.8833,0.4563,0.1142,0.490,-4.340,0.105,2.00,0.0368,1.6151,3.7153,0.0087,2025-06-06T10:56:55.726358
683,-0.8774,0.4563,0.1108,-0.105,-3.815,0.140,4.00,0.0368,1.6151,3.8088,0.0174,2025-06-06T10:56:55.726358
684,-0.8799,0.4538,0.1113,0.420,-3.920,0.070,0.00,0.0368,1.7012,3.9802,0.0174,2025-06-06T10:56:55.726358
685,-0.8813,0.4558,0.1132,0.665,-4.165,-0.035,2.00,0.0184,1.8167,4.0577,0.0087,2025-06-06T10:56:55.726358
686,-0.8799,0.4577,0.1083,-0.140,-3.920,-0.140,1.00,0.0184,1.8749,4.1954,0.0087,2025-06-06T10:56:55.829312
687,-0.8808,0.4509,0.1074,0.105,-3.885,-0.140,7.00,0.0368,2.0213,4.2753,0.0174,2025-06-06T10:56:55.829312
688,-0.8779,0.4538,0.1127,-0.210,-4.165,-0.105,1.00,0.0368,2.0804,4.4378,0.0174,2025-06-06T10:56:55.829312
689,-0.8794,0.4543,0.1113,-0.595,-3.955,-0.035,3.00,0.0368,2.1100,4.4173,0.0087,2025-06-06T10:56:55.829312
690,-0.8847,0.4548,0.1132,0.000,-4.865,-0.210,0.00,0.0184,2.1396,4.4790,0.0174,2025-06-06T10:56:55.829312
691,-0.8828,0.4558,0.1074,-0.175,-3.955,-0.210,0.00,0.0184,2.2889,4.5830,0.0087,2025-06-06T10:56:55.829312
692,-0.8804,0.4529,0.1127,-0.245,-4.165,-0.245,2.00,0.0184,2.3490,4.6250,0.0087,2025-06-06T10:56:55.829312
693,-0.8808,0.4524,0.1161,1.190,-4.375,-0.035,0.00,0.0184,2.2589,4.6673,0.0087,2025-06-06T10:56:55.829312
694,-0.8818,0.4529,0.1103,-0.315,-4.025,0.175,1.00,0.0184,2.3189,4.7525,0.0087,2025-06-06T10:56:55.931074
695,-0.8799,0.4509,0.1118,1.715,-4.235,0.210,1.00,0.0368,2.3490,4.7525,0.0174,2025-06-06T10:56:55.932071
696,-0.8813,0.4597,0.1137,-0.560,-4.025,0.210,8.00,0.0184,2.3792,4.8171,0.0087,2025-06-06T10:56:55.932071
697,-0.8794,0.4534,0.1064,0.245,-3.745,-0.035,1.00,0.0184,2.4094,4.7525,0.0087,2025-06-06T10:56:55.932071
698,-0.8852,0.4592,0.1147,-0.315,-4.480,0.000,1.00,0.0184,2.4094,4.8171,0.0000,2025-06-06T10:56:55.932071
699,-0.8760,0.4529,0.1044,-0.630,-3.780,-0.035,1.00,0.0184,2.4397,4.8605,0.0087,2025-06-06T10:56:55.932071
700,-0.8794,0.4558,0.1118,0.525,-4.305,-0.105,1.00,0.0184,2.5005,4.9480,0.0087,2025-06-06T10:56:55.932071
701,-0.8799,0.4519,0.1142,-0.175,-4.340,-0.070,1.00,0.0368,2.5005,5.0142,0.0174,2025-06-06T10:56:56.094263
702,-0.8813,0.4558,0.1108,0.070,-3.850,-0.105,11.00,0.0184,2.4701,4.9921,0.0087,2025-06-06T10:56:56.094263
703,-0.8799,0.4543,0.1103,1.260,-4.130,0.000,1.00,0.0368,2.4397,5.0587,0.0087,2025-06-06T10:56:56.094263
704,-0.8813,0.4538,0.1166,0.560,-4.270,0.035,0.00,0.0184,2.4701,5.1485,0.0087,2025-06-06T10:56:56.094263
705,-0.8823,0.4563,0.1093,-0.385,-3.850,0.140,0.00,0.0184,2.5310,5.1485,0.0087,2025-06-06T10:56:56.094263
706,-0.8789,0.4519,0.1108,0.595,-4.095,-0.035,0.00,0.0184,2.4701,5.1711,0.0087,2025-06-06T10:56:56.094263
707,-0.8804,0.4524,0.1122,0.665,-4.410,-0.035,1.00,0.0184,2.5005,5.1711,0.0174,2025-06-06T10:56:56.094263
708,-0.8804,0.4553,0.1113,-0.420,-3.955,-0.315,0.00,0.0368,2.4701,5.0811,0.0087,2025-06-06T10:56:56.094263
709,-0.8804,0.4529,0.1122,0.000,-3.815,-0.315,2.00,0.0184,2.5616,5.1035,0.0087,2025-06-06T10:56:56.094263
710,-0.8818,0.4538,0.1118,0.140,-4.165,-0.105,3.00,0.0184,2.5310,5.1485,0.0087,2025-06-06T10:56:56.094263
711,-0.8808,0.4529,0.1098,0.245,-3.955,0.000,4.00,0.0368,2.5005,5.2166,0.0174,2025-06-06T10:56:56.094263
712,-0.8799,0.4534,0.1108,0.070,-3.885,0.105,3.00,0.0184,2.5616,5.2623,0.0174,2025-06-06T10:56:56.246280
713,-0.8813,0.4568,0.1137,0.175,-3.850,-0.035,4.00,0.0184,2.5616,5.2394,0.0087,2025-06-06T10:56:56.246280
714,-0.8794,0.4543,0.1118,-0.105,-3.885,0.000,3.00,0.0184,2.5616,5.2623,0.0087,2025-06-06T10:56:56.246280
715,-0.8794,0.4558,0.1108,0.560,-4.060,-0.105,1.00,0.0184,2.5922,5.2166,0.0087,2025-06-06T10:56:56.246280
716,-0.6481,0.4602,0.3099,41.440,-5.670,16.765,7.00,0.0368,2.6229,5.1938,0.0087,2025-06-06T10:56:56.246280
717,-0.7056,0.5378,0.4275,33.775,14.735,31.535,0.00,0.0368,2.6537,5.1711,0.0000,2025-06-06T10:56:56.246280
718,-1.0507,0.8028,0.2542,76.440,-57.435,41.720,1.00,0.0368,2.7464,5.2394,0.0087,2025-06-06T10:56:56.246280
719,-0.0312,0.7218,0.6759,32.410,-225.960,96.775,0.00,0.0368,2.7154,5.2623,0.0087,2025-06-06T10:56:56.246280
720,-1.9866,1.3532,0.7403,53.760,-303.975,225.190,1.00,0.0184,2.7154,5.3082,0.0174,2025-06-06T10:56:56.246280
721,-1.6714,1.2629,0.5309,99.890,-381.640,239.505,1.00,0.0368,2.7464,5.3313,0.0087,2025-06-06T10:56:56.246280
722,-1.5284,0.8550,0.1157,2.205,-437.745,246.890,0.00,0.0368,2.7464,5.3313,0.0087,2025-06-06T10:56:56.246280
723,-0.8926,0.7032,0.0590,7.875,-337.155,241.710,2.00,0.0184,2.6845,5.2852,0.0174,2025-06-06T10:56:56.246280
724,-0.8969,0.6256,0.5397,165.935,-212.590,226.450,0.00,0.0184,2.5616,5.0587,0.0087,2025-06-06T10:56:56.341144
725,-1.3293,1.0985,1.4342,168.280,-225.365,240.065,0.00,0.0184,2.6229,4.9260,0.0087,2025-06-06T10:56:56.341144
726,-1.3303,1.0185,0.9682,12.670,-349.125,308.875,1.00,0.0184,2.4701,4.9921,0.0087,2025-06-06T10:56:56.341144
727,-1.2200,0.9082,0.9282,-6.475,-442.225,378.910,0.00,0.0000,2.4397,4.9041,0.0174,2025-06-06T10:56:56.341144
728,-1.0429,0.7896,0.6300,31.955,-463.505,425.250,2.00,0.0368,2.4701,4.8822,0.0087,2025-06-06T10:56:56.341144
729,-0.7159,0.6417,0.3484,72.555,-406.280,423.150,8.00,0.0184,2.4094,4.9260,0.0174,2025-06-06T10:56:56.341144
730,-0.6930,0.6163,0.4802,51.205,-383.075,393.330,7.00,0.0184,2.5005,4.9041,0.0087,2025-06-06T10:56:56.341144
731,-0.6573,0.6227,0.5187,44.625,-393.225,411.775,3.00,0.0184,2.4094,4.7955,0.0174,2025-06-06T10:56:56.427832
732,-0.5744,0.2455,0.1850,37.310,-413.735,434.490,3.00,0.0184,2.4094,4.7525,0.0087,2025-06-06T10:56:56.427832
733,-0.1269,0.3997,-0.0078,52.745,-384.475,398.545,2.00,0.0184,2.3490,4.7740,0.0087,2025-06-06T10:56:56.427832
734,0.1430,0.4592,-0.2079,30.940,-306.460,326.340,1.00,0.0368,2.5005,4.8388,0.0087,2025-06-06T10:56:56.427832
735,0.3475,0.3074,-0.2655,35.875,-239.645,279.895,0.00,0.0368,2.5005,4.9041,0.0174,2025-06-06T10:56:56.631097
736,0.3465,0.1625,0.0532,25.340,-190.435,215.320,3.00,0.0368,2.4701,4.9260,0.0087,2025-06-06T10:56:56.631097
737,0.5070,0.2230,0.1444,10.535,-151.865,170.345,1.00,0.0184,2.4397,4.9700,0.0000,2025-06-06T10:56:56.631097
738,0.6051,0.5431,0.1684,4.095,-134.785,144.270,1.00,0.0368,2.4701,5.0364,0.0087,2025-06-06T10:56:56.631097
739,0.9023,0.7549,0.1586,21.560,-135.730,140.770,1.00,0.0184,2.6229,4.9700,0.0087,2025-06-06T10:56:56.631097
740,0.5007,0.7501,-0.0093,46.445,-164.150,177.310,0.00,0.0184,2.5922,5.0587,0.0087,2025-06-06T10:56:56.631097
741,0.5700,0.4602,-0.1981,53.725,-247.695,247.590,3.00,0.0184,2.5616,5.0811,0.0174,2025-06-06T10:56:56.631097
742,0.7579,-0.0434,-0.4909,50.365,-224.490,252.175,2.00,0.0368,2.5616,5.0811,0.0087,2025-06-06T10:56:56.631097
743,0.9316,-0.1132,-0.4821,71.365,-135.100,160.370,0.00,0.0184,2.5005,5.0364,0.0087,2025-06-06T10:56:56.631097
744,0.9575,0.1005,-0.1820,41.440,-50.120,77.000,0.00,0.0368,2.5310,5.0811,0.0087,2025-06-06T10:56:56.631097
745,0.8999,0.2660,-0.0678,30.835,-36.855,42.455,3.00,0.0368,2.5310,5.0811,0.0174,2025-06-06T10:56:56.631097
746,0.9326,0.3577,0.0464,7.105,-43.015,38.920,2.00,0.0184,2.5616,5.0142,0.0000,2025-06-06T10:56:56.631097
747,0.8891,0.2123,-0.0820,-6.790,-53.445,38.815,3.00,0.0184,2.5616,5.0142,0.0087,2025-06-06T10:56:56.631097
748,0.9521,0.1259,-0.3723,-19.285,-61.460,30.975,3.00,0.0184,2.5310,5.0142,0.0087,2025-06-06T10:56:56.631097
749,0.7232,-0.5026,-0.3260,-72.415,-32.480,6.755,6.00,0.0184,2.5310,4.9480,0.0087,2025-06-06T10:56:56.631097
750,0.5612,-0.3928,-1.6714,-135.135,-6.965,-32.060,0.00,0.0184,2.5005,4.9480,0.0000,2025-06-06T10:56:56.631097
751,-0.2445,-1.9535,-3.1959,-313.775,-22.295,59.150,1.00,0.0184,2.5005,4.9700,0.0087,2025-06-06T10:56:56.631097
752,-2.8611,-4.3603,-4.6887,-564.095,104.930,197.820,1.00,0.0184,2.4701,4.9480,0.0087,2025-06-06T10:56:56.784392
753,-4.5072,-5.4656,-7.0609,-1071.280,734.650,45.045,7.00,0.0184,2.4701,4.9480,0.0174,2025-06-06T10:56:56.784392
754,-11.2621,-5.0459,-4.7268,-1146.740,1146.740,-216.265,1.00,0.0368,2.4397,4.8605,0.0262,2025-06-06T10:56:56.784392
755,-11.8555,-5.9736,5.2836,-1146.740,1146.740,315.805,3.00,0.0184,2.3792,4.6461,0.0087,2025-06-06T10:56:56.784392
756,-15.5589,-1.9310,13.7577,1146.740,1146.740,1145.935,3.00,0.0368,2.3792,4.5621,0.0087,2025-06-06T10:56:56.784392
757,-4.9854,-1.6558,6.1581,1142.610,1039.220,464.135,3.00,0.0368,2.3792,4.4997,0.0087,2025-06-06T10:56:56.784392
758,-1.2171,4.0758,-2.7099,56.700,-376.075,408.065,6.00,0.0184,2.3189,4.4584,0.0087,2025-06-06T10:56:56.784392
759,-0.1918,2.4400,2.6547,146.930,-1011.010,194.670,1.00,0.0368,2.2589,4.3358,0.0087,2025-06-06T10:56:56.784392
760,-1.2054,0.3894,-1.8598,-1146.740,-951.195,-84.735,4.00,0.0000,2.2290,4.2553,0.0087,2025-06-06T10:56:56.784392
761,-1.7021,-1.0834,1.1131,-305.585,-1146.740,-84.175,0.00,0.0184,2.1991,4.2153,0.0087,2025-06-06T10:56:56.884169
762,-1.3308,1.5323,-6.1386,-690.830,-1146.740,96.950,0.00,0.0184,2.1396,4.0772,0.0087,2025-06-06T10:56:56.884169
763,-0.0044,-0.9994,-2.9534,-266.910,-724.360,-40.915,0.00,0.0368,2.0508,3.9802,0.0174,2025-06-06T10:56:56.884169
764,1.3508,0.5490,-2.8880,-69.475,236.005,21.490,16.00,0.0368,2.0213,3.8844,0.0087,2025-06-06T10:56:56.884169
765,0.5470,0.2830,-0.2572,-120.855,1010.205,89.950,0.00,0.0368,1.9626,3.8088,0.0087,2025-06-06T10:56:56.884169
766,-1.1097,0.5836,2.3019,289.450,1026.410,188.195,0.00,0.0184,1.9626,3.7526,0.0087,2025-06-06T10:56:56.884169
767,-0.6056,1.2639,1.6841,355.950,822.640,165.655,3.00,0.0368,1.9041,3.7153,0.0087,2025-06-06T10:56:56.884169
768,-1.8808,0.4011,4.0075,225.365,103.425,97.545,0.00,0.0368,1.8458,3.5684,0.0000,2025-06-06T10:56:56.884169
769,-0.5305,0.6412,1.6197,-65.240,-92.715,-7.805,4.00,0.0184,1.7877,3.4602,0.0087,2025-06-06T10:56:56.884169
770,-0.4285,0.2323,1.2395,-300.895,-271.915,-59.535,3.00,0.0368,1.7012,3.3714,0.0087,2025-06-06T10:56:56.884169
771,-0.2372,0.0356,0.7174,-171.325,-256.795,-73.290,1.00,0.0184,1.6437,3.2662,0.0174,2025-06-06T10:56:56.969220
772,-0.0869,0.0390,0.4670,43.295,-96.040,-43.505,1.00,0.0368,1.5012,3.1627,0.0087,2025-06-06T10:56:56.969220
773,-0.0024,0.3792,0.4368,19.670,-3.920,-1.260,1.00,0.0184,1.5580,3.1116,0.0087,2025-06-06T10:56:56.969220
774,-0.1098,0.4602,0.7632,14.140,35.035,14.420,8.00,0.0184,1.4729,3.1799,0.0087,2025-06-06T10:56:56.969220
775,-0.2411,0.3011,1.0390,-6.860,45.605,18.620,0.00,0.0184,1.4729,3.1971,0.0174,2025-06-06T10:56:56.969220
776,-0.2708,0.3538,1.1253,57.085,26.705,28.490,2.00,0.0184,1.5012,3.2143,0.0087,2025-06-06T10:56:56.969220
777,-0.3011,0.3933,1.1346,38.010,3.780,27.930,2.00,0.0184,1.4446,3.1116,0.0174,2025-06-06T10:56:57.061873
778,-0.3489,0.3723,1.1263,15.225,-29.225,14.490,0.00,0.0368,1.4164,3.1286,0.0087,2025-06-06T10:56:57.061873
779,-0.3152,0.3758,1.0663,2.240,-58.100,10.010,3.00,0.0368,1.5012,3.1627,0.0087,2025-06-06T10:56:57.061873
780,-0.1274,0.2796,0.9448,4.445,-56.070,10.675,0.00,0.0368,1.4729,3.1799,0.0087,2025-06-06T10:56:57.061873
781,-0.2064,0.2533,0.8574,18.235,-37.345,15.820,1.00,0.0184,1.4446,3.2143,0.0087,2025-06-06T10:56:57.061873
782,-0.2172,0.2377,0.8872,20.020,-24.220,17.045,2.00,0.0184,1.4446,3.2489,0.0087,2025-06-06T10:56:57.061873
783,-0.2259,0.2821,0.9321,18.550,-23.170,13.755,0.00,0.0184,1.3882,3.1971,0.0087,2025-06-06T10:56:57.061873
784,-0.2235,0.3670,0.9340,5.495,-34.685,9.065,3.00,0.0184,1.3882,3.2143,0.0174,2025-06-06T10:56:57.160561
785,-0.2176,0.3475,0.9521,-4.410,-36.085,8.855,2.00,0.0368,1.4446,3.2836,0.0087,2025-06-06T10:56:57.160561
786,-0.2079,0.3587,0.9950,4.340,-31.010,9.205,4.00,0.0184,1.4729,3.2662,0.0087,2025-06-06T10:56:57.160561
787,-0.2040,0.3899,0.9965,11.620,-29.365,9.450,3.00,0.0368,1.4446,3.2662,0.0087,2025-06-06T10:56:57.160561
788,-0.1869,0.3577,0.9374,9.310,-31.885,11.410,0.00,0.0368,1.4446,3.2662,0.0087,2025-06-06T10:56:57.160561
789,-0.1532,0.3187,0.9496,7.630,-27.300,13.090,2.00,0.0184,1.4446,3.2836,0.0087,2025-06-06T10:56:57.160561
790,-0.1835,0.2860,0.9501,12.355,-18.165,12.880,1.00,0.0184,1.4729,3.3361,0.0087,2025-06-06T10:56:57.160561
791,-0.1240,0.2679,0.8769,15.680,-12.005,12.880,5.00,0.0000,1.5296,3.3361,0.0087,2025-06-06T10:56:57.160561
792,-0.1279,0.2830,0.8677,12.215,-6.965,10.360,3.00,0.0368,1.5296,3.3714,0.0087,2025-06-06T10:56:57.262993
793,-0.1240,0.2411,0.9331,4.690,1.155,8.610,3.00,0.0368,1.5296,3.4068,0.0087,2025-06-06T10:56:57.262993
794,-0.1479,0.2679,1.0102,12.460,2.135,5.880,0.00,0.0184,1.6151,3.4424,0.0087,2025-06-06T10:56:57.262993
795,-0.1327,0.3387,1.0150,8.960,-7.490,3.780,1.00,0.0368,1.6151,3.5141,0.0087,2025-06-06T10:56:57.262993
796,-0.1493,0.3836,0.9540,-1.155,-16.450,-0.945,1.00,0.0184,1.6437,3.5322,0.0174,2025-06-06T10:56:57.262993
797,-0.1298,0.3841,0.9384,-2.170,-15.365,-0.525,3.00,0.0184,1.7012,3.6049,0.0087,2025-06-06T10:56:57.262993
798,-0.1074,0.4163,0.8696,1.855,-7.525,0.980,6.00,0.0368,1.7012,3.6783,0.0000,2025-06-06T10:56:57.262993
799,-0.0937,0.4075,0.8647,7.560,2.310,7.910,3.00,0.0184,1.7588,3.7153,0.0174,2025-06-06T10:56:57.365320
800,-0.1205,0.3421,0.8730,8.785,9.660,11.200,2.00,0.0184,1.8458,3.7900,0.0174,2025-06-06T10:56:57.365320
801,-0.1488,0.3240,0.9648,19.600,13.195,14.035,1.00,0.0368,1.8458,3.8276,0.0174,2025-06-06T10:56:57.865537
802,-0.1557,0.3475,1.0116,16.170,8.260,10.640,0.00,0.0184,1.8458,3.8276,0.0087,2025-06-06T10:56:57.865537
803,-0.1606,0.3348,1.0087,10.080,2.555,7.665,4.00,0.0184,1.8749,3.8655,0.0174,2025-06-06T10:56:57.865537
804,-0.1703,0.3245,0.9926,6.510,-1.960,5.110,1.00,0.0184,1.9041,3.9417,0.0087,2025-06-06T10:56:57.865537
805,-0.1737,0.3304,0.9628,9.275,-1.400,1.785,0.00,0.0368,1.9041,3.9226,0.0087,2025-06-06T10:56:57.865537
806,-0.1547,0.3704,0.9204,8.680,0.000,0.070,6.00,0.0368,1.9333,3.9802,0.0087,2025-06-06T10:56:57.865537
807,-0.1410,0.3924,0.9555,10.150,2.100,2.310,3.00,0.0184,2.0508,4.0188,0.0087,2025-06-06T10:56:57.865537
808,-0.1420,0.4475,0.9872,16.800,3.815,3.605,0.00,0.0368,1.9919,4.0968,0.0174,2025-06-06T10:56:57.865537
809,-0.1327,0.5212,1.0058,28.910,1.925,10.745,2.00,0.0368,2.0213,4.1558,0.0174,2025-06-06T10:56:57.865537
810,-0.0859,0.5290,1.0350,49.455,1.540,25.760,1.00,0.0368,2.0804,4.1756,0.0174,2025-06-06T10:56:57.865537
811,-0.1928,0.4563,1.0468,67.970,1.925,29.610,0.00,0.0184,2.1693,4.1954,0.0087,2025-06-06T10:56:57.865537
812,-0.2425,0.4226,1.0795,84.000,-5.145,29.260,18.00,0.0368,2.1991,4.1756,0.0000,2025-06-06T10:56:57.865537
813,-0.2425,0.4168,1.0946,82.355,-17.780,25.410,1.00,0.0368,2.2290,4.2753,0.0087,2025-06-06T10:56:57.865537
814,-0.2342,0.4407,1.1097,75.845,-36.330,19.355,2.00,0.0184,2.2889,4.3358,0.0087,2025-06-06T10:56:57.865537
815,-0.1976,0.4680,1.0146,73.605,-52.710,14.560,1.00,0.0552,2.2889,4.3969,0.0087,2025-06-06T10:56:57.865537
816,-0.1435,0.4963,0.9155,70.665,-68.005,14.700,2.00,0.0184,2.2589,4.4997,0.0087,2025-06-06T10:56:57.865537
817,-0.1098,0.4890,0.7891,68.600,-70.280,19.670,4.00,0.0184,2.3189,4.5204,0.0174,2025-06-06T10:56:57.865537
818,-0.0708,0.4553,0.7227,66.535,-56.105,18.445,1.00,0.0368,2.3189,4.4790,0.0087,2025-06-06T10:56:57.865537
819,-0.0464,0.4748,0.7056,67.690,-27.860,15.050,1.00,0.0184,2.3189,4.5204,0.0174,2025-06-06T10:56:57.865537
820,-0.0581,0.4963,0.7164,61.740,-26.880,16.730,4.00,0.0184,2.3189,4.4997,0.0262,2025-06-06T10:56:57.865537
821,-0.0551,0.4851,0.6881,48.930,-25.305,14.210,0.00,0.0184,2.3189,4.5204,0.0000,2025-06-06T10:56:57.865537
822,-0.0444,0.4616,0.6900,23.205,-22.470,11.620,3.00,0.0184,2.3189,4.6040,0.0174,2025-06-06T10:56:57.865537
823,-0.0498,0.4382,0.6915,12.460,-12.985,8.855,3.00,0.0184,2.2889,4.7098,0.0087,2025-06-06T10:56:57.865537
824,-0.0673,0.4641,0.7486,8.365,-0.140,4.095,1.00,0.0184,2.1991,4.6885,0.0087,2025-06-06T10:56:57.865537
825,-0.0810,0.5627,0.7852,0.910,2.835,-1.470,0.00,0.0368,2.3792,4.7955,0.0087,2025-06-06T10:56:57.865537
826,-0.0712,0.6285,0.8491,-6.930,-4.060,-2.170,2.00,0.0368,2.4094,4.7955,0.0087,2025-06-06T10:56:57.865537
827,-0.0722,0.6398,0.8398,-12.215,-10.745,-0.385,3.00,0.0000,2.4701,4.7311,0.0087,2025-06-06T10:56:57.865537
828,-0.0586,0.6217,0.8286,-9.485,-11.830,0.105,1.00,0.0184,2.5616,4.8822,0.0087,2025-06-06T10:56:57.865537
829,-0.0376,0.6388,0.8140,-5.110,-3.955,1.155,0.00,0.0184,2.5616,4.8605,0.0174,2025-06-06T10:56:57.865537
830,-0.0454,0.5070,0.8525,0.945,1.645,5.950,0.00,0.0184,2.5922,4.9700,0.0087,2025-06-06T10:56:57.865537
831,-0.0664,0.6080,0.8647,9.975,0.315,10.780,1.00,0.0184,2.6229,5.0811,0.0087,2025-06-06T10:56:57.865537
832,-0.0644,0.6188,0.8730,10.220,-7.105,11.270,0.00,0.0184,2.6537,5.1260,0.0174,2025-06-06T10:56:57.865537
833,-0.0405,0.5846,0.8530,6.580,-11.760,11.515,0.00,0.0368,2.7464,5.1711,0.0174,2025-06-06T10:56:57.865537
834,-0.0742,0.6285,0.7808,10.885,17.710,5.565,8.00,0.0184,2.8396,5.1938,0.0087,2025-06-06T10:56:57.882893
835,-0.0024,0.5261,0.7066,20.930,14.175,10.045,7.00,0.0368,2.8085,5.1260,0.0174,2025-06-06T10:56:57.882893
836,-0.0376,0.6061,0.8862,24.395,12.460,11.585,0.00,0.0184,2.9022,5.0587,0.0174,2025-06-06T10:56:57.882893
837,-0.0761,0.5373,0.8721,11.935,2.590,7.350,0.00,0.0184,2.9022,5.0587,0.0174,2025-06-06T10:56:57.882893
838,-0.0737,0.5261,0.8823,3.360,-4.760,6.685,2.00,0.0184,2.9335,5.1035,0.0087,2025-06-06T10:56:57.882893
839,-0.0586,0.5583,0.8872,0.875,-11.900,5.740,1.00,0.0184,2.8085,5.1711,0.0087,2025-06-06T10:56:57.882893
840,-0.0376,0.5378,0.8301,0.595,-11.480,4.725,6.00,0.0184,2.7464,5.1485,0.0174,2025-06-06T10:56:57.882893
841,-0.0322,0.5539,0.8130,0.035,-6.370,3.885,0.00,0.0368,2.7464,5.2623,0.0087,2025-06-06T10:56:57.882893
842,-0.0239,0.5690,0.8174,2.135,-2.730,3.675,4.00,0.0184,2.7774,5.2394,0.0000,2025-06-06T10:56:57.882893
843,-0.0264,0.5529,0.7862,4.200,1.855,4.725,0.00,0.0184,2.7464,5.1938,0.0087,2025-06-06T10:56:57.882893
844,-0.0337,0.5300,0.8120,2.380,7.630,2.450,0.00,0.0184,2.7464,5.1485,0.0087,2025-06-06T10:56:57.882893
845,-0.0508,0.5056,0.8194,-1.995,14.420,-5.495,7.00,0.0184,2.6845,5.1035,0.0000,2025-06-06T10:56:57.980973
846,-0.0498,0.5144,0.8418,-6.510,20.510,-10.535,0.00,0.0184,2.7154,5.1035,0.0174,2025-06-06T10:56:57.980973
847,-0.0527,0.5505,0.8462,-7.805,20.825,-12.810,3.00,0.0368,2.7154,5.1260,0.0174,2025-06-06T10:56:57.980973
848,-0.0459,0.5778,0.8423,-8.155,17.640,-12.670,0.00,0.0368,2.6845,5.1485,0.0087,2025-06-06T10:56:57.980973
849,-0.0512,0.5680,0.8091,-9.590,15.330,-10.815,0.00,0.0184,2.6229,5.1938,0.0087,2025-06-06T10:56:57.980973
850,-0.0068,0.5539,0.8164,-3.885,15.890,-4.935,2.00,0.0184,2.6229,5.2394,0.0174,2025-06-06T10:56:57.980973
851,-0.1488,0.5832,0.8140,0.875,29.855,-6.825,3.00,0.0184,2.5922,5.0587,0.0087,2025-06-06T10:56:57.980973
852,-0.0786,0.5422,0.7437,2.695,36.085,-5.810,2.00,0.0368,2.6229,5.1035,0.0174,2025-06-06T10:56:58.139893
853,-0.0991,0.5846,0.8481,3.990,34.720,-6.300,1.00,0.0184,2.6229,5.0587,0.0174,2025-06-06T10:56:58.139893
854,-0.1200,0.5973,0.8862,-0.560,29.960,-10.535,5.00,0.0184,2.6229,5.1260,0.0174,2025-06-06T10:56:58.139893
855,-0.0708,0.6193,0.8286,-3.535,40.180,-14.630,2.00,0.0368,2.6229,5.1035,0.0087,2025-06-06T10:56:58.139893
856,-0.1313,0.5422,0.6866,-7.805,35.770,-19.005,1.00,0.0368,2.6229,5.1485,0.0087,2025-06-06T10:56:58.139893
857,-0.1269,0.5690,0.7857,-3.010,37.870,-14.385,0.00,0.0184,2.5922,5.1485,0.0087,2025-06-06T10:56:58.139893
858,-0.1440,0.5983,0.8340,0.035,38.885,-10.885,0.00,0.0184,2.5922,5.1260,0.0087,2025-06-06T10:56:58.139893
859,-0.1732,0.6085,0.8916,2.240,33.880,-9.905,3.00,0.0184,2.5922,5.1711,0.0087,2025-06-06T10:56:58.139893
860,-0.1171,0.5851,0.8847,3.080,24.255,-4.235,2.00,0.0184,2.6229,5.1485,0.0174,2025-06-06T10:56:58.139893
861,-0.1991,0.5266,0.7632,-3.955,19.495,-11.550,2.00,0.0368,2.5922,5.1711,0.0087,2025-06-06T10:56:58.323009
862,-0.1679,0.5236,0.7613,-9.310,21.315,-13.860,3.00,0.0184,2.5616,5.1938,0.0174,2025-06-06T10:56:58.323009
863,-0.1283,0.5651,0.7398,-9.835,29.085,-16.380,4.00,0.0368,2.5922,5.1035,0.0087,2025-06-06T10:56:58.323009
864,-0.0620,0.5495,0.6739,-6.090,47.145,-10.500,0.00,0.0184,2.6537,5.0364,0.0087,2025-06-06T10:56:58.323009
865,-0.1576,0.4890,0.6056,1.400,76.125,-12.355,0.00,0.0368,2.6537,5.1035,0.0087,2025-06-06T10:56:58.323009
866,-0.2255,0.5544,0.7266,24.815,105.875,-7.350,1.00,0.0000,2.5922,5.1260,0.0000,2025-06-06T10:56:58.323009
867,-0.2577,0.6154,0.8730,33.005,105.280,-4.270,2.00,0.0184,2.6229,5.1035,0.0000,2025-06-06T10:56:58.323009
868,-0.3055,0.5592,0.8691,18.410,86.905,-10.395,0.00,0.0184,2.5616,5.1260,0.0087,2025-06-06T10:56:58.323009
869,-0.3460,0.5470,0.8218,-4.095,63.770,-15.435,2.00,0.0184,2.5922,5.0811,0.0087,2025-06-06T10:56:58.323009
870,-0.2830,0.5544,0.6827,-18.200,51.555,-27.160,0.00,0.0184,2.6229,5.0811,0.0087,2025-06-06T10:56:58.323009
871,-0.2074,0.5675,0.5226,-28.910,59.780,-31.465,1.00,0.0184,2.6229,5.0364,0.0000,2025-06-06T10:56:58.323009
872,-0.1298,0.4158,0.7720,-37.345,106.400,-39.305,2.00,0.0184,2.6537,5.0364,0.0174,2025-06-06T10:56:58.323009
873,-0.2450,0.4909,0.2113,-17.045,107.380,-27.475,0.00,0.0184,2.6537,5.0364,0.0087,2025-06-06T10:56:58.323009
874,-0.1449,0.3211,-0.0361,-44.240,154.175,-18.515,4.00,0.0368,2.5922,5.0811,0.0087,2025-06-06T10:56:58.323009
875,-0.2664,0.0547,0.1264,-70.210,242.655,-44.170,7.00,0.0368,2.5922,5.0364,0.0087,2025-06-06T10:56:58.323009
876,-0.3811,0.1093,0.1825,-77.245,307.825,-86.485,7.00,0.0184,2.5616,4.9921,0.0087,2025-06-06T10:56:58.323009
877,-0.2416,0.1503,0.2655,-101.360,357.385,-137.200,5.00,0.0368,2.5310,4.9921,0.0087,2025-06-06T10:56:58.404243
878,-0.4299,0.1566,0.5236,-101.010,394.905,-212.100,4.00,0.0184,2.5310,4.9260,0.0087,2025-06-06T10:56:58.404243
879,-1.3308,0.3060,-0.0307,39.900,254.485,37.100,14.00,0.0184,2.4701,4.9260,0.0087,2025-06-06T10:56:58.404243
880,-2.3190,0.8891,2.7191,174.965,518.490,62.195,2.00,0.0368,2.4701,4.8822,0.0087,2025-06-06T10:56:58.404243
881,-1.8144,1.3996,1.8832,216.475,5.390,48.300,3.00,0.0184,2.4701,4.8822,0.0087,2025-06-06T10:56:58.496339
882,-0.5002,0.5656,0.7501,-19.425,8.960,-10.395,0.00,0.0184,2.5005,4.8605,0.0000,2025-06-06T10:56:58.496339
883,-1.0760,0.6329,0.3060,-75.915,-24.920,-130.795,2.00,0.0184,2.4397,4.7955,0.0087,2025-06-06T10:56:58.496339
884,-0.9472,0.6349,0.4280,4.130,-86.065,-35.000,2.00,0.0368,2.4094,4.7525,0.0174,2025-06-06T10:56:58.496339
885,-0.1932,0.3875,-0.3914,61.110,40.670,-50.575,9.00,0.0184,2.4094,4.7740,0.0087,2025-06-06T10:56:58.496339
886,-0.8813,0.6256,-0.1318,52.115,23.835,-35.035,1.00,0.0000,2.3792,4.7311,0.0087,2025-06-06T10:56:58.496339
887,-0.8135,0.3597,0.3528,-1.435,-3.955,-22.120,1.00,0.0368,2.3792,4.7525,0.0087,2025-06-06T10:56:58.496339
888,-0.9004,0.2704,0.6573,-27.335,-28.455,-2.765,0.00,0.0368,2.3490,4.7955,0.0087,2025-06-06T10:56:58.496339
889,-0.7754,0.4675,0.5758,-4.095,-9.765,5.215,0.00,0.0184,2.3490,4.7955,0.0087,2025-06-06T10:56:58.496339
890,-0.7774,0.4621,0.4470,19.040,20.160,4.445,2.00,0.0184,2.4094,4.8171,0.0174,2025-06-06T10:56:58.595996
891,-0.8072,0.4475,0.2782,5.810,6.300,8.155,0.00,0.0368,2.3792,4.7955,0.0174,2025-06-06T10:56:58.595996
892,-0.7647,0.4704,0.3128,-18.900,-18.620,10.220,1.00,0.0184,2.3792,4.7955,0.0087,2025-06-06T10:56:58.595996
893,-0.7740,0.4719,0.4128,-20.370,-19.075,11.025,1.00,0.0184,2.3490,4.8171,0.0087,2025-06-06T10:56:58.595996
894,-0.7549,0.4577,0.4382,-5.985,-3.605,14.070,1.00,0.0184,2.3490,4.8388,0.0087,2025-06-06T10:56:58.595996
895,-0.7832,0.5134,0.5300,-1.575,0.595,11.165,3.00,0.0184,2.3792,4.8171,0.0087,2025-06-06T10:56:58.595996
896,-0.7696,0.5358,0.4807,-1.050,-3.780,3.640,0.00,0.0184,2.3490,4.8388,0.0087,2025-06-06T10:56:58.595996
897,-0.7530,0.5192,0.4226,-3.220,-4.760,-1.645,3.00,0.0368,2.3490,4.7955,0.0087,2025-06-06T10:56:58.595996
898,-0.7559,0.4812,0.4080,3.185,-0.490,-3.115,3.00,0.0184,2.3792,4.8171,0.0087,2025-06-06T10:56:58.713736
899,-0.7574,0.4831,0.4441,8.575,3.640,-3.815,1.00,0.0368,2.4094,4.7955,0.0174,2025-06-06T10:56:58.713736
900,-0.7906,0.4929,0.4709,8.435,3.220,-4.970,5.00,0.0184,2.4094,4.7955,0.0087,2025-06-06T10:56:58.713736
901,-0.7803,0.4968,0.4480,8.960,-0.910,-6.615,0.00,0.0368,2.4094,4.7955,0.0087,2025-06-06T10:56:58.713736
902,-0.7676,0.4753,0.4011,5.635,2.835,-7.700,3.00,0.0000,2.4397,4.7740,0.0087,2025-06-06T10:56:58.713736
903,-0.7749,0.4504,0.4021,9.240,0.805,-4.935,1.00,0.0368,2.4094,4.7525,0.0174,2025-06-06T10:56:58.714140
904,-0.7784,0.4553,0.4958,4.620,0.980,-2.380,0.00,0.0184,2.4701,4.7525,0.0087,2025-06-06T10:56:58.714140
905,-0.7813,0.4714,0.4002,2.450,-2.590,-0.315,4.00,0.0368,2.4094,4.7955,0.0174,2025-06-06T10:56:58.714140
906,-0.7847,0.4675,0.4011,-1.575,-4.515,0.595,5.00,0.0184,2.4397,4.8171,0.0087,2025-06-06T10:56:58.952764
907,-0.7803,0.4641,0.4070,-1.890,-5.425,2.240,6.00,0.0552,2.4701,4.8171,0.0087,2025-06-06T10:56:58.952764
908,-0.7769,0.4704,0.4065,-3.010,-5.845,3.500,0.00,0.0368,2.4397,4.8171,0.0174,2025-06-06T10:56:58.952764
909,-0.7759,0.4729,0.4070,-3.850,-6.195,4.095,0.00,0.0184,2.4094,4.8388,0.0087,2025-06-06T10:56:58.952764
910,-0.7735,0.4812,0.4148,-3.955,-6.265,3.955,3.00,0.0184,2.3792,4.8388,0.0087,2025-06-06T10:56:58.952764
911,-0.7749,0.4875,0.4265,-2.730,-5.600,3.360,0.00,0.0184,2.3490,4.8388,0.0087,2025-06-06T10:56:58.952764
912,-0.7735,0.4890,0.4309,-1.505,-4.900,2.030,1.00,0.0184,2.3490,4.8822,0.0087,2025-06-06T10:56:58.952764
913,-0.7749,0.4817,0.4280,0.000,-2.940,1.015,0.00,0.0000,2.3490,4.8171,0.0087,2025-06-06T10:56:58.952764
914,-0.7710,0.4953,0.4324,2.310,-2.485,-0.385,0.00,0.0184,2.3792,4.8388,0.0087,2025-06-06T10:56:58.952764
915,-0.7706,0.4914,0.4182,2.835,-1.540,-2.100,3.00,0.0368,2.3792,4.8605,0.0087,2025-06-06T10:56:58.952764
916,-0.7745,0.4807,0.4197,3.150,-1.330,-2.940,0.00,0.0368,2.3792,4.9041,0.0087,2025-06-06T10:56:58.952764
917,-0.7759,0.4763,0.4197,4.270,-0.455,-2.835,0.00,0.0184,2.3490,4.8605,0.0087,2025-06-06T10:56:58.952764
918,-0.7784,0.4778,0.4065,5.005,-0.175,-2.310,1.00,0.0184,2.3189,4.7740,0.0087,2025-06-06T10:56:58.952764
919,-0.7784,0.4758,0.4046,3.325,-1.190,-1.960,0.00,0.0000,2.2589,4.7740,0.0000,2025-06-06T10:56:58.952764
920,-0.7808,0.4734,0.4021,1.925,-2.485,-1.330,2.00,0.0184,2.3490,4.7740,0.0174,2025-06-06T10:56:58.952764
921,-0.7828,0.4738,0.3992,1.225,-2.800,0.210,2.00,0.0184,2.2889,4.7740,0.0174,2025-06-06T10:56:58.952764
922,-0.7803,0.4719,0.4085,-0.420,-4.410,0.980,4.00,0.0184,2.2589,4.7955,0.0087,2025-06-06T10:56:58.952764
923,-0.7730,0.4729,0.4016,-1.610,-4.830,1.400,0.00,0.0184,2.1991,4.8171,0.0000,2025-06-06T10:56:59.146644
924,-0.7847,0.4758,0.4158,-0.735,-4.445,1.855,3.00,0.0000,2.1991,4.7955,0.0087,2025-06-06T10:56:59.146644
925,-0.7749,0.4768,0.4016,-1.120,-5.180,2.100,1.00,0.0368,2.2290,4.7955,0.0087,2025-06-06T10:56:59.146644
926,-0.7754,0.4909,0.4124,-1.680,-4.970,1.855,0.00,0.0552,2.2290,4.7525,0.0087,2025-06-06T10:56:59.146644
927,-0.7725,0.4856,0.4250,-0.875,-4.830,0.805,4.00,0.0368,2.1991,4.8171,0.0087,2025-06-06T10:56:59.146644
928,-0.7730,0.4826,0.4158,-0.420,-3.465,0.280,3.00,0.0184,2.2290,4.8171,0.0087,2025-06-06T10:56:59.146644
929,-0.7788,0.4860,0.4211,1.680,-2.800,-0.420,3.00,0.0184,2.1991,4.8605,0.0087,2025-06-06T10:56:59.146644
930,-0.7730,0.4831,0.4041,1.925,-3.010,-0.910,2.00,0.0368,2.1991,4.8822,0.0087,2025-06-06T10:56:59.146644
931,-0.7754,0.4865,0.4207,2.100,-2.800,-1.330,1.00,0.0184,2.2290,4.9041,0.0087,2025-06-06T10:56:59.146644
932,-0.7798,0.4807,0.4177,1.995,-2.065,-1.855,0.00,0.0000,2.2290,4.9041,0.0087,2025-06-06T10:56:59.146644
933,-0.7788,0.4748,0.4060,2.555,-1.855,-1.365,2.00,0.0184,2.2290,4.9041,0.0087,2025-06-06T10:56:59.146644
934,-0.7788,0.4773,0.4016,2.065,-1.995,-0.945,2.00,0.0184,2.1991,4.9041,0.0087,2025-06-06T10:56:59.146644
935,-0.7803,0.4778,0.4021,1.680,-2.835,-0.525,1.00,0.0184,2.1991,4.9041,0.0174,2025-06-06T10:56:59.146644
936,-0.7832,0.4778,0.4075,0.525,-3.535,-0.035,1.00,0.0184,2.1991,4.9260,0.0087,2025-06-06T10:56:59.146644
937,-0.7837,0.4734,0.4080,0.140,-4.305,0.525,0.00,0.0368,2.1991,4.8822,0.0000,2025-06-06T10:56:59.146644
938,-0.7779,0.4763,0.4026,-0.350,-3.570,0.910,1.00,0.0552,2.2589,4.9480,0.0087,2025-06-06T10:56:59.341098
939,-0.7784,0.4821,0.4065,-0.385,-4.340,1.085,2.00,0.0184,2.2290,4.9700,0.0087,2025-06-06T10:56:59.341098
940,-0.7803,0.4817,0.4080,-1.155,-4.830,0.945,2.00,0.0368,2.2290,4.9700,0.0087,2025-06-06T10:56:59.341098
941,-0.7808,0.4817,0.4148,-0.385,-4.690,0.665,2.00,0.0552,2.2889,4.9041,0.0087,2025-06-06T10:56:59.341098
942,-0.7759,0.4802,0.4128,0.070,-3.850,0.490,0.00,0.0368,2.2889,4.9041,0.0174,2025-06-06T10:56:59.341098
943,-0.7749,0.4846,0.4128,0.630,-3.080,0.105,2.00,0.0368,2.2589,4.9260,0.0174,2025-06-06T10:56:59.341098
944,-0.7764,0.4836,0.4153,0.875,-3.430,-0.490,1.00,0.0184,2.2589,4.8822,0.0174,2025-06-06T10:56:59.341098
945,-0.7788,0.4802,0.4104,0.945,-3.150,-0.735,6.00,0.0184,2.2589,4.8822,0.0087,2025-06-06T10:56:59.341098
946,-0.7774,0.4807,0.4089,2.030,-3.045,-0.910,1.00,0.0184,2.2889,4.8605,0.0087,2025-06-06T10:56:59.341098
947,-0.7798,0.4782,0.4070,1.785,-2.800,-0.735,1.00,0.0184,2.2589,4.9041,0.0087,2025-06-06T10:56:59.341098
948,-0.7803,0.4807,0.4075,1.365,-2.835,-0.665,1.00,0.0184,2.2889,4.9260,0.0087,2025-06-06T10:56:59.341098
949,-0.7774,0.4802,0.4041,0.875,-3.290,-0.420,5.00,0.0368,2.2889,4.9700,0.0174,2025-06-06T10:56:59.341098
950,-0.7788,0.4753,0.4055,1.050,-3.395,-0.140,1.00,0.0368,2.2889,4.9260,0.0087,2025-06-06T10:56:59.341098
951,-0.7808,0.4782,0.4060,0.455,-3.640,0.210,2.00,0.0368,2.3490,5.0364,0.0087,2025-06-06T10:56:59.611092
952,-0.7788,0.4773,0.4031,-0.140,-4.165,0.525,2.00,0.0552,2.3189,5.1035,0.0174,2025-06-06T10:56:59.611092
953,-0.7798,0.4787,0.4080,-0.280,-4.410,0.490,0.00,0.0184,2.2889,4.9700,0.0087,2025-06-06T10:56:59.611092
954,-0.7774,0.4812,0.4060,-0.315,-4.200,0.595,2.00,0.0368,2.3189,5.0142,0.0087,2025-06-06T10:56:59.611092
955,-0.7808,0.4807,0.4094,0.070,-4.060,0.525,0.00,0.0368,2.3189,4.9921,0.0174,2025-06-06T10:56:59.611092
956,-0.7774,0.4836,0.4080,0.280,-3.710,0.175,0.00,0.0184,2.2889,5.0142,0.0174,2025-06-06T10:56:59.611092
957,-0.7788,0.4841,0.4089,0.210,-3.535,-0.035,0.00,0.0368,2.3189,4.9700,0.0087,2025-06-06T10:56:59.611092
958,-0.7793,0.4826,0.4089,0.700,-3.570,-0.280,6.00,0.0184,2.2589,5.0364,0.0174,2025-06-06T10:56:59.611092
959,-0.7788,0.4841,0.4094,0.910,-3.500,-0.455,3.00,0.0368,2.2889,5.0587,0.0087,2025-06-06T10:56:59.611092
960,-0.7784,0.4831,0.4070,0.980,-3.430,-0.490,2.00,0.0368,2.2889,5.0587,0.0087,2025-06-06T10:56:59.611092
961,-0.7793,0.4802,0.4080,1.120,-3.150,-0.595,0.00,0.0184,2.2290,5.0811,0.0087,2025-06-06T10:56:59.611092
962,-0.7798,0.4802,0.4065,0.910,-3.115,-0.385,1.00,0.0368,2.1396,5.0811,0.0087,2025-06-06T10:56:59.611092
963,-0.7803,0.4787,0.4041,0.840,-3.430,-0.280,1.00,0.0000,2.2589,5.0811,0.0087,2025-06-06T10:56:59.611092
964,-0.7788,0.4802,0.4055,0.595,-3.710,-0.140,0.00,0.0184,2.2589,5.0142,0.0087,2025-06-06T10:56:59.611092
965,-0.7818,0.4792,0.4041,0.210,-4.060,0.105,0.00,0.0368,2.2889,4.9921,0.0087,2025-06-06T10:56:59.611092
966,-0.7793,0.4797,0.4060,0.210,-3.780,0.175,4.00,0.0368,2.3189,4.9921,0.0087,2025-06-06T10:56:59.622494
967,-0.7798,0.4826,0.4055,0.035,-3.675,0.350,3.00,0.0184,2.2889,4.9480,0.0087,2025-06-06T10:56:59.622494
968,-0.7784,0.4792,0.4050,0.000,-3.920,0.280,2.00,0.0184,2.2889,5.0364,0.0087,2025-06-06T10:56:59.622494
969,-0.7779,0.4831,0.4089,0.140,-4.305,0.280,0.00,0.0368,2.2589,5.0364,0.0174,2025-06-06T10:56:59.622494
970,-0.7808,0.4831,0.4070,0.315,-4.165,0.105,1.00,0.0368,2.2589,5.0811,0.0087,2025-06-06T10:56:59.622494
971,-0.7774,0.4826,0.4080,0.420,-3.640,0.000,1.00,0.0184,2.1991,5.0587,0.0087,2025-06-06T10:56:59.622494
972,-0.7788,0.4812,0.4065,0.595,-3.255,-0.175,2.00,0.0000,2.2889,5.0587,0.0087,2025-06-06T10:56:59.623405
973,-0.7784,0.4826,0.4050,0.630,-3.325,-0.280,0.00,0.0184,2.3189,5.0587,0.0087,2025-06-06T10:56:59.623405
974,-0.7774,0.4817,0.4036,0.945,-3.675,-0.315,0.00,0.0184,2.3189,5.1035,0.0174,2025-06-06T10:56:59.676706
975,-0.7803,0.4807,0.4060,0.910,-3.815,-0.385,2.00,0.0184,2.3490,5.1035,0.0087,2025-06-06T10:56:59.676706
976,-0.7793,0.4807,0.4060,0.700,-3.500,-0.210,1.00,0.0184,2.3792,5.1485,0.0087,2025-06-06T10:56:59.676706
977,-0.7784,0.4812,0.4050,0.490,-3.430,-0.105,0.00,0.0368,2.3490,5.1938,0.0087,2025-06-06T10:56:59.676706
978,-0.7798,0.4782,0.3992,0.525,-3.500,-0.140,2.00,0.0184,2.3490,5.2166,0.0087,2025-06-06T10:56:59.931743
979,-0.7803,0.4797,0.4031,0.455,-3.780,0.070,3.00,0.0368,2.2889,5.2166,0.0087,2025-06-06T10:56:59.931743
980,-0.7803,0.4792,0.4036,0.350,-4.165,0.140,0.00,0.0184,2.4094,5.1938,0.0087,2025-06-06T10:56:59.931743
981,-0.7813,0.4797,0.4050,0.350,-4.060,0.210,3.00,0.0368,2.4094,5.2623,0.0087,2025-06-06T10:56:59.931743
982,-0.7808,0.4821,0.4050,0.315,-3.710,0.140,2.00,0.0368,2.3792,5.3082,0.0087,2025-06-06T10:56:59.931743
983,-0.7779,0.4797,0.4011,0.140,-3.675,0.140,1.00,0.0368,2.3792,5.3082,0.0174,2025-06-06T10:56:59.931743
984,-0.7798,0.4817,0.4060,0.245,-3.745,0.035,2.00,0.0368,2.4094,5.4244,0.0087,2025-06-06T10:56:59.931743
985,-0.7784,0.4802,0.4055,0.665,-3.990,-0.070,3.00,0.0184,2.3792,5.3082,0.0174,2025-06-06T10:56:59.931743
986,-0.7803,0.4817,0.4046,0.525,-3.745,-0.140,0.00,0.0184,2.3792,5.3313,0.0087,2025-06-06T10:56:59.931743
987,-0.7788,0.4821,0.4036,0.525,-3.605,-0.140,6.00,0.0184,2.4094,5.3545,0.0087,2025-06-06T10:56:59.931743
988,-0.7788,0.4807,0.4046,0.420,-3.430,-0.210,0.00,0.0184,2.3792,5.3777,0.0087,2025-06-06T10:56:59.931743
989,-0.7808,0.4812,0.4036,0.525,-3.640,-0.280,0.00,0.0368,2.4397,5.4010,0.0087,2025-06-06T10:56:59.931743
990,-0.7798,0.4802,0.4002,0.350,-3.850,-0.140,3.00,0.0184,2.4701,5.4010,0.0174,2025-06-06T10:56:59.932757
991,-0.7837,0.4792,0.4036,0.595,-3.920,-0.140,8.00,0.0184,2.4094,5.5661,0.0087,2025-06-06T10:56:59.932757
992,-0.7803,0.4797,0.4026,0.280,-3.605,-0.035,0.00,0.0184,2.4701,5.5899,0.0087,2025-06-06T10:56:59.932757
993,-0.7798,0.4797,0.4050,0.595,-3.990,0.140,1.00,0.0184,2.4701,5.5899,0.0087,2025-06-06T10:56:59.932757
994,-0.7813,0.4846,0.4031,0.000,-3.885,0.105,6.00,0.0368,2.4397,5.5899,0.0087,2025-06-06T10:56:59.932757
995,-0.7813,0.4826,0.4050,0.595,-3.885,0.035,5.00,0.0184,2.4094,5.5899,0.0087,2025-06-06T10:56:59.932757
996,-0.7798,0.4817,0.4002,0.105,-3.745,0.035,1.00,0.0000,2.4701,5.5661,0.0087,2025-06-06T10:56:59.981155
997,-0.7803,0.4817,0.4031,0.070,-3.955,0.070,2.00,0.0184,2.5005,5.4713,0.0174,2025-06-06T10:56:59.981155
998,-0.7798,0.4817,0.4016,0.350,-4.060,0.035,4.00,0.0368,2.5005,5.5661,0.0174,2025-06-06T10:56:59.981155
999,-0.7813,0.4802,0.4026,0.700,-3.955,-0.140,0.00,0.0368,2.5310,5.6139,0.0087,2025-06-06T10:56:59.981155
1000,-0.7803,0.4841,0.4036,0.560,-3.710,-0.105,3.00,0.0184,2.5005,5.6619,0.0087,2025-06-06T10:56:59.981155
1001,-0.7803,0.4836,0.4026,0.490,-3.605,-0.035,0.00,0.0184,2.5005,5.7103,0.0174,2025-06-06T10:57:00.132642
1002,-0.7779,0.4826,0.4016,0.595,-3.500,-0.210,1.00,0.0368,2.4701,5.7590,0.0087,2025-06-06T10:57:00.132642
1003,-0.7818,0.4807,0.4006,0.385,-3.850,-0.035,10.00,0.0184,2.4397,5.6619,0.0174,2025-06-06T10:57:00.132642
1004,-0.7828,0.4807,0.4036,0.525,-4.130,-0.070,2.00,0.0368,2.4397,5.4713,0.0087,2025-06-06T10:57:00.132642
1005,-0.7813,0.4826,0.4006,0.525,-3.640,-0.070,3.00,0.0000,2.3792,5.3545,0.0087,2025-06-06T10:57:00.132642
1006,-0.7818,0.4826,0.4011,0.245,-3.710,0.000,0.00,0.0184,2.3792,5.1711,0.0087,2025-06-06T10:57:00.132642
1007,-0.7803,0.4831,0.3992,0.105,-3.535,-0.035,0.00,0.0184,2.3792,4.9921,0.0087,2025-06-06T10:57:00.132642
1008,-0.7774,0.4821,0.4016,0.385,-4.270,0.000,3.00,0.0368,2.3189,4.9700,0.0174,2025-06-06T10:57:00.132642
1009,-0.7823,0.4836,0.4021,0.000,-4.270,-0.035,0.00,0.0184,2.1693,4.8822,0.0000,2025-06-06T10:57:00.132642
1010,-0.7828,0.4812,0.4046,0.630,-3.990,0.035,0.00,0.0184,2.1693,4.7955,0.0087,2025-06-06T10:57:00.132642
1011,-0.7803,0.4807,0.4026,0.175,-3.465,-0.070,0.00,0.0368,2.1396,4.7098,0.0087,2025-06-06T10:57:00.132642
1012,-0.7798,0.4812,0.4006,0.490,-3.360,-0.035,3.00,0.0368,2.1396,4.7311,0.0000,2025-06-06T10:57:00.232420
1013,-0.7803,0.4802,0.4011,0.525,-3.885,-0.105,2.00,0.0184,2.1991,4.7311,0.0087,2025-06-06T10:57:00.232420
1014,-0.7823,0.4802,0.4006,0.490,-4.130,-0.105,0.00,0.0184,2.1991,4.7955,0.0262,2025-06-06T10:57:00.232420
1015,-0.7803,0.4831,0.4002,0.455,-4.025,-0.105,1.00,0.0184,2.1396,4.6885,0.0087,2025-06-06T10:57:00.232420
1016,-0.7837,0.4836,0.4002,0.385,-3.500,0.000,2.00,0.0368,2.1396,4.6673,0.0087,2025-06-06T10:57:00.232420
1017,-0.7798,0.4807,0.4026,0.385,-3.605,-0.105,1.00,0.0184,2.1100,4.6885,0.0087,2025-06-06T10:57:00.232420
1018,-0.7788,0.4802,0.3977,0.315,-3.815,-0.035,1.00,0.0184,2.1396,4.6885,0.0000,2025-06-06T10:57:00.232420
1019,-0.7813,0.4797,0.4021,0.595,-4.130,0.000,7.00,0.0184,2.1396,4.7311,0.0087,2025-06-06T10:57:00.232420
1020,-0.7798,0.4817,0.3992,0.210,-3.955,0.000,5.00,0.0184,2.1693,4.7955,0.0087,2025-06-06T10:57:00.339983
1021,-0.7832,0.4826,0.4041,0.350,-3.885,0.035,4.00,0.0368,2.1991,4.7740,0.0174,2025-06-06T10:57:00.339983
1022,-0.7793,0.4821,0.3992,0.105,-3.570,-0.035,0.00,0.0184,2.1991,4.6885,0.0087,2025-06-06T10:57:00.339983
1023,-0.7818,0.4846,0.4016,0.420,-3.885,0.000,4.00,0.0368,2.1396,4.6885,0.0174,2025-06-06T10:57:00.339983
1024,-0.7813,0.4812,0.3992,0.455,-4.025,0.000,3.00,0.0184,2.1100,4.6250,0.0087,2025-06-06T10:57:00.339983
1025,-0.7823,0.4817,0.4021,0.490,-4.025,-0.035,0.00,0.0368,2.0508,4.5830,0.0087,2025-06-06T10:57:00.339983
1026,-0.7818,0.4817,0.4021,0.385,-3.815,-0.070,0.00,0.0184,2.0508,4.5412,0.0087,2025-06-06T10:57:00.339983
1027,-0.7808,0.4807,0.3997,0.420,-3.640,-0.035,2.00,0.0368,2.0213,4.4997,0.0087,2025-06-06T10:57:00.436103
1028,-0.7798,0.4831,0.4002,0.350,-3.850,0.035,0.00,0.0184,2.0213,4.4378,0.0087,2025-06-06T10:57:00.436103
1029,-0.7813,0.4802,0.3992,0.420,-3.885,0.035,3.00,0.0184,1.9626,4.4378,0.0087,2025-06-06T10:57:00.436103
1030,-0.7813,0.4836,0.4006,0.350,-3.850,0.000,2.00,0.0184,2.0213,4.4173,0.0087,2025-06-06T10:57:00.436103
1031,-0.7818,0.4831,0.4011,0.525,-3.850,-0.105,1.00,0.0368,1.9333,4.3969,0.0087,2025-06-06T10:57:00.436103
1032,-0.7813,0.4778,0.3992,0.280,-3.955,0.035,3.00,0.0184,1.8749,4.3156,0.0087,2025-06-06T10:57:00.436103
1033,-0.7813,0.4841,0.4026,0.280,-3.920,0.070,2.00,0.0184,1.8458,4.3561,0.0087,2025-06-06T10:57:00.436103
1034,-0.7798,0.4802,0.4006,0.280,-3.815,0.000,2.00,0.0368,1.8458,4.1954,0.0087,2025-06-06T10:57:00.436103
1035,-0.7823,0.4836,0.3987,0.175,-3.710,-0.035,1.00,0.0368,1.7588,4.0968,0.0087,2025-06-06T10:57:00.569794
1036,-0.7803,0.4831,0.4011,0.455,-3.990,-0.070,3.00,0.0368,1.7300,4.0772,0.0174,2025-06-06T10:57:00.569794
1037,-0.7798,0.4821,0.3972,0.245,-3.955,-0.035,2.00,0.0368,1.7012,4.0772,0.0087,2025-06-06T10:57:00.569794
1038,-0.7818,0.4836,0.4021,0.490,-4.060,-0.105,0.00,0.0368,1.7012,4.0577,0.0087,2025-06-06T10:57:00.569794
1039,-0.7818,0.4812,0.4011,0.280,-3.850,-0.035,4.00,0.0368,1.7012,4.0382,0.0087,2025-06-06T10:57:00.569794
1040,-0.7818,0.4812,0.3972,0.315,-3.570,-0.105,2.00,0.0368,1.6724,4.0382,0.0087,2025-06-06T10:57:00.569794
1041,-0.7828,0.4807,0.4002,0.525,-3.675,-0.105,2.00,0.0368,1.6437,4.0577,0.0087,2025-06-06T10:57:00.569794
1042,-0.7818,0.4802,0.3992,0.420,-4.130,-0.105,4.00,0.0368,1.7012,4.0382,0.0087,2025-06-06T10:57:00.569794
1043,-0.7798,0.4846,0.4050,0.280,-4.200,-0.070,0.00,0.0368,1.6724,4.0968,0.0087,2025-06-06T10:57:00.569794
1044,-0.7808,0.4797,0.4016,0.315,-3.920,0.035,1.00,0.0368,1.6724,4.0968,0.0087,2025-06-06T10:57:00.569794
1045,-0.7823,0.4836,0.3963,0.420,-3.570,-0.035,2.00,0.0184,1.6724,4.1756,0.0087,2025-06-06T10:57:00.751364
1046,-0.7803,0.4812,0.3982,0.350,-3.745,0.000,0.00,0.0184,1.7012,4.1954,0.0000,2025-06-06T10:57:00.751364
1047,-0.7823,0.4812,0.3972,0.105,-4.340,0.035,1.00,0.0184,1.6724,4.1558,0.0174,2025-06-06T10:57:00.751364
1048,-0.7808,0.4826,0.4041,0.630,-4.270,-0.035,1.00,0.0184,1.6724,4.1954,0.0087,2025-06-06T10:57:00.751364
1049,-0.7832,0.4817,0.4021,0.350,-3.920,-0.035,0.00,0.0368,1.6437,4.1756,0.0087,2025-06-06T10:57:00.751364
1050,-0.7808,0.4826,0.3992,0.420,-3.780,-0.035,1.00,0.0184,1.7300,4.3156,0.0087,2025-06-06T10:57:00.751364
1051,-0.7818,0.4812,0.3987,0.245,-3.465,-0.070,2.00,0.0184,1.7012,4.3156,0.0000,2025-06-06T10:57:00.751364
1052,-0.7808,0.4817,0.3992,0.385,-4.095,-0.035,0.00,0.0184,1.7012,4.2954,0.0087,2025-06-06T10:57:00.751364
1053,-0.7828,0.4841,0.4011,0.420,-4.130,-0.035,0.00,0.0000,1.7012,4.3156,0.0087,2025-06-06T10:57:00.751364
1054,-0.7837,0.4812,0.4016,0.525,-4.200,-0.105,2.00,0.0184,1.7300,4.3969,0.0087,2025-06-06T10:57:00.751364
1055,-0.7818,0.4826,0.3972,0.315,-3.570,-0.035,2.00,0.0184,1.7300,4.4173,0.0174,2025-06-06T10:57:00.751364
1056,-0.7823,0.4831,0.4002,0.105,-3.605,-0.105,1.00,0.0184,1.7588,4.4173,0.0087,2025-06-06T10:57:00.751364
1057,-0.7823,0.4821,0.4002,0.525,-3.885,-0.035,1.00,0.0184,1.8167,4.3561,0.0087,2025-06-06T10:57:00.751364
1058,-0.7828,0.4807,0.3997,0.210,-4.060,-0.105,0.00,0.0184,1.8167,4.3969,0.0174,2025-06-06T10:57:00.955621
1059,-0.7823,0.4802,0.4002,0.525,-4.130,0.000,4.00,0.0184,1.8458,4.3561,0.0087,2025-06-06T10:57:00.955621
1060,-0.7832,0.4821,0.4006,0.210,-3.745,-0.070,1.00,0.0184,1.7877,4.3969,0.0087,2025-06-06T10:57:00.955621
1061,-0.7808,0.4817,0.3987,0.315,-3.780,0.035,2.00,0.0368,1.8167,4.3561,0.0087,2025-06-06T10:57:00.955621
1062,-0.7837,0.4821,0.4006,0.385,-3.885,0.000,1.00,0.0368,1.8167,4.3765,0.0087,2025-06-06T10:57:00.955621
1063,-0.7818,0.4821,0.3987,0.385,-3.990,-0.070,2.00,0.0368,1.8167,4.3358,0.0087,2025-06-06T10:57:00.955621
1064,-0.7818,0.4821,0.4002,0.385,-3.955,-0.035,0.00,0.0184,1.7588,4.3969,0.0087,2025-06-06T10:57:00.955621
1065,-0.7813,0.4821,0.3987,0.210,-3.920,-0.175,1.00,0.0368,1.7877,4.4173,0.0174,2025-06-06T10:57:00.955621
1066,-0.7793,0.4831,0.3972,0.350,-3.815,-0.035,5.00,0.0368,1.7588,4.4584,0.0087,2025-06-06T10:57:00.955621
1067,-0.7832,0.4831,0.4031,0.315,-3.990,-0.140,1.00,0.0184,1.7877,4.4584,0.0087,2025-06-06T10:57:00.955621
1068,-0.7813,0.4817,0.3972,0.350,-3.920,0.000,0.00,0.0368,1.7877,4.4378,0.0087,2025-06-06T10:57:00.955621
1069,-0.7842,0.4836,0.4002,0.385,-3.815,0.000,3.00,0.0368,1.8167,4.3765,0.0174,2025-06-06T10:57:00.955621
1070,-0.7803,0.4826,0.3992,0.315,-3.955,-0.175,0.00,0.0368,1.7588,4.3358,0.0087,2025-06-06T10:57:00.955621
1071,-0.7803,0.4821,0.3997,0.455,-3.955,0.070,2.00,0.0184,1.7300,4.3358,0.0087,2025-06-06T10:57:00.955621
1072,-0.7828,0.4817,0.4002,0.245,-4.095,-0.035,3.00,0.0368,1.7588,4.2753,0.0087,2025-06-06T10:57:00.955621
1073,-0.7818,0.4821,0.3982,0.280,-3.850,0.000,0.00,0.0184,1.7588,4.2753,0.0087,2025-06-06T10:57:01.200833
1074,-0.7818,0.4836,0.4011,0.350,-3.640,-0.070,1.00,0.0184,1.7012,4.1954,0.0087,2025-06-06T10:57:01.200833
1075,-0.7813,0.4812,0.3967,0.350,-3.920,-0.070,2.00,0.0184,1.7300,4.2353,0.0087,2025-06-06T10:57:01.200833
1076,-0.7813,0.4841,0.3992,0.210,-3.990,0.000,0.00,0.0368,1.6724,4.2153,0.0087,2025-06-06T10:57:01.200833
1077,-0.7828,0.4812,0.3992,0.455,-4.235,-0.105,1.00,0.0184,1.6724,4.1361,0.0087,2025-06-06T10:57:01.200833
1078,-0.7828,0.4831,0.3997,0.315,-3.815,-0.070,1.00,0.0184,1.6724,4.1756,0.0174,2025-06-06T10:57:01.200833
1079,-0.7828,0.4812,0.3963,0.350,-3.675,-0.070,0.00,0.0184,1.6724,4.2153,0.0000,2025-06-06T10:57:01.200833
1080,-0.7803,0.4826,0.3963,0.245,-3.815,-0.105,1.00,0.0184,1.7012,4.1558,0.0087,2025-06-06T10:57:01.200833
1081,-0.7837,0.4812,0.4011,0.350,-3.955,-0.035,3.00,0.0184,1.6724,4.1361,0.0174,2025-06-06T10:57:01.200833
1082,-0.7842,0.4807,0.3997,0.525,-4.270,-0.070,3.00,0.0184,1.7012,4.0968,0.0087,2025-06-06T10:57:01.200833
1083,-0.7813,0.4831,0.3992,0.105,-3.885,-0.070,0.00,0.0184,1.6724,4.0577,0.0000,2025-06-06T10:57:01.200833
1084,-0.7813,0.4836,0.3963,0.280,-3.640,-0.070,1.00,0.0368,1.6724,3.9802,0.0174,2025-06-06T10:57:01.200833
1085,-0.7813,0.4807,0.3967,0.210,-3.745,-0.035,2.00,0.0368,1.6437,3.9417,0.0174,2025-06-06T10:57:01.200833
1086,-0.7823,0.4812,0.3967,0.280,-4.235,0.000,2.00,0.0368,1.6437,3.8844,0.0174,2025-06-06T10:57:01.200833
1087,-0.7823,0.4841,0.3997,0.455,-4.375,-0.070,0.00,0.0184,1.6151,3.7900,0.0087,2025-06-06T10:57:01.200833
1088,-0.7823,0.4812,0.3987,0.245,-3.955,-0.105,3.00,0.0368,1.5012,3.6968,0.0174,2025-06-06T10:57:01.200833
1089,-0.7832,0.4836,0.3992,0.315,-3.605,-0.070,0.00,0.0368,1.4729,3.5866,0.0087,2025-06-06T10:57:01.200833
1090,-0.7808,0.4817,0.3963,0.280,-3.640,0.000,0.00,0.0184,1.4446,3.4068,0.0174,2025-06-06T10:57:01.420966
1091,-0.7808,0.4831,0.3972,0.245,-3.990,-0.035,5.00,0.0368,1.3601,3.2489,0.0087,2025-06-06T10:57:01.420966
1092,-0.7803,0.4856,0.3982,0.420,-4.340,-0.105,0.00,0.0184,1.2205,3.1286,0.0087,2025-06-06T10:57:01.420966
1093,-0.7837,0.4821,0.3982,0.315,-4.060,-0.070,1.00,0.0368,1.1374,2.9273,0.0174,2025-06-06T10:57:01.420966
1094,-0.7823,0.4860,0.3977,0.350,-3.675,0.000,0.00,0.0368,1.0000,2.7160,0.0174,2025-06-06T10:57:01.420966
1095,-0.7823,0.4807,0.3972,0.210,-3.710,-0.035,1.00,0.0184,0.8370,2.5580,0.0087,2025-06-06T10:57:01.420966
1096,-0.7823,0.4841,0.3963,0.315,-3.850,-0.070,4.00,0.0368,0.8370,2.4191,0.0087,2025-06-06T10:57:01.420966
1097,-0.7837,0.4826,0.3982,0.350,-4.200,-0.105,0.00,0.0368,0.6228,2.3281,0.0087,2025-06-06T10:57:01.420966
1098,-0.7823,0.4802,0.3963,0.245,-4.095,0.000,0.00,0.0184,0.6228,2.1648,0.0087,2025-06-06T10:57:01.420966
1099,-0.7813,0.4836,0.3992,0.350,-3.920,-0.070,5.00,0.0184,0.5962,2.0774,0.0087,2025-06-06T10:57:01.420966
1100,-0.7828,0.4817,0.3972,0.210,-3.920,-0.070,2.00,0.0184,0.5433,1.8644,0.0087,2025-06-06T10:57:01.420966
1101,-0.7818,0.4831,0.3977,0.210,-3.885,-0.175,1.00,0.0184,0.4381,1.5783,0.0174,2025-06-06T10:57:01.588582
1102,-0.7808,0.4826,0.3982,0.315,-3.955,-0.140,1.00,0.0368,0.4381,1.0936,0.0087,2025-06-06T10:57:01.588582
1103,-0.7832,0.4817,0.3972,0.210,-3.885,-0.140,6.00,0.0184,0.3077,0.7612,0.0087,2025-06-06T10:57:01.588582
1104,-0.7837,0.4841,0.3967,0.350,-4.130,-0.105,0.00,0.0000,0.2818,0.5577,0.0087,2025-06-06T10:57:01.588582
1105,-0.7837,0.4831,0.3963,0.140,-4.060,-0.105,1.00,0.0368,0.2043,0.4479,0.0087,2025-06-06T10:57:01.588582
1106,-0.7803,0.4836,0.3977,0.280,-3.955,-0.035,0.00,0.0368,0.1018,0.3084,0.0087,2025-06-06T10:57:01.588582
1107,-0.7808,0.4826,0.4002,0.420,-3.920,-0.070,1.00,0.0184,0.1018,0.2452,0.0174,2025-06-06T10:57:01.588582
1108,-0.7837,0.4817,0.3963,0.140,-3.395,-0.245,1.00,0.0184,0.0762,0.1725,0.0174,2025-06-06T10:57:01.588582
1109,-0.7832,0.4792,0.3972,0.595,-4.130,0.000,5.00,0.0000,0.0508,0.1212,0.0174,2025-06-06T10:57:01.588582
1110,-0.7784,0.4812,0.3992,0.420,-4.445,0.070,2.00,0.0184,0.1018,0.1109,0.0087,2025-06-06T10:57:01.588582
1111,-0.7852,0.4836,0.4011,-0.105,-4.165,-0.210,3.00,0.0368,0.0762,0.1008,0.0174,2025-06-06T10:57:01.588582
1112,-0.7847,0.4831,0.3972,0.665,-4.025,-0.035,3.00,0.0368,0.0254,0.0804,0.0087,2025-06-06T10:57:01.588582
1113,-0.7837,0.4821,0.3928,-0.140,-3.360,-0.035,1.00,0.0184,0.0508,0.0300,0.0087,2025-06-06T10:57:01.588582
1114,-0.7813,0.4831,0.3928,0.420,-3.850,0.070,3.00,0.0184,0.0508,0.0602,0.0087,2025-06-06T10:57:01.588582
1115,-0.7828,0.4826,0.4002,0.105,-4.095,-0.035,1.00,0.0368,0.0508,0.0401,0.0087,2025-06-06T10:57:01.588582
1116,-0.7842,0.4846,0.3977,-0.175,-4.445,-0.070,0.00,0.0368,0.0254,0.0401,0.0087,2025-06-06T10:57:01.588582
1117,-0.7803,0.4831,0.3977,0.455,-3.920,-0.035,1.00,0.0184,0.0000,0.0100,0.0087,2025-06-06T10:57:01.588582
1118,-0.7828,0.4856,0.3953,0.210,-3.605,0.000,0.00,0.0368,0.0254,0.0401,0.0087,2025-06-06T10:57:01.588582
1119,-0.7823,0.4826,0.3948,0.420,-3.535,0.070,1.00,0.0184,0.0508,0.0300,0.0087,2025-06-06T10:57:01.588582
1120,-0.7813,0.4812,0.3997,0.805,-4.480,-8.925,2.00,0.0368,0.0254,0.0401,0.0174,2025-06-06T10:57:01.830017
1121,-0.7832,0.4807,0.3948,0.000,-4.130,-0.105,0.00,0.0184,0.0254,0.0200,0.0087,2025-06-06T10:57:01.830017
1122,-0.7837,0.4831,0.3997,0.945,-3.920,-0.035,1.00,0.0184,0.0254,0.0401,0.0087,2025-06-06T10:57:01.830017
1123,-0.7818,0.4846,0.3943,-0.280,-3.500,-0.070,2.00,0.0184,0.0762,0.0000,0.0087,2025-06-06T10:57:01.830017
1124,-0.7837,0.4841,0.3958,0.280,-3.710,-0.070,5.00,0.0184,0.0254,0.0200,0.0262,2025-06-06T10:57:01.830017
1125,-0.7832,0.4802,0.3977,0.350,-4.165,0.000,2.00,0.0184,0.0762,0.0100,0.0174,2025-06-06T10:57:01.830017
1126,-0.7823,0.4817,0.3958,0.350,-4.235,0.000,2.00,0.0184,0.0254,0.0000,0.0087,2025-06-06T10:57:01.830017
1127,-0.7837,0.4860,0.3987,0.420,-4.095,0.000,0.00,0.0184,0.0508,0.0300,0.0087,2025-06-06T10:57:01.830017
