SeqNum,AccX,AccY,AccZ,GyroX,GyroY,GyroZ,Flex,Force1,Force2,Force3,Force4,TimestampReception
1,-0.4143,-0.2020,0.9862,11.340,35.630,-72.310,0.97,0.0368,0.1273,0.0602,0.0174,2025-06-11T08:56:08.198677
2,-0.5388,-0.0859,0.9775,17.255,4.935,-77.315,0.97,0.0368,0.1529,0.0804,0.0174,2025-06-11T08:56:08.198677
3,-0.4431,-0.0791,0.9955,17.185,-8.925,-80.360,0.97,0.0368,0.1273,0.0703,0.0087,2025-06-11T08:56:08.198677
4,-0.3948,-0.0834,1.0326,18.620,-13.475,-82.040,0.97,0.0368,0.1273,0.0501,0.0087,2025-06-11T08:56:08.198677
5,-0.3802,-0.1015,1.0829,16.975,-18.375,-78.715,0.97,0.0368,0.1273,0.0602,0.0174,2025-06-11T08:56:08.343758
6,-0.3748,-0.1171,1.0111,14.595,-19.355,-78.435,0.97,0.0368,0.1273,0.0501,0.0087,2025-06-11T08:56:08.343758
7,-0.3362,-0.1347,0.9638,12.425,-7.665,-80.675,0.97,0.0368,0.1529,0.0602,0.0087,2025-06-11T08:56:08.343758
8,-0.4055,-0.1025,0.9628,10.500,-3.745,-79.030,0.97,0.0368,0.1529,0.0602,0.0087,2025-06-11T08:56:08.343758
9,-0.3660,-0.1181,1.0126,14.420,8.540,-77.770,0.97,0.0368,0.1529,0.0602,0.0174,2025-06-11T08:56:08.343758
10,-0.3572,-0.1200,0.9965,17.080,15.365,-76.825,0.97,0.0184,0.1529,0.0703,0.0174,2025-06-11T08:56:08.343758
11,-0.3870,-0.1147,0.9677,20.545,19.775,-76.475,0.97,0.0368,0.1529,0.0703,0.0087,2025-06-11T08:56:08.343758
12,-0.4021,-0.1025,0.9492,24.080,22.855,-75.390,0.97,0.0368,0.1529,0.0602,0.0087,2025-06-11T08:56:08.343758
13,-0.3997,-0.0820,0.9575,26.180,25.620,-73.115,0.97,0.0368,0.1273,0.0602,0.0087,2025-06-11T08:56:08.344830
14,-0.4046,-0.0630,0.9496,25.795,29.995,-70.700,0.97,0.0368,0.1529,0.0703,0.0087,2025-06-11T08:56:08.344830
15,-0.4377,-0.0473,0.9028,24.430,32.130,-67.725,0.97,0.0368,0.1273,0.0602,0.0174,2025-06-11T08:56:08.344830
16,-0.4817,-0.0415,0.8852,22.680,30.520,-64.120,0.97,0.0368,0.1273,0.0703,0.0174,2025-06-11T08:56:08.648229
17,-0.4904,-0.0342,0.8989,22.120,26.600,-59.185,0.97,0.0368,0.1529,0.0501,0.0087,2025-06-11T08:56:08.648229
18,-0.5139,-0.0307,0.8955,21.595,20.510,-55.755,0.97,0.0184,0.1529,0.0501,0.0174,2025-06-11T08:56:08.648229
19,-0.5183,-0.0249,0.8872,20.685,15.575,-53.305,0.97,0.0184,0.1273,0.0501,0.0087,2025-06-11T08:56:08.648229
20,-0.5022,-0.0215,0.8838,19.670,11.795,-51.835,0.97,0.0368,0.1273,0.0501,0.0087,2025-06-11T08:56:08.648229
21,-0.4743,-0.0268,0.8872,17.395,13.160,-50.610,0.97,0.0368,0.1273,0.0501,0.0087,2025-06-11T08:56:08.648229
22,-0.4738,-0.0215,0.8623,15.785,18.060,-48.440,0.97,0.0368,0.1273,0.0501,0.0087,2025-06-11T08:56:08.648229
23,-0.4514,-0.0239,0.8438,13.965,23.905,-46.305,0.97,0.0368,0.1273,0.0501,0.0087,2025-06-11T08:56:08.648229
24,-0.4255,-0.0522,0.8647,14.140,32.830,-41.615,0.96,0.0552,0.1273,0.0703,0.0087,2025-06-11T08:56:08.648229
25,-0.4929,-0.0664,0.8613,14.140,40.565,-36.995,0.97,0.0184,0.1273,0.0501,0.0087,2025-06-11T08:56:08.648229
26,-0.6163,-0.0927,0.8594,15.120,34.895,-34.020,0.97,0.0368,0.1273,0.0602,0.0174,2025-06-11T08:56:08.649224
27,-0.6564,-0.1069,0.8647,16.695,20.720,-31.885,0.97,0.0184,0.1273,0.0602,0.0087,2025-06-11T08:56:08.649224
28,-0.6422,-0.1147,0.8804,16.765,2.765,-29.925,0.97,0.0368,0.1273,0.0703,0.0174,2025-06-11T08:56:08.649224
29,-0.5754,-0.1108,0.9238,16.485,-7.630,-27.685,0.97,0.0184,0.1529,0.0703,0.0174,2025-06-11T08:56:08.649224
30,-0.5017,-0.1225,0.8926,14.420,-14.175,-23.765,0.97,0.0368,0.1273,0.0703,0.0174,2025-06-11T08:56:08.649224
31,-0.4631,-0.1381,0.8584,15.295,-11.025,-21.770,0.97,0.0552,0.1273,0.0501,0.0174,2025-06-11T08:56:08.753123
32,-0.4211,-0.1264,0.9418,16.730,-0.455,-19.565,0.97,0.0368,0.1273,0.0501,0.0174,2025-06-11T08:56:08.753123
33,-0.4612,-0.1430,0.9648,17.185,3.780,-18.585,0.97,0.0368,0.1529,0.0501,0.0174,2025-06-11T08:56:08.753123
34,-0.4963,-0.1698,0.9467,20.195,5.530,-19.390,0.97,0.0552,0.1273,0.0602,0.0087,2025-06-11T08:56:08.753123
35,-0.4895,-0.1703,0.9653,22.365,5.320,-20.090,0.97,0.0368,0.1529,0.0401,0.0000,2025-06-11T08:56:08.753123
36,-0.5139,-0.1923,0.9711,23.450,4.865,-20.545,0.97,0.0368,0.1273,0.0501,0.0087,2025-06-11T08:56:08.753123
37,-0.5363,-0.2186,0.9711,22.715,4.445,-21.105,0.96,0.0184,0.1273,0.0401,0.0174,2025-06-11T08:56:08.753123
38,-0.5129,-0.2508,0.9423,22.120,6.230,-22.050,0.97,0.0368,0.1018,0.0401,0.0087,2025-06-11T08:56:08.754115
39,-0.5158,-0.2503,0.9501,21.490,12.110,-21.805,0.96,0.0184,0.1273,0.0501,0.0174,2025-06-11T08:56:08.754115
40,-0.5583,-0.2508,0.9179,17.990,17.780,-21.420,0.96,0.0368,0.1018,0.0401,0.0174,2025-06-11T08:56:08.754115
41,-0.6310,-0.2352,0.8867,14.910,14.315,-22.540,0.97,0.0368,0.1018,0.0602,0.0087,2025-06-11T08:56:08.754115
42,-0.6344,-0.2113,0.8979,9.555,7.875,-22.890,0.96,0.0184,0.1273,0.0501,0.0087,2025-06-11T08:56:08.754115
43,-0.5778,-0.2069,0.9472,4.865,4.130,-21.735,0.96,0.0184,0.1018,0.0401,0.0087,2025-06-11T08:56:08.754115
44,-0.6002,-0.2050,1.0033,-1.995,-0.105,-20.440,0.96,0.0368,0.1018,0.0300,0.0087,2025-06-11T08:56:08.754115
45,-0.6046,-0.2133,1.0121,-8.890,-7.770,-20.090,0.96,0.0368,0.1273,0.0602,0.0087,2025-06-11T08:56:08.754115
46,-0.5402,-0.2269,0.9936,-15.295,-8.610,-20.440,0.96,0.0184,0.1273,0.0401,0.0174,2025-06-11T08:56:09.238010
47,-0.5744,-0.2664,0.9736,-22.715,-10.570,-19.495,0.96,0.0368,0.1273,0.0501,0.0174,2025-06-11T08:56:09.238010
48,-0.5597,-0.2952,0.9726,-26.425,-16.800,-14.945,0.96,0.0368,0.1273,0.0401,0.0174,2025-06-11T08:56:09.238010
49,-0.5705,-0.2982,0.9721,-27.510,-26.530,-10.080,0.96,0.0184,0.1529,0.0501,0.0087,2025-06-11T08:56:09.238010
50,-0.5441,-0.3084,0.9804,-28.210,-31.570,-2.205,0.96,0.0368,0.1273,0.0401,0.0087,2025-06-11T08:56:09.238010
51,-0.5929,-0.3226,0.9902,-24.990,-38.710,3.500,0.96,0.0184,0.1273,0.0401,0.0087,2025-06-11T08:56:09.238010
52,-0.5846,-0.3113,0.9848,-21.490,-49.350,9.135,0.96,0.0368,0.1273,0.0501,0.0087,2025-06-11T08:56:09.238010
53,-0.5266,-0.2913,0.9414,-18.760,-51.135,13.685,0.96,0.0368,0.1273,0.0401,0.0087,2025-06-11T08:56:09.239373
54,-0.5241,-0.2869,0.8921,-17.780,-47.565,17.430,0.96,0.0184,0.1273,0.0401,0.0174,2025-06-11T08:56:09.239373
55,-0.5197,-0.2855,0.8550,-15.470,-44.030,18.900,0.96,0.0368,0.1018,0.0501,0.0174,2025-06-11T08:56:09.239373
56,-0.4534,-0.2757,0.8291,-12.705,-37.625,18.935,0.96,0.0368,0.1273,0.0501,0.0174,2025-06-11T08:56:09.239373
57,-0.3997,-0.2747,0.7862,-9.240,-21.070,18.410,0.96,0.0368,0.1273,0.0703,0.0087,2025-06-11T08:56:09.239373
58,-0.4026,-0.2611,0.8057,-5.495,-5.180,15.575,0.96,0.0368,0.1529,0.0602,0.0087,2025-06-11T08:56:09.239373
59,-0.4158,-0.2567,0.8111,-0.910,14.910,10.990,0.96,0.0368,0.1273,0.0501,0.0087,2025-06-11T08:56:09.239373
60,-0.4758,-0.2616,0.8018,1.015,28.420,6.160,0.96,0.0368,0.1529,0.0602,0.0087,2025-06-11T08:56:09.240018
61,-0.5588,-0.2591,0.8013,4.620,36.190,1.120,0.96,0.0368,0.1273,0.0501,0.0087,2025-06-11T08:56:09.240018
62,-0.5695,-0.2621,0.8252,5.460,38.640,-1.085,0.96,0.0368,0.1529,0.0401,0.0087,2025-06-11T08:56:09.240018
63,-0.5915,-0.2704,0.8413,6.580,41.195,-0.560,0.96,0.0368,0.1529,0.0401,0.0174,2025-06-11T08:56:09.240018
64,-0.6188,-0.2962,0.8359,7.735,38.010,1.925,0.96,0.0368,0.1273,0.0401,0.0087,2025-06-11T08:56:09.240018
65,-0.6198,-0.3333,0.8125,12.670,30.205,4.060,0.96,0.0368,0.1529,0.0501,0.0174,2025-06-11T08:56:09.240018
66,-0.4231,-0.3128,0.8306,15.820,39.270,5.250,0.96,0.0552,0.1273,0.0401,0.0087,2025-06-11T08:56:09.240018
67,-0.5319,-0.2982,0.8540,22.225,47.390,5.285,0.96,0.0368,0.1529,0.0401,0.0174,2025-06-11T08:56:09.240018
68,-0.5597,-0.3079,0.7906,22.610,43.785,7.700,0.96,0.0368,0.1273,0.0501,0.0174,2025-06-11T08:56:09.240018
69,-0.6124,-0.2796,0.8477,27.930,25.690,8.050,0.96,0.0552,0.1273,0.0501,0.0087,2025-06-11T08:56:09.240018
70,-0.5924,-0.2518,0.8389,29.435,11.095,7.910,0.96,0.0368,0.1018,0.0401,0.0087,2025-06-11T08:56:09.240018
71,-0.5641,-0.2474,0.8140,28.700,-8.820,8.470,0.96,0.0184,0.1273,0.0401,0.0174,2025-06-11T08:56:09.240018
72,-0.5436,-0.2167,0.6359,25.935,-12.320,9.100,0.96,0.0368,0.1273,0.0401,0.0087,2025-06-11T08:56:09.240018
73,-0.5148,-0.1981,0.7418,24.500,-17.710,8.645,0.96,0.0368,0.1018,0.0501,0.0087,2025-06-11T08:56:09.240018
74,-0.4631,-0.1835,0.7564,19.320,-17.010,7.420,0.96,0.0368,0.1273,0.0300,0.0087,2025-06-11T08:56:09.240018
75,-0.4543,-0.1547,0.7413,14.350,-16.100,4.410,0.96,0.0368,0.1273,0.0501,0.0087,2025-06-11T08:56:09.240018
76,-0.4504,-0.1513,0.7052,8.015,-11.480,0.945,0.96,0.0368,0.0762,0.0401,0.0174,2025-06-11T08:56:09.240018
77,-0.4895,-0.1420,0.7193,3.360,-7.035,-2.100,0.96,0.0368,0.1018,0.0602,0.0087,2025-06-11T08:56:09.240018
78,-0.5417,-0.1669,0.7198,-2.065,-11.375,-3.885,0.96,0.0368,0.1273,0.0703,0.0087,2025-06-11T08:56:09.240018
79,-0.5900,-0.1508,0.6852,-8.015,-25.830,-5.215,0.96,0.0184,0.1018,0.0602,0.0087,2025-06-11T08:56:09.241015
80,-0.5256,-0.1586,0.6461,-12.180,-33.495,-5.565,0.96,0.0184,0.1018,0.0602,0.0087,2025-06-11T08:56:09.241015
81,-0.6183,-0.1264,0.6690,-14.560,-51.100,-3.570,0.96,0.0184,0.1018,0.0501,0.0087,2025-06-11T08:56:09.243943
82,-0.4543,-0.1293,0.6666,-18.165,-47.145,-2.555,0.96,0.0368,0.1018,0.0602,0.0087,2025-06-11T08:56:09.392253
83,-0.4202,-0.1010,0.6886,-23.345,-40.775,-2.485,0.96,0.0368,0.1018,0.0401,0.0174,2025-06-11T08:56:09.392253
84,-0.4343,-0.0795,0.7364,-24.500,-29.750,-4.865,0.96,0.0368,0.1018,0.0602,0.0174,2025-06-11T08:56:09.392253
85,-0.4714,-0.0810,0.7876,-26.670,-25.340,-8.295,0.97,0.0552,0.1018,0.0602,0.0087,2025-06-11T08:56:09.392253
86,-0.5202,-0.0859,0.8511,-24.045,-27.860,-11.445,0.97,0.0184,0.1018,0.0401,0.0087,2025-06-11T08:56:09.392253
87,-0.5534,-0.1035,0.8730,-22.855,-37.625,-14.000,0.96,0.0368,0.1018,0.0401,0.0087,2025-06-11T08:56:09.392253
88,-0.5607,-0.1122,0.8696,-19.845,-48.370,-16.695,0.97,0.0368,0.0762,0.0501,0.0087,2025-06-11T08:56:09.392253
89,-0.4665,-0.0991,0.8955,-18.900,-53.830,-16.555,0.96,0.0184,0.0762,0.0602,0.0087,2025-06-11T08:56:09.392253
90,-0.3787,-0.0752,0.8769,-25.410,-42.875,-14.840,0.96,0.0184,0.0762,0.0602,0.0087,2025-06-11T08:56:09.392975
91,-0.3855,-0.1171,0.8769,-26.355,-34.230,-13.615,0.96,0.0368,0.0762,0.0602,0.0087,2025-06-11T08:56:09.392975
92,-0.4158,-0.1401,0.9062,-31.290,-21.805,-10.535,0.96,0.0184,0.0762,0.0602,0.0087,2025-06-11T08:56:09.392975
93,-0.4860,-0.1728,0.9126,-31.745,-21.000,-7.210,0.97,0.0368,0.1018,0.0401,0.0174,2025-06-11T08:56:09.445398
94,-0.4568,-0.1962,0.9301,-33.495,-19.985,-4.375,0.97,0.0368,0.1018,0.0401,0.0174,2025-06-11T08:56:09.445398
95,-0.5290,-0.2513,0.8823,-36.190,-24.325,-4.690,0.97,0.0368,0.0762,0.0602,0.0087,2025-06-11T08:56:09.445398
96,-0.6124,-0.3050,0.7984,-32.305,-40.425,-14.770,0.97,0.0368,0.1018,0.0401,0.0087,2025-06-11T08:56:09.445398
97,-0.4446,-0.2489,1.1073,-12.845,-68.005,-25.445,0.97,0.0552,0.0762,0.0501,0.0087,2025-06-11T08:56:09.572313
98,-0.2181,-0.2157,1.3010,-13.265,-65.870,-27.965,0.96,0.0368,0.1018,0.0401,0.0087,2025-06-11T08:56:09.572313
99,-0.2011,-0.2830,1.2493,-11.620,-48.335,-35.035,0.96,0.0368,0.1018,0.0401,0.0174,2025-06-11T08:56:09.572313
100,-0.2791,-0.2948,1.2444,-10.710,-35.175,-40.075,0.96,0.0368,0.1273,0.0401,0.0087,2025-06-11T08:56:09.572313
101,-0.4846,-0.3113,1.1292,-17.885,-35.665,-40.810,0.96,0.0368,0.0762,0.0300,0.0087,2025-06-11T08:56:09.572313
102,-0.3372,-0.3382,1.0531,-25.165,-45.605,-37.800,0.96,0.0368,0.1018,0.0300,0.0087,2025-06-11T08:56:09.572313
103,-0.2806,-0.3655,0.9853,-32.690,-46.865,-33.530,0.96,0.0368,0.1018,0.0401,0.0087,2025-06-11T08:56:09.572313
104,-0.2943,-0.4055,1.0009,-39.690,-41.405,-32.340,0.96,0.0552,0.1018,0.0200,0.0174,2025-06-11T08:56:09.572313
105,-0.3211,-0.4846,1.0277,-44.870,-41.510,-35.945,0.96,0.0184,0.1018,0.0300,0.0000,2025-06-11T08:56:09.572313
106,-0.3016,-0.4909,1.0512,-45.290,-48.860,-42.490,0.96,0.0368,0.1273,0.0401,0.0174,2025-06-11T08:56:09.879886
107,-0.1801,-0.5275,1.0121,-47.845,-51.870,-47.915,0.96,0.0552,0.1273,0.0501,0.0087,2025-06-11T08:56:09.879886
108,-0.0522,-0.5895,1.0019,-47.110,-39.130,-52.675,0.96,0.0368,0.1018,0.0401,0.0174,2025-06-11T08:56:09.879886
109,0.0015,-0.6310,0.9614,-42.700,-21.280,-55.125,0.96,0.0368,0.0762,0.0401,0.0087,2025-06-11T08:56:09.879886
110,-0.0264,-0.6886,0.9096,-39.830,-2.730,-57.785,0.96,0.0368,0.1018,0.0300,0.0087,2025-06-11T08:56:09.879886
111,-0.0551,-0.7310,0.8579,-35.735,11.865,-61.215,0.96,0.0368,0.1529,0.0501,0.0087,2025-06-11T08:56:09.879886
112,-0.0386,-0.7608,0.8272,-34.370,25.200,-65.800,0.96,0.0368,0.1273,0.0501,0.0174,2025-06-11T08:56:09.880955
113,-0.1113,-0.7784,0.7837,-29.995,38.325,-68.110,0.96,0.0368,0.1018,0.0401,0.0087,2025-06-11T08:56:09.880955
114,-0.2098,-0.7593,0.7296,-26.110,38.080,-71.085,0.96,0.0368,0.1018,0.0300,0.0087,2025-06-11T08:56:09.880955
115,-0.2313,-0.7374,0.7130,-24.290,31.570,-72.415,0.96,0.0368,0.1273,0.0300,0.0087,2025-06-11T08:56:09.880955
116,-0.2245,-0.7183,0.6915,-22.225,26.355,-72.835,0.96,0.0552,0.1018,0.0401,0.0087,2025-06-11T08:56:09.880955
117,-0.2162,-0.7281,0.6788,-19.600,18.375,-73.290,0.96,0.0368,0.1018,0.0300,0.0087,2025-06-11T08:56:09.880955
118,-0.1000,-0.7174,0.6949,-16.590,20.510,-74.025,0.96,0.0368,0.1273,0.0703,0.0174,2025-06-11T08:56:09.880955
119,0.0220,-0.7139,0.6783,-13.510,41.825,-73.780,0.97,0.0368,0.1018,0.0501,0.0087,2025-06-11T08:56:09.880955
120,0.0210,-0.7091,0.6715,-10.080,61.915,-71.575,0.96,0.0368,0.1018,0.0602,0.0087,2025-06-11T08:56:09.880955
121,-0.0410,-0.7027,0.6383,-7.105,74.970,-67.270,0.97,0.0368,0.1018,0.0602,0.0174,2025-06-11T08:56:10.005229
122,-0.1157,-0.6827,0.5895,-4.270,82.810,-61.635,0.96,0.0368,0.1018,0.0602,0.0087,2025-06-11T08:56:10.005229
123,-0.2274,-0.6559,0.5719,-3.570,81.900,-55.545,0.97,0.0368,0.1018,0.0602,0.0087,2025-06-11T08:56:10.005229
124,-0.2972,-0.6368,0.5968,-5.180,77.210,-52.430,0.97,0.0552,0.1018,0.0602,0.0174,2025-06-11T08:56:10.005229
125,-0.3148,-0.6393,0.6256,-6.405,71.645,-48.125,0.97,0.0368,0.1273,0.0602,0.0174,2025-06-11T08:56:10.005229
126,-0.3470,-0.6349,0.6632,-6.160,66.220,-41.755,0.97,0.0552,0.1018,0.0501,0.0174,2025-06-11T08:56:10.005229
127,-0.3528,-0.6115,0.6837,-7.035,59.395,-34.475,0.97,0.0368,0.1018,0.0501,0.0087,2025-06-11T08:56:10.005229
128,-0.3533,-0.5993,0.6700,-6.405,51.135,-29.645,0.97,0.0552,0.0762,0.0602,0.0087,2025-06-11T08:56:10.005229
129,-0.3699,-0.5641,0.6681,-10.220,43.575,-24.535,0.97,0.0368,0.1018,0.0703,0.0174,2025-06-11T08:56:10.005229
130,-0.3699,-0.5456,0.6817,-16.625,34.720,-21.210,0.97,0.0552,0.1018,0.0602,0.0174,2025-06-11T08:56:10.006294
131,-0.3748,-0.5553,0.6974,-19.635,25.445,-19.005,0.97,0.0552,0.1018,0.0602,0.0174,2025-06-11T08:56:10.006294
132,-0.3323,-0.5451,0.7320,-22.960,13.020,-18.550,0.97,0.0368,0.1018,0.0501,0.0087,2025-06-11T08:56:10.006294
133,-0.2596,-0.5500,0.7144,-22.715,9.065,-19.250,0.97,0.0368,0.1018,0.0602,0.0087,2025-06-11T08:56:10.006294
134,-0.1884,-0.5373,0.6895,-23.170,4.830,-14.560,0.97,0.0368,0.1018,0.0602,0.0087,2025-06-11T08:56:10.006294
135,-0.0322,-0.5290,0.7203,-20.860,16.975,-8.260,0.97,0.0368,0.1018,0.0602,0.0087,2025-06-11T08:56:10.006294
136,-0.1762,-0.5441,0.7344,-21.840,44.905,-7.385,0.97,0.0552,0.1273,0.0602,0.0087,2025-06-11T08:56:10.006294
137,-0.2962,-0.5183,0.7569,-20.580,52.955,-7.105,0.97,0.0552,0.1273,0.0602,0.0087,2025-06-11T08:56:10.579458
138,-0.3958,-0.4948,0.7686,-18.095,46.130,-7.210,0.97,0.0552,0.1018,0.0602,0.0174,2025-06-11T08:56:10.579458
139,-0.4338,-0.4753,0.7652,-16.345,36.785,-7.350,0.97,0.0552,0.1273,0.0602,0.0174,2025-06-11T08:56:10.579458
140,-0.4211,-0.4504,0.7769,-17.325,29.015,-6.755,0.97,0.0552,0.1018,0.0703,0.0174,2025-06-11T08:56:10.579458
141,-0.4021,-0.4485,0.7740,-18.830,25.725,-4.445,0.97,0.0737,0.1018,0.0602,0.0174,2025-06-11T08:56:10.594793
142,-0.4250,-0.4534,0.7925,-21.980,25.900,0.560,0.97,0.0552,0.1273,0.0703,0.0087,2025-06-11T08:56:10.594793
143,-0.4787,-0.4792,0.8164,-22.680,18.200,5.285,0.97,0.0552,0.1273,0.0602,0.0174,2025-06-11T08:56:10.594793
144,-0.5251,-0.5051,0.8311,-21.420,1.435,9.905,0.97,0.0552,0.1273,0.0602,0.0087,2025-06-11T08:56:10.594793
145,-0.5226,-0.5490,0.8023,-21.105,-11.515,11.935,0.97,0.0368,0.1273,0.0602,0.0174,2025-06-11T08:56:10.594793
146,-0.5002,-0.5793,0.7779,-19.880,-22.470,13.825,0.97,0.0368,0.1018,0.0602,0.0174,2025-06-11T08:56:10.594793
147,-0.5275,-0.6193,0.7452,-19.075,-36.295,16.485,0.97,0.0552,0.1018,0.0602,0.0087,2025-06-11T08:56:10.594793
148,-0.5363,-0.6539,0.7364,-18.445,-52.955,19.530,0.97,0.0368,0.1273,0.0602,0.0174,2025-06-11T08:56:10.594793
149,-0.4275,-0.6886,0.7335,-17.885,-65.975,22.295,0.97,0.0368,0.1018,0.0501,0.0087,2025-06-11T08:56:10.594793
150,-0.3821,-0.7462,0.7340,-17.780,-64.680,23.835,0.97,0.0368,0.0762,0.0501,0.0174,2025-06-11T08:56:10.594793
151,-0.3231,-0.7954,0.7793,-19.740,-55.370,26.145,0.97,0.0552,0.1018,0.0602,0.0174,2025-06-11T08:56:10.595786
152,-0.3196,-0.8213,0.8267,-21.105,-44.730,26.670,0.97,0.0552,0.1018,0.0501,0.0174,2025-06-11T08:56:10.595786
153,-0.3055,-0.8467,0.8345,-21.455,-32.410,26.740,0.97,0.0552,0.1018,0.0501,0.0174,2025-06-11T08:56:10.595786
154,-0.3226,-0.8638,0.8369,-19.565,-27.965,27.265,0.97,0.0368,0.0762,0.0602,0.0174,2025-06-11T08:56:10.595786
155,-0.4695,-0.9018,0.8384,-18.655,-39.970,26.005,0.97,0.0368,0.0762,0.0602,0.0174,2025-06-11T08:56:10.595786
156,-0.4041,-0.8496,0.9072,-19.390,-53.375,26.705,0.97,0.0552,0.1018,0.0703,0.0174,2025-06-11T08:56:10.595786
157,-0.4646,-0.7408,0.8535,-24.780,-94.360,33.040,0.97,0.0552,0.1018,0.0602,0.0174,2025-06-11T08:56:10.595786
158,-0.4934,-0.8198,0.6793,-24.010,-112.455,35.070,0.97,0.0552,0.1018,0.0602,0.0174,2025-06-11T08:56:10.595786
159,-0.1537,-0.7969,0.6393,-26.390,-91.560,38.500,0.97,0.0737,0.1018,0.0703,0.0262,2025-06-11T08:56:10.595786
160,-0.0844,-0.7574,0.6749,-25.550,-39.340,43.820,0.97,0.0552,0.1018,0.0602,0.0174,2025-06-11T08:56:10.595786
161,-0.1688,-0.7432,0.7091,-28.455,4.270,50.645,0.97,0.0368,0.1529,0.0703,0.0174,2025-06-11T08:56:10.595786
162,-0.3972,-0.7471,0.6871,-23.555,36.015,53.305,0.97,0.0552,0.1018,0.0703,0.0174,2025-06-11T08:56:10.595786
163,-0.6412,-0.7691,0.6861,-19.600,39.620,51.695,0.98,0.0368,0.1273,0.0602,0.0262,2025-06-11T08:56:10.595786
164,-0.7413,-0.7906,0.6939,-11.445,22.050,50.435,0.97,0.0368,0.1018,0.0703,0.0174,2025-06-11T08:56:10.595786
165,-0.7188,-0.7935,0.7198,-12.285,5.005,51.135,0.97,0.0368,0.1273,0.0501,0.0174,2025-06-11T08:56:10.595786
166,-0.7149,-0.7530,0.7281,-2.345,-7.350,48.545,0.98,0.0368,0.1273,0.0501,0.0174,2025-06-11T08:56:10.595786
167,-0.7027,-0.7252,0.7505,-0.455,-11.165,43.260,0.97,0.0368,0.1273,0.0703,0.0174,2025-06-11T08:56:10.595786
168,-0.7213,-0.6988,0.7457,-0.945,-8.890,39.235,0.98,0.0368,0.1018,0.0501,0.0174,2025-06-11T08:56:10.595786
169,-0.7017,-0.6998,0.7466,0.490,-16.800,38.570,0.98,0.0368,0.1018,0.0501,0.0087,2025-06-11T08:56:10.595786
170,-0.6364,-0.6876,0.7481,4.095,-30.975,39.515,0.97,0.0368,0.0762,0.0501,0.0174,2025-06-11T08:56:10.595786
171,-0.6046,-0.7047,0.6705,8.470,-37.100,39.200,0.98,0.0368,0.0762,0.0501,0.0087,2025-06-11T08:56:10.595786
172,-0.5954,-0.7096,0.6651,16.835,-42.945,39.305,0.98,0.0368,0.0762,0.0401,0.0087,2025-06-11T08:56:10.595786
173,-0.5949,-0.6847,0.7022,20.825,-53.655,39.270,0.98,0.0184,0.0762,0.0501,0.0174,2025-06-11T08:56:10.595786
174,-0.4734,-0.6622,0.7544,27.650,-59.675,30.100,0.98,0.0368,0.0508,0.0501,0.0087,2025-06-11T08:56:10.595786
175,-0.2757,-0.5788,0.8154,30.940,-58.065,19.985,0.98,0.0368,0.0508,0.0501,0.0087,2025-06-11T08:56:10.595786
176,-0.1854,-0.5480,0.7374,34.300,-42.665,12.145,0.97,0.0368,0.0762,0.0501,0.0174,2025-06-11T08:56:10.595786
177,-0.1049,-0.5148,0.6934,30.905,-21.000,6.860,0.97,0.0368,0.0762,0.0703,0.0087,2025-06-11T08:56:10.595786
178,-0.0815,-0.5231,0.6129,31.710,-0.245,3.605,0.97,0.0368,0.0508,0.0703,0.0087,2025-06-11T08:56:10.595786
179,-0.1049,-0.5363,0.5646,29.505,20.160,2.485,0.97,0.0184,0.0508,0.0906,0.0087,2025-06-11T08:56:10.595786
180,-0.1459,-0.5568,0.5539,28.035,35.070,-0.490,0.97,0.0552,0.0508,0.0804,0.0174,2025-06-11T08:56:10.595786
181,-0.2186,-0.5680,0.5719,26.250,44.870,-5.460,0.98,0.0368,0.0762,0.1109,0.0174,2025-06-11T08:56:10.595786
182,-0.2835,-0.6095,0.6066,27.335,42.280,-11.935,0.97,0.0368,0.0508,0.0906,0.0174,2025-06-11T08:56:10.608590
183,-0.4514,-0.5861,0.8208,40.145,1.575,-20.545,0.97,0.0368,0.0508,0.0804,0.0174,2025-06-11T08:56:10.694176
184,-0.1947,-0.6027,0.7701,35.350,3.290,-20.580,0.98,0.0368,0.0508,0.0703,0.0174,2025-06-11T08:56:10.694176
185,-0.2972,-0.5671,0.8276,32.410,7.980,-22.575,0.97,0.0368,0.0508,0.0906,0.0087,2025-06-11T08:56:10.694176
186,-0.3294,-0.5778,0.7998,30.450,10.150,-22.785,0.98,0.0184,0.0254,0.0906,0.0087,2025-06-11T08:56:10.694176
187,-0.3338,-0.5817,0.7813,25.760,12.635,-19.985,0.97,0.0368,0.0508,0.0906,0.0087,2025-06-11T08:56:10.694176
188,-0.4285,-0.5700,0.7886,26.390,3.360,-17.920,0.97,0.0368,0.0508,0.0703,0.0087,2025-06-11T08:56:10.821492
189,-0.4304,-0.5510,0.8374,25.375,-7.280,-17.360,0.98,0.0368,0.0508,0.0501,0.0087,2025-06-11T08:56:10.821492
190,-0.3841,-0.5485,0.8628,27.020,-12.845,-17.885,0.97,0.0368,0.0508,0.0401,0.0174,2025-06-11T08:56:10.821492
191,-0.3680,-0.5192,0.9374,29.610,-8.890,-19.110,0.97,0.0184,0.0508,0.0501,0.0087,2025-06-11T08:56:10.821492
192,-0.4280,-0.4724,1.0014,29.330,-2.065,-21.000,0.97,0.0368,0.0508,0.0501,0.0087,2025-06-11T08:56:10.821492
193,-0.5051,-0.4480,0.8960,27.895,-4.655,-25.235,0.97,0.0184,0.0254,0.0300,0.0087,2025-06-11T08:56:10.821492
194,-0.4826,-0.4114,0.8013,26.180,-10.395,-29.120,0.97,0.0368,0.0254,0.0401,0.0174,2025-06-11T08:56:10.821492
195,-0.4577,-0.4080,0.7559,20.370,-17.185,-29.575,0.97,0.0368,0.0254,0.0401,0.0174,2025-06-11T08:56:10.821492
196,-0.3987,-0.4109,0.7603,19.775,-20.195,-29.050,0.97,0.0184,0.0254,0.0300,0.0087,2025-06-11T08:56:10.822558
197,-0.3172,-0.4046,0.8028,16.765,-11.200,-31.220,0.97,0.0368,0.0508,0.0401,0.0174,2025-06-11T08:56:11.105762
198,-0.2689,-0.3958,0.8516,17.570,7.175,-36.505,0.97,0.0184,0.0508,0.0401,0.0087,2025-06-11T08:56:11.105762
199,-0.3143,-0.3919,0.7876,17.220,20.685,-41.930,0.97,0.0184,0.0508,0.0401,0.0174,2025-06-11T08:56:11.105762
200,-0.3060,-0.4041,0.7505,18.095,29.610,-43.750,0.97,0.0184,0.0508,0.0401,0.0174,2025-06-11T08:56:11.105762
201,-0.3099,-0.4050,0.7061,18.200,34.860,-43.610,0.96,0.0184,0.0508,0.0501,0.0174,2025-06-11T08:56:11.380021
202,-0.3645,-0.3792,0.7193,15.365,38.535,-45.640,0.96,0.0368,0.0508,0.0401,0.0087,2025-06-11T08:56:11.380021
203,-0.3528,-0.3782,0.7520,9.485,42.420,-45.395,0.96,0.0368,0.0508,0.0401,0.0174,2025-06-11T08:56:11.380021
204,-0.3997,-0.4192,0.7481,3.535,43.645,-45.885,0.96,0.0368,0.0508,0.0501,0.0174,2025-06-11T08:56:11.380021
205,-0.3836,-0.4499,0.7296,-3.535,45.815,-46.830,0.95,0.0368,0.0508,0.0401,0.0087,2025-06-11T08:56:11.380021
206,-0.3640,-0.4992,0.7022,-7.980,48.440,-47.460,0.95,0.0368,0.0508,0.0501,0.0174,2025-06-11T08:56:11.380021
207,-0.2865,-0.5529,0.7408,-10.780,58.310,-48.895,0.95,0.0368,0.0508,0.0501,0.0174,2025-06-11T08:56:11.380021
208,-0.3445,-0.6183,0.7525,-10.605,71.260,-50.575,0.95,0.0184,0.0508,0.0703,0.0174,2025-06-11T08:56:11.380021
209,-0.3587,-0.6769,0.7608,-10.570,83.160,-54.075,0.95,0.0184,0.0508,0.0602,0.0174,2025-06-11T08:56:11.380021
210,-0.3758,-0.7515,0.8115,-9.730,94.500,-55.615,0.94,0.0184,0.0508,0.0501,0.0087,2025-06-11T08:56:11.380021
211,-0.3963,-0.8350,0.7788,-9.205,98.665,-51.345,0.94,0.0184,0.0254,0.0602,0.0174,2025-06-11T08:56:11.380021
212,-0.4055,-0.8501,0.7120,-9.555,96.635,-42.910,0.93,0.0368,0.0508,0.0703,0.0087,2025-06-11T08:56:11.380021
213,-0.4509,-0.7906,0.7042,-13.895,91.840,-33.390,0.93,0.0368,0.0508,0.0602,0.0174,2025-06-11T08:56:11.380021
214,-0.4494,-0.7710,0.7164,-19.215,88.655,-31.080,0.93,0.0368,0.0254,0.0602,0.0174,2025-06-11T08:56:11.380021
215,-0.3972,-0.7871,0.6588,-21.840,85.785,-32.305,0.92,0.0368,0.0508,0.0501,0.0087,2025-06-11T08:56:11.380021
216,-0.4006,-0.8403,0.6276,-18.235,82.915,-33.705,0.92,0.0368,0.0254,0.0602,0.0174,2025-06-11T08:56:11.380021
217,-0.3958,-0.9199,0.6246,-11.760,82.810,-37.555,0.92,0.0368,0.0508,0.0501,0.0087,2025-06-11T08:56:11.380021
218,-0.4607,-0.9126,0.6261,-0.595,81.410,-38.500,0.91,0.0368,0.0254,0.0501,0.0174,2025-06-11T08:56:11.380021
219,-0.6242,-0.8852,0.6144,6.545,74.690,-36.890,0.91,0.0184,0.0254,0.0602,0.0087,2025-06-11T08:56:11.380021
220,-0.5378,-0.8906,0.5124,14.490,56.700,-31.885,0.91,0.0368,0.0254,0.0501,0.0174,2025-06-11T08:56:11.380021
221,-0.5998,-0.8716,0.5319,21.035,40.215,-30.380,0.91,0.0368,0.0508,0.0501,0.0174,2025-06-11T08:56:11.380021
222,-0.5505,-0.8555,0.5397,24.815,24.045,-33.600,0.91,0.0368,0.0508,0.0401,0.0087,2025-06-11T08:56:11.380021
223,-0.4514,-0.8721,0.5553,31.220,15.120,-34.230,0.91,0.0368,0.0254,0.0401,0.0174,2025-06-11T08:56:11.380021
224,-0.3841,-0.8667,0.6022,36.925,13.195,-34.580,0.91,0.0368,0.0508,0.0401,0.0174,2025-06-11T08:56:11.380021
225,-0.3377,-0.8340,0.6964,40.005,18.340,-36.960,0.91,0.0368,0.0508,0.0602,0.0087,2025-06-11T08:56:11.380763
226,-0.3274,-0.8076,0.6808,42.735,24.990,-44.100,0.92,0.0368,0.0508,0.0602,0.0087,2025-06-11T08:56:11.380763
227,-0.3055,-0.7618,0.6242,43.400,31.290,-48.720,0.91,0.0368,0.0508,0.0703,0.0087,2025-06-11T08:56:11.380763
228,-0.2772,-0.7354,0.5900,42.420,32.655,-50.155,0.91,0.0184,0.0508,0.0703,0.0174,2025-06-11T08:56:11.380763
229,-0.2069,-0.7437,0.6080,42.525,36.540,-50.155,0.91,0.0368,0.0762,0.0703,0.0087,2025-06-11T08:56:11.416546
230,-0.1566,-0.7574,0.6251,42.105,53.655,-50.015,0.91,0.0368,0.0508,0.0906,0.0174,2025-06-11T08:56:11.416546
231,-0.2137,-0.7803,0.6144,42.245,66.080,-48.650,0.91,0.0368,0.0762,0.0703,0.0174,2025-06-11T08:56:11.416546
232,-0.3260,-0.7730,0.6129,43.785,80.220,-46.165,0.91,0.0368,0.0508,0.0906,0.0087,2025-06-11T08:56:11.416546
233,-0.3201,-0.7779,0.5505,44.205,82.565,-47.250,0.90,0.0368,0.0762,0.1008,0.0174,2025-06-11T08:56:11.416546
234,-0.3670,-0.7666,0.4997,45.780,82.145,-45.290,0.90,0.0184,0.0762,0.0906,0.0174,2025-06-11T08:56:11.416546
235,-0.2079,-0.7735,0.4358,44.485,93.940,-44.660,0.90,0.0184,0.0508,0.0906,0.0174,2025-06-11T08:56:11.416546
236,-0.1064,-0.8184,0.3470,46.270,113.225,-43.505,0.90,0.0184,0.0508,0.1008,0.0087,2025-06-11T08:56:11.416546
237,-0.1957,-0.8237,0.3865,48.825,136.920,-41.055,0.91,0.0368,0.0762,0.1008,0.0087,2025-06-11T08:56:11.416546
238,0.0830,-0.7925,0.4338,46.900,181.405,-49.210,0.91,0.0368,0.0762,0.1109,0.0087,2025-06-11T08:56:11.416546
239,-0.3167,-0.8032,0.3670,50.505,229.565,-57.890,0.91,0.0368,0.0508,0.1109,0.0087,2025-06-11T08:56:11.416546
240,-0.4494,-0.8032,0.4416,49.700,237.405,-53.865,0.91,0.0184,0.0508,0.1008,0.0087,2025-06-11T08:56:11.416546
241,-0.5836,-0.8218,0.3758,53.410,226.100,-48.510,0.91,0.0184,0.0762,0.1109,0.0087,2025-06-11T08:56:11.416546
242,-0.7291,-0.8413,0.2694,56.630,212.380,-43.085,0.91,0.0368,0.0762,0.1008,0.0087,2025-06-11T08:56:11.719888
243,-0.8901,-0.8428,0.1991,58.310,180.775,-31.115,0.91,0.0368,0.0762,0.1008,0.0174,2025-06-11T08:56:11.719888
244,-0.8965,-0.7940,0.2377,61.460,149.240,-23.065,0.91,0.0184,0.0762,0.0906,0.0087,2025-06-11T08:56:11.719888
245,-0.9877,-0.6476,0.3118,63.280,122.570,-24.185,0.91,0.0368,0.0762,0.1008,0.0087,2025-06-11T08:56:11.719888
246,-0.9433,-0.5505,0.4207,61.355,101.220,-24.570,0.91,0.0368,0.1018,0.1008,0.0174,2025-06-11T08:56:11.719888
247,-0.8974,-0.5222,0.4314,58.240,78.820,-25.445,0.91,0.0368,0.0762,0.1008,0.0087,2025-06-11T08:56:11.719888
248,-0.8789,-0.5251,0.4319,57.960,51.765,-26.145,0.91,0.0184,0.0762,0.1008,0.0087,2025-06-11T08:56:11.719888
249,-0.7554,-0.4548,0.4612,55.300,27.685,-24.535,0.91,0.0368,0.0762,0.1008,0.0087,2025-06-11T08:56:11.719888
250,-0.6749,-0.4358,0.4294,49.595,23.275,-24.395,0.91,0.0368,0.0762,0.0906,0.0087,2025-06-11T08:56:11.719888
251,-0.6690,-0.4036,0.4651,45.955,25.725,-22.575,0.91,0.0368,0.0762,0.0804,0.0087,2025-06-11T08:56:11.720955
252,-0.7266,-0.3743,0.4860,44.485,28.455,-22.190,0.91,0.0368,0.1018,0.0804,0.0087,2025-06-11T08:56:11.720955
253,-0.7286,-0.3260,0.5251,43.575,27.440,-21.000,0.91,0.0368,0.1018,0.1008,0.0087,2025-06-11T08:56:11.720955
254,-0.7105,-0.3050,0.5144,43.575,25.200,-19.565,0.91,0.0184,0.0762,0.0906,0.0174,2025-06-11T08:56:11.720955
255,-0.6798,-0.2645,0.4997,42.875,27.755,-17.535,0.90,0.0368,0.0762,0.0804,0.0087,2025-06-11T08:56:11.720955
256,-0.7515,-0.2494,0.4616,41.055,29.365,-11.200,0.91,0.0184,0.1018,0.0804,0.0087,2025-06-11T08:56:11.720955
257,-0.8296,-0.1288,0.4758,40.845,26.670,-6.335,0.91,0.0368,0.1273,0.0804,0.0087,2025-06-11T08:56:11.834266
258,-0.8579,-0.2274,0.4695,39.725,20.440,-2.415,0.91,0.0368,0.1273,0.0804,0.0087,2025-06-11T08:56:11.834266
259,-0.8174,-0.2401,0.4651,37.520,15.610,2.275,0.91,0.0368,0.1018,0.0906,0.0087,2025-06-11T08:56:11.834266
260,-0.7749,-0.2294,0.4846,33.775,19.845,7.875,0.91,0.0368,0.1273,0.0804,0.0087,2025-06-11T08:56:11.834266
261,-0.8262,-0.2074,0.4553,28.000,25.550,12.705,0.92,0.0368,0.1018,0.1008,0.0174,2025-06-11T08:56:11.834266
262,-0.9428,-0.1791,0.5041,23.450,23.030,20.685,0.92,0.0552,0.1018,0.1008,0.0174,2025-06-11T08:56:11.834266
263,-1.0116,-0.1576,0.5187,18.795,12.320,24.920,0.92,0.0184,0.1018,0.0906,0.0087,2025-06-11T08:56:11.834266
264,-1.0507,-0.1728,0.4968,15.365,-4.235,29.995,0.92,0.0184,0.1018,0.1008,0.0087,2025-06-11T08:56:11.834266
265,-1.0014,-0.2313,0.4821,9.835,-21.770,32.830,0.92,0.0368,0.1018,0.1008,0.0087,2025-06-11T08:56:11.834266
266,-0.9658,-0.2635,0.4192,4.375,-23.870,31.220,0.91,0.0184,0.0762,0.1008,0.0087,2025-06-11T08:56:11.834892
267,-0.9355,-0.3094,0.2899,-1.575,-20.510,32.235,0.92,0.0368,0.1018,0.1008,0.0087,2025-06-11T08:56:11.834892
268,-0.9335,-0.3494,0.2108,-7.070,-22.365,30.520,0.91,0.0368,0.0762,0.1008,0.0087,2025-06-11T08:56:11.834892
269,-0.8730,-0.4260,0.2601,-9.625,-23.240,27.790,0.91,0.0368,0.1018,0.0906,0.0087,2025-06-11T08:56:11.834892
270,-0.6993,-0.4890,0.4358,-9.870,-11.585,27.160,0.92,0.0368,0.0762,0.0906,0.0087,2025-06-11T08:56:11.834892
271,-0.6681,-0.5646,0.4782,-10.535,10.080,25.445,0.92,0.0368,0.0762,0.1109,0.0087,2025-06-11T08:56:11.834892
272,-0.7837,-0.6637,0.4900,-9.625,37.940,27.790,0.92,0.0368,0.1018,0.1008,0.0174,2025-06-11T08:56:11.834892
273,-0.9658,-0.7237,0.5363,-9.415,51.485,35.350,0.92,0.0368,0.0762,0.0906,0.0087,2025-06-11T08:56:11.921049
274,-1.0980,-0.7242,0.5012,-7.945,52.920,40.250,0.92,0.0368,0.0762,0.1008,0.0174,2025-06-11T08:56:11.921049
275,-1.2029,-0.6969,0.4675,-4.550,42.280,53.095,0.92,0.0368,0.0508,0.1212,0.0174,2025-06-11T08:56:11.921049
276,-1.2410,-0.6368,0.4441,-6.090,17.745,49.210,0.93,0.0368,0.0762,0.0906,0.0174,2025-06-11T08:56:11.975090
277,-1.1795,-0.5549,0.3806,-7.490,-3.990,53.935,0.93,0.0552,0.0762,0.1008,0.0174,2025-06-11T08:56:11.975090
278,-1.1170,-0.5163,0.3460,-12.075,-25.445,56.630,0.93,0.0368,0.0762,0.0703,0.0087,2025-06-11T08:56:11.975090
279,-1.0638,-0.4743,0.3680,-19.880,-34.965,52.255,0.94,0.0368,0.0762,0.0906,0.0087,2025-06-11T08:56:11.976077
280,-0.9931,-0.4939,0.3640,-25.795,-38.255,41.825,0.94,0.0368,0.0762,0.1109,0.0174,2025-06-11T08:56:11.976077
281,-0.8564,-0.5104,0.4202,-27.160,-40.075,39.585,0.94,0.0368,0.0762,0.0906,0.0174,2025-06-11T08:56:11.976077
282,-0.8486,-0.5998,0.4519,-24.220,-36.540,42.035,0.94,0.0368,0.0508,0.1314,0.0174,2025-06-11T08:56:11.976077
283,-0.8335,-0.6266,0.3880,-25.025,-32.340,42.350,0.94,0.0368,0.0762,0.1314,0.0174,2025-06-11T08:56:12.204589
284,-0.8091,-0.6442,0.3650,-24.325,-24.220,45.430,0.94,0.0368,0.0508,0.1416,0.0174,2025-06-11T08:56:12.204589
285,-0.7364,-0.6525,0.3436,-25.200,-19.845,49.210,0.93,0.0368,0.0762,0.1416,0.0174,2025-06-11T08:56:12.204589
286,-0.6891,-0.6520,0.3548,-22.365,-9.625,52.535,0.93,0.0184,0.0762,0.1519,0.0174,2025-06-11T08:56:12.204589
287,-0.6837,-0.6105,0.4060,-20.195,2.450,52.220,0.93,0.0368,0.0508,0.1416,0.0174,2025-06-11T08:56:12.204589
288,-0.6681,-0.5773,0.3777,-16.940,13.160,52.220,0.93,0.0184,0.0508,0.1622,0.0087,2025-06-11T08:56:12.204589
289,-0.6124,-0.5588,0.3499,-12.180,25.655,53.130,0.93,0.0368,0.0762,0.1725,0.0087,2025-06-11T08:56:12.204589
290,-0.6403,-0.5139,0.2840,-7.770,34.545,57.785,0.92,0.0184,0.0762,0.1932,0.0087,2025-06-11T08:56:12.204589
291,-0.7061,-0.4792,0.2728,-7.245,44.450,58.555,0.92,0.0184,0.0762,0.1725,0.0174,2025-06-11T08:56:12.204589
292,-0.8028,-0.4285,0.2582,-8.225,49.420,54.530,0.92,0.0368,0.0762,0.1932,0.0174,2025-06-11T08:56:12.204589
293,-0.8872,-0.4324,0.1889,-9.555,47.635,48.370,0.92,0.0368,0.1018,0.1828,0.0087,2025-06-11T08:56:12.204589
294,-0.8081,-0.3240,0.2645,-8.575,49.840,42.385,0.92,0.0184,0.1018,0.1828,0.0087,2025-06-11T08:56:12.204589
295,-0.9130,-0.3255,0.2625,-7.245,45.955,40.425,0.92,0.0368,0.0762,0.1725,0.0174,2025-06-11T08:56:12.204589
296,-0.9799,-0.3494,0.2352,-3.535,35.385,39.725,0.92,0.0184,0.1018,0.1725,0.0087,2025-06-11T08:56:12.204589
297,-0.9623,-0.3762,0.2757,6.825,12.460,41.755,0.92,0.0552,0.0762,0.1725,0.0087,2025-06-11T08:56:12.204589
298,-0.8930,-0.3841,0.3631,19.775,5.355,42.735,0.92,0.0184,0.1018,0.1725,0.0087,2025-06-11T08:56:12.204589
299,-0.6856,-0.3274,0.4875,28.140,20.930,46.900,0.91,0.0368,0.0762,0.2243,0.0087,2025-06-11T08:56:12.204589
300,-0.6134,-0.2786,0.5461,33.880,65.135,50.785,0.91,0.0368,0.1018,0.2243,0.0087,2025-06-11T08:56:12.266163
301,-0.5627,-0.2313,0.5080,33.320,116.445,62.475,0.91,0.0368,0.1273,0.2035,0.0174,2025-06-11T08:56:12.266163
302,-0.5788,-0.1976,0.4260,34.125,152.005,79.625,0.91,0.0368,0.1273,0.2243,0.0174,2025-06-11T08:56:12.266163
303,-0.9677,-0.1610,0.3855,35.175,184.975,94.045,0.91,0.0368,0.0762,0.2243,0.0087,2025-06-11T08:56:12.266163
304,-1.1605,-0.1566,0.3348,38.395,198.835,96.425,0.91,0.0368,0.1018,0.2243,0.0174,2025-06-11T08:56:12.539435
305,-1.4689,-0.1205,0.3436,38.605,195.965,93.870,0.91,0.0368,0.1018,0.1932,0.0174,2025-06-11T08:56:12.539435
306,-1.5074,-0.0449,0.3782,42.700,168.875,101.675,0.90,0.0368,0.1018,0.2348,0.0087,2025-06-11T08:56:12.539435
307,-1.4298,0.0112,0.3377,40.670,124.110,126.700,0.90,0.0368,0.1273,0.2348,0.0174,2025-06-11T08:56:12.539435
308,-1.2556,0.0166,0.2772,46.025,99.085,147.315,0.90,0.0368,0.1018,0.2348,0.0087,2025-06-11T08:56:12.539435
309,-1.1346,0.0742,0.1781,42.350,95.095,164.185,0.90,0.0184,0.1018,0.2767,0.0087,2025-06-11T08:56:12.539435
310,-1.2229,0.1742,0.1064,30.380,124.145,164.325,0.90,0.0368,0.0762,0.2978,0.0087,2025-06-11T08:56:12.539435
311,-1.3435,0.1806,-0.0683,28.595,154.420,150.640,0.90,0.0368,0.1018,0.2978,0.0174,2025-06-11T08:56:12.539435
312,-1.4752,0.2084,-0.1210,21.910,159.495,142.450,0.90,0.0184,0.1018,0.2767,0.0174,2025-06-11T08:56:12.539435
313,-1.5601,0.2406,-0.0917,18.865,127.120,148.855,0.90,0.0368,0.1018,0.2662,0.0174,2025-06-11T08:56:12.539435
314,-1.5684,0.2528,-0.0649,13.825,69.195,159.285,0.90,0.0368,0.1018,0.2662,0.0087,2025-06-11T08:56:12.539435
315,-1.5455,0.2328,-0.1444,11.970,18.760,177.870,0.90,0.0368,0.1018,0.2452,0.0174,2025-06-11T08:56:12.539435
316,-1.3435,0.2079,-0.2206,11.655,-22.995,178.150,0.90,0.0368,0.1018,0.2348,0.0087,2025-06-11T08:56:12.539435
317,-1.0160,0.2572,-0.2172,6.580,-29.470,180.635,0.91,0.0552,0.1018,0.2662,0.0087,2025-06-11T08:56:12.694940
318,-0.7598,0.2704,-0.2645,2.520,-1.190,180.110,0.90,0.0368,0.1273,0.2978,0.0174,2025-06-11T08:56:12.694940
319,-0.7144,0.3294,-0.2791,-4.200,32.655,175.070,0.91,0.0368,0.0762,0.2767,0.0174,2025-06-11T08:56:12.694940
320,-0.8691,0.3572,-0.2913,-11.340,66.570,161.700,0.91,0.0368,0.0762,0.2662,0.0087,2025-06-11T08:56:12.694940
321,-0.8823,0.3440,-0.3343,-17.080,76.440,151.095,0.91,0.0368,0.1018,0.2662,0.0087,2025-06-11T08:56:12.694940
322,-0.9257,0.3645,-0.3426,-20.965,59.990,146.895,0.91,0.0184,0.1018,0.2243,0.0087,2025-06-11T08:56:12.694940
323,-0.9287,0.3826,-0.3728,-21.875,38.045,145.320,0.92,0.0368,0.1018,0.2452,0.0174,2025-06-11T08:56:12.694940
324,-0.9150,0.3709,-0.3553,-23.870,17.885,139.580,0.92,0.0368,0.1018,0.2243,0.0087,2025-06-11T08:56:12.694940
325,-0.7881,0.3309,-0.3728,-26.950,8.225,135.695,0.92,0.0368,0.1018,0.2452,0.0087,2025-06-11T08:56:12.694940
326,-0.6744,0.3152,-0.3621,-30.205,2.100,132.055,0.92,0.0184,0.1018,0.2662,0.0087,2025-06-11T08:56:12.696007
327,-0.6261,0.3001,-0.3440,-34.265,10.045,128.100,0.92,0.0368,0.0762,0.2767,0.0174,2025-06-11T08:56:12.696007
328,-0.5832,0.2860,-0.3631,-37.975,21.280,124.180,0.92,0.0368,0.1018,0.2978,0.0087,2025-06-11T08:56:12.696007
329,-0.5773,0.3060,-0.4099,-39.760,32.690,121.240,0.93,0.0184,0.1018,0.2662,0.0087,2025-06-11T08:56:12.696007
330,-0.6246,0.2850,-0.4006,-38.325,37.345,115.535,0.93,0.0368,0.0762,0.2452,0.0087,2025-06-11T08:56:12.696007
331,-0.5773,0.3148,-0.3562,-38.745,44.800,109.480,0.93,0.0368,0.0762,0.2662,0.0000,2025-06-11T08:56:12.696007
332,-0.5812,0.3455,-0.3167,-39.375,48.300,103.530,0.93,0.0368,0.1018,0.2452,0.0087,2025-06-11T08:56:12.696007
333,-0.5412,0.3899,-0.2538,-39.935,50.295,99.225,0.93,0.0368,0.1273,0.2557,0.0087,2025-06-11T08:56:12.696007
334,-0.5475,0.3904,-0.2172,-39.655,50.330,95.865,0.94,0.0552,0.0762,0.2452,0.0174,2025-06-11T08:56:12.853165
335,-0.6222,0.4011,-0.1884,-39.620,41.720,89.320,0.94,0.0368,0.1018,0.2348,0.0087,2025-06-11T08:56:12.853165
336,-0.6207,0.4085,-0.1952,-35.770,29.435,83.825,0.94,0.0368,0.1018,0.2557,0.0174,2025-06-11T08:56:12.853165
337,-0.6071,0.4348,-0.1767,-30.310,13.965,75.460,0.94,0.0368,0.1018,0.2348,0.0087,2025-06-11T08:56:12.853165
338,-0.5592,0.4821,-0.1264,-25.515,5.145,66.850,0.94,0.0368,0.1018,0.2662,0.0087,2025-06-11T08:56:12.853165
339,-0.4431,0.5246,-0.1015,-20.405,0.945,58.275,0.94,0.0368,0.1018,0.2872,0.0174,2025-06-11T08:56:12.853165
340,-0.4046,0.5368,-0.0883,-11.445,3.640,50.260,0.94,0.0368,0.1273,0.2348,0.0174,2025-06-11T08:56:12.853165
341,-0.4387,0.5641,-0.0971,-5.565,5.775,41.650,0.94,0.0184,0.1273,0.2662,0.0087,2025-06-11T08:56:12.853165
342,-0.4880,0.5885,-0.1152,1.960,3.360,35.875,0.94,0.0368,0.1273,0.2767,0.0087,2025-06-11T08:56:12.853165
343,-0.6168,0.6417,-0.1332,6.580,-2.695,31.010,0.94,0.0368,0.1529,0.2767,0.0174,2025-06-11T08:56:12.853165
344,-0.4841,0.6583,-0.1776,13.580,-14.980,31.255,0.94,0.0184,0.1018,0.2452,0.0174,2025-06-11T08:56:12.853165
345,-0.4397,0.7232,-0.1845,18.725,-20.650,31.045,0.94,0.0184,0.1018,0.2452,0.0174,2025-06-11T08:56:12.853165
346,-0.3548,0.7793,-0.1664,22.820,-15.785,30.415,0.95,0.0184,0.1273,0.2767,0.0087,2025-06-11T08:56:12.853165
347,-0.3289,0.8140,-0.2074,25.830,-6.650,30.135,0.95,0.0368,0.1018,0.2452,0.0087,2025-06-11T08:56:13.146298
348,-0.3333,0.8481,-0.1635,27.370,5.215,29.540,0.95,0.0552,0.1529,0.2557,0.0174,2025-06-11T08:56:13.146298
349,-0.3914,0.8838,-0.1576,25.900,9.275,29.855,0.95,0.0368,0.1273,0.2557,0.0174,2025-06-11T08:56:13.146298
350,-0.4285,0.9126,-0.1879,20.685,5.880,32.410,0.95,0.0368,0.1273,0.3509,0.0174,2025-06-11T08:56:13.146298
351,-0.4524,0.9296,-0.1547,16.695,-0.875,36.225,0.95,0.0368,0.1273,0.3190,0.0174,2025-06-11T08:56:13.323455
352,-0.4451,0.9370,-0.1274,11.340,-3.815,37.765,0.95,0.0368,0.1018,0.2557,0.0174,2025-06-11T08:56:13.323455
353,-0.4260,0.9448,-0.1454,7.840,-4.060,38.990,0.95,0.0184,0.1018,0.2978,0.0174,2025-06-11T08:56:13.323455
354,-0.4226,0.9667,-0.1337,2.590,-4.900,40.460,0.95,0.0184,0.0762,0.2978,0.0087,2025-06-11T08:56:13.323455
355,-0.4138,0.9819,-0.1796,-2.170,-7.175,42.315,0.95,0.0552,0.1018,0.2978,0.0174,2025-06-11T08:56:13.323455
356,-0.3919,0.9984,-0.2147,-7.000,-9.345,44.520,0.95,0.0184,0.0762,0.2872,0.0087,2025-06-11T08:56:13.323455
357,-0.3587,1.0238,-0.2386,-13.650,-8.260,45.675,0.95,0.0368,0.1018,0.3084,0.0000,2025-06-11T08:56:13.323455
358,-0.2855,1.0277,-0.2562,-19.320,-3.990,48.195,0.95,0.0368,0.1018,0.2978,0.0087,2025-06-11T08:56:13.323455
359,-0.2259,1.0365,-0.2367,-26.775,7.735,49.875,0.95,0.0184,0.1018,0.2978,0.0087,2025-06-11T08:56:13.323455
360,-0.2513,1.0463,-0.1615,-32.935,18.410,52.080,0.95,0.0368,0.1273,0.2348,0.0087,2025-06-11T08:56:13.323455
361,-0.2923,1.0512,-0.1469,-39.970,21.140,56.805,0.95,0.0368,0.1018,0.2978,0.0087,2025-06-11T08:56:13.323455
362,-0.2908,1.0682,-0.1645,-45.045,17.185,63.875,0.95,0.0184,0.1018,0.3402,0.0174,2025-06-11T08:56:13.323455
363,-0.3001,1.0629,-0.1874,-50.890,16.030,68.985,0.95,0.0184,0.1273,0.3190,0.0174,2025-06-11T08:56:13.323455
364,-0.2845,1.0555,-0.1781,-55.405,19.250,70.315,0.95,0.0368,0.1529,0.2978,0.0087,2025-06-11T08:56:13.323455
365,-0.3162,1.0512,-0.1581,-59.395,18.270,71.540,0.95,0.0368,0.1018,0.3616,0.0087,2025-06-11T08:56:13.323455
366,-0.3440,1.0360,-0.0888,-60.410,13.860,71.225,0.94,0.0368,0.1018,0.3616,0.0174,2025-06-11T08:56:13.323455
367,-0.2440,1.0360,-0.0034,-57.890,11.725,70.910,0.94,0.0368,0.1018,0.3084,0.0087,2025-06-11T08:56:13.323455
368,-0.1801,1.0429,0.0127,-52.850,15.715,70.560,0.93,0.0184,0.1018,0.3509,0.0087,2025-06-11T08:56:13.323455
369,-0.1801,1.0331,-0.0620,-47.425,23.730,68.565,0.93,0.0184,0.1018,0.3190,0.0087,2025-06-11T08:56:13.323455
370,-0.1820,1.0346,-0.1235,-40.845,30.100,65.065,0.93,0.0368,0.1018,0.3723,0.0087,2025-06-11T08:56:13.323455
371,-0.1928,1.0331,-0.1654,-35.455,34.895,60.200,0.93,0.0368,0.0762,0.3723,0.0087,2025-06-11T08:56:13.323455
372,-0.2494,1.0414,-0.1527,-30.240,36.960,54.460,0.93,0.0368,0.1018,0.3723,0.0087,2025-06-11T08:56:13.323455
373,-0.2377,1.0311,-0.1181,-27.370,37.170,46.305,0.93,0.0368,0.0762,0.3723,0.0087,2025-06-11T08:56:13.323455
374,-0.2206,1.0277,-0.0576,-25.235,36.365,39.760,0.93,0.0184,0.1018,0.3509,0.0174,2025-06-11T08:56:13.323455
375,-0.2601,1.0102,-0.0327,-25.130,33.250,32.830,0.92,0.0184,0.1018,0.3509,0.0174,2025-06-11T08:56:13.323455
376,-0.3099,1.0155,-0.0483,-27.615,21.875,27.405,0.92,0.0368,0.1018,0.3509,0.0087,2025-06-11T08:56:13.323455
377,-0.3255,0.9926,-0.1688,-27.580,4.690,24.955,0.92,0.0368,0.1529,0.3509,0.0174,2025-06-11T08:56:13.566674
378,-0.2923,0.9721,-0.1659,-26.985,-7.315,19.530,0.92,0.0368,0.1529,0.3723,0.0087,2025-06-11T08:56:13.566674
379,-0.1649,0.9565,-0.1869,-26.005,-6.335,14.525,0.92,0.0368,0.1018,0.3616,0.0087,2025-06-11T08:56:13.566674
380,-0.1005,0.9394,-0.1781,-23.800,3.080,11.060,0.92,0.0368,0.1273,0.3616,0.0174,2025-06-11T08:56:13.566674
381,-0.0815,0.9365,-0.1484,-22.330,13.755,6.125,0.93,0.0368,0.1273,0.3616,0.0174,2025-06-11T08:56:13.566674
382,-0.0986,0.9418,-0.1518,-20.965,20.825,2.765,0.92,0.0184,0.1018,0.3509,0.0087,2025-06-11T08:56:13.566674
383,-0.1440,0.9423,-0.1645,-19.635,19.775,-0.490,0.92,0.0184,0.1273,0.3402,0.0087,2025-06-11T08:56:13.566674
384,-0.1635,0.9360,-0.2089,-18.550,13.895,-4.690,0.92,0.0368,0.1273,0.3616,0.0087,2025-06-11T08:56:13.566674
385,-0.1508,0.9233,-0.2318,-17.255,9.870,-8.330,0.92,0.0368,0.1273,0.3509,0.0087,2025-06-11T08:56:13.566674
386,-0.1240,0.9091,-0.2547,-15.820,10.465,-12.005,0.92,0.0368,0.1273,0.3723,0.0087,2025-06-11T08:56:13.566674
387,-0.1108,0.8828,-0.2655,-13.160,14.350,-14.315,0.92,0.0184,0.1273,0.3402,0.0087,2025-06-11T08:56:13.566674
388,-0.1044,0.8520,-0.2699,-11.480,21.980,-15.785,0.92,0.0368,0.1273,0.3616,0.0087,2025-06-11T08:56:13.566674
389,-0.1161,0.8213,-0.3050,-9.170,28.000,-15.505,0.92,0.0552,0.1273,0.3723,0.0174,2025-06-11T08:56:13.567724
390,-0.1698,0.8042,-0.2865,-8.295,32.690,-14.595,0.92,0.0552,0.1273,0.3723,0.0087,2025-06-11T08:56:13.567724
391,-0.1874,0.7867,-0.3021,-8.015,35.595,-12.985,0.92,0.0368,0.1273,0.3723,0.0087,2025-06-11T08:56:13.567724
392,-0.2162,0.7862,-0.2850,-7.700,35.910,-10.815,0.92,0.0368,0.1529,0.3830,0.0087,2025-06-11T08:56:13.567724
393,-0.2279,0.7779,-0.2884,-7.105,35.350,-9.205,0.92,0.0368,0.1273,0.3616,0.0174,2025-06-11T08:56:13.567724
394,-0.2289,0.7598,-0.3021,-4.620,34.510,-8.050,0.92,0.0368,0.1273,0.3509,0.0174,2025-06-11T08:56:13.672901
395,-0.2133,0.7452,-0.2894,-1.785,35.140,-8.400,0.92,0.0368,0.1529,0.3402,0.0087,2025-06-11T08:56:13.672901
396,-0.1781,0.7261,-0.2489,1.820,38.815,-8.995,0.92,0.0368,0.1273,0.3402,0.0174,2025-06-11T08:56:13.672901
397,-0.2079,0.7364,-0.1981,4.375,42.630,-9.450,0.92,0.0184,0.1273,0.3616,0.0174,2025-06-11T08:56:13.672901
398,-0.2469,0.7413,-0.1752,6.930,40.775,-8.575,0.92,0.0184,0.1018,0.3296,0.0087,2025-06-11T08:56:13.672901
399,-0.2830,0.7671,-0.1547,8.960,36.505,-8.260,0.92,0.0368,0.1018,0.3190,0.0087,2025-06-11T08:56:13.672901
400,-0.2606,0.8003,-0.1523,13.230,30.940,-8.085,0.92,0.0368,0.1273,0.3084,0.0262,2025-06-11T08:56:13.672901
401,-0.2474,0.8364,-0.1767,18.410,27.790,-8.470,0.92,0.0368,0.1018,0.3190,0.0087,2025-06-11T08:56:13.672901
402,-0.2333,0.8677,-0.1830,24.500,28.105,-10.535,0.92,0.0368,0.1018,0.3296,0.0174,2025-06-11T08:56:13.672901
403,-0.2216,0.8950,-0.1728,28.630,29.330,-12.635,0.92,0.0368,0.1018,0.3190,0.0087,2025-06-11T08:56:13.673969
404,-0.2381,0.9277,-0.1225,31.220,30.870,-15.085,0.92,0.0368,0.1018,0.3084,0.0174,2025-06-11T08:56:13.673969
405,-0.2674,0.9428,-0.0795,31.675,29.925,-17.290,0.92,0.0184,0.1018,0.3190,0.0174,2025-06-11T08:56:13.673969
406,-0.3187,0.9428,-0.0913,31.710,21.210,-20.090,0.92,0.0184,0.1018,0.2767,0.0174,2025-06-11T08:56:13.673969
407,-0.3533,0.9716,-0.0688,30.030,9.660,-23.065,0.92,0.0368,0.1273,0.2662,0.0174,2025-06-11T08:56:13.962316
408,-0.3831,0.9970,-0.0449,26.950,-7.000,-26.075,0.92,0.0368,0.1273,0.2978,0.0087,2025-06-11T08:56:13.962316
409,-0.3889,1.0248,-0.0698,24.850,-21.770,-26.145,0.93,0.0368,0.1018,0.2767,0.0174,2025-06-11T08:56:13.962316
410,-0.3816,1.0482,-0.0952,22.960,-35.035,-25.060,0.92,0.0368,0.1018,0.3084,0.0087,2025-06-11T08:56:13.962316
411,-0.3450,1.0565,-0.1264,21.490,-40.670,-22.925,0.92,0.0184,0.1018,0.2978,0.0087,2025-06-11T08:56:13.962316
412,-0.2996,1.0546,-0.1157,19.460,-40.320,-20.055,0.92,0.0184,0.1018,0.2872,0.0174,2025-06-11T08:56:13.962316
413,-0.2952,1.0560,-0.0708,15.085,-35.945,-17.640,0.92,0.0184,0.1018,0.2767,0.0174,2025-06-11T08:56:13.962316
414,-0.3060,1.0526,-0.0361,10.500,-33.390,-13.510,0.92,0.0368,0.1018,0.2872,0.0087,2025-06-11T08:56:13.962316
415,-0.3489,1.0350,-0.0390,4.795,-37.730,-9.100,0.92,0.0368,0.1018,0.2557,0.0087,2025-06-11T08:56:13.962316
416,-0.3850,1.0263,-0.0220,1.365,-50.925,-3.500,0.92,0.0368,0.1018,0.2662,0.0087,2025-06-11T08:56:13.962316
417,-0.3914,1.0155,-0.0210,-1.750,-63.000,0.700,0.92,0.0184,0.1018,0.2767,0.0087,2025-06-11T08:56:13.962316
418,-0.3636,0.9936,-0.0386,-2.905,-73.570,3.605,0.92,0.0184,0.1018,0.2767,0.0087,2025-06-11T08:56:13.962316
419,-0.3094,0.9809,-0.0532,-2.730,-84.000,6.160,0.92,0.0368,0.1018,0.2662,0.0087,2025-06-11T08:56:13.962316
420,-0.2655,0.9570,-0.0742,-1.575,-88.130,8.540,0.92,0.0368,0.0762,0.2767,0.0087,2025-06-11T08:56:13.962316
421,-0.2152,0.9414,-0.1142,1.225,-87.360,9.310,0.92,0.0184,0.0762,0.2872,0.0174,2025-06-11T08:56:13.962316
422,-0.2084,0.9277,-0.1586,6.615,-84.245,8.820,0.93,0.0368,0.1018,0.2978,0.0174,2025-06-11T08:56:13.962316
423,-0.2201,0.9082,-0.1840,11.865,-81.725,6.895,0.93,0.0368,0.1018,0.2767,0.0087,2025-06-11T08:56:14.074192
424,-0.2284,0.8940,-0.1532,17.325,-81.095,4.130,0.93,0.0368,0.1018,0.2872,0.0087,2025-06-11T08:56:14.074192
425,-0.2406,0.8847,-0.1376,21.945,-83.230,0.455,0.93,0.0368,0.1018,0.2978,0.0087,2025-06-11T08:56:14.074192
426,-0.2542,0.8882,-0.1571,28.875,-86.065,-3.535,0.92,0.0368,0.1273,0.2872,0.0087,2025-06-11T08:56:14.074192
427,-0.2362,0.9165,-0.1962,37.135,-87.290,-9.800,0.93,0.0368,0.1018,0.2978,0.0087,2025-06-11T08:56:14.074192
428,-0.2255,0.9399,-0.2552,48.265,-83.930,-16.625,0.93,0.0368,0.1018,0.2872,0.0087,2025-06-11T08:56:14.074192
429,-0.1991,0.9667,-0.2601,55.090,-76.790,-24.080,0.93,0.0368,0.1018,0.2872,0.0174,2025-06-11T08:56:14.074192
430,-0.1620,0.9999,-0.1776,57.295,-64.295,-26.915,0.93,0.0368,0.1018,0.2872,0.0087,2025-06-11T08:56:14.074192
431,-0.1405,1.0375,-0.1488,54.460,-50.890,-25.375,0.93,0.0368,0.1018,0.2767,0.0087,2025-06-11T08:56:14.074192
432,-0.1991,1.0399,-0.1606,46.970,-34.335,-22.190,0.93,0.0184,0.1018,0.2872,0.0087,2025-06-11T08:56:14.074192
433,-0.2982,1.0258,-0.2020,38.185,-25.130,-9.135,0.93,0.0184,0.1018,0.2872,0.0174,2025-06-11T08:56:14.074192
434,-0.4041,1.0053,-0.2328,28.735,-22.155,-11.585,0.93,0.0184,0.1018,0.2872,0.0087,2025-06-11T08:56:14.074192
435,-0.4524,0.9765,-0.2318,17.990,-23.520,-5.250,0.93,0.0368,0.1018,0.2978,0.0087,2025-06-11T08:56:14.074192
436,-0.5061,0.9340,-0.2606,10.465,-26.075,0.840,0.93,0.0368,0.1018,0.2978,0.0087,2025-06-11T08:56:14.074192
437,-0.4987,0.8989,-0.2621,4.340,-29.365,4.865,0.93,0.0368,0.1018,0.2978,0.0087,2025-06-11T08:56:14.074192
438,-0.4685,0.8555,-0.2245,5.145,-31.255,8.575,0.93,0.0368,0.1018,0.2978,0.0174,2025-06-11T08:56:14.126196
439,-0.4646,0.8237,-0.2362,-0.035,-30.380,11.130,0.93,0.0368,0.1018,0.2978,0.0087,2025-06-11T08:56:14.126196
440,-0.4631,0.7945,-0.2074,0.350,-28.840,12.985,0.93,0.0368,0.1273,0.2872,0.0087,2025-06-11T08:56:14.126196
441,-0.4460,0.7710,-0.1596,0.945,-24.080,14.490,0.93,0.0368,0.1273,0.2978,0.0174,2025-06-11T08:56:14.177362
442,-0.4670,0.7618,-0.1293,-0.770,-21.700,16.275,0.93,0.0368,0.1018,0.2978,0.0174,2025-06-11T08:56:14.177362
443,-0.4748,0.7505,-0.1166,-0.070,-20.510,16.870,0.93,0.0368,0.1018,0.2978,0.0174,2025-06-11T08:56:14.177362
444,-0.4807,0.7584,-0.1010,1.750,-19.740,16.205,0.93,0.0368,0.1018,0.2978,0.0087,2025-06-11T08:56:14.177362
445,-0.4836,0.7657,-0.1118,4.200,-20.160,14.315,0.93,0.0368,0.1018,0.2978,0.0087,2025-06-11T08:56:14.283855
446,-0.4895,0.7891,-0.0956,7.490,-22.400,11.900,0.93,0.0368,0.1018,0.2978,0.0174,2025-06-11T08:56:14.283855
447,-0.4963,0.8091,-0.0708,10.465,-26.145,8.295,0.93,0.0368,0.1018,0.2872,0.0087,2025-06-11T08:56:14.284317
448,-0.4909,0.8257,-0.0630,13.510,-31.360,5.005,0.93,0.0368,0.1018,0.3084,0.0174,2025-06-11T08:56:14.284317
449,-0.4460,0.8457,-0.0547,16.030,-35.245,1.330,0.93,0.0368,0.1018,0.2978,0.0087,2025-06-11T08:56:14.284317
450,-0.4182,0.9955,-0.0859,19.040,-37.345,-1.295,0.93,0.0368,0.1018,0.3190,0.0174,2025-06-11T08:56:14.284317
451,-0.3909,0.8886,-0.1069,21.490,-40.180,-4.095,0.93,0.0368,0.1018,0.3084,0.0087,2025-06-11T08:56:14.284317
452,-0.3431,0.9048,-0.0712,22.365,-40.460,-6.300,0.93,0.0368,0.1018,0.3190,0.0087,2025-06-11T08:56:14.284317
453,-0.2855,0.9101,-0.0581,21.385,-37.870,-8.470,0.93,0.0368,0.1273,0.3190,0.0174,2025-06-11T08:56:14.330478
454,-0.2904,0.9028,-0.0644,19.425,-34.755,-10.570,0.93,0.0368,0.1273,0.3296,0.0087,2025-06-11T08:56:14.330747
455,-0.3216,0.8999,-0.0634,16.975,-33.810,-13.790,0.93,0.0368,0.1018,0.3296,0.0174,2025-06-11T08:56:14.330747
456,-0.3611,0.8945,-0.0747,14.350,-37.415,-15.505,0.93,0.0368,0.1018,0.3402,0.0174,2025-06-11T08:56:14.384372
457,-0.4158,0.8760,-0.0927,12.985,-42.525,-17.675,0.93,0.0368,0.1273,0.3296,0.0174,2025-06-11T08:56:14.384372
458,-0.4177,0.8667,-0.0854,12.005,-48.685,-19.950,0.93,0.0368,0.1273,0.3402,0.0174,2025-06-11T08:56:14.384372
459,-0.3655,0.8501,-0.0917,11.340,-50.995,-21.980,0.93,0.0552,0.1018,0.3402,0.0087,2025-06-11T08:56:14.384372
460,-0.3548,0.8389,-0.0839,12.075,-47.880,-23.940,0.93,0.0184,0.1018,0.3616,0.0174,2025-06-11T08:56:14.512956
461,-0.3865,0.8320,-0.0600,12.985,-43.505,-25.410,0.93,0.0368,0.1273,0.3509,0.0087,2025-06-11T08:56:14.512956
462,-0.4041,0.8281,-0.0512,12.880,-42.035,-25.235,0.93,0.0368,0.1273,0.3509,0.0087,2025-06-11T08:56:14.512956
463,-0.4231,0.8408,-0.0630,13.545,-42.490,-23.170,0.93,0.0368,0.1273,0.3509,0.0087,2025-06-11T08:56:14.512956
464,-0.4548,0.8525,-0.0942,15.260,-42.420,-19.670,0.93,0.0368,0.1018,0.3509,0.0174,2025-06-11T08:56:14.512956
465,-0.4470,0.8560,-0.1225,18.375,-43.365,-16.240,0.93,0.0184,0.1273,0.3402,0.0087,2025-06-11T08:56:14.512956
466,-0.4236,0.8599,-0.1210,21.105,-41.965,-11.480,0.93,0.0368,0.1273,0.3509,0.0087,2025-06-11T08:56:14.512956
467,-0.4036,0.8647,-0.1166,22.890,-36.295,-7.630,0.93,0.0368,0.1273,0.3509,0.0174,2025-06-11T08:56:14.512956
468,-0.4109,0.8691,-0.1127,24.010,-30.870,-2.310,0.93,0.0552,0.1273,0.3616,0.0087,2025-06-11T08:56:14.513967
469,-0.4192,0.8701,-0.1157,22.890,-26.250,1.995,0.93,0.0368,0.1273,0.3509,0.0087,2025-06-11T08:56:14.513967
470,-0.4573,0.8711,-0.1176,21.000,-24.150,7.000,0.93,0.0368,0.1273,0.3509,0.0087,2025-06-11T08:56:14.786355
471,-0.4851,0.8706,-0.1039,17.605,-26.530,11.305,0.93,0.0368,0.1273,0.3509,0.0087,2025-06-11T08:56:14.786355
472,-0.4841,0.8701,-0.0493,14.070,-31.360,16.695,0.93,0.0368,0.1018,0.3616,0.0174,2025-06-11T08:56:14.786355
473,-0.4768,0.8623,-0.0200,10.885,-37.730,21.455,0.93,0.0368,0.1273,0.3402,0.0174,2025-06-11T08:56:14.786355
474,-0.4621,0.8486,-0.0239,9.450,-42.420,25.900,0.93,0.0368,0.1018,0.3509,0.0087,2025-06-11T08:56:14.786355
475,-0.4250,0.8413,-0.0346,9.555,-45.570,29.505,0.93,0.0368,0.1018,0.3296,0.0087,2025-06-11T08:56:14.786355
476,-0.4080,0.8306,-0.0395,11.655,-46.585,30.975,0.93,0.0368,0.1018,0.3084,0.0087,2025-06-11T08:56:14.786355
477,-0.3865,0.8042,-0.0654,15.960,-46.935,31.745,0.93,0.0368,0.1018,0.3509,0.0087,2025-06-11T08:56:14.786355
478,-0.3670,0.7857,-0.0766,22.960,-46.445,30.240,0.93,0.0368,0.1273,0.3296,0.0174,2025-06-11T08:56:14.786355
479,-0.3079,0.7676,-0.1147,30.835,-44.625,26.600,0.93,0.0184,0.1273,0.3084,0.0087,2025-06-11T08:56:14.786355
480,-0.3011,0.7793,-0.1074,41.790,-39.305,21.630,0.93,0.0368,0.1273,0.2978,0.0087,2025-06-11T08:56:14.786355
481,-0.3001,0.7954,-0.1078,50.960,-34.860,12.705,0.93,0.0368,0.1273,0.2978,0.0174,2025-06-11T08:56:14.786355
482,-0.3167,0.8301,-0.1088,61.285,-36.015,5.250,0.93,0.0184,0.1018,0.2978,0.0087,2025-06-11T08:56:14.786355
483,-0.3484,0.8520,-0.1264,68.285,-44.170,-3.010,0.94,0.0368,0.1018,0.2872,0.0087,2025-06-11T08:56:14.786355
484,-0.3514,0.8516,-0.1513,74.795,-59.255,-9.135,0.94,0.0368,0.1018,0.2872,0.0087,2025-06-11T08:56:14.897779
485,-0.3128,0.8491,-0.1703,77.665,-70.455,-15.225,0.94,0.0368,0.1018,0.2978,0.0087,2025-06-11T08:56:14.897779
486,-0.2406,0.8569,-0.2230,78.820,-75.985,-20.825,0.94,0.0368,0.1018,0.2872,0.0174,2025-06-11T08:56:14.897779
487,-0.1825,0.8965,-0.3123,80.010,-76.335,-22.120,0.94,0.0368,0.1018,0.2767,0.0087,2025-06-11T08:56:14.897779
488,-0.1347,0.9540,-0.3767,78.470,-71.960,-20.650,0.94,0.0184,0.1018,0.2872,0.0174,2025-06-11T08:56:14.897779
489,-0.1025,0.9941,-0.4738,77.035,-66.780,-15.505,0.94,0.0368,0.1018,0.2767,0.0087,2025-06-11T08:56:14.897779
490,-0.0878,1.0228,-0.4709,73.395,-55.650,-6.055,0.94,0.0368,0.1018,0.2872,0.0174,2025-06-11T08:56:14.897779
491,-0.0166,1.0487,-0.4665,65.170,-34.545,-0.770,0.94,0.0368,0.1018,0.2978,0.0174,2025-06-11T08:56:14.897779
492,0.0210,1.0736,-0.4773,57.575,-6.265,6.860,0.94,0.0184,0.1273,0.2872,0.0174,2025-06-11T08:56:14.897779
493,-0.0337,1.0702,-0.5056,47.600,24.885,14.280,0.94,0.0184,0.1018,0.2767,0.0174,2025-06-11T08:56:14.897779
494,-0.1708,1.0809,-0.5700,37.240,41.055,21.140,0.94,0.0368,0.1018,0.2872,0.0087,2025-06-11T08:56:14.898848
495,-0.2660,1.0736,-0.5929,26.425,50.785,23.905,0.94,0.0368,0.1273,0.2978,0.0087,2025-06-11T08:56:14.898848
496,-0.3211,1.0565,-0.5788,17.815,53.340,23.800,0.94,0.0184,0.1018,0.3084,0.0087,2025-06-11T08:56:14.898848
497,-0.3699,1.0341,-0.5710,7.875,52.325,21.595,0.94,0.0368,0.1018,0.2978,0.0087,2025-06-11T08:56:14.898848
498,-0.4143,1.0024,-0.5675,0.385,50.610,17.990,0.94,0.0368,0.1273,0.3084,0.0174,2025-06-11T08:56:15.201412
499,-0.4529,0.9833,-0.5461,-5.915,46.445,15.155,0.95,0.0368,0.1273,0.3190,0.0087,2025-06-11T08:56:15.201412
500,-0.4821,0.9594,-0.5480,-9.415,43.190,12.285,0.94,0.0368,0.1018,0.3084,0.0174,2025-06-11T08:56:15.201412
501,-0.5065,0.9453,-0.5568,-12.320,40.530,8.995,0.94,0.0368,0.1273,0.3296,0.0174,2025-06-11T08:56:15.372128
502,-0.4778,0.9277,-0.5549,-13.370,40.705,7.525,0.95,0.0368,0.1018,0.3296,0.0174,2025-06-11T08:56:15.372128
503,-0.4719,0.9130,-0.5329,-13.370,46.620,5.250,0.94,0.0368,0.1018,0.3296,0.0174,2025-06-11T08:56:15.372128
504,-0.4782,0.8984,-0.4782,-14.385,53.235,3.045,0.94,0.0184,0.1018,0.2872,0.0087,2025-06-11T08:56:15.372128
505,-0.4865,0.8740,-0.4158,-16.170,58.065,1.680,0.94,0.0368,0.1018,0.2767,0.0174,2025-06-11T08:56:15.372128
506,-0.5197,0.8735,-0.3689,-20.335,53.515,0.490,0.94,0.0368,0.1018,0.2872,0.0087,2025-06-11T08:56:15.372128
507,-0.5461,0.8286,-0.3231,-19.740,44.205,-0.525,0.95,0.0368,0.1018,0.2872,0.0087,2025-06-11T08:56:15.372128
508,-0.5319,0.8164,-0.3245,-26.635,36.785,-0.840,0.94,0.0184,0.0762,0.2978,0.0174,2025-06-11T08:56:15.372128
509,-0.5339,0.8032,-0.3245,-26.845,28.980,-2.905,0.94,0.0368,0.1018,0.2872,0.0087,2025-06-11T08:56:15.372128
510,-0.5178,0.8159,-0.3265,-27.020,16.030,-3.885,0.94,0.0184,0.0762,0.2662,0.0087,2025-06-11T08:56:15.372128
511,-0.4963,0.8213,-0.3636,-25.550,4.410,-2.275,0.94,0.0184,0.0762,0.2557,0.0087,2025-06-11T08:56:15.372128
512,-0.4616,0.8184,-0.3582,-23.170,-5.705,1.085,0.95,0.0184,0.1018,0.2557,0.0174,2025-06-11T08:56:15.372128
513,-0.4202,0.8062,-0.3645,-22.820,-7.525,4.445,0.94,0.0184,0.0762,0.2767,0.0174,2025-06-11T08:56:15.372128
514,-0.3782,0.7993,-0.3792,-20.755,-7.175,9.695,0.94,0.0368,0.1018,0.2872,0.0087,2025-06-11T08:56:15.372128
515,-0.3816,0.8052,-0.3875,-19.285,-5.530,13.055,0.95,0.0368,0.1273,0.2872,0.0174,2025-06-11T08:56:15.372128
516,-0.3977,0.8203,-0.4143,-16.870,-3.080,14.735,0.95,0.0368,0.0762,0.2872,0.0174,2025-06-11T08:56:15.373126
517,-0.4280,0.8379,-0.4333,-14.910,-4.305,15.015,0.95,0.0184,0.1018,0.3084,0.0087,2025-06-11T08:56:15.373126
518,-0.4441,0.8384,-0.4016,-11.690,-9.485,15.330,0.95,0.0184,0.1018,0.3190,0.0087,2025-06-11T08:56:15.373126
519,-0.4446,0.8272,-0.3733,-9.800,-19.285,16.345,0.94,0.0368,0.1018,0.3509,0.0087,2025-06-11T08:56:15.373126
520,-0.4299,0.8223,-0.3099,-9.030,-28.490,18.235,0.94,0.0368,0.1018,0.3723,0.0087,2025-06-11T08:56:15.373126
521,-0.4104,0.8198,-0.3035,-8.855,-40.040,21.420,0.94,0.0184,0.1018,0.3830,0.0087,2025-06-11T08:56:15.373126
522,-0.3753,0.8130,-0.3640,-8.610,-47.460,24.395,0.94,0.0184,0.1018,0.4045,0.0087,2025-06-11T08:56:15.373126
523,-0.3377,0.8159,-0.3699,-7.735,-49.630,26.355,0.94,0.0368,0.1018,0.4262,0.0174,2025-06-11T08:56:15.373126
524,-0.3094,0.8286,-0.3709,-6.265,-47.705,26.810,0.94,0.0368,0.0762,0.4587,0.0087,2025-06-11T08:56:15.373126
525,-0.3187,0.8267,-0.3753,-5.040,-46.725,27.300,0.94,0.0184,0.0508,0.4696,0.0087,2025-06-11T08:56:15.373126
526,-0.3123,0.8272,-0.3733,-4.025,-49.665,26.845,0.94,0.0368,0.0762,0.5025,0.0087,2025-06-11T08:56:15.373126
527,-0.2855,0.8179,-0.3787,-4.060,-53.655,26.810,0.94,0.0368,0.1018,0.4915,0.0087,2025-06-11T08:56:15.373126
528,-0.2650,0.8130,-0.3723,-3.955,-56.980,25.830,0.94,0.0368,0.0508,0.4915,0.0087,2025-06-11T08:56:15.621623
529,-0.2416,0.8013,-0.3470,-4.235,-57.575,23.695,0.94,0.0368,0.1018,0.4915,0.0174,2025-06-11T08:56:15.621623
530,-0.2030,0.7945,-0.3426,-4.725,-57.365,20.650,0.94,0.0368,0.1018,0.4915,0.0174,2025-06-11T08:56:15.621623
531,-0.1923,0.7867,-0.3431,-4.515,-56.175,17.780,0.94,0.0368,0.1018,0.4915,0.0087,2025-06-11T08:56:15.621623
532,-0.1957,0.7842,-0.3201,-4.095,-54.985,12.880,0.94,0.0368,0.0762,0.4696,0.0174,2025-06-11T08:56:15.621623
533,-0.1928,0.7823,-0.3045,-3.010,-55.650,8.750,0.94,0.0368,0.1018,0.4806,0.0087,2025-06-11T08:56:15.621623
534,-0.1928,0.7998,-0.3089,-1.365,-58.205,4.200,0.94,0.0368,0.0762,0.4806,0.0087,2025-06-11T08:56:15.621623
535,-0.2089,0.8252,-0.3333,2.520,-64.015,1.400,0.94,0.0368,0.0762,0.4806,0.0087,2025-06-11T08:56:15.621623
536,-0.1986,0.8472,-0.3719,6.370,-68.880,-0.700,0.94,0.0368,0.1018,0.4696,0.0087,2025-06-11T08:56:15.621623
537,-0.1376,0.8599,-0.3684,10.605,-69.405,-0.980,0.94,0.0184,0.1018,0.4696,0.0087,2025-06-11T08:56:15.621623
538,-0.1005,0.8667,-0.3762,12.950,-65.240,0.245,0.94,0.0368,0.1018,0.4370,0.0087,2025-06-11T08:56:15.621623
539,-0.1069,0.8901,-0.3836,15.190,-57.540,2.625,0.94,0.0184,0.0762,0.4262,0.0087,2025-06-11T08:56:15.621623
540,-0.1054,0.9170,-0.4026,18.445,-50.820,4.200,0.94,0.0184,0.0762,0.4045,0.0087,2025-06-11T08:56:15.621623
541,-0.1161,0.9565,-0.4128,21.735,-42.350,5.495,0.94,0.0184,0.1273,0.4153,0.0087,2025-06-11T08:56:15.621623
542,-0.1308,0.9740,-0.3967,24.990,-34.790,5.775,0.94,0.0368,0.1018,0.4045,0.0087,2025-06-11T08:56:15.621623
543,-0.1596,0.9775,-0.3221,25.340,-27.580,4.725,0.94,0.0368,0.1273,0.3938,0.0174,2025-06-11T08:56:15.751222
544,-0.1869,0.9799,-0.2020,21.455,-25.165,3.640,0.94,0.0368,0.0762,0.3938,0.0087,2025-06-11T08:56:15.751222
545,-0.2440,0.9809,-0.1230,16.275,-27.195,1.995,0.94,0.0368,0.1018,0.3723,0.0087,2025-06-11T08:56:15.751222
546,-0.2469,0.9780,-0.1118,10.955,-31.850,-0.280,0.94,0.0184,0.1273,0.3830,0.0087,2025-06-11T08:56:15.751222
547,-0.2269,0.9945,-0.1083,6.300,-34.370,-4.025,0.94,0.0368,0.1273,0.3723,0.0087,2025-06-11T08:56:15.751222
548,-0.2001,1.0038,-0.0952,1.505,-32.760,-7.840,0.94,0.0368,0.1273,0.3723,0.0000,2025-06-11T08:56:15.751222
549,-0.1845,1.0136,-0.0834,-2.695,-28.000,-11.585,0.94,0.0368,0.1018,0.3830,0.0087,2025-06-11T08:56:15.751222
550,-0.1981,1.0131,-0.0888,-7.875,-21.490,-15.820,0.94,0.0184,0.1273,0.3830,0.0087,2025-06-11T08:56:15.751222
551,-0.2245,1.0077,-0.0888,-11.725,-18.235,-18.865,0.94,0.0368,0.1018,0.3830,0.0174,2025-06-11T08:56:15.751222
552,-0.2640,0.9999,-0.1132,-14.805,-18.795,-20.860,0.94,0.0368,0.0762,0.3830,0.0087,2025-06-11T08:56:15.751222
553,-0.2894,1.0058,-0.1684,-16.275,-22.365,-20.685,0.94,0.0368,0.1018,0.3830,0.0174,2025-06-11T08:56:15.751222
554,-0.2718,0.9906,-0.2064,-20.055,-26.425,-19.075,0.94,0.0184,0.1018,0.3830,0.0087,2025-06-11T08:56:15.751222
555,-0.2386,0.9780,-0.2152,-17.780,-28.245,-16.065,0.94,0.0368,0.1018,0.3616,0.0174,2025-06-11T08:56:15.751988
556,-0.2040,0.9565,-0.2191,-17.920,-17.220,-12.425,0.94,0.0368,0.1018,0.3616,0.0087,2025-06-11T08:56:15.751988
557,-0.1981,0.9414,-0.2381,-19.670,-6.965,-9.590,0.94,0.0368,0.1018,0.3616,0.0174,2025-06-11T08:56:15.751988
558,-0.2201,0.9199,-0.2396,-20.580,0.280,-6.230,0.94,0.0184,0.1018,0.3616,0.0087,2025-06-11T08:56:15.751988
559,-0.2640,0.9023,-0.2313,-22.330,6.580,-3.115,0.94,0.0184,0.1018,0.3616,0.0174,2025-06-11T08:56:15.751988
560,-0.3021,0.8877,-0.2157,-24.360,6.475,8.855,0.94,0.0368,0.1018,0.3402,0.0087,2025-06-11T08:56:15.802925
561,-0.3192,0.8735,-0.2050,-26.005,2.135,3.675,0.94,0.0368,0.1273,0.3616,0.0174,2025-06-11T08:56:15.802925
562,-0.3128,0.8623,-0.2011,-26.740,0.245,6.510,0.94,0.0368,0.1273,0.3509,0.0087,2025-06-11T08:56:15.802925
563,-0.2948,0.8525,-0.1874,-27.195,2.065,7.490,0.94,0.0184,0.1273,0.3509,0.0174,2025-06-11T08:56:15.802925
564,-0.2913,0.8442,-0.1688,-27.125,5.880,7.665,0.94,0.0368,0.1273,0.3402,0.0087,2025-06-11T08:56:15.802925
565,-0.2933,0.8442,-0.1503,-26.285,9.625,7.700,0.94,0.0184,0.1273,0.3296,0.0174,2025-06-11T08:56:15.920662
566,-0.3113,0.8520,-0.1279,-25.130,10.780,7.420,0.94,0.0368,0.1273,0.3296,0.0174,2025-06-11T08:56:15.920662
567,-0.3304,0.8555,-0.1279,-22.715,10.115,6.090,0.94,0.0552,0.1529,0.3402,0.0087,2025-06-11T08:56:15.920662
568,-0.3553,0.8599,-0.1279,-19.250,8.505,4.340,0.94,0.0368,0.1273,0.3402,0.0174,2025-06-11T08:56:15.920662
569,-0.3553,0.8667,-0.1279,-15.015,6.300,2.345,0.94,0.0368,0.1273,0.3509,0.0087,2025-06-11T08:56:15.920662
570,-0.3533,0.8725,-0.1357,-12.495,5.880,1.050,0.94,0.0184,0.1273,0.3509,0.0174,2025-06-11T08:56:15.920662
571,-0.3543,0.8818,-0.1420,-9.765,5.635,-0.700,0.94,0.0368,0.1273,0.3616,0.0087,2025-06-11T08:56:15.920662
572,-0.3499,0.8847,-0.1410,-5.880,10.220,-2.625,0.94,0.0368,0.1273,0.3509,0.0087,2025-06-11T08:56:15.920662
573,-0.3728,0.8882,-0.1391,-4.095,13.475,-4.410,0.94,0.0368,0.1273,0.3402,0.0087,2025-06-11T08:56:16.218206
574,-0.4153,0.9004,-0.1352,-2.870,13.825,-6.370,0.94,0.0368,0.1273,0.3616,0.0174,2025-06-11T08:56:16.218206
575,-0.4494,0.9077,-0.1205,-2.275,11.375,-7.840,0.94,0.0368,0.1273,0.3509,0.0174,2025-06-11T08:56:16.218206
576,-0.4587,0.9170,-0.1078,-2.870,6.755,-8.680,0.94,0.0368,0.1273,0.3509,0.0174,2025-06-11T08:56:16.218206
577,-0.4621,0.9321,-0.0991,-2.800,1.120,-9.170,0.94,0.0368,0.1273,0.3402,0.0174,2025-06-11T08:56:16.218206
578,-0.4480,0.9360,-0.1005,-2.345,-2.240,-9.590,0.94,0.0368,0.1273,0.3402,0.0087,2025-06-11T08:56:16.218206
579,-0.4221,0.9438,-0.0986,-1.610,-3.185,-9.975,0.94,0.0368,0.1018,0.3402,0.0174,2025-06-11T08:56:16.218206
580,-0.4085,0.9482,-0.0996,-0.735,-3.395,-9.835,0.94,0.0368,0.1018,0.3296,0.0174,2025-06-11T08:56:16.218206
581,-0.4050,0.9511,-0.0947,-0.105,-3.115,-9.380,0.94,0.0368,0.1018,0.3402,0.0087,2025-06-11T08:56:16.218206
582,-0.3943,0.9575,-0.0927,0.210,-2.940,-8.855,0.94,0.0368,0.1018,0.3296,0.0087,2025-06-11T08:56:16.218206
583,-0.3904,0.9589,-0.0913,-0.560,-2.485,-8.260,0.94,0.0368,0.1273,0.3296,0.0087,2025-06-11T08:56:16.218206
584,-0.3880,0.9531,-0.0981,-1.260,-1.995,-7.245,0.94,0.0368,0.1273,0.3509,0.0087,2025-06-11T08:56:16.218206
585,-0.3963,0.9462,-0.0932,-2.345,-2.485,-5.740,0.94,0.0368,0.1273,0.3402,0.0174,2025-06-11T08:56:16.218206
586,-0.3992,0.9350,-0.1020,-3.745,-4.690,-4.410,0.94,0.0368,0.1273,0.3509,0.0174,2025-06-11T08:56:16.218206
587,-0.3972,0.9209,-0.1132,-5.285,-7.735,-2.520,0.94,0.0368,0.1018,0.3616,0.0174,2025-06-11T08:56:16.218206
588,-0.3821,0.9096,-0.1283,-6.755,-9.275,-1.120,0.94,0.0368,0.1273,0.3402,0.0174,2025-06-11T08:56:16.218206
589,-0.3606,0.8960,-0.1386,-7.385,-9.555,0.490,0.94,0.0368,0.1018,0.3402,0.0087,2025-06-11T08:56:16.330317
590,-0.3577,0.8818,-0.1479,-8.015,-8.330,1.540,0.94,0.0368,0.1273,0.3296,0.0087,2025-06-11T08:56:16.331096
591,-0.3533,0.8657,-0.1523,-8.470,-7.210,2.485,0.94,0.0368,0.1018,0.3402,0.0174,2025-06-11T08:56:16.331096
592,-0.3465,0.8511,-0.1474,-8.855,-5.285,3.045,0.94,0.0552,0.1018,0.3509,0.0174,2025-06-11T08:56:16.331096
593,-0.3484,0.8384,-0.1401,-8.890,-3.675,3.080,0.94,0.0368,0.1018,0.3616,0.0174,2025-06-11T08:56:16.331096
594,-0.3431,0.8408,-0.1313,-8.995,-2.660,2.695,0.94,0.0552,0.1018,0.3616,0.0174,2025-06-11T08:56:16.331570
595,-0.3450,0.8452,-0.1327,-8.645,-2.030,1.750,0.94,0.0368,0.1273,0.3402,0.0087,2025-06-11T08:56:16.332214
596,-0.3494,0.8550,-0.1264,-8.120,-0.980,-0.245,0.94,0.0368,0.1018,0.3509,0.0174,2025-06-11T08:56:16.332214
597,-0.3504,0.8618,-0.1225,-7.315,-0.315,-2.520,0.94,0.0368,0.1018,0.3509,0.0087,2025-06-11T08:56:16.332214
598,-0.3587,0.8691,-0.1000,-6.510,-0.070,-5.145,0.94,0.0368,0.0762,0.3402,0.0087,2025-06-11T08:56:16.332214
599,-0.3616,0.8750,-0.0859,-5.950,-0.525,-8.295,0.94,0.0368,0.0762,0.3509,0.0087,2025-06-11T08:56:16.332214
600,-0.3567,0.8872,-0.0576,-5.635,-1.015,-10.745,0.94,0.0368,0.0762,0.3509,0.0087,2025-06-11T08:56:16.332214
601,-0.3689,0.9184,-0.0405,-5.565,-2.030,-12.880,0.94,0.0368,0.0508,0.3509,0.0174,2025-06-11T08:56:16.332214
602,-0.3870,0.9462,-0.0273,-5.355,-5.530,-13.790,0.94,0.0184,0.1018,0.3616,0.0087,2025-06-11T08:56:16.332214
603,-0.3855,0.9511,-0.0278,-5.285,-9.100,-13.545,0.94,0.0368,0.1018,0.3616,0.0174,2025-06-11T08:56:16.332214
604,-0.3719,0.9321,-0.0181,-4.725,-12.040,-12.145,0.94,0.0368,0.1018,0.3616,0.0087,2025-06-11T08:56:16.385898
605,-0.3494,0.9013,-0.0171,-3.220,-11.935,-10.780,0.94,0.0368,0.1018,0.3938,0.0174,2025-06-11T08:56:16.385898
606,-0.3221,0.8862,-0.0415,-0.455,-9.520,-8.995,0.94,0.0368,0.0762,0.3723,0.0174,2025-06-11T08:56:16.385898
607,-0.3196,0.8808,-0.0737,4.410,-6.615,-8.330,0.94,0.0368,0.1018,0.3830,0.0087,2025-06-11T08:56:16.385898
608,-0.3416,0.8764,-0.0971,8.050,-4.480,-7.805,0.94,0.0552,0.1273,0.3616,0.0087,2025-06-11T08:56:16.635331
609,-0.3733,0.8667,-0.1074,11.375,-4.760,-6.965,0.94,0.0368,0.1273,0.3402,0.0174,2025-06-11T08:56:16.635331
610,-0.4163,0.8569,-0.1200,12.845,-7.630,-5.775,0.94,0.0552,0.1018,0.3296,0.0087,2025-06-11T08:56:16.635331
611,-0.4314,0.8423,-0.1503,13.440,-12.740,-4.480,0.94,0.0552,0.1018,0.3509,0.0174,2025-06-11T08:56:16.635331
612,-0.4480,0.8320,-0.1786,13.545,-16.625,-2.905,0.94,0.0368,0.1018,0.3723,0.0174,2025-06-11T08:56:16.635331
613,-0.4426,0.8311,-0.1996,14.455,-19.635,-2.275,0.94,0.0368,0.1018,0.3938,0.0174,2025-06-11T08:56:16.635331
614,-0.4407,0.8398,-0.2259,16.240,-20.335,-1.610,0.94,0.0368,0.1018,0.3938,0.0087,2025-06-11T08:56:16.635331
615,-0.4324,0.8384,-0.2181,18.550,-19.215,-0.875,0.94,0.0368,0.1018,0.3830,0.0087,2025-06-11T08:56:16.635331
616,-0.4055,0.8408,-0.1928,21.175,-15.785,-0.280,0.94,0.0184,0.1273,0.3830,0.0174,2025-06-11T08:56:16.635331
617,-0.4016,0.8496,-0.1679,22.575,-10.395,0.560,0.94,0.0368,0.1018,0.3723,0.0087,2025-06-11T08:56:16.635331
618,-0.4143,0.8633,-0.1362,23.800,-7.735,1.190,0.94,0.0184,0.1273,0.3723,0.0087,2025-06-11T08:56:16.635964
619,-0.4504,0.8818,-0.1352,24.045,-17.570,1.785,0.94,0.0368,0.1018,0.3616,0.0174,2025-06-11T08:56:16.744045
620,-0.4597,0.8984,-0.1401,24.010,-14.280,2.310,0.94,0.0368,0.1018,0.3616,0.0087,2025-06-11T08:56:16.744045
621,-0.4285,0.9106,-0.1337,23.170,-18.865,2.975,0.94,0.0368,0.1273,0.3723,0.0087,2025-06-11T08:56:16.744045
622,-0.3797,0.9150,-0.1274,22.400,-19.740,4.340,0.94,0.0552,0.1273,0.3723,0.0087,2025-06-11T08:56:16.744045
623,-0.3606,0.9204,-0.1449,22.155,-17.010,6.160,0.94,0.0368,0.0762,0.3616,0.0174,2025-06-11T08:56:16.744045
624,-0.3645,0.9204,-0.1625,22.225,-13.755,7.315,0.94,0.0368,0.1018,0.3723,0.0087,2025-06-11T08:56:16.744045
625,-0.3689,0.9248,-0.1693,21.840,-12.705,8.400,0.94,0.0368,0.1018,0.3616,0.0087,2025-06-11T08:56:16.744045
626,-0.3909,0.9209,-0.1752,20.930,-12.915,9.765,0.94,0.0368,0.1018,0.3616,0.0087,2025-06-11T08:56:16.744045
627,-0.4075,0.9174,-0.1908,19.390,-14.525,10.780,0.94,0.0184,0.1018,0.3616,0.0174,2025-06-11T08:56:16.744045
628,-0.4211,0.9130,-0.2094,17.465,-17.185,12.145,0.94,0.0368,0.0762,0.3616,0.0174,2025-06-11T08:56:16.744045
629,-0.4207,0.9150,-0.2255,14.805,-18.410,13.265,0.94,0.0368,0.1018,0.3616,0.0174,2025-06-11T08:56:16.744045
630,-0.4275,0.9194,-0.2445,12.775,-18.935,14.525,0.94,0.0368,0.0762,0.3723,0.0087,2025-06-11T08:56:16.744045
631,-0.4465,0.9257,-0.2635,10.465,-20.195,15.330,0.94,0.0184,0.1018,0.3616,0.0087,2025-06-11T08:56:16.744045
632,-0.4529,0.9331,-0.2616,8.645,-22.260,15.820,0.94,0.0368,0.0762,0.3616,0.0087,2025-06-11T08:56:16.744045
633,-0.4490,0.9277,-0.2406,5.915,-24.185,16.030,0.94,0.0184,0.0762,0.3723,0.0174,2025-06-11T08:56:16.744045
634,-0.4348,0.9170,-0.2020,2.870,-25.935,16.485,0.94,0.0368,0.0762,0.3723,0.0174,2025-06-11T08:56:17.148926
635,-0.4280,0.9082,-0.1703,-1.015,-28.175,17.080,0.94,0.0368,0.0762,0.3616,0.0174,2025-06-11T08:56:17.149882
636,-0.4187,0.9067,-0.1488,-4.375,-30.310,17.780,0.94,0.0552,0.0762,0.3616,0.0174,2025-06-11T08:56:17.149882
637,-0.3933,0.8950,-0.1249,-8.050,-33.775,18.550,0.94,0.0368,0.1018,0.3509,0.0174,2025-06-11T08:56:17.149882
638,-0.3675,0.8799,-0.1103,-10.115,-36.785,19.110,0.94,0.0368,0.0762,0.3509,0.0174,2025-06-11T08:56:17.149882
639,-0.3328,0.8677,-0.1157,-9.485,-40.390,19.530,0.94,0.0368,0.1018,0.3509,0.0087,2025-06-11T08:56:17.149882
640,-0.3094,0.8618,-0.1410,-5.285,-42.630,18.620,0.94,0.0368,0.1018,0.3509,0.0087,2025-06-11T08:56:17.149882
641,-0.2865,0.8555,-0.1669,0.595,-43.470,15.295,0.94,0.0368,0.1018,0.3616,0.0087,2025-06-11T08:56:17.149882
642,-0.2928,0.8340,-0.2001,9.450,-41.860,10.640,0.94,0.0368,0.1018,0.3616,0.0087,2025-06-11T08:56:17.149882
643,-0.2928,0.8325,-0.1972,16.450,-37.905,4.305,0.94,0.0368,0.1273,0.3616,0.0087,2025-06-11T08:56:17.149882
644,-0.2957,0.8394,-0.1952,23.065,-34.685,-0.140,0.94,0.0368,0.1273,0.3616,0.0087,2025-06-11T08:56:17.149882
645,-0.3343,0.8477,-0.1937,26.915,-32.270,-4.865,0.94,0.0368,0.1273,0.3616,0.0174,2025-06-11T08:56:17.149882
646,-0.3670,0.8618,-0.1932,29.540,-31.815,-8.575,0.94,0.0368,0.1273,0.3616,0.0174,2025-06-11T08:56:17.149882
647,-0.3967,0.8804,-0.2152,30.485,-34.860,-11.865,0.94,0.0368,0.1018,0.3723,0.0174,2025-06-11T08:56:17.149882
648,-0.4314,0.8974,-0.2113,29.890,-39.165,-13.930,0.94,0.0368,0.1273,0.3723,0.0087,2025-06-11T08:56:17.149882
649,-0.4407,0.8974,-0.1845,27.230,-41.545,-15.785,0.94,0.0368,0.1018,0.3723,0.0174,2025-06-11T08:56:17.149882
650,-0.4260,0.9077,-0.1396,23.555,-44.205,-15.400,0.94,0.0552,0.1018,0.3830,0.0087,2025-06-11T08:56:17.149882
651,-0.3914,0.9179,-0.0937,17.920,-44.170,-13.650,0.94,0.0368,0.1273,0.3616,0.0174,2025-06-11T08:56:17.339301
652,-0.3826,0.9096,-0.0800,13.300,-42.035,-11.375,0.94,0.0552,0.1018,0.3723,0.0087,2025-06-11T08:56:17.339301
653,-0.3680,0.9057,-0.0659,9.800,-41.860,-9.940,0.94,0.0368,0.1018,0.3616,0.0087,2025-06-11T08:56:17.339301
654,-0.3328,0.9038,-0.0683,8.470,-42.140,-8.505,0.94,0.0368,0.1018,0.3723,0.0174,2025-06-11T08:56:17.339301
655,-0.3167,0.8955,-0.0917,9.590,-40.845,-8.435,0.94,0.0368,0.1273,0.3723,0.0174,2025-06-11T08:56:17.339301
656,-0.3070,0.8877,-0.1283,12.530,-38.290,-9.905,0.94,0.0368,0.1273,0.3723,0.0174,2025-06-11T08:56:17.339301
657,-0.3177,0.8877,-0.1659,17.325,-34.895,-11.690,0.94,0.0368,0.1273,0.3723,0.0087,2025-06-11T08:56:17.339301
658,-0.3460,0.8852,-0.2035,21.105,-32.200,-13.580,0.94,0.0184,0.1529,0.3616,0.0174,2025-06-11T08:56:17.339301
659,-0.3660,0.8882,-0.2216,24.500,-29.785,-14.315,0.94,0.0368,0.1273,0.3616,0.0174,2025-06-11T08:56:17.339301
660,-0.4143,0.8882,-0.2386,25.410,-29.050,-14.070,0.94,0.0552,0.1273,0.3616,0.0087,2025-06-11T08:56:17.339301
661,-0.4548,0.8813,-0.2674,24.850,-31.360,-12.425,0.94,0.0368,0.1273,0.3616,0.0174,2025-06-11T08:56:17.339301
662,-0.4807,0.8838,-0.2713,23.030,-33.460,-10.045,0.94,0.0368,0.1273,0.3616,0.0087,2025-06-11T08:56:17.339301
663,-0.4817,0.8813,-0.2601,18.550,-33.355,-7.140,0.94,0.0368,0.1273,0.3616,0.0087,2025-06-11T08:56:17.339301
664,-0.4734,0.8808,-0.2211,13.965,-31.920,-2.835,0.94,0.0368,0.1273,0.3616,0.0174,2025-06-11T08:56:17.339301
665,-0.4641,0.8867,-0.1937,9.520,-28.805,3.010,0.94,0.0368,0.1529,0.3723,0.0087,2025-06-11T08:56:17.339301
666,-0.4738,0.8867,-0.1679,4.865,-27.965,7.840,0.94,0.0368,0.1273,0.3830,0.0087,2025-06-11T08:56:17.339301
667,-0.4695,0.8823,-0.1362,2.065,-29.925,13.930,0.94,0.0184,0.1273,0.3830,0.0087,2025-06-11T08:56:17.339301
668,-0.4363,0.8730,-0.1039,0.840,-32.410,18.550,0.94,0.0184,0.1273,0.3723,0.0087,2025-06-11T08:56:17.339301
669,-0.4011,0.8647,-0.1015,1.470,-30.100,22.365,0.94,0.0552,0.1273,0.3830,0.0087,2025-06-11T08:56:17.339301
670,-0.3777,0.8584,-0.1044,4.165,-24.430,23.485,0.94,0.0368,0.1018,0.3830,0.0174,2025-06-11T08:56:17.339301
671,-0.3636,0.8555,-0.0971,6.650,-16.275,23.135,0.94,0.0368,0.1273,0.3830,0.0087,2025-06-11T08:56:17.339301
672,-0.3670,0.8555,-0.0839,9.030,-11.375,22.435,0.94,0.0368,0.1273,0.3830,0.0174,2025-06-11T08:56:17.352114
673,-0.3880,0.8569,-0.0859,10.500,-8.470,20.475,0.94,0.0368,0.1273,0.3830,0.0174,2025-06-11T08:56:17.352114
674,-0.4099,0.8701,-0.0952,10.605,-8.855,17.675,0.94,0.0368,0.1273,0.3830,0.0174,2025-06-11T08:56:17.352114
675,-0.4168,0.8877,-0.0961,9.940,-11.795,15.085,0.94,0.0368,0.1273,0.3830,0.0087,2025-06-11T08:56:17.352114
676,-0.4202,0.9091,-0.1015,8.400,-14.245,12.320,0.94,0.0368,0.1018,0.3830,0.0174,2025-06-11T08:56:17.352114
677,-0.4080,0.9209,-0.1098,5.950,-15.995,9.520,0.94,0.0368,0.1018,0.3938,0.0174,2025-06-11T08:56:17.352114
678,-0.3914,0.9248,-0.1176,2.415,-15.610,8.050,0.94,0.0184,0.1018,0.3830,0.0174,2025-06-11T08:56:17.352114
679,-0.3782,0.9223,-0.1220,-0.945,-12.670,6.580,0.94,0.0368,0.1018,0.3938,0.0174,2025-06-11T08:56:17.656916
680,-0.3597,0.9130,-0.1230,-5.180,-8.505,5.355,0.94,0.0368,0.1018,0.3938,0.0087,2025-06-11T08:56:17.656916
681,-0.3499,0.9057,-0.1332,-8.435,-3.745,4.305,0.94,0.0368,0.1018,0.3938,0.0174,2025-06-11T08:56:17.656916
682,-0.3616,0.8979,-0.1479,-12.495,1.155,3.325,0.94,0.0368,0.1273,0.3938,0.0087,2025-06-11T08:56:17.656916
683,-0.3684,0.9013,-0.1669,-15.645,2.870,2.625,0.94,0.0368,0.1273,0.3938,0.0087,2025-06-11T08:56:17.656916
684,-0.3694,0.9013,-0.1776,-19.005,2.800,2.520,0.94,0.0184,0.1018,0.3938,0.0087,2025-06-11T08:56:17.656916
685,-0.3621,0.9052,-0.1835,-22.015,3.255,2.555,0.94,0.0368,0.1018,0.3938,0.0087,2025-06-11T08:56:17.656916
686,-0.3348,0.9018,-0.1908,-24.955,6.335,2.135,0.94,0.0368,0.1018,0.3938,0.0087,2025-06-11T08:56:17.656916
687,-0.3128,0.9008,-0.1869,-28.455,11.305,1.785,0.94,0.0368,0.1018,0.3938,0.0087,2025-06-11T08:56:17.656916
688,-0.2982,0.9140,-0.1835,-30.660,19.180,1.260,0.94,0.0552,0.1018,0.3938,0.0174,2025-06-11T08:56:17.656916
689,-0.2967,0.9340,-0.1957,-31.920,26.285,0.560,0.94,0.0184,0.1273,0.3938,0.0087,2025-06-11T08:56:17.656916
690,-0.3070,0.9672,-0.2113,-31.815,33.285,-0.385,0.94,0.0368,0.1018,0.3938,0.0174,2025-06-11T08:56:17.656916
691,-0.3070,0.9960,-0.1830,-31.115,37.450,-1.050,0.94,0.0368,0.1018,0.4045,0.0087,2025-06-11T08:56:17.656916
692,-0.3314,1.0058,-0.1786,-30.100,40.110,-1.820,0.94,0.0368,0.1018,0.3938,0.0087,2025-06-11T08:56:17.656916
693,-0.3314,1.0092,-0.1615,-28.035,42.420,-2.275,0.93,0.0368,0.1018,0.4045,0.0087,2025-06-11T08:56:17.656916
694,-0.3357,0.9999,-0.1303,-26.775,44.870,-3.080,0.94,0.0368,0.1018,0.4045,0.0174,2025-06-11T08:56:17.799110
695,-0.3392,0.9819,-0.1176,-25.130,48.230,-3.710,0.94,0.0368,0.1018,0.4045,0.0174,2025-06-11T08:56:17.799110
696,-0.3479,0.9545,-0.1015,-23.765,50.750,-4.865,0.93,0.0368,0.1273,0.3938,0.0174,2025-06-11T08:56:17.799110
697,-0.3938,0.9223,-0.1103,-23.555,49.245,-6.545,0.93,0.0368,0.1273,0.3938,0.0087,2025-06-11T08:56:17.799110
698,-0.3880,0.8896,-0.1225,-23.135,42.945,-7.315,0.93,0.0368,0.1018,0.3616,0.0087,2025-06-11T08:56:17.799110
699,-0.3567,0.8574,-0.1083,-22.750,34.370,-6.790,0.93,0.0368,0.1018,0.3509,0.0087,2025-06-11T08:56:17.799110
700,-0.3260,0.8296,-0.0932,-22.925,29.435,-6.195,0.93,0.0184,0.1018,0.3616,0.0087,2025-06-11T08:56:17.799110
701,-0.3016,0.8023,-0.0986,-22.890,26.040,-5.005,0.92,0.0368,0.1018,0.3190,0.0087,2025-06-11T08:56:17.799110
702,-0.2996,0.7686,-0.1118,-22.435,21.175,-3.115,0.92,0.0368,0.1018,0.3402,0.0087,2025-06-11T08:56:17.799110
703,-0.3060,0.7388,-0.1835,-21.175,16.625,-1.260,0.92,0.0368,0.1018,0.3190,0.0174,2025-06-11T08:56:17.799110
704,-0.3221,0.7100,-0.2103,-17.780,9.345,1.540,0.92,0.0368,0.1018,0.3084,0.0087,2025-06-11T08:56:17.799110
705,-0.3084,0.7198,-0.2118,-13.860,7.630,2.275,0.91,0.0368,0.1018,0.3296,0.0087,2025-06-11T08:56:17.799110
706,-0.2284,0.7291,-0.1732,-7.980,11.165,3.220,0.90,0.0184,0.1018,0.3402,0.0087,2025-06-11T08:56:17.800118
707,-0.1889,0.7710,-0.1054,-1.785,22.295,2.975,0.90,0.0368,0.1273,0.2767,0.0087,2025-06-11T08:56:17.800118
708,-0.2015,0.8023,-0.1108,2.940,37.730,2.660,0.90,0.0368,0.1273,0.2872,0.0087,2025-06-11T08:56:17.800118
709,-0.2391,0.8496,-0.1342,6.615,46.445,2.380,0.90,0.0368,0.1018,0.3296,0.0174,2025-06-11T08:56:17.800118
710,-0.3074,0.8950,-0.1405,9.100,50.750,-0.070,0.90,0.0368,0.1018,0.3084,0.0087,2025-06-11T08:56:17.800118
711,-0.3177,0.9433,-0.1576,11.060,49.490,-1.260,0.90,0.0368,0.1018,0.4045,0.0087,2025-06-11T08:56:18.068478
712,-0.3338,0.9814,-0.1376,12.740,36.435,-1.330,0.90,0.0368,0.0762,0.3830,0.0174,2025-06-11T08:56:18.068478
713,-0.3074,1.0199,-0.0625,10.675,43.330,-2.380,0.90,0.0368,0.1018,0.3723,0.0087,2025-06-11T08:56:18.068478
714,-0.2830,1.0385,-0.0625,6.510,43.645,-2.520,0.90,0.0368,0.1018,0.3830,0.0174,2025-06-11T08:56:18.069362
715,-0.2694,1.0477,-0.0913,1.750,41.510,-1.435,0.90,0.0368,0.1018,0.4045,0.0087,2025-06-11T08:56:18.069362
716,-0.2752,1.0311,-0.1581,-0.420,38.500,-0.595,0.90,0.0368,0.1018,0.3830,0.0087,2025-06-11T08:56:18.069362
717,-0.2538,0.9950,-0.2030,-2.380,33.390,0.175,0.90,0.0368,0.0762,0.4045,0.0087,2025-06-11T08:56:18.069362
718,-0.2347,0.9794,-0.1654,-1.575,35.000,-1.680,0.90,0.0184,0.1018,0.3830,0.0087,2025-06-11T08:56:18.069362
719,-0.2172,0.9516,-0.1908,-1.295,39.795,-4.900,0.90,0.0368,0.1018,0.4370,0.0087,2025-06-11T08:56:18.069362
720,-0.1981,0.9335,-0.1918,0.350,43.645,-6.685,0.90,0.0368,0.1273,0.4370,0.0087,2025-06-11T08:56:18.069362
721,-0.2089,0.9370,-0.1693,1.435,45.955,-7.560,0.90,0.0368,0.1018,0.4370,0.0087,2025-06-11T08:56:18.069362
722,-0.2450,0.9350,-0.1874,1.225,44.765,-7.945,0.90,0.0368,0.1273,0.4370,0.0087,2025-06-11T08:56:18.069362
723,-0.2396,0.9150,-0.2884,1.680,35.595,-6.020,0.90,0.0368,0.1018,0.4045,0.0087,2025-06-11T08:56:18.069362
724,-0.2591,0.9111,-0.2747,2.520,25.340,-2.870,0.91,0.0368,0.0762,0.3723,0.0174,2025-06-11T08:56:18.207881
725,-0.2172,0.9150,-0.2303,3.745,25.340,-3.815,0.91,0.0184,0.1273,0.4153,0.0087,2025-06-11T08:56:18.207881
726,-0.1776,0.9135,-0.2255,4.235,30.590,-3.395,0.91,0.0368,0.1018,0.4045,0.0174,2025-06-11T08:56:18.207881
727,-0.2338,0.8974,-0.2011,4.970,35.735,-5.355,0.91,0.0184,0.1273,0.3938,0.0087,2025-06-11T08:56:18.207881
728,-0.3255,0.9023,-0.1684,4.095,34.615,-9.170,0.91,0.0368,0.1273,0.3616,0.0174,2025-06-11T08:56:18.207881
729,-0.3841,0.8867,-0.3362,4.760,18.410,-9.975,0.91,0.0184,0.1018,0.3509,0.0087,2025-06-11T08:56:18.208561
730,-0.3733,0.8838,-0.3421,6.650,-10.710,-7.525,0.91,0.0368,0.1018,0.3723,0.0087,2025-06-11T08:56:18.208561
731,-0.3289,0.9072,-0.2040,8.155,-24.115,-9.975,0.91,0.0368,0.1018,0.2767,0.0087,2025-06-11T08:56:18.208561
732,-0.0976,0.9062,-0.2274,8.260,-11.760,-10.325,0.91,0.0368,0.1018,0.2978,0.0087,2025-06-11T08:56:18.208561
733,-0.0561,0.9272,-0.2518,7.735,0.735,-11.655,0.91,0.0368,0.1273,0.2978,0.0087,2025-06-11T08:56:18.208561
734,-0.0712,0.9218,-0.2826,8.330,19.075,-14.245,0.91,0.0368,0.1273,0.2978,0.0087,2025-06-11T08:56:18.208561
735,-0.1093,0.9189,-0.2884,6.790,32.585,-13.685,0.92,0.0184,0.1018,0.3084,0.0087,2025-06-11T08:56:18.208561
736,-0.1557,0.9404,-0.2801,5.390,34.755,-12.425,0.92,0.0368,0.1018,0.3190,0.0174,2025-06-11T08:56:18.208561
737,-0.1752,0.9550,-0.2791,4.410,34.825,-11.060,0.92,0.0368,0.1018,0.3296,0.0174,2025-06-11T08:56:18.208561
738,-0.1874,0.9770,-0.2694,3.850,37.240,-10.955,0.92,0.0368,0.1018,0.3296,0.0174,2025-06-11T08:56:18.208561
739,-0.1937,0.9877,-0.2816,3.185,39.165,-10.465,0.92,0.0368,0.1018,0.3296,0.0087,2025-06-11T08:56:18.208561
740,-0.1996,0.9916,-0.2996,2.065,38.990,-8.680,0.92,0.0552,0.1018,0.3830,0.0174,2025-06-11T08:56:18.208561
741,-0.2108,0.9877,-0.3030,0.385,40.180,-5.810,0.92,0.0368,0.1018,0.3723,0.0174,2025-06-11T08:56:18.477950
742,-0.2020,0.9804,-0.3055,-2.100,43.995,-3.885,0.92,0.0368,0.1273,0.3723,0.0087,2025-06-11T08:56:18.477950
743,-0.2030,0.9594,-0.3372,-4.200,50.470,-1.785,0.92,0.0368,0.1018,0.3402,0.0174,2025-06-11T08:56:18.477950
744,-0.2167,0.9477,-0.3231,-5.740,55.965,-0.245,0.92,0.0368,0.1273,0.3296,0.0174,2025-06-11T08:56:18.478939
745,-0.2528,0.9335,-0.2967,-7.840,59.955,1.470,0.92,0.0368,0.1018,0.3402,0.0087,2025-06-11T08:56:18.478939
746,-0.3240,0.9189,-0.2972,-10.360,60.130,1.400,0.92,0.0184,0.0762,0.3296,0.0087,2025-06-11T08:56:18.478939
747,-0.3309,0.9043,-0.3011,-11.550,55.090,3.325,0.92,0.0368,0.1273,0.3296,0.0087,2025-06-11T08:56:18.478939
748,-0.3304,0.8843,-0.2904,-12.215,47.460,6.230,0.92,0.0184,0.1018,0.3402,0.0087,2025-06-11T08:56:18.478939
749,-0.3030,0.8735,-0.2826,-11.060,44.625,8.820,0.92,0.0368,0.0762,0.3190,0.0087,2025-06-11T08:56:18.478939
750,-0.2098,0.8721,-0.2962,-8.855,51.485,11.375,0.92,0.0368,0.0508,0.3190,0.0087,2025-06-11T08:56:18.479939
751,-0.1606,0.8779,-0.3187,-5.810,63.945,14.385,0.92,0.0368,0.0762,0.3402,0.0087,2025-06-11T08:56:18.479939
752,-0.2596,0.8828,-0.3562,-2.870,80.290,14.070,0.92,0.0368,0.1018,0.3616,0.0087,2025-06-11T08:56:18.479939
753,-0.4724,0.8813,-0.3909,-0.490,80.150,7.560,0.92,0.0368,0.0762,0.4045,0.0174,2025-06-11T08:56:18.479939
754,-0.4807,0.8877,-0.3353,3.115,57.225,4.130,0.92,0.0368,0.0762,0.3723,0.0174,2025-06-11T08:56:18.479939
755,-0.4607,0.8945,-0.2474,5.530,30.765,4.410,0.92,0.0368,0.1018,0.3616,0.0087,2025-06-11T08:56:18.597110
756,-0.4021,0.8950,-0.2406,6.405,3.780,2.345,0.92,0.0368,0.0762,0.3616,0.0174,2025-06-11T08:56:18.597110
757,-0.2948,0.8901,-0.2650,11.865,-1.225,0.700,0.92,0.0368,0.0762,0.3616,0.0174,2025-06-11T08:56:18.597110
758,-0.2435,0.8926,-0.3055,8.890,-4.130,-2.765,0.92,0.0368,0.1018,0.3616,0.0174,2025-06-11T08:56:18.597110
759,-0.2069,0.8984,-0.3196,11.410,1.330,-6.475,0.92,0.0368,0.1018,0.3509,0.0087,2025-06-11T08:56:18.597110
760,-0.2113,0.8960,-0.3348,12.320,9.240,-8.890,0.92,0.0184,0.1018,0.3616,0.0174,2025-06-11T08:56:18.597110
761,-0.2694,0.8979,-0.3401,11.025,12.845,-12.425,0.92,0.0368,0.1018,0.3509,0.0087,2025-06-11T08:56:18.597110
762,-0.3465,0.8950,-0.3070,10.745,7.735,-14.560,0.92,0.0184,0.1018,0.3190,0.0174,2025-06-11T08:56:18.597110
763,-0.4187,0.8872,-0.3001,8.365,-5.985,-15.015,0.92,0.0184,0.1018,0.3296,0.0087,2025-06-11T08:56:18.597110
764,-0.4236,0.8696,-0.3226,5.530,-25.795,-13.755,0.92,0.0184,0.1273,0.3190,0.0087,2025-06-11T08:56:18.597110
765,-0.4075,0.8618,-0.3152,2.870,-41.230,-12.110,0.92,0.0184,0.1273,0.3084,0.0087,2025-06-11T08:56:18.597110
766,-0.3762,0.8633,-0.3382,3.710,-50.050,-11.410,0.92,0.0184,0.1273,0.3190,0.0087,2025-06-11T08:56:18.597110
767,-0.2977,0.8682,-0.3201,2.730,-54.355,-8.995,0.92,0.0368,0.1018,0.2978,0.0087,2025-06-11T08:56:18.597110
768,-0.2508,0.8916,-0.2923,2.520,-54.040,-6.160,0.92,0.0368,0.1273,0.2557,0.0087,2025-06-11T08:56:18.597110
769,-0.2381,0.9082,-0.2728,1.855,-49.805,-3.045,0.92,0.0184,0.1273,0.2767,0.0174,2025-06-11T08:56:18.597110
770,-0.2372,0.9223,-0.2806,1.750,-46.585,0.455,0.92,0.0184,0.1273,0.2557,0.0174,2025-06-11T08:56:18.888279
771,-0.2435,0.9331,-0.3045,2.065,-48.090,4.130,0.92,0.0368,0.1273,0.2662,0.0174,2025-06-11T08:56:18.888279
772,-0.2586,0.9321,-0.2855,1.680,-51.870,7.455,0.92,0.0368,0.1273,0.2767,0.0087,2025-06-11T08:56:18.888279
773,-0.2377,0.9311,-0.2747,1.400,-54.320,9.695,0.92,0.0368,0.1529,0.2767,0.0087,2025-06-11T08:56:18.888279
774,-0.2289,0.9277,-0.3001,1.505,-57.575,12.355,0.92,0.0368,0.1529,0.2978,0.0087,2025-06-11T08:56:18.888279
775,-0.2059,0.9218,-0.3279,1.960,-59.675,13.825,0.92,0.0368,0.1529,0.3190,0.0087,2025-06-11T08:56:18.888279
776,-0.1552,0.9111,-0.3235,2.485,-59.360,15.610,0.92,0.0368,0.1273,0.3190,0.0087,2025-06-11T08:56:18.888279
777,-0.1318,0.9052,-0.3206,2.555,-56.280,17.500,0.92,0.0368,0.1273,0.3190,0.0174,2025-06-11T08:56:18.888279
778,-0.1235,0.8940,-0.3196,2.590,-52.325,18.620,0.92,0.0184,0.1529,0.3296,0.0174,2025-06-11T08:56:18.888279
779,-0.1244,0.8872,-0.3255,2.940,-47.740,19.005,0.92,0.0368,0.1273,0.3402,0.0174,2025-06-11T08:56:18.888279
780,-0.1293,0.9013,-0.3460,5.180,-44.730,19.180,0.92,0.0368,0.1273,0.3296,0.0087,2025-06-11T08:56:18.888279
781,-0.1225,0.9126,-0.3719,9.975,-41.405,19.320,0.92,0.0368,0.1273,0.3402,0.0087,2025-06-11T08:56:18.888279
782,-0.1264,0.9111,-0.3967,14.000,-37.345,19.110,0.92,0.0184,0.1273,0.3402,0.0174,2025-06-11T08:56:18.888279
783,-0.1225,0.9155,-0.3811,18.095,-30.905,18.655,0.92,0.0368,0.1529,0.3402,0.0087,2025-06-11T08:56:18.888279
784,-0.1288,0.9311,-0.3382,20.055,-25.095,18.200,0.93,0.0368,0.1273,0.3296,0.0087,2025-06-11T08:56:18.888279
785,-0.1513,0.9350,-0.3050,20.930,-19.740,16.975,0.92,0.0368,0.1273,0.3296,0.0087,2025-06-11T08:56:19.000214
786,-0.1693,0.9321,-0.2738,19.180,-16.345,15.715,0.92,0.0368,0.1273,0.3296,0.0174,2025-06-11T08:56:19.000214
787,-0.2054,0.9287,-0.2435,16.485,-15.470,13.895,0.93,0.0552,0.1273,0.3296,0.0174,2025-06-11T08:56:19.000214
788,-0.2362,0.9277,-0.1996,11.620,-16.905,11.935,0.93,0.0368,0.1273,0.3190,0.0174,2025-06-11T08:56:19.000214
789,-0.2630,0.9296,-0.1864,7.070,-20.405,9.870,0.93,0.0368,0.1273,0.3190,0.0174,2025-06-11T08:56:19.000214
790,-0.2835,0.9292,-0.2020,3.150,-25.025,8.435,0.92,0.0368,0.1273,0.3296,0.0087,2025-06-11T08:56:19.000214
791,-0.2850,0.9194,-0.2206,1.505,-30.030,6.860,0.93,0.0368,0.1273,0.3190,0.0174,2025-06-11T08:56:19.000214
792,-0.2772,0.9057,-0.2513,0.665,-32.060,5.460,0.92,0.0184,0.1529,0.3084,0.0087,2025-06-11T08:56:19.000214
793,-0.2874,0.8823,-0.2743,0.910,-32.690,3.220,0.92,0.0368,0.1273,0.2978,0.0087,2025-06-11T08:56:19.000214
794,-0.2816,0.8618,-0.2718,2.275,-31.920,1.365,0.92,0.0184,0.1273,0.2978,0.0087,2025-06-11T08:56:19.001213
795,-0.2865,0.8428,-0.2635,3.745,-31.220,0.140,0.92,0.0184,0.1273,0.3084,0.0087,2025-06-11T08:56:19.001213
796,-0.3089,0.8252,-0.2660,4.690,-32.305,-0.070,0.93,0.0368,0.1273,0.3084,0.0174,2025-06-11T08:56:19.001213
797,-0.3260,0.8194,-0.2704,5.600,-36.330,0.385,0.93,0.0184,0.1273,0.3084,0.0087,2025-06-11T08:56:19.001213
798,-0.3494,0.8184,-0.2830,6.965,-40.110,1.820,0.93,0.0368,0.1273,0.3084,0.0087,2025-06-11T08:56:19.001213
799,-0.3562,0.8262,-0.2806,8.225,-45.150,3.605,0.92,0.0368,0.1529,0.3084,0.0087,2025-06-11T08:56:19.001213
800,-0.3177,0.8306,-0.2669,8.435,-46.900,5.985,0.93,0.0368,0.1273,0.3084,0.0174,2025-06-11T08:56:19.219066
801,-0.2865,0.8394,-0.2860,8.120,-43.260,7.420,0.93,0.0368,0.1273,0.2978,0.0174,2025-06-11T08:56:19.412034
802,-0.2630,0.8194,-0.3079,8.120,-36.960,10.360,0.93,0.0368,0.1273,0.2978,0.0174,2025-06-11T08:56:19.412034
803,-0.2660,0.8169,-0.3187,11.375,-28.700,12.390,0.93,0.0552,0.1273,0.2978,0.0087,2025-06-11T08:56:19.412034
804,-0.2850,0.8252,-0.2923,13.685,-22.190,12.985,0.93,0.0368,0.1273,0.2978,0.0262,2025-06-11T08:56:19.412034
805,-0.2938,0.8374,-0.2704,17.395,-16.240,12.670,0.93,0.0368,0.1018,0.3084,0.0087,2025-06-11T08:56:19.412034
806,-0.3187,0.8574,-0.2669,21.490,-12.600,12.285,0.93,0.0368,0.1018,0.3296,0.0087,2025-06-11T08:56:19.412034
807,-0.3802,0.8686,-0.2996,24.395,-14.840,11.130,0.93,0.0368,0.1018,0.3402,0.0087,2025-06-11T08:56:19.412034
808,-0.4314,0.8804,-0.3362,27.545,-21.700,9.520,0.93,0.0368,0.1018,0.3296,0.0174,2025-06-11T08:56:19.412034
809,-0.4309,0.9043,-0.3001,29.400,-29.925,6.090,0.93,0.0368,0.1018,0.3402,0.0087,2025-06-11T08:56:19.412034
810,-0.3748,0.9126,-0.2557,30.660,-35.735,4.900,0.93,0.0368,0.1273,0.3296,0.0174,2025-06-11T08:56:19.412034
811,-0.3597,0.9252,-0.2386,30.870,-36.785,4.235,0.93,0.0368,0.1018,0.3402,0.0087,2025-06-11T08:56:19.412034
812,-0.3616,0.9184,-0.2660,30.660,-35.805,3.010,0.93,0.0368,0.1018,0.3402,0.0087,2025-06-11T08:56:19.412034
813,-0.3762,0.9243,-0.2806,31.150,-31.325,1.260,0.93,0.0184,0.1018,0.3402,0.0174,2025-06-11T08:56:19.412034
814,-0.3826,0.9350,-0.2782,28.455,-27.300,-0.070,0.93,0.0368,0.1273,0.3402,0.0174,2025-06-11T08:56:19.412034
815,-0.4026,0.9492,-0.2791,26.810,-23.765,-1.400,0.93,0.0368,0.1273,0.3402,0.0174,2025-06-11T08:56:19.463840
816,-0.4207,0.9648,-0.2694,25.340,-23.030,-2.415,0.93,0.0368,0.1273,0.3296,0.0174,2025-06-11T08:56:19.463840
817,-0.4294,0.9765,-0.2523,22.260,-24.570,-3.080,0.93,0.0368,0.1273,0.3084,0.0174,2025-06-11T08:56:19.464163
818,-0.4187,0.9862,-0.2469,18.165,-27.475,-3.255,0.93,0.0368,0.1273,0.2872,0.0174,2025-06-11T08:56:19.464289
819,-0.4055,0.9897,-0.2630,15.365,-29.330,-3.675,0.93,0.0368,0.1273,0.2978,0.0174,2025-06-11T08:56:19.464289
820,-0.3802,0.9843,-0.2728,12.740,-29.225,-4.760,0.93,0.0368,0.1018,0.3296,0.0087,2025-06-11T08:56:19.464289
821,-0.3650,0.9833,-0.2699,8.610,-26.250,-6.265,0.93,0.0368,0.1273,0.3296,0.0087,2025-06-11T08:56:19.464289
822,-0.3767,0.9736,-0.2821,5.495,-23.975,-8.295,0.93,0.0368,0.1273,0.3190,0.0174,2025-06-11T08:56:19.464289
823,-0.3958,0.9726,-0.2674,1.820,-25.305,-9.555,0.93,0.0368,0.1273,0.3296,0.0087,2025-06-11T08:56:19.464289
824,-0.4065,0.9721,-0.2518,-1.785,-28.070,-11.655,0.93,0.0184,0.1273,0.3084,0.0087,2025-06-11T08:56:19.464289
825,-0.3953,0.9609,-0.2557,-5.425,-32.655,-12.985,0.93,0.0368,0.1273,0.3190,0.0174,2025-06-11T08:56:19.464289
826,-0.3753,0.9428,-0.2440,-8.400,-35.560,-14.490,0.93,0.0184,0.1273,0.2978,0.0174,2025-06-11T08:56:19.464289
827,-0.3494,0.9199,-0.2347,-12.040,-35.385,-16.030,0.93,0.0368,0.1018,0.2872,0.0087,2025-06-11T08:56:19.464289
828,-0.3338,0.8891,-0.2479,-14.280,-33.810,-17.430,0.93,0.0184,0.1018,0.2872,0.0174,2025-06-11T08:56:19.464289
829,-0.3104,0.8618,-0.2469,-15.785,-29.680,-18.480,0.93,0.0184,0.1273,0.2872,0.0087,2025-06-11T08:56:19.464289
830,-0.3138,0.8486,-0.2401,-16.800,-23.590,-20.195,0.93,0.0368,0.1273,0.2978,0.0174,2025-06-11T08:56:19.464289
831,-0.3270,0.8286,-0.2533,-17.045,-16.345,-21.385,0.93,0.0368,0.1273,0.3084,0.0174,2025-06-11T08:56:19.464289
832,-0.3518,0.8306,-0.2582,-16.065,-12.215,-21.700,0.93,0.0368,0.1273,0.2872,0.0174,2025-06-11T08:56:19.707190
833,-0.3758,0.8272,-0.2708,-14.560,-10.045,-21.175,0.93,0.0368,0.1273,0.2872,0.0174,2025-06-11T08:56:19.707190
834,-0.3811,0.8111,-0.2708,-13.720,-9.030,-19.495,0.93,0.0368,0.1018,0.2872,0.0174,2025-06-11T08:56:19.707190
835,-0.3787,0.8057,-0.2518,-13.300,-6.965,-17.255,0.93,0.0368,0.1018,0.2767,0.0087,2025-06-11T08:56:19.707190
836,-0.3728,0.8023,-0.2333,-13.720,-4.550,-14.910,0.93,0.0184,0.1273,0.2557,0.0174,2025-06-11T08:56:19.707190
837,-0.3738,0.8072,-0.2147,-15.260,-2.205,-12.425,0.94,0.0368,0.1273,0.2452,0.0174,2025-06-11T08:56:19.707190
838,-0.3777,0.8242,-0.2123,-17.080,-1.330,-10.360,0.93,0.0184,0.1018,0.2557,0.0087,2025-06-11T08:56:19.707190
839,-0.3841,0.8194,-0.2211,-18.375,-2.310,-7.280,0.93,0.0184,0.1273,0.2872,0.0087,2025-06-11T08:56:19.707190
840,-0.3758,0.8369,-0.2445,-17.535,-3.640,-4.445,0.93,0.0184,0.1018,0.2557,0.0087,2025-06-11T08:56:19.707190
841,-0.3723,0.8579,-0.2235,-15.225,-1.645,-2.520,0.93,0.0184,0.1018,0.2557,0.0174,2025-06-11T08:56:19.707190
842,-0.3475,0.8608,-0.2240,-10.395,4.095,-1.575,0.93,0.0184,0.1273,0.2452,0.0087,2025-06-11T08:56:19.707190
843,-0.3553,0.8579,-0.2484,-6.230,7.700,0.875,0.94,0.0184,0.1018,0.2872,0.0174,2025-06-11T08:56:19.707190
844,-0.3938,0.8486,-0.2757,-1.610,10.115,3.220,0.94,0.0184,0.1018,0.2767,0.0087,2025-06-11T08:56:19.708259
845,-0.3963,0.8325,-0.2894,2.135,10.535,4.900,0.94,0.0368,0.1273,0.2767,0.0087,2025-06-11T08:56:19.812122
846,-0.3909,0.8228,-0.2640,4.970,11.585,6.370,0.94,0.0184,0.1018,0.2767,0.0087,2025-06-11T08:56:19.812122
847,-0.3831,0.8150,-0.2333,7.420,12.425,7.035,0.94,0.0184,0.1273,0.2978,0.0174,2025-06-11T08:56:19.812122
848,-0.3767,0.8057,-0.2259,8.540,13.020,7.455,0.94,0.0184,0.1273,0.2872,0.0087,2025-06-11T08:56:19.812122
849,-0.3660,0.7950,-0.2269,9.625,12.600,7.350,0.94,0.0368,0.1273,0.2767,0.0174,2025-06-11T08:56:19.812122
850,-0.3484,0.7818,-0.2098,9.625,11.865,6.615,0.94,0.0368,0.1273,0.2662,0.0174,2025-06-11T08:56:19.812122
851,-0.3265,0.7701,-0.2025,8.225,10.185,6.300,0.93,0.0368,0.1273,0.2662,0.0087,2025-06-11T08:56:19.812122
852,-0.3279,0.7652,-0.2108,7.175,7.665,5.915,0.94,0.0184,0.1273,0.2557,0.0087,2025-06-11T08:56:19.812122
853,-0.3216,0.7749,-0.2137,7.105,4.095,4.655,0.94,0.0184,0.1273,0.2662,0.0174,2025-06-11T08:56:19.812122
854,-0.3148,0.7871,-0.2625,8.155,1.190,2.905,0.94,0.0368,0.1273,0.2767,0.0087,2025-06-11T08:56:19.812122
855,-0.3201,0.7954,-0.3050,10.325,-0.700,-0.945,0.94,0.0184,0.1018,0.2767,0.0087,2025-06-11T08:56:19.813187
856,-0.3050,0.8023,-0.3128,13.125,-1.330,-4.165,0.94,0.0184,0.1273,0.2767,0.0174,2025-06-11T08:56:19.813187
857,-0.3035,0.8125,-0.3074,14.805,-1.365,-7.490,0.94,0.0368,0.1273,0.2872,0.0087,2025-06-11T08:56:19.813187
858,-0.3084,0.8306,-0.3074,17.255,-2.345,-9.240,0.94,0.0184,0.1273,0.2872,0.0087,2025-06-11T08:56:19.813187
859,-0.3211,0.8886,-0.3060,18.480,-2.730,-10.780,0.94,0.0368,0.1273,0.2978,0.0087,2025-06-11T08:56:19.813187
860,-0.3148,0.9443,-0.3260,20.195,-2.275,-11.550,0.94,0.0368,0.1273,0.2978,0.0174,2025-06-11T08:56:19.864733
861,-0.3211,1.0146,-0.3723,22.505,-1.050,-11.165,0.94,0.0184,0.1273,0.2767,0.0087,2025-06-11T08:56:19.864733
862,-0.3553,1.0604,-0.4099,24.955,1.190,-10.465,0.94,0.0368,0.1273,0.2662,0.0087,2025-06-11T08:56:19.864733
863,-0.3792,1.0721,-0.4338,24.815,3.045,-8.715,0.94,0.0368,0.1529,0.2557,0.0174,2025-06-11T08:56:19.865243
864,-0.3821,1.0751,-0.4119,21.420,4.900,-3.500,0.94,0.0368,0.1273,0.2767,0.0087,2025-06-11T08:56:20.117896
865,-0.4026,1.0790,-0.3450,13.335,6.545,2.485,0.94,0.0368,0.1529,0.2767,0.0174,2025-06-11T08:56:20.117896
866,-0.4553,1.0799,-0.3192,3.885,5.810,9.625,0.94,0.0368,0.1273,0.2557,0.0087,2025-06-11T08:56:20.117896
867,-0.5007,1.0692,-0.2874,-7.455,-0.175,15.330,0.94,0.0368,0.1273,0.2662,0.0174,2025-06-11T08:56:20.117896
868,-0.5139,1.0472,-0.2713,-16.205,-9.905,21.700,0.94,0.0184,0.1529,0.2557,0.0087,2025-06-11T08:56:20.117896
869,-0.5422,1.0131,-0.2655,-24.885,-24.885,26.180,0.94,0.0184,0.1273,0.2557,0.0087,2025-06-11T08:56:20.117896
870,-0.4968,0.9740,-0.2142,-30.660,-37.275,31.675,0.94,0.0368,0.1273,0.2452,0.0174,2025-06-11T08:56:20.117896
871,-0.4080,0.9267,-0.2001,-36.505,-45.290,36.260,0.94,0.0184,0.1529,0.2662,0.0000,2025-06-11T08:56:20.117896
872,-0.3431,0.7530,-0.1928,-40.530,-44.975,39.970,0.94,0.0368,0.1273,0.2662,0.0087,2025-06-11T08:56:20.117896
873,-0.2865,0.8242,-0.1879,-43.225,-39.165,43.750,0.94,0.0184,0.1273,0.2767,0.0174,2025-06-11T08:56:20.117896
874,-0.2577,0.8067,-0.1786,-44.100,-32.095,45.115,0.94,0.0184,0.1529,0.2767,0.0087,2025-06-11T08:56:20.118710
875,-0.2865,0.7910,-0.1889,-44.065,-29.155,45.920,0.94,0.0184,0.1529,0.2662,0.0174,2025-06-11T08:56:20.226286
876,-0.3343,0.7793,-0.1845,-41.790,-36.050,45.955,0.94,0.0368,0.1786,0.2978,0.0174,2025-06-11T08:56:20.226286
877,-0.3006,0.7871,-0.1332,-38.500,-49.945,45.885,0.94,0.0368,0.1529,0.2978,0.0174,2025-06-11T08:56:20.226286
878,-0.2826,0.7906,-0.1332,-34.895,-59.815,45.115,0.94,0.0184,0.1529,0.2978,0.0174,2025-06-11T08:56:20.226286
879,-0.2220,0.8018,-0.1640,-30.625,-68.705,43.540,0.94,0.0184,0.1529,0.2978,0.0174,2025-06-11T08:56:20.226286
880,-0.1386,0.8394,-0.2084,-22.155,-66.535,41.300,0.94,0.0368,0.1529,0.3084,0.0087,2025-06-11T08:56:20.226286
881,-0.0859,0.9126,-0.3211,-10.675,-56.910,37.345,0.94,0.0368,0.1529,0.3084,0.0087,2025-06-11T08:56:20.226286
882,-0.0820,0.9404,-0.3977,7.595,-39.200,32.375,0.94,0.0184,0.1529,0.3190,0.0087,2025-06-11T08:56:20.226286
883,-0.0649,0.9506,-0.3504,19.775,-19.495,24.290,0.94,0.0368,0.1273,0.3084,0.0087,2025-06-11T08:56:20.226286
884,-0.1054,0.9404,-0.2547,27.300,3.010,19.425,0.94,0.0184,0.1273,0.2978,0.0087,2025-06-11T08:56:20.226286
885,-0.1566,0.9609,-0.0981,25.340,14.595,17.535,0.94,0.0368,0.1529,0.2872,0.0087,2025-06-11T08:56:20.226286
886,-0.2391,0.9999,-0.0317,18.935,15.785,16.450,0.94,0.0368,0.1273,0.2978,0.0087,2025-06-11T08:56:20.226286
887,-0.3128,1.0253,-0.0400,8.575,6.405,14.980,0.94,0.0184,0.1273,0.2978,0.0087,2025-06-11T08:56:20.226286
888,-0.3294,1.0477,-0.0805,-0.630,-10.185,12.565,0.93,0.0368,0.1273,0.3190,0.0087,2025-06-11T08:56:20.226286
889,-0.2943,1.0482,-0.1435,-8.960,-23.135,10.675,0.93,0.0184,0.1273,0.3190,0.0174,2025-06-11T08:56:20.226286
890,-0.2416,1.0277,-0.1635,-13.090,-30.205,8.295,0.93,0.0368,0.1273,0.2978,0.0087,2025-06-11T08:56:20.226286
891,-0.2128,1.0009,-0.1825,-18.060,-28.420,4.795,0.93,0.0368,0.1529,0.2872,0.0174,2025-06-11T08:56:20.529182
892,-0.1703,0.9721,-0.1996,-19.740,-22.855,0.455,0.93,0.0368,0.1786,0.3084,0.0174,2025-06-11T08:56:20.529182
893,-0.1469,0.9536,-0.1601,-22.330,-11.410,-2.170,0.93,0.0368,0.1529,0.2872,0.0174,2025-06-11T08:56:20.529182
894,-0.2064,0.9267,-0.1806,-24.885,-5.565,-4.865,0.93,0.0368,0.1529,0.2872,0.0087,2025-06-11T08:56:20.529767
895,-0.2982,0.9316,-0.1635,-25.935,-7.070,-7.945,0.93,0.0368,0.1273,0.2872,0.0087,2025-06-11T08:56:20.529767
896,-0.3426,0.9589,-0.1454,-28.840,-13.195,-12.040,0.93,0.0368,0.1273,0.2767,0.0087,2025-06-11T08:56:20.529767
897,-0.3255,1.0243,-0.0961,-30.380,-23.730,-16.415,0.93,0.0368,0.1273,0.2767,0.0087,2025-06-11T08:56:20.529767
898,-0.4055,1.1307,-0.0381,-32.515,-38.010,-20.685,0.93,0.0184,0.1529,0.2662,0.0087,2025-06-11T08:56:20.529767
899,-0.4685,1.2185,0.0420,-34.755,-69.265,-24.605,0.93,0.0184,0.1273,0.2662,0.0087,2025-06-11T08:56:20.529767
900,-0.5754,1.3137,0.1337,-42.910,-110.215,-27.685,0.93,0.0184,0.1018,0.2557,0.0087,2025-06-11T08:56:20.529767
901,-0.7247,1.4098,0.1308,-50.505,-174.510,-33.705,0.93,0.0552,0.1273,0.2557,0.0087,2025-06-11T08:56:20.529767
902,-0.8106,1.4713,0.1137,-61.145,-240.520,-40.775,0.93,0.0184,0.1273,0.2348,0.0087,2025-06-11T08:56:20.529767
903,-0.7271,1.5479,0.1742,-66.570,-335.440,-51.100,0.93,0.0368,0.1529,0.2452,0.0087,2025-06-11T08:56:20.529767
904,-0.5529,1.6368,0.1869,-77.420,-413.105,-57.925,0.93,0.0368,0.1273,0.2348,0.0174,2025-06-11T08:56:20.529767
905,-0.3636,1.8251,0.2147,-86.415,-501.620,-65.485,0.93,0.0368,0.1273,0.2139,0.0087,2025-06-11T08:56:20.632888
906,-0.1474,1.9574,0.0224,-105.805,-581.000,-68.810,0.93,0.0368,0.1273,0.1622,0.0174,2025-06-11T08:56:20.632888
907,0.1664,2.0877,-0.1806,-123.620,-620.655,-80.045,0.93,0.0368,0.1529,0.1725,0.0087,2025-06-11T08:56:20.632888
908,0.3670,2.0213,-0.8477,-131.495,-629.370,-90.370,0.93,0.0368,0.1529,0.1519,0.0087,2025-06-11T08:56:20.632888
909,0.8530,1.8808,-0.9799,-147.525,-608.020,-76.580,0.93,0.0368,0.1273,0.1622,0.0087,2025-06-11T08:56:20.632888
910,0.9570,1.8612,-0.6095,-155.505,-563.920,-77.700,0.93,0.0368,0.1018,0.1622,0.0087,2025-06-11T08:56:20.632888
911,1.0228,1.8344,-0.2479,-179.760,-491.645,-81.935,0.92,0.0368,0.0762,0.1519,0.0087,2025-06-11T08:56:20.632888
912,0.9540,1.7836,0.0312,-208.250,-415.660,-85.680,0.92,0.0184,0.1273,0.1519,0.0087,2025-06-11T08:56:20.632888
913,0.5827,1.7124,0.0537,-243.005,-333.305,-100.940,0.92,0.0368,0.1018,0.1212,0.0087,2025-06-11T08:56:20.633711
914,0.4187,1.3288,-0.1498,-262.045,-293.685,-107.870,0.92,0.0368,0.0762,0.1008,0.0087,2025-06-11T08:56:20.633711
915,0.5100,1.1263,-0.5007,-280.245,-281.645,-133.595,0.92,0.0368,0.0762,0.1109,0.0174,2025-06-11T08:56:20.633711
916,0.2298,0.6403,-0.7305,-270.445,-294.385,-135.660,0.92,0.0368,0.1018,0.1109,0.0087,2025-06-11T08:56:20.633711
917,-0.2460,0.4568,-0.3333,-261.695,-323.995,-152.915,0.92,0.0368,0.0508,0.1008,0.0087,2025-06-11T08:56:20.633711
918,-0.2255,0.3240,0.1781,-258.755,-354.375,-166.985,0.92,0.0184,0.0762,0.1008,0.0087,2025-06-11T08:56:20.633711
919,-0.1830,0.1932,0.2933,-265.720,-391.965,-172.865,0.92,0.0368,0.1273,0.1109,0.0087,2025-06-11T08:56:20.633711
920,-0.1776,0.1118,0.1942,-276.185,-407.155,-179.830,0.93,0.0368,0.0762,0.1109,0.0174,2025-06-11T08:56:20.935541
921,0.0503,-0.1469,-0.1288,-289.415,-429.135,-181.055,0.93,0.0368,0.1273,0.1416,0.0174,2025-06-11T08:56:20.935541
922,0.0859,-0.4616,-0.0493,-299.390,-443.450,-177.975,0.93,0.0368,0.1273,0.1314,0.0174,2025-06-11T08:56:20.935541
923,0.1113,-0.8506,0.3616,-306.565,-445.445,-177.380,0.93,0.0368,0.1273,0.1314,0.0174,2025-06-11T08:56:20.935541
924,-0.0410,-1.4821,0.9282,-298.900,-473.200,-171.605,0.93,0.0368,0.1018,0.0906,0.0087,2025-06-11T08:56:20.935541
925,0.0049,-2.0115,0.9004,-244.195,-529.830,-163.275,0.94,0.0368,0.1273,0.1314,0.0087,2025-06-11T08:56:20.935541
926,0.9965,-2.3165,0.0098,-224.070,-522.130,-158.305,0.94,0.0184,0.1529,0.1932,0.0087,2025-06-11T08:56:20.935541
927,1.6124,-1.9701,-0.2542,-97.335,-389.235,-181.125,0.94,0.0368,0.1273,0.2557,0.0087,2025-06-11T08:56:20.935541
928,2.2687,-1.1283,0.2074,-26.565,-130.690,-199.885,0.95,0.0368,0.1273,0.2452,0.0087,2025-06-11T08:56:20.935541
929,2.8202,-0.6432,0.6891,-49.980,110.355,-131.250,0.95,0.0368,0.1529,0.2978,0.0087,2025-06-11T08:56:20.935541
930,2.7953,-0.3338,0.5812,-29.575,323.785,-7.945,0.95,0.0184,0.1529,0.2767,0.0087,2025-06-11T08:56:20.935541
931,1.7895,-0.3143,0.3875,-38.430,450.765,46.865,0.95,0.0368,0.1529,0.2348,0.0174,2025-06-11T08:56:20.935541
932,0.4782,-0.4987,0.4851,-36.435,455.665,30.870,0.95,0.0184,0.1529,0.2243,0.0087,2025-06-11T08:56:20.935541
933,0.0000,-0.6368,0.5353,-29.960,366.485,-6.930,0.95,0.0368,0.1529,0.1519,0.0174,2025-06-11T08:56:20.935541
934,-0.2255,-0.5407,0.6944,-13.650,241.220,-35.490,0.95,0.0184,0.1529,0.1622,0.0087,2025-06-11T08:56:20.935541
935,0.0176,-0.4128,0.8511,8.400,90.790,-4.165,0.95,0.0368,0.1786,0.1622,0.0174,2025-06-11T08:56:20.935541
936,0.3123,-0.1879,1.0653,15.295,7.315,32.655,0.95,0.0368,0.1786,0.1725,0.0174,2025-06-11T08:56:21.040547
937,0.9189,-0.2176,1.1966,40.985,-13.720,74.130,0.95,0.0368,0.1529,0.1828,0.0087,2025-06-11T08:56:21.040547
938,1.3000,-0.3382,1.0697,64.330,35.035,95.095,0.96,0.0368,0.1529,0.1622,0.0087,2025-06-11T08:56:21.040547
939,1.5411,-0.5280,0.7896,101.640,136.115,109.410,0.95,0.0368,0.1273,0.1519,0.0174,2025-06-11T08:56:21.040547
940,1.4943,-0.7105,0.5651,137.130,219.975,130.795,0.96,0.0368,0.1018,0.1519,0.0174,2025-06-11T08:56:21.040547
941,1.1888,-0.8442,0.5797,178.920,317.135,152.740,0.96,0.0552,0.1273,0.1314,0.0174,2025-06-11T08:56:21.040547
942,0.9477,-0.8886,0.6515,202.720,399.385,165.165,0.95,0.0184,0.1273,0.1314,0.0087,2025-06-11T08:56:21.040547
943,0.8057,-0.8154,0.6632,216.720,505.435,179.865,0.95,0.0184,0.1018,0.1416,0.0174,2025-06-11T08:56:21.040547
944,0.6486,-0.5324,0.5612,213.745,591.815,193.305,0.95,0.0184,0.1273,0.1519,0.0174,2025-06-11T08:56:21.040547
945,0.4421,-0.1635,0.2489,200.305,673.855,220.360,0.95,0.0368,0.1018,0.1416,0.0087,2025-06-11T08:56:21.040547
946,0.1791,0.1630,-0.2220,178.745,720.300,247.765,0.95,0.0368,0.1018,0.1828,0.0087,2025-06-11T08:56:21.040547
947,-0.3235,0.3514,-0.6378,146.160,760.130,271.285,0.95,0.0184,0.1273,0.1622,0.0174,2025-06-11T08:56:21.040547
948,-0.9750,0.5114,-0.8950,118.440,772.625,266.700,0.96,0.0184,0.1273,0.1932,0.0087,2025-06-11T08:56:21.040547
949,-1.0248,0.7291,-0.9453,78.785,761.285,250.915,0.95,0.0368,0.1018,0.1932,0.0087,2025-06-11T08:56:21.040547
950,-0.9052,1.0526,-0.6842,36.225,718.690,256.025,0.95,0.0368,0.1273,0.1519,0.0087,2025-06-11T08:56:21.345051
951,-1.1595,1.3571,-0.1293,-17.570,633.570,262.640,0.95,0.0368,0.1018,0.1932,0.0174,2025-06-11T08:56:21.555575
952,-1.3483,1.2805,0.0410,-38.080,518.630,270.620,0.96,0.0368,0.1273,0.1828,0.0087,2025-06-11T08:56:21.555575
953,-1.6514,0.9575,-0.1903,-52.920,344.925,268.520,0.96,0.0368,0.1273,0.2035,0.0174,2025-06-11T08:56:21.555575
954,-1.5182,0.7779,-0.2503,-43.750,211.085,252.770,0.96,0.0368,0.1529,0.2348,0.0174,2025-06-11T08:56:21.555575
955,-1.0375,0.7110,0.0224,-31.500,102.305,229.320,0.95,0.0368,0.1273,0.2243,0.0087,2025-06-11T08:56:21.555575
956,-0.3353,0.8921,0.4275,-17.885,78.050,211.365,0.95,0.0368,0.1018,0.1932,0.0087,2025-06-11T08:56:21.555575
957,0.1586,1.1000,0.5373,-14.175,105.840,205.695,0.95,0.0368,0.1273,0.2557,0.0087,2025-06-11T08:56:21.555575
958,0.1527,1.2644,0.5675,-13.685,138.495,207.200,0.95,0.0368,0.1273,0.1932,0.0087,2025-06-11T08:56:21.555575
959,-0.0917,1.3547,0.4026,-13.580,144.655,205.135,0.95,0.0368,0.1018,0.2767,0.0087,2025-06-11T08:56:21.555575
960,-0.1869,1.2976,0.2098,-4.795,127.295,203.665,0.95,0.0184,0.1273,0.2243,0.0174,2025-06-11T08:56:21.555575
961,-0.2908,1.3610,0.3411,2.170,110.145,184.940,0.95,0.0184,0.1786,0.2348,0.0087,2025-06-11T08:56:21.555575
962,-0.0712,1.3796,0.6080,0.455,98.105,163.240,0.95,0.0368,0.1273,0.2452,0.0174,2025-06-11T08:56:21.555575
963,0.1967,1.3318,0.7296,-1.925,78.820,146.825,0.95,0.0368,0.1273,0.2035,0.0087,2025-06-11T08:56:21.555575
964,0.3328,1.2229,0.7222,10.465,50.505,140.700,0.95,0.0368,0.1018,0.2243,0.0087,2025-06-11T08:56:21.555575
965,0.3245,1.1917,0.5578,-4.375,20.440,128.030,0.95,0.0368,0.1529,0.2348,0.0087,2025-06-11T08:56:21.555575
966,0.2821,1.1395,0.3748,11.200,-20.020,107.450,0.95,0.0368,0.1786,0.2662,0.0174,2025-06-11T08:56:21.555575
967,0.4148,1.1444,0.2923,28.245,-33.390,78.120,0.95,0.0368,0.1529,0.2662,0.0174,2025-06-11T08:56:21.555575
968,0.5934,1.1302,0.3060,38.115,-29.400,52.500,0.95,0.0368,0.1529,0.2557,0.0174,2025-06-11T08:56:21.555575
969,0.6529,1.1839,0.4255,50.645,9.205,18.655,0.95,0.0184,0.1018,0.2452,0.0174,2025-06-11T08:56:21.555575
970,0.5524,1.0507,0.4714,85.575,4.340,-11.270,0.95,0.0368,0.1018,0.2557,0.0087,2025-06-11T08:56:21.555575
971,0.3372,1.0838,0.3719,19.740,46.095,-21.140,0.95,0.0368,0.1273,0.2452,0.0087,2025-06-11T08:56:21.555575
972,0.1972,1.0458,0.1225,37.555,17.220,-27.755,0.95,0.0184,0.1018,0.2557,0.0174,2025-06-11T08:56:21.555575
973,0.0571,1.0546,0.0634,16.835,3.290,-29.050,0.95,0.0368,0.1273,0.2978,0.0174,2025-06-11T08:56:21.555575
974,0.1196,1.0687,0.1357,22.260,6.090,-31.815,0.95,0.0184,0.1273,0.2872,0.0174,2025-06-11T08:56:21.555575
975,0.1796,1.0731,0.1879,13.720,14.350,-33.600,0.94,0.0368,0.1273,0.2978,0.0174,2025-06-11T08:56:21.555575
976,0.1547,1.0921,0.2294,5.040,27.895,-32.620,0.94,0.0368,0.1018,0.3084,0.0174,2025-06-11T08:56:21.555575
977,0.1283,1.0648,0.1601,0.105,38.395,-29.750,0.94,0.0368,0.1018,0.3190,0.0087,2025-06-11T08:56:21.555575
978,0.0903,1.0516,0.0693,-5.285,39.550,-23.835,0.94,0.0184,0.1273,0.3190,0.0174,2025-06-11T08:56:21.555575
979,-0.0264,1.0302,0.0503,-5.390,36.820,-19.180,0.94,0.0184,0.1018,0.3190,0.0174,2025-06-11T08:56:21.555575
980,-0.1454,1.0560,0.1479,-2.485,33.005,-16.695,0.94,0.0184,0.1018,0.3084,0.0174,2025-06-11T08:56:21.755149
981,-0.1796,1.0521,0.1308,0.140,19.670,-11.620,0.94,0.0184,0.1018,0.2767,0.0087,2025-06-11T08:56:21.755149
982,-0.1371,1.0472,0.1527,4.270,9.555,-3.990,0.94,0.0368,0.1018,0.2662,0.0174,2025-06-11T08:56:21.755149
983,-0.1108,1.0185,0.1127,9.170,10.465,0.525,0.94,0.0184,0.1273,0.2662,0.0174,2025-06-11T08:56:21.755149
984,-0.0508,0.9794,0.0600,12.285,14.770,4.725,0.94,0.0368,0.1529,0.2767,0.0174,2025-06-11T08:56:21.755149
985,-0.0307,0.9428,0.0166,15.155,20.615,6.335,0.94,0.0368,0.1273,0.2767,0.0087,2025-06-11T08:56:21.755149
986,-0.0332,0.9257,0.0322,15.435,28.595,5.810,0.94,0.0368,0.1273,0.2767,0.0087,2025-06-11T08:56:21.755149
987,-0.0678,0.9345,0.0756,13.755,33.985,3.465,0.94,0.0368,0.1529,0.2662,0.0174,2025-06-11T08:56:21.755149
988,-0.1103,0.9355,0.0717,12.320,31.535,0.980,0.94,0.0184,0.1529,0.2662,0.0087,2025-06-11T08:56:21.755149
989,-0.1527,0.9355,0.0610,11.270,23.555,-1.470,0.94,0.0368,0.1529,0.2767,0.0087,2025-06-11T08:56:21.755149
990,-0.1674,0.9335,0.0132,11.410,16.450,-5.530,0.94,0.0184,0.1529,0.2767,0.0087,2025-06-11T08:56:21.755149
991,-0.1464,0.9243,-0.0400,12.495,8.610,-9.135,0.94,0.0184,0.1529,0.2872,0.0087,2025-06-11T08:56:21.755149
992,-0.1279,0.9116,-0.0371,15.330,4.725,-11.130,0.94,0.0184,0.1529,0.2767,0.0087,2025-06-11T08:56:21.756212
993,-0.0615,0.9126,0.0044,17.045,7.980,-14.315,0.94,0.0368,0.1529,0.2767,0.0174,2025-06-11T08:56:21.756212
994,-0.0532,0.8984,-0.0264,20.160,14.910,-15.680,0.94,0.0184,0.1529,0.2872,0.0087,2025-06-11T08:56:21.756212
995,-0.0830,0.9087,-0.0322,26.425,19.425,-16.975,0.95,0.0368,0.1529,0.3190,0.0087,2025-06-11T08:56:21.756212
996,-0.1371,0.9145,-0.0088,22.995,23.065,-16.520,0.94,0.0184,0.1529,0.2978,0.0087,2025-06-11T08:56:21.867537
997,-0.1962,0.9262,-0.0395,28.525,15.750,-14.175,0.94,0.0368,0.1529,0.2872,0.0174,2025-06-11T08:56:21.867537
998,-0.2308,0.9355,-0.0576,28.945,5.565,-12.950,0.94,0.0368,0.1529,0.3084,0.0174,2025-06-11T08:56:21.867537
999,-0.2020,0.9531,-0.0288,31.745,-1.715,-11.900,0.94,0.0368,0.1529,0.2978,0.0087,2025-06-11T08:56:21.867537
1000,-0.1635,0.9736,-0.0190,34.930,-4.655,-11.620,0.94,0.0368,0.1273,0.3084,0.0174,2025-06-11T08:56:21.867537
1001,-0.1518,1.0160,-0.0098,34.020,-0.770,-12.040,0.94,0.0368,0.1273,0.3296,0.0087,2025-06-11T08:56:21.867537
1002,-0.1474,1.0541,0.0137,32.340,4.970,-11.865,0.94,0.0184,0.1273,0.3402,0.0174,2025-06-11T08:56:21.867537
1003,-0.1698,1.0917,0.0044,26.915,7.980,-11.200,0.95,0.0368,0.1273,0.2872,0.0087,2025-06-11T08:56:21.867537
1004,-0.2269,1.1068,-0.0376,21.735,8.120,-10.010,0.94,0.0368,0.1273,0.2767,0.0174,2025-06-11T08:56:21.867537
1005,-0.2572,1.1102,-0.0673,15.365,2.660,-8.820,0.94,0.0368,0.1273,0.2557,0.0174,2025-06-11T08:56:21.867537
1006,-0.2630,1.0848,-0.0781,10.465,-3.850,-7.350,0.94,0.0368,0.1018,0.2557,0.0087,2025-06-11T08:56:21.868583
1007,-0.2586,1.0575,-0.0610,6.475,-10.150,-6.930,0.94,0.0184,0.1273,0.2557,0.0087,2025-06-11T08:56:21.868583
1008,-0.2377,1.0272,-0.0361,3.570,-12.005,-6.790,0.94,0.0368,0.1018,0.2557,0.0174,2025-06-11T08:56:21.868583
1009,-0.2108,1.0077,-0.0381,0.630,-13.020,-5.740,0.94,0.0368,0.1273,0.2767,0.0087,2025-06-11T08:56:21.868583
1010,-0.2103,0.9833,-0.0649,-0.735,-11.900,-5.705,0.94,0.0368,0.1018,0.2662,0.0174,2025-06-11T08:56:21.868583
1011,-0.2040,0.9623,-0.0586,-0.665,-10.045,-6.195,0.94,0.0552,0.1273,0.2452,0.0174,2025-06-11T08:56:22.226490
1012,-0.2045,0.9579,-0.0673,0.140,-9.520,-5.845,0.94,0.0184,0.1273,0.2557,0.0087,2025-06-11T08:56:22.226490
1013,-0.2147,0.9462,-0.0830,2.100,-10.115,-5.250,0.94,0.0552,0.1273,0.2452,0.0174,2025-06-11T08:56:22.226490
1014,-0.2108,0.9374,-0.0625,5.005,-11.235,-4.725,0.94,0.0368,0.1273,0.2452,0.0087,2025-06-11T08:56:22.226490
1015,-0.2152,0.9272,-0.0615,7.000,-12.390,-3.885,0.94,0.0184,0.1529,0.2452,0.0087,2025-06-11T08:56:22.226490
1016,-0.2157,0.9233,-0.0620,8.610,-15.085,-2.695,0.94,0.0368,0.1273,0.2452,0.0174,2025-06-11T08:56:22.226490
1017,-0.2298,0.9174,-0.0649,9.730,-18.200,-2.555,0.94,0.0368,0.1273,0.2557,0.0087,2025-06-11T08:56:22.226490
1018,-0.2118,0.9238,-0.0776,10.605,-22.120,-2.450,0.95,0.0368,0.1273,0.2557,0.0087,2025-06-11T08:56:22.226490
1019,-0.1923,0.9467,-0.0825,11.375,-25.725,-1.855,0.94,0.0184,0.1273,0.2557,0.0087,2025-06-11T08:56:22.226490
1020,-0.1537,0.9716,-0.0976,12.040,-25.130,-1.715,0.94,0.0368,0.1273,0.2557,0.0174,2025-06-11T08:56:22.227557
1021,-0.1132,0.9804,-0.1000,12.600,-19.845,-1.330,0.94,0.0368,0.1273,0.2557,0.0087,2025-06-11T08:56:22.227557
1022,-0.1005,0.9853,-0.0903,12.320,-14.070,-0.140,0.94,0.0368,0.1273,0.2557,0.0174,2025-06-11T08:56:22.227557
1023,-0.1235,0.9784,-0.0888,11.760,-8.505,1.400,0.94,0.0368,0.1273,0.2452,0.0087,2025-06-11T08:56:22.227557
1024,-0.1488,0.9755,-0.0908,10.535,-6.370,2.555,0.94,0.0184,0.1273,0.2557,0.0174,2025-06-11T08:56:22.227557
1025,-0.1654,0.9789,-0.0888,9.030,-5.985,3.430,0.94,0.0368,0.1273,0.2557,0.0174,2025-06-11T08:56:22.227557
1026,-0.1830,0.9794,-0.0903,6.895,-7.455,3.815,0.94,0.0368,0.1273,0.2557,0.0174,2025-06-11T08:56:22.294501
1027,-0.1845,0.9789,-0.0947,5.495,-11.130,3.220,0.94,0.0368,0.1273,0.2662,0.0174,2025-06-11T08:56:22.294501
1028,-0.1474,0.9770,-0.1000,3.045,-11.550,2.940,0.95,0.0368,0.1529,0.2557,0.0174,2025-06-11T08:56:22.294501
1029,-0.1376,0.9745,-0.1035,3.255,-9.590,0.945,0.95,0.0368,0.1273,0.2662,0.0087,2025-06-11T08:56:22.294501
1030,-0.1288,0.9716,-0.0927,2.835,-5.320,-1.015,0.94,0.0368,0.1529,0.2557,0.0174,2025-06-11T08:56:22.294501
1031,-0.1215,0.9701,-0.0810,3.010,-2.135,-1.750,0.95,0.0184,0.1529,0.2557,0.0174,2025-06-11T08:56:22.294501
1032,-0.1381,0.9609,-0.0893,2.835,0.350,-1.750,0.94,0.0552,0.1529,0.2557,0.0087,2025-06-11T08:56:22.294501
1033,-0.1606,0.9472,-0.1181,2.380,0.280,-1.295,0.94,0.0368,0.1273,0.2662,0.0087,2025-06-11T08:56:22.294501
1034,-0.1850,0.9423,-0.1137,1.960,-0.595,-1.190,0.94,0.0368,0.1273,0.2662,0.0174,2025-06-11T08:56:22.294501
1035,-0.1952,0.9409,-0.1005,1.295,-0.770,-1.540,0.95,0.0552,0.1273,0.2662,0.0087,2025-06-11T08:56:22.294501
1036,-0.2054,0.9404,-0.1015,0.560,-0.875,-2.345,0.95,0.0552,0.1273,0.2662,0.0174,2025-06-11T08:56:22.294501
1037,-0.1923,0.9443,-0.1074,0.070,-0.210,-3.045,0.94,0.0552,0.1529,0.2557,0.0174,2025-06-11T08:56:22.294501
1038,-0.1908,0.9482,-0.0991,-0.035,2.450,-4.165,0.94,0.0368,0.1273,0.2662,0.0087,2025-06-11T08:56:22.294501
1039,-0.1928,0.9623,-0.0961,-0.105,5.600,-5.250,0.94,0.0368,0.1273,0.2557,0.0174,2025-06-11T08:56:22.294501
1040,-0.2098,0.9677,-0.0834,0.315,6.580,-5.390,0.94,0.0184,0.1273,0.2662,0.0174,2025-06-11T08:56:22.294501
1041,-0.2342,0.9643,-0.0815,0.560,4.655,-5.040,0.95,0.0368,0.1529,0.2557,0.0174,2025-06-11T08:56:22.294501
1042,-0.2503,0.9575,-0.0849,0.770,0.455,-4.480,0.94,0.0368,0.1273,0.2557,0.0174,2025-06-11T08:56:22.294501
1043,-0.2464,0.9550,-0.0805,1.260,-2.275,-3.815,0.94,0.0368,0.1273,0.2557,0.0087,2025-06-11T08:56:22.476655
1044,-0.2372,0.9511,-0.0791,1.470,-3.745,-3.080,0.94,0.0368,0.1529,0.2557,0.0087,2025-06-11T08:56:22.476655
1045,-0.2381,0.9467,-0.0742,1.540,-4.935,-2.485,0.94,0.0368,0.1018,0.2557,0.0174,2025-06-11T08:56:22.476655
1046,-0.2269,0.9414,-0.0825,1.575,-6.020,-1.645,0.95,0.0368,0.1273,0.2557,0.0174,2025-06-11T08:56:22.476655
1047,-0.2137,0.9384,-0.0747,2.100,-5.775,-1.295,0.95,0.0368,0.1273,0.2557,0.0087,2025-06-11T08:56:22.476655
1048,-0.2152,0.9418,-0.0786,2.800,-5.110,-1.575,0.94,0.0368,0.1018,0.2557,0.0174,2025-06-11T08:56:22.476655
1049,-0.2108,0.9462,-0.0844,4.060,-6.020,-1.785,0.94,0.0368,0.1273,0.2557,0.0087,2025-06-11T08:56:22.476655
1050,-0.2054,0.9487,-0.0859,5.215,-7.245,-1.820,0.94,0.0368,0.1273,0.2348,0.0087,2025-06-11T08:56:22.476655
1051,-0.1991,0.9516,-0.0922,6.580,-8.295,-1.715,0.94,0.0368,0.1273,0.2452,0.0174,2025-06-11T08:56:22.476655
1052,-0.1932,0.9565,-0.0947,7.630,-8.715,-1.855,0.94,0.0368,0.1273,0.2557,0.0087,2025-06-11T08:56:22.476655
1053,-0.1864,0.9614,-0.0805,8.330,-7.980,-2.240,0.95,0.0368,0.1273,0.2557,0.0087,2025-06-11T08:56:22.476655
1054,-0.1810,0.9618,-0.0795,8.295,-7.700,-2.275,0.94,0.0368,0.1018,0.2557,0.0087,2025-06-11T08:56:22.476655
1055,-0.1845,0.9692,-0.0942,7.945,-7.560,-2.240,0.94,0.0368,0.1273,0.2662,0.0174,2025-06-11T08:56:22.477446
1056,-0.1840,0.9740,-0.0981,7.350,-7.245,-2.905,0.94,0.0368,0.1529,0.2662,0.0174,2025-06-11T08:56:22.779077
1057,-0.1732,0.9770,-0.1039,6.475,-6.545,-3.045,0.95,0.0368,0.1273,0.2662,0.0174,2025-06-11T08:56:22.779077
1058,-0.1747,0.9804,-0.1113,5.355,-5.075,-3.115,0.95,0.0368,0.1273,0.2557,0.0087,2025-06-11T08:56:22.779077
1059,-0.1752,0.9765,-0.1074,4.060,-3.920,-3.185,0.94,0.0368,0.1273,0.2662,0.0087,2025-06-11T08:56:22.779077
1060,-0.1845,0.9697,-0.1132,2.800,-3.640,-2.765,0.94,0.0368,0.1273,0.2557,0.0174,2025-06-11T08:56:22.779077
1061,-0.1996,0.9677,-0.1098,1.715,-4.515,-2.310,0.94,0.0368,0.1529,0.2557,0.0087,2025-06-11T08:56:22.779077
1062,-0.1972,0.9687,-0.1015,1.050,-5.950,-1.575,0.94,0.0368,0.1273,0.2557,0.0087,2025-06-11T08:56:22.779077
1063,-0.1932,0.9711,-0.1176,0.420,-7.245,-0.665,0.94,0.0184,0.1018,0.2557,0.0087,2025-06-11T08:56:22.779077
1064,-0.1815,0.9745,-0.1391,0.280,-7.210,0.000,0.94,0.0368,0.1273,0.2557,0.0087,2025-06-11T08:56:22.780090
1065,-0.1606,0.9755,-0.1318,0.350,-4.480,0.280,0.94,0.0368,0.1273,0.2557,0.0087,2025-06-11T08:56:22.780090
1066,-0.1620,0.9780,-0.1132,-0.105,-0.140,0.560,0.94,0.0368,0.1273,0.2662,0.0087,2025-06-11T08:56:22.780090
1067,-0.1767,0.9736,-0.1039,-0.700,1.435,0.805,0.94,0.0368,0.1018,0.2662,0.0087,2025-06-11T08:56:22.780090
1068,-0.1981,0.9721,-0.0917,-1.365,1.085,0.630,0.94,0.0368,0.1273,0.2662,0.0087,2025-06-11T08:56:22.780090
1069,-0.2020,0.9711,-0.0869,-1.925,-0.735,0.420,0.94,0.0368,0.1273,0.2662,0.0174,2025-06-11T08:56:22.780090
1070,-0.2011,0.9682,-0.0922,-2.415,-2.695,0.315,0.94,0.0184,0.1273,0.2662,0.0174,2025-06-11T08:56:22.780090
1071,-0.2069,0.9638,-0.0937,-2.800,-3.675,-0.105,0.94,0.0368,0.1273,0.2662,0.0174,2025-06-11T08:56:22.886825
1072,-0.1996,0.9550,-0.0986,-3.220,-3.850,-0.665,0.94,0.0368,0.1273,0.2662,0.0174,2025-06-11T08:56:22.886825
1073,-0.1932,0.9496,-0.0864,-3.430,-3.570,-0.735,0.95,0.0368,0.1273,0.2662,0.0174,2025-06-11T08:56:22.887840
1074,-0.1942,0.9443,-0.0776,-3.430,-3.605,-0.910,0.94,0.0368,0.1529,0.2662,0.0174,2025-06-11T08:56:22.887840
1075,-0.1835,0.9457,-0.0664,-3.220,-3.640,-1.225,0.94,0.0368,0.1273,0.2662,0.0087,2025-06-11T08:56:22.887840
1076,-0.1620,0.9482,-0.0634,-2.520,-2.310,-1.505,0.94,0.0368,0.1273,0.2767,0.0087,2025-06-11T08:56:22.887840
1077,-0.1596,0.9560,-0.0732,-1.785,-0.770,-1.505,0.94,0.0368,0.1273,0.2767,0.0087,2025-06-11T08:56:22.887840
1078,-0.1674,0.9550,-0.1035,-0.280,-0.455,-1.260,0.95,0.0368,0.1018,0.2872,0.0087,2025-06-11T08:56:22.887840
1079,-0.1737,0.9609,-0.1039,1.330,-0.665,-1.085,0.94,0.0184,0.1273,0.2872,0.0174,2025-06-11T08:56:22.887840
1080,-0.1693,0.9638,-0.0893,2.835,-0.875,-1.085,0.94,0.0184,0.1018,0.2872,0.0087,2025-06-11T08:56:22.887840
1081,-0.1645,0.9560,-0.0986,3.710,-1.435,-0.595,0.94,0.0184,0.1273,0.2872,0.0174,2025-06-11T08:56:22.887840
1082,-0.1625,0.9496,-0.0932,4.095,-1.015,-0.490,0.94,0.0368,0.1273,0.2978,0.0087,2025-06-11T08:56:22.887840
1083,-0.1469,0.9433,-0.0834,4.095,2.380,-1.435,0.94,0.0368,0.1273,0.2978,0.0174,2025-06-11T08:56:22.887840
1084,-0.1586,0.9374,-0.1035,3.360,5.495,-3.045,0.94,0.0184,0.1273,0.3084,0.0174,2025-06-11T08:56:22.887840
1085,-0.1889,0.9379,-0.1083,2.975,6.090,-5.740,0.95,0.0368,0.1273,0.2872,0.0174,2025-06-11T08:56:22.887840
1086,-0.1854,0.9472,-0.1132,2.940,3.115,-7.875,0.95,0.0368,0.1273,0.2872,0.0174,2025-06-11T08:56:22.887840
1087,-0.1732,0.9555,-0.1093,3.150,-0.735,-9.625,0.95,0.0368,0.1273,0.2872,0.0087,2025-06-11T08:56:23.188549
1088,-0.1625,0.9604,-0.1035,3.815,-1.155,-11.270,0.94,0.0368,0.1273,0.2662,0.0174,2025-06-11T08:56:23.188549
1089,-0.1313,0.9648,-0.0981,4.305,1.225,-13.125,0.95,0.0184,0.1018,0.2872,0.0174,2025-06-11T08:56:23.188549
1090,-0.1318,0.9682,-0.1020,4.200,6.650,-13.790,0.94,0.0368,0.1018,0.2872,0.0174,2025-06-11T08:56:23.188549
1091,-0.1645,0.9682,-0.1264,3.780,10.640,-14.245,0.94,0.0368,0.1273,0.2767,0.0087,2025-06-11T08:56:23.188549
1092,-0.1942,0.9623,-0.1366,3.010,12.880,-14.315,0.94,0.0368,0.1018,0.2767,0.0087,2025-06-11T08:56:23.188549
1093,-0.2103,0.9531,-0.1396,1.995,13.895,-13.790,0.94,0.0184,0.1018,0.2662,0.0087,2025-06-11T08:56:23.189566
1094,-0.2318,0.9618,-0.1298,1.190,14.595,-12.425,0.94,0.0368,0.1273,0.2557,0.0087,2025-06-11T08:56:23.189566
1095,-0.2450,0.9633,-0.1435,0.455,13.265,-11.410,0.94,0.0368,0.1273,0.2662,0.0087,2025-06-11T08:56:23.189566
1096,-0.2357,0.9570,-0.1362,-0.035,11.200,-9.065,0.94,0.0184,0.1018,0.2557,0.0174,2025-06-11T08:56:23.189566
1097,-0.2284,0.9565,-0.1196,-0.630,10.955,-7.420,0.94,0.0368,0.1018,0.2452,0.0087,2025-06-11T08:56:23.189566
1098,-0.2255,0.9428,-0.1386,-1.015,11.445,-6.055,0.94,0.0368,0.0762,0.2348,0.0087,2025-06-11T08:56:23.189566
1099,-0.2264,0.9365,-0.1420,-1.015,12.285,-5.285,0.94,0.0184,0.1018,0.2348,0.0174,2025-06-11T08:56:23.189566
1100,-0.2279,0.9428,-0.1054,-0.700,14.805,-5.670,0.95,0.0368,0.1018,0.2452,0.0087,2025-06-11T08:56:23.189566
1101,-0.2352,0.9526,-0.1000,-0.350,16.870,-6.475,0.95,0.0368,0.1018,0.2452,0.0087,2025-06-11T08:56:23.385113
1102,-0.2494,0.9653,-0.1035,0.595,16.415,-6.580,0.94,0.0368,0.1273,0.2662,0.0174,2025-06-11T08:56:23.385113
1103,-0.2674,0.9731,-0.0986,1.295,14.035,-6.475,0.94,0.0368,0.1018,0.2452,0.0087,2025-06-11T08:56:23.385113
1104,-0.2645,0.9745,-0.0981,1.435,9.835,-5.845,0.94,0.0368,0.1273,0.2662,0.0174,2025-06-11T08:56:23.385113
