SeqNum,AccX,AccY,AccZ,GyroX,GyroY,GyroZ,Flex,Force1,Force2,Force3,Force4,TimestampReception
8107,-0.3997,0.6608,0.6525,-0.035,-2.695,8.925,0.00,0.0368,0.0508,0.0200,0.0087,2025-06-09T13:41:03.271692
8108,-0.4050,0.6588,0.6471,-1.225,-1.470,0.070,0.00,0.0184,0.0254,0.0200,0.0174,2025-06-09T13:41:03.271692
8109,-0.3880,0.6593,0.6471,3.570,-3.325,0.385,0.01,0.0184,0.0254,0.0100,0.0087,2025-06-09T13:41:03.271692
8110,-0.4016,0.6637,0.6515,0.630,-1.785,0.490,0.01,0.0368,0.0508,0.0100,0.0087,2025-06-09T13:41:03.271692
8111,-0.3909,0.6627,0.6471,0.385,-3.115,0.245,0.01,0.0368,0.0254,0.0200,0.0087,2025-06-09T13:41:03.271692
8112,-0.4041,0.6651,0.6451,-0.945,-2.730,0.560,0.00,0.0184,0.0254,0.0401,0.0087,2025-06-09T13:41:03.271692
8113,-0.3841,0.6637,0.6500,-0.105,-2.240,0.280,0.00,0.0184,0.0254,0.0200,0.0000,2025-06-09T13:41:03.271692
8114,-0.4036,0.6700,0.6505,1.295,-2.205,0.035,0.01,0.0368,0.0508,0.0100,0.0087,2025-06-09T13:41:03.271692
8115,-0.3933,0.6627,0.6539,0.210,-1.995,0.070,0.00,0.0368,0.0000,0.0000,0.0174,2025-06-09T13:41:03.319563
8116,-0.4021,0.6637,0.6500,-0.455,-2.870,0.175,0.01,0.0368,0.0254,0.0000,0.0000,2025-06-09T13:41:03.319563
8117,-0.3933,0.6632,0.6481,-1.260,-2.170,0.280,0.01,0.0184,0.0000,0.0000,0.0087,2025-06-09T13:41:03.319563
8118,-0.3997,0.6656,0.6510,0.525,-1.960,-0.035,0.00,0.0184,0.0508,0.0501,0.0174,2025-06-09T13:41:03.319563
8119,-0.3977,0.6647,0.6471,1.120,-1.855,-0.035,0.00,0.0184,0.0254,0.0000,0.0174,2025-06-09T13:41:03.496291
8120,-0.3953,0.6671,0.6471,-0.070,-2.380,-0.245,0.00,0.0184,0.0508,0.0000,0.0174,2025-06-09T13:41:03.496291
8121,-0.4016,0.6642,0.6495,-1.295,-2.695,-0.105,0.00,0.0184,0.0508,0.0602,0.0174,2025-06-09T13:41:03.496291
8122,-0.3987,0.6622,0.6476,-0.490,-2.590,0.070,0.01,0.0184,0.0508,0.0000,0.0262,2025-06-09T13:41:03.496291
8123,-0.3948,0.6632,0.6481,0.630,-2.170,0.140,0.00,0.0184,0.0508,0.0501,0.0174,2025-06-09T13:41:03.496291
8124,-0.3953,0.6588,0.6481,0.735,-2.065,0.105,0.00,0.0184,0.0762,0.0200,0.0087,2025-06-09T13:41:03.496291
8125,-0.3982,0.6622,0.6451,0.175,-2.275,0.350,0.01,0.0184,0.0254,0.0000,0.0087,2025-06-09T13:41:03.496291
8126,-0.3967,0.6676,0.6461,-0.035,-2.555,0.630,0.00,0.0184,0.0254,0.0100,0.0087,2025-06-09T13:41:03.496291
8127,-0.3943,0.6647,0.6486,0.455,-1.855,0.280,0.00,0.0184,0.0254,0.0000,0.0000,2025-06-09T13:41:03.496291
8128,-0.3987,0.6676,0.6500,1.155,-2.100,0.140,0.00,0.0184,0.0762,0.0000,0.0000,2025-06-09T13:41:03.496291
8129,-0.3963,0.6666,0.6500,0.000,-2.240,0.105,0.00,0.0184,0.0508,0.0501,0.0087,2025-06-09T13:41:03.496291
8130,-0.3967,0.6647,0.6476,-0.840,-2.450,0.070,0.00,0.0368,0.0508,0.0300,0.0087,2025-06-09T13:41:03.496291
8131,-0.3982,0.6647,0.6471,-0.350,-2.625,0.175,0.01,0.0184,0.0254,0.0200,0.0174,2025-06-09T13:41:03.668799
8132,-0.3987,0.6637,0.6476,0.630,-2.310,0.105,0.01,0.0368,0.0508,0.0000,0.0087,2025-06-09T13:41:03.668799
8133,-0.3992,0.6656,0.6495,0.665,-2.275,0.315,0.00,0.0368,0.0508,0.0200,0.0087,2025-06-09T13:41:03.668799
8134,-0.3992,0.6647,0.6466,0.245,-2.590,0.385,0.00,0.0184,0.0254,0.0501,0.0087,2025-06-09T13:41:03.668799
8135,-0.3972,0.6632,0.6466,-0.245,-2.800,0.280,0.00,0.0184,0.0508,0.0200,0.0087,2025-06-09T13:41:03.668799
8136,-0.3982,0.6627,0.6486,-0.140,-2.835,0.280,0.00,0.0184,0.0000,0.0200,0.0087,2025-06-09T13:41:03.668799
8137,-0.3963,0.6637,0.6466,0.350,-2.590,0.420,0.00,0.0184,0.0508,0.0100,0.0087,2025-06-09T13:41:03.668799
8138,-0.3958,0.6617,0.6466,0.630,-2.520,0.420,0.00,0.0184,0.0254,0.0401,0.0000,2025-06-09T13:41:03.668799
8139,-0.4002,0.6656,0.6486,0.560,-2.520,0.525,0.01,0.0184,0.0508,0.0401,0.0087,2025-06-09T13:41:03.668799
8140,-0.3977,0.6637,0.6461,0.280,-2.730,0.455,0.01,0.0368,0.0254,0.0200,0.0174,2025-06-09T13:41:03.668799
8141,-0.3997,0.6656,0.6481,0.210,-2.765,0.490,0.00,0.0552,0.0508,0.0000,0.0174,2025-06-09T13:41:03.668799
8142,-0.3924,0.6642,0.6481,-0.105,-2.695,0.350,0.00,0.0184,0.0508,0.0000,0.0087,2025-06-09T13:41:03.668799
8143,-0.3963,0.6608,0.6471,-0.280,-2.345,0.350,0.00,0.0368,0.0254,0.0000,0.0087,2025-06-09T13:41:03.668799
8144,-0.3997,0.6588,0.6442,0.770,-2.625,0.595,0.00,0.0184,0.0254,0.0401,0.0000,2025-06-09T13:41:03.668799
8145,-0.4021,0.6637,0.6486,1.645,-2.240,0.945,0.00,0.0184,0.0254,0.0000,0.0087,2025-06-09T13:41:03.783493
8146,-0.4016,0.6710,0.6564,2.240,-2.345,1.050,0.00,0.0368,0.0508,0.0000,0.0174,2025-06-09T13:41:03.783493
8147,-0.3967,0.6759,0.6529,0.910,-2.730,0.630,0.01,0.0184,0.0000,0.0100,0.0087,2025-06-09T13:41:03.783493
8148,-0.3992,0.6778,0.6471,-0.875,-2.975,0.105,0.01,0.0368,0.0508,0.0000,0.0087,2025-06-09T13:41:03.783493
8149,-0.3933,0.6734,0.6437,-1.785,-2.765,-0.630,0.01,0.0368,0.0508,0.0300,0.0174,2025-06-09T13:41:03.783493
8150,-0.3943,0.6651,0.6417,-1.260,-2.660,-0.910,0.01,0.0368,0.0254,0.0000,0.0087,2025-06-09T13:41:03.783493
8151,-0.3982,0.6593,0.6446,-0.385,-2.240,-0.770,0.01,0.0184,0.0000,0.0300,0.0087,2025-06-09T13:41:03.783493
8152,-0.3967,0.6578,0.6471,-0.105,-2.135,-0.280,0.00,0.0368,0.0762,0.0401,0.0174,2025-06-09T13:41:03.783493
8153,-0.3987,0.6622,0.6534,0.280,-2.205,0.140,0.01,0.0184,0.0508,0.0703,0.0087,2025-06-09T13:41:03.834357
8154,-0.3992,0.6651,0.6461,0.595,-2.065,0.385,0.00,0.0368,0.0762,0.0100,0.0087,2025-06-09T13:41:03.834357
8155,-0.3982,0.6686,0.6422,0.385,-2.345,0.350,0.00,0.0184,0.0254,0.0401,0.0174,2025-06-09T13:41:03.834357
8156,-0.3982,0.6676,0.6446,-0.070,-2.345,0.070,0.01,0.0184,0.0508,0.0300,0.0174,2025-06-09T13:41:03.834357
8157,-0.3992,0.6676,0.6456,-0.315,-2.660,-0.175,0.01,0.0184,0.0254,0.0000,0.0174,2025-06-09T13:41:03.885251
8158,-0.3992,0.6642,0.6451,-0.805,-2.695,-0.280,0.00,0.0368,0.0254,0.0000,0.0000,2025-06-09T13:41:03.885251
8159,-0.4011,0.6603,0.6476,-0.700,-2.835,-0.175,0.01,0.0184,0.0254,0.0000,0.0000,2025-06-09T13:41:03.885251
8160,-0.3997,0.6588,0.6481,-0.035,-2.765,0.245,0.01,0.0184,0.0508,0.0300,0.0087,2025-06-09T13:41:03.885251
8161,-0.4011,0.6622,0.6471,0.735,-2.940,0.630,0.01,0.0368,0.0254,0.0100,0.0087,2025-06-09T13:41:03.994028
8162,-0.3948,0.6617,0.6442,0.735,-2.870,0.840,0.00,0.0368,0.0254,0.0000,0.0262,2025-06-09T13:41:03.994028
8163,-0.3977,0.6686,0.6456,0.910,-2.555,0.735,0.01,0.0184,0.0000,0.0401,0.0174,2025-06-09T13:41:03.994028
8164,-0.3943,0.6695,0.6495,0.875,-2.590,0.245,0.00,0.0368,0.0508,0.0200,0.0087,2025-06-09T13:41:03.994028
8165,-0.3967,0.6617,0.6427,-0.455,-2.800,0.105,0.01,0.0184,0.0254,0.0000,0.0000,2025-06-09T13:41:03.994028
8166,-0.3953,0.6612,0.6412,-0.980,-2.800,0.315,0.00,0.0184,0.0508,0.0000,0.0087,2025-06-09T13:41:03.994028
8167,-0.3938,0.6651,0.6515,0.175,-1.820,0.350,0.00,0.0368,0.0508,0.0000,0.0087,2025-06-09T13:41:03.994028
8168,-0.3928,0.6656,0.6534,1.890,-1.330,0.210,0.01,0.0368,0.0254,0.0300,0.0087,2025-06-09T13:41:04.077359
8169,-0.4011,0.6705,0.6476,1.365,-1.505,0.420,0.01,0.0184,0.0254,0.0401,0.0087,2025-06-09T13:41:04.077359
8170,-0.4026,0.6749,0.6456,-0.280,-2.275,0.350,0.00,0.0368,0.0508,0.0602,0.0000,2025-06-09T13:41:04.077359
8171,-0.4046,0.6769,0.6466,-1.225,-2.835,-0.175,0.00,0.0184,0.0762,0.0401,0.0000,2025-06-09T13:41:04.077359
8172,-0.4006,0.6730,0.6446,-0.980,-3.010,-0.420,0.01,0.0368,0.0762,0.0000,0.0087,2025-06-09T13:41:04.077359
8173,-0.4016,0.6681,0.6451,-0.665,-3.255,-0.490,0.00,0.0184,0.0000,0.0000,0.0174,2025-06-09T13:41:04.077359
8174,-0.4011,0.6612,0.6442,-0.560,-3.850,0.035,0.00,0.0184,0.0762,0.0100,0.0087,2025-06-09T13:41:04.077359
8175,-0.3992,0.6598,0.6456,-0.245,-3.745,0.385,0.00,0.0184,0.0508,0.0300,0.0087,2025-06-09T13:41:04.180054
8176,-0.3982,0.6632,0.6466,0.455,-4.025,0.840,0.01,0.0184,0.0508,0.0300,0.0087,2025-06-09T13:41:04.180054
8177,-0.3958,0.6666,0.6471,1.085,-3.570,0.840,0.00,0.0368,0.0762,0.0100,0.0174,2025-06-09T13:41:04.180054
8178,-0.3972,0.6710,0.6486,1.505,-3.675,0.700,0.01,0.0368,0.0000,0.0200,0.0087,2025-06-09T13:41:04.180054
8179,-0.3972,0.6739,0.6495,0.455,-3.920,0.420,0.00,0.0184,0.0508,0.0000,0.0087,2025-06-09T13:41:04.180054
8180,-0.3972,0.6778,0.6505,-0.595,-4.270,0.140,0.00,0.0184,0.0254,0.0401,0.0087,2025-06-09T13:41:04.180054
8181,-0.4075,0.6759,0.6544,-1.050,-3.500,-0.735,0.00,0.0184,0.0508,0.0100,0.0087,2025-06-09T13:41:04.180054
8182,-0.3977,0.6725,0.6559,0.945,-4.025,-0.560,0.00,0.0184,0.0000,0.0100,0.0000,2025-06-09T13:41:04.180054
8183,-0.3982,0.6827,0.6637,-1.505,-3.990,-1.050,0.01,0.0368,0.0762,0.0100,0.0174,2025-06-09T13:41:04.285801
8184,-0.4021,0.6852,0.6632,-2.065,-4.060,-2.100,0.01,0.0368,0.0508,0.0200,0.0087,2025-06-09T13:41:04.285801
8185,-0.4011,0.6793,0.6520,-3.255,-5.180,-2.590,0.01,0.0184,0.0254,0.0200,0.0087,2025-06-09T13:41:04.285801
8186,-0.3889,0.6647,0.6422,-6.090,-4.200,-3.535,0.01,0.0184,0.0762,0.0100,0.0174,2025-06-09T13:41:04.285801
8187,-0.3933,0.6495,0.6393,-5.460,-4.165,-4.060,0.01,0.0184,0.0508,0.0200,0.0174,2025-06-09T13:41:04.285801
8188,-0.3909,0.6305,0.6378,-4.410,-3.605,-3.395,0.00,0.0184,0.0254,0.0300,0.0087,2025-06-09T13:41:04.285801
8189,-0.3943,0.6193,0.6403,-2.345,-3.185,-1.995,0.00,0.0368,0.0508,0.0100,0.0174,2025-06-09T13:41:04.285801
8190,-0.3997,0.7471,0.6486,0.875,-3.325,-0.105,0.01,0.0184,0.0508,0.0501,0.0087,2025-06-09T13:41:04.285801
8191,-0.3938,0.6349,0.6520,2.345,-2.485,1.505,0.01,0.0184,0.1273,0.0000,0.0174,2025-06-09T13:41:04.382408
8192,-0.4060,0.6520,0.6525,3.990,-2.310,2.275,0.00,0.0000,0.0508,0.0100,0.0174,2025-06-09T13:41:04.382408
8193,-0.3924,0.6612,0.6486,3.710,-2.800,2.170,0.00,0.0184,0.0254,0.0300,0.0087,2025-06-09T13:41:04.382408
8194,-0.4046,0.6739,0.6456,1.330,-3.185,1.785,0.00,0.0368,0.0508,0.0100,0.0174,2025-06-09T13:41:04.382408
8195,-0.3987,0.6827,0.6505,1.540,-3.605,1.225,0.00,0.0184,0.0508,0.0200,0.0087,2025-06-09T13:41:04.382408
8196,-0.3992,0.6822,0.6578,0.630,-3.395,0.070,0.00,0.0184,0.0254,0.0501,0.0087,2025-06-09T13:41:04.382408
8197,-0.3987,0.6778,0.6544,-0.980,-3.745,-0.455,0.00,0.0184,0.0508,0.0300,0.0087,2025-06-09T13:41:04.382408
8198,-0.3967,0.6671,0.6500,-2.240,-4.235,-0.700,0.00,0.0184,0.0508,0.0200,0.0174,2025-06-09T13:41:04.484165
8199,-0.3977,0.6608,0.6549,-1.995,-3.675,-0.910,0.01,0.0184,0.0508,0.0100,0.0000,2025-06-09T13:41:04.484165
8200,-0.4011,0.6627,0.6568,-0.140,-4.095,-0.560,0.00,0.0184,0.0508,0.0401,0.0174,2025-06-09T13:41:04.484165
8201,-0.3875,0.6583,0.6510,-0.280,-2.765,-0.840,0.01,0.0184,0.0762,0.0100,0.0087,2025-06-09T13:41:04.484165
8202,-0.4006,0.6632,0.6481,-0.490,-3.045,-0.665,0.01,0.0368,0.0254,0.0100,0.0087,2025-06-09T13:41:04.484165
8203,-0.3928,0.6608,0.6515,-1.470,-3.045,-0.840,0.01,0.0184,0.0508,0.0300,0.0087,2025-06-09T13:41:04.484165
8204,-0.3948,0.6549,0.6471,-1.050,-3.010,-0.910,0.00,0.0184,0.0508,0.0100,0.0087,2025-06-09T13:41:04.484165
8205,-0.3958,0.6578,0.6490,-0.490,-2.660,-0.770,0.00,0.0184,0.0000,0.0200,0.0087,2025-06-09T13:41:04.484165
8206,-0.3977,0.6598,0.6529,-0.140,-2.660,-0.700,0.01,0.0368,0.0254,0.0100,0.0174,2025-06-09T13:41:04.579961
8207,-0.3967,0.6573,0.6544,-0.525,-2.695,-0.595,0.00,0.0184,0.0508,0.0100,0.0087,2025-06-09T13:41:04.579961
8208,-0.3997,0.6583,0.6515,-1.085,-3.010,-0.280,0.00,0.0368,0.0508,0.0100,0.0087,2025-06-09T13:41:04.579961
8209,-0.3972,0.6564,0.6481,-0.735,-3.080,-0.105,0.01,0.0184,0.0762,0.0300,0.0174,2025-06-09T13:41:04.579961
8210,-0.3977,0.6583,0.6544,0.455,-2.975,-0.070,0.00,0.0184,0.0508,0.0200,0.0087,2025-06-09T13:41:04.579961
8211,-0.3953,0.6598,0.6549,0.630,-2.975,-0.140,0.01,0.0184,0.0254,0.0200,0.0087,2025-06-09T13:41:04.579961
8212,-0.3982,0.6608,0.6520,-0.105,-3.185,-0.105,0.01,0.0184,0.0508,0.0401,0.0087,2025-06-09T13:41:04.579961
8213,-0.3972,0.6583,0.6500,-0.770,-3.570,0.105,0.01,0.0368,0.0254,0.0100,0.0087,2025-06-09T13:41:04.695440
8214,-0.3963,0.6583,0.6515,-0.280,-3.290,0.140,0.00,0.0368,0.0254,0.0200,0.0174,2025-06-09T13:41:04.695440
8215,-0.3958,0.6598,0.6539,0.630,-2.940,0.035,0.01,0.0184,0.0254,0.0300,0.0087,2025-06-09T13:41:04.695440
8216,-0.3972,0.6598,0.6515,0.455,-2.940,-0.070,0.00,0.0184,0.0508,0.0100,0.0087,2025-06-09T13:41:04.695440
8217,-0.3987,0.6608,0.6520,-0.385,-3.150,2.975,0.01,0.0184,0.0508,0.0300,0.0087,2025-06-09T13:41:04.695440
8218,0.2752,0.2406,-2.4693,-239.610,-126.735,-13.755,0.01,0.0368,0.0254,0.0000,0.0087,2025-06-09T13:41:04.695440
8219,-0.5905,0.7798,2.3195,-203.350,-1.470,-22.260,0.00,0.0368,0.0254,0.0100,0.0174,2025-06-09T13:41:04.695440
8220,-0.4592,0.5705,1.3898,-33.495,-38.850,-38.535,0.00,0.0184,0.0508,0.0100,0.0087,2025-06-09T13:41:04.695440
8221,-0.3006,0.3958,1.0404,8.435,-9.695,-36.925,0.00,0.0184,0.0508,0.0100,0.0174,2025-06-09T13:41:04.799132
8222,-0.4338,0.4665,0.9145,11.760,-33.250,-15.365,0.00,0.0368,0.0508,0.0000,0.0087,2025-06-09T13:41:04.799132
8223,-0.4738,0.4524,0.6993,-2.975,-39.235,-2.205,0.01,0.0184,0.0508,0.0300,0.0174,2025-06-09T13:41:04.799132
8224,-0.3558,0.6559,0.5680,-18.200,-45.255,20.160,0.00,0.0368,0.0254,0.0602,0.0087,2025-06-09T13:41:04.799132
8225,-0.6422,0.6930,0.9262,22.260,0.140,12.810,0.01,0.0368,0.0508,0.0200,0.0174,2025-06-09T13:41:04.799132
8226,-0.4709,0.5036,0.9082,54.635,2.625,20.475,0.01,0.0184,0.0254,0.0100,0.0087,2025-06-09T13:41:04.799132
8227,-0.3938,0.8062,0.8486,41.825,17.220,14.735,0.01,0.0184,0.0508,0.0200,0.0087,2025-06-09T13:41:04.799132
8228,-0.3919,0.5588,0.9311,41.615,-6.020,20.020,0.00,0.0184,0.0508,0.0602,0.0087,2025-06-09T13:41:04.799132
8229,-0.3743,0.6285,0.8896,47.775,3.290,17.255,0.00,0.0184,0.0254,0.0100,0.0087,2025-06-09T13:41:04.892967
8230,-0.5822,0.7081,0.8486,70.070,11.095,20.265,0.00,0.0184,0.0254,0.0000,0.0087,2025-06-09T13:41:04.892967
8231,-0.4621,0.7828,0.8442,94.885,8.505,15.855,0.01,0.0184,0.0508,0.0200,0.0087,2025-06-09T13:41:04.892967
8232,-0.1674,0.6539,0.4329,58.520,-4.480,4.515,0.00,0.0184,0.0254,0.0200,0.0174,2025-06-09T13:41:04.892967
8233,-0.0761,0.3655,0.2728,-13.930,-15.400,12.705,0.01,0.0368,0.0762,0.0200,0.0087,2025-06-09T13:41:04.892967
8234,-0.1103,0.2377,0.4904,8.330,-4.725,22.645,0.00,0.0368,0.0508,0.0300,0.0087,2025-06-09T13:41:04.892967
8235,-0.2855,0.4773,0.7945,103.285,-15.155,37.695,0.00,0.0184,0.0254,0.0100,0.0087,2025-06-09T13:41:04.892967
8236,-0.5661,0.6617,0.9028,177.275,5.810,47.040,0.01,0.0368,0.0508,0.0200,0.0087,2025-06-09T13:41:05.103658
8237,-0.4192,0.8564,0.9394,168.350,-13.895,41.125,0.01,0.0184,0.0508,0.0401,0.0087,2025-06-09T13:41:05.103658
8238,-0.7408,1.0546,0.3850,82.460,-30.940,21.945,0.00,0.0368,0.0000,0.0100,0.0174,2025-06-09T13:41:05.103658
8239,-0.5885,1.1761,1.5899,129.395,-18.235,62.755,0.01,0.0184,0.0254,0.0000,0.0087,2025-06-09T13:41:05.103658
8240,-0.9848,1.1907,1.7914,167.965,-104.440,80.395,0.00,0.0368,0.0254,0.0200,0.0087,2025-06-09T13:41:05.103658
8241,-1.1273,1.1180,1.6055,177.555,-17.220,98.735,0.00,0.0184,0.0254,0.0200,0.0087,2025-06-09T13:41:05.103658
8242,-2.0189,1.2956,2.8392,103.880,-530.250,186.375,0.00,0.0184,0.0254,0.0000,0.0174,2025-06-09T13:41:05.103658
8243,-2.3536,1.3762,1.0970,-280.035,-950.985,386.190,0.00,0.0184,0.0508,0.0200,0.0087,2025-06-09T13:41:05.103658
8244,-2.3551,1.4416,0.5519,-293.125,-1141.805,468.615,0.00,0.0184,0.0254,0.0200,0.0087,2025-06-09T13:41:05.103658
8245,-1.0106,1.4864,-0.0669,-420.105,-1146.390,111.545,0.00,0.0368,0.0254,0.0200,0.0174,2025-06-09T13:41:05.103658
8246,-0.6339,1.4679,-0.9072,-515.620,-1101.100,130.935,0.00,0.0184,0.0254,0.0200,0.0087,2025-06-09T13:41:05.103658
8247,-0.5905,0.6129,-0.8662,-461.335,-828.240,145.845,0.00,0.0184,0.0254,0.0000,0.0087,2025-06-09T13:41:05.103658
8248,0.1928,0.6334,-0.9897,-285.250,-633.920,91.665,0.00,0.0184,0.0254,0.0100,0.0087,2025-06-09T13:41:05.103658
8249,0.8452,0.8169,-1.7622,-56.070,-297.500,72.345,0.01,0.0184,0.0762,0.0100,0.0087,2025-06-09T13:41:05.103658
8250,0.7754,0.7735,-1.8393,83.125,-52.920,90.020,0.00,0.0368,0.0508,0.0100,0.0087,2025-06-09T13:41:05.103658
8251,0.3748,0.4280,-1.9974,353.080,141.155,82.320,0.01,0.0368,0.0762,0.0000,0.0174,2025-06-09T13:41:05.103658
8252,-0.2791,0.1937,-2.2170,181.020,348.915,69.055,0.01,0.0184,0.0508,0.0200,0.0087,2025-06-09T13:41:05.176161
8253,-0.1610,0.0400,-2.1252,33.775,647.325,49.980,0.01,0.0368,0.0508,0.0000,0.0174,2025-06-09T13:41:05.176161
8254,0.1825,0.8589,-1.7988,-112.350,927.605,77.105,0.00,0.0368,0.0508,0.0200,0.0087,2025-06-09T13:41:05.176161
8255,0.7066,1.2293,-0.5397,-41.335,982.765,182.840,0.01,0.0368,0.0762,0.0300,0.0000,2025-06-09T13:41:05.176161
8256,-0.6432,1.4118,-0.1781,349.860,1111.670,133.980,0.01,0.0184,0.0254,0.0300,0.0087,2025-06-09T13:41:05.309827
8257,-2.5254,1.4991,0.7959,556.115,1030.610,79.065,0.01,0.0368,0.0254,0.0100,0.0087,2025-06-09T13:41:05.309827
8258,-2.8899,1.2366,0.1205,1146.740,693.105,-31.325,0.01,0.0368,0.0508,0.0200,0.0174,2025-06-09T13:41:05.312818
8259,-2.9666,2.1077,11.0844,628.880,615.615,34.090,0.01,0.0000,0.0254,0.0100,0.0087,2025-06-09T13:41:05.312818
8260,-3.3296,2.4483,7.0975,-4.095,249.410,168.490,0.00,0.0184,0.0508,0.0100,0.0087,2025-06-09T13:41:05.312818
8261,-2.4571,1.9017,5.0669,-336.770,-638.155,76.440,0.00,0.0184,0.0000,0.0200,0.0087,2025-06-09T13:41:05.312818
8262,-2.3844,1.3957,0.7115,-983.640,-781.095,-8.295,0.00,0.0184,0.0254,0.0401,0.0087,2025-06-09T13:41:05.312818
8263,-1.2917,1.0775,-0.5597,-784.875,-1052.520,-138.635,0.00,0.0368,0.0000,0.0100,0.0087,2025-06-09T13:41:05.312818
8264,-0.2791,0.9511,-1.1068,-523.075,-816.410,-97.055,0.00,0.0368,0.0254,0.0200,0.0087,2025-06-09T13:41:05.312818
8265,0.1850,1.2600,-1.2869,-461.020,-465.045,-408.660,0.00,0.0000,0.0254,0.0000,0.0174,2025-06-09T13:41:05.312818
8266,0.6598,1.6163,-1.6216,-178.675,-186.655,-333.935,0.00,0.0368,0.0508,0.0200,0.0087,2025-06-09T13:41:05.412527
8267,0.8550,1.8105,-1.2683,-126.665,-11.305,-151.410,0.00,0.0368,0.0254,0.0100,0.0174,2025-06-09T13:41:05.412527
8268,0.9496,1.6719,-1.1893,10.395,141.470,2.625,0.01,0.0368,0.0508,0.0100,0.0087,2025-06-09T13:41:05.412527
8269,0.7183,1.1185,-0.7408,84.560,257.635,109.620,0.01,0.0184,0.0508,0.0200,0.0000,2025-06-09T13:41:05.412527
8270,0.3953,0.8789,-0.5656,176.015,385.245,175.490,0.01,0.0184,0.0508,0.0100,0.0174,2025-06-09T13:41:05.412527
8271,0.1957,1.0834,0.0010,261.905,467.600,203.175,0.00,0.0368,0.0254,0.0200,0.0087,2025-06-09T13:41:05.412527
8272,-0.1503,1.1292,0.2835,317.345,518.490,206.220,0.00,0.0184,0.0508,0.0000,0.0087,2025-06-09T13:41:05.412527
8273,-0.4070,1.0102,0.7135,364.385,509.425,167.370,0.01,0.0368,0.0254,0.0000,0.0087,2025-06-09T13:41:05.412527
8274,-0.8891,0.6012,1.1366,345.030,443.170,-24.430,0.00,0.0368,0.0508,0.0401,0.0087,2025-06-09T13:41:05.519243
8275,-1.0258,1.1214,1.1829,296.695,358.050,18.760,0.01,0.0184,0.0508,0.0000,0.0174,2025-06-09T13:41:05.519243
8276,-0.8618,0.9618,1.5216,143.290,220.395,-26.740,0.00,0.0368,0.0254,0.0300,0.0174,2025-06-09T13:41:05.519243
8277,-0.6193,1.0233,1.4450,-34.545,91.525,-33.040,0.01,0.0368,0.0508,0.0200,0.0087,2025-06-09T13:41:05.519243
8278,-0.4006,0.9584,1.3571,-162.575,-0.525,-16.205,0.00,0.0368,0.0254,0.0200,0.0000,2025-06-09T13:41:05.519243
8279,-0.2323,0.8516,1.1419,-188.965,-53.060,-9.765,0.00,0.0368,0.0254,0.0200,0.0087,2025-06-09T13:41:05.519243
8280,-0.1801,0.7242,0.9609,-129.360,-57.855,1.365,0.00,0.0368,0.0254,0.0300,0.0087,2025-06-09T13:41:05.519243
8281,-0.1274,0.6490,0.7764,-24.290,-26.600,3.150,0.00,0.0184,0.0508,0.0200,0.0174,2025-06-09T13:41:05.519243
8282,-0.1327,0.6246,0.6710,44.485,1.155,3.080,0.01,0.0184,0.0508,0.0100,0.0087,2025-06-09T13:41:05.616980
8283,-0.1391,0.6261,0.6481,72.520,20.405,1.890,0.01,0.0184,0.0762,0.0100,0.0087,2025-06-09T13:41:05.616980
8284,-0.1732,0.6510,0.6490,49.070,22.155,-1.330,0.01,0.0184,0.0762,0.0100,0.0087,2025-06-09T13:41:05.616980
8285,-0.1957,0.6764,0.6710,-1.085,14.700,-2.520,0.01,0.0184,0.0508,0.0100,0.0087,2025-06-09T13:41:05.616980
8286,-0.1903,0.7091,0.7408,-24.920,5.005,-2.765,0.00,0.0184,0.0254,0.0300,0.0174,2025-06-09T13:41:05.616980
8287,-0.1718,0.7149,0.7369,-25.130,-3.815,-1.505,0.00,0.0184,0.0254,0.0200,0.0087,2025-06-09T13:41:05.616980
8288,-0.1566,0.7139,0.6764,-15.400,-8.925,0.455,0.00,0.0368,0.0254,0.0200,0.0087,2025-06-09T13:41:05.616980
8289,-0.1279,0.7271,0.6534,-16.345,-12.075,1.610,0.00,0.0184,0.0508,0.0200,0.0087,2025-06-09T13:41:05.716713
8290,-0.1039,0.7471,0.6237,-25.025,-10.780,1.190,0.00,0.0368,0.0508,0.0401,0.0087,2025-06-09T13:41:05.716713
8291,-0.0493,0.7740,0.6163,-29.190,-5.775,-0.350,0.00,0.0184,0.0254,0.0100,0.0174,2025-06-09T13:41:05.716713
8292,-0.0800,0.7593,0.6212,-20.965,3.500,0.105,0.01,0.0184,0.0254,0.0200,0.0174,2025-06-09T13:41:05.716713
8293,-0.1020,0.7481,0.6407,-3.255,13.020,1.085,0.00,0.0184,0.0508,0.0100,0.0087,2025-06-09T13:41:05.716713
8294,-0.1064,0.7686,0.6730,17.290,21.000,0.455,0.00,0.0184,0.0254,0.0100,0.0087,2025-06-09T13:41:05.716713
8295,-0.1293,0.7720,0.6964,21.070,21.560,-1.960,0.01,0.0184,0.0508,0.0000,0.0087,2025-06-09T13:41:05.716713
8296,-0.1435,0.7676,0.6988,10.605,15.050,-5.215,0.00,0.0184,0.0508,0.0401,0.0087,2025-06-09T13:41:05.773561
8297,-0.1430,0.7579,0.7100,-6.755,7.770,-6.055,0.00,0.0368,0.0508,0.0000,0.0174,2025-06-09T13:41:05.773561
8298,-0.1469,0.7349,0.7183,-15.400,1.925,-5.775,0.01,0.0184,0.0508,0.0200,0.0174,2025-06-09T13:41:05.773561
8299,-0.1415,0.7169,0.7042,-13.370,1.190,-5.670,0.01,0.0368,0.0000,0.0100,0.0087,2025-06-09T13:41:05.773561
8300,-0.1401,0.7115,0.6954,-5.215,1.435,-5.670,0.01,0.0184,0.0254,0.0300,0.0174,2025-06-09T13:41:05.918174
8301,-0.1415,0.6944,0.7100,3.570,4.200,-5.775,0.01,0.0184,0.0508,0.0100,0.0087,2025-06-09T13:41:05.918174
8302,-0.1469,0.6861,0.6891,4.900,6.720,-10.710,0.01,0.0184,0.0254,0.0200,0.0174,2025-06-09T13:41:05.918174
8303,-0.1776,0.6881,0.7061,0.525,8.085,-9.555,0.00,0.0184,0.0508,0.0200,0.0087,2025-06-09T13:41:05.918174
8304,-0.2001,0.6891,0.7013,-1.225,5.985,-5.775,0.01,0.0368,0.0508,0.0000,0.0174,2025-06-09T13:41:05.918174
8305,-0.2303,0.7271,0.9721,-1.225,-13.195,-4.095,0.00,0.0184,0.0508,0.0200,0.0087,2025-06-09T13:41:05.918174
8306,-0.1274,0.7144,0.6281,-13.580,-6.790,-0.945,0.00,0.0184,0.0762,0.0000,0.0174,2025-06-09T13:41:05.918174
8307,-0.1679,0.7164,0.7266,-15.295,-9.205,-0.315,0.00,0.0184,0.0254,0.0000,0.0087,2025-06-09T13:41:06.024583
8308,-0.1591,0.7110,0.6861,-2.905,-4.165,-1.995,0.00,0.0184,0.0508,0.0100,0.0087,2025-06-09T13:41:06.024583
8309,-0.1645,0.7183,0.7164,8.820,-3.255,-3.955,0.00,0.0368,0.0254,0.0000,0.0087,2025-06-09T13:41:06.024583
8310,-0.1596,0.7222,0.6832,5.390,-1.680,-4.445,0.00,0.0184,0.0254,0.0401,0.0174,2025-06-09T13:41:06.024583
8311,-0.1659,0.7281,0.7149,-2.275,-4.165,-3.605,0.00,0.0368,0.0508,0.0602,0.0087,2025-06-09T13:41:06.024583
8312,-0.1620,0.7310,0.6915,-3.255,-6.335,-2.730,0.00,0.0368,0.0508,0.0200,0.0174,2025-06-09T13:41:06.024583
8313,-0.1562,0.7374,0.6837,0.980,-6.335,-3.535,0.00,0.0184,0.0508,0.0200,0.0087,2025-06-09T13:41:06.024583
8314,-0.1674,0.7086,0.6827,3.815,-0.385,-2.555,0.00,0.0368,0.0508,0.0200,0.0087,2025-06-09T13:41:06.024583
8315,-0.1864,0.7203,0.7032,1.855,-2.695,-6.580,0.01,0.0184,0.0254,0.0200,0.0087,2025-06-09T13:41:06.028612
8316,-0.1518,0.7281,0.6827,-4.270,-2.625,-6.020,0.01,0.0368,0.0508,0.0200,0.0087,2025-06-09T13:41:06.028612
8317,-0.1669,0.7369,0.6930,-6.965,-4.445,-4.235,0.01,0.0184,0.0254,0.0200,0.0087,2025-06-09T13:41:06.028612
8318,-0.1635,0.7198,0.7017,-3.745,-5.600,-3.465,0.00,0.0184,0.0254,0.0200,0.0087,2025-06-09T13:41:06.028612
8319,-0.1703,0.7047,0.6808,-3.255,-4.480,-3.115,0.00,0.0184,0.0508,0.0200,0.0174,2025-06-09T13:41:06.132296
8320,-0.1708,0.7135,0.6871,-3.920,-3.290,-4.340,0.01,0.0184,0.0762,0.0200,0.0174,2025-06-09T13:41:06.132296
8321,-0.1684,0.7174,0.6881,-5.740,-2.450,-5.355,0.01,0.0368,0.0508,0.0300,0.0087,2025-06-09T13:41:06.132296
8322,-0.1723,0.7096,0.6939,-8.400,-1.750,-5.530,0.01,0.0368,0.0254,0.0300,0.0174,2025-06-09T13:41:06.132296
8323,-0.1762,0.7042,0.7061,-8.820,-1.365,-4.690,0.00,0.0184,0.0508,0.0200,0.0087,2025-06-09T13:41:06.132296
8324,-0.1767,0.7066,0.7149,-6.020,-0.980,-3.640,0.00,0.0184,0.0508,0.0300,0.0087,2025-06-09T13:41:06.132296
8325,-0.1732,0.7017,0.7169,-3.080,-1.120,-2.205,0.01,0.0184,0.0508,0.0200,0.0087,2025-06-09T13:41:06.132296
8326,-0.1781,0.7042,0.7130,-1.750,-0.875,-1.120,0.00,0.0184,0.0508,0.0200,0.0087,2025-06-09T13:41:06.132296
8327,-0.1781,0.7066,0.7130,-0.665,-0.840,-0.035,0.01,0.0368,0.0508,0.0100,0.0174,2025-06-09T13:41:06.179171
8328,-0.1752,0.7159,0.7081,0.070,-0.875,-0.210,0.01,0.0368,0.0254,0.0300,0.0174,2025-06-09T13:41:06.179171
8329,-0.1698,0.7178,0.6959,-0.140,-1.120,-0.630,0.00,0.0368,0.0254,0.0200,0.0174,2025-06-09T13:41:06.179171
8330,-0.1635,0.7110,0.6886,-2.345,-1.365,-1.050,0.01,0.0184,0.0508,0.0300,0.0087,2025-06-09T13:41:06.179171
8331,-0.1654,0.7017,0.6964,-4.865,-1.645,-1.610,0.01,0.0184,0.0254,0.0401,0.0087,2025-06-09T13:41:06.327772
8332,-0.1703,0.6886,0.6983,-5.250,-1.505,-1.260,0.00,0.0368,0.0508,0.0401,0.0174,2025-06-09T13:41:06.327772
8333,-0.1737,0.6861,0.7042,-3.570,-1.050,-0.315,0.01,0.0368,0.0254,0.0300,0.0174,2025-06-09T13:41:06.327772
8334,-0.1757,0.6964,0.7061,-1.960,-0.945,0.840,0.00,0.0368,0.0254,0.0200,0.0174,2025-06-09T13:41:06.327772
8335,-0.1732,0.7061,0.7071,-1.260,-1.470,1.120,0.00,0.0184,0.0508,0.0200,0.0087,2025-06-09T13:41:06.327772
8336,-0.1737,0.7056,0.7061,-1.925,-1.540,1.155,0.01,0.0184,0.0508,0.0300,0.0087,2025-06-09T13:41:06.327772
8337,-0.1698,0.7056,0.7105,-2.835,-2.065,0.805,0.00,0.0368,0.0254,0.0200,0.0087,2025-06-09T13:41:06.327772
8338,-0.1669,0.7096,0.7086,-1.750,-2.695,0.770,0.00,0.0368,0.1018,0.0200,0.0087,2025-06-09T13:41:06.327772
8339,-0.1723,0.6998,0.7061,-1.015,-3.150,1.470,0.00,0.0184,0.0508,0.0200,0.0087,2025-06-09T13:41:06.327772
8340,-0.1747,0.6954,0.7022,-1.400,-3.255,1.505,0.00,0.0184,0.0000,0.0100,0.0087,2025-06-09T13:41:06.327772
8341,-0.1786,0.6988,0.6978,-2.450,-3.255,1.330,0.00,0.0000,0.0254,0.0100,0.0174,2025-06-09T13:41:06.327772
8342,-0.1723,0.7086,0.7076,-2.135,-2.240,0.560,0.01,0.0368,0.0762,0.0300,0.0174,2025-06-09T13:41:06.449446
8343,-0.1752,0.7159,0.7110,-2.065,-2.170,-0.385,0.01,0.0368,0.0000,0.0200,0.0087,2025-06-09T13:41:06.449446
8344,-0.1698,0.7183,0.7056,-3.500,-2.975,-1.085,0.01,0.0184,0.0254,0.0200,0.0174,2025-06-09T13:41:06.449446
8345,-0.1283,0.7554,0.7056,2.135,-5.040,-5.565,0.01,0.0368,0.0254,0.0200,0.0087,2025-06-09T13:41:06.449446
8346,-0.2352,0.6720,0.7174,-2.625,-8.960,0.175,0.00,0.0184,0.0254,0.0000,0.0087,2025-06-09T13:41:06.449446
8347,-0.2074,0.5812,0.6744,-5.600,1.890,2.590,0.00,0.0368,0.0508,0.0200,0.0087,2025-06-09T13:41:06.449446
8348,-0.1747,0.7213,0.6978,7.245,5.530,-3.220,0.00,0.0184,0.0254,0.0300,0.0087,2025-06-09T13:41:06.449446
8349,-0.1576,0.7017,0.7017,7.770,6.335,-0.805,0.00,0.0368,0.0254,0.0100,0.0087,2025-06-09T13:41:06.449446
8350,-0.1786,0.7174,0.7222,-0.700,3.290,2.135,0.00,0.0184,0.0254,0.0300,0.0174,2025-06-09T13:41:06.449446
8351,-0.1352,0.7569,0.7120,1.785,-1.470,-0.630,0.01,0.0184,0.0762,0.0200,0.0174,2025-06-09T13:41:06.539348
8352,-0.1991,0.6949,0.6959,1.995,-2.730,1.190,0.01,0.0184,0.0508,0.0300,0.0174,2025-06-09T13:41:06.539348
8353,-0.1713,0.6832,0.7120,5.985,-0.595,2.030,0.00,0.0368,0.0508,0.0300,0.0174,2025-06-09T13:41:06.539348
8354,-0.0815,0.7974,0.7305,14.315,0.630,-13.370,0.00,0.0184,0.0508,0.0200,0.0087,2025-06-09T13:41:06.539348
8355,-0.1864,0.7632,0.6978,9.520,-2.450,-20.930,0.00,0.0184,0.0254,0.0100,0.0174,2025-06-09T13:41:06.539348
8356,-0.2181,0.7169,0.5934,-15.015,-8.785,-18.690,0.00,0.0368,0.0254,0.0200,0.0174,2025-06-09T13:41:06.539348
8357,-0.2264,0.6344,0.6837,-26.215,-6.055,-10.080,0.00,0.0184,0.0508,0.0300,0.0174,2025-06-09T13:41:06.634778
8358,-0.1967,0.7486,0.7603,-10.605,-2.170,-5.355,0.01,0.0368,0.0508,0.0200,0.0087,2025-06-09T13:41:06.634778
8359,-0.1728,0.6700,0.7320,7.840,-3.430,-0.560,0.00,0.0184,0.0254,0.0200,0.0174,2025-06-09T13:41:06.634778
8360,-0.1850,0.6876,0.7066,7.875,-2.625,2.240,0.00,0.0368,0.1018,0.0200,0.0000,2025-06-09T13:41:06.634778
8361,-0.2050,0.7071,0.7208,1.715,-4.655,3.815,0.00,0.0368,0.0254,0.0300,0.0087,2025-06-09T13:41:06.634778
8362,-0.1952,0.7017,0.7086,-2.065,-3.885,2.730,0.00,0.0000,0.0508,0.0200,0.0087,2025-06-09T13:41:06.634778
8363,-0.1879,0.6969,0.6969,0.245,-1.575,1.505,0.00,0.0368,0.0508,0.0100,0.0087,2025-06-09T13:41:06.634778
8364,-0.1879,0.6920,0.7110,3.080,-0.455,1.820,0.01,0.0184,0.0254,0.0300,0.0087,2025-06-09T13:41:06.634778
8365,-0.1801,0.7193,0.7037,3.605,-1.995,0.945,0.01,0.0184,0.0254,0.0200,0.0087,2025-06-09T13:41:06.736569
8366,-0.1869,0.7242,0.7027,-0.700,-2.380,-0.140,0.01,0.0368,0.0254,0.0200,0.0087,2025-06-09T13:41:06.736569
8367,-0.1869,0.6925,0.7032,-4.445,-2.870,-0.070,0.00,0.0368,0.0508,0.0401,0.0174,2025-06-09T13:41:06.736569
8368,-0.1893,0.6876,0.7105,-1.715,-1.575,0.070,0.01,0.0368,0.0254,0.0200,0.0087,2025-06-09T13:41:06.736569
8369,-0.1908,0.6920,0.7096,2.450,-1.155,0.665,0.01,0.0184,0.0508,0.0602,0.0174,2025-06-09T13:41:06.736569
8370,-0.1796,0.7013,0.7017,2.555,-1.365,1.155,0.00,0.0368,0.0508,0.0000,0.0087,2025-06-09T13:41:06.736569
8371,-0.1806,0.7017,0.7013,-0.560,-2.030,1.155,0.00,0.0184,0.0254,0.0200,0.0087,2025-06-09T13:41:06.736569
8372,-0.1801,0.6934,0.7022,-1.785,-2.065,0.700,0.00,0.0368,0.0508,0.0100,0.0087,2025-06-09T13:41:06.842289
8373,-0.1972,0.6583,0.7452,1.015,-0.140,2.870,0.01,0.0184,0.0508,0.0300,0.0087,2025-06-09T13:41:06.842289
8374,-0.2196,0.7135,0.7130,15.155,-13.720,10.815,0.00,0.0368,0.0254,0.0200,0.0174,2025-06-09T13:41:06.842289
8375,-0.3084,0.6124,1.1849,42.210,-16.485,35.805,0.00,0.0184,0.0508,0.0401,0.0087,2025-06-09T13:41:06.842289
8376,-1.0477,0.6256,1.7641,80.640,-34.895,102.795,0.00,0.0368,0.0508,0.0602,0.0174,2025-06-09T13:41:06.842289
8377,-2.8568,0.5783,1.9130,197.715,160.650,204.015,0.00,0.0184,0.0254,0.0100,0.0087,2025-06-09T13:41:06.842289
8378,-5.2455,1.6387,4.5443,625.940,-202.160,255.535,0.01,0.0184,0.0254,0.0000,0.0087,2025-06-09T13:41:06.842289
8379,-3.3047,3.3477,1.2917,221.165,-1145.060,576.135,0.00,0.0184,0.0508,0.0501,0.0087,2025-06-09T13:41:06.842289
8380,-1.3757,2.7138,-1.0429,-727.895,-1146.740,613.095,0.00,0.0368,0.0000,0.0300,0.0087,2025-06-09T13:41:06.891158
8381,-2.5425,1.2678,-4.5062,-773.780,-1146.740,349.230,0.00,0.0184,0.0508,0.0200,0.0174,2025-06-09T13:41:06.891158
8382,-3.4014,1.4328,-2.5937,-1146.740,-1146.740,-51.345,0.00,0.0184,0.0508,0.0300,0.0087,2025-06-09T13:41:06.891158
8383,-0.5558,1.3205,-4.4144,-817.985,-715.750,135.345,0.01,0.0368,0.0254,0.0401,0.0174,2025-06-09T13:41:06.891158
8384,0.5417,0.7247,-2.7699,-509.810,-854.875,90.405,0.01,0.0368,0.0000,0.0100,0.0087,2025-06-09T13:41:07.157902
8385,1.9559,0.6442,-3.2520,653.625,-157.150,79.450,0.01,0.0368,0.0000,0.0200,0.0087,2025-06-09T13:41:07.157902
8386,0.9775,0.1044,-2.5034,604.975,246.365,54.495,0.00,0.0368,0.0254,0.0200,0.0087,2025-06-09T13:41:07.157902
8387,0.7608,0.0771,-2.9221,402.185,809.550,71.470,0.01,0.0368,0.0508,0.0200,0.0174,2025-06-09T13:41:07.157902
8388,-0.2704,0.9789,-1.4176,470.155,598.570,67.095,0.01,0.0368,0.0508,0.0200,0.0087,2025-06-09T13:41:07.157902
8389,0.3806,0.9043,-0.3689,105.980,706.825,-8.645,0.00,0.0184,0.0508,0.0200,0.0174,2025-06-09T13:41:07.157902
8390,1.4782,1.0829,-0.7945,169.435,841.120,-56.000,0.00,0.0184,0.0254,0.0100,0.0087,2025-06-09T13:41:07.157902
8391,0.8481,0.8418,-1.3786,8.225,950.320,-148.295,0.00,0.0184,0.0508,0.0200,0.0087,2025-06-09T13:41:07.157902
8392,-1.6246,0.1118,-1.2912,134.435,989.835,-270.410,0.00,0.0184,0.0254,0.0200,0.0087,2025-06-09T13:41:07.157902
8393,-3.7176,0.0991,-1.2952,401.415,912.555,-273.070,0.00,0.0184,0.0508,0.0200,0.0174,2025-06-09T13:41:07.157902
8394,-3.0471,-1.8890,-0.0615,451.640,1146.740,-308.070,0.01,0.0184,0.0254,0.0200,0.0087,2025-06-09T13:41:07.157902
8395,-2.6879,0.3475,0.0864,641.935,976.710,-212.870,0.01,0.0184,0.0254,0.0100,0.0000,2025-06-09T13:41:07.157902
8396,-5.3216,2.3317,-0.2996,565.145,935.305,-296.835,0.00,0.0184,0.0508,0.0200,0.0087,2025-06-09T13:41:07.157902
8397,-3.9064,3.3589,3.5370,484.575,1146.740,-461.790,0.00,0.0368,0.0000,0.0100,0.0087,2025-06-09T13:41:07.157902
8398,-3.6580,2.7992,2.6845,476.595,575.820,-196.595,0.00,0.0184,0.0254,0.0300,0.0174,2025-06-09T13:41:07.157902
8399,-1.4684,1.8446,-0.3396,106.470,-271.950,284.900,0.00,0.0184,0.0254,0.0300,0.0087,2025-06-09T13:41:07.157902
8400,-0.9955,1.1385,1.2927,-662.935,-701.540,285.915,0.00,0.0184,0.0254,0.0000,0.0087,2025-06-09T13:41:07.358369
8401,-0.8647,0.1781,0.3314,-645.330,-572.845,124.005,0.01,0.0368,0.0508,0.0300,0.0087,2025-06-09T13:41:07.358369
8402,-1.1502,0.4714,0.3675,-303.730,-478.660,0.105,0.01,0.0368,0.0508,0.0100,0.0174,2025-06-09T13:41:07.358369
8403,-0.8194,0.6378,0.5183,-106.750,-279.265,-28.665,0.00,0.0368,0.0254,0.0200,0.0174,2025-06-09T13:41:07.358369
8404,-0.3948,0.5178,-0.0322,-41.895,-150.710,-35.105,0.00,0.0368,0.0762,0.0300,0.0087,2025-06-09T13:41:07.358369
8405,-0.2645,0.6188,-0.5197,-87.360,-159.460,-29.225,0.00,0.0184,0.0254,0.0200,0.0087,2025-06-09T13:41:07.358369
8406,0.2230,0.3475,-2.2443,-180.950,-67.585,-49.910,0.00,0.0184,0.0254,0.0300,0.0000,2025-06-09T13:41:07.358369
8407,0.0161,0.9687,0.0264,-154.630,-31.185,-21.490,0.00,0.0368,0.0254,0.0300,0.0087,2025-06-09T13:41:07.358369
8408,0.0244,0.8823,0.2274,22.960,58.345,-4.725,0.01,0.0368,0.0508,0.0200,0.0087,2025-06-09T13:41:07.358369
8409,-0.0927,0.8164,0.1669,125.965,106.365,10.465,0.00,0.0184,0.0254,0.0200,0.0087,2025-06-09T13:41:07.358369
8410,-0.2601,0.8560,0.3353,159.950,134.015,14.840,0.00,0.0184,0.0254,0.0200,0.0000,2025-06-09T13:41:07.358369
8411,-0.3392,0.8599,0.4651,132.370,134.750,8.155,0.00,0.0184,0.0254,0.0100,0.0174,2025-06-09T13:41:07.358369
8412,-0.4407,0.8794,0.6037,95.095,105.980,1.120,0.00,0.0184,0.0508,0.0200,0.0087,2025-06-09T13:41:07.358369
8413,-0.5041,0.8911,0.7906,70.350,88.340,-1.645,0.00,0.0368,0.0254,0.0200,0.0087,2025-06-09T13:41:07.358369
8414,-0.5446,0.9277,0.8764,57.890,42.875,-2.590,0.00,0.0184,0.0254,0.0300,0.0087,2025-06-09T13:41:07.358369
8415,-0.5368,0.9418,0.8872,39.480,9.240,2.100,0.01,0.0184,0.0254,0.0100,0.0087,2025-06-09T13:41:07.358369
8416,-0.5226,0.9209,0.8174,5.705,-32.830,10.465,0.01,0.0184,0.0508,0.0300,0.0174,2025-06-09T13:41:07.358369
8417,-0.5061,0.8677,0.7086,-39.060,-70.665,13.545,0.00,0.0368,0.0000,0.0200,0.0174,2025-06-09T13:41:07.463088
8418,-0.4592,0.7740,0.6134,-58.205,-82.460,11.270,0.00,0.0368,0.0508,0.0200,0.0087,2025-06-09T13:41:07.463088
8419,-0.4133,0.7193,0.5153,-53.375,-74.445,8.505,0.00,0.0368,0.0254,0.0100,0.0262,2025-06-09T13:41:07.463088
8420,-0.3640,0.7115,0.4616,-34.230,-50.855,7.210,0.01,0.0184,0.0508,0.0000,0.0087,2025-06-09T13:41:07.463088
8421,-0.3182,0.7149,0.4085,-6.020,-30.030,9.100,0.01,0.0184,0.0254,0.0100,0.0174,2025-06-09T13:41:07.463088
8422,-0.3133,0.7266,0.4172,12.390,-12.110,10.955,0.00,0.0184,0.0508,0.0000,0.0087,2025-06-09T13:41:07.463088
8423,-0.3192,0.7139,0.4260,20.405,5.845,9.520,0.01,0.0184,0.0508,0.0100,0.0087,2025-06-09T13:41:07.463088
8424,-0.3372,0.7252,0.4763,17.255,15.260,5.530,0.00,0.0368,0.0508,0.0300,0.0174,2025-06-09T13:41:07.463088
8425,-0.3406,0.7491,0.5046,10.990,19.845,-0.350,0.00,0.0184,0.0508,0.0200,0.0087,2025-06-09T13:41:07.524354
8426,-0.3592,0.7774,0.5461,1.435,17.850,-1.715,0.00,0.0368,0.0508,0.0200,0.0174,2025-06-09T13:41:07.524354
8427,-0.3465,0.7959,0.5607,-3.150,11.760,0.945,0.01,0.0368,0.0254,0.0300,0.0087,2025-06-09T13:41:07.524354
8428,-0.3450,0.8028,0.5744,-5.425,3.115,5.355,0.00,0.0184,0.0000,0.0300,0.0087,2025-06-09T13:41:07.524354
8429,-0.3499,0.7852,0.5607,-8.050,-2.765,7.420,0.01,0.0184,0.0254,0.0200,0.0087,2025-06-09T13:41:07.688915
8430,-0.3523,0.7686,0.5334,-13.755,-3.990,5.740,0.01,0.0184,0.0254,0.0401,0.0174,2025-06-09T13:41:07.688915
8431,-0.3314,0.7657,0.5353,-13.405,-2.625,4.480,0.00,0.0184,0.0508,0.0200,0.0087,2025-06-09T13:41:07.688915
8432,-0.3196,0.7613,0.5319,-6.685,-2.100,8.680,0.00,0.0368,0.0508,0.0200,0.0087,2025-06-09T13:41:07.688915
8433,-0.3309,0.7452,0.5334,1.260,0.105,10.570,0.00,0.0184,0.0508,0.0200,0.0174,2025-06-09T13:41:07.688915
8434,-0.3318,0.7286,0.5266,2.590,3.920,6.545,0.00,0.0184,0.0254,0.0200,0.0087,2025-06-09T13:41:07.688915
8435,-0.3304,0.7218,0.5309,-4.725,5.740,3.675,0.01,0.0184,0.0254,0.0300,0.0087,2025-06-09T13:41:07.688915
8436,-0.3499,0.7174,0.5451,-9.520,6.965,3.500,0.00,0.0184,0.0000,0.0100,0.0087,2025-06-09T13:41:07.688915
8437,-0.3489,0.7344,0.5797,-1.575,8.785,4.480,0.00,0.0368,0.0508,0.0100,0.0087,2025-06-09T13:41:07.688915
8438,-0.3450,0.7559,0.6056,6.825,7.140,7.875,0.00,0.0184,0.0254,0.0200,0.0087,2025-06-09T13:41:07.688915
8439,-0.3567,0.7584,0.6046,6.510,-1.120,12.985,0.00,0.0184,0.0254,0.0200,0.0087,2025-06-09T13:41:07.688915
8440,-0.3558,0.7447,0.5968,-6.160,-9.695,13.510,0.01,0.0368,0.0254,0.0200,0.0174,2025-06-09T13:41:07.760137
8441,-0.3499,0.7427,0.5841,-20.230,-15.575,8.610,0.01,0.0368,0.0762,0.0200,0.0262,2025-06-09T13:41:07.760137
8442,-0.3377,0.7437,0.5622,-29.925,-15.225,4.200,0.01,0.0184,0.0508,0.0200,0.0087,2025-06-09T13:41:07.760137
8443,-0.3235,0.7544,0.5524,-26.425,-12.775,4.200,0.01,0.0368,0.0254,0.0200,0.0174,2025-06-09T13:41:07.760137
8444,-0.3089,0.7593,0.5480,-12.390,-8.715,7.175,0.00,0.0368,0.0000,0.0200,0.0087,2025-06-09T13:41:07.760137
8445,-0.3094,0.7588,0.5475,-1.155,-4.970,7.735,0.01,0.0184,0.1018,0.0200,0.0174,2025-06-09T13:41:07.760137
8446,-0.3045,0.7681,0.5510,4.025,-0.875,5.635,0.01,0.0368,0.0000,0.0200,0.0087,2025-06-09T13:41:07.760137
8447,-0.3138,0.7881,0.5754,5.355,0.105,5.600,0.01,0.0368,0.0254,0.0200,0.0174,2025-06-09T13:41:07.760137
8448,-0.3250,0.7901,0.5954,7.805,-3.745,9.135,0.01,0.0368,0.0000,0.0300,0.0087,2025-06-09T13:41:07.863343
8449,-0.3299,0.7813,0.6134,9.905,-7.945,10.430,0.00,0.0184,0.0508,0.0100,0.0087,2025-06-09T13:41:07.863343
8450,-0.3426,0.7823,0.6251,8.015,-11.795,10.710,0.00,0.0368,0.0508,0.0100,0.0174,2025-06-09T13:41:07.863343
8451,-0.3299,0.7832,0.6232,3.150,-17.605,10.290,0.01,0.0184,0.0254,0.0200,0.0087,2025-06-09T13:41:07.863343
8452,-0.3192,0.7774,0.6037,-2.415,-22.575,8.120,0.00,0.0368,0.0254,0.0200,0.0174,2025-06-09T13:41:07.863343
8453,-0.3162,0.7613,0.5812,-8.750,-24.675,4.900,0.00,0.0368,0.0508,0.0100,0.0087,2025-06-09T13:41:07.863343
8454,-0.3128,0.7520,0.5651,-11.200,-22.820,4.480,0.00,0.0368,0.0254,0.0100,0.0087,2025-06-09T13:41:07.863343
8455,-0.3011,0.7549,0.5627,-4.340,-17.990,5.110,0.00,0.0368,0.0254,0.0200,0.0174,2025-06-09T13:41:07.966043
8456,-0.2972,0.7618,0.5690,7.175,-14.210,4.480,0.01,0.0184,0.0508,0.0200,0.0087,2025-06-09T13:41:07.966043
8457,-0.2913,0.7632,0.5549,10.955,-11.515,2.415,0.01,0.0368,0.0762,0.0100,0.0087,2025-06-09T13:41:08.314299
8458,-0.2894,0.7686,0.5510,6.860,-11.270,1.995,0.01,0.0368,0.0254,0.0000,0.0174,2025-06-09T13:41:08.314299
8459,-0.2874,0.7647,0.5490,1.645,-10.780,0.385,0.01,0.0368,0.0508,0.0100,0.0087,2025-06-09T13:41:08.314299
8460,-0.2908,0.7608,0.5505,-1.225,-8.820,-1.645,0.01,0.0368,0.0508,0.0300,0.0087,2025-06-09T13:41:08.314299
8461,-0.2928,0.7579,0.5490,-0.140,-6.615,-2.310,0.01,0.0184,0.0254,0.0000,0.0087,2025-06-09T13:41:08.314299
8462,-0.3050,0.7686,0.5734,4.235,-2.905,-0.665,0.01,0.0184,0.0000,0.0300,0.0174,2025-06-09T13:41:08.314299
8463,-0.2996,0.7720,0.5768,10.045,-2.240,1.050,0.01,0.0368,0.0508,0.0000,0.0087,2025-06-09T13:41:08.314299
8464,-0.2962,0.7842,0.5832,10.745,-3.535,0.455,0.00,0.0368,0.0762,0.0200,0.0087,2025-06-09T13:41:08.314299
8465,-0.2913,0.7867,0.5758,5.285,-6.930,-1.365,0.00,0.0368,0.0254,0.0100,0.0087,2025-06-09T13:41:08.314299
8466,-0.2928,0.7935,0.5729,-3.290,-9.590,-1.015,0.01,0.0184,0.0508,0.0300,0.0262,2025-06-09T13:41:08.314299
8467,-0.2923,0.7876,0.5690,-4.445,-10.955,0.735,0.01,0.0368,0.0000,0.0401,0.0087,2025-06-09T13:41:08.314299
8468,-0.2899,0.7735,0.5671,-1.155,-11.620,2.870,0.00,0.0184,0.0508,0.0100,0.0087,2025-06-09T13:41:08.314299
8469,-0.2962,0.7637,0.5563,1.925,-9.765,3.010,0.01,0.0184,0.0508,0.0501,0.0087,2025-06-09T13:41:08.314299
8470,-0.2996,0.7627,0.5539,1.470,-7.875,2.065,0.00,0.0368,0.0762,0.0200,0.0000,2025-06-09T13:41:08.314299
8471,-0.2923,0.7720,0.5612,-0.420,-5.285,0.140,0.00,0.0368,0.0254,0.0100,0.0087,2025-06-09T13:41:08.315284
8472,-0.2855,0.7837,0.5641,-1.225,-3.780,0.070,0.01,0.0368,0.0254,0.0300,0.0087,2025-06-09T13:41:08.315284
8473,-0.2835,0.7896,0.5768,1.680,-3.850,1.435,0.00,0.0368,0.0254,0.0300,0.0087,2025-06-09T13:41:08.315284
8474,-0.2928,0.7862,0.5836,4.025,-4.970,3.115,0.01,0.0184,0.0254,0.0100,0.0087,2025-06-09T13:41:08.315284
8475,-0.2957,0.7818,0.5783,3.115,-5.320,2.135,0.00,0.0368,0.0508,0.0300,0.0087,2025-06-09T13:41:08.315284
8476,-0.2889,0.7774,0.5773,-1.400,-5.285,-0.525,0.00,0.0368,0.0254,0.0000,0.0174,2025-06-09T13:41:08.315284
8477,-0.2923,0.7832,0.5680,-5.215,-4.340,-1.015,0.00,0.0184,0.0508,0.0100,0.0174,2025-06-09T13:41:08.315284
8478,-0.2894,0.7896,0.5773,-3.430,-2.660,-0.910,0.00,0.0184,0.0508,0.0200,0.0087,2025-06-09T13:41:08.315284
8479,-0.2835,0.7881,0.5685,1.575,-0.560,-0.315,0.00,0.0184,0.0508,0.0200,0.0087,2025-06-09T13:41:08.315284
8480,-0.2826,0.7847,0.5671,4.340,-0.490,0.630,0.00,0.0368,0.0508,0.0200,0.0087,2025-06-09T13:41:08.315284
8481,-0.2879,0.7662,0.5607,1.960,-0.280,0.525,0.00,0.0368,0.0508,0.0100,0.0087,2025-06-09T13:41:08.315284
8482,-0.2962,0.7588,0.5627,-2.800,0.385,-1.155,0.00,0.0184,0.0508,0.0000,0.0087,2025-06-09T13:41:08.315284
8483,-0.2948,0.7588,0.5646,-4.830,2.240,-3.465,0.01,0.0368,0.0508,0.0100,0.0087,2025-06-09T13:41:08.315284
8484,-0.2904,0.7706,0.5700,-3.185,4.130,-3.850,0.00,0.0184,0.0508,0.0200,0.0087,2025-06-09T13:41:08.315284
8485,-0.2796,0.7813,0.5739,0.490,3.605,-1.925,0.00,0.0184,0.0762,0.0100,0.0174,2025-06-09T13:41:08.315284
8486,-0.2860,0.7730,0.5700,0.980,2.205,-0.245,0.01,0.0368,0.0508,0.0200,0.0087,2025-06-09T13:41:08.336071
8487,-0.2967,0.7647,0.5690,-1.750,2.100,-0.700,0.01,0.0368,0.0508,0.0100,0.0087,2025-06-09T13:41:08.336071
8488,-0.2899,0.7564,0.5719,-4.305,2.730,-2.975,0.00,0.0368,0.0254,0.0000,0.0087,2025-06-09T13:41:08.336071
8489,-0.2962,0.7681,0.5812,-3.220,3.675,-3.850,0.01,0.0184,0.0508,0.0200,0.0087,2025-06-09T13:41:08.336071
8490,-0.2908,0.7813,0.5807,-0.280,2.520,-1.505,0.01,0.0184,0.0508,0.0200,0.0174,2025-06-09T13:41:08.484623
8491,-0.2933,0.7774,0.5817,0.560,0.560,-0.210,0.01,0.0368,0.0508,0.0401,0.0174,2025-06-09T13:41:08.484623
8492,-0.2967,0.7701,0.5719,-1.540,-0.420,-0.070,0.01,0.0368,0.0254,0.0000,0.0000,2025-06-09T13:41:08.484623
8493,-0.2972,0.7706,0.5754,-3.430,-0.210,-0.735,0.00,0.0184,0.0000,0.0200,0.0174,2025-06-09T13:41:08.484623
8494,-0.2957,0.7696,0.5744,-3.080,0.175,-0.980,0.00,0.0184,0.0254,0.0300,0.0087,2025-06-09T13:41:08.484623
8495,-0.2977,0.7696,0.5783,-0.770,1.785,-1.505,0.00,0.0184,0.0254,0.0000,0.0087,2025-06-09T13:41:08.484623
8496,-0.2948,0.7681,0.5797,2.695,2.275,-1.295,0.00,0.0368,0.0000,0.0100,0.0087,2025-06-09T13:41:08.484623
8497,-0.2957,0.7730,0.5846,4.795,0.735,-0.315,0.01,0.0184,0.0508,0.0200,0.0174,2025-06-09T13:41:08.484623
8498,-0.3030,0.7559,0.5778,1.960,-1.085,0.280,0.00,0.0184,0.0254,0.0100,0.0087,2025-06-09T13:41:08.484623
8499,-0.3109,0.7442,0.5758,-2.205,-1.750,-0.735,0.00,0.0368,0.0508,0.0200,0.0087,2025-06-09T13:41:08.484623
8500,-0.3089,0.7535,0.5783,-3.675,-1.050,-2.870,0.00,0.0184,0.0508,0.0000,0.0000,2025-06-09T13:41:08.484623
8501,-0.3011,0.7686,0.5729,-2.450,-0.665,-3.990,0.00,0.0184,0.0508,0.0200,0.0174,2025-06-09T13:41:08.580392
8502,-0.2933,0.7759,0.5612,-2.100,-0.875,-2.975,0.01,0.0184,0.1018,0.0200,0.0087,2025-06-09T13:41:08.580392
8503,-0.2918,0.7749,0.5573,-2.835,-0.805,-1.750,0.00,0.0368,0.0508,0.0200,0.0087,2025-06-09T13:41:08.580392
8504,-0.3026,0.7676,0.5583,-1.225,0.665,-0.175,0.01,0.0368,0.0508,0.0000,0.0087,2025-06-09T13:41:08.580392
8505,-0.3094,0.7574,0.5695,3.395,1.400,0.140,0.00,0.0184,0.0508,0.0200,0.0174,2025-06-09T13:41:08.580392
8506,-0.3167,0.7574,0.5754,4.550,3.010,-1.470,0.00,0.0000,0.0254,0.0200,0.0000,2025-06-09T13:41:08.580392
8507,-0.3206,0.7652,0.5773,1.610,4.130,-2.695,0.00,0.0184,0.0508,0.0200,0.0087,2025-06-09T13:41:08.580392
8508,-0.3133,0.7808,0.5851,-1.050,3.815,-2.730,0.01,0.0184,0.0254,0.0100,0.0174,2025-06-09T13:41:08.580392
8509,-0.3079,0.7871,0.5861,-0.980,1.715,-1.610,0.01,0.0368,0.0254,0.0300,0.0087,2025-06-09T13:41:08.623639
8510,-0.3099,0.7828,0.5807,0.140,-0.560,-0.560,0.01,0.0184,0.0254,0.0401,0.0087,2025-06-09T13:41:08.623639
8511,-0.3128,0.7627,0.5710,-1.015,-1.820,0.175,0.01,0.0000,0.0254,0.0100,0.0174,2025-06-09T13:41:08.623639
8512,-0.3167,0.7559,0.5583,-3.360,-2.135,-0.140,0.01,0.0368,0.0254,0.0300,0.0174,2025-06-09T13:41:08.815009
8513,-0.3133,0.7642,0.5666,-3.990,-1.610,-0.525,0.00,0.0184,0.0254,0.0200,0.0174,2025-06-09T13:41:08.815009
8514,-0.3016,0.7671,0.5602,-2.870,-1.925,-0.035,0.01,0.0368,0.0254,0.0300,0.0087,2025-06-09T13:41:08.815009
8515,-0.3001,0.7671,0.5539,-3.185,-2.065,-0.035,0.00,0.0368,0.0762,0.0000,0.0174,2025-06-09T13:41:08.815009
8516,-0.3006,0.7584,0.5500,-5.530,-1.400,-0.175,0.00,0.0184,0.0254,0.0300,0.0087,2025-06-09T13:41:08.815009
8517,-0.3045,0.7452,0.5505,-6.300,1.260,-1.540,0.00,0.0368,0.0508,0.0200,0.0174,2025-06-09T13:41:08.815009
8518,-0.3060,0.7418,0.5553,-3.640,4.025,-3.255,0.01,0.0184,0.0000,0.0000,0.0174,2025-06-09T13:41:08.815009
8519,-0.3001,0.7379,0.5524,-2.030,6.440,-6.055,0.00,0.0368,0.0254,0.0100,0.0087,2025-06-09T13:41:08.815009
8520,-0.3030,0.7491,0.5539,-2.695,8.820,-7.735,0.01,0.0184,0.0254,0.0300,0.0087,2025-06-09T13:41:08.815009
8521,-0.3040,0.7437,0.5519,-4.480,10.255,-8.960,0.00,0.0184,0.0254,0.0401,0.0087,2025-06-09T13:41:08.815009
8522,-0.3065,0.7393,0.5490,-5.250,11.165,-10.150,0.00,0.0368,0.0254,0.0200,0.0174,2025-06-09T13:41:08.815009
8523,-0.3123,0.7374,0.5519,-4.060,12.075,-10.255,0.01,0.0184,0.0254,0.0100,0.0174,2025-06-09T13:41:08.815009
8524,-0.3187,0.7276,0.5558,-2.345,13.195,-10.675,0.00,0.0184,0.0508,0.0401,0.0087,2025-06-09T13:41:08.815009
8525,-0.3250,0.7354,0.5661,-0.735,13.825,-10.745,0.00,0.0368,0.0508,0.0000,0.0087,2025-06-09T13:41:08.815009
8526,-0.3314,0.7510,0.5661,4.550,12.075,-10.115,0.00,0.0184,0.0762,0.0300,0.0174,2025-06-09T13:41:08.815009
8527,-0.3270,0.7701,0.5822,4.235,9.170,-9.905,0.01,0.0000,0.0508,0.0200,0.0174,2025-06-09T13:41:09.017870
8528,-0.3265,0.7974,0.5949,2.905,4.200,-9.310,0.00,0.0184,0.0508,0.0000,0.0087,2025-06-09T13:41:09.017870
8529,-0.3270,0.8135,0.6281,0.525,-10.185,-4.690,0.00,0.0184,0.0508,0.0100,0.0174,2025-06-09T13:41:09.017870
8530,-0.3445,0.7886,0.6159,-8.330,-21.175,-1.050,0.00,0.0184,0.0254,0.0200,0.0174,2025-06-09T13:41:09.017870
8531,-0.3758,0.7471,0.5851,-19.565,-26.250,0.910,0.00,0.0184,0.0254,0.0401,0.0087,2025-06-09T13:41:09.017870
8532,-0.3518,0.7340,0.5949,-23.660,-26.250,-1.295,0.01,0.0368,0.0508,0.0100,0.0087,2025-06-09T13:41:09.017870
8533,-0.3465,0.7452,0.6022,-16.450,-21.735,-3.815,0.00,0.0184,0.0254,0.0100,0.0087,2025-06-09T13:41:09.017870
8534,-0.3201,0.7486,0.5919,-4.200,-17.500,-6.405,0.00,0.0184,0.0254,0.0100,0.0087,2025-06-09T13:41:09.017870
8535,-0.3138,0.7657,0.5744,0.000,-16.310,-8.330,0.00,0.0184,0.0254,0.0200,0.0087,2025-06-09T13:41:09.017870
8536,-0.3016,0.7603,0.5388,-4.970,-19.600,-9.590,0.00,0.0184,0.0254,0.0200,0.0087,2025-06-09T13:41:09.017870
8537,-0.3196,0.7471,0.5446,-15.505,-23.170,-10.640,0.00,0.0368,0.0254,0.0300,0.0087,2025-06-09T13:41:09.017870
8538,-0.3211,0.7159,0.5592,-24.150,-26.145,-12.740,0.00,0.0184,0.0254,0.0200,0.0087,2025-06-09T13:41:09.017870
8539,-0.3543,0.7149,0.6022,-29.085,-27.125,-12.565,0.01,0.0368,0.0508,0.0200,0.0174,2025-06-09T13:41:09.017870
8540,-0.3587,0.7310,0.6632,-25.305,-26.425,-10.710,0.01,0.0368,0.0254,0.0100,0.0087,2025-06-09T13:41:09.017870
8541,-0.3572,0.7222,0.6842,-20.020,-26.285,-9.170,0.00,0.0368,0.0508,0.0200,0.0174,2025-06-09T13:41:09.128704
8542,-0.3660,0.7325,0.6988,-11.830,-14.490,-9.625,0.00,0.0184,0.0762,0.0100,0.0174,2025-06-09T13:41:09.128704
8543,-0.3231,0.7154,0.6573,-3.360,-15.680,-12.320,0.00,0.0368,0.0508,0.0100,0.0087,2025-06-09T13:41:09.128704
8544,-0.3152,0.7579,0.6183,1.400,-12.495,-13.230,0.00,0.0184,0.0508,0.0200,0.0087,2025-06-09T13:41:09.128704
8545,-0.2991,0.7603,0.6129,5.985,-5.040,-25.585,0.00,0.0184,0.0254,0.0000,0.0087,2025-06-09T13:41:09.128704
8546,-0.2777,0.6934,0.5544,-1.610,-11.235,-22.960,0.00,0.0184,0.0508,0.0200,0.0174,2025-06-09T13:41:09.128704
8547,-0.5583,0.7559,0.5534,-11.235,-2.940,-8.050,0.00,0.0184,0.0508,0.0200,0.0174,2025-06-09T13:41:09.128704
8548,-0.3782,0.6930,0.6842,-20.475,-2.345,-1.645,0.00,0.0368,0.0508,0.0300,0.0174,2025-06-09T13:41:09.128704
8549,-0.2713,0.6188,0.7520,-23.730,-3.640,-1.085,0.01,0.0184,0.0508,0.0000,0.0174,2025-06-09T13:41:09.236416
8550,-0.3372,0.6334,0.7710,-4.480,-8.785,0.455,0.00,0.0184,0.0254,0.0100,0.0087,2025-06-09T13:41:09.236416
8551,-0.3884,0.6544,0.6959,23.135,-2.940,5.635,0.01,0.0184,0.0254,0.0300,0.0087,2025-06-09T13:41:09.236416
8552,-0.3367,0.6622,0.6305,35.210,1.470,10.465,0.01,0.0184,0.0000,0.0300,0.0087,2025-06-09T13:41:09.236416
8553,-0.3094,0.6920,0.5949,25.970,-3.115,10.640,0.00,0.0368,0.0508,0.0200,0.0174,2025-06-09T13:41:09.236416
8554,-0.3167,0.7066,0.6027,9.765,-17.815,9.975,0.00,0.0184,0.0254,0.0401,0.0087,2025-06-09T13:41:09.236416
8555,-0.3572,0.7359,0.5934,0.280,-9.870,9.835,0.01,0.0184,0.0508,0.0000,0.0262,2025-06-09T13:41:09.236416
8556,-0.3767,0.7798,0.5963,1.680,-7.490,9.765,0.00,0.0184,0.0254,0.0200,0.0087,2025-06-09T13:41:09.236416
8557,-0.3231,0.7867,0.5754,4.445,-3.745,7.385,0.01,0.0184,0.0508,0.0000,0.0087,2025-06-09T13:41:09.405992
8558,-0.2972,0.7818,0.5817,2.030,-3.430,1.400,0.01,0.0184,0.0508,0.0100,0.0087,2025-06-09T13:41:09.405992
8559,-0.3231,0.7676,0.5822,-3.535,-3.185,-3.395,0.00,0.0368,0.0508,0.0100,0.0087,2025-06-09T13:41:09.405992
8560,-0.3221,0.7427,0.6012,-9.170,-4.235,-5.215,0.00,0.0184,0.0508,0.0100,0.0174,2025-06-09T13:41:09.405992
8561,-0.3226,0.7130,0.6320,-10.360,-3.990,-5.950,0.00,0.0368,0.0508,0.0200,0.0174,2025-06-09T13:41:09.405992
8562,-0.3343,0.6983,0.6466,-6.965,-3.430,-4.690,0.00,0.0184,0.0254,0.0300,0.0087,2025-06-09T13:41:09.405992
8563,-0.3396,0.6915,0.6520,-1.435,-2.940,-2.590,0.00,0.0184,0.0508,0.0200,0.0087,2025-06-09T13:41:09.405992
8564,-0.3377,0.6900,0.6456,1.295,-2.625,0.490,0.00,0.0368,0.0508,0.0100,0.0087,2025-06-09T13:41:09.405992
8565,-0.3343,0.7003,0.6422,1.925,-2.660,2.310,0.00,0.0184,0.0254,0.0000,0.0087,2025-06-09T13:41:09.405992
8566,-0.3318,0.7149,0.6266,2.380,-2.485,2.870,0.00,0.0184,0.0254,0.0200,0.0087,2025-06-09T13:41:09.405992
8567,-0.3270,0.7271,0.6188,3.010,-2.310,2.415,0.01,0.0184,0.0762,0.0200,0.0087,2025-06-09T13:41:09.405992
8568,-0.3231,0.7320,0.6105,2.240,-2.450,1.260,0.00,0.0184,0.0508,0.0000,0.0174,2025-06-09T13:41:09.405992
8569,-0.3255,0.7320,0.6110,-0.175,-2.695,-0.315,0.00,0.0184,0.0508,0.0000,0.0174,2025-06-09T13:41:09.405992
8570,-0.3284,0.7271,0.6183,-2.730,-3.010,-1.260,0.01,0.0184,0.0762,0.0300,0.0174,2025-06-09T13:41:09.604431
8571,-0.3289,0.7178,0.6290,-3.325,-3.290,-1.575,0.00,0.0184,0.0762,0.0000,0.0174,2025-06-09T13:41:09.604431
8572,-0.3309,0.7086,0.6329,-2.415,-3.010,-1.120,0.01,0.0184,0.0508,0.0100,0.0174,2025-06-09T13:41:09.604431
8573,-0.3314,0.7066,0.6344,-0.315,-2.730,-0.245,0.00,0.0184,0.0762,0.0300,0.0087,2025-06-09T13:41:09.604431
8574,-0.3314,0.7100,0.6349,0.840,-2.590,0.630,0.00,0.0368,0.0254,0.0300,0.0087,2025-06-09T13:41:09.604431
8575,-0.3309,0.7139,0.6285,1.050,-2.800,1.050,0.01,0.0184,0.0508,0.0200,0.0087,2025-06-09T13:41:09.604431
8576,-0.3265,0.7198,0.6232,0.805,-2.695,0.945,0.00,0.0368,0.0508,0.0100,0.0087,2025-06-09T13:41:09.604431
8577,-0.3255,0.7237,0.6212,0.490,-2.625,0.385,0.00,0.0184,0.0000,0.0000,0.0087,2025-06-09T13:41:09.604431
8578,-0.3284,0.7257,0.6227,-0.210,-2.660,-0.105,0.00,0.0368,0.0508,0.0100,0.0087,2025-06-09T13:41:09.604431
8579,-0.3284,0.7203,0.6271,-0.665,-2.800,-0.385,0.00,0.0184,0.0254,0.0200,0.0087,2025-06-09T13:41:09.604431
8580,-0.3294,0.7159,0.6281,-1.365,-2.940,-0.420,0.00,0.0000,0.0508,0.0000,0.0174,2025-06-09T13:41:09.604431
8581,-0.3274,0.7139,0.6295,-1.085,-2.905,-0.070,0.00,0.0184,0.0508,0.0200,0.0087,2025-06-09T13:41:09.604431
8582,-0.3299,0.7139,0.6290,0.070,-2.765,0.105,0.00,0.0184,0.0508,0.0100,0.0174,2025-06-09T13:41:09.604431
8583,-0.3289,0.7159,0.6305,0.665,-2.520,0.245,0.00,0.0000,0.0254,0.0000,0.0087,2025-06-09T13:41:09.604431
8584,-0.3299,0.7164,0.6276,0.315,-2.660,0.385,0.00,0.0368,0.0254,0.0100,0.0087,2025-06-09T13:41:09.604431
8585,-0.3289,0.7183,0.6256,0.070,-2.590,0.350,0.01,0.0184,0.0508,0.0200,0.0087,2025-06-09T13:41:09.677266
8586,-0.3289,0.7193,0.6271,-0.035,-2.590,0.140,0.01,0.0184,0.0254,0.0100,0.0174,2025-06-09T13:41:09.677266
8587,-0.3309,0.7188,0.6256,-0.175,-2.660,-0.035,0.00,0.0184,0.0508,0.0200,0.0174,2025-06-09T13:41:09.677266
8588,-0.3299,0.7188,0.6256,-0.350,-2.660,-0.175,0.00,0.0368,0.0508,0.0200,0.0174,2025-06-09T13:41:09.800021
8589,-0.3304,0.7149,0.6271,-0.630,-2.730,-0.175,0.00,0.0184,0.0000,0.0200,0.0174,2025-06-09T13:41:09.800021
8590,-0.3299,0.7149,0.6290,-0.560,-2.835,-0.140,0.00,0.0368,0.0508,0.0100,0.0174,2025-06-09T13:41:09.800021
8591,-0.3299,0.7169,0.6276,0.070,-2.695,0.105,0.01,0.0368,0.0508,0.0300,0.0087,2025-06-09T13:41:09.800021
8592,-0.3304,0.7174,0.6295,0.105,-2.625,0.105,0.00,0.0184,0.0762,0.0200,0.0087,2025-06-09T13:41:09.800021
8593,-0.3294,0.7183,0.6266,-0.105,-2.660,-0.035,0.00,0.0184,0.0254,0.0100,0.0087,2025-06-09T13:41:09.800021
8594,-0.3314,0.7164,0.6261,-0.315,-2.730,0.035,0.00,0.0184,0.0508,0.0100,0.0087,2025-06-09T13:41:09.800021
8595,-0.3299,0.7169,0.6266,-0.455,-2.625,0.000,0.01,0.0184,0.0254,0.0200,0.0087,2025-06-09T13:41:09.800021
8596,-0.3274,0.7174,0.6281,-0.035,-2.590,-0.175,0.01,0.0368,0.0254,0.0100,0.0087,2025-06-09T13:41:09.800021
8597,-0.3294,0.7174,0.6295,-0.105,-2.695,-0.210,0.00,0.0184,0.0508,0.0200,0.0174,2025-06-09T13:41:09.800021
8598,-0.3309,0.7154,0.6281,-0.630,-2.730,0.035,0.00,0.0184,0.0508,0.0200,0.0087,2025-06-09T13:41:09.800021
8599,-0.3304,0.7139,0.6242,-0.455,-2.835,0.035,0.00,0.0184,0.0000,0.0100,0.0087,2025-06-09T13:41:09.800021
8600,-0.3284,0.7159,0.6276,0.175,-2.590,0.035,0.00,0.0184,0.0508,0.0200,0.0174,2025-06-09T13:41:09.917438
8601,-0.3299,0.7144,0.6271,0.070,-2.660,-0.035,0.01,0.0184,0.0000,0.0300,0.0087,2025-06-09T13:41:09.917438
8602,-0.3299,0.7135,0.6271,-0.350,-2.905,0.210,0.00,0.0184,0.0254,0.0300,0.0087,2025-06-09T13:41:09.917438
8603,-0.3270,0.7174,0.6256,-0.420,-2.800,0.245,0.00,0.0184,0.0254,0.0300,0.0174,2025-06-09T13:41:09.917438
8604,-0.3284,0.7178,0.6300,0.385,-2.555,0.140,0.00,0.0184,0.0000,0.0100,0.0087,2025-06-09T13:41:09.917438
8605,-0.3309,0.7169,0.6271,0.455,-2.625,0.105,0.00,0.0368,0.0508,0.0200,0.0087,2025-06-09T13:41:09.917438
8606,-0.3289,0.7120,0.6266,-0.210,-2.870,0.280,0.00,0.0368,0.0508,0.0100,0.0087,2025-06-09T13:41:09.917438
8607,-0.3279,0.7183,0.6276,-0.315,-2.660,0.245,0.00,0.0368,0.0508,0.0100,0.0087,2025-06-09T13:41:09.988252
8608,-0.3294,0.7154,0.6290,0.420,-2.485,0.035,0.00,0.0368,0.0508,0.0200,0.0087,2025-06-09T13:41:10.107682
8609,-0.3314,0.7154,0.6285,0.245,-2.695,0.175,0.00,0.0368,0.0508,0.0300,0.0087,2025-06-09T13:41:10.107682
8610,-0.3314,0.7174,0.6266,-0.350,-2.905,0.280,0.01,0.0368,0.0000,0.0300,0.0174,2025-06-09T13:41:10.107682
8611,-0.3284,0.7198,0.6290,-0.105,-2.695,0.210,0.01,0.0184,0.0508,0.0200,0.0087,2025-06-09T13:41:10.107682
8612,-0.3294,0.7198,0.6300,0.280,-2.590,-0.070,0.00,0.0184,0.0508,0.0100,0.0087,2025-06-09T13:41:10.107682
8613,-0.3318,0.7159,0.6271,-0.175,-2.765,0.000,0.00,0.0184,0.0254,0.0501,0.0087,2025-06-09T13:41:10.107682
8614,-0.3309,0.7144,0.6251,-0.770,-2.835,0.070,0.00,0.0368,0.0254,0.0000,0.0087,2025-06-09T13:41:10.107682
8615,-0.3299,0.7149,0.6261,-0.490,-2.765,-0.070,0.01,0.0184,0.0762,0.0100,0.0087,2025-06-09T13:41:10.107682
8616,-0.3299,0.7135,0.6290,-0.035,-2.590,0.000,0.00,0.0368,0.0254,0.0200,0.0087,2025-06-09T13:41:10.107682
8617,-0.3289,0.7149,0.6290,0.280,-2.625,0.035,0.00,0.0552,0.0254,0.0200,0.0087,2025-06-09T13:41:10.107682
8618,-0.3314,0.7159,0.6281,0.105,-2.590,0.140,0.01,0.0184,0.0508,0.0200,0.0087,2025-06-09T13:41:10.107682
8619,-0.3314,0.7159,0.6281,-0.175,-2.730,0.175,0.00,0.0184,0.0508,0.0100,0.0087,2025-06-09T13:41:10.107682
8620,-0.3299,0.7178,0.6266,0.070,-2.870,0.210,0.00,0.0368,0.0254,0.0000,0.0174,2025-06-09T13:41:10.107682
8621,-0.3299,0.7198,0.6300,0.315,-2.485,0.035,0.00,0.0368,0.0254,0.0100,0.0174,2025-06-09T13:41:10.107682
8622,-0.3309,0.7188,0.6281,-8.785,-2.660,-0.070,0.00,0.0368,0.0000,0.0200,0.0174,2025-06-09T13:41:10.107682
8623,-0.3294,0.7149,0.6271,-0.595,-2.975,0.140,0.00,0.0368,0.0254,0.0200,0.0174,2025-06-09T13:41:10.322844
8624,-0.3279,0.7169,0.6285,-0.665,-2.625,0.000,0.01,0.0368,0.0762,0.0602,0.0174,2025-06-09T13:41:10.322844
8625,-0.3289,0.7154,0.6271,0.105,-2.520,-0.140,0.01,0.0184,0.0254,0.0804,0.0174,2025-06-09T13:41:10.322844
8626,-0.3309,0.7154,0.6266,0.210,-2.730,0.175,0.00,0.0184,0.0254,0.0200,0.0087,2025-06-09T13:41:10.322844
8627,-0.3279,0.7154,0.6271,-0.105,-2.660,0.210,0.01,0.0184,0.0508,0.0000,0.0087,2025-06-09T13:41:10.322844
8628,-0.3294,0.7159,0.6290,0.035,-2.415,0.070,0.00,0.0184,0.0508,0.0200,0.0087,2025-06-09T13:41:10.322844
8629,-0.3289,0.7154,0.6285,0.385,-2.450,0.035,0.00,0.0184,0.0254,0.0100,0.0087,2025-06-09T13:41:10.322844
8630,-0.3294,0.7130,0.6271,0.070,-2.660,0.245,0.00,0.0184,0.0508,0.0100,0.0087,2025-06-09T13:41:10.322844
8631,-0.3309,0.7169,0.6256,0.105,-2.485,0.350,0.00,0.0184,0.0000,0.0100,0.0087,2025-06-09T13:41:10.322844
8632,-0.3274,0.7174,0.6300,0.385,-2.310,0.210,0.01,0.0184,0.0762,0.0100,0.0174,2025-06-09T13:41:10.322844
8633,-0.3299,0.7164,0.6295,0.420,-2.240,0.140,0.01,0.0184,0.0254,0.0200,0.0087,2025-06-09T13:41:10.322844
8634,-0.3309,0.7159,0.6285,0.175,-2.275,0.175,0.00,0.0184,0.0508,0.0300,0.0087,2025-06-09T13:41:10.322844
8635,-0.3314,0.7159,0.6276,0.140,-2.205,0.210,0.01,0.0184,0.0508,0.0100,0.0087,2025-06-09T13:41:10.322844
8636,-0.3299,0.7154,0.6276,0.350,-2.205,0.210,0.00,0.0184,0.0508,0.0200,0.0087,2025-06-09T13:41:10.322844
8637,-0.3309,0.7135,0.6281,1.155,-1.960,0.175,0.00,0.0184,0.0508,0.0000,0.0174,2025-06-09T13:41:10.322844
8638,-0.3309,0.7164,0.6256,0.735,-2.205,0.245,0.01,0.0184,0.0508,0.0000,0.0000,2025-06-09T13:41:10.577209
8639,-0.3309,0.7164,0.6246,0.525,-2.240,0.420,0.00,0.0368,0.0508,0.0000,0.0087,2025-06-09T13:41:10.577209
8640,-0.3289,0.7183,0.6266,0.350,-2.065,0.210,0.00,0.0184,0.0000,0.0100,0.0174,2025-06-09T13:41:10.577209
8641,-0.3299,0.7193,0.6285,0.980,-1.890,0.070,0.00,0.0184,0.0254,0.0100,0.0087,2025-06-09T13:41:10.577209
8642,-0.3299,0.7169,0.6285,0.700,-1.960,-0.105,0.01,0.0368,0.0254,0.0300,0.0174,2025-06-09T13:41:10.577209
8643,-0.3294,0.7135,0.6232,0.035,-1.925,0.000,0.01,0.0184,0.0254,0.0100,0.0087,2025-06-09T13:41:10.577209
8644,-0.3279,0.7100,0.6227,-0.280,-1.925,-0.070,0.01,0.0368,0.0508,0.0200,0.0087,2025-06-09T13:41:10.577209
8645,-0.3250,0.7032,0.6242,-0.385,-1.330,-0.420,0.00,0.0184,0.0508,0.0200,0.0087,2025-06-09T13:41:10.577209
8646,-0.3201,0.6915,0.6183,-0.035,-0.735,-0.945,0.01,0.0000,0.0254,0.0100,0.0087,2025-06-09T13:41:10.577209
8647,-0.3070,0.6656,0.6085,-0.525,0.315,-1.295,0.00,0.0184,0.0508,0.0000,0.0087,2025-06-09T13:41:10.577209
8648,-0.3109,0.6510,0.5993,4.795,1.365,-0.350,0.00,0.0184,0.0254,0.0401,0.0087,2025-06-09T13:41:10.577209
8649,-0.3245,0.6647,0.6051,13.300,1.610,2.730,0.01,0.0184,0.0508,0.0000,0.0174,2025-06-09T13:41:10.577209
8650,-0.3401,0.7144,0.6324,19.530,1.015,6.860,0.01,0.0368,0.0254,0.0100,0.0087,2025-06-09T13:41:10.577209
8651,-0.3562,0.7828,0.6651,14.875,-0.385,8.610,0.01,0.0184,0.0508,0.0000,0.0087,2025-06-09T13:41:10.577209
8652,-0.3772,0.8384,0.6783,7.770,-2.415,6.860,0.00,0.0368,0.0508,0.0100,0.0087,2025-06-09T13:41:10.577209
8653,-0.3611,0.8389,0.6456,-1.610,-3.535,1.995,0.00,0.0368,0.0254,0.0300,0.0174,2025-06-09T13:41:10.577209
8654,-0.3211,0.7642,0.5734,-10.115,-4.725,-2.380,0.00,0.0184,0.0762,0.0000,0.0174,2025-06-09T13:41:10.760638
8655,-0.3065,0.7232,0.5495,-11.410,-4.165,-5.110,0.00,0.0184,0.0508,0.0200,0.0087,2025-06-09T13:41:10.760638
8656,-0.3187,0.7110,0.6037,-4.620,-2.205,-6.090,0.01,0.0184,0.0762,0.0000,0.0087,2025-06-09T13:41:10.760638
8657,-0.3333,0.7017,0.6446,0.595,-1.120,-6.160,0.01,0.0368,0.0254,0.0300,0.0174,2025-06-09T13:41:10.760638
8658,-0.3431,0.6891,0.6486,-1.890,-2.485,-4.270,0.00,0.0368,0.0254,0.0000,0.0087,2025-06-09T13:41:10.760638
8659,-0.3431,0.6822,0.6276,-6.265,-3.290,-1.085,0.00,0.0184,0.0508,0.0300,0.0087,2025-06-09T13:41:10.760638
8660,-0.3338,0.6915,0.6232,-4.235,-2.240,1.925,0.00,0.0184,0.0508,0.0300,0.0087,2025-06-09T13:41:10.760638
8661,-0.3289,0.7066,0.6217,5.950,-0.595,2.310,0.01,0.0184,0.0254,0.0501,0.0000,2025-06-09T13:41:10.760638
8662,-0.3323,0.7232,0.6134,10.185,-0.350,1.855,0.00,0.0184,0.0508,0.0100,0.0087,2025-06-09T13:41:10.760638
8663,-0.3333,0.7344,0.6041,3.605,-1.540,1.260,0.00,0.0184,0.0508,0.0200,0.0087,2025-06-09T13:41:10.760638
8664,-0.3348,0.7354,0.6105,-3.220,-2.485,0.700,0.00,0.0184,0.0508,0.0200,0.0087,2025-06-09T13:41:10.760638
8665,-0.3348,0.7325,0.6198,-3.920,-2.590,-0.105,0.00,0.0000,0.0000,0.0200,0.0087,2025-06-09T13:41:10.760638
8666,-0.3309,0.7237,0.6222,0.700,-2.135,-0.560,0.00,0.0184,0.0508,0.0100,0.0087,2025-06-09T13:41:10.760638
8667,-0.3309,0.7144,0.6159,2.555,-1.575,-0.560,0.01,0.0184,0.0254,0.0200,0.0087,2025-06-09T13:41:10.760638
8668,-0.3353,0.7174,0.6188,0.770,-1.750,0.000,0.00,0.0184,0.0508,0.0000,0.0087,2025-06-09T13:41:10.760638
8669,-0.3357,0.7208,0.7491,-0.700,-2.100,0.455,0.00,0.0184,0.0254,0.0000,0.0174,2025-06-09T13:41:10.760638
8670,-0.3362,0.7242,0.6207,0.455,-1.995,0.630,0.00,0.0184,0.0508,0.0200,0.0087,2025-06-09T13:41:11.012061
8671,-0.3353,0.7271,0.6178,1.820,-1.575,0.595,0.01,0.0368,0.0254,0.0602,0.0087,2025-06-09T13:41:11.012061
8672,-0.3343,0.7286,0.6134,1.505,-1.855,0.350,0.01,0.0368,0.0508,0.0300,0.0087,2025-06-09T13:41:11.012061
8673,-0.3348,0.7286,0.6154,-0.210,-2.205,0.000,0.00,0.0184,0.0508,0.0100,0.0087,2025-06-09T13:41:11.012061
8674,-0.3328,0.7281,0.6154,-1.750,-2.800,-0.455,0.00,0.0184,0.0254,0.0000,0.0087,2025-06-09T13:41:11.012061
8675,-0.3333,0.7252,0.6120,-1.540,-2.870,-0.560,0.01,0.0184,0.0000,0.0000,0.0174,2025-06-09T13:41:11.012061
8676,-0.3323,0.7169,0.6144,-0.385,-2.730,-0.525,0.00,0.0368,0.0254,0.0000,0.0087,2025-06-09T13:41:11.012061
8677,-0.3348,0.7164,0.6193,8.890,-2.625,-0.280,0.00,0.0184,0.0000,0.0000,0.0174,2025-06-09T13:41:11.012061
8678,-0.3362,0.7144,0.6183,-0.035,-2.905,0.210,0.00,0.0368,0.0762,0.0300,0.0087,2025-06-09T13:41:11.012061
8679,-0.3357,0.7149,0.6178,0.105,-2.835,0.630,0.00,0.0368,0.0254,0.0000,0.0087,2025-06-09T13:41:11.012061
8680,-0.3353,0.7198,0.6183,0.735,-2.695,0.665,0.00,0.0184,0.0254,0.0300,0.0087,2025-06-09T13:41:11.012061
8681,-0.3367,0.7237,0.6193,1.365,-2.660,0.805,0.00,0.0184,0.0254,0.0000,0.0087,2025-06-09T13:41:11.012061
8682,-0.3338,0.7257,0.6163,1.050,-2.730,0.455,0.01,0.0000,0.0508,0.0300,0.0087,2025-06-09T13:41:11.012061
8683,-0.3348,0.7266,0.6154,-0.210,-2.800,0.280,0.00,0.0184,0.0508,0.0501,0.0174,2025-06-09T13:41:11.012061
8684,-0.3353,0.7222,0.6173,-0.665,-3.115,0.175,0.00,0.0184,0.0508,0.0000,0.0087,2025-06-09T13:41:11.012061
8685,-0.3338,0.7227,0.6163,-0.315,-3.010,0.105,0.00,0.0368,0.0508,0.0000,0.0087,2025-06-09T13:41:11.012061
8686,-0.3362,0.7232,0.6198,0.315,-2.800,0.140,0.01,0.0368,0.0254,0.0100,0.0174,2025-06-09T13:41:11.012061
8687,-0.3353,0.7218,0.6202,0.560,-2.730,0.070,0.00,0.0368,0.0254,0.0401,0.0087,2025-06-09T13:41:11.189797
8688,-0.3348,0.7232,0.6168,-0.070,-2.765,0.280,0.00,0.0368,0.0508,0.0300,0.0174,2025-06-09T13:41:11.189797
8689,-0.3333,0.7261,0.6178,-0.595,-2.835,0.175,0.00,0.0184,0.0254,0.0000,0.0087,2025-06-09T13:41:11.189797
8690,-0.3343,0.7276,0.6163,0.000,-2.730,0.035,0.01,0.0368,0.0508,0.0100,0.0174,2025-06-09T13:41:11.189797
8691,-0.3343,0.7232,0.6173,0.105,-2.695,-0.140,0.00,0.0368,0.0254,0.0200,0.0087,2025-06-09T13:41:11.189797
8692,-0.3357,0.7222,0.6154,-0.490,-2.730,-0.105,0.00,0.0000,0.0254,0.0200,0.0087,2025-06-09T13:41:11.189797
8693,-0.3362,0.7198,0.6154,-0.735,-2.835,0.000,0.01,0.0368,0.0508,0.0200,0.0087,2025-06-09T13:41:11.189797
8694,-0.3353,0.7218,0.6193,-0.245,-2.660,0.000,0.01,0.0368,0.0000,0.0401,0.0087,2025-06-09T13:41:11.189797
8695,-0.3353,0.7232,0.6202,0.420,-2.590,-0.070,0.01,0.0184,0.0254,0.0000,0.0174,2025-06-09T13:41:11.190795
8696,-0.3343,0.7257,0.6188,0.385,-2.800,0.000,0.00,0.0184,0.0254,0.0100,0.0087,2025-06-09T13:41:11.190795
8697,-0.3343,0.7232,0.6144,-0.525,-2.870,0.070,0.00,0.0184,0.0508,0.0501,0.0087,2025-06-09T13:41:11.190795
8698,-0.3318,0.7252,0.6173,-0.875,-2.905,0.000,0.00,0.0000,0.0254,0.0000,0.0262,2025-06-09T13:41:11.190795
8699,-0.3323,0.7213,0.6173,-0.490,-2.940,-0.175,0.01,0.0368,0.0254,0.0200,0.0087,2025-06-09T13:41:11.190795
8700,-0.3338,0.7193,0.6159,0.035,-2.730,-0.105,0.00,0.0368,0.0508,0.0501,0.0000,2025-06-09T13:41:11.355354
8701,-0.3323,0.7198,0.6159,0.035,-2.800,0.035,0.01,0.0368,0.0254,0.0300,0.0087,2025-06-09T13:41:11.355354
8702,-0.3343,0.7222,0.6198,-0.035,-2.835,0.140,0.01,0.0368,0.0508,0.0100,0.0174,2025-06-09T13:41:11.355354
8703,-0.3338,0.7237,0.6173,0.070,-2.800,0.280,0.01,0.0184,0.0254,0.0300,0.0087,2025-06-09T13:41:11.355354
8704,-0.3338,0.7193,0.6163,-0.035,-2.800,0.140,0.01,0.0184,0.0508,0.0200,0.0087,2025-06-09T13:41:11.355354
8705,-0.3357,0.7227,0.6168,0.175,-2.835,0.140,0.01,0.0184,0.0254,0.0200,0.0087,2025-06-09T13:41:11.355354
8706,-0.3338,0.7232,0.6159,0.000,-2.800,0.175,0.00,0.0368,0.0508,0.0200,0.0087,2025-06-09T13:41:11.355354
8707,-0.3338,0.7222,0.6188,0.035,-2.835,0.105,0.01,0.0184,0.0762,0.0000,0.0087,2025-06-09T13:41:11.355354
8708,-0.3343,0.7227,0.6178,-0.035,-2.800,0.035,0.01,0.0184,0.0508,0.0100,0.0087,2025-06-09T13:41:11.355354
8709,-0.3348,0.7232,0.6173,-0.070,-2.730,0.105,0.01,0.0184,0.0254,0.0200,0.0087,2025-06-09T13:41:11.355354
8710,-0.3333,0.7222,0.6163,-0.070,-2.835,0.035,0.00,0.0184,0.0254,0.0200,0.0087,2025-06-09T13:41:11.355354
8711,-0.3338,0.7242,0.6168,0.105,-2.835,0.105,0.01,0.0184,0.0508,0.0100,0.0087,2025-06-09T13:41:11.355354
8712,-0.3343,0.7213,0.6173,0.035,-2.660,0.070,0.00,0.0368,0.0508,0.0300,0.0087,2025-06-09T13:41:11.355354
8713,-0.3338,0.7213,0.6183,-0.140,-2.800,0.105,0.00,0.0184,0.0000,0.0000,0.0087,2025-06-09T13:41:11.355354
8714,-0.3338,0.7213,0.6173,-0.210,-2.940,0.035,0.01,0.0184,0.0254,0.0200,0.0087,2025-06-09T13:41:11.355354
8715,-0.3348,0.7198,0.6178,-0.210,-2.800,0.070,0.00,0.0368,0.0508,0.0000,0.0174,2025-06-09T13:41:11.355354
8716,-0.3333,0.7198,0.6178,0.000,-2.835,0.105,0.00,0.0000,0.0762,0.0000,0.0000,2025-06-09T13:41:11.406220
8717,-0.3362,0.7208,0.6168,0.210,-2.870,0.070,0.00,0.0184,0.0508,0.0602,0.0174,2025-06-09T13:41:11.406220
8718,-0.3348,0.7208,0.6183,0.105,-2.660,0.280,0.00,0.0184,0.0508,0.0200,0.0174,2025-06-09T13:41:11.407217
8719,-0.3333,0.7227,0.6202,0.000,-2.730,0.280,0.00,0.0184,0.0000,0.0501,0.0087,2025-06-09T13:41:11.407217
8720,-0.3343,0.7218,0.6183,0.070,-2.800,0.245,0.00,0.0368,0.1018,0.0200,0.0087,2025-06-09T13:41:11.555820
8721,-0.3353,0.7213,0.6173,0.105,-2.625,0.280,0.00,0.0184,0.0254,0.0401,0.0087,2025-06-09T13:41:11.555820
8722,-0.3348,0.7237,0.6183,0.245,-2.695,0.245,0.01,0.0184,0.0508,0.0000,0.0087,2025-06-09T13:41:11.555820
8723,-0.3338,0.7218,0.6178,0.280,-2.800,0.175,0.01,0.0368,0.0508,0.0200,0.0000,2025-06-09T13:41:11.555820
8724,-0.3357,0.7247,0.6168,-0.035,-2.695,0.140,0.01,0.0000,0.0508,0.0300,0.0087,2025-06-09T13:41:11.555820
8725,-0.3357,0.7247,0.6178,-0.070,-2.660,0.210,0.00,0.0368,0.0762,0.0100,0.0174,2025-06-09T13:41:11.555820
8726,-0.3348,0.7213,0.6178,-0.105,-2.835,0.140,0.01,0.0368,0.0508,0.0300,0.0087,2025-06-09T13:41:11.555820
8727,-0.3328,0.7232,0.6173,-0.070,-2.730,0.105,0.00,0.0368,0.0508,0.0300,0.0087,2025-06-09T13:41:11.555820
8728,-0.3318,0.7213,0.6173,0.070,-2.695,0.140,0.01,0.0184,0.0254,0.0100,0.0087,2025-06-09T13:41:11.555820
8729,-0.3348,0.7208,0.6168,0.280,-2.765,0.210,0.00,0.0184,0.0508,0.0100,0.0087,2025-06-09T13:41:11.556816
8730,-0.3338,0.7218,0.6173,0.385,-2.730,0.315,0.01,0.0184,0.0762,0.0200,0.0000,2025-06-09T13:41:11.651562
8731,-0.3338,0.7247,0.6173,0.245,-2.625,0.315,0.01,0.0552,0.0254,0.0300,0.0087,2025-06-09T13:41:11.651562
8732,-0.3338,0.7222,0.6168,0.105,-2.695,0.175,0.01,0.0368,0.0508,0.0000,0.0087,2025-06-09T13:41:11.651562
8733,-0.3338,0.7222,0.6173,-0.035,-2.765,0.315,0.01,0.0368,0.0254,0.0300,0.0087,2025-06-09T13:41:11.651562
8734,-0.3338,0.7213,0.6154,0.035,-2.660,0.315,0.01,0.0184,0.0508,0.0501,0.0174,2025-06-09T13:41:11.651562
8735,-0.3333,0.7227,0.6183,0.245,-2.765,0.280,0.00,0.0184,0.0508,0.0200,0.0087,2025-06-09T13:41:11.651562
8736,-0.3357,0.7227,0.6193,0.280,-2.695,0.245,0.01,0.0184,0.0508,0.0300,0.0174,2025-06-09T13:41:11.651562
8737,-0.3338,0.7237,0.6178,0.245,-2.730,0.210,0.00,0.0184,0.0508,0.0401,0.0000,2025-06-09T13:41:11.651562
8738,-0.3348,0.7208,0.6173,-0.140,-2.870,0.175,0.01,0.0184,0.0508,0.0300,0.0087,2025-06-09T13:41:11.805153
8739,-0.3338,0.7227,0.6183,-0.105,-2.695,0.210,0.01,0.0368,0.0508,0.0200,0.0174,2025-06-09T13:41:11.805153
8740,-0.3333,0.7252,0.6178,0.350,-2.520,0.245,0.01,0.0184,0.0762,0.0300,0.0087,2025-06-09T13:41:11.805153
8741,-0.3348,0.7227,0.6178,0.455,-2.695,0.245,0.01,0.0184,0.0508,0.0100,0.0087,2025-06-09T13:41:11.805153
8742,-0.3343,0.7232,0.6168,0.315,-2.660,0.350,0.01,0.0184,0.0254,0.0200,0.0174,2025-06-09T13:41:11.805153
8743,-0.3353,0.7252,0.6159,0.105,-2.765,0.210,0.00,0.0184,0.0000,0.0501,0.0087,2025-06-09T13:41:11.805153
8744,-0.3318,0.7252,0.6168,-0.035,-2.765,0.070,0.00,0.0184,0.0508,0.0300,0.0087,2025-06-09T13:41:11.805153
8745,-0.3348,0.7261,0.6173,-0.140,-2.730,-0.035,0.00,0.0368,0.0508,0.0200,0.0087,2025-06-09T13:41:11.957818
8746,-0.3314,0.7242,0.6198,-0.280,-2.765,-0.035,0.00,0.0368,0.0254,0.0501,0.0087,2025-06-09T13:41:11.957818
8747,-0.3343,0.7203,0.6163,-0.420,-2.975,0.000,0.01,0.0184,0.0762,0.0200,0.0174,2025-06-09T13:41:11.957818
8748,-0.3338,0.7218,0.6188,-0.245,-3.010,0.140,0.01,0.0184,0.0000,0.0200,0.0087,2025-06-09T13:41:11.957818
8749,-0.3323,0.7208,0.6193,0.000,-2.800,0.140,0.01,0.0368,0.0508,0.0300,0.0087,2025-06-09T13:41:11.957818
8750,-0.3343,0.7203,0.6188,0.140,-2.730,0.070,0.01,0.0184,0.0508,0.0100,0.0174,2025-06-09T13:41:11.957818
8751,-0.3338,0.7213,0.6183,0.175,-2.800,0.175,0.00,0.0368,0.0508,0.0200,0.0087,2025-06-09T13:41:11.957818
8752,-0.3343,0.7213,0.6178,0.175,-2.625,0.245,0.00,0.0368,0.0508,0.0000,0.0000,2025-06-09T13:41:11.957818
8753,-0.3348,0.7213,0.6173,0.245,-2.765,0.420,0.01,0.0368,0.0000,0.0100,0.0087,2025-06-09T13:41:11.957818
8754,-0.3333,0.7237,0.6163,0.420,-2.520,0.210,0.00,0.0184,0.0508,0.0300,0.0087,2025-06-09T13:41:11.957818
8755,-0.3348,0.7242,0.6188,0.245,-2.625,0.140,0.00,0.0368,0.0508,0.0000,0.0087,2025-06-09T13:41:11.957818
8756,-0.3357,0.7227,0.6159,-0.140,-2.730,0.105,0.00,0.0368,0.0508,0.0000,0.0087,2025-06-09T13:41:11.957818
8757,-0.3357,0.7247,0.6159,-0.210,-2.695,0.000,0.01,0.0184,0.0254,0.0100,0.0087,2025-06-09T13:41:12.030234
8758,-0.3348,0.7242,0.6188,-0.035,-2.590,0.035,0.00,0.0184,0.0254,0.0401,0.0087,2025-06-09T13:41:12.030234
8759,-0.3338,0.7237,0.6198,0.315,-2.555,0.070,0.00,0.0184,0.0000,0.0200,0.0087,2025-06-09T13:41:12.030234
8760,-0.3333,0.7247,0.6159,0.210,-2.625,0.070,0.01,0.0368,0.0508,0.0200,0.0087,2025-06-09T13:41:12.030234
8761,-0.3333,0.7232,0.6173,-0.175,-2.625,0.035,0.01,0.0184,0.0508,0.0100,0.0174,2025-06-09T13:41:12.058598
8762,-0.3318,0.7227,0.6183,-0.245,-2.660,0.070,0.00,0.0368,0.0508,0.0300,0.0087,2025-06-09T13:41:12.058598
8763,-0.3348,0.7203,0.6168,-0.105,-2.695,0.000,0.00,0.0184,0.0508,0.0000,0.0174,2025-06-09T13:41:12.058598
8764,-0.3348,0.7222,0.6168,0.070,-2.625,0.035,0.01,0.0184,0.0254,0.0200,0.0174,2025-06-09T13:41:12.058598
8765,-0.3338,0.7193,0.6173,-0.035,-2.625,0.070,0.01,0.0000,0.0508,0.0000,0.0087,2025-06-09T13:41:12.058598
8766,-0.3323,0.7213,0.6178,0.000,-2.590,0.210,0.00,0.0184,0.0254,0.0200,0.0087,2025-06-09T13:41:12.058598
8767,-0.3348,0.7213,0.6188,0.350,-2.485,0.210,0.00,0.0184,0.0762,0.0602,0.0174,2025-06-09T13:41:12.058598
8768,-0.3338,0.7208,0.6178,0.490,-2.450,0.245,0.01,0.0184,0.0000,0.0000,0.0087,2025-06-09T13:41:12.058598
8769,-0.3333,0.7222,0.6173,0.385,-2.345,0.210,0.00,0.0368,0.0254,0.0200,0.0174,2025-06-09T13:41:12.124466
8770,-0.3333,0.7237,0.6178,0.210,-2.310,0.140,0.00,0.0184,0.0508,0.0000,0.0087,2025-06-09T13:41:12.124466
8771,-0.3338,0.7227,0.6173,0.175,-2.345,0.140,0.00,0.0184,0.0508,0.0401,0.0174,2025-06-09T13:41:12.124466
8772,-0.3343,0.7232,0.6163,0.280,-2.345,0.245,0.00,0.0368,0.0000,0.0100,0.0087,2025-06-09T13:41:12.274193
8773,-0.3353,0.7227,0.6178,0.245,-2.415,0.175,0.01,0.0368,0.0508,0.0100,0.0174,2025-06-09T13:41:12.274193
8774,-0.3338,0.7218,0.6149,0.070,-2.345,0.105,0.00,0.0184,0.0508,0.0200,0.0087,2025-06-09T13:41:12.274193
8775,-0.3314,0.7213,0.6163,0.280,-2.135,0.175,0.00,0.0184,0.0254,0.0100,0.0262,2025-06-09T13:41:12.274193
8776,-0.3348,0.7193,0.6168,0.385,-2.135,0.175,0.01,0.0368,0.0508,0.0401,0.0087,2025-06-09T13:41:12.274193
8777,-0.3318,0.7198,0.6168,0.385,-2.205,0.315,0.00,0.0368,0.0254,0.0000,0.0087,2025-06-09T13:41:12.274193
8778,-0.3353,0.7203,0.6154,0.560,-2.380,0.560,0.01,0.0368,0.0254,0.0000,0.0087,2025-06-09T13:41:12.274193
8779,-0.3343,0.7237,0.6149,0.910,-2.275,0.595,0.00,0.0184,0.0254,0.0401,0.0087,2025-06-09T13:41:12.274193
8780,-0.3377,0.7247,0.6163,1.330,-2.695,0.910,0.00,0.0368,0.0508,0.0401,0.0174,2025-06-09T13:41:12.274193
8781,-0.3328,0.7276,0.6168,1.470,-2.695,0.945,0.00,0.0368,0.0254,0.0200,0.0087,2025-06-09T13:41:12.274193
8782,-0.3421,0.7359,0.6129,0.980,-3.255,1.050,0.00,0.0184,0.1018,0.0906,0.0087,2025-06-09T13:41:12.274193
8783,-0.3382,0.7344,0.6144,-0.245,-3.780,0.735,0.00,0.0184,0.0254,0.0200,0.0174,2025-06-09T13:41:12.274193
8784,-0.3367,0.7354,0.6134,-0.665,-4.480,0.630,0.01,0.0368,0.0508,0.0000,0.0174,2025-06-09T13:41:12.371930
8785,-0.3353,0.7403,0.6188,-1.155,-4.515,0.175,0.01,0.0000,0.0254,0.0401,0.0174,2025-06-09T13:41:12.371930
8786,-0.3343,0.7403,0.6207,-0.630,-4.795,-0.385,0.01,0.0184,0.0508,0.0000,0.0174,2025-06-09T13:41:12.371930
8787,-0.3343,0.7315,0.6232,-1.715,-4.935,-0.735,0.00,0.0368,0.0254,0.0000,0.0174,2025-06-09T13:41:12.371930
8788,-0.3362,0.7276,0.6139,-3.010,-5.460,-0.770,0.01,0.0184,0.0508,0.0501,0.0174,2025-06-09T13:41:12.371930
8789,-0.3318,0.7266,0.6168,-2.660,-5.285,-0.805,0.01,0.0184,0.0254,0.0300,0.0087,2025-06-09T13:41:12.371930
8790,-0.3265,0.7237,0.6212,-1.995,-4.585,-1.470,0.00,0.0368,0.0508,0.0200,0.0087,2025-06-09T13:41:12.371930
8791,-0.3357,0.7213,0.6246,-1.330,-4.480,-1.610,0.01,0.0368,0.0762,0.0000,0.0087,2025-06-09T13:41:12.576383
8792,-0.3314,0.7203,0.6173,-1.820,-4.445,-1.470,0.00,0.0552,0.0762,0.0100,0.0087,2025-06-09T13:41:12.576383
8793,-0.3270,0.7188,0.6217,-3.325,-4.200,-1.610,0.01,0.0184,0.0508,0.0100,0.0087,2025-06-09T13:41:12.576383
8794,-0.3260,0.7139,0.6193,-3.815,-3.780,-2.135,0.01,0.0000,0.0762,0.0000,0.0174,2025-06-09T13:41:12.576383
8795,-0.3299,0.7027,0.6183,-3.885,-3.430,-2.100,0.00,0.0184,0.0000,0.0200,0.0174,2025-06-09T13:41:12.576383
8796,-0.3235,0.6847,0.6085,-2.625,-3.255,-1.540,0.00,0.0184,0.0508,0.0100,0.0087,2025-06-09T13:41:12.576383
8797,-0.3353,0.6881,0.6149,-0.105,-2.590,0.525,0.01,0.0184,0.0508,0.0200,0.0087,2025-06-09T13:41:12.576383
8798,-0.3323,0.7052,0.6300,4.935,-1.715,1.575,0.00,0.0184,0.0254,0.0200,0.0087,2025-06-09T13:41:12.576383
8799,-0.3343,0.7213,0.6295,5.110,-1.645,1.505,0.00,0.0184,0.0254,0.0200,0.0087,2025-06-09T13:41:12.576383
8800,-0.3362,0.7266,0.6173,1.995,-2.660,1.715,0.00,0.0184,0.0508,0.0501,0.0087,2025-06-09T13:41:12.576383
8801,-0.3333,0.7305,0.6080,-1.015,-3.290,1.575,0.00,0.0368,0.0254,0.0000,0.0087,2025-06-09T13:41:12.576383
8802,-0.3314,0.7408,0.6222,0.490,-2.940,0.595,0.00,0.0184,0.0508,0.0200,0.0087,2025-06-09T13:41:12.576383
8803,-0.3318,0.7398,0.6285,2.205,-2.520,-0.525,0.00,0.0184,0.0508,0.0200,0.0087,2025-06-09T13:41:12.577381
8804,-0.3348,0.7320,0.6202,-0.630,-3.220,-0.945,0.00,0.0184,0.0762,0.0100,0.0174,2025-06-09T13:41:12.577381
8805,-0.3304,0.7247,0.6159,-4.410,-3.990,-0.910,0.00,0.0184,0.0508,0.0000,0.0087,2025-06-09T13:41:12.577381
8806,-0.3318,0.7227,0.6271,-3.570,-3.395,-1.120,0.00,0.0368,0.0254,0.0000,0.0087,2025-06-09T13:41:12.577381
8807,-0.3314,0.7198,0.6266,-0.245,-2.905,-1.330,0.00,0.0184,0.0508,0.0300,0.0000,2025-06-09T13:41:12.681208
8808,-0.3318,0.7169,0.6202,0.980,-2.905,-0.910,0.00,0.0184,0.0254,0.0401,0.0087,2025-06-09T13:41:12.682206
8809,-0.3299,0.7198,0.6198,-1.085,-3.325,-0.770,0.00,0.0368,0.0508,0.0100,0.0087,2025-06-09T13:41:12.682206
8810,-0.3274,0.7154,0.6242,-3.710,-3.360,-0.840,0.01,0.0368,0.0254,0.0200,0.0087,2025-06-09T13:41:12.682206
8811,-0.3353,0.7125,0.6193,-1.470,-3.640,-0.700,0.00,0.0184,0.0508,0.0000,0.0087,2025-06-09T13:41:12.682206
8812,-0.3284,0.7144,0.6207,0.630,-2.625,-0.490,0.00,0.0368,0.0254,0.0200,0.0174,2025-06-09T13:41:12.682206
8813,-0.3309,0.7149,0.6237,0.840,-2.765,-0.420,0.00,0.0184,0.0508,0.0300,0.0087,2025-06-09T13:41:12.682206
8814,-0.3362,0.7169,0.6261,-0.910,-3.045,-0.315,0.00,0.0184,0.0508,0.0100,0.0087,2025-06-09T13:41:12.682206
8815,-0.3338,0.7178,0.6237,-1.575,-3.185,-0.175,0.00,0.0184,0.0254,0.0200,0.0087,2025-06-09T13:41:12.791979
8816,-0.3348,0.7164,0.6217,-0.420,-2.870,-0.105,0.01,0.0184,0.0508,0.0401,0.0087,2025-06-09T13:41:12.791979
8817,-0.3314,0.7169,0.6227,0.770,-2.870,-0.210,0.01,0.0368,0.0508,0.0200,0.0087,2025-06-09T13:41:12.791979
8818,-0.3362,0.7169,0.6232,0.420,-2.940,-0.140,0.01,0.0184,0.1018,0.0200,0.0174,2025-06-09T13:41:12.791979
8819,-0.3338,0.7169,0.6217,-0.945,-3.115,-0.070,0.00,0.0000,0.0508,0.0100,0.0087,2025-06-09T13:41:12.791979
8820,-0.3333,0.7183,0.6237,-0.945,-3.080,-0.210,0.01,0.0368,0.0254,0.0100,0.0174,2025-06-09T13:41:12.791979
8821,-0.3299,0.7183,0.6242,-0.315,-2.800,-0.315,0.00,0.0184,0.0508,0.0200,0.0174,2025-06-09T13:41:12.791979
8822,-0.3333,0.7188,0.6222,-0.035,-2.835,-0.350,0.01,0.0368,0.0254,0.0300,0.0087,2025-06-09T13:41:13.000424
8823,-0.3333,0.7169,0.6212,-0.525,-2.975,-0.280,0.00,0.0368,0.0508,0.0000,0.0000,2025-06-09T13:41:13.000424
8824,-0.3348,0.7130,0.6227,-0.980,-3.185,-0.245,0.01,0.0184,0.0508,0.0300,0.0087,2025-06-09T13:41:13.000424
8825,-0.3328,0.7125,0.6242,-0.560,-3.115,0.035,0.01,0.0368,0.0508,0.0200,0.0262,2025-06-09T13:41:13.000424
8826,-0.3460,0.6915,0.6207,0.350,-3.465,6.300,0.00,0.0368,0.0254,0.0200,0.0087,2025-06-09T13:41:13.000424
8827,-0.3338,0.1518,0.6266,-74.235,-62.930,83.685,0.00,0.0184,0.0508,0.0200,0.0087,2025-06-09T13:41:13.000424
8828,0.0547,1.1980,0.8442,-44.625,-70.595,10.885,0.00,0.0184,0.0000,0.0000,0.0087,2025-06-09T13:41:13.000424
8829,0.1088,-0.2020,0.9750,42.770,-13.825,52.465,0.00,0.0184,0.0254,0.0401,0.0087,2025-06-09T13:41:13.000424
8830,-0.7642,1.5304,0.9355,110.810,-28.595,64.645,0.00,0.0184,0.0508,0.0200,0.0174,2025-06-09T13:41:13.000424
8831,-0.2869,1.0463,0.7091,149.275,-14.140,27.230,0.00,0.0184,0.0254,0.0000,0.0174,2025-06-09T13:41:13.000424
8832,-0.1498,0.9789,0.5549,30.730,-18.515,4.305,0.01,0.0184,0.0254,0.0200,0.0087,2025-06-09T13:41:13.000424
8833,-0.2133,0.4168,0.4085,-59.290,-2.940,-0.455,0.01,0.0184,0.0508,0.0200,0.0087,2025-06-09T13:41:13.000424
8834,-0.3499,0.7393,0.4636,-57.225,13.790,-76.860,0.00,0.0368,0.0254,0.0100,0.0087,2025-06-09T13:41:13.000424
8835,-0.3806,0.6549,0.8642,-55.370,76.650,-160.895,0.00,0.0184,0.0254,0.0100,0.0087,2025-06-09T13:41:13.000424
8836,-0.3738,0.8452,0.7457,-76.755,93.975,-173.670,0.00,0.0184,0.0508,0.0200,0.0087,2025-06-09T13:41:13.000424
8837,-0.2830,0.8418,0.6159,-115.500,35.980,-146.615,0.00,0.0368,0.0508,0.0200,0.0087,2025-06-09T13:41:13.092176
8838,-0.3543,0.7745,0.7100,-59.815,34.685,-134.610,0.00,0.0368,0.0000,0.0100,0.0174,2025-06-09T13:41:13.092176
8839,-0.3723,0.7491,0.6925,-2.380,43.120,-111.720,0.00,0.0184,0.0254,0.0100,0.0087,2025-06-09T13:41:13.092176
8840,-0.4773,0.7096,0.8496,51.275,-2.660,-100.870,0.00,0.0368,0.0762,0.0200,0.0174,2025-06-09T13:41:13.092176
8841,-0.0259,1.0019,0.3187,4.095,-80.465,-64.715,0.01,0.0368,0.0508,0.0200,0.0087,2025-06-09T13:41:13.092176
8842,-0.3060,0.9906,0.4368,-27.545,-93.835,21.245,0.01,0.0184,0.0254,0.0200,0.0087,2025-06-09T13:41:13.092176
8843,-0.4006,0.5183,0.2323,5.180,-58.450,21.420,0.00,0.0184,0.0762,0.0200,0.0087,2025-06-09T13:41:13.092176
8844,-0.5763,0.4343,0.6705,80.535,0.000,38.150,0.00,0.0368,0.0508,0.0100,0.0087,2025-06-09T13:41:13.092176
8845,-0.6837,0.3582,0.8896,169.085,44.310,78.575,0.01,0.0368,0.0254,0.0100,0.0087,2025-06-09T13:41:13.187007
8846,-0.9745,0.0795,1.2498,206.710,46.340,187.705,0.00,0.0184,0.0508,0.0100,0.0174,2025-06-09T13:41:13.187007
8847,-1.7021,0.3553,2.2585,270.235,-61.460,439.145,0.01,0.0368,0.0000,0.0300,0.0087,2025-06-09T13:41:13.187007
8848,-3.5775,1.9154,3.1208,854.525,-259.595,801.955,0.01,0.0368,0.0254,0.0100,0.0087,2025-06-09T13:41:13.187007
8849,-3.6776,3.5526,2.6376,600.740,-769.615,800.100,0.00,0.0184,0.0508,0.0000,0.0087,2025-06-09T13:41:13.187007
8850,-3.0334,1.6563,-0.6759,-75.880,-1146.740,822.535,0.00,0.0368,0.0508,0.0100,0.0087,2025-06-09T13:41:13.187007
8851,-2.7860,1.5152,-3.5565,-771.435,-1090.530,600.005,0.00,0.0000,0.0254,0.0200,0.0087,2025-06-09T13:41:13.187007
8852,-1.4386,1.6187,-4.9971,-1146.740,-966.070,70.805,0.01,0.0184,0.0508,0.0300,0.0174,2025-06-09T13:41:13.279747
8853,1.1688,1.2210,-2.7513,-777.490,-372.855,140.210,0.00,0.0184,0.0762,0.0200,0.0087,2025-06-09T13:41:13.279747
8854,0.0722,-0.1932,-3.0949,-1030.225,-392.000,226.170,0.00,0.0184,0.0254,0.0401,0.0087,2025-06-09T13:41:13.279747
8855,1.1439,0.7901,-1.2307,-545.510,-360.325,38.990,0.00,0.0368,0.0508,0.0100,0.0087,2025-06-09T13:41:13.279747
8856,1.2019,1.0433,-1.4479,281.645,370.475,222.705,0.00,0.0368,0.0508,0.0200,0.0087,2025-06-09T13:41:13.279747
8857,0.7096,0.6676,-1.5826,824.005,727.615,213.605,0.00,0.0368,0.0508,0.0000,0.0000,2025-06-09T13:41:13.279747
8858,0.5402,0.5446,-1.9564,802.095,706.160,113.400,0.00,0.0184,0.0000,0.0300,0.0174,2025-06-09T13:41:13.279747
8859,-0.1030,1.1292,-1.7265,337.365,875.490,40.215,0.01,0.0368,0.0508,0.0300,0.0087,2025-06-09T13:41:13.404688
8860,-0.6651,1.0736,-1.0853,118.300,973.875,6.055,0.01,0.0184,0.0508,0.0100,0.0174,2025-06-09T13:41:13.404688
8861,-1.1200,0.6656,-0.3967,26.285,929.775,-200.130,0.01,0.0184,0.0254,0.0200,0.0087,2025-06-09T13:41:13.404688
8862,-2.9173,0.6983,0.1015,361.550,877.030,-22.610,0.00,0.0368,0.0508,0.0200,0.0087,2025-06-09T13:41:13.404688
8863,-2.7587,-0.2386,0.6534,807.765,777.175,-25.515,0.00,0.0368,0.0508,0.0200,0.0087,2025-06-09T13:41:13.404688
8864,-4.3227,2.2180,7.3971,692.895,378.140,178.640,0.01,0.0368,0.0508,0.0200,0.0087,2025-06-09T13:41:13.404688
8865,-0.1762,2.8797,10.6643,1025.045,446.320,38.885,0.00,0.0184,0.0762,0.0200,0.0087,2025-06-09T13:41:13.404688
8866,-2.4776,0.9960,4.5974,-764.890,-303.765,142.730,0.01,0.0000,0.0254,0.0100,0.0087,2025-06-09T13:41:13.404688
8867,-2.3019,2.9919,3.8523,-956.235,-939.365,102.900,0.00,0.0184,0.0254,0.0200,0.0174,2025-06-09T13:41:13.404688
8868,-1.7182,0.7867,-0.2259,-935.935,-1146.740,121.380,0.01,0.0368,0.0508,0.0602,0.0087,2025-06-09T13:41:13.451551
8869,-1.4557,1.4782,-0.5427,-620.935,-1146.740,-176.715,0.01,0.0184,0.0762,0.0300,0.0087,2025-06-09T13:41:13.451551
8870,-1.0897,0.9423,-1.7802,-552.755,-1098.300,-282.800,0.01,0.0184,0.0508,0.0200,0.0087,2025-06-09T13:41:13.451551
8871,-0.4514,1.6368,-2.3609,-154.105,-620.550,-228.480,0.01,0.0368,0.0254,0.0100,0.0087,2025-06-09T13:41:13.451551
8872,0.7086,1.4977,-3.3345,-7.490,-320.495,-67.830,0.00,0.0368,0.0508,0.0000,0.0174,2025-06-09T13:41:13.511680
8873,0.9008,1.2395,-3.2833,155.435,98.805,44.940,0.00,0.0184,0.0508,0.0100,0.0174,2025-06-09T13:41:13.511680
8874,0.0146,0.8511,-3.3628,131.670,472.780,49.560,0.00,0.0552,0.0508,0.0100,0.0174,2025-06-09T13:41:13.511680
8875,-0.4943,0.9589,-2.0735,-38.920,973.910,60.795,0.00,0.0184,0.0508,0.0300,0.0174,2025-06-09T13:41:13.598450
8876,-0.1610,1.2439,-2.1638,-54.110,1011.885,68.005,0.00,0.0184,0.0254,0.0401,0.0087,2025-06-09T13:41:13.598450
8877,-1.4025,1.5104,-1.3571,-157.710,1142.715,90.685,0.00,0.0184,0.0762,0.0300,0.0087,2025-06-09T13:41:13.598450
8878,-2.1594,1.3425,-0.2743,27.405,1146.740,156.590,0.01,0.0368,0.0508,0.0200,0.0174,2025-06-09T13:41:13.598450
8879,-2.4859,0.2377,0.1854,434.840,1144.150,216.510,0.00,0.0368,0.0508,0.0100,0.0174,2025-06-09T13:41:13.598450
8880,-3.9255,-0.1591,1.0189,913.360,1125.180,-62.685,0.00,0.0184,0.0254,0.0200,0.0087,2025-06-09T13:41:13.598450
8881,-6.1669,3.0036,6.9764,997.290,248.360,361.025,0.00,0.0184,0.0254,0.0200,0.0000,2025-06-09T13:41:13.598450
8882,-3.0032,2.8309,6.8300,943.355,176.750,101.570,0.01,0.0184,0.0508,0.0300,0.0087,2025-06-09T13:41:13.700229
8883,-3.3799,2.4283,-0.6564,-361.550,-416.920,241.920,0.00,0.0184,0.0508,0.0200,0.0174,2025-06-09T13:41:13.700229
8884,-2.0803,1.5860,0.4050,-963.130,-458.675,152.040,0.00,0.0368,0.0254,0.0300,0.0174,2025-06-09T13:41:13.700229
8885,-1.3498,1.1107,0.6710,-970.760,-938.350,40.110,0.01,0.0184,0.0254,0.0300,0.0087,2025-06-09T13:41:13.700229
8886,-1.0526,0.8286,-1.1834,-868.665,-979.755,-66.465,0.00,0.0184,0.0508,0.0000,0.0087,2025-06-09T13:41:13.700229
8887,-0.1547,0.4631,-1.1692,-401.170,-651.805,-199.640,0.00,0.0184,0.0508,0.0300,0.0087,2025-06-09T13:41:13.700229
8888,0.0981,0.3660,-1.2356,-105.490,-387.240,-256.305,0.00,0.0368,0.0000,0.0200,0.0174,2025-06-09T13:41:13.700229
8889,-0.1820,0.9902,-1.5352,52.325,-115.325,-47.565,0.01,0.0000,0.0762,0.0000,0.0174,2025-06-09T13:41:13.795992
8890,0.4465,1.1893,-1.1575,-2.310,10.920,-178.430,0.00,0.0184,0.0508,0.0200,0.0087,2025-06-09T13:41:13.795992
8891,1.0453,1.1078,-0.9038,-148.505,161.105,-83.265,0.01,0.0184,0.0508,0.0300,0.0087,2025-06-09T13:41:13.795992
8892,0.6407,1.0658,-0.2860,-197.120,253.680,41.860,0.00,0.0368,0.0508,0.0100,0.0087,2025-06-09T13:41:13.795992
8893,0.2674,1.0268,-0.0268,-67.760,349.440,166.180,0.00,0.0184,0.0508,0.0200,0.0174,2025-06-09T13:41:13.795992
8894,-0.0307,0.9687,0.3543,197.995,425.460,230.860,0.00,0.0184,0.0254,0.0100,0.0087,2025-06-09T13:41:13.795992
8895,-0.3538,0.8647,0.6315,321.510,462.455,230.720,0.00,0.0000,0.0254,0.0100,0.0174,2025-06-09T13:41:13.795992
8896,-0.5280,0.8569,0.8013,408.730,453.635,157.220,0.00,0.0184,0.0508,0.0100,0.0087,2025-06-09T13:41:13.795992
8897,-1.0609,0.6222,1.1453,421.540,416.080,-101.185,0.01,0.0368,0.0000,0.0000,0.0174,2025-06-09T13:41:13.905427
8898,-1.1229,0.9423,1.2098,250.460,302.890,13.265,0.01,0.0184,0.0254,0.0200,0.0174,2025-06-09T13:41:13.905427
8899,-1.2161,1.0536,1.4581,133.595,133.805,-23.030,0.01,0.0184,0.0254,0.0401,0.0087,2025-06-09T13:41:13.905427
8900,-0.9643,0.9243,1.5030,-5.985,9.240,-38.220,0.01,0.0184,0.0762,0.0000,0.0087,2025-06-09T13:41:13.905427
8901,-0.7749,0.9277,1.3015,-132.020,-66.675,-27.370,0.01,0.0184,0.0508,0.0000,0.0087,2025-06-09T13:41:13.905427
8902,-0.6095,0.8125,1.0653,-172.865,-142.555,-12.075,0.01,0.0000,0.0762,0.0200,0.0174,2025-06-09T13:41:13.905427
8903,-0.4948,0.6749,0.7203,-138.950,-150.150,8.190,0.00,0.0184,0.0254,0.0100,0.0087,2025-06-09T13:41:13.905427
8904,-0.3806,0.5788,0.5314,-63.595,-118.020,18.095,0.01,0.0184,0.0508,0.0300,0.0174,2025-06-09T13:41:14.007154
8905,-0.3109,0.5222,0.3889,5.075,-71.295,20.580,0.00,0.0184,0.0508,0.0100,0.0087,2025-06-09T13:41:14.007154
8906,-0.2728,0.5470,0.3167,27.510,-33.775,17.395,0.00,0.0184,0.0508,0.0300,0.0087,2025-06-09T13:41:14.007154
8907,-0.2538,0.6159,0.3655,32.060,3.570,11.935,0.00,0.0184,0.0508,0.0100,0.0087,2025-06-09T13:41:14.373392
8908,-0.2728,0.6837,0.4494,37.415,25.970,8.855,0.00,0.0368,0.0508,0.0200,0.0087,2025-06-09T13:41:14.373392
8909,-0.3079,0.7515,0.5436,42.525,34.020,8.085,0.00,0.0184,0.0508,0.0100,0.0087,2025-06-09T13:41:14.373392
8910,-0.3362,0.7881,0.6383,36.785,29.330,4.445,0.01,0.0368,0.0508,0.0100,0.0000,2025-06-09T13:41:14.373392
8911,-0.4929,0.7964,0.6554,16.205,18.060,-4.060,0.01,0.0184,0.0508,0.0200,0.0087,2025-06-09T13:41:14.373392
8912,-0.3723,0.8091,0.6554,-13.335,3.150,-9.450,0.00,0.0368,0.0254,0.0100,0.0174,2025-06-09T13:41:14.373392
8913,-0.3406,0.8189,0.6481,-22.505,-6.020,-9.835,0.00,0.0184,0.0254,0.0100,0.0087,2025-06-09T13:41:14.373392
8914,-0.3094,0.8130,0.6232,-16.310,-9.905,-5.250,0.01,0.0368,0.0508,0.0200,0.0087,2025-06-09T13:41:14.373392
8915,-0.3030,0.7969,0.5719,-2.625,-8.575,-1.190,0.00,0.0000,0.0508,0.0100,0.0087,2025-06-09T13:41:14.373392
8916,-0.2962,0.7793,0.5397,1.575,-4.095,0.315,0.01,0.0368,0.0254,0.0300,0.0087,2025-06-09T13:41:14.373392
8917,-0.2991,0.7564,0.5226,-0.210,1.785,-0.140,0.00,0.0184,0.0254,0.0200,0.0087,2025-06-09T13:41:14.373392
8918,-0.3006,0.7266,0.5348,-1.645,7.280,-2.030,0.00,0.0368,0.0508,0.0200,0.0087,2025-06-09T13:41:14.373392
8919,-0.3182,0.7017,0.5402,-0.805,13.720,-6.020,0.00,0.0184,0.0254,0.0300,0.0000,2025-06-09T13:41:14.374390
8920,-0.3323,0.6900,0.5641,0.070,18.515,-8.995,0.00,0.0368,0.0508,0.0100,0.0087,2025-06-09T13:41:14.374390
8921,-0.3377,0.6910,0.5895,0.140,20.615,-9.135,0.00,0.0184,0.0508,0.0100,0.0087,2025-06-09T13:41:14.374390
8922,-0.3543,0.6920,0.6256,2.555,20.230,-8.435,0.00,0.0184,0.0254,0.0401,0.0174,2025-06-09T13:41:14.374390
8923,-0.3865,0.7042,0.6398,5.985,17.290,-6.615,0.00,0.0184,0.0254,0.0200,0.0174,2025-06-09T13:41:14.374390
8924,-0.4006,0.7188,0.6593,5.495,11.340,-8.120,0.00,0.0184,0.0254,0.0000,0.0174,2025-06-09T13:41:14.374390
8925,-0.3909,0.7613,0.6647,3.220,3.010,-5.950,0.01,0.0184,0.0508,0.0000,0.0087,2025-06-09T13:41:14.374390
8926,-0.3684,0.7857,0.6725,-0.525,-8.365,-1.820,0.00,0.0184,0.0254,0.0300,0.0087,2025-06-09T13:41:14.374390
8927,-0.3562,0.7613,0.6393,-4.830,-19.635,2.870,0.01,0.0368,0.0508,0.0200,0.0174,2025-06-09T13:41:14.374390
8928,-0.3626,0.7232,0.6032,-4.585,-24.115,5.950,0.00,0.0368,0.0254,0.0200,0.0087,2025-06-09T13:41:14.374390
8929,-0.3601,0.7076,0.5861,-0.595,-21.350,4.935,0.00,0.0184,0.0000,0.0300,0.0174,2025-06-09T13:41:14.374390
8930,-0.3489,0.7091,0.5646,4.305,-15.960,2.415,0.00,0.0368,0.0254,0.0300,0.0087,2025-06-09T13:41:14.374390
8931,-0.3289,0.7305,0.5510,5.775,-11.690,1.435,0.01,0.0184,0.0508,0.0300,0.0174,2025-06-09T13:41:14.374390
8932,-0.3231,0.7418,0.5563,6.510,-7.875,1.855,0.00,0.0184,0.0762,0.0100,0.0087,2025-06-09T13:41:14.374390
8933,-0.3318,0.7393,0.5641,7.385,-5.600,3.395,0.01,0.0368,0.0508,0.0200,0.0087,2025-06-09T13:41:14.374390
8934,-0.3382,0.7300,0.5773,8.820,-3.920,3.955,0.00,0.0184,0.0508,0.0602,0.0174,2025-06-09T13:41:14.374390
8935,-0.3553,0.7271,0.5866,9.030,-2.905,2.485,0.01,0.0184,0.0254,0.0100,0.0174,2025-06-09T13:41:14.374390
8936,-0.3655,0.7252,0.5983,7.840,-3.640,1.610,0.01,0.0184,0.0508,0.0100,0.0087,2025-06-09T13:41:14.414041
8937,-0.3514,0.7486,0.6139,5.915,-6.335,1.855,0.01,0.0184,0.0508,0.0200,0.0087,2025-06-09T13:41:14.414041
8938,-0.3470,0.7559,0.6095,3.955,-9.625,2.275,0.00,0.0368,0.0000,0.0401,0.0087,2025-06-09T13:41:14.414041
8939,-0.3479,0.7520,0.5939,1.680,-11.900,2.135,0.00,0.0368,0.0254,0.0300,0.0174,2025-06-09T13:41:14.414041
8940,-0.3440,0.7554,0.5817,0.385,-12.320,0.420,0.01,0.0184,0.0762,0.0200,0.0087,2025-06-09T13:41:14.414041
8941,-0.3436,0.7598,0.5763,-0.350,-9.870,-1.645,0.01,0.0184,0.0508,0.0200,0.0087,2025-06-09T13:41:14.414041
8942,-0.3348,0.7735,0.5627,-0.245,-7.315,-2.205,0.00,0.0368,0.0254,0.0100,0.0087,2025-06-09T13:41:14.620547
8943,-0.3196,0.7901,0.5627,2.065,-4.445,-1.120,0.01,0.0184,0.0762,0.0200,0.0087,2025-06-09T13:41:14.622215
8944,-0.3201,0.7730,0.5666,4.900,-2.765,1.295,0.00,0.0184,0.0254,0.0200,0.0087,2025-06-09T13:41:14.622215
8945,-0.3372,0.7579,0.5705,6.370,-1.190,3.010,0.01,0.0368,0.0254,0.0100,0.0087,2025-06-09T13:41:14.622215
8946,-0.3406,0.7525,0.5807,6.160,0.105,3.010,0.01,0.0184,0.0508,0.0200,0.0174,2025-06-09T13:41:14.622215
8947,-0.3396,0.7559,0.5880,5.775,-0.455,2.800,0.00,0.0184,0.0000,0.0000,0.0087,2025-06-09T13:41:14.622215
8948,-0.3392,0.7530,0.5958,4.865,-2.450,2.310,0.01,0.0184,0.0254,0.0100,0.0087,2025-06-09T13:41:14.622215
8949,-0.3484,0.7413,0.5968,2.485,-4.305,1.680,0.00,0.0184,0.0254,0.0200,0.0087,2025-06-09T13:41:14.622215
8950,-0.3450,0.7344,0.5880,-0.770,-5.950,0.595,0.00,0.0368,0.0762,0.0100,0.0087,2025-06-09T13:41:14.622215
8951,-0.3460,0.7335,0.5778,-2.975,-5.425,-0.875,0.00,0.0184,0.0254,0.0200,0.0174,2025-06-09T13:41:14.622215
8952,-0.3392,0.7379,0.5675,-2.380,-2.625,-3.920,0.00,0.0184,0.0000,0.0000,0.0087,2025-06-09T13:41:14.622215
8953,-0.3289,0.7427,0.5646,-1.085,0.000,-5.775,0.00,0.0184,0.0508,0.0200,0.0087,2025-06-09T13:41:14.622215
8954,-0.3284,0.7505,0.5612,-1.750,1.785,-7.980,0.00,0.0184,0.0254,0.0100,0.0087,2025-06-09T13:41:14.622215
8955,-0.3138,0.7501,0.6037,0.385,13.720,-0.280,0.00,0.0184,0.0508,0.0100,0.0174,2025-06-09T13:41:14.622215
8956,-0.3372,0.6812,0.4548,2.135,11.130,-6.440,0.00,0.0184,0.0508,0.0200,0.0087,2025-06-09T13:41:14.622215
8957,-0.3314,0.7574,0.5705,7.315,21.630,-12.635,0.01,0.0368,0.0254,0.0300,0.0174,2025-06-09T13:41:14.622215
8958,-0.3148,0.7920,0.5231,11.865,22.505,-9.870,0.01,0.0184,0.0508,0.0200,0.0174,2025-06-09T13:41:14.723860
8959,-0.2933,0.7886,0.5675,3.535,15.015,-5.110,0.01,0.0368,0.0508,0.0000,0.0174,2025-06-09T13:41:14.723860
8960,-0.2689,0.7681,0.5456,-4.550,3.500,-5.635,0.00,0.0184,0.0508,0.0000,0.0174,2025-06-09T13:41:14.723860
8961,-0.2098,0.7520,0.5285,-5.670,-11.935,-11.760,0.00,0.0368,0.0508,0.0200,0.0174,2025-06-09T13:41:14.723860
8962,-0.2591,0.7681,0.4890,-2.170,-23.450,-14.035,0.00,0.0184,0.0508,0.0100,0.0087,2025-06-09T13:41:14.723860
8963,-0.2743,0.7422,0.4831,3.045,-27.510,-16.450,0.00,0.0368,0.0000,0.0100,0.0087,2025-06-09T13:41:14.723860
8964,0.0498,0.6007,0.4885,4.165,-39.060,-37.765,0.01,0.0184,0.0508,0.0200,0.0087,2025-06-09T13:41:14.723860
8965,-0.1649,0.5797,0.5280,18.305,-25.025,-63.735,0.00,0.0368,0.0508,0.0200,0.0087,2025-06-09T13:41:14.835560
8966,-0.3279,0.5500,0.4782,21.910,-27.055,-74.760,0.00,0.0184,0.0508,0.0300,0.0087,2025-06-09T13:41:14.835560
8967,-0.2982,0.4563,0.4802,6.510,-25.235,-81.760,0.01,0.0368,0.0508,0.0200,0.0174,2025-06-09T13:41:14.835560
8968,-0.5222,0.8442,0.6661,8.155,-29.645,-73.325,0.00,0.0368,0.0508,0.0100,0.0087,2025-06-09T13:41:14.835560
8969,-0.6583,1.0394,0.8867,28.490,-50.225,-51.030,0.00,0.0184,0.0254,0.0200,0.0087,2025-06-09T13:41:14.835560
8970,-0.8184,1.0043,0.7950,-3.010,-36.785,-37.765,0.01,0.0184,0.0254,0.0100,0.0087,2025-06-09T13:41:14.835560
8971,-0.8769,0.8755,0.8345,-31.115,-19.215,-30.485,0.01,0.0184,0.0762,0.0300,0.0087,2025-06-09T13:41:14.835560
8972,-0.5148,0.6803,0.6471,-26.040,-14.805,-26.880,0.00,0.0184,0.0254,0.0000,0.0087,2025-06-09T13:41:14.836558
8973,-0.2030,0.5812,0.4534,-20.860,-31.080,-23.835,0.00,0.0368,0.0254,0.0100,0.0087,2025-06-09T13:41:15.031071
8974,-0.2938,0.5246,0.4660,-11.830,-20.615,-17.850,0.01,0.0184,0.0508,0.0200,0.0174,2025-06-09T13:41:15.031071
8975,-0.4524,0.6056,0.4368,-6.055,-3.220,-9.695,0.00,0.0184,0.0254,0.0300,0.0087,2025-06-09T13:41:15.031071
8976,-0.5441,0.7286,0.7374,10.185,2.030,-3.745,0.01,0.0368,0.0000,0.0200,0.0087,2025-06-09T13:41:15.031071
8977,-0.5100,0.7593,0.7520,8.155,-0.280,-2.695,0.00,0.0184,0.0254,0.0300,0.0087,2025-06-09T13:41:15.031071
8978,-0.4319,0.6905,0.6847,-11.865,-8.820,-1.050,0.00,0.0000,0.0254,0.0100,0.0087,2025-06-09T13:41:15.031071
8979,-0.4046,0.6320,0.5388,-12.250,-8.260,2.030,0.00,0.0368,0.0254,0.0100,0.0174,2025-06-09T13:41:15.031071
8980,-0.4055,0.6573,0.5422,4.760,1.365,4.130,0.01,0.0184,0.0508,0.0100,0.0174,2025-06-09T13:41:15.031071
8981,-0.4055,0.7130,0.6007,20.650,5.005,2.135,0.00,0.0368,0.0254,0.0000,0.0087,2025-06-09T13:41:15.031071
8982,-0.4241,0.7354,0.6242,6.755,0.105,-0.945,0.00,0.0184,0.0254,0.0100,0.0087,2025-06-09T13:41:15.031071
8983,-0.4216,0.7105,0.5929,-13.335,-7.700,-2.345,0.01,0.0368,0.0254,0.0300,0.0087,2025-06-09T13:41:15.031071
8984,-0.4080,0.6803,0.5734,-12.845,-6.300,-3.080,0.00,0.0368,0.0000,0.0100,0.0087,2025-06-09T13:41:15.031071
8985,-0.4148,0.6730,0.5978,2.345,-0.980,-2.660,0.00,0.0184,0.0254,0.0100,0.0174,2025-06-09T13:41:15.031071
8986,-0.4221,0.6783,0.6173,8.540,0.420,-1.295,0.00,0.0368,0.0508,0.0100,0.0174,2025-06-09T13:41:15.031071
8987,-0.4294,0.6920,0.6266,-1.435,-2.975,0.210,0.00,0.0368,0.0254,0.0200,0.0174,2025-06-09T13:41:15.031071
8988,-0.4236,0.6900,0.6076,-6.650,-4.620,0.980,0.01,0.0184,0.0254,0.0100,0.0087,2025-06-09T13:41:15.127859
8989,-0.4124,0.6847,0.5861,1.050,-2.205,0.665,0.00,0.0184,0.0508,0.0200,0.0174,2025-06-09T13:41:15.127859
8990,-0.4158,0.6910,0.5885,6.580,-0.175,-0.210,0.00,0.0184,0.0254,0.0000,0.0087,2025-06-09T13:41:15.127859
8991,-0.4216,0.7003,0.6090,0.840,-1.820,-0.595,0.00,0.0368,0.0508,0.0200,0.0087,2025-06-09T13:41:15.127859
8992,-0.4216,0.6939,0.6105,-5.250,-4.130,-0.525,0.00,0.0184,0.0254,0.0100,0.0174,2025-06-09T13:41:15.127859
8993,-0.4187,0.6827,0.5983,-2.835,-3.500,-0.420,0.00,0.0184,0.0254,0.0000,0.0000,2025-06-09T13:41:15.127859
8994,-0.4177,0.6812,0.5958,2.555,-1.470,-0.385,0.00,0.0184,0.0508,0.0100,0.0087,2025-06-09T13:41:15.127859
8995,-0.4221,0.6891,0.6056,3.360,-1.330,0.000,0.00,0.0368,0.0254,0.0000,0.0087,2025-06-09T13:41:15.127859
8996,-0.4231,0.6915,0.6080,-1.435,-3.045,0.140,0.00,0.0184,0.0254,0.0100,0.0262,2025-06-09T13:41:15.174723
8997,-0.4202,0.6871,0.6002,-2.520,-3.430,0.385,0.01,0.0368,0.0000,0.0200,0.0087,2025-06-09T13:41:15.174723
8998,-0.4182,0.6866,0.5954,1.155,-2.240,0.210,0.01,0.0184,0.0508,0.0200,0.0087,2025-06-09T13:41:15.174723
8999,-0.4187,0.6915,0.6012,2.520,-1.785,0.140,0.01,0.0184,0.0508,0.0300,0.0087,2025-06-09T13:41:15.348032
9000,-0.4226,0.6915,0.6061,0.175,-2.975,0.105,0.00,0.0184,0.0254,0.0200,0.0174,2025-06-09T13:41:15.348032
9001,-0.4197,0.6920,0.6017,-1.995,-3.465,-0.035,0.01,0.0368,0.0508,0.0200,0.0174,2025-06-09T13:41:15.348032
9002,-0.4177,0.6871,0.5993,-0.875,-2.940,-0.210,0.01,0.0184,0.0000,0.0300,0.0087,2025-06-09T13:41:15.348032
9003,-0.4182,0.6866,0.6032,1.085,-2.240,-0.140,0.01,0.0184,0.0254,0.0200,0.0087,2025-06-09T13:41:15.348032
9004,-0.4207,0.6910,0.6037,0.735,-2.555,0.210,0.00,0.0368,0.0508,0.0200,0.0087,2025-06-09T13:41:15.348032
9005,-0.4202,0.6939,0.6032,-0.665,-2.870,0.140,0.00,0.0184,0.0508,0.0100,0.0174,2025-06-09T13:41:15.348032
9006,-0.4221,0.6910,0.6017,-0.665,-3.010,0.070,0.00,0.0184,0.0254,0.0200,0.0087,2025-06-09T13:41:15.348032
9007,-0.4207,0.6910,0.5998,0.420,-2.730,-0.035,0.00,0.0184,0.0508,0.0200,0.0087,2025-06-09T13:41:15.348032
9008,-0.4177,0.6910,0.6017,0.245,-2.625,-0.140,0.00,0.0184,0.0508,0.0000,0.0087,2025-06-09T13:41:15.348032
9009,-0.4197,0.6895,0.6027,-0.560,-2.870,-0.210,0.00,0.0184,0.0508,0.0100,0.0087,2025-06-09T13:41:15.348032
9010,-0.4187,0.6900,0.6037,-0.630,-3.045,-0.035,0.00,0.0368,0.0000,0.0100,0.0174,2025-06-09T13:41:15.348032
9011,-0.4177,0.6886,0.6037,-0.035,-2.660,0.070,0.00,0.0184,0.0508,0.0000,0.0174,2025-06-09T13:41:15.440881
9012,-0.4177,0.6891,0.6027,0.420,-2.380,0.000,0.00,0.0368,0.0508,0.0100,0.0174,2025-06-09T13:41:15.440881
9013,-0.4177,0.6930,0.6027,0.245,-2.555,-0.035,0.01,0.0552,0.0508,0.0200,0.0087,2025-06-09T13:41:15.440881
9014,-0.4211,0.6895,0.6041,-0.560,-2.590,-0.210,0.00,0.0368,0.0762,0.0100,0.0087,2025-06-09T13:41:15.440881
9015,-0.4172,0.6871,0.6017,-0.595,-2.555,-0.140,0.00,0.0184,0.0508,0.0200,0.0087,2025-06-09T13:41:15.440881
9016,-0.4207,0.6895,0.6017,0.210,-2.380,-0.245,0.00,0.0184,0.0508,0.0200,0.0087,2025-06-09T13:41:15.440881
9017,-0.4192,0.6866,0.6037,0.280,-2.205,-0.245,0.00,0.0184,0.0508,0.0100,0.0087,2025-06-09T13:41:15.440881
9018,-0.4202,0.6842,0.6027,-0.455,-2.730,-0.035,0.01,0.0184,0.0508,0.0200,0.0174,2025-06-09T13:41:15.557296
9019,-0.4158,0.6827,0.5983,-0.595,-2.555,-0.140,0.01,0.0368,0.0508,0.0200,0.0174,2025-06-09T13:41:15.557296
9020,-0.4182,0.6847,0.6032,0.455,-1.575,-0.140,0.01,0.0368,0.0254,0.0100,0.0087,2025-06-09T13:41:15.557296
9021,-0.4182,0.6808,0.6012,1.050,-1.435,-0.105,0.01,0.0368,0.0254,0.0200,0.0174,2025-06-09T13:41:15.557296
9022,-0.4158,0.6793,0.5944,0.665,-1.470,0.140,0.01,0.0184,0.0508,0.0100,0.0087,2025-06-09T13:41:15.557296
9023,-0.4187,0.6822,0.5988,0.210,-0.875,0.315,0.01,0.0368,0.0508,0.0000,0.0087,2025-06-09T13:41:15.557296
9024,-0.4133,0.6837,0.6022,1.435,-0.210,-0.175,0.00,0.0368,0.0254,0.0100,0.0174,2025-06-09T13:41:15.557296
9025,-0.4143,0.6798,0.5968,1.260,0.175,-0.350,0.01,0.0368,0.0254,0.0300,0.0087,2025-06-09T13:41:15.557296
9026,-0.4163,0.6803,0.5924,1.540,0.560,-0.210,0.00,0.0184,0.0508,0.0401,0.0087,2025-06-09T13:41:15.557296
9027,-0.4236,0.6861,0.5934,2.730,0.385,0.385,0.01,0.0184,0.0254,0.0000,0.0174,2025-06-09T13:41:15.652068
9028,-0.4260,0.6998,0.6080,3.255,0.280,0.630,0.01,0.0184,0.0254,0.0300,0.0087,2025-06-09T13:41:15.652068
9029,-0.4299,0.7139,0.6144,2.380,-0.210,0.525,0.01,0.0184,0.0254,0.0100,0.0087,2025-06-09T13:41:15.652068
9030,-0.4377,0.7149,0.6080,1.295,-1.295,0.035,0.01,0.0184,0.0000,0.0000,0.0174,2025-06-09T13:41:15.652068
9031,-0.4348,0.7100,0.5993,-0.525,-1.750,-0.455,0.00,0.0368,0.0254,0.0000,0.0087,2025-06-09T13:41:15.652068
9032,-0.4207,0.6988,0.5929,-1.750,-1.575,-1.400,0.01,0.0184,0.0254,0.0100,0.0087,2025-06-09T13:41:15.652068
9033,-0.4202,0.6925,0.5939,-1.295,-1.400,-2.030,0.00,0.0368,0.0254,0.0000,0.0087,2025-06-09T13:41:15.652068
9034,-0.4192,0.6895,0.5939,-0.980,-0.805,-2.415,0.00,0.0368,0.0508,0.0300,0.0174,2025-06-09T13:41:15.738250
9035,-0.4226,0.6871,0.5973,-0.980,-0.595,-2.485,0.00,0.0184,0.0508,0.0200,0.0087,2025-06-09T13:41:15.738250
9036,-0.4260,0.6871,0.5998,-1.295,-0.875,-2.380,0.01,0.0184,0.0508,0.0000,0.0087,2025-06-09T13:41:15.738250
9037,-0.4314,0.6812,0.5993,-1.190,-1.120,-1.995,0.01,0.0368,0.0508,0.0100,0.0087,2025-06-09T13:41:15.738250
9038,-0.4265,0.6759,0.5949,-0.770,-1.260,-1.505,0.00,0.0184,0.0254,0.0200,0.0174,2025-06-09T13:41:15.738250
9039,-0.4265,0.6730,0.5924,-0.385,-1.435,-0.840,0.00,0.0368,0.0000,0.0300,0.0087,2025-06-09T13:41:15.738250
9040,-0.4246,0.6730,0.5929,0.245,-1.155,-0.210,0.01,0.0184,0.0762,0.0200,0.0087,2025-06-09T13:41:15.738250
9041,-0.4275,0.6793,0.5968,1.820,-0.595,0.595,0.01,0.0368,0.0508,0.0200,0.0174,2025-06-09T13:41:15.847599
9042,-0.4314,0.6861,0.5983,2.730,-0.420,1.015,0.01,0.0368,0.0508,0.0401,0.0174,2025-06-09T13:41:15.847599
9043,-0.4299,0.6939,0.5993,2.415,-0.595,1.155,0.00,0.0552,0.0508,0.0401,0.0087,2025-06-09T13:41:15.847599
9044,-0.4265,0.7008,0.5944,1.505,-0.315,0.770,0.00,0.0184,0.0508,0.0200,0.0174,2025-06-09T13:41:15.847599
9045,-0.4368,0.7022,0.5973,1.155,-1.400,0.560,0.01,0.0184,0.0254,0.0100,0.0087,2025-06-09T13:41:15.847599
9046,-0.4299,0.7003,0.5988,0.560,-1.855,-0.140,0.00,0.0184,0.0508,0.0100,0.0087,2025-06-09T13:41:15.847599
9047,-0.4324,0.7013,0.5949,-0.525,-2.415,-0.420,0.00,0.0184,0.0508,0.0200,0.0174,2025-06-09T13:41:15.847599
9048,-0.4309,0.6988,0.5954,-0.700,-2.625,-0.735,0.01,0.0184,0.0254,0.0000,0.0087,2025-06-09T13:41:15.847599
9049,-0.4338,0.6978,0.5973,-0.840,-2.765,-0.805,0.00,0.0184,0.0254,0.0300,0.0087,2025-06-09T13:41:16.056196
9050,-0.4290,0.6891,0.5944,-0.665,-2.905,-0.735,0.01,0.0368,0.0762,0.0200,0.0087,2025-06-09T13:41:16.056196
9051,-0.4314,0.6866,0.5919,-0.805,-3.150,-0.490,0.01,0.0368,0.0000,0.0200,0.0087,2025-06-09T13:41:16.056196
9052,-0.4294,0.6852,0.5944,-0.560,-2.730,-0.420,0.00,0.0368,0.0508,0.0200,0.0087,2025-06-09T13:41:16.056196
9053,-0.4304,0.6881,0.5958,0.280,-2.660,-0.140,0.00,0.0368,0.0508,0.0200,0.0174,2025-06-09T13:41:16.056196
9054,-0.4324,0.6856,0.5944,0.175,-2.905,0.175,0.00,0.0184,0.0254,0.0100,0.0087,2025-06-09T13:41:16.056196
9055,-0.4299,0.6881,0.5929,-0.175,-2.975,0.315,0.00,0.0368,0.0508,0.0100,0.0087,2025-06-09T13:41:16.056196
9056,-0.4309,0.6920,0.5954,0.210,-2.695,0.210,0.01,0.0184,0.0508,0.0000,0.0087,2025-06-09T13:41:16.056196
9057,-0.4290,0.6900,0.5958,0.315,-2.940,-0.070,0.00,0.0368,0.0254,0.0401,0.0087,2025-06-09T13:41:16.181859
9058,-0.4304,0.6910,0.5958,-0.245,-2.975,0.105,0.00,0.0184,0.0508,0.0200,0.0087,2025-06-09T13:41:16.182857
9059,-0.4309,0.6910,0.5968,-0.245,-2.905,0.070,0.00,0.0184,0.0508,0.0300,0.0087,2025-06-09T13:41:16.182857
9060,-0.4304,0.6900,0.5983,0.245,-2.800,0.000,0.01,0.0184,0.0508,0.0100,0.0174,2025-06-09T13:41:16.182857
9061,-0.4290,0.6905,0.5968,0.035,-2.870,-0.035,0.00,0.0184,0.0508,0.0000,0.0087,2025-06-09T13:41:16.182857
9062,-0.4285,0.6915,0.5958,-0.315,-2.975,0.000,0.01,0.0184,0.0508,0.0200,0.0174,2025-06-09T13:41:16.182857
9063,-0.4280,0.6920,0.5958,-0.210,-2.835,-0.105,0.00,0.0184,0.0254,0.0000,0.0087,2025-06-09T13:41:16.182857
9064,-0.4294,0.6910,0.5958,-0.210,-2.905,-0.175,0.00,0.0184,0.0762,0.0100,0.0087,2025-06-09T13:41:16.182857
9065,-0.4280,0.6891,0.5929,-0.385,-2.940,-0.140,0.01,0.0368,0.0254,0.0200,0.0174,2025-06-09T13:41:16.182857
9066,-0.4294,0.6886,0.5958,-0.420,-2.975,-0.105,0.00,0.0184,0.0508,0.0300,0.0087,2025-06-09T13:41:16.182857
9067,-0.4294,0.6925,0.5949,-0.350,-2.905,-0.140,0.01,0.0184,0.0508,0.0200,0.0087,2025-06-09T13:41:16.182857
9068,-0.4299,0.6891,0.5944,-0.140,-3.010,-0.140,0.00,0.0368,0.0508,0.0300,0.0000,2025-06-09T13:41:16.182857
9069,-0.4309,0.6900,0.5954,-0.210,-3.045,-0.035,0.00,0.0368,0.0508,0.0200,0.0087,2025-06-09T13:41:16.182857
9070,-0.4299,0.6905,0.5968,-0.385,-3.010,-0.245,0.00,0.0184,0.0254,0.0100,0.0087,2025-06-09T13:41:16.182857
9071,-0.4285,0.6891,0.5954,-0.210,-2.975,-0.280,0.00,0.0184,0.0254,0.0200,0.0087,2025-06-09T13:41:16.182857
9072,-0.4304,0.6886,0.5934,-0.385,-3.080,-0.245,0.01,0.0000,0.0508,0.0300,0.0174,2025-06-09T13:41:16.266083
9073,-0.4299,0.6881,0.5949,-0.560,-2.905,-0.280,0.00,0.0184,0.0254,0.0100,0.0174,2025-06-09T13:41:16.266083
9074,-0.4309,0.6871,0.5949,-0.280,-2.870,-0.280,0.00,0.0368,0.0508,0.0200,0.0087,2025-06-09T13:41:16.266083
9075,-0.4294,0.6891,0.5963,-0.070,-2.800,-0.280,0.01,0.0368,0.0254,0.0300,0.0087,2025-06-09T13:41:16.266083
9076,-0.4299,0.6905,0.5958,-0.245,-2.765,-0.210,0.00,0.0368,0.0254,0.0100,0.0087,2025-06-09T13:41:16.266083
9077,-0.4294,0.6925,0.5963,-0.350,-2.905,-0.315,0.00,0.0184,0.0254,0.0300,0.0087,2025-06-09T13:41:16.266083
9078,-0.4290,0.6895,0.5973,-0.595,-2.870,-0.420,0.00,0.0184,0.0508,0.0100,0.0087,2025-06-09T13:41:16.266083
9079,-0.4299,0.6866,0.5958,-0.595,-2.765,-0.525,0.00,0.0184,0.0254,0.0200,0.0087,2025-06-09T13:41:16.266083
9080,-0.4314,0.6866,0.5944,-0.385,-2.835,-0.490,0.01,0.0184,0.0254,0.0100,0.0087,2025-06-09T13:41:16.375791
9081,-0.4290,0.6871,0.5954,-0.350,-2.765,-0.490,0.00,0.0184,0.0508,0.0100,0.0174,2025-06-09T13:41:16.375791
9082,-0.4314,0.6861,0.5978,-0.490,-2.765,-0.280,0.01,0.0368,0.0254,0.0300,0.0087,2025-06-09T13:41:16.375791
9083,-0.4304,0.6861,0.5983,-0.210,-2.940,-0.350,0.01,0.0368,0.0508,0.0200,0.0174,2025-06-09T13:41:16.375791
9084,-0.4319,0.6856,0.5963,-0.245,-2.730,-0.315,0.01,0.0184,0.0508,0.0200,0.0087,2025-06-09T13:41:16.375791
9085,-0.4285,0.6856,0.5954,-0.315,-2.870,-0.175,0.00,0.0184,0.0508,0.0100,0.0087,2025-06-09T13:41:16.375791
9086,-0.4314,0.6856,0.5958,-0.210,-2.940,-0.210,0.00,0.0184,0.0508,0.0100,0.0087,2025-06-09T13:41:16.375791
9087,-0.4309,0.6866,0.5973,8.855,-2.625,-0.070,0.00,0.0184,0.0254,0.0200,0.0087,2025-06-09T13:41:16.375791
9088,-0.4309,0.6837,0.5973,-0.035,-2.660,-0.035,0.01,0.0184,0.0508,0.0100,0.0087,2025-06-09T13:41:16.465576
9089,-0.4285,0.6861,0.5954,0.000,-2.800,0.000,0.01,0.0368,0.0508,0.0200,0.0087,2025-06-09T13:41:16.465576
9090,-0.4299,0.6881,0.5958,0.105,-2.660,0.140,0.01,0.0184,0.0508,0.0200,0.0174,2025-06-09T13:41:16.465576
9091,-0.4309,0.6895,0.5963,0.280,-2.555,0.105,0.00,0.0368,0.0508,0.0100,0.0087,2025-06-09T13:41:16.465576
9092,-0.4304,0.6886,0.5983,0.350,-2.590,0.000,0.01,0.0184,0.0000,0.0100,0.0087,2025-06-09T13:41:16.465576
9093,-0.4324,0.6905,0.5983,0.035,-2.590,-0.035,0.00,0.0184,0.0254,0.0200,0.0087,2025-06-09T13:41:16.465576
9094,-0.4319,0.6866,0.5973,-0.280,-2.590,0.070,0.00,0.0184,0.0254,0.0300,0.0087,2025-06-09T13:41:16.465576
9095,-0.4309,0.6886,0.5968,0.210,-2.555,-0.035,0.01,0.0368,0.0508,0.0200,0.0087,2025-06-09T13:41:16.678981
9096,-0.4299,0.6895,0.5988,0.315,-2.485,-0.035,0.01,0.0184,0.0254,0.0100,0.0174,2025-06-09T13:41:16.678981
9097,-0.4324,0.6881,0.5968,-0.175,-2.555,-0.105,0.00,0.0184,0.0254,0.0200,0.0087,2025-06-09T13:41:16.678981
9098,-0.4290,0.6866,0.5958,-0.560,-2.800,-0.070,0.01,0.0368,0.0508,0.0200,0.0174,2025-06-09T13:41:16.678981
9099,-0.4304,0.6842,0.5978,-0.210,-2.450,-0.035,0.00,0.0184,0.0508,0.0000,0.0000,2025-06-09T13:41:16.678981
9100,-0.4324,0.6861,0.5963,0.420,-2.275,0.000,0.00,0.0184,0.0254,0.0200,0.0087,2025-06-09T13:41:16.678981
9101,-0.4319,0.6861,0.5988,0.385,-2.555,0.035,0.00,0.0368,0.0000,0.0100,0.0087,2025-06-09T13:41:16.678981
9102,-0.4309,0.6871,0.5963,-0.210,-2.555,0.175,0.01,0.0000,0.0508,0.0200,0.0087,2025-06-09T13:41:16.678981
9103,-0.4314,0.6886,0.5963,-0.210,-2.485,0.000,0.00,0.0000,0.0254,0.0000,0.0087,2025-06-09T13:41:16.678981
9104,-0.4299,0.6871,0.5983,0.245,-2.555,-0.070,0.00,0.0184,0.0508,0.0200,0.0087,2025-06-09T13:41:16.678981
9105,-0.4294,0.6856,0.5968,0.070,-2.555,0.000,0.00,0.0368,0.0508,0.0300,0.0087,2025-06-09T13:41:16.678981
9106,-0.4314,0.6861,0.5958,-0.070,-2.450,0.035,0.00,0.0184,0.0254,0.0300,0.0087,2025-06-09T13:41:16.678981
9107,-0.4358,0.6886,0.5988,0.420,-2.555,0.105,0.00,0.0184,0.0508,0.0000,0.0087,2025-06-09T13:41:16.678981
9108,-0.4294,0.6905,0.6002,0.315,-2.450,0.105,0.00,0.0368,0.0508,0.0200,0.0087,2025-06-09T13:41:16.678981
9109,-0.4299,0.6881,0.5944,-0.455,-2.625,-0.105,0.00,0.0000,0.0508,0.0200,0.0087,2025-06-09T13:41:16.678981
9110,-0.4309,0.6876,0.5954,-0.210,-2.765,-0.035,0.01,0.0184,0.0508,0.0200,0.0174,2025-06-09T13:41:16.874341
9111,-0.4314,0.6881,0.5988,0.280,-2.415,0.035,0.01,0.0184,0.0508,0.0200,0.0087,2025-06-09T13:41:16.874341
9112,-0.4353,0.6891,0.5954,0.280,-2.590,0.035,0.00,0.0368,0.0254,0.0300,0.0174,2025-06-09T13:41:16.874341
9113,-0.4299,0.6886,0.5968,-0.280,-2.800,-0.070,0.00,0.0184,0.0254,0.0200,0.0087,2025-06-09T13:41:16.874341
9114,-0.4304,0.6871,0.5958,-0.385,-2.765,0.035,0.01,0.0184,0.0508,0.0100,0.0087,2025-06-09T13:41:16.874341
9115,-0.4309,0.6866,0.5954,0.035,-2.730,-0.140,0.01,0.0184,0.0508,0.0200,0.0000,2025-06-09T13:41:16.874341
9116,-0.4319,0.6852,0.5963,0.105,-2.695,-0.105,0.00,0.0000,0.0254,0.0100,0.0087,2025-06-09T13:41:16.874341
9117,-0.4333,0.6871,0.5949,0.000,-2.660,0.175,0.00,0.0184,0.0762,0.0300,0.0174,2025-06-09T13:41:16.874341
9118,-0.4309,0.6886,0.5978,0.175,-2.555,0.070,0.00,0.0368,0.0254,0.0200,0.0174,2025-06-09T13:41:16.874341
9119,-0.4343,0.6866,0.5968,0.385,-2.730,0.070,0.00,0.0184,0.0508,0.0200,0.0087,2025-06-09T13:41:16.874341
9120,-0.4319,0.6876,0.5973,0.035,-2.555,0.105,0.00,0.0184,0.0508,0.0100,0.0087,2025-06-09T13:41:16.874341
9121,-0.4304,0.6866,0.5968,-0.175,-2.765,-0.035,0.01,0.0184,0.0508,0.0200,0.0087,2025-06-09T13:41:16.874341
9122,-0.4314,0.6866,0.5954,0.000,-2.765,0.070,0.00,0.0368,0.0508,0.0200,0.0087,2025-06-09T13:41:16.874341
9123,-0.4304,0.6871,0.5968,0.070,-2.520,0.035,0.00,0.0552,0.0508,0.0200,0.0174,2025-06-09T13:41:16.874341
9124,-0.4314,0.6852,0.5973,0.140,-2.660,0.035,0.00,0.0184,0.0254,0.0200,0.0087,2025-06-09T13:41:16.874341
9125,-0.4294,0.6876,0.5968,0.105,-2.765,0.105,0.01,0.0368,0.0508,0.0200,0.0087,2025-06-09T13:41:16.976071
9126,-0.4309,0.6881,0.5954,0.000,-2.520,0.105,0.00,0.0368,0.0508,0.0100,0.0174,2025-06-09T13:41:16.976071
9127,-0.4299,0.6856,0.5963,0.105,-2.625,0.105,0.01,0.0368,0.0508,0.0100,0.0000,2025-06-09T13:41:16.976071
9128,-0.4299,0.6861,0.5973,0.070,-2.625,0.000,0.00,0.0368,0.1018,0.0200,0.0087,2025-06-09T13:41:16.976071
9129,-0.4309,0.6871,0.5973,0.000,-2.450,0.175,0.00,0.0368,0.0508,0.0300,0.0087,2025-06-09T13:41:16.976071
9130,-0.4309,0.6886,0.5963,0.175,-2.590,0.175,0.01,0.0184,0.0508,0.0200,0.0087,2025-06-09T13:41:16.976071
9131,-0.4319,0.6876,0.5958,0.105,-2.660,0.175,0.00,0.0184,0.0254,0.0401,0.0000,2025-06-09T13:41:16.976071
9132,-0.4324,0.6886,0.5973,-0.035,-2.555,0.210,0.00,0.0368,0.0254,0.0200,0.0087,2025-06-09T13:41:16.976071
9133,-0.4319,0.6866,0.5968,0.070,-2.660,0.000,0.01,0.0184,0.0508,0.0401,0.0174,2025-06-09T13:41:17.025938
9134,-0.4309,0.6861,0.5939,0.140,-2.660,0.105,0.00,0.0184,0.0508,0.0300,0.0174,2025-06-09T13:41:17.025938
9135,-0.4324,0.6876,0.5998,0.140,-2.450,0.140,0.01,0.0368,0.0508,0.0200,0.0174,2025-06-09T13:41:17.025938
9136,-0.4329,0.6847,0.5963,0.280,-2.590,0.105,0.00,0.0184,0.0508,0.0300,0.0174,2025-06-09T13:41:17.075832
9137,-0.4324,0.6871,0.5939,0.105,-2.660,0.210,0.00,0.0184,0.0508,0.0200,0.0174,2025-06-09T13:41:17.075832
9138,-0.4329,0.6876,0.5998,-0.105,-2.520,0.105,0.00,0.0368,0.0508,0.0300,0.0174,2025-06-09T13:41:17.075832
9139,-0.4309,0.6866,0.5944,0.105,-2.730,0.070,0.00,0.0000,0.0254,0.0300,0.0087,2025-06-09T13:41:17.075832
9140,-0.4333,0.6876,0.5954,0.070,-2.660,0.035,0.00,0.0184,0.0254,0.0000,0.0087,2025-06-09T13:41:17.181608
9141,-0.4314,0.6852,0.5963,0.070,-2.625,0.175,0.00,0.0184,0.0254,0.0100,0.0087,2025-06-09T13:41:17.181608
9142,-0.4324,0.6861,0.5949,0.140,-2.730,0.175,0.01,0.0000,0.0508,0.0200,0.0087,2025-06-09T13:41:17.181608
9143,-0.4314,0.6881,0.5973,-0.070,-2.695,0.070,0.00,0.0368,0.0508,0.0100,0.0087,2025-06-09T13:41:17.181608
9144,-0.4329,0.6866,0.5968,0.000,-2.625,0.105,0.00,0.0368,0.0508,0.0100,0.0174,2025-06-09T13:41:17.181608
9145,-0.4324,0.6876,0.5978,0.105,-2.660,0.175,0.00,0.0368,0.0254,0.0200,0.0087,2025-06-09T13:41:17.181608
9146,-0.4319,0.6886,0.5963,0.175,-2.695,0.140,0.00,0.0368,0.0000,0.0200,0.0087,2025-06-09T13:41:17.181608
9147,-0.4338,0.6881,0.5958,0.140,-2.590,0.175,0.00,0.0184,0.0254,0.0200,0.0087,2025-06-09T13:41:17.181608
9148,-0.4309,0.6891,0.5949,0.070,-2.730,0.140,0.00,0.0368,0.0508,0.0300,0.0087,2025-06-09T13:41:17.238484
9149,-0.4314,0.6871,0.5949,-0.140,-2.765,0.105,0.01,0.0184,0.0508,0.0100,0.0087,2025-06-09T13:41:17.238484
9150,-0.4333,0.6856,0.5958,-0.035,-2.625,0.105,0.01,0.0368,0.0762,0.0100,0.0174,2025-06-09T13:41:17.238484
9151,-0.4329,0.6866,0.5954,0.210,-2.695,0.000,0.01,0.0368,0.0508,0.0100,0.0087,2025-06-09T13:41:17.238484
9152,-0.4304,0.6861,0.5954,-0.140,-2.660,8.925,0.01,0.0368,0.0508,0.0200,0.0174,2025-06-09T13:41:17.389053
9153,-0.4319,0.6856,0.5968,-0.070,-2.800,0.105,0.00,0.0184,0.0000,0.0200,0.0000,2025-06-09T13:41:17.389053
9154,-0.4280,0.6861,0.5949,0.000,-2.765,0.105,0.01,0.0184,0.0000,0.0501,0.0087,2025-06-09T13:41:17.389053
9155,-0.4343,0.6915,0.5949,0.035,-2.625,0.140,0.00,0.0368,0.0254,0.0100,0.0087,2025-06-09T13:41:17.389053
9156,-0.4294,0.6900,0.5978,-0.035,-2.800,-0.070,0.00,0.0184,0.0508,0.0100,0.0087,2025-06-09T13:41:17.389053
9157,-0.4299,0.6856,0.5934,-0.455,-2.835,-0.175,0.00,0.0184,0.0508,0.0300,0.0087,2025-06-09T13:41:17.389053
9158,-0.4348,0.6866,0.5973,-0.140,-2.660,0.140,0.00,0.0184,0.0508,0.0000,0.0087,2025-06-09T13:41:17.389053
9159,-0.4304,0.6866,0.5978,0.420,-2.485,0.070,0.00,0.0368,0.0508,0.0000,0.0174,2025-06-09T13:41:17.389053
9160,-0.4338,0.6866,0.5954,0.350,-2.695,0.070,0.00,0.0184,0.0254,0.0000,0.0087,2025-06-09T13:41:17.389053
9161,-0.4304,0.6861,0.5968,-0.560,-2.625,0.035,0.00,0.0184,0.0254,0.0100,0.0087,2025-06-09T13:41:17.389053
9162,-0.4329,0.6876,0.5958,0.105,-2.835,0.245,0.00,0.0184,0.0254,0.0200,0.0087,2025-06-09T13:41:17.389053
9163,-0.4299,0.6900,0.5993,0.560,-2.660,-0.105,0.01,0.0368,0.0508,0.0401,0.0087,2025-06-09T13:41:17.389053
9164,-0.4343,0.6861,0.5934,-0.350,-2.765,-0.105,0.01,0.0368,0.0508,0.0300,0.0087,2025-06-09T13:41:17.494614
9165,-0.4314,0.6861,0.5978,-0.595,-3.010,0.105,0.00,0.0368,0.0508,0.0300,0.0087,2025-06-09T13:41:17.494614
9166,-0.4299,0.6876,0.5968,0.245,-2.695,0.000,0.00,0.0368,0.0508,0.0300,0.0174,2025-06-09T13:41:17.494614
9167,-0.4314,0.6856,0.5968,0.385,-2.520,0.070,0.01,0.0368,0.0254,0.0100,0.0087,2025-06-09T13:41:17.494614
9168,-0.4348,0.6871,0.5958,-0.070,-2.835,0.035,0.01,0.0184,0.0508,0.0000,0.0174,2025-06-09T13:41:17.494614
9169,-0.4314,0.6881,0.5958,-0.280,-2.800,0.140,0.00,0.0184,0.0508,0.0200,0.0174,2025-06-09T13:41:17.494614
9170,-0.4319,0.6886,0.5963,-0.105,-2.590,0.105,0.00,0.0184,0.0254,0.0000,0.0087,2025-06-09T13:41:17.494614
9171,-0.4329,0.6900,0.5973,0.385,-2.695,0.070,0.01,0.0184,0.0254,0.0100,0.0087,2025-06-09T13:41:17.542519
9172,-0.4314,0.6876,0.5973,-0.175,-2.765,0.070,0.01,0.0368,0.0508,0.0000,0.0087,2025-06-09T13:41:17.542519
9173,-0.4314,0.6871,0.5939,-0.420,-2.870,0.105,0.01,0.0184,0.0508,0.0300,0.0262,2025-06-09T13:41:17.542519
9174,-0.4319,0.6871,0.5963,-0.035,-2.835,0.105,0.00,0.0368,0.0508,0.0300,0.0087,2025-06-09T13:41:17.542519
9175,-0.4343,0.6881,0.5983,0.350,-2.730,0.035,0.00,0.0184,0.0508,0.0200,0.0174,2025-06-09T13:41:17.593351
9176,-0.4309,0.6866,0.5954,-0.210,-2.590,0.070,0.01,0.0184,0.0254,0.0300,0.0087,2025-06-09T13:41:17.593351
9177,-0.4324,0.6866,0.5983,-0.175,-2.800,0.035,0.00,0.0184,0.0508,0.0000,0.0087,2025-06-09T13:41:17.593351
9178,-0.4309,0.6827,0.5963,-0.175,-2.625,0.070,0.01,0.0184,0.0254,0.0300,0.0174,2025-06-09T13:41:17.593351
9179,-0.4324,0.6861,0.5934,0.175,-2.590,0.175,0.01,0.0000,0.0254,0.0000,0.0174,2025-06-09T13:41:17.694083
9180,-0.4294,0.6866,0.5973,0.280,-2.520,0.000,0.00,0.0184,0.0254,0.0300,0.0087,2025-06-09T13:41:17.694083
9181,-0.4353,0.6891,0.5963,0.070,-2.730,-0.035,0.00,0.0368,0.0254,0.0200,0.0087,2025-06-09T13:41:17.694083
9182,-0.4333,0.6866,0.5944,-0.420,-2.730,0.175,0.00,0.0368,0.0254,0.0100,0.0087,2025-06-09T13:41:17.694083
9183,-0.4353,0.6847,0.5949,-0.140,-2.765,-0.035,0.00,0.0368,0.0508,0.0401,0.0087,2025-06-09T13:41:17.694083
9184,-0.4314,0.6842,0.5973,0.070,-2.625,-0.035,0.01,0.0184,0.0254,0.0200,0.0087,2025-06-09T13:41:17.695079
9185,-0.4324,0.6871,0.5968,0.035,-2.520,0.035,0.00,0.0184,0.0508,0.0401,0.0174,2025-06-09T13:41:17.695079
9186,-0.4343,0.6847,0.5944,0.105,-2.870,0.175,0.00,0.0368,0.0508,0.0100,0.0087,2025-06-09T13:41:17.745955
9187,-0.4314,0.6881,0.5978,0.000,-2.450,0.035,0.00,0.0737,0.0254,0.0100,0.0087,2025-06-09T13:41:17.745955
9188,-0.4343,0.6891,0.5958,0.210,-2.660,0.175,0.00,0.0368,0.0508,0.0000,0.0174,2025-06-09T13:41:17.745955
9189,-0.4309,0.6852,0.5978,-0.245,-2.765,0.035,0.00,0.0184,0.0000,0.0200,0.0087,2025-06-09T13:41:17.745955
9190,-0.4333,0.6871,0.5958,-0.420,-2.695,0.035,0.00,0.0368,0.0254,0.0200,0.0087,2025-06-09T13:41:17.901526
9191,-0.4319,0.6871,0.5954,0.175,-2.520,0.000,0.01,0.0184,0.0254,0.0300,0.0174,2025-06-09T13:41:17.901526
9192,-0.4329,0.6866,0.5958,0.385,-2.730,0.070,0.00,0.0184,0.0508,0.0300,0.0087,2025-06-09T13:41:17.901526
9193,-0.4353,0.6866,0.5949,-0.070,-2.765,0.175,0.00,0.0368,0.0508,0.0000,0.0174,2025-06-09T13:41:17.901526
9194,-0.4329,0.6876,0.5978,-0.210,-2.660,0.070,0.00,0.0184,0.0508,0.0401,0.0087,2025-06-09T13:41:17.901526
9195,-0.4324,0.6881,0.5983,0.070,-2.940,0.000,0.00,0.0184,0.0254,0.0200,0.0087,2025-06-09T13:41:17.901526
9196,-0.4324,0.6876,0.5949,-0.175,-2.835,0.000,0.00,0.0184,0.0254,0.0000,0.0174,2025-06-09T13:41:17.901526
9197,-0.4314,0.6856,0.5973,-0.245,-2.835,0.035,0.01,0.0368,0.0254,0.0200,0.0174,2025-06-09T13:41:17.901526
9198,-0.4329,0.6856,0.5954,-0.070,-2.940,0.105,0.01,0.0000,0.0254,0.0200,0.0087,2025-06-09T13:41:17.901526
9199,-0.4314,0.6871,0.5958,0.000,-2.555,0.070,0.00,0.0184,0.0254,0.0100,0.0087,2025-06-09T13:41:17.901526
9200,-0.4348,0.6866,0.5968,0.175,-2.765,0.210,0.00,0.0368,0.0000,0.0000,0.0087,2025-06-09T13:41:17.901526
9201,-0.4319,0.6852,0.5983,0.000,-2.905,0.175,0.00,0.0184,0.0508,0.0200,0.0174,2025-06-09T13:41:17.901526
9202,-0.4338,0.6866,0.5958,-0.140,-2.660,0.035,0.01,0.0368,0.1018,0.0300,0.0174,2025-06-09T13:41:18.009243
9203,-0.4329,0.6866,0.5963,0.070,-2.765,0.105,0.01,0.0552,0.0254,0.0000,0.0087,2025-06-09T13:41:18.009243
9204,-0.4314,0.6881,0.5968,0.175,-2.590,0.070,0.00,0.0368,0.0508,0.0200,0.0087,2025-06-09T13:41:18.009243
9205,-0.4363,0.6886,0.5983,0.035,-2.660,0.210,0.01,0.0184,0.0508,0.0100,0.0087,2025-06-09T13:41:18.009243
9206,-0.4333,0.6866,0.5944,-0.245,-2.835,0.035,0.00,0.0184,0.0254,0.0000,0.0087,2025-06-09T13:41:18.009243
9207,-0.4333,0.6852,0.5944,-0.175,-2.870,0.175,0.00,0.0368,0.0254,0.0100,0.0087,2025-06-09T13:41:18.123935
9208,-0.4324,0.6837,0.5968,0.315,-2.485,0.140,0.00,0.0552,0.0254,0.1008,0.0087,2025-06-09T13:41:18.123935
9209,-0.4338,0.6891,0.5939,0.420,-2.590,0.070,0.01,0.0184,0.0254,0.0100,0.0087,2025-06-09T13:41:18.123935
9210,-0.4304,0.6881,0.5963,0.035,-2.730,0.210,0.01,0.0368,0.0254,0.0100,0.0087,2025-06-09T13:41:18.123935
9211,-0.4338,0.6881,0.5988,-0.245,-2.555,0.105,0.01,0.0184,0.0508,0.0000,0.0087,2025-06-09T13:41:18.123935
9212,-0.4319,0.6866,0.5949,0.210,-2.765,0.175,0.01,0.0368,0.0254,0.0000,0.0087,2025-06-09T13:41:18.123935
9213,-0.4348,0.6886,0.5973,0.245,-2.590,0.035,0.00,0.0368,0.0254,0.0000,0.0174,2025-06-09T13:41:18.123935
9214,-0.4343,0.6871,0.5958,-0.070,-2.660,0.105,0.01,0.0552,0.1018,0.0300,0.0087,2025-06-09T13:41:18.123935
9215,-0.4333,0.6866,0.5973,-0.035,-2.695,0.105,0.00,0.0184,0.0254,0.0200,0.0174,2025-06-09T13:41:18.123935
9216,-0.4338,0.6856,0.5968,0.070,-2.660,0.140,0.00,0.0368,0.0508,0.0000,0.0087,2025-06-09T13:41:18.123935
9217,-0.4304,0.6861,0.5958,0.315,-2.520,0.140,0.00,0.0368,0.0762,0.0300,0.0174,2025-06-09T13:41:18.320405
9218,-0.4319,0.6876,0.5963,0.280,-2.590,0.140,0.01,0.0184,0.0762,0.0100,0.0000,2025-06-09T13:41:18.320405
