SeqNum,AccX,AccY,AccZ,GyroX,GyroY,GyroZ,Flex,Force1,Force2,Force3,Force4,TimestampReception
10977,-0.3084,0.1313,0.9809,51.765,14.700,17.325,0.00,0.0184,0.0254,0.0200,0.0174,2025-06-09T13:50:17.737257
10978,-0.3314,0.2059,0.9828,0.805,7.735,3.185,0.01,0.0368,0.0508,0.0100,0.0087,2025-06-09T13:50:17.737257
10979,-0.3235,0.1674,0.9496,-18.410,3.150,-10.500,0.01,0.0184,0.0254,0.0300,0.0174,2025-06-09T13:50:17.737257
10980,-0.2977,0.1810,0.9331,-20.615,6.405,-21.035,0.00,0.0184,0.0508,0.0200,0.0087,2025-06-09T13:50:17.737257
10981,-0.2904,0.2469,0.9248,-12.355,9.170,-23.450,0.00,0.0368,0.0508,0.0200,0.0174,2025-06-09T13:50:17.737257
10982,-0.2806,0.2952,0.8921,-12.145,0.245,-26.635,0.00,0.0184,0.0508,0.0100,0.0000,2025-06-09T13:50:17.737257
10983,-0.3094,0.3055,0.9087,-30.100,-11.130,-29.925,0.00,0.0368,0.0508,0.0100,0.0087,2025-06-09T13:50:17.738278
10984,-0.4104,0.3314,1.0087,-33.180,-15.680,-21.280,0.00,0.0184,0.0254,0.0000,0.0174,2025-06-09T13:50:17.738278
10985,-0.4368,0.2079,1.0614,-19.075,-4.830,-14.700,0.00,0.0184,0.0508,0.0300,0.0174,2025-06-09T13:50:17.791111
10986,-0.3362,0.1210,1.0917,-5.040,0.105,-11.725,0.00,0.0368,0.0254,0.0200,0.0087,2025-06-09T13:50:17.791111
10987,-0.2991,0.1186,0.9545,-4.165,1.050,-11.060,0.00,0.0368,0.0508,0.0200,0.0087,2025-06-09T13:50:17.791111
10988,-0.2801,0.1279,0.9052,-7.735,-0.665,-8.960,0.00,0.0552,0.1018,0.0200,0.0087,2025-06-09T13:50:17.791111
10989,-0.1220,0.0434,0.7676,-0.140,-23.100,0.245,0.00,0.0368,0.0508,0.0200,0.0174,2025-06-09T13:50:17.937720
10990,-0.1898,0.1322,0.9804,-1.050,-30.135,6.895,0.01,0.0184,0.0254,0.0100,0.0087,2025-06-09T13:50:17.937720
10991,-0.4948,0.0615,1.1390,20.895,-10.115,6.440,0.01,0.0368,0.0254,0.0200,0.0087,2025-06-09T13:50:17.937720
10992,-0.3045,0.1723,0.9819,11.270,-7.280,7.525,0.00,0.0368,0.0254,0.0200,0.0087,2025-06-09T13:50:17.937720
10993,-0.3670,0.1586,1.0033,0.630,-7.420,10.115,0.00,0.0184,0.0254,0.0200,0.0087,2025-06-09T13:50:17.937720
10994,-0.3294,0.1357,1.0126,10.080,3.535,9.800,0.01,0.0184,0.0000,0.0200,0.0174,2025-06-09T13:50:17.937720
10995,-0.3343,0.1464,0.9770,20.405,6.230,9.170,0.01,0.0368,0.0254,0.0100,0.0087,2025-06-09T13:50:17.937720
10996,-0.3328,0.1962,0.9970,13.790,7.140,8.785,0.00,0.0184,0.0508,0.0100,0.0087,2025-06-09T13:50:17.937720
10997,-0.3309,0.1454,0.9740,4.970,8.820,8.295,0.00,0.0368,0.0508,0.0200,0.0087,2025-06-09T13:50:17.937720
10998,-0.3494,0.1708,0.9872,8.785,9.870,11.655,0.00,0.0368,0.0254,0.0000,0.0087,2025-06-09T13:50:17.937720
10999,-0.3704,0.1347,1.0126,18.865,22.435,15.330,0.01,0.0184,0.0254,0.0200,0.0174,2025-06-09T13:50:17.937720
11000,-0.4036,0.0449,1.1156,27.615,35.000,21.700,0.01,0.0184,0.0508,0.0300,0.0087,2025-06-09T13:50:17.998556
11001,-0.5568,0.0063,1.3806,65.520,37.240,46.795,0.00,0.0368,0.0508,0.0200,0.0087,2025-06-09T13:50:17.998556
11002,-0.7115,-0.2011,1.7822,150.220,66.185,82.530,0.00,0.0368,0.0254,0.0100,0.0174,2025-06-09T13:50:17.998556
11003,-0.7100,-0.6700,2.2668,232.120,119.140,117.530,0.01,0.0184,0.0508,0.0100,0.0174,2025-06-09T13:50:17.998556
11004,-1.2790,-0.4939,3.9557,470.750,117.985,118.825,0.00,0.0184,0.0254,0.0300,0.0087,2025-06-09T13:50:18.143171
11005,-1.3903,0.7842,0.4924,357.875,-126.945,241.710,0.00,0.0184,0.0508,0.0200,0.0174,2025-06-09T13:50:18.143171
11006,-1.8110,-0.0800,2.4117,295.260,-348.355,227.535,0.01,0.0184,0.0254,0.0100,0.0087,2025-06-09T13:50:18.143171
11007,-1.6885,0.7305,1.4050,89.880,-728.770,252.910,0.01,0.0368,0.0508,0.0100,0.0174,2025-06-09T13:50:18.143171
11008,-1.1707,-0.1947,1.1258,-201.705,-884.170,62.195,0.00,0.0368,0.1273,0.0100,0.0087,2025-06-09T13:50:18.143171
11009,-0.7344,0.9721,-0.0981,-227.220,-890.680,-7.980,0.01,0.0368,0.0508,0.0100,0.0087,2025-06-09T13:50:18.143171
11010,2.6010,1.8490,-2.0496,657.300,-97.055,292.985,0.01,0.0000,0.0254,0.0100,0.0174,2025-06-09T13:50:18.143171
11011,0.8716,1.1746,-1.1478,80.010,-151.445,24.780,0.00,0.0368,0.0508,0.0200,0.0087,2025-06-09T13:50:18.143171
11012,1.0390,0.4860,-1.1658,134.750,-6.825,16.205,0.01,0.0184,0.0254,0.0100,0.0087,2025-06-09T13:50:18.143171
11013,0.7593,0.8677,-0.1630,60.095,59.115,-11.410,0.00,0.0368,0.0000,0.0000,0.0174,2025-06-09T13:50:18.143171
11014,0.9487,0.6041,-0.4221,66.080,74.200,32.340,0.00,0.0184,0.0254,0.0100,0.0087,2025-06-09T13:50:18.143171
11015,0.8076,0.6207,-0.1200,68.075,29.435,47.740,0.01,0.0368,0.0508,0.0200,0.0087,2025-06-09T13:50:18.244901
11016,0.7666,0.3762,-0.6934,-2.485,-10.255,39.620,0.01,0.0368,0.2301,0.0000,0.0174,2025-06-09T13:50:18.244901
11017,0.5983,0.0649,-0.6451,-197.715,6.860,13.160,0.00,0.0368,0.0508,0.0100,0.0087,2025-06-09T13:50:18.244901
11018,0.3250,0.4407,-0.6344,-411.985,103.775,-62.860,0.01,0.0184,0.0254,0.0200,0.0087,2025-06-09T13:50:18.244901
11019,0.4480,0.6500,-0.7745,-481.040,140.875,8.925,0.00,0.0184,0.0762,0.0300,0.0087,2025-06-09T13:50:18.244901
11020,0.3206,0.8296,-0.6110,-354.305,274.085,162.085,0.00,0.0184,0.0508,0.0100,0.0087,2025-06-09T13:50:18.244901
11021,0.0151,0.3640,-0.1757,9.100,380.625,259.525,0.00,0.0368,0.0508,0.0200,0.0174,2025-06-09T13:50:18.244901
11022,0.2123,-0.3035,0.3928,360.500,545.475,-34.790,0.00,0.0184,0.0254,0.0100,0.0087,2025-06-09T13:50:18.348619
11023,-0.6651,0.1620,1.2078,622.930,551.005,200.375,0.00,0.0368,0.0508,0.0200,0.0174,2025-06-09T13:50:18.348619
11024,-2.5561,1.2083,0.5871,819.245,140.245,30.520,0.01,0.0184,0.0508,0.0200,0.0087,2025-06-09T13:50:18.348619
11025,-3.3901,0.4485,12.5572,635.775,579.915,-172.795,0.01,0.0184,0.0254,0.0200,0.0087,2025-06-09T13:50:18.348619
11026,-1.5767,1.5860,0.7486,322.175,86.275,6.440,0.00,0.0184,0.0000,0.0200,0.0087,2025-06-09T13:50:18.348619
11027,-0.6988,1.2044,3.8664,-424.515,-160.440,153.825,0.00,0.0184,0.0508,0.0100,0.0000,2025-06-09T13:50:18.348619
11028,-2.1614,0.3704,1.9622,-357.735,-121.065,39.550,0.00,0.0368,0.0508,0.0200,0.0087,2025-06-09T13:50:18.348619
11029,-1.9671,0.5451,2.7655,-153.405,-438.095,-3.955,0.00,0.0184,0.0254,0.0100,0.0087,2025-06-09T13:50:18.348619
11030,-1.2034,1.1527,1.0917,-99.925,-547.330,95.970,0.00,0.0184,0.0254,0.0200,0.0087,2025-06-09T13:50:18.449374
11031,-0.4973,1.9520,0.2874,-276.080,-640.115,205.870,0.00,0.0368,0.0508,0.0300,0.0087,2025-06-09T13:50:18.449374
11032,0.0878,1.4235,-0.1645,-284.690,-654.325,-125.335,0.00,0.0184,0.0762,0.0200,0.0087,2025-06-09T13:50:18.449374
11033,0.3343,1.8539,-1.2424,-516.355,-590.415,-127.085,0.01,0.0184,0.0254,0.0100,0.0087,2025-06-09T13:50:18.449374
11034,0.5934,1.7417,-1.3196,81.445,-457.730,-62.370,0.00,0.0184,0.0254,0.0200,0.0087,2025-06-09T13:50:18.449374
11035,0.6281,1.4733,-2.6528,-16.905,-444.815,-35.875,0.01,0.0184,0.0254,0.0300,0.0087,2025-06-09T13:50:18.449374
11036,0.4865,1.0468,-3.0837,-248.500,-528.815,40.600,0.00,0.0184,0.0508,0.0200,0.0087,2025-06-09T13:50:18.449374
11037,0.7676,1.1590,-4.9918,-228.165,-53.305,139.300,0.00,0.0368,0.0508,0.0200,0.0087,2025-06-09T13:50:18.555067
11038,0.7559,0.5583,-3.4004,-273.875,336.105,221.620,0.01,0.0368,0.0508,0.0100,0.0087,2025-06-09T13:50:18.555067
11039,0.3640,0.4299,-2.5478,145.075,452.480,220.780,0.01,0.0368,0.0000,0.0100,0.0087,2025-06-09T13:50:18.555067
11040,-0.6930,0.3640,-2.0501,252.210,914.935,177.800,0.00,0.0368,0.0508,0.0100,0.0087,2025-06-09T13:50:18.555067
11041,-1.8237,-0.1137,-1.4879,418.005,909.895,-84.490,0.00,0.0368,0.0508,0.0200,0.0087,2025-06-09T13:50:18.555067
11042,-2.5171,0.6315,2.6889,961.485,894.005,-91.140,0.00,0.0184,0.0508,0.0100,0.0087,2025-06-09T13:50:18.555067
11043,-4.0480,1.4738,7.0028,1079.785,187.320,-223.020,0.01,0.0368,0.0508,0.0100,0.0087,2025-06-09T13:50:18.555067
11044,-1.5313,2.2189,7.6557,338.380,125.265,-112.910,0.01,0.0184,0.0254,0.0200,0.0087,2025-06-09T13:50:18.555067
11045,-1.2615,2.5752,5.9556,-437.465,56.770,-8.820,0.00,0.0184,0.0254,0.0200,0.0087,2025-06-09T13:50:18.660785
11046,-1.3313,1.7192,3.5146,-698.390,-93.205,-12.285,0.01,0.0368,0.0254,0.0200,0.0087,2025-06-09T13:50:18.660785
11047,-0.8896,1.5884,1.3942,-480.515,-425.110,-13.510,0.00,0.0184,0.0254,0.0200,0.0087,2025-06-09T13:50:18.660785
11048,-0.8599,1.0233,0.8111,-337.680,-514.290,42.385,0.00,0.0184,0.0508,0.0300,0.0087,2025-06-09T13:50:18.660785
11049,-0.5451,1.7470,0.2538,-253.225,-540.890,152.530,0.00,0.0184,0.0254,0.0200,0.0087,2025-06-09T13:50:18.660785
11050,0.4168,0.8423,-0.4680,-218.155,-428.750,-142.555,0.00,0.0368,0.0254,0.0200,0.0087,2025-06-09T13:50:18.660785
11051,0.5119,1.4786,-1.5962,-102.060,-328.055,-125.300,0.00,0.0184,0.0254,0.0100,0.0087,2025-06-09T13:50:18.660785
11052,1.0146,1.1448,-2.1091,-109.830,-221.515,-106.330,0.01,0.0184,0.0254,0.0200,0.0174,2025-06-09T13:50:18.768521
11053,1.2058,0.7105,-2.1262,-56.875,-43.470,-41.195,0.01,0.0368,0.0508,0.0200,0.0174,2025-06-09T13:50:18.768521
11054,0.9701,0.4987,-1.8988,41.160,130.025,22.155,0.01,0.0368,0.0254,0.0200,0.0174,2025-06-09T13:50:18.768521
11055,0.7603,0.5231,-1.4201,139.475,301.070,68.810,0.00,0.0184,0.0254,0.0200,0.0087,2025-06-09T13:50:18.768521
11056,0.2621,0.5724,-0.8867,164.955,384.055,98.175,0.00,0.0368,0.0762,0.0200,0.0087,2025-06-09T13:50:18.768521
11057,-0.0913,0.4919,-0.2865,168.490,430.045,87.675,0.00,0.0368,0.0254,0.0200,0.0174,2025-06-09T13:50:18.768521
11058,-0.3972,0.4290,0.0522,144.935,439.565,49.035,0.00,0.0000,0.0508,0.0100,0.0087,2025-06-09T13:50:18.768521
11059,-0.4592,0.0883,0.3928,95.655,422.520,-132.370,0.01,0.0000,0.0508,0.0100,0.0087,2025-06-09T13:50:18.768521
11060,-0.5139,0.3314,0.9853,213.815,363.405,-21.980,0.01,0.0184,0.0762,0.0200,0.0087,2025-06-09T13:50:18.859254
11061,-0.4904,0.2669,1.6348,152.775,76.755,-101.115,0.01,0.0184,0.0508,0.0200,0.0174,2025-06-09T13:50:18.859254
11062,-1.4459,0.5241,0.9682,-18.550,-69.160,-145.985,0.00,0.0184,0.0254,0.0200,0.0087,2025-06-09T13:50:18.859254
11063,-2.6611,0.5563,3.9738,-106.785,-117.950,36.750,0.01,0.0368,0.0000,0.0300,0.0174,2025-06-09T13:50:18.859254
11064,-0.1171,-0.1952,5.1650,-216.020,139.545,-140.560,0.00,0.0184,0.0254,0.0100,0.0087,2025-06-09T13:50:18.859254
11065,-0.1649,0.7857,1.5909,-163.695,-71.085,-20.545,0.00,0.0184,0.0508,0.0200,0.0174,2025-06-09T13:50:18.859254
11066,-0.1693,0.4358,1.5704,30.345,-33.075,27.685,0.00,0.0184,0.0254,0.0200,0.0087,2025-06-09T13:50:18.859254
11067,-0.2855,0.4499,1.5606,67.725,6.440,15.925,0.00,0.0184,0.0508,0.0100,0.0087,2025-06-09T13:50:18.965981
11068,-0.2523,0.4826,1.0780,20.125,28.910,13.720,0.00,0.0368,0.0254,0.0200,0.0087,2025-06-09T13:50:18.965981
11069,-0.1889,0.5451,0.9096,-35.735,-3.570,11.725,0.01,0.0184,0.0254,0.0200,0.0262,2025-06-09T13:50:18.965981
11070,-0.1191,0.6700,0.5558,-25.585,-13.965,13.895,0.00,0.0368,0.0000,0.0200,0.0174,2025-06-09T13:50:18.965981
11071,0.0234,0.7237,0.3279,4.410,-23.380,21.980,0.00,0.0184,0.1018,0.0200,0.0087,2025-06-09T13:50:18.965981
11072,0.1161,0.7071,0.0991,24.115,-22.540,16.275,0.00,0.0368,0.0508,0.0200,0.0087,2025-06-09T13:50:18.965981
11073,0.1957,0.6359,0.0874,22.295,-10.185,8.680,0.01,0.0368,0.0254,0.0200,0.0087,2025-06-09T13:50:18.965981
11074,0.2206,0.6188,0.1557,13.405,-1.680,5.530,0.01,0.0184,0.0254,0.0200,0.0087,2025-06-09T13:50:18.965981
11075,0.1659,0.5144,0.2479,10.605,23.345,12.320,0.00,0.0368,0.0762,0.0000,0.0174,2025-06-09T13:50:19.064707
11076,0.0800,0.4563,0.4475,29.435,60.550,13.195,0.01,0.0184,0.0508,0.0100,0.0087,2025-06-09T13:50:19.064707
11077,-0.0166,0.4436,0.7530,65.940,71.505,7.595,0.01,0.0368,0.0508,0.0100,0.0174,2025-06-09T13:50:19.064707
11078,-0.1327,0.4446,0.9701,88.760,60.410,0.315,0.01,0.0368,0.0508,0.0000,0.0174,2025-06-09T13:50:19.064707
11079,-0.1923,0.4612,1.2088,65.205,41.580,-1.400,0.01,0.0368,0.0508,0.0200,0.0087,2025-06-09T13:50:19.064707
11080,-0.2435,0.4685,1.3064,19.075,7.280,-6.160,0.00,0.0184,0.0508,0.0200,0.0087,2025-06-09T13:50:19.064707
11081,-0.2377,0.4616,1.3596,-30.835,-8.120,-8.120,0.00,0.0184,0.0254,0.0100,0.0087,2025-06-09T13:50:19.064707
11082,-0.2176,0.4734,1.2815,-43.295,-17.850,-7.560,0.00,0.0368,0.0762,0.0200,0.0087,2025-06-09T13:50:19.064707
11083,-0.1732,0.4953,1.0975,-28.105,-22.890,-6.895,0.01,0.0368,0.0508,0.0200,0.0174,2025-06-09T13:50:19.170421
11084,-0.1215,0.4978,0.9482,-15.540,-23.590,-5.775,0.00,0.0368,0.0762,0.0100,0.0174,2025-06-09T13:50:19.170421
11085,-0.0825,0.5090,0.8296,-11.725,-18.200,-3.500,0.00,0.0184,0.0508,0.0100,0.0087,2025-06-09T13:50:19.170421
11086,-0.0615,0.5207,0.7998,-5.495,-13.405,0.735,0.01,0.0184,0.0254,0.0300,0.0087,2025-06-09T13:50:19.170421
11087,-0.0605,0.5207,0.7935,7.875,-6.055,2.205,0.01,0.0000,0.0508,0.0200,0.0087,2025-06-09T13:50:19.170421
11088,-0.0678,0.5178,0.8150,16.905,-1.505,2.100,0.00,0.0184,0.0508,0.0200,0.0087,2025-06-09T13:50:19.170421
11089,-0.0688,0.5344,0.8350,18.235,-1.785,2.310,0.00,0.0184,0.0000,0.0000,0.0174,2025-06-09T13:50:19.170421
11090,-0.0747,0.5461,0.8438,11.305,-5.215,3.570,0.01,0.0184,0.0508,0.0200,0.0087,2025-06-09T13:50:19.269157
11091,-0.0708,0.5305,0.8262,1.190,-9.940,5.215,0.00,0.0368,0.0508,0.0200,0.0087,2025-06-09T13:50:19.269157
11092,-0.0659,0.5505,0.8247,-3.115,-8.925,1.225,0.00,0.0368,0.0000,0.0300,0.0087,2025-06-09T13:50:19.269157
11093,-0.0566,0.5768,0.8120,1.015,-12.215,-1.015,0.01,0.0184,0.0254,0.0200,0.0087,2025-06-09T13:50:19.269157
11094,-0.0508,0.5744,0.8111,6.195,-7.980,2.275,0.01,0.0552,0.0254,0.0200,0.0087,2025-06-09T13:50:19.269157
11095,-0.0517,0.5563,0.8101,8.960,-6.580,4.480,0.00,0.0184,0.0254,0.0300,0.0087,2025-06-09T13:50:19.269157
11096,-0.0639,0.5412,0.8169,10.220,-3.185,5.250,0.00,0.0000,0.0254,0.0100,0.0087,2025-06-09T13:50:19.269157
11097,-0.0791,0.5344,0.8316,10.325,2.730,2.625,0.00,0.0184,0.0254,0.0200,0.0087,2025-06-09T13:50:19.269157
11098,-0.0834,0.5295,0.8398,6.265,5.075,-0.315,0.01,0.0368,0.0000,0.0100,0.0087,2025-06-09T13:50:19.374874
11099,-0.0869,0.5388,0.8642,3.605,5.775,0.000,0.01,0.0368,0.0254,0.0200,0.0174,2025-06-09T13:50:19.374874
11100,-0.0874,0.5388,0.8877,4.095,4.095,-0.350,0.01,0.0368,0.0508,0.0200,0.0174,2025-06-09T13:50:19.374874
11101,-0.0859,0.5485,0.9150,5.180,1.890,0.805,0.01,0.0368,0.0000,0.0200,0.0087,2025-06-09T13:50:19.374874
11102,-0.0874,0.5466,0.8945,2.345,-1.365,-0.525,0.00,0.0368,0.0254,0.0100,0.0087,2025-06-09T13:50:19.374874
11103,-0.0825,0.5636,0.8911,-0.700,-5.635,0.420,0.00,0.0184,0.0254,0.0200,0.0087,2025-06-09T13:50:19.374874
11104,-0.0839,0.5563,0.8808,-0.560,-7.700,2.310,0.00,0.0184,0.0000,0.0100,0.0087,2025-06-09T13:50:19.374874
11105,-0.0810,0.5231,0.8545,-1.050,-6.160,1.295,0.00,0.0368,0.1273,0.0200,0.0174,2025-06-09T13:50:19.476603
11106,-0.0771,0.5295,0.8589,1.925,-3.745,2.240,0.00,0.0184,0.0508,0.0100,0.0174,2025-06-09T13:50:19.476603
11107,-0.0810,0.5329,0.8633,5.460,-1.260,3.325,0.01,0.0184,0.0508,0.0200,0.0087,2025-06-09T13:50:19.476603
11108,-0.0776,0.5212,0.8569,5.075,-0.105,2.030,0.00,0.0184,0.0254,0.0200,0.0087,2025-06-09T13:50:19.476603
11109,-0.0722,0.5383,0.8682,2.555,-1.225,1.575,0.00,0.0368,0.0508,0.0200,0.0174,2025-06-09T13:50:19.476603
11110,-0.0712,0.5339,0.8662,0.385,-1.085,1.435,0.00,0.0184,0.0254,0.0300,0.0087,2025-06-09T13:50:19.476603
11111,-0.0800,0.5231,0.8413,-1.050,-0.105,-0.175,0.00,0.0184,0.0508,0.0200,0.0174,2025-06-09T13:50:19.476603
11112,-0.0669,0.5280,0.8516,-0.175,-0.805,-1.365,0.01,0.0184,0.0508,0.0200,0.0087,2025-06-09T13:50:19.476603
11113,-0.0688,0.5441,0.8764,4.445,-1.540,1.050,0.00,0.0368,0.0254,0.0200,0.0087,2025-06-09T13:50:19.577333
11114,-0.0776,0.5246,0.8584,4.655,-0.840,0.455,0.01,0.0184,0.0508,0.0200,0.0174,2025-06-09T13:50:19.577333
11115,-0.0825,0.5300,0.8496,-0.385,0.595,-1.680,0.01,0.0368,0.0508,0.0100,0.0174,2025-06-09T13:50:19.577333
11116,-0.0761,0.5466,0.8491,-1.960,1.400,-1.715,0.01,0.0184,0.0254,0.0200,0.0174,2025-06-09T13:50:19.577333
11117,-0.0737,0.5500,0.8452,0.420,3.395,-0.560,0.00,0.0184,0.0254,0.0300,0.0174,2025-06-09T13:50:19.577333
11118,-0.0732,0.5480,0.8374,3.745,5.600,0.560,0.00,0.0368,0.0508,0.0200,0.0087,2025-06-09T13:50:19.577333
11119,-0.0756,0.5514,0.8316,4.340,8.365,1.610,0.00,0.0184,0.0000,0.0200,0.0000,2025-06-09T13:50:19.577333
11120,-0.0913,0.5563,0.8267,4.900,10.815,1.295,0.00,0.0368,0.0254,0.0200,0.0087,2025-06-09T13:50:19.577333
11121,-0.0854,0.5436,0.8496,6.020,11.060,1.295,0.01,0.0184,0.0508,0.0100,0.0087,2025-06-09T13:50:19.787794
11122,-0.0913,0.5363,0.8769,9.170,10.080,3.535,0.00,0.0184,0.0508,0.0200,0.0087,2025-06-09T13:50:19.787794
11123,-0.1010,0.5319,0.8843,10.745,9.310,3.570,0.00,0.0184,0.0508,0.0100,0.0174,2025-06-09T13:50:19.787794
11124,-0.1157,0.5270,0.8789,8.505,9.170,1.085,0.00,0.0368,0.0254,0.0200,0.0087,2025-06-09T13:50:19.787794
11125,-0.1059,0.5383,0.9062,9.170,6.720,2.065,0.01,0.0368,0.0254,0.0200,0.0087,2025-06-09T13:50:19.790791
11126,-0.0864,0.5436,0.9409,15.260,1.785,10.360,0.00,0.0184,0.0000,0.0200,0.0174,2025-06-09T13:50:19.790791
11127,-0.1484,0.7008,0.6939,26.565,8.470,8.470,0.00,0.0184,0.0508,0.0200,0.0087,2025-06-09T13:50:19.790791
11128,-0.0952,0.4646,0.6715,5.425,26.740,-0.070,0.00,0.0368,0.0254,0.0100,0.0000,2025-06-09T13:50:19.791760
11129,-0.1078,0.4563,0.7725,15.925,50.680,-11.060,0.00,0.0368,0.0254,0.0100,0.0174,2025-06-09T13:50:19.791760
11130,-0.1415,0.5685,0.8316,42.175,62.650,-8.575,0.00,0.0368,0.0508,0.0100,0.0087,2025-06-09T13:50:19.791760
11131,-0.1537,0.6168,1.0009,49.315,49.805,-4.480,0.00,0.0184,0.0254,0.0300,0.0087,2025-06-09T13:50:19.791760
11132,-0.1796,0.6002,1.0043,31.885,30.380,-2.380,0.01,0.0184,0.0254,0.0100,0.0087,2025-06-09T13:50:19.791760
11133,-0.1742,0.6188,0.9882,-1.855,6.090,-5.600,0.00,0.0184,0.0254,0.0200,0.0087,2025-06-09T13:50:19.791760
11134,-0.1606,0.6295,0.9448,-19.670,-17.605,-4.935,0.00,0.0184,0.0508,0.0200,0.0174,2025-06-09T13:50:19.791760
11135,-0.1610,0.5958,0.7588,-17.500,-16.870,-3.220,0.00,0.0184,0.0508,0.0200,0.0087,2025-06-09T13:50:19.791760
11136,-0.1513,0.5812,0.8135,-8.575,-15.050,-3.710,0.00,0.0368,0.0508,0.0300,0.0087,2025-06-09T13:50:19.903501
11137,-0.1303,0.5968,0.7691,-4.060,-11.375,-1.645,0.00,0.0000,0.0254,0.0200,0.0087,2025-06-09T13:50:19.903501
11138,-0.1283,0.5973,0.7505,-2.170,-7.665,1.050,0.01,0.0184,0.0508,0.0100,0.0174,2025-06-09T13:50:19.903501
11139,-0.1318,0.5963,0.7632,2.905,-0.070,2.520,0.00,0.0368,0.0254,0.0200,0.0174,2025-06-09T13:50:19.903501
11140,-0.1352,0.6007,0.7886,10.920,4.865,3.325,0.00,0.0368,0.0254,0.0200,0.0174,2025-06-09T13:50:19.903501
11141,-0.1376,0.6002,0.8208,12.285,4.865,5.250,0.00,0.0184,0.0508,0.0000,0.0087,2025-06-09T13:50:19.903501
11142,-0.1469,0.5812,0.8408,8.295,0.455,5.320,0.00,0.0184,0.0254,0.0200,0.0174,2025-06-09T13:50:19.903501
11143,-0.1542,0.5617,0.8584,1.400,-1.610,2.625,0.01,0.0184,0.0508,0.0000,0.0087,2025-06-09T13:50:19.963302
11144,-0.1469,0.5597,0.8418,-2.870,-3.430,-0.700,0.01,0.0368,0.0000,0.0200,0.0087,2025-06-09T13:50:19.963302
11145,-0.1401,0.5627,0.8169,-5.985,-4.095,-2.030,0.01,0.0368,0.0762,0.0200,0.0174,2025-06-09T13:50:19.963302
11146,-0.1313,0.5719,0.7989,-5.530,-2.765,-1.960,0.01,0.0368,0.0508,0.0200,0.0174,2025-06-09T13:50:19.963302
11147,-0.1308,0.5797,0.7871,-0.665,0.245,-1.015,0.01,0.0368,0.0508,0.0100,0.0174,2025-06-09T13:50:19.963302
11148,-0.1332,0.5793,0.7998,3.010,3.395,-0.630,0.01,0.0368,0.0508,0.0200,0.0174,2025-06-09T13:50:19.963302
11149,-0.1435,0.5793,0.8111,3.710,6.020,-0.595,0.00,0.0368,0.0508,0.0300,0.0087,2025-06-09T13:50:20.087966
11150,-0.1498,0.5846,0.8316,3.150,6.195,-0.700,0.01,0.0368,0.0254,0.0100,0.0087,2025-06-09T13:50:20.087966
11151,-0.1547,0.5856,0.8467,4.060,5.145,0.210,0.00,0.0368,0.0254,0.0300,0.0087,2025-06-09T13:50:20.087966
11152,-0.1576,0.5832,0.8496,3.500,2.345,0.700,0.00,0.0184,0.0762,0.0300,0.0087,2025-06-09T13:50:20.087966
11153,-0.1601,0.5797,0.8481,0.875,0.105,0.000,0.01,0.0368,0.0254,0.0100,0.0087,2025-06-09T13:50:20.087966
11154,-0.1581,0.5851,0.8418,-1.785,-2.485,-0.420,0.00,0.0184,0.0508,0.0200,0.0174,2025-06-09T13:50:20.087966
11155,-0.1532,0.5851,0.8301,-3.220,-3.185,-0.840,0.01,0.0368,0.0254,0.0200,0.0174,2025-06-09T13:50:20.087966
11156,-0.1503,0.5827,0.8076,-3.675,-2.800,-1.365,0.00,0.0184,0.0254,0.0200,0.0087,2025-06-09T13:50:20.087966
11157,-0.1464,0.5841,0.8008,-3.535,-0.420,-1.470,0.00,0.0184,0.0254,0.0200,0.0087,2025-06-09T13:50:20.087966
11158,-0.1435,0.5836,0.7906,-1.855,1.890,-1.505,0.00,0.0184,0.0508,0.0100,0.0087,2025-06-09T13:50:20.087966
11159,-0.1464,0.5817,0.7959,-0.140,3.850,-1.470,0.01,0.0368,0.0000,0.0100,0.0174,2025-06-09T13:50:20.193685
11160,-0.1493,0.5822,0.8013,0.455,5.390,-1.750,0.01,0.0184,0.0254,0.0000,0.0087,2025-06-09T13:50:20.193685
11161,-0.1552,0.5729,0.8052,-0.070,6.930,-2.205,0.01,0.0368,0.0508,0.0000,0.0087,2025-06-09T13:50:20.193685
11162,-0.1571,0.5719,0.8237,1.575,7.630,-1.365,0.00,0.0184,0.1018,0.0804,0.0174,2025-06-09T13:50:20.193685
11163,-0.1684,0.5783,0.8403,4.480,7.560,-0.315,0.00,0.0184,0.0508,0.0100,0.0087,2025-06-09T13:50:20.193685
11164,-0.1703,0.5836,0.8530,4.585,6.545,-0.280,0.00,0.0184,0.0254,0.0100,0.0087,2025-06-09T13:50:20.193685
11165,-0.1703,0.5905,0.8447,2.240,2.345,-0.315,0.00,0.0184,0.0254,0.0100,0.0087,2025-06-09T13:50:20.193685
11166,-0.1679,0.5832,0.8286,-3.395,-0.770,-0.210,0.00,0.0184,0.0762,0.0200,0.0087,2025-06-09T13:50:20.293420
11167,-0.1688,0.5744,0.8154,-4.830,-0.945,-0.210,0.00,0.0368,0.0254,0.0200,0.0087,2025-06-09T13:50:20.293420
11168,-0.1688,0.5729,0.8111,-1.050,1.715,0.035,0.01,0.0368,0.0508,0.0200,0.0087,2025-06-09T13:50:20.293420
11169,-0.1688,0.5739,0.8018,2.170,5.775,-0.490,0.00,0.0184,0.0254,0.0300,0.0087,2025-06-09T13:50:20.293420
11170,-0.1718,0.5797,0.7989,2.975,8.470,-0.525,0.00,0.0000,0.0254,0.0200,0.0087,2025-06-09T13:50:20.293420
11171,-0.1747,0.5929,0.8101,3.850,10.465,-0.525,0.00,0.0368,0.0508,0.0200,0.0174,2025-06-09T13:50:20.293420
11172,-0.1752,0.5954,0.8262,5.425,11.515,-0.630,0.00,0.0184,0.0508,0.0200,0.0087,2025-06-09T13:50:20.293420
11173,-0.1786,0.5861,0.8276,6.055,10.290,-0.945,0.01,0.0184,0.0508,0.0100,0.0087,2025-06-09T13:50:20.293420
11174,-0.1889,0.5763,0.8311,3.990,7.875,-1.155,0.01,0.0184,0.0508,0.0300,0.0087,2025-06-09T13:50:20.395146
11175,-0.1835,0.5739,0.8320,0.525,5.355,-1.050,0.01,0.0184,0.0254,0.0200,0.0087,2025-06-09T13:50:20.395146
11176,-0.1757,0.5734,0.8272,-0.770,3.605,-1.575,0.00,0.0184,0.0508,0.0200,0.0087,2025-06-09T13:50:20.395146
11177,-0.1771,0.5749,0.8135,-1.190,1.785,-1.785,0.01,0.0368,0.0254,0.0200,0.0087,2025-06-09T13:50:20.556713
11178,-0.1742,0.5763,0.7993,-1.750,0.805,-1.540,0.01,0.0368,0.0254,0.0100,0.0087,2025-06-09T13:50:20.556713
11179,-0.1742,0.5817,0.7876,-1.330,0.700,-0.945,0.00,0.0184,0.0508,0.0200,0.0087,2025-06-09T13:50:20.556713
11180,-0.1781,0.5861,0.7945,1.015,1.225,-0.105,0.00,0.0184,0.0254,0.0200,0.0000,2025-06-09T13:50:20.556713
11181,-0.1801,0.5851,0.8003,3.395,1.960,0.665,0.01,0.0184,0.0508,0.0501,0.0174,2025-06-09T13:50:20.556713
11182,-0.1840,0.5880,0.8028,4.760,2.380,0.630,0.00,0.0368,0.0508,0.0300,0.0087,2025-06-09T13:50:20.556713
11183,-0.1908,0.5836,0.8115,3.430,2.100,0.070,0.01,0.0737,0.0000,0.0100,0.0087,2025-06-09T13:50:20.556713
11184,-0.1942,0.5807,0.8198,1.505,1.575,-0.420,0.00,0.0184,0.1273,0.0300,0.0087,2025-06-09T13:50:20.556713
11185,-0.1976,0.5856,0.8247,1.015,1.050,-0.770,0.00,0.0000,0.0000,0.0200,0.0087,2025-06-09T13:50:20.556713
11186,-0.1976,0.5929,0.8218,0.910,0.490,-0.735,0.00,0.0184,0.0000,0.0200,0.0000,2025-06-09T13:50:20.556713
11187,-0.1967,0.5880,0.8413,2.415,-0.805,1.085,0.00,0.0184,0.0254,0.0200,0.0174,2025-06-09T13:50:20.556713
11188,-0.2020,0.6105,0.9877,20.650,-7.735,17.465,0.00,0.0184,0.0508,0.0300,0.0087,2025-06-09T13:50:20.556713
11189,-0.2211,0.6012,1.2146,65.800,-30.695,49.525,0.01,0.0368,0.0508,0.0200,0.0087,2025-06-09T13:50:20.556713
11190,-0.4548,0.5968,1.4699,105.175,-56.910,88.375,0.00,0.0184,0.0254,0.0300,0.0087,2025-06-09T13:50:20.600597
11191,-0.6539,0.6261,1.7588,120.435,-98.910,126.420,0.01,0.0368,0.0508,0.0100,0.0087,2025-06-09T13:50:20.600597
11192,-1.1702,0.6388,1.9696,88.935,-122.465,214.585,0.01,0.0368,0.0508,0.0200,0.0087,2025-06-09T13:50:20.600597
11193,-1.6660,0.0102,5.2836,34.090,-385.245,220.255,0.01,0.0184,0.0254,0.0200,0.0087,2025-06-09T13:50:20.600597
11194,-1.2649,0.3855,0.1508,-75.075,-507.290,130.060,0.00,0.0184,0.0508,0.0300,0.0174,2025-06-09T13:50:20.600597
11195,-0.1615,0.8457,0.5256,-482.895,-495.320,60.585,0.01,0.0184,0.0508,0.0200,0.0087,2025-06-09T13:50:20.600597
11196,-0.0551,1.0072,-1.0736,-331.100,-693.315,10.290,0.00,0.0368,0.0000,0.0200,0.0000,2025-06-09T13:50:20.600597
11197,0.0371,1.5045,0.4797,-261.905,-659.995,-131.075,0.01,0.0184,0.0508,0.0200,0.0087,2025-06-09T13:50:20.805051
11198,0.9101,2.0496,-0.2362,-203.070,-587.790,-85.575,0.00,0.0000,0.0254,0.0200,0.0087,2025-06-09T13:50:20.805051
11199,1.0873,0.4046,-0.0366,-5.320,-393.715,-11.585,0.01,0.0184,0.0508,0.0200,0.0087,2025-06-09T13:50:20.805051
11200,0.8072,1.3464,-0.3523,-164.885,-229.880,-73.955,0.00,0.0184,0.0508,0.0200,0.0087,2025-06-09T13:50:20.805051
11201,0.7125,0.8428,-1.2790,-242.865,-245.245,10.010,0.00,0.0184,0.0254,0.0200,0.0087,2025-06-09T13:50:20.805051
11202,0.8106,0.7437,-0.7618,-141.995,-129.395,37.660,0.00,0.0184,0.0508,0.0100,0.0087,2025-06-09T13:50:20.805051
11203,1.0248,0.6544,-1.0199,-149.485,3.115,67.900,0.01,0.0368,0.0254,0.0300,0.0087,2025-06-09T13:50:20.805051
11204,1.1039,0.6022,-1.1805,-25.025,123.200,107.730,0.00,0.0184,0.0254,0.0200,0.0087,2025-06-09T13:50:20.805051
11205,0.9897,0.6320,-1.0853,6.825,301.315,145.040,0.00,0.0368,0.0254,0.0200,0.0087,2025-06-09T13:50:20.805051
11206,0.6476,0.5378,-0.8745,60.830,455.595,149.345,0.00,0.0184,0.0254,0.0200,0.0087,2025-06-09T13:50:20.805051
11207,0.1854,0.4465,-0.7618,168.665,566.335,152.250,0.01,0.0184,0.0508,0.0200,0.0087,2025-06-09T13:50:20.805051
11208,-0.4890,0.3152,-0.5446,277.550,634.095,147.700,0.00,0.0184,0.0508,0.0200,0.0087,2025-06-09T13:50:20.805051
11209,-0.9170,-0.4577,0.0468,408.275,697.725,-46.305,0.00,0.0368,0.0508,0.0200,0.0087,2025-06-09T13:50:20.805051
11210,-1.1078,0.8316,1.0897,649.250,622.370,76.895,0.00,0.0184,0.0254,0.0200,0.0174,2025-06-09T13:50:20.805051
11211,-1.8363,0.8603,1.9530,653.380,267.995,12.110,0.00,0.0184,0.0508,0.0100,0.0087,2025-06-09T13:50:20.805051
11212,-1.6719,0.7891,5.8687,854.840,596.330,28.175,0.01,0.0184,0.0508,0.0200,0.0087,2025-06-09T13:50:20.914756
11213,-1.4533,1.3474,9.1158,165.830,110.250,-63.105,0.01,0.0184,0.0254,0.0300,0.0087,2025-06-09T13:50:20.914756
11214,-1.3586,1.6499,3.2520,-52.115,91.035,-42.945,0.01,0.0184,0.0254,0.0100,0.0174,2025-06-09T13:50:20.914756
11215,-1.3303,1.7788,2.9182,-434.385,-253.575,77.175,0.01,0.0368,0.0508,0.0200,0.0174,2025-06-09T13:50:20.914756
11216,-1.9993,1.3444,2.1672,-356.230,-647.430,133.455,0.00,0.0368,0.0508,0.0100,0.0087,2025-06-09T13:50:20.914756
11217,-1.5406,2.2038,0.8115,-234.535,-770.245,62.475,0.00,0.0184,0.0508,0.0300,0.0087,2025-06-09T13:50:20.914756
11218,-0.5075,1.7548,0.6232,-354.515,-760.235,-141.400,0.00,0.0184,0.0254,0.0200,0.0174,2025-06-09T13:50:20.914756
11219,0.3055,2.0081,-0.7052,-232.505,-717.395,-159.005,0.00,0.0368,0.0254,0.0300,0.0087,2025-06-09T13:50:20.914756
11220,2.6918,0.9980,-4.5267,198.275,-310.905,46.165,0.00,0.0184,0.0508,0.0100,0.0087,2025-06-09T13:50:21.009505
11221,0.2821,1.7773,-1.7963,100.310,-533.435,-68.460,0.01,0.0368,0.0254,0.0200,0.0087,2025-06-09T13:50:21.009505
11222,0.1674,0.6446,-2.1506,-119.070,-438.690,23.625,0.00,0.0184,0.0000,0.0200,0.0087,2025-06-09T13:50:21.009505
11223,0.4987,0.2855,-2.7645,-383.215,-330.890,25.375,0.01,0.0368,0.0254,0.0200,0.0087,2025-06-09T13:50:21.009505
11224,0.3152,0.3465,-2.9563,-395.220,-272.685,83.895,0.00,0.0184,0.0254,0.0100,0.0087,2025-06-09T13:50:21.009505
11225,0.2869,1.8549,-2.2536,-428.855,368.130,106.960,0.01,0.0368,0.0254,0.0200,0.0087,2025-06-09T13:50:21.009505
11226,-0.0986,0.8423,-1.5704,-363.755,507.640,182.910,0.00,0.0184,0.0254,0.0200,0.0087,2025-06-09T13:50:21.009505
11227,0.1635,0.5031,-3.0656,-61.495,684.110,237.720,0.01,0.0368,0.0254,0.0200,0.0174,2025-06-09T13:50:21.112226
11228,-0.9682,0.1547,-1.2200,118.685,853.475,348.915,0.01,0.0184,0.1529,0.0200,0.0087,2025-06-09T13:50:21.112226
11229,-0.5690,-0.0547,-1.3537,395.255,747.810,185.570,0.01,0.0368,0.0508,0.0300,0.0087,2025-06-09T13:50:21.112226
11230,-4.0865,1.4181,0.5378,1124.830,455.525,-270.760,0.01,0.0368,0.0508,0.0200,0.0087,2025-06-09T13:50:21.112226
11231,-5.5256,0.5251,8.4273,904.925,202.930,-350.490,0.00,0.0000,0.0254,0.0200,0.0174,2025-06-09T13:50:21.112226
11232,1.3849,2.0774,11.8003,105.210,-6.230,-204.505,0.00,0.0368,0.0000,0.0401,0.0174,2025-06-09T13:50:21.112226
11233,0.5954,1.3098,4.6077,-617.890,48.790,150.080,0.00,0.0184,0.0000,0.0401,0.0087,2025-06-09T13:50:21.112226
11234,-0.8486,1.5474,4.6672,-389.865,-224.315,298.865,0.00,0.0184,0.0254,0.0100,0.0087,2025-06-09T13:50:21.165086
11235,-0.7588,1.2254,3.6141,61.005,-184.135,130.760,0.01,0.0368,0.0254,0.0200,0.0087,2025-06-09T13:50:21.165086
11236,-2.3507,1.1395,1.7871,348.670,-197.540,113.330,0.00,0.0368,0.0508,0.0300,0.0174,2025-06-09T13:50:21.165086
11237,-2.8572,3.6053,0.3972,8.680,-704.130,389.900,0.00,0.0184,0.0508,0.0200,0.0087,2025-06-09T13:50:21.165086
11238,-0.6261,2.0642,-0.8281,-277.235,-807.415,16.835,0.00,0.0368,0.0254,0.0200,0.0087,2025-06-09T13:50:21.316705
11239,0.0156,0.5900,-2.6962,-243.460,-667.170,60.725,0.01,0.0368,0.0254,0.0200,0.0087,2025-06-09T13:50:21.316705
11240,-0.1142,1.4181,-2.4307,17.430,-562.975,-55.265,0.01,0.0184,0.0254,0.0100,0.0087,2025-06-09T13:50:21.316705
11241,0.0185,1.3196,-3.7869,-139.370,-515.935,-5.285,0.01,0.0368,0.0254,0.0300,0.0174,2025-06-09T13:50:21.316705
11242,0.1893,0.0112,-4.3491,-206.360,-430.605,128.240,0.01,0.0368,0.0508,0.0000,0.0087,2025-06-09T13:50:21.316705
11243,0.8233,-0.5334,-3.9762,-174.265,-127.050,118.230,0.00,0.0184,0.0508,0.0100,0.0087,2025-06-09T13:50:21.316705
11244,0.7335,-0.2557,-3.3628,-173.040,437.815,34.195,0.01,0.0368,0.0254,0.0200,0.0087,2025-06-09T13:50:21.316705
11245,0.6168,0.3694,-2.5030,-200.340,770.980,25.515,0.00,0.0000,0.0254,0.0200,0.0087,2025-06-09T13:50:21.316705
11246,-0.4641,0.8520,-1.5953,-135.940,863.625,95.375,0.00,0.0184,0.0254,0.0200,0.0087,2025-06-09T13:50:21.316705
11247,-1.0224,0.8247,-0.8667,85.085,890.540,130.445,0.00,0.0184,0.0000,0.0300,0.0087,2025-06-09T13:50:21.316705
11248,-1.6719,0.5114,-0.4080,318.045,890.575,113.750,0.00,0.0368,0.0508,0.0200,0.0087,2025-06-09T13:50:21.316705
11249,-2.1052,-0.1049,0.3567,604.730,794.570,-128.450,0.01,0.0368,0.0254,0.0100,0.0087,2025-06-09T13:50:21.419407
11250,-2.3439,0.9955,1.6948,673.680,171.255,-228.060,0.01,0.0184,0.0254,0.0100,0.0087,2025-06-09T13:50:21.419407
11251,-2.7923,1.3337,2.9202,14.315,-22.015,-274.400,0.01,0.0184,0.0508,0.0200,0.0087,2025-06-09T13:50:21.419407
11252,0.7691,0.5573,9.0963,-599.795,-266.315,-96.075,0.00,0.0184,0.0254,0.0100,0.0087,2025-06-09T13:50:21.419407
11253,0.5231,0.4646,2.5337,-645.365,-99.050,-153.895,0.00,0.0184,0.0254,0.0200,0.0087,2025-06-09T13:50:21.419407
11254,-0.3314,0.5836,2.1350,-293.860,-153.125,-3.010,0.00,0.0368,0.0254,0.0100,0.0087,2025-06-09T13:50:21.419407
11255,-0.1425,0.0181,1.0038,94.955,53.515,2.345,0.00,0.0184,0.0254,0.0200,0.0087,2025-06-09T13:50:21.419407
11256,-0.1889,0.4968,1.4001,181.440,122.710,-8.960,0.00,0.0368,0.0254,0.0200,0.0087,2025-06-09T13:50:21.419407
11257,-0.1737,0.6471,1.1941,94.955,154.280,5.110,0.00,0.0184,0.0508,0.0200,0.0087,2025-06-09T13:50:21.522129
11258,-0.2025,0.7784,0.7359,-27.790,85.575,10.675,0.01,0.0184,0.0254,0.0200,0.0087,2025-06-09T13:50:21.522129
11259,-0.0303,0.7540,0.6427,-49.175,20.510,6.125,0.01,0.0184,0.0254,0.0200,0.0174,2025-06-09T13:50:21.522129
11260,-0.0390,0.8237,0.3792,-7.945,8.610,-3.640,0.01,0.0184,0.0000,0.0200,0.0174,2025-06-09T13:50:21.522129
11261,0.0259,0.8550,0.1166,26.600,44.765,-26.530,0.00,0.0184,0.0508,0.0200,0.0087,2025-06-09T13:50:21.522129
11262,0.1274,0.8359,-0.0054,44.660,75.320,-42.175,0.00,0.0368,0.0254,0.0200,0.0087,2025-06-09T13:50:21.522129
11263,0.2582,0.6500,0.1410,36.575,64.330,-54.005,0.00,0.0368,0.0508,0.0200,0.0087,2025-06-09T13:50:21.522129
11264,0.1786,0.5866,0.2582,14.315,4.375,-42.210,0.00,0.0368,0.0508,0.0100,0.0087,2025-06-09T13:50:21.633838
11265,0.1815,0.5300,0.0791,-66.465,40.215,6.965,0.01,0.0184,0.0508,0.0200,0.0087,2025-06-09T13:50:21.633838
11266,0.0986,0.2469,0.4934,-4.200,28.280,31.465,0.01,0.0184,0.0508,0.0200,0.0174,2025-06-09T13:50:21.633838
11267,-0.1269,0.1781,0.5919,57.680,34.475,19.215,0.01,0.0368,0.0508,0.0200,0.0087,2025-06-09T13:50:21.633838
11268,-0.2425,0.2621,0.7584,79.310,48.265,-2.835,0.01,0.0368,0.0000,0.0300,0.0087,2025-06-09T13:50:21.633838
11269,-0.3133,0.3889,1.0399,45.955,26.285,-8.260,0.01,0.0368,0.0508,0.0000,0.0087,2025-06-09T13:50:21.633838
11270,-0.0576,0.5739,1.0175,-38.675,-47.495,-4.830,0.00,0.0184,0.1018,0.0100,0.0174,2025-06-09T13:50:21.633838
11271,-1.0336,0.4060,2.9866,-105.490,-36.750,-60.200,0.00,0.0184,0.0254,0.0100,0.0087,2025-06-09T13:50:21.633838
11272,-0.3738,0.3928,1.3986,-59.570,138.670,-55.265,0.01,0.0368,0.0254,0.0300,0.0174,2025-06-09T13:50:21.736581
11273,-0.1078,0.5729,1.5060,-60.060,48.545,-43.960,0.01,0.0184,0.0254,0.0200,0.0087,2025-06-09T13:50:21.737554
11274,-0.1449,0.5144,0.8774,9.870,14.280,-42.980,0.01,0.0184,0.0762,0.0100,0.0087,2025-06-09T13:50:21.737554
11275,-0.2064,0.7413,0.9267,9.870,30.415,-31.780,0.01,0.0184,0.0762,0.0200,0.0174,2025-06-09T13:50:21.737554
11276,-0.2284,0.6120,0.6071,-24.920,16.870,-18.410,0.01,0.0368,0.0254,0.0100,0.0087,2025-06-09T13:50:21.737554
11277,-0.1601,0.5915,0.6368,-40.215,-9.660,-18.130,0.00,0.0184,0.0000,0.0200,0.0087,2025-06-09T13:50:21.737554
11278,-0.2006,0.5436,0.7388,-22.470,4.305,-11.865,0.00,0.0184,0.0254,0.0200,0.0087,2025-06-09T13:50:21.737554
11279,-0.1908,0.4407,0.8316,12.950,17.710,-12.460,0.01,0.0184,0.0000,0.0100,0.0087,2025-06-09T13:50:21.737554
11280,-0.2108,0.4626,0.9984,26.810,17.570,-9.135,0.01,0.0368,0.0000,0.0804,0.0087,2025-06-09T13:50:21.862222
11281,-0.2269,0.4768,1.0024,9.905,5.880,-5.040,0.00,0.0184,0.0762,0.0200,0.0087,2025-06-09T13:50:21.862222
11282,-0.2284,0.4758,0.8130,-10.080,-7.140,-0.350,0.01,0.0184,0.0508,0.0300,0.0087,2025-06-09T13:50:21.862222
11283,-0.2191,0.4060,0.8701,-21.105,-12.915,0.455,0.00,0.0368,0.0508,0.0300,0.0174,2025-06-09T13:50:21.862222
11284,-0.2191,0.4031,0.9150,-0.630,-0.210,-0.630,0.00,0.0368,0.0508,0.0200,0.0087,2025-06-09T13:50:21.862222
11285,-0.2196,0.4348,0.8769,17.185,10.885,-1.085,0.00,0.0184,0.0508,0.0200,0.0174,2025-06-09T13:50:21.862222
11286,-0.2230,0.4612,0.8721,14.035,5.950,0.245,0.00,0.0184,0.0254,0.0200,0.0087,2025-06-09T13:50:21.862222
11287,-0.2274,0.4714,0.9194,-0.840,-0.385,1.540,0.01,0.0368,0.0254,0.0200,0.0087,2025-06-09T13:50:22.033761
11288,-0.2186,0.4470,0.8828,-7.280,-4.760,3.640,0.00,0.0184,0.0508,0.0200,0.0087,2025-06-09T13:50:22.033761
11289,-0.2211,0.4446,0.8828,-2.835,-1.960,2.660,0.00,0.0368,0.0254,0.0300,0.0087,2025-06-09T13:50:22.033761
11290,-0.1732,0.3948,0.8408,3.045,2.030,-9.660,0.00,0.0184,0.0508,0.0000,0.0174,2025-06-09T13:50:22.033761
11291,-0.2396,0.4656,0.8965,-3.185,5.355,-16.100,0.00,0.0184,0.0254,0.0401,0.0174,2025-06-09T13:50:22.033761
11292,-0.2338,0.4602,0.8164,-15.295,4.690,-18.550,0.01,0.0368,0.0254,0.0200,0.0087,2025-06-09T13:50:22.033761
11293,-0.2133,0.4602,0.9321,-18.865,-2.240,-18.200,0.00,0.0368,0.0508,0.0200,0.0087,2025-06-09T13:50:22.033761
11294,-0.2704,0.4909,0.8945,-8.575,0.315,-13.230,0.00,0.0368,0.0508,0.0200,0.0087,2025-06-09T13:50:22.033761
11295,-0.2186,0.4324,0.8740,-2.100,-0.210,-7.385,0.00,0.0184,0.0508,0.0100,0.0087,2025-06-09T13:50:22.033761
11296,-0.2601,0.4519,0.8974,0.175,-3.395,-7.315,0.01,0.0184,0.0254,0.0100,0.0087,2025-06-09T13:50:22.033761
11297,-0.2440,0.4382,0.8852,-5.635,-0.910,-9.380,0.00,0.0184,0.0508,0.0200,0.0087,2025-06-09T13:50:22.033761
11298,-0.2264,0.3548,0.8921,-12.005,-0.875,-12.285,0.00,0.0184,0.0762,0.0100,0.0087,2025-06-09T13:50:22.033761
11299,-0.2518,0.3562,0.8989,-16.415,0.490,-10.605,0.00,0.0184,0.0254,0.0100,0.0087,2025-06-09T13:50:22.033761
11300,-0.1635,0.2118,0.8823,-24.990,4.690,-21.105,0.01,0.0184,0.0254,0.0200,0.0087,2025-06-09T13:50:22.033761
11301,-0.1405,0.3133,0.8398,-19.460,5.425,-24.150,0.00,0.0184,0.0508,0.0200,0.0087,2025-06-09T13:50:22.033761
11302,-0.1942,0.3553,0.9087,-14.805,5.915,-30.450,0.00,0.0368,0.0000,0.0100,0.0174,2025-06-09T13:50:22.136486
11303,-0.1845,0.3274,0.8106,-17.255,5.845,-41.300,0.01,0.0368,0.1018,0.0300,0.0087,2025-06-09T13:50:22.136486
11304,-0.2445,0.4436,0.9331,-13.580,10.010,-40.600,0.00,0.0368,0.0508,0.0300,0.0174,2025-06-09T13:50:22.136486
11305,-0.2889,0.4841,0.8691,-10.990,-3.325,-32.235,0.01,0.0184,0.0762,0.0100,0.0174,2025-06-09T13:50:22.136486
11306,-0.2972,0.4738,0.8891,-8.470,-8.820,-25.095,0.01,0.0184,0.0254,0.0200,0.0087,2025-06-09T13:50:22.136486
11307,-0.3050,0.4987,0.9072,-3.640,-1.645,-15.890,0.00,0.0184,0.0508,0.0200,0.0087,2025-06-09T13:50:22.136486
11308,-0.3714,0.4333,0.9013,2.520,-0.665,-6.020,0.01,0.0184,0.0508,0.0200,0.0087,2025-06-09T13:50:22.136486
11309,-0.3592,0.4753,1.0380,7.350,3.885,-12.075,0.00,0.0184,0.0254,0.0100,0.0087,2025-06-09T13:50:22.136486
11310,-0.3226,0.4807,0.9965,-11.655,3.920,-10.010,0.00,0.0184,0.0254,0.0200,0.0087,2025-06-09T13:50:22.239213
11311,-0.3182,0.4499,0.8804,-24.815,-3.185,-8.575,0.00,0.0184,0.0508,0.0100,0.0174,2025-06-09T13:50:22.239213
11312,-0.2762,0.4329,0.8325,-12.075,-4.795,-2.065,0.01,0.0368,0.0508,0.0100,0.0087,2025-06-09T13:50:22.239213
11313,-0.2338,0.3484,0.9043,5.985,-2.870,1.400,0.01,0.0368,0.0254,0.0200,0.0087,2025-06-09T13:50:22.239213
11314,-0.2645,0.3567,0.9101,15.155,0.490,0.875,0.00,0.0184,0.0508,0.0300,0.0174,2025-06-09T13:50:22.239213
11315,-0.3070,0.3914,0.8945,4.235,-0.770,-0.175,0.01,0.0368,0.0254,0.0200,0.0174,2025-06-09T13:50:22.239213
11316,-0.3060,0.4324,0.9106,-2.940,-1.715,-0.385,0.01,0.0184,0.0000,0.0100,0.0087,2025-06-09T13:50:22.239213
11317,-0.2806,0.4163,0.9335,-2.870,-3.710,-0.770,0.00,0.0368,0.0254,0.0200,0.0087,2025-06-09T13:50:22.239213
11318,-0.2835,0.3865,0.8872,-1.750,-3.710,-0.350,0.01,0.0368,0.0508,0.0100,0.0174,2025-06-09T13:50:22.341938
11319,-0.2786,0.3738,0.8843,-3.220,-3.430,-0.735,0.00,0.0184,0.0508,0.0200,0.0087,2025-06-09T13:50:22.341938
11320,-0.2743,0.3811,0.9008,-0.175,-1.820,-0.070,0.01,0.0368,0.0254,0.0100,0.0174,2025-06-09T13:50:22.341938
11321,-0.2855,0.3987,0.9140,5.530,-0.280,0.735,0.01,0.0368,0.0254,0.0501,0.0087,2025-06-09T13:50:22.341938
11322,-0.2913,0.4080,0.9033,5.180,-1.015,0.805,0.00,0.0184,0.0254,0.0300,0.0087,2025-06-09T13:50:22.341938
11323,-0.2879,0.3982,0.8999,-1.750,-3.220,-0.210,0.00,0.0368,0.0000,0.0100,0.0087,2025-06-09T13:50:22.341938
11324,-0.2830,0.3938,0.8984,-5.355,-3.955,-0.735,0.00,0.0184,0.0508,0.0200,0.0087,2025-06-09T13:50:22.341938
11325,-0.2826,0.3889,0.9028,-0.875,-2.590,-0.350,0.00,0.0368,0.0254,0.0200,0.0087,2025-06-09T13:50:22.446681
11326,-0.2840,0.3904,0.9018,3.675,-1.330,0.525,0.00,0.0184,0.0254,0.0000,0.0087,2025-06-09T13:50:22.446681
11327,-0.2860,0.3904,0.9028,2.835,-1.575,0.455,0.00,0.0184,0.0254,0.0200,0.0087,2025-06-09T13:50:22.594981
11328,-0.2879,0.3972,0.9013,-0.595,-2.345,0.070,0.01,0.0368,0.0254,0.0200,0.0087,2025-06-09T13:50:22.594981
11329,-0.2855,0.3953,0.9048,-1.260,-2.660,-0.140,0.01,0.0368,0.0508,0.0100,0.0087,2025-06-09T13:50:22.594981
11330,-0.2845,0.3977,0.9008,0.105,-2.450,0.000,0.00,0.0184,0.0508,0.0200,0.0087,2025-06-09T13:50:22.594981
11331,-0.2850,0.3909,0.8989,0.980,-2.030,0.035,0.00,0.0184,0.0000,0.0200,0.0087,2025-06-09T13:50:22.594981
11332,-0.2850,0.3909,0.9004,0.385,-1.995,0.175,0.00,0.0184,0.0254,0.0200,0.0087,2025-06-09T13:50:22.594981
11333,-0.2865,0.3928,0.8999,0.490,-2.065,0.350,0.00,0.0368,0.0254,0.0100,0.0174,2025-06-09T13:50:22.594981
11334,-0.2826,0.3948,0.9023,1.050,-2.170,0.420,0.01,0.0184,0.0508,0.0100,0.0174,2025-06-09T13:50:22.594981
11335,-0.2874,0.3963,0.9004,1.085,-2.170,0.385,0.01,0.0000,0.0254,0.0200,0.0087,2025-06-09T13:50:22.594981
11336,-0.2865,0.3958,0.8999,0.280,-2.380,0.000,0.00,0.0184,0.0508,0.0300,0.0087,2025-06-09T13:50:22.594981
11337,-0.2855,0.3933,0.9008,-0.140,-2.485,0.175,0.00,0.0184,0.0254,0.0200,0.0087,2025-06-09T13:50:22.594981
11338,-0.2840,0.3948,0.9018,0.385,-2.345,0.175,0.00,0.0184,0.0254,0.0200,0.0087,2025-06-09T13:50:22.594981
11339,-0.2869,0.3958,0.8989,0.700,-2.380,0.210,0.00,0.0184,0.0000,0.0200,0.0087,2025-06-09T13:50:22.594981
11340,-0.2855,0.3933,0.9004,0.560,-2.240,0.140,0.01,0.0184,0.0254,0.0300,0.0087,2025-06-09T13:50:22.648860
11341,-0.2874,0.3967,0.9023,0.070,-2.485,0.140,0.01,0.0368,0.0254,0.0300,0.0087,2025-06-09T13:50:22.648860
11342,-0.2855,0.3958,0.9004,0.035,-2.590,0.035,0.00,0.0368,0.0762,0.0100,0.0000,2025-06-09T13:50:22.648860
11343,-0.2855,0.3948,0.9008,0.175,-2.380,0.035,0.00,0.0552,0.0254,0.0200,0.0174,2025-06-09T13:50:22.648860
11344,-0.2889,0.3938,0.9008,0.175,-2.380,0.035,0.01,0.0184,0.1273,0.0100,0.0087,2025-06-09T13:50:22.648860
11345,-0.2845,0.3938,0.9023,0.210,-2.485,0.175,0.00,0.0184,0.0254,0.0200,0.0174,2025-06-09T13:50:22.648860
11346,-0.2840,0.3928,0.8984,0.385,-2.345,0.175,0.01,0.0184,0.0508,0.0200,0.0087,2025-06-09T13:50:22.648860
11347,-0.2845,0.3967,0.8999,0.630,-2.205,0.175,0.01,0.0184,0.0508,0.0100,0.0000,2025-06-09T13:50:22.648860
11348,-0.2869,0.3943,0.8999,0.630,-2.380,0.315,0.00,0.0368,0.0508,0.0100,0.0087,2025-06-09T13:50:22.751585
11349,-0.2855,0.3958,0.9018,0.350,-2.380,0.105,0.00,0.0184,0.0508,0.0300,0.0174,2025-06-09T13:50:22.751585
11350,-0.2860,0.3967,0.8989,0.105,-2.345,0.210,0.00,0.0368,0.0762,0.0300,0.0174,2025-06-09T13:50:22.751585
11351,-0.2879,0.3948,0.8994,0.350,-2.415,0.280,0.00,0.0368,0.0508,0.0200,0.0087,2025-06-09T13:50:22.751585
11352,-0.2855,0.3958,0.8979,0.420,-2.450,0.175,0.00,0.0184,0.0000,0.0200,0.0087,2025-06-09T13:50:22.751585
11353,-0.2855,0.3963,0.9033,0.420,-2.415,-0.035,0.00,0.0368,0.0508,0.0100,0.0087,2025-06-09T13:50:22.751585
11354,-0.2860,0.3963,0.8994,-0.175,-2.695,0.105,0.00,0.0184,0.0254,0.0100,0.0174,2025-06-09T13:50:22.751585
11355,-0.2869,0.3928,0.8999,-0.140,-2.520,0.105,0.01,0.0184,0.0254,0.0200,0.0087,2025-06-09T13:50:22.751585
11356,-0.2855,0.3967,0.8969,0.210,-2.485,0.175,0.01,0.0184,0.0508,0.0200,0.0349,2025-06-09T13:50:22.811402
11357,-0.2869,0.3948,0.9023,0.630,-2.345,0.140,0.00,0.0184,0.0508,0.0200,0.0087,2025-06-09T13:50:22.811402
11358,-0.2879,0.3958,0.9028,0.280,-2.310,0.140,0.01,0.0184,0.0254,0.0100,0.0174,2025-06-09T13:50:22.811402
11359,-0.2860,0.3948,0.9004,0.035,-2.485,0.070,0.01,0.0184,0.0508,0.0200,0.0174,2025-06-09T13:50:22.811402
11360,-0.2855,0.3958,0.8989,0.140,-2.590,0.210,0.01,0.0184,0.0254,0.0000,0.0087,2025-06-09T13:50:22.861292
11361,-0.2865,0.3972,0.8999,0.420,-2.450,0.035,0.00,0.0368,0.0254,0.0200,0.0087,2025-06-09T13:50:22.861292
11362,-0.2874,0.3963,0.8979,0.455,-2.380,0.105,0.00,0.0184,0.0254,0.0200,0.0087,2025-06-09T13:50:22.861292
11363,-0.2874,0.3972,0.9008,0.350,-2.485,0.035,0.01,0.0184,0.0254,0.0200,0.0087,2025-06-09T13:50:22.861292
11364,-0.2869,0.3953,0.8994,-8.960,-2.625,0.070,0.01,0.0184,0.1786,0.0300,0.0087,2025-06-09T13:50:22.912133
11365,-0.2865,0.3972,0.8974,0.245,-2.520,0.105,0.00,0.0368,0.0508,0.0200,0.0174,2025-06-09T13:50:22.912133
11366,-0.2865,0.3963,0.9004,0.315,-2.380,0.105,0.01,0.0368,0.0254,0.0200,0.0087,2025-06-09T13:50:22.912133
11367,-0.2869,0.3948,0.9023,0.245,-2.380,0.105,0.01,0.0368,0.0254,0.0100,0.0087,2025-06-09T13:50:23.058760
11368,-0.2884,0.3977,0.8999,0.280,-2.520,0.245,0.00,0.0184,0.0508,0.0200,0.0087,2025-06-09T13:50:23.058760
11369,-0.2874,0.3967,0.8984,0.315,-2.555,0.140,0.00,0.0368,0.0508,0.0200,0.0087,2025-06-09T13:50:23.058760
11370,-0.2874,0.3948,0.9008,0.070,-2.730,0.070,0.00,0.0184,0.0508,0.0300,0.0087,2025-06-09T13:50:23.058760
11371,-0.2874,0.3977,0.9008,0.175,-2.520,0.070,0.00,0.0368,0.0508,0.0300,0.0174,2025-06-09T13:50:23.058760
11372,-0.2874,0.3977,0.8984,0.280,-2.555,0.175,0.00,0.0368,0.0254,0.0200,0.0087,2025-06-09T13:50:23.058760
11373,-0.2869,0.3992,0.9004,0.315,-2.590,0.105,0.00,0.0000,0.0254,0.0200,0.0087,2025-06-09T13:50:23.058760
11374,-0.2879,0.3967,0.8989,-8.890,-2.590,-0.035,0.00,0.0184,0.0508,0.0000,0.0174,2025-06-09T13:50:23.058760
11375,-0.2884,0.3963,0.8989,-0.210,-2.695,0.070,0.00,0.0184,0.0254,0.0200,0.0087,2025-06-09T13:50:23.058760
11376,-0.2899,0.3933,0.8974,0.070,-2.380,0.315,0.00,0.0368,0.0508,0.0100,0.0087,2025-06-09T13:50:23.058760
11377,-0.2855,0.3967,0.8979,0.700,-2.485,0.210,0.00,0.0184,0.0000,0.0100,0.0087,2025-06-09T13:50:23.058760
11378,-0.2884,0.3977,0.8979,0.595,-2.415,-0.070,0.01,0.0368,0.0254,0.0100,0.0174,2025-06-09T13:50:23.115587
11379,-0.2889,0.3977,0.9008,-0.210,-2.520,0.000,0.00,0.0368,0.0762,0.0100,0.0087,2025-06-09T13:50:23.115587
11380,-0.2904,0.3948,0.9043,-0.070,-2.100,0.105,0.00,0.0184,0.0254,0.0100,0.0087,2025-06-09T13:50:23.115587
11381,-0.2840,0.3963,0.8965,0.455,-2.100,0.385,0.01,0.0368,0.0254,0.0200,0.0087,2025-06-09T13:50:23.115587
11382,-0.2869,0.3938,0.8960,1.225,-1.925,0.315,0.00,0.0368,0.0508,0.0300,0.0087,2025-06-09T13:50:23.115587
11383,-0.2899,0.3953,0.9013,1.435,-1.680,0.350,0.01,0.0184,0.0254,0.0200,0.0087,2025-06-09T13:50:23.262195
11384,-0.2899,0.3977,0.9013,1.190,-1.995,0.315,0.01,0.0368,0.0508,0.0100,0.0087,2025-06-09T13:50:23.262195
11385,-0.2879,0.3987,0.9004,0.735,-1.890,0.490,0.00,0.0368,0.0508,0.0200,0.0087,2025-06-09T13:50:23.262195
11386,-0.2884,0.3987,0.8955,1.015,-2.030,0.455,0.01,0.0368,0.0508,0.0300,0.0087,2025-06-09T13:50:23.262195
11387,-0.2874,0.3972,0.8926,1.190,-1.750,0.245,0.01,0.0184,0.0000,0.0200,0.0087,2025-06-09T13:50:23.262195
11388,-0.2899,0.4011,0.8950,1.225,-1.995,0.315,0.00,0.0184,0.0254,0.0300,0.0087,2025-06-09T13:50:23.262195
11389,-0.2899,0.3997,0.9004,0.875,-2.170,0.280,0.00,0.0184,0.0254,0.0100,0.0087,2025-06-09T13:50:23.262195
11390,-0.2894,0.4006,0.8935,0.105,-2.240,0.280,0.00,0.0184,0.0254,0.0200,0.0087,2025-06-09T13:50:23.262195
11391,-0.2889,0.3958,0.8955,-1.330,-1.715,0.980,0.00,0.0184,0.0508,0.0100,0.0087,2025-06-09T13:50:23.262195
11392,-0.3977,0.2250,1.1009,23.765,21.840,25.095,0.00,0.0368,0.0254,0.0200,0.0087,2025-06-09T13:50:23.262195
11393,-0.3665,0.5900,0.8847,58.940,36.435,-2.835,0.00,0.0184,0.0254,0.0100,0.0174,2025-06-09T13:50:23.262195
11394,-0.2987,0.5041,1.0838,70.385,48.895,18.130,0.00,0.0368,0.0000,0.0200,0.0174,2025-06-09T13:50:23.364919
11395,-0.3699,0.3470,1.0638,40.355,27.090,11.165,0.01,0.0368,0.0762,0.0300,0.0174,2025-06-09T13:50:23.364919
11396,-0.7096,0.1840,1.0429,29.085,67.795,-21.525,0.01,0.0368,0.0254,0.0200,0.0087,2025-06-09T13:50:23.364919
11397,-0.6832,0.1430,1.3815,33.530,167.965,-76.230,0.01,0.0184,0.0000,0.0300,0.0087,2025-06-09T13:50:23.364919
11398,-0.9170,0.0024,1.3440,38.570,256.935,-91.070,0.00,0.0184,0.0254,0.0200,0.0087,2025-06-09T13:50:23.364919
11399,-1.1175,0.2796,0.9316,45.920,317.275,-58.730,0.00,0.0184,0.0508,0.0200,0.0087,2025-06-09T13:50:23.364919
11400,-1.9622,-0.0444,3.3169,-69.160,-100.135,-51.240,0.00,0.0184,0.0254,0.0200,0.0087,2025-06-09T13:50:23.364919
11401,-1.5079,-0.7828,0.6544,-271.985,-229.040,-80.535,0.00,0.0184,0.0254,0.0100,0.0087,2025-06-09T13:50:23.467646
11402,-1.5435,-0.0088,0.9165,-582.925,-295.680,-371.595,0.00,0.0184,0.0508,0.0100,0.0087,2025-06-09T13:50:23.467646
11403,-1.7919,0.4953,1.2107,-574.525,-350.735,-485.555,0.00,0.0368,0.0508,0.0200,0.0174,2025-06-09T13:50:23.467646
11404,-1.1946,0.6232,1.0243,-439.810,-303.695,-600.040,0.00,0.0184,0.0254,0.0200,0.0087,2025-06-09T13:50:23.467646
11405,-0.9887,0.8965,0.9604,-134.575,-225.365,-602.595,0.01,0.0368,0.0000,0.0200,0.0174,2025-06-09T13:50:23.467646
11406,-0.6661,1.0331,0.9536,117.390,-275.345,-472.920,0.01,0.0184,0.0508,0.0200,0.0087,2025-06-09T13:50:23.467646
11407,-0.4451,0.9321,0.8638,445.095,-429.030,-371.700,0.00,0.0368,0.0508,0.0200,0.0087,2025-06-09T13:50:23.467646
11408,-0.1274,0.9843,0.4455,579.145,-727.615,-257.285,0.01,0.0184,0.0254,0.0200,0.0174,2025-06-09T13:50:23.467646
11409,-0.1649,0.6998,-0.0005,689.220,-1082.760,-36.470,0.01,0.0184,0.0254,0.0200,0.0087,2025-06-09T13:50:23.525522
11410,0.8428,0.5919,-1.5928,184.205,-555.450,76.160,0.00,0.0368,0.0508,0.0200,0.0174,2025-06-09T13:50:23.525522
11411,0.7164,0.6202,-0.7867,108.115,-336.140,70.175,0.00,0.0368,0.0508,0.0200,0.0087,2025-06-09T13:50:23.525522
11412,1.1302,0.5983,-1.0429,176.680,-82.810,47.670,0.00,0.0184,0.0508,0.0300,0.0174,2025-06-09T13:50:23.525522
11413,0.7335,0.5388,-0.5773,186.480,-9.905,47.180,0.01,0.0552,0.0254,0.0100,0.0174,2025-06-09T13:50:23.680078
11414,1.5328,1.1922,-0.6739,191.205,88.410,152.705,0.00,0.0184,0.0508,0.0200,0.0087,2025-06-09T13:50:23.680078
11415,1.5026,1.7168,-0.6393,144.760,207.725,259.560,0.01,0.0184,0.0762,0.0300,0.0087,2025-06-09T13:50:23.680078
11416,1.0785,1.5152,-0.7222,166.845,309.330,430.010,0.01,0.0368,0.0254,0.0200,0.0174,2025-06-09T13:50:23.680078
11417,0.3143,0.9155,-0.7218,293.405,396.445,525.455,0.00,0.0368,0.0508,0.0000,0.0174,2025-06-09T13:50:23.680078
11418,-1.0585,-0.2113,-0.4524,402.640,490.665,455.385,0.00,0.0184,0.0254,0.0100,0.0087,2025-06-09T13:50:23.680078
11419,-1.6250,-0.9145,0.3255,447.405,601.720,186.445,0.00,0.0184,0.0000,0.0100,0.0087,2025-06-09T13:50:23.680078
11420,-1.5543,-0.2767,1.6299,269.045,762.825,-215.635,0.00,0.0184,0.0508,0.0200,0.0087,2025-06-09T13:50:23.681076
11421,-1.5435,-0.7989,1.8681,-22.295,868.175,-373.065,0.00,0.0368,0.0508,0.0200,0.0087,2025-06-09T13:50:23.681076
11422,-2.0979,-0.4826,3.0417,-193.550,683.095,-197.295,0.00,0.0184,0.0254,0.0200,0.0087,2025-06-09T13:50:23.681076
11423,-3.0666,-0.8335,5.0103,-206.395,328.825,-166.915,0.00,0.0184,0.0254,0.0300,0.0174,2025-06-09T13:50:23.681076
11424,-3.7869,-0.8525,4.0475,-232.820,-245.805,-414.540,0.00,0.0184,0.0508,0.0200,0.0174,2025-06-09T13:50:23.774824
11425,-2.9163,-0.0307,2.3141,-712.425,-554.540,-664.615,0.01,0.0184,0.0254,0.0100,0.0087,2025-06-09T13:50:23.774824
11426,-1.9505,1.6558,1.7056,-484.505,-622.580,-975.275,0.00,0.0184,0.0508,0.0200,0.0087,2025-06-09T13:50:23.774824
11427,-0.7915,2.9968,1.5733,471.835,-975.135,-807.520,0.00,0.0184,0.0508,0.0200,0.0087,2025-06-09T13:50:23.774824
11428,-0.2660,2.8831,-1.0531,978.040,-1146.740,-50.610,0.01,0.0368,0.0254,0.0200,0.0087,2025-06-09T13:50:23.774824
11429,1.5226,1.6221,-4.5189,29.820,-437.185,83.195,0.00,0.0184,0.0508,0.0200,0.0174,2025-06-09T13:50:23.774824
11430,1.0399,1.6348,-2.7162,120.715,6.755,80.955,0.00,0.0184,0.0254,0.0200,0.0174,2025-06-09T13:50:23.774824
11431,0.4748,1.9422,-2.4624,118.615,433.230,118.650,0.01,0.0184,0.0508,0.0200,0.0087,2025-06-09T13:50:23.877550
11432,0.1279,2.2575,-1.6773,-82.355,513.380,305.060,0.00,0.0000,0.0254,0.0200,0.0174,2025-06-09T13:50:23.877550
11433,-0.3733,2.1706,-1.1497,-55.580,560.245,451.395,0.01,0.0368,0.0508,0.0300,0.0174,2025-06-09T13:50:23.877550
11434,-1.0941,1.5714,-0.4382,237.125,683.515,581.595,0.00,0.0368,0.0508,0.0100,0.0087,2025-06-09T13:50:23.877550
11435,-2.4083,-0.0952,-0.3518,505.015,985.705,498.715,0.01,0.0368,0.0000,0.0100,0.0087,2025-06-09T13:50:23.877550
11436,-2.7177,-2.6703,1.5714,535.710,1146.740,33.565,0.00,0.0000,0.0254,0.0100,0.0087,2025-06-09T13:50:23.877550
11437,-2.2677,-2.9939,4.2890,613.760,736.470,-139.195,0.01,0.0184,0.0254,0.0100,0.0087,2025-06-09T13:50:23.877550
11438,-4.2290,-1.6314,4.5569,-96.460,641.165,-327.950,0.00,0.0184,0.0254,0.0200,0.0087,2025-06-09T13:50:23.877550
11439,-4.7663,-1.8183,5.4510,-507.080,141.890,-441.070,0.00,0.0184,0.0508,0.0300,0.0174,2025-06-09T13:50:23.981274
11440,-4.5848,-0.6891,4.0641,-851.095,-341.740,-515.305,0.00,0.0184,0.0254,0.0000,0.0087,2025-06-09T13:50:23.981274
11441,-3.1242,1.0912,2.4024,-836.465,-427.735,-967.715,0.01,0.0184,0.0254,0.0100,0.0174,2025-06-09T13:50:23.981274
11442,-1.7563,2.6430,1.8163,-710.290,-430.605,-1107.085,0.01,0.0368,0.0508,0.0000,0.0087,2025-06-09T13:50:23.981274
11443,-0.8945,3.8816,1.7856,366.450,-442.470,-894.180,0.00,0.0184,0.0000,0.0100,0.0087,2025-06-09T13:50:23.981274
11444,1.1844,4.7868,0.3445,1146.740,-726.005,-407.890,0.00,0.0184,0.0254,0.0200,0.0087,2025-06-09T13:50:23.981274
11445,1.1204,4.7326,-2.8489,914.725,-1002.470,229.635,0.00,0.0368,0.0254,0.0100,0.0087,2025-06-09T13:50:23.981274
11446,0.7300,3.9777,-3.3067,-155.750,-274.575,456.435,0.00,0.0368,0.0254,0.0100,0.0174,2025-06-09T13:50:24.034129
11447,-0.5422,3.2071,-1.7251,47.985,622.860,632.730,0.01,0.0552,0.0508,0.0300,0.0174,2025-06-09T13:50:24.034129
11448,-1.9715,1.7490,-1.0882,528.885,863.555,807.625,0.00,0.0368,0.0254,0.0200,0.0174,2025-06-09T13:50:24.034129
11449,-2.9934,-0.4109,-0.4055,765.765,1014.720,739.900,0.00,0.0368,0.0508,0.0300,0.0174,2025-06-09T13:50:24.034129
11450,-2.7831,-3.5687,0.0454,1059.205,1146.740,-206.745,0.00,0.0368,0.0254,0.0200,0.0000,2025-06-09T13:50:24.183728
11451,-2.0486,-3.5712,1.9374,837.340,369.180,-50.925,0.01,0.0368,0.0254,0.0200,0.0087,2025-06-09T13:50:24.183728
11452,-3.3252,-0.9374,5.0103,-144.235,365.120,-435.750,0.01,0.0368,0.0254,0.0200,0.0174,2025-06-09T13:50:24.183728
11453,-2.1965,-0.3196,4.9542,-436.625,148.120,-349.580,0.01,0.0368,0.0254,0.0000,0.0087,2025-06-09T13:50:24.183728
11454,-2.6835,0.2142,3.4311,-478.380,-100.065,-257.530,0.00,0.0184,0.0254,0.0100,0.0087,2025-06-09T13:50:24.183728
11455,-1.6280,1.1946,1.7470,-364.735,-437.605,-35.280,0.01,0.0184,0.0254,0.0200,0.0174,2025-06-09T13:50:24.183728
11456,-0.7974,1.3971,0.9409,-313.180,-471.660,-194.110,0.01,0.0368,0.0254,0.0200,0.0087,2025-06-09T13:50:24.183728
11457,-0.2284,1.4152,0.2425,-220.570,-447.090,-188.335,0.01,0.0368,0.0254,0.0200,0.0087,2025-06-09T13:50:24.183728
11458,0.0966,1.2405,-0.1254,-117.670,-373.240,-120.015,0.00,0.0184,0.0508,0.0200,0.0087,2025-06-09T13:50:24.183728
11459,0.3255,1.0326,-0.4368,-1.960,-232.155,-49.315,0.00,0.0184,0.0000,0.0100,0.0087,2025-06-09T13:50:24.183728
11460,0.4782,0.8418,-0.5944,65.625,-106.890,-15.540,0.00,0.0368,0.0000,0.0200,0.0087,2025-06-09T13:50:24.183728
11461,0.4836,0.6900,-0.4856,13.125,5.285,14.035,0.01,0.0552,0.0508,0.0200,0.0087,2025-06-09T13:50:24.286454
11462,0.3655,0.6022,-0.2484,-3.605,114.065,39.270,0.01,0.0000,0.0000,0.0200,0.0174,2025-06-09T13:50:24.286454
11463,0.1850,0.4826,0.1054,-0.490,174.300,67.690,0.00,0.0368,0.0254,0.0200,0.0087,2025-06-09T13:50:24.286454
11464,-0.0415,0.3943,0.4490,24.745,207.200,95.340,0.00,0.0184,0.0508,0.0200,0.0174,2025-06-09T13:50:24.286454
11465,-0.2230,0.3411,0.7584,42.560,216.860,107.625,0.01,0.0552,0.0000,0.0300,0.0087,2025-06-09T13:50:24.286454
11466,-0.4099,0.2869,1.0243,39.340,225.575,105.735,0.00,0.0184,0.0254,0.0100,0.0174,2025-06-09T13:50:24.286454
11467,-0.5607,0.1430,1.2293,76.440,228.410,102.060,0.00,0.0184,0.0254,0.0200,0.0087,2025-06-09T13:50:24.286454
11468,-0.7530,-0.0068,1.4176,111.755,219.660,92.995,0.01,0.0184,0.0254,0.0200,0.0087,2025-06-09T13:50:24.286454
11469,-0.9331,-0.0264,1.6890,148.015,186.480,84.665,0.01,0.0184,0.0508,0.0200,0.0087,2025-06-09T13:50:24.392747
11470,-1.1141,0.0551,1.7993,134.890,94.570,72.765,0.01,0.0368,0.0508,0.0100,0.0087,2025-06-09T13:50:24.392747
11471,-1.0834,0.0503,1.6934,44.940,10.045,51.835,0.00,0.0184,0.0254,0.0200,0.0174,2025-06-09T13:50:24.392747
11472,-0.9604,0.1337,1.5035,-12.110,-72.380,6.195,0.00,0.0368,0.0508,0.0100,0.0087,2025-06-09T13:50:24.392747
11473,-0.7300,0.2416,1.1936,-63.000,-135.835,-22.295,0.00,0.0184,0.0508,0.0100,0.0087,2025-06-09T13:50:24.392747
11474,-0.4831,0.3460,0.8657,-73.535,-153.685,-29.505,0.00,0.0184,0.0508,0.0200,0.0174,2025-06-09T13:50:24.392747
11475,-0.2826,0.3928,0.6954,-63.525,-140.595,-22.435,0.01,0.0184,0.0254,0.0200,0.0087,2025-06-09T13:50:24.392747
11476,-0.1869,0.4153,0.5802,-29.435,-106.680,-0.070,0.01,0.0184,0.0000,0.0200,0.0087,2025-06-09T13:50:24.496467
11477,-0.1640,0.4285,0.5295,15.890,-55.930,8.995,0.01,0.0184,0.0254,0.0300,0.0087,2025-06-09T13:50:24.906371
11478,-0.1542,0.4246,0.5636,27.895,-14.175,19.180,0.00,0.0552,0.0508,0.0200,0.0087,2025-06-09T13:50:24.906371
11479,-0.2059,0.3928,0.6471,40.985,23.065,28.210,0.00,0.0000,0.0508,0.0200,0.0087,2025-06-09T13:50:24.906371
11480,-0.2621,0.3655,0.7959,54.845,37.205,33.110,0.01,0.0368,0.0508,0.0300,0.0087,2025-06-09T13:50:24.906371
11481,-0.3070,0.3426,0.8955,57.855,36.890,36.610,0.00,0.0184,0.0254,0.0200,0.0087,2025-06-09T13:50:24.906371
11482,-0.3543,0.3138,0.9736,53.690,26.845,38.325,0.00,0.0368,0.0254,0.0200,0.0087,2025-06-09T13:50:24.906371
11483,-0.4348,0.2503,0.9814,44.065,14.280,41.965,0.00,0.0184,0.0254,0.0200,0.0087,2025-06-09T13:50:24.906371
11484,-0.4050,0.2323,1.0443,36.400,-0.630,37.205,0.01,0.0368,0.0000,0.0200,0.0087,2025-06-09T13:50:24.906371
11485,-0.4211,0.2542,0.9550,19.880,-6.790,23.625,0.00,0.0184,0.0000,0.0300,0.0087,2025-06-09T13:50:24.906371
11486,-0.3884,0.2606,0.9238,6.230,-8.120,7.210,0.00,0.0184,0.0254,0.0200,0.0087,2025-06-09T13:50:24.906371
11487,-0.3689,0.2840,0.8911,-2.240,-5.915,0.630,0.01,0.0184,0.0254,0.0100,0.0174,2025-06-09T13:50:24.906371
11488,-0.3279,0.3274,0.8965,-1.820,-3.675,-2.065,0.01,0.0368,0.1018,0.0200,0.0174,2025-06-09T13:50:24.906371
11489,-0.3113,0.3587,0.8725,1.400,-1.750,0.420,0.01,0.0184,0.0762,0.0200,0.0087,2025-06-09T13:50:24.906371
11490,-0.3138,0.3723,0.8716,3.255,0.280,3.745,0.00,0.0368,0.0254,0.0100,0.0087,2025-06-09T13:50:24.906371
11491,-0.3265,0.3958,0.8628,7.735,2.835,4.970,0.01,0.0368,0.0762,0.0100,0.0087,2025-06-09T13:50:24.906371
11492,-0.3274,0.4016,0.8672,9.625,3.255,5.530,0.01,0.0184,0.0254,0.0100,0.0087,2025-06-09T13:50:24.906371
11493,-0.3396,0.3884,0.8642,7.980,3.080,6.020,0.00,0.0184,0.0508,0.0100,0.0087,2025-06-09T13:50:24.906371
11494,-0.3387,0.3743,0.8799,7.700,3.325,5.285,0.01,0.0368,0.0254,0.0401,0.0174,2025-06-09T13:50:24.906371
11495,-0.3538,0.3582,0.8789,7.280,3.745,4.900,0.00,0.0368,0.0254,0.0200,0.0174,2025-06-09T13:50:24.906371
11496,-0.3606,0.3416,0.8930,5.145,3.465,3.255,0.00,0.0184,0.0254,0.0100,0.0087,2025-06-09T13:50:24.906371
11497,-0.3699,0.3333,0.8965,-0.035,2.975,0.980,0.01,0.0184,0.0000,0.0200,0.0087,2025-06-09T13:50:24.906371
11498,-0.3606,0.3192,0.9052,-4.585,2.975,-0.140,0.00,0.0184,0.0508,0.0200,0.0087,2025-06-09T13:50:24.906371
11499,-0.3714,0.3162,0.8955,-8.890,1.995,1.225,0.01,0.0368,0.0254,0.0300,0.0087,2025-06-09T13:50:24.906371
11500,-0.3450,0.3274,0.9204,-8.470,0.280,-0.980,0.00,0.0368,0.0254,0.0100,0.0087,2025-06-09T13:50:24.906371
11501,-0.3406,0.3426,0.9033,-7.420,-1.960,0.105,0.00,0.0184,0.0254,0.0200,0.0087,2025-06-09T13:50:24.906371
11502,-0.3396,0.3792,0.8960,-3.675,-2.975,1.260,0.01,0.0184,0.0508,0.0200,0.0087,2025-06-09T13:50:24.906371
11503,-0.3367,0.4226,0.8852,0.175,-4.340,2.905,0.01,0.0184,0.0254,0.0200,0.0087,2025-06-09T13:50:24.906371
11504,-0.3518,0.4285,0.8603,0.770,-4.165,2.555,0.01,0.0184,0.0508,0.0100,0.0087,2025-06-09T13:50:24.907368
11505,-0.3421,0.4353,0.8662,0.840,-3.115,2.835,0.00,0.0368,0.0254,0.0200,0.0087,2025-06-09T13:50:24.907368
11506,-0.3431,0.4455,0.8672,4.410,-1.925,3.150,0.00,0.0184,0.0254,0.0100,0.0087,2025-06-09T13:50:24.907368
11507,-0.3748,0.4329,0.8516,6.370,-0.525,6.265,0.01,0.0184,0.0508,0.0200,0.0174,2025-06-09T13:50:24.907368
11508,-0.3797,0.4241,0.8613,6.860,0.665,4.200,0.00,0.0368,0.0254,0.0200,0.0087,2025-06-09T13:50:24.907368
11509,-0.3714,0.4372,0.8755,5.320,1.610,1.120,0.01,0.0368,0.0508,0.0200,0.0174,2025-06-09T13:50:24.907368
11510,-0.3636,0.4621,0.8921,5.285,1.190,2.590,0.00,0.0184,0.0508,0.0100,0.0087,2025-06-09T13:50:24.907368
11511,-0.3601,0.4680,0.8872,17.430,-1.400,6.860,0.00,0.0184,0.0254,0.0100,0.0000,2025-06-09T13:50:24.907368
11512,-0.3675,0.4441,0.8789,9.975,-3.920,8.925,0.00,0.0184,0.0254,0.0200,0.0087,2025-06-09T13:50:24.907368
11513,-0.3684,0.3904,0.8843,7.630,-5.285,7.455,0.01,0.0184,0.0254,0.0100,0.0087,2025-06-09T13:50:24.907368
11514,-0.3626,0.3826,0.8818,5.530,-4.550,4.445,0.00,0.0368,0.0254,0.0300,0.0174,2025-06-09T13:50:25.003111
11515,-0.3528,0.3865,0.8823,5.495,-3.920,2.065,0.01,0.0184,0.0508,0.0200,0.0087,2025-06-09T13:50:25.003111
11516,-0.3514,0.3806,0.8760,5.320,-3.430,3.255,0.00,0.0184,0.0254,0.0100,0.0087,2025-06-09T13:50:25.003111
11517,-0.3538,0.3499,0.8901,3.850,-5.075,4.585,0.01,0.0368,0.0508,0.0200,0.0087,2025-06-09T13:50:25.003111
11518,-0.3509,0.3348,0.8857,0.665,-5.320,1.855,0.01,0.0368,0.0762,0.0100,0.0087,2025-06-09T13:50:25.003111
11519,-0.3396,0.3362,0.8872,-3.080,-3.815,-0.735,0.00,0.0184,0.0254,0.0000,0.0087,2025-06-09T13:50:25.003111
11520,-0.3323,0.3601,0.8867,-1.575,-3.325,-0.770,0.00,0.0184,0.0254,0.0200,0.0087,2025-06-09T13:50:25.003111
11521,-0.3279,0.3816,0.8789,0.315,-3.710,-0.070,0.00,0.0368,0.0254,0.0100,0.0087,2025-06-09T13:50:25.003111
11522,-0.3289,0.4006,0.8574,-0.525,-4.025,0.980,0.00,0.0368,0.0508,0.0300,0.0087,2025-06-09T13:50:25.106832
11523,-0.3377,0.4128,0.8525,-0.875,-2.835,0.875,0.00,0.0368,0.0508,0.0200,0.0087,2025-06-09T13:50:25.106832
11524,-0.3382,0.4177,0.8442,0.245,-0.805,-0.210,0.01,0.0184,0.0508,0.0000,0.0087,2025-06-09T13:50:25.106832
11525,-0.3353,0.4246,0.8540,1.050,1.645,-0.035,0.00,0.0368,0.0508,0.0100,0.0174,2025-06-09T13:50:25.106832
11526,-0.3421,0.4329,0.8560,3.710,3.745,1.610,0.00,0.0184,0.0254,0.0100,0.0000,2025-06-09T13:50:25.106832
11527,-0.3460,0.4207,0.8716,5.845,3.850,2.765,0.01,0.0184,0.0254,0.0100,0.0087,2025-06-09T13:50:25.106832
11528,-0.3577,0.4085,0.8808,5.180,3.220,2.520,0.00,0.0184,0.0254,0.0100,0.0174,2025-06-09T13:50:25.106832
11529,-0.3587,0.4021,0.8774,2.660,1.435,1.435,0.01,0.0368,0.0508,0.0300,0.0087,2025-06-09T13:50:25.106832
11530,-0.3548,0.3967,0.8804,0.945,-0.070,0.350,0.00,0.0368,0.0254,0.0200,0.0174,2025-06-09T13:50:25.150714
11531,-0.3445,0.3924,0.8764,1.120,-0.105,-0.105,0.00,0.0184,0.0254,0.0200,0.0087,2025-06-09T13:50:25.150714
11532,-0.3382,0.3855,0.8764,2.835,0.280,1.050,0.00,0.0184,0.0254,0.0200,0.0087,2025-06-09T13:50:25.150714
11533,-0.3318,0.3709,0.8716,4.690,0.875,3.010,0.01,0.0184,0.0000,0.0200,0.0087,2025-06-09T13:50:25.203575
11534,-0.3318,0.3670,0.8730,5.915,1.785,3.220,0.01,0.0368,0.0254,0.0300,0.0087,2025-06-09T13:50:25.203575
11535,-0.3401,0.3738,0.8574,6.510,2.940,3.360,0.01,0.0368,0.0254,0.0100,0.0087,2025-06-09T13:50:25.203575
11536,-0.3333,0.3806,0.8525,8.120,4.270,3.465,0.00,0.0368,0.0000,0.0200,0.0174,2025-06-09T13:50:25.203575
11537,-0.3406,0.3938,0.8345,7.175,5.740,3.185,0.00,0.0184,0.0254,0.0200,0.0087,2025-06-09T13:50:25.314277
11538,-0.3445,0.3977,0.8359,6.195,8.190,3.360,0.01,0.0184,0.0508,0.0100,0.0087,2025-06-09T13:50:25.314277
11539,-0.3475,0.4046,0.8340,6.090,10.220,1.575,0.01,0.0184,0.0508,0.0100,0.0087,2025-06-09T13:50:25.314277
11540,-0.3406,0.3787,0.8340,4.060,12.565,-8.085,0.01,0.0184,0.0000,0.0100,0.0000,2025-06-09T13:50:25.314277
11541,-0.3328,0.3845,0.8413,1.435,14.805,-0.245,0.01,0.0368,0.0254,0.0200,0.0087,2025-06-09T13:50:25.314277
11542,-0.3362,0.4280,0.8208,14.490,15.015,0.140,0.00,0.0184,0.0762,0.0100,0.0087,2025-06-09T13:50:25.314277
11543,-0.3372,0.4368,0.8535,4.690,21.105,-19.285,0.00,0.0184,0.0508,0.0200,0.0087,2025-06-09T13:50:25.314277
11544,-0.3328,0.4616,0.8072,21.245,23.450,-0.035,0.00,0.0000,0.0254,0.0100,0.0087,2025-06-09T13:50:25.314277
11545,-0.3943,0.4573,0.8057,31.640,30.660,11.970,0.00,0.0000,0.1786,0.0100,0.0087,2025-06-09T13:50:25.413015
11546,-0.3963,0.3787,0.8433,32.900,31.920,3.465,0.01,0.0184,0.0508,0.0300,0.0087,2025-06-09T13:50:25.413015
11547,-0.3997,0.3616,0.8320,27.825,33.740,-3.465,0.00,0.0184,0.0254,0.0200,0.0087,2025-06-09T13:50:25.413015
11548,-0.4255,0.4602,0.8462,17.815,26.250,0.945,0.01,0.0368,0.0254,0.0200,0.0087,2025-06-09T13:50:25.413015
11549,-0.4089,0.4455,0.8076,8.470,21.350,-16.415,0.01,0.0368,0.0762,0.0200,0.0087,2025-06-09T13:50:25.413015
11550,-0.4021,0.4177,0.8218,7.945,16.975,-5.215,0.01,0.0184,0.0508,0.0401,0.0087,2025-06-09T13:50:25.413015
11551,-0.4050,0.4363,0.8028,9.135,16.065,-5.775,0.00,0.0184,0.0254,0.0300,0.0087,2025-06-09T13:50:25.413015
11552,-0.3865,0.4333,0.7657,8.470,17.640,-16.415,0.01,0.0368,0.0508,0.0200,0.0174,2025-06-09T13:50:25.514740
11553,-0.3172,0.4900,0.7364,11.200,12.950,-9.905,0.01,0.0184,0.0254,0.0300,0.0174,2025-06-09T13:50:25.514740
11554,-0.3021,0.4656,0.6539,12.915,12.145,-22.820,0.00,0.0184,0.0508,0.0100,0.0087,2025-06-09T13:50:25.514740
11555,-0.2982,0.4636,0.6110,23.135,24.360,-11.235,0.01,0.0368,0.0254,0.0300,0.0087,2025-06-09T13:50:25.514740
11556,-0.3377,0.4514,0.6432,43.015,28.245,-3.920,0.01,0.0184,0.0762,0.0300,0.0087,2025-06-09T13:50:25.514740
11557,-0.3636,0.3636,0.5836,55.405,39.550,-11.305,0.00,0.0184,0.0254,0.0100,0.0087,2025-06-09T13:50:25.514740
11558,-0.6812,0.0869,1.5714,13.090,74.025,-50.365,0.01,0.0184,0.0254,0.0000,0.0174,2025-06-09T13:50:25.514740
11559,-0.5358,0.4065,1.2137,17.920,33.635,-77.105,0.00,0.0000,0.0254,0.0200,0.0087,2025-06-09T13:50:25.514740
11560,-0.4080,0.3899,0.9121,-51.590,0.070,-73.010,0.00,0.0184,0.0762,0.0200,0.0174,2025-06-09T13:50:25.617466
11561,-0.4612,0.4363,1.0087,-64.575,-46.795,-44.170,0.01,0.0368,0.0762,0.0300,0.0174,2025-06-09T13:50:25.617466
11562,-0.4290,0.5124,1.0907,19.705,-48.685,-19.110,0.00,0.0368,0.0508,0.0100,0.0174,2025-06-09T13:50:25.617466
11563,-0.3699,0.4231,0.7496,24.465,-59.815,-6.510,0.01,0.0184,0.0508,0.0200,0.0087,2025-06-09T13:50:25.617466
11564,-0.4582,0.3689,0.6964,-14.210,-72.135,-18.655,0.01,0.0552,0.0254,0.0100,0.0000,2025-06-09T13:50:25.617466
11565,-0.4778,0.3626,0.6076,-36.400,-58.415,-39.200,0.00,0.0368,0.0254,0.0100,0.0087,2025-06-09T13:50:25.617466
11566,-0.5583,0.4143,0.6915,-34.055,-26.320,-53.830,0.00,0.0184,0.0254,0.0200,0.0000,2025-06-09T13:50:25.617466
11567,-0.6217,0.5139,0.8325,-5.845,-7.000,-43.715,0.00,0.0184,0.0254,0.0300,0.0174,2025-06-09T13:50:25.617466
11568,-0.6817,0.6183,0.9540,15.470,-1.750,-11.795,0.01,0.0184,0.0508,0.0300,0.0174,2025-06-09T13:50:25.668330
11569,-0.7462,0.5651,0.9492,17.885,1.715,17.885,0.00,0.0184,0.0508,0.0300,0.0174,2025-06-09T13:50:25.668330
11570,-0.5602,0.5202,0.9667,14.280,-0.455,13.965,0.01,0.0368,0.0508,0.0100,0.0174,2025-06-09T13:50:25.668330
11571,-0.4690,0.4563,0.7598,-10.640,-7.840,0.770,0.01,0.0368,0.0508,0.0300,0.0087,2025-06-09T13:50:25.851839
11572,-0.3972,0.4329,0.6969,-25.655,-15.575,-12.110,0.00,0.0184,0.0254,0.0100,0.0174,2025-06-09T13:50:25.851839
11573,-0.4319,0.3733,0.7437,-21.595,-8.645,-14.455,0.00,0.0184,0.0508,0.0200,0.0087,2025-06-09T13:50:25.851839
11574,-0.4480,0.3333,0.8682,-0.980,1.085,-8.750,0.01,0.0000,0.0254,0.0100,0.0087,2025-06-09T13:50:25.851839
11575,-0.4494,0.3367,0.8843,12.215,3.780,1.785,0.01,0.0368,0.0254,0.0300,0.0087,2025-06-09T13:50:25.851839
11576,-0.4490,0.3845,0.8355,6.580,-1.890,9.800,0.00,0.0184,0.0254,0.0300,0.0087,2025-06-09T13:50:25.851839
11577,-0.4582,0.4094,0.7769,3.360,-1.995,9.380,0.01,0.0184,0.0508,0.0200,0.0087,2025-06-09T13:50:25.851839
11578,-0.4670,0.4221,0.7954,8.365,3.325,2.555,0.00,0.0184,0.0254,0.0100,0.0174,2025-06-09T13:50:25.851839
11579,-0.4724,0.4353,0.8228,7.280,3.080,-2.695,0.00,0.0184,0.0254,0.0300,0.0087,2025-06-09T13:50:25.851839
11580,-0.4685,0.4187,0.8491,-4.480,-4.725,-1.995,0.01,0.0184,0.0508,0.0200,0.0087,2025-06-09T13:50:25.851839
11581,-0.4665,0.3943,0.8394,-9.625,-8.435,-0.350,0.01,0.0368,0.0254,0.0200,0.0087,2025-06-09T13:50:25.851839
11582,-0.4568,0.3865,0.8003,-4.060,-4.165,0.000,0.00,0.0184,0.0254,0.0200,0.0087,2025-06-09T13:50:25.851839
11583,-0.4441,0.3841,0.7867,4.445,0.350,0.070,0.00,0.0184,0.0508,0.0100,0.0087,2025-06-09T13:50:25.924645
11584,-0.4543,0.3894,0.8101,5.810,1.435,0.945,0.00,0.0368,0.0508,0.0100,0.0174,2025-06-09T13:50:25.924645
11585,-0.4695,0.4016,0.8413,3.255,-0.350,1.820,0.01,0.0368,0.0254,0.0300,0.0087,2025-06-09T13:50:25.924645
11586,-0.4695,0.4143,0.8311,1.015,-2.450,1.855,0.00,0.0184,0.0508,0.0200,0.0087,2025-06-09T13:50:25.924645
11587,-0.4646,0.4148,0.8101,-0.525,-3.290,0.560,0.01,0.0184,0.0508,0.0200,0.0087,2025-06-09T13:50:25.924645
11588,-0.4587,0.4016,0.8057,-1.365,-3.115,-0.980,0.00,0.0184,0.0254,0.0100,0.0087,2025-06-09T13:50:25.924645
11589,-0.4592,0.3938,0.8125,-1.400,-2.450,-0.945,0.00,0.0184,0.0254,0.0200,0.0000,2025-06-09T13:50:25.924645
11590,-0.4563,0.3938,0.8208,0.385,-1.785,0.490,0.01,0.0368,0.0508,0.0200,0.0087,2025-06-09T13:50:26.038341
11591,-0.4587,0.3997,0.8184,2.835,-1.610,1.505,0.01,0.0184,0.0254,0.0200,0.0087,2025-06-09T13:50:26.038341
11592,-0.4636,0.4036,0.8120,2.310,-1.330,1.085,0.01,0.0368,0.0000,0.0200,0.0174,2025-06-09T13:50:26.038341
11593,-0.4612,0.4070,0.8130,0.490,-1.785,0.315,0.01,0.0184,0.1018,0.0200,0.0087,2025-06-09T13:50:26.038341
11594,-0.4626,0.4060,0.8189,-0.175,-2.555,0.035,0.00,0.0184,0.0000,0.0200,0.0087,2025-06-09T13:50:26.038341
11595,-0.4646,0.4036,0.8189,-0.175,-2.765,0.315,0.00,0.0184,0.0508,0.0200,0.0087,2025-06-09T13:50:26.038341
11596,-0.4607,0.3982,0.8111,0.315,-2.450,0.455,0.00,0.0184,0.0254,0.0200,0.0174,2025-06-09T13:50:26.038341
11597,-0.4631,0.3987,0.8091,0.805,-2.135,0.490,0.01,0.0184,0.0254,0.0200,0.0087,2025-06-09T13:50:26.038341
11598,-0.4592,0.4046,0.8145,1.225,-1.785,0.595,0.01,0.0184,0.0508,0.0200,0.0174,2025-06-09T13:50:26.038341
11599,-0.4646,0.4050,0.8179,1.680,-1.750,0.770,0.01,0.0368,0.0508,0.0100,0.0174,2025-06-09T13:50:26.130094
11600,-0.4636,0.4080,0.8174,0.910,-2.450,0.770,0.01,0.0000,0.0254,0.0401,0.0087,2025-06-09T13:50:26.130094
11601,-0.4607,0.4036,0.8106,-0.175,-2.870,0.385,0.00,0.0184,0.1786,0.0100,0.0174,2025-06-09T13:50:26.130094
11602,-0.4616,0.4055,0.8140,0.140,-2.765,0.105,0.01,0.0184,0.0762,0.0200,0.0087,2025-06-09T13:50:26.130094
11603,-0.4626,0.4036,0.8150,1.050,-2.415,0.140,0.01,0.0184,0.0508,0.0200,0.0087,2025-06-09T13:50:26.130094
11604,-0.4621,0.4021,0.8154,0.980,-2.380,0.420,0.01,0.0184,0.0254,0.0200,0.0087,2025-06-09T13:50:26.130094
11605,-0.4616,0.4036,0.8140,0.980,-2.240,0.490,0.00,0.0184,0.0000,0.0200,0.0087,2025-06-09T13:50:26.130094
11606,-0.4656,0.4085,0.8150,0.945,-2.345,0.490,0.01,0.0368,0.0254,0.0200,0.0087,2025-06-09T13:50:26.188937
11607,-0.4636,0.4070,0.8154,0.525,-2.170,0.350,0.00,0.0368,0.0254,0.0401,0.0174,2025-06-09T13:50:26.188937
11608,-0.4616,0.4055,0.8154,0.525,-2.345,0.420,0.00,0.0368,0.0254,0.0300,0.0174,2025-06-09T13:50:26.188937
11609,-0.4626,0.4065,0.8145,0.595,-2.695,0.350,0.01,0.0184,0.0762,0.0300,0.0174,2025-06-09T13:50:26.188937
11610,-0.4612,0.4046,0.8135,0.175,-2.485,0.385,0.00,0.0368,0.0000,0.0200,0.0087,2025-06-09T13:50:26.335558
11611,-0.4602,0.4060,0.8135,0.630,-2.205,0.245,0.00,0.0368,0.0508,0.0100,0.0087,2025-06-09T13:50:26.335558
11612,-0.4651,0.4075,0.8159,0.735,-2.310,0.315,0.01,0.0368,0.0254,0.0200,0.0087,2025-06-09T13:50:26.335558
11613,-0.4641,0.4036,0.8130,0.385,-2.380,0.350,0.01,0.0368,0.0508,0.0200,0.0174,2025-06-09T13:50:26.335558
11614,-0.4607,0.4041,0.8130,0.385,-2.380,0.315,0.01,0.0368,0.0254,0.0200,0.0087,2025-06-09T13:50:26.335558
11615,-0.4612,0.4050,0.8135,0.630,-2.555,0.280,0.00,0.0184,0.0254,0.0100,0.0087,2025-06-09T13:50:26.335558
11616,-0.4616,0.4050,0.8115,0.735,-2.450,0.350,0.00,0.0184,0.0254,0.0000,0.0087,2025-06-09T13:50:26.335558
11617,-0.4651,0.4075,0.8130,1.015,-2.240,0.420,0.00,0.0368,0.0254,0.0200,0.0087,2025-06-09T13:50:26.335558
11618,-0.4641,0.4065,0.8145,0.910,-2.380,0.490,0.00,0.0368,0.0508,0.0200,0.0087,2025-06-09T13:50:26.335558
11619,-0.4641,0.4075,0.8125,0.525,-2.520,0.490,0.01,0.0184,0.0508,0.0300,0.0000,2025-06-09T13:50:26.335558
11620,-0.4616,0.4075,0.8150,0.665,-2.695,0.280,0.00,0.0184,0.0254,0.0200,0.0087,2025-06-09T13:50:26.335558
11621,-0.4636,0.4080,0.8140,0.245,-2.660,0.245,0.01,0.0368,0.0254,0.0300,0.0087,2025-06-09T13:50:26.440294
11622,-0.4621,0.4050,0.8125,0.175,-2.555,0.175,0.01,0.0184,0.0000,0.0401,0.0087,2025-06-09T13:50:26.440294
11623,-0.4597,0.4070,0.8111,0.595,-2.555,0.210,0.00,0.0368,0.0508,0.0100,0.0087,2025-06-09T13:50:26.440294
11624,-0.4631,0.4075,0.8130,0.525,-2.380,0.245,0.00,0.0184,0.0254,0.0300,0.0087,2025-06-09T13:50:26.440294
11625,-0.4621,0.4085,0.8125,0.385,-2.170,0.210,0.01,0.0184,0.0254,0.0200,0.0087,2025-06-09T13:50:26.440294
11626,-0.4636,0.4080,0.8140,0.735,-2.380,0.315,0.00,0.0184,0.0254,0.0200,0.0087,2025-06-09T13:50:26.441264
11627,-0.4626,0.4070,0.8135,0.490,-2.555,0.280,0.01,0.0184,0.0254,0.0200,0.0174,2025-06-09T13:50:26.611808
11628,-0.4621,0.4070,0.8135,0.420,-2.450,0.315,0.00,0.0184,0.0254,0.0100,0.0174,2025-06-09T13:50:26.611808
11629,-0.4631,0.4075,0.8135,0.560,-2.520,0.280,0.01,0.0184,0.0508,0.0300,0.0087,2025-06-09T13:50:26.612805
11630,-0.4612,0.4046,0.8115,0.315,-2.485,0.350,0.01,0.0184,0.0508,0.0200,0.0087,2025-06-09T13:50:26.612805
11631,-0.4612,0.4089,0.8130,0.595,-2.520,0.385,0.01,0.0184,0.0254,0.0200,0.0087,2025-06-09T13:50:26.612805
11632,-0.4626,0.4065,0.8154,0.805,-2.310,0.280,0.00,0.0368,0.0508,0.0200,0.0087,2025-06-09T13:50:26.612805
11633,-0.4626,0.4080,0.8130,0.420,-2.205,0.245,0.00,0.0000,0.0254,0.0200,0.0174,2025-06-09T13:50:26.612805
11634,-0.4636,0.4099,0.8140,0.140,-2.170,0.245,0.01,0.0184,0.0254,0.0100,0.0087,2025-06-09T13:50:26.612805
11635,-0.4641,0.4075,0.8115,0.560,-2.380,0.210,0.00,0.0184,0.0254,0.0100,0.0174,2025-06-09T13:50:26.612805
11636,-0.4656,0.4089,0.8140,0.420,-2.240,0.140,0.00,0.0000,0.0254,0.0200,0.0174,2025-06-09T13:50:26.644724
11637,-0.4646,0.4114,0.8130,0.280,-2.240,0.245,0.01,0.0368,0.0508,0.0300,0.0087,2025-06-09T13:50:26.644724
11638,-0.4621,0.4094,0.8135,0.490,-2.800,0.315,0.00,0.0368,0.0254,0.0200,0.0087,2025-06-09T13:50:26.644724
11639,-0.4631,0.4094,0.8091,0.000,-2.415,0.210,0.01,0.0368,0.0508,0.0200,0.0174,2025-06-09T13:50:26.644724
11640,-0.4621,0.4089,0.8091,0.140,-2.450,0.210,0.01,0.0000,0.0762,0.0300,0.0087,2025-06-09T13:50:26.644724
11641,-0.4612,0.4046,0.8115,0.595,-2.345,0.245,0.00,0.0368,0.0508,0.0000,0.0087,2025-06-09T13:50:26.644724
11642,-0.4607,0.4085,0.8135,0.210,-2.310,0.280,0.00,0.0368,0.0508,0.0200,0.0087,2025-06-09T13:50:26.644724
11643,-0.4616,0.4094,0.8101,0.595,-2.520,0.350,0.00,0.0368,0.0508,0.0100,0.0087,2025-06-09T13:50:26.644724
11644,-0.4621,0.4089,0.8130,0.525,-2.520,0.350,0.01,0.0184,0.0508,0.0200,0.0174,2025-06-09T13:50:26.744478
11645,-0.4641,0.4094,0.8106,0.385,-2.415,0.280,0.01,0.0184,0.0000,0.0100,0.0087,2025-06-09T13:50:26.744478
11646,-0.4641,0.4109,0.8140,0.630,-2.485,0.210,0.00,0.0184,0.0508,0.0200,0.0087,2025-06-09T13:50:26.744478
11647,-0.4641,0.4109,0.8106,0.735,-2.660,0.385,0.01,0.0184,0.0254,0.0100,0.0087,2025-06-09T13:50:26.744478
11648,-0.4626,0.4094,0.8145,0.350,-2.590,0.280,0.00,0.0368,0.0762,0.0100,0.0000,2025-06-09T13:50:26.744478
11649,-0.4616,0.4089,0.8111,0.315,-2.905,0.210,0.00,0.0184,0.0254,0.0300,0.0087,2025-06-09T13:50:26.744478
11650,-0.4626,0.4094,0.8115,0.245,-2.765,0.210,0.00,0.0184,0.0254,0.0200,0.0087,2025-06-09T13:50:26.744478
11651,-0.4631,0.4114,0.8111,0.210,-2.345,0.175,0.01,0.0000,0.0508,0.0000,0.0174,2025-06-09T13:50:26.744478
11652,-0.4636,0.4109,0.8125,0.770,-2.555,0.140,0.01,0.0368,0.0254,0.0200,0.0087,2025-06-09T13:50:26.802297
11653,-0.4656,0.4099,0.8140,0.490,-2.485,0.210,0.00,0.0184,0.0254,0.0100,0.0087,2025-06-09T13:50:26.802297
11654,-0.4651,0.4109,0.8111,0.105,-2.555,0.210,0.00,0.0184,0.0254,0.0200,0.0174,2025-06-09T13:50:26.802297
11655,-0.4646,0.4080,0.8101,0.315,-2.695,0.245,0.00,0.0368,0.0254,0.0100,0.0087,2025-06-09T13:50:26.802297
11656,-0.4636,0.4099,0.8111,0.350,-2.870,0.070,0.01,0.0184,0.1273,0.0200,0.0087,2025-06-09T13:50:26.948905
11657,-0.4616,0.4089,0.8076,0.140,-2.765,0.175,0.01,0.0184,0.0254,0.0300,0.0087,2025-06-09T13:50:26.948905
11658,-0.4651,0.4070,0.8086,0.455,-3.045,0.210,0.00,0.0368,0.0508,0.0100,0.0174,2025-06-09T13:50:26.948905
11659,-0.4660,0.4080,0.8111,0.385,-2.940,0.245,0.01,0.0184,0.0762,0.0100,0.0087,2025-06-09T13:50:26.948905
11660,-0.4646,0.4094,0.8111,0.560,-2.625,0.245,0.00,0.0184,0.0508,0.0200,0.0087,2025-06-09T13:50:26.948905
11661,-0.4616,0.4109,0.8106,0.630,-2.975,0.140,0.00,0.0184,0.0254,0.0100,0.0087,2025-06-09T13:50:26.948905
11662,-0.4631,0.4109,0.8120,0.350,-2.870,0.140,0.00,0.0000,0.0254,0.0300,0.0087,2025-06-09T13:50:26.948905
11663,-0.4636,0.4119,0.8111,0.070,-2.590,-0.105,0.00,0.0184,0.0254,0.0200,0.0087,2025-06-09T13:50:26.948905
11664,-0.4646,0.4114,0.8106,0.280,-2.835,0.105,0.00,0.0184,0.0254,0.0100,0.0087,2025-06-09T13:50:26.948905
11665,-0.4641,0.4104,0.8111,0.210,-2.905,0.070,0.00,0.0184,0.0254,0.0100,0.0174,2025-06-09T13:50:26.948905
11666,-0.4641,0.4119,0.8096,-0.035,-2.625,0.035,0.00,0.0368,0.0254,0.0200,0.0087,2025-06-09T13:50:26.948905
11667,-0.4626,0.4089,0.8096,0.420,-2.730,-0.070,0.01,0.0184,0.0254,0.0200,0.0000,2025-06-09T13:50:27.057615
11668,-0.4646,0.4099,0.8106,0.210,-2.485,0.175,0.01,0.0184,0.0508,0.0100,0.0087,2025-06-09T13:50:27.057615
11669,-0.4631,0.4085,0.8111,0.385,-2.590,0.210,0.00,0.0368,0.0254,0.0200,0.0087,2025-06-09T13:50:27.057615
11670,-0.4646,0.4104,0.8125,0.420,-2.835,0.175,0.00,0.0000,0.0254,0.0100,0.0087,2025-06-09T13:50:27.057615
11671,-0.4612,0.4075,0.8101,0.000,-2.870,0.105,0.00,0.0368,0.0254,0.0300,0.0087,2025-06-09T13:50:27.057615
11672,-0.4616,0.4094,0.8091,0.000,-2.870,0.035,0.01,0.0184,0.0254,0.0200,0.0087,2025-06-09T13:50:27.057615
11673,-0.4641,0.4094,0.8106,0.490,-2.765,0.140,0.00,0.0184,0.0000,0.0100,0.0087,2025-06-09T13:50:27.057615
11674,-0.4621,0.4119,0.8096,0.525,-2.555,0.140,0.00,0.0184,0.0254,0.0200,0.0174,2025-06-09T13:50:27.157348
11675,-0.4631,0.4109,0.8120,0.525,-2.730,0.140,0.00,0.0368,0.0000,0.0200,0.0174,2025-06-09T13:50:27.157348
11676,-0.4641,0.4133,0.8125,0.350,-2.905,0.070,0.00,0.0184,0.0254,0.0100,0.0174,2025-06-09T13:50:27.157348
11677,-0.4641,0.4094,0.8101,-0.140,-2.695,-0.070,0.01,0.0368,0.0762,0.0100,0.0262,2025-06-09T13:50:27.157348
11678,-0.4597,0.4094,0.8111,0.140,-2.940,-0.175,0.00,0.0368,0.3077,0.0100,0.0087,2025-06-09T13:50:27.158346
11679,-0.4577,0.4114,0.8086,0.315,-3.675,-0.385,0.01,0.0184,0.0254,0.0200,0.0087,2025-06-09T13:50:27.158346
11680,-0.4636,0.4104,0.8101,-0.315,-3.150,-0.245,0.00,0.0184,0.0254,0.0200,0.0087,2025-06-09T13:50:27.158346
11681,-0.4690,0.4119,0.8101,0.595,-2.660,0.175,0.00,0.0184,0.0254,0.0300,0.0087,2025-06-09T13:50:27.158346
11682,-0.4660,0.4124,0.8150,0.910,-2.660,0.210,0.00,0.0000,0.0508,0.0300,0.0087,2025-06-09T13:50:27.256114
11683,-0.4656,0.4119,0.8101,-8.820,-2.835,0.175,0.01,0.0368,0.0254,0.0100,0.0174,2025-06-09T13:50:27.256114
11684,-0.4621,0.4124,0.8101,-0.420,-3.290,-0.035,0.01,0.0368,0.0000,0.0401,0.0174,2025-06-09T13:50:27.256114
11685,-0.4646,0.4094,0.8101,-0.140,-2.905,0.000,0.01,0.0184,0.0508,0.0000,0.0174,2025-06-09T13:50:27.256114
11686,-0.4621,0.4094,0.8115,0.455,-2.450,0.035,0.00,0.0368,0.0508,0.0200,0.0087,2025-06-09T13:50:27.256114
11687,-0.4641,0.4109,0.8106,0.770,-2.485,0.280,0.00,0.0184,0.0254,0.0000,0.0174,2025-06-09T13:50:27.256114
11688,-0.4646,0.4119,0.8111,0.140,-2.730,0.245,0.00,0.0184,0.0254,0.0200,0.0087,2025-06-09T13:50:27.256114
11689,-0.4660,0.4109,0.8076,-0.070,-2.660,0.140,0.00,0.0184,0.0254,0.0200,0.0000,2025-06-09T13:50:27.256114
11690,-0.4651,0.4119,0.8086,0.350,-2.695,0.000,0.01,0.0368,0.0000,0.0200,0.0174,2025-06-09T13:50:27.358833
11691,-0.4631,0.4094,0.8081,0.175,-2.835,0.280,0.00,0.0184,0.0508,0.0100,0.0174,2025-06-09T13:50:27.358833
11692,-0.4641,0.4094,0.8081,0.070,-2.625,0.280,0.01,0.0184,0.0508,0.0100,0.0174,2025-06-09T13:50:27.358833
11693,-0.4636,0.4114,0.8096,0.630,-2.765,0.280,0.01,0.0184,0.0762,0.0200,0.0087,2025-06-09T13:50:27.358833
11694,-0.4641,0.4109,0.8111,0.490,-2.695,0.315,0.00,0.0368,0.0508,0.0000,0.0087,2025-06-09T13:50:27.358833
11695,-0.4641,0.4119,0.8076,0.245,-2.765,0.385,0.00,0.0368,0.0508,0.0100,0.0087,2025-06-09T13:50:27.358833
11696,-0.4616,0.4109,0.8111,0.385,-2.905,0.210,0.00,0.0184,0.0508,0.0100,0.0087,2025-06-09T13:50:27.358833
11697,-0.4607,0.4133,0.8115,0.175,-2.590,0.210,0.00,0.0368,0.0508,0.0100,0.0174,2025-06-09T13:50:27.418647
11698,-0.4616,0.4128,0.8106,0.245,-2.625,0.315,0.00,0.0184,0.0508,0.0200,0.0087,2025-06-09T13:50:27.418647
11699,-0.4621,0.4133,0.8111,0.595,-2.380,0.315,0.01,0.0184,0.0508,0.0300,0.0087,2025-06-09T13:50:27.418647
11700,-0.4651,0.4119,0.8101,0.280,-2.380,0.210,0.01,0.0184,0.0254,0.0200,0.0087,2025-06-09T13:50:27.418647
11701,-0.4631,0.4133,0.8125,0.000,-2.380,0.035,0.00,0.0184,0.0254,0.0200,0.0087,2025-06-09T13:50:27.564283
11702,-0.4636,0.4114,0.8111,0.000,-2.625,0.070,0.01,0.0368,0.0254,0.0200,0.0087,2025-06-09T13:50:27.564283
11703,-0.4631,0.4094,0.8106,-0.105,-2.625,0.000,0.01,0.0368,0.0254,0.0200,0.0087,2025-06-09T13:50:27.564283
11704,-0.4636,0.4104,0.8086,0.070,-2.450,0.035,0.01,0.0368,0.0254,0.0200,0.0087,2025-06-09T13:50:27.564283
11705,-0.4636,0.4119,0.8091,0.595,-2.520,0.210,0.00,0.0184,0.0508,0.0100,0.0087,2025-06-09T13:50:27.564283
11706,-0.4626,0.4128,0.8106,0.280,-2.450,0.175,0.00,0.0368,0.0254,0.0200,0.0087,2025-06-09T13:50:27.564283
11707,-0.4636,0.4133,0.8096,0.385,-2.415,0.140,0.00,0.0184,0.0254,0.0200,0.0174,2025-06-09T13:50:27.564283
11708,-0.4641,0.4114,0.8120,0.350,-2.240,0.175,0.01,0.0368,0.0254,0.0100,0.0087,2025-06-09T13:50:27.564283
11709,-0.4621,0.4114,0.8120,-0.210,-2.520,0.175,0.00,0.0184,0.0000,0.0100,0.0087,2025-06-09T13:50:27.564283
11710,-0.4621,0.4133,0.8086,0.070,-2.520,0.000,0.01,0.0368,0.0508,0.0200,0.0087,2025-06-09T13:50:27.564283
11711,-0.4660,0.4119,0.8086,0.175,-2.345,0.000,0.00,0.0184,0.0762,0.0200,0.0087,2025-06-09T13:50:27.564283
11712,-0.4631,0.4080,0.8106,-0.070,-2.170,0.245,0.01,0.0184,0.0254,0.0200,0.0087,2025-06-09T13:50:27.564283
11713,-0.4651,0.4104,0.8101,0.315,-2.695,0.385,0.00,0.0368,0.0254,0.0100,0.0087,2025-06-09T13:50:27.613129
11714,-0.4646,0.4114,0.8072,0.385,-2.835,0.420,0.00,0.0184,0.0254,0.0300,0.0087,2025-06-09T13:50:27.613129
11715,-0.4641,0.4099,0.8042,0.105,-2.975,0.315,0.01,0.0368,0.0254,0.0200,0.0174,2025-06-09T13:50:27.613129
11716,-0.4626,0.4109,0.8096,0.490,-3.360,0.420,0.01,0.0184,0.0508,0.0100,0.0087,2025-06-09T13:50:27.768713
11717,-0.4597,0.4099,0.8086,0.910,-3.325,0.595,0.00,0.0368,0.0508,0.0300,0.0174,2025-06-09T13:50:27.768713
11718,-0.4621,0.4114,0.8096,1.050,-3.255,0.735,0.01,0.0184,0.0254,0.0100,0.0174,2025-06-09T13:50:27.768713
11719,-0.4636,0.4133,0.8096,1.295,-3.185,0.595,0.00,0.0368,0.0254,0.0200,0.0087,2025-06-09T13:50:27.768713
11720,-0.4636,0.4138,0.8145,1.085,-3.045,0.630,0.00,0.0368,0.0000,0.0401,0.0087,2025-06-09T13:50:27.768713
11721,-0.4646,0.4163,0.8125,0.560,-3.010,0.490,0.00,0.0184,0.0254,0.0300,0.0087,2025-06-09T13:50:27.768713
11722,-0.4641,0.4168,0.8106,0.490,-3.185,0.420,0.00,0.0368,0.0254,0.0300,0.0087,2025-06-09T13:50:27.768713
11723,-0.4641,0.4138,0.8101,0.350,-3.150,0.350,0.00,0.0184,0.0508,0.0200,0.0087,2025-06-09T13:50:27.768713
11724,-0.4607,0.4124,0.8101,0.140,-3.290,0.280,0.00,0.0368,0.0254,0.0100,0.0087,2025-06-09T13:50:27.768713
11725,-0.4607,0.4119,0.8067,0.420,-3.360,0.210,0.00,0.0368,0.0254,0.0200,0.0087,2025-06-09T13:50:27.768713
11726,-0.4626,0.4114,0.8096,0.665,-3.045,0.350,0.00,0.0368,0.0508,0.0100,0.0087,2025-06-09T13:50:27.768713
11727,-0.4631,0.4124,0.8106,0.665,-2.835,0.420,0.00,0.0184,0.0254,0.0100,0.0087,2025-06-09T13:50:27.768713
11728,-0.4636,0.4143,0.8125,0.700,-2.835,0.420,0.00,0.0368,0.0508,0.0100,0.0174,2025-06-09T13:50:27.870471
11729,-0.4631,0.4138,0.8115,0.245,-2.660,0.175,0.00,0.0368,0.0508,0.0200,0.0087,2025-06-09T13:50:27.870471
11730,-0.4626,0.4148,0.8081,-0.245,-2.765,0.140,0.00,0.0368,0.0000,0.0200,0.0087,2025-06-09T13:50:27.870471
11731,-0.4626,0.4128,0.8096,-0.140,-2.975,0.035,0.01,0.0552,0.0508,0.0200,0.0174,2025-06-09T13:50:27.870471
11732,-0.4616,0.4133,0.8096,-0.245,-3.045,0.175,0.00,0.0184,0.0508,0.0300,0.0174,2025-06-09T13:50:27.870471
11733,-0.4592,0.4128,0.8115,0.070,-3.290,0.350,0.00,0.0184,0.0508,0.0200,0.0087,2025-06-09T13:50:27.870471
11734,-0.4690,0.4148,0.8164,1.645,-2.415,0.735,0.00,0.0368,0.0508,0.0200,0.0087,2025-06-09T13:50:27.870471
11735,-0.2157,0.2684,0.7081,-11.900,-30.030,13.860,0.00,0.0368,0.0508,0.0100,0.0174,2025-06-09T13:50:27.870471
11736,-0.3543,0.3553,0.8735,6.090,-21.490,3.990,0.01,0.0368,0.0762,0.0100,0.0087,2025-06-09T13:50:27.973300
11737,-0.4734,0.3050,0.6647,22.610,-9.940,1.785,0.01,0.0184,0.0254,0.0100,0.0087,2025-06-09T13:50:27.973300
11738,-0.5714,0.4534,0.8374,19.040,-0.350,-0.315,0.01,0.0368,0.0254,0.0100,0.0174,2025-06-09T13:50:27.973300
11739,-0.6617,0.7388,0.8501,15.610,8.365,-4.270,0.01,0.0368,0.0254,0.0200,0.0087,2025-06-09T13:50:27.973300
11740,-0.4202,0.1454,1.3283,23.940,23.520,0.700,0.00,0.0184,0.0254,0.0100,0.0087,2025-06-09T13:50:27.973300
11741,-0.5578,0.5109,0.8799,17.290,37.065,41.650,0.00,0.0184,0.0254,0.0200,0.0000,2025-06-09T13:50:27.973300
11742,-2.1926,0.2865,1.5255,37.800,191.240,-57.050,0.00,0.0184,0.0508,0.0000,0.0087,2025-06-09T13:50:27.973300
11743,-1.1390,0.3631,0.7642,33.810,256.970,-166.950,0.00,0.0184,0.0000,0.0200,0.0087,2025-06-09T13:50:28.078019
11744,-1.0067,0.6056,2.0994,-88.655,9.485,-135.625,0.01,0.0184,0.0508,0.0200,0.0174,2025-06-09T13:50:28.078019
11745,-1.5914,0.7471,1.4459,-142.310,-100.310,-46.515,0.00,0.0368,0.0508,0.0200,0.0087,2025-06-09T13:50:28.078019
11746,-1.4176,0.4304,1.2556,-286.300,-287.210,-35.595,0.00,0.0184,0.0254,0.0100,0.0174,2025-06-09T13:50:28.078019
11747,-1.3269,-0.2943,0.8623,-371.665,-320.460,-232.505,0.01,0.0184,0.0508,0.0200,0.0087,2025-06-09T13:50:28.078019
11748,-1.1893,-0.4802,0.4031,-445.620,-246.015,-348.145,0.00,0.0368,0.0254,0.0200,0.0174,2025-06-09T13:50:28.078019
11749,-1.4181,-0.3109,0.1713,-437.885,-149.065,-431.130,0.00,0.0184,0.0254,0.0100,0.0087,2025-06-09T13:50:28.078019
11750,-1.1165,-0.1928,0.1230,-322.700,-85.470,-506.135,0.00,0.0184,0.0254,0.0000,0.0087,2025-06-09T13:50:28.078019
11751,-0.5378,0.6486,0.9672,-201.495,-93.380,-507.710,0.00,0.0368,0.0254,0.0200,0.0087,2025-06-09T13:50:28.178773
11752,0.3289,0.8667,1.3078,-70.490,-153.160,-393.400,0.00,0.0000,0.0508,0.0100,0.0087,2025-06-09T13:50:28.178773
11753,0.1562,0.9536,0.8418,55.545,-155.995,-316.190,0.00,0.0184,0.0508,0.0200,0.0174,2025-06-09T13:50:28.178773
11754,0.5173,0.9448,0.4582,102.970,-87.570,-181.440,0.00,0.0184,0.0254,0.0200,0.0262,2025-06-09T13:50:28.178773
11755,0.7593,0.6969,0.0049,32.235,-22.225,-79.415,0.01,0.0184,0.0254,0.0200,0.0087,2025-06-09T13:50:28.178773
11756,0.5241,0.7266,0.2357,-61.530,83.405,24.640,0.00,0.0368,0.0508,0.0100,0.0087,2025-06-09T13:50:28.178773
11757,0.2923,1.0433,1.0414,-125.545,106.960,83.930,0.00,0.0184,0.0254,0.0100,0.0087,2025-06-09T13:50:28.178773
11758,0.6041,1.7866,1.4518,-76.335,27.790,224.490,0.01,0.0737,0.0254,0.0100,0.0087,2025-06-09T13:50:28.287458
11759,0.3709,2.3034,1.7207,46.130,-15.995,403.690,0.01,0.0368,0.0762,0.0200,0.0174,2025-06-09T13:50:28.287458
11760,0.2601,2.4629,1.9842,215.250,-60.445,620.515,0.01,0.0184,0.0254,0.0300,0.0087,2025-06-09T13:50:28.287458
11761,-0.3353,2.4659,1.4157,668.675,-25.200,827.155,0.01,0.0552,0.0000,0.0200,0.0174,2025-06-09T13:50:28.287458
11762,-1.3635,1.2205,0.2630,1013.145,203.420,787.290,0.01,0.0368,0.0508,0.0100,0.0087,2025-06-09T13:50:28.287458
11763,-3.0607,-0.0298,-1.4123,1121.155,-95.725,878.570,0.00,0.0184,0.0762,0.0100,0.0087,2025-06-09T13:50:28.287458
11764,-4.4359,-3.3677,-0.1069,591.255,251.055,-44.170,0.01,0.0184,0.0254,0.0200,0.0087,2025-06-09T13:50:28.287458
11765,-1.2263,-2.9944,4.2661,-139.895,185.710,-426.335,0.00,0.0000,0.0508,0.0100,0.0087,2025-06-09T13:50:28.287458
11766,-1.0594,0.1723,5.4212,-225.645,5.390,-127.120,0.00,0.0368,0.0762,0.0200,0.0087,2025-06-09T13:50:28.339348
11767,-1.7778,-0.4646,5.0425,-84.490,215.390,-104.895,0.01,0.0184,0.0254,0.0200,0.0087,2025-06-09T13:50:28.339348
11768,-4.4945,-1.7466,2.0921,-449.260,441.595,-147.385,0.01,0.0368,0.0508,0.0200,0.0087,2025-06-09T13:50:28.339348
11769,-2.8011,-1.3264,-0.1645,-622.615,-528.220,-2.590,0.00,0.0368,0.0000,0.0200,0.0087,2025-06-09T13:50:28.339348
11770,-2.5317,1.6899,1.1048,-962.465,-387.135,-898.835,0.01,0.0368,0.0508,0.0200,0.0174,2025-06-09T13:50:28.386194
11771,-0.6149,2.7875,1.3479,-852.145,-429.940,-1061.935,0.00,0.0184,0.0508,0.0100,0.0087,2025-06-09T13:50:28.386194
11772,0.6124,3.3867,1.4894,-117.845,-390.635,-674.380,0.01,0.0368,0.0254,0.0300,0.0174,2025-06-09T13:50:28.386194
11773,1.4035,4.4789,0.9453,795.025,-617.820,-146.265,0.00,0.0368,0.0254,0.0100,0.0087,2025-06-09T13:50:28.434065
11774,1.7636,5.0689,-2.0550,484.785,-201.845,157.745,0.01,0.0184,0.0254,0.0200,0.0087,2025-06-09T13:50:28.434065
11775,1.3928,4.6726,-1.2464,-108.990,243.180,480.305,0.00,0.0184,0.0508,0.0100,0.0174,2025-06-09T13:50:28.434065
11776,0.0937,3.9767,-0.3299,186.270,355.145,761.810,0.00,0.0184,0.0254,0.0100,0.0087,2025-06-09T13:50:28.434065
11777,-1.4279,2.7494,-0.4407,1023.505,516.530,862.715,0.00,0.0368,0.0508,0.0200,0.0174,2025-06-09T13:50:28.941709
11778,-3.0798,-0.1806,-1.1302,1145.620,999.425,280.035,0.00,0.0368,0.0508,0.0000,0.0000,2025-06-09T13:50:28.941709
11779,-3.3516,-4.2036,0.2211,1039.850,300.475,256.970,0.00,0.0368,0.2301,0.0300,0.0174,2025-06-09T13:50:28.941709
11780,-5.1250,0.6564,6.4684,394.135,-43.540,51.240,0.01,0.0368,0.0254,0.0200,0.0174,2025-06-09T13:50:28.941709
11781,-2.5859,-0.2889,6.8154,-509.285,75.005,-188.895,0.00,0.0184,0.0254,0.0300,0.0087,2025-06-09T13:50:28.942707
11782,-3.6263,-1.6377,5.0332,-545.720,116.375,-214.830,0.00,0.0368,0.0254,0.0200,0.0087,2025-06-09T13:50:28.942707
11783,-3.8196,-2.2653,1.1590,-763.385,-473.970,-384.475,0.00,0.0368,0.0508,0.0100,0.0087,2025-06-09T13:50:28.942707
11784,-2.0398,1.0878,0.0883,-952.420,-372.855,-790.230,0.00,0.0184,0.0508,0.0200,0.0087,2025-06-09T13:50:28.942707
11785,-0.6232,2.5923,2.1355,-1034.495,-225.540,-1031.660,0.00,0.0000,0.0254,0.0100,0.0087,2025-06-09T13:50:28.942707
11786,0.6305,3.9811,2.0725,-639.660,-320.670,-727.510,0.00,0.0368,0.0254,0.0200,0.0087,2025-06-09T13:50:28.942707
11787,1.3059,4.8053,2.2028,338.450,-384.685,-239.820,0.00,0.0184,0.0254,0.0300,0.0087,2025-06-09T13:50:28.942707
11788,1.8154,5.0606,1.1190,561.050,-155.015,167.720,0.00,0.0184,0.0508,0.0000,0.0087,2025-06-09T13:50:28.942707
11789,1.3913,4.5784,-0.4348,223.370,161.945,509.075,0.00,0.0184,0.0508,0.0300,0.0000,2025-06-09T13:50:28.942707
11790,-0.4226,2.9051,-0.1166,334.530,299.180,722.785,0.00,0.0184,0.0254,0.0200,0.0087,2025-06-09T13:50:28.942707
11791,-1.6260,1.3669,-0.4382,904.015,290.220,752.010,0.00,0.0184,0.0508,0.0200,0.0174,2025-06-09T13:50:28.942707
11792,-2.8763,-1.1414,-1.0053,800.660,541.590,446.215,0.00,0.0184,0.0508,0.0100,0.0087,2025-06-09T13:50:28.942707
11793,-3.1208,-0.6974,2.4161,624.645,339.640,323.925,0.01,0.0368,0.0762,0.0100,0.0087,2025-06-09T13:50:28.942707
11794,-1.5401,-0.7871,2.6669,419.300,253.190,47.670,0.01,0.0184,0.0254,0.0300,0.0087,2025-06-09T13:50:28.942707
11795,-0.9672,-1.1409,2.4903,-205.485,110.635,-358.645,0.01,0.0368,0.0508,0.0501,0.0087,2025-06-09T13:50:28.942707
11796,-0.9872,-0.2416,2.1433,-340.620,-124.635,-85.435,0.00,0.0184,0.0254,0.0300,0.0087,2025-06-09T13:50:28.942707
11797,-0.4270,-0.1488,1.5987,-213.570,-68.530,-113.645,0.00,0.0184,0.0000,0.0200,0.0174,2025-06-09T13:50:28.942707
11798,-0.3021,0.1566,0.8984,-219.485,-0.175,-181.930,0.01,0.0184,0.0508,0.0200,0.0087,2025-06-09T13:50:28.942707
11799,-0.4070,0.4128,0.7403,-197.260,92.890,-207.585,0.01,0.0184,0.0000,0.0200,0.0087,2025-06-09T13:50:28.942707
11800,-0.5388,0.7588,0.7422,-137.935,161.910,-159.005,0.00,0.0184,0.0254,0.0100,0.0087,2025-06-09T13:50:28.942707
11801,-0.7340,1.0287,1.0209,36.470,202.370,-81.095,0.01,0.0184,0.0254,0.0200,0.0087,2025-06-09T13:50:28.942707
11802,-0.8506,1.2005,1.1795,137.725,174.370,-12.005,0.00,0.0184,0.0254,0.0200,0.0087,2025-06-09T13:50:28.942707
11803,-0.8257,1.1946,1.1658,124.985,67.655,44.275,0.00,0.0368,0.0254,0.0200,0.0174,2025-06-09T13:50:28.942707
11804,-0.7832,1.0014,1.0243,32.340,-47.180,63.210,0.01,0.0184,0.0508,0.0100,0.0174,2025-06-09T13:50:28.942707
11805,-0.6559,0.7520,0.8501,-55.230,-138.110,53.200,0.00,0.0368,0.0254,0.0200,0.0087,2025-06-09T13:50:28.942707
11806,-0.4699,0.4514,0.5963,-70.840,-156.310,43.400,0.01,0.0184,0.0508,0.0200,0.0087,2025-06-09T13:50:28.942707
11807,-0.2943,0.2752,0.4675,-49.140,-118.755,30.485,0.01,0.0552,0.0254,0.0200,0.0087,2025-06-09T13:50:28.942707
11808,-0.1869,0.1864,0.4016,-9.450,-61.600,16.240,0.00,0.0184,0.0254,0.0100,0.0087,2025-06-09T13:50:28.942707
11809,-0.1635,0.1410,0.4075,19.425,10.010,-0.525,0.00,0.0184,0.0254,0.0200,0.0087,2025-06-09T13:50:28.942707
11810,-0.2015,0.1952,0.4763,43.365,61.985,-11.515,0.01,0.0184,0.0762,0.0200,0.0087,2025-06-09T13:50:28.942707
11811,-0.3113,0.3665,0.5900,65.765,98.525,-21.455,0.01,0.0368,0.0762,0.0000,0.0087,2025-06-09T13:50:28.942707
11812,-0.3865,0.4587,0.6403,83.160,111.265,-34.335,0.00,0.0184,0.0508,0.0200,0.0174,2025-06-09T13:50:28.942707
11813,-0.4255,0.5563,0.6974,75.705,97.020,-42.805,0.01,0.0368,0.0508,0.0200,0.0087,2025-06-09T13:50:29.113273
11814,-0.7613,0.1484,0.9331,40.950,49.595,-18.165,0.01,0.0368,0.0254,0.0100,0.0087,2025-06-09T13:50:29.113273
11815,-0.8452,0.4690,1.3225,14.035,4.445,-59.360,0.00,0.0368,0.0254,0.0100,0.0087,2025-06-09T13:50:29.113273
11816,-0.5895,0.5051,0.8272,-93.695,-67.865,-58.170,0.00,0.0368,0.0254,0.0200,0.0174,2025-06-09T13:50:29.113273
11817,-0.6651,0.6085,0.8916,-118.055,-82.285,-46.760,0.01,0.0368,0.0508,0.0200,0.0174,2025-06-09T13:50:29.113273
11818,-0.2582,0.6105,0.8603,-37.730,-54.460,-33.530,0.00,0.0184,0.0254,0.0100,0.0174,2025-06-09T13:50:29.113273
11819,-0.1859,0.4734,0.7959,41.755,-49.630,-26.215,0.00,0.0368,0.0254,0.0200,0.0087,2025-06-09T13:50:29.113273
11820,-0.3113,0.2645,0.5890,28.035,-88.165,-29.085,0.00,0.0184,0.0254,0.0200,0.0087,2025-06-09T13:50:29.113273
11821,-0.5841,0.1191,0.5871,-29.330,-72.590,-35.315,0.00,0.0184,0.0254,0.0100,0.0087,2025-06-09T13:50:29.113273
11822,-0.7496,0.3104,0.8657,-25.550,-33.740,-47.915,0.00,0.0368,0.0508,0.0200,0.0174,2025-06-09T13:50:29.113273
11823,-0.5485,0.2137,0.9745,-2.135,24.150,-57.365,0.01,0.0184,0.1018,0.0100,0.0087,2025-06-09T13:50:29.113273
11824,-0.5510,0.4729,0.8423,-3.115,24.675,-35.735,0.00,0.0184,0.0254,0.0100,0.0087,2025-06-09T13:50:29.113273
11825,-0.5553,0.5583,0.9623,3.220,15.295,-22.820,0.00,0.0184,0.0254,0.0100,0.0174,2025-06-09T13:50:29.114270
11826,-0.6490,0.6651,0.8325,7.735,3.255,7.490,0.01,0.0368,0.1529,0.0200,0.0087,2025-06-09T13:50:29.114270
11827,-0.5588,0.6290,0.7042,6.825,-5.705,2.415,0.00,0.0000,0.0254,0.0200,0.0087,2025-06-09T13:50:29.164137
11828,-0.5929,0.5368,0.7222,-5.285,-3.430,-4.025,0.00,0.0184,0.0508,0.0000,0.0000,2025-06-09T13:50:29.164137
11829,-0.5187,0.4451,0.7803,-14.105,-9.275,-14.245,0.01,0.0368,0.0762,0.0200,0.0174,2025-06-09T13:50:29.164137
11830,-0.5061,0.3748,0.8096,-20.825,-7.280,-13.895,0.01,0.0368,0.0254,0.0100,0.0087,2025-06-09T13:50:29.164137
11831,-0.4577,0.3475,0.8379,-9.695,-5.880,-0.700,0.00,0.0184,0.0254,0.0200,0.0087,2025-06-09T13:50:29.303738
11832,-0.4548,0.3567,0.7681,12.005,-0.490,7.000,0.00,0.0368,0.0254,0.0200,0.0174,2025-06-09T13:50:29.303738
11833,-0.4934,0.4065,0.7627,13.300,3.150,6.335,0.01,0.0368,0.0000,0.0200,0.0087,2025-06-09T13:50:29.303738
11834,-0.5168,0.4250,0.7896,4.690,0.490,0.350,0.00,0.0368,0.0508,0.0100,0.0087,2025-06-09T13:50:29.303738
11835,-0.5139,0.4324,0.8296,-4.655,-3.220,-2.695,0.00,0.0184,0.0254,0.0200,0.0087,2025-06-09T13:50:29.303738
11836,-0.5104,0.4089,0.8101,-4.305,-5.320,-0.945,0.00,0.0184,0.0508,0.0100,0.0174,2025-06-09T13:50:29.303738
11837,-0.4870,0.3831,0.7847,-0.980,-3.815,0.350,0.00,0.0184,0.0508,0.0200,0.0087,2025-06-09T13:50:29.303738
11838,-0.4856,0.3894,0.7681,1.435,-1.435,0.595,0.00,0.0184,0.0254,0.0200,0.0087,2025-06-09T13:50:29.303738
11839,-0.4987,0.4046,0.7876,2.310,0.140,0.560,0.00,0.0368,0.0254,0.0200,0.0174,2025-06-09T13:50:29.303738
11840,-0.5046,0.4124,0.8120,1.610,-1.435,0.385,0.00,0.0184,0.0508,0.0200,0.0174,2025-06-09T13:50:29.303738
11841,-0.5065,0.4089,0.8072,-0.840,-2.940,0.280,0.01,0.0184,0.0508,0.0200,0.0174,2025-06-09T13:50:29.358595
11842,-0.4997,0.4021,0.7837,-1.715,-3.395,-0.210,0.01,0.0368,0.0508,0.0200,0.0087,2025-06-09T13:50:29.358595
11843,-0.4914,0.3933,0.7808,-0.385,-2.310,-0.105,0.01,0.0368,0.0508,0.0200,0.0087,2025-06-09T13:50:29.358595
11844,-0.4943,0.3948,0.7925,1.085,-1.470,0.455,0.01,0.0184,0.0254,0.0200,0.0087,2025-06-09T13:50:29.358595
11845,-0.5026,0.4036,0.8023,1.435,-1.575,0.770,0.01,0.0368,0.0254,0.0100,0.0087,2025-06-09T13:50:29.508479
11846,-0.5012,0.4094,0.7964,0.525,-2.415,0.420,0.00,0.0184,0.0254,0.0200,0.0087,2025-06-09T13:50:29.508479
11847,-0.4997,0.4046,0.7901,-0.805,-2.625,-0.035,0.00,0.0368,0.0508,0.0300,0.0087,2025-06-09T13:50:29.508479
11848,-0.4978,0.3997,0.7896,-0.525,-2.345,-0.175,0.00,0.0368,0.0254,0.0200,0.0087,2025-06-09T13:50:29.508479
11849,-0.4978,0.4002,0.7915,0.245,-2.135,0.280,0.00,0.0368,0.0508,0.0200,0.0087,2025-06-09T13:50:29.508479
11850,-0.4992,0.4026,0.7945,0.805,-1.960,0.490,0.00,0.0184,0.0508,0.0200,0.0087,2025-06-09T13:50:29.508479
11851,-0.4978,0.4036,0.7910,0.525,-2.205,0.350,0.00,0.0368,0.0254,0.0100,0.0000,2025-06-09T13:50:29.508479
11852,-0.5007,0.4050,0.7925,0.035,-2.590,0.035,0.01,0.0368,0.0000,0.0100,0.0174,2025-06-09T13:50:29.508479
11853,-0.4982,0.4026,0.7925,-0.175,-2.625,0.105,0.00,0.0184,0.0508,0.0200,0.0087,2025-06-09T13:50:29.508479
11854,-0.4997,0.4002,0.7915,0.315,-2.590,0.245,0.00,0.0184,0.0254,0.0300,0.0087,2025-06-09T13:50:29.508479
11855,-0.4978,0.3997,0.7910,0.595,-2.450,0.490,0.00,0.0184,0.0508,0.0200,0.0174,2025-06-09T13:50:29.508479
11856,-0.4987,0.4046,0.7896,0.560,-2.415,0.420,0.01,0.0368,0.0762,0.0300,0.0087,2025-06-09T13:50:29.611205
11857,-0.4987,0.4050,0.7925,0.350,-2.555,0.420,0.01,0.0184,0.0762,0.0200,0.0087,2025-06-09T13:50:29.611205
11858,-0.5002,0.4041,0.7930,0.315,-2.765,0.315,0.01,0.0184,0.0508,0.0200,0.0087,2025-06-09T13:50:29.611205
11859,-0.4987,0.4050,0.7915,0.245,-2.765,0.350,0.01,0.0184,0.0508,0.0300,0.0174,2025-06-09T13:50:29.611205
11860,-0.4992,0.4041,0.7925,0.525,-2.625,0.385,0.00,0.0000,0.0254,0.0300,0.0087,2025-06-09T13:50:29.611205
11861,-0.5002,0.4046,0.7920,0.525,-2.625,0.350,0.00,0.0184,0.0762,0.0100,0.0087,2025-06-09T13:50:29.611205
11862,-0.4992,0.4011,0.7935,0.525,-2.695,0.315,0.01,0.0368,0.0508,0.0401,0.0087,2025-06-09T13:50:29.611205
11863,-0.4978,0.4016,0.7915,0.385,-2.835,0.210,0.00,0.0184,0.0254,0.0300,0.0087,2025-06-09T13:50:29.611205
11864,-0.3753,0.4016,0.7906,0.280,-3.080,0.455,0.01,0.0184,0.0254,0.0100,0.0174,2025-06-09T13:50:29.716920
11865,-0.4943,0.4031,0.7915,0.525,-3.150,0.420,0.00,0.0368,0.0254,0.0100,0.0087,2025-06-09T13:50:29.716920
11866,-0.4982,0.4055,0.7915,0.595,-2.660,0.455,0.01,0.0368,0.0508,0.0000,0.0087,2025-06-09T13:50:29.716920
11867,-0.4992,0.4065,0.7945,0.805,-2.450,0.385,0.01,0.0368,0.0762,0.0200,0.0174,2025-06-09T13:50:29.716920
11868,-0.4982,0.4070,0.7959,0.455,-2.450,0.350,0.00,0.0368,0.0254,0.0200,0.0087,2025-06-09T13:50:29.716920
11869,-0.5017,0.4070,0.7915,-0.070,-2.555,0.140,0.00,0.0184,0.0254,0.0200,0.0087,2025-06-09T13:50:29.716920
11870,-0.4968,0.4036,0.7920,-0.350,-2.345,-0.140,0.00,0.0368,0.0254,0.0200,0.0087,2025-06-09T13:50:29.716920
11871,-0.4987,0.4031,0.7915,-0.105,-2.450,0.000,0.00,0.0368,0.0508,0.0300,0.0174,2025-06-09T13:50:29.716920
11872,-0.4987,0.4021,0.7906,0.385,-2.310,0.315,0.00,0.0368,0.0254,0.0300,0.0087,2025-06-09T13:50:29.830709
11873,-0.5022,0.4050,0.7906,0.490,-2.310,0.245,0.01,0.0184,0.0000,0.0000,0.0174,2025-06-09T13:50:29.830709
11874,-0.4997,0.4075,0.7940,0.280,-2.590,0.175,0.00,0.0368,0.0508,0.0200,0.0174,2025-06-09T13:50:29.830709
11875,-0.5002,0.4036,0.7925,0.175,-2.730,0.140,0.00,0.0184,0.0508,0.0300,0.0087,2025-06-09T13:50:29.830709
11876,-0.4997,0.4046,0.7920,0.245,-2.590,0.350,0.00,0.0184,0.0508,0.0200,0.0087,2025-06-09T13:50:29.830709
11877,-0.4982,0.4036,0.7910,0.490,-2.625,0.175,0.00,0.0184,0.0508,0.0100,0.0087,2025-06-09T13:50:29.830709
11878,-0.5007,0.4036,0.7896,0.385,-2.485,0.245,0.00,0.0184,0.0254,0.0300,0.0087,2025-06-09T13:50:29.830709
11879,-0.4997,0.4065,0.7910,0.350,-2.520,0.140,0.00,0.0184,0.0508,0.0200,0.0087,2025-06-09T13:50:29.830709
11880,-0.4997,0.4055,0.7901,0.245,-2.625,0.070,0.00,0.0184,0.0000,0.0200,0.0087,2025-06-09T13:50:30.025191
11881,-0.5002,0.4070,0.7910,0.035,-2.520,0.105,0.01,0.0368,0.0254,0.0200,0.0087,2025-06-09T13:50:30.025191
11882,-0.5012,0.4060,0.7910,0.175,-2.520,0.035,0.01,0.0368,0.0762,0.0100,0.0087,2025-06-09T13:50:30.025191
11883,-0.5017,0.4046,0.7910,0.210,-2.555,0.140,0.00,0.0184,0.0508,0.0300,0.0174,2025-06-09T13:50:30.025191
11884,-0.5012,0.4055,0.7906,0.210,-2.555,0.140,0.01,0.0368,0.0508,0.0200,0.0087,2025-06-09T13:50:30.025191
11885,-0.5012,0.4060,0.7906,0.175,-2.730,0.210,0.01,0.0184,0.0254,0.0200,0.0087,2025-06-09T13:50:30.025191
11886,-0.4997,0.4041,0.7925,0.105,-2.765,0.175,0.00,0.0184,0.0254,0.0300,0.0087,2025-06-09T13:50:30.025191
11887,-0.4963,0.4065,0.7920,0.210,-2.695,0.175,0.00,0.0368,0.0254,0.0300,0.0087,2025-06-09T13:50:30.025191
11888,-0.4997,0.4046,0.7925,0.175,-2.590,0.315,0.00,0.0184,0.0254,0.0200,0.0087,2025-06-09T13:50:30.025191
11889,-0.4992,0.4070,0.7910,0.350,-2.660,0.210,0.00,0.0368,0.0508,0.0200,0.0087,2025-06-09T13:50:30.025191
11890,-0.4997,0.4055,0.7896,0.245,-2.555,0.210,0.00,0.0368,0.0254,0.0100,0.0087,2025-06-09T13:50:30.025191
11891,-0.4978,0.4065,0.7886,0.210,-2.520,0.210,0.00,0.0368,0.0508,0.0200,0.0087,2025-06-09T13:50:30.025191
11892,-0.5012,0.4060,0.7906,0.175,-2.695,0.175,0.00,0.0184,0.0254,0.0100,0.0087,2025-06-09T13:50:30.025191
11893,-0.4982,0.4041,0.7910,0.210,-2.625,0.105,0.00,0.0184,0.0508,0.0200,0.0087,2025-06-09T13:50:30.025191
11894,-0.5002,0.4060,0.7896,0.315,-2.590,0.245,0.00,0.0184,0.0254,0.0300,0.0087,2025-06-09T13:50:30.124921
11895,-0.5007,0.4055,0.7920,0.280,-2.660,0.175,0.01,0.0368,0.0508,0.0200,0.0087,2025-06-09T13:50:30.124921
11896,-0.4973,0.4070,0.7915,0.315,-2.520,0.175,0.01,0.0368,0.0000,0.0200,0.0087,2025-06-09T13:50:30.124921
11897,-0.5012,0.4075,0.7906,0.280,-2.555,0.210,0.01,0.0368,0.0254,0.0100,0.0087,2025-06-09T13:50:30.124921
11898,-0.4992,0.4075,0.7886,0.105,-2.625,0.210,0.01,0.0368,0.0254,0.0100,0.0087,2025-06-09T13:50:30.124921
11899,-0.4987,0.4031,0.7896,0.105,-2.625,0.105,0.00,0.0184,0.0254,0.0200,0.0087,2025-06-09T13:50:30.124921
11900,-0.4992,0.4065,0.7920,0.140,-2.485,0.175,0.00,0.0184,0.0254,0.0000,0.0087,2025-06-09T13:50:30.124921
11901,-0.4973,0.4050,0.7906,0.175,-2.590,0.140,0.00,0.0184,0.0254,0.0200,0.0087,2025-06-09T13:50:30.124921
11902,-0.4997,0.4050,0.7906,0.175,-2.590,0.245,0.01,0.0368,0.0508,0.0300,0.0087,2025-06-09T13:50:30.224655
11903,-0.5007,0.4046,0.7881,0.000,-2.590,0.210,0.01,0.0184,0.0254,0.0100,0.0087,2025-06-09T13:50:30.224655
11904,-0.5017,0.4070,0.7910,0.175,-2.660,0.210,0.01,0.0184,0.0254,0.0200,0.0087,2025-06-09T13:50:30.224655
11905,-0.4997,0.4075,0.7940,0.280,-2.590,0.210,0.01,0.0368,0.1018,0.0300,0.0174,2025-06-09T13:50:30.224655
11906,-0.4982,0.4065,0.7901,0.175,-2.660,0.175,0.01,0.0368,0.0508,0.0300,0.0000,2025-06-09T13:50:30.224655
11907,-0.4987,0.4070,0.7906,0.210,-2.695,0.175,0.00,0.0368,0.0508,0.0100,0.0174,2025-06-09T13:50:30.225653
11908,-0.4978,0.4065,0.7896,0.385,-2.520,0.105,0.00,0.0184,0.0508,0.0100,0.0087,2025-06-09T13:50:30.225653
11909,-0.5026,0.4050,0.7915,0.245,-2.555,0.175,0.00,0.0368,0.0254,0.0200,0.0087,2025-06-09T13:50:30.225653
11910,-0.5017,0.4065,0.7901,0.140,-2.660,0.175,0.00,0.0000,0.0508,0.0200,0.0174,2025-06-09T13:50:30.328376
11911,-0.5017,0.4080,0.7910,0.070,-2.660,0.140,0.00,0.0184,0.0508,0.0200,0.0087,2025-06-09T13:50:30.328376
11912,-0.5017,0.4070,0.7906,0.035,-2.555,0.245,0.00,0.0368,0.0762,0.0100,0.0087,2025-06-09T13:50:30.328376
11913,-0.4992,0.4065,0.7896,0.140,-2.765,0.140,0.01,0.0368,0.0762,0.0401,0.0087,2025-06-09T13:50:30.328376
11914,-0.5017,0.4055,0.7906,0.175,-2.555,0.210,0.00,0.0184,0.0000,0.0200,0.0087,2025-06-09T13:50:30.328376
11915,-0.4992,0.4055,0.7881,0.175,-2.555,0.105,0.00,0.0184,0.0254,0.0200,0.0000,2025-06-09T13:50:30.328376
11916,-0.4987,0.4055,0.7891,0.210,-2.660,0.245,0.00,0.0184,0.0254,0.0200,0.0087,2025-06-09T13:50:30.328376
11917,-0.4997,0.4065,0.7910,0.280,-2.625,0.210,0.01,0.0184,0.0254,0.0401,0.0087,2025-06-09T13:50:30.431101
11918,-0.4997,0.4050,0.7901,0.210,-2.520,0.175,0.01,0.0368,0.0254,0.0200,0.0087,2025-06-09T13:50:30.431101
11919,-0.5002,0.4075,0.7901,0.385,-2.625,0.245,0.01,0.0184,0.0254,0.0200,0.0087,2025-06-09T13:50:30.431101
11920,-0.5002,0.4055,0.7915,0.280,-2.450,0.245,0.01,0.0368,0.0508,0.0300,0.0087,2025-06-09T13:50:30.431101
11921,-0.5002,0.4065,0.7915,0.245,-2.520,0.315,0.01,0.0184,0.0254,0.0200,0.0087,2025-06-09T13:50:30.431101
11922,-0.5002,0.4070,0.7896,0.245,-2.800,0.210,0.00,0.0184,0.0508,0.0100,0.0087,2025-06-09T13:50:30.431101
11923,-0.4992,0.4070,0.7901,0.245,-2.590,0.280,0.00,0.0184,0.0254,0.0200,0.0087,2025-06-09T13:50:30.431101
11924,-0.5017,0.4070,0.7886,0.175,-2.520,0.140,0.00,0.0184,0.0254,0.0200,0.0087,2025-06-09T13:50:30.431101
11925,-0.4997,0.4070,0.7901,0.175,-2.695,0.105,0.01,0.0368,0.0254,0.0200,0.0087,2025-06-09T13:50:30.534825
11926,-0.4982,0.4041,0.7906,-0.070,-2.590,0.140,0.01,0.0000,0.0254,0.0300,0.0174,2025-06-09T13:50:30.534825
11927,-0.4992,0.4050,0.7886,0.000,-2.625,0.175,0.01,0.0000,0.0254,0.0100,0.0087,2025-06-09T13:50:30.722324
11928,-0.4992,0.4070,0.7871,0.210,-2.590,0.105,0.01,0.0368,0.0508,0.0200,0.0087,2025-06-09T13:50:30.722324
11929,-0.4997,0.4060,0.7915,0.420,-2.520,0.175,0.01,0.0368,0.0508,0.0200,0.0087,2025-06-09T13:50:30.722324
11930,-0.5007,0.4065,0.7915,0.280,-2.520,0.210,0.01,0.0184,0.0508,0.0100,0.0087,2025-06-09T13:50:30.722324
11931,-0.4997,0.4080,0.7896,0.105,-2.765,0.105,0.00,0.0184,0.0000,0.0100,0.0087,2025-06-09T13:50:30.722324
11932,-0.5017,0.4075,0.7901,-0.105,-2.765,0.175,0.00,0.0368,0.0254,0.0200,0.0000,2025-06-09T13:50:30.722324
11933,-0.4987,0.4050,0.7896,-0.105,-2.660,0.175,0.00,0.0184,0.0254,0.0804,0.0087,2025-06-09T13:50:30.722324
11934,-0.4992,0.4050,0.7886,0.350,-2.625,0.140,0.00,0.0184,0.0254,0.0100,0.0087,2025-06-09T13:50:30.722324
11935,-0.5007,0.4065,0.7896,0.350,-2.450,0.315,0.01,0.0184,0.0508,0.0200,0.0087,2025-06-09T13:50:30.722324
11936,-0.4997,0.4094,0.7910,0.280,-2.450,0.175,0.01,0.0368,0.2043,0.0300,0.0087,2025-06-09T13:50:30.722324
11937,-0.5017,0.4070,0.7915,0.070,-2.730,0.105,0.00,0.0184,0.0254,0.0200,0.0087,2025-06-09T13:50:30.722324
11938,-0.5012,0.4065,0.7891,-0.175,-2.660,0.105,0.00,0.0184,0.0508,0.0200,0.0087,2025-06-09T13:50:30.722324
11939,-0.5002,0.4070,0.7896,0.140,-2.520,0.105,0.01,0.0368,0.0508,0.0000,0.0087,2025-06-09T13:50:30.722324
11940,-0.5002,0.4075,0.7901,0.280,-2.625,0.210,0.00,0.0368,0.0000,0.0300,0.0087,2025-06-09T13:50:30.737283
11941,-0.5017,0.4075,0.7896,0.070,-2.520,0.210,0.01,0.0184,0.0508,0.0200,0.0174,2025-06-09T13:50:30.737283
11942,-0.4997,0.4070,0.7891,0.105,-2.625,0.210,0.00,0.0368,0.0508,0.0200,0.0000,2025-06-09T13:50:30.738280
11943,-0.4992,0.4055,0.7901,0.280,-2.695,0.140,0.00,0.0368,0.0508,0.0200,0.0087,2025-06-09T13:50:30.738280
11944,-0.5002,0.4080,0.7910,0.175,-2.520,0.210,0.01,0.0552,0.0762,0.0200,0.0087,2025-06-09T13:50:30.738280
11945,-0.4992,0.4046,0.7906,0.175,-2.695,0.210,0.00,0.0184,0.0254,0.0100,0.0087,2025-06-09T13:50:30.738280
11946,-0.4978,0.4080,0.7886,0.210,-2.800,0.140,0.00,0.0184,0.0254,0.0200,0.0087,2025-06-09T13:50:30.738280
11947,-0.4987,0.4065,0.7886,0.140,-2.485,0.245,0.01,0.0184,0.0000,0.0100,0.0087,2025-06-09T13:50:30.738280
11948,-0.5012,0.4080,0.7906,0.315,-2.555,0.210,0.01,0.0000,0.1529,0.0100,0.0087,2025-06-09T13:50:30.840007
11949,-0.4997,0.4060,0.7910,0.350,-2.695,0.280,0.01,0.0368,0.0508,0.0200,0.0087,2025-06-09T13:50:30.840007
11950,-0.5007,0.4065,0.7891,0.000,-2.660,0.210,0.01,0.0368,0.0508,0.0300,0.0087,2025-06-09T13:50:30.840007
11951,-0.5012,0.4070,0.7886,0.000,-2.625,0.070,0.01,0.0184,0.0508,0.0200,0.0174,2025-06-09T13:50:30.840007
11952,-0.5017,0.4075,0.7915,0.245,-2.625,0.175,0.00,0.0184,0.0000,0.0200,0.0087,2025-06-09T13:50:30.840007
11953,-0.5007,0.4075,0.7906,0.210,-2.555,0.210,0.00,0.0184,0.0000,0.0200,0.0087,2025-06-09T13:50:30.840007
11954,-0.4992,0.4085,0.7891,0.175,-2.730,0.175,0.00,0.0368,0.0254,0.0200,0.0174,2025-06-09T13:50:30.840007
11955,-0.4997,0.4065,0.7881,0.035,-2.835,0.105,0.00,0.0184,0.0254,0.0200,0.0174,2025-06-09T13:50:30.840007
11956,-0.5002,0.4065,0.7886,0.175,-2.660,0.140,0.01,0.0368,0.0254,0.0100,0.0087,2025-06-09T13:50:30.918797
11957,-0.5007,0.4055,0.7896,0.245,-2.695,0.245,0.01,0.0368,0.0254,0.0200,0.0174,2025-06-09T13:50:30.918797
11958,-0.5022,0.4065,0.7906,0.315,-2.765,0.280,0.00,0.0368,0.0508,0.0200,0.0087,2025-06-09T13:50:30.918797
11959,-0.5002,0.4099,0.7896,0.140,-2.695,0.140,0.00,0.0368,0.0762,0.0200,0.0174,2025-06-09T13:50:30.918797
11960,-0.4987,0.4065,0.7906,0.280,-2.695,0.140,0.00,0.0368,0.0508,0.0200,0.0087,2025-06-09T13:50:31.044486
11961,-0.4992,0.4085,0.7896,0.245,-2.660,0.210,0.01,0.0184,0.0508,0.0300,0.0087,2025-06-09T13:50:31.044486
11962,-0.5002,0.4070,0.7896,0.245,-2.625,0.280,0.00,0.0184,0.0508,0.0100,0.0087,2025-06-09T13:50:31.044486
11963,-0.5002,0.4055,0.7910,0.140,-2.695,0.175,0.01,0.0368,0.0254,0.0100,0.0087,2025-06-09T13:50:31.044486
11964,-0.4997,0.4085,0.7906,0.000,-2.730,0.070,0.00,0.0184,0.0254,0.0200,0.0087,2025-06-09T13:50:31.044486
11965,-0.5017,0.4055,0.7886,-0.140,-2.660,0.140,0.01,0.0184,0.0254,0.0100,0.0087,2025-06-09T13:50:31.044486
11966,-0.4982,0.4065,0.7886,0.175,-2.660,0.175,0.00,0.0184,0.0508,0.0100,0.0087,2025-06-09T13:50:31.044486
11967,-0.5012,0.4080,0.7876,0.245,-2.590,0.175,0.01,0.0184,0.0508,0.0200,0.0087,2025-06-09T13:50:31.044486
11968,-0.5002,0.4080,0.7910,0.140,-2.485,0.210,0.00,0.0368,0.0254,0.0200,0.0087,2025-06-09T13:50:31.044486
11969,-0.5012,0.4070,0.7901,0.105,-2.695,0.105,0.00,0.0368,0.0254,0.0200,0.0087,2025-06-09T13:50:31.044486
11970,-0.5002,0.4075,0.7886,0.000,-2.660,0.210,0.01,0.0184,0.0000,0.0200,0.0087,2025-06-09T13:50:31.044486
11971,-0.4997,0.4085,0.7896,0.140,-2.485,0.210,0.01,0.0368,0.0762,0.0100,0.0087,2025-06-09T13:50:31.096324
11972,-0.5007,0.4085,0.7906,0.175,-2.590,0.210,0.01,0.0184,0.0254,0.0200,0.0087,2025-06-09T13:50:31.096324
11973,-0.4997,0.4089,0.7881,0.140,-2.590,0.175,0.01,0.0368,0.0254,0.0100,0.0087,2025-06-09T13:50:31.096324
11974,-0.4992,0.4075,0.7886,0.245,-2.625,0.245,0.01,0.0184,0.0508,0.0200,0.0087,2025-06-09T13:50:31.096324
11975,-0.5007,0.4085,0.7906,0.175,-2.590,0.140,0.00,0.0368,0.0254,0.0602,0.0087,2025-06-09T13:50:31.258486
11976,-0.4997,0.4080,0.7891,0.070,-2.625,0.140,0.01,0.0184,0.0254,0.0200,0.0174,2025-06-09T13:50:31.258486
11977,-0.5012,0.4085,0.7901,0.070,-2.555,0.105,0.00,0.0184,0.0508,0.0501,0.0174,2025-06-09T13:50:31.258486
11978,-0.4997,0.4085,0.7891,0.140,-2.660,0.140,0.00,0.0184,0.0254,0.0100,0.0174,2025-06-09T13:50:31.258486
11979,-0.5017,0.4080,0.7906,0.070,-2.555,0.105,0.00,0.0184,0.0254,0.0200,0.0087,2025-06-09T13:50:31.259483
11980,-0.4987,0.4085,0.7906,0.000,-2.625,0.175,0.01,0.0368,0.0254,0.0200,0.0000,2025-06-09T13:50:31.259483
11981,-0.5002,0.4085,0.7886,0.035,-2.555,0.105,0.00,0.0184,0.0254,0.0300,0.0087,2025-06-09T13:50:31.259483
11982,-0.4997,0.4085,0.7871,0.035,-2.485,0.105,0.00,0.0000,0.0508,0.0100,0.0000,2025-06-09T13:50:31.259483
11983,-0.4997,0.4089,0.7881,-0.035,-2.555,0.210,0.01,0.0184,0.0254,0.0100,0.0087,2025-06-09T13:50:31.259483
11984,-0.4987,0.4075,0.7906,0.210,-2.520,0.210,0.00,0.0184,0.0254,0.0100,0.0087,2025-06-09T13:50:31.259483
11985,-0.5012,0.4089,0.7901,0.210,-2.555,0.105,0.00,0.0184,0.0254,0.0200,0.0087,2025-06-09T13:50:31.259483
11986,-0.4982,0.4089,0.7925,0.245,-2.520,0.245,0.01,0.0368,0.0508,0.0300,0.0174,2025-06-09T13:50:31.352236
11987,-0.5012,0.4065,0.7891,0.175,-2.555,0.105,0.00,0.0184,0.0508,0.0200,0.0174,2025-06-09T13:50:31.352236
11988,-0.4997,0.4070,0.7910,0.105,-2.380,0.105,0.01,0.0184,0.0508,0.0200,0.0087,2025-06-09T13:50:31.352236
11989,-0.5012,0.4075,0.7871,0.070,-2.660,0.140,0.00,0.0184,0.0508,0.0200,0.0087,2025-06-09T13:50:31.352236
11990,-0.5002,0.4065,0.7867,0.280,-2.485,0.280,0.00,0.0368,0.0508,0.0100,0.0087,2025-06-09T13:50:31.352236
11991,-0.5031,0.4104,0.7896,0.210,-2.730,0.280,0.00,0.0000,0.0254,0.0100,0.0087,2025-06-09T13:50:31.352236
11992,-0.4997,0.4094,0.7896,0.420,-2.730,0.245,0.00,0.0368,0.0000,0.0200,0.0087,2025-06-09T13:50:31.352236
11993,-0.5031,0.4104,0.7925,0.210,-2.660,0.140,0.00,0.0184,0.0254,0.0100,0.0087,2025-06-09T13:50:31.352236
11994,-0.5022,0.4089,0.7920,0.175,-3.045,0.210,0.00,0.0184,0.0508,0.0100,0.0174,2025-06-09T13:50:31.454959
11995,-0.5002,0.4085,0.7891,-0.035,-3.010,0.210,0.01,0.0368,0.0254,0.0200,0.0349,2025-06-09T13:50:31.454959
11996,-0.4992,0.4085,0.7886,0.280,-3.010,0.245,0.01,0.0368,0.0508,0.0100,0.0174,2025-06-09T13:50:31.454959
11997,-0.5012,0.4050,0.7906,0.280,-2.730,0.245,0.01,0.0184,0.0508,0.0100,0.0087,2025-06-09T13:50:31.454959
11998,-0.5012,0.4085,0.7906,0.385,-2.695,0.350,0.00,0.0184,0.0254,0.0000,0.0087,2025-06-09T13:50:31.454959
11999,-0.5007,0.4119,0.7915,0.560,-2.730,0.350,0.00,0.0184,0.0254,0.0100,0.0087,2025-06-09T13:50:31.454959
12000,-0.4997,0.4099,0.7901,-0.175,-2.590,0.140,0.00,0.0184,0.0254,0.0100,0.0087,2025-06-09T13:50:31.454959
12001,-0.5007,0.4104,0.7886,0.105,-2.695,0.140,0.00,0.0368,0.0508,0.0200,0.0174,2025-06-09T13:50:31.504825
12002,-0.5007,0.4089,0.7915,0.175,-2.660,0.175,0.00,0.0184,0.1018,0.0200,0.0087,2025-06-09T13:50:31.504825
12003,-0.5012,0.4070,0.7886,0.140,-2.695,0.140,0.00,0.0368,0.0508,0.0300,0.0087,2025-06-09T13:50:31.504825
12004,-0.4997,0.4099,0.7896,0.175,-2.765,0.035,0.00,0.0368,0.0508,0.0300,0.0087,2025-06-09T13:50:31.504825
12005,-0.5017,0.4104,0.7896,-0.070,-2.660,0.035,0.01,0.0184,0.0508,0.0200,0.0087,2025-06-09T13:50:31.658599
12006,-0.5012,0.4075,0.7930,-0.105,-2.625,0.070,0.00,0.0184,0.0508,0.0100,0.0087,2025-06-09T13:50:31.658599
12007,-0.4992,0.4055,0.7891,0.175,-2.695,0.105,0.00,0.0368,0.0508,0.0300,0.0174,2025-06-09T13:50:31.658599
12008,-0.5022,0.4075,0.7896,0.140,-2.555,0.245,0.01,0.0368,0.0508,0.0300,0.0000,2025-06-09T13:50:31.659595
12009,-0.5022,0.4089,0.7910,0.105,-2.625,0.210,0.01,0.0184,0.0508,0.0300,0.0087,2025-06-09T13:50:31.659595
12010,-0.5007,0.4065,0.7901,0.070,-2.765,0.140,0.00,0.0184,0.0508,0.0100,0.0087,2025-06-09T13:50:31.659595
12011,-0.5017,0.4085,0.7901,0.000,-2.625,0.210,0.00,0.0184,0.0254,0.0200,0.0174,2025-06-09T13:50:31.659595
12012,-0.4987,0.4065,0.7891,0.175,-2.555,0.210,0.00,0.0184,0.0254,0.0100,0.0087,2025-06-09T13:50:31.659595
12013,-0.5017,0.4089,0.7906,0.455,-2.695,0.210,0.00,0.0368,0.0254,0.0200,0.0174,2025-06-09T13:50:31.659595
12014,-0.4992,0.4104,0.7910,0.175,-2.695,0.210,0.00,0.0368,0.0000,0.0200,0.0087,2025-06-09T13:50:31.659595
12015,-0.5012,0.4094,0.7920,0.000,-2.835,0.105,0.01,0.0184,0.0254,0.0100,0.0087,2025-06-09T13:50:31.659595
12016,-0.4997,0.4089,0.7896,0.035,-2.870,0.175,0.00,0.0184,0.0508,0.0200,0.0087,2025-06-09T13:50:31.659595
12017,-0.4982,0.4075,0.7910,0.140,-2.695,0.245,0.01,0.0368,0.0508,0.0200,0.0087,2025-06-09T13:50:31.761336
12018,-0.5007,0.4094,0.7896,0.245,-2.625,0.280,0.00,0.0552,0.0254,0.0000,0.0174,2025-06-09T13:50:31.761336
12019,-0.5017,0.4099,0.7906,0.280,-2.555,0.175,0.00,0.0368,0.0254,0.0200,0.0174,2025-06-09T13:50:31.761336
12020,-0.5022,0.4109,0.7925,0.175,-2.520,0.105,0.01,0.0368,0.0508,0.0100,0.0174,2025-06-09T13:50:31.761336
12021,-0.5022,0.4094,0.7915,-0.035,-2.695,0.070,0.00,0.0184,0.0254,0.0100,0.0087,2025-06-09T13:50:31.761336
12022,-0.4943,0.4070,0.7876,0.000,-3.185,-0.140,0.00,0.0184,0.0254,0.0200,0.0087,2025-06-09T13:50:31.761336
12023,-0.4978,0.4094,0.7857,-0.280,-3.430,-0.350,0.01,0.0368,0.0508,0.0100,0.0087,2025-06-09T13:50:31.761336
