SeqNum,AccX,AccY,AccZ,GyroX,GyroY,GyroZ,Flex,Force1,Force2,Force3,Force4,TimestampReception
1,-0.4094,-1.0453,0.1098,-12.845,54.705,21.175,446,320,270,308,394,2025-06-04T19:51:35.910465
2,-0.2655,-0.3831,0.6134,-22.015,-50.855,7.980,456,443,322,392,378,2025-06-04T19:51:35.910465
3,-0.1220,-0.3963,0.5880,-15.610,-16.940,3.780,429,349,313,386,381,2025-06-04T19:51:35.910465
4,-0.1854,-0.4646,0.5675,-12.110,17.500,-1.015,405,379,342,361,337,2025-06-04T19:51:35.910465
5,-0.0898,-0.3660,0.5817,-6.930,39.900,-2.065,344,404,372,393,373,2025-06-04T19:51:35.910465
6,-0.1874,-0.2582,0.5510,-8.435,66.080,-4.795,331,337,367,379,384,2025-06-04T19:51:35.910465
7,-0.3811,-0.2377,0.6739,-10.080,65.835,-14.385,394,412,370,412,409,2025-06-04T19:51:35.910465
8,-0.3831,-0.3021,0.7213,-12.005,62.055,-20.195,389,420,375,355,393,2025-06-04T19:51:35.911539
9,-0.3431,-0.3299,0.7642,-6.545,63.770,-17.675,387,403,385,382,405,2025-06-04T19:51:35.911539
10,-0.4455,-0.2830,0.7930,-1.540,68.250,-14.490,342,426,381,384,412,2025-06-04T19:51:35.911539
11,-0.5490,-0.2899,0.7984,3.955,72.730,-12.425,396,310,371,391,393,2025-06-04T19:51:35.911539
12,-0.6598,-0.3035,0.8028,6.335,66.605,-10.430,415,380,373,409,349,2025-06-04T19:51:35.911539
13,-0.7671,-0.2835,0.8032,7.385,54.390,-7.630,410,397,377,415,376,2025-06-04T19:51:35.911539
14,-0.8447,-0.3089,0.7574,8.890,39.655,-4.235,416,393,376,400,395,2025-06-04T19:51:35.911539
15,-0.8740,-0.4158,0.7706,9.380,28.875,-0.770,419,401,389,393,402,2025-06-04T19:51:36.000321
16,-0.8838,-0.4909,0.7784,7.910,19.635,3.395,382,405,400,394,418,2025-06-04T19:51:36.000321
17,-0.9443,-0.5451,0.7793,3.675,-0.525,7.875,362,439,360,414,358,2025-06-04T19:51:36.000321
18,-0.8877,-0.5231,0.7735,2.730,-23.835,18.900,403,422,378,402,383,2025-06-04T19:51:36.001331
19,-0.9384,-0.6032,0.7993,-6.580,-47.250,25.655,421,425,377,403,384,2025-06-04T19:51:36.001331
20,-0.7837,-0.5690,0.7579,-7.455,-58.520,29.155,368,420,382,419,386,2025-06-04T19:51:36.001331
21,-0.6793,-0.5749,0.7447,-14.210,-61.320,32.725,361,412,391,422,385,2025-06-04T19:51:36.001331
22,-0.6002,-0.5754,0.7193,-17.500,-60.970,33.845,407,433,377,424,407,2025-06-04T19:51:36.001331
23,-0.5915,-0.5758,0.6564,-21.630,-56.420,31.885,426,317,341,355,378,2025-06-04T19:51:36.001331
24,-0.5266,-0.5470,0.6173,-24.430,-50.505,29.120,410,402,376,400,402,2025-06-04T19:51:36.001331
25,-0.5256,-0.5500,0.6598,-28.735,-45.290,27.545,438,436,376,403,405,2025-06-04T19:51:36.001331
26,-0.5017,-0.5705,0.6798,-30.555,-42.280,25.865,438,351,368,419,411,2025-06-04T19:51:36.001331
27,-0.5222,-0.5671,0.6412,-29.680,-42.140,23.975,408,415,370,410,414,2025-06-04T19:51:36.001331
28,-0.5324,-0.5275,0.6339,-31.115,-34.545,20.125,408,426,370,380,380,2025-06-04T19:51:36.001331
29,-0.5446,-0.5451,0.6412,-27.230,-29.260,17.500,405,350,383,394,391,2025-06-04T19:51:36.001331
30,-0.5885,-0.5485,0.6159,-25.235,-28.035,16.030,407,395,378,420,411,2025-06-04T19:51:36.310184
31,-0.6237,-0.5275,0.6037,-24.745,-30.170,15.190,419,402,376,409,396,2025-06-04T19:51:36.310184
32,-0.6295,-0.5261,0.6066,-23.485,-34.195,13.580,429,419,371,396,408,2025-06-04T19:51:36.310184
33,-0.7735,-0.6793,0.5983,-27.125,-42.315,11.270,402,362,373,394,414,2025-06-04T19:51:36.310184
34,-0.6095,-0.4880,0.6764,-13.405,-40.915,11.585,425,407,375,397,406,2025-06-04T19:51:36.310184
35,-0.5783,-0.4992,0.6856,-17.220,-34.405,10.325,417,395,380,370,393,2025-06-04T19:51:36.310184
36,-0.6163,-0.5324,0.6744,-7.945,-36.540,7.980,409,397,387,379,410,2025-06-04T19:51:36.310184
37,-0.5978,-0.5256,0.6593,-10.150,-32.585,5.705,419,412,386,365,399,2025-06-04T19:51:36.310184
38,-0.6490,-0.5500,0.6583,-4.060,-37.485,1.820,418,437,383,386,395,2025-06-04T19:51:36.310184
39,-0.5978,-0.5305,0.6154,-1.400,-38.430,0.630,409,406,374,393,390,2025-06-04T19:51:36.310184
40,-0.5588,-0.5358,0.6700,1.785,-35.525,-0.665,425,418,371,392,396,2025-06-04T19:51:36.310184
41,-0.5602,-0.5539,0.7008,6.020,-31.605,-2.485,431,418,373,408,405,2025-06-04T19:51:36.310184
42,-0.5358,-0.5675,0.7330,11.690,-32.270,-4.690,421,432,340,404,396,2025-06-04T19:51:36.310184
43,-0.5144,-0.5485,0.7515,13.440,-30.135,-4.900,383,346,326,418,412,2025-06-04T19:51:36.310184
44,-0.5573,-0.5495,0.7784,15.785,-30.590,-5.250,402,415,318,418,396,2025-06-04T19:51:36.310184
45,-0.6002,-0.5470,0.8189,16.135,-31.010,-7.070,403,422,349,418,396,2025-06-04T19:51:36.310184
46,-0.6456,-0.5319,0.8857,15.855,-33.110,-9.520,397,425,364,378,395,2025-06-04T19:51:36.310184
47,-0.6359,-0.5187,0.9223,15.960,-39.585,-10.220,398,383,365,393,395,2025-06-04T19:51:36.433926
48,-0.5719,-0.5212,0.8755,16.310,-46.130,-3.885,338,390,345,341,384,2025-06-04T19:51:36.433926
49,-0.6642,-0.5197,0.9038,21.875,-65.170,3.290,382,422,355,379,392,2025-06-04T19:51:36.433926
50,-0.6871,-0.4778,0.9218,27.055,-85.085,10.220,352,381,362,392,392,2025-06-04T19:51:36.433926
51,-0.6822,-0.4597,0.9165,27.370,-100.975,16.030,364,422,379,387,403,2025-06-04T19:51:36.433926
52,-0.5632,-0.4426,0.8750,33.460,-98.840,24.710,377,411,338,362,415,2025-06-04T19:51:36.433926
53,-0.5256,-0.4109,0.8394,37.030,-89.355,34.195,407,409,368,356,405,2025-06-04T19:51:36.433926
54,-0.5329,-0.3875,0.7993,42.630,-56.840,40.390,415,391,367,388,392,2025-06-04T19:51:36.433926
55,-0.5363,-0.3665,0.7681,46.480,-16.730,47.635,394,371,378,402,369,2025-06-04T19:51:36.433926
56,-0.5934,-0.3494,0.7466,49.140,18.095,54.215,411,333,385,397,381,2025-06-04T19:51:36.433926
57,-0.6895,-0.3636,0.7754,52.990,39.935,60.690,339,407,393,396,388,2025-06-04T19:51:36.433926
58,-0.7481,-0.3250,0.8701,57.400,45.325,67.375,406,412,385,403,343,2025-06-04T19:51:36.433926
59,-0.7842,-0.2772,0.9589,57.540,41.475,74.795,419,417,393,346,349,2025-06-04T19:51:36.433926
60,-0.7813,-0.2586,1.0033,56.525,30.695,81.795,412,438,351,367,371,2025-06-04T19:51:36.433926
61,-0.7486,-0.2460,0.9906,54.705,16.730,91.210,411,400,370,404,348,2025-06-04T19:51:36.433926
62,-0.7139,-0.2557,0.9438,55.790,7.280,99.680,399,422,335,408,374,2025-06-04T19:51:36.433926
63,-0.6554,-0.2401,0.9155,60.270,5.635,105.280,398,375,348,353,369,2025-06-04T19:51:36.433926
64,-0.5671,-0.2079,0.8789,62.160,12.565,108.570,399,380,325,388,346,2025-06-04T19:51:36.816307
65,-0.4494,-0.1957,0.8711,66.115,21.980,112.280,425,411,362,383,392,2025-06-04T19:51:36.816307
66,-0.4109,-0.1420,0.8750,69.930,36.120,116.655,435,402,378,393,387,2025-06-04T19:51:36.816307
67,-0.3738,-0.1401,0.8486,72.800,52.780,120.050,404,421,367,386,402,2025-06-04T19:51:36.816307
68,-0.3777,-0.0986,0.8442,76.335,70.945,122.185,377,393,369,390,409,2025-06-04T19:51:36.816307
69,-0.3797,-0.0625,0.8413,76.755,87.115,122.255,382,419,379,408,360,2025-06-04T19:51:36.816307
70,-0.4587,-0.0166,0.8335,75.705,93.380,121.415,387,412,382,355,331,2025-06-04T19:51:36.816307
71,-0.4758,-0.0102,0.8335,75.810,92.680,120.750,340,408,354,399,380,2025-06-04T19:51:36.816307
72,-0.5080,0.0224,0.8203,72.940,85.890,118.755,353,398,364,412,401,2025-06-04T19:51:36.816307
73,-0.5109,0.0342,0.8184,71.295,75.110,117.355,393,346,366,396,417,2025-06-04T19:51:36.816307
74,-0.5178,0.0747,0.7793,67.165,64.120,116.130,383,401,367,399,393,2025-06-04T19:51:36.816307
75,-0.5510,0.1103,0.7447,63.875,51.555,114.030,413,401,369,386,407,2025-06-04T19:51:36.816307
76,-0.5675,0.1566,0.7115,59.815,39.305,110.180,418,305,365,417,408,2025-06-04T19:51:36.816307
77,-0.5885,0.1923,0.6939,53.410,29.715,107.695,421,395,364,415,389,2025-06-04T19:51:36.816307
78,-0.5724,0.2245,0.6632,44.940,18.480,106.890,417,401,384,426,393,2025-06-04T19:51:36.816307
79,-0.6251,0.0346,0.6134,32.550,7.630,107.065,343,407,372,399,388,2025-06-04T19:51:36.816307
80,0.1064,-1.0638,0.6393,58.800,17.815,53.725,391,420,377,406,409,2025-06-04T19:51:36.816307
81,-1.2810,-0.2084,0.9335,6.370,-104.510,34.860,414,371,383,351,387,2025-06-04T19:51:36.875188
82,-0.1981,0.2918,0.8023,-12.075,-120.715,69.300,397,421,371,389,390,2025-06-04T19:51:36.875188
83,-0.5417,-0.0049,0.6666,-7.140,-109.655,65.450,303,399,386,350,385,2025-06-04T19:51:36.875188
84,-0.4573,0.0459,0.6647,-5.600,-80.990,53.025,373,343,385,376,348,2025-06-04T19:51:36.875188
85,-0.2796,0.1654,0.7208,-2.100,-38.955,43.225,381,399,391,390,398,2025-06-04T19:51:36.875188
86,-0.5431,0.2406,0.8799,-1.855,8.225,38.710,400,407,382,392,409,2025-06-04T19:51:36.875188
87,-0.8599,0.1893,0.8545,-3.080,-23.975,35.630,420,421,373,406,353,2025-06-04T19:51:36.875188
88,-0.5934,0.2235,0.8037,1.120,-61.320,41.020,404,402,371,407,392,2025-06-04T19:51:36.875188
89,-0.4177,0.1498,0.8067,-1.435,-62.790,45.395,351,420,371,393,407,2025-06-04T19:51:36.875188
90,-0.4826,0.2015,0.8125,2.520,-36.750,45.115,412,428,383,406,368,2025-06-04T19:51:36.875188
91,-0.5905,0.1825,0.7886,0.385,-28.875,41.265,377,402,386,424,386,2025-06-04T19:51:36.875188
92,-0.5958,0.1786,0.7286,-7.735,-26.390,34.090,293,418,348,420,399,2025-06-04T19:51:36.875188
93,-0.6354,-0.0449,0.6837,-18.725,-30.940,28.665,401,411,373,405,397,2025-06-04T19:51:36.875188
94,-0.6871,0.2616,0.6681,-13.300,-32.410,26.705,388,420,375,409,406,2025-06-04T19:51:36.875188
95,-0.5202,0.1337,0.7496,-12.110,-40.250,30.240,411,396,337,409,410,2025-06-04T19:51:36.875188
96,-0.4499,0.1157,0.8589,-9.275,-48.685,29.855,401,405,358,362,397,2025-06-04T19:51:36.875188
97,-0.4153,0.3201,0.8120,-5.215,-46.060,30.975,414,374,364,396,395,2025-06-04T19:51:36.875188
98,-0.3421,0.1903,0.8028,-5.005,-40.915,31.815,410,411,370,411,382,2025-06-04T19:51:36.875188
99,-0.2821,0.2357,0.8018,2.660,-22.225,34.020,401,397,374,419,386,2025-06-04T19:51:36.876186
100,-0.3231,0.3421,0.7637,7.280,-7.700,37.485,418,404,306,415,384,2025-06-04T19:51:36.876186
101,-0.3675,0.3172,0.8057,9.380,2.765,38.535,421,418,356,318,355,2025-06-04T19:51:36.876186
102,-0.4372,0.2523,0.8350,7.665,8.190,34.055,392,301,349,377,393,2025-06-04T19:51:37.123541
103,-0.5114,0.1986,0.8467,7.210,15.085,30.555,413,400,373,385,404,2025-06-04T19:51:37.123541
104,-0.6622,0.2133,0.8745,3.850,15.120,26.460,422,382,388,393,407,2025-06-04T19:51:37.123541
105,-0.6246,0.1810,0.8877,3.045,11.130,22.085,397,401,390,396,410,2025-06-04T19:51:37.123541
106,-0.5807,0.2006,0.9028,0.665,8.330,19.810,382,379,390,423,392,2025-06-04T19:51:37.123541
107,-0.4968,0.1835,0.8886,1.435,10.465,19.180,296,424,352,391,377,2025-06-04T19:51:37.123541
108,-0.4475,0.2176,0.8267,-0.175,24.955,19.985,382,403,366,372,379,2025-06-04T19:51:37.123541
109,-0.5261,0.1991,0.8101,-1.400,24.500,17.430,404,404,383,388,349,2025-06-04T19:51:37.123541
110,-0.5368,0.2206,0.7696,-0.910,30.240,14.140,417,400,387,390,395,2025-06-04T19:51:37.123541
111,-0.6032,0.2396,0.7008,-4.200,34.405,12.880,416,419,376,412,415,2025-06-04T19:51:37.123541
112,-0.6778,0.2391,0.7022,-3.255,25.620,12.145,408,425,336,399,390,2025-06-04T19:51:37.123541
113,-0.6242,0.2230,0.6852,-1.260,10.535,16.380,413,426,366,356,408,2025-06-04T19:51:37.123541
114,-0.5954,0.2362,0.7388,3.115,1.855,17.850,376,430,387,399,398,2025-06-04T19:51:37.123541
115,-0.5266,0.2669,0.8120,6.965,-1.785,16.590,412,426,381,412,370,2025-06-04T19:51:37.123541
116,-0.5080,0.3045,0.9282,11.200,0.910,17.850,401,407,387,406,387,2025-06-04T19:51:37.123541
117,-0.4787,0.3343,0.9394,17.010,3.605,18.410,404,422,350,409,400,2025-06-04T19:51:37.123541
118,-0.4656,0.3323,0.9433,21.000,1.470,19.250,423,428,379,399,404,2025-06-04T19:51:37.123541
119,-0.4953,0.3396,0.9321,28.980,-3.045,21.420,403,429,382,397,409,2025-06-04T19:51:37.264577
120,-0.5500,0.3421,0.8886,32.095,-8.575,24.815,389,422,385,387,392,2025-06-04T19:51:37.264577
121,-0.6383,0.3538,0.8203,35.210,-15.050,26.040,377,426,395,397,389,2025-06-04T19:51:37.264577
122,-0.6515,0.3494,0.7725,35.455,-25.375,27.230,388,434,394,412,364,2025-06-04T19:51:37.264577
123,-0.6998,0.3616,0.7437,30.485,-37.030,26.950,355,425,383,407,397,2025-06-04T19:51:37.264577
124,-0.6744,0.3831,0.7379,28.630,-39.550,29.960,409,407,385,395,396,2025-06-04T19:51:37.264577
125,-0.6134,0.3216,0.7178,21.910,-44.415,26.425,398,434,383,396,369,2025-06-04T19:51:37.264577
126,-0.6871,0.3567,0.7735,23.345,-52.185,25.655,423,418,356,351,341,2025-06-04T19:51:37.264577
127,-0.6681,0.3836,0.8042,22.995,-55.405,35.805,418,368,376,392,386,2025-06-04T19:51:37.264577
128,-0.6598,0.3479,0.6891,7.525,-58.065,31.570,425,424,342,367,399,2025-06-04T19:51:37.264577
129,-0.5910,0.3231,0.6974,7.595,-59.955,25.865,426,424,365,381,395,2025-06-04T19:51:37.264577
130,-0.4738,0.3484,0.7052,1.120,-53.760,26.635,399,402,375,405,406,2025-06-04T19:51:37.264577
131,-0.4455,0.3455,0.7032,-3.710,-45.115,28.035,419,347,339,415,401,2025-06-04T19:51:37.264577
132,-0.4314,0.3377,0.7330,-7.525,-38.850,25.550,426,408,356,421,387,2025-06-04T19:51:37.264577
133,-0.3392,0.3514,0.7496,-12.285,-27.510,25.375,394,427,372,378,388,2025-06-04T19:51:37.264577
134,-0.3738,0.3504,0.8042,-13.405,-14.070,24.430,414,424,377,404,400,2025-06-04T19:51:37.506111
135,-0.3772,0.3631,0.7959,-17.010,-2.450,25.655,367,402,382,392,398,2025-06-04T19:51:37.506111
136,-0.4085,0.3831,0.7818,-21.035,8.295,24.535,415,400,353,384,404,2025-06-04T19:51:37.506111
137,-0.4387,0.3826,0.7701,-24.150,10.990,24.045,392,345,368,304,392,2025-06-04T19:51:37.506111
138,-0.4621,0.3704,0.7100,-26.460,8.155,25.445,357,397,375,382,352,2025-06-04T19:51:37.506111
139,-0.4890,0.3748,0.7003,-27.895,4.445,26.075,339,429,375,401,394,2025-06-04T19:51:37.506111
140,-0.4929,0.3987,0.7174,-29.085,-0.455,24.885,377,409,380,413,403,2025-06-04T19:51:37.506111
141,-0.4982,0.4241,0.7544,-31.570,-4.970,23.555,413,419,369,354,418,2025-06-04T19:51:37.506111
142,-0.5300,0.4782,0.7652,-34.825,-8.260,21.385,344,437,374,358,418,2025-06-04T19:51:37.506111
143,-0.5144,0.4412,0.7652,-38.675,-9.345,24.115,413,428,389,376,413,2025-06-04T19:51:37.506111
144,-0.5495,0.3396,0.7818,-39.620,-19.950,18.760,390,350,395,385,395,2025-06-04T19:51:37.506111
145,-0.2948,0.0073,0.7427,-37.800,-34.860,-3.990,393,404,393,390,406,2025-06-04T19:51:37.506111
146,-0.3880,0.2830,1.0668,-17.010,-60.760,-2.170,419,413,379,406,412,2025-06-04T19:51:37.506111
147,0.0429,0.2996,1.3410,-12.180,-14.595,6.545,430,408,343,410,400,2025-06-04T19:51:37.506111
148,-0.2206,0.4109,1.0902,-12.075,-13.475,11.865,385,414,371,405,382,2025-06-04T19:51:37.507117
149,-0.3631,0.3650,0.9331,-15.890,3.325,2.520,402,428,386,413,398,2025-06-04T19:51:37.507117
150,-0.3748,0.3762,0.9028,-7.455,12.670,5.530,399,392,389,393,390,2025-06-04T19:51:37.507117
151,-0.5456,0.3675,0.8877,-5.880,13.755,6.370,410,430,353,403,347,2025-06-04T19:51:37.507117
152,-0.5558,0.3436,0.8398,-11.550,2.905,6.265,340,372,378,417,387,2025-06-04T19:51:37.507117
153,-0.5002,0.3323,0.8062,-12.740,-10.010,8.050,397,421,377,402,392,2025-06-04T19:51:37.507117
154,-0.4626,0.3440,0.7915,-16.905,-15.260,10.255,418,414,352,402,416,2025-06-04T19:51:37.660402
155,-0.4480,0.3450,0.7984,-15.645,-17.780,11.340,424,359,359,407,411,2025-06-04T19:51:37.660402
156,-0.3982,0.3455,0.8242,-14.840,-17.955,12.320,394,329,375,401,396,2025-06-04T19:51:37.660402
157,-0.3655,0.3577,0.8589,-16.275,-16.520,12.425,364,403,373,408,354,2025-06-04T19:51:37.660402
158,-0.3318,0.3670,0.8926,-14.490,-14.105,12.460,385,400,373,348,393,2025-06-04T19:51:37.660402
159,-0.3309,0.3811,0.9121,-12.950,-10.780,13.440,382,405,383,392,411,2025-06-04T19:51:37.660402
160,-0.3767,0.3699,0.9174,-11.200,-15.505,14.315,413,406,378,399,413,2025-06-04T19:51:37.660402
161,-0.3836,0.3972,0.9004,-11.795,-22.925,14.770,435,403,345,413,421,2025-06-04T19:51:37.660402
162,-0.3699,0.4221,0.8740,-11.970,-25.725,14.735,402,428,333,391,397,2025-06-04T19:51:37.660402
163,-0.3362,0.4314,0.8418,-10.920,-23.940,14.980,387,425,350,412,410,2025-06-04T19:51:37.660402
164,-0.3318,0.4616,0.8301,-9.625,-22.435,15.855,401,432,378,396,413,2025-06-04T19:51:37.660402
165,-0.3509,0.4773,0.8457,-9.030,-22.190,16.275,413,410,377,405,395,2025-06-04T19:51:37.661457
166,-0.3514,0.4670,0.8730,-9.170,-25.900,16.870,422,427,373,348,406,2025-06-04T19:51:37.661457
167,-0.3733,0.4490,0.9087,-9.485,-30.800,17.675,423,344,340,386,371,2025-06-04T19:51:37.661457
168,-0.3728,0.4782,0.9740,-10.535,-35.945,18.935,414,342,323,388,396,2025-06-04T19:51:37.866016
169,-0.4172,0.4900,1.0224,-12.250,-40.530,19.215,386,413,320,401,394,2025-06-04T19:51:37.867019
170,-0.4236,0.4846,1.0155,-14.385,-45.045,19.600,413,406,363,402,400,2025-06-04T19:51:37.867019
171,-0.4241,0.4290,1.0302,-16.240,-46.235,20.580,396,429,384,417,414,2025-06-04T19:51:37.867019
172,-0.4060,0.3597,1.0116,-16.450,-48.580,22.190,417,427,342,313,399,2025-06-04T19:51:37.868010
173,-0.3709,0.3123,0.9911,-17.360,-49.525,24.115,406,384,318,352,407,2025-06-04T19:51:37.868010
174,-0.3196,0.2450,0.9687,-18.340,-47.775,25.970,410,378,356,399,396,2025-06-04T19:51:37.868010
175,-0.3113,0.1864,0.9257,-19.005,-42.980,27.755,396,395,364,351,385,2025-06-04T19:51:37.868010
176,-0.3338,0.1688,0.8838,-18.935,-39.620,28.805,399,398,365,380,405,2025-06-04T19:51:37.868010
177,-0.3431,0.1630,0.8447,-18.935,-38.080,28.070,417,392,365,338,394,2025-06-04T19:51:37.868010
178,-0.3489,0.1791,0.8247,-20.230,-35.980,26.985,424,364,380,395,401,2025-06-04T19:51:37.869011
179,-0.3743,0.1972,0.8286,-20.965,-35.455,24.780,421,402,342,399,350,2025-06-04T19:51:37.869011
180,-0.3465,0.1796,0.8169,-19.670,-34.510,22.715,429,420,354,401,330,2025-06-04T19:51:37.869011
181,-0.3299,0.1840,0.8398,-18.830,-34.545,20.230,432,428,367,388,330,2025-06-04T19:51:37.869011
182,-0.3055,0.1732,0.8594,-17.850,-34.265,17.675,404,405,379,387,385,2025-06-04T19:51:37.869011
183,-0.2830,0.1581,0.8804,-16.345,-34.020,15.925,339,421,376,400,390,2025-06-04T19:51:37.869011
184,-0.2518,0.1430,0.8950,-13.615,-32.515,14.875,403,402,390,410,354,2025-06-04T19:51:37.869011
185,-0.2381,0.1303,0.9238,-11.305,-28.665,13.685,415,401,377,408,369,2025-06-04T19:51:38.145265
186,-0.2147,0.1318,0.9360,-8.610,-23.380,12.425,430,424,354,400,387,2025-06-04T19:51:38.145265
187,-0.2069,0.1357,0.9209,-7.910,-15.855,10.220,426,409,373,393,397,2025-06-04T19:51:38.145265
188,-0.2401,0.1396,0.9121,-8.260,-10.395,9.100,391,399,380,391,392,2025-06-04T19:51:38.145265
189,-0.2786,0.1532,0.8999,-8.575,-9.170,8.190,396,384,341,400,415,2025-06-04T19:51:38.145265
190,-0.3035,0.1654,0.8926,-9.835,-10.115,6.755,407,401,355,390,357,2025-06-04T19:51:38.145708
191,-0.2743,0.1869,0.8965,-11.620,-12.915,5.740,394,428,375,410,379,2025-06-04T19:51:38.145708
192,-0.2708,0.1991,0.9126,-13.125,-13.370,4.900,394,384,370,422,381,2025-06-04T19:51:38.145708
193,-0.2684,0.2181,0.9414,-12.810,-15.295,3.640,414,405,378,402,344,2025-06-04T19:51:38.145708
194,-0.2728,0.2274,0.9736,-13.090,-19.740,3.150,426,419,382,351,329,2025-06-04T19:51:38.145708
195,-0.1903,0.2518,1.0009,-12.775,-23.835,3.430,402,419,377,372,366,2025-06-04T19:51:38.145708
196,-0.1649,0.2464,0.9945,-13.230,-23.100,4.340,428,359,373,338,341,2025-06-04T19:51:38.145708
197,-0.1601,0.2469,0.9989,-11.235,-19.530,3.815,401,329,372,391,382,2025-06-04T19:51:38.145708
198,-0.1342,0.2611,0.9994,-9.415,-13.615,4.060,432,414,390,390,343,2025-06-04T19:51:38.145708
199,-0.1469,0.2542,0.9950,-8.750,-9.485,4.060,429,411,391,389,384,2025-06-04T19:51:38.145708
200,-0.1669,0.2538,0.9965,-7.665,-7.770,3.640,406,422,385,388,357,2025-06-04T19:51:38.145708
201,-0.1791,0.2591,0.9877,-6.755,-7.280,3.570,422,409,380,367,373,2025-06-04T19:51:38.384138
202,-0.1815,0.2557,0.9858,-4.095,-7.315,3.815,395,394,386,343,392,2025-06-04T19:51:38.384138
203,-0.1932,0.1264,0.9784,-2.940,-8.540,3.955,407,416,348,391,388,2025-06-04T19:51:38.384138
204,-0.1972,0.2523,0.9706,-1.750,-10.255,3.745,377,398,364,311,396,2025-06-04T19:51:38.384138
205,-0.1850,0.2528,0.9628,-0.875,-10.010,3.255,409,428,378,370,402,2025-06-04T19:51:38.384138
206,-0.1947,0.2464,0.9531,-0.315,-9.170,2.975,384,412,388,409,409,2025-06-04T19:51:38.384138
207,-0.1918,0.2523,0.9501,0.490,-8.120,2.345,401,417,381,396,370,2025-06-04T19:51:38.384138
208,-0.1962,0.2533,0.9433,0.000,-6.790,1.645,401,347,374,388,300,2025-06-04T19:51:38.384138
209,-0.2079,0.2474,0.9394,0.105,-7.070,0.980,425,411,386,406,378,2025-06-04T19:51:38.384138
210,-0.2045,0.2416,0.9409,0.385,-6.895,0.315,438,403,379,349,337,2025-06-04T19:51:38.384138
211,-0.2040,0.2323,0.9540,0.455,-6.160,0.000,418,428,393,387,375,2025-06-04T19:51:38.384138
212,-0.2098,0.2274,0.9604,0.910,-6.055,-0.455,388,412,377,403,390,2025-06-04T19:51:38.384138
213,-0.2162,0.2230,0.9628,1.505,-5.775,-0.665,401,424,390,398,383,2025-06-04T19:51:38.384138
214,-0.2133,0.2235,0.9687,1.715,-5.005,-1.120,340,396,378,413,403,2025-06-04T19:51:38.384138
215,-0.2103,0.2206,0.9633,1.925,-4.095,-1.330,370,418,358,406,403,2025-06-04T19:51:38.384138
216,-0.2050,0.2250,0.9531,2.135,-2.555,-1.680,394,437,375,418,408,2025-06-04T19:51:38.384138
217,-0.2098,0.2255,0.9487,2.030,-1.750,-1.785,423,397,363,389,385,2025-06-04T19:51:38.384138
218,-0.2157,0.2274,0.9487,1.925,-2.205,-1.645,431,395,369,394,359,2025-06-04T19:51:38.384138
219,-0.2186,0.2284,0.9536,2.030,-2.555,-1.505,423,415,365,389,393,2025-06-04T19:51:38.384138
220,-0.2225,0.2347,0.9638,2.485,-3.535,-1.365,407,421,375,411,393,2025-06-04T19:51:38.466899
221,-0.2123,0.2406,0.9662,2.765,-3.815,-1.470,432,435,379,413,383,2025-06-04T19:51:38.466899
222,-0.2025,0.2435,0.9740,3.500,-3.675,-1.400,390,438,385,414,362,2025-06-04T19:51:38.466899
223,-0.2094,0.2440,0.9833,4.410,-4.060,-1.295,424,417,387,413,375,2025-06-04T19:51:38.466899
224,-0.2020,0.2435,0.9833,5.320,-5.040,-1.015,406,436,397,403,401,2025-06-04T19:51:38.466899
225,-0.1962,0.2435,0.9755,6.650,-5.390,-0.910,342,428,397,407,411,2025-06-04T19:51:38.466899
226,-0.2064,0.2528,0.9701,7.595,-5.250,-1.295,410,411,386,420,424,2025-06-04T19:51:38.466899
227,-0.1967,0.2518,0.9672,8.925,-3.395,-2.135,395,391,389,400,421,2025-06-04T19:51:38.466899
228,-0.2015,0.2508,0.9677,9.765,-2.835,-3.290,421,429,382,369,403,2025-06-04T19:51:38.466899
229,-0.2123,0.2562,0.9682,10.535,-3.150,-4.725,406,428,391,334,405,2025-06-04T19:51:38.466899
230,-0.1991,0.2503,0.9579,11.200,-3.150,-6.370,395,346,349,363,350,2025-06-04T19:51:38.466899
231,-0.2050,0.2503,0.9516,12.145,-2.100,-7.490,378,387,371,377,388,2025-06-04T19:51:38.466899
232,-0.2455,0.2660,0.9404,13.580,-4.130,-9.485,399,409,366,342,388,2025-06-04T19:51:38.466899
233,-0.2225,0.2591,0.9335,14.560,-4.235,-10.990,410,356,345,383,397,2025-06-04T19:51:38.466899
234,-0.2411,0.2216,0.9296,15.155,-4.445,-11.620,426,342,320,367,388,2025-06-04T19:51:38.466899
235,-0.2396,0.2513,0.9579,17.325,-9.520,-13.930,361,386,360,401,345,2025-06-04T19:51:38.466899
236,-0.1679,0.2269,0.9462,18.935,-5.390,-10.255,412,433,384,413,373,2025-06-04T19:51:38.660528
237,-0.1771,0.2801,0.9975,27.055,-3.395,0.805,392,350,382,405,386,2025-06-04T19:51:38.660528
238,-0.5153,0.2952,0.9306,10.325,-40.810,2.870,406,297,376,419,385,2025-06-04T19:51:38.660528
239,-0.2845,0.2352,0.8901,12.670,-35.105,-1.995,397,394,378,407,387,2025-06-04T19:51:38.660528
240,-0.5251,0.2664,0.7647,-6.230,-56.315,3.290,431,390,386,413,406,2025-06-04T19:51:38.660528
241,-0.3128,0.2406,0.7930,-0.840,-72.940,3.465,428,421,393,409,384,2025-06-04T19:51:38.660528
242,-0.2298,0.2796,0.8340,-11.515,-72.170,4.515,425,412,392,406,383,2025-06-04T19:51:38.660528
243,-0.0595,0.2757,0.8965,-14.875,-65.485,3.010,430,373,376,390,396,2025-06-04T19:51:38.660528
244,-0.0429,0.2835,0.9140,-17.465,-50.995,0.840,380,412,344,349,386,2025-06-04T19:51:38.660528
245,-0.1108,0.2625,0.9321,-23.170,-38.815,2.485,353,402,337,385,397,2025-06-04T19:51:38.660528
246,-0.0649,0.2708,0.9331,-22.855,-32.375,2.310,384,397,369,385,393,2025-06-04T19:51:38.660528
247,-0.0917,0.2821,0.9438,-27.300,-26.425,1.785,407,429,363,388,351,2025-06-04T19:51:38.660528
248,-0.1127,0.2830,0.9638,-27.790,-27.510,1.155,419,428,369,394,380,2025-06-04T19:51:38.661385
249,-0.1523,0.2816,0.9794,-27.825,-33.355,1.610,404,365,365,404,403,2025-06-04T19:51:38.661385
250,-0.1674,0.2767,1.0053,-28.665,-40.810,1.855,417,393,382,398,372,2025-06-04T19:51:38.661385
251,-0.1747,0.2752,1.0292,-28.490,-50.470,2.100,379,398,311,397,387,2025-06-04T19:51:38.661385
252,-0.1332,0.2728,1.0448,-28.140,-55.545,2.660,386,373,348,371,400,2025-06-04T19:51:38.711340
253,-0.0913,0.2611,1.0497,-26.320,-56.280,2.905,423,404,328,409,412,2025-06-04T19:51:38.711340
254,-0.0522,0.2513,1.0502,-24.570,-52.640,2.450,405,425,345,404,354,2025-06-04T19:51:38.711340
255,-0.0264,0.2342,1.0424,-22.855,-45.570,2.415,381,420,370,398,375,2025-06-04T19:51:38.711340
256,-0.0166,0.2123,1.0443,-19.635,-39.445,2.905,420,385,339,352,382,2025-06-04T19:51:38.761781
257,-0.0268,0.2020,1.0243,-17.570,-29.820,1.505,424,346,370,333,389,2025-06-04T19:51:38.762857
258,0.1581,0.3045,1.0438,-11.410,-13.335,-0.455,421,406,378,354,392,2025-06-04T19:51:38.762857
259,-0.1518,0.1288,1.0380,-14.910,-16.450,4.585,423,419,367,381,412,2025-06-04T19:51:38.762857
260,-0.0595,0.2191,1.0765,-6.720,-16.135,5.985,402,423,376,410,414,2025-06-04T19:51:38.885450
261,-0.0922,0.0654,1.0336,-13.020,-12.705,2.520,348,427,383,391,354,2025-06-04T19:51:38.885597
262,0.0610,0.1401,1.0092,-6.545,-3.465,-3.220,373,409,369,383,373,2025-06-04T19:51:38.885597
263,0.1591,-0.0756,0.9423,-17.500,4.165,-8.435,421,395,339,391,386,2025-06-04T19:51:38.885597
264,-0.0698,0.1669,1.0580,-5.670,3.850,-3.605,421,393,358,359,378,2025-06-04T19:51:38.885597
265,-0.2542,0.2191,1.1483,-7.735,-6.475,-4.095,399,418,328,349,406,2025-06-04T19:51:38.885597
266,-0.2040,0.2445,1.1902,-5.600,-35.805,-6.790,391,413,365,383,391,2025-06-04T19:51:38.885597
267,-0.1889,0.2723,1.0795,-11.305,-45.780,-8.470,400,405,371,340,403,2025-06-04T19:51:38.885597
268,-0.0771,0.2455,1.0180,-11.900,-49.980,-10.080,412,435,371,390,374,2025-06-04T19:51:38.885597
269,0.1074,0.2728,0.9858,-7.805,-41.965,-11.935,358,404,371,391,388,2025-06-04T19:51:38.993747
270,0.1640,0.2338,0.9482,-9.275,-27.230,-9.870,382,401,379,378,403,2025-06-04T19:51:38.993747
271,0.1064,0.1703,0.9618,-4.550,-13.545,-6.545,409,392,355,383,406,2025-06-04T19:51:38.993747
272,0.0098,0.1791,1.0048,-1.995,-6.055,-3.500,411,394,360,381,400,2025-06-04T19:51:38.993747
273,-0.0405,0.2040,1.0643,0.455,-5.425,-2.030,419,403,377,347,399,2025-06-04T19:51:38.993747
274,-0.0820,0.2181,1.0814,1.575,-8.050,-2.065,420,430,374,372,369,2025-06-04T19:51:38.993747
275,-0.0878,0.2152,1.0712,1.645,-10.990,-1.540,421,420,388,403,387,2025-06-04T19:51:38.993747
276,-0.0547,0.2118,1.0453,3.185,-13.685,-1.750,424,358,382,391,404,2025-06-04T19:51:38.993747
277,-0.0224,0.2220,1.0326,4.410,-14.140,-2.205,385,383,384,396,402,2025-06-04T19:51:39.101582
278,0.0005,0.2181,1.0097,5.110,-14.455,-2.205,351,410,396,421,405,2025-06-04T19:51:39.101582
279,-0.0005,0.2103,0.9853,5.425,-15.190,-2.205,378,393,349,407,408,2025-06-04T19:51:39.101582
280,-0.0239,0.2015,0.9745,5.635,-17.605,-1.960,422,355,325,406,314,2025-06-04T19:51:39.101582
281,-0.0376,0.1957,0.9692,5.810,-21.280,-1.820,380,382,361,400,328,2025-06-04T19:51:39.101920
282,-0.0327,0.1942,0.9809,5.740,-24.850,-1.855,424,376,335,406,373,2025-06-04T19:51:39.101920
283,-0.0005,0.1928,0.9916,5.425,-26.110,-1.680,430,417,356,359,393,2025-06-04T19:51:39.101920
284,0.0298,0.1986,0.9848,6.160,-22.190,-1.365,414,422,374,402,392,2025-06-04T19:51:39.101920
285,0.0132,0.2001,1.0014,8.260,-19.810,-1.820,379,399,376,376,347,2025-06-04T19:51:39.101920
286,-0.0273,0.1854,0.9950,6.405,-15.505,-2.100,331,416,389,400,383,2025-06-04T19:51:39.101920
287,0.0288,0.2362,1.0131,8.400,-11.865,-1.575,401,407,383,405,381,2025-06-04T19:51:39.101920
288,-0.0547,0.2040,0.9789,5.250,-8.155,1.120,393,406,381,399,343,2025-06-04T19:51:39.101920
289,-0.0303,0.1654,0.9872,8.120,-10.325,1.715,391,413,368,302,363,2025-06-04T19:51:39.190445
290,-0.0971,0.1913,0.9955,6.685,-16.555,1.015,421,422,350,384,400,2025-06-04T19:51:39.190445
291,-0.0454,0.1742,1.0043,3.920,-18.410,0.595,424,381,356,411,396,2025-06-04T19:51:39.190445
292,0.0142,0.1820,1.0019,3.920,-15.995,1.190,401,383,372,411,404,2025-06-04T19:51:39.190445
293,0.0137,0.1815,1.0199,4.060,-12.180,1.330,413,400,373,420,401,2025-06-04T19:51:39.190445
294,0.0093,0.1850,1.0404,4.690,-11.235,1.085,398,378,383,416,360,2025-06-04T19:51:39.190445
295,0.0078,0.1981,1.0590,4.095,-12.180,0.875,382,371,375,420,393,2025-06-04T19:51:39.190445
296,0.0122,0.2089,1.0819,4.935,-15.645,0.665,409,410,378,363,342,2025-06-04T19:51:39.300777
297,0.0205,0.2211,1.1209,6.790,-19.530,1.050,403,414,305,372,335,2025-06-04T19:51:39.300777
298,0.0869,0.2216,1.1688,9.695,-23.205,0.735,305,391,349,390,376,2025-06-04T19:51:39.301591
299,0.1889,0.2137,1.1902,12.600,-23.345,-0.175,347,396,363,413,375,2025-06-04T19:51:39.301591
300,0.2240,0.1810,1.1917,17.850,-19.110,-1.435,409,419,367,403,382,2025-06-04T19:51:39.301591
301,0.2342,0.1508,1.1849,28.350,-20.335,-0.490,394,411,369,407,397,2025-06-04T19:51:39.301591
302,0.1932,0.0078,1.2644,34.895,-15.820,-11.375,386,351,375,400,394,2025-06-04T19:51:39.301591
303,0.4260,0.0630,1.3566,51.905,3.045,-35.805,411,403,387,389,413,2025-06-04T19:51:39.301591
304,0.4104,-0.0117,1.4982,71.855,22.855,-46.200,407,410,392,388,411,2025-06-04T19:51:39.301591
305,0.3909,-0.1240,1.5226,95.375,39.865,-51.065,405,421,377,417,416,2025-06-04T19:51:39.481828
306,0.2503,-0.0063,1.4581,118.055,56.490,-57.680,373,423,388,409,410,2025-06-04T19:51:39.481828
307,0.1752,-0.0059,1.3688,142.765,80.360,-64.470,418,407,378,392,419,2025-06-04T19:51:39.482896
308,0.1176,0.0005,1.2927,173.285,115.570,-66.990,398,360,390,356,360,2025-06-04T19:51:39.482896
309,0.0327,0.0405,1.2254,202.825,160.440,-64.330,352,410,340,379,372,2025-06-04T19:51:39.482896
310,-0.1308,0.1235,1.1258,226.450,204.470,-58.555,411,432,369,401,406,2025-06-04T19:51:39.482896
311,-0.3309,0.2015,0.9945,250.495,233.765,-49.560,400,427,378,397,411,2025-06-04T19:51:39.482896
312,-0.4543,0.2796,0.8535,274.225,255.885,-41.300,390,370,373,398,397,2025-06-04T19:51:39.482896
313,-0.4734,0.4885,0.6534,285.040,264.180,-22.925,393,338,381,400,390,2025-06-04T19:51:39.482896
314,-0.6261,0.4124,0.5309,286.440,257.355,0.175,423,398,376,410,394,2025-06-04T19:51:39.482896
315,-0.6983,0.4480,0.4172,282.520,236.985,21.595,417,407,369,399,404,2025-06-04T19:51:39.482896
316,-0.6603,0.4612,0.2552,276.815,205.485,40.005,363,417,384,398,416,2025-06-04T19:51:39.482896
317,-0.6886,0.4831,0.0825,264.565,168.630,55.370,363,400,389,410,398,2025-06-04T19:51:39.482896
318,-0.7666,0.5109,0.0346,244.930,133.385,66.710,414,424,366,387,386,2025-06-04T19:51:39.482896
319,-0.7110,0.6037,0.0102,222.880,79.450,73.500,381,396,378,397,389,2025-06-04T19:51:39.482896
320,-0.6007,0.6525,-0.0522,195.615,26.985,79.030,415,427,382,415,343,2025-06-04T19:51:39.531074
321,-0.5236,0.6598,-0.1430,167.930,-16.345,80.710,415,419,392,377,368,2025-06-04T19:51:39.531074
322,-0.3372,0.7188,-0.1728,142.695,-42.805,77.280,400,438,400,388,339,2025-06-04T19:51:39.531074
323,-0.1518,0.7657,-0.1762,118.685,-49.735,71.435,425,413,389,407,394,2025-06-04T19:51:39.531074
324,0.0015,0.7979,-0.1479,99.610,-36.855,63.805,305,408,364,412,414,2025-06-04T19:51:39.582773
325,0.0405,0.8520,-0.0956,77.210,-13.615,54.810,390,432,373,411,352,2025-06-04T19:51:39.582773
326,0.0259,0.8857,-0.0234,58.940,4.760,46.305,414,412,375,421,390,2025-06-04T19:51:39.582773
327,-0.0059,0.8921,0.0185,42.805,19.145,39.865,414,402,395,426,392,2025-06-04T19:51:39.583331
328,-0.0483,0.8935,0.0200,27.580,20.405,35.840,434,406,401,434,354,2025-06-04T19:51:39.583331
329,-0.1025,0.8945,0.0942,16.975,12.600,29.960,362,410,357,411,374,2025-06-04T19:51:39.689572
330,-0.1118,0.9340,0.1737,8.715,1.645,23.310,405,390,372,357,390,2025-06-04T19:51:39.689572
331,-0.0712,0.9570,0.2015,4.060,-10.115,16.695,408,402,384,406,392,2025-06-04T19:51:39.689572
332,-0.0088,1.0141,0.3016,-1.785,-15.225,6.860,424,409,381,410,405,2025-06-04T19:51:39.689572
333,0.0991,1.0756,0.3606,-6.195,-12.005,-1.365,412,434,355,407,410,2025-06-04T19:51:39.689572
334,0.1527,1.1234,0.3353,-10.325,-4.340,-11.480,414,442,349,396,412,2025-06-04T19:51:39.689572
335,0.1464,1.1795,0.2879,-12.705,-1.120,-21.805,382,439,384,377,406,2025-06-04T19:51:39.689572
336,0.1088,1.2727,0.2894,-12.985,-4.865,-33.460,418,395,373,408,377,2025-06-04T19:51:39.689572
337,0.0898,1.4162,0.2967,-16.030,-13.790,-44.975,414,424,390,352,398,2025-06-04T19:51:39.790106
338,0.0976,1.6177,0.3309,-22.050,-39.620,-53.375,433,415,375,403,402,2025-06-04T19:51:39.790106
339,0.1679,1.8427,0.3436,-33.600,-62.930,-58.730,406,410,372,418,414,2025-06-04T19:51:39.790106
340,0.2450,2.1004,0.3109,-52.885,-91.070,-62.195,368,373,371,347,407,2025-06-04T19:51:39.790106
341,0.3636,2.3068,0.2230,-78.785,-109.480,-68.460,383,417,372,341,400,2025-06-04T19:51:39.790106
342,0.6227,2.4722,0.0117,-103.740,-119.315,-71.295,389,421,366,326,355,2025-06-04T19:51:39.791122
343,0.7745,2.4859,-0.2908,-131.005,-127.575,-65.240,403,410,383,361,391,2025-06-04T19:51:39.791122
344,0.8735,2.4800,-0.6061,-148.085,-133.630,-53.970,391,417,342,397,398,2025-06-04T19:51:39.791122
345,0.6715,2.5410,-0.6412,-178.955,-131.495,-60.130,391,422,359,412,404,2025-06-04T19:51:39.791122
346,0.5383,2.5298,-0.6583,-211.330,-129.220,-81.095,375,406,373,409,397,2025-06-04T19:51:39.888182
347,0.1322,2.2565,-0.6852,-246.505,-147.210,-112.350,404,419,372,364,406,2025-06-04T19:51:39.888182
348,-0.3553,1.8910,-0.5832,-283.395,-205.065,-127.400,405,395,382,404,416,2025-06-04T19:51:39.888182
349,-0.5968,1.4674,-0.6290,-318.150,-289.730,-136.675,419,418,391,392,361,2025-06-04T19:51:39.888182
350,-0.6983,0.7754,-0.5661,-353.955,-357.980,-152.880,339,397,387,383,391,2025-06-04T19:51:39.888182
351,-0.1484,-0.0800,-0.4470,-385.490,-360.150,-164.045,409,401,376,376,389,2025-06-04T19:51:40.177383
352,0.1401,-1.1287,-0.1157,-402.185,-298.515,-181.475,412,420,354,399,390,2025-06-04T19:51:40.177383
353,0.3567,-2.0921,0.2767,-471.765,-176.295,-216.195,393,453,381,407,388,2025-06-04T19:51:40.177383
354,-0.5480,-3.5731,0.6749,-353.010,-170.835,-244.020,412,441,380,422,363,2025-06-04T19:51:40.177383
355,-1.2058,-4.6448,1.1922,-364.700,-117.460,-224.630,337,407,392,395,365,2025-06-04T19:51:40.177383
356,-1.6163,-4.6819,1.2459,-262.815,-203.770,-185.955,417,452,426,448,418,2025-06-04T19:51:40.177383
357,-1.0277,-4.2275,0.6334,-130.865,-286.405,-90.650,395,352,402,380,366,2025-06-04T19:51:40.177383
358,0.2176,-4.0065,0.5114,-13.825,-247.170,38.150,407,400,375,342,345,2025-06-04T19:51:40.177383
359,1.1063,-3.2750,0.8979,132.300,-128.625,134.155,394,384,388,384,407,2025-06-04T19:51:40.177383
360,0.7823,-2.5269,1.0663,207.585,55.195,162.715,407,416,310,293,399,2025-06-04T19:51:40.177383
361,0.2294,-2.1169,1.1029,230.755,154.140,170.695,411,431,350,382,427,2025-06-04T19:51:40.177383
362,-0.3499,-1.6514,1.1741,272.195,147.455,181.125,387,430,376,337,406,2025-06-04T19:51:40.177383
363,-0.6822,-1.2263,1.1790,287.700,117.215,177.940,410,431,377,372,375,2025-06-04T19:51:40.177383
364,-0.4392,-0.7081,1.1068,287.595,86.940,167.055,406,391,390,409,402,2025-06-04T19:51:40.177383
365,-0.0059,-0.1923,0.9004,293.755,92.120,159.530,389,421,376,405,398,2025-06-04T19:51:40.177383
366,0.2923,0.1503,0.6095,294.525,123.445,155.680,381,416,392,396,373,2025-06-04T19:51:40.177383
367,0.2499,0.7042,0.5124,293.160,153.265,141.295,334,454,430,464,386,2025-06-04T19:51:40.178384
368,0.1713,1.0648,0.3748,280.595,164.605,120.540,405,427,366,425,390,2025-06-04T19:51:40.178384
369,0.0942,1.2864,0.0952,273.455,159.425,100.100,420,416,377,396,360,2025-06-04T19:51:40.178384
370,-0.0107,1.4006,-0.0239,262.535,149.135,77.945,418,300,365,401,384,2025-06-04T19:51:40.178384
371,0.0547,1.5860,-0.0381,248.640,136.780,60.480,396,326,370,417,382,2025-06-04T19:51:40.328298
372,0.1376,1.6270,-0.0156,229.670,117.460,52.010,414,332,384,423,395,2025-06-04T19:51:40.328298
373,0.2240,1.6675,-0.0239,200.095,88.970,51.765,413,383,380,402,348,2025-06-04T19:51:40.328298
374,0.1635,1.6236,-0.0268,172.515,52.745,47.775,421,403,384,371,392,2025-06-04T19:51:40.328298
375,0.2728,1.5889,-0.0361,148.680,21.280,43.820,380,368,347,381,402,2025-06-04T19:51:40.328298
376,0.4036,1.5055,0.0107,132.265,2.730,37.940,395,394,365,405,387,2025-06-04T19:51:40.328298
377,0.5905,1.4806,0.0259,121.835,2.520,30.730,397,406,379,404,395,2025-06-04T19:51:40.328298
378,0.6246,1.4416,0.0766,106.330,12.250,19.845,395,408,335,391,398,2025-06-04T19:51:40.328298
379,0.6798,1.3723,0.0786,94.395,28.560,11.900,407,405,357,401,392,2025-06-04T19:51:40.328298
380,0.6412,1.3132,0.1083,81.515,46.095,1.330,360,379,371,398,397,2025-06-04T19:51:40.328298
381,0.5783,1.2659,0.1513,68.005,58.590,-7.945,414,407,367,392,397,2025-06-04T19:51:40.328298
382,0.4363,1.2044,0.2074,57.015,61.355,-14.735,403,407,358,409,400,2025-06-04T19:51:40.328298
383,0.2786,1.1600,0.2220,45.990,54.530,-19.110,396,366,378,418,367,2025-06-04T19:51:40.329368
384,0.1562,1.1429,0.2747,34.930,38.045,-22.400,417,415,381,416,385,2025-06-04T19:51:40.329368
385,0.0444,1.1405,0.3445,25.375,18.830,-26.740,411,413,387,400,400,2025-06-04T19:51:40.329368
386,-0.0088,1.0960,0.3421,15.120,-2.030,-27.755,425,399,384,411,350,2025-06-04T19:51:40.329368
387,-0.0776,1.0468,0.3440,6.965,-19.880,-28.105,426,351,390,395,385,2025-06-04T19:51:40.329368
388,-0.0766,1.0155,0.3684,3.115,-26.950,-30.765,430,413,376,356,407,2025-06-04T19:51:40.329368
389,-0.0590,0.9755,0.3655,-2.205,-24.990,-33.250,420,412,373,392,408,2025-06-04T19:51:40.329368
390,-0.0590,0.9306,0.3572,-4.375,-17.710,-33.775,402,373,373,403,398,2025-06-04T19:51:40.600237
391,-0.0747,0.8930,0.3704,-3.780,-6.265,-33.040,396,407,386,313,400,2025-06-04T19:51:40.600237
392,-0.0986,0.8799,0.3748,-2.450,6.650,-29.260,412,348,379,318,356,2025-06-04T19:51:40.601236
393,-0.2269,0.8711,0.3938,0.770,16.940,-27.125,401,325,388,376,394,2025-06-04T19:51:40.601236
394,-0.3123,0.8760,0.4055,5.775,18.725,-25.130,428,366,396,391,399,2025-06-04T19:51:40.601481
395,-0.3157,0.8750,0.4187,5.215,18.025,-19.530,401,377,400,367,397,2025-06-04T19:51:40.601481
396,-0.3421,0.8833,0.4065,7.735,12.845,-15.715,409,416,350,383,407,2025-06-04T19:51:40.601481
397,-0.3758,0.8857,0.3880,9.730,9.870,-13.685,401,423,362,388,358,2025-06-04T19:51:40.601481
398,-0.3440,0.9082,0.3831,11.200,8.365,-12.705,421,428,376,405,392,2025-06-04T19:51:40.601481
399,-0.2704,0.8935,0.3514,12.530,8.820,-10.185,406,418,374,408,370,2025-06-04T19:51:40.601481
400,-0.2577,0.9121,0.3426,12.880,12.320,-6.930,396,435,379,349,391,2025-06-04T19:51:40.601481
401,-0.2699,0.9199,0.3470,13.475,15.470,-5.250,410,362,382,338,408,2025-06-04T19:51:40.601481
402,-0.2913,0.9418,0.3640,14.595,16.310,-4.550,411,386,385,378,405,2025-06-04T19:51:40.601481
403,-0.2806,0.9409,0.3587,12.775,13.650,-2.730,404,380,377,381,408,2025-06-04T19:51:40.601481
404,-0.2806,0.9423,0.3509,9.695,9.205,-0.315,408,418,382,409,411,2025-06-04T19:51:40.601481
405,-0.2777,0.9379,0.3396,8.785,4.620,0.700,402,418,378,397,400,2025-06-04T19:51:40.736933
406,-0.2494,0.9506,0.3416,8.155,1.785,1.540,355,423,340,397,402,2025-06-04T19:51:40.738014
407,-0.2318,0.9394,0.3265,5.460,-0.525,2.205,391,410,364,348,398,2025-06-04T19:51:40.738014
408,-0.2133,0.9355,0.3196,3.675,-2.485,3.465,372,421,362,391,407,2025-06-04T19:51:40.738014
409,-0.2167,0.9389,0.3206,2.730,-2.135,3.780,423,405,374,366,408,2025-06-04T19:51:40.738014
410,-0.2103,0.9355,0.3362,1.750,-1.680,4.060,401,398,382,386,392,2025-06-04T19:51:40.738014
411,-0.2118,0.9174,0.3299,0.840,-0.525,4.130,388,343,387,346,403,2025-06-04T19:51:40.738014
412,-0.2006,0.9106,0.3196,0.210,2.590,4.095,335,376,347,370,372,2025-06-04T19:51:40.738014
413,-0.2259,0.9033,0.3255,0.105,6.895,3.465,399,420,377,373,389,2025-06-04T19:51:40.738014
414,-0.2567,0.8955,0.3299,0.490,8.925,2.695,383,424,387,387,391,2025-06-04T19:51:40.738014
415,-0.2757,0.8730,0.3177,0.560,7.420,3.605,394,420,391,381,392,2025-06-04T19:51:40.738014
416,-0.3074,0.8594,0.3182,0.805,1.925,5.285,368,408,348,397,390,2025-06-04T19:51:40.738014
417,-0.3387,0.8608,0.3167,2.170,-3.745,6.055,368,427,357,391,346,2025-06-04T19:51:40.738014
418,-0.3162,0.8579,0.3226,3.290,-6.300,6.370,411,349,373,387,386,2025-06-04T19:51:40.738883
419,-0.3074,0.8472,0.3270,3.255,-5.775,6.265,399,409,372,411,409,2025-06-04T19:51:40.738883
420,-0.3216,0.8237,0.3270,3.780,-5.075,6.090,394,367,370,419,389,2025-06-04T19:51:40.738883
421,-0.3289,0.8179,0.3328,4.620,-5.180,5.670,418,371,364,420,408,2025-06-04T19:51:40.738883
422,-0.3245,0.8213,0.3406,5.005,-6.055,4.655,391,389,359,425,410,2025-06-04T19:51:40.835981
423,-0.2991,0.8252,0.3362,4.830,-5.635,3.815,412,369,369,419,404,2025-06-04T19:51:40.835981
424,-0.2938,0.8286,0.3274,4.585,-5.285,2.450,425,396,353,410,413,2025-06-04T19:51:40.835981
425,-0.3021,0.8330,0.3328,4.480,-5.810,0.070,401,340,358,406,414,2025-06-04T19:51:40.835981
426,-0.2806,0.8320,0.3226,4.130,-7.245,-0.945,419,387,363,396,402,2025-06-04T19:51:40.835981
427,-0.2640,0.8350,0.3221,3.360,-8.295,-1.225,430,375,366,358,404,2025-06-04T19:51:40.836759
428,-0.2503,0.8389,0.3240,2.835,-7.980,-1.260,370,416,383,385,404,2025-06-04T19:51:40.836759
429,-0.2621,0.8555,0.3436,2.485,-7.385,-2.485,418,425,384,388,410,2025-06-04T19:51:40.836759
430,-0.2523,0.8550,0.3465,1.435,-7.140,-3.360,378,350,375,339,401,2025-06-04T19:51:40.836759
431,-0.2630,0.8511,0.3621,-0.210,-6.825,-4.900,405,386,373,373,403,2025-06-04T19:51:40.836759
432,-0.2440,0.8569,0.3733,-1.330,-5.880,-6.195,411,382,342,337,348,2025-06-04T19:51:40.836759
433,-0.2406,0.8477,0.3675,-2.835,-4.620,-7.105,415,418,358,401,387,2025-06-04T19:51:40.914919
434,-0.2406,0.8486,0.3684,-3.710,-4.655,-8.225,402,427,367,345,383,2025-06-04T19:51:40.915919
435,-0.2259,0.8477,0.3680,-4.900,-3.535,-9.415,396,406,380,376,396,2025-06-04T19:51:40.915919
436,-0.2059,0.8613,0.3836,-6.265,-1.120,-10.710,417,433,373,406,413,2025-06-04T19:51:40.915919
437,-0.1830,0.8764,0.3899,-8.085,1.645,-12.565,399,416,382,410,356,2025-06-04T19:51:40.915919
438,-0.1684,0.8901,0.3963,-10.045,2.975,-14.700,353,410,383,395,373,2025-06-04T19:51:40.915919
439,-0.1557,0.9130,0.4031,-13.020,-1.750,-16.765,399,419,373,392,397,2025-06-04T19:51:40.915919
440,-0.1796,0.9628,0.3870,-16.765,-11.655,-20.685,407,404,379,405,395,2025-06-04T19:51:41.033674
441,-0.1562,1.0238,0.3782,-20.160,-31.325,-25.200,406,423,370,400,394,2025-06-04T19:51:41.033895
442,-0.0561,1.1019,0.3733,-24.885,-54.215,-30.205,413,437,379,405,380,2025-06-04T19:51:41.034045
443,0.0644,1.2146,0.3499,-32.200,-72.450,-35.910,371,424,372,413,389,2025-06-04T19:51:41.034045
444,0.2142,1.3581,0.3006,-38.885,-85.400,-41.335,407,427,366,357,393,2025-06-04T19:51:41.034045
445,0.3889,1.5260,0.1991,-42.700,-92.680,-44.065,414,360,381,333,396,2025-06-04T19:51:41.034331
446,0.5065,1.7065,0.0698,-47.495,-94.360,-43.925,419,420,355,384,355,2025-06-04T19:51:41.034331
447,0.6129,1.8798,-0.0654,-52.955,-87.115,-42.735,397,409,372,394,380,2025-06-04T19:51:41.034331
448,0.6373,2.0301,-0.1884,-60.725,-72.765,-42.000,398,424,344,385,395,2025-06-04T19:51:41.082929
449,0.6290,2.1516,-0.2908,-70.210,-56.735,-40.005,391,407,356,385,383,2025-06-04T19:51:41.082929
450,0.5134,2.2941,-0.3650,-86.485,-42.875,-40.215,404,422,363,403,387,2025-06-04T19:51:41.082929
451,0.3348,2.4093,-0.4490,-106.050,-39.830,-44.205,388,388,372,312,349,2025-06-04T19:51:41.082929
452,0.1801,2.4722,-0.5866,-124.250,-49.350,-51.870,405,407,378,346,372,2025-06-04T19:51:41.082929
453,-0.0527,2.3839,-0.6642,-146.930,-69.965,-61.810,367,407,373,383,372,2025-06-04T19:51:41.140692
454,-0.1913,2.2560,-0.6759,-171.710,-102.340,-76.965,398,424,343,396,345,2025-06-04T19:51:41.140692
455,-0.2738,2.0081,-0.4860,-205.695,-134.400,-92.715,406,363,369,379,371,2025-06-04T19:51:41.140692
456,-0.2211,1.8681,-0.3138,-252.420,-151.340,-114.520,400,369,380,388,402,2025-06-04T19:51:41.140692
457,-0.0444,1.2371,-0.2352,-299.460,-153.440,-120.540,412,402,389,393,349,2025-06-04T19:51:41.140692
458,-0.1420,0.5080,-0.0420,-344.015,-129.885,-125.965,420,435,347,381,373,2025-06-04T19:51:41.222126
459,-0.2245,-0.5968,0.1362,-368.935,-86.800,-116.480,409,405,373,398,403,2025-06-04T19:51:41.222126
460,-0.6803,-1.2141,0.6076,-401.870,-13.055,-142.800,405,403,398,420,387,2025-06-04T19:51:41.222126
461,-1.3879,-2.5078,1.0629,-351.645,4.795,-189.595,346,439,416,453,401,2025-06-04T19:51:41.222126
462,-2.0106,-3.5097,1.3210,-353.570,7.595,-189.910,382,436,412,421,405,2025-06-04T19:51:41.222126
463,-2.2102,-3.7893,1.4982,-300.475,-130.970,-140.910,401,438,436,451,405,2025-06-04T19:51:41.222126
464,-2.0720,-3.8274,1.2478,-193.620,-296.310,-35.875,392,442,427,460,425,2025-06-04T19:51:41.222126
465,-1.1239,-3.6195,0.9687,-91.910,-350.595,78.505,327,393,408,430,407,2025-06-04T19:51:41.326727
466,-0.0010,-3.3823,0.8940,40.110,-310.660,159.495,394,417,401,435,416,2025-06-04T19:51:41.326727
467,0.8486,-2.9670,0.9575,155.330,-169.470,203.350,402,407,395,400,318,2025-06-04T19:51:41.326727
468,0.7598,-2.5898,1.0624,206.815,-8.295,213.115,416,417,395,377,369,2025-06-04T19:51:41.326727
469,0.5549,-2.1340,1.0087,256.095,76.510,214.690,410,409,381,399,415,2025-06-04T19:51:41.326727
470,0.3201,-1.6280,0.9984,279.020,135.870,209.510,414,407,382,405,386,2025-06-04T19:51:41.326727
471,-0.0830,-1.1858,0.8999,281.015,145.460,201.845,418,432,348,429,390,2025-06-04T19:51:41.326727
472,-0.2967,-1.0531,0.7125,271.285,112.980,186.830,423,425,356,422,411,2025-06-04T19:51:41.326727
473,-0.3040,-0.5222,0.5588,273.280,63.455,160.195,407,414,375,415,386,2025-06-04T19:51:41.326727
474,-0.0893,0.0107,0.4070,252.700,31.325,127.330,378,372,393,423,393,2025-06-04T19:51:41.426700
475,0.2699,0.4524,0.2669,226.450,22.295,99.890,383,436,389,435,345,2025-06-04T19:51:41.426700
476,0.2777,0.8213,0.1591,195.965,42.035,67.550,393,396,379,428,390,2025-06-04T19:51:41.426700
477,0.2450,1.0941,-0.0059,177.345,59.395,37.555,371,413,369,416,355,2025-06-04T19:51:41.426700
478,0.2611,1.3440,-0.0683,169.820,84.525,8.400,404,420,374,392,367,2025-06-04T19:51:41.426700
479,0.1728,1.5065,-0.0063,139.265,89.810,-14.630,410,422,391,391,390,2025-06-04T19:51:41.426700
480,0.1942,1.6138,0.0356,119.630,103.775,-32.690,430,430,379,394,410,2025-06-04T19:51:41.426700
481,0.0717,1.5435,0.0844,88.585,103.565,-45.745,349,421,386,421,413,2025-06-04T19:51:41.426700
482,0.0142,1.4806,0.1420,61.845,97.720,-58.275,406,355,386,426,420,2025-06-04T19:51:41.528018
483,-0.1157,1.3859,0.2113,52.675,79.135,-65.695,415,382,394,377,396,2025-06-04T19:51:41.528018
484,-0.0771,1.3186,0.2860,48.405,55.160,-67.865,417,400,387,399,391,2025-06-04T19:51:41.528018
485,-0.2225,1.2932,0.3816,56.385,28.385,-69.895,417,417,369,393,404,2025-06-04T19:51:41.528018
486,-0.1357,1.2615,0.3855,55.580,13.160,-72.415,392,428,383,408,372,2025-06-04T19:51:41.528018
487,-0.1484,1.1419,0.4451,58.625,-7.315,-74.550,413,404,390,413,378,2025-06-04T19:51:41.528018
488,-0.1157,1.1941,0.4499,62.020,-20.055,-73.465,402,383,376,353,373,2025-06-04T19:51:41.528018
489,-0.1244,1.1551,0.4538,61.670,-24.850,-70.665,384,340,342,384,386,2025-06-04T19:51:41.528018
490,-0.1957,1.1043,0.4426,61.880,-26.215,-72.345,418,400,374,391,396,2025-06-04T19:51:41.628289
491,-0.1957,1.0570,0.4172,62.230,-27.930,-72.975,363,421,377,405,390,2025-06-04T19:51:41.628289
492,-0.2455,1.0438,0.4250,64.575,-28.035,-72.905,390,378,343,401,384,2025-06-04T19:51:41.628289
493,-0.2245,1.0214,0.4148,70.210,-25.970,-71.540,419,394,355,390,384,2025-06-04T19:51:41.628289
494,-0.2611,0.9989,0.4050,73.220,-23.835,-67.515,403,333,379,399,401,2025-06-04T19:51:41.628289
495,-0.3089,0.9911,0.4021,74.690,-24.675,-63.175,409,379,385,390,390,2025-06-04T19:51:41.628289
496,-0.3006,1.0038,0.3836,72.905,-24.570,-58.520,401,411,346,350,350,2025-06-04T19:51:41.628289
497,-0.3426,0.9814,0.3816,66.220,-26.775,-54.040,419,390,366,378,394,2025-06-04T19:51:41.628289
498,-0.3187,0.9716,0.3597,63.875,-25.655,-49.490,403,411,380,397,389,2025-06-04T19:51:41.731828
499,-0.3001,0.9794,0.3470,60.445,-20.825,-47.180,420,381,375,393,395,2025-06-04T19:51:41.731828
500,-0.2894,0.9716,0.3416,58.870,-14.210,-44.345,399,409,367,403,348,2025-06-04T19:51:41.732820
501,-0.3138,0.9794,0.3684,56.140,-8.295,-42.490,403,407,370,411,369,2025-06-04T19:51:41.905963
502,-0.3255,0.9853,0.3845,52.990,-5.600,-40.075,401,342,384,413,392,2025-06-04T19:51:41.905963
503,-0.2923,0.9736,0.3494,48.055,-5.250,-35.770,361,369,374,418,389,2025-06-04T19:51:41.905963
504,-0.3006,0.9526,0.3636,44.310,-9.310,-32.235,404,392,386,421,403,2025-06-04T19:51:41.905963
505,-0.3016,0.9628,0.3611,39.585,-11.130,-28.700,416,411,388,377,410,2025-06-04T19:51:41.905963
506,-0.2577,0.9701,0.3601,38.430,-10.955,-25.095,429,402,378,362,412,2025-06-04T19:51:41.905963
507,-0.2313,0.9770,0.3343,35.000,-8.190,-20.405,384,418,388,365,407,2025-06-04T19:51:41.905963
508,-0.2289,0.9614,0.3323,33.390,-5.845,-18.095,394,380,350,334,396,2025-06-04T19:51:41.905963
509,-0.2235,0.9848,0.3333,29.785,-1.575,-15.680,399,399,353,368,356,2025-06-04T19:51:41.905963
510,-0.2162,0.9736,0.3597,28.245,4.445,-13.300,356,373,357,396,388,2025-06-04T19:51:41.905963
511,-0.2220,0.9789,0.3494,24.745,6.755,-9.765,393,402,381,401,381,2025-06-04T19:51:41.906864
512,-0.2542,0.9799,0.3631,20.300,8.750,-8.015,413,423,382,417,383,2025-06-04T19:51:41.906864
513,-0.2918,0.9765,0.3904,18.235,8.155,-7.245,392,429,371,352,341,2025-06-04T19:51:41.906864
514,-0.2689,0.9701,0.4260,16.240,5.880,-5.180,417,343,346,387,329,2025-06-04T19:51:41.906864
515,-0.2689,0.9545,0.4529,14.070,2.590,-1.190,419,384,369,390,382,2025-06-04T19:51:41.965159
516,-0.2850,0.9423,0.4582,11.760,0.910,0.665,396,297,372,393,387,2025-06-04T19:51:41.965159
517,-0.2743,0.9140,0.4426,9.380,1.855,1.680,335,392,389,411,343,2025-06-04T19:51:41.965159
518,-0.2928,0.8886,0.4382,6.720,3.185,2.205,377,388,379,391,381,2025-06-04T19:51:41.965159
519,-0.3104,0.8755,0.4358,4.095,3.535,2.940,402,399,371,406,388,2025-06-04T19:51:41.965159
520,-0.3109,0.8530,0.4290,3.465,4.725,3.570,397,395,373,400,388,2025-06-04T19:51:41.965159
521,-0.3030,0.8413,0.4324,2.135,9.205,4.270,421,414,384,363,402,2025-06-04T19:51:41.965159
522,-0.3074,0.8320,0.4226,1.330,14.105,5.215,419,418,378,381,386,2025-06-04T19:51:41.965159
523,-0.3299,0.8384,0.4265,-0.140,20.090,4.935,414,406,378,372,361,2025-06-04T19:51:41.965159
524,-0.3548,0.8452,0.4465,-3.185,25.725,4.445,403,395,372,365,391,2025-06-04T19:51:41.965159
525,-0.3909,0.8477,0.4519,-6.580,28.805,4.655,393,419,382,404,390,2025-06-04T19:51:41.965159
526,-0.4158,0.8330,0.4421,-8.435,27.825,6.055,423,348,389,402,409,2025-06-04T19:51:42.241162
527,-0.4509,0.8350,0.4426,-11.235,24.570,7.945,399,397,376,392,403,2025-06-04T19:51:42.241162
528,-0.4441,0.8311,0.4421,-13.545,21.525,9.450,420,353,382,413,397,2025-06-04T19:51:42.241162
529,-0.4397,0.8345,0.4524,-16.380,19.215,11.200,411,422,378,367,384,2025-06-04T19:51:42.241162
530,-0.4187,0.8296,0.4494,-18.935,17.080,13.090,418,409,373,377,395,2025-06-04T19:51:42.241162
531,-0.4133,0.8330,0.4480,-20.405,15.540,15.330,392,428,382,411,388,2025-06-04T19:51:42.241162
532,-0.3933,0.8316,0.4465,-21.560,16.520,16.730,400,422,376,422,388,2025-06-04T19:51:42.241162
533,-0.3753,0.8379,0.4421,-22.015,20.090,17.850,372,355,374,372,393,2025-06-04T19:51:42.241162
534,-0.3631,0.8369,0.4377,-22.365,24.500,18.970,408,421,372,387,392,2025-06-04T19:51:42.241162
535,-0.3587,0.8423,0.4353,-22.785,27.965,20.405,394,419,371,375,389,2025-06-04T19:51:42.241162
536,-0.3767,0.8374,0.4246,-23.450,30.380,21.700,401,412,368,366,384,2025-06-04T19:51:42.241162
537,-0.3870,0.8369,0.4124,-23.485,30.450,23.625,406,419,379,386,404,2025-06-04T19:51:42.241162
538,-0.3914,0.8423,0.3958,-24.465,29.925,24.955,401,407,374,385,397,2025-06-04T19:51:42.241162
539,-0.3792,0.8433,0.3767,-24.500,30.135,26.600,417,412,353,392,408,2025-06-04T19:51:42.241162
540,-0.3797,0.8447,0.3592,-25.200,30.975,27.965,423,408,364,346,411,2025-06-04T19:51:42.241162
541,-0.3841,0.8369,0.3392,-26.075,31.885,29.505,432,376,335,373,412,2025-06-04T19:51:42.241162
542,-0.3836,0.8355,0.3367,-26.215,32.340,30.590,360,362,371,390,360,2025-06-04T19:51:42.242159
543,-0.3963,0.8286,0.3265,-27.195,32.235,31.570,369,412,384,405,395,2025-06-04T19:51:42.363233
544,-0.4250,0.8120,0.3182,-27.545,31.185,32.270,410,424,389,386,413,2025-06-04T19:51:42.363233
545,-0.4324,0.7945,0.3123,-27.020,29.120,33.040,423,415,384,393,410,2025-06-04T19:51:42.363233
546,-0.4451,0.7803,0.3192,-26.880,27.930,33.670,403,421,390,412,392,2025-06-04T19:51:42.363233
547,-0.4529,0.7735,0.3250,-26.495,27.230,34.160,421,407,390,419,404,2025-06-04T19:51:42.363233
548,-0.4709,0.7569,0.3260,-25.585,25.970,33.915,430,421,392,415,385,2025-06-04T19:51:42.363233
549,-0.4724,0.7462,0.3221,-24.430,25.165,33.985,413,426,389,407,386,2025-06-04T19:51:42.363233
550,-0.4802,0.7364,0.3216,-22.785,25.480,33.530,403,417,378,371,378,2025-06-04T19:51:42.363233
551,-0.4831,0.7291,0.3206,-20.685,27.090,32.550,401,418,385,394,381,2025-06-04T19:51:42.363233
552,-0.4900,0.7271,0.3231,-19.075,28.595,31.325,391,397,384,391,385,2025-06-04T19:51:42.363233
553,-0.5041,0.7296,0.3294,-17.045,29.190,29.610,409,342,386,409,399,2025-06-04T19:51:42.363233
554,-0.5290,0.7369,0.3382,-14.805,28.455,27.055,393,405,378,356,406,2025-06-04T19:51:42.363233
555,-0.5436,0.7447,0.3440,-12.740,26.425,24.360,344,393,386,336,353,2025-06-04T19:51:42.363233
556,-0.5602,0.7574,0.3514,-10.535,22.960,20.580,415,418,378,386,389,2025-06-04T19:51:42.364321
557,-0.5797,0.7564,0.3514,-8.610,17.570,16.905,418,424,348,353,391,2025-06-04T19:51:42.364321
558,-0.6012,0.7579,0.3587,-7.210,10.675,12.775,418,380,331,395,384,2025-06-04T19:51:42.364321
559,-0.5963,0.7520,0.3616,-5.180,5.040,8.785,380,413,358,364,349,2025-06-04T19:51:42.364733
560,-0.5929,0.7437,0.3660,-3.325,-1.365,5.145,385,415,376,352,370,2025-06-04T19:51:42.578025
561,-0.5841,0.7325,0.3719,-1.155,-6.475,2.415,390,362,375,380,385,2025-06-04T19:51:42.578025
562,-0.5666,0.7193,0.3709,0.805,-9.625,-0.630,412,350,350,405,401,2025-06-04T19:51:42.578025
563,-0.5529,0.7052,0.3723,2.835,-11.725,-3.360,338,379,370,390,358,2025-06-04T19:51:42.578025
564,-0.5348,0.7013,0.3767,4.725,-13.335,-5.880,335,416,385,390,384,2025-06-04T19:51:42.578025
565,-0.4992,0.6944,0.3680,6.300,-13.615,-7.770,403,422,378,408,403,2025-06-04T19:51:42.578025
566,-0.4914,0.6964,0.3621,7.315,-12.880,-9.065,390,366,393,395,381,2025-06-04T19:51:42.578025
567,-0.4851,0.7037,0.3626,8.785,-11.725,-10.535,415,413,396,413,393,2025-06-04T19:51:42.578025
568,-0.4807,0.7139,0.3592,9.555,-11.480,-11.270,429,431,347,393,396,2025-06-04T19:51:42.578025
569,-0.4753,0.7266,0.3562,9.905,-12.180,-12.005,387,416,374,401,392,2025-06-04T19:51:42.578025
570,-0.4651,0.7408,0.3514,10.360,-13.580,-12.670,391,407,381,395,397,2025-06-04T19:51:42.578025
571,-0.4602,0.7593,0.3504,10.325,-15.435,-13.405,414,428,383,401,398,2025-06-04T19:51:42.578025
572,-0.4699,0.7671,0.3421,10.605,-19.600,-14.035,406,429,378,415,410,2025-06-04T19:51:42.579089
573,-0.4685,0.7779,0.3377,10.745,-25.760,-14.700,398,372,334,404,392,2025-06-04T19:51:42.579089
574,-0.4763,0.7910,0.3372,11.025,-31.605,-16.065,402,396,359,402,410,2025-06-04T19:51:42.579089
575,-0.4641,0.8091,0.3475,11.270,-36.680,-17.815,398,403,362,348,397,2025-06-04T19:51:42.579089
576,-0.4714,0.8164,0.3514,11.445,-41.230,-19.495,416,422,382,373,409,2025-06-04T19:51:42.579089
577,-0.4680,0.8125,0.3401,12.110,-45.710,-21.210,426,409,391,404,370,2025-06-04T19:51:42.881049
578,-0.4768,0.8237,0.3504,13.090,-50.050,-23.450,362,401,379,408,346,2025-06-04T19:51:42.881049
579,-0.4636,0.8247,0.3558,14.210,-51.065,-25.480,292,376,392,393,386,2025-06-04T19:51:42.881049
580,-0.4426,0.8233,0.3601,15.155,-50.995,-25.130,367,381,382,416,394,2025-06-04T19:51:42.881549
581,-0.4470,0.8330,0.3606,15.820,-50.785,-24.115,411,405,375,399,388,2025-06-04T19:51:42.881649
582,-0.4534,0.8374,0.3470,16.415,-51.100,-23.275,404,371,386,399,384,2025-06-04T19:51:42.881649
583,-0.4529,0.8477,0.3289,16.835,-50.890,-23.065,350,366,382,413,379,2025-06-04T19:51:42.881649
584,-0.4377,0.8608,0.3201,17.395,-50.085,-22.505,331,384,393,395,388,2025-06-04T19:51:42.881649
585,-0.4231,0.8740,0.3045,16.765,-49.175,-21.455,355,389,393,404,411,2025-06-04T19:51:42.881649
586,-0.4021,0.8847,0.2899,15.715,-48.370,-20.265,404,347,373,403,354,2025-06-04T19:51:42.881649
587,-0.3894,0.8896,0.2840,14.420,-47.215,-19.145,412,413,379,412,342,2025-06-04T19:51:42.881649
588,-0.3806,0.8984,0.2835,13.125,-46.165,-18.340,402,422,380,358,363,2025-06-04T19:51:42.881649
589,-0.3723,0.9048,0.3001,11.235,-45.500,-17.640,340,408,373,375,384,2025-06-04T19:51:42.882549
590,-0.3694,0.9057,0.3079,8.855,-45.115,-17.220,401,416,377,397,397,2025-06-04T19:51:42.882549
591,-0.3611,0.9062,0.3187,6.930,-43.890,-17.150,421,422,389,413,403,2025-06-04T19:51:42.882549
592,-0.3421,0.8989,0.3250,4.760,-42.315,-17.360,395,423,391,392,409,2025-06-04T19:51:42.882549
593,-0.3294,0.9043,0.3455,2.800,-39.550,-18.025,404,427,391,405,402,2025-06-04T19:51:42.882549
594,-0.3060,0.8989,0.3597,0.525,-36.925,-18.900,412,426,387,399,406,2025-06-04T19:51:42.882549
595,-0.2943,0.8974,0.3919,-1.540,-34.755,-19.985,418,432,393,412,413,2025-06-04T19:51:42.963926
596,-0.2552,0.9135,0.4309,-2.345,-33.635,-21.210,423,425,388,398,411,2025-06-04T19:51:42.963926
597,-0.2289,0.9443,0.4743,-4.620,-32.235,-23.065,421,406,377,406,416,2025-06-04T19:51:42.963926
598,-0.2045,0.9745,0.5061,-6.930,-31.255,-25.900,365,411,380,395,402,2025-06-04T19:51:42.963926
599,-0.1698,1.0302,0.5451,-8.155,-31.500,-28.000,390,427,367,409,413,2025-06-04T19:51:42.963926
600,-0.1210,1.0970,0.5958,-10.745,-31.885,-28.700,411,401,339,404,421,2025-06-04T19:51:42.963926
601,-0.1327,1.2317,0.6285,-14.595,-33.530,-27.930,412,410,354,398,420,2025-06-04T19:51:42.963926
602,-0.1074,1.4079,0.6471,-20.125,-36.785,-25.305,368,354,335,399,360,2025-06-04T19:51:42.963926
603,-0.0791,1.6138,0.6842,-27.825,-39.270,-18.690,406,411,351,408,378,2025-06-04T19:51:42.963926
604,0.0244,1.8803,0.6856,-36.645,-38.185,-4.865,395,413,329,413,398,2025-06-04T19:51:42.963926
605,0.0854,2.1287,0.5929,-53.060,-31.395,10.850,347,419,352,417,384,2025-06-04T19:51:42.964602
606,0.1152,2.3463,0.3675,-64.225,-20.580,34.825,387,422,376,373,399,2025-06-04T19:51:42.964602
607,0.1122,2.5986,0.0605,-76.545,-4.410,62.475,408,432,382,346,350,2025-06-04T19:51:42.964602
608,0.0581,2.8572,-0.2333,-89.285,18.480,95.690,400,387,367,370,369,2025-06-04T19:51:42.964602
609,-0.1137,3.0988,-0.6188,-99.050,45.815,130.410,406,410,377,398,383,2025-06-04T19:51:43.367481
610,-0.3562,3.1208,-1.0111,-115.535,64.645,172.760,416,373,383,401,384,2025-06-04T19:51:43.367481
611,-0.8135,3.1603,-1.4572,-129.325,73.290,211.155,421,408,354,413,375,2025-06-04T19:51:43.367481
612,-1.3659,3.0017,-1.9369,-139.930,69.860,237.230,418,346,367,415,404,2025-06-04T19:51:43.367481
613,-1.8217,2.6864,-2.3009,-152.215,66.115,257.250,417,400,339,401,403,2025-06-04T19:51:43.367481
614,-2.1179,2.2819,-2.4683,-166.950,66.955,274.295,424,413,366,309,400,2025-06-04T19:51:43.367481
615,-2.5254,1.9515,-2.3556,-194.180,79.555,295.750,421,343,358,368,320,2025-06-04T19:51:43.367481
616,-3.0905,1.3488,-2.0447,-232.015,94.430,316.120,400,375,367,380,324,2025-06-04T19:51:43.367481
617,-3.6668,0.6129,-1.6714,-281.575,94.675,336.770,381,396,377,394,342,2025-06-04T19:51:43.367481
618,-3.7766,-0.1562,-1.1380,-329.000,85.680,356.405,350,399,386,412,330,2025-06-04T19:51:43.367481
619,-3.6512,-1.0634,-0.6817,-383.705,83.825,370.020,372,421,374,419,362,2025-06-04T19:51:43.367481
620,-3.0329,-1.9261,-0.2425,-388.080,94.430,358.960,362,368,386,420,356,2025-06-04T19:51:43.367481
621,-2.5708,-2.3844,-0.0034,-505.645,92.855,324.135,367,452,391,384,347,2025-06-04T19:51:43.367481
622,-2.3683,-3.3052,0.4202,-81.690,-46.025,299.040,420,372,360,360,381,2025-06-04T19:51:43.367481
623,-1.8046,-3.3565,0.9521,-280.175,53.375,286.125,330,380,338,396,401,2025-06-04T19:51:43.367481
624,-1.2947,-3.5014,1.2468,-256.550,-16.975,261.765,345,404,374,353,401,2025-06-04T19:51:43.367481
625,-0.7125,-3.5634,1.4923,-173.775,-107.695,226.030,332,396,393,395,405,2025-06-04T19:51:43.367481
626,0.0151,-3.4262,1.5611,-155.085,-95.515,187.530,373,396,384,366,395,2025-06-04T19:51:43.415307
627,0.5485,-3.2506,1.5518,-115.745,-71.470,138.040,417,405,400,402,408,2025-06-04T19:51:43.415307
628,0.9130,-2.9461,1.5367,-38.570,-44.240,80.395,380,418,346,413,395,2025-06-04T19:51:43.415307
629,1.0692,-2.5547,1.5753,-12.565,13.230,23.835,400,437,373,385,391,2025-06-04T19:51:43.415307
630,1.0790,-2.1365,1.7309,21.350,55.510,-23.275,431,431,389,398,406,2025-06-04T19:51:43.416231
631,0.7496,-1.8612,1.8407,44.380,78.435,-73.955,418,425,365,390,396,2025-06-04T19:51:43.416231
632,0.3753,-1.5089,1.8329,57.575,73.465,-117.530,380,420,390,357,393,2025-06-04T19:51:43.416231
633,-0.0127,-1.1634,1.7851,70.070,41.475,-153.265,373,401,383,385,411,2025-06-04T19:51:43.416231
634,-0.2957,-0.8369,1.7056,72.415,8.015,-182.805,417,412,354,354,393,2025-06-04T19:51:43.416231
635,-0.4070,-0.5744,1.6148,73.290,-30.555,-204.400,408,426,382,421,390,2025-06-04T19:51:43.416231
636,-0.5422,-0.3431,1.5206,75.390,-57.995,-216.930,407,402,390,395,382,2025-06-04T19:51:43.416231
637,-0.6080,-0.1586,1.4220,82.530,-70.280,-228.480,427,434,408,369,400,2025-06-04T19:51:43.416231
638,-0.6476,0.0176,1.3610,88.760,-68.600,-232.120,334,378,411,404,359,2025-06-04T19:51:43.416231
639,-0.7901,0.1820,1.2454,91.035,-58.030,-230.510,409,447,408,402,365,2025-06-04T19:51:43.416231
640,-0.8843,0.2952,1.1019,100.800,-47.390,-224.210,500,489,415,417,390,2025-06-04T19:51:43.416231
641,-0.9862,0.3753,0.9858,119.665,-44.065,-216.370,423,451,393,404,397,2025-06-04T19:51:43.416231
642,-1.0809,0.5246,0.9018,122.290,-42.700,-201.495,404,449,390,356,371,2025-06-04T19:51:43.416231
643,-1.0131,0.5998,0.8340,125.405,-49.805,-188.335,416,418,390,403,401,2025-06-04T19:51:43.416231
644,-0.9511,0.6900,0.7208,136.535,-53.830,-177.730,413,422,380,407,399,2025-06-04T19:51:43.416231
645,-0.8667,0.7003,0.6012,139.440,-52.395,-165.865,405,356,381,397,394,2025-06-04T19:51:43.416231
646,-0.7935,0.7525,0.5212,147.525,-58.240,-154.980,420,413,342,408,382,2025-06-04T19:51:43.583175
647,-0.6998,0.8032,0.4460,149.800,-58.940,-146.335,412,411,368,416,396,2025-06-04T19:51:43.583175
648,-0.6320,0.8560,0.4021,152.250,-57.855,-139.895,361,423,373,404,410,2025-06-04T19:51:43.583175
649,-0.5866,0.8647,0.3436,154.315,-53.970,-134.610,334,380,371,402,390,2025-06-04T19:51:43.583175
650,-0.5534,0.8633,0.3045,156.310,-51.870,-127.890,398,399,368,406,313,2025-06-04T19:51:43.583175
651,-0.4841,0.8994,0.2913,156.905,-50.575,-120.890,412,405,379,403,362,2025-06-04T19:51:44.108089
652,-0.4412,0.9272,0.2718,154.105,-46.515,-113.540,420,353,380,409,391,2025-06-04T19:51:44.108577
653,-0.4163,0.9370,0.2630,152.460,-46.865,-107.205,398,409,387,417,399,2025-06-04T19:51:44.108577
654,-0.3987,0.9223,0.2406,151.165,-51.275,-100.520,394,424,337,417,343,2025-06-04T19:51:44.108577
655,-0.3884,0.9213,0.2059,147.980,-57.225,-95.795,422,386,366,420,351,2025-06-04T19:51:44.108577
656,-0.3396,0.9170,0.1937,146.790,-61.390,-94.535,418,419,373,411,374,2025-06-04T19:51:44.108577
657,-0.2684,0.9633,0.1918,146.160,-59.605,-94.185,425,398,386,417,374,2025-06-04T19:51:44.108577
658,-0.1869,0.9980,0.1571,146.720,-53.410,-92.785,427,397,381,414,396,2025-06-04T19:51:44.108577
659,-0.1274,1.0448,0.1469,145.530,-46.270,-89.845,436,393,382,352,382,2025-06-04T19:51:44.108577
660,-0.1044,1.1131,0.1523,143.185,-36.435,-86.205,433,384,388,400,372,2025-06-04T19:51:44.109091
661,-0.0927,1.1488,0.1737,139.790,-32.130,-79.170,373,397,382,387,393,2025-06-04T19:51:44.109091
662,-0.0712,1.2078,0.1679,132.965,-33.635,-69.055,337,394,378,400,397,2025-06-04T19:51:44.109091
663,-0.0742,1.2464,0.1571,124.180,-40.215,-59.675,323,343,383,395,386,2025-06-04T19:51:44.109091
664,-0.0429,1.3025,0.1308,108.465,-49.420,-52.045,325,374,382,394,344,2025-06-04T19:51:44.109091
665,-0.0059,1.3225,0.0908,107.275,-57.330,-46.235,415,388,397,346,392,2025-06-04T19:51:44.109091
666,0.0215,1.3264,0.0390,98.070,-64.120,-40.950,396,407,386,376,358,2025-06-04T19:51:44.109091
667,0.0161,1.3078,0.0522,86.485,-74.795,-36.330,368,369,367,393,391,2025-06-04T19:51:44.109091
668,0.1166,1.2927,0.0888,74.340,-83.580,-28.770,384,397,382,402,410,2025-06-04T19:51:44.109091
669,0.2386,1.2527,0.1410,58.835,-80.115,-21.910,426,374,385,411,401,2025-06-04T19:51:44.109091
670,0.3177,1.2073,0.1425,46.550,-65.345,-16.520,397,336,378,405,406,2025-06-04T19:51:44.109091
671,0.3660,1.1385,0.1244,40.145,-41.895,-12.145,415,390,387,411,394,2025-06-04T19:51:44.109091
672,0.3758,1.0951,0.1327,35.735,-11.200,-8.960,379,415,386,400,403,2025-06-04T19:51:44.109091
673,0.3138,1.0438,0.1606,32.620,7.455,-7.525,412,428,380,411,405,2025-06-04T19:51:44.109091
674,0.2450,1.0287,0.1879,29.855,29.750,-5.705,420,363,370,392,408,2025-06-04T19:51:44.109091
675,0.1786,1.0053,0.2308,21.140,49.210,-3.010,345,384,375,395,352,2025-06-04T19:51:44.109091
676,0.0556,0.9960,0.2674,18.445,60.130,-2.030,390,428,344,401,374,2025-06-04T19:51:44.109091
677,-0.0766,0.9814,0.2908,14.805,64.330,-1.435,389,421,366,419,376,2025-06-04T19:51:44.109091
678,-0.1835,0.9575,0.3060,10.465,59.885,-0.700,416,371,378,416,382,2025-06-04T19:51:44.109091
679,-0.2450,0.9428,0.3328,8.470,47.320,-0.490,388,425,364,417,384,2025-06-04T19:51:44.110086
680,-0.3026,0.9350,0.3533,3.605,33.390,-0.840,380,403,372,372,365,2025-06-04T19:51:44.110086
681,-0.3084,0.9326,0.3738,0.700,22.645,-2.030,391,402,333,403,391,2025-06-04T19:51:44.110086
682,-0.2806,0.9243,0.3933,-0.420,18.130,-3.675,389,407,362,419,382,2025-06-04T19:51:44.110086
683,-0.2679,0.9267,0.4109,-2.940,19.670,-5.215,398,428,367,410,409,2025-06-04T19:51:44.110086
684,-0.2464,0.9189,0.4177,-3.500,23.765,-6.230,405,424,380,356,411,2025-06-04T19:51:44.110086
685,-0.2528,0.9213,0.4368,-4.130,28.140,-7.035,398,412,385,380,398,2025-06-04T19:51:44.110086
686,-0.2767,0.9262,0.4519,-4.165,32.620,-7.210,427,400,398,347,411,2025-06-04T19:51:44.110086
687,-0.2996,0.9301,0.4660,-3.675,32.165,-6.580,407,419,381,381,413,2025-06-04T19:51:44.110086
688,-0.3006,0.9394,0.4782,-3.745,30.275,-5.495,416,392,378,420,414,2025-06-04T19:51:44.110086
689,-0.2948,0.9487,0.4782,-4.655,27.965,-4.130,406,405,385,354,415,2025-06-04T19:51:44.110086
690,-0.2699,0.9448,0.4646,-4.830,26.775,-2.625,343,422,388,401,396,2025-06-04T19:51:44.110086
691,-0.2713,0.9365,0.4519,-5.285,25.900,-1.085,337,396,346,348,404,2025-06-04T19:51:44.110086
692,-0.2616,0.9414,0.4392,-5.635,25.690,0.770,405,418,322,381,404,2025-06-04T19:51:44.110086
693,-0.2869,0.9306,0.4216,-6.580,23.345,3.080,423,420,321,402,410,2025-06-04T19:51:44.110086
694,-0.2884,0.9126,0.3972,-7.035,17.955,5.880,305,340,319,387,391,2025-06-04T19:51:44.216082
695,-0.2948,0.9170,0.4050,-6.685,14.070,8.330,390,393,311,410,418,2025-06-04T19:51:44.216082
696,-0.2855,0.9023,0.3797,-8.715,11.725,10.150,429,421,336,354,415,2025-06-04T19:51:44.216082
697,-0.2733,0.8852,0.3509,-9.240,10.535,11.480,426,431,349,392,403,2025-06-04T19:51:44.217079
698,-0.2577,0.8838,0.3357,-8.960,12.355,12.915,412,397,355,404,415,2025-06-04T19:51:44.217079
699,-0.2557,0.8696,0.3274,-8.680,17.115,13.335,408,370,358,401,414,2025-06-04T19:51:44.217079
700,-0.2474,0.8564,0.3094,-7.630,22.575,13.475,421,405,373,399,391,2025-06-04T19:51:44.218076
701,-0.2850,0.8442,0.3050,-7.455,26.390,13.825,344,377,371,345,383,2025-06-04T19:51:44.218076
702,-0.3250,0.8501,0.3235,-5.495,26.845,14.035,398,420,351,365,396,2025-06-04T19:51:44.218076
703,-0.3616,0.8355,0.3192,-5.530,23.100,14.315,417,416,372,396,410,2025-06-04T19:51:44.218076
704,-0.3909,0.8237,0.3162,-4.235,14.735,14.420,425,425,369,405,410,2025-06-04T19:51:44.218076
705,-0.4026,0.8218,0.3333,-2.660,5.985,13.440,426,409,388,419,409,2025-06-04T19:51:44.218076
706,-0.3772,0.8111,0.3387,-1.925,-1.610,12.600,424,419,378,413,401,2025-06-04T19:51:44.218076
707,-0.3348,0.8013,0.3348,0.140,-5.425,11.375,400,409,337,397,383,2025-06-04T19:51:44.218076
708,-0.3118,0.7940,0.3333,1.680,-5.320,9.205,404,353,360,357,392,2025-06-04T19:51:44.218076
709,-0.2850,0.7862,0.3289,4.200,-1.680,6.510,368,384,360,352,352,2025-06-04T19:51:44.219073
710,-0.2713,0.7896,0.3304,7.175,3.710,4.585,360,408,371,397,383,2025-06-04T19:51:44.219073
711,-0.2908,0.7969,0.3387,8.645,8.015,2.660,381,401,371,404,384,2025-06-04T19:51:44.502176
712,-0.3001,0.8037,0.3343,10.220,9.345,1.225,405,417,376,398,403,2025-06-04T19:51:44.502176
713,-0.3172,0.8233,0.3455,11.095,9.030,-0.875,342,414,376,407,392,2025-06-04T19:51:44.502176
714,-0.3284,0.8311,0.3499,11.655,6.090,-2.905,351,422,372,407,390,2025-06-04T19:51:44.502176
715,-0.3387,0.8413,0.3601,12.250,-0.455,-4.830,412,372,370,422,412,2025-06-04T19:51:44.502176
716,-0.3470,0.8579,0.3645,10.955,-8.015,-6.965,410,345,372,417,391,2025-06-04T19:51:44.502176
717,-0.3172,0.8721,0.3680,10.115,-13.475,-8.925,415,380,381,397,403,2025-06-04T19:51:44.502176
718,-0.2943,0.8808,0.3631,8.995,-15.120,-9.975,397,391,382,399,388,2025-06-04T19:51:44.502176
719,-0.2884,0.8935,0.3601,7.945,-15.610,-10.255,372,419,339,377,402,2025-06-04T19:51:44.502176
720,-0.2918,0.8955,0.3572,7.665,-15.785,-10.325,410,379,356,405,398,2025-06-04T19:51:44.503261
721,-0.2830,0.9091,0.3675,6.300,-14.630,-10.430,355,401,330,404,408,2025-06-04T19:51:44.503261
722,-0.2865,0.9106,0.3704,5.775,-13.615,-9.975,413,407,350,379,399,2025-06-04T19:51:44.503261
723,-0.3152,0.9111,0.3699,5.845,-15.330,-8.995,392,356,329,403,386,2025-06-04T19:51:44.503261
724,-0.3406,0.9116,0.3660,5.460,-19.705,-8.190,416,358,319,386,389,2025-06-04T19:51:44.503261
725,-0.3348,0.9057,0.3582,5.460,-23.975,-7.000,402,413,313,383,386,2025-06-04T19:51:44.503261
726,-0.3406,0.8994,0.3504,4.865,-27.020,-6.300,413,423,341,400,397,2025-06-04T19:51:44.503261
727,-0.3113,0.9004,0.3392,5.215,-26.810,-5.215,410,427,352,352,381,2025-06-04T19:51:44.503261
728,-0.3016,0.8969,0.3260,5.075,-25.270,-4.025,393,415,364,381,404,2025-06-04T19:51:44.503261
729,-0.2943,0.8955,0.3167,4.445,-24.150,-3.325,412,403,365,390,355,2025-06-04T19:51:44.503261
730,-0.2884,0.9004,0.3138,4.165,-23.415,-2.695,398,416,347,399,392,2025-06-04T19:51:44.503261
731,-0.2884,0.8950,0.3113,3.500,-22.295,-2.240,360,300,374,349,393,2025-06-04T19:51:44.722601
732,-0.2762,0.8935,0.3094,3.080,-21.945,-1.295,328,399,381,389,393,2025-06-04T19:51:44.722601
733,-0.2699,0.8945,0.3040,2.485,-21.735,-0.735,379,402,387,411,403,2025-06-04T19:51:44.722601
734,-0.2611,0.8877,0.2996,1.925,-22.295,-0.735,386,413,375,416,396,2025-06-04T19:51:44.722601
735,-0.2440,0.8886,0.2908,1.890,-22.680,-1.015,415,396,352,416,353,2025-06-04T19:51:44.722601
736,-0.2230,0.8891,0.2850,1.470,-22.260,-1.750,392,398,375,420,398,2025-06-04T19:51:44.722601
737,-0.2172,0.8901,0.2899,1.120,-22.505,-2.275,421,397,392,404,408,2025-06-04T19:51:44.722601
738,-0.2157,0.8945,0.2884,0.665,-22.400,-3.780,368,392,357,412,372,2025-06-04T19:51:44.722601
739,-0.2113,0.9023,0.2908,-0.350,-21.630,-5.425,404,397,369,416,383,2025-06-04T19:51:44.722601
740,-0.1937,0.9023,0.2943,-0.805,-21.630,-5.530,404,425,381,412,391,2025-06-04T19:51:44.722601
741,-0.1976,0.8857,0.2884,-2.415,-21.980,-4.865,394,432,345,414,386,2025-06-04T19:51:44.722601
742,-0.1986,0.8979,0.2869,-1.785,-22.890,-4.795,340,405,372,358,345,2025-06-04T19:51:44.722601
743,-0.1874,0.9062,0.3011,-1.925,-20.755,-3.850,327,418,366,397,382,2025-06-04T19:51:44.722601
744,-0.1820,0.9008,0.3026,-1.330,-17.115,-2.730,339,424,372,407,382,2025-06-04T19:51:44.722601
745,-0.1771,0.9008,0.3123,-0.875,-13.020,-1.715,380,426,386,400,409,2025-06-04T19:51:44.722601
746,-0.1723,0.8984,0.3240,-0.385,-8.995,-0.840,391,427,386,392,387,2025-06-04T19:51:44.722601
747,-0.1674,0.8960,0.3260,0.420,-3.990,-0.070,399,428,348,342,350,2025-06-04T19:51:44.722601
748,-0.1801,0.8955,0.3255,1.575,0.560,0.770,343,424,374,361,375,2025-06-04T19:51:44.830576
749,-0.1942,0.8945,0.3284,2.800,3.955,1.855,382,428,374,405,404,2025-06-04T19:51:44.830576
750,-0.2059,0.8974,0.3289,2.940,5.915,3.045,341,424,371,352,398,2025-06-04T19:51:44.831356
751,-0.2098,0.8901,0.3450,2.870,6.020,4.865,380,385,363,392,367,2025-06-04T19:51:44.831589
752,-0.2294,0.8945,0.3431,2.730,4.235,5.285,389,413,370,407,389,2025-06-04T19:51:44.831636
753,-0.2406,0.9038,0.3377,1.715,0.735,6.685,403,404,370,414,404,2025-06-04T19:51:44.831636
754,-0.2508,0.9023,0.3343,1.085,-3.640,7.455,343,410,381,392,376,2025-06-04T19:51:44.831636
755,-0.2245,0.8999,0.3348,0.315,-6.020,7.735,348,422,392,400,400,2025-06-04T19:51:44.831636
756,-0.1913,0.8955,0.3294,-0.420,-4.900,7.945,404,400,393,391,407,2025-06-04T19:51:44.831636
757,-0.1830,0.8852,0.3245,-1.015,-0.945,7.735,413,397,376,348,347,2025-06-04T19:51:44.831636
758,-0.1830,0.8852,0.3211,-0.910,3.570,7.315,411,417,377,376,347,2025-06-04T19:51:44.831636
759,-0.1874,0.8808,0.3235,-1.820,7.385,7.035,415,401,385,380,389,2025-06-04T19:51:44.831636
760,-0.1913,0.8682,0.3196,-2.660,9.765,6.125,416,431,373,388,393,2025-06-04T19:51:44.831636
761,-0.1903,0.8545,0.3162,-3.535,11.410,4.865,389,414,378,412,403,2025-06-04T19:51:44.831636
762,-0.1879,0.8413,0.3206,-3.675,10.780,2.975,400,426,377,413,414,2025-06-04T19:51:44.932336
763,-0.1996,0.8233,0.3328,-4.585,5.320,-0.455,392,388,373,356,354,2025-06-04T19:51:44.932336
764,-0.2128,0.8154,0.3318,-5.740,-5.110,-6.685,421,419,369,373,333,2025-06-04T19:51:44.932336
765,-0.2201,0.8179,0.3357,-7.700,-20.020,-16.240,428,425,384,400,348,2025-06-04T19:51:44.932336
766,-0.2020,0.8184,0.3255,-9.695,-34.125,-29.365,426,412,390,410,394,2025-06-04T19:51:44.932336
767,-0.1527,0.8462,0.3016,-14.000,-53.410,-41.860,404,382,382,420,407,2025-06-04T19:51:44.933373
768,-0.1488,0.9199,0.2547,-20.510,-74.480,-60.305,416,375,382,383,402,2025-06-04T19:51:44.933373
769,-0.0712,1.0263,0.1957,-30.520,-92.855,-81.095,433,388,349,398,401,2025-06-04T19:51:44.933373
770,0.1000,1.1527,0.0742,-40.145,-97.790,-97.930,437,399,360,393,391,2025-06-04T19:51:44.933373
771,0.2264,1.3386,-0.0683,-48.475,-92.785,-107.835,417,420,371,394,410,2025-06-04T19:51:44.933373
772,0.3396,1.5504,-0.2157,-53.305,-74.725,-107.065,395,416,346,401,410,2025-06-04T19:51:44.933373
773,0.3821,1.8925,-0.3060,-56.210,-58.555,-98.770,339,387,358,401,407,2025-06-04T19:51:45.043639
774,0.3860,2.2155,-0.3436,-62.860,-49.875,-79.975,409,392,379,408,395,2025-06-04T19:51:45.043639
775,0.3577,2.5849,-0.4177,-75.810,-48.825,-49.805,409,391,376,357,397,2025-06-04T19:51:45.043639
776,0.2669,2.8831,-0.5236,-105.875,-49.490,-14.770,396,406,369,369,393,2025-06-04T19:51:45.043639
777,0.1474,3.0422,-0.6012,-122.220,-58.835,17.535,389,389,376,405,398,2025-06-04T19:51:45.043639
778,0.0376,3.1032,-0.6129,-145.950,-61.705,44.205,354,390,353,386,367,2025-06-04T19:51:45.043639
779,-0.1918,3.0256,-0.5407,-171.395,-68.145,60.410,392,404,375,392,402,2025-06-04T19:51:45.152339
780,-0.3806,2.8187,-0.4290,-195.265,-87.045,64.645,419,429,382,421,385,2025-06-04T19:51:45.152339
781,-0.5119,2.5073,-0.3250,-222.985,-116.375,58.485,429,350,337,420,348,2025-06-04T19:51:45.152339
782,-0.6500,2.0384,-0.2513,-248.360,-152.320,44.555,306,345,359,396,388,2025-06-04T19:51:45.152880
783,-0.7188,1.5865,-0.1498,-280.000,-186.515,16.590,357,403,362,396,410,2025-06-04T19:51:45.152880
784,-0.4856,0.8921,-0.0898,-313.600,-212.905,-12.670,361,419,361,406,410,2025-06-04T19:51:45.152880
785,-0.1230,0.0644,0.0185,-353.535,-213.920,-48.370,412,423,368,312,404,2025-06-04T19:51:45.152880
786,-0.0005,-0.9292,0.2645,-370.300,-185.465,-99.015,402,427,371,389,411,2025-06-04T19:51:45.152880
787,-0.1054,-1.6841,0.4953,-465.010,-147.910,-164.570,427,441,404,431,399,2025-06-04T19:51:45.152880
788,0.2323,-3.2262,0.9116,-333.830,-161.175,-214.200,403,441,397,431,408,2025-06-04T19:51:45.153470
789,-0.1093,-4.2368,1.1161,-356.300,-71.225,-221.375,391,350,375,394,343,2025-06-04T19:51:45.153470
790,-0.5017,-4.5321,1.2844,-371.595,-67.655,-228.340,423,428,371,407,403,2025-06-04T19:51:45.456484
791,-0.6354,-4.5413,0.8950,-183.260,-137.935,-193.410,408,410,344,421,416,2025-06-04T19:51:45.456484
792,-0.1850,-4.1168,0.4070,-120.260,-147.035,-104.755,360,411,375,430,398,2025-06-04T19:51:45.456484
793,0.7096,-3.8332,0.1347,36.645,-130.305,9.905,400,434,404,441,422,2025-06-04T19:51:45.456484
794,0.7779,-3.0920,0.1918,164.640,-59.675,87.045,290,415,371,408,364,2025-06-04T19:51:45.456484
795,0.7427,-2.2848,0.5456,209.370,39.795,111.370,405,436,391,431,399,2025-06-04T19:51:45.456484
796,0.2206,-1.6153,0.9501,237.195,92.400,98.945,410,377,369,394,373,2025-06-04T19:51:45.456484
797,-0.2108,-1.1683,1.0165,226.520,100.765,87.780,412,350,379,405,375,2025-06-04T19:51:45.456484
798,-0.5685,-0.8462,0.9384,211.050,51.520,89.600,406,424,366,441,409,2025-06-04T19:51:45.456484
799,-0.4685,-0.5470,0.9145,203.000,-10.570,90.440,412,435,362,414,391,2025-06-04T19:51:45.456484
800,-0.1723,-0.1440,0.9311,187.215,-24.010,83.440,405,431,387,434,422,2025-06-04T19:51:45.456484
801,0.1293,0.0825,0.9496,180.775,8.225,69.825,396,352,377,405,419,2025-06-04T19:51:45.723554
802,0.2899,0.2542,0.8833,178.290,62.370,56.140,336,413,343,411,414,2025-06-04T19:51:45.998153
803,0.4221,0.4172,0.8203,174.230,112.630,49.000,338,441,371,442,428,2025-06-04T19:51:46.279798
804,0.3104,0.6149,0.7710,169.120,174.755,44.485,408,393,372,379,419,2025-06-04T19:51:46.556617
805,0.1869,0.7462,0.6925,170.135,227.675,41.335,416,428,350,396,411,2025-06-04T19:51:46.792381
806,-0.0473,0.9701,0.6568,168.945,261.240,38.010,397,422,296,409,416,2025-06-04T19:51:47.025357
807,-0.4455,1.2156,0.6349,166.565,262.920,35.175,429,397,340,397,391,2025-06-04T19:51:47.299179
808,-0.6110,1.2659,0.6080,160.790,230.160,34.195,417,408,376,358,404,2025-06-04T19:51:47.541690
809,-0.7803,1.3640,0.6290,160.580,179.480,33.670,350,342,332,292,362,2025-06-04T19:51:47.803748
810,-0.7725,1.3835,0.6315,145.460,113.820,29.260,398,395,350,373,396,2025-06-04T19:51:48.039470
811,-0.4021,1.3566,0.5929,137.165,51.345,28.700,395,397,365,340,407,2025-06-04T19:51:48.306063
812,-0.2791,1.2961,0.5436,130.340,9.975,29.225,407,398,365,390,416,2025-06-04T19:51:48.563392
813,-0.0537,1.2546,0.4948,130.200,-11.410,30.275,393,426,371,407,415,2025-06-04T19:51:48.811516
814,0.0888,1.2605,0.4046,131.460,-16.835,28.000,391,406,383,391,353,2025-06-04T19:51:49.122675
815,0.1771,1.2776,0.3411,133.000,-9.205,22.995,413,416,339,388,394,2025-06-04T19:51:49.274282
816,0.1903,1.2595,0.3016,133.875,4.655,14.735,371,389,361,402,413,2025-06-04T19:51:49.503738
817,0.1674,1.2464,0.2713,130.235,18.690,7.175,406,419,366,413,392,2025-06-04T19:51:49.721374
818,0.1420,1.2068,0.2484,122.395,26.775,1.505,423,413,376,409,402,2025-06-04T19:51:49.885965
819,0.1074,1.1775,0.2372,111.055,31.290,-1.680,398,421,342,405,405,2025-06-04T19:51:50.035995
820,0.0717,1.1444,0.2152,99.715,32.200,-3.500,416,413,364,354,390,2025-06-04T19:51:50.219760
821,0.0820,1.1473,0.2196,91.560,32.795,-4.060,399,395,375,335,382,2025-06-04T19:51:50.395572
822,0.0410,1.1102,0.1757,82.565,34.860,-5.145,380,422,377,366,358,2025-06-04T19:51:50.555449
823,0.0678,1.0795,0.1254,79.380,38.045,-4.760,376,407,376,405,391,2025-06-04T19:51:50.713544
824,0.0259,1.0843,0.1327,71.820,43.365,-5.180,409,422,390,352,405,2025-06-04T19:51:50.895224
825,-0.0381,1.0765,0.1488,65.065,49.210,-6.720,404,381,375,385,408,2025-06-04T19:51:51.073729
826,-0.0849,1.0751,0.1571,56.525,52.360,-8.365,407,398,346,417,388,2025-06-04T19:51:51.216511
827,-0.1264,1.0746,0.1762,48.510,49.315,-7.175,358,363,364,416,362,2025-06-04T19:51:51.419150
828,-0.1854,1.0380,0.1713,42.455,40.285,-4.620,335,412,385,413,380,2025-06-04T19:51:51.611955
829,-0.2528,1.0560,0.1957,37.905,31.430,-2.730,357,412,386,407,340,2025-06-04T19:51:51.780714
830,-0.2528,1.0316,0.1967,32.900,16.380,-1.365,385,403,377,406,330,2025-06-04T19:51:51.934978
831,-0.2572,1.0311,0.1898,27.265,2.765,-0.245,417,420,395,414,373,2025-06-04T19:51:51.934978
832,-0.2518,1.0263,0.1864,24.395,-7.525,-0.735,394,427,395,416,355,2025-06-04T19:51:51.934978
833,-0.1991,1.0204,0.1957,19.810,-12.565,-1.330,413,397,376,407,333,2025-06-04T19:51:51.934978
834,-0.1713,1.0077,0.1830,15.120,-14.035,-1.470,391,410,343,347,379,2025-06-04T19:51:51.934978
835,-0.1327,0.9936,0.1625,12.880,-11.095,-1.120,407,428,335,381,398,2025-06-04T19:51:51.934978
836,-0.0981,0.9799,0.1581,10.010,-5.670,-0.490,414,433,359,389,391,2025-06-04T19:51:51.934978
837,-0.0854,0.9750,0.1630,8.295,5.600,-0.140,421,412,329,404,414,2025-06-04T19:51:51.934978
838,-0.0966,0.9604,0.1703,7.000,17.710,-0.315,379,402,324,392,360,2025-06-04T19:51:51.934978
839,-0.1249,0.9560,0.1830,6.195,27.895,-0.770,384,393,354,404,382,2025-06-04T19:51:51.934978
840,-0.1825,0.9462,0.1937,5.075,33.495,-1.015,413,404,371,403,379,2025-06-04T19:51:51.934978
841,-0.2225,0.9496,0.2020,4.830,32.830,-0.630,402,380,383,414,407,2025-06-04T19:51:51.934978
842,-0.2655,0.9292,0.1991,2.800,29.260,-0.210,421,413,383,404,360,2025-06-04T19:51:51.934978
843,-0.2723,0.9238,0.1957,3.955,23.415,0.945,419,403,390,401,391,2025-06-04T19:51:51.934978
844,-0.2699,0.9213,0.1928,2.940,19.985,2.205,420,380,390,371,341,2025-06-04T19:51:51.934978
845,-0.2523,0.9223,0.2020,3.605,16.940,2.975,405,385,397,390,375,2025-06-04T19:51:51.934978
846,-0.2865,0.9106,0.2098,1.610,15.855,3.675,425,404,364,399,395,2025-06-04T19:51:51.934978
847,-0.2747,0.9048,0.2030,1.715,12.985,4.340,410,352,344,396,364,2025-06-04T19:51:51.934978
848,-0.2591,0.9043,0.2069,0.105,12.705,4.725,422,385,353,407,388,2025-06-04T19:51:51.934978
849,-0.2455,0.9130,0.2167,0.420,13.720,3.220,410,358,363,347,372,2025-06-04T19:51:51.935976
850,-0.2655,0.8877,0.1957,-3.185,17.430,1.715,351,345,358,386,387,2025-06-04T19:51:51.935976
851,-0.2611,0.8896,0.1981,-2.800,19.285,1.960,389,387,373,388,397,2025-06-04T19:51:51.935976
852,-0.2640,0.8994,0.2181,-4.690,23.660,2.555,399,389,372,400,392,2025-06-04T19:51:51.935976
853,-0.2889,0.9038,0.2328,-5.915,26.810,2.135,423,387,374,423,408,2025-06-04T19:51:51.935976
854,-0.3353,0.8838,0.2133,-8.610,28.035,1.085,427,424,335,397,406,2025-06-04T19:51:51.935976
855,-0.3465,0.8599,0.2040,-8.435,26.005,2.485,374,424,324,396,373,2025-06-04T19:51:51.935976
856,-0.3743,0.8706,0.2391,-9.100,23.940,4.445,409,433,358,402,405,2025-06-04T19:51:51.935976
857,-0.3733,0.8794,0.2733,-8.575,20.720,4.515,403,426,376,372,365,2025-06-04T19:51:51.935976
858,-0.3816,0.8838,0.2928,-10.500,17.325,3.080,421,398,390,410,397,2025-06-04T19:51:51.935976
859,-0.4246,0.8545,0.2821,-11.900,10.115,1.680,340,400,390,362,398,2025-06-04T19:51:51.935976
860,-0.3938,0.8535,0.2752,-10.430,3.465,2.030,389,400,382,394,392,2025-06-04T19:51:51.935976
861,-0.3699,0.8647,0.2987,-9.520,0.875,1.575,340,425,373,406,411,2025-06-04T19:51:51.935976
862,-0.3460,0.8735,0.3182,-9.800,-0.175,0.035,413,421,337,414,420,2025-06-04T19:51:51.935976
863,-0.3645,0.8618,0.3040,-10.885,0.105,-2.835,382,402,367,418,421,2025-06-04T19:51:51.935976
864,-0.3382,0.8501,0.2991,-10.570,1.715,-3.955,383,420,338,406,421,2025-06-04T19:51:51.935976
865,-0.3382,0.8520,0.3084,-9.555,4.655,-4.480,400,426,356,373,399,2025-06-04T19:51:51.935976
866,-0.3450,0.8530,0.3265,-9.520,6.965,-6.370,419,405,331,404,417,2025-06-04T19:51:51.935976
867,-0.3475,0.8491,0.3362,-9.940,6.055,-9.310,390,437,357,406,403,2025-06-04T19:51:51.935976
868,-0.3884,0.8335,0.3304,-12.110,1.400,-11.445,338,429,366,313,393,2025-06-04T19:51:51.935976
869,-0.4421,0.8135,0.3367,-11.095,-6.860,-14.420,398,413,369,380,395,2025-06-04T19:51:51.935976
870,-0.4241,0.8306,0.3518,-10.395,-13.860,-15.925,336,297,378,344,391,2025-06-04T19:51:51.935976
871,-0.4172,0.8320,0.3567,-12.600,-16.135,-16.800,400,402,376,399,404,2025-06-04T19:51:51.935976
872,-0.4192,0.8242,0.3558,-13.090,-16.660,-16.800,345,337,370,385,392,2025-06-04T19:51:51.935976
873,-0.4085,0.8267,0.3499,-12.950,-14.315,-15.505,381,381,382,405,390,2025-06-04T19:51:51.935976
874,-0.4099,0.8252,0.3494,-13.020,-9.975,-14.280,388,403,380,362,385,2025-06-04T19:51:51.935976
875,-0.4133,0.8286,0.3670,-11.690,-4.865,-12.950,398,412,340,350,403,2025-06-04T19:51:51.935976
876,-0.4168,0.8228,0.3699,-11.375,0.455,-11.900,334,383,368,361,384,2025-06-04T19:51:51.935976
877,-0.4299,0.8159,0.3684,-9.835,3.640,-10.255,390,416,387,382,406,2025-06-04T19:51:51.935976
878,-0.4509,0.8198,0.3738,-7.735,4.515,-9.030,373,404,389,403,397,2025-06-04T19:51:51.935976
879,-0.4592,0.8228,0.3821,-6.405,3.080,-8.400,406,344,344,390,397,2025-06-04T19:51:51.935976
880,-0.4568,0.8247,0.3758,-5.670,-0.630,-7.945,413,390,362,405,393,2025-06-04T19:51:51.935976
881,-0.4675,0.8194,0.3684,-4.620,-5.110,-8.225,342,372,370,395,394,2025-06-04T19:51:51.935976
882,-0.4304,0.8237,0.3523,-3.185,-8.855,-7.945,414,402,372,370,387,2025-06-04T19:51:51.935976
883,-0.4055,0.8159,0.3401,-2.905,-9.555,-8.085,398,410,390,362,390,2025-06-04T19:51:51.935976
884,-0.3821,0.8086,0.3338,-2.100,-8.750,-8.645,424,351,376,356,363,2025-06-04T19:51:51.935976
885,-0.3621,0.8140,0.3226,-1.645,-5.320,-9.100,419,329,382,355,381,2025-06-04T19:51:51.935976
886,-0.3675,0.8120,0.3221,-1.505,-1.960,-9.730,415,381,385,394,388,2025-06-04T19:51:51.935976
887,-0.3806,0.8067,0.3109,-1.715,-0.385,-10.360,376,354,347,381,389,2025-06-04T19:51:51.935976
888,-0.3870,0.8047,0.2987,-2.380,0.070,-10.955,403,392,331,406,391,2025-06-04T19:51:51.935976
889,-0.3924,0.7984,0.2913,-2.485,-0.175,-11.725,405,385,361,417,403,2025-06-04T19:51:51.935976
890,-0.3977,0.7954,0.2845,-3.115,-0.210,-12.670,402,413,377,419,389,2025-06-04T19:51:51.935976
891,-0.3963,0.7989,0.2728,-4.095,-1.085,-14.035,402,422,388,405,390,2025-06-04T19:51:51.935976
892,-0.3933,0.7925,0.2577,-5.145,-1.925,-16.030,397,399,375,411,397,2025-06-04T19:51:51.935976
893,-0.3748,0.7867,0.2406,-7.420,-1.680,-19.075,420,396,378,401,387,2025-06-04T19:51:51.935976
894,-0.3601,0.7891,0.2318,-10.080,-0.385,-22.435,407,396,377,395,387,2025-06-04T19:51:51.935976
895,-0.3606,0.7847,0.2435,-12.600,2.590,-25.375,388,419,373,413,391,2025-06-04T19:51:51.935976
896,-0.3616,0.7818,0.2416,-17.150,4.620,-28.595,421,394,369,388,370,2025-06-04T19:51:51.935976
897,-0.3782,0.7740,0.2333,-22.295,5.950,-31.640,408,378,369,396,405,2025-06-04T19:51:51.935976
898,-0.3797,0.7647,0.2201,-26.635,6.475,-35.455,428,362,377,421,391,2025-06-04T19:51:51.935976
899,-0.3899,0.7627,0.1986,-31.920,7.525,-38.290,425,391,374,418,413,2025-06-04T19:51:51.935976
900,-0.3758,0.7442,0.2045,-35.840,9.275,-41.405,396,370,394,423,395,2025-06-04T19:51:51.935976
901,-0.4280,0.7749,0.2059,-41.615,9.030,-45.605,340,370,388,386,411,2025-06-04T19:51:51.935976
902,-0.4426,0.7491,0.2245,-47.740,9.310,-48.300,380,415,379,394,358,2025-06-04T19:51:51.935976
903,-0.4768,0.7559,0.2821,-53.865,8.400,-50.645,375,415,375,404,384,2025-06-04T19:51:51.935976
904,-0.5022,0.7476,0.3055,-58.520,2.905,-51.240,346,421,373,384,398,2025-06-04T19:51:51.935976
905,-0.5563,0.7510,0.2845,-63.210,-5.985,-51.170,410,377,367,383,401,2025-06-04T19:51:51.935976
906,-0.5388,0.7169,0.2704,-67.340,-13.125,-50.820,393,411,364,396,414,2025-06-04T19:51:51.935976
907,-0.5461,0.7315,0.2674,-71.155,-17.640,-51.205,390,401,358,393,405,2025-06-04T19:51:51.935976
908,-0.5290,0.7300,0.2879,-74.830,-17.395,-51.765,387,398,366,403,413,2025-06-04T19:51:51.935976
909,-0.4719,0.7252,0.2923,-80.045,-12.635,-51.485,419,387,376,408,412,2025-06-04T19:51:51.935976
910,-0.4665,0.7061,0.3689,-84.805,-4.270,-50.435,364,404,347,408,400,2025-06-04T19:51:51.935976
911,-0.4758,0.7056,0.4060,-89.810,1.050,-48.230,389,411,355,412,408,2025-06-04T19:51:51.935976
912,-0.5358,0.6812,0.4036,-97.580,1.785,-46.165,414,405,373,404,414,2025-06-04T19:51:51.935976
913,-0.6032,0.6549,0.3967,-101.920,-3.710,-45.815,354,402,382,415,395,2025-06-04T19:51:51.935976
914,-0.6305,0.6383,0.4070,-107.205,-11.480,-45.815,381,412,347,410,397,2025-06-04T19:51:51.935976
915,-0.6285,0.6212,0.4250,-113.750,-22.925,-45.010,338,428,322,352,403,2025-06-04T19:51:51.935976
916,-0.6100,0.6051,0.4646,-121.520,-36.085,-43.890,378,361,354,299,389,2025-06-04T19:51:51.935976
917,-0.5885,0.5812,0.5163,-131.005,-48.685,-42.385,407,415,367,370,392,2025-06-04T19:51:51.935976
918,-0.5578,0.5627,0.5710,-138.005,-59.220,-40.530,362,360,337,383,404,2025-06-04T19:51:51.935976
919,-0.5714,0.5275,0.5983,-151.655,-70.105,-38.115,343,395,364,344,386,2025-06-04T19:51:51.935976
920,-0.5934,0.4982,0.6056,-148.890,-82.110,-34.860,389,422,333,389,382,2025-06-04T19:51:51.935976
921,-0.5729,0.4558,0.5797,-154.140,-91.385,-29.995,411,433,352,358,397,2025-06-04T19:51:51.935976
922,-0.5358,0.4260,0.5832,-158.235,-100.135,-25.480,418,418,364,354,391,2025-06-04T19:51:51.935976
923,-0.5275,0.4002,0.6168,-160.825,-103.285,-22.330,401,415,382,408,371,2025-06-04T19:51:51.935976
924,-0.5119,0.3714,0.6539,-162.610,-104.405,-17.710,412,378,383,386,358,2025-06-04T19:51:51.935976
925,-0.4656,0.3499,0.6915,-163.975,-103.285,-11.795,378,413,374,392,399,2025-06-04T19:51:51.935976
926,-0.4499,0.3192,0.7579,-165.270,-102.375,-4.200,415,424,351,419,402,2025-06-04T19:51:51.935976
927,-0.4207,0.3070,0.7691,-163.835,-101.115,2.660,414,433,356,402,406,2025-06-04T19:51:51.935976
928,-0.4070,0.3001,0.7930,-160.545,-98.805,6.020,423,424,375,418,399,2025-06-04T19:51:51.935976
929,-0.4211,0.2811,0.8208,-157.570,-97.370,7.420,390,434,388,359,385,2025-06-04T19:51:51.935976
930,-0.4358,0.2747,0.8525,-153.230,-99.015,8.295,403,422,339,371,397,2025-06-04T19:51:51.935976
931,-0.4046,0.2625,0.8867,-148.435,-102.655,11.130,412,415,359,383,407,2025-06-04T19:51:51.935976
932,-0.3865,0.2572,0.9355,-143.920,-106.015,16.065,395,412,347,396,395,2025-06-04T19:51:51.935976
933,-0.3421,0.2674,0.9614,-138.985,-106.260,20.475,423,420,325,412,388,2025-06-04T19:51:51.935976
934,-0.2562,0.2518,0.9228,-134.085,-101.990,25.655,420,371,355,410,392,2025-06-04T19:51:51.935976
935,-0.2098,0.2206,0.9560,-126.805,-92.785,29.470,382,418,381,347,389,2025-06-04T19:51:51.935976
936,-0.2284,0.2103,0.9809,-121.030,-78.365,32.375,338,345,377,380,364,2025-06-04T19:51:51.935976
937,-0.2074,0.1850,1.0258,-114.625,-63.210,35.735,381,334,375,383,377,2025-06-04T19:51:51.935976
938,-0.1747,0.1440,1.0385,-108.710,-49.350,40.250,414,339,384,411,390,2025-06-04T19:51:51.935976
939,-0.1654,0.1249,1.0321,-103.320,-36.015,47.565,405,399,378,423,407,2025-06-04T19:51:51.935976
940,-0.2240,0.0976,1.0394,-97.300,-24.185,51.730,429,402,387,416,394,2025-06-04T19:51:51.935976
941,-0.2782,0.0712,1.0531,-92.015,-17.045,53.025,413,401,376,426,399,2025-06-04T19:51:51.935976
942,-0.3245,0.0332,1.0555,-89.880,-15.960,52.885,386,400,387,416,375,2025-06-04T19:51:51.935976
943,-0.3660,-0.0176,1.0873,-84.665,-18.655,55.720,388,367,376,412,397,2025-06-04T19:51:51.935976
944,-0.3919,-0.0761,1.0814,-79.310,-23.905,58.590,392,417,375,410,405,2025-06-04T19:51:51.935976
945,-0.3963,-0.0927,1.1273,-74.690,-26.320,61.040,422,353,375,396,371,2025-06-04T19:51:51.935976
946,-0.4182,-0.1191,1.1239,-70.420,-26.775,61.915,396,399,387,416,364,2025-06-04T19:51:51.935976
947,-0.3938,-0.1503,1.1278,-65.625,-26.180,62.300,301,393,367,420,375,2025-06-04T19:51:51.936973
948,-0.3753,-0.1859,1.1190,-62.755,-22.715,63.840,403,424,378,422,393,2025-06-04T19:51:51.936973
949,-0.3392,-0.2152,1.1297,-56.665,-17.815,66.570,413,420,385,418,409,2025-06-04T19:51:51.936973
950,-0.3177,-0.2596,1.1448,-50.085,-12.285,68.565,410,409,341,418,365,2025-06-04T19:51:51.936973
951,-0.2069,-0.2762,1.2039,-38.605,2.555,65.415,411,411,322,417,401,2025-06-04T19:51:51.936973
952,-0.1347,-0.2918,1.2073,-34.020,25.340,59.955,413,425,343,418,389,2025-06-04T19:51:51.936973
953,-0.1093,-0.3631,1.1512,-25.270,46.585,52.605,413,399,354,403,397,2025-06-04T19:51:51.936973
954,-0.1571,-0.3172,1.1253,-12.320,61.915,45.570,393,420,376,418,356,2025-06-04T19:51:51.936973
955,-0.3426,-0.4080,1.0921,-13.615,72.205,34.965,381,426,388,416,336,2025-06-04T19:51:51.936973
956,-0.1088,-0.2689,0.9448,-13.125,78.260,25.795,404,428,343,396,386,2025-06-04T19:51:51.936973
957,-0.2357,-0.4826,0.8662,-16.695,61.670,23.240,421,410,362,380,383,2025-06-04T19:51:51.936973
958,-0.3650,-0.2743,0.9306,-15.890,66.290,16.555,344,421,366,416,406,2025-06-04T19:51:51.936973
959,-0.5397,-0.1425,1.2356,-8.995,33.215,15.365,380,419,380,316,358,2025-06-04T19:51:51.936973
960,-0.3860,-0.1230,1.1893,-15.995,4.550,11.305,393,426,341,361,387,2025-06-04T19:51:51.936973
961,-0.3845,-0.2777,1.0673,-25.095,-0.595,9.485,391,427,365,384,403,2025-06-04T19:51:51.936973
962,-0.2982,-0.2255,0.9755,-17.010,-4.690,7.700,395,423,373,402,410,2025-06-04T19:51:51.936973
963,-0.3167,-0.1962,0.9916,-10.500,9.730,7.595,395,415,383,413,412,2025-06-04T19:51:51.936973
964,-0.3743,-0.1771,0.9970,-13.475,18.865,7.805,373,420,388,399,404,2025-06-04T19:51:51.936973
965,-0.3841,-0.0888,0.9989,-15.645,15.295,11.025,395,411,341,389,386,2025-06-04T19:51:51.936973
966,-0.3553,-0.0913,0.9916,-25.130,17.710,14.700,392,411,367,411,399,2025-06-04T19:51:51.936973
967,-0.3655,-0.1444,0.9653,-27.160,20.335,14.945,334,382,371,343,406,2025-06-04T19:51:51.936973
968,-0.3728,-0.1435,0.9887,-29.120,21.805,13.790,390,367,374,399,392,2025-06-04T19:51:51.936973
969,-0.3680,-0.1810,0.9848,-31.115,19.495,12.985,296,289,366,350,413,2025-06-04T19:51:51.936973
970,-0.3855,-0.1781,0.9936,-38.255,16.240,12.145,366,378,378,400,400,2025-06-04T19:51:51.936973
971,-0.4982,-0.1708,0.9838,-43.295,12.145,12.775,423,415,386,408,391,2025-06-04T19:51:51.936973
972,-0.4172,-0.1362,1.0067,-45.535,9.835,12.425,417,395,378,352,358,2025-06-04T19:51:51.936973
973,-0.4104,-0.1703,0.9555,-54.075,5.425,13.090,361,413,383,403,393,2025-06-04T19:51:51.936973
974,-0.4285,-0.1820,0.9414,-55.545,4.935,10.710,406,424,384,416,408,2025-06-04T19:51:51.936973
975,-0.4641,-0.2157,0.9740,-58.485,0.420,9.240,392,382,377,393,412,2025-06-04T19:51:51.936973
976,-0.4870,-0.2523,0.9692,-59.395,1.540,6.580,416,393,385,402,405,2025-06-04T19:51:51.936973
977,-0.4787,-0.1254,0.9765,-55.545,-5.145,5.040,416,414,381,344,404,2025-06-04T19:51:51.936973
978,-0.4685,-0.1757,0.9516,-63.525,-8.610,4.130,418,421,373,376,404,2025-06-04T19:51:51.936973
979,-0.4280,-0.2176,0.9960,-65.730,-12.600,4.130,380,394,384,389,390,2025-06-04T19:51:51.936973
980,-0.3928,-0.2406,0.9814,-61.600,-12.530,7.035,390,366,374,355,395,2025-06-04T19:51:52.142064
981,-0.3909,-0.2245,1.0014,-59.500,-11.620,6.930,396,347,387,402,399,2025-06-04T19:51:52.142064
982,-0.3074,-0.1298,0.9941,-60.130,-10.290,9.870,411,395,376,365,401,2025-06-04T19:51:52.142064
983,-0.3152,-0.3343,0.9218,-69.160,-5.215,13.510,408,408,377,402,371,2025-06-04T19:51:52.142064
984,-0.4011,-0.2240,0.9736,-66.255,-0.630,14.910,395,421,377,401,343,2025-06-04T19:51:52.142064
985,-0.3392,-0.2172,0.8955,-67.935,3.080,16.170,415,414,391,415,388,2025-06-04T19:51:52.142064
986,-0.3977,-0.2255,0.8364,-71.120,8.295,16.625,375,408,400,391,390,2025-06-04T19:51:52.142064
987,-0.3987,-0.3460,0.8013,-69.510,10.325,18.550,396,402,383,387,396,2025-06-04T19:51:52.142064
988,-0.4329,-0.2362,0.8496,-63.175,5.985,20.090,417,355,379,395,410,2025-06-04T19:51:52.142064
989,-0.4446,-0.3826,0.7998,-63.000,9.450,17.010,438,400,396,409,423,2025-06-04T19:51:52.142064
990,-0.4470,-0.3699,0.7745,-58.170,7.070,15.610,418,402,390,422,418,2025-06-04T19:51:52.142064
991,-0.4470,-0.4329,0.8076,-50.610,5.810,13.720,417,422,395,427,429,2025-06-04T19:51:52.142064
992,-0.4758,-0.4387,0.8316,-46.235,1.225,12.285,420,434,393,412,413,2025-06-04T19:51:52.142064
993,-0.4734,-0.4304,0.8594,-41.615,-2.590,9.905,401,416,401,427,415,2025-06-04T19:51:52.142064
994,-0.5085,-0.4665,0.9082,-41.475,-9.940,6.405,342,434,405,411,427,2025-06-04T19:51:52.142064
995,-0.5231,-0.4412,0.9008,-34.860,-16.275,3.115,386,428,391,414,424,2025-06-04T19:51:52.142064
996,-0.4973,-0.4787,0.8711,-34.685,-21.560,1.155,401,442,408,432,416,2025-06-04T19:51:52.142064
997,-0.4929,-0.4338,0.9082,-28.560,-24.115,-0.875,420,425,396,407,361,2025-06-04T19:51:52.142064
998,-0.4851,-0.4241,0.8701,-24.080,-29.575,-2.065,429,438,364,381,403,2025-06-04T19:51:52.142064
999,-0.4641,-0.3426,0.9033,-22.820,-29.855,-3.220,407,408,371,409,423,2025-06-04T19:51:52.142064
1000,-0.3963,-0.3070,0.8935,-23.065,-29.645,-3.045,385,415,388,383,396,2025-06-04T19:51:52.142064
1001,-0.4207,-0.3055,0.8930,-18.935,-26.705,-3.430,429,429,386,373,394,2025-06-04T19:51:52.142064
1002,-0.3894,-0.3914,0.8418,-18.900,-20.930,-3.815,376,433,382,388,392,2025-06-04T19:51:52.142064
1003,-0.3875,-0.4568,0.7862,-13.475,-13.930,-1.785,427,442,389,414,417,2025-06-04T19:51:52.142064
1004,-0.4138,-0.4724,0.7603,-7.630,-9.100,-0.525,448,439,387,424,430,2025-06-04T19:51:52.142064
1005,-0.3914,-0.4690,0.7559,-6.860,-7.385,0.350,418,432,390,411,405,2025-06-04T19:51:52.142064
1006,-0.4451,-0.4304,0.7627,-4.410,-12.040,-0.945,440,405,394,386,410,2025-06-04T19:51:52.142064
1007,-0.4299,-0.4309,0.8433,-5.180,-21.070,-3.500,423,404,398,415,400,2025-06-04T19:51:52.142064
1008,-0.4734,-0.5963,0.8164,-3.290,-29.820,-8.995,447,436,400,433,420,2025-06-04T19:51:52.142064
1009,-0.4802,-0.4426,0.8843,-3.815,-32.620,-13.650,441,436,394,413,404,2025-06-04T19:51:52.142064
1010,-0.4046,-0.3294,0.9023,-9.065,-33.040,-12.670,380,406,387,350,409,2025-06-04T19:51:52.142064
1011,-0.3660,-0.4416,0.8989,-13.370,-32.200,-6.685,406,417,391,389,408,2025-06-04T19:51:52.142064
1012,-0.2806,-0.4114,0.8384,-4.795,-27.475,3.150,406,440,380,417,398,2025-06-04T19:51:52.142064
1013,-0.2396,-0.4797,0.7720,1.890,-17.360,6.755,401,408,396,372,391,2025-06-04T19:51:52.142064
1014,-0.2645,-0.3992,0.7637,7.315,-8.435,9.660,422,435,391,347,408,2025-06-04T19:51:52.142064
1015,-0.3294,-0.3704,0.8072,6.335,-9.695,14.875,433,424,401,401,388,2025-06-04T19:51:52.142064
1016,-0.4372,-0.5187,0.7710,-1.820,-14.525,11.970,375,422,396,420,403,2025-06-04T19:51:52.142064
1017,-0.5607,-0.5422,0.8067,1.190,-20.300,4.095,388,417,384,396,398,2025-06-04T19:51:52.142064
1018,-0.6188,-0.6032,0.8638,1.190,-24.430,-4.515,364,410,399,399,405,2025-06-04T19:51:52.142064
1019,-0.5622,-0.6022,0.9018,1.435,-22.190,-12.635,380,407,394,401,391,2025-06-04T19:51:52.142064
1020,-0.4880,-0.5231,0.9062,-1.960,-26.320,-20.020,386,415,384,406,350,2025-06-04T19:51:52.142064
1021,-0.3880,-0.5295,0.9575,-2.520,-24.395,-22.575,409,405,377,405,395,2025-06-04T19:51:52.143062
1022,-0.3665,-0.4987,0.9799,-4.900,-28.035,-23.835,398,428,387,391,383,2025-06-04T19:51:52.143062
1023,-0.3104,-0.5036,0.9287,-2.135,-28.630,-23.835,402,425,401,417,404,2025-06-04T19:51:52.143062
1024,-0.3113,-0.4968,0.8789,-0.245,-24.780,-23.100,416,375,390,425,402,2025-06-04T19:51:52.143062
1025,-0.3211,-0.4426,0.8486,3.885,-21.000,-22.680,414,399,381,413,390,2025-06-04T19:51:52.143062
1026,-0.3094,-0.4080,0.8086,3.395,-19.600,-21.000,424,442,364,418,421,2025-06-04T19:51:52.143062
1027,-0.3177,-0.4026,0.8374,1.855,-21.280,-19.775,419,415,362,424,415,2025-06-04T19:51:52.143062
1028,-0.3436,-0.3870,0.8486,0.945,-23.205,-19.110,413,410,376,367,409,2025-06-04T19:51:52.143062
1029,-0.3338,-0.3723,0.8320,-0.490,-23.835,-18.970,338,393,378,375,409,2025-06-04T19:51:52.143062
1030,-0.2889,-0.3499,0.8208,-2.380,-20.300,-16.450,376,362,375,397,354,2025-06-04T19:51:52.143062
1031,-0.2601,-0.2908,0.8013,-4.235,-16.940,-13.895,408,348,380,403,399,2025-06-04T19:51:52.143062
1032,-0.2284,-0.2137,0.7935,-6.020,-12.495,-8.820,398,405,370,394,358,2025-06-04T19:51:52.143062
1033,-0.2430,-0.2269,0.7735,-7.000,-7.525,-7.000,353,422,387,397,382,2025-06-04T19:51:52.143062
1034,-0.2025,-0.2357,0.7935,-4.165,0.945,-3.885,418,436,358,421,389,2025-06-04T19:51:52.143062
1035,-0.1893,-0.2411,0.8560,-7.665,12.810,0.700,418,404,345,406,385,2025-06-04T19:51:52.143062
1036,-0.2362,-0.2298,0.8140,-13.510,17.255,2.800,408,438,377,423,410,2025-06-04T19:51:52.143062
1037,-0.1815,-0.1035,0.8638,-11.340,21.455,1.680,407,416,383,401,406,2025-06-04T19:51:52.143062
1038,-0.1454,-0.1620,0.9150,-25.445,29.190,10.745,366,420,400,415,405,2025-06-04T19:51:52.143062
1039,-0.2015,-0.4626,0.8233,-25.585,36.960,18.165,404,358,400,438,426,2025-06-04T19:51:52.143062
1040,-0.2298,-0.0346,0.9340,-5.740,43.820,19.390,343,377,387,410,420,2025-06-04T19:51:52.143062
1041,-0.0185,1.0433,0.6598,14.420,49.210,5.180,346,417,378,430,416,2025-06-04T19:51:52.143062
1042,-0.0083,0.8042,0.2225,-28.875,10.990,34.755,383,387,370,359,396,2025-06-04T19:51:52.143062
1043,0.1547,-0.0078,0.1322,2.870,-56.525,56.105,401,422,384,406,413,2025-06-04T19:51:52.143062
1044,0.3387,-0.4075,1.3288,42.210,20.405,87.640,406,406,392,417,410,2025-06-04T19:51:52.143062
1045,0.2362,-0.3792,0.8194,80.500,7.455,141.750,409,393,390,404,392,2025-06-04T19:51:52.143062
1046,-0.3479,-0.2811,1.0282,75.705,23.520,146.580,368,419,396,363,385,2025-06-04T19:51:52.143062
1047,-0.8325,-0.2977,1.1414,38.395,26.145,156.800,398,429,392,359,401,2025-06-04T19:51:52.143062
1048,-1.0551,-0.7315,0.5441,-3.640,-20.510,164.220,387,437,380,404,358,2025-06-04T19:51:52.143062
1049,-0.9199,-0.6622,0.7666,49.245,-13.965,142.100,409,410,400,423,375,2025-06-04T19:51:52.143062
1050,-1.1800,-0.9213,0.9321,8.890,4.410,123.025,397,391,394,411,366,2025-06-04T19:51:52.143062
1051,-1.2664,-1.0951,0.6681,30.975,26.075,89.740,304,430,405,426,399,2025-06-04T19:51:52.143062
1052,-1.2210,-0.9350,0.9160,56.420,34.510,52.570,390,423,401,417,397,2025-06-04T19:51:52.143062
1053,-1.2542,-0.8169,1.1766,20.440,46.445,19.670,412,432,325,416,393,2025-06-04T19:51:52.143062
1054,-0.9843,-0.7383,1.3679,0.000,36.540,-5.460,417,411,363,417,394,2025-06-04T19:51:52.143062
1055,-0.7671,-0.5876,1.1663,-15.435,27.055,-25.165,418,408,369,419,410,2025-06-04T19:51:52.143062
1056,-0.4948,-0.5451,1.2820,-43.050,36.890,-28.840,439,395,383,425,389,2025-06-04T19:51:52.143062
1057,-0.4431,-0.3987,1.2224,-61.775,29.575,-33.705,417,407,382,400,385,2025-06-04T19:51:52.143062
1058,-0.3362,-0.6964,1.2512,-92.575,27.300,-24.080,403,348,377,400,348,2025-06-04T19:51:52.143062
1059,-0.2718,-0.8135,0.7354,-75.425,-5.005,0.245,397,415,392,417,394,2025-06-04T19:51:52.143062
1060,-0.3426,-0.7300,0.5998,-18.655,-25.515,8.820,411,411,391,413,405,2025-06-04T19:51:52.143062
1061,-0.3845,-0.3055,0.7832,-5.495,-19.810,12.880,418,435,390,407,410,2025-06-04T19:51:52.143062
1062,-0.4904,-0.2582,0.2474,25.795,-23.870,5.495,396,375,374,388,393,2025-06-04T19:51:52.143062
1063,-0.4753,0.0429,0.9292,45.395,-42.245,0.420,425,385,337,396,374,2025-06-04T19:51:52.143062
1064,-0.3533,0.0181,1.0180,12.285,-40.845,6.685,416,405,349,349,396,2025-06-04T19:51:52.143062
1065,-0.2752,-0.1303,1.2278,0.315,-44.625,7.140,400,422,335,388,347,2025-06-04T19:51:52.143062
1066,-0.2948,-0.3567,0.9677,15.925,-61.740,11.585,423,423,357,389,375,2025-06-04T19:51:52.143062
1067,-0.5431,-0.3528,1.1224,16.870,-57.085,16.100,406,384,380,402,343,2025-06-04T19:51:52.143062
1068,-0.5290,-0.2904,1.1761,24.990,-55.825,18.130,418,408,377,401,390,2025-06-04T19:51:52.143062
1069,-0.5617,-0.1347,1.1751,8.365,-66.325,19.005,392,411,385,394,390,2025-06-04T19:51:52.143062
1070,-0.6222,-0.0810,1.2376,-37.030,-60.795,15.645,395,390,383,408,386,2025-06-04T19:51:52.143062
1071,-0.6041,-0.3831,1.1214,-55.650,-69.510,23.730,427,400,398,410,386,2025-06-04T19:51:52.143062
1072,-0.4734,-0.4870,1.0199,-49.035,-70.805,28.910,422,432,352,390,405,2025-06-04T19:51:52.143062
1073,0.5797,0.1840,1.0341,-63.805,-65.765,36.890,420,407,356,414,417,2025-06-04T19:51:52.143062
1074,-0.1845,-0.5007,1.0897,-86.730,-18.690,66.080,419,416,341,417,413,2025-06-04T19:51:52.143062
1075,-0.6232,-0.5275,1.0424,-70.455,-41.615,59.850,417,415,319,397,407,2025-06-04T19:51:52.143062
1076,-1.0287,-0.6398,1.0951,-47.775,-67.060,42.980,405,420,357,414,421,2025-06-04T19:51:52.143062
1077,-0.9389,-0.6017,1.0921,-56.420,-73.430,33.180,418,420,375,411,405,2025-06-04T19:51:52.143062
1078,-0.7896,-0.6412,1.0853,-44.275,-93.380,24.430,414,380,387,416,397,2025-06-04T19:51:52.143062
1079,-0.5529,-0.6988,0.9726,-44.415,-103.635,20.440,416,427,374,414,402,2025-06-04T19:51:52.143062
1080,-0.4904,-0.8272,0.9775,-42.245,-116.445,16.240,421,431,368,356,408,2025-06-04T19:51:52.143062
1081,-0.4089,-0.8472,0.9618,-35.630,-112.280,11.620,409,425,380,388,405,2025-06-04T19:51:52.143062
1082,-0.3113,-0.8111,0.9623,-23.240,-97.825,7.070,403,406,370,415,400,2025-06-04T19:51:52.143062
1083,-0.3777,-0.7452,0.9550,-15.470,-88.305,-3.115,305,409,380,393,409,2025-06-04T19:51:52.143062
1084,-0.4333,-0.7008,1.0175,-11.375,-83.755,-13.370,365,423,381,411,402,2025-06-04T19:51:52.143062
1085,-0.3665,-0.6793,0.9784,-7.175,-94.465,-21.630,410,384,379,412,400,2025-06-04T19:51:52.143062
1086,-0.4363,-0.6798,0.9526,-13.825,-102.725,-31.990,379,399,347,420,364,2025-06-04T19:51:52.143062
1087,-0.2840,-0.8052,0.9911,-19.845,-125.160,-35.175,346,398,366,413,380,2025-06-04T19:51:52.143062
1088,-0.2791,-0.7974,0.9672,-11.480,-130.935,-37.345,416,406,354,379,395,2025-06-04T19:51:52.143062
1089,-0.1986,-0.8682,0.9755,5.950,-141.610,-39.235,410,396,369,411,409,2025-06-04T19:51:52.143062
1090,-0.1747,-0.8477,0.9677,11.445,-143.675,-40.565,388,349,368,417,350,2025-06-04T19:51:52.143062
1091,0.1391,-0.9194,0.8413,10.220,-119.070,-50.540,400,349,368,370,405,2025-06-04T19:51:52.143062
1092,0.0283,-0.8794,0.8686,26.180,-100.590,-56.770,411,376,338,388,407,2025-06-04T19:51:52.143062
1093,0.2513,-0.8706,0.8252,30.100,-60.480,-67.585,421,390,372,418,405,2025-06-04T19:51:52.143062
1094,0.1269,-0.8594,0.8633,35.070,-39.760,-76.300,392,419,370,366,417,2025-06-04T19:51:52.143062
1095,0.0508,-0.7989,0.9126,50.820,-27.230,-78.925,390,404,387,384,404,2025-06-04T19:51:52.143062
1096,-0.0566,-0.7213,0.9492,48.055,-29.680,-83.160,374,410,402,398,413,2025-06-04T19:51:52.143062
1097,-0.1405,-0.7027,0.9984,52.780,-39.025,-88.865,409,391,376,348,394,2025-06-04T19:51:52.143062
1098,-0.1537,-0.6154,0.9828,51.380,-47.775,-95.935,397,406,383,402,395,2025-06-04T19:51:52.143062
1099,-0.1586,-0.5651,0.9716,53.375,-54.425,-103.950,414,394,391,410,405,2025-06-04T19:51:52.143062
1100,-0.1615,-0.4982,0.9321,51.240,-61.530,-113.085,422,421,387,391,404,2025-06-04T19:51:52.143062
1101,-0.1396,-0.4529,0.8994,49.000,-69.265,-120.820,401,422,385,399,415,2025-06-04T19:51:52.143062
1102,-0.0981,-0.4158,0.8403,47.705,-76.580,-130.200,409,415,371,390,349,2025-06-04T19:51:52.143062
1103,-0.0444,-0.3782,0.7920,46.445,-80.640,-138.740,399,400,346,417,389,2025-06-04T19:51:52.143062
1104,0.0112,-0.3597,0.7476,46.935,-81.690,-145.810,337,406,346,426,408,2025-06-04T19:51:52.143062
1105,0.0386,-0.3362,0.7208,47.145,-80.675,-153.335,386,400,359,397,411,2025-06-04T19:51:52.143062
1106,0.0717,-0.3226,0.7100,47.985,-77.245,-159.670,413,396,351,412,429,2025-06-04T19:51:52.143062
1107,0.1196,-0.2957,0.6666,50.680,-73.395,-165.095,416,416,375,390,358,2025-06-04T19:51:52.143062
1108,0.1186,-0.2816,0.6568,52.535,-65.695,-169.715,363,408,350,411,384,2025-06-04T19:51:52.143062
1109,0.1264,-0.2411,0.6515,53.620,-57.050,-173.635,388,424,334,398,414,2025-06-04T19:51:52.143062
1110,0.1454,-0.2294,0.6627,56.455,-47.040,-176.960,345,406,351,395,404,2025-06-04T19:51:52.143062
1111,0.1479,-0.1893,0.6593,57.785,-38.115,-179.830,399,396,382,421,403,2025-06-04T19:51:52.143062
1112,0.1723,-0.1518,0.6398,59.045,-31.010,-181.195,416,406,389,411,399,2025-06-04T19:51:52.143062
1113,0.2020,-0.1103,0.6154,58.205,-22.575,-181.055,399,401,395,393,396,2025-06-04T19:51:52.143062
1114,0.2035,-0.0913,0.6085,57.715,-15.295,-180.075,406,422,393,352,401,2025-06-04T19:51:52.143062
1115,0.1757,-0.0678,0.5856,59.640,-5.075,-179.795,390,375,384,403,391,2025-06-04T19:51:52.143062
1116,0.1581,-0.0220,0.6188,60.935,2.520,-179.095,387,395,391,396,365,2025-06-04T19:51:52.143062
1117,0.1435,0.0000,0.6368,59.605,8.470,-177.240,394,418,392,359,385,2025-06-04T19:51:52.143062
1118,0.1308,0.0473,0.6446,56.945,10.640,-174.685,418,433,379,396,351,2025-06-04T19:51:52.143062
1119,0.1293,0.0547,0.7017,53.165,10.780,-169.820,425,425,391,384,358,2025-06-04T19:51:52.143062
1120,0.0922,0.0415,0.7203,47.880,12.460,-164.990,361,416,383,399,373,2025-06-04T19:51:52.143062
1121,0.0937,0.0083,0.7784,43.190,11.445,-160.650,399,421,343,392,383,2025-06-04T19:51:52.143062
1122,0.1074,0.0327,0.7950,42.210,13.440,-156.380,409,415,354,391,393,2025-06-04T19:51:52.143062
1123,0.1376,0.0639,0.7779,42.700,13.090,-150.535,389,402,343,389,408,2025-06-04T19:51:52.143062
1124,0.1498,0.1093,0.7681,36.365,12.635,-143.920,416,344,320,414,422,2025-06-04T19:51:52.143062
1125,0.1513,0.0971,0.7818,27.755,14.910,-136.815,414,402,319,404,378,2025-06-04T19:51:52.143062
1126,0.1527,0.0673,0.8047,25.200,20.720,-132.860,402,381,355,399,392,2025-06-04T19:51:52.144059
1127,0.1030,0.0722,0.8477,24.990,31.640,-131.215,361,384,373,406,399,2025-06-04T19:51:52.144059
1128,0.0498,0.0971,0.8750,26.075,39.620,-130.865,409,402,374,405,395,2025-06-04T19:51:52.144059
1129,-0.0068,0.1518,0.9013,25.970,43.015,-130.795,403,417,388,418,399,2025-06-04T19:51:52.144059
1130,-0.0317,0.2011,0.8994,23.380,35.490,-129.745,410,431,385,408,408,2025-06-04T19:51:52.296654
1131,-0.0439,0.2191,0.8721,18.830,27.475,-126.420,395,420,376,396,372,2025-06-04T19:51:52.296654
1132,-0.0742,0.2528,0.8896,14.350,18.655,-124.215,396,427,333,342,358,2025-06-04T19:51:52.296654
1133,-0.1010,0.2308,0.9252,9.450,14.315,-121.520,425,406,360,395,396,2025-06-04T19:51:52.296654
1134,-0.1606,0.2279,0.9667,6.720,8.680,-121.100,421,423,369,392,374,2025-06-04T19:51:52.296654
1135,-0.1581,0.2181,1.0185,1.120,0.700,-122.010,434,358,371,394,395,2025-06-04T19:51:52.296654
1136,-0.1625,0.2342,1.0141,-4.270,-7.175,-119.840,396,340,342,350,348,2025-06-04T19:51:52.296654
1137,-0.1479,0.2884,1.0648,-9.765,-20.720,-115.955,358,381,322,393,377,2025-06-04T19:51:52.296654
1138,-0.1274,0.2757,1.0507,-21.175,-33.425,-107.975,393,429,361,409,397,2025-06-04T19:51:52.296654
1139,-0.0586,0.2323,1.0482,-29.540,-44.625,-99.925,415,416,337,406,410,2025-06-04T19:51:52.296654
1140,-0.0346,0.2704,1.4943,-46.270,-35.315,-90.405,303,408,365,392,399,2025-06-04T19:51:52.296654
1141,-0.2899,0.1723,1.6948,-71.785,-44.485,-86.625,322,411,382,352,388,2025-06-04T19:51:52.296654
1142,-0.1401,-0.0444,1.4952,-78.225,-50.120,-81.585,386,385,364,353,400,2025-06-04T19:51:52.296654
1143,-0.1000,0.0498,1.3137,-77.210,-57.995,-73.640,339,410,352,294,389,2025-06-04T19:51:52.296654
1144,-0.0615,0.3050,1.0853,-78.505,-66.710,-64.645,377,422,379,379,402,2025-06-04T19:51:52.296654
1145,0.4416,0.0068,0.8316,-21.175,40.390,-37.730,414,429,380,392,409,2025-06-04T19:51:52.296654
1146,0.0761,-0.2225,1.1146,44.730,71.155,-12.845,400,367,389,389,392,2025-06-04T19:51:52.296654
1147,-0.2884,0.4577,1.1605,27.370,28.770,9.275,342,352,340,340,362,2025-06-04T19:51:52.296654
1148,-0.0449,0.3675,0.8516,-40.460,-1.960,17.745,363,386,322,334,383,2025-06-04T19:51:52.296654
1149,-0.0073,0.0869,1.0194,-50.155,-27.685,17.815,413,419,356,334,383,2025-06-04T19:51:52.296654
1150,0.0605,0.1254,0.8994,-61.705,-23.135,17.395,423,421,372,342,400,2025-06-04T19:51:52.296654
1151,0.0874,0.1459,0.7627,-64.645,-12.950,15.225,371,403,379,392,412,2025-06-04T19:51:52.296654
1152,0.0429,0.0434,0.8706,-57.960,-15.750,8.610,392,398,386,394,409,2025-06-04T19:51:52.296654
1153,0.0078,-0.0766,0.9794,-58.520,-19.075,0.490,415,396,349,401,404,2025-06-04T19:51:52.296654
1154,0.0698,-0.2259,1.1117,-44.905,-21.420,-8.015,396,430,368,396,396,2025-06-04T19:51:52.296654
1155,0.0620,-0.2484,1.1175,-32.445,-15.960,-11.305,409,436,378,397,398,2025-06-04T19:51:52.296654
1156,0.1288,-0.2201,1.0604,-17.955,-7.980,-12.320,424,358,395,399,409,2025-06-04T19:51:52.296654
1157,0.1381,-0.1503,1.0263,-6.930,-2.695,-11.165,390,390,365,346,391,2025-06-04T19:51:52.296654
1158,0.0961,-0.0395,1.0087,-13.580,-4.655,-8.995,399,420,347,364,391,2025-06-04T19:51:52.296654
1159,0.1327,-0.0137,0.9614,-16.135,-19.145,-6.475,414,404,330,336,356,2025-06-04T19:51:52.296654
1160,0.2054,-0.0112,0.9540,-19.285,-28.560,-1.995,346,344,324,387,390,2025-06-04T19:51:52.296654
1161,0.2220,-0.0468,0.8623,-18.900,-33.110,2.310,387,389,346,351,396,2025-06-04T19:51:52.296654
1162,0.2401,-0.0644,0.8530,-6.020,-37.380,7.350,392,416,332,401,404,2025-06-04T19:51:52.296654
1163,0.2801,-0.0766,0.9536,13.055,-40.145,12.425,379,405,360,398,357,2025-06-04T19:51:52.296654
1164,0.3924,-0.0932,1.0716,12.495,-43.015,18.550,405,388,374,352,350,2025-06-04T19:51:52.296654
1165,0.3489,-0.1035,0.8306,14.070,-33.880,22.435,393,403,376,361,381,2025-06-04T19:51:52.296654
1166,0.2181,-0.0478,0.8032,36.855,-17.570,21.455,412,414,347,389,402,2025-06-04T19:51:52.296654
1167,0.0830,0.0264,0.9038,42.735,0.875,18.305,376,377,353,413,407,2025-06-04T19:51:52.296654
1168,0.1064,0.0273,0.9579,40.985,5.320,12.005,400,339,362,418,402,2025-06-04T19:51:52.296654
1169,0.1191,-0.0205,0.9697,25.305,4.900,5.600,397,372,380,420,364,2025-06-04T19:51:52.296654
1170,0.1362,-0.0483,1.0092,22.575,7.840,-0.280,366,411,388,314,389,2025-06-04T19:51:52.296654
1171,0.1845,-0.0303,1.1492,30.240,9.065,-2.940,404,423,346,341,402,2025-06-04T19:51:52.296654
1172,0.2533,-0.0093,1.1107,35.560,9.555,0.105,422,349,369,372,415,2025-06-04T19:51:52.297650
1173,0.2440,-0.0327,0.9706,34.685,10.080,5.530,417,383,380,347,397,2025-06-04T19:51:52.297650
1174,0.0917,0.0195,0.9911,33.425,3.150,7.105,389,336,343,327,406,2025-06-04T19:51:52.297650
1175,0.1108,0.0444,0.9594,34.125,-0.245,8.925,419,384,327,385,392,2025-06-04T19:51:52.297650
1176,0.1527,0.1005,0.9433,32.410,-3.290,12.670,386,419,343,379,393,2025-06-04T19:51:52.297650
1177,0.1259,0.1435,0.9340,34.405,-10.570,15.400,391,417,355,404,403,2025-06-04T19:51:52.297650
1178,0.1220,0.1435,0.9472,35.210,-16.730,17.395,415,408,334,399,395,2025-06-04T19:51:52.297650
1179,0.1527,0.1386,0.9799,38.325,-20.580,20.265,410,348,363,411,401,2025-06-04T19:51:52.297650
1180,0.1952,0.1078,1.0014,38.745,-23.450,25.410,396,398,372,372,396,2025-06-04T19:51:52.297650
1181,0.2294,0.0703,1.0131,38.290,-27.440,30.660,398,396,339,400,373,2025-06-04T19:51:52.297650
1182,0.2264,0.0542,1.0316,40.040,-31.290,35.280,421,397,356,345,371,2025-06-04T19:51:52.297650
1183,0.2113,0.0576,1.0272,41.125,-32.480,37.905,427,423,375,371,395,2025-06-04T19:51:52.297650
1184,0.1845,0.0786,1.0048,44.100,-33.215,38.045,339,410,376,384,406,2025-06-04T19:51:52.297650
1185,0.1791,0.1157,0.9638,45.290,-33.355,36.505,395,426,382,396,414,2025-06-04T19:51:52.297650
1186,0.1835,0.1337,0.9487,46.130,-30.170,33.495,415,400,388,393,406,2025-06-04T19:51:52.297650
1187,0.1776,0.1401,0.9648,45.500,-24.430,29.575,414,423,382,397,381,2025-06-04T19:51:52.297650
1188,0.1932,0.1645,1.0189,45.045,-18.760,19.530,418,431,391,393,343,2025-06-04T19:51:52.297650
1189,0.0947,0.2542,1.3747,59.605,-9.905,16.660,410,361,382,351,319,2025-06-04T19:51:52.297650
1190,0.0190,0.2743,1.1956,49.560,-12.670,4.165,399,411,386,367,366,2025-06-04T19:51:52.297650
1191,0.1435,0.2098,1.0316,23.310,-38.395,-3.710,420,368,389,393,404,2025-06-04T19:51:52.297650
1192,0.2630,0.2240,0.9843,11.375,-26.635,-2.590,425,392,358,415,395,2025-06-04T19:51:52.297650
1193,0.2059,0.2518,1.0360,18.550,-15.365,0.980,428,425,376,419,410,2025-06-04T19:51:52.297650
1194,0.1527,0.2508,1.0946,27.685,-15.505,3.430,421,418,378,394,391,2025-06-04T19:51:52.297650
1195,0.1679,0.2689,1.0609,20.090,-23.765,5.600,428,353,365,402,407,2025-06-04T19:51:52.297650
1196,0.2079,0.2865,1.0321,4.725,-35.350,8.400,397,374,383,412,373,2025-06-04T19:51:52.297650
1197,0.2294,0.2381,1.0072,-2.485,-39.900,11.130,425,337,380,402,392,2025-06-04T19:51:52.297650
1198,0.2596,0.2181,0.9911,3.220,-39.270,12.460,426,387,383,408,411,2025-06-04T19:51:52.297650
1199,0.2757,0.1893,0.9653,6.195,-36.785,13.265,402,371,373,414,398,2025-06-04T19:51:52.297650
1200,0.2884,0.1962,0.9550,4.130,-40.565,13.160,424,430,353,404,353,2025-06-04T19:51:52.297650
1201,0.2933,0.1942,0.9155,0.770,-45.045,12.600,399,394,368,412,396,2025-06-04T19:51:52.297650
1202,0.3050,0.1635,0.9555,4.725,-41.860,12.005,420,410,349,346,409,2025-06-04T19:51:52.297650
1203,0.3314,0.1518,0.9579,7.210,-38.535,12.040,416,418,371,400,362,2025-06-04T19:51:52.297650
1204,0.3201,0.1386,0.9667,3.955,-34.265,11.550,404,408,334,346,373,2025-06-04T19:51:52.297650
1205,0.2982,0.1562,0.9740,4.410,-35.315,10.430,417,419,369,378,392,2025-06-04T19:51:52.297650
1206,0.3026,0.1591,0.9496,2.625,-34.650,8.925,415,397,375,386,358,2025-06-04T19:51:52.297650
1207,0.3206,0.1562,0.9443,6.265,-33.635,7.560,429,402,338,384,389,2025-06-04T19:51:52.297650
1208,0.3348,0.1635,0.9428,9.240,-28.735,7.070,407,385,358,410,390,2025-06-04T19:51:52.297650
1209,0.3318,0.1850,0.9521,7.700,-25.095,6.895,395,406,333,401,386,2025-06-04T19:51:52.297650
1210,0.3099,0.1957,0.9316,7.805,-25.690,6.055,392,302,368,365,409,2025-06-04T19:51:52.298499
1211,0.3128,0.1962,0.9267,6.090,-26.985,5.250,334,373,376,406,420,2025-06-04T19:51:52.298499
1212,0.3328,0.1972,0.9287,5.880,-27.650,4.445,403,391,344,398,401,2025-06-04T19:51:52.298499
1213,0.3465,0.1991,0.9399,4.655,-27.720,4.585,408,346,372,399,403,2025-06-04T19:51:52.298499
1214,0.3728,0.1649,0.9414,4.130,-28.875,7.525,393,333,377,347,378,2025-06-04T19:51:52.298646
1215,0.3894,0.1815,0.9584,5.880,-35.035,6.825,422,397,388,377,402,2025-06-04T19:51:52.298646
1216,0.3392,0.1757,0.9457,2.940,-27.195,6.440,422,407,372,392,371,2025-06-04T19:51:52.298646
1217,0.3450,0.1864,0.9326,7.385,-32.025,6.160,390,421,338,410,397,2025-06-04T19:51:52.298646
1218,0.3728,0.2045,0.9370,5.320,-34.020,6.650,393,406,372,405,403,2025-06-04T19:51:52.298646
1219,0.3743,0.2030,0.9174,1.995,-33.530,7.595,388,432,343,411,349,2025-06-04T19:51:52.298646
1220,0.3762,0.2123,0.9096,4.480,-35.665,8.155,414,425,363,407,385,2025-06-04T19:51:52.298646
1221,0.3787,0.2235,0.9150,5.985,-34.930,8.680,427,431,362,416,391,2025-06-04T19:51:52.298646
1222,0.4006,0.2181,0.9209,5.740,-35.105,9.030,343,425,367,415,392,2025-06-04T19:51:52.298646
1223,0.4060,0.2142,0.9326,4.935,-35.945,9.520,344,387,385,395,345,2025-06-04T19:51:52.298646
1224,0.4006,0.2045,0.9355,3.570,-33.950,9.730,388,395,381,380,389,2025-06-04T19:51:52.298646
1225,0.4055,0.1947,0.9311,3.745,-33.950,9.205,392,394,379,384,399,2025-06-04T19:51:52.298646
1226,0.4114,0.1854,0.9204,2.205,-33.565,8.645,386,297,363,398,355,2025-06-04T19:51:52.298646
1227,0.4168,0.1649,0.8794,1.995,-31.150,8.120,388,382,373,400,334,2025-06-04T19:51:52.298646
1228,0.4304,0.1688,0.8877,5.040,-31.570,7.735,416,426,387,410,374,2025-06-04T19:51:52.298646
1229,0.4338,0.1752,0.8935,5.950,-29.435,7.560,422,362,393,413,335,2025-06-04T19:51:52.298646
1230,0.4392,0.1879,0.8974,6.055,-29.540,7.315,397,414,353,394,370,2025-06-04T19:51:52.298646
1231,0.4470,0.2176,0.8789,3.780,-29.470,7.070,415,343,365,418,388,2025-06-04T19:51:52.298646
1232,0.4529,0.2025,0.8808,3.885,-27.615,7.000,400,417,369,348,356,2025-06-04T19:51:52.298646
1233,0.4538,0.2094,0.9145,5.145,-27.265,6.825,380,424,368,336,356,2025-06-04T19:51:52.298646
1234,0.4616,0.2025,0.9116,3.465,-24.955,7.035,418,354,332,389,389,2025-06-04T19:51:52.298646
1235,0.4631,0.2045,0.9145,1.015,-25.865,7.000,392,355,363,386,367,2025-06-04T19:51:52.298646
1236,0.4607,0.1972,0.9038,-0.140,-26.250,6.545,404,411,380,404,394,2025-06-04T19:51:52.298646
1237,0.4665,0.1801,0.8930,-0.490,-25.340,6.475,378,402,373,390,413,2025-06-04T19:51:52.298646
1238,0.4719,0.1713,0.8828,1.330,-24.955,6.405,390,415,376,393,400,2025-06-04T19:51:52.298646
1239,0.4695,0.1659,0.8691,1.295,-23.450,5.950,416,355,363,389,403,2025-06-04T19:51:52.298646
1240,0.4704,0.1703,0.8633,2.205,-23.205,5.320,406,340,337,404,370,2025-06-04T19:51:52.298646
1241,0.4763,0.1752,0.8618,3.150,-22.190,4.690,422,410,362,396,404,2025-06-04T19:51:52.298646
1242,0.4836,0.1825,0.8638,3.745,-20.755,4.270,434,405,367,399,411,2025-06-04T19:51:52.298646
1243,0.4870,0.1962,0.8745,3.290,-19.705,4.200,415,423,372,393,358,2025-06-04T19:51:52.298646
1244,0.4953,0.2054,0.8911,2.100,-18.375,4.025,418,432,347,381,384,2025-06-04T19:51:52.298646
1245,0.4900,0.1976,0.8989,0.490,-17.290,3.710,434,401,359,386,406,2025-06-04T19:51:52.298646
1246,0.4929,0.1908,0.8813,0.350,-16.870,3.465,425,416,380,373,412,2025-06-04T19:51:52.298646
1247,0.4924,0.1830,0.8662,-0.070,-16.345,2.905,422,426,380,361,351,2025-06-04T19:51:52.298646
1248,0.4992,0.1767,0.8599,1.190,-15.505,2.730,396,434,389,382,394,2025-06-04T19:51:52.298646
1249,0.5002,0.1742,0.8535,1.155,-14.315,2.625,413,420,385,403,412,2025-06-04T19:51:52.298646
1250,0.5046,0.1693,0.8564,1.645,-13.650,2.450,346,430,351,410,352,2025-06-04T19:51:52.298646
1251,0.5202,0.1762,0.8569,2.485,-12.705,1.890,395,408,362,412,335,2025-06-04T19:51:52.299643
1252,0.5202,0.1806,0.8638,2.170,-10.360,1.085,411,421,364,313,379,2025-06-04T19:51:52.299643
1253,0.5153,0.1947,0.8682,2.590,-8.540,0.455,401,412,379,381,407,2025-06-04T19:51:52.299643
1254,0.5148,0.1972,0.8642,1.750,-6.440,-0.315,399,394,391,397,394,2025-06-04T19:51:52.299643
1255,0.5109,0.2001,0.8633,-0.455,-5.145,-0.490,421,421,389,386,349,2025-06-04T19:51:52.299643
1256,0.5046,0.1952,0.8594,-0.490,-3.955,-0.840,401,417,382,387,374,2025-06-04T19:51:52.299643
1257,0.5026,0.1893,0.8623,-0.560,-3.255,-1.085,352,430,388,405,389,2025-06-04T19:51:52.299643
1258,0.4958,0.1796,0.8642,-0.350,-2.730,-1.295,397,414,395,409,398,2025-06-04T19:51:52.299643
1259,0.4929,0.1737,0.8682,0.035,-3.290,-1.505,403,414,352,395,346,2025-06-04T19:51:52.299643
