SeqNum,AccX,AccY,AccZ,GyroX,GyroY,GyroZ,Flex,Force1,Force2,Force3,Force4,TimestampReception
5201,-0.3963,0.7681,-0.4538,-20.580,43.365,-8.295,0.89,0.0184,0.0762,0.0501,0.0087,2025-06-11T08:57:47.245982
5202,-0.5363,1.1980,-0.5139,-15.960,19.075,27.160,0.89,0.0368,0.0762,0.0401,0.0087,2025-06-11T08:57:47.245982
5203,-1.5148,0.9311,-0.5348,-35.980,5.915,57.330,0.90,0.0368,0.0762,0.0401,0.0174,2025-06-11T08:57:47.245982
5204,-1.1873,0.7222,-0.4465,-38.710,-40.145,60.515,0.90,0.0368,0.1018,0.0300,0.0174,2025-06-11T08:57:47.245982
5205,-0.3099,0.6773,-0.2259,-35.805,-69.580,61.600,0.90,0.0184,0.0762,0.0401,0.0087,2025-06-11T08:57:47.245982
5206,-0.0288,0.6076,-0.4548,-32.375,-43.085,51.905,0.90,0.0184,0.0762,0.0300,0.0087,2025-06-11T08:57:47.245982
5207,0.1142,0.6510,-0.6998,-32.865,10.290,32.725,0.90,0.0184,0.0762,0.0401,0.0087,2025-06-11T08:57:47.245982
5208,-0.2245,0.6773,-0.5466,-28.105,8.050,28.105,0.90,0.0184,0.0762,0.0401,0.0087,2025-06-11T08:57:47.245982
5209,-0.3265,0.6686,-0.4124,-29.330,-27.860,26.985,0.90,0.0368,0.0508,0.0501,0.0087,2025-06-11T08:57:47.245982
5210,-0.3523,0.6256,-0.3948,-26.250,-71.960,29.540,0.90,0.0368,0.0508,0.0200,0.0087,2025-06-11T08:57:47.261347
5211,-0.2020,0.6832,-0.4333,-21.945,-93.590,30.625,0.90,0.0368,0.0508,0.0300,0.0087,2025-06-11T08:57:47.261347
5212,-0.0264,0.7237,-0.4172,-19.950,-84.735,31.500,0.91,0.0184,0.0508,0.0300,0.0087,2025-06-11T08:57:47.261347
5213,0.0063,0.7510,-0.4260,-15.015,-51.065,29.575,0.90,0.0368,0.0762,0.0300,0.0087,2025-06-11T08:57:47.261347
5214,-0.1049,0.7603,-0.4060,-9.520,-21.665,29.120,0.91,0.0368,0.0762,0.0300,0.0087,2025-06-11T08:57:47.261347
5215,-0.1444,0.7818,-0.3889,-8.645,7.315,25.410,0.91,0.0552,0.0762,0.0401,0.0087,2025-06-11T08:57:47.482712
5216,-0.1620,0.8067,-0.3972,-6.055,31.360,19.285,0.91,0.0368,0.0508,0.0300,0.0087,2025-06-11T08:57:47.482712
5217,0.0259,0.9858,-0.3845,-1.120,38.080,16.835,0.91,0.0368,0.0762,0.0401,0.0174,2025-06-11T08:57:47.482712
5218,0.0351,0.9321,-0.3514,5.705,38.045,13.685,0.91,0.0368,0.1018,0.0602,0.0174,2025-06-11T08:57:47.482712
5219,-0.2923,0.8242,-0.1283,-1.015,10.045,22.400,0.91,0.0184,0.0762,0.0501,0.0087,2025-06-11T08:57:47.482712
5220,-0.2591,0.7969,-0.3089,-6.720,-3.290,24.815,0.91,0.0184,0.0762,0.0602,0.0087,2025-06-11T08:57:47.482712
5221,-0.2333,0.8316,-0.2767,-1.715,-32.515,22.925,0.91,0.0184,0.0762,0.0703,0.0087,2025-06-11T08:57:47.482712
5222,-0.1220,0.9316,-0.3548,-15.890,-29.925,18.340,0.91,0.0184,0.1018,0.0703,0.0087,2025-06-11T08:57:47.482712
5223,-0.0132,0.9882,-0.4680,-16.870,-15.575,7.280,0.92,0.0184,0.0762,0.0602,0.0000,2025-06-11T08:57:47.482712
5224,-0.1440,0.9750,-0.4509,-26.040,-10.535,-0.315,0.91,0.0000,0.0762,0.0501,0.0087,2025-06-11T08:57:47.483780
5225,-0.2030,0.9209,-0.4006,-33.915,-12.425,-7.840,0.91,0.0184,0.0762,0.0501,0.0087,2025-06-11T08:57:47.483780
5226,-0.2289,0.8828,-0.3045,-33.950,-17.395,-11.410,0.91,0.0368,0.1529,0.0401,0.0087,2025-06-11T08:57:47.483780
5227,-0.1840,0.8896,-0.2157,-25.830,-18.200,-12.390,0.91,0.0368,0.1018,0.0602,0.0087,2025-06-11T08:57:47.483780
5228,-0.1157,0.8672,-0.2225,-15.890,-9.520,-9.800,0.91,0.0368,0.0762,0.0703,0.0087,2025-06-11T08:57:47.483780
5229,-0.1810,0.9038,-0.1376,-1.750,0.140,-8.855,0.91,0.0184,0.1273,0.0602,0.0087,2025-06-11T08:57:47.483780
5230,-0.1830,0.9209,-0.0854,8.610,9.205,-7.910,0.91,0.0368,0.1273,0.0602,0.0174,2025-06-11T08:57:47.878706
5231,-0.2479,0.9023,-0.1371,17.850,13.125,-5.390,0.92,0.0368,0.1273,0.0906,0.0174,2025-06-11T08:57:47.878706
5232,-0.2313,0.8769,-0.2181,20.090,15.680,-5.950,0.92,0.0368,0.1273,0.0906,0.0174,2025-06-11T08:57:47.878706
5233,-0.2425,0.8813,-0.2894,19.810,17.360,-6.790,0.91,0.0552,0.1529,0.0906,0.0087,2025-06-11T08:57:47.878706
5234,-0.1889,0.8862,-0.4782,18.165,10.570,-3.080,0.91,0.0184,0.1529,0.1212,0.0174,2025-06-11T08:57:47.878706
5235,-0.2313,0.9457,-0.4709,16.240,-4.235,-2.310,0.91,0.0368,0.1786,0.1212,0.0000,2025-06-11T08:57:47.878706
5236,-0.2435,0.9555,-0.4538,13.160,-15.190,-0.280,0.92,0.0184,0.1273,0.1416,0.0174,2025-06-11T08:57:47.878706
5237,-0.1972,0.9399,-0.3616,10.010,-17.465,-2.170,0.91,0.0184,0.1529,0.1416,0.0087,2025-06-11T08:57:47.879722
5238,-0.1835,0.8984,-0.3074,7.945,-10.150,-8.540,0.91,0.0184,0.1529,0.1622,0.0087,2025-06-11T08:57:47.879722
5239,-0.1518,0.8569,-0.2948,8.750,8.470,-18.165,0.91,0.0184,0.1018,0.1622,0.0087,2025-06-11T08:57:47.879722
5240,-0.1415,0.8067,-0.4826,10.990,-0.735,-21.665,0.90,0.0368,0.1018,0.1519,0.0087,2025-06-11T08:57:47.879722
5241,-0.2103,0.7823,-0.3270,16.065,-7.000,-22.295,0.91,0.0184,0.1273,0.1314,0.0174,2025-06-11T08:57:47.879722
5242,-0.2577,0.7979,-0.2684,23.380,-13.755,-22.050,0.91,0.0368,0.1273,0.1109,0.0087,2025-06-11T08:57:47.879722
5243,-0.2655,0.7935,-0.2250,31.360,-17.955,-21.175,0.91,0.0184,0.1273,0.1109,0.0087,2025-06-11T08:57:47.879722
5244,-0.2821,0.8101,-0.1825,37.765,-17.535,-21.280,0.91,0.0184,0.1273,0.1314,0.0174,2025-06-11T08:57:47.879722
5245,-0.2342,0.8535,-0.1742,41.125,-3.990,-24.780,0.90,0.0368,0.1273,0.1314,0.0087,2025-06-11T08:57:47.879722
5246,0.0464,0.7408,-0.6827,43.750,4.130,-22.785,0.90,0.0368,0.1273,0.1212,0.0087,2025-06-11T08:57:47.879722
5247,-0.1864,0.8120,-0.5968,42.665,12.740,-19.005,0.91,0.0184,0.1273,0.1519,0.0174,2025-06-11T08:57:47.969339
5248,-0.2767,0.8394,-0.4636,37.940,29.295,-27.825,0.91,0.0368,0.1273,0.1519,0.0087,2025-06-11T08:57:47.969339
5249,-0.3016,0.8311,-0.4856,29.295,26.215,-27.545,0.91,0.0368,0.1018,0.1519,0.0087,2025-06-11T08:57:47.969339
5250,-0.1523,0.8081,-0.4499,27.580,15.715,-36.050,0.91,0.0368,0.1273,0.1519,0.0174,2025-06-11T08:57:47.969339
5251,-0.2899,0.8013,-0.4831,23.240,17.290,-36.820,0.91,0.0368,0.1018,0.1828,0.0087,2025-06-11T08:57:47.969339
5252,-0.4851,0.7462,-0.5880,22.260,-5.110,-36.190,0.91,0.0368,0.1018,0.1519,0.0087,2025-06-11T08:57:47.969339
5253,-0.5514,0.7447,-0.5280,12.425,-32.725,-36.015,0.91,0.0368,0.1273,0.1519,0.0174,2025-06-11T08:57:47.969339
5254,-0.5456,0.8067,-0.3972,8.470,-39.235,-34.300,0.91,0.0184,0.1018,0.2035,0.0087,2025-06-11T08:57:47.969339
5255,-0.6032,0.7481,-0.4812,0.665,-45.675,-31.815,0.91,0.0368,0.1018,0.2035,0.0087,2025-06-11T08:57:47.969339
5256,-0.5436,0.6490,-0.6964,-2.870,-70.210,-22.050,0.91,0.0368,0.1018,0.1622,0.0087,2025-06-11T08:57:47.969339
5257,-0.6017,0.6852,-0.6066,0.840,-103.810,-14.175,0.91,0.0368,0.1273,0.1932,0.0174,2025-06-11T08:57:47.969339
5258,-0.5934,0.7525,-0.4475,6.545,-116.620,-14.525,0.91,0.0368,0.1273,0.2035,0.0087,2025-06-11T08:57:47.969339
5259,-0.4519,0.7535,-0.3714,12.950,-123.690,-16.800,0.91,0.0368,0.1273,0.2035,0.0000,2025-06-11T08:57:47.969339
5260,-0.3396,0.7222,-0.3694,18.060,-121.520,-20.265,0.91,0.0368,0.1273,0.1932,0.0087,2025-06-11T08:57:47.969339
5261,-0.2445,0.7027,-0.4221,20.475,-93.275,-25.235,0.91,0.0184,0.1018,0.1828,0.0174,2025-06-11T08:57:47.969339
5262,-0.3372,0.7052,-0.4314,19.530,-64.785,-33.355,0.91,0.0368,0.1273,0.1622,0.0087,2025-06-11T08:57:47.969339
5263,-0.3660,0.6808,-0.4011,18.865,-41.790,-40.810,0.91,0.0368,0.1018,0.1416,0.0087,2025-06-11T08:57:47.969339
5264,-0.4085,0.6144,-0.4758,20.510,-51.870,-39.060,0.91,0.0184,0.1018,0.1314,0.0087,2025-06-11T08:57:48.098944
5265,-0.6364,0.6720,-0.3436,24.675,-84.210,-29.820,0.91,0.0368,0.1018,0.1416,0.0087,2025-06-11T08:57:48.098944
5266,-0.7037,0.8018,-0.2645,28.245,-111.300,-28.980,0.92,0.0368,0.1018,0.1519,0.0174,2025-06-11T08:57:48.098944
5267,-0.7037,0.8896,-0.3445,30.835,-139.230,-26.705,0.92,0.0368,0.0762,0.1622,0.0174,2025-06-11T08:57:48.098944
5268,-0.6461,0.9389,-0.4841,31.675,-149.660,-23.975,0.92,0.0184,0.1018,0.1519,0.0174,2025-06-11T08:57:48.098944
5269,-0.5368,0.9716,-0.4846,32.095,-144.165,-20.580,0.92,0.0368,0.1018,0.1622,0.0174,2025-06-11T08:57:48.098944
5270,-0.3177,0.9775,-0.4290,30.450,-117.915,-16.975,0.92,0.0368,0.1018,0.1725,0.0174,2025-06-11T08:57:48.098944
5271,-0.1220,0.9550,-0.4387,26.460,-60.900,-8.400,0.92,0.0368,0.1018,0.1828,0.0174,2025-06-11T08:57:48.098944
5272,-0.0781,0.9267,-0.4943,22.890,-1.715,-1.225,0.92,0.0184,0.0762,0.1828,0.0087,2025-06-11T08:57:48.098944
5273,-0.1015,0.9311,-0.5148,17.640,69.370,3.780,0.92,0.0368,0.1018,0.1725,0.0174,2025-06-11T08:57:48.098944
5274,-0.2484,0.9204,-0.4948,11.935,110.810,6.230,0.92,0.0368,0.1018,0.1725,0.0174,2025-06-11T08:57:48.100012
5275,-0.4582,0.8989,-0.4763,6.055,127.435,8.715,0.92,0.0368,0.1018,0.1828,0.0174,2025-06-11T08:57:48.100012
5276,-0.5632,0.8618,-0.4582,0.525,115.745,10.990,0.92,0.0368,0.1018,0.1725,0.0087,2025-06-11T08:57:48.283635
5277,-0.6163,0.8325,-0.4290,-4.235,86.975,11.795,0.92,0.0368,0.1018,0.1828,0.0087,2025-06-11T08:57:48.283635
5278,-0.6290,0.8203,-0.4182,-9.275,59.150,10.920,0.92,0.0552,0.1018,0.1828,0.0174,2025-06-11T08:57:48.283635
5279,-0.5666,0.8320,-0.4275,-12.320,31.990,9.205,0.92,0.0184,0.1018,0.2035,0.0087,2025-06-11T08:57:48.283635
5280,-0.5070,0.8169,-0.4699,-15.785,5.180,8.295,0.92,0.0184,0.1018,0.2035,0.0087,2025-06-11T08:57:48.283635
5281,-0.4412,0.7910,-0.4934,-18.690,-10.640,8.085,0.92,0.0368,0.0762,0.1725,0.0087,2025-06-11T08:57:48.283635
5282,-0.3884,0.7823,-0.4812,-21.770,-21.840,8.365,0.92,0.0184,0.0762,0.1622,0.0087,2025-06-11T08:57:48.283635
5283,-0.3392,0.7779,-0.4519,-24.080,-21.770,7.525,0.92,0.0184,0.1018,0.1725,0.0087,2025-06-11T08:57:48.283635
5284,-0.2250,0.7803,-0.4660,-25.795,-6.370,4.550,0.92,0.0184,0.0762,0.1622,0.0174,2025-06-11T08:57:48.283635
5285,-0.1864,0.7930,-0.4841,-26.285,15.960,1.190,0.92,0.0184,0.1018,0.1725,0.0087,2025-06-11T08:57:48.284701
5286,-0.2040,0.8262,-0.4490,-25.935,42.980,-2.170,0.92,0.0368,0.1018,0.2035,0.0087,2025-06-11T08:57:48.284701
5287,-0.2821,0.8340,-0.4158,-26.635,55.930,-2.975,0.92,0.0184,0.1018,0.2035,0.0087,2025-06-11T08:57:48.284701
5288,-0.4109,0.8379,-0.4221,-27.020,45.360,-0.350,0.92,0.0368,0.1018,0.1932,0.0087,2025-06-11T08:57:48.284701
5289,-0.5031,0.8374,-0.3963,-27.580,40.180,2.275,0.92,0.0368,0.1018,0.1932,0.0087,2025-06-11T08:57:48.284701
5290,-0.4934,0.8662,-0.3738,-28.560,27.930,4.970,0.92,0.0368,0.1529,0.1932,0.0174,2025-06-11T08:57:48.333906
5291,-0.4695,0.8652,-0.3797,-29.995,20.300,6.825,0.92,0.0184,0.1273,0.1932,0.0174,2025-06-11T08:57:48.333906
5292,-0.4407,0.8506,-0.3933,-31.325,17.710,9.730,0.92,0.0368,0.1273,0.2035,0.0174,2025-06-11T08:57:48.333906
5293,-0.4226,0.8496,-0.3860,-33.600,17.465,11.480,0.92,0.0184,0.1018,0.2035,0.0174,2025-06-11T08:57:48.490952
5294,-0.4041,0.8516,-0.3943,-35.560,19.110,13.300,0.92,0.0368,0.1273,0.2035,0.0087,2025-06-11T08:57:48.490952
5295,-0.4309,0.8574,-0.3904,-36.225,20.720,12.880,0.92,0.0368,0.1273,0.2035,0.0174,2025-06-11T08:57:48.490952
5296,-0.4924,0.8638,-0.4046,-36.155,20.265,9.940,0.92,0.0368,0.1273,0.2035,0.0174,2025-06-11T08:57:48.490952
5297,-0.5290,0.8769,-0.4368,-34.720,16.660,7.420,0.92,0.0368,0.1018,0.1932,0.0087,2025-06-11T08:57:48.490952
5298,-0.5231,0.8862,-0.4519,-33.320,6.860,9.100,0.92,0.0184,0.1018,0.1828,0.0174,2025-06-11T08:57:48.490952
5299,-0.5329,0.8852,-0.4241,-31.885,-1.645,11.690,0.92,0.0184,0.1018,0.1828,0.0174,2025-06-11T08:57:48.491952
5300,-0.4978,0.8755,-0.4241,-31.220,-6.895,13.510,0.92,0.0184,0.1018,0.1828,0.0087,2025-06-11T08:57:48.491952
5301,-0.4558,0.8628,-0.4226,-30.625,-9.135,14.420,0.92,0.0368,0.1018,0.1622,0.0087,2025-06-11T08:57:48.491952
5302,-0.4246,0.8530,-0.3670,-30.135,-7.700,14.350,0.92,0.0184,0.1018,0.1725,0.0174,2025-06-11T08:57:48.491952
5303,-0.3904,0.8330,-0.3338,-30.310,-3.290,13.195,0.92,0.0184,0.0762,0.1828,0.0174,2025-06-11T08:57:48.491952
5304,-0.3675,0.7964,-0.3470,-29.995,-0.630,11.725,0.92,0.0184,0.0762,0.1622,0.0087,2025-06-11T08:57:48.491952
5305,-0.3938,0.7745,-0.3416,-29.540,2.170,9.485,0.93,0.0552,0.1018,0.1622,0.0087,2025-06-11T08:57:48.747755
5306,-0.4021,0.7681,-0.3152,-29.155,2.555,7.105,0.92,0.0368,0.1018,0.1622,0.0087,2025-06-11T08:57:48.747755
5307,-0.4260,0.7662,-0.2845,-28.385,-3.360,7.070,0.92,0.0368,0.1018,0.1622,0.0087,2025-06-11T08:57:48.747755
5308,-0.4543,0.7618,-0.2660,-27.230,-10.675,7.455,0.93,0.0368,0.1273,0.1725,0.0087,2025-06-11T08:57:48.747755
5309,-0.4597,0.7559,-0.2894,-25.305,-18.060,7.980,0.93,0.0368,0.1273,0.1725,0.0087,2025-06-11T08:57:48.747755
5310,-0.4631,0.7603,-0.3118,-22.120,-27.160,9.100,0.92,0.0184,0.1018,0.1519,0.0174,2025-06-11T08:57:48.748782
5311,-0.4675,0.7725,-0.3265,-20.510,-33.075,9.415,0.92,0.0184,0.1018,0.1725,0.0087,2025-06-11T08:57:48.748782
5312,-0.4519,0.7935,-0.3143,-19.915,-37.870,8.505,0.92,0.0368,0.1018,0.1828,0.0174,2025-06-11T08:57:48.748782
5313,-0.4304,0.8252,-0.3050,-20.055,-37.520,5.635,0.93,0.0184,0.1018,0.1725,0.0087,2025-06-11T08:57:48.748782
5314,-0.4099,0.8545,-0.3016,-19.145,-34.720,2.310,0.93,0.0184,0.1273,0.1725,0.0087,2025-06-11T08:57:48.748782
5315,-0.4041,0.8833,-0.3104,-16.135,-33.460,1.015,0.93,0.0368,0.1273,0.1725,0.0174,2025-06-11T08:57:48.748782
5316,-0.3777,0.8808,-0.3333,-12.915,-34.580,1.960,0.93,0.0184,0.1273,0.1725,0.0174,2025-06-11T08:57:48.748782
5317,-0.3694,0.8579,-0.3157,-8.190,-35.140,3.780,0.93,0.0368,0.1273,0.1725,0.0087,2025-06-11T08:57:48.749779
5318,-0.3616,0.8037,-0.3235,-4.935,-32.515,4.270,0.93,0.0184,0.1018,0.1828,0.0087,2025-06-11T08:57:48.749779
5319,-0.3240,0.7720,-0.3192,-2.555,-28.525,5.355,0.92,0.0368,0.1018,0.1828,0.0174,2025-06-11T08:57:48.749779
5320,-0.2899,0.7427,-0.3055,-1.540,-24.255,8.120,0.93,0.0184,0.1018,0.1828,0.0174,2025-06-11T08:57:48.749779
5321,-0.2757,0.7505,-0.3182,-1.260,-14.805,9.695,0.93,0.0368,0.1018,0.1932,0.0174,2025-06-11T08:57:48.749779
5322,-0.2830,0.7618,-0.3323,-2.240,-7.910,10.780,0.92,0.0368,0.1018,0.1932,0.0174,2025-06-11T08:57:48.901797
5323,-0.2933,0.7784,-0.3035,-3.325,-5.705,13.405,0.93,0.0184,0.1018,0.1828,0.0174,2025-06-11T08:57:48.901797
5324,-0.2972,0.7808,-0.2855,-3.745,-7.805,16.485,0.93,0.0368,0.1018,0.1828,0.0174,2025-06-11T08:57:48.901797
5325,-0.2967,0.7857,-0.2830,-3.255,-10.255,19.320,0.92,0.0184,0.1273,0.1828,0.0087,2025-06-11T08:57:48.901797
5326,-0.2528,0.7964,-0.2635,-2.065,-9.065,20.405,0.93,0.0368,0.1018,0.1828,0.0087,2025-06-11T08:57:48.901797
5327,-0.2240,0.8154,-0.2425,-1.050,-3.115,21.280,0.93,0.0184,0.1018,0.1932,0.0087,2025-06-11T08:57:48.901797
5328,-0.2240,0.8325,-0.2381,-0.630,5.110,20.615,0.93,0.0368,0.1018,0.1725,0.0087,2025-06-11T08:57:48.901797
5329,-0.2547,0.8496,-0.2289,-1.225,12.495,18.795,0.92,0.0184,0.1018,0.1725,0.0087,2025-06-11T08:57:48.901797
5330,-0.2850,0.8623,-0.2064,-2.555,17.605,17.150,0.92,0.0184,0.1018,0.1725,0.0087,2025-06-11T08:57:48.901797
5331,-0.3348,0.8725,-0.2172,-3.115,18.025,15.155,0.93,0.0184,0.1273,0.1519,0.0087,2025-06-11T08:57:48.902862
5332,-0.3802,0.8833,-0.2157,-2.765,12.355,12.495,0.92,0.0184,0.0762,0.1725,0.0087,2025-06-11T08:57:48.902862
5333,-0.3562,0.9008,-0.2098,-1.820,5.600,10.990,0.92,0.0184,0.1018,0.1725,0.0087,2025-06-11T08:57:48.902862
5334,-0.3270,0.9082,-0.2030,-0.595,3.185,8.855,0.92,0.0184,0.1018,0.1725,0.0087,2025-06-11T08:57:48.902862
5335,-0.3026,0.9106,-0.2074,-0.455,5.530,6.405,0.93,0.0368,0.1018,0.1725,0.0174,2025-06-11T08:57:49.228410
5336,-0.2845,0.9082,-0.2118,-0.525,9.765,2.975,0.92,0.0368,0.1018,0.1622,0.0087,2025-06-11T08:57:49.228410
5337,-0.2899,0.9150,-0.2162,-0.770,17.185,0.280,0.93,0.0368,0.1018,0.1725,0.0087,2025-06-11T08:57:49.228410
5338,-0.3318,0.9101,-0.2494,-0.420,21.560,-1.750,0.93,0.0368,0.1018,0.1622,0.0087,2025-06-11T08:57:49.228410
5339,-0.3767,0.9033,-0.2625,0.280,19.565,-2.905,0.93,0.0184,0.1018,0.1622,0.0174,2025-06-11T08:57:49.228410
5340,-0.3967,0.8921,-0.2689,1.365,13.615,-2.590,0.93,0.0184,0.1018,0.1622,0.0087,2025-06-11T08:57:49.229221
5341,-0.3982,0.8750,-0.2591,2.135,7.490,-1.540,0.93,0.0368,0.1018,0.1622,0.0087,2025-06-11T08:57:49.229221
5342,-0.3933,0.8633,-0.3748,2.590,0.280,-0.350,0.93,0.0184,0.1018,0.1622,0.0087,2025-06-11T08:57:49.229221
5343,-0.3597,0.8428,-0.2762,3.255,-3.185,0.735,0.93,0.0368,0.1018,0.1725,0.0087,2025-06-11T08:57:49.229221
5344,-0.3167,0.8311,-0.2928,4.620,-0.210,1.330,0.93,0.0184,0.1018,0.1622,0.0087,2025-06-11T08:57:49.229221
5345,-0.2948,0.8198,-0.3177,7.070,6.335,1.715,0.93,0.0368,0.1018,0.1622,0.0174,2025-06-11T08:57:49.229221
5346,-0.2855,0.8125,-0.3216,9.450,14.035,2.870,0.93,0.0184,0.0762,0.1725,0.0087,2025-06-11T08:57:49.229221
5347,-0.3187,0.8125,-0.3157,11.305,17.955,3.885,0.92,0.0368,0.1018,0.1725,0.0087,2025-06-11T08:57:49.229221
5348,-0.3587,0.8179,-0.3065,11.445,16.870,5.110,0.92,0.0184,0.1018,0.1725,0.0087,2025-06-11T08:57:49.230218
5349,-0.3792,0.8301,-0.2928,11.130,9.695,6.195,0.92,0.0368,0.1018,0.1725,0.0087,2025-06-11T08:57:49.231216
5350,-0.3738,0.8447,-0.2874,10.290,3.710,6.265,0.93,0.0368,0.1018,0.1725,0.0087,2025-06-11T08:57:49.231216
5351,-0.3523,0.8481,-0.2987,9.835,-0.350,6.090,0.93,0.0368,0.1018,0.1725,0.0174,2025-06-11T08:57:49.231216
5352,-0.3445,0.8442,-0.2972,9.940,-1.330,5.600,0.92,0.0368,0.1018,0.1725,0.0087,2025-06-11T08:57:49.326538
5353,-0.3450,0.8413,-0.3001,10.605,-0.350,4.655,0.92,0.0184,0.1018,0.1725,0.0174,2025-06-11T08:57:49.326538
5354,-0.3436,0.8350,-0.3196,11.865,1.785,4.550,0.92,0.0368,0.1018,0.1725,0.0174,2025-06-11T08:57:49.326538
5355,-0.3431,0.8311,-0.3133,13.195,5.670,4.165,0.92,0.0368,0.0762,0.1725,0.0174,2025-06-11T08:57:49.326538
5356,-0.3460,0.8477,-0.2899,12.600,9.905,3.150,0.93,0.0368,0.1018,0.1725,0.0174,2025-06-11T08:57:49.326538
5357,-0.3782,0.8608,-0.2679,11.130,11.900,1.295,0.93,0.0368,0.1018,0.1622,0.0087,2025-06-11T08:57:49.326538
5358,-0.4226,0.8574,-0.2752,9.310,7.455,-0.280,0.92,0.0368,0.1273,0.1725,0.0087,2025-06-11T08:57:49.326538
5359,-0.4587,0.8491,-0.2879,7.735,-1.435,-3.010,0.92,0.0184,0.1018,0.1828,0.0087,2025-06-11T08:57:49.342391
5360,-0.4402,0.8447,-0.2957,6.685,-12.285,-5.355,0.92,0.0368,0.1018,0.1725,0.0087,2025-06-11T08:57:49.342756
5361,-0.4109,0.8491,-0.3070,6.475,-18.585,-7.420,0.92,0.0368,0.1018,0.1828,0.0087,2025-06-11T08:57:49.342756
5362,-0.3597,0.8462,-0.3265,7.140,-21.350,-8.785,0.93,0.0368,0.1273,0.1622,0.0087,2025-06-11T08:57:49.342756
5363,-0.3289,0.8330,-0.3421,8.505,-19.600,-9.170,0.92,0.0368,0.1018,0.1622,0.0174,2025-06-11T08:57:49.342756
5364,-0.2962,0.8184,-0.3406,9.975,-13.860,-7.665,0.92,0.0184,0.1018,0.1622,0.0174,2025-06-11T08:57:49.342756
5365,-0.2933,0.8096,-0.3533,12.215,-9.520,-4.935,0.92,0.0184,0.1018,0.1519,0.0087,2025-06-11T08:57:49.342756
5366,-0.3128,0.8115,-0.3460,13.265,-6.860,-1.295,0.92,0.0368,0.1273,0.1725,0.0174,2025-06-11T08:57:49.342756
5367,-0.3226,0.8169,-0.3387,12.880,-5.915,1.365,0.92,0.0184,0.1018,0.1725,0.0087,2025-06-11T08:57:49.514945
5368,-0.3343,0.8267,-0.3192,12.285,-7.490,4.025,0.92,0.0368,0.1273,0.1725,0.0174,2025-06-11T08:57:49.514945
5369,-0.3362,0.8369,-0.3328,11.935,-9.590,5.390,0.92,0.0368,0.1018,0.1725,0.0087,2025-06-11T08:57:49.514945
5370,-0.3353,0.8584,-0.3372,12.635,-11.550,6.860,0.92,0.0368,0.1273,0.1725,0.0174,2025-06-11T08:57:49.514945
5371,-0.3401,0.8994,-0.3279,12.495,-10.395,7.840,0.92,0.0368,0.1273,0.1725,0.0174,2025-06-11T08:57:49.514945
5372,-0.3060,0.8808,-0.3143,15.295,-6.475,7.910,0.92,0.0368,0.1273,0.1932,0.0174,2025-06-11T08:57:49.514945
5373,-0.3226,0.8979,-0.3221,15.645,-2.100,8.085,0.92,0.0184,0.1018,0.1828,0.0087,2025-06-11T08:57:49.514945
5374,-0.3431,0.9121,-0.3274,14.420,0.490,7.980,0.92,0.0368,0.1273,0.1932,0.0174,2025-06-11T08:57:49.516011
5375,-0.3723,0.9228,-0.3250,12.180,0.000,8.120,0.92,0.0184,0.1018,0.1828,0.0087,2025-06-11T08:57:49.516011
5376,-0.4002,0.9267,-0.3455,10.395,-3.570,7.980,0.92,0.0368,0.1018,0.1828,0.0087,2025-06-11T08:57:49.516011
5377,-0.4099,0.9423,-0.3572,8.190,-10.220,8.190,0.92,0.0184,0.1273,0.1828,0.0087,2025-06-11T08:57:49.516011
5378,-0.3831,0.9506,-0.3640,5.915,-14.665,8.470,0.92,0.0368,0.1018,0.2035,0.0087,2025-06-11T08:57:49.516011
5379,-0.3655,0.9565,-0.3387,4.025,-15.890,8.330,0.92,0.0184,0.1018,0.2139,0.0087,2025-06-11T08:57:49.516011
5380,-0.3601,0.9618,-0.3309,0.805,-14.910,7.490,0.92,0.0368,0.1018,0.1932,0.0087,2025-06-11T08:57:49.516011
5381,-0.3680,0.9609,-0.3118,-2.695,-15.120,6.300,0.92,0.0368,0.1273,0.1932,0.0174,2025-06-11T08:57:49.722182
5382,-0.3733,0.9594,-0.3045,-6.545,-16.380,5.740,0.92,0.0184,0.1273,0.1828,0.0174,2025-06-11T08:57:49.723197
5383,-0.3714,0.9496,-0.3001,-8.855,-17.395,6.055,0.93,0.0368,0.1529,0.1932,0.0087,2025-06-11T08:57:49.723197
5384,-0.3728,0.9404,-0.3070,-10.640,-18.725,7.280,0.93,0.0368,0.1273,0.1932,0.0087,2025-06-11T08:57:49.723197
5385,-0.3709,0.9194,-0.3026,-11.900,-20.370,8.890,0.92,0.0368,0.1018,0.2035,0.0174,2025-06-11T08:57:49.723197
5386,-0.3597,0.8911,-0.2933,-12.600,-22.295,10.885,0.92,0.0184,0.1273,0.1932,0.0174,2025-06-11T08:57:49.723197
5387,-0.3494,0.8755,-0.3045,-13.265,-24.605,12.180,0.92,0.0184,0.1018,0.1932,0.0174,2025-06-11T08:57:49.723197
5388,-0.3343,0.8730,-0.3021,-12.880,-27.370,12.460,0.92,0.0368,0.1018,0.1828,0.0087,2025-06-11T08:57:49.723197
5389,-0.3148,0.8779,-0.3016,-12.145,-28.840,11.480,0.92,0.0368,0.0762,0.1828,0.0087,2025-06-11T08:57:49.723197
5390,-0.2884,0.8750,-0.3070,-10.955,-29.680,9.730,0.92,0.0368,0.1018,0.1828,0.0174,2025-06-11T08:57:49.723197
5391,-0.2616,0.8799,-0.2933,-9.485,-29.120,7.770,0.92,0.0368,0.0762,0.1828,0.0087,2025-06-11T08:57:49.723197
5392,-0.2372,0.8945,-0.2718,-8.715,-27.300,4.620,0.92,0.0368,0.1018,0.1932,0.0087,2025-06-11T08:57:49.723197
5393,-0.2269,0.9077,-0.2664,-8.225,-25.725,2.660,0.92,0.0368,0.1018,0.1932,0.0087,2025-06-11T08:57:49.724189
5394,-0.2181,0.9374,-0.2435,-7.805,-24.955,1.225,0.92,0.0184,0.1018,0.1828,0.0087,2025-06-11T08:57:49.724189
5395,-0.2098,0.9594,-0.2416,-7.455,-23.170,0.560,0.92,0.0368,0.1018,0.1932,0.0087,2025-06-11T08:57:49.724189
5396,-0.2142,0.9882,-0.2499,-7.770,-21.525,0.805,0.92,0.0552,0.1273,0.1828,0.0174,2025-06-11T08:57:49.929566
5397,-0.1913,1.0448,-0.2479,-10.045,-18.375,1.470,0.92,0.0368,0.1018,0.2035,0.0174,2025-06-11T08:57:49.929566
5398,-0.1810,1.0960,-0.2250,-14.945,-12.775,0.700,0.92,0.0184,0.1018,0.2035,0.0087,2025-06-11T08:57:49.929566
5399,-0.1776,1.1151,-0.2420,-19.775,-6.020,-0.665,0.93,0.0368,0.1018,0.2035,0.0087,2025-06-11T08:57:49.929566
5400,-0.2069,1.1126,-0.2533,-25.165,-1.645,-1.925,0.92,0.0184,0.1018,0.1932,0.0087,2025-06-11T08:57:49.929566
5401,-0.2377,1.1058,-0.2338,-29.820,-0.665,-4.235,0.92,0.0368,0.1018,0.2139,0.0087,2025-06-11T08:57:50.184384
5402,-0.2796,1.0980,-0.2157,-35.630,-2.905,-5.950,0.93,0.0368,0.1018,0.2035,0.0087,2025-06-11T08:57:50.184384
5403,-0.3377,1.0804,-0.2147,-40.075,-9.450,-7.140,0.92,0.0368,0.0762,0.2035,0.0087,2025-06-11T08:57:50.184384
5404,-0.4177,1.0575,-0.2220,-43.225,-24.010,-6.895,0.93,0.0368,0.1018,0.1932,0.0174,2025-06-11T08:57:50.184384
5405,-0.4280,1.0453,-0.2162,-45.955,-36.505,-5.530,0.93,0.0368,0.0762,0.1932,0.0087,2025-06-11T08:57:50.184384
5406,-0.3753,1.0238,-0.2211,-47.390,-44.940,-1.995,0.92,0.0368,0.0762,0.1932,0.0174,2025-06-11T08:57:50.184384
5407,-0.3216,0.9955,-0.2157,-48.615,-44.450,1.680,0.92,0.0368,0.1018,0.1932,0.0087,2025-06-11T08:57:50.184384
5408,-0.2733,0.9638,-0.1972,-49.035,-38.710,5.915,0.92,0.0368,0.1018,0.1932,0.0087,2025-06-11T08:57:50.184384
5409,-0.2508,0.9389,-0.1869,-48.615,-29.295,9.660,0.92,0.0368,0.1018,0.1932,0.0087,2025-06-11T08:57:50.184384
5410,-0.2513,0.9013,-0.1942,-46.900,-22.575,13.510,0.92,0.0184,0.1018,0.1932,0.0174,2025-06-11T08:57:50.184384
5411,-0.2664,0.8691,-0.1903,-43.750,-17.675,17.010,0.92,0.0552,0.1018,0.1932,0.0087,2025-06-11T08:57:50.184384
5412,-0.2860,0.8174,-0.1908,-39.690,-16.415,19.880,0.93,0.0368,0.1018,0.1828,0.0174,2025-06-11T08:57:50.184384
5413,-0.2996,0.7788,-0.1669,-34.370,-17.535,21.770,0.92,0.0368,0.1018,0.1828,0.0174,2025-06-11T08:57:50.184384
5414,-0.3177,0.7281,-0.1362,-29.190,-20.825,24.115,0.93,0.0368,0.1018,0.1932,0.0174,2025-06-11T08:57:50.184384
5415,-0.3270,0.6798,-0.1430,-23.065,-26.460,26.460,0.93,0.0368,0.1018,0.1828,0.0174,2025-06-11T08:57:50.184384
5416,-0.2786,0.7061,-0.0966,-19.495,-31.255,29.295,0.92,0.0368,0.0762,0.1932,0.0087,2025-06-11T08:57:50.184384
5417,-0.0483,0.9409,-0.0093,-19.880,-23.205,18.410,0.93,0.0368,0.1018,0.1828,0.0087,2025-06-11T08:57:50.184384
5418,-0.2596,0.7540,-0.0717,-10.010,-30.590,5.425,0.93,0.0368,0.1018,0.1828,0.0087,2025-06-11T08:57:50.184384
5419,-0.1191,0.7281,-0.1142,-15.925,-23.975,-8.190,0.93,0.0368,0.1018,0.1932,0.0087,2025-06-11T08:57:50.184384
5420,-0.2582,0.7027,-0.1269,-11.305,-22.435,-11.550,0.92,0.0368,0.1018,0.1828,0.0174,2025-06-11T08:57:50.184384
5421,-0.2211,0.5949,-0.1425,3.605,-29.015,0.980,0.92,0.0368,0.0762,0.1725,0.0174,2025-06-11T08:57:50.184384
5422,-0.1142,0.5588,-0.1742,13.160,-31.395,15.470,0.92,0.0184,0.1018,0.1622,0.0087,2025-06-11T08:57:50.184384
5423,-0.0698,0.5246,-0.1889,24.675,-25.760,29.085,0.92,0.0368,0.0762,0.1622,0.0087,2025-06-11T08:57:50.184384
5424,-0.0264,0.5134,-0.1996,35.560,-12.460,37.450,0.92,0.0368,0.1018,0.1622,0.0087,2025-06-11T08:57:50.184384
5425,-0.0590,0.5500,-0.1508,43.190,0.525,41.650,0.92,0.0368,0.0762,0.1622,0.0087,2025-06-11T08:57:50.184384
5426,-0.1723,0.5470,-0.1532,49.840,10.045,38.745,0.92,0.0368,0.1018,0.1519,0.0174,2025-06-11T08:57:50.184384
5427,-0.2455,0.6583,-0.0752,52.465,6.195,33.145,0.93,0.0368,0.0762,0.1622,0.0174,2025-06-11T08:57:50.184384
5428,-0.2123,0.7867,-0.0439,51.275,-3.850,29.820,0.92,0.0368,0.0762,0.1519,0.0174,2025-06-11T08:57:50.331447
5429,-0.2489,0.9043,-0.1113,49.875,-14.105,26.915,0.92,0.0552,0.0762,0.1725,0.0174,2025-06-11T08:57:50.331447
5430,-0.2830,0.9902,-0.1464,45.990,-29.295,26.005,0.92,0.0368,0.0762,0.1828,0.0087,2025-06-11T08:57:50.331447
5431,-0.1283,1.0551,-0.1762,43.190,-42.980,27.300,0.92,0.0184,0.0762,0.1932,0.0174,2025-06-11T08:57:50.331447
5432,-0.1401,1.1161,-0.1620,36.645,-45.325,28.280,0.92,0.0552,0.1018,0.1828,0.0174,2025-06-11T08:57:50.331447
5433,-0.1074,1.1692,-0.2137,34.125,-34.090,27.860,0.92,0.0184,0.0762,0.1828,0.0174,2025-06-11T08:57:50.331447
5434,0.0044,1.2034,-0.2396,30.345,-8.505,28.315,0.92,0.0368,0.0762,0.1828,0.0087,2025-06-11T08:57:50.331447
5435,-0.1147,1.2664,-0.1742,25.340,11.725,23.485,0.92,0.0368,0.0762,0.1828,0.0087,2025-06-11T08:57:50.331447
5436,-0.2645,1.2927,-0.1581,23.905,23.485,21.315,0.92,0.0368,0.0762,0.1932,0.0087,2025-06-11T08:57:50.331447
5437,-0.3079,1.3161,-0.1771,21.175,16.275,25.200,0.92,0.0368,0.0762,0.1828,0.0087,2025-06-11T08:57:50.331447
5438,-0.4343,1.2234,-0.0986,15.750,-0.035,25.830,0.92,0.0368,0.1018,0.1932,0.0087,2025-06-11T08:57:50.332509
5439,-0.4050,1.2488,-0.1732,20.475,-22.925,22.995,0.92,0.0368,0.0762,0.1828,0.0087,2025-06-11T08:57:50.332509
5440,-0.2830,1.2156,-0.0517,6.930,-38.395,20.125,0.92,0.0368,0.1273,0.1932,0.0174,2025-06-11T08:57:50.332509
5441,-0.2245,1.1014,-0.1513,11.830,-34.685,14.315,0.93,0.0552,0.1018,0.2035,0.0174,2025-06-11T08:57:50.634518
5442,-0.1313,1.0419,-0.2435,7.630,-25.795,11.375,0.92,0.0368,0.1018,0.2035,0.0174,2025-06-11T08:57:50.634518
5443,-0.0742,1.0053,-0.2147,2.870,-15.925,8.330,0.92,0.0184,0.1018,0.2035,0.0087,2025-06-11T08:57:50.635050
5444,-0.0542,0.9531,-0.2113,0.105,0.000,2.345,0.93,0.0368,0.1018,0.1932,0.0087,2025-06-11T08:57:50.635050
5445,-0.0644,0.9165,-0.2259,-1.260,12.495,-2.765,0.92,0.0368,0.1018,0.2035,0.0174,2025-06-11T08:57:50.635050
5446,-0.1274,0.8804,-0.2328,-2.905,8.610,-5.320,0.92,0.0368,0.1018,0.2035,0.0174,2025-06-11T08:57:50.635050
5447,-0.1728,0.8535,-0.2460,-2.940,-0.140,-7.245,0.93,0.0368,0.0762,0.1932,0.0087,2025-06-11T08:57:50.635050
5448,-0.1410,0.8501,-0.2367,-1.330,-8.575,-8.365,0.92,0.0368,0.1018,0.1932,0.0087,2025-06-11T08:57:50.635050
5449,-0.1069,0.8364,-0.2499,-0.315,-12.600,-9.380,0.92,0.0368,0.0762,0.1932,0.0087,2025-06-11T08:57:50.635050
5450,-0.1279,0.8257,-0.2660,2.170,-14.315,-10.850,0.92,0.0368,0.1018,0.1932,0.0087,2025-06-11T08:57:50.635050
5451,-0.0942,0.8350,-0.2669,1.470,-10.780,-10.675,0.92,0.0368,0.1018,0.1932,0.0087,2025-06-11T08:57:50.635050
5452,-0.0669,0.8398,-0.2572,3.990,-7.525,-9.625,0.92,0.0368,0.1018,0.2035,0.0087,2025-06-11T08:57:50.635050
5453,-0.0864,0.8394,-0.3118,5.985,-3.010,-9.170,0.93,0.0368,0.0762,0.1725,0.0087,2025-06-11T08:57:50.635050
5454,-0.1098,0.8511,-0.2074,2.730,3.990,-5.215,0.92,0.0368,0.0762,0.1828,0.0174,2025-06-11T08:57:50.635050
5455,-0.0107,0.8823,-0.2489,11.130,14.315,-4.060,0.92,0.0368,0.0762,0.1828,0.0087,2025-06-11T08:57:50.635050
5456,-0.1825,0.8872,-0.2294,11.410,19.600,-5.530,0.92,0.0368,0.0762,0.1932,0.0087,2025-06-11T08:57:50.635050
5457,-0.2235,0.9331,-0.1879,9.100,18.375,-6.265,0.93,0.0368,0.1018,0.1932,0.0174,2025-06-11T08:57:50.635050
5458,-0.2069,0.9536,-0.1801,9.660,16.835,-6.195,0.93,0.0368,0.0762,0.1932,0.0174,2025-06-11T08:57:50.840587
5459,-0.2342,0.9765,-0.1913,7.595,15.050,-8.330,0.93,0.0368,0.1018,0.1932,0.0174,2025-06-11T08:57:50.840587
5460,-0.2479,0.9877,-0.2123,4.935,10.290,-9.975,0.93,0.0368,0.1018,0.2035,0.0174,2025-06-11T08:57:50.840587
5461,-0.2318,0.9960,-0.2079,4.585,6.790,-12.040,0.92,0.0368,0.1018,0.2035,0.0174,2025-06-11T08:57:50.840587
5462,-0.2001,0.9989,-0.2064,3.990,6.615,-14.315,0.93,0.0368,0.1273,0.2035,0.0174,2025-06-11T08:57:50.840587
5463,-0.1864,0.9955,-0.2318,3.710,7.595,-15.960,0.93,0.0552,0.1018,0.2035,0.0174,2025-06-11T08:57:50.841534
5464,-0.1840,0.9897,-0.2464,4.375,11.130,-17.360,0.92,0.0368,0.1273,0.1932,0.0174,2025-06-11T08:57:50.841534
5465,-0.1898,0.9877,-0.2342,4.655,14.350,-18.515,0.93,0.0368,0.1018,0.2035,0.0174,2025-06-11T08:57:50.841534
5466,-0.2079,0.9780,-0.2381,4.550,15.890,-18.620,0.92,0.0368,0.1018,0.1932,0.0174,2025-06-11T08:57:50.841534
5467,-0.2220,0.9736,-0.2377,3.640,15.330,-17.780,0.93,0.0368,0.1018,0.1932,0.0174,2025-06-11T08:57:50.841534
5468,-0.2396,0.9682,-0.2445,1.680,13.020,-16.030,0.93,0.0184,0.1018,0.1932,0.0087,2025-06-11T08:57:50.841534
5469,-0.2401,0.9599,-0.2508,-0.595,9.310,-13.370,0.93,0.0368,0.1018,0.2035,0.0087,2025-06-11T08:57:50.841534
5470,-0.2469,0.9477,-0.2596,-2.345,5.390,-8.750,0.92,0.0368,0.1018,0.2035,0.0174,2025-06-11T08:57:50.841534
5471,-0.2479,0.9379,-0.2611,-3.780,1.120,-5.075,0.93,0.0368,0.1018,0.1932,0.0087,2025-06-11T08:57:50.841534
5472,-0.2245,0.9272,-0.2508,-5.005,-1.435,-0.630,0.93,0.0368,0.1273,0.2035,0.0087,2025-06-11T08:57:50.841534
5473,-0.1776,0.9150,-0.2630,-5.565,-0.140,3.150,0.93,0.0368,0.1018,0.2035,0.0174,2025-06-11T08:57:50.841534
5474,-0.1723,0.9013,-0.2635,-5.250,3.675,6.685,0.93,0.0552,0.1018,0.2035,0.0087,2025-06-11T08:57:50.841534
5475,-0.1728,0.8901,-0.2616,-4.970,8.820,8.890,0.93,0.0368,0.1018,0.1932,0.0174,2025-06-11T08:57:51.174040
5476,-0.1830,0.8867,-0.2455,-4.620,11.235,9.870,0.93,0.0368,0.1018,0.2035,0.0174,2025-06-11T08:57:51.174040
5477,-0.2103,0.8823,-0.2435,-4.165,12.040,10.045,0.93,0.0184,0.1273,0.2035,0.0087,2025-06-11T08:57:51.174040
5478,-0.2230,0.8735,-0.2557,-3.465,10.360,9.275,0.93,0.0368,0.1018,0.2035,0.0174,2025-06-11T08:57:51.175042
5479,-0.2318,0.8794,-0.2474,-2.730,6.825,8.015,0.93,0.0368,0.1018,0.2035,0.0087,2025-06-11T08:57:51.175042
5480,-0.2303,0.8872,-0.2406,-2.170,4.585,6.265,0.93,0.0368,0.1018,0.2139,0.0087,2025-06-11T08:57:51.175042
5481,-0.2220,0.8940,-0.2396,-1.435,3.290,3.430,0.93,0.0368,0.1018,0.2035,0.0087,2025-06-11T08:57:51.175042
5482,-0.2069,0.9111,-0.2303,-0.560,3.885,0.385,0.93,0.0368,0.1018,0.1932,0.0087,2025-06-11T08:57:51.175042
5483,-0.2035,0.9277,-0.2245,0.210,5.215,-2.660,0.92,0.0368,0.1018,0.2035,0.0087,2025-06-11T08:57:51.175042
5484,-0.2108,0.9394,-0.2284,0.875,6.125,-6.440,0.93,0.0368,0.0762,0.2139,0.0087,2025-06-11T08:57:51.175042
5485,-0.2152,0.9506,-0.2269,1.610,5.215,-8.995,0.93,0.0368,0.1018,0.2035,0.0087,2025-06-11T08:57:51.175042
5486,-0.2235,0.9506,-0.2430,2.030,3.150,-10.850,0.93,0.0368,0.1018,0.2139,0.0087,2025-06-11T08:57:51.175042
5487,-0.2240,0.9584,-0.2474,2.240,0.700,-11.585,0.93,0.0368,0.1018,0.2139,0.0087,2025-06-11T08:57:51.175042
5488,-0.2191,0.9584,-0.2586,1.575,-0.805,-11.865,0.93,0.0368,0.1018,0.2139,0.0087,2025-06-11T08:57:51.175042
5489,-0.2118,0.9521,-0.2606,0.525,-1.435,-11.305,0.93,0.0368,0.0762,0.2139,0.0174,2025-06-11T08:57:51.175042
5490,-0.2196,0.9443,-0.2669,-1.295,-1.120,-10.815,0.93,0.0368,0.1018,0.2139,0.0087,2025-06-11T08:57:51.175042
5491,-0.2230,0.9394,-0.2689,-2.940,-0.980,-10.115,0.93,0.0368,0.1018,0.2035,0.0174,2025-06-11T08:57:51.175042
5492,-0.2220,0.9316,-0.2635,-4.550,-0.945,-9.310,0.93,0.0184,0.1018,0.2035,0.0087,2025-06-11T08:57:51.175042
5493,-0.2176,0.9340,-0.2460,-5.285,-0.420,-8.050,0.93,0.0552,0.1018,0.2139,0.0087,2025-06-11T08:57:51.278155
5494,-0.2108,0.9306,-0.2381,-6.055,0.840,-7.140,0.92,0.0368,0.1018,0.2035,0.0174,2025-06-11T08:57:51.278155
5495,-0.2196,0.9248,-0.2450,-6.440,1.085,-5.495,0.92,0.0368,0.1018,0.2035,0.0174,2025-06-11T08:57:51.278155
5496,-0.2338,0.9189,-0.2372,-6.475,0.210,-4.340,0.93,0.0368,0.1018,0.2139,0.0174,2025-06-11T08:57:51.278155
5497,-0.2425,0.9126,-0.2245,-6.300,-1.260,-3.745,0.93,0.0552,0.1018,0.2035,0.0174,2025-06-11T08:57:51.279166
5498,-0.2455,0.9116,-0.2255,-6.195,-4.130,-2.800,0.93,0.0368,0.1018,0.2139,0.0174,2025-06-11T08:57:51.279166
5499,-0.2323,0.9189,-0.2186,-5.775,-4.690,-1.855,0.93,0.0368,0.0762,0.2035,0.0087,2025-06-11T08:57:51.279166
5500,-0.2040,0.9316,-0.2176,-5.460,-1.365,-1.645,0.93,0.0368,0.1018,0.2035,0.0087,2025-06-11T08:57:51.279166
5501,-0.2040,0.9462,-0.2191,-5.040,1.680,-1.260,0.93,0.0368,0.1018,0.2035,0.0087,2025-06-11T08:57:51.279166
5502,-0.2176,0.9433,-0.2201,-4.515,2.240,-0.630,0.93,0.0184,0.1018,0.2035,0.0174,2025-06-11T08:57:51.279166
5503,-0.2279,0.9409,-0.2059,-4.095,0.315,-0.630,0.93,0.0184,0.0762,0.1932,0.0087,2025-06-11T08:57:51.279166
5504,-0.2255,0.9316,-0.1991,-3.745,-2.485,-0.770,0.93,0.0184,0.0762,0.2035,0.0087,2025-06-11T08:57:51.279166
5505,-0.2279,0.9179,-0.2074,-3.465,-6.405,-0.840,0.93,0.0368,0.1018,0.2139,0.0087,2025-06-11T08:57:51.279166
5506,-0.2225,0.9121,-0.2011,-2.940,-7.840,-1.855,0.93,0.0184,0.1018,0.2243,0.0087,2025-06-11T08:57:51.279166
5507,-0.2123,0.9116,-0.1923,-2.485,-7.315,-3.010,0.93,0.0368,0.0762,0.2035,0.0174,2025-06-11T08:57:51.279166
5508,-0.2264,0.9228,-0.1923,-2.275,-6.405,-3.360,0.93,0.0184,0.0762,0.2139,0.0087,2025-06-11T08:57:51.279166
5509,-0.2479,0.9750,-0.1776,-2.520,-6.335,-3.920,0.93,0.0368,0.1018,0.2035,0.0087,2025-06-11T08:57:51.279166
5510,-0.2489,1.0492,-0.1615,-3.080,-4.095,-4.970,0.93,0.0184,0.1018,0.2035,0.0087,2025-06-11T08:57:51.368017
5511,-0.2347,1.1014,-0.1664,-4.025,0.490,-4.900,0.93,0.0184,0.1018,0.2139,0.0174,2025-06-11T08:57:51.368017
5512,-0.2547,1.0902,-0.1381,-6.195,7.595,-5.530,0.92,0.0184,0.1018,0.2139,0.0087,2025-06-11T08:57:51.368017
5513,-0.3152,1.0360,-0.0537,-10.115,9.590,-6.195,0.92,0.0368,0.1273,0.2139,0.0174,2025-06-11T08:57:51.368017
5514,-0.4055,0.9179,-0.0298,-11.795,1.855,-6.090,0.93,0.0368,0.1018,0.2035,0.0174,2025-06-11T08:57:51.368017
5515,-0.4451,0.8237,-0.0303,-9.940,-11.060,-7.000,0.93,0.0368,0.1018,0.2035,0.0087,2025-06-11T08:57:51.368017
5516,-0.4519,0.8052,-0.0132,-6.895,-21.945,-14.210,0.93,0.0368,0.1273,0.1932,0.0174,2025-06-11T08:57:51.368017
5517,-0.4197,0.7247,0.0551,-8.610,-26.320,-27.160,0.93,0.0368,0.1018,0.1932,0.0087,2025-06-11T08:57:51.416367
5518,-0.4343,0.7823,0.0776,-5.635,-27.755,-46.655,0.93,0.0184,0.1273,0.1932,0.0087,2025-06-11T08:57:51.416367
5519,-0.3894,0.8438,0.0425,-1.050,-33.810,-60.900,0.93,0.0368,0.1018,0.1932,0.0174,2025-06-11T08:57:51.416367
5520,-0.3709,0.8969,0.0317,3.045,-39.410,-72.975,0.93,0.0368,0.1018,0.2035,0.0174,2025-06-11T08:57:51.416367
5521,-0.3006,0.8926,-0.0415,11.410,-46.515,-82.145,0.93,0.0368,0.1018,0.2035,0.0087,2025-06-11T08:57:51.479285
5522,-0.2450,0.8911,-0.1386,24.745,-53.935,-85.785,0.92,0.0368,0.1018,0.2139,0.0087,2025-06-11T08:57:51.479285
5523,-0.2142,0.8745,-0.1952,43.960,-59.220,-86.905,0.93,0.0184,0.1018,0.2035,0.0087,2025-06-11T08:57:51.479285
5524,-0.1620,0.8638,-0.2801,44.730,-57.365,-86.135,0.93,0.0368,0.0762,0.2035,0.0174,2025-06-11T08:57:51.479285
5525,-0.0947,0.8589,-0.3304,49.525,-49.840,-80.815,0.92,0.0368,0.1018,0.2035,0.0087,2025-06-11T08:57:51.479285
5526,-0.0747,0.8379,-0.3538,49.980,-38.255,-74.025,0.93,0.0368,0.0762,0.2035,0.0087,2025-06-11T08:57:51.612416
5527,-0.1366,0.8115,-0.3655,46.935,-21.770,-66.710,0.92,0.0368,0.1018,0.2139,0.0174,2025-06-11T08:57:51.612416
5528,-0.2308,0.7993,-0.3889,40.495,-13.125,-61.670,0.93,0.0368,0.0762,0.2139,0.0087,2025-06-11T08:57:51.612416
5529,-0.2962,0.7969,-0.4172,34.055,-12.215,-54.075,0.93,0.0184,0.1018,0.2139,0.0174,2025-06-11T08:57:51.612416
5530,-0.3143,0.8306,-0.3972,29.925,-14.665,-46.655,0.93,0.0184,0.1018,0.2035,0.0087,2025-06-11T08:57:51.612416
5531,-0.2830,0.8555,-0.3933,27.755,-15.540,-38.675,0.93,0.0184,0.0762,0.2035,0.0087,2025-06-11T08:57:51.612416
5532,-0.2225,0.8579,-0.3699,25.130,-14.490,-31.395,0.93,0.0368,0.0762,0.2139,0.0174,2025-06-11T08:57:51.612416
5533,-0.1669,0.8574,-0.3372,23.520,-8.855,-24.010,0.93,0.0368,0.1018,0.2139,0.0087,2025-06-11T08:57:51.612416
5534,-0.1469,0.8486,-0.3450,22.470,2.450,-19.985,0.92,0.0368,0.1018,0.2139,0.0087,2025-06-11T08:57:51.613484
5535,-0.1874,0.8438,-0.3684,23.135,10.430,-17.920,0.93,0.0184,0.0762,0.2035,0.0087,2025-06-11T08:57:51.658910
5536,-0.2367,0.8423,-0.3928,25.165,15.995,-18.620,0.93,0.0368,0.1018,0.2035,0.0174,2025-06-11T08:57:51.658910
5537,-0.3099,0.8462,-0.3943,27.370,17.150,-20.265,0.93,0.0184,0.1018,0.2035,0.0174,2025-06-11T08:57:51.658910
5538,-0.3714,0.8442,-0.3816,29.995,13.930,-21.420,0.93,0.0184,0.1018,0.2139,0.0087,2025-06-11T08:57:51.658910
5539,-0.4504,0.8457,-0.3572,31.535,8.365,-22.960,0.93,0.0368,0.0762,0.2139,0.0174,2025-06-11T08:57:51.772273
5540,-0.4807,0.8438,-0.3255,32.200,5.040,-24.535,0.93,0.0368,0.0762,0.2139,0.0174,2025-06-11T08:57:51.772273
5541,-0.4656,0.8511,-0.3182,31.850,5.775,-25.830,0.93,0.0368,0.1018,0.2139,0.0174,2025-06-11T08:57:51.772273
5542,-0.4602,0.8589,-0.3284,31.150,12.145,-26.425,0.93,0.0368,0.0762,0.2139,0.0087,2025-06-11T08:57:51.772273
5543,-0.4758,0.8760,-0.3523,30.450,18.095,-25.865,0.93,0.0184,0.0762,0.2139,0.0087,2025-06-11T08:57:51.772273
5544,-0.5226,0.8740,-0.3777,28.560,20.790,-23.730,0.93,0.0184,0.0762,0.2035,0.0087,2025-06-11T08:57:51.772273
5545,-0.5705,0.8359,-0.4080,26.880,19.670,-20.580,0.93,0.0368,0.1018,0.2139,0.0174,2025-06-11T08:57:51.772273
5546,-0.6017,0.8164,-0.4260,24.675,15.050,-14.385,0.93,0.0368,0.0762,0.2139,0.0087,2025-06-11T08:57:51.773270
5547,-0.6129,0.8130,-0.4412,21.315,9.800,-7.735,0.93,0.0368,0.0762,0.2139,0.0174,2025-06-11T08:57:51.968371
5548,-0.6149,0.8159,-0.4743,18.970,4.305,-0.175,0.93,0.0368,0.0508,0.2139,0.0087,2025-06-11T08:57:51.968371
5549,-0.6320,0.7984,-0.5187,16.905,-0.280,5.705,0.93,0.0368,0.1018,0.2035,0.0087,2025-06-11T08:57:51.968371
5550,-0.6295,0.7632,-0.5134,15.085,-8.120,12.005,0.93,0.0368,0.1018,0.2035,0.0087,2025-06-11T08:57:51.968371
5551,-0.5900,0.7486,-0.4651,13.230,-12.005,16.625,0.93,0.0368,0.0762,0.1828,0.0087,2025-06-11T08:57:52.177996
5552,-0.5534,0.7564,-0.4460,12.180,-10.605,19.180,0.93,0.0368,0.0762,0.1932,0.0087,2025-06-11T08:57:52.177996
5553,-0.5461,0.7823,-0.4031,10.220,-5.740,19.110,0.93,0.0368,0.0762,0.1725,0.0174,2025-06-11T08:57:52.177996
5554,-0.5539,0.7989,-0.3621,7.385,-2.730,18.305,0.93,0.0368,0.0762,0.1828,0.0087,2025-06-11T08:57:52.177996
5555,-0.5788,0.7920,-0.3738,3.535,-3.010,18.165,0.93,0.0368,0.1018,0.1725,0.0087,2025-06-11T08:57:52.177996
5556,-0.5719,0.7745,-0.3675,0.315,-4.445,17.605,0.93,0.0368,0.0762,0.1828,0.0087,2025-06-11T08:57:52.177996
5557,-0.5607,0.7481,-0.3943,-2.695,-4.550,16.450,0.93,0.0368,0.1018,0.1725,0.0174,2025-06-11T08:57:52.179006
5558,-0.5612,0.7198,-0.4499,-3.920,-2.975,14.980,0.93,0.0184,0.0762,0.1725,0.0087,2025-06-11T08:57:52.179006
5559,-0.5363,0.7091,-0.4680,-3.360,-1.400,13.825,0.93,0.0368,0.0762,0.1622,0.0000,2025-06-11T08:57:52.179006
5560,-0.5231,0.7017,-0.4738,-2.870,-0.245,14.245,0.93,0.0368,0.1018,0.1828,0.0174,2025-06-11T08:57:52.179006
5561,-0.5353,0.6920,-0.4651,-3.325,0.490,15.330,0.93,0.0184,0.0762,0.1828,0.0087,2025-06-11T08:57:52.179006
5562,-0.5436,0.6891,-0.4656,-3.990,-0.735,16.870,0.93,0.0368,0.1018,0.1828,0.0174,2025-06-11T08:57:52.179006
5563,-0.5412,0.7125,-0.4431,-5.880,-1.120,17.745,0.93,0.0368,0.1018,0.1725,0.0087,2025-06-11T08:57:52.179006
5564,-0.5290,0.7271,-0.4377,-7.210,0.700,18.585,0.93,0.0552,0.1018,0.1828,0.0174,2025-06-11T08:57:52.179006
5565,-0.5290,0.7349,-0.4221,-7.595,2.590,18.830,0.93,0.0368,0.1018,0.1725,0.0087,2025-06-11T08:57:52.209996
5566,-0.5309,0.7759,-0.3865,-7.840,5.530,17.745,0.93,0.0368,0.1018,0.1622,0.0087,2025-06-11T08:57:52.209996
5567,-0.5461,0.8145,-0.3601,-7.525,7.315,16.380,0.92,0.0368,0.1018,0.1622,0.0174,2025-06-11T08:57:52.209996
5568,-0.5802,0.8291,-0.3421,-6.895,6.545,15.085,0.92,0.0368,0.1018,0.1725,0.0174,2025-06-11T08:57:52.209996
5569,-0.6051,0.8350,-0.3709,-6.790,4.585,13.510,0.93,0.0368,0.0762,0.1828,0.0174,2025-06-11T08:57:52.209996
5570,-0.5993,0.8662,-0.3714,-8.225,4.305,11.690,0.92,0.0368,0.0762,0.1622,0.0087,2025-06-11T08:57:52.209996
5571,-0.5832,0.8633,-0.3850,-11.795,8.295,10.115,0.93,0.0368,0.0762,0.1828,0.0000,2025-06-11T08:57:52.209996
5572,-0.5963,0.8603,-0.3850,-15.925,13.895,8.190,0.93,0.0184,0.1018,0.1828,0.0087,2025-06-11T08:57:52.209996
5573,-0.6202,0.8403,-0.3845,-20.895,15.470,7.630,0.93,0.0368,0.1018,0.1725,0.0087,2025-06-11T08:57:52.209996
5574,-0.6266,0.8115,-0.3572,-25.165,10.570,8.260,0.93,0.0184,0.1273,0.1725,0.0087,2025-06-11T08:57:52.209996
5575,-0.6154,0.7671,-0.3806,-28.840,1.050,9.905,0.92,0.0368,0.1018,0.1725,0.0087,2025-06-11T08:57:52.209996
5576,-0.5949,0.7096,-0.4158,-30.555,-6.405,10.745,0.93,0.0368,0.1018,0.1725,0.0087,2025-06-11T08:57:52.209996
5577,-0.5407,0.6593,-0.4270,-30.975,-11.865,11.095,0.93,0.0368,0.1273,0.1622,0.0087,2025-06-11T08:57:52.209996
5578,-0.5056,0.6193,-0.3982,-30.590,-12.180,10.045,0.93,0.0184,0.1273,0.1828,0.0174,2025-06-11T08:57:52.209996
5579,-0.4548,0.5529,-0.3982,-30.030,-8.225,6.335,0.92,0.0368,0.1018,0.1725,0.0087,2025-06-11T08:57:52.209996
5580,-0.4270,0.4680,-0.3928,-27.580,-2.625,1.505,0.93,0.0368,0.1273,0.1622,0.0174,2025-06-11T08:57:52.475217
5581,-0.4099,0.3899,-0.3826,-22.890,4.970,-6.265,0.93,0.0368,0.1018,0.1622,0.0087,2025-06-11T08:57:52.475217
5582,-0.4285,0.2938,-0.3850,-17.115,9.940,-13.930,0.92,0.0368,0.1018,0.1519,0.0174,2025-06-11T08:57:52.475217
5583,-0.4826,0.2074,-0.3928,-9.345,8.575,-22.400,0.92,0.0368,0.1273,0.1416,0.0087,2025-06-11T08:57:52.475217
5584,-0.4978,0.1401,-0.3660,4.515,3.255,-28.105,0.92,0.0368,0.1018,0.1519,0.0174,2025-06-11T08:57:52.475217
5585,-0.5134,0.0488,-0.3665,18.165,-2.415,-35.665,0.92,0.0368,0.1018,0.1622,0.0087,2025-06-11T08:57:52.475217
5586,-0.5226,-0.0249,-0.3436,36.435,-5.705,-42.595,0.92,0.0368,0.1018,0.1519,0.0087,2025-06-11T08:57:52.476233
5587,-0.5305,-0.1166,-0.3372,52.640,-8.050,-52.955,0.92,0.0368,0.1018,0.1519,0.0087,2025-06-11T08:57:52.476233
5588,-0.5324,-0.2098,-0.3401,74.025,-11.515,-61.635,0.92,0.0368,0.1018,0.1416,0.0174,2025-06-11T08:57:52.476233
5589,-0.3806,-0.3226,-0.3070,93.310,-11.550,-73.675,0.92,0.0184,0.1018,0.1622,0.0087,2025-06-11T08:57:52.476233
5590,-0.4534,-0.3997,-0.3084,117.145,-4.970,-85.925,0.92,0.0368,0.1018,0.1828,0.0087,2025-06-11T08:57:52.476233
5591,-0.4182,-0.4870,-0.2943,137.935,3.115,-99.295,0.92,0.0368,0.1018,0.1725,0.0174,2025-06-11T08:57:52.476233
5592,-0.4016,-0.5578,-0.3255,163.380,15.540,-117.180,0.91,0.0368,0.1018,0.1932,0.0087,2025-06-11T08:57:52.476233
5593,-0.4514,-0.6500,-0.4782,184.625,26.985,-132.755,0.91,0.0368,0.1018,0.2035,0.0174,2025-06-11T08:57:52.620224
5594,-0.5173,-0.7047,-0.6510,211.680,38.010,-150.325,0.91,0.0368,0.1018,0.2139,0.0174,2025-06-11T08:57:52.620224
5595,-0.7427,-0.8111,-0.8115,238.770,39.865,-164.395,0.90,0.0368,0.1273,0.1932,0.0174,2025-06-11T08:57:52.620224
5596,-0.7549,-0.9316,-0.9033,278.005,33.425,-174.055,0.90,0.0368,0.1018,0.2035,0.0174,2025-06-11T08:57:52.620224
5597,-0.8477,-1.0926,-1.0033,314.615,20.440,-185.990,0.90,0.0552,0.1018,0.2348,0.0174,2025-06-11T08:57:52.620224
5598,-0.9306,-1.1346,-1.1004,362.880,-1.505,-195.125,0.90,0.0368,0.1018,0.2139,0.0087,2025-06-11T08:57:52.620224
5599,-0.9418,-1.2468,-1.5538,395.745,-19.600,-205.870,0.90,0.0368,0.0762,0.2452,0.0174,2025-06-11T08:57:52.620224
5600,-0.9233,-1.3166,-1.9286,432.320,-22.260,-215.600,0.90,0.0184,0.0762,0.2557,0.0174,2025-06-11T08:57:52.620224
5601,-0.9736,-1.3479,-2.1770,468.615,-7.665,-225.645,0.91,0.0184,0.1018,0.2767,0.0087,2025-06-11T08:57:52.621289
5602,-1.0297,-1.2776,-2.2511,507.150,29.680,-231.945,0.91,0.0368,0.1018,0.3616,0.0087,2025-06-11T08:57:52.621289
5603,-1.0892,-1.2190,-2.3941,529.340,56.000,-230.370,0.91,0.0184,0.1018,0.3723,0.0087,2025-06-11T08:57:52.621289
5604,-1.3747,-1.2220,-2.4107,547.680,65.625,-222.285,0.91,0.0184,0.0762,0.3509,0.0087,2025-06-11T08:57:52.621289
5605,-1.7153,-1.3479,-2.7474,554.190,52.430,-206.325,0.91,0.0184,0.0762,0.4153,0.0087,2025-06-11T08:57:52.621289
5606,-1.6895,-1.1761,-2.8319,544.005,24.010,-195.755,0.91,0.0368,0.1018,0.3830,0.0087,2025-06-11T08:57:52.621289
5607,-1.9169,-0.8423,-2.6620,522.620,-3.465,-186.935,0.92,0.0368,0.0762,0.4153,0.0174,2025-06-11T08:57:52.621289
5608,-1.8334,-0.5739,-2.5049,481.460,-29.085,-180.425,0.92,0.0368,0.0762,0.5135,0.0087,2025-06-11T08:57:52.621289
5609,-1.7802,-0.0795,-2.3995,428.505,-44.520,-176.785,0.91,0.0368,0.1018,0.5135,0.0174,2025-06-11T08:57:52.888372
5610,-1.5304,0.3460,-2.4776,372.540,-52.185,-169.435,0.91,0.0368,0.1018,0.4806,0.0174,2025-06-11T08:57:52.888372
5611,-1.2229,1.2151,-2.6147,331.520,-32.830,-150.010,0.91,0.0368,0.1018,0.5025,0.0174,2025-06-11T08:57:52.888372
5612,-0.9838,1.9398,-2.7801,290.920,-7.315,-109.410,0.91,0.0368,0.1018,0.5356,0.0174,2025-06-11T08:57:52.888372
5613,-0.7349,2.7235,-2.6254,243.775,2.310,-57.750,0.91,0.0368,0.1273,0.5466,0.0174,2025-06-11T08:57:52.889442
5614,-0.6695,3.2203,-2.5415,157.220,32.305,-29.645,0.90,0.0368,0.1529,0.6023,0.0174,2025-06-11T08:57:52.889442
5615,-0.8701,3.1535,-2.8626,74.585,63.315,-1.855,0.91,0.0184,0.1273,0.6135,0.0087,2025-06-11T08:57:52.889442
5616,-1.0873,2.9788,-3.0929,-33.950,70.315,20.790,0.90,0.0368,0.1018,0.6023,0.0087,2025-06-11T08:57:52.889442
5617,-1.1239,2.4288,-3.4819,-123.060,65.555,52.220,0.90,0.0368,0.1529,0.5577,0.0087,2025-06-11T08:57:52.889442
5618,-1.1390,1.9471,-3.7108,-232.680,59.430,52.850,0.90,0.0368,0.1273,0.5577,0.0087,2025-06-11T08:57:52.889442
5619,-1.2112,1.2395,-4.0938,-327.425,52.185,46.445,0.90,0.0552,0.1018,0.5356,0.0174,2025-06-11T08:57:52.889442
5620,-1.5152,0.5051,-4.6619,-449.365,15.225,47.215,0.90,0.0368,0.1529,0.5025,0.0087,2025-06-11T08:57:52.889442
5621,-1.6797,-0.4851,-5.5222,-540.645,-17.395,59.500,0.90,0.0368,0.1529,0.4370,0.0174,2025-06-11T08:57:52.889442
5622,-1.7182,-0.9921,-5.8214,-648.690,-43.505,104.020,0.90,0.0368,0.1786,0.4370,0.0087,2025-06-11T08:57:52.994035
5623,-1.7485,-1.8232,-6.3494,-716.520,-27.230,162.120,0.90,0.0368,0.2301,0.4262,0.0174,2025-06-11T08:57:52.994035
5624,-1.5738,-2.4947,-6.5768,-757.505,31.850,210.945,0.90,0.0368,0.2043,0.3830,0.0174,2025-06-11T08:57:52.994035
5625,-1.7949,-3.0671,-6.5050,-772.975,101.150,250.390,0.90,0.0368,0.2301,0.3830,0.0087,2025-06-11T08:57:52.994035
5626,-2.1121,-3.3882,-6.3884,-763.805,171.150,250.985,0.90,0.0552,0.2043,0.3402,0.0087,2025-06-11T08:57:52.994035
5627,-2.4283,-3.2994,-5.7774,-754.810,183.295,249.550,0.90,0.0368,0.2559,0.2767,0.0174,2025-06-11T08:57:52.994035
5628,-2.5835,-3.2374,-5.2704,-755.650,142.800,240.310,0.90,0.0368,0.2301,0.2872,0.0087,2025-06-11T08:57:52.994035
5629,-2.5249,-3.0998,-4.6819,-730.765,86.975,220.465,0.90,0.0368,0.2559,0.2978,0.0174,2025-06-11T08:57:52.994035
5630,-2.1330,-2.9187,-4.1787,-694.890,36.820,207.025,0.91,0.0184,0.2559,0.2872,0.0087,2025-06-11T08:57:52.994035
5631,-1.6753,-3.0393,-3.7415,-631.890,10.640,197.855,0.91,0.0184,0.1786,0.2767,0.0174,2025-06-11T08:57:52.994035
5632,-1.1268,-3.1344,-3.1315,-544.635,11.375,192.920,0.91,0.0368,0.2301,0.2872,0.0087,2025-06-11T08:57:52.994035
5633,-0.5324,-3.0661,-2.2775,-486.185,64.085,163.275,0.92,0.0368,0.1786,0.2978,0.0087,2025-06-11T08:57:52.994035
5634,-0.5280,-2.8206,-1.6978,-411.460,139.615,121.450,0.92,0.0184,0.2043,0.2872,0.0087,2025-06-11T08:57:52.994035
5635,-0.9760,-2.5103,-1.1478,-357.280,140.770,87.115,0.92,0.0368,0.1786,0.2872,0.0087,2025-06-11T08:57:52.994035
5636,-1.3801,-2.5713,-0.6544,-276.885,56.420,69.265,0.91,0.0368,0.1786,0.2557,0.0087,2025-06-11T08:57:52.994035
5637,-1.0892,-2.6147,-0.1498,-184.835,-32.480,64.855,0.92,0.0368,0.2043,0.2557,0.0087,2025-06-11T08:57:53.072882
5638,-0.4036,-2.3634,0.0742,-82.845,-67.445,56.770,0.92,0.0368,0.1786,0.2872,0.0174,2025-06-11T08:57:53.072882
5639,0.2284,-1.8442,0.3157,-25.200,-30.625,34.440,0.92,0.0368,0.2043,0.2978,0.0087,2025-06-11T08:57:53.072882
5640,0.2982,-1.5089,0.2425,3.780,36.260,6.615,0.92,0.0368,0.2043,0.3190,0.0174,2025-06-11T08:57:53.410882
5641,-0.0146,-1.1292,0.0956,21.770,88.025,-37.555,0.92,0.0184,0.1786,0.3190,0.0262,2025-06-11T08:57:53.410882
5642,-0.5173,-0.8159,0.0537,36.085,86.415,-71.225,0.91,0.0552,0.1529,0.2872,0.0087,2025-06-11T08:57:53.411177
5643,-1.1302,-0.5207,0.0439,55.405,19.635,-97.615,0.92,0.0368,0.1786,0.2662,0.0087,2025-06-11T08:57:53.411177
5644,-1.1736,-0.2621,-0.1176,82.460,-54.355,-108.605,0.92,0.0368,0.2043,0.3084,0.0087,2025-06-11T08:57:53.411177
5645,-0.9492,0.0669,-0.1732,100.520,-107.870,-113.610,0.92,0.0184,0.1786,0.2662,0.0087,2025-06-11T08:57:53.411177
5646,-0.5993,0.1357,-0.4895,116.270,-127.225,-110.285,0.92,0.0368,0.1786,0.2767,0.0087,2025-06-11T08:57:53.411177
5647,-0.2435,0.2225,-0.7954,124.285,-91.490,-102.830,0.92,0.0552,0.1273,0.2978,0.0087,2025-06-11T08:57:53.411177
5648,-0.1000,0.3894,-1.0863,129.640,-36.785,-92.225,0.92,0.0368,0.1273,0.3084,0.0087,2025-06-11T08:57:53.411177
5649,-0.2108,0.5763,-1.1224,127.225,32.200,-77.700,0.92,0.0368,0.1018,0.2243,0.0087,2025-06-11T08:57:53.411177
5650,-0.4480,0.7052,-1.0741,124.180,64.120,-65.205,0.92,0.0368,0.1273,0.2557,0.0087,2025-06-11T08:57:53.411177
5651,-0.9453,0.9140,-0.8335,115.605,59.360,-51.800,0.92,0.0184,0.1529,0.1932,0.0087,2025-06-11T08:57:53.411177
5652,-1.2073,1.0228,-0.5739,107.135,10.045,-40.740,0.92,0.0368,0.1018,0.1725,0.0174,2025-06-11T08:57:53.411177
5653,-1.2293,1.0756,-0.3016,102.865,-56.525,-18.445,0.93,0.0368,0.1529,0.1725,0.0174,2025-06-11T08:57:53.411177
5654,-1.0536,0.8955,-0.6720,94.010,-129.885,0.735,0.93,0.0368,0.1273,0.2139,0.0174,2025-06-11T08:57:53.411177
5655,-0.6778,0.8560,-1.0795,89.495,-146.510,15.050,0.92,0.0184,0.1273,0.2139,0.0174,2025-06-11T08:57:53.411177
5656,-0.3021,1.0194,-1.0599,83.755,-126.070,20.370,0.92,0.0368,0.0762,0.2452,0.0087,2025-06-11T08:57:53.411177
5657,-0.1332,1.0780,-0.9633,69.090,-93.905,21.000,0.92,0.0368,0.1018,0.2139,0.0174,2025-06-11T08:57:53.512981
5658,-0.0059,1.0653,-0.8940,57.050,-49.665,15.190,0.92,0.0368,0.1273,0.1725,0.0087,2025-06-11T08:57:53.512981
5659,-0.0503,1.1214,-0.7183,49.070,-18.235,9.345,0.92,0.0184,0.1529,0.1622,0.0087,2025-06-11T08:57:53.512981
5660,-0.3148,1.1244,-0.6710,45.920,-0.560,8.680,0.93,0.0368,0.1529,0.1314,0.0087,2025-06-11T08:57:53.512981
5661,-0.4524,1.1214,-0.6500,47.110,-5.460,12.425,0.93,0.0368,0.1273,0.1416,0.0087,2025-06-11T08:57:53.512981
5662,-0.5602,1.1380,-0.6329,44.485,-32.235,21.350,0.93,0.0368,0.1529,0.1519,0.0087,2025-06-11T08:57:53.512981
5663,-0.5480,1.1985,-0.6227,35.350,-57.330,27.300,0.93,0.0368,0.1273,0.1314,0.0174,2025-06-11T08:57:53.513998
5664,-0.4826,1.1775,-0.6061,23.415,-78.575,29.295,0.93,0.0368,0.1529,0.1212,0.0087,2025-06-11T08:57:53.513998
5665,-0.3650,1.1331,-0.5441,14.490,-89.215,27.825,0.92,0.0184,0.1529,0.1212,0.0174,2025-06-11T08:57:53.513998
5666,-0.2133,1.0629,-0.5197,11.725,-91.245,24.360,0.92,0.0184,0.1273,0.1212,0.0174,2025-06-11T08:57:53.513998
5667,-0.0556,1.0682,-0.4016,11.865,-82.495,22.960,0.92,0.0368,0.1529,0.1416,0.0087,2025-06-11T08:57:53.513998
5668,-0.0478,1.0531,-0.3787,6.615,-67.340,23.975,0.92,0.0368,0.1273,0.1109,0.0174,2025-06-11T08:57:53.513998
5669,-0.1122,0.9662,-0.4226,1.470,-51.765,24.710,0.92,0.0368,0.1273,0.1314,0.0087,2025-06-11T08:57:53.513998
5670,-0.2011,0.8769,-0.5226,-3.185,-45.185,25.480,0.92,0.0368,0.1273,0.1314,0.0087,2025-06-11T08:57:53.513998
5671,-0.2362,0.8316,-0.6090,-8.820,-42.210,24.815,0.91,0.0184,0.1273,0.1314,0.0087,2025-06-11T08:57:53.513998
5672,-0.2103,0.8960,-0.5998,-15.225,-40.285,22.785,0.92,0.0368,0.1529,0.1519,0.0174,2025-06-11T08:57:53.513998
5673,-0.1703,0.9135,-0.5661,-21.595,-38.010,20.230,0.92,0.0368,0.1529,0.1416,0.0087,2025-06-11T08:57:53.513998
5674,-0.1713,0.9018,-0.5119,-27.300,-35.560,16.555,0.92,0.0368,0.1273,0.1622,0.0174,2025-06-11T08:57:53.608517
5675,-0.1488,0.9008,-0.4368,-32.655,-31.290,10.815,0.92,0.0368,0.1529,0.1314,0.0087,2025-06-11T08:57:53.608517
5676,-0.2035,0.9043,-0.3348,-36.190,-29.015,4.410,0.92,0.0368,0.1529,0.1109,0.0174,2025-06-11T08:57:53.608517
5677,-0.2469,0.9306,-0.2806,-39.725,-32.480,1.260,0.92,0.0368,0.1529,0.1212,0.0174,2025-06-11T08:57:53.608517
5678,-0.2596,0.9736,-0.2972,-41.090,-39.655,0.420,0.92,0.0184,0.1529,0.1314,0.0174,2025-06-11T08:57:53.608517
5679,-0.1986,1.0150,-0.3289,-42.385,-44.170,3.325,0.92,0.0184,0.1529,0.1314,0.0174,2025-06-11T08:57:53.608517
5680,-0.1391,0.9941,-0.4075,-43.960,-40.810,7.420,0.92,0.0184,0.1786,0.1314,0.0087,2025-06-11T08:57:53.608517
5681,-0.1103,0.9575,-0.3953,-44.695,-28.210,10.290,0.92,0.0368,0.1529,0.1314,0.0087,2025-06-11T08:57:53.608517
5682,-0.0766,0.9335,-0.3050,-46.060,-12.495,10.325,0.92,0.0184,0.1786,0.1109,0.0087,2025-06-11T08:57:53.938426
5683,-0.0600,0.8901,-0.2450,-46.760,4.865,10.080,0.92,0.0184,0.1786,0.1212,0.0174,2025-06-11T08:57:53.938426
5684,-0.0825,0.8359,-0.2264,-45.395,14.840,8.960,0.92,0.0368,0.1786,0.1314,0.0087,2025-06-11T08:57:53.939441
5685,-0.1366,0.7842,-0.2216,-43.890,20.545,5.985,0.92,0.0184,0.1786,0.1519,0.0087,2025-06-11T08:57:53.939441
5686,-0.1932,0.7862,-0.2157,-43.120,22.750,3.080,0.92,0.0184,0.1529,0.1519,0.0087,2025-06-11T08:57:53.939441
5687,-0.2015,0.7852,-0.3035,-41.965,17.710,4.095,0.92,0.0368,0.1786,0.1622,0.0087,2025-06-11T08:57:53.939441
5688,-0.2752,0.7793,-0.3079,-39.410,9.310,6.475,0.92,0.0184,0.1529,0.1622,0.0174,2025-06-11T08:57:53.939441
5689,-0.2967,0.7920,-0.2352,-36.435,7.000,5.460,0.92,0.0368,0.1786,0.1519,0.0087,2025-06-11T08:57:53.939441
5690,-0.2401,0.7954,-0.1928,-32.550,10.570,3.185,0.93,0.0368,0.1529,0.1519,0.0087,2025-06-11T08:57:53.939441
5691,-0.2025,0.7828,-0.1835,-27.090,16.345,2.660,0.92,0.0368,0.1529,0.1519,0.0087,2025-06-11T08:57:53.939441
5692,-0.2318,0.7662,-0.1864,-22.855,23.730,1.680,0.92,0.0368,0.1273,0.1416,0.0174,2025-06-11T08:57:53.939441
5693,-0.2855,0.7881,-0.1615,-17.430,25.515,0.770,0.92,0.0184,0.1529,0.1314,0.0174,2025-06-11T08:57:53.939441
5694,-0.3689,0.8003,-0.1474,-12.985,21.315,0.245,0.92,0.0368,0.1273,0.1314,0.0174,2025-06-11T08:57:53.940433
5695,-0.4241,0.8086,-0.1454,-7.910,9.065,1.225,0.92,0.0368,0.1529,0.1416,0.0174,2025-06-11T08:57:53.940433
5696,-0.4319,0.7979,-0.1586,-4.060,-3.815,3.850,0.93,0.0368,0.1273,0.1519,0.0087,2025-06-11T08:57:53.940433
5697,-0.4226,0.8057,-0.1376,-0.210,-15.785,6.020,0.92,0.0368,0.1529,0.1519,0.0087,2025-06-11T08:57:54.040758
5698,-0.3719,0.8042,-0.1420,2.520,-20.300,7.595,0.92,0.0368,0.1529,0.1622,0.0174,2025-06-11T08:57:54.040758
5699,-0.2928,0.7901,-0.1825,4.305,-16.905,8.120,0.93,0.0368,0.1273,0.1622,0.0087,2025-06-11T08:57:54.040758
5700,-0.2557,0.7950,-0.2333,4.900,-6.860,6.965,0.93,0.0184,0.1273,0.1622,0.0174,2025-06-11T08:57:54.040758
5701,-0.2464,0.8203,-0.2264,4.620,8.225,4.935,0.93,0.0368,0.1529,0.1519,0.0174,2025-06-11T08:57:54.504161
5702,-0.2801,0.8516,-0.2157,4.550,16.310,3.675,0.93,0.0184,0.1273,0.1622,0.0087,2025-06-11T08:57:54.504161
5703,-0.3343,0.8906,-0.2235,5.180,16.695,4.060,0.93,0.0368,0.1273,0.1519,0.0087,2025-06-11T08:57:54.504161
5704,-0.3655,0.9116,-0.2318,6.265,8.155,5.985,0.92,0.0368,0.1529,0.1519,0.0087,2025-06-11T08:57:54.504161
5705,-0.3816,0.9135,-0.2318,7.875,-2.870,8.575,0.92,0.0184,0.1529,0.1622,0.0087,2025-06-11T08:57:54.504161
5706,-0.3640,0.9057,-0.2328,10.360,-14.490,8.960,0.92,0.0368,0.1273,0.1519,0.0087,2025-06-11T08:57:54.504161
5707,-0.3201,0.8862,-0.2508,12.845,-18.270,7.315,0.92,0.0184,0.1529,0.1519,0.0174,2025-06-11T08:57:54.504161
5708,-0.2826,0.8594,-0.2708,14.700,-15.645,4.095,0.93,0.0368,0.1529,0.1416,0.0087,2025-06-11T08:57:54.504161
5709,-0.2557,0.8433,-0.2826,15.960,-9.345,0.980,0.93,0.0184,0.1529,0.1416,0.0087,2025-06-11T08:57:54.504994
5710,-0.2591,0.8550,-0.2816,16.310,-0.140,-2.205,0.93,0.0552,0.1529,0.1416,0.0087,2025-06-11T08:57:54.505053
5711,-0.2835,0.8730,-0.2757,16.555,3.605,-3.255,0.92,0.0184,0.1529,0.1314,0.0087,2025-06-11T08:57:54.505053
5712,-0.3396,0.8784,-0.2733,15.225,1.435,-2.450,0.93,0.0368,0.1529,0.1416,0.0087,2025-06-11T08:57:54.505053
5713,-0.3753,0.8725,-0.2655,13.510,-7.910,-1.400,0.92,0.0368,0.1529,0.1314,0.0087,2025-06-11T08:57:54.505053
5714,-0.3733,0.8691,-0.2591,12.180,-17.780,-0.665,0.93,0.0368,0.1529,0.1519,0.0174,2025-06-11T08:57:54.505053
5715,-0.3372,0.8613,-0.2684,11.480,-26.285,-0.665,0.92,0.0368,0.1529,0.1416,0.0174,2025-06-11T08:57:54.505053
5716,-0.2811,0.8716,-0.2860,11.620,-27.510,-0.805,0.93,0.0368,0.1529,0.1416,0.0087,2025-06-11T08:57:54.505053
5717,-0.2352,0.9043,-0.2991,13.755,-25.025,0.245,0.93,0.0368,0.1529,0.1416,0.0087,2025-06-11T08:57:54.505053
5718,-0.1884,0.9438,-0.3045,15.330,-16.905,2.100,0.93,0.0368,0.1529,0.1519,0.0087,2025-06-11T08:57:54.505053
5719,-0.1542,0.9692,-0.2884,16.975,-5.740,2.940,0.93,0.0368,0.1529,0.1519,0.0174,2025-06-11T08:57:54.505053
5720,-0.1635,0.9823,-0.2943,17.920,6.615,2.870,0.93,0.0368,0.1529,0.1416,0.0087,2025-06-11T08:57:54.505053
5721,-0.1942,0.9872,-0.3148,17.535,19.110,2.135,0.93,0.0368,0.1529,0.1519,0.0174,2025-06-11T08:57:54.505053
5722,-0.2323,1.0009,-0.3318,17.325,24.570,0.945,0.92,0.0184,0.1273,0.1314,0.0174,2025-06-11T08:57:54.505053
5723,-0.2762,1.0155,-0.3470,16.940,25.165,0.070,0.92,0.0368,0.1273,0.1314,0.0174,2025-06-11T08:57:54.505989
5724,-0.3026,1.0248,-0.3475,16.905,21.175,-0.455,0.93,0.0368,0.1273,0.1212,0.0087,2025-06-11T08:57:54.505989
5725,-0.3362,1.0019,-0.3426,16.450,12.460,-0.945,0.93,0.0184,0.1273,0.1314,0.0087,2025-06-11T08:57:54.505989
5726,-0.3445,0.9687,-0.3270,15.610,4.340,-1.890,0.93,0.0368,0.1273,0.1314,0.0087,2025-06-11T08:57:54.505989
5727,-0.3601,0.9331,-0.3167,13.930,-3.290,-3.745,0.93,0.0368,0.1273,0.1416,0.0087,2025-06-11T08:57:54.505989
5728,-0.3528,0.9165,-0.3148,11.655,-7.875,-5.845,0.93,0.0368,0.1273,0.1416,0.0087,2025-06-11T08:57:54.505989
5729,-0.3440,0.9038,-0.3377,9.345,-11.060,-8.120,0.93,0.0184,0.1018,0.1519,0.0087,2025-06-11T08:57:54.505989
5730,-0.3216,0.9121,-0.3689,8.120,-12.040,-9.555,0.93,0.0184,0.1018,0.1212,0.0087,2025-06-11T08:57:54.505989
5731,-0.2996,0.9238,-0.3865,8.120,-10.220,-11.130,0.93,0.0184,0.1018,0.1314,0.0174,2025-06-11T08:57:54.505989
5732,-0.2728,0.9262,-0.3909,8.120,-5.880,-12.285,0.93,0.0368,0.1018,0.1212,0.0174,2025-06-11T08:57:54.505989
5733,-0.2679,0.9243,-0.3675,7.875,-1.400,-13.440,0.93,0.0368,0.1018,0.1212,0.0087,2025-06-11T08:57:54.505989
5734,-0.2699,0.9199,-0.3431,6.545,3.570,-15.120,0.93,0.0368,0.1018,0.1109,0.0174,2025-06-11T08:57:54.505989
5735,-0.2923,0.9257,-0.3128,4.200,4.445,-15.610,0.93,0.0368,0.1018,0.1212,0.0087,2025-06-11T08:57:54.505989
5736,-0.3226,0.9243,-0.3133,1.750,0.910,-15.330,0.93,0.0368,0.1018,0.1212,0.0174,2025-06-11T08:57:54.505989
5737,-0.3377,0.9189,-0.3362,-1.680,-4.130,-14.700,0.93,0.0368,0.1018,0.1314,0.0087,2025-06-11T08:57:54.505989
5738,-0.3362,0.9111,-0.3509,-4.725,-10.850,-13.510,0.93,0.0368,0.1018,0.1212,0.0087,2025-06-11T08:57:54.732044
5739,-0.3118,0.8940,-0.3723,-8.015,-15.295,-12.390,0.93,0.0368,0.1273,0.1212,0.0174,2025-06-11T08:57:54.732044
5740,-0.2689,0.8804,-0.3680,-9.625,-15.890,-11.130,0.93,0.0368,0.1273,0.1314,0.0174,2025-06-11T08:57:54.732044
5741,-0.2606,0.8652,-0.3509,-11.585,-12.985,-10.710,0.93,0.0368,0.1273,0.1314,0.0087,2025-06-11T08:57:54.732044
5742,-0.2640,0.8535,-0.3445,-12.635,-10.500,-10.010,0.93,0.0368,0.1273,0.1416,0.0174,2025-06-11T08:57:54.732044
5743,-0.2913,0.8442,-0.3479,-13.475,-9.520,-9.030,0.93,0.0368,0.1018,0.1416,0.0087,2025-06-11T08:57:54.732044
5744,-0.3177,0.8281,-0.3382,-13.615,-9.940,-7.560,0.93,0.0368,0.1018,0.1416,0.0087,2025-06-11T08:57:54.732044
5745,-0.3206,0.8516,-0.3343,-13.335,-11.550,-5.635,0.93,0.0184,0.1273,0.1622,0.0087,2025-06-11T08:57:54.732044
5746,-0.3157,0.8999,-0.3675,-12.495,-12.985,-1.960,0.93,0.0368,0.1529,0.1416,0.0174,2025-06-11T08:57:54.732044
5747,-0.3109,0.9072,-0.4148,-11.165,-13.475,0.980,0.93,0.0368,0.1273,0.1622,0.0087,2025-06-11T08:57:54.733110
5748,-0.2889,0.9062,-0.4441,-10.115,-10.815,3.360,0.93,0.0184,0.1273,0.1519,0.0087,2025-06-11T08:57:54.733110
5749,-0.2650,0.8867,-0.4138,-9.135,-1.960,4.410,0.93,0.0368,0.1529,0.1622,0.0087,2025-06-11T08:57:54.733110
5750,-0.2621,0.8623,-0.3631,-8.540,7.805,4.060,0.93,0.0368,0.1273,0.1519,0.0087,2025-06-11T08:57:54.733110
5751,-0.2860,0.8398,-0.3299,-8.995,15.995,2.940,0.93,0.0368,0.1529,0.1622,0.0087,2025-06-11T08:57:54.733110
5752,-0.3148,0.8301,-0.3026,-9.940,19.985,1.750,0.93,0.0368,0.1529,0.1622,0.0087,2025-06-11T08:57:54.733110
5753,-0.3509,0.8194,-0.2923,-10.605,18.585,0.420,0.93,0.0184,0.1529,0.1622,0.0174,2025-06-11T08:57:54.733110
5754,-0.3675,0.8072,-0.2928,-10.640,13.300,-1.015,0.93,0.0368,0.1273,0.1622,0.0087,2025-06-11T08:57:54.733110
5755,-0.3621,0.7886,-0.2908,-10.185,8.190,-3.325,0.93,0.0184,0.1273,0.1622,0.0174,2025-06-11T08:57:54.858045
5756,-0.3660,0.7813,-0.2704,-9.555,2.240,-5.390,0.93,0.0368,0.1529,0.1416,0.0174,2025-06-11T08:57:54.858045
5757,-0.3636,0.7627,-0.2606,-9.100,-2.135,-8.540,0.93,0.0368,0.1273,0.1519,0.0174,2025-06-11T08:57:54.858045
5758,-0.3504,0.7715,-0.2562,-8.680,-4.725,-12.040,0.93,0.0368,0.1273,0.1622,0.0087,2025-06-11T08:57:54.858045
5759,-0.3665,0.7813,-0.2572,-8.365,-5.425,-16.205,0.93,0.0368,0.1529,0.1622,0.0174,2025-06-11T08:57:54.858045
5760,-0.3948,0.7891,-0.2757,-6.335,-7.735,-18.865,0.93,0.0368,0.1529,0.1519,0.0087,2025-06-11T08:57:54.858045
5761,-0.3977,0.7881,-0.3001,-3.710,-10.990,-21.175,0.93,0.0368,0.1529,0.1519,0.0174,2025-06-11T08:57:54.858045
5762,-0.3772,0.7857,-0.3055,-0.735,-13.265,-23.240,0.93,0.0184,0.1529,0.1519,0.0087,2025-06-11T08:57:54.858045
5763,-0.3655,0.7706,-0.3055,3.465,-12.495,-25.060,0.93,0.0184,0.1529,0.1519,0.0087,2025-06-11T08:57:54.858045
5764,-0.3587,0.7642,-0.3040,6.545,-9.940,-27.720,0.93,0.0368,0.1529,0.1519,0.0174,2025-06-11T08:57:54.859039
5765,-0.3650,0.7818,-0.3030,9.100,-7.000,-29.225,0.93,0.0368,0.1529,0.1416,0.0087,2025-06-11T08:57:54.859039
5766,-0.3670,0.8023,-0.3133,10.745,-5.320,-28.875,0.93,0.0368,0.1529,0.1519,0.0087,2025-06-11T08:57:54.859039
5767,-0.3845,0.8169,-0.3128,11.480,-4.655,-27.265,0.93,0.0368,0.1273,0.1416,0.0087,2025-06-11T08:57:54.859039
5768,-0.4050,0.8247,-0.3152,10.745,-6.405,-25.095,0.93,0.0184,0.1273,0.1519,0.0087,2025-06-11T08:57:54.859039
5769,-0.4192,0.8125,-0.3260,10.045,-10.850,-21.805,0.93,0.0184,0.1529,0.1622,0.0087,2025-06-11T08:57:54.859039
5770,-0.4163,0.7808,-0.3406,9.590,-14.630,-19.320,0.93,0.0368,0.1529,0.1725,0.0087,2025-06-11T08:57:54.859039
5771,-0.3963,0.7574,-0.3431,9.240,-17.150,-16.975,0.93,0.0368,0.1273,0.1725,0.0087,2025-06-11T08:57:54.859039
5772,-0.3850,0.7393,-0.3274,8.750,-16.940,-15.540,0.93,0.0368,0.1273,0.1622,0.0174,2025-06-11T08:57:55.045919
5773,-0.3836,0.7208,-0.3235,7.770,-16.240,-13.790,0.93,0.0368,0.1529,0.1828,0.0087,2025-06-11T08:57:55.045919
5774,-0.3904,0.7164,-0.3367,7.245,-16.170,-12.215,0.93,0.0368,0.1273,0.1725,0.0174,2025-06-11T08:57:55.045919
5775,-0.3982,0.7354,-0.3572,7.420,-16.485,-9.730,0.93,0.0368,0.1273,0.1725,0.0087,2025-06-11T08:57:55.045919
5776,-0.4036,0.7432,-0.3860,9.695,-15.995,-7.770,0.93,0.0368,0.1273,0.1828,0.0087,2025-06-11T08:57:55.045919
5777,-0.3972,0.7462,-0.4119,12.880,-14.420,-5.985,0.93,0.0368,0.1273,0.1828,0.0174,2025-06-11T08:57:55.045919
5778,-0.3938,0.7388,-0.4441,17.745,-9.940,-5.180,0.93,0.0368,0.1018,0.1828,0.0087,2025-06-11T08:57:55.045919
5779,-0.3967,0.7393,-0.4543,21.700,-4.270,-4.480,0.93,0.0368,0.1273,0.1622,0.0087,2025-06-11T08:57:55.045919
5780,-0.4124,0.7501,-0.4270,24.745,2.485,-3.780,0.93,0.0368,0.1018,0.1519,0.0174,2025-06-11T08:57:55.045919
5781,-0.4524,0.7608,-0.4236,25.935,5.250,-2.555,0.93,0.0368,0.1018,0.1519,0.0087,2025-06-11T08:57:55.045919
5782,-0.5036,0.7710,-0.4148,25.725,2.765,-0.035,0.93,0.0184,0.1273,0.1416,0.0087,2025-06-11T08:57:55.045919
5783,-0.5285,0.7876,-0.4026,23.135,-3.080,2.870,0.93,0.0368,0.1273,0.1519,0.0087,2025-06-11T08:57:55.045919
5784,-0.5339,0.8101,-0.3953,19.740,-10.850,6.440,0.93,0.0368,0.1273,0.1519,0.0174,2025-06-11T08:57:55.045919
5785,-0.5261,0.8242,-0.4016,15.365,-15.855,8.505,0.93,0.0368,0.1529,0.1519,0.0087,2025-06-11T08:57:55.045919
5786,-0.5114,0.8330,-0.4246,12.565,-19.180,10.010,0.93,0.0368,0.1529,0.1622,0.0087,2025-06-11T08:57:55.046916
5787,-0.4978,0.8408,-0.4402,10.675,-20.300,10.920,0.93,0.0368,0.1529,0.1622,0.0174,2025-06-11T08:57:55.046916
5788,-0.4719,0.8603,-0.4299,10.255,-17.780,11.550,0.93,0.0368,0.1529,0.1622,0.0087,2025-06-11T08:57:55.346626
5789,-0.4543,0.8784,-0.4285,10.675,-14.070,12.250,0.93,0.0184,0.1786,0.1725,0.0087,2025-06-11T08:57:55.346626
5790,-0.4641,0.8867,-0.4207,11.585,-9.380,12.845,0.93,0.0184,0.1786,0.1519,0.0174,2025-06-11T08:57:55.346626
5791,-0.4724,0.8935,-0.4075,12.670,-7.000,12.915,0.93,0.0368,0.1529,0.1622,0.0087,2025-06-11T08:57:55.346626
5792,-0.4870,0.8930,-0.4021,13.475,-5.635,12.740,0.93,0.0368,0.1529,0.1519,0.0087,2025-06-11T08:57:55.346626
5793,-0.4919,0.8886,-0.3782,14.210,-6.125,12.250,0.93,0.0368,0.1529,0.1622,0.0174,2025-06-11T08:57:55.346626
5794,-0.5002,0.8808,-0.3567,14.035,-9.030,11.795,0.93,0.0184,0.1529,0.1519,0.0174,2025-06-11T08:57:55.346626
5795,-0.4973,0.8652,-0.3475,13.090,-12.425,11.690,0.93,0.0184,0.1529,0.1519,0.0087,2025-06-11T08:57:55.346626
5796,-0.4821,0.8603,-0.3201,11.550,-15.470,12.005,0.93,0.0368,0.1529,0.1519,0.0087,2025-06-11T08:57:55.346626
5797,-0.4573,0.8462,-0.3011,9.205,-17.395,12.390,0.93,0.0368,0.1786,0.1519,0.0087,2025-06-11T08:57:55.346626
5798,-0.4294,0.8267,-0.3011,7.280,-17.360,12.705,0.93,0.0368,0.1529,0.1519,0.0087,2025-06-11T08:57:55.346626
5799,-0.4050,0.8111,-0.3074,5.040,-15.575,12.880,0.93,0.0368,0.1529,0.1622,0.0087,2025-06-11T08:57:55.346626
5800,-0.3914,0.7910,-0.3157,3.045,-13.615,12.600,0.93,0.0368,0.1786,0.1416,0.0087,2025-06-11T08:57:55.347614
5801,-0.3719,0.7764,-0.3284,1.330,-10.150,12.005,0.93,0.0184,0.1529,0.1416,0.0087,2025-06-11T08:57:55.347614
5802,-0.3762,0.7706,-0.3211,-0.420,-6.895,11.305,0.93,0.0368,0.1273,0.1519,0.0174,2025-06-11T08:57:55.347614
5803,-0.3850,0.7745,-0.3289,-1.785,-4.165,10.080,0.93,0.0368,0.1273,0.1416,0.0174,2025-06-11T08:57:55.453963
5804,-0.4021,0.7730,-0.3479,-2.940,-2.450,8.750,0.93,0.0368,0.1529,0.1725,0.0087,2025-06-11T08:57:55.453963
5805,-0.4260,0.7769,-0.3675,-3.605,-2.135,6.895,0.93,0.0184,0.1529,0.1725,0.0174,2025-06-11T08:57:55.453963
5806,-0.4358,0.7857,-0.3782,-3.920,-2.765,5.215,0.93,0.0368,0.1786,0.1725,0.0087,2025-06-11T08:57:55.453963
5807,-0.4412,0.7954,-0.3884,-3.955,-3.080,3.255,0.93,0.0184,0.1786,0.1828,0.0087,2025-06-11T08:57:55.453963
5808,-0.4348,0.8096,-0.3982,-3.570,-1.470,1.960,0.93,0.0368,0.1786,0.1828,0.0087,2025-06-11T08:57:55.453963
5809,-0.4177,0.8179,-0.4187,-2.800,1.365,1.155,0.93,0.0368,0.1786,0.1725,0.0087,2025-06-11T08:57:55.453963
5810,-0.4372,0.8174,-0.4304,-1.540,5.250,0.420,0.93,0.0184,0.1786,0.1622,0.0174,2025-06-11T08:57:55.453963
5811,-0.4660,0.8076,-0.4363,-0.315,6.790,0.070,0.93,0.0368,0.1529,0.1519,0.0087,2025-06-11T08:57:55.453963
5812,-0.4958,0.7969,-0.4207,-0.035,5.215,0.595,0.93,0.0368,0.1273,0.1519,0.0087,2025-06-11T08:57:55.454990
5813,-0.5178,0.7867,-0.3850,-0.455,0.210,1.820,0.93,0.0368,0.1529,0.1416,0.0174,2025-06-11T08:57:55.454990
5814,-0.5134,0.7759,-0.3528,-1.155,-5.320,3.640,0.93,0.0368,0.1529,0.1519,0.0087,2025-06-11T08:57:55.454990
5815,-0.4978,0.7740,-0.3426,-1.820,-11.585,5.285,0.93,0.0368,0.1529,0.1416,0.0087,2025-06-11T08:57:55.454990
5816,-0.4719,0.7715,-0.3479,-1.750,-14.735,6.335,0.93,0.0184,0.1529,0.1314,0.0087,2025-06-11T08:57:55.454990
5817,-0.4455,0.7666,-0.3523,-1.260,-15.435,6.685,0.93,0.0368,0.1529,0.1314,0.0174,2025-06-11T08:57:55.454990
5818,-0.4114,0.7715,-0.3440,0.245,-13.895,6.650,0.93,0.0368,0.1529,0.1314,0.0174,2025-06-11T08:57:55.959666
5819,-0.3875,0.7754,-0.3372,2.100,-10.430,6.405,0.93,0.0368,0.1529,0.1212,0.0174,2025-06-11T08:57:55.959666
5820,-0.3841,0.7803,-0.3338,4.795,-8.330,6.405,0.93,0.0368,0.1529,0.1212,0.0087,2025-06-11T08:57:55.959666
5821,-0.3870,0.7998,-0.3279,6.720,-7.455,6.895,0.93,0.0368,0.1529,0.1314,0.0087,2025-06-11T08:57:55.959666
5822,-0.3972,0.8106,-0.3431,8.890,-8.155,7.490,0.93,0.0184,0.1273,0.1109,0.0087,2025-06-11T08:57:55.959666
5823,-0.3992,0.8145,-0.3787,10.150,-10.010,8.015,0.93,0.0368,0.1273,0.1212,0.0087,2025-06-11T08:57:55.959666
5824,-0.3919,0.8169,-0.3977,10.955,-11.725,8.260,0.93,0.0368,0.1529,0.1212,0.0087,2025-06-11T08:57:55.959666
5825,-0.3787,0.8223,-0.4006,11.445,-10.885,8.155,0.93,0.0368,0.1529,0.1212,0.0087,2025-06-11T08:57:55.960696
5826,-0.3684,0.8198,-0.3963,11.235,-7.525,8.015,0.93,0.0368,0.1273,0.1212,0.0087,2025-06-11T08:57:55.960696
5827,-0.3723,0.8115,-0.4046,10.115,-5.075,8.085,0.93,0.0368,0.1273,0.1212,0.0174,2025-06-11T08:57:55.960696
5828,-0.3914,0.7925,-0.4119,8.645,-4.095,7.805,0.93,0.0184,0.1273,0.1314,0.0174,2025-06-11T08:57:55.960696
5829,-0.4080,0.7876,-0.3977,6.195,-4.865,7.455,0.93,0.0184,0.1529,0.1212,0.0087,2025-06-11T08:57:55.960696
5830,-0.4226,0.7774,-0.3845,3.640,-7.000,6.965,0.93,0.0368,0.1529,0.1314,0.0087,2025-06-11T08:57:55.960696
5831,-0.4250,0.7754,-0.3758,1.085,-10.745,6.195,0.93,0.0368,0.1529,0.1416,0.0087,2025-06-11T08:57:55.960696
5832,-0.4133,0.7730,-0.3694,-0.735,-12.740,5.390,0.93,0.0368,0.1529,0.1416,0.0174,2025-06-11T08:57:55.960696
5833,-0.3982,0.7691,-0.3645,-1.855,-13.195,4.060,0.93,0.0368,0.1529,0.1416,0.0174,2025-06-11T08:57:55.960696
5834,-0.3826,0.7637,-0.3645,-2.205,-12.425,2.625,0.93,0.0368,0.1529,0.1416,0.0087,2025-06-11T08:57:55.960696
5835,-0.3684,0.7657,-0.3523,-2.310,-10.220,1.120,0.93,0.0368,0.1273,0.1314,0.0174,2025-06-11T08:57:55.960696
5836,-0.3626,0.7740,-0.3494,-1.715,-7.525,-0.875,0.93,0.0368,0.1529,0.1314,0.0087,2025-06-11T08:57:55.960696
5837,-0.3655,0.7769,-0.3592,-0.560,-3.990,-2.835,0.93,0.0368,0.1529,0.1212,0.0174,2025-06-11T08:57:55.960696
5838,-0.3748,0.7886,-0.3704,0.455,-1.540,-4.655,0.93,0.0368,0.1529,0.1416,0.0087,2025-06-11T08:57:55.960696
5839,-0.3875,0.7969,-0.3816,1.330,0.770,-6.300,0.93,0.0368,0.1529,0.1314,0.0087,2025-06-11T08:57:55.960696
5840,-0.3997,0.8052,-0.3938,2.415,1.295,-7.070,0.93,0.0368,0.1529,0.1314,0.0174,2025-06-11T08:57:55.960696
5841,-0.4231,0.8135,-0.4046,3.185,-0.035,-7.350,0.93,0.0368,0.1529,0.1314,0.0174,2025-06-11T08:57:55.960696
5842,-0.4280,0.8145,-0.4207,4.025,-2.905,-6.790,0.93,0.0368,0.1529,0.1212,0.0174,2025-06-11T08:57:55.960696
5843,-0.4202,0.8159,-0.4407,4.690,-5.320,-5.670,0.93,0.0368,0.1529,0.1212,0.0174,2025-06-11T08:57:55.960696
5844,-0.3943,0.8130,-0.4431,4.690,-6.055,-3.570,0.93,0.0368,0.1529,0.1212,0.0087,2025-06-11T08:57:55.961726
5845,-0.3762,0.8067,-0.4280,3.990,-4.270,-1.470,0.93,0.0368,0.1529,0.1212,0.0087,2025-06-11T08:57:55.961726
5846,-0.3675,0.7998,-0.4260,3.045,-1.400,1.295,0.93,0.0368,0.1529,0.1314,0.0087,2025-06-11T08:57:55.961726
5847,-0.3728,0.7945,-0.4260,1.750,0.035,3.640,0.93,0.0368,0.1529,0.1314,0.0087,2025-06-11T08:57:55.961726
5848,-0.3860,0.7901,-0.4182,0.840,-0.035,6.160,0.93,0.0368,0.1529,0.1314,0.0174,2025-06-11T08:57:55.961726
5849,-0.3767,0.7910,-0.4031,0.700,-1.540,7.980,0.93,0.0368,0.1529,0.1314,0.0087,2025-06-11T08:57:55.961726
5850,-0.3655,0.7993,-0.4006,1.295,-2.415,9.345,0.93,0.0368,0.1529,0.1212,0.0087,2025-06-11T08:57:55.961726
5851,-0.3494,0.8028,-0.4172,2.275,-2.310,10.290,0.93,0.0368,0.1529,0.1314,0.0174,2025-06-11T08:57:56.194371
5852,-0.3328,0.8032,-0.4163,3.150,-0.700,10.605,0.93,0.0552,0.1786,0.1314,0.0174,2025-06-11T08:57:56.194371
5853,-0.3143,0.8062,-0.3880,3.745,3.150,10.570,0.93,0.0368,0.1529,0.1314,0.0174,2025-06-11T08:57:56.194371
5854,-0.3279,0.8008,-0.3680,3.710,6.475,10.290,0.93,0.0552,0.1529,0.1212,0.0087,2025-06-11T08:57:56.194371
5855,-0.3601,0.7945,-0.3704,3.360,7.770,9.835,0.93,0.0368,0.1529,0.1416,0.0087,2025-06-11T08:57:56.194371
5856,-0.3875,0.7964,-0.3704,2.905,6.160,9.275,0.93,0.0368,0.1529,0.1314,0.0087,2025-06-11T08:57:56.194371
5857,-0.3943,0.7984,-0.3723,2.695,3.675,8.365,0.93,0.0368,0.1529,0.1314,0.0174,2025-06-11T08:57:56.194371
5858,-0.3914,0.8057,-0.3806,3.080,1.260,7.455,0.93,0.0368,0.1529,0.1314,0.0087,2025-06-11T08:57:56.194371
5859,-0.3826,0.8179,-0.3972,3.955,0.385,5.740,0.93,0.0368,0.1529,0.1314,0.0174,2025-06-11T08:57:56.266260
5860,-0.3723,0.8237,-0.4050,5.320,0.630,4.095,0.93,0.0368,0.1786,0.1416,0.0087,2025-06-11T08:57:56.267065
5861,-0.3538,0.8301,-0.4133,6.545,1.645,2.275,0.93,0.0368,0.1786,0.1416,0.0174,2025-06-11T08:57:56.267065
5862,-0.3504,0.8350,-0.4085,7.525,3.465,1.085,0.93,0.0368,0.1786,0.1519,0.0174,2025-06-11T08:57:56.267065
5863,-0.3543,0.8340,-0.4099,7.910,5.215,0.000,0.93,0.0368,0.1786,0.1416,0.0087,2025-06-11T08:57:56.267318
5864,-0.3660,0.8345,-0.4124,8.050,5.985,-1.120,0.93,0.0368,0.1786,0.1416,0.0087,2025-06-11T08:57:56.267318
5865,-0.3816,0.8276,-0.4192,7.490,4.130,-1.575,0.93,0.0368,0.1786,0.1519,0.0174,2025-06-11T08:57:56.267318
5866,-0.3914,0.8252,-0.4182,6.615,0.630,-1.995,0.93,0.0368,0.1786,0.1519,0.0087,2025-06-11T08:57:56.267318
5867,-0.3855,0.8228,-0.4153,5.985,-4.025,-1.820,0.93,0.0368,0.1529,0.1416,0.0087,2025-06-11T08:57:56.267318
5868,-0.3665,0.8194,-0.4211,5.075,-6.370,-1.610,0.94,0.0368,0.1786,0.1416,0.0087,2025-06-11T08:57:56.267318
5869,-0.3343,0.8213,-0.4255,4.585,-6.265,-1.085,0.93,0.0368,0.1529,0.1519,0.0087,2025-06-11T08:57:56.267318
5870,-0.3196,0.8203,-0.4353,4.165,-3.990,-0.210,0.93,0.0552,0.1786,0.1416,0.0087,2025-06-11T08:57:56.267318
5871,-0.3118,0.8228,-0.4455,3.885,-0.875,0.840,0.93,0.0368,0.1529,0.1519,0.0087,2025-06-11T08:57:56.267318
5872,-0.3172,0.8247,-0.4475,3.150,2.135,2.065,0.93,0.0368,0.1529,0.1519,0.0087,2025-06-11T08:57:56.267318
5873,-0.3235,0.8237,-0.4460,2.240,3.710,3.465,0.93,0.0368,0.1529,0.1519,0.0087,2025-06-11T08:57:56.267318
5874,-0.3436,0.8247,-0.4529,1.225,3.850,5.005,0.93,0.0368,0.1529,0.1519,0.0087,2025-06-11T08:57:56.267318
5875,-0.3523,0.8296,-0.4494,-0.350,2.695,5.880,0.93,0.0368,0.1786,0.1519,0.0174,2025-06-11T08:57:56.267318
5876,-0.3558,0.8345,-0.4470,-1.820,0.945,6.615,0.93,0.0368,0.1529,0.1519,0.0174,2025-06-11T08:57:56.267318
5877,-0.3509,0.8369,-0.4436,-3.185,-0.665,6.860,0.94,0.0184,0.1529,0.1519,0.0087,2025-06-11T08:57:56.480713
5878,-0.3445,0.8369,-0.4382,-4.095,-1.505,6.825,0.93,0.0368,0.1786,0.1519,0.0174,2025-06-11T08:57:56.480713
5879,-0.3382,0.8311,-0.4392,-4.760,-1.120,6.335,0.93,0.0552,0.1786,0.1519,0.0174,2025-06-11T08:57:56.480713
5880,-0.3260,0.8267,-0.4270,-5.040,-0.070,5.880,0.93,0.0552,0.1529,0.1519,0.0087,2025-06-11T08:57:56.480713
5881,-0.3245,0.8267,-0.4124,-5.425,1.470,5.740,0.93,0.0368,0.1786,0.1519,0.0174,2025-06-11T08:57:56.480713
5882,-0.3289,0.8233,-0.4246,-5.600,2.485,5.600,0.93,0.0368,0.1786,0.1519,0.0087,2025-06-11T08:57:56.480713
5883,-0.3314,0.8247,-0.4363,-5.740,2.695,5.495,0.93,0.0184,0.1529,0.1519,0.0087,2025-06-11T08:57:56.480713
5884,-0.3318,0.8296,-0.4358,-5.565,2.485,5.495,0.94,0.0368,0.1529,0.1519,0.0087,2025-06-11T08:57:56.480713
5885,-0.3260,0.8281,-0.4329,-5.670,2.520,5.705,0.93,0.0368,0.1529,0.1519,0.0087,2025-06-11T08:57:56.480713
5886,-0.3221,0.8213,-0.4265,-5.775,2.800,5.915,0.93,0.0368,0.1786,0.1416,0.0087,2025-06-11T08:57:56.480713
5887,-0.3245,0.8194,-0.4207,-6.055,2.765,6.055,0.93,0.0184,0.1529,0.1416,0.0087,2025-06-11T08:57:56.480713
5888,-0.3265,0.8150,-0.4275,-6.440,2.905,5.740,0.94,0.0184,0.1529,0.1416,0.0174,2025-06-11T08:57:56.480713
5889,-0.3255,0.8174,-0.4275,-6.790,3.185,5.565,0.93,0.0368,0.1529,0.1416,0.0087,2025-06-11T08:57:56.480713
5890,-0.3235,0.8218,-0.4207,-7.210,3.255,4.935,0.93,0.0184,0.1529,0.1519,0.0087,2025-06-11T08:57:56.480713
5891,-0.3235,0.8208,-0.4221,-7.525,3.010,4.620,0.94,0.0368,0.1786,0.1416,0.0087,2025-06-11T08:57:56.481707
5892,-0.3221,0.8159,-0.4172,-7.735,2.310,4.130,0.93,0.0368,0.1786,0.1416,0.0087,2025-06-11T08:57:56.481707
5893,-0.3211,0.8106,-0.4080,-7.525,1.470,3.325,0.94,0.0368,0.1786,0.1416,0.0087,2025-06-11T08:57:56.481707
5894,-0.3211,0.8067,-0.4046,-7.280,0.805,2.625,0.93,0.0368,0.1786,0.1416,0.0174,2025-06-11T08:57:56.680015
5895,-0.3196,0.8018,-0.3997,-6.580,-0.140,1.890,0.93,0.0368,0.1786,0.1622,0.0174,2025-06-11T08:57:56.680015
5896,-0.3172,0.8013,-0.3943,-5.425,-0.735,1.120,0.94,0.0368,0.1529,0.1622,0.0174,2025-06-11T08:57:56.680015
5897,-0.3113,0.8013,-0.3953,-4.025,-0.630,0.210,0.94,0.0552,0.1529,0.1725,0.0174,2025-06-11T08:57:56.680015
5898,-0.3050,0.8037,-0.3963,-1.855,-0.105,-0.840,0.93,0.0184,0.1529,0.1519,0.0174,2025-06-11T08:57:56.680015
5899,-0.2991,0.8052,-0.3977,-0.315,1.330,-2.030,0.93,0.0368,0.1529,0.1622,0.0087,2025-06-11T08:57:56.680015
5900,-0.2977,0.8111,-0.3958,1.400,3.255,-3.080,0.93,0.0368,0.1786,0.1519,0.0087,2025-06-11T08:57:56.680015
5901,-0.3060,0.8150,-0.3958,2.695,4.235,-4.025,0.93,0.0368,0.1529,0.1519,0.0087,2025-06-11T08:57:56.680015
5902,-0.3148,0.8174,-0.4016,3.640,3.990,-4.585,0.94,0.0368,0.1529,0.1622,0.0087,2025-06-11T08:57:56.680015
5903,-0.3216,0.8237,-0.4060,4.235,3.290,-5.180,0.94,0.0368,0.1529,0.1622,0.0087,2025-06-11T08:57:56.681082
5904,-0.3182,0.8301,-0.4148,4.480,3.045,-5.285,0.93,0.0368,0.1786,0.1519,0.0087,2025-06-11T08:57:56.681082
5905,-0.3240,0.8330,-0.4255,4.130,2.695,-5.285,0.93,0.0368,0.1786,0.1519,0.0087,2025-06-11T08:57:56.681082
5906,-0.3255,0.8428,-0.4338,3.465,2.205,-4.865,0.93,0.0184,0.1529,0.1519,0.0087,2025-06-11T08:57:56.681082
5907,-0.3235,0.8491,-0.4343,2.485,1.505,-3.990,0.94,0.0184,0.1529,0.1622,0.0087,2025-06-11T08:57:56.681082
5908,-0.3250,0.8516,-0.4402,0.910,1.295,-2.940,0.93,0.0368,0.1786,0.1725,0.0087,2025-06-11T08:57:56.681082
5909,-0.3255,0.8545,-0.4363,-0.350,1.155,-1.960,0.94,0.0368,0.1786,0.1622,0.0087,2025-06-11T08:57:56.985780
5910,-0.3274,0.8564,-0.4270,-2.030,0.385,-1.225,0.94,0.0368,0.1786,0.1622,0.0174,2025-06-11T08:57:56.986779
5911,-0.3279,0.8550,-0.4221,-3.255,-0.595,-0.525,0.94,0.0368,0.1786,0.1622,0.0087,2025-06-11T08:57:56.986779
5912,-0.3299,0.8520,-0.4221,-4.165,-1.890,-0.595,0.93,0.0368,0.1529,0.1725,0.0174,2025-06-11T08:57:56.986779
5913,-0.3221,0.8486,-0.4138,-4.865,-2.625,-0.770,0.93,0.0368,0.1786,0.1622,0.0087,2025-06-11T08:57:56.986779
5914,-0.3070,0.8447,-0.3997,-5.005,-2.310,-1.120,0.93,0.0184,0.1786,0.1622,0.0087,2025-06-11T08:57:56.986779
5915,-0.3074,0.8335,-0.4021,-4.900,-1.470,-1.470,0.93,0.0368,0.1529,0.1622,0.0174,2025-06-11T08:57:56.986779
5916,-0.3143,0.8164,-0.4094,-4.480,-1.085,-1.855,0.93,0.0368,0.1529,0.1622,0.0087,2025-06-11T08:57:56.986779
5917,-0.3172,0.8047,-0.3987,-3.465,-1.505,-2.170,0.93,0.0368,0.1273,0.1622,0.0087,2025-06-11T08:57:56.986779
5918,-0.3255,0.7950,-0.3982,-2.310,-2.730,-2.800,0.93,0.0368,0.1529,0.1622,0.0087,2025-06-11T08:57:56.987776
5919,-0.3270,0.7881,-0.4031,-0.945,-5.215,-3.675,0.93,0.0368,0.1529,0.1622,0.0174,2025-06-11T08:57:56.987776
5920,-0.3260,0.7798,-0.4016,0.875,-7.700,-4.795,0.93,0.0184,0.1273,0.1622,0.0087,2025-06-11T08:57:56.987776
5921,-0.3235,0.7686,-0.4002,2.380,-10.185,-6.615,0.93,0.0368,0.1529,0.1622,0.0087,2025-06-11T08:57:56.987776
5922,-0.3255,0.7574,-0.3982,4.060,-12.040,-8.365,0.93,0.0368,0.1529,0.1519,0.0087,2025-06-11T08:57:56.987776
5923,-0.3265,0.7574,-0.3865,5.495,-13.895,-9.905,0.93,0.0184,0.1529,0.1416,0.0174,2025-06-11T08:57:56.987776
5924,-0.3357,0.7544,-0.3811,7.350,-16.450,-11.095,0.94,0.0552,0.1529,0.1622,0.0174,2025-06-11T08:57:57.090756
5925,-0.3470,0.7549,-0.3845,9.240,-19.985,-12.600,0.93,0.0368,0.1529,0.1416,0.0174,2025-06-11T08:57:57.090756
5926,-0.3831,0.7525,-0.3816,11.305,-25.865,-14.910,0.94,0.0368,0.1786,0.1622,0.0087,2025-06-11T08:57:57.090756
5927,-0.4885,0.7549,-0.4041,14.035,-30.275,-16.205,0.94,0.0368,0.1529,0.1519,0.0087,2025-06-11T08:57:57.090756
5928,-0.3616,0.7779,-0.3963,17.220,-35.560,-17.745,0.93,0.0368,0.1273,0.1519,0.0087,2025-06-11T08:57:57.090756
5929,-0.3684,0.7847,-0.3836,18.865,-40.250,-19.180,0.94,0.0368,0.1273,0.1416,0.0174,2025-06-11T08:57:57.091189
5930,-0.3865,0.7764,-0.3753,20.195,-46.760,-21.350,0.93,0.0368,0.1529,0.1314,0.0174,2025-06-11T08:57:57.091189
5931,-0.3972,0.7618,-0.3845,21.770,-53.760,-23.835,0.93,0.0184,0.1529,0.1416,0.0087,2025-06-11T08:57:57.091189
5932,-0.3777,0.7686,-0.3933,21.280,-57.435,-27.090,0.93,0.0368,0.1529,0.1314,0.0174,2025-06-11T08:57:57.091189
5933,-0.3582,0.7681,-0.4080,21.525,-56.875,-30.240,0.93,0.0368,0.1786,0.1416,0.0174,2025-06-11T08:57:57.091189
5934,-0.3548,0.7613,-0.4109,20.510,-50.575,-33.705,0.93,0.0184,0.1786,0.1519,0.0087,2025-06-11T08:57:57.091189
5935,-0.2977,0.7925,-0.3963,20.020,-42.560,-34.195,0.93,0.0368,0.1786,0.1212,0.0087,2025-06-11T08:57:57.091189
5936,-0.2996,0.7901,-0.4075,18.550,-28.875,-34.895,0.93,0.0368,0.1786,0.1212,0.0087,2025-06-11T08:57:57.091189
5937,-0.3104,0.8111,-0.4538,16.415,-15.225,-36.015,0.93,0.0184,0.1786,0.1416,0.0087,2025-06-11T08:57:57.091189
5938,-0.3333,0.8150,-0.4948,14.525,1.400,-36.820,0.93,0.0184,0.1786,0.1416,0.0174,2025-06-11T08:57:57.091189
5939,-0.3528,0.8228,-0.5080,12.740,12.670,-35.560,0.93,0.0368,0.1786,0.1416,0.0174,2025-06-11T08:57:57.394253
5940,-0.3714,0.8218,-0.4909,11.095,22.715,-32.340,0.93,0.0368,0.2043,0.1519,0.0174,2025-06-11T08:57:57.395321
5941,-0.4089,0.8135,-0.4953,9.065,27.930,-29.190,0.93,0.0368,0.2043,0.1416,0.0174,2025-06-11T08:57:57.395321
5942,-0.4538,0.8091,-0.4919,7.700,29.190,-25.200,0.93,0.0368,0.2043,0.1416,0.0087,2025-06-11T08:57:57.395321
5943,-0.4865,0.8037,-0.4900,5.180,26.390,-21.665,0.93,0.0184,0.1786,0.1519,0.0174,2025-06-11T08:57:57.395321
5944,-0.5070,0.7954,-0.4968,3.535,21.630,-17.395,0.93,0.0368,0.2043,0.1416,0.0087,2025-06-11T08:57:57.395321
5945,-0.5075,0.7935,-0.4870,2.170,15.015,-14.140,0.93,0.0368,0.2043,0.1416,0.0174,2025-06-11T08:57:57.395321
5946,-0.5080,0.7847,-0.4900,1.050,10.115,-10.885,0.93,0.0368,0.2043,0.1519,0.0087,2025-06-11T08:57:57.395321
5947,-0.4934,0.7745,-0.4953,-0.175,6.755,-8.925,0.93,0.0184,0.1786,0.1519,0.0087,2025-06-11T08:57:57.395321
5948,-0.4831,0.7706,-0.4870,-1.050,6.090,-7.595,0.93,0.0184,0.1786,0.1416,0.0174,2025-06-11T08:57:57.395321
5949,-0.4738,0.7584,-0.4748,-2.030,6.790,-6.230,0.93,0.0368,0.2043,0.1314,0.0087,2025-06-11T08:57:57.395321
5950,-0.4792,0.7432,-0.4685,-2.800,7.700,-5.530,0.93,0.0368,0.2043,0.1519,0.0087,2025-06-11T08:57:57.395321
5951,-0.5026,0.7276,-0.4548,-3.430,7.525,-5.005,0.93,0.0368,0.1786,0.1519,0.0174,2025-06-11T08:57:57.395321
5952,-0.5178,0.7169,-0.4333,-3.080,4.340,-4.515,0.93,0.0368,0.1786,0.1519,0.0174,2025-06-11T08:57:57.395321
5953,-0.5270,0.7017,-0.4211,-2.205,-0.630,-3.325,0.93,0.0368,0.1786,0.1416,0.0087,2025-06-11T08:57:57.395321
5954,-0.5412,0.7013,-0.4250,-0.350,-7.525,-2.310,0.93,0.0368,0.2043,0.1314,0.0174,2025-06-11T08:57:57.507326
5955,-0.5466,0.7105,-0.4372,1.085,-13.300,-1.120,0.94,0.0368,0.2043,0.1212,0.0174,2025-06-11T08:57:57.507326
5956,-0.5461,0.7300,-0.4358,2.065,-18.690,1.225,0.94,0.0184,0.1786,0.1212,0.0174,2025-06-11T08:57:57.507649
5957,-0.5573,0.7466,-0.4348,2.555,-22.155,4.340,0.94,0.0368,0.1786,0.1109,0.0174,2025-06-11T08:57:57.507649
5958,-0.5910,0.7471,-0.4412,2.450,-26.985,9.835,0.93,0.0184,0.2043,0.1212,0.0087,2025-06-11T08:57:57.507649
5959,-0.6012,0.7515,-0.4534,2.660,-32.340,15.085,0.94,0.0368,0.1786,0.1109,0.0087,2025-06-11T08:57:57.507649
5960,-0.6056,0.7832,-0.4831,3.535,-40.250,21.420,0.93,0.0368,0.1786,0.1212,0.0087,2025-06-11T08:57:57.507649
5961,-0.5963,0.7964,-0.5373,4.095,-51.695,26.145,0.93,0.0368,0.1786,0.1416,0.0087,2025-06-11T08:57:57.507649
5962,-0.5441,0.7910,-0.5427,3.185,-61.145,29.470,0.93,0.0368,0.1786,0.1212,0.0087,2025-06-11T08:57:57.507649
5963,-0.4782,0.8018,-0.5202,-0.350,-68.600,30.380,0.93,0.0368,0.1786,0.1416,0.0087,2025-06-11T08:57:57.507649
5964,-0.4192,0.8028,-0.5187,-3.990,-69.825,30.485,0.93,0.0368,0.1786,0.1212,0.0087,2025-06-11T08:57:57.507649
5965,-0.3650,0.8003,-0.5104,-9.345,-65.275,30.170,0.93,0.0368,0.1786,0.1212,0.0087,2025-06-11T08:57:57.507649
5966,-0.3367,0.8194,-0.4704,-15.785,-58.800,29.050,0.93,0.0184,0.1786,0.1212,0.0087,2025-06-11T08:57:57.507649
5967,-0.3270,0.8086,-0.4734,-21.140,-50.435,27.160,0.93,0.0368,0.1786,0.1314,0.0087,2025-06-11T08:57:57.507649
5968,-0.3372,0.7915,-0.4797,-25.235,-45.395,25.620,0.93,0.0368,0.1786,0.1212,0.0000,2025-06-11T08:57:57.507649
5969,-0.3514,0.7798,-0.4431,-26.950,-41.475,22.015,0.93,0.0368,0.1786,0.1314,0.0174,2025-06-11T08:57:57.693658
5970,-0.3899,0.7662,-0.3997,-28.280,-36.820,17.535,0.93,0.0184,0.1786,0.1416,0.0087,2025-06-11T08:57:57.693658
5971,-0.4104,0.7422,-0.3880,-26.705,-38.465,13.860,0.93,0.0184,0.1786,0.1314,0.0174,2025-06-11T08:57:57.693658
5972,-0.4416,0.7369,-0.3323,-22.995,-42.420,10.710,0.93,0.0368,0.1529,0.1212,0.0174,2025-06-11T08:57:57.693658
5973,-0.4743,0.7427,-0.2865,-20.825,-47.705,6.335,0.93,0.0368,0.1786,0.1416,0.0087,2025-06-11T08:57:57.693658
5974,-0.4963,0.7315,-0.2689,-17.570,-51.170,2.975,0.93,0.0368,0.1273,0.1416,0.0087,2025-06-11T08:57:57.693658
5975,-0.5109,0.7505,-0.2503,-14.945,-56.595,0.805,0.93,0.0184,0.1273,0.1416,0.0174,2025-06-11T08:57:57.693658
5976,-0.4997,0.7476,-0.2381,-12.635,-62.860,1.470,0.93,0.0368,0.1529,0.1314,0.0087,2025-06-11T08:57:57.693658
5977,-0.5070,0.7510,-0.2289,-10.115,-65.800,0.350,0.93,0.0184,0.1786,0.1314,0.0087,2025-06-11T08:57:57.693658
5978,-0.5026,0.7652,-0.2420,-7.735,-66.010,-1.155,0.93,0.0184,0.1529,0.1416,0.0174,2025-06-11T08:57:57.693658
5979,-0.4958,0.7671,-0.2835,-6.790,-62.755,-3.185,0.93,0.0368,0.1529,0.1314,0.0087,2025-06-11T08:57:57.693658
5980,-0.4704,0.7935,-0.2938,-6.755,-54.915,-4.095,0.93,0.0368,0.1529,0.1212,0.0174,2025-06-11T08:57:57.693658
5981,-0.4758,0.8120,-0.2908,-7.875,-45.430,-4.795,0.94,0.0368,0.1273,0.1314,0.0087,2025-06-11T08:57:57.693658
5982,-0.4768,0.8067,-0.2943,-8.435,-33.810,-4.165,0.93,0.0368,0.1273,0.1416,0.0087,2025-06-11T08:57:57.693658
5983,-0.4817,0.8091,-0.2645,-9.940,-24.045,-2.660,0.94,0.0184,0.1786,0.1416,0.0087,2025-06-11T08:57:57.693658
5984,-0.5251,0.8057,-0.2542,-11.130,-14.875,-0.350,0.93,0.0368,0.1529,0.1416,0.0174,2025-06-11T08:57:58.008604
5985,-0.5710,0.7974,-0.2728,-13.020,-11.515,2.310,0.93,0.0184,0.1529,0.1314,0.0174,2025-06-11T08:57:58.008604
5986,-0.5988,0.7925,-0.2806,-14.630,-12.635,6.230,0.94,0.0184,0.1273,0.1314,0.0174,2025-06-11T08:57:58.008604
5987,-0.5846,0.7959,-0.2806,-16.135,-14.175,8.995,0.93,0.0184,0.1273,0.1314,0.0174,2025-06-11T08:57:58.008604
5988,-0.4314,0.7696,-0.2718,-16.870,-7.035,12.110,0.94,0.0368,0.1529,0.1416,0.0174,2025-06-11T08:57:58.008604
5989,-0.0590,0.3426,0.1396,19.495,108.710,31.150,0.93,0.0368,0.1273,0.2139,0.0087,2025-06-11T08:57:58.008604
5990,-0.9731,0.7662,0.3680,37.310,118.160,29.365,0.93,0.0368,0.1529,0.1622,0.0174,2025-06-11T08:57:58.008604
5991,-0.8506,0.7618,-0.5412,26.110,49.840,28.385,0.93,0.0368,0.1786,0.1212,0.0087,2025-06-11T08:57:58.008604
5992,-0.8330,0.7959,-0.3831,33.145,-15.540,33.670,0.93,0.0184,0.1786,0.1314,0.0087,2025-06-11T08:57:58.008604
5993,-0.7788,0.8286,-0.1791,21.875,-64.540,34.545,0.94,0.0368,0.1786,0.1519,0.0087,2025-06-11T08:57:58.009671
5994,-0.5851,0.8350,-0.0942,21.525,-78.190,29.960,0.94,0.0368,0.1529,0.1416,0.0087,2025-06-11T08:57:58.009671
5995,-0.4368,0.8154,-0.2850,19.810,-87.605,26.285,0.93,0.0368,0.1786,0.1622,0.0087,2025-06-11T08:57:58.009671
5996,-0.3436,0.8398,-0.3338,16.870,-83.580,21.210,0.93,0.0184,0.1786,0.1519,0.0174,2025-06-11T08:57:58.009671
5997,-0.2396,0.8696,-0.3484,16.345,-58.625,12.460,0.93,0.0184,0.1786,0.1622,0.0174,2025-06-11T08:57:58.009671
5998,-0.1488,0.8921,-0.3772,14.805,-33.880,6.020,0.93,0.0552,0.2043,0.1519,0.0087,2025-06-11T08:57:58.009671
5999,-0.1620,0.9150,-0.3601,10.675,-9.555,-0.385,0.93,0.0368,0.2043,0.1416,0.0174,2025-06-11T08:57:58.114065
6000,-0.2186,0.9165,-0.3470,5.775,4.865,-4.620,0.93,0.0368,0.2043,0.1416,0.0174,2025-06-11T08:57:58.114065
6001,-0.3021,0.9126,-0.3377,0.945,12.145,-7.630,0.93,0.0368,0.2043,0.1416,0.0174,2025-06-11T08:57:58.338655
6002,-0.3894,0.9028,-0.3362,-6.160,7.420,-8.785,0.94,0.0552,0.2043,0.1416,0.0174,2025-06-11T08:57:58.338655
6003,-0.4460,0.8901,-0.3284,-10.955,-2.485,-7.665,0.94,0.0368,0.1786,0.1416,0.0174,2025-06-11T08:57:58.338655
6004,-0.4504,0.8847,-0.3113,-14.805,-13.440,-5.425,0.93,0.0368,0.2301,0.1314,0.0174,2025-06-11T08:57:58.338655
6005,-0.4333,0.8672,-0.2913,-17.535,-18.620,-2.975,0.93,0.0368,0.2043,0.1416,0.0087,2025-06-11T08:57:58.338655
6006,-0.6032,0.6539,-0.2094,-14.175,-24.745,1.680,0.93,0.0368,0.2043,0.1519,0.0174,2025-06-11T08:57:58.338655
6007,-0.4890,0.6329,0.0488,-1.190,-21.455,7.945,0.94,0.0184,0.1786,0.1519,0.0174,2025-06-11T08:57:58.338655
6008,-0.4758,0.7042,-0.1200,11.795,-7.070,5.215,0.94,0.0368,0.1786,0.1519,0.0087,2025-06-11T08:57:58.338655
6009,-0.4416,0.7798,-0.3006,15.155,2.625,3.255,0.93,0.0368,0.1786,0.1416,0.0174,2025-06-11T08:57:58.338655
6010,-0.4558,0.7984,-0.3143,14.315,17.780,2.765,0.94,0.0368,0.1786,0.1416,0.0087,2025-06-11T08:57:58.338655
6011,-0.5256,0.8037,-0.2967,14.735,6.615,3.150,0.93,0.0368,0.1786,0.1416,0.0087,2025-06-11T08:57:58.338655
6012,-0.5495,0.8374,-0.2655,16.520,4.165,4.235,0.94,0.0184,0.1786,0.1212,0.0087,2025-06-11T08:57:58.338655
6013,-0.5104,0.8506,-0.2172,17.570,-0.455,3.990,0.93,0.0184,0.1786,0.1519,0.0087,2025-06-11T08:57:58.338655
6014,-0.4680,0.8638,-0.2957,17.465,-4.095,3.815,0.93,0.0368,0.1786,0.1416,0.0174,2025-06-11T08:57:58.350511
6015,-0.4182,0.8799,-0.3182,13.650,-4.795,1.680,0.94,0.0368,0.2043,0.1416,0.0174,2025-06-11T08:57:58.350511
6016,-0.3738,0.9018,-0.3157,8.050,-1.470,-2.135,0.94,0.0368,0.1786,0.1416,0.0087,2025-06-11T08:57:58.350511
6017,-0.3509,0.9121,-0.3314,2.100,2.765,-6.405,0.93,0.0368,0.2043,0.1519,0.0174,2025-06-11T08:57:58.350511
6018,-0.3606,0.9209,-0.3431,-5.670,4.270,-9.835,0.94,0.0368,0.2043,0.1416,0.0174,2025-06-11T08:57:58.350511
6019,-0.3797,0.9292,-0.3499,-11.970,3.850,-14.560,0.93,0.0368,0.1786,0.1519,0.0174,2025-06-11T08:57:58.350511
6020,-0.3826,0.9262,-0.3518,-18.515,2.730,-17.780,0.93,0.0184,0.1786,0.1416,0.0087,2025-06-11T08:57:58.350511
6021,-0.8281,0.4982,-0.2943,-20.125,-7.035,-15.365,0.93,0.0368,0.1786,0.1622,0.0174,2025-06-11T08:57:58.350511
6022,-0.1869,0.7237,0.3504,5.285,8.225,-14.700,0.93,0.0368,0.2043,0.1622,0.0174,2025-06-11T08:57:58.350511
6023,-0.4978,0.6407,-0.2801,12.565,32.725,-20.720,0.93,0.0184,0.1786,0.1622,0.0087,2025-06-11T08:57:58.350511
6024,-0.5197,0.8047,-0.4475,11.620,25.025,-20.580,0.93,0.0368,0.2043,0.1622,0.0087,2025-06-11T08:57:58.350511
6025,-0.4690,0.8540,-0.4968,6.510,11.865,-23.240,0.93,0.0184,0.2043,0.1622,0.0087,2025-06-11T08:57:58.350511
6026,-0.4607,0.8745,-0.4690,-1.050,9.905,-24.500,0.94,0.0184,0.1786,0.1519,0.0174,2025-06-11T08:57:58.350511
6027,-0.4085,0.8525,-0.3889,-3.115,13.965,-22.050,0.93,0.0368,0.1786,0.1622,0.0087,2025-06-11T08:57:58.350511
6028,-0.3675,0.8364,-0.3328,-2.520,21.350,-19.985,0.93,0.0368,0.1786,0.1519,0.0087,2025-06-11T08:57:58.350511
6029,-0.3797,0.8257,-0.3050,-2.240,28.175,-18.935,0.93,0.0368,0.2043,0.1622,0.0174,2025-06-11T08:57:58.350511
6030,-0.3850,0.8242,-0.2830,-0.910,34.090,-17.010,0.93,0.0368,0.1786,0.1519,0.0174,2025-06-11T08:57:58.350511
6031,-0.3855,0.8335,-0.2704,-1.995,36.610,-16.170,0.93,0.0368,0.1786,0.1622,0.0174,2025-06-11T08:57:58.399176
6032,-0.3802,0.8428,-0.3157,-4.655,39.305,-15.225,0.93,0.0368,0.1786,0.1622,0.0174,2025-06-11T08:57:58.399176
6033,-0.4021,0.8584,-0.3504,-7.805,43.750,-14.350,0.93,0.0368,0.1786,0.1622,0.0174,2025-06-11T08:57:58.399176
6034,-0.4182,0.8638,-0.3528,-11.025,46.235,-12.565,0.93,0.0368,0.2043,0.1622,0.0174,2025-06-11T08:57:58.399176
6035,-0.4387,0.8833,-0.3489,-14.700,45.990,-8.855,0.93,0.0368,0.1786,0.1622,0.0087,2025-06-11T08:57:58.528024
6036,-0.4929,0.8862,-0.3577,-17.500,43.820,-3.570,0.93,0.0368,0.1786,0.1519,0.0174,2025-06-11T08:57:58.528024
6037,-0.5148,0.8808,-0.3206,-19.740,36.925,-0.420,0.94,0.0368,0.1786,0.1314,0.0174,2025-06-11T08:57:58.528024
6038,-0.5192,0.8589,-0.2913,-22.820,32.340,0.735,0.94,0.0368,0.1786,0.1416,0.0174,2025-06-11T08:57:58.528024
6039,-0.5817,0.8154,-0.2952,-24.885,11.165,0.980,0.94,0.0368,0.1786,0.1519,0.0174,2025-06-11T08:57:58.528024
6040,-0.5461,0.8047,-0.2962,-25.060,-2.100,-0.035,0.93,0.0184,0.1529,0.1416,0.0087,2025-06-11T08:57:58.528024
6041,-0.5007,0.7852,-0.2952,-23.485,-8.645,-2.240,0.94,0.0368,0.1786,0.1416,0.0174,2025-06-11T08:57:58.528024
6042,-0.4421,0.7710,-0.2967,-21.210,-5.880,-5.040,0.93,0.0184,0.1786,0.1416,0.0174,2025-06-11T08:57:58.528024
6043,-0.4085,0.7598,-0.3148,-17.920,2.975,-7.560,0.93,0.0368,0.1786,0.1416,0.0174,2025-06-11T08:57:58.528024
6044,-0.4041,0.7510,-0.3231,-15.015,13.615,-10.605,0.94,0.0552,0.1786,0.1416,0.0174,2025-06-11T08:57:58.571004
6045,-0.4124,0.7520,-0.3167,-11.690,26.635,-13.300,0.93,0.0368,0.1786,0.1212,0.0174,2025-06-11T08:57:58.571004
6046,-0.4446,0.7525,-0.3118,-9.800,33.950,-14.700,0.94,0.0184,0.2043,0.1314,0.0174,2025-06-11T08:57:58.571004
6047,-0.4802,0.7632,-0.3040,-8.295,37.275,-15.715,0.94,0.0368,0.2043,0.1314,0.0174,2025-06-11T08:57:58.571004
6048,-0.5061,0.7725,-0.3040,-7.560,35.770,-16.205,0.94,0.0552,0.2043,0.1314,0.0174,2025-06-11T08:57:58.623927
6049,-0.5222,0.7754,-0.3026,-7.315,29.680,-16.310,0.93,0.0368,0.1786,0.1314,0.0174,2025-06-11T08:57:58.623927
6050,-0.5217,0.7808,-0.2913,-7.455,22.960,-16.660,0.94,0.0368,0.2043,0.1416,0.0174,2025-06-11T08:57:58.623927
6051,-0.5256,0.7818,-0.2962,-7.735,15.120,-17.185,0.94,0.0368,0.2043,0.1416,0.0174,2025-06-11T08:57:58.623927
6052,-0.5178,0.7867,-0.2952,-7.875,9.240,-17.500,0.93,0.0368,0.2043,0.1416,0.0174,2025-06-11T08:57:58.676174
6053,-0.5124,0.7871,-0.2928,-7.980,4.095,-18.200,0.93,0.0368,0.2043,0.1314,0.0174,2025-06-11T08:57:58.676174
6054,-0.5090,0.7920,-0.2913,-7.665,1.330,-18.725,0.93,0.0368,0.2043,0.1416,0.0174,2025-06-11T08:57:58.676174
6055,-0.4997,0.7935,-0.3006,-7.175,0.420,-19.215,0.94,0.0368,0.2043,0.1314,0.0087,2025-06-11T08:57:59.042240
6056,-0.4943,0.7969,-0.3035,-6.300,1.540,-19.565,0.94,0.0368,0.2043,0.1416,0.0174,2025-06-11T08:57:59.042240
6057,-0.4943,0.7891,-0.3030,-5.810,4.830,-19.845,0.94,0.0368,0.2043,0.1519,0.0174,2025-06-11T08:57:59.042240
6058,-0.5124,0.7881,-0.2972,-5.530,8.015,-19.880,0.93,0.0552,0.2301,0.1416,0.0087,2025-06-11T08:57:59.042240
6059,-0.5402,0.7842,-0.2962,-5.565,9.905,-20.090,0.93,0.0368,0.2301,0.1416,0.0087,2025-06-11T08:57:59.042240
6060,-0.5685,0.7857,-0.2962,-5.530,9.625,-20.930,0.93,0.0184,0.2043,0.1519,0.0087,2025-06-11T08:57:59.042240
6061,-0.5988,0.7862,-0.3128,-5.250,7.140,-22.050,0.94,0.0184,0.1786,0.1519,0.0174,2025-06-11T08:57:59.042240
6062,-0.6115,0.7788,-0.3235,-5.040,2.730,-23.170,0.93,0.0368,0.1786,0.1622,0.0087,2025-06-11T08:57:59.042240
6063,-0.6051,0.7730,-0.3104,-4.865,-1.470,-24.045,0.94,0.0184,0.1529,0.1519,0.0087,2025-06-11T08:57:59.042240
6064,-0.5978,0.7691,-0.2977,-4.655,-5.005,-25.025,0.94,0.0368,0.1529,0.1519,0.0087,2025-06-11T08:57:59.043307
6065,-0.5866,0.7588,-0.2904,-4.270,-6.580,-26.040,0.93,0.0184,0.1786,0.1519,0.0174,2025-06-11T08:57:59.043307
6066,-0.5861,0.7584,-0.2835,-3.395,-8.190,-26.460,0.93,0.0184,0.1786,0.1519,0.0087,2025-06-11T08:57:59.043307
6067,-0.5797,0.7637,-0.2801,-1.890,-9.695,-26.110,0.94,0.0184,0.1786,0.1519,0.0174,2025-06-11T08:57:59.043307
6068,-0.5632,0.7618,-0.2786,0.000,-9.520,-24.815,0.94,0.0368,0.2043,0.1519,0.0087,2025-06-11T08:57:59.043307
6069,-0.5651,0.7544,-0.2830,1.960,-7.350,-23.135,0.93,0.0368,0.2043,0.1416,0.0174,2025-06-11T08:57:59.043307
6070,-0.5675,0.7388,-0.2850,4.130,-5.425,-20.860,0.94,0.0184,0.2043,0.1416,0.0000,2025-06-11T08:57:59.043307
6071,-0.5739,0.7213,-0.2860,5.670,-4.410,-17.045,0.94,0.0368,0.2043,0.1416,0.0174,2025-06-11T08:57:59.043307
6072,-0.5871,0.7164,-0.2796,7.385,-4.585,-13.650,0.93,0.0184,0.2043,0.1416,0.0174,2025-06-11T08:57:59.123004
6073,-0.5998,0.7022,-0.2845,8.715,-6.090,-9.800,0.93,0.0368,0.2043,0.1622,0.0174,2025-06-11T08:57:59.123004
6074,-0.6002,0.6964,-0.2728,10.080,-9.975,-6.475,0.94,0.0184,0.1786,0.1519,0.0174,2025-06-11T08:57:59.123004
6075,-0.5900,0.6920,-0.2547,11.270,-13.755,-2.800,0.94,0.0368,0.1786,0.1519,0.0174,2025-06-11T08:57:59.123004
6076,-0.5680,0.6895,-0.2533,12.460,-16.555,-0.455,0.94,0.0368,0.1786,0.1519,0.0174,2025-06-11T08:57:59.123004
6077,-0.5519,0.6861,-0.2464,13.510,-16.835,0.770,0.94,0.0368,0.1529,0.1622,0.0174,2025-06-11T08:57:59.123004
6078,-0.5295,0.6871,-0.2386,14.665,-14.910,1.330,0.93,0.0184,0.1529,0.1725,0.0174,2025-06-11T08:57:59.123004
6079,-0.5217,0.7003,-0.2284,16.275,-12.320,1.190,0.94,0.0368,0.1529,0.1622,0.0087,2025-06-11T08:57:59.123004
6080,-0.5178,0.7139,-0.2294,17.885,-9.135,0.385,0.93,0.0552,0.1529,0.1519,0.0174,2025-06-11T08:57:59.123004
6081,-0.5217,0.7261,-0.2342,19.600,-7.350,-0.630,0.94,0.0368,0.1786,0.1622,0.0087,2025-06-11T08:57:59.123004
6082,-0.5314,0.7427,-0.2230,20.545,-6.440,-1.330,0.94,0.0368,0.1529,0.1519,0.0174,2025-06-11T08:57:59.123004
6083,-0.5451,0.7618,-0.2176,21.525,-7.105,-1.295,0.93,0.0184,0.1529,0.1519,0.0174,2025-06-11T08:57:59.123004
6084,-0.5632,0.7867,-0.2264,22.505,-9.240,-0.420,0.93,0.0368,0.1529,0.1519,0.0087,2025-06-11T08:57:59.123004
6085,-0.5812,0.8062,-0.2503,23.590,-12.075,0.210,0.93,0.0368,0.1529,0.1519,0.0087,2025-06-11T08:57:59.123004
6086,-0.5871,0.8150,-0.2655,24.535,-12.985,0.840,0.93,0.0368,0.1529,0.1519,0.0174,2025-06-11T08:57:59.123004
6087,-0.5519,0.8140,-0.2406,23.835,-10.570,2.625,0.93,0.0368,0.1529,0.1622,0.0087,2025-06-11T08:57:59.123004
6088,-0.5305,0.8296,-0.1893,19.810,-6.020,5.775,0.93,0.0368,0.1786,0.1519,0.0087,2025-06-11T08:57:59.123004
6089,-0.5431,0.8642,-0.1693,14.525,-1.680,10.990,0.94,0.0368,0.1529,0.1622,0.0087,2025-06-11T08:57:59.358652
6090,-0.5846,0.8916,-0.1869,6.545,-1.435,15.995,0.93,0.0552,0.1529,0.1622,0.0174,2025-06-11T08:57:59.358652
6091,-0.6300,0.8969,-0.2274,-0.770,-3.220,21.245,0.93,0.0368,0.1529,0.1519,0.0174,2025-06-11T08:57:59.358652
6092,-0.6490,0.8804,-0.2669,-5.705,-6.265,25.515,0.94,0.0368,0.1529,0.1519,0.0174,2025-06-11T08:57:59.358652
6093,-0.6466,0.8540,-0.2884,-9.625,-12.355,31.815,0.94,0.0368,0.1529,0.1519,0.0087,2025-06-11T08:57:59.358652
6094,-0.6300,0.8203,-0.3040,-12.670,-18.165,37.835,0.94,0.0184,0.1529,0.1622,0.0174,2025-06-11T08:57:59.358652
6095,-0.5934,0.7666,-0.3187,-13.965,-23.450,44.135,0.94,0.0368,0.1786,0.1519,0.0087,2025-06-11T08:57:59.358652
6096,-0.5446,0.7379,-0.3260,-13.475,-24.535,47.775,0.94,0.0368,0.1529,0.1622,0.0087,2025-06-11T08:57:59.358652
6097,-0.5002,0.7159,-0.3260,-11.690,-22.190,49.840,0.93,0.0368,0.1529,0.1519,0.0087,2025-06-11T08:57:59.358652
6098,-0.4734,0.7071,-0.3211,-8.680,-18.375,49.280,0.93,0.0184,0.1529,0.1622,0.0087,2025-06-11T08:57:59.358652
6099,-0.4534,0.7052,-0.3143,-6.125,-13.685,46.935,0.93,0.0368,0.1529,0.1519,0.0087,2025-06-11T08:57:59.359649
6100,-0.4514,0.7042,-0.2845,-3.710,-8.505,44.310,0.93,0.0368,0.1529,0.1622,0.0087,2025-06-11T08:57:59.359649
6101,-0.4524,0.7169,-0.2333,-1.925,-6.160,41.475,0.94,0.0184,0.1529,0.1622,0.0087,2025-06-11T08:57:59.359649
6102,-0.4592,0.7296,-0.2059,0.245,-6.160,39.130,0.94,0.0368,0.1529,0.1519,0.0087,2025-06-11T08:57:59.359649
6103,-0.4763,0.7471,-0.2089,2.975,-7.805,36.015,0.93,0.0368,0.1529,0.1519,0.0174,2025-06-11T08:57:59.359649
6104,-0.4768,0.7691,-0.2206,6.790,-10.605,31.010,0.93,0.0184,0.1529,0.1519,0.0087,2025-06-11T08:57:59.359649
6105,-0.4763,0.7979,-0.2416,12.250,-11.935,26.075,0.93,0.0368,0.1786,0.1519,0.0174,2025-06-11T08:57:59.650003
6106,-0.4670,0.8242,-0.2562,17.185,-11.095,19.425,0.94,0.0184,0.1786,0.1519,0.0174,2025-06-11T08:57:59.650003
6107,-0.4514,0.8384,-0.2396,22.575,-9.695,14.420,0.93,0.0368,0.2043,0.1519,0.0174,2025-06-11T08:57:59.650003
6108,-0.4397,0.8452,-0.2259,26.670,-7.455,10.010,0.93,0.0184,0.1786,0.1519,0.0087,2025-06-11T08:57:59.650003
6109,-0.4494,0.8374,-0.2294,30.485,-5.740,7.035,0.94,0.0368,0.1786,0.1519,0.0087,2025-06-11T08:57:59.650003
6110,-0.4577,0.8262,-0.2323,32.585,-5.600,4.270,0.93,0.0368,0.1786,0.1519,0.0087,2025-06-11T08:57:59.650003
6111,-0.4665,0.8135,-0.2396,34.055,-7.490,2.625,0.94,0.0184,0.1529,0.1519,0.0087,2025-06-11T08:57:59.650003
6112,-0.4865,0.7832,-0.2596,34.685,-10.185,1.015,0.94,0.0368,0.1786,0.1519,0.0174,2025-06-11T08:57:59.650003
6113,-0.4860,0.7569,-0.2660,34.650,-15.470,0.455,0.93,0.0184,0.1786,0.1622,0.0087,2025-06-11T08:57:59.650003
6114,-0.4768,0.7237,-0.2713,34.545,-19.950,0.630,0.94,0.0368,0.1529,0.1622,0.0174,2025-06-11T08:57:59.650003
6115,-0.4504,0.7047,-0.2826,34.755,-22.855,0.595,0.93,0.0184,0.1786,0.1519,0.0087,2025-06-11T08:57:59.651000
6116,-0.4246,0.7003,-0.2977,35.525,-22.435,-0.385,0.94,0.0184,0.1786,0.1622,0.0087,2025-06-11T08:57:59.651000
6117,-0.4075,0.6974,-0.3201,36.575,-18.620,-2.975,0.93,0.0184,0.1786,0.1519,0.0087,2025-06-11T08:57:59.651000
6118,-0.3997,0.6959,-0.3392,38.185,-14.245,-5.355,0.93,0.0184,0.1529,0.1519,0.0087,2025-06-11T08:57:59.651000
6119,-0.3982,0.6978,-0.3343,39.900,-10.570,-8.015,0.93,0.0184,0.1786,0.1519,0.0174,2025-06-11T08:57:59.651000
6120,-0.4124,0.6983,-0.3436,42.560,-8.715,-9.870,0.94,0.0184,0.1786,0.1519,0.0174,2025-06-11T08:57:59.751967
6121,-0.4358,0.7027,-0.3684,45.360,-9.240,-12.005,0.93,0.0184,0.1786,0.1622,0.0174,2025-06-11T08:57:59.751967
6122,-0.4519,0.6993,-0.4011,48.615,-11.480,-13.930,0.93,0.0368,0.1786,0.1416,0.0174,2025-06-11T08:57:59.752967
6123,-0.4563,0.6983,-0.4246,51.135,-13.370,-15.575,0.94,0.0184,0.1529,0.1416,0.0174,2025-06-11T08:57:59.752967
6124,-0.4514,0.7008,-0.4436,54.110,-14.035,-16.975,0.93,0.0184,0.1786,0.1519,0.0087,2025-06-11T08:57:59.752967
6125,-0.4529,0.7008,-0.4807,55.825,-13.090,-18.025,0.93,0.0368,0.1786,0.1519,0.0087,2025-06-11T08:57:59.752967
6126,-0.4577,0.6964,-0.5065,56.840,-10.255,-19.495,0.93,0.0184,0.1786,0.1519,0.0087,2025-06-11T08:57:59.752967
6127,-0.4612,0.6964,-0.5280,57.225,-6.930,-20.405,0.94,0.0184,0.1786,0.1314,0.0087,2025-06-11T08:57:59.752967
6128,-0.4597,0.7027,-0.5363,56.805,-2.135,-20.685,0.93,0.0184,0.1529,0.1314,0.0087,2025-06-11T08:57:59.752967
6129,-0.4636,0.7066,-0.5519,55.650,2.310,-20.895,0.94,0.0184,0.1786,0.1314,0.0087,2025-06-11T08:57:59.752967
6130,-0.4826,0.7125,-0.5685,54.460,6.195,-21.420,0.94,0.0184,0.1786,0.1416,0.0174,2025-06-11T08:57:59.752967
6131,-0.4978,0.7203,-0.5871,52.815,9.310,-22.435,0.93,0.0368,0.1273,0.1519,0.0087,2025-06-11T08:57:59.752967
6132,-0.5158,0.7276,-0.5929,50.925,10.220,-23.625,0.93,0.0368,0.1529,0.1519,0.0174,2025-06-11T08:57:59.752967
6133,-0.5344,0.7310,-0.6002,48.510,9.030,-24.360,0.93,0.0184,0.1529,0.1519,0.0087,2025-06-11T08:57:59.752967
6134,-0.5446,0.7286,-0.6090,45.955,6.930,-24.710,0.93,0.0368,0.1529,0.1622,0.0087,2025-06-11T08:57:59.752967
6135,-0.5558,0.7232,-0.6227,43.155,4.375,-24.780,0.94,0.0368,0.1786,0.1519,0.0174,2025-06-11T08:58:00.056428
6136,-0.5563,0.7144,-0.6222,38.955,2.415,-24.465,0.94,0.0368,0.1529,0.1416,0.0174,2025-06-11T08:58:00.056428
6137,-0.5514,0.7037,-0.6232,34.545,0.245,-22.995,0.93,0.0552,0.1529,0.1519,0.0174,2025-06-11T08:58:00.056428
6138,-0.5495,0.6866,-0.6324,29.120,-1.120,-21.035,0.93,0.0368,0.1529,0.1622,0.0174,2025-06-11T08:58:00.056428
6139,-0.5353,0.6744,-0.6290,24.430,-2.520,-18.130,0.94,0.0368,0.1786,0.1519,0.0087,2025-06-11T08:58:00.056428
6140,-0.5309,0.6661,-0.6407,19.075,-2.800,-16.030,0.94,0.0184,0.1786,0.1622,0.0087,2025-06-11T08:58:00.056428
6141,-0.5344,0.6476,-0.6559,14.980,-2.590,-14.070,0.93,0.0368,0.2043,0.1622,0.0087,2025-06-11T08:58:00.056428
6142,-0.5300,0.6183,-0.6515,10.290,-2.800,-12.810,0.94,0.0184,0.1786,0.1622,0.0174,2025-06-11T08:58:00.056428
6143,-0.5158,0.5983,-0.6173,7.560,-3.465,-11.515,0.94,0.0184,0.1786,0.1622,0.0087,2025-06-11T08:58:00.056428
6144,-0.5075,0.5851,-0.6144,7.630,-4.375,-11.270,0.94,0.0184,0.1786,0.1725,0.0087,2025-06-11T08:58:00.056428
6145,-0.5114,0.5685,-0.6378,9.905,-4.935,-13.160,0.93,0.0184,0.1786,0.1725,0.0174,2025-06-11T08:58:00.056428
6146,-0.5251,0.5573,-0.6310,12.215,-7.910,-16.240,0.93,0.0368,0.1786,0.1725,0.0087,2025-06-11T08:58:00.056428
6147,-0.5080,0.5378,-0.5910,15.260,-10.675,-17.710,0.93,0.0368,0.2043,0.1725,0.0174,2025-06-11T08:58:00.056428
6148,-0.4846,0.5202,-0.5617,16.380,-11.830,-17.290,0.93,0.0552,0.2043,0.1622,0.0087,2025-06-11T08:58:00.056428
6149,-0.4709,0.5065,-0.5578,16.765,-11.025,-15.925,0.93,0.0368,0.1786,0.1725,0.0174,2025-06-11T08:58:00.056428
6150,-0.4558,0.4924,-0.5802,16.135,-8.085,-14.000,0.94,0.0368,0.2043,0.1725,0.0174,2025-06-11T08:58:00.211714
6151,-0.4582,0.4802,-0.6134,14.490,-2.240,-12.810,0.94,0.0368,0.1786,0.1725,0.0087,2025-06-11T08:58:00.394734
6152,-0.4958,0.4626,-0.6495,13.265,1.995,-11.970,0.94,0.0368,0.1786,0.1622,0.0087,2025-06-11T08:58:00.394734
6153,-0.5324,0.4465,-0.7013,14.035,3.570,-11.340,0.93,0.0184,0.2043,0.1725,0.0174,2025-06-11T08:58:00.394734
6154,-0.5607,0.4285,-0.7588,15.680,2.275,-10.570,0.94,0.0368,0.1786,0.1622,0.0174,2025-06-11T08:58:00.394734
6155,-0.5749,0.4285,-0.7725,18.445,-0.420,-9.660,0.94,0.0368,0.2043,0.1725,0.0087,2025-06-11T08:58:00.394734
6156,-0.5876,0.4202,-0.7813,20.720,-2.275,-8.855,0.94,0.0368,0.1786,0.1725,0.0087,2025-06-11T08:58:00.394734
6157,-0.5983,0.4197,-0.7706,22.785,-4.760,-7.105,0.94,0.0368,0.1786,0.1622,0.0087,2025-06-11T08:58:00.394734
6158,-0.6076,0.4231,-0.7515,24.815,-7.175,-5.250,0.94,0.0368,0.1786,0.1725,0.0087,2025-06-11T08:58:00.394734
6159,-0.6188,0.4358,-0.7432,26.635,-9.975,-2.835,0.94,0.0368,0.1786,0.1622,0.0087,2025-06-11T08:58:00.394734
6160,-0.6285,0.4485,-0.7315,28.560,-13.405,-0.455,0.93,0.0368,0.1786,0.1725,0.0087,2025-06-11T08:58:00.394734
6161,-0.6281,0.4734,-0.7115,29.890,-16.450,2.030,0.93,0.0368,0.2043,0.1725,0.0174,2025-06-11T08:58:00.394734
6162,-0.6207,0.4856,-0.6974,31.080,-18.970,5.355,0.94,0.0368,0.1786,0.1622,0.0174,2025-06-11T08:58:00.394734
6163,-0.6076,0.4973,-0.6837,31.325,-19.530,8.330,0.94,0.0184,0.1786,0.1725,0.0087,2025-06-11T08:58:00.394734
6164,-0.6002,0.5041,-0.6749,30.415,-19.565,12.250,0.94,0.0368,0.1786,0.1725,0.0174,2025-06-11T08:58:00.394734
6165,-0.6076,0.5026,-0.6647,29.190,-20.545,15.470,0.93,0.0368,0.1786,0.1725,0.0174,2025-06-11T08:58:00.394734
6166,-0.6110,0.4821,-0.6744,28.840,-23.345,18.375,0.94,0.0368,0.1786,0.1725,0.0174,2025-06-11T08:58:00.394734
6167,-0.5861,0.4768,-0.6793,27.230,-25.900,19.880,0.93,0.0368,0.2043,0.1725,0.0174,2025-06-11T08:58:00.394734
6168,-0.5568,0.4807,-0.6349,24.990,-29.120,21.140,0.93,0.0368,0.1786,0.1828,0.0174,2025-06-11T08:58:00.394734
6169,-0.5651,0.4914,-0.6134,22.960,-33.215,22.225,0.93,0.0368,0.1786,0.1828,0.0174,2025-06-11T08:58:00.394734
6170,-0.5939,0.4953,-0.6334,23.030,-42.700,23.555,0.93,0.0368,0.1786,0.1725,0.0174,2025-06-11T08:58:00.394734
6171,-0.5939,0.5012,-0.6486,24.535,-51.660,25.025,0.94,0.0368,0.2043,0.1725,0.0174,2025-06-11T08:58:00.394734
6172,-0.5573,0.5124,-0.6564,27.475,-57.120,25.900,0.94,0.0552,0.1786,0.1725,0.0174,2025-06-11T08:58:00.394734
6173,-0.5314,0.5236,-0.6529,31.955,-57.610,26.040,0.93,0.0184,0.1786,0.1828,0.0174,2025-06-11T08:58:00.394734
6174,-0.5134,0.5368,-0.6515,35.175,-56.910,26.355,0.93,0.0368,0.1786,0.1725,0.0087,2025-06-11T08:58:00.394734
6175,-0.5017,0.5490,-0.6427,38.430,-55.055,26.775,0.93,0.0368,0.1786,0.1725,0.0087,2025-06-11T08:58:00.394734
6176,-0.3753,0.5388,-0.6451,39.970,-53.900,27.895,0.93,0.0368,0.1786,0.1725,0.0087,2025-06-11T08:58:00.394734
6177,-0.4904,0.5285,-0.6193,39.060,-54.320,29.750,0.93,0.0184,0.2043,0.1828,0.0087,2025-06-11T08:58:00.394734
6178,-0.4797,0.5261,-0.5880,36.505,-55.545,33.075,0.94,0.0368,0.1786,0.1725,0.0087,2025-06-11T08:58:00.394734
6179,-0.4934,0.5158,-0.5919,32.305,-57.470,37.870,0.93,0.0368,0.1786,0.1725,0.0174,2025-06-11T08:58:00.394734
6180,-0.5095,0.5109,-0.6256,25.480,-61.040,42.035,0.93,0.0368,0.1786,0.1725,0.0087,2025-06-11T08:58:00.575378
6181,-0.5392,0.5051,-0.6651,18.865,-65.555,47.215,0.94,0.0368,0.1786,0.1725,0.0174,2025-06-11T08:58:00.575378
6182,-0.5407,0.5256,-0.7091,15.260,-66.745,50.400,0.94,0.0368,0.1786,0.1725,0.0087,2025-06-11T08:58:00.575378
6183,-0.5788,0.5270,-0.7749,14.385,-64.015,50.435,0.93,0.0368,0.1786,0.1725,0.0174,2025-06-11T08:58:00.575378
6184,-0.6207,0.5178,-0.8486,17.115,-60.025,46.550,0.94,0.0368,0.1529,0.1828,0.0174,2025-06-11T08:58:00.575378
6185,-0.6359,0.5090,-0.8725,23.275,-54.670,38.360,0.94,0.0368,0.1529,0.1725,0.0174,2025-06-11T08:58:00.575378
6186,-0.6437,0.4875,-0.8799,33.250,-48.405,30.590,0.93,0.0184,0.1786,0.1725,0.0174,2025-06-11T08:58:00.575378
6187,-0.6071,0.4665,-0.8394,42.000,-40.565,21.665,0.93,0.0184,0.1786,0.1828,0.0087,2025-06-11T08:58:00.575378
6188,-0.5505,0.4738,-0.7569,49.875,-27.860,16.170,0.93,0.0368,0.1529,0.1622,0.0174,2025-06-11T08:58:00.575378
6189,-0.5202,0.4895,-0.6549,53.375,-14.420,10.850,0.93,0.0368,0.1529,0.1725,0.0174,2025-06-11T08:58:00.575378
6190,-0.5085,0.5002,-0.5890,53.095,1.435,7.175,0.94,0.0184,0.1529,0.1828,0.0087,2025-06-11T08:58:00.575378
6191,-0.5095,0.5226,-0.4958,49.420,11.305,4.270,0.94,0.0184,0.1529,0.1725,0.0174,2025-06-11T08:58:00.575378
6192,-0.5226,0.5456,-0.4294,44.065,18.935,0.245,0.93,0.0552,0.1786,0.1725,0.0174,2025-06-11T08:58:00.575378
6193,-0.5500,0.5583,-0.3928,36.505,20.405,-4.375,0.94,0.0368,0.1786,0.1725,0.0087,2025-06-11T08:58:00.575378
6194,-0.6071,0.5563,-0.3880,30.030,14.910,-10.990,0.93,0.0368,0.1786,0.1725,0.0087,2025-06-11T08:58:00.575378
6195,-0.6422,0.5539,-0.3928,22.785,5.005,-16.310,0.93,0.0552,0.1786,0.1828,0.0174,2025-06-11T08:58:00.875971
6196,-0.6432,0.5505,-0.3875,17.080,-9.030,-21.455,0.94,0.0368,0.1786,0.1828,0.0174,2025-06-11T08:58:00.875971
6197,-0.6168,0.5519,-0.3928,10.115,-18.655,-25.235,0.94,0.0368,0.1786,0.1828,0.0174,2025-06-11T08:58:00.875971
6198,-0.5768,0.5544,-0.4197,4.305,-23.345,-30.730,0.94,0.0368,0.1786,0.1725,0.0087,2025-06-11T08:58:00.875971
6199,-0.5519,0.5485,-0.4612,-2.030,-21.630,-36.365,0.93,0.0368,0.1786,0.1828,0.0174,2025-06-11T08:58:00.875971
6200,-0.5597,0.5358,-0.5080,-7.560,-15.680,-44.870,0.93,0.0184,0.1786,0.1828,0.0174,2025-06-11T08:58:00.875971
6201,-0.5910,0.5207,-0.5651,-13.965,-8.120,-52.010,0.93,0.0184,0.1786,0.1725,0.0087,2025-06-11T08:58:00.875971
6202,-0.6310,0.5017,-0.6076,-19.740,-3.045,-59.325,0.93,0.0184,0.1786,0.1725,0.0174,2025-06-11T08:58:00.875971
6203,-0.6500,0.4978,-0.6227,-27.055,1.330,-63.875,0.93,0.0368,0.1786,0.1519,0.0087,2025-06-11T08:58:00.875971
6204,-0.6617,0.4924,-0.6173,-33.040,4.795,-67.270,0.93,0.0368,0.1786,0.1519,0.0087,2025-06-11T08:58:00.875971
6205,-0.6793,0.4807,-0.6163,-39.760,8.680,-70.105,0.94,0.0184,0.1786,0.1416,0.0000,2025-06-11T08:58:00.875971
6206,-0.6959,0.4665,-0.6154,-45.325,10.955,-71.785,0.93,0.0184,0.1786,0.1416,0.0087,2025-06-11T08:58:00.875971
6207,-0.7257,0.4358,-0.6266,-50.540,11.900,-73.185,0.93,0.0368,0.1529,0.1314,0.0174,2025-06-11T08:58:00.875971
6208,-0.7447,0.4075,-0.6183,-56.665,10.920,-73.745,0.93,0.0368,0.1529,0.1212,0.0087,2025-06-11T08:58:00.875971
6209,-0.7881,0.3963,-0.5719,-61.985,6.230,-73.675,0.93,0.0368,0.1786,0.1212,0.0087,2025-06-11T08:58:00.875971
6210,-0.8491,0.3714,-0.5305,-67.445,-3.605,-72.065,0.93,0.0368,0.1786,0.1314,0.0174,2025-06-11T08:58:00.982861
6211,-0.9326,0.3670,-0.5007,-71.750,-26.040,-66.395,0.93,0.0552,0.1529,0.1416,0.0087,2025-06-11T08:58:00.982861
6212,-1.0092,0.3538,-0.4665,-73.990,-51.240,-58.870,0.93,0.0368,0.1273,0.1416,0.0087,2025-06-11T08:58:00.982861
6213,-1.0077,0.3636,-0.4436,-74.410,-79.975,-49.560,0.93,0.0368,0.1273,0.1109,0.0087,2025-06-11T08:58:00.982861
6214,-1.0058,0.3606,-0.4382,-75.670,-100.100,-39.305,0.93,0.0184,0.1529,0.1212,0.0174,2025-06-11T08:58:00.982861
6215,-0.7691,0.4211,-0.3836,-71.155,-117.040,-24.850,0.93,0.0184,0.1273,0.1622,0.0174,2025-06-11T08:58:00.982861
6216,-0.2323,-0.0732,-0.2689,-45.115,-112.035,8.645,0.93,0.0368,0.1273,0.1314,0.0174,2025-06-11T08:58:00.982861
6217,-1.0824,0.0054,-0.0561,-4.725,-17.675,26.950,0.94,0.0368,0.1018,0.1519,0.0174,2025-06-11T08:58:00.982861
6218,-1.1639,0.2406,-0.0303,8.680,21.350,8.295,0.94,0.0368,0.1273,0.1314,0.0087,2025-06-11T08:58:00.982861
6219,-1.0687,0.2840,-0.3475,18.620,13.440,11.305,0.93,0.0184,0.1273,0.1109,0.0174,2025-06-11T08:58:00.982861
6220,-1.1917,0.2899,-0.3865,17.465,-30.345,21.070,0.93,0.0368,0.1273,0.1314,0.0087,2025-06-11T08:58:00.982861
6221,-1.1131,0.2162,-0.4031,16.310,-77.560,25.305,0.93,0.0368,0.1273,0.1416,0.0087,2025-06-11T08:58:00.982861
6222,-0.8872,0.2152,-0.4231,15.925,-88.970,26.460,0.93,0.0368,0.1273,0.1416,0.0087,2025-06-11T08:58:00.982861
6223,-0.7993,0.2816,-0.4109,13.580,-73.815,22.225,0.94,0.0184,0.1529,0.1416,0.0174,2025-06-11T08:58:00.982861
6224,-0.7486,0.2738,-0.4138,11.270,-50.925,17.675,0.94,0.0552,0.1529,0.1314,0.0087,2025-06-11T08:58:00.982861
6225,-0.7852,0.3177,-0.3274,10.780,-40.215,11.865,0.94,0.0552,0.1273,0.1519,0.0174,2025-06-11T08:58:01.311870
6226,-0.8184,0.3631,-0.3343,9.765,-31.850,6.265,0.94,0.0368,0.1529,0.1212,0.0174,2025-06-11T08:58:01.311870
6227,-0.8311,0.4187,-0.3558,10.745,-21.385,0.805,0.94,0.0368,0.1529,0.1416,0.0087,2025-06-11T08:58:01.311870
6228,-0.8857,0.4451,-0.3797,11.795,-13.965,-1.680,0.94,0.0552,0.1529,0.1314,0.0087,2025-06-11T08:58:01.311870
6229,-0.9248,0.4538,-0.3802,11.620,-11.970,0.105,0.94,0.0368,0.1529,0.1212,0.0087,2025-06-11T08:58:01.311870
6230,-0.9658,0.4602,-0.3733,10.010,-21.455,6.230,0.94,0.0368,0.1529,0.1519,0.0174,2025-06-11T08:58:01.311870
6231,-0.9496,0.4616,-0.3640,8.785,-36.225,16.975,0.94,0.0368,0.1529,0.1519,0.0087,2025-06-11T08:58:01.311870
6232,-0.8662,0.4290,-0.3367,6.825,-52.465,26.565,0.94,0.0184,0.1273,0.1622,0.0174,2025-06-11T08:58:01.311870
6233,-0.7286,0.3875,-0.2996,5.495,-59.010,36.855,0.94,0.0368,0.1273,0.1622,0.0174,2025-06-11T08:58:01.311870
6234,-0.5685,0.3880,-0.2625,5.670,-56.840,45.640,0.94,0.0368,0.1529,0.1828,0.0174,2025-06-11T08:58:01.311870
6235,-0.5017,0.4109,-0.2674,7.035,-48.650,53.725,0.94,0.0368,0.1273,0.1725,0.0087,2025-06-11T08:58:01.311870
6236,-0.5480,0.4197,-0.3128,10.430,-36.050,58.415,0.94,0.0368,0.1529,0.1622,0.0174,2025-06-11T08:58:01.311870
6237,-0.6115,0.4163,-0.3924,17.185,-27.160,59.500,0.94,0.0368,0.1529,0.1828,0.0174,2025-06-11T08:58:01.311870
6238,-0.6910,0.4119,-0.4407,22.960,-18.585,57.645,0.94,0.0368,0.1529,0.1622,0.0174,2025-06-11T08:58:01.311870
6239,-0.7842,0.3963,-0.4480,28.280,-15.925,54.880,0.94,0.0368,0.1786,0.1725,0.0087,2025-06-11T08:58:01.311870
6240,-0.8584,0.3792,-0.4094,32.550,-19.775,52.640,0.94,0.0368,0.1529,0.1725,0.0174,2025-06-11T08:58:01.443354
6241,-0.9272,0.3616,-0.3592,36.295,-32.480,52.675,0.94,0.0368,0.1786,0.1725,0.0174,2025-06-11T08:58:01.443354
6242,-0.9823,0.3567,-0.3123,38.990,-48.965,52.395,0.94,0.0368,0.1786,0.1932,0.0174,2025-06-11T08:58:01.443354
6243,-0.9877,0.3631,-0.2699,42.245,-61.565,51.135,0.94,0.0368,0.1529,0.1828,0.0174,2025-06-11T08:58:01.443354
6244,-0.9379,0.3836,-0.2460,45.220,-70.770,47.845,0.94,0.0368,0.1529,0.1932,0.0174,2025-06-11T08:58:01.443354
6245,-0.8633,0.3865,-0.2401,47.635,-73.010,44.030,0.94,0.0368,0.1529,0.1828,0.0174,2025-06-11T08:58:01.443354
6246,-0.7959,0.3821,-0.2552,48.755,-68.705,39.130,0.94,0.0368,0.1273,0.1725,0.0174,2025-06-11T08:58:01.443354
6247,-0.7662,0.3802,-0.2494,48.090,-65.765,36.960,0.94,0.0368,0.1273,0.1828,0.0087,2025-06-11T08:58:01.443354
6248,-0.7437,0.3626,-0.2479,47.950,-54.005,37.625,0.94,0.0184,0.1273,0.1622,0.0174,2025-06-11T08:58:01.443354
6249,-0.7544,0.3543,-0.2460,49.595,-61.005,39.690,0.94,0.0368,0.1529,0.1622,0.0174,2025-06-11T08:58:01.443354
6250,-0.7627,0.3338,-0.2406,51.170,-61.565,42.665,0.94,0.0368,0.1529,0.1622,0.0087,2025-06-11T08:58:01.443354
6251,-0.7344,0.3460,-0.2386,54.635,-64.015,44.940,0.94,0.0184,0.1529,0.1519,0.0087,2025-06-11T08:58:01.443354
6252,-0.7178,0.3811,-0.2484,58.520,-64.855,46.410,0.94,0.0184,0.1529,0.1622,0.0087,2025-06-11T08:58:01.443354
6253,-0.7252,0.4050,-0.2699,64.575,-62.125,45.115,0.94,0.0184,0.1786,0.1725,0.0174,2025-06-11T08:58:01.443354
6254,-0.7379,0.4231,-0.2962,69.685,-58.240,41.510,0.94,0.0184,0.1529,0.1622,0.0087,2025-06-11T08:58:01.443354
6255,-0.7266,0.4329,-0.3289,74.375,-54.565,37.275,0.94,0.0368,0.1786,0.1622,0.0174,2025-06-11T08:58:01.443354
6256,-0.7086,0.4563,-0.3455,77.560,-52.850,35.315,0.94,0.0368,0.1786,0.1622,0.0174,2025-06-11T08:58:01.443354
6257,-0.7056,0.4797,-0.3655,80.325,-51.135,33.565,0.94,0.0184,0.1786,0.1622,0.0174,2025-06-11T08:58:01.443354
6258,-0.7198,0.5031,-0.3938,84.630,-48.230,31.500,0.94,0.0184,0.1786,0.1725,0.0174,2025-06-11T08:58:01.695393
6259,-0.7666,0.5383,-0.4075,89.180,-44.205,28.000,0.94,0.0368,0.2043,0.1622,0.0174,2025-06-11T08:58:01.695393
6260,-0.8023,0.5675,-0.4119,92.015,-41.545,24.360,0.94,0.0368,0.1786,0.1725,0.0174,2025-06-11T08:58:01.695393
6261,-0.8257,0.5910,-0.4109,93.345,-40.495,22.645,0.94,0.0368,0.1786,0.1622,0.0087,2025-06-11T08:58:01.695393
6262,-0.8208,0.6076,-0.3919,91.910,-39.970,21.665,0.94,0.0368,0.1786,0.1725,0.0174,2025-06-11T08:58:01.695393
6263,-0.8218,0.6124,-0.3680,88.200,-38.010,22.015,0.94,0.0368,0.1786,0.1725,0.0174,2025-06-11T08:58:01.695393
6264,-0.8267,0.6354,-0.3455,85.645,-36.680,23.450,0.94,0.0368,0.1529,0.1622,0.0087,2025-06-11T08:58:01.695393
6265,-0.8711,0.6486,-0.3392,82.775,-36.645,24.745,0.94,0.0184,0.1786,0.1622,0.0174,2025-06-11T08:58:01.695393
6266,-0.8974,0.6554,-0.3528,79.835,-39.375,24.605,0.94,0.0184,0.1786,0.1519,0.0087,2025-06-11T08:58:01.695393
6267,-0.9062,0.6710,-0.3767,76.195,-43.785,22.890,0.94,0.0184,0.1529,0.1416,0.0174,2025-06-11T08:58:01.695393
6268,-0.8745,0.6856,-0.3655,70.980,-47.390,20.510,0.94,0.0368,0.1786,0.1416,0.0087,2025-06-11T08:58:01.695393
6269,-0.8330,0.7086,-0.3450,66.255,-50.260,17.080,0.94,0.0368,0.1786,0.1416,0.0174,2025-06-11T08:58:01.695393
6270,-0.8037,0.7154,-0.3060,60.795,-51.170,14.945,0.94,0.0368,0.1786,0.1212,0.0087,2025-06-11T08:58:01.695393
6271,-0.7813,0.7320,-0.2894,56.595,-52.535,12.110,0.94,0.0368,0.2043,0.1416,0.0174,2025-06-11T08:58:01.695393
6272,-0.7808,0.7603,-0.2806,51.695,-51.345,9.275,0.94,0.0368,0.1786,0.1314,0.0174,2025-06-11T08:58:01.695393
6273,-0.7584,0.7793,-0.2777,48.755,-46.620,4.830,0.94,0.0368,0.1786,0.1416,0.0087,2025-06-11T08:58:01.816178
6274,-0.7608,0.7847,-0.2718,43.575,-38.570,0.525,0.94,0.0368,0.1786,0.1416,0.0174,2025-06-11T08:58:01.816178
6275,-0.7544,0.7774,-0.2518,36.680,-32.585,-2.205,0.94,0.0368,0.1786,0.1314,0.0174,2025-06-11T08:58:01.816178
6276,-0.7374,0.7725,-0.2284,26.705,-28.210,-1.820,0.94,0.0368,0.2043,0.1314,0.0087,2025-06-11T08:58:01.816178
6277,-0.7379,0.7676,-0.2098,18.865,-27.720,0.945,0.94,0.0368,0.2043,0.1314,0.0087,2025-06-11T08:58:01.816178
6278,-0.7427,0.7584,-0.2133,12.250,-28.875,4.620,0.94,0.0368,0.1786,0.1519,0.0087,2025-06-11T08:58:01.816178
6279,-0.7286,0.7427,-0.2284,6.650,-28.385,6.090,0.94,0.0368,0.1786,0.1416,0.0087,2025-06-11T08:58:01.816178
6280,-0.7300,0.7056,-0.2313,3.780,-27.790,6.265,0.94,0.0184,0.1786,0.1314,0.0174,2025-06-11T08:58:01.816178
6281,-0.6895,0.6832,-0.2040,-0.385,-25.235,5.040,0.94,0.0552,0.1786,0.1416,0.0174,2025-06-11T08:58:01.816178
6282,-0.6227,0.6549,-0.1610,-3.710,-21.525,3.500,0.94,0.0368,0.1529,0.1314,0.0087,2025-06-11T08:58:01.816178
6283,-0.5763,0.6456,-0.1537,-7.490,-15.435,2.450,0.94,0.0368,0.1529,0.1519,0.0087,2025-06-11T08:58:01.816178
6284,-0.5427,0.6500,-0.1684,-10.115,-7.700,0.455,0.94,0.0368,0.1786,0.1416,0.0087,2025-06-11T08:58:01.816178
6285,-0.5622,0.6593,-0.1835,-12.845,2.030,-4.095,0.94,0.0368,0.1786,0.1416,0.0087,2025-06-11T08:58:01.816178
6286,-0.6105,0.6681,-0.2025,-15.750,9.135,-9.590,0.94,0.0552,0.1529,0.1519,0.0174,2025-06-11T08:58:02.104796
6287,-0.6852,0.6690,-0.2137,-19.145,15.715,-18.270,0.94,0.0368,0.1529,0.1622,0.0087,2025-06-11T08:58:02.104796
6288,-0.7174,0.6612,-0.1918,-24.325,18.060,-25.340,0.94,0.0368,0.1529,0.1622,0.0174,2025-06-11T08:58:02.104796
6289,-0.7310,0.6446,-0.1513,-29.540,17.850,-31.290,0.94,0.0368,0.1273,0.1519,0.0174,2025-06-11T08:58:02.104796
6290,-0.7261,0.6285,-0.1015,-36.820,16.030,-33.810,0.94,0.0368,0.1273,0.1519,0.0174,2025-06-11T08:58:02.104796
6291,-0.7379,0.6198,-0.0669,-42.630,11.690,-34.790,0.94,0.0368,0.1273,0.1519,0.0087,2025-06-11T08:58:02.104796
6292,-0.7491,0.6115,-0.0317,-48.825,6.090,-34.860,0.94,0.0184,0.1273,0.1212,0.0174,2025-06-11T08:58:02.104796
6293,-0.7593,0.6071,-0.0210,-53.235,-1.540,-34.615,0.94,0.0368,0.1273,0.1314,0.0087,2025-06-11T08:58:02.104796
6294,-0.7593,0.6061,-0.0185,-58.275,-10.815,-34.790,0.94,0.0368,0.1273,0.1314,0.0174,2025-06-11T08:58:02.105792
6295,-0.7793,0.5851,-0.0371,-62.510,-20.020,-35.945,0.94,0.0184,0.1273,0.1416,0.0174,2025-06-11T08:58:02.105792
6296,-0.8003,0.5612,-0.0576,-69.685,-29.820,-37.485,0.94,0.0368,0.1273,0.1314,0.0087,2025-06-11T08:58:02.105792
