SeqNum,AccX,AccY,AccZ,GyroX,GyroY,GyroZ,Flex,Force1,Force2,Force3,Force4,TimestampReception
16879,-0.6881,0.4797,0.4187,11.795,-10.465,-3.325,443,399,379,399,406,2025-05-28T17:21:25.223003
16880,0.0054,-0.3040,1.1527,-0.945,-29.890,-44.100,412,442,311,398,332,2025-05-28T17:21:25.223003
16881,-0.0015,-0.3152,1.1341,-3.115,-23.485,-41.545,416,437,349,389,381,2025-05-28T17:21:25.223003
16882,-0.0112,-0.3206,1.1268,-4.585,-17.675,-38.605,410,418,368,368,352,2025-05-28T17:21:25.223003
16883,-0.0337,-0.3314,1.1161,-5.705,-13.090,-37.625,395,400,378,388,387,2025-05-28T17:21:25.223003
16884,-0.0717,-0.3362,1.1053,-5.075,-9.310,-37.975,422,405,371,391,400,2025-05-28T17:21:25.223003
16885,-0.0786,-0.3309,1.1034,-4.515,-7.000,-38.990,360,376,381,393,401,2025-05-28T17:21:25.223003
16886,-0.0771,-0.3304,1.0912,-4.410,-5.740,-39.060,407,417,369,406,412,2025-05-28T17:21:25.223003
16887,-0.0068,-0.3450,1.0424,-2.660,-9.765,-36.470,390,410,383,389,394,2025-05-28T17:21:25.223003
16888,0.0200,-0.3055,0.9238,11.480,-16.555,-34.545,391,423,386,407,394,2025-05-28T17:21:25.223003
16889,0.0278,-0.2967,1.0024,16.905,0.000,-30.205,404,440,384,355,381,2025-05-28T17:21:25.223003
16890,0.0024,-0.2835,0.9760,12.005,14.245,-26.355,393,429,384,396,348,2025-05-28T17:21:25.223003
16891,0.0078,-0.2791,0.9926,9.240,30.275,-22.715,402,377,383,377,364,2025-05-28T17:21:25.223003
16892,-0.0473,-0.2991,0.9740,10.290,40.250,-20.895,348,394,387,393,372,2025-05-28T17:21:25.223003
16893,-0.0664,-0.3026,0.9594,12.460,44.310,-21.280,392,422,377,344,346,2025-05-28T17:21:25.223003
16894,-0.0693,-0.2904,0.9775,15.050,46.795,-21.665,397,404,306,392,378,2025-05-28T17:21:25.341389
16895,-0.0327,-0.2664,1.0009,18.200,43.750,-21.245,400,414,345,386,389,2025-05-28T17:21:25.341389
16896,-0.0405,-0.2650,1.0365,19.635,43.155,-19.460,413,410,331,399,341,2025-05-28T17:21:25.341389
16897,-0.0898,-0.2674,1.0790,19.635,41.650,-18.305,406,407,352,345,378,2025-05-28T17:21:25.341389
16898,-0.1376,-0.2577,1.1180,19.425,35.350,-19.075,411,400,372,331,403,2025-05-28T17:21:25.341389
16899,-0.1625,-0.2503,1.1229,16.975,24.780,-21.595,403,419,369,322,411,2025-05-28T17:21:25.341389
16900,-0.1908,-0.2362,1.1649,12.670,15.050,-25.340,408,417,369,383,413,2025-05-28T17:21:25.341389
16901,-0.1859,-0.2216,1.1575,6.755,3.780,-28.000,411,406,389,384,413,2025-05-28T17:21:25.341389
16902,-0.1503,-0.2128,1.1585,0.070,-3.535,-29.960,411,424,379,382,405,2025-05-28T17:21:25.341389
16903,-0.0542,-0.2025,1.1829,-6.440,-1.575,-28.140,406,349,378,345,407,2025-05-28T17:21:25.341389
16904,-0.0410,-0.2108,1.1229,-10.850,1.225,-26.215,385,326,385,388,361,2025-05-28T17:21:25.341389
16905,-0.0610,-0.2562,0.9404,-10.220,-4.690,-23.415,410,412,399,395,392,2025-05-28T17:21:25.341389
16906,-0.0683,-0.2469,0.8330,0.315,-15.155,-26.320,418,421,395,407,410,2025-05-28T17:21:25.341389
16907,-0.0908,-0.2582,0.8125,10.185,-13.895,-24.640,392,377,390,425,393,2025-05-28T17:21:25.341389
16908,-0.0825,-0.2445,0.7642,18.585,-14.840,-23.905,393,418,388,358,406,2025-05-28T17:21:25.341389
16909,-0.0820,-0.2294,0.7291,27.895,-22.365,-23.835,395,424,394,381,397,2025-05-28T17:21:25.341389
16910,0.0010,-0.2001,0.7910,39.655,-23.730,-22.435,392,424,390,385,396,2025-05-28T17:21:25.341389
16911,0.0425,-0.0917,0.9052,44.100,-16.870,-16.170,398,353,376,398,415,2025-05-28T17:21:25.472835
16912,0.0693,-0.1015,1.0224,36.470,-2.240,-11.130,412,397,369,384,356,2025-05-28T17:21:25.484365
16913,0.0273,-0.1191,1.1292,26.635,4.585,-8.015,406,420,373,381,370,2025-05-28T17:21:25.484365
16914,-0.0600,-0.1386,1.1258,20.055,10.955,-6.755,392,362,341,375,390,2025-05-28T17:21:25.484365
16915,-0.1342,-0.1444,1.0297,21.595,6.790,-8.225,399,387,360,341,402,2025-05-28T17:21:25.484365
16916,-0.0976,-0.1254,1.0009,25.200,-1.260,-10.640,414,391,369,370,400,2025-05-28T17:21:25.484986
16917,-0.0371,-0.1215,0.9828,27.020,-10.710,-11.025,303,327,379,382,392,2025-05-28T17:21:25.484986
16918,0.0171,-0.0996,1.0365,28.245,-13.230,-9.905,384,395,369,383,399,2025-05-28T17:21:25.484986
16919,-0.0132,-0.1557,1.0346,26.530,-12.250,-9.030,408,356,368,399,388,2025-05-28T17:21:25.671317
16920,0.0508,-0.0903,1.0912,23.695,-7.105,-7.560,402,393,365,406,406,2025-05-28T17:21:25.671317
16921,0.0171,-0.0986,1.1566,18.900,-2.695,-6.370,427,418,380,361,393,2025-05-28T17:21:25.671317
16922,0.0127,-0.1074,1.1473,15.085,4.060,-4.340,430,419,371,332,354,2025-05-28T17:21:25.671317
16923,-0.0122,-0.1000,1.1419,9.590,5.880,-3.535,405,407,371,359,383,2025-05-28T17:21:25.671317
16924,-0.0259,-0.0874,1.1043,6.090,5.950,-2.800,405,422,339,371,406,2025-05-28T17:21:25.671317
16925,-0.0551,-0.0908,1.0692,5.425,3.885,-2.275,398,400,369,337,379,2025-05-28T17:21:25.671317
16926,-0.0878,-0.0991,1.0380,6.125,0.385,-2.345,399,401,365,380,306,2025-05-28T17:21:25.671317
16927,-0.0678,-0.1000,1.0214,6.930,-0.910,-2.835,395,404,367,373,378,2025-05-28T17:21:25.671317
16928,-0.0595,-0.1010,1.0390,6.335,0.245,-2.870,428,402,381,341,389,2025-05-28T17:21:25.671317
16929,-0.0488,-0.1078,1.0438,4.620,4.585,-2.520,402,402,391,326,406,2025-05-28T17:21:25.671317
16930,-0.0410,-0.1098,1.0643,3.430,11.060,-1.995,406,425,347,363,402,2025-05-28T17:21:25.671317
16931,-0.0586,-0.0922,1.0951,1.365,17.500,-1.435,393,343,353,382,395,2025-05-28T17:21:25.671317
16932,-0.0830,-0.0927,1.0975,-1.330,20.230,-1.120,408,354,333,405,398,2025-05-28T17:21:25.671317
16933,-0.0820,-0.1118,1.1029,-2.065,16.450,-1.225,412,288,357,419,397,2025-05-28T17:21:25.671317
16934,-0.1249,-0.1044,1.1053,-1.260,5.635,-1.120,409,316,327,401,380,2025-05-28T17:21:25.671317
16935,-0.1440,-0.1249,1.0302,-2.380,-3.185,-1.750,391,382,354,390,398,2025-05-28T17:21:25.671317
16936,-0.0688,-0.0703,0.9780,1.610,-12.495,-5.425,399,386,373,416,356,2025-05-28T17:21:25.671317
16937,-0.1210,-0.1240,1.0297,7.210,-25.935,-4.060,418,401,366,411,332,2025-05-28T17:21:25.671317
16938,-0.0595,-0.1122,1.0931,9.940,-20.335,-5.565,376,396,367,393,380,2025-05-28T17:21:25.671317
16939,-0.0834,-0.1054,1.1029,9.135,-23.240,-6.545,393,390,382,390,389,2025-05-28T17:21:25.852490
16940,-0.0664,-0.0815,1.0419,6.125,-15.785,-6.475,424,400,381,398,388,2025-05-28T17:21:25.852721
16941,-0.0756,-0.0966,1.0224,1.085,-5.740,-5.635,415,403,388,396,345,2025-05-28T17:21:25.852721
16942,-0.0698,-0.0532,0.9638,0.910,-14.105,-4.935,344,402,356,366,387,2025-05-28T17:21:25.852721
16943,-0.1166,0.0059,1.0121,4.725,-30.835,-6.335,382,397,368,363,408,2025-05-28T17:21:25.853492
16944,-0.1108,0.0020,1.0350,2.100,-39.760,-6.020,385,427,372,400,399,2025-05-28T17:21:25.853492
16945,-0.0556,-0.0244,1.0209,-2.940,-32.690,-4.830,416,417,372,370,387,2025-05-28T17:21:25.853492
16946,-0.0483,-0.0337,0.9784,-4.445,-23.135,-3.535,435,408,372,392,413,2025-05-28T17:21:25.853492
16947,-0.0176,-0.0351,0.9936,-3.710,-22.925,-5.390,421,423,387,406,393,2025-05-28T17:21:25.853492
16948,-0.0581,-0.0512,0.9579,-4.305,-26.460,-7.560,351,387,376,409,399,2025-05-28T17:21:25.853492
16949,-0.0996,-0.0537,0.9292,-5.460,-29.190,-7.315,386,400,342,415,401,2025-05-28T17:21:25.853492
16950,-0.0542,-0.1142,0.9565,-3.115,-30.100,-9.415,415,340,353,417,406,2025-05-28T17:21:25.853492
16951,-0.0342,-0.1313,0.9701,4.305,-26.285,-9.940,435,389,369,416,407,2025-05-28T17:21:25.853492
16952,-0.0303,-0.0771,0.9877,5.950,-23.905,-10.255,408,417,366,311,342,2025-05-28T17:21:25.853492
16953,-0.0420,-0.0161,0.9511,3.640,-25.620,-10.465,420,345,372,378,379,2025-05-28T17:21:25.853492
16954,-0.0303,-0.0034,0.8237,-2.380,-32.095,-12.005,422,398,372,404,401,2025-05-28T17:21:26.038066
16955,-0.0015,-0.0210,0.8930,-2.100,-34.685,-15.995,431,422,337,400,407,2025-05-28T17:21:26.038066
16956,-0.0142,-0.0537,0.8994,4.445,-31.465,-16.485,411,406,363,412,399,2025-05-28T17:21:26.038066
16957,-0.0493,-0.0737,0.9189,8.400,-28.175,-15.365,407,347,359,404,404,2025-05-28T17:21:26.051518
16958,-0.0410,-0.0737,0.8706,5.670,-32.585,-15.155,421,417,365,386,415,2025-05-28T17:21:26.051518
16959,-0.0322,-0.0756,1.0394,5.320,-34.475,-15.645,429,419,332,344,411,2025-05-28T17:21:26.051518
16960,0.0615,-0.0854,1.1180,7.735,-32.340,-13.195,399,405,356,362,399,2025-05-28T17:21:26.051518
16961,-0.0229,-0.0405,1.0365,5.810,-33.390,-12.845,416,378,362,402,405,2025-05-28T17:21:26.051518
16962,0.0381,-0.0317,1.0219,7.175,-40.495,-18.410,415,383,372,421,411,2025-05-28T17:21:26.051518
16963,0.1015,-0.0063,1.1468,13.055,-38.045,-17.640,410,384,376,410,413,2025-05-28T17:21:26.051518
16964,0.0307,-0.0854,1.0194,1.960,-32.725,-14.490,409,397,370,422,359,2025-05-28T17:21:26.051518
16965,0.0137,-0.1049,1.0555,0.490,-34.685,-13.790,426,300,370,417,331,2025-05-28T17:21:26.051518
16966,-0.0703,-0.1757,0.9867,6.370,-51.555,-18.130,433,384,343,407,365,2025-05-28T17:21:26.051518
16967,0.0888,-0.0952,1.0902,16.695,-68.915,-18.235,416,403,320,363,380,2025-05-28T17:21:26.051518
16968,0.0800,-0.1386,1.1492,15.785,-66.185,-15.540,412,373,347,406,388,2025-05-28T17:21:26.052279
16969,0.1830,-0.1698,1.3425,8.260,-60.515,-5.845,413,409,328,361,384,2025-05-28T17:21:26.052279
16970,0.2469,0.0566,1.3322,-13.755,-38.675,-5.425,411,422,319,391,389,2025-05-28T17:21:26.155594
16971,0.0996,0.0029,1.1131,-24.465,-13.195,-4.585,425,417,347,382,347,2025-05-28T17:21:26.155594
16972,0.0683,-0.0234,1.0106,-21.140,-11.970,-5.810,429,410,328,354,394,2025-05-28T17:21:26.155594
16973,0.1308,-0.0859,1.1492,-13.510,-14.455,-7.315,431,396,356,383,405,2025-05-28T17:21:26.155594
16974,0.1645,-0.0547,1.2224,-23.905,-20.055,-6.685,413,405,369,400,415,2025-05-28T17:21:26.155594
16975,0.1435,-0.0800,1.1302,-30.135,-13.090,-7.175,413,425,381,404,408,2025-05-28T17:21:26.155594
16976,0.1244,-0.1874,0.9872,-25.620,-11.410,-9.030,432,369,385,403,407,2025-05-28T17:21:26.155594
16977,0.1430,-0.1747,1.0531,-13.650,-3.710,-9.380,429,331,344,400,358,2025-05-28T17:21:26.155594
16978,0.1474,-0.0737,1.0746,-16.730,3.535,-7.665,417,373,353,405,378,2025-05-28T17:21:26.155594
16979,0.1479,-0.0644,1.0799,-23.660,8.400,-3.885,430,396,368,369,400,2025-05-28T17:21:26.285544
16980,0.1518,-0.0776,1.0668,-28.245,11.340,-1.295,397,407,373,393,392,2025-05-28T17:21:26.285544
16981,0.1610,-0.1635,1.0585,-29.190,14.350,0.945,389,392,353,405,408,2025-05-28T17:21:26.300934
16982,0.2567,-0.0708,1.1473,-24.290,23.135,-5.460,430,417,369,409,387,2025-05-28T17:21:26.300934
16983,0.0698,-0.0434,1.0214,-19.425,24.395,-7.630,398,419,374,401,406,2025-05-28T17:21:26.300934
16984,0.0986,-0.2128,0.9360,-19.285,11.655,-6.930,429,424,334,402,397,2025-05-28T17:21:26.300934
16985,0.1527,-0.1484,0.9506,-4.130,7.735,-12.355,407,418,353,388,408,2025-05-28T17:21:26.300934
16986,0.1391,-0.1015,1.0121,-0.945,10.115,-12.145,434,416,357,381,407,2025-05-28T17:21:26.301704
16987,0.0898,-0.1484,1.0185,-0.665,11.200,-10.535,399,405,372,392,392,2025-05-28T17:21:26.301704
16988,0.0942,-0.1347,1.0116,0.980,6.965,-10.535,397,410,344,347,388,2025-05-28T17:21:26.301704
16989,0.0844,-0.1469,1.0258,-0.455,7.630,-7.980,393,403,366,332,383,2025-05-28T17:21:26.302124
16990,0.0664,-0.1322,1.0019,0.455,9.975,-4.725,397,399,378,381,397,2025-05-28T17:21:26.302124
16991,0.0971,-0.1532,0.9877,2.520,7.420,-4.340,418,422,388,409,403,2025-05-28T17:21:26.487071
16992,0.1083,-0.1142,1.0390,6.335,1.785,-5.880,421,418,359,406,405,2025-05-28T17:21:26.487071
16993,0.1025,-0.1030,0.9999,7.245,-4.690,-7.035,357,394,364,372,414,2025-05-28T17:21:26.488056
16994,0.0917,-0.1098,0.9799,10.045,-10.990,-7.420,407,392,365,381,395,2025-05-28T17:21:26.488142
16995,0.1010,-0.1293,1.0180,11.515,-10.255,-6.895,410,421,370,407,403,2025-05-28T17:21:26.488142
16996,0.1230,-0.1288,1.0429,10.605,-4.305,-4.690,430,425,380,408,370,2025-05-28T17:21:26.488142
16997,0.1259,-0.1469,1.0580,10.955,-2.800,-3.395,390,428,376,375,372,2025-05-28T17:21:26.488142
16998,0.1039,-0.1601,1.1248,14.840,-2.380,-1.435,361,428,335,333,393,2025-05-28T17:21:26.488142
16999,0.1322,-0.1147,1.1478,12.845,1.225,0.455,393,406,359,381,412,2025-05-28T17:21:26.488142
17000,0.1181,-0.0747,1.1029,9.380,3.920,2.555,411,393,363,392,404,2025-05-28T17:21:26.488142
17001,0.1420,-0.0820,0.9906,11.060,3.150,-0.035,442,364,329,405,406,2025-05-28T17:21:26.488142
17002,0.1030,-0.0966,0.9482,19.530,0.490,-1.960,406,409,364,355,385,2025-05-28T17:21:26.488142
17003,0.1127,-0.1210,1.0531,25.235,5.075,-1.925,410,404,367,388,369,2025-05-28T17:21:26.488142
17004,0.0703,-0.0688,1.0663,22.610,18.725,-1.190,416,423,366,407,399,2025-05-28T17:21:26.488142
17005,0.1674,-0.1991,0.9716,26.950,32.725,-3.080,423,396,301,417,384,2025-05-28T17:21:26.488142
17006,0.0830,-0.1840,1.1000,32.585,48.160,-2.800,430,415,336,421,406,2025-05-28T17:21:26.670296
17007,0.1059,-0.0947,1.1029,36.505,60.585,-1.470,433,402,324,421,386,2025-05-28T17:21:26.670296
17008,0.1474,-0.0630,1.0785,37.135,54.530,-9.100,382,405,364,318,394,2025-05-28T17:21:26.670296
17009,0.0639,-0.1884,1.0375,49.420,55.475,-4.760,404,377,372,382,353,2025-05-28T17:21:26.670296
17010,-0.0547,-0.0107,1.4362,47.285,47.040,2.660,403,391,367,390,398,2025-05-28T17:21:26.670296
17011,0.0712,-0.0361,1.1834,29.610,51.275,7.280,418,412,352,351,392,2025-05-28T17:21:26.670296
17012,0.0156,-0.0386,1.0946,15.680,55.545,12.880,317,397,364,379,349,2025-05-28T17:21:26.670296
17013,0.0459,-0.0337,1.0458,15.190,62.930,14.385,407,341,370,350,377,2025-05-28T17:21:26.671298
17014,0.0098,0.0361,0.9931,15.015,66.115,13.195,424,416,368,364,305,2025-05-28T17:21:26.671298
17015,0.0307,0.0405,0.9814,7.665,52.885,11.410,430,397,366,385,370,2025-05-28T17:21:26.671298
17016,-0.1401,0.0874,0.8457,4.340,23.485,5.915,368,294,379,392,342,2025-05-28T17:21:26.671298
17017,-0.0771,0.0073,0.9150,13.790,24.080,-2.065,345,396,384,418,388,2025-05-28T17:21:26.671298
17018,-0.0830,0.0068,0.9028,14.350,22.295,-6.930,420,401,384,414,371,2025-05-28T17:21:26.671298
17019,-0.0185,0.0161,0.9604,18.690,14.350,-10.080,418,302,388,355,396,2025-05-28T17:21:26.671298
17020,-0.1157,-0.0122,0.9911,20.755,-0.525,-13.790,369,383,380,399,395,2025-05-28T17:21:26.671298
17021,-0.0542,0.0561,1.0765,16.940,4.515,-12.285,401,423,376,411,350,2025-05-28T17:21:26.671298
17022,-0.0630,0.0478,0.9892,10.570,11.900,-9.625,435,345,379,415,369,2025-05-28T17:21:26.770562
17023,-0.0810,0.0156,0.9633,6.440,14.770,-7.245,436,355,372,399,387,2025-05-28T17:21:26.770562
17024,-0.1235,0.0010,1.0648,5.320,15.575,-4.130,431,404,382,377,386,2025-05-28T17:21:26.770562
17025,-0.0996,0.0454,1.0712,3.255,17.150,-1.680,434,424,388,392,374,2025-05-28T17:21:26.770562
17026,-0.0874,0.0678,1.0697,-1.715,13.580,-1.085,437,430,388,403,401,2025-05-28T17:21:26.770562
17027,-0.0537,0.0820,1.0302,-4.165,4.375,-3.150,434,369,375,410,365,2025-05-28T17:21:26.770562
17028,-0.0683,0.0766,0.9906,-4.550,-2.380,-5.985,356,296,371,346,385,2025-05-28T17:21:26.770562
17029,-0.0791,0.0756,1.0004,-9.030,-5.250,-7.840,410,410,342,389,396,2025-05-28T17:21:26.770562
17030,-0.0537,0.0429,0.9911,-12.600,-4.865,-9.450,434,380,370,416,369,2025-05-28T17:21:26.872367
17031,-0.0791,0.0229,1.0082,-15.365,-6.475,-10.850,400,359,367,389,377,2025-05-28T17:21:26.872367
17032,-0.0566,-0.0024,1.0297,-14.700,-7.000,-11.480,428,367,377,390,355,2025-05-28T17:21:26.872367
17033,-0.1137,-0.0561,1.0853,-13.510,-7.140,-8.715,444,418,378,408,394,2025-05-28T17:21:26.872367
17034,-0.1064,-0.0586,1.0682,-14.420,-4.305,-5.460,428,405,381,348,385,2025-05-28T17:21:26.872367
17035,-0.1200,0.0073,1.0463,-16.275,-1.890,-3.465,428,381,370,403,393,2025-05-28T17:21:26.872367
17036,-0.0386,0.0712,0.9428,-16.870,-7.945,-5.880,442,402,385,399,385,2025-05-28T17:21:26.872367
17037,-0.0356,0.0395,0.9350,-10.430,-20.720,-10.115,425,403,391,415,394,2025-05-28T17:21:26.872367
17038,-0.0634,-0.0254,1.0067,-5.635,-30.555,-12.390,444,378,397,408,309,2025-05-28T17:21:26.872367
17039,-0.0395,-0.0342,1.0307,-5.635,-31.045,-12.460,409,418,400,402,361,2025-05-28T17:21:27.004537
17040,-0.0264,0.0088,0.9648,-11.725,-24.780,-11.130,423,400,390,398,398,2025-05-28T17:21:27.004537
17041,-0.0454,0.0146,0.9648,-15.575,-14.630,-10.850,429,404,393,410,394,2025-05-28T17:21:27.004537
17042,-0.0337,-0.0039,0.9838,-18.515,-2.450,-10.150,434,421,388,414,413,2025-05-28T17:21:27.004537
17043,-0.0200,-0.0556,1.0673,-20.930,5.845,-8.400,430,351,385,353,401,2025-05-28T17:21:27.004537
17044,-0.0727,-0.0312,1.1463,-25.550,2.625,-7.070,404,386,340,389,405,2025-05-28T17:21:27.004537
17045,-0.1122,0.0244,1.0975,-31.185,-10.990,-7.910,433,415,356,394,413,2025-05-28T17:21:27.004537
17046,-0.0834,0.0298,0.9804,-32.830,-34.125,-10.115,412,396,382,376,411,2025-05-28T17:21:27.004537
17047,-0.0551,-0.0249,0.9848,-27.930,-43.295,-14.455,420,423,373,408,405,2025-05-28T17:21:27.204440
17048,-0.0122,-0.0337,1.1336,-23.345,-36.190,-15.890,435,416,383,404,350,2025-05-28T17:21:27.204440
17049,-0.0210,-0.0908,1.1741,-27.930,-27.860,-12.040,409,418,393,405,369,2025-05-28T17:21:27.204440
17050,0.0239,-0.1615,1.2176,-35.630,-14.035,-7.560,432,381,379,418,343,2025-05-28T17:21:27.204440
17051,-0.0288,-0.1137,1.2986,-44.310,0.350,-3.255,404,393,389,395,375,2025-05-28T17:21:27.204440
17052,0.0102,-0.0098,1.0604,-52.045,-5.775,-5.320,433,413,388,403,338,2025-05-28T17:21:27.204440
17053,0.0083,-0.0239,1.0106,-49.525,-22.295,-11.935,450,408,361,415,376,2025-05-28T17:21:27.204440
17054,-0.0307,-0.0176,0.9218,-46.725,-36.680,-20.510,422,428,367,418,394,2025-05-28T17:21:27.204440
17055,-0.0210,-0.0913,0.8477,-43.750,-35.070,-24.465,405,425,378,420,399,2025-05-28T17:21:27.204440
17056,0.0015,-0.1376,0.8755,-36.750,-29.365,-25.375,425,402,388,409,386,2025-05-28T17:21:27.204440
17057,0.0332,-0.2084,1.1614,-34.125,-22.750,-22.120,397,393,385,416,363,2025-05-28T17:21:27.204440
17058,-0.0317,-0.2411,1.3015,-42.350,-21.385,-17.885,406,413,389,414,387,2025-05-28T17:21:27.204440
17059,0.0020,-0.2503,1.2366,-49.420,-33.425,-16.730,406,405,395,412,309,2025-05-28T17:21:27.204440
17060,0.0210,-0.1635,1.0741,-51.660,-40.950,-16.625,368,423,378,406,374,2025-05-28T17:21:27.204440
17061,0.0478,-0.1454,0.9423,-48.720,-43.190,-16.940,438,406,337,351,390,2025-05-28T17:21:27.204440
17062,0.0283,-0.2259,1.0077,-41.510,-42.560,-16.275,437,426,326,333,406,2025-05-28T17:21:27.204440
17063,-0.0220,-0.2586,1.0590,-37.275,-45.640,-14.560,413,409,343,392,382,2025-05-28T17:21:27.204440
17064,0.0361,-0.1942,1.0375,-39.970,-45.850,-13.545,440,419,368,389,389,2025-05-28T17:21:27.204440
17065,0.1176,-0.1830,1.0741,-47.075,-39.095,-10.710,411,422,373,388,365,2025-05-28T17:21:27.204440
17066,0.0522,-0.2450,1.0956,-55.020,-32.760,-6.230,408,412,338,360,360,2025-05-28T17:21:27.290108
17067,0.0508,-0.2245,1.0507,-59.780,-32.620,-3.955,433,431,356,398,344,2025-05-28T17:21:27.290108
17068,0.1020,-0.1825,0.9697,-64.330,-32.095,-3.325,438,431,367,406,352,2025-05-28T17:21:27.290108
17069,0.1088,-0.1654,0.8418,-64.925,-31.220,-6.335,416,383,334,391,367,2025-05-28T17:21:27.290108
17070,0.1186,-0.1566,0.8081,-55.790,-36.820,-13.545,401,418,361,386,396,2025-05-28T17:21:27.290108
17071,0.1747,-0.2503,0.9721,-45.150,-44.625,-19.460,433,393,375,402,400,2025-05-28T17:21:27.290108
17072,0.1640,-0.3304,1.0248,-44.975,-51.765,-21.350,426,427,385,396,365,2025-05-28T17:21:27.290108
17073,0.1308,-0.3499,1.0370,-45.360,-52.465,-19.845,358,353,379,407,394,2025-05-28T17:21:27.290108
17074,0.1737,-0.3021,1.0424,-49.140,-50.540,-17.150,430,367,383,397,389,2025-05-28T17:21:27.388522
17075,0.1249,-0.2884,1.0131,-56.280,-48.825,-13.965,412,393,339,402,388,2025-05-28T17:21:27.388522
17076,0.1435,-0.2552,0.9126,-59.885,-50.050,-14.315,435,391,368,423,401,2025-05-28T17:21:27.388522
17077,0.1337,-0.3245,0.8389,-57.540,-43.995,-12.775,403,388,380,407,400,2025-05-28T17:21:27.388522
17078,0.1737,-0.3621,0.8276,-52.675,-31.290,-14.105,398,422,371,410,397,2025-05-28T17:21:27.388522
17079,0.1850,-0.3816,0.7993,-43.155,-26.285,-17.395,396,426,386,400,397,2025-05-28T17:21:27.503395
17080,0.2098,-0.3889,0.9145,-31.745,-30.520,-22.155,412,376,353,408,408,2025-05-28T17:21:27.503395
17081,0.1752,-0.5119,0.9633,-18.515,-34.510,-23.870,431,414,370,408,405,2025-05-28T17:21:27.503395
17082,0.2089,-0.4675,0.9960,-15.715,-27.720,-20.405,352,402,339,382,387,2025-05-28T17:21:27.672931
17083,0.1640,-0.4275,1.0238,-17.500,-26.705,-16.800,347,423,349,400,306,2025-05-28T17:21:27.672931
17084,0.1952,-0.3792,0.9082,-18.375,-27.160,-15.855,360,387,365,388,376,2025-05-28T17:21:27.672931
17085,0.2347,-0.4236,0.8047,-12.670,-29.190,-16.695,424,421,381,405,393,2025-05-28T17:21:27.672931
17086,0.2123,-0.4807,0.8247,-3.080,-21.070,-15.295,426,348,376,418,359,2025-05-28T17:21:27.672931
17087,0.2752,-0.4900,0.8511,1.680,-13.650,-14.665,427,396,383,412,352,2025-05-28T17:21:27.672931
17088,0.3157,-0.5002,0.9921,2.520,-11.970,-12.845,437,392,386,403,388,2025-05-28T17:21:27.672931
17089,0.2757,-0.5256,0.9740,-1.680,-12.425,-0.385,366,391,376,378,409,2025-05-28T17:21:27.672931
17090,0.3079,-0.4841,0.8750,-7.105,-10.570,-6.020,416,408,347,383,405,2025-05-28T17:21:27.672931
17091,0.3401,-0.4207,0.8867,-9.100,-10.185,-4.935,412,353,356,363,393,2025-05-28T17:21:27.672931
17092,0.3030,-0.3343,0.9775,-9.520,-10.535,-3.780,412,398,369,379,397,2025-05-28T17:21:27.672931
17093,0.3113,-0.3924,0.9179,-12.355,-11.900,-7.000,422,424,330,342,408,2025-05-28T17:21:27.672931
17094,0.3470,-0.4631,0.9179,-10.010,-8.295,-8.890,392,374,366,349,387,2025-05-28T17:21:27.672931
17095,0.2752,-0.4992,0.8047,-8.190,-7.980,-7.105,424,401,359,386,405,2025-05-28T17:21:27.672931
17096,0.3152,-0.4270,0.9023,-4.235,-1.330,-5.110,430,370,344,410,414,2025-05-28T17:21:27.672931
17097,0.2962,-0.3836,0.9345,-4.865,-0.245,-3.990,401,409,366,405,397,2025-05-28T17:21:27.672931
17098,0.2884,-0.3621,0.9667,-5.670,1.190,-0.980,430,413,381,397,350,2025-05-28T17:21:27.672931
17099,0.2381,-0.3767,0.9609,-6.545,-3.395,0.490,443,411,381,402,372,2025-05-28T17:21:27.672931
17100,0.2694,-0.4285,0.9345,-4.235,-10.500,1.190,415,427,373,392,359,2025-05-28T17:21:27.672931
17101,0.2542,-0.4163,0.9340,3.080,-15.470,-1.085,425,410,385,386,337,2025-05-28T17:21:27.684744
17102,0.2176,-0.4163,0.8984,9.730,-17.815,-0.665,443,424,382,361,362,2025-05-28T17:21:27.832590
17103,0.1932,-0.4138,0.8794,13.300,-18.445,-1.435,436,406,387,394,375,2025-05-28T17:21:27.832590
17104,0.1645,-0.4480,0.7564,16.415,-10.710,-3.675,434,422,355,416,348,2025-05-28T17:21:27.832590
17105,0.2860,-0.5485,0.7198,27.020,5.460,-2.835,429,410,364,369,388,2025-05-28T17:21:27.832590
17106,0.2782,-0.4114,0.8223,32.830,16.345,-3.955,419,419,374,370,396,2025-05-28T17:21:27.832590
17107,0.3226,-0.3143,0.9277,32.480,14.175,-6.895,411,409,372,357,388,2025-05-28T17:21:27.832590
17108,0.2298,-0.2782,0.8716,25.375,-4.305,-6.860,380,399,338,375,384,2025-05-28T17:21:27.832590
17109,0.2362,-0.3304,0.7862,22.855,-19.915,-10.430,349,415,322,412,400,2025-05-28T17:21:27.832590
17110,0.2313,-0.3826,0.7632,30.590,-22.225,-13.650,346,426,356,401,388,2025-05-28T17:21:27.832590
17111,0.3011,-0.4685,0.7847,43.470,-13.055,-16.555,429,442,369,386,388,2025-05-28T17:21:27.832590
17112,0.2684,-0.4177,0.8857,53.620,-6.230,-16.975,413,425,361,383,344,2025-05-28T17:21:27.832590
17113,0.2704,-0.4036,0.9550,56.910,-4.095,-14.455,425,409,374,384,367,2025-05-28T17:21:27.832590
17114,0.3182,-0.2835,0.9262,54.880,-8.120,-15.365,426,434,372,354,380,2025-05-28T17:21:27.834427
17115,0.2625,-0.3704,0.6876,50.365,-6.265,-15.470,425,421,337,375,403,2025-05-28T17:21:27.834427
17116,0.3518,-0.3582,0.9662,52.150,3.185,-12.355,416,431,366,406,399,2025-05-28T17:21:27.834657
17117,0.3680,-0.3943,0.9848,47.355,8.540,-12.180,399,425,360,390,366,2025-05-28T17:21:27.834877
17118,0.3289,-0.3543,0.9921,47.600,11.375,-11.270,429,421,376,412,343,2025-05-28T17:21:27.834937
17119,0.3250,-0.2162,0.9550,45.395,1.225,-10.990,355,404,392,417,368,2025-05-28T17:21:28.087543
17120,0.3353,-0.1576,0.9472,42.455,-8.295,-12.810,355,419,388,400,389,2025-05-28T17:21:28.087543
17121,0.3309,-0.0996,0.9555,38.885,-12.950,-13.930,416,408,392,408,388,2025-05-28T17:21:28.087543
17122,0.2957,-0.1566,1.0375,35.595,-1.435,-12.075,366,401,391,392,357,2025-05-28T17:21:28.087543
17123,0.2601,-0.2162,1.0512,29.785,0.280,-8.645,412,431,381,399,392,2025-05-28T17:21:28.087543
17124,0.2542,-0.2362,1.0092,26.810,10.955,-4.690,406,418,381,412,385,2025-05-28T17:21:28.087543
17125,0.2655,-0.1923,1.0268,23.100,19.285,-1.505,405,390,392,405,403,2025-05-28T17:21:28.087543
17126,0.2425,-0.1376,1.0482,16.905,16.940,0.420,403,409,388,384,393,2025-05-28T17:21:28.087543
17127,0.2118,-0.1220,0.9794,11.795,3.115,-0.455,412,355,386,407,388,2025-05-28T17:21:28.087543
17128,0.2298,-0.0727,0.9384,13.755,-4.795,-1.015,406,399,378,398,405,2025-05-28T17:21:28.087543
17129,0.2074,-0.0712,1.0111,10.570,-6.370,0.140,405,417,388,421,394,2025-05-28T17:21:28.087543
17130,0.2030,-0.0830,0.9823,6.300,-10.185,-1.225,429,418,382,400,348,2025-05-28T17:21:28.087543
17131,0.2391,-0.1186,0.9897,6.860,-19.600,-5.250,392,353,373,390,392,2025-05-28T17:21:28.087543
17132,0.2689,-0.2206,1.0053,9.450,-20.055,-6.615,389,415,372,412,407,2025-05-28T17:21:28.087543
17133,0.2406,-0.2601,1.0692,13.230,-13.160,-3.010,422,409,378,429,407,2025-05-28T17:21:28.204533
17134,0.3182,-0.2567,1.1497,14.560,-2.100,0.595,416,350,374,408,316,2025-05-28T17:21:28.204533
17135,0.3035,-0.2176,1.1741,8.225,1.330,5.355,430,420,381,405,362,2025-05-28T17:21:28.204533
17136,0.3367,-0.2381,1.0668,2.730,0.770,7.000,413,385,378,403,380,2025-05-28T17:21:28.204533
17137,0.3543,-0.1728,1.2127,-1.330,9.590,8.645,427,420,388,353,383,2025-05-28T17:21:28.204533
17138,0.3396,-0.2074,1.0721,-5.215,11.095,9.065,357,397,383,401,401,2025-05-28T17:21:28.204533
17139,0.3587,-0.1903,1.0253,-11.060,18.095,7.035,430,405,388,309,386,2025-05-28T17:21:28.205446
17140,0.3143,-0.2259,1.1405,-14.875,27.720,9.135,420,413,388,377,396,2025-05-28T17:21:28.205446
17141,0.4568,-0.2621,1.0843,-17.850,50.435,5.915,430,431,374,405,389,2025-05-28T17:21:28.205446
17142,0.3567,-0.2167,1.1253,-23.765,86.520,12.250,428,427,385,392,390,2025-05-28T17:21:28.205446
17143,0.3353,-0.1976,1.0624,-31.360,105.280,15.190,360,438,394,411,342,2025-05-28T17:21:28.205446
17144,0.2884,-0.2216,1.0477,-35.945,121.695,17.990,310,433,395,345,365,2025-05-28T17:21:28.205446
17145,0.2391,-0.2059,1.0795,-42.875,135.065,21.735,398,405,349,369,371,2025-05-28T17:21:28.205446
17146,0.2025,-0.1981,1.1156,-50.225,153.895,27.720,414,422,376,409,397,2025-05-28T17:21:28.205446
17147,0.1513,-0.2411,1.0975,-61.145,167.510,31.255,425,404,358,415,388,2025-05-28T17:21:28.205446
17148,0.0556,-0.2889,1.1366,-66.885,171.220,33.145,412,398,381,391,380,2025-05-28T17:21:28.206436
17149,0.0127,-0.2884,1.0067,-66.045,168.665,30.520,428,414,354,404,399,2025-05-28T17:21:28.206436
17150,0.0122,-0.2796,1.0048,-56.280,156.800,25.130,428,405,375,392,417,2025-05-28T17:21:28.454128
17151,-0.0229,-0.2601,0.9980,-49.875,131.180,20.895,414,407,371,401,410,2025-05-28T17:21:28.454128
17152,-0.0956,-0.3094,0.9706,-41.370,103.495,17.885,419,398,392,417,349,2025-05-28T17:21:28.454128
17153,-0.1835,-0.3270,0.9994,-34.405,88.095,18.655,356,405,372,398,345,2025-05-28T17:21:28.454128
17154,-0.2347,-0.3040,0.9814,-31.745,78.540,21.350,412,399,368,351,379,2025-05-28T17:21:28.454128
17155,-0.2235,-0.2767,0.9043,-33.810,78.295,24.325,427,401,360,354,402,2025-05-28T17:21:28.454128
17156,-0.1908,-0.2874,0.8589,-35.560,81.200,26.320,439,414,366,403,415,2025-05-28T17:21:28.454128
17157,-0.1932,-0.3367,0.8223,-33.180,85.890,26.390,437,344,338,388,375,2025-05-28T17:21:28.454128
17158,-0.1952,-0.3226,0.8233,-21.595,90.615,27.335,438,401,353,394,344,2025-05-28T17:21:28.454128
17159,-0.2972,-0.3762,0.8813,-19.740,85.260,25.970,403,414,365,412,384,2025-05-28T17:21:28.454128
17160,-0.2513,-0.2948,0.9467,-22.155,67.130,23.275,431,412,370,412,389,2025-05-28T17:21:28.454128
17161,-0.2411,-0.2928,0.8735,-22.540,51.415,20.020,432,348,378,395,390,2025-05-28T17:21:28.454128
17162,-0.2635,-0.3026,0.8623,-21.700,41.930,17.465,445,389,387,403,389,2025-05-28T17:21:28.454128
17163,-0.2801,-0.3201,0.8603,-17.185,29.575,14.280,443,382,354,393,405,2025-05-28T17:21:28.454128
17164,-0.3314,-0.3030,0.8862,-15.505,11.445,10.535,432,415,370,376,363,2025-05-28T17:21:28.454128
17165,-0.2894,-0.3177,0.8828,-14.770,-0.700,7.175,413,420,372,358,401,2025-05-28T17:21:28.454128
17166,-0.2279,-0.3567,0.8477,-11.060,-10.780,2.695,423,421,382,399,402,2025-05-28T17:21:28.454128
17167,-0.2396,-0.3655,0.8613,-6.790,-16.765,1.470,388,408,389,392,351,2025-05-28T17:21:28.721749
17168,-0.3250,-0.3070,0.8804,-9.310,-21.420,2.590,417,428,395,401,373,2025-05-28T17:21:28.721749
17169,-0.2303,-0.3143,0.8682,-10.920,-30.415,-0.875,403,405,385,385,386,2025-05-28T17:21:28.721749
17170,-0.2206,-0.3143,0.8164,-9.835,-37.415,-2.975,420,376,379,378,402,2025-05-28T17:21:28.721749
17171,-0.2489,-0.3372,0.8135,-5.845,-33.355,-3.115,431,384,388,400,395,2025-05-28T17:21:28.721749
17172,-0.2562,-0.3348,0.8882,-1.610,-36.575,-4.655,408,407,387,400,409,2025-05-28T17:21:28.721749
17173,-0.2298,-0.3523,0.9360,2.135,-46.410,-5.390,408,370,400,398,411,2025-05-28T17:21:28.721749
17174,-0.2377,-0.3567,0.9438,3.710,-55.195,-5.215,422,402,384,351,408,2025-05-28T17:21:28.721749
17175,-0.2118,-0.3558,0.9531,4.690,-58.660,-4.655,425,388,392,403,407,2025-05-28T17:21:28.721749
17176,-0.2001,-0.3841,0.9453,5.495,-63.770,-3.535,409,396,318,405,396,2025-05-28T17:21:28.721749
17177,-0.1645,-0.3631,1.0102,6.685,-67.795,-3.290,430,415,351,395,404,2025-05-28T17:21:28.721749
17178,-0.1479,-0.3719,0.9994,5.530,-69.370,-2.030,407,389,373,389,399,2025-05-28T17:21:28.721749
17179,-0.1366,-0.3699,0.9809,3.535,-67.515,-0.665,408,409,382,406,374,2025-05-28T17:21:28.722747
17180,-0.1118,-0.3762,0.9614,1.470,-61.495,0.735,435,404,395,382,339,2025-05-28T17:21:28.722747
17181,-0.0771,-0.3479,0.9550,2.415,-53.830,1.225,408,406,392,382,370,2025-05-28T17:21:28.722747
17182,-0.2279,-0.4978,0.9457,0.315,-48.265,2.275,432,384,381,411,379,2025-05-28T17:21:28.722747
17183,-0.1986,-0.4016,0.9692,7.665,-48.370,2.730,429,391,376,413,399,2025-05-28T17:21:28.722747
17184,-0.1542,-0.4748,0.9350,18.865,-50.260,1.050,431,340,349,393,394,2025-05-28T17:21:28.722747
17185,-0.0761,-0.3719,0.9775,13.825,-48.160,0.385,404,405,358,346,385,2025-05-28T17:21:28.722747
17186,-0.0171,-0.3650,1.0170,9.275,-47.250,2.170,418,346,331,375,396,2025-05-28T17:21:28.722747
17187,-0.0010,-0.3811,1.0277,8.365,-43.925,5.530,404,392,287,389,405,2025-05-28T17:21:28.905585
17188,-0.0342,-0.3797,1.0228,6.720,-44.660,7.140,407,382,335,400,402,2025-05-28T17:21:28.905585
17189,-0.0488,-0.3870,1.0033,5.880,-43.435,8.155,397,386,317,343,403,2025-05-28T17:21:28.905585
17190,-0.0512,-0.3977,1.0024,6.020,-44.625,8.645,396,419,334,335,393,2025-05-28T17:21:28.905585
17191,0.0132,-0.4714,0.7452,18.795,-34.020,12.425,396,403,363,378,402,2025-05-28T17:21:28.905585
17192,-0.0483,-0.3304,0.9653,14.105,-28.385,12.250,393,415,368,377,388,2025-05-28T17:21:28.905585
17193,0.0264,-0.2904,0.9472,10.255,-21.490,15.330,305,390,382,384,408,2025-05-28T17:21:28.905585
17194,0.0288,-0.3255,0.9457,5.740,-18.480,18.340,408,398,378,400,395,2025-05-28T17:21:28.905585
17195,0.0234,-0.3357,0.9716,4.445,-16.730,20.125,418,397,380,414,417,2025-05-28T17:21:28.905585
17196,0.0254,-0.3431,0.9360,6.965,-13.755,22.925,419,389,385,408,400,2025-05-28T17:21:28.905585
17197,0.0059,-0.3343,0.9423,6.055,-14.105,26.355,427,404,384,395,404,2025-05-28T17:21:28.905585
17198,-0.0127,-0.3392,0.9784,5.705,-16.415,27.685,411,403,379,407,383,2025-05-28T17:21:28.905585
17199,-0.0312,-0.3528,0.9838,5.950,-15.785,28.945,400,420,374,372,396,2025-05-28T17:21:28.905585
17200,-0.0405,-0.3704,1.0155,3.990,-13.265,29.925,427,397,381,394,356,2025-05-28T17:21:28.905585
17201,-0.0537,-0.3723,1.0350,1.435,-13.230,30.800,435,412,378,355,378,2025-05-28T17:21:28.905585
17202,-0.0669,-0.3787,1.0311,-0.700,-14.665,30.275,430,356,347,374,400,2025-05-28T17:21:28.905585
17203,-0.0625,-0.3967,1.0424,-1.610,-16.170,29.750,414,397,372,416,389,2025-05-28T17:21:28.905585
17204,-0.0717,-0.4187,1.0492,-0.805,-19.705,29.260,400,369,385,394,398,2025-05-28T17:21:28.905585
17205,-0.0644,-0.4026,1.0668,0.000,-22.435,28.350,357,394,389,386,348,2025-05-28T17:21:28.905585
17206,-0.0508,-0.3997,1.1004,-1.295,-24.430,27.825,373,413,379,391,367,2025-05-28T17:21:28.905585
