SeqNum,AccX,AccY,AccZ,GyroX,GyroY,GyroZ,Flex,Force1,Force2,Force3,Force4,TimestampReception
8764,0.0000,0.0000,0.0000,0.000,0.000,0.000,473,431,251,399,360,2025-05-23T21:23:51.265892
8765,-0.8252,0.1469,-0.2269,-40.670,-242.690,19.110,497,421,264,377,383,2025-05-23T21:23:51.265999
8766,-0.7174,0.0825,-0.3060,74.130,-305.060,-24.640,437,394,336,386,396,2025-05-23T21:23:51.266024
8767,-0.5983,0.2542,-0.7823,9.800,-126.000,48.160,437,412,313,394,383,2025-05-23T21:23:51.266038
8768,-0.8501,0.0727,-0.3436,-62.370,-45.430,32.410,433,426,365,422,391,2025-05-23T21:23:51.266051
8769,-0.8647,0.0888,-0.2577,-100.030,9.170,22.610,399,344,371,402,390,2025-05-23T21:23:51.316969
8770,-0.9379,-0.0283,-0.3845,-31.780,22.820,-6.510,427,397,365,396,385,2025-05-23T21:23:51.317051
8771,-0.9272,0.0439,-0.3558,-17.850,41.300,-19.390,403,414,383,398,403,2025-05-23T21:23:51.317067
8772,-0.8799,0.0571,-0.3821,29.960,64.470,-44.450,398,397,394,417,397,2025-05-23T21:23:51.317080
8773,-0.8272,0.1113,-0.4675,7.000,92.050,-44.310,423,396,400,418,359,2025-05-23T21:23:51.366118
8774,-0.8711,0.0864,-0.4002,-73.080,94.290,-30.730,422,349,401,397,389,2025-05-23T21:23:51.366166
8775,-0.8057,0.1625,-0.3445,-99.680,65.730,-15.680,408,419,352,367,389,2025-05-23T21:23:51.366180
8776,-0.7593,0.1776,-0.4333,-86.590,35.140,-1.120,423,431,371,376,393,2025-05-23T21:23:51.366192
8777,-0.8540,0.1591,-0.4172,-62.580,11.410,16.100,400,430,337,335,387,2025-05-23T21:23:51.468761
8778,-0.8560,0.1054,-0.4738,-44.030,21.140,15.540,402,441,364,392,412,2025-05-23T21:23:51.468799
8779,-0.8926,0.1113,-0.4939,-28.420,38.710,3.220,371,431,383,343,405,2025-05-23T21:23:51.468809
8780,-0.8379,0.0883,-0.5183,-0.140,41.020,-13.510,381,406,391,369,407,2025-05-23T21:23:51.468817
8781,-0.7759,0.1376,-0.4924,-25.690,29.190,-11.620,407,403,375,387,395,2025-05-23T21:23:51.468826
8782,-0.8052,0.1044,-0.5719,-63.840,21.420,-6.510,421,403,373,399,387,2025-05-23T21:23:51.468834
8783,-0.8784,0.0508,-0.5822,-80.430,19.180,-14.350,431,424,346,412,399,2025-05-23T21:23:51.468854
8784,-0.8633,0.0493,-0.5700,-54.390,16.240,-27.300,396,412,360,374,382,2025-05-23T21:23:51.468864
8785,-0.9623,0.0776,-0.4821,-34.020,9.240,-35.350,398,429,361,382,360,2025-05-23T21:23:51.468872
8786,-0.9082,0.1020,-0.4641,23.100,-13.790,-38.220,414,351,325,365,322,2025-05-23T21:23:51.571813
8787,-0.9599,0.1596,-0.4319,45.990,-34.930,-34.650,402,412,314,338,333,2025-05-23T21:23:51.571870
8788,-0.9521,0.1103,-0.4089,5.670,-44.590,-32.970,406,402,350,374,368,2025-05-23T21:23:51.571886
8789,-0.8560,0.0913,-0.4646,-33.250,-40.530,-28.980,429,413,362,407,404,2025-05-23T21:23:51.571901
8790,-0.8721,0.1298,-0.4568,-47.600,-28.630,-29.890,391,417,368,416,358,2025-05-23T21:23:51.571915
8791,-0.8799,0.1230,-0.4426,-49.000,-10.150,-23.240,418,402,382,364,389,2025-05-23T21:23:51.571949
8792,-0.8252,0.0917,-0.3982,-2.170,0.910,-11.480,344,382,371,392,390,2025-05-23T21:23:51.571961
8793,-1.0629,0.1152,-0.2786,35.420,1.890,-10.220,364,389,382,369,405,2025-05-23T21:23:51.571972
8794,-1.0863,0.1064,-0.2001,7.630,4.830,11.130,374,399,381,382,356,2025-05-23T21:23:51.777612
8795,-1.1029,0.1479,-0.3235,115.780,-9.730,-24.010,356,425,375,400,356,2025-05-23T21:23:51.777659
8796,-1.1566,0.0673,-0.4338,-63.420,-46.340,-3.710,344,419,367,386,390,2025-05-23T21:23:51.777672
8797,-1.1029,0.0420,-0.4709,-189.490,-6.160,22.400,400,422,351,386,402,2025-05-23T21:23:51.777684
8798,-1.1434,-0.0239,-0.3465,-86.590,-38.430,-1.890,361,410,369,397,388,2025-05-23T21:23:51.777712
8799,-0.9941,0.1884,-0.3250,-6.790,-102.480,21.210,367,423,370,397,400,2025-05-23T21:23:51.777723
8800,-0.9267,0.1635,-0.3689,32.620,-118.230,34.020,363,428,388,416,402,2025-05-23T21:23:51.777732
8801,-0.8926,0.1391,-0.3797,53.480,-112.280,43.050,412,437,389,391,385,2025-05-23T21:23:51.777742
8802,-0.8647,0.1322,-0.4704,54.810,-72.170,54.180,399,400,355,346,360,2025-05-23T21:23:51.777751
8803,-0.9667,0.1000,-0.4695,64.890,-51.870,55.090,416,426,371,388,398,2025-05-23T21:23:51.777764
8804,-1.0175,0.0683,-0.4299,105.770,-54.110,41.860,357,398,374,349,387,2025-05-23T21:23:51.777774
8805,-0.9984,0.1308,-0.3172,80.220,-53.410,36.050,407,406,382,393,350,2025-05-23T21:23:51.777784
8806,-0.9745,0.1425,-0.3543,50.750,-40.670,22.750,427,414,391,404,374,2025-05-23T21:23:51.777796
8807,-0.9379,0.1752,-0.2094,28.280,-44.870,12.320,429,338,387,413,388,2025-05-23T21:23:51.777804
8808,-0.8950,0.1381,-0.3733,31.220,-37.030,-3.080,423,406,392,417,380,2025-05-23T21:23:51.777848
8809,-0.8359,0.1649,-0.3050,-2.240,-65.310,-6.650,409,415,390,397,342,2025-05-23T21:23:51.777858
8810,-0.7632,0.1688,-0.5217,-26.110,-65.660,3.080,423,392,395,403,379,2025-05-23T21:23:51.777867
8811,-0.7671,0.1937,-0.3445,-47.950,-52.920,14.770,424,418,345,414,394,2025-05-23T21:23:51.982102
8812,-0.9316,0.0810,-0.4372,50.610,-10.780,-5.040,421,344,362,425,406,2025-05-23T21:23:51.982160
8813,-0.9174,0.1718,-0.2172,99.260,-7.420,-16.030,429,386,367,397,417,2025-05-23T21:23:51.982199
8814,-0.9243,0.1781,-0.1161,127.820,-40.040,-28.000,415,409,386,419,411,2025-05-23T21:23:51.982214
8815,-0.9687,0.0747,-0.1723,133.980,-80.640,-35.420,346,419,395,411,402,2025-05-23T21:23:51.982227
8816,-0.8364,0.3182,-0.0698,62.020,-152.740,-17.710,383,410,356,374,314,2025-05-23T21:23:51.982240
8817,-0.7203,0.3626,-0.2147,-1.330,-178.920,6.790,416,405,364,384,379,2025-05-23T21:23:51.982255
8818,-0.6769,0.1244,-0.3094,8.680,-159.880,8.750,397,395,335,398,409,2025-05-23T21:23:51.982267
8819,-0.7340,0.2172,-0.2020,7.070,-92.400,14.420,402,404,367,345,405,2025-05-23T21:23:51.982279
8820,-0.7798,0.1449,-0.0581,0.420,-29.890,-1.610,419,410,376,355,406,2025-05-23T21:23:51.982295
8821,-0.8618,0.0429,-0.1142,74.550,17.710,-35.700,365,419,375,375,405,2025-05-23T21:23:51.982309
8822,-0.7061,0.0756,-0.3109,26.180,67.620,-28.980,410,352,351,392,404,2025-05-23T21:23:51.982322
8823,-0.8686,0.0522,-0.1986,39.760,99.680,-5.950,414,415,362,409,411,2025-05-23T21:23:51.982334
8824,-0.9267,0.1542,-0.0381,31.080,63.000,-5.950,398,349,368,419,406,2025-05-23T21:23:51.982345
8825,-0.9906,0.1157,-0.2362,-12.040,79.310,6.370,429,401,337,406,359,2025-05-23T21:23:51.982356
8826,-1.0653,0.0449,-0.2347,-39.550,82.180,-1.540,428,412,369,388,390,2025-05-23T21:23:51.982412
8827,-1.1458,0.0215,-0.3499,-36.330,86.170,-1.190,408,411,376,404,350,2025-05-23T21:23:51.982428
8828,-1.1400,0.0098,-0.2538,-2.030,69.440,4.270,381,423,382,408,354,2025-05-23T21:23:52.185985
8829,-1.1644,0.0542,-0.3314,42.770,66.920,-2.380,349,406,392,410,349,2025-05-23T21:23:52.186031
8830,-1.1102,0.0020,-0.0815,3.220,46.900,24.080,405,399,381,410,392,2025-05-23T21:23:52.186043
8831,-1.1595,-0.0127,-0.1918,25.760,38.220,31.570,425,402,379,358,403,2025-05-23T21:23:52.186053
8832,-0.2601,0.1596,-0.3806,48.860,51.660,36.470,402,426,393,397,415,2025-05-23T21:23:52.186063
8833,-0.8452,0.2430,-0.4163,72.450,50.190,24.360,395,411,395,411,412,2025-05-23T21:23:52.186072
8834,-0.9223,0.1806,-0.2230,68.740,59.920,45.710,353,420,403,411,399,2025-05-23T21:23:52.186096
8835,-1.1961,-0.0473,-0.3743,108.640,107.100,100.450,407,415,395,401,386,2025-05-23T21:23:52.186105
8836,-0.3899,0.1274,-0.8516,39.550,136.640,105.910,397,400,346,373,346,2025-05-23T21:23:52.186115
8837,-1.1092,0.5046,-0.4319,137.690,57.680,115.640,353,386,360,338,326,2025-05-23T21:23:52.186124
8838,-0.9731,0.0839,-0.2406,22.120,-52.640,17.850,406,417,375,326,380,2025-05-23T21:23:52.186133
8839,-0.9316,0.2103,-0.5080,13.440,-78.960,58.030,340,359,377,384,404,2025-05-23T21:23:52.186142
8840,-0.8486,0.1620,-0.4504,64.050,-107.100,54.390,406,395,366,404,356,2025-05-23T21:23:52.186154
8841,-0.9960,0.2308,-0.3728,53.760,-100.240,48.440,370,398,377,391,380,2025-05-23T21:23:52.186168
8842,-1.0014,0.2079,-0.5002,54.530,-11.200,38.640,412,408,343,393,388,2025-05-23T21:23:52.186207
8843,-1.0692,0.2806,-0.3436,46.200,36.050,31.850,408,426,361,345,383,2025-05-23T21:23:52.186216
8844,-0.9858,0.2289,-0.3943,23.310,29.820,24.500,420,412,345,382,388,2025-05-23T21:23:52.186225
8845,-0.9423,0.2186,-0.4172,38.780,2.590,42.770,407,399,369,399,404,2025-05-23T21:23:52.233284
8846,-0.9062,0.1932,-0.4939,0.840,-14.350,33.670,416,400,383,395,386,2025-05-23T21:23:52.233310
8847,-0.8403,0.0688,-0.4948,-34.370,14.700,14.630,429,396,392,405,384,2025-05-23T21:23:52.233315
8848,-0.9721,0.2733,-0.1835,-57.680,63.210,17.010,383,396,386,399,402,2025-05-23T21:23:52.235646
8849,-1.0126,0.2113,-0.3211,-17.360,65.800,-2.030,350,422,315,399,406,2025-05-23T21:23:52.285900
8850,-1.0009,0.4621,-0.3338,-36.960,59.710,-14.910,421,347,351,389,400,2025-05-23T21:23:52.285928
8851,-0.9077,0.2181,-0.4514,-23.520,30.030,-17.850,358,334,374,405,389,2025-05-23T21:23:52.285934
8852,-0.8242,0.3274,-0.3899,5.740,54.530,-18.970,422,421,376,362,348,2025-05-23T21:23:52.285939
8853,-0.7579,0.4021,-0.1581,-158.130,119.910,11.900,416,423,375,375,383,2025-05-23T21:23:52.285944
8854,-0.8828,0.3118,-0.5012,-122.010,122.150,16.590,422,307,375,389,400,2025-05-23T21:23:52.336075
8855,-0.7969,0.2323,-0.1640,-74.900,32.340,24.570,372,358,385,404,360,2025-05-23T21:23:52.336099
8856,-0.9033,0.1444,-0.6183,30.380,-18.410,19.390,421,404,316,368,382,2025-05-23T21:23:52.336105
8857,-0.8989,0.2108,-0.5519,66.570,-0.140,13.300,412,380,346,385,400,2025-05-23T21:23:52.336110
8858,-0.8374,0.1796,-0.4904,76.860,-0.210,-26.040,303,407,357,404,397,2025-05-23T21:23:52.589686
8859,-0.8316,0.3148,-0.3860,-13.440,9.170,6.440,389,422,375,393,406,2025-05-23T21:23:52.589737
8860,-0.7696,0.3070,-0.2669,-31.360,-103.950,26.040,428,363,384,350,392,2025-05-23T21:23:52.589747
8861,-0.8633,0.3065,-0.4885,-63.140,-146.650,45.360,402,398,385,331,384,2025-05-23T21:23:52.589756
8862,-0.9579,0.1791,-0.5012,-78.400,-130.410,23.520,395,419,382,325,386,2025-05-23T21:23:52.589764
8863,-0.8735,-0.1122,-0.8911,26.390,-75.390,-7.140,348,400,387,367,395,2025-05-23T21:23:52.589774
8864,-0.7725,0.4699,-0.1025,-16.100,0.000,14.840,372,380,359,386,403,2025-05-23T21:23:52.589783
8865,-0.8101,0.3030,-0.5017,7.910,13.300,0.840,401,413,374,394,416,2025-05-23T21:23:52.589792
8866,-0.8623,0.2811,-0.4616,13.860,59.710,9.800,427,421,385,382,355,2025-05-23T21:23:52.589800
8867,-0.7315,0.3250,-0.3831,19.740,51.660,-0.840,382,412,380,360,336,2025-05-23T21:23:52.589807
8868,-0.9316,0.4568,-0.4451,29.820,56.770,-15.050,391,418,381,382,383,2025-05-23T21:23:52.589814
8869,-0.8828,0.2669,-0.5905,-49.980,28.280,11.970,402,430,356,363,392,2025-05-23T21:23:52.589823
8870,-0.9252,0.3094,-0.4241,-41.650,17.360,7.420,419,437,382,402,408,2025-05-23T21:23:52.589836
8871,-0.9389,0.4338,-0.3465,-53.620,-31.920,8.960,394,432,342,306,348,2025-05-23T21:23:52.589844
8872,-0.8979,0.4207,-0.3343,-102.550,-45.290,20.930,414,388,329,376,348,2025-05-23T21:23:52.589879
8873,-0.9057,0.3704,-0.5475,-49.630,-32.410,3.990,362,402,326,401,384,2025-05-23T21:23:52.589892
8874,-0.8760,0.4119,-0.3606,-26.460,16.170,2.030,291,386,352,379,341,2025-05-23T21:23:52.589899
8875,-0.8725,0.3172,-0.3684,7.630,21.070,-1.260,384,408,366,389,378,2025-05-23T21:23:52.589907
8876,-0.8550,0.2967,-0.4738,42.910,26.670,9.380,412,437,385,419,387,2025-05-23T21:23:52.589914
8877,-0.7530,0.3758,-0.3221,47.390,6.720,6.650,344,357,381,422,404,2025-05-23T21:23:52.589923
8878,-0.7662,0.3499,-0.4153,12.880,3.080,14.560,348,404,386,433,404,2025-05-23T21:23:52.808894
8879,-0.7701,0.2957,-0.3723,18.760,18.060,4.620,413,409,383,400,404,2025-05-23T21:23:52.808939
8880,-0.8067,0.3816,-0.2186,41.370,24.360,-10.220,351,388,386,415,391,2025-05-23T21:23:52.808951
8881,-0.7061,0.4729,-0.2445,6.930,75.390,-2.450,409,423,379,421,345,2025-05-23T21:23:52.808962
8882,-0.6388,0.2391,-0.3855,35.350,104.230,1.540,424,371,389,409,379,2025-05-23T21:23:52.808972
8883,-0.8662,0.3201,-0.3631,53.900,70.980,-11.270,414,414,380,412,370,2025-05-23T21:23:52.808982
8884,-0.8657,0.4324,-0.2767,17.290,20.090,4.200,404,411,379,418,399,2025-05-23T21:23:52.808993
8885,-0.8003,0.3680,-0.3177,-4.340,-16.660,12.040,423,423,379,418,367,2025-05-23T21:23:52.809004
8886,-0.7496,0.3709,-0.3704,-12.530,-44.100,16.800,406,441,377,394,380,2025-05-23T21:23:52.809013
8887,-0.7159,0.4499,-0.3680,-56.140,-49.700,29.540,425,404,371,408,402,2025-05-23T21:23:52.809023
8888,-0.8438,0.2933,-0.4431,-52.500,-15.260,18.270,432,365,379,415,391,2025-05-23T21:23:52.809032
8889,-0.9155,0.3279,-0.4329,-32.970,28.840,-3.360,414,349,368,380,385,2025-05-23T21:23:52.809041
8890,-0.9770,0.1898,-0.4978,65.590,55.090,-34.930,419,394,352,346,395,2025-05-23T21:23:52.809049
8891,-0.9599,0.4573,-0.1903,110.250,48.510,-34.160,414,415,365,390,394,2025-05-23T21:23:52.809057
8892,-0.8833,0.3719,-0.4582,94.080,37.240,-58.870,351,346,381,406,413,2025-05-23T21:23:52.809114
8893,-0.8257,0.4392,-0.3899,27.090,-14.350,-24.640,396,386,382,363,405,2025-05-23T21:23:52.809124
8894,-0.7281,0.5300,-0.1401,-52.850,-21.280,6.370,374,335,351,356,356,2025-05-23T21:23:52.809134
8895,-0.6256,0.2333,-0.5329,23.590,18.060,-46.410,373,384,373,381,367,2025-05-23T21:23:52.809143
8896,-0.7344,0.4182,-0.1069,65.520,6.230,-47.460,386,398,345,397,374,2025-05-23T21:23:52.809152
8897,-0.7803,0.2835,-0.5192,7.420,-11.970,-23.520,414,424,363,405,375,2025-05-23T21:23:53.010809
8898,-0.7422,0.2699,-0.5070,17.290,-13.300,-23.660,411,408,379,395,375,2025-05-23T21:23:53.010866
8899,-0.8735,0.3265,-0.3050,-24.640,-24.010,-6.440,344,405,383,400,359,2025-05-23T21:23:53.010900
8900,-0.8569,0.3748,-0.3250,-5.600,-29.330,-3.710,392,423,372,391,379,2025-05-23T21:23:53.010914
8901,-0.8852,0.3357,-0.4050,40.180,-8.960,-20.930,340,405,383,411,399,2025-05-23T21:23:53.010927
8902,-0.8764,0.4158,-0.3099,46.830,5.810,-17.710,403,413,381,420,419,2025-05-23T21:23:53.010938
8903,-0.7852,0.3904,-0.3094,50.750,16.660,-22.330,400,430,388,436,409,2025-05-23T21:23:53.010951
8904,-0.7096,0.3138,-0.4563,22.120,6.370,-23.380,397,440,409,442,432,2025-05-23T21:23:53.010961
8905,-0.7296,0.3050,-0.4729,-34.090,-22.680,1.120,437,447,412,424,431,2025-05-23T21:23:53.010972
8906,-0.7666,0.2801,-0.4597,-36.470,-14.490,-2.520,403,418,369,404,413,2025-05-23T21:23:53.010994
8907,-0.7959,0.2821,-0.4002,-16.520,8.050,-14.770,425,419,376,399,411,2025-05-23T21:23:53.011005
8908,-0.8657,0.2416,-0.4792,5.320,35.210,-38.010,398,408,390,401,411,2025-05-23T21:23:53.011016
8909,-0.9243,0.2440,-0.4133,25.130,36.540,-61.460,420,379,386,402,374,2025-05-23T21:23:53.011026
8910,-0.9789,0.3655,-0.6359,-8.960,63.000,-55.930,424,395,385,404,364,2025-05-23T21:23:53.011040
8911,-0.8579,0.2733,-0.4573,-10.500,29.330,-41.650,355,408,380,413,379,2025-05-23T21:23:53.011095
8912,-0.8867,0.3079,-0.5656,-17.640,0.210,-26.810,384,373,346,410,384,2025-05-23T21:23:53.011107
8913,-0.9853,0.2279,-0.6266,-29.680,0.350,-16.240,371,412,375,410,386,2025-05-23T21:23:53.011125
8914,-1.1253,0.1064,-0.6744,-15.610,-14.350,-20.930,388,436,388,419,377,2025-05-23T21:23:53.212457
8915,-1.1683,0.1298,-0.7135,3.710,-16.240,-30.310,403,419,386,398,380,2025-05-23T21:23:53.212511
8916,-1.1556,0.2147,-0.4841,3.640,-90.510,-27.300,337,398,389,376,336,2025-05-23T21:23:53.212526
8917,-1.0311,0.2684,-0.5539,-7.140,-112.560,-18.270,346,353,382,387,378,2025-05-23T21:23:53.212539
8918,-1.0311,0.1820,-0.6266,28.420,-98.560,-27.930,359,400,380,391,381,2025-05-23T21:23:53.212551
8919,-1.0307,0.1874,-0.6593,-12.950,-98.350,-18.270,405,422,385,408,405,2025-05-23T21:23:53.212563
8920,-1.0560,0.1005,-0.6793,-35.350,-86.240,-12.880,421,398,348,357,355,2025-05-23T21:23:53.212592
8921,-1.1141,0.0693,-0.6920,-9.870,-75.320,-22.400,389,388,369,372,395,2025-05-23T21:23:53.212604
8922,-1.1551,0.1069,-0.6085,4.900,-38.290,-16.940,343,419,338,369,390,2025-05-23T21:23:53.212616
8923,-1.0736,0.0673,-0.6998,23.730,-16.800,-30.030,409,408,368,402,316,2025-05-23T21:23:53.212631
8924,-1.1058,0.1147,-0.6237,6.580,11.480,-22.260,366,417,370,388,335,2025-05-23T21:23:53.212646
8925,-1.0707,0.1381,-0.6212,1.680,22.190,-17.990,414,435,387,446,1023,2025-05-23T21:23:53.212661
8926,-1.1810,0.0727,-0.6012,-30.240,1.820,-3.920,423,424,337,425,984,2025-05-23T21:23:53.212672
8927,-1.0629,0.0088,-0.7379,-11.410,-3.430,0.350,424,399,352,404,966,2025-05-23T21:23:53.212686
8928,-1.2132,0.0288,-0.6700,-8.610,-25.830,1.120,405,390,363,389,947,2025-05-23T21:23:53.212734
8929,-1.2034,0.0429,-0.7213,-10.150,-34.160,2.590,412,398,375,386,646,2025-05-23T21:23:53.212745
8930,-1.1834,0.0732,-0.6934,-0.700,-40.740,1.820,402,403,388,376,504,2025-05-23T21:23:53.212756
8931,-1.0824,0.0717,-0.6344,2.310,-51.240,3.430,412,414,394,379,465,2025-05-23T21:23:53.263345
8932,-1.1136,0.0293,-0.6115,-5.320,-69.160,0.980,420,354,350,389,435,2025-05-23T21:23:53.263608
8933,-1.1073,0.0181,-0.6368,-10.430,-78.890,-0.420,418,368,375,403,438,2025-05-23T21:23:53.263622
8934,-1.0297,0.0039,-0.5563,-24.640,-104.720,3.080,406,426,386,401,443,2025-05-23T21:23:53.263645
8935,-0.9628,0.0093,-0.5065,-39.760,-124.460,7.770,394,431,383,390,455,2025-05-23T21:23:53.418720
8936,-0.9150,-0.0049,-0.5031,-41.440,-136.990,14.490,398,414,357,396,410,2025-05-23T21:23:53.418772
8937,-0.9199,-0.0010,-0.5065,-43.890,-118.300,19.040,347,421,358,416,593,2025-05-23T21:23:53.418790
8938,-0.9311,-0.0259,-0.4714,-27.720,-80.080,14.630,384,351,341,412,510,2025-05-23T21:23:53.418803
8939,-0.9755,-0.0337,-0.4534,-7.980,-34.510,3.080,414,421,364,409,481,2025-05-23T21:23:53.418815
8940,-0.9043,-0.0356,-0.4314,14.630,-13.930,-3.710,399,392,372,416,478,2025-05-23T21:23:53.418827
8941,-0.8208,-0.0264,-0.3870,27.720,-13.930,2.800,424,385,375,431,858,2025-05-23T21:23:53.418838
8942,-0.7896,-0.0054,-0.3260,16.170,-28.070,11.480,961,435,373,418,892,2025-05-23T21:23:53.418867
8943,-0.6969,-0.0161,-0.3270,3.780,-50.330,20.930,959,436,384,375,894,2025-05-23T21:23:53.418879
8944,-0.7471,-0.0439,-0.4021,-1.330,-38.150,26.180,914,406,392,405,868,2025-05-23T21:23:53.418890
8945,-0.7603,-0.1025,-0.4826,21.490,-5.320,14.700,956,444,398,385,911,2025-05-23T21:23:53.418901
8946,-0.8062,-0.0830,-0.3870,62.020,42.280,-7.560,958,426,392,377,900,2025-05-23T21:23:53.418911
8947,-0.8886,0.0605,-0.3011,89.530,61.950,-29.190,958,437,379,435,902,2025-05-23T21:23:53.621003
8948,-0.6159,-0.0600,-0.2255,95.620,54.180,-61.810,932,408,381,452,852,2025-05-23T21:23:53.621060
8949,-0.9194,0.0249,-0.1850,85.330,60.620,-65.590,934,411,390,447,799,2025-05-23T21:23:53.621097
8950,-0.7920,0.0063,-0.1737,20.300,33.950,-52.360,758,409,340,430,563,2025-05-23T21:23:53.621111
8951,-0.7691,-0.0717,-0.1850,-10.990,0.980,-50.400,736,398,324,422,501,2025-05-23T21:23:53.621124
8952,-0.7881,-0.1186,-0.1762,-21.700,-38.920,-50.610,726,425,359,431,488,2025-05-23T21:23:53.621137
8953,-0.8159,-0.1523,-0.1835,-21.280,-63.840,-56.070,727,414,380,436,437,2025-05-23T21:23:53.621150
8954,-0.8106,-0.1747,-0.2406,-4.550,-48.930,-69.230,761,415,377,426,461,2025-05-23T21:23:53.621162
8955,-0.8062,-0.1845,-0.2367,4.550,-24.500,-81.690,819,420,388,381,473,2025-05-23T21:23:53.621175
8956,-0.7784,-0.1869,-0.1757,2.240,-17.570,-86.450,825,417,383,402,474,2025-05-23T21:23:53.621192
8957,-0.8325,-0.2499,-0.2489,6.230,-20.860,-93.660,831,399,378,371,715,2025-05-23T21:23:53.621206
8958,-0.8891,-0.2723,-0.2655,16.520,-23.100,-101.150,836,412,390,389,639,2025-05-23T21:23:53.621219
8959,-1.0121,-0.3040,-0.3440,11.760,-14.630,-102.830,842,401,389,393,583,2025-05-23T21:23:53.621230
8960,-1.0843,-0.3089,-0.4148,-0.560,17.920,-105.840,844,398,392,407,499,2025-05-23T21:23:53.621242
8961,-1.0960,-0.2845,-0.3758,-11.690,38.640,-105.070,844,419,394,420,470,2025-05-23T21:23:53.621257
8962,-1.1263,-0.2782,-0.3963,-14.210,45.920,-96.040,837,408,348,408,463,2025-05-23T21:23:53.621316
8963,-1.1556,-0.2938,-0.4065,0.140,46.690,-89.460,833,396,375,428,433,2025-05-23T21:23:53.621333
8964,-1.1336,-0.2713,-0.3294,-7.490,32.340,-78.120,738,409,389,743,562,2025-05-23T21:23:53.825534
8965,-1.0853,-0.2625,-0.3860,0.420,3.920,-61.460,713,403,376,736,495,2025-05-23T21:23:53.825586
8966,-1.0912,-0.2679,-0.3865,15.050,-10.080,-45.850,716,384,374,727,465,2025-05-23T21:23:53.825602
8967,-1.0921,-0.2367,-0.4094,33.880,-10.290,-29.890,715,419,344,733,449,2025-05-23T21:23:53.825613
8968,-1.0980,-0.2186,-0.4070,50.960,-1.050,-21.070,718,418,354,713,455,2025-05-23T21:23:53.825624
8969,-1.0902,-0.1967,-0.3855,71.330,9.800,-13.930,726,353,380,696,448,2025-05-23T21:23:53.825635
8970,-1.0634,-0.1864,-0.3421,90.090,9.450,-10.010,716,361,390,746,442,2025-05-23T21:23:53.825645
8971,-1.0443,-0.1976,-0.3289,93.380,0.910,-7.070,717,398,391,751,445,2025-05-23T21:23:53.825657
8972,-1.0111,-0.1889,-0.3182,88.130,-13.580,-7.700,722,419,398,749,441,2025-05-23T21:23:53.825666
8973,-0.9941,-0.1776,-0.3099,77.630,-24.990,-8.960,722,405,388,757,440,2025-05-23T21:23:53.825676
8974,-0.9277,-0.1747,-0.2855,55.370,-32.480,-7.700,725,419,380,757,444,2025-05-23T21:23:53.825685
8975,-0.8847,-0.1723,-0.3094,37.100,-40.110,-8.540,727,428,387,763,432,2025-05-23T21:23:53.825694
8976,-0.8311,-0.1591,-0.3162,33.390,-43.680,-8.120,728,431,384,765,450,2025-05-23T21:23:53.825703
8977,-0.8091,-0.1513,-0.3416,35.350,-40.250,-8.190,730,435,387,763,458,2025-05-23T21:23:53.825711
8978,-0.8042,-0.1684,-0.3762,44.520,-24.220,-12.320,734,435,347,765,464,2025-05-23T21:23:53.825753
8979,-0.8159,-0.1854,-0.4036,57.610,-2.800,-18.130,736,406,364,769,442,2025-05-23T21:23:53.825762
8980,-0.8008,-0.1523,-0.3694,65.590,8.960,-19.040,738,418,369,768,446,2025-05-23T21:23:53.825771
8981,-0.8194,-0.1498,-0.3582,70.350,17.570,-19.880,741,400,378,773,457,2025-05-23T21:23:54.028838
8982,-0.8618,-0.1513,-0.3270,68.180,20.300,-22.750,743,417,389,762,447,2025-05-23T21:23:54.028887
8983,-0.8730,-0.1547,-0.3304,50.610,14.280,-22.120,749,422,391,773,463,2025-05-23T21:23:54.028899
8984,-0.8774,-0.1557,-0.3113,45.640,1.260,-21.350,753,422,352,773,445,2025-05-23T21:23:54.028910
8985,-0.8647,-0.1454,-0.2821,29.400,-21.980,-15.050,755,401,372,770,463,2025-05-23T21:23:54.028921
8986,-0.8384,-0.1801,-0.2899,12.950,-41.650,-9.450,758,410,385,770,471,2025-05-23T21:23:54.028931
8987,-0.8169,-0.1937,-0.3026,7.140,-49.210,-6.160,761,348,313,775,465,2025-05-23T21:23:54.028941
8988,-0.8276,-0.1884,-0.3050,10.780,-45.920,-2.380,762,338,312,802,456,2025-05-23T21:23:54.028951
8989,-0.8423,-0.1932,-0.2816,26.180,-42.210,-7.980,764,384,315,801,448,2025-05-23T21:23:54.028961
8990,-0.8496,-0.1835,-0.2616,46.340,-26.320,-10.640,766,434,363,804,465,2025-05-23T21:23:54.028971
8991,-0.8769,-0.1810,-0.2479,51.030,-17.290,-12.180,768,429,365,804,430,2025-05-23T21:23:54.028980
8992,-0.9008,-0.1718,-0.2528,51.170,-11.690,-11.410,769,425,365,799,460,2025-05-23T21:23:54.028989
8993,-0.8838,-0.1630,-0.2245,47.600,-18.830,-6.580,768,375,360,799,452,2025-05-23T21:23:54.028998
8994,-0.8774,-0.1469,-0.2269,34.020,-28.210,-0.280,770,405,376,796,414,2025-05-23T21:23:54.029007
8995,-0.9101,-0.1488,-0.2494,25.410,-28.910,2.450,773,403,385,803,442,2025-05-23T21:23:54.029049
8996,-0.9692,-0.1425,-0.2630,34.580,-10.710,2.520,775,400,396,801,442,2025-05-23T21:23:54.029058
8997,-1.0507,-0.1303,-0.2513,43.540,13.440,-0.140,777,349,396,804,459,2025-05-23T21:23:54.029069
8998,-1.1248,-0.1181,-0.2713,52.780,40.040,-1.120,779,383,388,802,458,2025-05-23T21:23:54.078683
8999,-1.1927,-0.1220,-0.2860,51.870,57.330,-0.140,782,395,390,802,465,2025-05-23T21:23:54.078726
9000,-1.2410,-0.1152,-0.2796,21.700,68.180,5.670,784,421,391,802,471,2025-05-23T21:23:54.078738
9001,-1.2566,-0.0839,-0.2835,23.240,65.870,20.230,786,441,387,805,460,2025-05-23T21:23:54.078748
9002,-1.2429,-0.0586,-0.2367,0.980,54.530,36.260,788,426,387,809,466,2025-05-23T21:23:54.126739
9003,-1.2312,-0.0673,-0.2025,-17.290,31.990,48.930,794,417,388,820,465,2025-05-23T21:23:54.126781
9004,-1.2088,-0.0454,-0.1781,-28.140,10.920,62.020,797,395,387,813,463,2025-05-23T21:23:54.126792
9005,-1.1775,-0.0312,-0.1371,-28.280,-10.150,72.240,799,419,382,813,467,2025-05-23T21:23:54.126803
9006,-1.1634,-0.0761,-0.0551,-19.040,-19.180,77.630,802,435,390,800,455,2025-05-23T21:23:54.175810
9007,-1.1087,-0.0420,-0.0298,-17.150,-34.930,87.920,805,432,360,788,461,2025-05-23T21:23:54.175870
9008,-1.0546,-0.0459,-0.0049,-23.450,-47.320,92.750,807,416,304,781,452,2025-05-23T21:23:54.175882
9009,-1.0170,-0.0688,0.0634,-31.150,-64.190,91.140,808,426,354,776,453,2025-05-23T21:23:54.175893
9010,-1.0053,-0.0874,0.0639,-42.280,-81.340,90.650,809,354,376,783,460,2025-05-23T21:23:54.223687
9011,-0.9667,-0.0820,0.0273,-35.910,-85.400,91.280,809,385,386,810,478,2025-05-23T21:23:54.223741
9012,-0.9248,-0.0537,0.0561,-34.370,-73.290,91.910,811,419,390,816,483,2025-05-23T21:23:54.223755
9013,-0.9121,-0.0532,0.0268,-35.070,-48.510,93.590,812,399,390,810,429,2025-05-23T21:23:54.223767
9014,-0.9550,-0.0576,0.1240,-22.540,-6.650,89.180,812,420,349,811,453,2025-05-23T21:23:54.281305
9015,-0.9770,-0.0551,0.0176,-4.830,26.810,82.460,814,344,373,795,460,2025-05-23T21:23:54.281547
9016,-0.9672,-0.0498,0.0376,4.410,44.870,78.750,814,328,383,793,454,2025-05-23T21:23:54.281564
9017,-0.9594,-0.0576,0.0830,4.690,41.930,78.330,816,329,389,797,466,2025-05-23T21:23:54.281578
9018,-0.9389,-0.0464,0.1283,-12.390,25.970,79.100,818,392,383,797,450,2025-05-23T21:23:54.281591
9019,-0.9189,-0.0537,0.1405,-34.440,-3.500,79.520,817,422,363,794,453,2025-05-23T21:23:54.439750
9020,-0.9043,-0.0556,0.0864,-34.440,-31.290,80.850,817,352,364,795,467,2025-05-23T21:23:54.439807
9021,-0.8916,-0.0630,0.0800,-31.430,-41.230,80.850,816,342,339,798,462,2025-05-23T21:23:54.439846
9022,-0.8560,-0.0859,0.0410,-27.090,-37.380,78.610,817,385,357,791,457,2025-05-23T21:23:54.439860
9023,-0.8589,-0.1113,0.0005,-17.500,-19.950,72.100,819,335,370,788,468,2025-05-23T21:23:54.439874
9024,-0.8750,-0.1215,-0.0029,0.910,-5.810,61.950,820,382,350,787,469,2025-05-23T21:23:54.439887
9025,-0.8764,-0.1044,0.0059,18.130,8.400,36.120,821,402,334,778,468,2025-05-23T21:23:54.439901
9026,-0.8677,-0.0844,0.0220,23.520,13.440,46.830,822,351,362,774,459,2025-05-23T21:23:54.439913
9027,-0.8599,-0.0595,0.0429,14.000,9.940,42.560,822,417,379,771,453,2025-05-23T21:23:54.439925
9028,-0.8560,-0.0376,0.0239,-0.420,-1.050,43.190,823,425,382,776,443,2025-05-23T21:23:54.439938
9029,-0.8930,-0.0425,-0.0312,-17.010,-5.810,43.190,824,432,378,779,407,2025-05-23T21:23:54.439951
9030,-0.9355,-0.0234,-0.0795,-21.910,-4.830,40.110,825,406,389,772,430,2025-05-23T21:23:54.439963
9031,-0.9618,0.0054,-0.1152,-16.870,3.500,35.070,827,417,395,777,449,2025-05-23T21:23:54.439975
9032,-0.9794,0.0503,-0.1391,-6.300,16.100,29.820,826,351,394,780,463,2025-05-23T21:23:54.644407
9033,-1.0385,0.0854,-0.1747,3.010,28.490,25.620,825,392,352,779,453,2025-05-23T21:23:54.644466
9034,-1.1575,0.0756,-0.2401,6.510,37.940,19.250,826,427,368,777,465,2025-05-23T21:23:54.644480
9035,-1.2322,0.0927,-0.2987,17.290,41.370,15.050,827,400,371,779,468,2025-05-23T21:23:54.644492
9036,-1.2224,0.1532,-0.2547,19.320,35.630,19.810,826,421,369,781,467,2025-05-23T21:23:54.644503
9037,-1.1473,0.2172,-0.2220,7.560,14.980,30.870,828,353,380,778,472,2025-05-23T21:23:54.644513
9038,-1.0858,0.2743,-0.1615,-9.520,2.660,59.430,828,340,348,776,476,2025-05-23T21:23:54.644523
9039,-1.0795,0.2782,-0.1737,-19.600,-3.990,73.920,829,396,360,736,465,2025-05-23T21:23:54.644533
9040,-1.0897,0.2464,-0.2035,-18.340,17.710,81.060,834,419,374,703,465,2025-05-23T21:23:54.644544
9041,-1.0697,0.2991,-0.2284,-17.710,7.490,87.920,838,436,339,695,452,2025-05-23T21:23:54.644557
9042,-1.0160,0.2889,-0.2464,-13.720,12.320,87.710,839,428,332,714,469,2025-05-23T21:23:54.644567
9043,-0.9511,0.3016,-0.1059,-2.170,-6.860,89.250,829,429,361,688,468,2025-05-23T21:23:54.644576
9044,-0.9013,0.3475,-0.0947,5.880,-40.530,97.230,825,415,375,689,454,2025-05-23T21:23:54.644587
9045,-0.8618,0.3416,-0.1078,7.000,-48.230,97.230,826,404,350,690,451,2025-05-23T21:23:54.644596
9046,-0.8481,0.3889,-0.1098,-3.360,-43.960,101.010,826,431,357,688,465,2025-05-23T21:23:54.644639
9047,-0.8164,0.3665,-0.1137,-13.860,-35.560,102.620,827,427,362,700,420,2025-05-23T21:23:54.644651
9048,-0.7828,0.3548,-0.1210,-14.140,-31.640,97.720,827,408,382,709,440,2025-05-23T21:23:54.644662
9049,-0.7574,0.3572,-0.1674,-14.980,-34.860,88.970,829,412,388,703,435,2025-05-23T21:23:54.692079
9050,-0.7652,0.3504,-0.2128,-10.850,-23.940,80.080,829,427,380,692,439,2025-05-23T21:23:54.692138
9051,-0.7608,0.3860,-0.1942,-6.580,-5.600,71.540,829,425,342,632,455,2025-05-23T21:23:54.692154
9052,-0.7510,0.4187,-0.1801,-8.540,7.770,67.550,829,428,360,772,478,2025-05-23T21:23:54.692168
9053,-0.7584,0.4353,-0.1649,-7.140,13.230,63.070,831,420,373,766,447,2025-05-23T21:23:54.741419
9054,-0.7476,0.4646,-0.1337,-9.520,7.490,61.250,831,404,350,758,470,2025-05-23T21:23:54.741468
9055,-0.7920,0.4329,-0.1893,-19.740,-6.300,62.580,831,421,370,766,467,2025-05-23T21:23:54.741481
9056,-0.7969,0.4294,-0.1986,-21.700,-17.290,60.340,832,419,366,767,410,2025-05-23T21:23:54.741493
9057,-0.7920,0.4402,-0.1972,-19.880,-33.110,59.640,833,409,380,768,437,2025-05-23T21:23:54.792444
9058,-0.7910,0.4353,-0.2528,-10.570,-31.850,61.600,833,414,388,761,454,2025-05-23T21:23:54.792476
9059,-0.7945,0.4831,-0.2611,-2.940,-10.710,69.510,834,433,388,771,462,2025-05-23T21:23:54.792484
9060,-0.8618,0.5119,-0.2860,2.590,18.970,70.700,834,397,383,766,455,2025-05-23T21:23:54.792490
9061,-0.9379,0.5617,-0.2826,7.210,64.610,68.950,835,420,380,752,461,2025-05-23T21:23:54.792496
9062,-1.0741,0.5490,-0.2879,5.880,91.630,62.650,835,431,389,760,430,2025-05-23T21:23:55.047277
9063,-1.1732,0.5597,-0.3836,29.190,102.830,52.920,835,399,377,832,460,2025-05-23T21:23:55.047325
9064,-1.1941,0.5578,-0.4431,3.220,82.180,59.850,834,426,338,824,455,2025-05-23T21:23:55.047524
9065,-1.1961,0.5978,-0.4914,-51.870,45.640,80.010,836,433,320,816,457,2025-05-23T21:23:55.047537
9066,-1.1102,0.6744,-0.3484,-66.080,-1.400,102.620,836,417,358,824,471,2025-05-23T21:23:55.047548
9067,-1.0355,0.7193,-0.2762,-81.480,-31.710,125.580,836,414,374,818,474,2025-05-23T21:23:55.047621
9068,-1.0487,0.7086,-0.2689,-65.310,-32.970,137.060,837,420,382,759,462,2025-05-23T21:23:55.047633
9069,-1.0751,0.7066,-0.2591,-40.390,-8.610,137.830,837,402,375,775,466,2025-05-23T21:23:55.047642
9070,-1.0809,0.7257,-0.2445,-19.320,17.640,137.760,838,395,381,773,467,2025-05-23T21:23:55.047652
9071,-1.0399,0.7486,-0.1679,7.070,23.240,140.350,838,337,374,769,452,2025-05-23T21:23:55.047662
9072,-0.9355,0.8257,-0.1249,15.890,2.450,145.880,839,402,381,762,472,2025-05-23T21:23:55.047671
9073,-0.7935,0.8716,-0.0630,-7.630,-26.600,162.190,839,417,392,572,463,2025-05-23T21:23:55.047685
9074,-0.7017,0.8764,-0.0590,-44.380,-59.150,181.720,840,410,394,657,455,2025-05-23T21:23:55.047694
9075,-0.5319,0.7671,-0.1122,-85.330,-73.010,198.030,840,431,383,595,451,2025-05-23T21:23:55.047703
9076,-0.4241,0.7457,0.0044,-103.390,-65.870,211.120,840,376,388,532,406,2025-05-23T21:23:55.047751
9077,-0.4534,0.7486,-0.0512,-96.950,-41.930,198.870,840,382,396,509,388,2025-05-23T21:23:55.047762
9078,-0.3645,0.7418,0.0961,-57.400,-19.320,180.740,842,397,396,514,391,2025-05-23T21:23:55.047771
9079,-0.3392,0.7510,0.1000,-12.810,-8.890,163.800,841,420,398,540,415,2025-05-23T21:23:55.047781
9080,-0.3333,0.7784,0.1249,6.440,-8.680,155.050,842,412,409,681,453,2025-05-23T21:23:55.047791
9081,-0.1947,0.7945,0.1230,10.220,-31.150,151.970,843,405,406,696,455,2025-05-23T21:23:55.047800
9082,-0.1947,0.8086,0.0386,-14.280,-55.160,149.030,844,429,392,700,478,2025-05-23T21:23:55.101095
9083,-0.1152,0.7920,-0.0337,-29.120,-60.340,146.300,844,435,353,659,468,2025-05-23T21:23:55.101166
9084,-0.1293,0.7691,-0.0390,-20.090,-47.600,135.940,843,414,369,572,446,2025-05-23T21:23:55.101185
9085,-0.1191,0.7657,-0.0712,-14.000,-27.650,124.670,845,426,374,447,433,2025-05-23T21:23:55.101202
9086,-0.0805,0.7471,-0.0747,-2.170,-19.110,111.510,845,415,382,481,439,2025-05-23T21:23:55.101219
9087,-0.1240,0.7549,-0.0752,12.390,-22.260,95.200,845,422,396,473,394,2025-05-23T21:23:55.259748
9088,-0.0952,0.7979,-0.0498,16.730,-32.130,86.100,846,429,379,429,439,2025-05-23T21:23:55.259795
9089,-0.0547,0.8340,-0.0190,7.910,-48.370,79.450,846,420,390,434,454,2025-05-23T21:23:55.259807
9090,0.0132,0.8389,-0.0298,-9.310,-55.790,76.230,846,436,399,437,438,2025-05-23T21:23:55.259818
9091,0.0224,0.8355,0.0020,-16.660,-50.960,73.780,848,432,386,404,433,2025-05-23T21:23:55.259828
9092,0.0386,0.8076,-0.0156,-10.500,-34.370,65.240,849,434,394,435,427,2025-05-23T21:23:55.259838
9093,-0.0185,0.7735,-0.0439,0.140,-18.690,54.740,851,408,358,421,429,2025-05-23T21:23:55.259849
9094,-0.0805,0.7808,-0.0468,13.860,-7.980,45.850,852,424,338,377,439,2025-05-23T21:23:55.259858
9095,-0.0859,0.8291,-0.0098,26.600,-8.400,33.110,852,393,365,420,452,2025-05-23T21:23:55.259867
9096,-0.1264,0.8789,-0.0508,22.330,-18.970,28.420,853,411,361,442,403,2025-05-23T21:23:55.259876
9097,-0.1093,0.9223,-0.0527,15.890,-20.230,30.240,854,429,378,424,425,2025-05-23T21:23:55.259886
9098,-0.0830,0.9443,-0.0703,7.840,-12.740,33.460,853,437,398,666,440,2025-05-23T21:23:55.259894
9099,-0.0659,0.9374,-0.0386,4.970,-1.540,33.950,854,361,386,753,438,2025-05-23T21:23:55.260105
9100,-0.0874,0.9492,-0.0361,14.420,9.100,30.800,854,388,394,807,453,2025-05-23T21:23:55.309906
9101,-0.0947,0.9604,-0.0444,22.750,12.110,25.760,854,415,393,788,437,2025-05-23T21:23:55.309958
9102,-0.0434,0.9828,-0.0693,25.060,3.710,20.720,855,430,354,767,438,2025-05-23T21:23:55.309974
9103,0.0112,1.0024,-0.0771,12.110,-7.980,23.030,854,436,365,759,421,2025-05-23T21:23:55.309986
9104,0.0176,0.9955,-0.0834,2.730,-10.220,24.920,854,405,386,750,425,2025-05-23T21:23:55.309997
9105,0.0190,1.0160,-0.0551,3.080,-3.500,22.750,853,418,387,846,458,2025-05-23T21:23:55.358376
9106,0.0249,1.0287,-0.0493,14.770,3.640,17.920,853,430,384,856,433,2025-05-23T21:23:55.358429
9107,0.0142,1.0321,-0.0800,22.400,8.050,12.810,853,355,382,859,445,2025-05-23T21:23:55.358441
9108,0.0156,1.0419,-0.0961,16.870,2.660,8.750,853,380,351,856,447,2025-05-23T21:23:55.358451
9109,-0.0508,1.0238,-0.1498,2.730,-8.610,11.340,853,414,375,856,445,2025-05-23T21:23:55.405907
9110,-0.0332,1.0146,-0.1386,-10.920,-34.230,14.000,851,422,375,856,441,2025-05-23T21:23:55.405952
9111,-0.0478,1.0038,-0.1308,-18.480,-20.860,20.720,851,436,377,853,438,2025-05-23T21:23:55.405965
9112,-0.0512,0.9936,-0.1127,-16.870,-13.440,23.660,851,416,771,863,432,2025-05-23T21:23:55.405975
9113,-0.0356,0.9941,-0.0551,-6.930,0.980,22.260,851,437,784,858,432,2025-05-23T21:23:55.658708
9114,-0.0727,0.9833,-0.0659,2.380,10.010,20.510,850,433,780,852,457,2025-05-23T21:23:55.658765
9115,-0.0639,1.0028,-0.0268,10.360,10.080,20.720,851,427,707,852,457,2025-05-23T21:23:55.658780
9116,-0.0878,0.9887,-0.0581,5.460,-1.540,23.940,850,431,556,850,449,2025-05-23T21:23:55.658794
9117,-0.0630,0.9897,-0.0439,-5.390,-12.110,26.250,850,433,480,843,439,2025-05-23T21:23:55.658806
9118,-0.0054,0.9877,-0.0303,-15.750,-25.550,30.590,849,433,438,845,436,2025-05-23T21:23:55.658817
9119,0.0049,0.9384,-0.0649,-18.130,-25.480,31.990,848,421,416,841,455,2025-05-23T21:23:55.658829
9120,0.0478,0.9335,-0.0439,-7.770,-15.190,25.410,847,408,677,842,451,2025-05-23T21:23:55.658841
9121,0.0849,0.9438,-0.0468,2.450,-7.070,18.830,848,428,727,842,460,2025-05-23T21:23:55.658854
9122,0.1103,0.9501,-0.0449,10.640,-4.340,14.980,849,429,724,841,452,2025-05-23T21:23:55.658865
9123,0.1279,0.9599,-0.0346,11.060,-6.300,12.110,849,429,721,838,435,2025-05-23T21:23:55.658876
9124,0.1264,0.9438,-0.0488,3.990,-13.160,9.310,850,426,713,836,437,2025-05-23T21:23:55.658887
9125,0.1401,0.9306,-0.0483,1.960,-20.860,5.600,850,411,712,831,442,2025-05-23T21:23:55.658897
9126,0.1283,0.9350,-0.0561,1.540,-27.300,1.190,850,422,789,830,457,2025-05-23T21:23:55.658907
9127,0.1625,0.9648,-0.0815,2.730,-28.980,-1.540,850,411,793,828,440,2025-05-23T21:23:55.658961
9128,0.1679,0.9809,-0.0986,4.900,-25.620,-3.570,851,349,787,827,442,2025-05-23T21:23:55.658972
9129,0.1405,1.0038,-0.1152,9.380,-18.060,-6.370,851,405,773,824,439,2025-05-23T21:23:55.658983
9130,0.1249,1.0121,-0.1088,17.010,-11.200,-9.590,851,412,661,828,453,2025-05-23T21:23:55.658993
9131,0.0683,1.0253,-0.1220,20.230,-9.030,-12.250,851,417,777,830,459,2025-05-23T21:23:55.659003
9132,0.0381,1.0487,-0.1474,17.430,-10.290,-11.550,852,427,668,826,448,2025-05-23T21:23:55.659014
9133,0.0249,1.0512,-0.1610,7.000,-16.380,-9.100,851,425,540,821,435,2025-05-23T21:23:55.706541
9134,0.0005,1.0565,-0.1889,-6.580,-21.070,-5.810,852,427,461,815,429,2025-05-23T21:23:55.706605
9135,0.0137,1.0492,-0.1776,-12.180,-23.800,-2.450,852,441,422,814,443,2025-05-23T21:23:55.706621
9136,0.0029,1.0394,-0.1771,-12.110,-22.120,-0.140,851,418,414,822,452,2025-05-23T21:23:55.706634
9137,0.0268,1.0341,-0.1635,-10.010,-15.890,1.610,852,431,404,837,451,2025-05-23T21:23:55.706651
9138,0.0112,1.0194,-0.1606,-6.160,-9.730,0.910,852,437,401,841,451,2025-05-23T21:23:55.755277
9139,0.0161,1.0189,-0.1381,-6.440,-5.110,2.450,852,430,358,801,453,2025-05-23T21:23:55.755328
9140,0.0127,1.0189,-0.1196,-5.880,-4.690,3.780,852,438,385,762,390,2025-05-23T21:23:55.755341
9141,0.0210,1.0282,-0.1205,-11.270,-7.280,6.720,852,429,389,722,415,2025-05-23T21:23:55.755355
9142,0.0600,1.0146,-0.1171,-14.910,-11.200,8.610,851,353,391,711,433,2025-05-23T21:23:55.873037
9143,0.0390,0.9975,-0.1254,-16.590,-11.690,7.980,852,414,360,687,440,2025-05-23T21:23:55.873084
9144,0.0693,1.0126,-0.1000,-11.970,-11.550,7.140,852,430,385,698,450,2025-05-23T21:23:55.873096
9145,0.0908,1.0175,-0.0893,-8.330,-9.800,6.650,852,419,382,718,456,2025-05-23T21:23:55.873107
9146,0.0698,1.0170,-0.0991,-8.190,-5.670,5.390,852,400,381,708,448,2025-05-23T21:23:55.873116
9147,0.0586,1.0189,-0.0708,-7.280,-3.360,3.990,851,403,372,703,446,2025-05-23T21:23:55.873126
9148,0.0371,1.0053,-0.0590,-7.000,-7.210,3.010,851,422,373,707,423,2025-05-23T21:23:55.873134
9149,0.0400,1.0009,-0.0556,-9.240,-15.400,2.380,852,417,367,702,437,2025-05-23T21:23:55.873144
9150,0.0410,0.9926,-0.0473,-16.240,-24.080,1.960,851,410,351,706,437,2025-05-23T21:23:55.873153
9151,0.0459,0.9745,-0.0493,-22.120,-30.940,0.630,851,425,376,697,444,2025-05-23T21:23:55.873162
9152,0.0703,0.9697,-0.0434,-22.680,-34.370,-2.800,851,408,354,701,444,2025-05-23T21:23:56.083450
9153,0.0356,0.9511,-0.0351,-19.880,-36.960,-8.470,851,348,344,689,432,2025-05-23T21:23:56.083498
9154,0.0161,0.9345,-0.0117,-12.320,-40.600,-15.330,851,406,366,703,442,2025-05-23T21:23:56.083510
9155,-0.0527,0.9355,0.0102,-10.780,-50.680,-22.260,849,409,368,727,455,2025-05-23T21:23:56.083521
9156,-0.0717,0.9536,0.0073,-14.910,-65.590,-25.900,848,417,381,726,445,2025-05-23T21:23:56.083532
9157,-0.0229,0.9823,-0.0200,-27.510,-82.670,-25.270,847,425,371,816,456,2025-05-23T21:23:56.083542
9158,0.0259,0.9648,-0.0937,-41.090,-88.270,-33.180,847,422,339,819,393,2025-05-23T21:23:56.083553
9159,0.1674,1.0102,-0.0722,-44.310,-89.180,-47.740,847,422,330,811,417,2025-05-23T21:23:56.083562
9160,0.2689,1.0882,-0.0961,-33.530,-92.050,-67.200,848,439,357,803,420,2025-05-23T21:23:56.083572
9161,0.3826,1.1839,0.0322,-30.870,-97.930,-96.320,848,419,359,787,438,2025-05-23T21:23:56.083581
9162,0.3518,1.3210,0.2972,-37.240,-118.930,-119.070,849,412,380,754,391,2025-05-23T21:23:56.083591
9163,0.2855,1.5884,0.3977,-67.550,-163.940,-124.460,850,408,374,713,413,2025-05-23T21:23:56.083600
9164,0.4285,1.9442,0.3787,-112.350,-226.310,-112.840,850,434,390,686,428,2025-05-23T21:23:56.103144
9165,0.6490,2.4146,0.4368,-160.230,-297.500,-86.310,848,424,401,695,437,2025-05-23T21:23:56.103171
9166,0.9823,2.9431,0.3118,-195.020,-353.850,-32.830,849,430,396,744,438,2025-05-23T21:23:56.103214
9167,1.1512,3.0978,0.2089,-237.650,-419.160,18.270,847,408,405,808,433,2025-05-23T21:23:56.103219
9168,1.7871,2.7831,-0.2938,-292.740,-455.000,73.360,847,426,395,829,439,2025-05-23T21:23:56.103224
9169,2.5781,2.7040,-0.6573,-332.710,-472.920,135.450,847,425,396,844,433,2025-05-23T21:23:56.129299
9170,2.8894,2.6508,-1.0048,-300.090,-444.290,195.720,845,420,856,848,452,2025-05-23T21:23:56.129344
9171,3.8328,1.7441,-2.0642,-264.320,-332.710,120.820,845,423,855,855,458,2025-05-23T21:23:56.129356
9172,3.2432,2.2458,-2.2180,-207.690,-178.430,69.020,844,416,854,870,461,2025-05-23T21:23:56.129367
9173,2.7430,2.2219,-1.9784,-237.020,-109.130,-12.600,844,404,854,874,459,2025-05-23T21:23:56.282927
9174,2.7113,0.8564,-2.0769,-423.080,-151.830,-37.590,842,416,853,879,453,2025-05-23T21:23:56.282976
9175,3.1149,-0.8891,-1.9193,-674.170,-241.780,-91.980,842,426,854,885,462,2025-05-23T21:23:56.282990
9176,2.4966,-1.8105,-1.2537,-939.750,-332.080,-133.770,842,357,856,893,472,2025-05-23T21:23:56.283002
9177,0.7901,-2.4951,-0.1074,-962.990,-198.030,-197.610,841,410,852,889,457,2025-05-23T21:23:56.283014
9178,-1.3928,-3.4160,1.1097,-1057.490,-11.410,-267.330,839,421,848,881,454,2025-05-23T21:23:56.283024
9179,-3.2135,-3.8523,0.7725,-1245.090,277.690,-650.860,834,403,844,874,425,2025-05-23T21:23:56.283034
9180,-2.2946,-9.5941,0.8564,-1600.620,386.120,-935.480,828,406,840,877,454,2025-05-23T21:23:56.283044
9181,-3.3257,-8.7464,-1.0873,-1081.850,49.140,-810.740,825,396,838,880,450,2025-05-23T21:23:56.283056
9182,-2.3239,-5.4920,-1.6821,-699.300,308.980,-427.000,828,389,844,888,456,2025-05-23T21:23:56.283066
9183,-4.0236,-1.7788,-0.3250,-111.580,610.330,-31.710,833,394,851,896,460,2025-05-23T21:23:56.283195
9184,-3.6390,-0.6651,-0.7945,402.990,920.010,27.370,835,413,851,892,456,2025-05-23T21:23:56.283205
9185,-2.0618,-2.0413,-1.2747,361.550,680.050,554.050,835,403,848,879,464,2025-05-23T21:23:56.283215
9186,-0.7793,-2.9358,0.2826,-360.010,-456.890,687.050,829,420,667,861,466,2025-05-23T21:23:56.330606
9187,-1.8969,-3.8113,-1.2581,42.210,-272.300,430.640,829,412,544,844,461,2025-05-23T21:23:56.330656
9188,-0.2782,-3.0881,-1.6680,369.040,-521.920,306.600,830,424,475,837,446,2025-05-23T21:23:56.330669
9189,1.0843,-2.2048,-0.8350,622.720,-848.190,463.190,832,405,429,828,446,2025-05-23T21:23:56.330681
9190,1.2239,-2.1765,-0.3475,1070.720,-892.570,472.780,833,415,411,828,466,2025-05-23T21:23:56.385092
9191,1.5401,-0.8184,0.5065,1072.190,-344.470,455.770,835,400,406,828,465,2025-05-23T21:23:56.385137
9192,1.0048,-1.0336,-0.1713,694.820,58.310,337.750,836,352,356,829,451,2025-05-23T21:23:56.385149
9193,0.6915,-0.0468,0.3899,667.310,212.940,244.370,836,385,375,837,461,2025-05-23T21:23:56.489207
9194,0.3484,0.1025,0.3797,636.370,292.740,290.080,836,357,374,838,467,2025-05-23T21:23:56.489252
9195,-1.1302,-0.4680,1.4669,757.960,417.340,126.910,835,338,381,837,467,2025-05-23T21:23:56.489264
9196,0.5461,0.6793,0.5427,744.310,366.380,18.620,835,403,348,837,473,2025-05-23T21:23:56.489275
9197,-0.1318,1.1619,0.1469,332.430,117.320,0.560,835,397,355,839,467,2025-05-23T21:23:56.489285
9198,0.8013,0.9170,0.3206,-7.630,-24.010,77.420,835,408,378,840,473,2025-05-23T21:23:56.489294
9199,1.1331,1.0512,0.2899,-133.770,-123.760,122.290,835,397,377,841,464,2025-05-23T21:23:56.489304
9200,1.1858,1.2044,0.0590,121.380,76.930,67.130,835,400,387,840,435,2025-05-23T21:23:56.489314
9201,0.6934,0.5524,0.2479,171.640,106.470,-44.170,834,428,395,841,440,2025-05-23T21:23:56.489324
9202,0.7305,1.4498,0.7749,286.160,126.210,22.330,834,428,403,838,445,2025-05-23T21:23:56.539622
9203,0.5856,1.1107,0.6881,366.520,129.220,-27.860,835,433,386,835,465,2025-05-23T21:23:56.539667
9204,0.7344,1.5753,0.4451,362.390,133.910,-24.290,836,413,395,837,447,2025-05-23T21:23:56.539680
9205,0.8701,1.4552,0.0473,221.970,-4.620,14.630,835,408,384,836,464,2025-05-23T21:23:56.539690
9206,1.0058,1.4708,-0.1835,106.540,-95.200,58.380,835,345,373,838,472,2025-05-23T21:23:56.539699
9207,1.0316,1.3893,-0.0991,55.440,-106.190,46.620,834,402,771,844,471,2025-05-23T21:23:56.590223
9208,0.8691,1.6978,0.4587,80.010,-21.070,29.820,832,387,777,841,452,2025-05-23T21:23:56.590278
9209,0.8140,1.6348,0.4724,72.660,23.590,46.410,832,427,761,840,457,2025-05-23T21:23:56.590292
9210,0.7325,1.3840,0.4929,21.140,50.470,56.490,832,417,641,838,465,2025-05-23T21:23:56.590303
9211,0.8330,1.0941,0.2772,-34.300,32.270,42.910,832,424,489,837,462,2025-05-23T21:23:56.692857
9212,0.9799,0.8594,0.2181,-115.780,-49.490,39.690,832,421,441,837,447,2025-05-23T21:23:56.692899
9213,0.9013,0.8691,0.5314,-114.520,-67.620,23.800,833,427,408,839,449,2025-05-23T21:23:56.692911
9214,0.9194,0.7549,0.2679,-40.110,-30.520,-0.980,833,405,390,839,454,2025-05-23T21:23:56.692920
9215,0.7945,0.9301,0.4060,25.480,-6.580,-18.410,834,412,395,837,444,2025-05-23T21:23:56.692929
9216,0.6168,0.9565,0.3904,58.170,6.090,-23.730,833,426,359,839,443,2025-05-23T21:23:56.692939
9217,0.4563,0.9472,0.2762,80.150,23.310,-18.480,833,410,813,839,438,2025-05-23T21:23:56.692948
9218,0.5880,0.9213,0.2855,66.780,-3.850,-37.590,833,413,809,838,460,2025-05-23T21:23:56.692956
9219,0.5163,0.8662,0.0288,-17.990,-87.570,-8.890,832,424,794,839,405,2025-05-23T21:23:56.898281
9220,0.3924,0.9008,0.0717,-106.400,-124.390,20.300,833,399,747,839,426,2025-05-23T21:23:56.898335
9221,0.4802,0.9043,0.0937,-62.510,-78.120,-12.600,832,386,651,837,443,2025-05-23T21:23:56.898351
9222,0.4743,0.9150,0.1889,-10.570,-38.780,-28.560,833,406,537,838,465,2025-05-23T21:23:56.898364
9223,0.3982,0.9453,0.2386,19.670,8.260,-32.970,833,431,474,837,465,2025-05-23T21:23:56.898376
9224,0.1747,0.9755,0.2743,45.080,40.180,-29.260,833,427,441,836,410,2025-05-23T21:23:56.898515
9225,0.0927,0.9814,0.2786,48.650,36.820,-41.720,832,442,761,837,437,2025-05-23T21:23:56.898531
9226,0.0244,1.0663,0.2216,28.980,-11.480,-33.180,832,424,761,837,448,2025-05-23T21:23:56.898542
9227,0.1078,1.0341,0.1952,-42.770,-59.990,-10.500,831,427,774,837,443,2025-05-23T21:23:56.898552
9228,0.1259,1.0355,0.1923,-91.000,-91.070,2.310,830,409,764,834,456,2025-05-23T21:23:56.898563
9229,0.2152,1.0175,0.2591,-69.370,-68.880,6.790,831,402,768,834,460,2025-05-23T21:23:56.898576
9230,0.2342,0.9545,0.3582,-4.970,-23.170,-0.350,830,421,756,834,453,2025-05-23T21:23:56.898586
9231,0.2630,0.9536,0.2435,50.820,16.940,-3.990,830,401,756,832,432,2025-05-23T21:23:56.898596
9232,0.2206,0.9731,0.2928,57.400,49.700,-0.770,831,426,749,834,433,2025-05-23T21:23:56.898606
9233,0.1371,1.0146,0.3518,70.490,59.990,-3.850,831,414,751,833,445,2025-05-23T21:23:56.898661
9234,0.0332,1.0560,0.3680,40.460,32.550,-1.120,831,421,782,834,464,2025-05-23T21:23:56.898672
9235,0.0795,0.9867,0.3875,5.950,-13.720,-2.590,830,440,817,835,448,2025-05-23T21:23:56.898683
9236,0.1459,0.9999,0.3655,-33.530,-48.020,7.910,830,442,818,835,434,2025-05-23T21:23:57.103699
9237,0.2255,0.9418,0.3294,-61.040,-59.290,15.260,830,421,853,835,454,2025-05-23T21:23:57.103747
9238,0.3123,0.9267,0.3192,-44.450,-42.000,12.390,830,413,853,836,453,2025-05-23T21:23:57.103761
9239,0.3289,0.8906,0.2894,-13.300,-14.280,4.060,830,406,853,834,444,2025-05-23T21:23:57.103771
9240,0.2918,0.9062,0.2786,9.940,3.640,1.260,830,402,852,835,437,2025-05-23T21:23:57.103782
9241,0.2430,0.9028,0.2952,19.390,19.180,2.940,829,426,853,835,449,2025-05-23T21:23:57.103795
9242,0.1586,0.8896,0.3172,11.900,10.570,0.770,829,415,827,834,444,2025-05-23T21:23:57.103805
9243,0.0654,0.9199,0.3338,-11.200,-20.300,3.570,829,347,786,836,452,2025-05-23T21:23:57.103814
9244,0.0610,0.9477,0.3558,-27.650,-53.830,5.880,829,419,780,835,460,2025-05-23T21:23:57.103825
9245,0.1166,0.9521,0.3431,-47.390,-76.160,7.000,828,419,664,834,442,2025-05-23T21:23:57.103835
9246,0.1952,0.9248,0.3123,-62.930,-88.060,10.290,829,412,527,833,434,2025-05-23T21:23:57.103844
9247,0.2518,0.8955,0.3343,-64.680,-76.370,10.710,829,392,451,833,431,2025-05-23T21:23:57.103853
9248,0.2733,0.8764,0.3357,-43.750,-51.660,6.370,829,390,431,830,450,2025-05-23T21:23:57.103862
9249,0.2328,0.8579,0.3440,-18.270,-24.150,0.840,828,392,415,830,439,2025-05-23T21:23:57.103871
9250,0.1815,0.8818,0.3889,-5.880,-6.510,1.610,828,360,363,829,432,2025-05-23T21:23:57.103911
9251,0.1820,0.8823,0.3811,-5.810,-3.290,-1.680,829,412,373,830,457,2025-05-23T21:23:57.103921
9252,0.1562,0.8940,0.4002,-16.520,-12.320,-4.410,829,421,372,829,440,2025-05-23T21:23:57.103930
9253,0.1332,0.9033,0.4065,-31.290,-26.110,-4.900,828,421,373,828,448,2025-05-23T21:23:57.103940
9254,0.1352,0.9121,0.4041,-34.510,-34.300,-3.780,828,420,350,830,450,2025-05-23T21:23:57.360076
9255,0.1161,0.9165,0.4031,-27.650,-41.720,-3.080,828,416,375,830,463,2025-05-23T21:23:57.360116
9256,0.1801,0.9096,0.3919,-24.710,-49.630,-3.290,827,352,376,830,456,2025-05-23T21:23:57.360126
9257,0.2396,0.8818,0.3821,-27.790,-53.830,-3.850,827,414,387,830,445,2025-05-23T21:23:57.360138
9258,0.2669,0.8540,0.3860,-30.170,-49.630,-3.920,827,401,349,831,432,2025-05-23T21:23:57.360146
9259,0.2440,0.8599,0.4333,-22.190,-39.340,-4.900,826,410,367,832,462,2025-05-23T21:23:57.360154
9260,0.1786,0.8852,0.4504,-8.680,-33.530,-5.460,827,425,364,834,463,2025-05-23T21:23:57.360163
9261,0.1357,0.9096,0.4465,-0.070,-42.210,-2.450,827,419,381,833,462,2025-05-23T21:23:57.360171
9262,0.0556,0.9555,0.4226,-8.190,-66.850,-1.330,825,413,381,832,461,2025-05-23T21:23:57.360179
9263,0.0688,0.9706,0.3938,-31.360,-112.210,3.220,825,407,347,833,468,2025-05-23T21:23:57.360186
9264,0.2269,0.9428,0.3450,-72.100,-149.030,8.400,824,427,372,833,450,2025-05-23T21:23:57.360194
9265,0.2977,0.9184,0.3235,-108.080,-171.220,16.870,824,421,376,831,436,2025-05-23T21:23:57.360202
9266,0.4236,0.8701,0.3665,-117.110,-150.220,19.950,824,430,385,834,453,2025-05-23T21:23:57.360210
9267,0.4651,0.8067,0.3065,-89.810,-101.080,16.310,824,420,395,831,452,2025-05-23T21:23:57.360218
9268,0.2967,0.8345,0.2879,-64.190,-51.380,18.060,824,423,375,833,449,2025-05-23T21:23:57.360412
9269,0.2450,0.8711,0.2865,-46.410,-20.160,27.440,824,372,341,832,462,2025-05-23T21:23:57.360422
9270,0.0415,0.9248,0.3562,-43.750,-15.820,26.250,824,409,359,831,459,2025-05-23T21:23:57.360430
9271,-0.0034,0.9126,0.4192,-82.740,-60.900,30.520,824,416,364,802,453,2025-05-23T21:23:57.360438
9272,0.3489,0.8076,0.4143,-157.780,-130.480,42.280,823,427,363,801,462,2025-05-23T21:23:57.360446
9273,0.4890,0.8296,0.5153,-229.390,-166.250,70.140,823,422,370,797,457,2025-05-23T21:23:57.360454
9274,0.4778,0.9560,0.4168,-197.610,-105.420,78.960,825,403,382,800,464,2025-05-23T21:23:57.414905
9275,0.6061,0.6754,0.2377,-151.830,-26.460,77.420,822,391,379,795,452,2025-05-23T21:23:57.414954
9276,0.5651,0.6354,0.2791,-138.110,34.370,82.460,823,348,382,785,456,2025-05-23T21:23:57.414965
9277,0.5422,0.5500,0.3928,-102.410,61.950,76.580,823,401,377,783,460,2025-05-23T21:23:57.414977
9278,0.3958,0.5919,0.5061,-99.400,65.800,69.930,828,397,384,772,455,2025-05-23T21:23:57.414986
9279,0.3943,0.5993,0.5339,-129.780,37.450,61.180,832,403,383,761,466,2025-05-23T21:23:57.470112
9280,0.3011,0.6120,0.5983,-156.660,11.410,60.480,834,418,382,718,463,2025-05-23T21:23:57.470162
9281,0.3582,0.6032,0.6676,-173.740,-23.310,58.100,836,422,383,728,454,2025-05-23T21:23:57.470175
9282,0.5012,0.5666,0.6866,-185.640,-37.170,61.110,837,423,389,732,463,2025-05-23T21:23:57.470186
9283,0.6041,0.4885,0.7052,-190.400,-27.720,63.140,838,434,391,670,451,2025-05-23T21:23:57.470196
9284,0.6856,0.3933,0.6930,-182.490,-2.940,63.140,839,407,376,734,454,2025-05-23T21:23:57.515889
9285,0.6451,0.3289,0.7305,-163.030,23.240,55.370,840,405,366,754,414,2025-05-23T21:23:57.515938
9286,0.6178,0.3104,0.7876,-128.590,35.350,40.250,841,397,374,774,454,2025-05-23T21:23:57.515950
9287,0.5905,0.3284,0.8281,-105.980,36.750,30.590,842,427,388,775,466,2025-05-23T21:23:57.515961
9288,0.4895,0.3719,0.9038,-98.420,27.930,22.470,843,419,374,771,465,2025-05-23T21:23:57.564067
9289,0.4377,0.3919,0.9843,-120.120,8.120,18.340,843,427,371,773,460,2025-05-23T21:23:57.564115
9290,0.4592,0.3675,1.0028,-148.120,-14.560,15.960,843,433,371,758,466,2025-05-23T21:23:57.564128
9291,0.5280,0.3318,0.9775,-168.910,-17.640,15.120,844,433,380,803,466,2025-05-23T21:23:57.564139
9292,0.5646,0.2508,0.9287,-175.210,-0.350,15.540,844,427,386,800,474,2025-05-23T21:23:57.612847
9293,0.5266,0.1757,0.8847,-159.600,28.910,13.230,845,434,353,797,473,2025-05-23T21:23:57.612906
9294,0.5031,0.1357,0.8828,-136.920,45.780,13.580,846,427,363,793,469,2025-05-23T21:23:57.612922
9295,0.4207,0.1142,0.9501,-99.610,52.430,6.160,846,440,381,794,481,2025-05-23T21:23:57.612935
9296,0.2972,0.1620,1.0053,-72.520,41.580,-6.580,846,418,390,791,474,2025-05-23T21:23:57.659576
9297,0.2869,0.2201,1.0316,-59.570,18.970,-11.690,845,404,378,800,466,2025-05-23T21:23:57.659624
9298,0.3538,0.2338,1.0575,-57.750,-5.390,-11.130,844,427,385,789,421,2025-05-23T21:23:57.659636
9299,0.4031,0.2284,1.0463,-71.470,-21.420,-5.600,843,427,379,796,446,2025-05-23T21:23:57.659738
9300,0.4719,0.1625,0.9804,-80.290,-20.160,0.420,843,426,393,608,445,2025-05-23T21:23:57.710387
9301,0.4968,0.1088,0.9526,-65.940,-9.170,1.400,843,408,349,473,435,2025-05-23T21:23:57.710445
9302,0.4499,-0.2484,0.8145,42.000,51.240,-75.180,845,413,358,445,445,2025-05-23T21:23:57.710461
9303,0.5510,0.0756,1.0834,49.280,159.600,-81.830,847,419,366,421,466,2025-05-23T21:23:57.710474
9304,0.2996,0.3465,1.0263,19.950,152.530,-73.010,847,409,377,413,472,2025-05-23T21:23:57.920586
9305,0.2728,0.4939,1.0926,10.640,135.380,-54.110,849,405,381,431,469,2025-05-23T21:23:57.920622
9306,0.3533,0.0991,1.0790,-4.270,84.630,-46.340,850,424,348,419,466,2025-05-23T21:23:57.920632
9307,0.1884,0.2377,0.8969,-15.260,81.130,-39.830,850,430,374,435,476,2025-05-23T21:23:57.920640
9308,0.2606,0.4255,0.9789,30.030,200.620,-17.780,850,430,380,391,452,2025-05-23T21:23:57.920648
9309,0.2264,0.3240,0.6417,-7.000,362.530,-16.800,851,424,385,395,467,2025-05-23T21:23:57.920656
9310,0.1337,0.1484,1.5548,29.470,439.740,14.280,851,412,381,405,455,2025-05-23T21:23:57.920663
9311,0.2040,0.0937,1.2615,0.070,172.130,1.120,851,426,397,409,465,2025-05-23T21:23:57.920670
9312,0.4348,0.2089,0.7847,-26.530,84.210,25.060,852,409,393,394,464,2025-05-23T21:23:57.920678
9313,0.1069,0.2874,1.0165,-18.200,34.090,15.960,853,419,380,369,466,2025-05-23T21:23:57.920688
9314,-0.0605,0.3011,0.9462,-7.630,61.460,12.600,852,445,383,397,420,2025-05-23T21:23:57.920697
9315,0.0059,0.3797,0.9706,-56.140,22.750,7.700,853,407,385,390,412,2025-05-23T21:23:57.920706
9316,0.0615,0.2420,0.9184,-15.190,20.510,7.490,853,425,380,369,452,2025-05-23T21:23:57.920714
9317,0.0561,0.2103,0.9043,-7.980,17.570,6.790,853,419,380,356,469,2025-05-23T21:23:57.920722
9318,0.0420,0.1840,0.9472,-14.910,12.950,8.540,853,408,384,360,423,2025-05-23T21:23:57.920760
9319,0.0493,0.1342,0.9736,-11.550,12.670,9.380,853,395,384,403,393,2025-05-23T21:23:57.920769
9320,0.0337,0.1127,0.9970,5.390,30.030,8.330,853,403,375,408,384,2025-05-23T21:23:57.920778
9321,0.0083,0.0986,1.0253,24.500,44.310,6.930,853,422,384,353,432,2025-05-23T21:23:58.126060
9322,-0.0673,0.1420,1.0531,31.500,46.620,1.610,853,423,384,388,447,2025-05-23T21:23:58.126108
9323,-0.1313,0.2045,1.0585,28.700,28.140,-2.030,853,422,379,342,437,2025-05-23T21:23:58.126121
9324,-0.0756,0.2235,1.0599,21.140,14.420,-3.220,854,403,375,390,437,2025-05-23T21:23:58.126131
9325,0.1166,0.1976,1.0629,23.800,23.170,-6.090,854,409,387,404,442,2025-05-23T21:23:58.126141
9326,0.0195,0.1713,1.0463,9.170,12.110,-7.070,854,418,378,410,447,2025-05-23T21:23:58.126151
9327,0.0712,0.3367,1.0433,-2.380,9.380,5.390,854,408,393,354,436,2025-05-23T21:23:58.126161
9328,-0.0473,0.2098,1.0214,-12.040,-1.190,6.090,854,434,387,394,445,2025-05-23T21:23:58.126170
9329,-0.0903,0.2284,1.0141,-28.070,-34.510,6.440,855,403,383,391,437,2025-05-23T21:23:58.126180
9330,-0.0922,0.1771,1.0385,-48.230,-50.680,7.070,854,423,381,403,457,2025-05-23T21:23:58.126334
9331,-0.1381,0.1401,1.0146,-44.870,-84.770,1.120,854,427,387,414,446,2025-05-23T21:23:58.126345
9332,0.0532,0.1196,1.1434,-29.400,-142.660,-0.490,854,401,380,315,439,2025-05-23T21:23:58.126354
9333,0.0888,0.1191,1.0453,-21.420,-138.180,9.450,854,412,371,367,454,2025-05-23T21:23:58.126365
9334,0.1484,0.1645,0.9916,-5.810,-88.200,4.270,855,425,384,386,471,2025-05-23T21:23:58.126374
9335,0.1835,0.1703,1.0350,-7.840,-62.860,8.680,855,419,382,392,469,2025-05-23T21:23:58.126421
9336,0.3606,0.3167,0.7008,-75.530,-102.970,26.110,855,429,371,385,447,2025-05-23T21:23:58.126430
9337,0.1191,-0.0273,0.7930,-19.740,-72.170,30.450,855,428,386,356,440,2025-05-23T21:23:58.126442
9338,0.2011,0.1479,0.8447,-9.520,-14.280,28.910,855,410,378,395,448,2025-05-23T21:23:58.171340
9339,0.2786,0.1176,0.8618,-27.580,8.120,26.250,855,417,382,399,456,2025-05-23T21:23:58.171391
9340,0.2147,0.0947,0.9082,-12.460,41.650,14.140,855,409,388,412,454,2025-05-23T21:23:58.171405
9341,0.0708,0.1249,0.8960,-20.650,34.790,4.970,855,425,398,400,464,2025-05-23T21:23:58.171416
9342,0.0595,0.1220,0.9316,-23.870,2.660,1.680,855,407,390,418,479,2025-05-23T21:23:58.221774
9343,0.1269,0.0527,0.9487,-39.480,-5.040,-4.410,856,419,400,418,464,2025-05-23T21:23:58.221810
9344,0.2420,0.0156,0.9155,-47.320,-14.630,-7.210,855,402,396,375,455,2025-05-23T21:23:58.221819
9345,0.1972,-0.0005,0.9262,-38.710,-7.490,-8.400,855,402,356,404,415,2025-05-23T21:23:58.221828
9346,0.1279,0.0327,0.9457,-23.380,15.610,-11.970,855,412,335,389,426,2025-05-23T21:23:58.331521
9347,0.0390,-0.0020,0.9482,13.440,25.270,-29.890,854,433,358,352,439,2025-05-23T21:23:58.331571
9348,0.0088,0.0917,1.0048,-24.640,-15.330,-18.550,855,401,366,375,456,2025-05-23T21:23:58.331584
9349,-0.0376,0.0615,1.0077,-21.910,-7.140,-22.190,855,419,368,403,468,2025-05-23T21:23:58.331597
9350,0.0776,0.0991,1.0082,-28.560,6.510,-15.750,855,406,374,392,375,2025-05-23T21:23:58.331607
9351,0.0449,0.0473,1.0243,-38.430,11.200,-15.470,855,420,378,362,442,2025-05-23T21:23:58.331618
9352,0.0332,-0.0122,1.0438,-21.210,13.160,-19.180,855,400,387,382,406,2025-05-23T21:23:58.331628
9353,0.0112,-0.0205,1.0297,0.070,26.320,-20.860,856,349,386,401,447,2025-05-23T21:23:58.331760
9354,0.0854,0.0722,1.1341,9.100,29.260,-16.170,855,333,385,397,439,2025-05-23T21:23:58.331771
9355,0.2157,-0.0683,0.9374,28.210,27.020,-34.440,855,391,387,398,446,2025-05-23T21:23:58.535288
9356,0.0063,0.1313,1.0555,33.390,39.900,-32.060,856,402,380,392,417,2025-05-23T21:23:58.535361
9357,-0.0942,0.1147,1.0253,28.420,-10.640,-25.130,856,431,390,385,448,2025-05-23T21:23:58.535379
9358,0.0615,0.1498,0.7174,26.040,83.790,-12.320,856,437,390,348,445,2025-05-23T21:23:58.535393
9359,-0.0088,0.0615,1.0736,1.680,32.620,-21.770,856,418,380,339,458,2025-05-23T21:23:58.535404
9360,0.0644,0.0190,0.9980,8.470,39.270,-22.400,855,433,372,327,444,2025-05-23T21:23:58.535416
9361,0.0776,0.0630,1.1161,11.060,24.710,-18.270,856,361,360,381,452,2025-05-23T21:23:58.535427
9362,0.0561,0.0366,1.0775,13.160,27.860,-17.640,856,415,376,353,451,2025-05-23T21:23:58.535440
9363,-0.1279,0.1122,0.8491,32.340,38.150,-17.850,856,424,386,401,465,2025-05-23T21:23:58.535457
9364,-0.0839,0.5441,1.1570,88.130,114.380,-42.980,856,393,381,416,376,2025-05-23T21:23:58.555494
9365,0.0854,0.1903,1.1527,41.230,22.120,-32.550,853,398,387,413,426,2025-05-23T21:23:58.555533
9366,0.0322,0.1508,1.0609,45.640,52.220,-24.080,853,392,386,418,394,2025-05-23T21:23:58.555545
9367,0.0688,0.2245,1.1683,78.890,138.740,-11.970,853,407,378,359,428,2025-05-23T21:23:58.555555
9368,0.0317,0.3558,1.3259,13.580,124.390,15.750,853,428,344,398,406,2025-05-23T21:23:58.555564
9369,-0.0590,0.0742,1.0995,113.050,255.360,-4.900,853,403,367,348,432,2025-05-23T21:23:58.555573
9370,-0.0908,0.1737,1.0716,67.690,147.280,-5.110,853,392,337,393,457,2025-05-23T21:23:58.555636
9371,-0.2367,0.1996,0.8667,60.690,132.860,-13.300,853,401,347,411,465,2025-05-23T21:23:58.555646
9372,-0.1928,0.2567,0.8516,35.350,57.400,-5.040,853,346,340,399,442,2025-05-23T21:23:58.581853
9373,-0.2464,0.2435,0.8369,30.660,36.050,-8.680,853,406,370,407,455,2025-05-23T21:23:58.581903
9374,-0.1732,0.2372,0.8379,38.710,46.340,-5.250,853,423,368,355,446,2025-05-23T21:23:58.581914
9375,-0.0473,0.2489,0.9911,42.420,50.820,-0.350,852,421,338,383,403,2025-05-23T21:23:58.581924
9376,0.0630,0.2582,1.0682,46.200,74.550,4.620,853,392,339,397,442,2025-05-23T21:23:58.632763
9377,0.0493,0.2679,1.0819,58.310,124.530,18.900,852,404,336,419,460,2025-05-23T21:23:58.632816
9378,0.4412,0.7935,1.3337,44.310,207.060,-46.410,852,427,351,415,451,2025-05-23T21:23:58.632831
9379,-0.1366,-0.4031,0.8882,78.190,170.520,-38.710,853,354,364,418,467,2025-05-23T21:23:58.632843
9380,-0.5827,0.4529,0.9609,70.140,92.400,-21.280,853,396,367,413,465,2025-05-23T21:23:58.681760
9381,-0.6163,0.4714,0.9087,50.820,16.870,-17.780,853,423,366,374,459,2025-05-23T21:23:58.681806
9382,-0.4714,0.4002,0.8857,25.760,-43.610,-16.240,853,430,371,386,464,2025-05-23T21:23:58.681817
9383,-0.3123,0.3567,0.9150,9.940,-46.830,-19.040,854,401,372,346,474,2025-05-23T21:23:58.681828
9384,-0.2572,0.3079,0.9550,5.600,-28.280,-16.940,853,422,389,396,428,2025-05-23T21:23:58.743129
9385,-0.2948,0.3416,0.9545,-26.390,-35.000,-4.200,854,426,379,394,439,2025-05-23T21:23:58.743240
9386,-0.2357,-0.0220,0.8774,-14.770,-83.790,10.640,853,417,374,398,447,2025-05-23T21:23:58.743257
9387,-0.2084,0.2811,0.9423,-31.150,-195.720,29.680,854,406,383,399,438,2025-05-23T21:23:58.743268
9388,-0.3177,0.1703,0.9614,-41.720,-205.590,37.380,854,423,384,401,436,2025-05-23T21:23:58.743278
9389,-0.2147,0.2377,0.8018,-31.710,-145.320,31.150,853,422,393,399,459,2025-05-23T21:23:58.743288
9390,-0.2406,0.3040,0.9618,-4.060,-47.670,11.480,853,425,390,351,452,2025-05-23T21:23:58.954497
9391,-0.3894,0.3045,1.0516,4.830,12.880,-1.470,853,418,351,389,473,2025-05-23T21:23:58.954549
9392,-0.3704,0.3118,1.1307,0.140,30.660,-6.790,854,428,375,396,430,2025-05-23T21:23:58.954562
9393,-0.3436,0.2538,1.0702,-9.170,64.820,-11.970,854,413,383,401,465,2025-05-23T21:23:58.954573
9394,-0.3328,0.4255,0.9667,-36.680,103.390,-22.470,853,426,344,415,470,2025-05-23T21:23:58.954583
9395,-0.3958,0.3963,0.8091,-50.470,139.580,-19.040,854,427,361,415,467,2025-05-23T21:23:58.954605
9396,-0.4094,0.3762,0.6998,-3.360,216.860,-18.200,854,431,368,404,478,2025-05-23T21:23:58.954617
9397,-0.4119,0.3792,0.7193,20.860,170.030,-9.730,854,418,370,355,480,2025-05-23T21:23:58.954627
9398,-0.4055,0.3943,0.7252,57.470,157.500,-4.340,853,432,335,379,465,2025-05-23T21:23:58.954636
9399,-0.4504,0.3001,0.7510,74.480,137.200,5.950,853,419,362,391,467,2025-05-23T21:23:58.954645
9400,-0.6934,0.6237,0.8120,60.970,105.560,6.300,853,413,360,409,478,2025-05-23T21:23:58.954660
9401,-0.2786,0.3333,1.0585,69.720,143.570,18.620,854,419,367,409,492,2025-05-23T21:23:58.954670
9402,-0.4402,0.2621,0.9887,51.870,104.230,22.190,853,434,371,398,480,2025-05-23T21:23:58.954680
9403,-0.1391,0.2860,0.9223,34.160,60.620,19.530,854,430,374,405,480,2025-05-23T21:23:58.954694
9404,-0.3767,0.4426,0.8086,38.500,58.310,22.680,854,437,384,383,466,2025-05-23T21:23:58.954743
9405,-0.5324,0.3504,0.8120,21.140,-14.560,22.680,853,412,379,406,439,2025-05-23T21:23:58.954753
9406,-0.3382,0.3348,0.7915,20.860,-69.370,22.470,854,427,386,413,458,2025-05-23T21:23:59.156460
9407,-0.3255,0.2860,0.7588,19.180,-111.020,17.640,854,434,384,554,487,2025-05-23T21:23:59.156526
9408,-0.3909,0.3045,0.8345,10.780,-131.810,7.770,854,422,391,557,476,2025-05-23T21:23:59.156544
9409,-0.4402,0.3265,0.8208,5.880,-120.190,-1.470,854,353,349,589,474,2025-05-23T21:23:59.156560
9410,-0.3987,0.3406,0.8355,2.310,-104.090,-12.180,854,396,374,573,445,2025-05-23T21:23:59.156574
9411,-0.5256,0.4416,0.8272,-0.420,-98.980,-15.470,854,399,369,459,452,2025-05-23T21:23:59.156588
9412,-0.4241,0.3719,0.8369,-6.860,-112.910,-22.400,854,413,376,385,404,2025-05-23T21:23:59.156601
9413,-0.5568,0.4382,0.9145,-3.710,-119.490,-28.700,854,422,345,391,442,2025-05-23T21:23:59.156615
9414,-0.4216,0.3460,1.0116,-6.650,-107.730,-29.190,854,436,361,414,459,2025-05-23T21:23:59.156628
9415,-0.2269,0.3074,1.0307,1.960,-88.480,-19.600,854,430,386,421,468,2025-05-23T21:23:59.156641
9416,-0.1440,0.3972,0.9399,2.310,-51.100,-10.920,854,414,356,418,479,2025-05-23T21:23:59.156655
9417,-0.2167,0.4153,0.9394,-7.630,-22.680,-2.170,853,422,371,405,468,2025-05-23T21:23:59.156670
9418,-0.3030,0.3782,0.9838,-9.800,-5.320,2.380,854,420,346,429,458,2025-05-23T21:23:59.156686
9419,-0.2045,0.3299,0.9331,-7.420,19.740,8.190,853,349,360,431,465,2025-05-23T21:23:59.156698
9420,-0.1083,0.3821,0.8652,2.520,57.470,32.830,853,393,374,431,458,2025-05-23T21:23:59.156760
9421,-0.2240,0.3567,0.7501,15.750,106.190,37.520,852,428,361,795,491,2025-05-23T21:23:59.156774
9422,-0.3782,0.5075,0.8789,-1.890,132.300,53.340,852,435,377,806,489,2025-05-23T21:23:59.156811
9423,-0.5700,0.5119,0.9316,-19.810,109.970,49.560,851,416,342,798,479,2025-05-23T21:23:59.359688
9424,-0.4763,0.4055,0.9526,-16.590,81.340,40.250,851,425,350,800,481,2025-05-23T21:23:59.359745
9425,-0.4860,0.3177,0.9594,-15.680,47.670,35.280,851,398,368,809,477,2025-05-23T21:23:59.359759
9426,-0.4387,0.3279,0.9374,2.310,13.370,17.570,851,420,378,809,472,2025-05-23T21:23:59.359771
9427,-0.3216,0.3606,0.8930,12.320,-1.610,7.560,851,435,389,818,458,2025-05-23T21:23:59.359784
9428,-0.3401,0.4163,0.8662,13.790,-8.400,6.160,850,443,389,820,463,2025-05-23T21:23:59.359795
9429,-0.3314,0.3860,0.8877,9.450,-10.010,1.890,849,416,348,817,477,2025-05-23T21:23:59.359937
9430,-0.2967,0.3343,0.9911,1.750,-3.290,-2.380,850,416,363,818,428,2025-05-23T21:23:59.359954
9431,-0.4021,0.3689,1.0004,-4.550,-2.660,-4.970,850,422,371,816,461,2025-05-23T21:23:59.359965
9432,-0.4333,0.3401,0.9492,-11.270,-4.200,-4.550,850,428,380,815,453,2025-05-23T21:23:59.359977
9433,-0.3113,0.3074,0.9062,-11.620,15.960,4.200,850,396,389,819,463,2025-05-23T21:23:59.359988
9434,-0.3040,0.3831,0.8154,-7.980,45.500,17.220,851,414,397,820,473,2025-05-23T21:23:59.359998
9435,-0.4831,0.4451,0.8179,-4.130,48.020,25.340,852,408,389,815,465,2025-05-23T21:23:59.360008
9436,-0.5622,0.4802,0.7676,-1.470,43.610,24.920,851,404,385,818,470,2025-05-23T21:23:59.360018
9437,-0.4192,0.3997,0.7056,1.680,41.650,22.610,851,404,377,816,462,2025-05-23T21:23:59.360066
9438,-0.3094,0.3333,0.8198,9.520,62.580,25.830,851,401,378,820,465,2025-05-23T21:23:59.360204
9439,-0.3357,0.3045,0.8662,17.850,75.810,26.600,852,425,369,818,478,2025-05-23T21:23:59.360215
9440,-0.4353,0.3558,0.8740,18.270,65.240,14.770,852,434,372,814,468,2025-05-23T21:23:59.568911
9441,-0.4046,0.4377,0.7852,11.060,34.580,-1.330,851,420,371,814,482,2025-05-23T21:23:59.568969
9442,-0.5192,0.4670,0.6407,4.410,-17.500,-15.540,851,427,369,813,465,2025-05-23T21:23:59.568983
9443,-0.4358,0.3924,0.6383,-8.960,-73.290,-23.870,850,443,376,813,460,2025-05-23T21:23:59.568997
9444,-0.3924,0.3660,0.7481,-27.860,-95.760,-29.820,851,424,339,810,465,2025-05-23T21:23:59.569009
9445,-0.3889,0.3040,0.8179,-41.230,-105.420,-32.550,851,408,364,808,464,2025-05-23T21:23:59.569022
9446,-0.3972,0.3128,0.8950,-42.840,-104.230,-40.670,851,404,374,803,452,2025-05-23T21:23:59.569034
9447,-0.3616,0.2938,0.9384,-40.530,-98.630,-38.500,851,426,343,800,467,2025-05-23T21:23:59.569046
9448,-0.5056,0.3040,0.9999,-33.530,-104.720,-33.040,852,401,364,799,460,2025-05-23T21:23:59.569057
9449,-0.5344,0.1889,1.0756,-28.210,-113.960,-24.570,851,352,382,800,461,2025-05-23T21:23:59.569069
9450,-0.4314,0.4075,1.0458,-21.910,-97.160,-13.440,851,393,381,799,480,2025-05-23T21:23:59.569080
9451,-0.3470,0.4626,0.9604,-15.890,-70.630,-0.560,851,401,388,787,483,2025-05-23T21:23:59.569091
9452,-0.4158,0.4685,0.8725,-9.590,-29.400,8.540,851,433,381,773,477,2025-05-23T21:23:59.569102
9453,-0.4314,0.4104,0.7427,-0.070,-4.690,17.080,851,357,376,775,485,2025-05-23T21:23:59.569113
9454,-0.3440,0.3884,0.7261,9.520,16.030,25.760,852,416,358,774,485,2025-05-23T21:23:59.569123
9455,-0.2406,0.3274,0.7422,14.280,39.690,26.880,852,426,363,793,487,2025-05-23T21:23:59.569169
9456,-0.0317,0.3084,0.7437,24.780,73.570,36.540,852,311,382,798,487,2025-05-23T21:23:59.569180
9457,0.0381,0.2835,0.8462,31.290,133.980,48.230,852,395,387,797,479,2025-05-23T21:23:59.569192
9458,-0.1259,0.2889,0.9648,31.570,176.540,61.110,851,428,392,790,466,2025-05-23T21:23:59.619635
9459,-0.2738,0.2738,0.9823,29.400,148.680,52.920,850,411,400,784,464,2025-05-23T21:23:59.619679
9460,-0.0073,0.5817,0.8408,19.040,149.100,49.560,849,414,360,778,465,2025-05-23T21:23:59.619691
9461,-0.5827,0.5007,0.7681,-5.390,95.550,39.270,847,415,377,772,453,2025-05-23T21:23:59.619701
9462,-0.4309,0.3967,0.8052,-13.720,70.630,32.270,847,425,344,763,475,2025-05-23T21:23:59.765487
9463,-0.4978,0.4128,0.8989,-3.290,46.480,31.640,847,349,368,771,470,2025-05-23T21:23:59.765542
9464,-0.5090,0.3689,0.9008,-3.570,28.630,26.530,847,410,383,773,464,2025-05-23T21:23:59.765556
9465,-0.5568,0.3963,0.9526,-2.870,19.180,19.810,847,847,394,769,464,2025-05-23T21:23:59.765569
9466,-0.6163,0.3816,1.0014,-5.670,12.880,4.130,847,847,396,775,464,2025-05-23T21:23:59.765581
9467,-0.5827,0.4490,0.9614,-9.170,4.200,-12.600,847,848,394,760,479,2025-05-23T21:23:59.765592
9468,-0.5197,0.4353,0.9492,-15.120,-2.030,-18.760,847,548,346,758,488,2025-05-23T21:23:59.765603
9469,-0.3377,0.4431,0.7257,-18.130,8.260,-8.190,847,457,364,748,490,2025-05-23T21:23:59.765615
9470,-0.3460,0.4290,0.5104,-6.440,37.170,16.800,847,422,386,711,467,2025-05-23T21:23:59.765627
9471,-0.6305,0.4475,0.5178,6.370,44.030,32.060,847,406,387,574,452,2025-05-23T21:23:59.765638
9472,-0.6651,0.4026,0.6920,10.220,36.680,32.690,847,416,367,461,460,2025-05-23T21:23:59.765648
9473,-0.6422,0.3728,0.8501,7.700,23.240,24.570,847,399,367,447,490,2025-05-23T21:23:59.765660
9474,-0.5290,0.3650,0.9326,-2.870,10.220,17.080,847,347,371,756,502,2025-05-23T21:23:59.765671
9475,-0.4319,0.3372,0.9731,-12.600,14.350,9.660,846,380,377,599,462,2025-05-23T21:23:59.817020
9476,-0.4680,0.4021,0.9536,-20.300,21.280,3.220,846,388,383,470,457,2025-05-23T21:23:59.817069
9477,-0.4885,0.3972,0.8613,-20.860,19.110,0.070,847,413,376,434,485,2025-05-23T21:23:59.817082
9478,-0.3767,0.3562,0.7139,-13.720,18.760,6.160,847,405,376,378,431,2025-05-23T21:23:59.817092
9479,-0.3865,0.3523,0.6168,-6.370,16.240,19.320,846,418,381,409,415,2025-05-23T21:23:59.867371
9480,-0.5407,0.3928,0.5983,1.610,-14.420,22.330,846,357,387,417,406,2025-05-23T21:23:59.867417
9481,-0.5197,0.3860,0.7676,3.850,-14.280,16.450,847,378,391,413,453,2025-05-23T21:23:59.867429
9482,-0.5461,0.3826,0.9545,-8.820,-21.350,9.380,846,400,395,404,435,2025-05-23T21:23:59.867439
9483,-0.5812,0.3870,1.0307,-26.250,-19.670,0.910,847,418,358,404,418,2025-05-23T21:23:59.969428
9484,-0.5480,0.4075,0.9662,-38.290,-10.850,-8.610,846,426,376,414,456,2025-05-23T21:23:59.969473
9485,-0.3904,0.4080,0.7056,-34.090,11.480,2.380,846,407,376,366,419,2025-05-23T21:23:59.969485
9486,-0.5022,0.4470,0.4782,-13.930,20.930,18.480,846,423,372,412,471,2025-05-23T21:23:59.969496
9487,-0.5856,0.4548,0.4968,1.610,9.800,26.810,845,430,385,423,459,2025-05-23T21:23:59.969506
9488,-0.5749,0.4294,0.5090,11.760,-12.320,34.650,847,419,346,429,480,2025-05-23T21:23:59.969514
9489,-0.5222,0.3865,0.7993,9.100,-23.310,39.620,846,418,361,431,481,2025-05-23T21:23:59.969523
9490,-0.5510,0.3836,1.1004,-9.310,-23.590,30.100,847,354,336,396,467,2025-05-23T21:23:59.969531
9491,-0.5422,0.3318,1.2029,-19.250,-20.440,17.850,847,411,346,416,472,2025-05-23T21:23:59.969540
9492,-0.4314,0.2645,1.1419,-25.270,-16.520,-4.270,847,427,368,408,487,2025-05-23T21:24:00.174018
9493,-0.4602,0.2738,1.0219,-31.710,-28.350,-19.460,847,416,381,429,479,2025-05-23T21:24:00.174069
9494,-0.2786,0.3831,0.7720,-38.150,-34.580,-14.560,848,413,385,431,479,2025-05-23T21:24:00.174082
9495,-0.2333,0.3997,0.5529,-24.290,-23.590,2.240,848,413,377,441,472,2025-05-23T21:24:00.174093
9496,-0.2840,0.4397,0.4265,-6.090,-1.330,19.460,848,368,387,430,392,2025-05-23T21:24:00.174102
9497,-0.4241,0.4807,0.2879,8.680,23.940,39.480,849,410,349,434,456,2025-05-23T21:24:00.174112
9498,-0.6476,0.3362,0.5041,7.210,35.630,57.260,848,854,380,451,480,2025-05-23T21:24:00.174122
9499,-0.7325,0.2923,0.8706,-16.100,44.240,48.650,848,854,393,380,475,2025-05-23T21:24:00.174131
9500,-0.4948,0.4075,0.9887,-38.850,52.220,43.960,848,855,402,642,487,2025-05-23T21:24:00.174140
9501,-0.4080,0.3967,0.9809,-26.670,57.050,39.480,848,855,355,597,420,2025-05-23T21:24:00.174149
9502,-0.4158,0.4016,0.9443,-10.430,53.200,26.740,847,854,368,498,471,2025-05-23T21:24:00.174158
9503,-0.4392,0.4211,0.8721,-1.540,39.130,19.390,846,855,377,433,423,2025-05-23T21:24:00.174169
9504,-0.3289,0.3636,0.7896,1.330,29.470,16.520,847,855,392,762,479,2025-05-23T21:24:00.174177
9505,-0.5065,0.3577,0.8945,-5.670,9.240,17.080,847,855,392,772,469,2025-05-23T21:24:00.174186
9506,-0.6593,0.3689,1.0741,-23.800,-6.020,12.460,847,545,386,763,470,2025-05-23T21:24:00.174226
9507,-0.6198,0.2318,1.0570,-33.390,-20.790,2.800,847,383,344,767,474,2025-05-23T21:24:00.174236
9508,-0.3670,0.2401,0.9945,-28.350,-14.140,-5.600,846,412,334,763,467,2025-05-23T21:24:00.174246
9509,-0.4138,0.2333,0.9135,-14.770,-7.980,-2.730,847,428,333,731,481,2025-05-23T21:24:00.223646
9510,-0.4924,0.3694,0.8452,-5.950,-7.700,-0.280,847,405,366,590,484,2025-05-23T21:24:00.223689
9511,-0.5358,0.4163,0.8072,1.050,-15.960,-5.810,847,406,347,479,467,2025-05-23T21:24:00.223700
9512,-0.5549,0.3870,0.8140,-3.640,-28.980,-9.380,847,435,355,448,441,2025-05-23T21:24:00.223710
9513,-0.5905,0.3113,0.7901,-10.150,-46.620,-7.980,847,418,363,432,491,2025-05-23T21:24:00.400319
9514,-0.4363,0.2533,0.8023,-16.100,-81.270,-17.710,848,402,384,397,491,2025-05-23T21:24:00.400392
9515,-0.5158,0.3318,0.8882,-24.990,-98.490,-17.640,849,420,340,399,447,2025-05-23T21:24:00.400409
9516,-0.5114,0.2001,0.9882,-24.150,-118.720,-17.080,849,401,360,417,485,2025-05-23T21:24:00.400424
9517,-0.4592,0.2577,0.9906,-9.450,-125.230,-18.060,849,417,374,429,496,2025-05-23T21:24:00.400437
9518,-0.4836,0.1967,1.0024,2.240,-143.850,-26.880,849,425,366,393,483,2025-05-23T21:24:00.400770
9519,-0.3065,0.2469,0.8716,10.150,-130.410,-32.200,848,398,340,416,442,2025-05-23T21:24:00.400783
9520,-0.2840,0.1566,0.8950,18.270,-96.530,-32.830,849,429,359,401,475,2025-05-23T21:24:00.400794
9521,-0.3499,0.2059,0.9213,25.410,-83.650,-36.330,849,405,378,383,482,2025-05-23T21:24:00.400805
9522,-0.3655,0.2069,0.9399,34.090,-72.660,-36.680,849,349,383,415,490,2025-05-23T21:24:00.400816
9523,-0.3826,0.2069,0.9745,33.950,-70.700,-38.710,849,392,382,367,482,2025-05-23T21:24:00.400954
9524,-0.4060,0.1835,0.9745,26.460,-70.490,-41.720,850,425,369,344,432,2025-05-23T21:24:00.400966
9525,-0.4021,0.1601,0.9687,24.570,-77.560,-45.850,848,416,336,380,434,2025-05-23T21:24:00.400977
9526,-0.3928,0.1606,0.9570,34.440,-86.730,-52.010,849,404,325,398,472,2025-05-23T21:24:00.400988
9527,-0.4231,0.2123,0.9653,48.930,-98.350,-60.130,849,344,355,393,461,2025-05-23T21:24:00.585297
9528,-0.3958,0.2420,1.0180,58.030,-108.920,-69.160,849,391,373,410,442,2025-05-23T21:24:00.585344
9529,-0.4538,0.2435,1.0746,60.620,-122.710,-73.220,849,399,385,417,483,2025-05-23T21:24:00.585356
9530,-0.5461,0.2474,1.1653,63.210,-135.800,-75.530,849,393,390,412,486,2025-05-23T21:24:00.585367
9531,-0.5607,0.2542,1.2166,68.670,-144.200,-74.620,848,378,391,402,499,2025-05-23T21:24:00.585377
9532,-0.5783,0.2982,1.1951,82.740,-141.680,-73.430,849,403,385,411,474,2025-05-23T21:24:00.585387
9533,-0.4451,0.3338,1.1761,103.460,-132.230,-68.040,848,344,384,360,472,2025-05-23T21:24:00.585397
9534,-0.4831,0.4080,1.1605,127.050,-118.790,-61.180,849,398,382,409,489,2025-05-23T21:24:00.585407
9535,-0.4734,0.4826,1.1444,149.240,-113.260,-47.180,850,403,376,417,475,2025-05-23T21:24:00.585416
9536,-0.3909,0.5158,1.2015,171.150,-103.460,-38.010,849,427,381,421,483,2025-05-23T21:24:00.585426
9537,-0.3294,0.5524,1.1322,187.810,-96.740,-25.830,849,399,377,430,478,2025-05-23T21:24:00.585440
9538,-0.2767,0.6188,0.9609,213.290,-81.550,-18.480,849,415,378,374,468,2025-05-23T21:24:00.585449
9539,-0.2786,0.7208,0.7359,250.110,-67.270,-6.930,850,426,394,414,486,2025-05-23T21:24:00.585458
9540,-0.3470,0.8706,0.5231,285.530,-64.120,7.560,850,407,383,422,477,2025-05-23T21:24:00.585467
9541,-0.1806,0.9604,0.2855,303.030,-68.950,32.970,851,409,383,432,437,2025-05-23T21:24:00.585503
9542,0.0698,0.9916,0.1069,312.760,-67.620,63.770,849,418,379,369,408,2025-05-23T21:24:00.585513
9543,0.3348,0.9770,0.0576,308.420,-27.160,88.760,849,406,384,402,462,2025-05-23T21:24:00.797744
9544,0.3899,1.0155,0.0659,308.070,65.590,107.660,849,416,396,371,462,2025-05-23T21:24:00.797794
9545,0.2767,1.0594,0.0961,317.310,155.960,126.280,849,406,397,402,467,2025-05-23T21:24:00.797807
9546,0.1889,1.0014,0.0361,302.050,238.210,153.510,850,352,389,427,476,2025-05-23T21:24:00.797818
9547,0.1293,0.9257,-0.0493,300.090,275.240,177.380,850,411,396,438,460,2025-05-23T21:24:00.797828
9548,0.1059,0.9731,-0.1703,292.810,275.660,190.470,850,415,381,432,477,2025-05-23T21:24:00.797838
9549,0.2694,0.9414,-0.1820,278.040,245.700,194.950,851,434,390,423,484,2025-05-23T21:24:00.797848
9550,0.1889,1.0780,-0.0971,251.370,224.140,201.530,852,436,353,526,480,2025-05-23T21:24:00.797858
9551,0.2440,1.1639,0.0268,213.360,204.750,190.960,854,449,334,689,468,2025-05-23T21:24:00.797868
9552,0.3021,1.0799,-0.0478,157.990,196.000,172.900,857,422,365,598,408,2025-05-23T21:24:00.797877
9553,0.4280,0.9482,-0.0742,109.340,161.280,146.720,857,410,371,529,436,2025-05-23T21:24:00.797886
9554,0.3787,0.9467,-0.1396,94.150,124.460,130.200,857,428,341,649,459,2025-05-23T21:24:00.797895
9555,0.3333,0.9662,-0.0537,98.420,100.380,104.160,857,431,362,690,472,2025-05-23T21:24:00.797904
9556,0.2801,0.9594,0.0805,95.060,94.920,82.670,858,415,377,607,467,2025-05-23T21:24:00.797913
9557,0.3362,0.9238,0.2396,68.040,92.680,64.470,858,411,379,500,408,2025-05-23T21:24:00.797956
9558,0.2606,0.8911,0.3148,42.840,96.040,52.570,858,438,386,466,391,2025-05-23T21:24:00.797966
9559,0.1664,0.8389,0.2635,21.070,103.460,47.180,858,418,382,434,391,2025-05-23T21:24:00.797974
9560,0.1928,0.8111,0.1771,16.240,117.950,38.500,858,432,380,405,435,2025-05-23T21:24:01.003537
9561,0.1366,0.8062,0.0869,17.920,123.690,34.160,858,405,380,419,441,2025-05-23T21:24:01.003584
9562,-0.0795,0.8633,0.1176,32.760,103.320,40.040,857,418,383,464,452,2025-05-23T21:24:01.003596
9563,-0.0620,0.9340,0.1479,24.220,66.500,38.500,857,407,388,520,466,2025-05-23T21:24:01.003607
9564,0.0176,0.8911,0.1630,9.450,24.850,34.160,858,432,343,516,469,2025-05-23T21:24:01.019883
9565,0.0600,0.8330,0.1708,0.210,1.960,28.630,857,408,371,578,463,2025-05-23T21:24:01.019920
9566,0.1562,0.7740,0.1854,-0.560,-4.410,22.540,857,419,380,662,486,2025-05-23T21:24:01.019932
9567,0.2342,0.7662,0.2059,4.060,10.850,9.450,858,401,375,616,461,2025-05-23T21:24:01.019943
9568,0.2308,0.8042,0.2074,3.850,28.840,-2.450,856,399,339,750,490,2025-05-23T21:24:01.019952
9569,0.2015,0.8511,0.2289,0.840,33.880,-10.010,857,415,359,769,465,2025-05-23T21:24:01.019962
9570,0.1410,0.8984,0.2562,-9.240,21.000,-14.000,856,423,376,751,464,2025-05-23T21:24:01.019971
9571,0.1362,0.9384,0.3099,-24.360,-10.780,-19.810,856,358,342,802,484,2025-05-23T21:24:01.019980
9572,0.1728,0.9443,0.3479,-40.880,-47.670,-26.810,856,411,359,810,483,2025-05-23T21:24:01.019990
9573,0.2786,0.9838,0.3518,-50.120,-77.910,-33.250,856,354,386,813,482,2025-05-23T21:24:01.020028
9574,0.4748,1.0380,0.3162,-55.580,-92.330,-41.790,856,357,399,815,422,2025-05-23T21:24:01.020092
9575,0.6046,1.0863,0.2772,-59.920,-96.390,-53.620,856,423,659,811,457,2025-05-23T21:24:01.020101
9576,0.7535,1.1419,0.2582,-70.210,-99.960,-63.980,855,414,803,812,417,2025-05-23T21:24:01.020111
9577,0.8281,1.2327,0.2211,-91.490,-117.950,-70.280,856,405,812,846,449,2025-05-23T21:24:01.202309
9578,1.0224,1.3210,0.1235,-121.170,-158.060,-74.200,856,441,796,842,462,2025-05-23T21:24:01.202355
9579,1.3669,1.4050,-0.0332,-155.820,-206.080,-77.140,856,426,775,841,449,2025-05-23T21:24:01.202368
9580,1.7885,1.4620,-0.2508,-194.250,-238.840,-79.170,855,433,867,855,455,2025-05-23T21:24:01.202379
9581,2.1306,1.5601,-0.3426,-227.850,-230.930,-78.820,856,411,867,851,459,2025-05-23T21:24:01.202390
9582,2.3287,1.6655,-0.4006,-258.370,-190.820,-83.790,854,401,866,849,455,2025-05-23T21:24:01.202399
9583,2.5322,1.7685,-0.4616,-296.940,-149.380,-89.250,855,414,866,850,467,2025-05-23T21:24:01.202409
9584,2.5625,1.8925,-0.5592,-333.060,-122.150,-92.750,854,407,865,848,460,2025-05-23T21:24:01.202419
9585,2.6064,1.8988,-0.6891,-358.330,-102.830,-73.640,854,419,865,847,470,2025-05-23T21:24:01.202428
9586,2.2297,1.6480,-0.7549,-366.800,-97.160,-80.850,855,426,865,848,411,2025-05-23T21:24:01.202436
9587,2.0291,1.6807,-0.6969,-368.900,-127.050,-82.600,854,440,865,847,439,2025-05-23T21:24:01.202445
9588,1.9418,1.6187,-0.6544,-389.200,-150.990,-95.620,854,418,866,846,407,2025-05-23T21:24:01.202454
9589,1.5992,1.3596,-0.6666,-413.700,-139.300,-104.860,854,354,865,846,433,2025-05-23T21:24:01.202464
9590,1.1268,0.9643,-0.5568,-418.250,-116.270,-118.160,854,383,865,840,434,2025-05-23T21:24:01.202504
9591,0.5266,0.3606,-0.5065,-414.330,-115.850,-129.220,855,423,865,837,459,2025-05-23T21:24:01.202515
9592,0.1420,-0.2137,-0.3919,-394.100,-154.280,-146.720,854,433,865,831,440,2025-05-23T21:24:01.202523
9593,0.2840,-0.8916,-0.3026,-383.950,-225.960,-149.520,850,432,860,828,444,2025-05-23T21:24:01.202533
9594,0.3362,-1.3366,-0.0044,-461.090,-222.740,-186.970,848,408,858,822,469,2025-05-23T21:24:01.403131
9595,0.3494,-1.9139,0.2167,-479.710,-124.950,-234.500,845,420,855,828,466,2025-05-23T21:24:01.403179
9596,-0.7779,-2.4390,1.0102,-516.320,-21.490,-284.340,843,427,852,821,471,2025-05-23T21:24:01.403192
9597,-1.2898,-3.4023,0.9467,-514.360,16.870,-358.120,841,403,850,822,420,2025-05-23T21:24:01.403206
9598,-1.2444,-4.3852,1.3518,-633.920,-36.470,-486.780,839,413,650,746,444,2025-05-23T21:24:01.403216
9599,-1.1790,-4.5018,1.6519,-677.600,-179.130,-468.580,837,395,514,739,445,2025-05-23T21:24:01.403227
9600,-1.0658,-3.7576,1.5460,-486.010,-170.100,-417.200,837,418,429,773,408,2025-05-23T21:24:01.403240
9601,-0.9062,-2.7465,1.0097,-264.320,-7.140,-331.870,838,830,420,795,439,2025-05-23T21:24:01.403250
9602,-1.3000,-1.5270,0.7584,-62.650,241.430,-220.290,838,831,412,795,442,2025-05-23T21:24:01.403260
9603,-1.9330,-1.1180,0.5309,99.610,344.610,-42.350,839,833,405,804,469,2025-05-23T21:24:01.403270
9604,-1.3947,-1.0907,0.7525,226.450,302.680,103.810,839,834,390,802,472,2025-05-23T21:24:01.403279
9605,-0.7091,-1.0692,1.0102,220.500,201.530,176.820,840,836,397,793,471,2025-05-23T21:24:01.403289
9606,-0.3821,-1.6997,1.2224,34.300,-2.800,228.200,840,837,381,780,484,2025-05-23T21:24:01.403408
9607,-0.3299,-1.9461,1.0102,127.260,-49.490,218.050,841,839,387,802,470,2025-05-23T21:24:01.403449
9608,-0.1996,-1.9686,0.6305,253.050,-20.790,217.280,843,840,396,798,482,2025-05-23T21:24:01.403460
9609,-0.1205,-1.9505,0.4363,283.290,94.500,217.490,844,841,395,794,474,2025-05-23T21:24:01.403470
9610,-0.1362,-1.8876,0.5261,324.240,213.430,222.180,844,842,401,778,485,2025-05-23T21:24:01.450820
9611,-0.4290,-1.7012,0.6656,322.560,287.350,241.570,844,842,400,702,470,2025-05-23T21:24:01.450867
9612,-0.8926,-1.4401,0.7374,285.460,333.970,257.320,845,843,402,628,471,2025-05-23T21:24:01.450878
9613,-1.1658,-1.2742,0.9184,261.940,356.720,279.790,845,844,398,564,438,2025-05-23T21:24:01.450888
9614,-1.1917,-1.0882,0.8930,233.800,343.630,318.360,846,845,396,569,477,2025-05-23T21:24:01.500325
9615,-0.7203,-0.9048,0.8740,242.550,331.730,375.340,847,846,405,617,469,2025-05-23T21:24:01.500372
9616,-0.4392,-0.4792,0.9780,270.480,328.790,406.910,847,847,405,619,481,2025-05-23T21:24:01.500384
9617,-0.5100,-0.0898,1.0131,294.560,320.460,404.320,849,849,398,613,473,2025-05-23T21:24:01.500395
9618,-0.2367,0.3270,0.9501,362.740,255.430,394.310,850,849,401,715,488,2025-05-23T21:24:01.607998
9619,0.0986,0.6598,0.6949,434.490,172.340,379.330,850,851,383,721,476,2025-05-23T21:24:01.608072
9620,0.0488,0.1274,0.6129,510.370,142.170,325.080,849,850,384,696,498,2025-05-23T21:24:01.608091
9621,0.7232,1.1146,0.6163,338.310,208.670,292.110,852,853,397,729,497,2025-05-23T21:24:01.608109
9622,0.9199,1.1771,0.8935,293.650,242.480,265.650,856,858,396,711,497,2025-05-23T21:24:01.608124
9623,1.0360,1.3015,0.8901,225.050,236.040,249.060,857,860,388,692,500,2025-05-23T21:24:01.608140
9624,1.0175,1.3845,0.7437,205.450,224.210,231.630,858,860,385,646,485,2025-05-23T21:24:01.608154
9625,1.3552,1.5538,0.4519,209.860,174.510,222.880,860,862,869,781,485,2025-05-23T21:24:01.608167
9626,1.5748,1.5679,0.2821,210.280,140.630,180.810,862,864,871,780,474,2025-05-23T21:24:01.608182
9627,1.4498,1.6958,0.7213,173.950,119.910,153.300,863,865,873,762,488,2025-05-23T21:24:01.811935
9628,1.0263,1.6421,1.0624,112.280,61.460,133.420,862,572,872,770,487,2025-05-23T21:24:01.811982
9629,1.1570,1.3703,1.1239,67.480,-19.250,133.700,862,469,873,793,480,2025-05-23T21:24:01.811996
9630,1.4928,1.0697,0.8857,23.030,-91.420,118.860,862,447,873,790,495,2025-05-23T21:24:01.812007
9631,1.7617,0.9897,0.6022,25.130,-99.190,101.640,862,420,873,793,492,2025-05-23T21:24:01.812018
9632,1.6826,0.9550,0.3065,84.070,-44.590,79.310,862,424,872,818,487,2025-05-23T21:24:01.812027
9633,1.1917,0.9682,0.3245,117.390,15.330,58.870,861,421,872,802,496,2025-05-23T21:24:01.812037
9634,0.7354,1.1746,0.3787,123.060,45.220,58.590,859,421,869,828,445,2025-05-23T21:24:01.812046
9635,0.6266,1.0892,0.0400,36.400,-21.070,51.730,857,425,868,861,470,2025-05-23T21:24:01.812054
9636,0.7413,0.9228,-0.1000,-32.480,-116.340,36.820,857,427,867,873,470,2025-05-23T21:24:01.812063
9637,0.7300,0.8394,-0.1630,-68.810,-164.080,27.090,857,414,867,858,485,2025-05-23T21:24:01.812073
9638,0.5158,0.8755,-0.0195,-48.650,-127.540,16.310,857,389,866,869,434,2025-05-23T21:24:01.812082
9639,0.5183,0.9252,0.0913,-3.780,-22.470,4.970,853,413,863,873,457,2025-05-23T21:24:01.812092
9640,0.4138,0.8989,0.1337,6.440,35.560,-0.210,853,429,862,871,456,2025-05-23T21:24:01.812100
9641,0.2128,0.9209,0.1308,19.460,43.190,3.220,851,434,861,869,458,2025-05-23T21:24:01.812144
9642,0.3143,0.9672,0.1371,4.760,-18.200,5.600,851,423,861,867,419,2025-05-23T21:24:01.812153
9643,0.3475,0.9965,0.1225,-24.500,-51.240,6.370,851,351,862,868,424,2025-05-23T21:24:01.812162
9644,0.3192,0.9687,0.1142,-21.840,-58.240,8.750,851,412,861,866,461,2025-05-23T21:24:02.017479
9645,0.3221,0.9623,0.1371,3.150,-37.100,8.820,851,422,862,868,466,2025-05-23T21:24:02.017533
9646,0.3367,0.9457,0.1586,19.670,-19.040,15.260,851,430,862,861,422,2025-05-23T21:24:02.017547
9647,0.3445,0.9706,0.1654,15.680,-12.180,17.360,851,420,862,856,443,2025-05-23T21:24:02.017560
9648,0.3392,1.0077,0.1425,4.410,-20.090,17.640,851,404,862,858,461,2025-05-23T21:24:02.017572
9649,0.3465,1.0321,0.0903,-3.780,-24.220,17.080,851,431,862,868,471,2025-05-23T21:24:02.017584
9650,0.3884,1.0185,0.0625,-6.790,-22.330,14.840,851,413,862,869,422,2025-05-23T21:24:02.017596
9651,0.3860,0.9970,0.0566,-9.170,-14.910,10.920,852,425,862,857,464,2025-05-23T21:24:02.017607
9652,0.3187,0.9731,0.0786,-10.500,-9.380,7.700,851,437,862,854,482,2025-05-23T21:24:02.017618
9653,0.2894,0.9355,0.0996,-10.640,-8.960,7.490,852,425,862,863,465,2025-05-23T21:24:02.017629
9654,0.2840,0.9296,0.1035,-11.480,-8.540,6.090,852,428,862,862,486,2025-05-23T21:24:02.017639
9655,0.2952,0.9248,0.1132,-11.340,-2.240,7.420,851,423,862,863,476,2025-05-23T21:24:02.017649
9656,0.2786,0.9443,0.1508,-8.680,5.460,7.140,852,432,862,854,474,2025-05-23T21:24:02.017661
9657,0.2684,0.9394,0.1542,-10.010,6.510,4.480,852,416,862,843,463,2025-05-23T21:24:02.017675
9658,0.2782,0.8882,0.1401,-11.620,2.450,4.900,852,418,863,850,471,2025-05-23T21:24:02.017686
9659,0.2987,0.8764,0.1166,-11.200,-3.710,0.910,852,405,863,855,458,2025-05-23T21:24:02.017732
9660,0.2904,0.8862,0.1122,-6.720,-3.290,0.350,852,413,863,855,462,2025-05-23T21:24:02.017744
9661,0.2772,0.8969,0.1147,1.120,1.260,-0.280,852,409,862,858,473,2025-05-23T21:24:02.221879
9662,0.2469,0.9243,0.1703,1.820,1.750,-1.750,852,414,862,859,469,2025-05-23T21:24:02.221937
9663,0.2220,0.9394,0.2298,-1.820,-1.330,-1.540,852,410,862,858,475,2025-05-23T21:24:02.221951
9664,0.1596,0.9448,0.2616,-4.760,-7.000,-4.130,851,405,862,855,475,2025-05-23T21:24:02.221961
9665,0.1757,0.9599,0.2523,-2.940,-10.640,-3.570,851,398,862,854,478,2025-05-23T21:24:02.221971
9666,0.1464,0.9721,0.1918,-1.470,-15.400,-2.450,852,393,862,856,472,2025-05-23T21:24:02.221981
9667,0.1542,0.9828,0.1532,1.820,-21.140,0.140,851,403,862,854,465,2025-05-23T21:24:02.221990
9668,0.2030,0.9799,0.1762,1.330,-26.670,2.170,852,414,862,855,451,2025-05-23T21:24:02.222000
9669,0.1635,1.0233,0.1976,-1.750,-32.060,2.030,851,425,862,858,479,2025-05-23T21:24:02.222009
9670,0.2562,1.0258,0.1591,-6.090,-33.460,4.480,851,419,862,856,467,2025-05-23T21:24:02.222019
9671,0.3099,0.9906,0.1127,-8.120,-27.650,4.830,851,419,861,856,462,2025-05-23T21:24:02.222030
9672,0.3894,0.9355,0.0830,-4.480,-16.450,5.250,851,395,861,853,471,2025-05-23T21:24:02.222039
9673,0.3128,0.9052,0.1127,-0.280,-6.300,2.100,851,396,861,854,473,2025-05-23T21:24:02.222051
9674,0.2586,0.9448,0.1854,0.840,-13.370,0.490,850,426,861,853,471,2025-05-23T21:24:02.222060
9675,0.2845,0.9692,0.2230,-8.050,-27.370,-1.470,849,400,861,853,465,2025-05-23T21:24:02.222069
9676,0.2728,0.9677,0.2259,-21.910,-43.050,-2.870,850,411,861,852,464,2025-05-23T21:24:02.222112
9677,0.3387,0.9487,0.1962,-25.900,-48.510,-4.340,850,437,860,854,466,2025-05-23T21:24:02.222122
9678,0.3953,0.9262,0.1669,-18.760,-40.180,-5.880,849,435,860,853,474,2025-05-23T21:24:02.426301
9679,0.3850,0.9394,0.1645,-7.140,-27.020,-9.870,849,430,860,853,466,2025-05-23T21:24:02.426350
9680,0.4250,0.9374,0.1718,-5.530,-24.500,-14.560,850,425,861,851,456,2025-05-23T21:24:02.426363
9681,0.3836,0.9736,0.2396,-8.190,-23.730,-20.650,850,419,860,853,457,2025-05-23T21:24:02.426374
9682,0.3748,0.9745,0.2850,-15.050,-31.290,-25.970,851,426,860,847,461,2025-05-23T21:24:02.426384
9683,0.3909,1.0009,0.2772,-19.810,-46.900,-28.070,850,416,860,851,452,2025-05-23T21:24:02.426397
9684,0.4987,1.0360,0.2611,-26.670,-64.890,-31.990,851,410,861,849,456,2025-05-23T21:24:02.426407
9685,0.6466,1.0321,0.2352,-38.990,-77.910,-37.030,851,412,860,849,457,2025-05-23T21:24:02.426416
9686,0.8272,1.0599,0.2411,-42.140,-72.520,-47.250,851,395,861,849,467,2025-05-23T21:24:02.426425
9687,1.0799,1.0043,0.2650,-54.040,-54.250,-58.590,851,418,861,852,481,2025-05-23T21:24:02.426435
9688,1.3391,0.9540,0.3123,-64.540,-37.450,-72.940,851,419,861,853,472,2025-05-23T21:24:02.426443
9689,1.5055,1.0072,0.4016,-78.050,-24.080,-93.450,851,416,862,851,461,2025-05-23T21:24:02.426452
9690,1.6655,1.2107,0.3987,-92.540,-36.750,-116.550,852,429,861,854,457,2025-05-23T21:24:02.426463
9691,1.7358,1.5806,0.3260,-114.590,-71.470,-131.040,852,421,862,848,435,2025-05-23T21:24:02.426581
9692,1.6719,2.0774,0.2440,-151.060,-126.840,-136.500,853,419,863,852,467,2025-05-23T21:24:02.426623
9693,1.7100,2.4912,0.0761,-200.900,-192.360,-123.200,852,376,862,854,478,2025-05-23T21:24:02.426635
9694,1.7143,2.5791,-0.1981,-269.290,-236.180,-101.220,853,411,863,839,482,2025-05-23T21:24:02.426645
9695,1.8222,2.4063,-0.3548,-327.530,-252.490,-79.450,852,405,863,809,479,2025-05-23T21:24:02.632361
9696,1.9701,2.1745,-0.5197,-360.780,-230.370,-68.740,853,433,862,812,421,2025-05-23T21:24:02.632416
9697,2.0472,2.0208,-0.6676,-364.420,-199.360,-66.290,852,445,863,807,457,2025-05-23T21:24:02.632431
9698,2.0169,1.8734,-0.6446,-367.430,-192.080,-73.290,853,423,862,813,459,2025-05-23T21:24:02.632445
9699,1.7134,1.7348,-0.6115,-399.420,-204.470,-98.490,853,399,862,804,462,2025-05-23T21:24:02.632456
9700,1.3327,1.3508,-0.6734,-459.200,-255.990,-132.440,852,436,862,808,465,2025-05-23T21:24:02.632469
9701,0.8311,0.7618,-0.6939,-505.470,-325.640,-150.080,851,425,859,807,459,2025-05-23T21:24:02.632482
9702,0.8901,-0.1635,-0.7501,-536.340,-363.370,-169.610,848,854,858,802,462,2025-05-23T21:24:02.632493
9703,0.8784,-1.2073,-0.6427,-503.020,-282.310,-177.030,848,854,857,780,452,2025-05-23T21:24:02.632504
9704,0.6656,-2.2097,-0.4529,-525.140,-99.400,-199.080,847,853,857,784,464,2025-05-23T21:24:02.632516
9705,-0.5090,-2.7513,0.2147,-464.170,56.070,-258.090,847,851,856,787,464,2025-05-23T21:24:02.632527
9706,-1.5553,-3.1393,1.0263,-497.000,170.520,-394.310,845,850,854,781,449,2025-05-23T21:24:02.632538
9707,-1.4996,-3.4790,1.6738,-509.950,211.960,-511.420,844,849,763,779,460,2025-05-23T21:24:02.632549
9708,-1.2278,-4.5974,1.1200,-588.000,25.130,-543.760,843,848,659,778,458,2025-05-23T21:24:02.632600
9709,-0.8843,-4.9908,0.5358,-337.190,44.170,-423.640,844,848,509,779,459,2025-05-23T21:24:02.632612
9710,-1.4396,-3.7742,0.1420,-120.680,257.740,-342.720,844,849,461,787,450,2025-05-23T21:24:02.632622
9711,-2.1457,-2.1970,0.0639,20.930,409.500,-202.790,845,849,420,790,456,2025-05-23T21:24:02.632633
9712,-1.8778,-1.2078,0.3240,167.930,510.930,-69.300,845,848,413,787,468,2025-05-23T21:24:02.836839
9713,-1.3806,-0.2245,0.4333,230.090,504.420,102.900,845,848,395,790,456,2025-05-23T21:24:02.836902
9714,-0.9335,-0.8916,0.7818,180.600,310.660,224.350,845,849,398,788,449,2025-05-23T21:24:02.836919
9715,-1.1932,-1.2180,1.1658,-94.010,-60.830,291.410,845,849,394,788,458,2025-05-23T21:24:02.836934
9716,-1.1556,-1.7612,0.7837,-52.780,-249.620,293.160,847,850,388,721,467,2025-05-23T21:24:02.836948
9717,-0.6549,-2.3307,0.7588,202.650,-244.230,266.350,847,851,382,680,483,2025-05-23T21:24:02.836961
9718,-0.2582,-2.4605,0.5773,297.710,-99.470,284.200,849,851,389,633,447,2025-05-23T21:24:02.836975
9719,-0.3704,-2.4249,0.5270,311.640,165.690,283.570,848,852,387,615,407,2025-05-23T21:24:02.836987
9720,-0.7681,-2.0286,0.5470,371.280,287.630,304.010,848,851,351,612,463,2025-05-23T21:24:02.836999
9721,-1.0336,-1.4294,0.7481,378.140,395.920,316.330,847,851,360,765,487,2025-05-23T21:24:02.837010
9722,-1.1434,-0.7823,0.7588,318.570,430.780,330.470,848,851,382,777,486,2025-05-23T21:24:02.837023
9723,-1.2615,-0.4543,0.6115,248.640,425.810,348.740,849,852,386,784,468,2025-05-23T21:24:02.837035
9724,-1.0843,-0.2791,0.6202,214.620,329.210,389.550,850,853,394,786,472,2025-05-23T21:24:02.837047
9725,-0.7676,0.0483,0.5856,206.290,179.970,399.490,852,855,385,778,455,2025-05-23T21:24:02.837059
9726,-0.3045,0.4158,0.3972,281.120,129.850,378.420,852,856,395,768,454,2025-05-23T21:24:02.837109
9727,0.3113,0.9897,-0.0727,416.500,99.890,363.160,852,857,394,732,479,2025-05-23T21:24:02.837122
9728,0.6100,1.6807,-0.6949,466.620,200.690,324.730,856,551,378,758,421,2025-05-23T21:24:02.837133
9729,0.4934,1.9544,-0.5749,504.280,289.940,331.240,858,476,379,773,438,2025-05-23T21:24:03.041083
9730,0.2030,2.1677,0.1074,532.840,346.640,401.380,860,443,380,772,448,2025-05-23T21:24:03.041133
9731,0.0654,2.5766,0.2025,326.270,296.520,297.080,861,407,370,748,456,2025-05-23T21:24:03.041146
9732,0.6310,2.1794,0.6124,134.260,117.880,305.970,860,425,371,753,470,2025-05-23T21:24:03.041157
9733,1.6494,1.7968,0.1435,-6.300,-144.830,343.700,861,410,391,756,427,2025-05-23T21:24:03.041167
9734,2.5083,1.5074,-0.1620,-43.470,-25.130,297.920,863,418,382,763,444,2025-05-23T21:24:03.041177
9735,2.3463,1.4274,0.0127,209.230,222.740,215.390,861,398,356,764,455,2025-05-23T21:24:03.041187
9736,2.2253,1.7866,1.0106,208.250,309.330,239.330,861,394,339,767,472,2025-05-23T21:24:03.041196
9737,1.9832,1.3113,1.8271,75.740,264.810,286.370,862,425,366,766,459,2025-05-23T21:24:03.041211
9738,2.5391,0.7310,2.2077,-19.180,189.000,241.290,864,429,376,772,481,2025-05-23T21:24:03.041220
9739,3.0485,-0.1571,1.7036,-240.730,-92.890,132.510,866,413,374,770,488,2025-05-23T21:24:03.041230
9740,3.0807,-0.5275,1.2390,-253.820,-416.010,32.830,865,416,389,744,475,2025-05-23T21:24:03.041239
9741,2.0520,-0.0102,0.2664,-14.070,-200.270,-49.910,863,423,383,612,416,2025-05-23T21:24:03.041248
9742,0.6076,0.6900,-0.0854,125.790,-59.360,-78.470,862,418,385,441,444,2025-05-23T21:24:03.041257
9743,-0.2054,1.1971,0.0586,74.830,84.700,-58.870,861,429,372,441,470,2025-05-23T21:24:03.041297
9744,-0.8281,1.4772,0.1157,116.130,205.170,-24.850,861,409,393,700,476,2025-05-23T21:24:03.041307
9745,-0.9882,1.0887,-1.1971,108.570,307.370,1.680,862,352,385,736,462,2025-05-23T21:24:03.041316
9746,0.0259,1.1361,0.0210,-62.230,44.590,37.590,862,414,385,713,475,2025-05-23T21:24:03.245237
9747,0.3045,1.0224,0.1708,-154.490,-176.540,96.950,863,422,389,702,483,2025-05-23T21:24:03.245282
9748,0.8779,0.4480,-0.0737,-161.490,-179.970,70.560,862,342,389,698,470,2025-05-23T21:24:03.245296
9749,0.7925,0.6895,0.3377,-13.860,67.410,50.610,862,388,395,696,485,2025-05-23T21:24:03.245308
9750,0.7915,0.6442,0.5778,9.380,81.900,30.240,862,413,390,711,457,2025-05-23T21:24:03.245318
9751,0.8574,0.5324,0.6451,17.920,90.300,11.970,862,405,379,687,459,2025-05-23T21:24:03.245329
9752,0.7803,0.5495,0.5905,61.390,24.990,-13.230,863,396,374,703,448,2025-05-23T21:24:03.245339
9753,0.7422,0.6061,0.4099,-4.690,-80.780,-28.000,863,415,370,686,468,2025-05-23T21:24:03.245348
9754,0.6593,0.6861,0.2796,-25.270,-109.340,-36.050,863,403,370,703,459,2025-05-23T21:24:03.245358
9755,0.4392,0.8745,0.1693,-1.120,-71.400,-44.030,862,408,381,659,451,2025-05-23T21:24:03.245367
9756,0.2972,0.9809,0.0561,27.930,-11.060,-43.890,863,420,373,664,465,2025-05-23T21:24:03.245377
9757,0.1620,1.0233,-0.0605,45.010,32.760,-39.270,862,415,385,612,456,2025-05-23T21:24:03.245386
9758,0.1132,1.0146,-0.1030,33.880,42.000,-29.960,862,357,382,504,463,2025-05-23T21:24:03.245395
9759,0.1108,1.0521,-0.0976,-5.600,-6.020,-16.380,862,402,392,416,468,2025-05-23T21:24:03.245403
9760,0.1728,1.0263,-0.0098,-22.890,-38.080,-8.610,862,407,377,447,455,2025-05-23T21:24:03.245446
9761,0.2801,0.9853,0.0844,-29.890,-43.050,-0.070,862,425,384,402,469,2025-05-23T21:24:03.245457
9762,0.3226,0.9482,0.1786,-15.680,-15.120,-0.420,862,430,347,514,463,2025-05-23T21:24:03.245466
9763,0.3314,0.9126,0.2045,3.360,1.750,-2.450,862,429,365,563,473,2025-05-23T21:24:03.450777
9764,0.4128,0.8755,0.1850,13.510,0.910,-1.540,862,436,373,566,466,2025-05-23T21:24:03.908810
9765,0.4221,0.8584,0.1410,10.780,-6.160,-4.620,862,410,369,590,454,2025-05-23T21:24:03.908864
9766,0.4172,0.8794,0.1279,3.290,-10.220,-7.630,862,412,371,559,454,2025-05-23T21:24:03.908880
9767,0.3753,0.9209,0.1235,4.690,-11.340,-9.940,862,443,388,588,456,2025-05-23T21:24:03.908937
9768,0.3714,0.9184,0.1171,3.430,-9.870,-12.880,863,403,347,632,457,2025-05-23T21:24:03.908955
9769,0.3597,0.9096,0.1054,-1.050,-9.660,-15.820,862,412,379,624,468,2025-05-23T21:24:03.908969
9770,0.3582,0.9140,0.0878,-2.800,-12.040,-14.770,863,423,375,608,464,2025-05-23T21:24:03.908981
9771,0.2996,0.9311,0.0971,0.350,-9.520,-14.070,862,437,384,619,457,2025-05-23T21:24:03.908993
9772,0.2689,0.9667,0.1059,1.540,-6.370,-11.060,862,422,347,569,441,2025-05-23T21:24:03.909004
9773,0.2767,0.9672,0.1054,0.280,-4.340,-5.320,863,408,356,434,451,2025-05-23T21:24:03.909015
9774,0.2747,0.9623,0.1230,-5.600,-7.980,-2.870,862,426,379,380,409,2025-05-23T21:24:03.909247
9775,0.3162,0.9404,0.1322,-8.750,-12.740,-3.220,863,405,387,401,451,2025-05-23T21:24:03.909260
9776,0.3455,0.9228,0.1425,-6.650,-13.020,-5.180,863,429,387,419,407,2025-05-23T21:24:03.909272
9777,0.3494,0.8862,0.1303,-2.380,-11.620,-7.070,864,413,390,440,460,2025-05-23T21:24:03.909286
9778,0.3772,0.8940,0.1044,3.500,-9.800,-9.730,865,421,380,406,415,2025-05-23T21:24:03.909359
9779,0.3953,0.9082,0.0917,3.640,-8.540,-8.820,865,424,310,369,446,2025-05-23T21:24:03.909372
9780,0.3279,0.9355,0.1049,0.630,-9.100,-6.020,866,424,357,420,449,2025-05-23T21:24:03.909384
9781,0.3499,0.9628,0.1161,-3.780,-16.730,-3.500,865,399,377,425,447,2025-05-23T21:24:03.909395
9782,0.3811,0.9858,0.1269,-6.300,-24.920,-4.410,866,431,371,430,466,2025-05-23T21:24:03.909409
9783,0.4050,0.9789,0.1235,-10.430,-29.680,-6.230,866,423,379,425,469,2025-05-23T21:24:03.909419
9784,0.4075,0.9477,0.1152,-8.120,-23.380,-9.310,866,438,352,373,454,2025-05-23T21:24:03.909430
9785,0.4080,0.9370,0.1127,-1.960,-11.130,-10.570,866,433,364,419,464,2025-05-23T21:24:03.909440
9786,0.3294,0.9628,0.1244,2.450,-1.120,-10.220,866,425,382,378,459,2025-05-23T21:24:03.909450
9787,0.2855,0.9819,0.1357,-0.070,-0.980,-6.510,866,413,384,405,461,2025-05-23T21:24:03.909461
9788,0.2684,0.9965,0.1410,-6.300,-10.990,-2.730,866,409,389,425,446,2025-05-23T21:24:03.909471
9789,0.2518,1.0106,0.1283,-13.580,-25.410,-0.910,866,413,376,433,469,2025-05-23T21:24:03.909481
9790,0.3196,0.9936,0.1069,-14.140,-32.130,2.170,866,407,377,431,447,2025-05-23T21:24:03.909491
9791,0.3582,0.9784,0.0864,-10.990,-27.440,2.450,866,434,378,438,407,2025-05-23T21:24:03.909501
9792,0.3958,0.9296,0.0659,-5.740,-16.870,0.350,866,414,349,422,447,2025-05-23T21:24:03.909527
9793,0.3987,0.8916,0.0678,2.170,-3.850,0.000,866,434,328,399,435,2025-05-23T21:24:03.909537
9794,0.3631,0.8989,0.0766,2.940,2.030,-0.490,866,425,355,404,459,2025-05-23T21:24:03.909548
9795,0.3601,0.8979,0.0908,-1.400,-0.980,-0.560,866,428,370,415,451,2025-05-23T21:24:03.909559
9796,0.3616,0.9155,0.1039,-9.380,-7.490,-1.960,866,426,377,436,462,2025-05-23T21:24:03.909569
9797,0.3914,0.9121,0.0996,-13.930,-14.770,-3.150,866,423,386,398,467,2025-05-23T21:24:03.909580
9798,0.3948,0.9028,0.0971,-11.270,-16.310,-5.740,866,431,395,420,462,2025-05-23T21:24:03.909590
9799,0.4099,0.8896,0.1025,-6.090,-12.180,-8.470,866,437,380,373,464,2025-05-23T21:24:03.909601
9800,0.3914,0.8921,0.1103,-2.240,-5.600,-11.060,866,432,380,427,465,2025-05-23T21:24:03.909611
9801,0.3558,0.8891,0.1098,0.490,-0.560,-11.970,865,415,386,435,451,2025-05-23T21:24:03.909621
9802,0.3167,0.9062,0.1152,2.170,1.470,-11.830,866,436,315,429,461,2025-05-23T21:24:03.909631
9803,0.3089,0.9487,0.1196,2.660,0.280,-11.270,866,410,328,418,473,2025-05-23T21:24:03.909641
9804,0.2747,0.9828,0.1181,1.260,-2.310,-10.920,866,431,316,433,464,2025-05-23T21:24:03.909651
9805,0.2772,0.9965,0.1220,-0.630,-5.950,-8.120,866,435,341,430,466,2025-05-23T21:24:03.909661
9806,0.2830,0.9858,0.1220,-2.450,-8.960,-5.250,867,398,357,436,477,2025-05-23T21:24:03.909671
9807,0.2972,0.9667,0.1298,-2.870,-9.310,-4.200,866,428,338,421,461,2025-05-23T21:24:03.909682
9808,0.2972,0.9409,0.1318,-2.380,-7.420,-3.080,867,402,362,417,448,2025-05-23T21:24:03.909708
9809,0.2894,0.9472,0.1396,1.190,-3.850,-2.730,866,406,378,433,458,2025-05-23T21:24:03.909718
9810,0.3118,0.9545,0.1405,2.590,-3.150,-1.260,866,399,387,418,466,2025-05-23T21:24:03.909728
9811,0.3089,0.9594,0.1293,2.310,-4.060,-1.190,867,396,344,378,433,2025-05-23T21:24:03.909738
9812,0.3299,0.9584,0.1127,1.120,-6.790,-0.980,867,393,358,361,445,2025-05-23T21:24:03.909747
9813,0.3260,0.9453,0.0996,1.470,-7.560,-0.770,866,407,359,410,466,2025-05-23T21:24:03.909757
9814,0.3357,0.9365,0.1020,0.000,-7.910,-1.120,866,423,367,432,477,2025-05-23T21:24:03.909767
9815,0.3660,0.9311,0.1054,-1.330,-6.580,-2.380,867,412,371,415,458,2025-05-23T21:24:04.067136
9816,0.3152,0.9404,0.1132,-2.240,-5.460,-5.180,867,401,363,422,465,2025-05-23T21:24:04.067203
9817,0.3123,0.9374,0.1137,-1.540,-5.530,-4.340,867,408,381,430,472,2025-05-23T21:24:04.067221
9818,0.3143,0.9350,0.1049,-0.280,-6.860,-2.870,867,391,387,419,466,2025-05-23T21:24:04.067235
9819,0.3377,0.9321,0.1054,-1.610,-6.580,-2.870,867,394,386,437,464,2025-05-23T21:24:04.067250
9820,0.3255,0.9384,0.1113,-2.100,-5.530,-4.130,866,419,390,438,473,2025-05-23T21:24:04.067264
9821,0.3314,0.9467,0.1196,-2.730,-6.090,-3.640,866,432,396,419,470,2025-05-23T21:24:04.067277
9822,0.3060,0.9453,0.1200,-4.550,-8.470,-5.110,866,429,400,413,472,2025-05-23T21:24:04.067290
9823,0.3245,0.9384,0.1093,-4.410,-13.580,-5.390,866,433,397,413,458,2025-05-23T21:24:04.067303
9824,0.3265,0.9496,0.1171,-2.100,-14.140,-4.550,867,421,391,420,457,2025-05-23T21:24:04.067318
9825,0.3401,0.9575,0.1176,-0.980,-8.190,-4.970,866,429,386,397,444,2025-05-23T21:24:04.067331
9826,0.3250,0.9472,0.1157,1.820,0.140,-4.760,866,407,375,407,451,2025-05-23T21:24:04.067344
9827,0.3392,0.9360,0.1147,3.290,2.170,-4.060,866,386,381,408,427,2025-05-23T21:24:04.067358
9828,0.3235,0.9472,0.1225,2.100,-0.420,-5.250,866,400,344,418,439,2025-05-23T21:24:04.067371
9829,0.2982,0.9623,0.1308,-1.470,-5.810,-5.950,866,403,352,372,456,2025-05-23T21:24:04.067385
9830,0.2860,0.9740,0.1269,-2.170,-9.380,-4.760,867,405,367,388,451,2025-05-23T21:24:04.067453
9831,0.3040,0.9731,0.1122,-1.820,-10.850,-2.730,867,421,365,425,465,2025-05-23T21:24:04.067464
9832,0.3079,0.9721,0.0981,-0.350,-8.330,-2.660,867,405,376,393,451,2025-05-23T21:24:04.271077
9833,0.3060,0.9677,0.0820,0.770,-4.690,-2.170,867,409,383,424,413,2025-05-23T21:24:04.271124
9834,0.2962,0.9604,0.0820,1.890,-0.980,0.210,867,416,392,436,416,2025-05-23T21:24:04.271137
9835,0.2723,0.9575,0.0893,-0.210,-1.330,1.540,866,412,317,418,435,2025-05-23T21:24:04.271147
9836,0.2840,0.9545,0.1015,-2.870,-4.340,2.380,867,421,313,408,406,2025-05-23T21:24:04.271157
9837,0.2899,0.9496,0.1122,-5.180,-8.330,2.380,867,424,359,411,438,2025-05-23T21:24:04.271307
9838,0.3113,0.9438,0.1240,-5.740,-8.260,1.470,867,409,379,427,458,2025-05-23T21:24:04.271320
9839,0.3201,0.9287,0.1210,-4.060,-5.600,0.280,867,421,380,415,451,2025-05-23T21:24:04.271340
9840,0.3143,0.9272,0.1225,-0.700,-3.920,-0.910,866,396,389,417,462,2025-05-23T21:24:04.271348
9841,0.3094,0.9292,0.1191,2.100,-3.430,-0.980,867,407,391,430,454,2025-05-23T21:24:04.271359
9842,0.3050,0.9360,0.1230,4.060,-3.990,0.000,866,429,390,441,459,2025-05-23T21:24:04.271368
9843,0.2987,0.9423,0.1264,4.060,-5.810,0.350,867,422,351,415,441,2025-05-23T21:24:04.271376
9844,0.3021,0.9448,0.1308,3.290,-8.050,0.000,867,417,355,410,446,2025-05-23T21:24:04.271386
9845,0.3177,0.9301,0.1205,1.050,-10.080,-0.420,867,430,363,404,449,2025-05-23T21:24:04.271394
9846,0.3382,0.9218,0.1059,0.490,-11.340,-2.520,867,415,368,380,405,2025-05-23T21:24:04.271403
9847,0.3475,0.9321,0.1025,1.890,-10.430,-4.410,867,420,378,418,412,2025-05-23T21:24:04.271445
9848,0.3484,0.9384,0.0976,3.850,-7.560,-5.320,867,420,373,369,450,2025-05-23T21:24:04.271454
9849,0.3294,0.9487,0.1035,4.900,-5.600,-5.810,866,410,380,372,407,2025-05-23T21:24:04.474652
9850,0.3133,0.9594,0.1078,3.850,-6.300,-5.670,868,425,380,354,438,2025-05-23T21:24:04.474832
9851,0.2933,0.9648,0.1098,2.030,-9.380,-5.530,866,422,389,404,405,2025-05-23T21:24:04.474856
9852,0.2894,0.9672,0.1161,0.140,-11.830,-4.970,866,405,352,401,444,2025-05-23T21:24:04.474870
9853,0.2660,0.9775,0.1200,-1.260,-12.740,-5.180,867,412,371,423,405,2025-05-23T21:24:04.474882
9854,0.2757,0.9819,0.1127,-1.890,-13.160,-4.270,867,401,387,409,428,2025-05-23T21:24:04.474894
9855,0.2782,0.9814,0.1132,-2.870,-14.000,-3.430,867,409,377,416,445,2025-05-23T21:24:04.474906
9856,0.2679,0.9794,0.1064,-5.040,-14.770,-3.430,866,402,342,372,462,2025-05-23T21:24:04.474917
9857,0.2869,0.9628,0.1054,-4.200,-14.700,-1.820,866,343,351,417,459,2025-05-23T21:24:04.474930
9858,0.2826,0.9560,0.1205,-3.500,-13.440,-1.330,866,390,336,429,469,2025-05-23T21:24:04.474941
9859,0.2884,0.9501,0.1235,-3.990,-13.020,-1.050,866,418,355,427,458,2025-05-23T21:24:04.474952
9860,0.3050,0.9340,0.1240,-4.480,-14.980,-1.260,866,433,361,434,454,2025-05-23T21:24:04.474962
9861,0.3045,0.9340,0.1210,-5.180,-18.830,-3.290,865,407,376,435,464,2025-05-23T21:24:04.475398
9862,0.3240,0.9306,0.1161,-5.390,-20.790,-4.900,866,401,376,387,443,2025-05-23T21:24:04.475430
9863,0.3387,0.9233,0.1142,-5.460,-19.110,-6.860,866,428,385,418,455,2025-05-23T21:24:04.475499
9864,0.3279,0.9140,0.1137,-5.600,-16.870,-9.310,866,441,385,424,468,2025-05-23T21:24:04.475512
9865,0.3274,0.8999,0.1181,-5.530,-16.940,-11.270,866,426,380,440,464,2025-05-23T21:24:04.475524
9866,0.3206,0.8833,0.1288,-7.700,-20.020,-12.810,865,416,343,428,450,2025-05-23T21:24:04.680631
9867,0.2991,0.8716,0.1342,-9.030,-24.430,-15.470,866,425,368,385,460,2025-05-23T21:24:04.680681
9868,0.3109,0.8569,0.1332,-10.220,-27.020,-19.250,864,422,374,429,457,2025-05-23T21:24:04.680695
9869,0.3250,0.8203,0.1215,-10.360,-26.880,-24.220,865,424,376,440,467,2025-05-23T21:24:04.680708
9870,0.3343,0.7676,0.1132,-10.710,-23.450,-30.870,865,411,384,390,464,2025-05-23T21:24:04.680720
9871,0.3187,0.7276,0.1118,-11.550,-21.280,-39.270,865,423,384,405,472,2025-05-23T21:24:04.680731
9872,0.2801,0.6759,0.1371,-12.530,-20.860,-50.960,865,419,387,431,469,2025-05-23T21:24:04.680742
9873,0.2137,0.6354,0.1620,-17.290,-23.660,-63.000,865,405,380,394,472,2025-05-23T21:24:04.680756
9874,0.1688,0.5695,0.1776,-21.630,-30.590,-79.240,865,395,345,410,430,2025-05-23T21:24:04.680766
9875,0.1640,0.5270,0.2030,-29.820,-36.820,-98.210,864,389,370,413,447,2025-05-23T21:24:04.680776
9876,0.1405,0.4880,0.2386,-40.810,-41.440,-118.650,863,390,382,387,457,2025-05-23T21:24:04.680786
9877,0.1166,0.4553,0.2782,-46.060,-46.970,-138.740,863,390,350,425,451,2025-05-23T21:24:04.680797
9878,0.0166,0.4846,0.3201,-49.630,-70.980,-161.980,862,414,373,429,465,2025-05-23T21:24:04.680807
9879,-0.0044,0.5168,0.3484,-50.190,-63.070,-179.270,861,419,340,371,465,2025-05-23T21:24:04.680817
9880,-0.0786,0.5861,0.3689,-50.260,-70.350,-191.100,861,426,329,410,477,2025-05-23T21:24:04.680861
9881,-0.1557,0.6446,0.3914,-55.440,-76.790,-203.070,861,430,324,380,457,2025-05-23T21:24:04.680872
9882,-0.2294,0.6710,0.4011,-55.650,-89.740,-213.220,861,413,345,417,450,2025-05-23T21:24:04.680882
9883,-0.2972,0.7115,0.4133,-56.210,-105.560,-224.910,861,395,327,424,409,2025-05-23T21:24:04.885131
9884,-0.2938,0.7701,0.4753,-57.750,-119.630,-233.030,860,423,349,425,434,2025-05-23T21:24:04.885196
9885,-0.2713,0.8057,0.5226,-57.820,-118.230,-241.780,861,350,373,427,458,2025-05-23T21:24:04.885214
9886,-0.2669,0.8481,0.5866,-52.290,-105.140,-246.190,860,382,375,430,458,2025-05-23T21:24:04.885284
9887,-0.2630,0.9233,0.6217,-32.410,-85.540,-252.700,861,414,343,422,454,2025-05-23T21:24:04.885299
9888,-0.2962,0.9755,0.6466,-11.830,-71.750,-257.180,861,347,334,413,444,2025-05-23T21:24:04.885313
9889,-0.3811,1.1639,0.7496,0.350,-73.150,-250.600,861,335,320,439,446,2025-05-23T21:24:04.885326
9890,-0.5817,1.5338,1.0155,-4.900,-101.570,-228.130,860,381,357,430,411,2025-05-23T21:24:04.885341
9891,-0.6300,1.9291,1.3264,-37.030,-173.950,-195.090,861,402,343,436,404,2025-05-23T21:24:04.885355
9892,-0.4851,2.1506,1.5079,-93.590,-247.170,-174.020,861,415,365,408,441,2025-05-23T21:24:04.885368
9893,-0.2572,2.1677,1.5636,-135.380,-319.060,-159.880,860,397,369,408,463,2025-05-23T21:24:04.885386
9894,-0.1244,2.0028,1.4840,-127.820,-325.080,-136.990,861,420,385,407,466,2025-05-23T21:24:04.885401
9895,0.0386,2.2555,1.2117,-85.190,-263.620,-122.010,861,402,385,411,458,2025-05-23T21:24:04.885414
9896,0.2176,2.4922,0.8535,-47.180,-199.010,-106.890,862,400,359,418,424,2025-05-23T21:24:04.885479
9897,0.2206,2.8162,0.3860,-45.920,-129.500,-73.920,862,432,344,430,466,2025-05-23T21:24:04.885494
9898,-0.0254,3.2296,0.0830,-65.940,-86.730,-23.940,863,397,356,424,473,2025-05-23T21:24:04.885507
9899,-0.3094,3.5400,-0.2474,-102.480,-88.760,31.920,865,423,367,418,478,2025-05-23T21:24:04.885520
9900,-0.1010,3.4067,-0.4524,-226.870,-177.590,94.990,866,405,381,434,466,2025-05-23T21:24:05.089238
9901,0.1547,3.2525,-0.6173,-304.150,-261.660,142.450,866,424,343,426,484,2025-05-23T21:24:05.089288
9902,0.2782,3.2237,-0.6988,-309.610,-273.000,167.440,869,423,374,385,462,2025-05-23T21:24:05.089302
9903,0.0634,3.3199,-0.8862,-254.380,-135.800,185.710,869,431,377,403,474,2025-05-23T21:24:05.089314
9904,-0.8896,3.3779,-0.9965,-113.750,30.100,196.490,868,425,380,384,442,2025-05-23T21:24:05.089325
9905,-1.6812,3.5156,-1.4767,-83.930,148.400,228.130,868,432,388,377,433,2025-05-23T21:24:05.089335
9906,-2.2302,3.0920,-1.9271,-117.180,211.470,300.580,868,435,380,316,470,2025-05-23T21:24:05.089345
9907,-2.3243,2.8128,-2.1496,-229.180,131.810,268.170,869,411,376,401,483,2025-05-23T21:24:05.089355
9908,-2.6762,2.2799,-2.1409,-281.750,37.030,295.050,864,410,388,429,454,2025-05-23T21:24:05.089364
9909,-3.3433,2.0774,-2.0774,-210.910,62.510,313.950,863,421,393,437,441,2025-05-23T21:24:05.089374
9910,-4.4096,1.9413,-1.9793,-200.620,146.230,343.420,860,436,400,434,497,2025-05-23T21:24:05.089383
9911,-5.7155,1.5743,-2.1199,-244.580,298.200,368.760,859,409,392,430,496,2025-05-23T21:24:05.089392
9912,-5.4773,1.0638,-1.4825,-345.590,324.520,375.690,857,351,384,375,504,2025-05-23T21:24:05.089401
9913,-5.0645,0.0024,-1.7631,-401.240,197.050,408.170,856,397,369,388,522,2025-05-23T21:24:05.089445
9914,-4.1826,-0.9296,-1.5470,-365.680,123.270,449.400,854,439,384,401,512,2025-05-23T21:24:05.089454
9915,-3.4907,-1.4381,-0.9677,-446.670,89.950,333.340,849,428,385,401,524,2025-05-23T21:24:05.089464
9916,-5.1596,-3.5019,0.7066,-645.750,243.530,135.380,847,404,345,409,516,2025-05-23T21:24:05.089474
9917,-4.3900,-2.7123,-0.2796,-662.760,40.460,315.210,845,401,357,398,501,2025-05-23T21:24:05.294522
9918,-2.9378,-3.4731,0.1122,-273.840,14.420,411.040,844,427,363,397,515,2025-05-23T21:24:05.294570
9919,-2.4141,-3.7503,0.5685,-228.340,-69.300,415.380,843,425,372,413,532,2025-05-23T21:24:05.294583
9920,-1.9837,-4.0460,0.8281,-147.280,-92.400,425.110,838,411,372,411,525,2025-05-23T21:24:05.294595
9921,-1.5772,-4.0543,0.9316,-46.550,-79.450,423.290,838,431,364,405,522,2025-05-23T21:24:05.294605
9922,-1.2600,-3.8889,0.9355,28.980,-73.010,408.450,837,410,339,402,516,2025-05-23T21:24:05.294616
9923,-0.8535,-3.5346,0.9448,129.500,-58.310,376.530,839,846,367,420,534,2025-05-23T21:24:05.294627
9924,-0.6515,-3.1359,1.0477,193.900,-70.350,329.770,838,848,371,408,499,2025-05-23T21:24:05.294637
9925,-0.5534,-2.6884,1.1522,239.190,-113.540,308.140,839,850,377,428,527,2025-05-23T21:24:05.294646
9926,-0.2489,-2.3185,1.2439,243.460,-137.900,311.570,840,850,380,442,546,2025-05-23T21:24:05.294657
9927,0.1074,-2.0198,1.1985,222.600,-143.290,191.310,841,852,387,480,538,2025-05-23T21:24:05.294666
9928,0.2342,-1.7207,0.9116,235.690,-116.340,119.280,842,852,401,503,532,2025-05-23T21:24:05.294676
9929,0.1703,-1.2815,0.9135,260.540,-80.010,69.650,842,854,401,527,527,2025-05-23T21:24:05.294685
9930,-0.0791,-0.8477,0.8379,265.020,-50.960,14.630,844,550,398,476,525,2025-05-23T21:24:05.294694
9931,-0.3035,-0.4451,0.6978,239.540,-31.150,-1.540,845,387,348,441,520,2025-05-23T21:24:05.294736
9932,-0.4119,-0.2523,0.7510,197.820,-50.050,-36.120,845,412,377,478,529,2025-05-23T21:24:05.294746
9933,-0.3455,0.0981,0.6349,127.820,-124.880,-60.340,846,416,346,511,538,2025-05-23T21:24:05.294755
9934,-0.2508,-0.0351,0.5314,115.640,-175.980,-70.280,847,417,366,539,525,2025-05-23T21:24:05.503382
9935,-0.1835,0.0561,0.5305,159.880,-160.370,-70.350,847,420,336,489,535,2025-05-23T21:24:05.503435
9936,-0.0595,0.1308,0.5012,205.800,-108.780,-69.650,848,426,371,514,544,2025-05-23T21:24:05.503450
9937,-0.1845,0.3157,0.3972,231.420,-57.050,-79.310,849,429,371,520,493,2025-05-23T21:24:05.503468
9938,-0.7852,0.4748,0.2323,238.140,-33.250,1.120,851,419,366,531,532,2025-05-23T21:24:05.503481
9939,-0.6671,0.6803,0.1405,199.570,-23.100,125.580,854,393,368,535,539,2025-05-23T21:24:05.503492
9940,-0.3553,0.6817,0.1552,222.670,-192.780,-107.870,857,420,371,525,534,2025-05-23T21:24:05.503503
9941,-0.0922,0.7496,0.0693,154.910,-303.310,-79.520,857,435,373,527,539,2025-05-23T21:24:05.503514
9942,-0.0747,0.7261,0.2103,172.900,-298.970,-96.670,859,399,373,529,524,2025-05-23T21:24:05.503524
9943,0.0229,0.7613,0.1147,290.430,-336.840,-103.950,859,401,380,530,524,2025-05-23T21:24:05.503535
9944,0.5104,1.1722,0.0068,342.720,-253.960,-121.310,862,425,387,544,531,2025-05-23T21:24:05.503752
9945,0.4231,1.4108,-0.2601,364.210,-176.330,-127.050,864,413,394,556,484,2025-05-23T21:24:05.503763
9946,-0.0459,1.6880,-0.3562,256.270,-96.600,-78.820,865,404,401,545,535,2025-05-23T21:24:05.503774
9947,0.1035,1.7080,-0.5588,352.450,-65.940,-69.650,865,426,406,537,536,2025-05-23T21:24:05.503785
9948,0.0776,1.6777,-0.1669,182.070,-163.800,-21.070,867,397,396,548,544,2025-05-23T21:24:05.503829
9949,0.4421,1.4889,-0.1215,72.030,-271.390,-4.480,867,418,397,547,527,2025-05-23T21:24:05.503839
9950,0.6412,1.1688,-0.4304,-27.440,-312.620,28.070,868,417,393,525,517,2025-05-23T21:24:05.503850
9951,0.9370,1.2420,-0.2094,65.380,-181.300,-4.480,868,408,396,515,510,2025-05-23T21:24:05.710108
9952,0.9179,1.2625,-0.1498,161.280,-71.260,-10.010,869,421,391,510,521,2025-05-23T21:24:05.710158
9953,0.7349,1.3347,0.0005,197.330,10.500,-6.300,870,418,393,504,536,2025-05-23T21:24:05.710173
9954,0.6617,1.4259,0.1249,201.180,65.030,-3.080,869,408,400,425,521,2025-05-23T21:24:05.710185
9955,0.6759,1.4181,0.2508,125.090,-4.900,-2.450,869,436,397,464,531,2025-05-23T21:24:05.710195
9956,0.7540,1.2512,0.2001,-13.090,-136.570,19.600,869,359,392,420,505,2025-05-23T21:24:05.710205
9957,0.7969,1.1492,0.2786,-73.080,-177.590,17.640,870,403,400,484,534,2025-05-23T21:24:05.710216
9958,0.7915,0.9955,0.2284,-29.260,-138.530,0.910,871,406,371,494,535,2025-05-23T21:24:05.710226
9959,0.6500,0.9882,0.2206,19.040,-45.710,-6.930,871,418,383,482,540,2025-05-23T21:24:05.710236
9960,0.4358,1.0292,0.2020,46.690,8.400,-6.510,870,408,345,465,538,2025-05-23T21:24:05.710246
9961,0.2518,1.1126,0.1679,53.200,22.400,-4.130,871,393,364,488,551,2025-05-23T21:24:05.710258
9962,0.2059,1.1000,0.1166,18.060,-27.370,1.470,871,421,378,459,520,2025-05-23T21:24:05.710268
9963,0.2333,1.0307,0.0249,-32.760,-65.520,2.730,871,436,372,468,536,2025-05-23T21:24:05.710281
9964,0.3392,0.9784,-0.0483,-49.700,-83.090,-0.700,871,358,334,519,528,2025-05-23T21:24:05.969732
9965,0.4168,0.8950,-0.0854,-29.190,-58.310,-2.590,871,407,364,497,539,2025-05-23T21:24:05.969826
9966,0.3914,0.8779,-0.0122,2.940,-4.340,-1.050,872,412,387,480,524,2025-05-23T21:24:05.969841
9967,0.3636,0.8716,0.0708,9.520,20.930,-0.630,871,416,391,505,535,2025-05-23T21:24:05.969851
9968,0.3445,0.8686,0.1240,11.620,15.680,-0.140,871,427,389,507,534,2025-05-23T21:24:05.969862
9969,0.3206,0.8891,0.1718,4.760,-8.260,-1.050,872,430,387,492,526,2025-05-23T21:24:05.969874
9970,0.3226,0.9150,0.1786,-4.200,-25.620,-7.140,872,423,375,490,535,2025-05-23T21:24:05.969884
9971,0.3806,0.9267,0.1498,0.630,-28.210,-11.970,872,426,388,449,524,2025-05-23T21:24:05.969893
9972,0.3636,0.9111,0.1210,-0.490,-21.210,-15.610,872,425,391,489,523,2025-05-23T21:24:05.969903
9973,0.3314,0.9179,0.1474,4.690,-18.830,-16.030,871,425,389,486,499,2025-05-23T21:24:05.969912
9974,0.3060,0.9179,0.1767,5.110,-18.970,-17.080,872,426,396,495,528,2025-05-23T21:24:05.969921
9975,0.2816,0.9033,0.2006,4.480,-19.110,-18.200,872,360,393,508,523,2025-05-23T21:24:05.969930
9976,0.2191,0.8979,0.2079,5.600,-20.930,-21.840,871,386,397,497,528,2025-05-23T21:24:05.969938
9977,0.2269,0.8999,0.1986,9.310,-25.760,-24.780,872,388,356,451,521,2025-05-23T21:24:05.969948
9978,0.2211,0.8999,0.1610,8.960,-26.880,-28.630,873,421,379,503,532,2025-05-23T21:24:05.969956
9979,0.2294,0.9052,0.1288,4.760,-24.500,-33.250,873,411,374,521,517,2025-05-23T21:24:05.969965
9980,0.2211,0.8960,0.1171,4.620,-20.160,-36.120,875,402,388,525,537,2025-05-23T21:24:05.969987
9981,0.1903,0.8725,0.1166,4.760,-19.530,-38.850,875,416,351,501,530,2025-05-23T21:24:05.969997
9982,0.1684,0.8291,0.1420,2.590,-23.660,-41.090,876,355,374,506,544,2025-05-23T21:24:05.970005
9983,0.0815,0.8047,0.1479,-1.190,-31.570,-45.220,876,408,348,500,530,2025-05-23T21:24:05.970013
9984,0.0381,0.8447,0.1298,0.210,-42.140,-45.640,876,430,361,496,487,2025-05-23T21:24:05.970022
9985,0.0590,0.9331,0.0795,2.800,-49.700,-44.380,876,403,368,452,478,2025-05-23T21:24:06.117482
9986,0.0908,0.9262,-0.0010,5.110,-49.280,-46.760,877,415,367,475,512,2025-05-23T21:24:06.117528
9987,0.1113,0.8935,-0.0547,16.800,-37.030,-49.560,876,405,372,464,530,2025-05-23T21:24:06.117540
9988,0.0981,0.9301,-0.0142,30.030,-15.820,-50.190,877,414,378,480,548,2025-05-23T21:24:06.117551
9989,0.0176,0.9565,0.0185,30.450,-2.450,-48.930,877,402,383,464,536,2025-05-23T21:24:06.117562
9990,0.0220,1.1019,0.0639,24.710,-5.460,-46.760,877,424,363,461,544,2025-05-23T21:24:06.117572
9991,0.0913,1.1619,0.0537,8.610,-20.720,-45.990,877,425,367,449,518,2025-05-23T21:24:06.117582
9992,0.1640,1.1858,0.0595,2.100,-32.480,-44.450,877,406,334,458,539,2025-05-23T21:24:06.117591
9993,0.1932,1.1893,0.0874,7.630,-26.320,-42.770,877,421,359,446,528,2025-05-23T21:24:06.117600
9994,0.1430,1.1595,0.1918,17.500,-7.770,-41.160,877,399,361,437,526,2025-05-23T21:24:06.117609
9995,0.1244,1.1531,0.3133,16.170,-3.640,-33.950,877,412,339,459,524,2025-05-23T21:24:06.117619
9996,0.1137,1.1102,0.3870,1.820,-14.140,-27.860,876,383,367,438,526,2025-05-23T21:24:06.117627
9997,0.1235,1.0268,0.4226,-11.340,-39.550,-26.600,877,408,378,441,541,2025-05-23T21:24:06.117637
9998,0.1366,0.9662,0.4558,-12.390,-60.970,-31.640,877,391,340,449,548,2025-05-23T21:24:06.117645
9999,0.1864,0.8862,0.4577,-3.430,-63.770,-38.570,877,411,370,480,490,2025-05-23T21:24:06.117686
10000,0.1688,0.8452,0.5656,1.750,-51.450,-45.290,877,403,380,470,481,2025-05-23T21:24:06.117696
10001,0.0961,0.8594,0.6778,-4.620,-50.610,-52.640,876,413,378,456,485,2025-05-23T21:24:06.117705
10002,-0.0195,0.8706,0.8359,-22.820,-69.510,-56.910,876,394,388,441,530,2025-05-23T21:24:06.317498
10003,-0.0864,0.8213,0.8926,-50.610,-120.050,-65.240,876,427,372,393,518,2025-05-23T21:24:06.317543
10004,0.0410,0.7266,0.7901,-81.200,-175.420,-78.050,876,391,365,434,530,2025-05-23T21:24:06.317555
