SeqNum,AccX,AccY,AccZ,GyroX,GyroY,GyroZ,Flex,Force1,Force2,Force3,Force4,TimestampReception
8707,-0.3406,-0.9004,-0.2381,0.350,-0.980,3.640,488,398,294,411,367,2025-05-27T22:38:01.060780
8708,-0.3884,0.8940,0.2279,2.870,-0.210,-4.410,464,315,290,415,376,2025-05-27T22:38:01.060780
8709,-0.3992,0.8926,0.2289,2.660,-0.770,-3.885,354,402,341,408,400,2025-05-27T22:38:01.060780
8710,-0.4046,0.8872,0.2250,2.695,-2.100,-3.255,400,422,369,395,400,2025-05-27T22:38:01.060780
8711,-0.4031,0.8857,0.2313,3.115,-2.835,-2.835,412,437,377,345,384,2025-05-27T22:38:01.060780
8712,-0.3982,0.8891,0.2323,3.045,-3.080,-2.800,411,430,374,377,389,2025-05-27T22:38:01.060780
8713,-0.3924,0.8896,0.2308,2.695,-3.430,-2.940,342,378,385,394,362,2025-05-27T22:38:01.060780
8714,-0.3880,0.8891,0.2294,2.660,-3.255,-3.080,388,369,378,408,389,2025-05-27T22:38:01.060780
8715,-0.3855,0.8906,0.2279,2.905,-3.290,-3.115,387,397,380,402,413,2025-05-27T22:38:01.060780
8716,-0.3811,0.8896,0.2289,3.115,-3.395,-3.115,337,394,345,406,411,2025-05-27T22:38:01.060780
8717,-0.3802,0.8911,0.2294,3.395,-3.325,-3.045,399,414,370,427,410,2025-05-27T22:38:01.060780
8718,-0.3787,0.8901,0.2284,3.535,-2.835,-3.080,418,408,383,408,403,2025-05-27T22:38:01.060780
8719,-0.3831,0.8969,0.2323,3.430,-2.590,-3.045,395,400,389,413,384,2025-05-27T22:38:01.060780
8720,-0.3845,0.9013,0.2298,2.870,-2.730,-2.765,298,406,393,406,351,2025-05-27T22:38:01.060780
8721,-0.3880,0.8989,0.2264,2.485,-2.975,-2.555,392,419,383,395,388,2025-05-27T22:38:01.060780
8722,-0.3884,0.8945,0.2216,2.415,-3.290,-2.275,418,432,375,412,405,2025-05-27T22:38:01.060780
8723,-0.3880,0.8965,0.2196,2.870,-3.605,-2.170,405,431,376,410,407,2025-05-27T22:38:01.060780
8724,-0.3841,0.8979,0.2181,3.010,-3.290,-2.100,414,431,340,416,402,2025-05-27T22:38:01.060780
8725,-0.3836,0.9008,0.2176,2.870,-2.275,-2.380,393,424,371,407,389,2025-05-27T22:38:01.060780
8726,-0.3889,0.8979,0.2113,2.695,-1.715,-2.275,391,338,385,399,387,2025-05-27T22:38:01.060780
8727,-0.3963,0.8994,0.2118,2.555,-1.225,-1.925,407,411,391,409,381,2025-05-27T22:38:01.060780
8728,-0.4046,0.9008,0.2108,1.855,-0.910,-1.750,387,427,380,369,335,2025-05-27T22:38:01.060780
8729,-0.4046,0.9028,0.2118,0.945,-0.945,-1.120,382,411,367,371,371,2025-05-27T22:38:01.196663
8730,-0.4109,0.9008,0.2079,0.595,-1.540,-0.525,404,430,386,383,395,2025-05-27T22:38:01.196663
8731,-0.4153,0.8999,0.2094,0.595,-2.380,0.000,415,423,386,408,394,2025-05-27T22:38:01.196663
8732,-0.4109,0.9028,0.2123,0.525,-3.010,0.525,399,424,355,409,400,2025-05-27T22:38:01.196663
8733,-0.4124,0.9008,0.2108,0.245,-3.115,1.225,402,350,377,403,390,2025-05-27T22:38:01.196663
8734,-0.4075,0.9004,0.2123,0.000,-2.310,1.750,401,404,374,404,394,2025-05-27T22:38:01.196663
8735,-0.4060,0.8984,0.2152,-0.245,-1.610,2.205,402,411,379,399,346,2025-05-27T22:38:01.196663
8736,-0.4099,0.8926,0.2152,-0.490,-1.085,2.625,411,406,352,404,339,2025-05-27T22:38:01.196663
8737,-0.4148,0.8891,0.2137,-0.175,-1.750,3.325,410,412,339,389,364,2025-05-27T22:38:01.196663
8738,-0.4138,0.8891,0.2235,0.000,-2.695,3.570,409,396,326,401,384,2025-05-27T22:38:01.196663
8739,-0.4080,0.8852,0.2211,-0.210,-3.010,3.570,431,427,343,392,303,2025-05-27T22:38:01.196663
8740,-0.4016,0.8794,0.2137,-0.280,-3.255,3.920,424,419,357,406,367,2025-05-27T22:38:01.196663
8741,-0.3933,0.8769,0.2142,0.140,-2.870,3.920,398,403,360,360,398,2025-05-27T22:38:01.453700
8742,-0.3884,0.8745,0.2162,0.455,-1.995,3.710,424,399,380,403,405,2025-05-27T22:38:01.453700
8743,-0.3919,0.8755,0.2142,0.560,-1.400,3.500,397,417,340,409,409,2025-05-27T22:38:01.453700
8744,-0.3870,0.8730,0.2191,0.875,-1.330,3.395,407,407,366,420,364,2025-05-27T22:38:01.453700
8745,-0.3875,0.8745,0.2137,0.910,-1.120,3.185,356,416,372,355,392,2025-05-27T22:38:01.453700
8746,-0.3855,0.8730,0.2089,1.260,-0.875,3.080,406,365,368,292,398,2025-05-27T22:38:01.453700
8747,-0.3860,0.8789,0.2172,1.540,-0.910,2.695,407,334,371,369,411,2025-05-27T22:38:01.453700
8748,-0.3855,0.8760,0.2137,1.365,-1.155,2.030,399,376,392,386,421,2025-05-27T22:38:01.453700
8749,-0.3836,0.8755,0.2098,1.610,-1.400,1.400,395,413,351,394,374,2025-05-27T22:38:01.453700
8750,-0.3821,0.8774,0.2094,2.450,-1.750,1.155,400,404,364,360,384,2025-05-27T22:38:01.453700
8751,-0.3806,0.8794,0.2089,2.940,-1.435,0.700,403,416,346,387,385,2025-05-27T22:38:01.453700
8752,-0.3797,0.8833,0.2089,3.395,-0.560,0.315,421,422,349,397,406,2025-05-27T22:38:01.453700
8753,-0.3816,0.8872,0.2142,3.255,0.070,-0.070,307,391,365,386,413,2025-05-27T22:38:01.453700
8754,-0.3880,0.8852,0.2108,3.220,0.525,-0.210,371,407,380,392,378,2025-05-27T22:38:01.453700
8755,-0.3924,0.8857,0.2084,3.395,0.000,-0.665,377,414,390,387,380,2025-05-27T22:38:01.453700
8756,-0.3909,0.8886,0.2079,3.675,-0.665,-0.420,370,397,371,396,401,2025-05-27T22:38:01.453700
8757,-0.3860,0.8867,0.2045,3.325,8.820,-0.840,391,425,378,397,407,2025-05-27T22:38:01.453700
8758,-0.3987,0.8852,0.2059,3.080,1.190,-0.910,412,351,375,385,411,2025-05-27T22:38:01.454746
8759,-0.4050,0.8847,0.2098,2.730,1.085,-0.980,413,405,387,398,358,2025-05-27T22:38:01.454746
8760,-0.4089,0.8828,0.2045,2.345,-0.140,-1.120,347,420,358,385,376,2025-05-27T22:38:01.454746
8761,-0.4172,0.8804,0.2054,2.275,-0.910,-1.190,377,415,377,392,394,2025-05-27T22:38:01.454746
8762,-0.4124,0.8847,0.2074,1.890,-1.435,-1.645,403,413,337,385,386,2025-05-27T22:38:01.611010
8763,-0.4046,0.8877,0.2094,0.875,-1.925,-1.960,357,414,365,391,403,2025-05-27T22:38:01.611010
8764,-0.4070,0.8847,0.2059,0.245,-1.820,-2.170,383,350,370,423,391,2025-05-27T22:38:01.611010
8765,-0.4080,0.8833,0.2069,0.490,-2.380,-2.520,379,407,368,406,386,2025-05-27T22:38:01.611010
8766,-0.4036,0.8872,0.2137,0.315,-3.325,-2.835,389,401,377,395,398,2025-05-27T22:38:01.611010
8767,-0.4036,0.8891,0.2118,0.175,-3.045,-3.045,392,378,384,415,397,2025-05-27T22:38:01.611010
8768,-0.4055,0.8906,0.2123,0.070,-2.905,-3.185,391,412,353,421,386,2025-05-27T22:38:01.611010
8769,-0.4085,0.8891,0.2152,-0.105,-3.115,-3.115,420,396,361,399,397,2025-05-27T22:38:01.611010
8770,-0.4128,0.8906,0.2152,0.000,-3.780,-2.625,401,393,329,388,392,2025-05-27T22:38:01.611010
8771,-0.4089,0.8916,0.2162,0.105,-4.340,-2.100,339,411,362,408,357,2025-05-27T22:38:01.611010
8772,-0.4065,0.8945,0.2133,0.140,-4.375,-1.645,288,384,378,413,380,2025-05-27T22:38:01.611010
8773,-0.4050,0.8940,0.2098,0.105,-3.885,-1.575,372,393,391,395,374,2025-05-27T22:38:01.611010
8774,-0.4026,0.8906,0.2035,0.700,-3.675,-1.190,383,412,392,370,389,2025-05-27T22:38:01.611010
8775,-0.4021,0.8921,0.2074,1.155,-3.465,-0.910,417,418,353,381,400,2025-05-27T22:38:01.879443
8776,-0.4002,0.8921,0.2064,1.120,-3.290,-0.875,411,398,331,403,403,2025-05-27T22:38:01.879443
8777,-0.4016,0.8930,0.2059,1.085,-3.360,-0.840,423,394,372,394,368,2025-05-27T22:38:01.879443
8778,-0.3992,0.8901,0.2001,1.260,-3.850,-0.840,360,420,386,418,339,2025-05-27T22:38:01.879443
8779,-0.4006,0.8911,0.2025,1.260,-3.955,-0.840,405,435,384,357,366,2025-05-27T22:38:01.879443
8780,-0.3982,0.8935,0.2006,0.525,-3.675,-1.155,390,416,383,329,332,2025-05-27T22:38:01.879443
8781,-0.3972,0.8921,0.1981,0.210,-3.465,-0.980,389,411,366,326,388,2025-05-27T22:38:01.879443
8782,-0.4016,0.8906,0.1991,-0.035,-3.360,-1.120,297,425,337,320,406,2025-05-27T22:38:01.879443
8783,-0.3992,0.8896,0.2006,-0.315,-3.290,-1.120,403,429,350,374,420,2025-05-27T22:38:01.879443
8784,-0.4026,0.8901,0.1962,-0.595,-3.290,-0.980,420,439,372,404,424,2025-05-27T22:38:01.879443
8785,-0.3992,0.8882,0.1976,-0.630,-3.150,-0.805,403,413,376,413,401,2025-05-27T22:38:01.879443
8786,-0.4011,0.8857,0.2001,-0.980,-3.080,-1.085,401,425,373,409,398,2025-05-27T22:38:01.879443
8787,-0.3987,0.8862,0.2035,-1.365,-2.905,-0.945,342,410,349,402,346,2025-05-27T22:38:01.879443
8788,-0.4026,0.8838,0.2059,-1.645,-2.870,-0.770,386,368,372,366,374,2025-05-27T22:38:01.879443
8789,-0.3967,0.8843,0.2030,-1.505,-3.255,-0.875,395,412,354,398,396,2025-05-27T22:38:01.879443
8790,-0.3928,0.8804,0.2030,-1.470,-2.940,-1.155,367,424,340,364,383,2025-05-27T22:38:01.879443
8791,-0.3880,0.8808,0.2030,-1.260,-2.415,-1.470,402,390,353,395,381,2025-05-27T22:38:01.879443
8792,-0.3943,0.8852,0.2050,-0.875,-1.820,-1.890,402,407,364,409,379,2025-05-27T22:38:01.880490
8793,-0.3933,0.8877,0.2094,-1.050,-1.470,-2.275,427,423,370,425,403,2025-05-27T22:38:01.880490
8794,-0.3977,0.8847,0.2079,-1.225,-1.680,-2.520,424,427,371,403,401,2025-05-27T22:38:01.880490
8795,-0.4002,0.8823,0.2074,-1.085,-2.065,-2.695,422,441,379,389,407,2025-05-27T22:38:02.010377
8796,-0.4021,0.8867,0.2128,-1.050,-2.345,-2.590,406,369,374,416,357,2025-05-27T22:38:02.010377
8797,-0.4002,0.8867,0.2089,-1.365,-2.345,-2.275,337,410,373,404,375,2025-05-27T22:38:02.010377
8798,-0.4055,0.8862,0.2089,-1.190,-1.925,-2.170,374,394,373,397,341,2025-05-27T22:38:02.010377
8799,-0.4089,0.8886,0.2113,-1.120,-1.505,-1.925,405,393,368,420,394,2025-05-27T22:38:02.010377
8800,-0.4133,0.8896,0.2147,-1.225,-1.680,-1.540,406,425,374,380,385,2025-05-27T22:38:02.010377
8801,-0.4192,0.8886,0.2137,-1.155,-1.925,-0.875,397,343,381,385,402,2025-05-27T22:38:02.010377
8802,-0.4207,0.8867,0.2079,-0.805,-2.380,-0.630,341,376,338,408,395,2025-05-27T22:38:02.010377
8803,-0.4168,0.8877,0.2079,-0.350,-2.450,-0.175,381,417,365,413,397,2025-05-27T22:38:02.010377
8804,-0.4143,0.8862,0.2089,-0.315,-2.030,0.280,394,429,374,381,392,2025-05-27T22:38:02.010377
8805,-0.4172,0.8862,0.2084,-0.385,-1.610,0.770,418,436,351,399,390,2025-05-27T22:38:02.010377
8806,-0.4207,0.8847,0.2094,-0.665,-1.365,1.050,420,408,364,405,381,2025-05-27T22:38:02.010377
8807,-0.4216,0.8818,0.2103,-0.700,-1.750,1.260,394,427,362,415,387,2025-05-27T22:38:02.010377
8808,-0.4241,0.8813,0.2113,-0.665,-2.485,1.435,392,423,362,397,383,2025-05-27T22:38:02.010377
8809,-0.4202,0.8823,0.2118,-0.910,-3.115,1.680,392,399,372,376,359,2025-05-27T22:38:02.010377
8810,-0.4143,0.8774,0.2123,-1.225,-3.185,1.890,407,398,340,295,377,2025-05-27T22:38:02.418962
8811,-0.4089,0.8764,0.2103,-0.980,-3.115,2.030,400,380,356,385,398,2025-05-27T22:38:02.418962
8812,-0.4046,0.8813,0.2147,-1.015,-2.870,1.855,414,427,366,410,414,2025-05-27T22:38:02.418962
8813,-0.4011,0.8789,0.2128,-1.190,-2.345,1.540,406,430,375,416,397,2025-05-27T22:38:02.418962
8814,-0.4041,0.8774,0.2103,-0.980,-2.310,1.330,415,407,376,398,388,2025-05-27T22:38:02.418962
8815,-0.4089,0.8764,0.2147,-0.525,-2.835,0.980,417,395,373,380,366,2025-05-27T22:38:02.418962
8816,-0.4055,0.8760,0.2137,-0.245,-3.430,0.840,415,393,382,391,372,2025-05-27T22:38:02.418962
8817,-0.4036,0.8760,0.2152,0.070,-3.395,0.735,414,368,340,407,377,2025-05-27T22:38:02.418962
8818,-0.3992,0.8769,0.2133,0.245,-3.010,0.665,389,412,367,407,384,2025-05-27T22:38:02.418962
8819,-0.3992,0.8769,0.2098,0.385,-2.520,0.525,362,413,384,400,401,2025-05-27T22:38:02.418962
8820,-0.4031,0.8755,0.2103,0.770,-2.170,0.385,392,390,355,397,410,2025-05-27T22:38:02.418962
8821,-0.4060,0.8799,0.2147,0.840,-2.345,0.420,352,399,359,409,407,2025-05-27T22:38:02.418962
8822,-0.4104,0.8794,0.2094,0.525,-2.660,0.280,399,393,365,400,391,2025-05-27T22:38:02.418962
8823,-0.4099,0.8779,0.2064,0.350,-2.835,0.315,405,409,367,388,357,2025-05-27T22:38:02.418962
8824,-0.4114,0.8813,0.2054,0.490,-3.080,0.420,430,402,335,378,394,2025-05-27T22:38:02.419962
8825,-0.4104,0.8813,0.2035,0.560,-3.220,0.665,405,390,355,399,387,2025-05-27T22:38:02.419962
8826,-0.4114,0.8799,0.2079,0.350,-2.940,0.700,336,391,327,418,409,2025-05-27T22:38:02.419962
8827,-0.4133,0.8818,0.2118,0.105,-2.590,0.735,325,386,371,398,402,2025-05-27T22:38:02.419962
8828,-0.4148,0.8799,0.2137,0.210,-3.010,0.980,403,428,372,419,397,2025-05-27T22:38:02.419962
8829,-0.4158,0.8794,0.2137,0.490,-3.535,1.085,421,412,381,420,365,2025-05-27T22:38:02.419962
8830,-0.4119,0.8818,0.2162,0.840,-3.605,1.330,395,426,341,419,387,2025-05-27T22:38:02.419962
8831,-0.4094,0.8838,0.2172,1.050,-3.570,1.540,406,436,367,396,389,2025-05-27T22:38:02.584304
8832,-0.4104,0.8847,0.2201,1.155,-3.325,1.715,389,341,363,410,350,2025-05-27T22:38:02.584304
8833,-0.4080,0.8886,0.2186,1.085,-3.115,1.925,363,404,347,386,372,2025-05-27T22:38:02.584304
8834,-0.4055,0.8882,0.2191,0.980,-3.360,2.100,342,396,361,406,388,2025-05-27T22:38:02.584304
8835,-0.4109,0.8843,0.2181,1.155,-3.920,2.065,407,425,382,412,398,2025-05-27T22:38:02.584304
8836,-0.4060,0.8833,0.2176,1.435,-4.585,1.925,402,440,381,399,405,2025-05-27T22:38:02.584304
8837,-0.3987,0.8828,0.2152,1.400,-4.760,1.785,426,405,372,414,357,2025-05-27T22:38:02.584304
8838,-0.3953,0.8794,0.2103,1.435,-4.410,1.400,408,417,382,409,385,2025-05-27T22:38:02.584304
8839,-0.3914,0.8799,0.2064,1.540,-4.165,0.945,423,427,386,396,398,2025-05-27T22:38:02.584304
8840,-0.3889,0.8808,0.2050,1.540,-3.675,0.700,415,415,387,406,405,2025-05-27T22:38:02.584304
8841,-0.3889,0.8769,0.2020,1.610,-3.395,0.280,409,405,376,404,407,2025-05-27T22:38:02.584304
8842,-0.3972,0.8794,0.2069,1.540,-3.430,-0.210,413,398,388,390,400,2025-05-27T22:38:02.584304
8843,-0.4002,0.8794,0.2030,1.260,-3.675,-0.560,426,413,392,388,348,2025-05-27T22:38:02.584304
8844,-0.3992,0.8769,0.1967,1.015,-4.060,-0.805,422,420,361,381,384,2025-05-27T22:38:02.584304
8845,-0.3948,0.8789,0.1932,1.050,-4.060,-0.875,413,403,375,388,367,2025-05-27T22:38:02.584304
8846,-0.3938,0.8779,0.1932,0.805,-3.010,-1.400,415,419,373,407,394,2025-05-27T22:38:02.584304
8847,-0.3948,0.8779,0.1932,0.630,-1.890,-1.505,421,405,383,346,386,2025-05-27T22:38:02.584304
8848,-0.4021,0.8774,0.1976,0.525,-1.855,-1.610,368,413,381,373,405,2025-05-27T22:38:02.584304
8849,-0.4099,0.8799,0.1996,0.595,-2.695,-1.470,421,430,391,385,399,2025-05-27T22:38:02.585311
8850,-0.4089,0.8794,0.2011,0.805,-3.290,-1.610,413,388,387,385,390,2025-05-27T22:38:02.585311
8851,-0.3953,0.8813,0.2025,0.700,-3.220,-1.715,345,416,355,403,389,2025-05-27T22:38:02.585311
8852,-0.3919,0.8833,0.2006,0.595,-2.520,-1.715,391,340,370,410,404,2025-05-27T22:38:02.678248
8853,-0.3924,0.8833,0.2015,0.560,-1.400,-1.785,393,380,384,400,407,2025-05-27T22:38:02.678248
8854,-0.3958,0.8847,0.2020,0.735,-1.085,-1.890,335,410,346,403,405,2025-05-27T22:38:02.678248
8855,-0.4021,0.8867,0.2025,0.665,-1.435,-2.205,371,398,365,406,391,2025-05-27T22:38:02.678248
8856,-0.4006,0.8886,0.2006,0.560,-1.995,-2.380,399,409,372,402,412,2025-05-27T22:38:02.678248
8857,-0.4002,0.8862,0.1972,0.420,-2.135,-2.660,423,414,382,403,403,2025-05-27T22:38:02.678248
8858,-0.4026,0.8886,0.2030,0.140,-2.310,-3.080,421,434,389,410,417,2025-05-27T22:38:02.678248
8859,-0.4080,0.8896,0.2035,0.105,-2.625,-3.255,424,362,394,398,362,2025-05-27T22:38:02.678248
8860,-0.4099,0.8886,0.2069,0.140,-3.080,-3.430,410,388,386,409,394,2025-05-27T22:38:02.678248
8861,-0.4119,0.8921,0.2089,-0.175,-2.905,-3.255,404,400,395,395,392,2025-05-27T22:38:02.678248
8862,-0.4128,0.8930,0.2094,-0.455,-2.415,-2.870,382,396,347,390,387,2025-05-27T22:38:02.678248
8863,-0.4153,0.8940,0.2113,-0.595,-2.170,-2.100,411,421,366,413,401,2025-05-27T22:38:02.678248
8864,-0.4177,0.8950,0.2103,-0.560,-2.205,-1.715,408,372,367,399,402,2025-05-27T22:38:02.678248
8865,-0.4158,0.8950,0.2157,-0.560,-2.380,-1.295,425,409,369,349,405,2025-05-27T22:38:02.678248
8866,-0.4158,0.8955,0.2137,-0.665,-2.345,-0.945,347,407,376,382,355,2025-05-27T22:38:02.831021
8867,-0.4124,0.8940,0.2123,-0.665,-2.555,-0.630,388,388,351,398,378,2025-05-27T22:38:02.831021
8868,-0.4133,0.8945,0.2108,-0.560,-2.520,-0.385,425,399,370,422,401,2025-05-27T22:38:02.831021
8869,-0.4148,0.8926,0.2098,-0.420,-2.765,-0.210,393,429,366,377,348,2025-05-27T22:38:02.831021
8870,-0.4153,0.8896,0.2103,-0.385,-3.290,0.105,420,376,374,403,394,2025-05-27T22:38:02.831021
8871,-0.4133,0.8877,0.2123,-0.455,-3.430,0.315,401,407,378,393,389,2025-05-27T22:38:02.831021
8872,-0.4143,0.8852,0.2098,-0.805,-3.430,0.385,388,417,386,358,399,2025-05-27T22:38:02.831021
8873,-0.4163,0.8838,0.2074,-0.945,-3.500,0.385,388,400,380,384,353,2025-05-27T22:38:02.831021
8874,-0.4153,0.8794,0.2064,-0.665,-3.885,0.455,410,421,377,388,295,2025-05-27T22:38:02.831021
8875,-0.4124,0.8784,0.2030,-0.490,-3.920,0.665,411,422,334,341,347,2025-05-27T22:38:02.831021
8876,-0.4099,0.8750,0.2045,-0.385,-3.430,0.875,418,386,354,401,367,2025-05-27T22:38:02.831021
8877,-0.4075,0.8755,0.2020,-0.315,-2.765,0.875,398,425,365,411,386,2025-05-27T22:38:02.831021
8878,-0.4036,0.8745,0.2059,-0.350,-1.820,0.700,408,429,369,348,305,2025-05-27T22:38:02.831021
8879,-0.4089,0.8769,0.2079,-0.595,-1.610,0.490,392,429,362,336,338,2025-05-27T22:38:03.228541
8880,-0.4124,0.8750,0.2069,-0.770,-2.485,0.210,395,417,372,350,389,2025-05-27T22:38:03.228541
8881,-0.4128,0.8735,0.2064,-0.700,-3.780,-0.140,409,412,372,335,398,2025-05-27T22:38:03.228541
8882,-0.4075,0.8769,0.2074,-0.560,-4.445,-0.420,364,402,376,330,399,2025-05-27T22:38:03.228541
8883,-0.3987,0.8764,0.2030,-0.665,-4.130,-0.350,412,356,387,324,405,2025-05-27T22:38:03.228541
8884,-0.4041,0.8760,0.1996,-0.630,-2.870,-0.525,414,385,382,373,398,2025-05-27T22:38:03.228541
8885,-0.4060,0.8755,0.2040,-0.315,-1.715,-0.805,414,424,385,398,392,2025-05-27T22:38:03.228541
8886,-0.4104,0.8779,0.2098,-0.280,-1.540,-0.665,415,344,388,348,398,2025-05-27T22:38:03.228541
8887,-0.4163,0.8794,0.2103,-0.280,-1.925,-0.490,401,330,395,373,386,2025-05-27T22:38:03.228541
8888,-0.4192,0.8799,0.2123,-0.245,-2.695,-0.420,394,415,389,396,349,2025-05-27T22:38:03.228541
8889,-0.4158,0.8843,0.2108,-0.140,-3.360,-0.245,419,400,379,408,375,2025-05-27T22:38:03.228541
8890,-0.4124,0.8877,0.2064,-0.350,-3.290,-0.210,342,380,389,408,362,2025-05-27T22:38:03.228541
8891,-0.4080,0.8877,0.2103,-0.420,-2.975,0.000,414,427,387,409,378,2025-05-27T22:38:03.228541
8892,-0.4089,0.8847,0.2074,-0.350,-2.765,0.140,398,428,386,395,389,2025-05-27T22:38:03.228541
8893,-0.4080,0.8808,0.2079,0.105,-2.835,0.245,409,429,386,393,386,2025-05-27T22:38:03.228541
8894,-0.4124,0.8804,0.2113,0.455,-2.835,0.315,419,430,391,344,407,2025-05-27T22:38:03.228541
8895,-0.4138,0.8833,0.2152,0.420,-2.870,0.420,400,432,380,389,390,2025-05-27T22:38:03.228541
8896,-0.4168,0.8818,0.2123,0.280,-2.800,0.560,346,433,370,397,398,2025-05-27T22:38:03.228541
8897,-0.4192,0.8799,0.2108,0.315,-2.905,0.525,402,442,372,392,417,2025-05-27T22:38:03.228541
8898,-0.4168,0.8808,0.2089,0.595,-2.765,0.700,398,421,383,404,422,2025-05-27T22:38:03.228541
8899,-0.4153,0.8789,0.2098,0.700,-2.870,0.980,426,402,348,352,407,2025-05-27T22:38:03.228541
8900,-0.4143,0.8813,0.2118,0.455,-2.870,0.910,425,339,353,378,355,2025-05-27T22:38:03.392626
8901,-0.4104,0.8794,0.2108,0.175,-3.045,0.875,402,387,379,398,400,2025-05-27T22:38:03.392626
8902,-0.4075,0.8764,0.2069,0.105,-3.500,0.945,371,423,389,405,389,2025-05-27T22:38:03.392626
8903,-0.4046,0.8774,0.2079,0.140,-3.570,0.770,392,408,363,388,392,2025-05-27T22:38:03.392626
8904,-0.4011,0.8760,0.2074,-0.035,-3.290,0.490,337,395,333,339,391,2025-05-27T22:38:03.392626
8905,-0.4016,0.8764,0.2054,0.000,-2.905,0.070,373,395,365,378,407,2025-05-27T22:38:03.392626
8906,-0.4036,0.8730,0.2059,0.210,-2.835,0.035,411,400,336,364,365,2025-05-27T22:38:03.392626
8907,-0.4046,0.8750,0.2050,0.385,-2.695,-0.280,396,428,371,380,340,2025-05-27T22:38:03.691656
8908,-0.4065,0.8725,0.2045,0.420,-2.240,-0.490,432,433,371,402,391,2025-05-27T22:38:03.691656
8909,-0.4104,0.8750,0.2020,0.595,-1.995,-0.525,398,428,380,408,409,2025-05-27T22:38:03.691656
8910,-0.4124,0.8794,0.2025,0.490,-2.170,-0.385,390,414,386,395,412,2025-05-27T22:38:03.691656
8911,-0.4158,0.8828,0.2025,0.455,-2.380,-0.490,409,432,377,391,390,2025-05-27T22:38:03.691656
8912,-0.4153,0.8804,0.2040,0.490,-2.520,-0.385,387,409,374,410,388,2025-05-27T22:38:03.691656
8913,-0.4148,0.8857,0.2045,0.350,-2.625,-0.140,429,349,368,399,394,2025-05-27T22:38:03.691656
8914,-0.4197,0.8823,0.2045,0.280,-2.520,0.000,345,376,370,412,407,2025-05-27T22:38:03.691656
8915,-0.4207,0.8872,0.2084,0.105,-2.275,0.140,387,415,386,416,397,2025-05-27T22:38:03.691656
8916,-0.4187,0.8872,0.2084,-0.105,-2.380,0.280,336,409,388,362,395,2025-05-27T22:38:03.691656
8917,-0.4158,0.8857,0.2084,-0.245,-2.485,0.700,374,428,398,400,364,2025-05-27T22:38:03.691656
8918,-0.4158,0.8843,0.2108,-0.140,-2.660,0.735,413,395,381,387,396,2025-05-27T22:38:03.691656
8919,-0.4168,0.8852,0.2103,-0.315,-2.835,0.805,351,396,375,383,385,2025-05-27T22:38:03.691656
8920,-0.4114,0.8843,0.2123,-0.420,-2.870,1.085,409,408,386,412,407,2025-05-27T22:38:03.691656
8921,-0.4168,0.8833,0.2157,-0.630,-3.150,1.330,393,412,350,419,418,2025-05-27T22:38:03.691656
8922,-0.4138,0.8838,0.2147,-0.770,-3.570,1.260,399,422,336,420,376,2025-05-27T22:38:03.691656
8923,-0.4109,0.8843,0.2133,-0.630,-3.885,1.155,370,403,362,397,379,2025-05-27T22:38:03.691656
8924,-0.4094,0.8847,0.2167,-0.490,-3.990,0.945,409,395,354,407,381,2025-05-27T22:38:03.691656
8925,-0.4046,0.8823,0.2216,-0.455,-4.130,0.665,394,429,373,408,383,2025-05-27T22:38:03.691656
8926,-0.4016,0.8779,0.2240,-0.630,-4.165,0.350,389,437,366,356,360,2025-05-27T22:38:03.691656
8927,-0.4016,0.8769,0.2274,-0.735,-4.165,0.280,362,431,364,345,369,2025-05-27T22:38:03.691656
8928,-0.4065,0.8721,0.2250,-0.700,-4.235,0.175,383,416,375,382,405,2025-05-27T22:38:03.691656
8929,-0.4114,0.8701,0.2230,-0.420,-4.655,0.140,383,405,338,395,347,2025-05-27T22:38:03.691656
8930,-0.4148,0.8691,0.2162,0.105,-5.320,0.210,408,372,368,412,391,2025-05-27T22:38:03.691656
8931,-0.4148,0.8730,0.2142,0.350,-5.390,0.140,395,388,371,410,393,2025-05-27T22:38:03.691656
8932,-0.4104,0.8701,0.2079,0.420,-4.760,-0.035,401,411,379,396,394,2025-05-27T22:38:03.691656
8933,-0.4104,0.8745,0.1962,0.735,-4.130,0.000,402,402,388,392,406,2025-05-27T22:38:03.691656
8934,-0.3684,0.8672,0.1898,0.945,-0.210,-0.385,413,428,395,397,406,2025-05-27T22:38:03.691656
8935,-0.3997,0.8677,0.1923,1.400,3.185,-0.280,435,416,395,406,402,2025-05-27T22:38:03.691656
8936,-0.4128,0.8735,0.1942,1.680,4.025,-0.350,400,404,396,366,407,2025-05-27T22:38:03.691656
8937,-0.4221,0.8769,0.1952,1.505,3.115,-0.525,404,360,380,294,372,2025-05-27T22:38:03.691656
8938,-0.4187,0.8755,0.1996,1.575,2.800,-0.595,399,422,391,347,395,2025-05-27T22:38:03.691656
8939,-0.4202,0.8789,0.1996,1.785,1.400,-0.350,424,384,378,331,393,2025-05-27T22:38:03.691656
8940,-0.4265,0.8789,0.2020,1.820,-1.435,-0.385,397,399,381,383,390,2025-05-27T22:38:03.724896
8941,-0.4260,0.8813,0.2054,1.855,-4.060,-0.350,360,419,376,341,398,2025-05-27T22:38:03.724896
8942,-0.4114,0.8852,0.2054,1.750,-5.425,-0.175,392,438,337,382,367,2025-05-27T22:38:03.724896
8943,-0.4021,0.8838,0.1972,1.225,-5.705,-0.140,388,429,350,364,375,2025-05-27T22:38:03.724896
8944,-0.3938,0.8852,0.1932,0.945,-4.130,-0.105,337,427,354,392,344,2025-05-27T22:38:03.724896
8945,-0.3933,0.8886,0.1976,0.595,-2.205,-0.245,282,439,375,385,367,2025-05-27T22:38:03.724896
8946,-0.4016,0.8877,0.1991,0.385,-1.225,-0.280,371,435,378,349,382,2025-05-27T22:38:03.724896
8947,-0.4128,0.8872,0.2045,0.700,-1.225,-0.490,376,416,370,388,402,2025-05-27T22:38:03.724896
8948,-0.4163,0.8896,0.2133,0.770,-2.135,-0.595,407,419,369,409,409,2025-05-27T22:38:03.724896
8949,-0.4148,0.8911,0.2103,0.840,-2.940,-0.630,416,433,339,415,393,2025-05-27T22:38:03.724896
8950,-0.4182,0.8891,0.2094,0.840,-3.080,-0.630,399,404,366,408,404,2025-05-27T22:38:03.724896
8951,-0.4182,0.8901,0.2103,1.015,-3.255,-0.385,417,396,372,420,415,2025-05-27T22:38:03.724896
8952,-0.4172,0.8921,0.2103,0.595,-3.570,-0.175,422,375,375,351,389,2025-05-27T22:38:03.724896
8953,-0.4182,0.8877,0.2084,0.280,-3.570,0.105,414,378,377,367,389,2025-05-27T22:38:04.044515
8954,-0.4211,0.8886,0.2064,0.350,-3.675,0.245,340,410,375,391,391,2025-05-27T22:38:04.044515
8955,-0.4182,0.8872,0.2045,0.455,-3.990,0.525,397,406,387,383,387,2025-05-27T22:38:04.044515
8956,-0.4143,0.8877,0.2006,0.595,-3.710,0.805,336,421,389,404,394,2025-05-27T22:38:04.044515
8957,-0.4153,0.8852,0.2015,0.560,-3.465,0.735,408,419,345,410,398,2025-05-27T22:38:04.044515
8958,-0.4138,0.8872,0.2020,0.245,-3.745,0.840,417,402,336,353,402,2025-05-27T22:38:04.044515
8959,-0.4138,0.8838,0.1986,-0.035,-3.990,0.805,411,424,372,337,392,2025-05-27T22:38:04.044515
8960,-0.4158,0.8833,0.1962,0.175,-4.305,0.630,394,415,382,335,395,2025-05-27T22:38:04.044515
8961,-0.4124,0.8852,0.2001,0.280,-4.795,0.630,420,425,394,398,414,2025-05-27T22:38:04.044515
8962,-0.4128,0.8838,0.1986,0.070,-4.830,0.245,429,413,374,396,318,2025-05-27T22:38:04.044515
8963,-0.4065,0.8808,0.1967,0.000,-4.445,0.175,398,375,379,402,365,2025-05-27T22:38:04.044515
8964,-0.4104,0.8828,0.2011,-0.070,-3.710,0.070,338,396,342,407,376,2025-05-27T22:38:04.044515
8965,-0.4128,0.8804,0.2001,-0.315,-3.605,0.000,375,340,356,420,391,2025-05-27T22:38:04.044515
8966,-0.4202,0.8804,0.2020,-0.630,-3.885,-0.070,398,397,362,411,393,2025-05-27T22:38:04.044515
8967,-0.4207,0.8789,0.2011,-0.630,-4.550,-0.035,425,393,373,393,381,2025-05-27T22:38:04.044515
8968,-0.4138,0.8764,0.2035,-0.595,-5.110,0.105,421,396,366,387,392,2025-05-27T22:38:04.044515
8969,-0.4065,0.8808,0.2025,-0.630,-4.690,0.175,350,340,382,394,407,2025-05-27T22:38:04.228011
8970,-0.4031,0.8804,0.2020,-0.455,-3.990,0.105,393,408,341,346,356,2025-05-27T22:38:04.228011
8971,-0.4041,0.8804,0.2059,-0.280,-3.150,0.000,432,428,336,374,392,2025-05-27T22:38:04.241975
8972,-0.4070,0.8818,0.2084,-0.245,-2.940,-0.175,432,433,365,385,407,2025-05-27T22:38:04.242296
8973,-0.4163,0.8823,0.2094,0.000,-3.675,-0.385,407,348,337,402,413,2025-05-27T22:38:04.242296
8974,-0.4138,0.8823,0.2074,0.315,-4.655,-0.315,397,406,373,409,398,2025-05-27T22:38:04.242438
8975,-0.4089,0.8818,0.2054,0.490,-5.565,-0.210,417,343,376,414,354,2025-05-27T22:38:04.242438
8976,-0.4036,0.8852,0.2035,0.595,-5.145,-0.280,374,382,386,417,371,2025-05-27T22:38:04.242438
8977,-0.3987,0.8867,0.2025,0.560,-3.990,-0.315,395,408,358,421,387,2025-05-27T22:38:04.242438
8978,-0.4070,0.8857,0.2015,0.595,-3.080,-0.280,402,406,377,400,390,2025-05-27T22:38:04.242438
8979,-0.4138,0.8852,0.2015,0.595,-2.800,0.000,429,411,384,394,387,2025-05-27T22:38:04.242866
8980,-0.4226,0.8818,0.2064,0.490,-3.150,0.385,428,405,384,346,382,2025-05-27T22:38:04.242866
8981,-0.4255,0.8852,0.2020,0.280,-3.675,0.980,425,408,374,378,408,2025-05-27T22:38:04.243046
8982,-0.4216,0.8833,0.2015,0.140,-3.990,1.470,416,342,370,354,403,2025-05-27T22:38:04.243166
8983,-0.4138,0.8843,0.2006,0.035,-4.025,1.645,340,391,374,353,399,2025-05-27T22:38:04.243284
8984,-0.4114,0.8818,0.2015,-0.140,-3.745,1.680,408,426,339,389,385,2025-05-27T22:38:04.243284
8985,-0.4060,0.8808,0.2054,-0.140,-3.780,1.890,403,428,369,384,403,2025-05-27T22:38:04.243284
8986,-0.4050,0.8769,0.2069,-0.070,-3.990,1.645,415,422,370,410,418,2025-05-27T22:38:04.243284
8987,-0.3997,0.8769,0.2089,-0.070,-4.270,1.365,421,396,380,404,419,2025-05-27T22:38:04.243284
8988,-0.3992,0.8755,0.2098,0.035,-4.375,1.120,388,394,341,399,417,2025-05-27T22:38:04.244045
8989,-0.3943,0.8750,0.2064,0.315,-3.990,0.770,398,422,356,365,402,2025-05-27T22:38:04.244045
8990,-0.3943,0.8789,0.2054,0.525,-3.255,0.245,393,404,373,402,316,2025-05-27T22:38:04.460327
8991,-0.4021,0.8784,0.2089,0.700,-3.080,-0.105,362,423,378,343,379,2025-05-27T22:38:04.460327
8992,-0.4016,0.8789,0.2113,0.560,-3.290,-0.490,382,420,349,389,396,2025-05-27T22:38:04.460327
8993,-0.4021,0.8779,0.2089,0.385,-3.815,-0.735,407,400,377,407,398,2025-05-27T22:38:04.460327
8994,-0.4002,0.8789,0.2103,0.210,-4.130,-0.560,354,405,340,400,403,2025-05-27T22:38:04.460327
8995,-0.4031,0.8764,0.2094,0.070,-4.165,-0.700,384,424,358,396,396,2025-05-27T22:38:04.460327
8996,-0.4050,0.8799,0.2069,0.000,-3.710,-0.735,379,395,329,380,367,2025-05-27T22:38:04.460327
8997,-0.4065,0.8818,0.2118,0.105,-3.430,-0.840,408,400,358,395,399,2025-05-27T22:38:04.460327
8998,-0.4099,0.8789,0.2108,0.350,-3.535,-0.665,413,393,371,408,402,2025-05-27T22:38:04.460327
8999,-0.4133,0.8789,0.2103,0.560,-4.060,-0.595,401,416,347,405,404,2025-05-27T22:38:04.460327
9000,-0.4128,0.8779,0.2050,1.015,-4.270,-0.525,412,416,374,423,394,2025-05-27T22:38:04.460327
9001,-0.4128,0.8779,0.2069,1.400,-3.990,-0.420,429,428,381,351,402,2025-05-27T22:38:04.460327
9002,-0.4128,0.8794,0.2118,1.400,-3.850,-0.315,410,374,346,386,407,2025-05-27T22:38:04.460327
9003,-0.4128,0.8779,0.2103,1.400,-3.640,-0.105,398,393,356,386,410,2025-05-27T22:38:04.460327
9004,-0.4148,0.8755,0.2084,1.575,-3.885,-0.035,401,408,326,343,416,2025-05-27T22:38:04.460327
9005,-0.4128,0.8764,0.2098,1.925,-4.200,0.000,427,413,358,373,395,2025-05-27T22:38:04.460327
9006,-0.4128,0.8774,0.2103,1.890,-4.410,0.140,414,398,375,394,353,2025-05-27T22:38:04.460327
9007,-0.4143,0.8701,0.2098,2.100,-4.655,0.245,408,395,370,391,387,2025-05-27T22:38:04.460327
9008,-0.4124,0.8716,0.2128,2.380,-4.830,0.105,404,421,338,390,405,2025-05-27T22:38:04.460327
9009,-0.4089,0.8706,0.2133,2.415,-4.585,-0.105,429,422,328,398,398,2025-05-27T22:38:04.460327
9010,-0.4158,0.8667,0.2103,2.380,-4.865,-0.385,412,429,356,307,381,2025-05-27T22:38:04.460327
9011,-0.4172,0.8652,0.2142,2.730,-5.320,-0.840,419,422,376,365,402,2025-05-27T22:38:04.544975
9012,-0.4163,0.8618,0.2147,2.975,-6.125,-1.540,423,404,372,401,418,2025-05-27T22:38:04.544975
9013,-0.4119,0.8594,0.2147,3.115,-6.265,-2.030,398,375,371,412,401,2025-05-27T22:38:04.544975
9014,-0.4124,0.8613,0.2172,3.325,-6.510,-2.695,396,360,374,419,386,2025-05-27T22:38:04.544975
9015,-0.4153,0.8584,0.2186,3.395,-6.650,-3.080,419,383,340,411,393,2025-05-27T22:38:04.544975
9016,-0.4177,0.8603,0.2225,3.220,-6.720,-3.465,338,395,352,381,395,2025-05-27T22:38:04.544975
9017,-0.4138,0.8628,0.2186,3.150,-6.860,-3.640,394,398,326,391,398,2025-05-27T22:38:04.544975
9018,-0.4158,0.8638,0.2181,3.150,-7.070,-3.815,408,373,348,407,395,2025-05-27T22:38:04.544975
9019,-0.4187,0.8696,0.2186,3.080,-7.105,-3.780,422,420,374,425,407,2025-05-27T22:38:04.544975
9020,-0.4221,0.8735,0.2157,3.080,-7.245,-3.815,390,382,349,420,393,2025-05-27T22:38:04.544975
9021,-0.4280,0.8784,0.2137,3.150,-7.560,-3.885,395,416,370,426,419,2025-05-27T22:38:04.544975
9022,-0.4299,0.8799,0.2137,3.290,-8.365,-3.360,426,428,368,364,370,2025-05-27T22:38:04.626136
9023,-0.4294,0.8813,0.2069,3.290,-9.135,-2.625,418,401,361,376,389,2025-05-27T22:38:04.626136
9024,-0.4275,0.8833,0.2040,3.780,-9.100,-1.995,392,351,373,381,396,2025-05-27T22:38:04.626136
9025,-0.4246,0.8823,0.1981,4.025,-8.225,-1.330,414,292,339,393,385,2025-05-27T22:38:04.626136
9026,-0.4182,0.8891,0.1962,4.515,-7.245,-0.245,422,358,327,388,347,2025-05-27T22:38:04.626136
9027,-0.4211,0.8960,0.1913,4.935,-6.195,0.665,428,389,314,404,378,2025-05-27T22:38:04.626136
9028,-0.4168,0.9004,0.1898,5.215,-5.390,1.400,426,421,354,401,391,2025-05-27T22:38:04.626136
9029,-0.4148,0.9028,0.1918,5.075,-4.970,1.960,401,420,366,347,402,2025-05-27T22:38:04.979414
9030,-0.4182,0.9072,0.1937,4.550,-5.425,2.450,413,418,370,404,402,2025-05-27T22:38:04.979414
9031,-0.4153,0.9062,0.1913,3.850,-6.475,2.835,374,435,378,394,412,2025-05-27T22:38:04.979414
9032,-0.4089,0.9008,0.1893,3.570,-7.455,3.010,417,433,382,354,412,2025-05-27T22:38:04.979414
9033,-0.3948,0.9038,0.1884,3.255,-7.525,3.220,402,432,350,403,407,2025-05-27T22:38:04.979414
9034,-0.3899,0.9038,0.1874,2.765,-6.265,3.325,418,435,370,423,404,2025-05-27T22:38:04.979414
9035,-0.3860,0.9067,0.1898,2.205,-4.655,3.430,400,423,377,392,373,2025-05-27T22:38:04.979414
9036,-0.3850,0.9067,0.1874,2.030,-3.675,3.675,403,425,382,418,394,2025-05-27T22:38:04.979414
9037,-0.3933,0.9077,0.1908,1.925,-3.430,3.745,407,398,347,393,402,2025-05-27T22:38:04.979414
9038,-0.3938,0.9048,0.1923,1.645,-3.535,3.780,424,420,369,381,400,2025-05-27T22:38:04.979414
9039,-0.3899,0.9008,0.1874,1.575,-4.200,3.815,412,414,375,389,383,2025-05-27T22:38:04.979414
9040,-0.3806,0.8984,0.1869,1.505,-3.885,3.815,421,410,387,397,384,2025-05-27T22:38:04.979414
9041,-0.3743,0.8950,0.1864,1.435,-2.485,3.745,401,415,380,369,394,2025-05-27T22:38:04.979414
9042,-0.3733,0.8935,0.1835,1.435,-1.470,3.675,395,416,393,394,411,2025-05-27T22:38:04.979414
9043,-0.3762,0.8974,0.1830,1.400,-0.455,3.605,407,418,389,385,403,2025-05-27T22:38:04.979414
9044,-0.3767,0.8965,0.1845,1.260,0.385,3.150,418,386,391,380,411,2025-05-27T22:38:04.979414
9045,-0.3816,0.8989,0.1869,0.945,0.455,3.080,424,400,390,344,366,2025-05-27T22:38:04.979414
9046,-0.3811,0.8965,0.1854,0.805,0.420,2.625,384,341,390,374,336,2025-05-27T22:38:04.979414
9047,-0.3870,0.8945,0.1903,0.245,0.595,2.450,402,403,381,372,347,2025-05-27T22:38:04.980409
9048,-0.3909,0.8921,0.1908,-0.385,0.525,2.100,414,427,377,394,387,2025-05-27T22:38:04.980409
9049,-0.3992,0.8926,0.1967,-0.700,0.000,1.575,399,425,385,396,403,2025-05-27T22:38:04.980409
9050,-0.3977,0.8911,0.1967,-0.980,-0.175,1.050,406,401,375,397,409,2025-05-27T22:38:05.026506
9051,-0.3997,0.8921,0.1996,-1.155,0.070,0.735,426,426,393,397,385,2025-05-27T22:38:05.026506
9052,-0.4011,0.8891,0.2011,-1.540,0.770,0.455,428,423,391,403,342,2025-05-27T22:38:05.042004
9053,-0.4050,0.8916,0.2094,-1.995,1.330,0.420,401,433,384,348,363,2025-05-27T22:38:05.042297
9054,-0.4128,0.8838,0.2089,-2.415,0.980,0.560,420,362,372,374,377,2025-05-27T22:38:05.042404
9055,-0.4168,0.8838,0.2098,-2.345,0.175,0.595,340,345,377,398,398,2025-05-27T22:38:05.042404
9056,-0.4192,0.8784,0.2128,-2.660,-0.455,0.455,401,385,371,395,386,2025-05-27T22:38:05.042404
9057,-0.4138,0.8764,0.2152,-2.730,-1.470,0.490,396,424,392,414,308,2025-05-27T22:38:05.292520
9058,-0.4128,0.8721,0.2123,-2.555,-2.240,0.525,409,397,391,406,341,2025-05-27T22:38:05.292520
9059,-0.4065,0.8696,0.2098,-2.310,-2.310,0.490,397,425,382,352,340,2025-05-27T22:38:05.292520
9060,-0.3972,0.8682,0.2074,-2.135,-2.240,0.385,399,418,373,396,341,2025-05-27T22:38:05.292520
9061,-0.3958,0.8647,0.2045,-2.100,-1.645,0.140,402,402,380,363,375,2025-05-27T22:38:05.292520
9062,-0.3987,0.8618,0.2011,-2.065,-1.190,-0.245,409,412,383,375,384,2025-05-27T22:38:05.292520
9063,-0.4065,0.8579,0.2030,-2.100,-1.435,-0.700,421,412,382,403,386,2025-05-27T22:38:05.292520
9064,-0.4124,0.8525,0.2059,-2.100,-2.800,-0.945,385,422,383,403,384,2025-05-27T22:38:05.307665
9065,-0.4138,0.8462,0.2045,-1.925,-3.850,-0.945,354,424,381,390,348,2025-05-27T22:38:05.307818
9066,-0.4089,0.8394,0.2040,-1.610,-4.270,-0.910,400,431,385,384,390,2025-05-27T22:38:05.307912
9067,-0.4065,0.8340,0.2050,-1.260,-3.955,-0.595,421,418,344,391,396,2025-05-27T22:38:05.308012
9068,-0.4119,0.8311,0.2079,-0.840,-3.990,-0.175,346,363,362,370,393,2025-05-27T22:38:05.308210
9069,-0.4133,0.8237,0.2133,-0.700,-4.900,0.560,408,411,374,405,410,2025-05-27T22:38:05.308210
9070,-0.4070,0.8106,0.2128,-0.175,-5.810,1.085,404,376,382,418,382,2025-05-27T22:38:05.308210
9071,-0.4002,0.8052,0.2094,0.385,-6.265,1.365,417,336,392,360,344,2025-05-27T22:38:05.308210
9072,-0.3865,0.7998,0.2074,0.525,-5.635,1.610,433,404,390,403,394,2025-05-27T22:38:05.359440
9073,-0.3855,0.8013,0.2157,-0.245,-5.075,1.715,420,433,396,394,386,2025-05-27T22:38:05.359440
9074,-0.3841,0.8037,0.2240,-1.890,-6.090,1.190,425,348,385,384,410,2025-05-27T22:38:05.359440
9075,-0.3841,0.8120,0.2494,0.105,-9.170,0.630,423,406,382,391,392,2025-05-27T22:38:05.359440
9076,-0.3723,0.8320,0.2913,-2.940,-12.810,0.525,398,350,372,390,408,2025-05-27T22:38:05.359440
9077,-0.3826,0.8701,0.3192,-9.975,-16.205,0.455,419,407,381,387,400,2025-05-27T22:38:05.359440
9078,-0.3762,0.9428,0.3514,-15.190,-26.250,-2.975,378,423,374,391,389,2025-05-27T22:38:05.359440
9079,-0.3606,0.9184,0.3201,-20.265,-42.070,-9.030,393,428,375,392,350,2025-05-27T22:38:05.359440
9080,-0.3221,1.1512,0.3294,-28.420,-51.275,-16.240,372,354,382,390,392,2025-05-27T22:38:05.359440
9081,-0.2352,1.3464,0.3689,-42.560,-59.745,-21.910,412,366,393,394,384,2025-05-27T22:38:05.359440
9082,-0.2494,1.4996,0.3279,-61.775,-74.025,-27.195,404,422,394,399,404,2025-05-27T22:38:05.359440
9083,-0.2855,1.5616,0.3055,-79.835,-95.865,-36.400,380,401,380,370,397,2025-05-27T22:38:05.359440
9084,-0.2513,1.6748,0.3665,-96.250,-118.160,-43.645,387,408,387,399,402,2025-05-27T22:38:05.359440
9085,-0.1884,1.8866,0.4431,-114.100,-134.155,-44.240,400,347,385,411,353,2025-05-27T22:38:05.359440
9086,-0.1230,1.9461,0.3987,-142.135,-145.215,-43.330,415,408,397,410,396,2025-05-27T22:38:05.359440
9087,-0.0395,2.0677,0.3680,-169.680,-155.855,-42.315,380,405,387,354,403,2025-05-27T22:38:05.359440
9088,0.0771,2.1365,0.3148,-190.540,-149.800,-37.030,404,361,381,398,356,2025-05-27T22:38:05.359440
9089,0.1806,2.2219,0.2147,-208.285,-132.755,-25.585,391,393,379,392,392,2025-05-27T22:38:05.359440
9090,0.3104,2.4205,0.1142,-221.900,-106.680,-11.235,421,396,379,387,406,2025-05-27T22:38:05.359440
9091,0.4055,2.5625,-0.1371,-226.485,-64.295,5.110,411,399,384,401,392,2025-05-27T22:38:05.552218
9092,0.4114,2.6698,-0.4314,-223.475,-3.710,30.240,347,411,373,406,390,2025-05-27T22:38:05.552218
9093,0.2381,2.7245,-0.7447,-215.460,33.915,57.295,409,426,350,420,354,2025-05-27T22:38:05.552218
9094,0.0322,2.6567,-1.0102,-208.390,74.410,84.770,404,420,354,397,388,2025-05-27T22:38:05.552218
9095,-0.3118,2.5396,-1.2644,-209.825,95.445,103.810,402,420,368,411,402,2025-05-27T22:38:05.552218
9096,-0.7627,2.3351,-1.5362,-215.810,85.155,127.855,413,426,376,371,351,2025-05-27T22:38:05.552218
9097,-1.1707,1.9705,-1.8080,-224.035,54.915,142.485,408,430,342,399,384,2025-05-27T22:38:05.552218
9098,-1.4733,1.6133,-1.8661,-238.175,19.285,146.860,353,400,371,420,400,2025-05-27T22:38:05.552218
9099,-1.7285,1.2127,-1.8100,-263.550,1.260,148.190,351,421,382,433,406,2025-05-27T22:38:05.552218
9100,-2.1521,0.6700,-1.6255,-290.850,6.930,147.595,412,415,385,422,354,2025-05-27T22:38:05.552218
9101,-2.5054,0.0708,-1.2956,-321.860,3.500,156.345,410,413,392,425,373,2025-05-27T22:38:05.552218
9102,-2.8050,-0.6954,-1.0399,-331.695,-18.480,167.825,418,414,392,420,360,2025-05-27T22:38:05.553224
9103,-2.9451,-1.2869,-0.5353,-327.145,-54.390,172.445,425,339,372,353,386,2025-05-27T22:38:05.553224
9104,-2.7191,-1.8964,-0.0903,-320.075,-84.070,173.915,424,407,384,347,360,2025-05-27T22:38:05.553224
9105,-2.3126,-2.4722,0.2338,-307.230,-96.635,166.110,401,417,376,380,388,2025-05-27T22:38:05.553224
9106,-1.6973,-2.9900,0.4431,-271.915,-104.160,164.605,413,414,380,393,399,2025-05-27T22:38:05.692492
9107,-1.1580,-3.1515,0.7564,-226.695,-102.865,158.585,416,430,385,406,401,2025-05-27T22:38:05.692959
9108,-0.5758,-3.0915,1.1258,-192.710,-89.180,148.785,411,424,385,403,398,2025-05-27T22:38:05.693088
9109,-0.1474,-3.1383,1.2620,-158.585,-68.040,131.635,425,433,373,396,348,2025-05-27T22:38:05.693358
9110,0.1874,-3.1798,1.4059,-118.965,-47.985,110.950,425,412,383,405,387,2025-05-27T22:38:05.693358
9111,0.4002,-3.1032,1.6124,-72.765,-32.795,83.335,421,408,378,416,409,2025-05-27T22:38:05.693358
9112,0.5993,-2.9690,1.8095,-28.910,-13.230,55.965,418,433,385,406,358,2025-05-27T22:38:05.693358
9113,0.7144,-2.7333,1.9554,5.705,11.725,22.050,399,432,339,397,390,2025-05-27T22:38:05.693684
9114,0.6515,-2.4834,1.9974,38.360,27.930,-14.525,425,417,355,402,405,2025-05-27T22:38:05.693684
9115,0.4865,-2.2399,2.0028,74.375,30.835,-47.670,414,393,372,423,408,2025-05-27T22:38:05.693684
9116,0.2484,-1.9725,1.9666,98.070,29.085,-78.715,348,418,378,413,401,2025-05-27T22:38:05.693684
9117,0.0137,-1.7100,1.8700,129.570,27.020,-107.345,388,368,381,413,395,2025-05-27T22:38:05.693684
9118,-0.2259,-1.3815,1.7563,161.210,35.665,-131.915,390,395,383,412,410,2025-05-27T22:38:05.860268
9119,-0.4631,-1.0380,1.5850,189.910,29.890,-150.745,411,415,385,407,389,2025-05-27T22:38:05.860268
9120,-0.6842,-0.6778,1.3440,216.720,35.000,-158.795,415,426,393,403,404,2025-05-27T22:38:05.860268
9121,-0.9355,-0.3811,1.0960,240.555,40.180,-161.665,398,426,352,379,383,2025-05-27T22:38:05.860268
9122,-1.1239,-0.0010,0.8647,259.665,43.470,-157.220,340,363,367,400,402,2025-05-27T22:38:05.860268
9123,-1.3186,0.3328,0.5632,267.995,48.790,-140.210,351,404,377,409,381,2025-05-27T22:38:05.860268
9124,-1.3845,0.5802,0.2752,270.585,48.895,-113.120,385,418,376,355,381,2025-05-27T22:38:05.860268
9125,-1.4186,0.7969,0.0581,274.190,44.590,-87.360,413,412,372,399,404,2025-05-27T22:38:05.860268
9126,-1.3376,0.9526,-0.0854,270.760,39.865,-63.350,401,398,384,412,401,2025-05-27T22:38:05.860268
9127,-1.1258,1.0531,-0.2723,265.230,36.960,-42.595,387,401,392,420,388,2025-05-27T22:38:05.860268
9128,-0.8691,1.1078,-0.3572,255.220,41.160,-17.430,395,413,378,400,362,2025-05-27T22:38:05.860268
9129,-0.6803,1.1717,-0.3616,244.300,50.750,2.940,346,414,382,370,394,2025-05-27T22:38:05.860268
9130,-0.5441,1.1566,-0.3304,229.845,51.940,18.480,402,353,342,400,413,2025-05-27T22:38:05.860268
9131,-0.5241,1.0551,-0.1908,219.835,40.530,29.085,394,384,370,392,401,2025-05-27T22:38:05.860268
9132,-0.4904,0.9531,-0.1200,210.735,20.160,36.050,394,390,380,394,412,2025-05-27T22:38:06.091633
9133,-0.4226,0.9082,-0.0527,203.735,-10.605,39.200,367,335,385,408,381,2025-05-27T22:38:06.091633
9134,-0.2352,0.9277,-0.0039,197.785,-34.160,42.490,377,399,374,400,402,2025-05-27T22:38:06.091633
9135,-0.1132,0.9287,0.0712,190.960,-42.665,44.590,396,431,382,408,411,2025-05-27T22:38:06.091633
9136,0.0342,0.9545,0.0976,183.820,-42.910,44.555,415,390,340,406,398,2025-05-27T22:38:06.091633
9137,0.1078,0.9482,0.0839,178.640,-38.185,42.840,427,414,369,387,402,2025-05-27T22:38:06.091633
9138,0.1381,0.9887,0.0639,175.350,-33.670,39.445,433,398,379,384,409,2025-05-27T22:38:06.091633
9139,0.1523,1.0560,0.0825,169.855,-32.165,36.610,341,413,386,398,414,2025-05-27T22:38:06.091633
9140,0.1332,1.1268,0.0776,159.985,-36.190,31.430,380,423,376,349,412,2025-05-27T22:38:06.091633
9141,0.0966,1.1649,0.0991,147.420,-46.550,27.475,408,400,382,399,404,2025-05-27T22:38:06.091633
9142,0.1083,1.2093,0.1298,132.895,-62.440,22.190,404,421,374,306,386,2025-05-27T22:38:06.091633
9143,0.1459,1.1961,0.1025,120.015,-76.755,16.975,413,390,380,370,409,2025-05-27T22:38:06.091633
9144,0.1957,1.2015,0.0961,111.020,-81.095,10.850,421,400,388,388,377,2025-05-27T22:38:06.091633
9145,0.2557,1.1956,0.0820,101.535,-77.280,5.740,382,420,360,385,397,2025-05-27T22:38:06.091633
9146,0.2708,1.1995,0.0922,91.105,-68.005,-0.420,413,422,375,397,402,2025-05-27T22:38:06.091633
9147,0.2704,1.1966,0.0849,80.745,-52.325,-4.550,362,420,380,346,400,2025-05-27T22:38:06.091633
9148,0.2381,1.1995,0.0888,70.455,-37.240,-7.595,390,397,371,388,409,2025-05-27T22:38:06.091633
9149,0.1820,1.2141,0.0913,58.765,-23.205,-10.045,335,422,385,383,401,2025-05-27T22:38:06.091633
9150,0.1259,1.2117,0.0961,48.790,-11.830,-11.060,385,424,389,389,390,2025-05-27T22:38:06.091633
9151,0.0449,1.2122,0.1083,37.415,-6.300,-11.305,385,422,389,400,413,2025-05-27T22:38:06.347994
9152,-0.0059,1.2039,0.1244,27.475,-6.685,-9.940,414,385,390,370,355,2025-05-27T22:38:06.347994
9153,-0.0449,1.1936,0.1386,17.465,-11.970,-9.100,411,390,396,378,398,2025-05-27T22:38:06.347994
9154,-0.0517,1.1795,0.1435,9.170,-15.610,-7.840,412,416,399,406,417,2025-05-27T22:38:06.347994
9155,-0.0532,1.1649,0.1425,2.380,-15.995,-6.685,410,301,388,403,415,2025-05-27T22:38:06.347994
9156,-0.0547,1.1478,0.1518,-2.170,-13.790,-5.810,412,348,383,410,361,2025-05-27T22:38:06.347994
9157,-0.0654,1.1209,0.1703,-6.825,-11.130,-3.430,422,385,371,420,399,2025-05-27T22:38:06.347994
9158,-0.0761,1.0995,0.1845,-10.290,-6.405,-1.260,417,388,374,358,392,2025-05-27T22:38:06.347994
9159,-0.0903,1.0712,0.2172,-12.985,-1.610,1.435,372,389,372,403,387,2025-05-27T22:38:06.347994
9160,-0.1025,1.0414,0.2284,-12.950,1.890,4.795,407,397,384,394,389,2025-05-27T22:38:06.347994
9161,-0.1269,1.0092,0.2416,-10.570,2.275,6.895,409,390,393,393,380,2025-05-27T22:38:06.347994
9162,-0.1254,0.9936,0.2557,-7.770,0.665,8.120,404,400,390,363,389,2025-05-27T22:38:06.347994
9163,-0.1103,0.9853,0.2650,-6.055,0.000,8.680,390,411,380,404,409,2025-05-27T22:38:06.347994
9164,-0.0942,0.9736,0.2552,-4.865,1.015,8.750,418,385,370,352,360,2025-05-27T22:38:06.347994
9165,-0.0830,0.9614,0.2460,-4.270,2.485,7.315,361,418,367,371,386,2025-05-27T22:38:06.347994
9166,-0.0712,0.9560,0.2484,-3.920,4.130,5.600,368,388,370,408,349,2025-05-27T22:38:06.347994
9167,-0.0766,0.9433,0.2420,-3.710,6.265,4.655,395,336,372,396,380,2025-05-27T22:38:06.347994
9168,-0.0878,0.9374,0.2567,-3.780,7.350,2.905,342,386,375,411,391,2025-05-27T22:38:06.347994
9169,-0.1020,0.9248,0.2606,-3.850,6.965,1.295,382,385,374,415,399,2025-05-27T22:38:06.347994
9170,-0.1215,0.9155,0.2655,-3.605,5.740,0.210,420,375,382,401,403,2025-05-27T22:38:06.347994
9171,-0.1430,0.9091,0.2713,-3.780,4.165,-1.400,424,371,373,415,407,2025-05-27T22:38:06.347994
9172,-0.1401,0.9062,0.2674,-4.585,1.820,-2.625,431,400,383,400,409,2025-05-27T22:38:06.504187
9173,-0.1532,0.8965,0.2684,-4.725,0.945,-3.605,430,418,390,410,416,2025-05-27T22:38:06.504187
9174,-0.1645,0.8984,0.2772,-4.585,1.295,-5.110,350,412,396,372,357,2025-05-27T22:38:06.504187
9175,-0.1635,0.9082,0.2850,-4.550,1.050,-6.125,384,381,347,396,404,2025-05-27T22:38:06.504187
9176,-0.1674,0.9218,0.2874,-4.725,1.750,-7.175,392,420,330,420,401,2025-05-27T22:38:06.504187
9177,-0.1688,0.9272,0.2884,-4.760,3.465,-7.700,394,437,360,423,389,2025-05-27T22:38:06.504187
9178,-0.1850,0.9365,0.2913,-4.340,2.870,-7.840,399,412,363,411,384,2025-05-27T22:38:06.504187
9179,-0.2103,0.9428,0.3001,-3.850,0.525,-8.015,299,361,366,419,395,2025-05-27T22:38:06.504187
9180,-0.2225,0.9526,0.2977,-2.940,-3.850,-7.070,399,415,366,315,395,2025-05-27T22:38:06.504187
9181,-0.2255,0.9589,0.2928,-1.715,-6.965,-6.090,415,399,364,370,419,2025-05-27T22:38:06.504187
9182,-0.2006,0.9628,0.2782,-1.365,-6.930,-5.425,419,411,373,389,405,2025-05-27T22:38:06.504187
9183,-0.2006,0.9765,0.2826,-1.785,-3.220,-4.480,409,424,370,397,404,2025-05-27T22:38:06.504187
9184,-0.2123,0.9750,0.2860,-2.310,-1.505,-3.255,345,414,374,308,403,2025-05-27T22:38:06.504187
9185,-0.2284,0.9760,0.3006,-2.765,-2.800,-2.240,395,392,382,367,392,2025-05-27T22:38:06.504187
9186,-0.2079,0.9711,0.2987,-3.150,-5.075,-1.470,389,420,384,378,404,2025-05-27T22:38:06.676370
9187,-0.2025,0.9638,0.3001,-2.835,-5.460,-0.490,430,404,389,390,397,2025-05-27T22:38:06.676370
9188,-0.2157,0.9618,0.3001,-2.380,-6.370,0.245,406,397,385,386,393,2025-05-27T22:38:06.676370
9189,-0.2137,0.9658,0.3021,-2.345,-10.150,0.980,423,396,380,359,379,2025-05-27T22:38:06.676370
9190,-0.2069,0.9584,0.3016,-2.940,-13.265,1.540,398,430,340,347,393,2025-05-27T22:38:06.676370
9191,-0.1850,0.9506,0.2899,-3.815,-13.860,1.960,396,407,322,373,388,2025-05-27T22:38:06.676370
9192,-0.1791,0.9379,0.2772,-4.410,-12.880,1.890,299,330,349,378,387,2025-05-27T22:38:06.676370
9193,-0.1762,0.9331,0.2811,-5.355,-10.745,1.295,390,386,359,402,360,2025-05-27T22:38:06.676370
9194,-0.1820,0.9248,0.2840,-6.090,-9.940,1.085,410,380,338,363,388,2025-05-27T22:38:06.676370
9195,-0.1835,0.9145,0.2865,-6.125,-12.075,1.155,346,408,322,405,409,2025-05-27T22:38:06.676370
9196,-0.1732,0.8969,0.2894,-5.285,-14.385,1.260,396,417,345,395,399,2025-05-27T22:38:06.676370
9197,-0.1669,0.8906,0.3011,-4.340,-16.065,0.840,404,433,369,400,392,2025-05-27T22:38:06.676370
9198,-0.1425,0.8833,0.3011,-4.970,-16.240,0.560,356,352,384,416,416,2025-05-27T22:38:06.676370
9199,-0.1542,0.8755,0.3109,-6.405,-16.415,-0.070,388,388,387,411,405,2025-05-27T22:38:06.676370
9200,-0.1591,0.8603,0.2991,-7.980,-26.775,-0.455,415,388,358,396,410,2025-05-27T22:38:06.985381
9201,-0.1684,0.8447,0.3138,-9.065,-21.525,-1.120,302,393,362,416,374,2025-05-27T22:38:06.985381
9202,-0.1703,0.8218,0.3289,-10.605,-26.600,-1.435,338,424,344,396,386,2025-05-27T22:38:06.985381
9203,-0.1576,0.7950,0.3348,-12.740,-32.095,-1.505,385,404,364,308,342,2025-05-27T22:38:06.985381
9204,-0.1435,0.7627,0.3372,-14.630,-36.400,-1.365,387,347,361,378,378,2025-05-27T22:38:06.985381
9205,-0.1235,0.7271,0.3216,-16.135,-39.340,-1.120,367,399,368,351,391,2025-05-27T22:38:06.986378
9206,-0.1030,0.7291,0.3123,-18.655,-38.920,-2.730,409,400,389,379,398,2025-05-27T22:38:06.986378
9207,-0.0771,0.7276,0.2952,-22.785,-37.030,-5.005,404,399,382,402,408,2025-05-27T22:38:07.562356
9208,-0.0527,0.7530,0.2826,-28.140,-34.440,-7.420,416,426,388,395,398,2025-05-27T22:38:07.562356
9209,-0.0322,0.7774,0.2747,-35.735,-31.885,-12.425,433,424,377,398,402,2025-05-27T22:38:07.562356
9210,-0.0298,0.8589,0.2811,-46.270,-31.570,-18.515,416,416,307,386,410,2025-05-27T22:38:07.563593
9211,0.0073,0.9799,0.2904,-56.525,-35.700,-26.320,386,368,355,398,358,2025-05-27T22:38:07.563593
9212,0.0830,1.1351,0.2826,-71.435,-40.880,-36.190,401,414,383,402,338,2025-05-27T22:38:07.563593
9213,0.1630,1.3264,0.2830,-88.690,-43.365,-47.950,297,400,372,410,377,2025-05-27T22:38:07.563593
9214,0.2523,1.5362,0.3235,-108.955,-45.885,-56.525,370,425,380,422,382,2025-05-27T22:38:07.563593
9215,0.3235,1.7402,0.3924,-133.630,-51.240,-64.785,416,410,379,392,400,2025-05-27T22:38:07.563593
9216,0.3953,1.9730,0.4182,-158.165,-56.910,-67.410,345,421,385,403,347,2025-05-27T22:38:07.563593
9217,0.4182,2.1594,0.4368,-180.215,-65.135,-66.045,403,424,397,385,365,2025-05-27T22:38:07.563593
9218,0.4577,2.3717,0.4451,-196.700,-71.785,-63.980,412,381,382,413,385,2025-05-27T22:38:07.563593
9219,0.4885,2.5166,0.3889,-214.270,-74.830,-58.030,396,416,397,409,397,2025-05-27T22:38:07.564626
9220,0.5734,2.7064,0.2235,-229.005,-70.945,-42.875,417,404,384,403,382,2025-05-27T22:38:07.564626
9221,0.6246,2.8694,-0.0020,-240.520,-50.400,-26.775,367,419,379,388,392,2025-05-27T22:38:07.564626
9222,0.5793,2.9475,-0.3182,-245.700,-19.355,5.915,391,430,390,405,403,2025-05-27T22:38:07.564626
9223,0.4446,2.9666,-0.6681,-244.090,15.120,44.975,404,429,392,370,406,2025-05-27T22:38:07.564626
9224,0.2211,2.8377,-0.9233,-236.670,46.235,85.225,390,433,384,382,400,2025-05-27T22:38:07.564626
9225,-0.0883,2.6703,-1.1248,-233.380,73.710,117.110,395,428,359,397,397,2025-05-27T22:38:07.564626
9226,-0.4509,2.3839,-1.2971,-236.740,89.740,137.515,397,392,376,396,395,2025-05-27T22:38:07.564626
9227,-0.8906,2.0408,-1.3264,-244.930,85.855,143.430,391,421,386,395,388,2025-05-27T22:38:07.564626
9228,-1.2298,1.6289,-1.2751,-255.430,53.935,139.055,342,395,377,389,389,2025-05-27T22:38:07.564626
9229,-1.5494,1.2820,-1.1575,-263.480,-1.260,125.090,326,406,351,408,404,2025-05-27T22:38:07.564626
9230,-1.7758,0.8428,-0.9570,-271.250,-56.700,109.200,335,390,361,397,390,2025-05-27T22:38:07.564626
9231,-1.8402,0.3138,-0.8267,-273.630,-85.295,100.240,359,426,328,391,390,2025-05-27T22:38:07.564626
9232,-2.0520,-0.3255,-0.6120,-271.250,-82.425,90.440,390,436,354,402,391,2025-05-27T22:38:07.564626
9233,-2.2707,-0.9677,-0.3626,-264.005,-61.145,79.485,398,421,327,410,350,2025-05-27T22:38:07.564626
9234,-2.7923,-1.9315,0.0512,-256.270,-57.400,71.330,397,402,365,396,334,2025-05-27T22:38:07.564626
9235,-2.7084,-2.7587,0.4597,-240.310,-91.350,77.210,391,424,369,405,365,2025-05-27T22:38:07.564626
9236,-2.3536,-3.4048,0.6788,-214.725,-141.995,80.675,415,400,375,396,338,2025-05-27T22:38:07.564626
9237,-1.4957,-3.4790,0.9321,-183.470,-153.090,95.200,399,396,383,404,383,2025-05-27T22:38:07.564626
9238,-0.7188,-3.6102,1.0150,-142.835,-122.010,115.185,397,389,382,371,392,2025-05-27T22:38:07.564626
9239,-0.0654,-3.5648,1.2302,-96.880,-81.690,118.930,351,384,382,391,387,2025-05-27T22:38:07.564626
9240,0.5109,-3.4394,1.4235,-64.295,-36.575,114.940,382,424,347,400,393,2025-05-27T22:38:07.564626
9241,0.7964,-3.2403,1.6084,-28.385,1.085,98.840,331,419,361,399,399,2025-05-27T22:38:07.564626
9242,1.0814,-2.8436,1.7539,2.170,20.860,67.900,382,427,375,383,349,2025-05-27T22:38:07.564626
9243,1.1839,-2.4732,1.7383,32.270,24.710,38.185,381,407,369,335,384,2025-05-27T22:38:07.564626
9244,1.2029,-2.2219,1.7251,57.680,33.180,-2.590,421,417,386,381,397,2025-05-27T22:38:07.564626
9245,1.0531,-1.9471,1.7529,77.245,46.620,-37.240,423,426,364,389,393,2025-05-27T22:38:07.564626
9246,0.7842,-1.7402,1.7827,92.645,43.225,-69.440,403,425,366,418,350,2025-05-27T22:38:07.564626
9247,0.4109,-1.5758,1.7988,118.160,33.075,-99.610,366,348,367,413,373,2025-05-27T22:38:07.564626
9248,0.1283,-1.4279,1.7631,135.660,31.045,-119.560,396,348,339,411,386,2025-05-27T22:38:07.564626
9249,-0.1401,-1.2908,1.6333,161.910,44.170,-129.885,421,328,361,353,388,2025-05-27T22:38:07.564626
9250,-0.3938,-1.1102,1.4728,192.465,63.770,-136.815,375,381,375,379,406,2025-05-27T22:38:07.564626
9251,-0.5431,-0.8916,1.2137,226.275,93.660,-136.290,400,353,384,406,399,2025-05-27T22:38:07.564626
9252,-0.7105,-0.5817,0.9213,258.440,130.095,-132.125,416,411,391,413,412,2025-05-27T22:38:07.564626
9253,-0.8843,-0.3518,0.5890,286.720,161.945,-117.880,370,417,377,396,392,2025-05-27T22:38:07.564626
9254,-1.0863,0.0254,0.3138,306.005,177.800,-101.080,416,391,374,347,399,2025-05-27T22:38:07.564626
9255,-1.1610,0.3450,0.0927,313.635,169.155,-80.745,405,425,381,396,355,2025-05-27T22:38:07.564626
9256,-1.1151,0.6559,-0.1059,313.880,146.545,-64.820,408,413,372,404,374,2025-05-27T22:38:07.564626
9257,-0.9848,0.8130,-0.3235,308.560,130.515,-49.630,390,350,381,414,388,2025-05-27T22:38:07.564626
9258,-0.9999,0.9921,-0.5173,301.420,108.255,-33.460,413,408,354,417,387,2025-05-27T22:38:07.564626
9259,-0.9111,1.1351,-0.5734,287.875,63.035,-23.800,418,300,338,399,401,2025-05-27T22:38:07.564626
9260,-0.7632,1.2034,-0.5568,267.715,12.635,-16.905,415,373,367,413,392,2025-05-27T22:38:07.564626
9261,-0.5573,1.2322,-0.5480,243.950,-19.495,-10.885,371,418,378,398,411,2025-05-27T22:38:07.564626
9262,-0.3314,1.2122,-0.5334,225.225,-29.015,-7.385,400,359,380,374,414,2025-05-27T22:38:07.564626
9263,-0.1991,1.1678,-0.4602,211.295,-20.230,-5.775,400,406,387,396,398,2025-05-27T22:38:07.564626
9264,-0.1254,1.2102,-0.3499,194.670,-6.125,-2.730,432,405,371,344,388,2025-05-27T22:38:07.564626
9265,-0.1020,1.2361,-0.2308,179.025,9.870,0.350,408,435,381,328,384,2025-05-27T22:38:07.564626
9266,-0.1142,1.2683,-0.1298,166.880,21.805,3.605,393,430,391,384,389,2025-05-27T22:38:07.564626
9267,-0.1903,1.2683,-0.0571,158.340,25.235,7.385,419,420,355,391,397,2025-05-27T22:38:07.564626
9268,-0.2743,1.3020,0.0107,151.935,18.865,10.115,393,410,375,386,409,2025-05-27T22:38:07.641960
9269,-0.2718,1.3849,0.0630,136.290,1.085,14.910,392,426,373,386,407,2025-05-27T22:38:07.641960
9270,-0.2396,1.4215,0.0903,133.035,-14.735,19.390,395,401,367,388,409,2025-05-27T22:38:07.641960
9271,-0.1586,1.4313,0.1181,117.495,-19.040,22.120,389,396,331,387,404,2025-05-27T22:38:07.641960
9272,-0.1020,1.4059,0.1362,102.200,-16.520,23.800,421,420,319,413,405,2025-05-27T22:38:07.641960
9273,-0.0874,1.3630,0.1498,91.350,-14.875,25.060,425,411,361,396,395,2025-05-27T22:38:07.641960
9274,-0.1103,1.3308,0.1908,83.440,-17.780,25.830,409,421,372,349,381,2025-05-27T22:38:07.641960
9275,-0.1054,1.2820,0.2420,75.040,-24.815,27.755,420,409,365,366,354,2025-05-27T22:38:07.641960
9276,-0.0771,1.2254,0.2625,68.460,-25.655,27.930,410,410,345,331,369,2025-05-27T22:38:07.641960
9277,-0.0937,1.1634,0.2718,62.825,-24.465,28.560,420,432,356,384,387,2025-05-27T22:38:07.641960
9278,-0.1137,1.1146,0.2645,59.745,-29.085,28.630,408,405,373,402,366,2025-05-27T22:38:07.641960
9279,-0.1225,1.0746,0.2450,57.610,-38.010,28.245,392,394,382,412,345,2025-05-27T22:38:07.641960
9280,-0.1181,1.0663,0.2294,54.775,-43.820,27.055,413,399,381,408,348,2025-05-27T22:38:07.809281
9281,-0.0859,1.0414,0.1913,50.750,-45.955,24.710,430,420,378,406,329,2025-05-27T22:38:07.809281
9282,-0.0581,1.0321,0.1581,46.760,-44.555,21.840,405,418,350,392,387,2025-05-27T22:38:07.809281
9283,-0.0498,1.0272,0.1220,43.715,-40.110,20.055,426,401,328,407,409,2025-05-27T22:38:07.809281
9284,-0.0527,1.0316,0.0942,38.675,-35.560,17.430,399,399,356,418,416,2025-05-27T22:38:07.809281
9285,-0.0468,1.0385,0.0634,32.095,-29.680,15.890,375,421,363,403,395,2025-05-27T22:38:07.809281
9286,-0.0615,1.0424,0.0468,25.095,-23.310,14.805,402,416,381,397,407,2025-05-27T22:38:07.809281
9287,-0.0673,1.0507,0.0590,16.765,-19.600,12.915,398,409,370,352,396,2025-05-27T22:38:07.809281
9288,-0.0732,1.0453,0.0786,8.505,-19.600,11.165,419,415,380,395,396,2025-05-27T22:38:07.809281
9289,-0.0659,1.0385,0.0976,2.450,-20.230,9.205,359,392,389,407,412,2025-05-27T22:38:07.809281
9290,-0.0420,1.0355,0.1235,-3.535,-19.810,7.245,389,418,397,402,398,2025-05-27T22:38:07.809281
9291,-0.0429,1.0194,0.1357,-7.770,-19.075,5.740,409,410,398,389,402,2025-05-27T22:38:07.809281
9292,-0.0332,1.0233,0.1625,-11.060,-16.975,3.745,412,395,393,381,408,2025-05-27T22:38:07.809281
9293,-0.0483,1.0243,0.1893,-14.000,-14.280,2.590,418,403,394,413,404,2025-05-27T22:38:07.809281
9294,-0.0771,1.0180,0.2196,-15.960,-12.845,1.400,369,394,346,376,391,2025-05-27T22:38:07.908363
9295,-0.0756,1.0160,0.2313,-16.905,-12.495,1.435,375,418,364,406,412,2025-05-27T22:38:07.908363
9296,-0.0634,1.0092,0.2259,-16.730,-8.505,1.470,337,434,364,405,409,2025-05-27T22:38:07.908363
9297,-0.0620,0.9950,0.2259,-15.680,-0.805,1.365,399,404,363,406,398,2025-05-27T22:38:07.908363
9298,-0.0849,0.9867,0.2338,-14.000,4.725,1.890,354,396,382,401,386,2025-05-27T22:38:07.908363
9299,-0.1157,0.9828,0.2440,-13.265,6.195,2.380,343,419,384,411,341,2025-05-27T22:38:07.908363
9300,-0.1274,0.9862,0.2513,-12.985,5.670,2.310,405,432,389,407,380,2025-05-27T22:38:07.908363
9301,-0.1240,0.9882,0.2494,-12.985,5.005,2.275,380,412,349,411,375,2025-05-27T22:38:07.908363
9302,-0.1186,0.9945,0.2396,-12.635,5.215,2.065,404,415,325,402,367,2025-05-27T22:38:08.214450
9303,-0.1152,0.9989,0.2396,-13.055,6.860,1.435,392,414,358,398,406,2025-05-27T22:38:08.214450
9304,-0.1386,1.0014,0.2523,-13.615,8.260,0.910,385,419,380,414,395,2025-05-27T22:38:08.214450
9305,-0.1493,0.9887,0.2411,-13.125,7.770,1.925,385,403,376,356,342,2025-05-27T22:38:08.214450
9306,-0.1698,0.9726,0.2455,-10.955,6.825,2.800,386,372,337,393,382,2025-05-27T22:38:08.214450
9307,-0.1796,0.9755,0.2694,-9.590,7.560,3.430,392,412,357,410,407,2025-05-27T22:38:08.214450
9308,-0.1957,0.9692,0.2816,-9.450,9.380,4.025,398,400,379,414,405,2025-05-27T22:38:08.214450
9309,-0.2264,0.9716,0.2996,-9.625,10.080,4.865,417,419,378,410,410,2025-05-27T22:38:08.214450
9310,-0.2411,0.9638,0.3070,-9.870,9.030,5.775,380,426,372,413,392,2025-05-27T22:38:08.214450
9311,-0.2596,0.9526,0.3128,-9.625,5.705,6.475,291,426,379,389,394,2025-05-27T22:38:08.214450
9312,-0.2484,0.9501,0.3123,-8.855,2.135,7.490,371,396,378,374,394,2025-05-27T22:38:08.214450
9313,-0.2323,0.9457,0.3177,-9.170,1.225,8.505,335,388,350,408,376,2025-05-27T22:38:08.214450
9314,-0.2220,0.9340,0.3177,-9.695,1.925,9.415,402,404,333,392,396,2025-05-27T22:38:08.214450
9315,-0.2162,0.9213,0.3026,-8.995,2.695,10.080,425,421,322,367,394,2025-05-27T22:38:08.214450
9316,-0.2235,0.9165,0.3094,-8.225,3.675,10.080,372,395,344,381,401,2025-05-27T22:38:08.214450
9317,-0.2338,0.9116,0.3099,-8.190,4.480,10.430,396,418,356,408,396,2025-05-27T22:38:08.214450
9318,-0.2464,0.9126,0.3167,-8.715,2.345,9.695,398,427,375,420,366,2025-05-27T22:38:08.214450
9319,-0.2455,0.9062,0.3128,-9.450,-0.770,9.415,387,403,337,412,380,2025-05-27T22:38:08.214450
9320,-0.2347,0.9008,0.3118,-10.500,-4.620,9.030,296,361,361,402,382,2025-05-27T22:38:08.214450
9321,-0.2176,0.8950,0.3050,-11.060,-8.015,8.120,383,405,333,405,393,2025-05-27T22:38:08.380124
9322,-0.1815,0.8930,0.3011,-11.130,-9.415,7.630,410,426,353,351,345,2025-05-27T22:38:08.380124
9323,-0.1703,0.8808,0.2889,-10.570,-8.295,7.385,422,422,373,370,352,2025-05-27T22:38:08.380124
9324,-0.1542,0.8745,0.2840,-9.135,-6.580,6.440,422,429,386,406,388,2025-05-27T22:38:08.380124
9325,-0.1474,0.8755,0.2860,-7.945,-3.850,5.180,426,418,361,403,404,2025-05-27T22:38:08.380124
9326,-0.1459,0.8764,0.2913,-7.700,-0.105,3.150,424,425,367,390,393,2025-05-27T22:38:08.380124
9327,-0.1508,0.8740,0.2972,-7.560,1.435,1.470,410,413,365,408,396,2025-05-27T22:38:08.380124
9328,-0.1747,0.8716,0.2991,-7.070,0.140,-0.105,425,406,385,412,393,2025-05-27T22:38:08.380124
9329,-0.1767,0.8735,0.3011,-6.860,-2.345,-1.890,413,342,381,388,403,2025-05-27T22:38:08.380124
9330,-0.1747,0.8740,0.2948,-6.055,-7.070,-2.555,419,397,382,405,353,2025-05-27T22:38:08.380124
9331,-0.1718,0.8769,0.2982,-5.950,-11.060,-3.815,391,406,373,397,365,2025-05-27T22:38:08.380124
9332,-0.1420,0.8799,0.2957,-6.650,-12.565,-4.340,415,422,377,396,385,2025-05-27T22:38:08.380124
9333,-0.1332,0.8696,0.2796,-6.265,-11.620,-5.040,403,398,376,353,394,2025-05-27T22:38:08.380124
9334,-0.1225,0.8711,0.2957,-6.160,-10.080,-6.405,416,400,351,374,403,2025-05-27T22:38:08.380124
9335,-0.1157,0.8599,0.2996,-7.525,-7.875,-7.490,425,403,374,402,396,2025-05-27T22:38:08.380124
9336,-0.1127,0.8403,0.2982,-9.275,-7.420,-8.330,383,392,368,369,342,2025-05-27T22:38:08.380124
9337,-0.0981,0.8130,0.2967,-11.025,-7.385,-9.520,420,413,337,380,348,2025-05-27T22:38:08.380124
9338,-0.0654,0.7876,0.2865,-14.070,-6.405,-9.730,399,396,330,398,382,2025-05-27T22:38:08.380124
9339,-0.0615,0.7554,0.2728,-18.200,-5.845,-10.850,400,401,342,411,402,2025-05-27T22:38:08.380124
9340,-0.0390,0.7305,0.2611,-23.415,-7.945,-12.810,420,426,363,406,411,2025-05-27T22:38:08.380124
9341,-0.0005,0.7261,0.2391,-31.885,-12.110,-16.205,426,377,374,354,410,2025-05-27T22:38:08.542492
9342,0.0317,0.7305,0.2113,-44.345,-16.590,-22.330,412,367,382,398,424,2025-05-27T22:38:08.542492
9343,0.1020,0.7730,0.1903,-60.305,-22.120,-30.660,409,423,391,387,417,2025-05-27T22:38:08.542492
9344,0.1498,0.8491,0.1937,-75.390,-28.525,-41.405,401,407,370,410,402,2025-05-27T22:38:08.542492
9345,0.1698,0.9692,0.2381,-96.775,-35.805,-53.550,410,425,367,417,396,2025-05-27T22:38:08.542492
9346,0.2011,1.0736,0.3084,-117.355,-43.015,-64.995,418,408,388,393,399,2025-05-27T22:38:08.542492
9347,0.1986,1.2132,0.3850,-137.445,-51.030,-75.040,416,348,340,355,394,2025-05-27T22:38:08.542492
9348,0.1972,1.3932,0.5090,-155.610,-56.840,-83.265,433,405,368,339,401,2025-05-27T22:38:08.542492
9349,0.1620,1.6094,0.6427,-169.050,-68.705,-87.150,425,426,388,378,370,2025-05-27T22:38:08.542492
9350,0.1684,1.8988,0.7564,-181.020,-85.890,-84.455,402,416,402,391,387,2025-05-27T22:38:08.542492
9351,0.2557,2.2819,0.7881,-188.405,-95.165,-69.825,394,418,391,338,388,2025-05-27T22:38:08.542492
9352,0.3104,2.5966,0.7769,-195.685,-87.640,-50.085,405,343,380,383,386,2025-05-27T22:38:08.542492
9353,0.3465,2.8875,0.6637,-196.875,-76.475,-25.410,412,336,391,384,363,2025-05-27T22:38:08.542492
9354,0.3631,3.1300,0.4402,-195.790,-54.775,-0.035,412,282,399,401,376,2025-05-27T22:38:08.542492
9355,0.3338,3.2808,0.1127,-187.845,-27.615,39.270,401,368,389,405,374,2025-05-27T22:38:08.861454
9356,0.2948,3.3721,-0.2904,-178.395,3.290,84.595,386,420,381,404,400,2025-05-27T22:38:08.861454
9357,0.1796,3.2911,-0.6276,-170.485,42.735,127.435,426,422,343,404,369,2025-05-27T22:38:09.522137
9358,-0.0810,3.1095,-1.0814,-168.840,82.565,161.980,416,421,356,356,391,2025-05-27T22:38:09.522137
9359,-0.6246,2.7733,-1.5065,-169.785,101.395,185.920,418,438,377,396,391,2025-05-27T22:38:09.522137
9360,-1.2693,2.4132,-1.7007,-179.900,95.585,191.590,408,351,369,409,396,2025-05-27T22:38:09.523144
9361,-1.6094,2.0662,-1.7993,-204.120,69.335,185.010,418,421,379,417,408,2025-05-27T22:38:09.523271
9362,-1.9647,1.6885,-1.8559,-234.745,51.520,174.125,412,433,382,426,405,2025-05-27T22:38:09.523271
9363,-2.3414,1.1063,-1.6982,-263.305,53.095,158.935,402,423,388,419,409,2025-05-27T22:38:09.523271
9364,-2.8548,0.3777,-1.4479,-281.540,51.275,153.265,412,381,373,405,393,2025-05-27T22:38:09.523271
9365,-3.3843,-0.3977,-0.8882,-305.060,31.080,150.185,414,396,342,413,395,2025-05-27T22:38:09.523271
9366,-3.4160,-1.1639,-0.3499,-317.485,-29.925,159.705,413,415,362,419,343,2025-05-27T22:38:09.523271
9367,-2.9036,-2.0023,0.0659,-319.340,-76.965,154.560,413,425,358,358,370,2025-05-27T22:38:09.523271
9368,-2.0452,-2.8885,0.3826,-298.165,-108.185,141.120,427,414,367,400,396,2025-05-27T22:38:09.523271
9369,-1.3576,-3.4482,0.7496,-260.995,-107.345,133.455,362,406,350,417,397,2025-05-27T22:38:09.524344
9370,-0.7520,-3.5883,1.1712,-218.750,-107.590,108.255,393,339,360,398,413,2025-05-27T22:38:09.524344
9371,-0.1640,-3.6571,1.4294,-177.625,-125.510,81.340,411,378,379,386,415,2025-05-27T22:38:09.524344
9372,0.2113,-3.7508,1.5148,-135.380,-144.130,54.425,395,388,382,407,398,2025-05-27T22:38:09.524633
9373,0.7164,-3.6107,1.5260,-91.560,-135.800,25.095,430,415,377,390,413,2025-05-27T22:38:09.524633
9374,1.1126,-3.5258,1.4947,-56.210,-75.880,7.350,436,403,383,388,412,2025-05-27T22:38:09.524814
9375,1.1063,-3.1993,1.5645,-12.110,8.015,-14.385,411,407,391,404,414,2025-05-27T22:38:09.524814
9376,0.8481,-2.8363,1.6651,26.145,65.100,-29.400,404,397,384,389,415,2025-05-27T22:38:09.524814
9377,0.5754,-2.4405,1.7529,57.750,87.885,-51.205,415,415,381,407,406,2025-05-27T22:38:09.524814
9378,0.3401,-2.0276,1.7509,87.010,88.585,-58.730,402,370,388,401,407,2025-05-27T22:38:09.524814
9379,0.0761,-1.9169,1.6919,120.750,91.140,-71.960,386,395,372,406,397,2025-05-27T22:38:09.524814
9380,-0.2113,-1.6289,1.6592,156.905,94.570,-86.310,411,407,371,417,390,2025-05-27T22:38:09.524814
9381,-0.4470,-1.3132,1.5645,192.430,89.425,-94.675,408,401,383,410,352,2025-05-27T22:38:09.524814
9382,-0.6202,-1.0126,1.3918,211.015,86.520,-99.715,345,401,384,360,373,2025-05-27T22:38:09.525681
9383,-0.7442,-0.6451,1.1722,233.450,91.455,-99.785,403,391,342,337,335,2025-05-27T22:38:09.525681
9384,-0.8774,-0.3553,0.9916,248.360,101.815,-95.445,409,409,325,383,385,2025-05-27T22:38:09.525681
9385,-1.0175,-0.1240,0.8301,256.620,97.440,-87.395,423,420,319,383,378,2025-05-27T22:38:09.526201
9386,-1.1351,0.1308,0.6612,255.010,85.855,-76.160,400,402,346,373,372,2025-05-27T22:38:09.526201
9387,-1.0970,0.3899,0.3767,250.285,71.050,-65.800,363,401,322,405,374,2025-05-27T22:38:09.526201
9388,-1.0609,0.6300,0.3826,238.630,63.770,-58.030,391,429,348,404,359,2025-05-27T22:38:09.526201
9389,-1.0741,0.7178,0.2582,230.195,53.550,-49.910,391,412,368,406,375,2025-05-27T22:38:09.526201
9390,-1.0619,0.8154,0.1684,220.150,29.645,-40.565,425,425,367,420,400,2025-05-27T22:38:09.526201
9391,-1.0077,0.8857,0.1371,212.905,-9.345,-34.020,423,406,382,358,409,2025-05-27T22:38:09.526201
9392,-0.8618,0.9433,0.0927,206.045,-36.785,-30.590,406,420,386,392,370,2025-05-27T22:38:09.526201
9393,-0.6207,0.9716,0.0049,201.600,-45.605,-28.140,424,404,361,405,383,2025-05-27T22:38:09.526201
9394,-0.4260,0.9789,-0.0517,200.305,-39.725,-25.725,411,421,362,415,402,2025-05-27T22:38:09.526201
9395,-0.2757,1.0038,-0.0942,198.975,-24.675,-22.295,421,413,362,408,410,2025-05-27T22:38:09.526201
9396,-0.2191,1.0580,-0.0883,195.685,-9.450,-17.850,404,422,365,396,373,2025-05-27T22:38:09.526201
9397,-0.2435,1.0731,-0.0864,189.700,-4.130,-8.890,388,366,366,408,344,2025-05-27T22:38:09.526201
9398,-0.3006,1.1175,-0.0771,182.665,-9.660,-1.365,294,398,369,410,392,2025-05-27T22:38:09.526201
9399,-0.3060,1.1200,-0.0766,174.895,-26.110,1.190,375,422,335,413,405,2025-05-27T22:38:09.526201
9400,-0.2513,1.1605,-0.0678,165.550,-43.785,5.565,388,354,350,416,411,2025-05-27T22:38:09.527199
9401,-0.1503,1.1868,-0.0883,151.725,-54.320,7.945,410,353,355,416,404,2025-05-27T22:38:09.527199
9402,-0.0498,1.1707,-0.1220,141.540,-56.175,8.015,430,414,380,416,414,2025-05-27T22:38:09.527199
9403,-0.0059,1.1619,-0.1093,132.510,-55.055,7.175,429,424,387,409,396,2025-05-27T22:38:09.527199
9404,0.0303,1.1941,-0.0947,123.865,-55.125,7.980,419,422,342,413,391,2025-05-27T22:38:09.527199
9405,0.0508,1.2132,-0.0639,112.210,-55.230,8.610,400,397,324,364,388,2025-05-27T22:38:09.527199
9406,0.0678,1.1907,-0.0537,100.170,-55.895,10.500,379,425,354,403,405,2025-05-27T22:38:09.527199
9407,0.0625,1.1741,-0.0234,89.320,-58.065,10.290,398,410,373,350,413,2025-05-27T22:38:09.527199
9408,0.0908,1.1444,-0.0078,79.345,-59.500,8.225,416,416,306,389,420,2025-05-27T22:38:09.527199
9409,0.1259,1.1141,0.0239,63.630,-60.795,6.545,406,365,336,390,367,2025-05-27T22:38:09.527199
9410,0.1557,1.1063,0.0220,66.115,-62.860,5.460,398,398,361,345,399,2025-05-27T22:38:09.527199
9411,0.2167,1.1122,0.0488,59.465,-61.670,3.430,405,408,374,388,399,2025-05-27T22:38:09.527199
9412,0.2347,1.1175,0.0937,51.030,-56.070,2.555,399,425,384,397,400,2025-05-27T22:38:09.527199
9413,0.2469,1.1097,0.1152,44.065,-51.205,2.555,406,409,374,408,315,2025-05-27T22:38:09.527199
9414,0.2513,1.1063,0.1342,38.745,-47.285,0.840,400,434,377,397,362,2025-05-27T22:38:09.527199
9415,0.2889,1.1082,0.1532,35.105,-40.495,-1.435,377,437,369,399,393,2025-05-27T22:38:09.527199
9416,0.3050,1.1307,0.2006,29.855,-30.940,-5.600,379,428,367,390,390,2025-05-27T22:38:09.527199
9417,0.2952,1.1527,0.2425,23.345,-17.885,-9.520,386,427,366,347,386,2025-05-27T22:38:09.527199
9418,0.2547,1.1527,0.2752,20.265,-9.660,-11.130,364,356,382,389,390,2025-05-27T22:38:09.527199
9419,0.1781,1.1375,0.2948,21.665,-7.665,-10.605,423,408,353,403,378,2025-05-27T22:38:09.527199
9420,0.1196,1.1507,0.3436,22.785,-7.875,-9.450,406,357,362,412,341,2025-05-27T22:38:09.527199
9421,0.0390,1.1668,0.3792,20.825,-10.500,-6.930,413,398,341,406,379,2025-05-27T22:38:09.527199
9422,-0.0117,1.1595,0.4265,17.080,-14.140,-5.670,417,391,368,418,403,2025-05-27T22:38:09.527199
9423,-0.0332,1.1692,0.4168,11.655,-19.180,-4.165,343,402,376,367,385,2025-05-27T22:38:09.613429
9424,-0.0503,1.1517,0.3943,3.990,-18.200,-3.325,404,433,371,373,347,2025-05-27T22:38:09.613429
9425,-0.0322,1.1131,0.3704,-0.595,-12.635,-0.595,416,412,386,384,382,2025-05-27T22:38:09.613429
9426,-0.0498,1.0599,0.3470,-1.645,-5.600,2.940,418,427,388,364,345,2025-05-27T22:38:09.613429
9427,-0.0805,1.0136,0.3318,-0.945,0.560,6.090,421,399,383,379,384,2025-05-27T22:38:09.613429
9428,-0.1161,0.9789,0.3245,1.015,5.775,8.785,372,427,388,409,399,2025-05-27T22:38:09.613429
9429,-0.1713,0.9638,0.3396,1.855,7.315,10.535,413,395,371,401,391,2025-05-27T22:38:09.613429
9430,-0.1850,0.9594,0.3475,-0.175,6.545,12.390,396,342,376,393,397,2025-05-27T22:38:09.613429
9431,-0.1986,0.9384,0.3323,-2.170,4.270,13.825,405,386,378,388,354,2025-05-27T22:38:09.613429
9432,-0.1845,0.9252,0.3138,-3.430,1.890,13.755,360,417,385,405,394,2025-05-27T22:38:09.613429
9433,-0.1488,0.9257,0.3118,-4.795,0.420,13.405,368,427,388,372,349,2025-05-27T22:38:09.613429
9434,-0.1186,0.8857,0.2747,-2.905,0.245,14.455,402,441,383,388,393,2025-05-27T22:38:09.621499
9435,-0.1274,0.8906,0.2957,0.525,0.350,12.635,425,409,376,411,406,2025-05-27T22:38:09.621499
9436,-0.1039,0.9082,0.3323,-0.140,1.260,9.975,375,400,384,424,354,2025-05-27T22:38:09.621499
9437,-0.0981,0.9048,0.3465,-4.025,3.465,7.525,414,391,385,353,379,2025-05-27T22:38:09.621499
9438,-0.0893,0.8886,0.3338,-5.985,6.580,4.655,401,391,387,395,403,2025-05-27T22:38:09.621499
9439,-0.0878,0.8906,0.3523,-5.180,7.490,2.065,427,338,377,390,402,2025-05-27T22:38:09.622190
9440,-0.0986,0.8921,0.3582,-3.815,7.140,0.630,374,394,383,385,387,2025-05-27T22:38:09.622190
9441,-0.1176,0.8882,0.3772,-1.855,4.655,-1.120,378,419,386,394,387,2025-05-27T22:38:09.622190
9442,-0.1430,0.8960,0.3987,0.140,1.505,-2.695,395,395,382,413,344,2025-05-27T22:38:09.622190
9443,-0.1430,0.9072,0.4094,-0.420,-1.330,-3.920,373,390,344,350,326,2025-05-27T22:38:09.622190
9444,-0.1327,0.9121,0.4128,-1.925,-0.980,-5.250,408,385,360,377,355,2025-05-27T22:38:09.763301
9445,-0.1381,0.9150,0.4011,-2.695,0.280,-5.705,390,418,371,410,401,2025-05-27T22:38:09.763301
9446,-0.1498,0.9121,0.3924,-2.590,0.105,-5.110,414,420,386,417,345,2025-05-27T22:38:09.763301
9447,-0.1576,0.9072,0.3919,-1.855,-0.700,-4.550,397,412,373,398,375,2025-05-27T22:38:09.763301
9448,-0.1698,0.9130,0.3870,-0.525,-1.540,-3.885,413,421,368,352,376,2025-05-27T22:38:09.763301
9449,-0.1835,0.9228,0.3938,-0.035,-2.940,-2.940,379,416,344,348,358,2025-05-27T22:38:09.763301
9450,-0.1947,0.9272,0.3992,-0.840,-6.545,-2.100,426,403,365,401,392,2025-05-27T22:38:09.763301
9451,-0.1952,0.9292,0.4041,-2.030,-10.535,-1.330,415,411,384,407,387,2025-05-27T22:38:09.763301
9452,-0.1776,0.9218,0.3958,-4.235,-12.600,-0.630,401,423,389,383,395,2025-05-27T22:38:09.770203
9453,-0.1586,0.9082,0.3762,-4.970,-13.720,-0.385,399,395,345,403,405,2025-05-27T22:38:09.770203
9454,-0.1357,0.8950,0.3670,-4.690,-13.370,-0.595,412,420,339,416,403,2025-05-27T22:38:09.770203
9455,-0.1127,0.8852,0.3704,-4.970,-11.725,-1.540,341,415,356,375,406,2025-05-27T22:38:09.770203
9456,-0.1015,0.8652,0.3738,-6.195,-10.885,-3.045,412,412,377,383,412,2025-05-27T22:38:09.770203
9457,-0.0986,0.8398,0.3738,-7.175,-11.900,-5.145,402,414,387,392,355,2025-05-27T22:38:10.157640
9458,-0.0932,0.8072,0.3904,-8.330,-14.770,-7.665,338,402,393,400,337,2025-05-27T22:38:10.157640
9459,-0.0893,0.7837,0.4226,-10.465,-19.530,-10.605,321,387,392,371,380,2025-05-27T22:38:10.157640
9460,-0.0996,0.7481,0.4485,-11.340,-27.650,-13.720,375,424,399,382,385,2025-05-27T22:38:10.157640
9461,-0.0966,0.7139,0.4773,-12.005,-38.395,-17.395,418,412,360,343,387,2025-05-27T22:38:10.157640
9462,-0.0961,0.7120,0.4885,-12.915,-49.280,-21.490,418,430,377,379,393,2025-05-27T22:38:10.157640
9463,-0.0732,0.7344,0.4948,-16.905,-57.330,-24.955,344,362,384,394,388,2025-05-27T22:38:10.157640
9464,-0.0473,0.7291,0.4904,-21.560,-62.020,-27.650,395,418,381,408,388,2025-05-27T22:38:10.157640
9465,0.0083,0.7823,0.4460,-29.120,-58.940,-28.910,392,421,378,418,411,2025-05-27T22:38:10.157640
9466,0.0332,0.8550,0.4060,-39.200,-49.315,-31.115,393,400,379,402,357,2025-05-27T22:38:10.157640
9467,0.0742,0.9560,0.3758,-50.225,-36.610,-32.900,403,398,345,406,378,2025-05-27T22:38:10.157640
9468,0.0346,1.0751,0.3792,-59.080,-24.920,-35.595,404,407,358,354,391,2025-05-27T22:38:10.157640
9469,0.0185,1.2127,0.3748,-71.295,-19.880,-40.705,337,390,345,376,373,2025-05-27T22:38:10.157640
9470,0.0068,1.4191,0.3865,-86.205,-20.860,-46.340,403,428,329,377,394,2025-05-27T22:38:10.157640
9471,0.0005,1.6285,0.3875,-105.070,-27.790,-49.910,420,440,317,393,399,2025-05-27T22:38:10.157640
9472,0.0049,1.7934,0.3953,-128.030,-41.090,-49.315,410,375,354,394,410,2025-05-27T22:38:10.251687
9473,0.0434,2.0838,0.3616,-149.975,-61.565,-43.050,374,417,364,351,411,2025-05-27T22:38:10.251687
9474,0.1322,2.3092,0.2279,-168.700,-81.200,-30.415,392,361,375,384,394,2025-05-27T22:38:10.251687
9475,0.2913,2.6147,0.0854,-180.845,-97.510,-14.420,409,401,385,407,386,2025-05-27T22:38:10.251687
9476,0.4895,2.9339,-0.1679,-196.070,-96.215,12.180,429,393,388,370,305,2025-05-27T22:38:10.251687
9477,0.6544,3.1627,-0.4138,-192.360,-76.580,44.135,419,400,390,399,367,2025-05-27T22:38:10.251687
9478,0.7154,3.3184,-0.6139,-195.930,-47.460,84.595,397,402,388,416,332,2025-05-27T22:38:10.251687
9479,0.7564,3.4145,-0.8662,-197.120,-3.465,134.050,379,415,382,399,380,2025-05-27T22:38:10.251687
9480,0.7418,3.3365,-1.1990,-197.120,49.805,171.955,391,401,384,375,397,2025-05-27T22:38:10.251687
9481,0.4860,3.1793,-1.4474,-198.065,121.240,205.555,382,359,378,384,391,2025-05-27T22:38:10.251687
9482,0.0742,2.9143,-1.5631,-208.005,191.625,220.220,382,334,375,381,386,2025-05-27T22:38:10.251687
9483,-0.4953,2.5503,-1.6167,-225.820,218.260,225.400,420,357,383,401,395,2025-05-27T22:38:10.251687
9484,-1.2503,2.1496,-1.5801,-243.915,201.530,212.310,396,424,392,410,311,2025-05-27T22:38:10.251687
9485,-1.7749,1.6924,-1.4103,-265.440,140.385,185.325,414,425,391,409,373,2025-05-27T22:38:10.251687
9486,-2.2585,1.1980,-1.1424,-288.400,81.095,151.200,403,421,390,414,408,2025-05-27T22:38:10.251687
9487,-2.5478,0.4597,-0.8989,-307.090,13.580,119.350,417,402,395,408,351,2025-05-27T22:38:10.251687
9488,-2.8577,-0.3616,-0.6085,-318.360,-40.145,103.390,406,411,392,399,333,2025-05-27T22:38:10.251687
9489,-3.3721,-1.2068,-0.2723,-320.320,-69.510,80.920,420,429,382,406,376,2025-05-27T22:38:10.251687
9490,-3.6390,-2.4107,0.1459,-304.220,-121.485,87.675,365,426,388,401,390,2025-05-27T22:38:10.251687
9491,-2.9890,-2.9656,0.3709,-271.950,-175.840,107.240,384,392,375,407,389,2025-05-27T22:38:10.251687
9492,-2.1135,-3.5112,0.5724,-237.300,-175.070,123.550,395,410,338,371,382,2025-05-27T22:38:10.360556
9493,-1.2327,-3.6219,0.7740,-176.505,-127.400,135.940,388,422,350,397,385,2025-05-27T22:38:10.360556
9494,-0.4163,-3.5541,0.9628,-139.090,-69.090,135.135,413,425,374,414,368,2025-05-27T22:38:10.360556
9495,0.2391,-3.3721,1.1629,-101.780,-15.715,118.510,420,431,362,379,329,2025-05-27T22:38:10.360556
9496,0.5417,-3.2676,1.3430,-71.890,21.595,101.150,396,408,344,386,381,2025-05-27T22:38:10.360556
9497,0.5866,-3.1657,1.4713,-37.310,49.070,72.310,389,410,330,410,403,2025-05-27T22:38:10.360556
9498,0.6778,-2.9329,1.4928,4.865,46.200,54.740,387,343,344,402,416,2025-05-27T22:38:10.360556
9499,0.7637,-2.6645,1.6026,36.995,35.490,33.460,394,337,364,415,409,2025-05-27T22:38:10.360556
9500,0.8145,-2.2643,1.7334,51.065,47.250,7.595,400,390,380,402,396,2025-05-27T22:38:10.360556
9501,0.5983,-2.0135,1.7968,58.275,58.450,-21.175,420,372,347,395,395,2025-05-27T22:38:10.360556
9502,0.2826,-1.8280,1.8646,70.210,49.700,-46.025,399,386,358,418,397,2025-05-27T22:38:10.360556
9503,-0.0610,-1.7387,1.8412,87.955,34.650,-64.190,402,427,370,415,387,2025-05-27T22:38:10.360556
9504,-0.2381,-1.5704,1.7602,112.595,22.610,-75.145,401,434,383,392,352,2025-05-27T22:38:10.360556
9505,-0.4148,-1.4313,1.5884,143.255,24.570,-81.935,407,432,378,348,372,2025-05-27T22:38:10.360556
9506,-0.5363,-1.1961,1.4215,174.895,37.450,-85.995,354,436,377,378,404,2025-05-27T22:38:10.492694
9507,-0.5734,-0.9150,1.1507,204.155,57.785,-90.265,382,431,369,397,412,2025-05-27T22:38:11.403916
9508,-0.6427,-0.5993,1.0658,227.360,84.280,-94.360,366,347,375,419,412,2025-05-27T22:38:11.403916
9509,-0.7505,-0.2757,0.8657,242.725,100.100,-94.430,409,414,381,420,370,2025-05-27T22:38:11.404917
9510,-0.8686,0.0254,0.6559,255.080,96.985,-92.050,346,393,381,392,352,2025-05-27T22:38:11.404917
9511,-0.9658,0.2772,0.4636,259.210,77.175,-89.845,406,420,390,395,381,2025-05-27T22:38:11.405170
9512,-1.0043,0.5305,0.3216,257.950,43.540,-86.520,410,413,394,417,402,2025-05-27T22:38:11.405170
9513,-0.9521,0.7110,0.1820,251.475,5.705,-82.775,422,424,346,408,352,2025-05-27T22:38:11.405170
9514,-0.8516,0.8413,0.0825,242.480,-21.280,-79.345,365,389,368,403,372,2025-05-27T22:38:11.405170
9515,-0.7344,0.9667,-0.0224,231.840,-38.850,-79.975,413,390,365,392,359,2025-05-27T22:38:11.405170
9516,-0.5056,1.0551,-0.1059,221.480,-44.135,-76.195,342,381,374,370,390,2025-05-27T22:38:11.405170
9517,-0.3640,1.0858,-0.1576,209.755,-38.290,-71.680,407,414,382,381,388,2025-05-27T22:38:11.405170
9518,-0.2552,1.0960,-0.1952,202.475,-22.960,-65.975,384,385,384,414,411,2025-05-27T22:38:11.405170
9519,-0.2572,1.1092,-0.1615,196.245,-15.225,-61.915,406,413,369,402,419,2025-05-27T22:38:11.405170
9520,-0.2542,1.1761,-0.0815,189.735,-13.685,-57.785,394,405,372,366,416,2025-05-27T22:38:11.405170
9521,-0.3006,1.1829,-0.0063,182.245,-22.400,-54.040,406,427,375,406,399,2025-05-27T22:38:11.405170
9522,-0.2718,1.1888,0.0024,174.020,-39.900,-47.215,429,403,389,394,397,2025-05-27T22:38:11.405170
9523,-0.2030,1.1995,-0.0200,168.105,-54.320,-38.885,422,409,382,394,390,2025-05-27T22:38:11.406170
9524,-0.1005,1.2356,-0.0420,163.940,-57.855,-31.255,413,421,373,408,386,2025-05-27T22:38:11.406170
9525,-0.0425,1.2302,-0.0220,159.915,-57.295,-24.290,422,434,373,390,361,2025-05-27T22:38:11.406170
9526,0.0137,1.2537,-0.0220,157.045,-57.820,-19.565,394,421,377,392,394,2025-05-27T22:38:11.406170
9527,0.0581,1.3152,0.0137,149.870,-53.410,-18.655,399,398,381,386,412,2025-05-27T22:38:11.406170
9528,0.1235,1.3283,0.0342,138.110,-42.525,-17.395,416,371,371,409,398,2025-05-27T22:38:11.406170
9529,0.1488,1.3503,0.0342,124.810,-33.110,-13.440,376,389,338,399,404,2025-05-27T22:38:11.406170
9530,0.1074,1.3166,0.0420,114.870,-30.345,-8.260,412,425,358,413,405,2025-05-27T22:38:11.406170
9531,0.0737,1.2830,0.0556,108.220,-35.245,-5.145,421,413,371,410,408,2025-05-27T22:38:11.406170
9532,0.0839,1.2688,0.0815,99.505,-40.250,-3.220,383,392,368,405,405,2025-05-27T22:38:11.406170
9533,0.1059,1.2654,0.1035,88.900,-41.790,-2.765,408,400,384,368,393,2025-05-27T22:38:11.406170
9534,0.1391,1.2522,0.1230,77.210,-37.205,-2.030,423,409,384,401,401,2025-05-27T22:38:11.406170
9535,0.1508,1.2190,0.1254,66.850,-31.360,-1.575,393,415,386,374,413,2025-05-27T22:38:11.406170
9536,0.1464,1.1956,0.1347,59.605,-25.655,-1.260,418,391,381,337,403,2025-05-27T22:38:11.406170
9537,0.1425,1.1722,0.1440,52.255,-19.705,-0.070,392,419,370,395,395,2025-05-27T22:38:11.406170
9538,0.1254,1.1605,0.1674,44.590,-14.280,0.840,388,304,335,341,393,2025-05-27T22:38:11.406170
9539,0.0961,1.1336,0.1845,37.450,-9.135,1.330,414,329,356,332,373,2025-05-27T22:38:11.407933
9540,0.0405,1.1180,0.2181,32.445,-9.100,2.030,396,410,374,374,385,2025-05-27T22:38:11.408212
9541,-0.0132,1.1039,0.2391,28.000,-14.980,2.170,421,435,384,405,381,2025-05-27T22:38:11.408339
9542,-0.0312,1.1009,0.2923,22.890,-21.945,1.330,408,376,349,396,403,2025-05-27T22:38:11.408339
9543,-0.0127,1.0790,0.3128,16.065,-24.360,1.645,421,412,336,309,382,2025-05-27T22:38:11.408339
9544,0.0015,1.0458,0.3089,11.900,-23.415,2.625,378,350,357,357,404,2025-05-27T22:38:11.408339
9545,0.0010,1.0341,0.3089,10.920,-19.880,3.990,381,378,374,356,392,2025-05-27T22:38:11.408339
9546,0.0107,1.0292,0.3192,10.045,-13.650,4.760,356,358,352,391,387,2025-05-27T22:38:11.408778
9547,0.0068,1.0131,0.3333,8.540,-4.095,4.200,418,386,376,389,393,2025-05-27T22:38:11.408998
9548,-0.1235,0.9843,0.3343,8.225,3.150,3.465,415,424,338,364,411,2025-05-27T22:38:11.409073
9549,-0.0268,0.9843,0.3597,8.505,8.890,3.080,405,431,350,398,404,2025-05-27T22:38:11.409185
9550,-0.0493,0.9960,0.3787,7.105,11.445,3.045,391,342,355,406,354,2025-05-27T22:38:11.409185
9551,-0.0776,0.9833,0.3845,5.740,10.010,2.730,386,418,333,400,386,2025-05-27T22:38:11.409185
9552,-0.0893,0.9799,0.3699,5.145,5.985,2.415,416,362,367,413,390,2025-05-27T22:38:11.409185
9553,-0.0820,0.9882,0.3665,4.690,4.060,1.540,420,414,378,363,382,2025-05-27T22:38:11.409986
9554,-0.0854,0.9970,0.3577,3.360,3.465,0.840,402,427,370,402,383,2025-05-27T22:38:11.409986
9555,-0.1196,0.9970,0.3494,2.835,0.245,-0.280,416,396,382,415,398,2025-05-27T22:38:11.409986
9556,-0.1401,1.0043,0.3455,2.380,-5.145,-0.700,409,415,375,355,401,2025-05-27T22:38:11.409986
9557,-0.1264,1.0033,0.3235,1.365,-7.420,-0.735,425,432,346,384,390,2025-05-27T22:38:11.409986
9558,-0.1137,0.9936,0.3070,0.980,-5.530,-0.420,397,427,370,388,408,2025-05-27T22:38:11.409986
9559,-0.1161,0.9902,0.3094,-0.070,-1.015,-0.175,379,422,368,413,399,2025-05-27T22:38:11.409986
9560,-0.1386,0.9736,0.3104,-1.645,2.415,0.560,382,428,383,392,406,2025-05-27T22:38:11.409986
9561,-0.1606,0.9584,0.3118,-2.205,3.045,1.260,415,404,373,417,398,2025-05-27T22:38:11.409986
9562,-0.1708,0.9516,0.3221,-3.010,2.485,1.645,424,381,381,415,391,2025-05-27T22:38:11.409986
9563,-0.1703,0.9433,0.3226,-5.425,2.345,1.645,396,350,348,391,378,2025-05-27T22:38:11.409986
9564,-0.1723,0.9345,0.3157,-7.175,2.275,1.680,383,370,378,416,409,2025-05-27T22:38:11.410988
9565,-0.1649,0.9248,0.3177,-7.665,1.365,2.240,400,411,384,411,393,2025-05-27T22:38:11.410988
9566,-0.1742,0.9184,0.3157,-7.665,0.315,2.450,398,383,382,356,353,2025-05-27T22:38:11.410988
9567,-0.1654,0.9135,0.3265,-7.630,-1.715,3.080,408,408,389,379,372,2025-05-27T22:38:11.410988
9568,-0.1610,0.9043,0.3279,-6.370,-3.640,3.395,344,341,379,397,376,2025-05-27T22:38:11.410988
9569,-0.1596,0.9106,0.3484,-6.440,-4.130,2.695,329,358,394,405,397,2025-05-27T22:38:11.410988
9570,-0.1513,0.9106,0.3514,-7.105,-4.515,2.625,381,390,399,421,392,2025-05-27T22:38:11.410988
9571,-0.1454,0.9077,0.3548,-7.665,-4.900,2.275,370,399,394,427,400,2025-05-27T22:38:11.410988
9572,-0.1298,0.9023,0.3392,-7.700,-4.130,2.170,336,414,386,410,409,2025-05-27T22:38:11.410988
9573,-0.1279,0.8969,0.3455,-7.525,-2.100,1.750,384,380,381,346,365,2025-05-27T22:38:11.410988
9574,-0.1161,0.8930,0.3465,-6.580,-1.225,2.590,422,414,387,387,387,2025-05-27T22:38:11.410988
9575,-0.1274,0.8833,0.3475,-5.215,-0.980,2.975,420,440,389,389,401,2025-05-27T22:38:11.410988
9576,-0.1205,0.8682,0.3440,-4.095,-0.420,2.975,433,435,383,395,410,2025-05-27T22:38:11.410988
9577,-0.1279,0.8555,0.3548,-3.955,-0.980,2.240,414,432,352,358,353,2025-05-27T22:38:11.410988
9578,-0.1322,0.8194,0.3509,-4.025,-2.730,1.400,415,399,367,398,403,2025-05-27T22:38:11.410988
9579,-0.1293,0.7969,0.3533,-3.920,-6.265,0.455,416,418,342,309,379,2025-05-27T22:38:11.410988
9580,-0.1161,0.7652,0.3504,-4.655,-9.345,-1.575,410,348,367,382,390,2025-05-27T22:38:11.410988
9581,-0.1030,0.7349,0.3406,-5.915,-11.585,-4.130,394,417,374,397,411,2025-05-27T22:38:11.410988
9582,-0.0839,0.7013,0.3240,-7.770,-12.705,-6.055,418,412,343,385,413,2025-05-27T22:38:11.410988
9583,-0.0864,0.6734,0.3426,-10.535,-13.685,-7.525,391,393,357,401,399,2025-05-27T22:38:11.410988
9584,-0.0913,0.6437,0.3611,-14.140,-15.575,-8.190,400,373,373,411,401,2025-05-27T22:38:11.410988
9585,-0.0874,0.6324,0.3870,-19.215,-19.775,-7.735,416,348,379,397,401,2025-05-27T22:38:11.410988
9586,-0.0576,0.6295,0.3821,-25.690,-22.750,-5.635,392,404,353,392,411,2025-05-27T22:38:11.410988
9587,-0.0337,0.6393,0.3601,-31.045,-21.595,-5.040,401,396,360,373,411,2025-05-27T22:38:11.410988
9588,0.0029,0.6866,0.3592,-39.795,-19.670,-6.650,390,405,362,396,365,2025-05-27T22:38:11.410988
9589,0.0166,0.7720,0.3704,-51.450,-17.675,-17.920,408,348,382,400,377,2025-05-27T22:38:11.410988
9590,0.0405,0.8633,0.3797,-65.205,-18.620,-13.615,390,387,382,408,401,2025-05-27T22:38:11.410988
9591,0.0737,1.0385,0.3967,-78.470,-23.835,-20.475,392,423,394,405,408,2025-05-27T22:38:11.410988
9592,0.1469,1.2873,0.3855,-92.750,-27.580,-29.015,422,423,389,392,373,2025-05-27T22:38:11.410988
9593,0.2064,1.5670,0.4119,-105.665,-29.750,-41.230,409,420,349,394,343,2025-05-27T22:38:11.642446
9594,0.2747,1.8861,0.4353,-123.760,-32.725,-50.820,398,413,368,396,396,2025-05-27T22:38:11.642446
9595,0.2840,2.1770,0.4939,-144.550,-39.480,-55.895,351,401,377,388,406,2025-05-27T22:38:11.642446
9596,0.3221,2.4439,0.5397,-162.330,-57.400,-57.400,390,379,379,388,409,2025-05-27T22:38:11.642446
9597,0.3924,2.6181,0.4826,-175.595,-76.930,-45.990,421,419,383,396,399,2025-05-27T22:38:11.642446
9598,0.4616,2.7792,0.4368,-186.305,-89.180,-25.025,391,413,371,383,400,2025-05-27T22:38:11.642446
9599,0.5754,2.9275,0.3675,-194.530,-91.035,-1.260,415,419,370,386,413,2025-05-27T22:38:11.642446
9600,0.6881,3.0471,0.1425,-200.515,-69.300,28.490,345,397,379,338,355,2025-05-27T22:38:11.642446
9601,0.6925,3.1291,-0.0776,-206.080,-38.885,62.755,407,422,386,376,377,2025-05-27T22:38:11.642446
9602,0.6939,3.0876,-0.3645,-208.530,10.325,102.130,392,363,384,352,384,2025-05-27T22:38:11.642446
9603,0.4982,3.0056,-0.6037,-209.685,67.165,130.655,340,366,384,397,403,2025-05-27T22:38:11.642446
9604,0.2118,2.8631,-0.9740,-207.620,114.940,168.210,378,411,343,405,388,2025-05-27T22:38:11.642446
9605,-0.2845,2.7011,-1.1819,-206.990,148.855,189.350,293,392,353,407,400,2025-05-27T22:38:11.642446
9606,-0.8350,2.5308,-1.3479,-217.490,159.810,198.310,366,370,361,345,408,2025-05-27T22:38:11.642446
9607,-1.2991,2.2609,-1.4054,-234.955,138.880,202.440,350,289,373,390,372,2025-05-27T22:38:11.642446
9608,-1.4933,1.9222,-1.4835,-256.970,97.475,200.025,396,379,373,406,357,2025-05-27T22:38:11.642446
9609,-1.5860,1.5060,-1.4235,-276.780,65.660,185.955,415,386,379,396,337,2025-05-27T22:38:11.642446
9610,-1.6846,1.0360,-1.2756,-286.930,45.150,169.715,405,388,343,390,381,2025-05-27T22:38:11.642446
9611,-1.8202,0.6100,-0.9784,-286.860,25.655,142.905,412,410,371,408,387,2025-05-27T22:38:11.642446
9612,-2.1213,-0.0054,-0.5812,-282.695,-11.410,97.230,339,419,379,399,395,2025-05-27T22:38:11.792245
9613,-2.3141,-1.1097,-0.2572,-270.690,-79.765,48.020,377,422,368,405,407,2025-05-27T22:38:11.792245
9614,-2.4986,-2.0086,-0.1244,-245.350,-128.835,22.505,413,420,375,405,393,2025-05-27T22:38:11.792245
9615,-2.4790,-3.0144,0.0820,-218.750,-167.440,11.060,417,425,385,405,381,2025-05-27T22:38:11.792245
9616,-2.0833,-3.3384,0.4455,-186.130,-185.815,20.685,403,419,385,403,397,2025-05-27T22:38:11.792245
9617,-1.3381,-3.3965,0.6105,-167.230,-167.475,52.430,422,365,383,413,405,2025-05-27T22:38:11.792245
9618,-0.8374,-3.4516,0.6939,-147.980,-113.120,70.840,401,407,377,395,396,2025-05-27T22:38:11.792245
9619,-0.4089,-3.4204,0.8052,-115.990,-45.570,89.180,369,410,384,412,389,2025-05-27T22:38:11.792245
9620,-0.1342,-3.4282,1.0736,-83.300,2.310,106.610,382,426,394,410,406,2025-05-27T22:38:11.792245
9621,0.1810,-3.2720,1.2917,-57.925,18.935,110.250,296,423,348,415,352,2025-05-27T22:38:11.792245
9622,0.4290,-3.1090,1.5694,-42.070,21.980,106.855,340,379,372,402,395,2025-05-27T22:38:11.792245
9623,0.7652,-2.8719,1.7256,-15.155,24.115,90.510,399,430,391,401,405,2025-05-27T22:38:11.792245
9624,1.0214,-2.6030,1.8490,15.400,35.630,64.610,337,395,390,411,410,2025-05-27T22:38:11.792245
9625,1.0219,-2.4122,1.9403,39.795,51.835,42.105,342,429,389,406,405,2025-05-27T22:38:12.052558
9626,0.9033,-2.2214,1.9627,67.270,63.875,4.445,328,354,384,401,407,2025-05-27T22:38:12.052558
9627,0.6276,-2.0681,2.0106,102.480,51.625,-15.750,399,404,384,416,368,2025-05-27T22:38:12.052558
9628,0.4046,-1.8412,1.9818,134.190,28.035,-47.530,374,394,386,412,337,2025-05-27T22:38:12.052558
9629,0.3216,-1.5601,1.8188,161.735,21.280,-80.080,389,412,381,388,385,2025-05-27T22:38:12.052558
9630,0.2001,-1.3313,1.5538,189.665,40.075,-103.705,417,421,387,392,398,2025-05-27T22:38:12.052558
9631,-0.0737,-1.0736,1.2942,211.505,72.275,-119.980,417,430,397,409,397,2025-05-27T22:38:12.052558
9632,-0.2855,-0.7427,1.0687,232.260,92.050,-127.750,413,407,391,402,404,2025-05-27T22:38:12.052558
9633,-0.5470,-0.4270,0.8764,244.405,114.555,-129.850,401,397,376,353,396,2025-05-27T22:38:12.052558
9634,-0.8755,-0.1898,0.6544,248.955,119.770,-126.700,392,429,369,399,409,2025-05-27T22:38:12.052558
9635,-1.1219,-0.0303,0.4509,256.025,101.080,-116.515,410,431,376,424,410,2025-05-27T22:38:12.052558
9636,-1.3532,0.1752,0.3362,261.380,57.120,-110.600,416,382,386,376,366,2025-05-27T22:38:12.052558
9637,-1.2556,0.4026,0.1952,261.975,15.260,-105.385,376,295,342,395,396,2025-05-27T22:38:12.054151
9638,-1.0560,0.5314,0.0405,259.245,-4.830,-97.685,385,359,369,408,400,2025-05-27T22:38:12.054151
9639,-0.9306,0.5910,-0.1005,258.580,-2.835,-87.290,361,330,384,423,400,2025-05-27T22:38:12.054151
9640,-0.8198,0.7823,-0.1464,256.095,7.105,-71.890,368,405,392,420,406,2025-05-27T22:38:12.054151
9641,-0.6398,0.9004,-0.1996,247.940,17.710,-72.240,404,433,384,363,405,2025-05-27T22:38:12.054151
9642,-0.5622,1.0155,-0.2523,238.665,33.250,-62.580,398,425,384,360,391,2025-05-27T22:38:12.054151
9643,-0.4797,1.0448,-0.2972,231.175,43.225,-50.960,392,435,387,381,345,2025-05-27T22:38:12.054151
9644,-0.4870,1.1019,-0.3338,227.710,37.835,-42.420,382,406,349,380,351,2025-05-27T22:38:12.054151
9645,-0.5451,1.2005,-0.3172,221.235,18.900,-31.885,386,375,355,403,374,2025-05-27T22:38:12.211282
9646,-0.5285,1.2405,-0.2289,207.725,-14.350,-26.565,405,405,380,400,388,2025-05-27T22:38:12.211282
9647,-0.3933,1.3430,-0.2562,187.950,-38.185,-21.000,344,293,380,422,346,2025-05-27T22:38:12.211282
9648,-0.2338,1.3791,-0.2547,165.550,-57.015,-15.960,348,347,379,401,369,2025-05-27T22:38:12.211282
9649,-0.1264,1.3703,-0.2489,145.565,-58.450,-13.755,406,411,376,398,381,2025-05-27T22:38:12.211786
9650,-0.0493,1.3537,-0.2084,130.620,-55.860,-12.390,413,427,377,394,404,2025-05-27T22:38:12.211786
9651,-0.0059,1.3283,-0.1459,122.080,-54.950,-9.100,424,404,380,398,416,2025-05-27T22:38:12.211786
9652,-0.0005,1.3156,-0.0551,114.450,-52.255,-6.475,415,418,390,411,412,2025-05-27T22:38:12.211786
9653,0.0181,1.2927,0.0615,106.925,-47.390,-5.600,375,411,378,412,359,2025-05-27T22:38:12.211786
9654,0.0264,1.2961,0.1352,99.015,-40.285,-4.445,391,431,381,406,403,2025-05-27T22:38:12.211786
9655,0.0342,1.2878,0.1757,92.785,-32.165,-3.395,387,427,379,420,412,2025-05-27T22:38:12.211786
9656,0.0039,1.2600,0.2064,89.460,-26.810,-0.490,402,430,374,422,418,2025-05-27T22:38:12.211786
9657,-0.0181,1.2459,0.2367,87.220,-28.945,3.220,410,408,346,412,409,2025-05-27T22:38:12.782117
9658,-0.0049,1.2444,0.2655,82.530,-33.075,6.755,393,340,289,404,403,2025-05-27T22:38:12.782117
9659,0.0127,1.2381,0.2528,76.230,-36.015,9.730,384,368,298,305,392,2025-05-27T22:38:12.782117
9660,0.0395,1.2293,0.2645,68.005,-35.735,10.395,417,417,329,361,390,2025-05-27T22:38:12.783114
9661,0.0776,1.2356,0.2489,58.905,-33.460,11.515,434,428,329,334,388,2025-05-27T22:38:12.783114
9662,0.1035,1.2224,0.2469,49.280,-29.925,11.515,415,397,348,330,406,2025-05-27T22:38:12.783114
9663,0.1152,1.1956,0.2538,42.455,-26.810,10.815,418,398,355,364,373,2025-05-27T22:38:12.783114
9664,0.1401,1.1536,0.2479,35.910,-24.815,10.535,417,386,382,403,405,2025-05-27T22:38:12.783114
9665,0.1318,1.1190,0.2679,30.065,-20.755,8.190,428,413,380,415,408,2025-05-27T22:38:12.783114
9666,0.1220,1.0868,0.2982,24.150,-15.610,5.845,305,381,382,417,416,2025-05-27T22:38:12.783114
9667,0.0937,1.0682,0.3152,20.545,-14.560,4.655,351,415,370,425,399,2025-05-27T22:38:12.783114
9668,0.0747,1.0585,0.3382,17.010,-13.580,2.835,403,404,385,423,350,2025-05-27T22:38:12.783114
9669,0.0610,1.0472,0.3421,12.845,-9.870,0.525,405,391,371,414,391,2025-05-27T22:38:12.783114
9670,0.0634,1.0253,0.3445,10.745,-5.950,-0.945,386,399,384,412,409,2025-05-27T22:38:12.783114
9671,0.0288,1.0126,0.3484,9.590,-3.395,-1.995,415,335,377,409,410,2025-05-27T22:38:12.783114
9672,-0.0229,1.0097,0.3699,8.680,-0.490,-3.675,349,397,336,370,367,2025-05-27T22:38:12.783114
9673,-0.0425,1.0180,0.3899,6.545,-1.120,-4.165,392,430,351,378,403,2025-05-27T22:38:12.783114
9674,-0.0771,1.0155,0.3865,4.480,-1.575,-1.960,389,416,330,356,394,2025-05-27T22:38:12.783114
9675,-0.1298,1.0004,0.3816,3.780,-2.170,-1.365,418,423,361,382,413,2025-05-27T22:38:12.783114
9676,-0.1513,1.0024,0.3889,3.465,-4.900,-1.295,415,425,376,366,396,2025-05-27T22:38:12.783114
9677,-0.1332,1.0116,0.3875,2.730,-7.595,0.420,426,408,381,395,404,2025-05-27T22:38:12.783114
9678,-0.1444,0.9911,0.3553,2.765,-5.285,2.450,387,406,375,408,397,2025-05-27T22:38:12.783114
9679,-0.1615,0.9887,0.3499,4.480,-2.765,3.360,388,396,379,403,404,2025-05-27T22:38:12.783114
9680,-0.1649,1.0019,0.3650,4.025,-3.395,4.270,394,429,379,405,411,2025-05-27T22:38:12.783114
9681,-0.1527,0.9941,0.3504,1.540,-3.290,6.230,338,350,390,415,357,2025-05-27T22:38:12.783114
9682,-0.1508,0.9760,0.3294,0.700,-1.820,6.860,397,399,379,387,377,2025-05-27T22:38:12.783114
9683,-0.1420,0.9711,0.3201,0.315,-0.525,7.280,419,341,383,389,394,2025-05-27T22:38:12.783114
9684,-0.1401,0.9638,0.3143,-0.700,0.385,7.595,416,403,386,411,396,2025-05-27T22:38:12.783114
9685,-0.1430,0.9565,0.3050,-2.275,0.385,7.350,396,300,354,428,415,2025-05-27T22:38:12.783114
9686,-0.1527,0.9487,0.3026,-3.290,-1.085,7.140,411,372,361,412,407,2025-05-27T22:38:12.783114
9687,-0.1571,0.9379,0.2996,-4.585,-4.795,7.385,428,424,365,397,403,2025-05-27T22:38:12.783114
9688,-0.1527,0.9199,0.3016,-4.795,-8.505,7.245,416,437,361,411,409,2025-05-27T22:38:12.783114
9689,-0.1386,0.9179,0.3206,-5.285,-8.750,6.265,418,413,375,418,397,2025-05-27T22:38:12.783114
9690,-0.1191,0.9106,0.3279,-6.545,-5.600,5.075,419,406,350,401,406,2025-05-27T22:38:12.783114
9691,-0.1196,0.8994,0.3382,-7.455,-2.380,3.780,396,370,373,351,400,2025-05-27T22:38:12.783114
9692,-0.1342,0.8960,0.3528,-7.525,-0.245,2.940,431,406,380,398,409,2025-05-27T22:38:12.783114
9693,-0.1498,0.8862,0.3558,-7.175,-0.840,2.100,393,401,384,402,364,2025-05-27T22:38:12.872440
9694,-0.1449,0.8779,0.3665,-6.125,-2.520,1.820,352,394,373,404,398,2025-05-27T22:38:12.872440
9695,-0.1327,0.8740,0.3636,-4.900,-3.290,1.820,398,390,383,403,346,2025-05-27T22:38:12.872440
9696,-0.1376,0.8716,0.3694,-4.340,-2.205,0.980,397,411,391,406,333,2025-05-27T22:38:12.872440
9697,-0.1303,0.8750,0.3762,-4.725,-0.490,0.455,403,401,389,394,347,2025-05-27T22:38:12.872440
9698,-0.1283,0.8662,0.3562,-4.760,0.315,0.735,418,427,395,407,385,2025-05-27T22:38:12.872440
9699,-0.1474,0.8701,0.3626,-4.620,0.910,0.455,426,417,392,418,386,2025-05-27T22:38:12.872440
9700,-0.1425,0.8789,0.3587,-4.795,1.295,0.140,401,403,375,399,400,2025-05-27T22:38:12.872440
9701,-0.1435,0.8862,0.3582,-4.935,0.875,-0.700,391,402,389,408,372,2025-05-27T22:38:12.872440
9702,-0.1347,0.8916,0.3626,-4.970,-0.175,-1.505,416,416,382,406,391,2025-05-27T22:38:12.872440
9703,-0.1196,0.8935,0.3626,-4.165,-0.770,-1.435,422,424,378,401,402,2025-05-27T22:38:12.872440
9704,-0.1191,0.8955,0.3636,-2.905,-0.665,-1.260,402,428,392,414,413,2025-05-27T22:38:12.872440
9705,-0.1132,0.9052,0.3714,-1.610,-0.280,-1.050,415,394,359,349,391,2025-05-27T22:38:12.872440
9706,-0.1118,0.9087,0.3733,-1.400,0.665,-0.700,407,393,373,394,412,2025-05-27T22:38:12.872440
9707,-0.1098,0.9135,0.3699,-1.365,2.835,-0.910,418,379,374,399,396,2025-05-27T22:38:12.872440
9708,-0.1254,0.9194,0.3723,-0.945,4.375,-0.805,377,414,343,403,396,2025-05-27T22:38:12.872440
9709,-0.1362,0.9272,0.3772,-0.770,4.445,-0.910,408,435,355,410,409,2025-05-27T22:38:12.872440
9710,-0.1498,0.9282,0.3792,-0.665,2.520,-0.980,398,417,332,419,353,2025-05-27T22:38:12.872440
9711,-0.1532,0.9248,0.3816,-0.035,-0.245,-0.945,394,405,359,416,372,2025-05-27T22:38:12.872440
9712,-0.1571,0.9243,0.3860,0.525,-3.255,-0.805,375,418,298,416,404,2025-05-27T22:38:12.872440
9713,-0.1503,0.9233,0.3928,0.980,-5.320,-1.050,425,422,352,426,392,2025-05-27T22:38:12.873359
9714,-0.1303,0.9223,0.3845,1.610,-5.320,-0.560,426,438,374,416,405,2025-05-27T22:38:13.025616
9715,-0.1230,0.9165,0.3772,2.380,-2.730,-0.070,402,431,368,402,397,2025-05-27T22:38:13.025616
9716,-0.1264,0.9174,0.3836,2.450,0.245,0.000,400,399,373,404,391,2025-05-27T22:38:13.025616
9717,-0.1376,0.9174,0.3821,1.575,1.680,-0.175,398,394,383,411,388,2025-05-27T22:38:13.025616
9718,-0.1484,0.9033,0.3719,1.120,1.085,0.000,351,406,375,390,350,2025-05-27T22:38:13.025616
9719,-0.1625,0.8862,0.3743,0.875,-1.365,0.210,390,433,371,401,388,2025-05-27T22:38:13.025616
9720,-0.1635,0.8769,0.3762,0.630,-5.880,0.140,352,417,383,412,352,2025-05-27T22:38:13.025616
9721,-0.1552,0.8545,0.3645,0.420,-9.905,0.105,388,357,384,354,379,2025-05-27T22:38:13.025616
9722,-0.1362,0.8291,0.3592,0.490,-12.390,-0.105,418,397,370,404,412,2025-05-27T22:38:13.025616
9723,-0.1176,0.8086,0.3543,-0.140,-13.510,-0.595,362,406,372,310,397,2025-05-27T22:38:13.025616
9724,-0.1000,0.7842,0.3436,-1.505,-14.245,-0.735,385,420,385,316,352,2025-05-27T22:38:13.025616
9725,-0.0898,0.7584,0.3279,-2.485,-14.945,-0.840,399,422,339,361,375,2025-05-27T22:38:13.025616
9726,-0.0688,0.7452,0.3274,-4.550,-15.960,-1.085,396,383,347,381,373,2025-05-27T22:38:13.025616
9727,-0.0439,0.7208,0.3172,-8.015,-16.835,-0.140,411,419,355,381,389,2025-05-27T22:38:13.025616
9728,-0.0293,0.7120,0.3021,-10.815,-17.325,0.420,414,355,355,390,401,2025-05-27T22:38:13.125291
9729,0.0024,0.7120,0.2713,-14.350,-18.165,-0.840,411,386,365,402,355,2025-05-27T22:38:13.125291
9730,0.0429,0.7427,0.2455,-19.635,-19.285,-2.065,399,388,333,389,372,2025-05-27T22:38:13.125291
9731,0.0903,0.7930,0.2186,-26.915,-17.990,-5.040,421,403,349,390,387,2025-05-27T22:38:13.125291
9732,0.1425,0.8735,0.1889,-35.210,-15.015,-9.905,396,364,366,394,349,2025-05-27T22:38:13.125291
9733,0.1898,1.0111,0.1645,-42.105,-11.270,-16.660,392,344,374,394,384,2025-05-27T22:38:13.125291
9734,0.2362,1.2034,0.1386,-52.430,-7.245,-25.025,396,370,374,417,402,2025-05-27T22:38:13.125291
9735,0.2733,1.4191,0.1405,-65.135,0.210,-32.270,396,394,386,415,406,2025-05-27T22:38:13.125291
9736,0.2826,1.6343,0.1796,-83.300,6.895,-40.250,417,422,392,365,347,2025-05-27T22:38:13.425699
9737,0.2752,1.9188,0.2367,-105.945,9.730,-44.730,398,378,393,390,341,2025-05-27T22:38:13.425699
9738,0.2577,2.1657,0.2894,-131.530,6.475,-45.080,407,413,381,405,389,2025-05-27T22:38:13.425699
9739,0.2450,2.3746,0.3372,-151.375,-1.435,-39.410,424,410,377,348,364,2025-05-27T22:38:13.425699
9740,0.2338,2.5669,0.3972,-176.050,-10.675,-29.855,361,336,376,332,397,2025-05-27T22:38:13.425699
9741,0.2352,2.7943,0.3816,-199.430,-19.740,-11.480,402,388,385,380,396,2025-05-27T22:38:13.425699
9742,0.2508,2.8914,0.3226,-219.170,-24.710,8.015,394,424,361,389,401,2025-05-27T22:38:13.425699
9743,0.2494,2.9480,0.1962,-234.710,-23.240,35.980,415,343,364,350,399,2025-05-27T22:38:13.425699
9744,0.2577,2.9119,0.0478,-245.000,-14.665,68.810,419,332,381,372,353,2025-05-27T22:38:13.425699
9745,0.2538,2.8255,-0.1884,-259.700,4.480,101.850,342,328,388,388,387,2025-05-27T22:38:13.425699
9746,0.1884,2.6708,-0.4612,-255.325,37.170,132.615,377,327,379,391,394,2025-05-27T22:38:13.425699
9747,-0.0098,2.4746,-0.7398,-255.640,66.745,158.235,414,382,376,407,410,2025-05-27T22:38:13.425699
9748,-0.2489,2.2468,-1.0199,-251.440,94.430,173.145,410,404,349,396,368,2025-05-27T22:38:13.425699
9749,-0.6002,1.9037,-1.2561,-243.285,101.395,180.355,367,427,363,389,383,2025-05-27T22:38:13.425699
9750,-0.9252,1.7763,-1.3108,-236.670,86.590,177.625,409,401,374,404,394,2025-05-27T22:38:13.425699
9751,-1.1795,1.5514,-1.2790,-237.195,50.890,167.930,368,358,389,412,310,2025-05-27T22:38:13.425699
9752,-1.3801,1.2337,-1.2464,-240.380,6.300,151.900,406,355,386,418,385,2025-05-27T22:38:13.425699
9753,-1.6124,0.8433,-1.1258,-242.445,-39.130,125.125,397,399,376,403,399,2025-05-27T22:38:13.425699
9754,-1.7612,0.3177,-0.9633,-235.725,-78.225,97.440,392,407,367,347,380,2025-05-27T22:38:13.425699
9755,-1.8637,-0.1967,-0.6139,-229.180,-121.485,56.665,342,396,377,379,397,2025-05-27T22:38:13.542927
9756,-1.7583,-1.1024,-0.3904,-218.750,-152.845,19.180,402,415,385,407,388,2025-05-27T22:38:13.542927
9757,-1.6992,-2.1272,-0.0488,-214.445,-141.715,-32.550,431,409,393,410,395,2025-05-27T22:38:13.543969
9758,-1.5528,-3.1066,0.2460,-213.850,-115.290,-55.475,403,403,380,400,394,2025-05-27T22:38:13.543969
9759,-1.7602,-3.7864,0.7330,-207.235,-102.515,-39.445,417,425,378,402,401,2025-05-27T22:38:13.543969
9760,-1.5543,-3.9357,1.1590,-197.505,-128.310,-0.070,397,434,385,394,414,2025-05-27T22:38:13.543969
9761,-1.0228,-4.0694,1.2337,-173.950,-143.885,25.795,398,428,311,401,405,2025-05-27T22:38:13.543969
9762,-0.2865,-4.1582,1.4167,-141.995,-116.025,64.505,418,426,362,352,352,2025-05-27T22:38:13.543969
9763,0.5754,-3.9089,1.6904,-100.170,-65.380,90.125,411,405,366,398,392,2025-05-27T22:38:13.543969
9764,1.1741,-3.6742,1.8866,-52.010,-8.575,93.240,414,404,371,388,388,2025-05-27T22:38:13.543969
9765,1.4635,-3.2559,2.0315,-11.480,63.000,75.355,398,348,382,402,407,2025-05-27T22:38:13.543969
9766,1.8446,-2.8480,2.1501,32.830,124.495,42.105,425,390,375,349,404,2025-05-27T22:38:13.543969
9767,1.5274,-2.5722,2.2141,75.740,169.225,7.105,407,407,376,340,355,2025-05-27T22:38:13.543969
9768,1.0311,-2.3278,2.2907,115.815,167.580,-25.760,401,425,383,383,374,2025-05-27T22:38:13.543969
9769,0.4099,-2.1399,2.2780,149.380,134.365,-51.800,405,410,374,408,379,2025-05-27T22:38:13.543969
9770,-0.0210,-1.9213,2.1955,186.480,78.820,-72.765,388,349,379,408,379,2025-05-27T22:38:13.840975
9771,-0.4075,-1.8007,2.0193,217.700,51.940,-84.210,407,393,375,394,386,2025-05-27T22:38:13.840975
9772,-0.6671,-1.6285,1.7441,247.590,50.190,-90.755,304,405,385,389,392,2025-05-27T22:38:13.840975
9773,-0.7208,-1.3464,1.3766,277.690,76.195,-95.585,382,415,376,339,382,2025-05-27T22:38:13.840975
9774,-0.9311,-1.0775,0.9170,303.205,123.655,-88.585,351,391,377,377,399,2025-05-27T22:38:13.840975
9775,-1.2834,-0.7393,0.6285,325.010,159.390,-66.675,386,415,386,390,354,2025-05-27T22:38:13.840975
9776,-1.7056,-0.3016,0.3806,337.645,152.705,-47.600,298,413,386,404,393,2025-05-27T22:38:13.840975
9777,-1.9818,0.0961,0.1005,341.985,90.475,-37.695,378,411,390,397,397,2025-05-27T22:38:13.840975
9778,-1.9491,0.4026,-0.1674,338.030,27.685,-29.190,413,397,382,351,390,2025-05-27T22:38:13.840975
9779,-1.7841,0.6861,-0.6920,327.775,-50.085,-31.045,408,404,387,331,406,2025-05-27T22:38:13.840975
9780,-1.5162,0.9433,-1.0350,316.855,-89.215,-23.415,430,435,392,349,394,2025-05-27T22:38:13.840975
9781,-1.1707,1.0658,-1.2756,292.250,-111.965,-18.760,351,405,384,333,395,2025-05-27T22:38:13.840975
9782,-0.7349,1.2449,-1.3391,256.760,-124.110,-21.490,402,381,382,389,416,2025-05-27T22:38:13.840975
9783,-0.3553,1.3937,-1.4655,218.225,-116.795,-29.680,420,379,382,360,416,2025-05-27T22:38:13.840975
9784,-0.0605,1.4172,-1.4538,192.045,-98.700,-37.415,413,396,377,395,409,2025-05-27T22:38:13.840975
9785,0.1376,1.4416,-1.3059,165.900,-83.720,-44.135,391,421,383,385,409,2025-05-27T22:38:13.840975
9786,0.2362,1.4123,-1.0990,146.230,-73.430,-47.110,415,404,374,361,402,2025-05-27T22:38:13.840975
9787,0.2977,1.3986,-0.8672,133.245,-78.260,-46.550,394,412,374,404,416,2025-05-27T22:38:13.840975
9788,0.3265,1.3913,-0.6281,123.970,-91.980,-50.925,423,391,369,395,397,2025-05-27T22:38:13.840975
9789,0.4192,1.3932,-0.4626,117.040,-106.365,-56.980,417,396,349,382,393,2025-05-27T22:38:13.942022
9790,0.5485,1.4352,-0.4060,112.560,-107.590,-61.635,421,414,377,377,351,2025-05-27T22:38:13.942022
9791,0.5929,1.4860,-0.3113,109.655,-93.835,-65.345,420,404,387,399,390,2025-05-27T22:38:13.942022
9792,0.5822,1.5279,-0.2137,105.245,-72.660,-65.275,423,423,389,415,385,2025-05-27T22:38:13.942022
9793,0.4929,1.5450,-0.1430,101.920,-56.945,-60.480,415,399,380,405,398,2025-05-27T22:38:13.942022
9794,0.3762,1.5670,-0.0630,98.070,-41.930,-57.155,432,423,378,375,406,2025-05-27T22:38:13.942022
9795,0.3050,1.5894,0.0205,90.650,-29.785,-49.770,359,400,386,370,396,2025-05-27T22:38:13.942022
9796,0.1523,1.5709,0.0786,81.025,-22.295,-39.410,418,405,392,404,413,2025-05-27T22:38:13.942022
9797,0.0678,1.5323,0.1176,72.100,-22.505,-28.245,398,421,389,397,407,2025-05-27T22:38:13.942022
9798,0.0088,1.4923,0.1527,65.555,-24.430,-17.535,413,431,385,418,407,2025-05-27T22:38:13.942022
9799,0.0127,1.4679,0.1879,56.560,-24.185,-7.245,389,403,387,422,413,2025-05-27T22:38:13.942022
9800,0.0366,1.4264,0.2108,47.005,-21.420,-0.070,339,387,390,409,408,2025-05-27T22:38:13.942022
9801,0.0834,1.3854,0.2225,38.605,-13.720,6.965,340,419,375,412,410,2025-05-27T22:38:13.942022
9802,0.1205,1.3376,0.2338,31.605,-0.070,12.530,380,411,374,376,363,2025-05-27T22:38:13.942022
9803,0.1113,1.2839,0.2572,27.755,12.530,16.135,386,383,372,359,389,2025-05-27T22:38:13.942022
9804,0.0952,1.2268,0.2782,24.745,19.320,18.935,405,396,304,293,380,2025-05-27T22:38:14.092872
9805,0.0727,1.1868,0.3030,22.785,22.225,21.315,400,354,341,375,389,2025-05-27T22:38:14.092872
9806,0.0195,1.1478,0.3499,19.390,21.525,21.665,338,413,372,401,391,2025-05-27T22:38:14.092872
9807,-0.0083,1.1161,0.3870,16.170,12.915,22.120,398,374,369,411,347,2025-05-27T22:38:14.741815
9808,-0.0122,1.0770,0.3821,11.830,3.815,20.370,388,396,348,398,390,2025-05-27T22:38:14.741976
9809,0.0181,1.0492,0.3562,9.030,3.115,19.005,400,421,354,415,397,2025-05-27T22:38:14.741976
9810,0.0405,1.0102,0.3265,8.715,8.645,17.815,401,414,381,423,412,2025-05-27T22:38:14.741976
9811,0.0195,0.9858,0.3192,9.590,14.455,16.345,389,395,369,404,397,2025-05-27T22:38:14.741976
9812,-0.0088,0.9780,0.3328,9.345,21.210,15.155,402,392,386,416,409,2025-05-27T22:38:14.741976
9813,-0.0395,0.9711,0.3362,7.910,25.900,13.125,390,422,382,424,397,2025-05-27T22:38:14.741976
9814,-0.0791,0.9658,0.3484,6.195,26.635,11.025,418,400,382,408,389,2025-05-27T22:38:14.742490
9815,-0.1083,0.9692,0.3621,4.410,24.640,9.100,402,410,373,399,393,2025-05-27T22:38:14.742490
9816,-0.1337,0.9457,0.3518,2.380,20.860,8.155,390,424,376,354,391,2025-05-27T22:38:14.742490
9817,-0.1484,0.9155,0.3309,3.465,13.755,7.875,407,414,385,385,386,2025-05-27T22:38:14.742490
9818,-0.1488,0.9199,0.3304,4.865,8.750,6.300,424,352,389,383,402,2025-05-27T22:38:14.742490
9819,-0.1235,0.9296,0.3162,3.535,9.380,4.830,392,400,351,401,392,2025-05-27T22:38:14.742490
9820,-0.1298,0.9282,0.3040,1.750,13.055,3.640,422,435,378,394,392,2025-05-27T22:38:14.742490
9821,-0.1464,0.9316,0.2967,1.260,14.945,2.940,416,429,378,388,364,2025-05-27T22:38:14.742490
9822,-0.1713,0.9457,0.3065,-0.280,15.295,3.115,372,399,362,392,354,2025-05-27T22:38:14.742490
9823,-0.1991,0.9448,0.3084,-2.695,14.420,3.605,412,398,381,397,391,2025-05-27T22:38:14.742490
9824,-0.2216,0.9438,0.3074,-3.815,9.905,4.410,392,407,384,405,398,2025-05-27T22:38:14.742490
9825,-0.2103,0.9428,0.3050,-4.410,4.795,5.320,395,342,343,410,394,2025-05-27T22:38:14.742490
9826,-0.1879,0.9438,0.2996,-5.215,3.325,5.495,393,393,353,418,396,2025-05-27T22:38:14.742490
9827,-0.1591,0.9355,0.2923,-6.055,3.710,5.040,404,383,353,420,408,2025-05-27T22:38:14.742490
9828,-0.1386,0.9301,0.2913,-6.685,5.355,4.305,415,418,383,404,371,2025-05-27T22:38:14.742490
9829,-0.1279,0.9350,0.2982,-7.910,9.100,3.570,412,358,392,348,384,2025-05-27T22:38:14.742490
9830,-0.1220,0.9365,0.3040,-8.680,11.935,3.920,349,387,383,389,407,2025-05-27T22:38:14.742490
9831,-0.1396,0.9409,0.3172,-8.890,12.215,3.640,328,342,380,390,400,2025-05-27T22:38:14.742490
9832,-0.1508,0.9482,0.3318,-10.185,11.690,3.395,396,413,344,391,398,2025-05-27T22:38:14.742490
9833,-0.1718,0.9492,0.3484,-11.515,7.910,3.395,427,408,366,406,393,2025-05-27T22:38:14.742490
9834,-0.2020,0.9457,0.3582,-11.865,-0.945,3.010,393,391,367,397,385,2025-05-27T22:38:14.742490
9835,-0.1776,0.9394,0.3543,-10.955,-11.445,3.395,415,415,379,389,400,2025-05-27T22:38:14.742490
9836,-0.1357,0.9287,0.3348,-9.450,-16.030,3.780,299,391,372,401,407,2025-05-27T22:38:14.742490
9837,-0.1010,0.9389,0.3226,-7.840,-13.965,3.080,382,365,377,392,410,2025-05-27T22:38:14.742490
9838,-0.0542,0.9438,0.3055,-7.315,-7.560,2.485,341,407,367,395,406,2025-05-27T22:38:14.742490
9839,-0.0434,0.9379,0.2904,-7.280,1.435,1.470,288,373,371,392,356,2025-05-27T22:38:14.742490
9840,-0.0630,0.9296,0.2899,-8.015,8.225,-0.245,366,389,335,408,339,2025-05-27T22:38:14.742490
9841,-0.0883,0.9160,0.2938,-9.030,9.590,-1.155,328,419,322,398,325,2025-05-27T22:38:14.742490
9842,-0.1240,0.8877,0.3011,-10.360,6.510,-2.030,399,432,319,405,361,2025-05-27T22:38:14.742490
9843,-0.1405,0.7505,0.3084,-10.990,-0.840,-2.590,386,360,319,412,338,2025-05-27T22:38:14.742490
9844,-0.1444,0.8355,0.2967,-9.800,-12.845,-2.240,391,389,346,414,379,2025-05-27T22:38:14.742490
9845,-0.0839,0.8023,0.2689,-8.120,-21.560,-2.345,418,410,374,410,384,2025-05-27T22:38:14.742490
9846,-0.0185,0.7788,0.2469,-8.575,-20.580,-4.200,360,420,384,396,399,2025-05-27T22:38:14.742490
9847,0.0346,0.7462,0.2152,-10.605,-14.385,-6.300,402,402,392,390,390,2025-05-27T22:38:14.742490
9848,0.0771,0.7144,0.1728,-12.985,-5.005,-8.260,393,394,313,403,412,2025-05-27T22:38:14.742490
9849,0.0913,0.7056,0.1615,-16.695,5.915,-10.290,342,419,341,391,403,2025-05-27T22:38:14.742490
9850,0.0781,0.7047,0.1484,-22.330,13.755,-12.425,377,396,327,343,410,2025-05-27T22:38:14.742490
9851,0.0527,0.7086,0.1537,-26.845,14.595,-13.930,335,411,344,380,406,2025-05-27T22:38:14.742490
9852,0.0122,0.7252,0.1557,-31.465,11.795,-16.660,403,346,354,406,359,2025-05-27T22:38:14.742490
9853,0.0185,0.7793,0.1903,-37.240,6.055,-19.355,390,397,362,404,396,2025-05-27T22:38:14.742490
9854,0.0571,0.8589,0.1918,-43.400,0.805,-20.790,400,416,383,395,409,2025-05-27T22:38:14.742490
9855,0.0991,0.9692,0.1903,-50.435,1.225,-25.200,416,435,386,346,409,2025-05-27T22:38:14.742490
9856,0.1571,1.1712,0.1908,-59.675,7.665,-31.045,392,421,345,387,412,2025-05-27T22:38:14.742490
9857,0.2303,1.4230,0.1923,-68.915,16.590,-38.360,424,382,368,417,387,2025-05-27T22:38:14.827353
9858,0.2752,1.7300,0.2255,-86.905,28.875,-43.925,409,388,371,398,397,2025-05-27T22:38:14.827353
9859,0.2684,2.0740,0.2967,-112.350,33.320,-44.975,419,340,371,396,389,2025-05-27T22:38:14.828350
9860,0.2855,2.3512,0.3694,-140.875,28.700,-38.745,418,394,339,403,379,2025-05-27T22:38:14.828350
9861,0.3035,2.5752,0.3626,-166.110,11.480,-29.330,397,413,360,407,395,2025-05-27T22:38:14.828350
9862,0.3738,2.8597,0.3255,-182.560,-11.375,-15.750,407,422,380,350,411,2025-05-27T22:38:14.828350
9863,0.4895,3.0788,0.1625,-194.390,-31.850,7.210,392,398,372,398,411,2025-05-27T22:38:14.828350
9864,0.6915,3.2027,-0.1420,-202.335,-34.090,38.535,386,429,366,409,409,2025-05-27T22:38:14.828350
9865,0.8447,3.2184,-0.4660,-212.660,-17.745,70.315,392,301,369,395,405,2025-05-27T22:38:14.828350
9866,0.8760,3.1027,-0.8330,-223.860,30.765,97.825,386,386,373,388,416,2025-05-27T22:38:14.828350
9867,0.7305,2.8772,-1.0502,-241.010,91.490,114.345,421,410,385,410,419,2025-05-27T22:38:14.828350
9868,0.5168,2.6342,-1.3610,-257.425,146.440,125.160,416,347,384,399,413,2025-05-27T22:38:14.828350
9869,0.1015,2.3239,-1.4557,-277.620,178.710,119.980,396,397,381,390,405,2025-05-27T22:38:14.828350
9870,-0.4080,1.9388,-1.5045,-292.390,170.940,108.325,400,403,376,369,406,2025-05-27T22:38:14.828350
9871,-0.9579,1.5782,-1.3752,-300.755,112.840,87.920,421,418,375,337,392,2025-05-27T22:38:14.829824
9872,-1.2971,1.2790,-1.2786,-308.315,16.450,65.205,413,431,380,337,400,2025-05-27T22:38:14.829824
9873,-1.4742,0.9692,-1.1414,-316.015,-63.350,36.470,361,404,382,383,399,2025-05-27T22:38:14.829824
9874,-1.5562,0.5905,-1.0790,-322.945,-122.955,14.805,385,403,387,404,409,2025-05-27T22:38:14.829824
9875,-1.7607,0.0049,-0.8403,-327.985,-141.085,2.695,336,415,393,402,370,2025-05-27T22:38:14.829824
9876,-2.0037,-0.8438,-0.6471,-316.470,-122.255,4.095,340,385,377,389,401,2025-05-27T22:38:14.907593
9877,-2.4810,-1.8715,-0.3533,-303.345,-78.855,-24.920,382,422,355,382,413,2025-05-27T22:38:14.907593
9878,-2.4732,-2.8528,0.2308,-268.835,-40.215,-39.725,410,402,373,406,406,2025-05-27T22:38:14.907875
9879,-2.4995,-3.4209,0.5485,-236.740,-37.450,-35.350,392,301,364,375,403,2025-05-27T22:38:14.907875
9880,-2.2912,-3.7151,0.9238,-201.845,-82.915,-16.310,387,399,359,384,402,2025-05-27T22:38:14.907975
9881,-1.9022,-3.9538,1.2215,-148.855,-145.495,23.800,424,400,381,382,406,2025-05-27T22:38:14.907975
9882,-1.1385,-3.9728,1.2991,-83.895,-183.855,61.110,395,422,357,404,358,2025-05-27T22:38:14.907975
9883,-0.2699,-3.7796,1.3610,-20.440,-165.130,85.855,398,407,376,404,354,2025-05-27T22:38:14.992177
9884,0.9926,-3.4814,1.4250,19.915,-66.325,113.295,424,346,391,392,335,2025-05-27T22:38:14.992177
9885,1.3205,-3.1154,1.5304,38.780,80.465,121.800,411,383,387,388,328,2025-05-27T22:38:14.992177
9886,1.3727,-2.5781,1.6963,53.830,196.350,116.235,378,397,377,402,363,2025-05-27T22:38:14.992177
9887,1.0624,-2.3092,1.9774,59.850,218.365,91.945,335,399,374,364,371,2025-05-27T22:38:14.992177
9888,0.5139,-2.1199,2.1901,69.685,161.035,63.490,391,418,392,395,377,2025-05-27T22:38:14.992177
9889,0.1527,-1.9998,2.2350,87.570,58.835,39.130,388,377,382,412,342,2025-05-27T22:38:14.992177
9890,0.0991,-1.7929,2.1511,107.240,-39.340,6.545,388,412,386,401,376,2025-05-27T22:38:14.992177
9891,0.2172,-1.5904,1.9881,130.375,-73.955,-22.855,398,427,395,403,378,2025-05-27T22:38:15.075724
9892,0.3479,-1.3854,1.7329,149.730,-64.855,-49.385,402,412,386,422,401,2025-05-27T22:38:15.075724
9893,0.3767,-1.1790,1.4542,170.555,-18.130,-67.655,386,411,395,402,395,2025-05-27T22:38:15.075724
9894,0.1801,-0.9994,1.1922,191.450,47.495,-80.640,405,350,394,350,408,2025-05-27T22:38:15.075724
9895,-0.2313,-0.7486,1.0541,210.875,99.750,-86.590,349,407,380,355,414,2025-05-27T22:38:15.075724
9896,-0.6798,-0.4587,0.9394,225.260,108.220,-91.420,410,306,383,401,412,2025-05-27T22:38:15.075724
9897,-1.0336,-0.1640,0.7871,232.925,91.700,-94.395,426,358,394,397,411,2025-05-27T22:38:15.177643
9898,-1.2439,0.0644,0.5690,250.810,47.530,-96.040,425,384,380,390,413,2025-05-27T22:38:15.177643
9899,-1.2546,0.3050,0.3021,250.600,0.980,-99.890,396,409,382,417,396,2025-05-27T22:38:15.177643
9900,-1.1751,0.4665,0.0434,255.850,-18.340,-98.245,394,433,391,400,409,2025-05-27T22:38:15.177643
9901,-1.0316,0.6207,-0.1972,257.880,-18.445,-91.805,390,405,383,387,412,2025-05-27T22:38:15.177643
9902,-0.9213,0.7159,-0.4006,258.020,-3.010,-82.495,424,415,390,410,366,2025-05-27T22:38:15.177643
9903,-0.8638,0.8926,-0.5002,254.135,17.850,-72.800,348,344,399,397,389,2025-05-27T22:38:15.177643
9904,-0.8194,0.9965,-0.5944,246.715,32.340,-58.310,380,336,361,414,387,2025-05-27T22:38:15.177643
9905,-0.8223,1.1126,-0.6271,238.945,29.715,-43.400,413,401,386,356,389,2025-05-27T22:38:15.177643
9906,-0.7623,1.1390,-0.5998,230.965,9.100,-29.260,430,364,359,391,349,2025-05-27T22:38:15.308866
9907,-0.6066,1.1595,-0.5207,220.780,-1.995,-18.620,393,418,382,345,387,2025-05-27T22:38:15.308866
9908,-0.4929,1.2420,-0.5388,209.160,-21.560,-12.320,402,425,378,384,346,2025-05-27T22:38:15.308866
9909,-0.3206,1.2576,-0.4602,195.335,-41.125,-6.720,405,420,386,394,340,2025-05-27T22:38:15.308866
9910,-0.1606,1.2991,-0.3977,178.885,-58.065,-2.975,408,433,375,409,390,2025-05-27T22:38:15.308866
9911,-0.0303,1.3142,-0.3318,165.655,-65.835,0.105,400,386,386,421,403,2025-05-27T22:38:15.308866
9912,0.0595,1.2991,-0.2567,149.380,-67.410,-2.100,335,388,390,405,399,2025-05-27T22:38:15.308866
9913,0.2386,1.3249,-0.2050,136.080,-65.975,-4.585,327,390,392,406,407,2025-05-27T22:38:15.308866
9914,0.1366,1.3347,-0.1469,127.085,-62.825,-6.545,387,392,379,350,416,2025-05-27T22:38:15.308866
9915,0.1410,1.3454,-0.0576,120.890,-60.760,-6.965,405,417,381,395,409,2025-05-27T22:38:15.308866
9916,0.1166,1.3449,-0.0059,115.395,-60.235,-7.280,411,428,343,413,416,2025-05-27T22:38:15.308866
9917,0.1347,1.3957,0.0517,100.380,-58.380,-8.050,370,401,324,403,392,2025-05-27T22:38:15.476726
9918,0.1684,1.4254,0.0776,98.665,-52.605,-7.035,405,397,346,404,357,2025-05-27T22:38:15.476726
9919,0.1591,1.4225,0.0888,86.555,-44.240,-4.410,409,400,330,409,392,2025-05-27T22:38:15.476726
9920,0.1137,1.3952,0.1088,75.075,-34.930,-2.135,423,393,351,401,406,2025-05-27T22:38:15.476726
9921,0.0703,1.3713,0.1332,66.115,-30.170,1.225,437,423,357,394,410,2025-05-27T22:38:15.476726
9922,0.0137,1.3357,0.1552,58.520,-28.455,4.690,414,407,372,399,386,2025-05-27T22:38:15.476726
9923,-0.0229,1.3000,0.1513,52.920,-27.720,7.805,362,424,346,395,348,2025-05-27T22:38:15.476726
9924,-0.0459,1.2859,0.1840,44.695,-26.530,10.815,369,403,323,383,369,2025-05-27T22:38:15.476726
9925,-0.0620,1.2747,0.2152,33.915,-23.555,13.720,411,424,348,345,395,2025-05-27T22:38:15.476726
9926,-0.0766,1.2268,0.2152,24.290,-21.910,17.605,415,410,332,335,387,2025-05-27T22:38:15.476726
9927,-0.0898,1.1907,0.2294,18.305,-21.875,22.190,394,406,369,393,391,2025-05-27T22:38:15.476726
9928,-0.0732,1.1751,0.2557,12.775,-19.670,25.865,416,386,343,382,397,2025-05-27T22:38:15.476726
9929,-0.0327,1.1409,0.2689,8.960,-14.035,29.295,426,392,334,369,400,2025-05-27T22:38:15.476726
9930,-0.0434,1.0980,0.2874,6.020,-8.715,30.800,432,420,355,403,387,2025-05-27T22:38:15.476726
9931,-0.0405,1.0663,0.3099,4.935,-4.130,30.590,419,393,355,384,306,2025-05-27T22:38:15.641831
9932,-0.0405,1.0228,0.3231,5.180,-2.240,29.575,406,419,380,401,377,2025-05-27T22:38:15.641831
9933,-0.0425,0.9975,0.3309,5.950,-1.400,28.000,410,400,352,393,378,2025-05-27T22:38:15.641831
9934,-0.0317,0.9765,0.3289,6.335,-1.015,24.920,402,420,374,404,340,2025-05-27T22:38:15.641831
9935,-0.0068,0.9614,0.3279,5.530,0.560,22.050,423,348,337,404,344,2025-05-27T22:38:15.641831
9936,0.0020,0.9409,0.3172,4.025,4.305,18.935,401,406,363,387,371,2025-05-27T22:38:15.641831
9937,0.0029,0.9150,0.3109,3.570,6.475,16.800,390,418,373,408,392,2025-05-27T22:38:15.641831
9938,-0.0063,0.9179,0.3157,3.220,8.260,14.910,355,348,384,411,401,2025-05-27T22:38:15.641831
9939,-0.0190,0.9252,0.3245,1.610,9.590,11.795,396,289,368,359,397,2025-05-27T22:38:15.641831
9940,-0.0356,0.9282,0.3284,0.770,8.820,9.275,329,391,378,404,399,2025-05-27T22:38:15.800918
9941,-0.0429,0.9316,0.3196,0.385,6.895,7.630,328,428,381,391,389,2025-05-27T22:38:15.800918
9942,-0.0576,0.9321,0.3201,-0.805,6.370,5.425,396,387,383,381,377,2025-05-27T22:38:15.800918
9943,-0.0683,0.9340,0.3333,-2.310,6.195,3.185,414,425,387,393,390,2025-05-27T22:38:15.800918
9944,-0.0776,0.9326,0.3240,-3.185,5.565,1.890,397,412,389,409,402,2025-05-27T22:38:15.800918
9945,-0.0956,0.9404,0.3309,-3.395,5.740,0.735,390,408,351,350,365,2025-05-27T22:38:15.800918
9946,-0.1083,0.9433,0.3309,-3.255,5.635,0.140,403,418,365,384,390,2025-05-27T22:38:15.800918
9947,-0.1161,0.9570,0.3431,-3.430,4.690,0.000,394,428,365,386,390,2025-05-27T22:38:15.800918
9948,-0.1205,0.9658,0.3528,-4.025,4.585,0.175,419,423,381,391,387,2025-05-27T22:38:15.800918
9949,-0.1332,0.9623,0.3499,-4.235,5.390,0.945,399,415,384,405,384,2025-05-27T22:38:15.800918
9950,-0.1396,0.9736,0.3543,-3.955,6.545,1.400,375,425,386,396,384,2025-05-27T22:38:15.800918
9951,-0.1537,0.9775,0.3621,-4.410,7.350,2.100,415,402,395,385,398,2025-05-27T22:38:15.800918
9952,-0.1688,0.9755,0.3680,-4.795,6.125,3.360,424,433,378,391,389,2025-05-27T22:38:15.800918
9953,-0.1889,0.9667,0.3699,-4.935,2.695,4.270,411,419,381,403,381,2025-05-27T22:38:15.800918
9954,-0.1791,0.9672,0.3621,-5.040,-0.910,5.390,340,431,379,384,304,2025-05-27T22:38:15.800918
9955,-0.1654,0.9633,0.3548,-5.495,-3.395,6.125,371,397,380,380,316,2025-05-27T22:38:15.800918
9956,-0.1376,0.9599,0.3450,-6.055,-4.760,6.895,348,396,387,403,365,2025-05-27T22:38:15.800918
9957,-0.1127,0.9565,0.3440,-7.140,-3.885,7.770,384,405,373,347,384,2025-05-27T22:38:16.458239
9958,-0.1030,0.9477,0.3436,-8.855,-1.750,7.595,389,417,379,395,392,2025-05-27T22:38:16.459178
9959,-0.0966,0.9355,0.3470,-9.240,-0.455,7.840,407,422,385,408,310,2025-05-27T22:38:16.459406
9960,-0.1088,0.9287,0.3558,-9.135,-0.630,7.490,358,370,390,393,317,2025-05-27T22:38:16.459494
