SeqNum,AccX,AccY,AccZ,GyroX,GyroY,GyroZ,Flex,Force1,Force2,Force3,Force4,TimestampReception
14984,0.4143,-0.8208,0.2894,6.580,11.200,-1.610,463,433,292,367,367,2025-05-27T11:30:37.195852
14985,-0.5597,-0.8891,0.6154,-83.475,40.425,86.100,482,414,297,346,344,2025-05-27T11:30:37.195852
14986,-0.6373,-0.9262,0.6173,-78.995,44.240,88.375,436,365,340,336,343,2025-05-27T11:30:37.195852
14987,-0.7232,-0.9594,0.6120,-74.165,44.240,90.160,398,349,367,369,378,2025-05-27T11:30:37.195852
14988,-0.8115,-1.0136,0.6134,-66.115,40.145,89.460,426,427,377,381,385,2025-05-27T11:30:37.195852
14989,-0.8896,-0.9838,0.6149,-54.110,30.800,93.030,424,388,386,395,400,2025-05-27T11:30:37.195852
14990,-0.9257,-1.0106,0.6349,-36.610,18.095,93.800,407,397,391,394,398,2025-05-27T11:30:37.195852
14991,-0.9926,-0.9833,0.6598,-24.220,4.445,96.040,383,391,387,338,405,2025-05-27T11:30:37.195852
14992,-1.0326,-0.9950,0.6866,-9.170,-10.815,94.150,403,394,382,399,402,2025-05-27T11:30:37.195852
14993,-1.0643,-1.0238,0.7149,7.385,-26.215,90.335,410,405,340,398,410,2025-05-27T11:30:37.195852
14994,-1.0624,-0.9740,0.7320,20.545,-42.000,92.260,415,428,370,399,396,2025-05-27T11:30:37.195852
14995,-1.0316,-1.0087,0.7300,41.720,-53.060,94.850,403,433,380,395,397,2025-05-27T11:30:37.195852
14996,-1.0058,-0.9989,0.7427,58.975,-63.805,96.670,392,429,370,400,409,2025-05-27T11:30:37.195852
14997,-0.9809,-0.9384,0.7930,76.055,-67.795,98.490,334,395,368,348,412,2025-05-27T11:30:37.195852
14998,-0.9013,-0.8701,0.8467,88.060,-67.795,102.375,386,409,374,380,401,2025-05-27T11:30:37.195852
14999,-0.8760,-0.7920,0.8784,94.955,-63.280,109.130,403,420,375,376,392,2025-05-27T11:30:37.195852
15000,-0.8276,-0.8091,0.9409,101.080,-56.945,112.350,370,433,378,401,385,2025-05-27T11:30:37.295671
15001,-0.7915,-0.6056,0.9931,115.640,-53.900,126.315,378,434,346,349,394,2025-05-27T11:30:37.295671
15002,-0.7969,-0.6964,0.9750,117.635,-49.770,131.285,376,351,354,351,398,2025-05-27T11:30:37.295671
15003,-0.7818,-0.6773,0.9560,123.795,-42.280,134.820,392,389,362,379,407,2025-05-27T11:30:37.295671
15004,-0.7559,-0.6373,0.9672,128.520,-32.830,137.935,337,399,364,386,402,2025-05-27T11:30:37.295671
15005,-0.7281,-0.6051,0.9658,134.155,-18.760,143.115,338,423,367,408,408,2025-05-27T11:30:37.295671
15006,-0.7320,-0.5632,0.9584,141.750,-5.005,151.130,285,400,384,310,369,2025-05-27T11:30:37.295671
15007,-0.7720,-0.5212,0.9706,147.630,6.370,159.005,360,372,352,317,401,2025-05-27T11:30:37.295671
15008,-0.8174,-0.5095,0.9443,150.640,13.160,165.305,401,421,370,283,400,2025-05-27T11:30:37.545996
15009,-0.8564,-0.5168,0.8974,151.900,11.760,174.300,421,415,367,304,348,2025-05-27T11:30:37.545996
15010,-0.9028,-0.4133,0.8589,156.870,3.920,180.495,400,362,329,373,376,2025-05-27T11:30:37.545996
15011,-0.9096,-0.3567,0.8252,163.240,-4.480,180.285,402,420,360,303,393,2025-05-27T11:30:37.545996
15012,-0.9077,-0.2860,0.7632,168.875,-13.825,176.470,413,401,367,369,403,2025-05-27T11:30:37.545996
15013,-0.8804,-0.2625,0.7086,173.775,-23.695,172.865,387,393,371,395,400,2025-05-27T11:30:37.545996
15014,-0.8828,-0.2313,0.6510,178.745,-33.880,166.425,409,413,364,365,409,2025-05-27T11:30:37.545996
15015,-0.8857,-0.2098,0.5954,184.310,-45.640,159.915,407,432,348,388,366,2025-05-27T11:30:37.545996
15016,-0.8384,-0.1713,0.5461,189.630,-60.130,151.725,403,396,319,393,377,2025-05-27T11:30:37.545996
15017,-0.7989,-0.1523,0.4836,195.300,-75.040,146.230,400,355,353,346,401,2025-05-27T11:30:37.545996
15018,-0.7735,-0.1186,0.4377,201.460,-96.950,140.910,419,392,375,377,405,2025-05-27T11:30:37.545996
15019,-0.7159,-0.0708,0.3982,205.555,-104.930,131.495,434,422,384,347,404,2025-05-27T11:30:37.545996
15020,-0.6720,-0.0459,0.3606,207.865,-119.560,122.395,427,427,340,387,399,2025-05-27T11:30:37.545996
15021,-0.6139,-0.0298,0.3250,207.095,-130.200,109.900,414,410,323,340,384,2025-05-27T11:30:37.545996
15022,-0.5324,-0.0010,0.3016,203.980,-136.955,98.700,399,340,363,369,379,2025-05-27T11:30:37.545996
15023,-0.4695,0.0551,0.2625,197.260,-136.255,88.235,428,415,364,409,387,2025-05-27T11:30:37.545996
15024,-0.4046,0.0986,0.2450,188.650,-126.490,77.595,432,388,379,397,389,2025-05-27T11:30:37.545996
15025,-0.3489,0.1737,0.2689,174.545,-109.480,66.920,346,366,338,400,349,2025-05-27T11:30:37.545996
15026,-0.3060,0.2001,0.2601,157.465,-89.355,58.835,395,394,359,408,373,2025-05-27T11:30:37.729092
15027,-0.2894,0.2313,0.2420,138.985,-67.130,51.730,403,404,366,399,380,2025-05-27T11:30:37.729092
15028,-0.2616,0.2586,0.2338,119.245,-47.285,44.905,382,369,375,397,391,2025-05-27T11:30:37.729092
15029,-0.2440,0.2830,0.2430,98.490,-20.860,39.235,415,415,336,344,363,2025-05-27T11:30:37.729092
15030,-0.2172,0.3084,0.2733,77.840,5.530,36.295,398,355,351,369,377,2025-05-27T11:30:37.729092
15031,-0.2240,0.3167,0.2752,59.045,28.070,33.425,415,408,377,406,401,2025-05-27T11:30:37.729092
15032,-0.2274,0.3201,0.2884,41.965,46.305,31.010,421,417,381,395,405,2025-05-27T11:30:37.729092
15033,-0.2367,0.3460,0.2957,28.840,61.040,28.560,418,422,372,391,385,2025-05-27T11:30:37.729092
15034,-0.2411,0.3733,0.2660,13.300,79.345,26.530,410,414,373,402,385,2025-05-27T11:30:37.729092
15035,-0.2455,0.4006,0.2562,-0.420,78.820,24.220,387,344,303,346,404,2025-05-27T11:30:37.729092
15036,-0.2499,0.4319,0.2542,-13.125,84.945,22.120,419,413,346,381,408,2025-05-27T11:30:37.729092
15037,-0.2523,0.4900,0.2718,-26.040,90.650,18.550,413,416,371,400,414,2025-05-27T11:30:37.729092
15038,-0.2884,0.5534,0.2840,-40.075,97.125,12.145,406,354,383,342,347,2025-05-27T11:30:37.729092
15039,-0.2865,0.6217,0.2913,-60.760,104.265,3.780,414,339,372,394,399,2025-05-27T11:30:37.729092
15040,-0.3099,0.6442,0.2767,-65.205,111.825,-5.320,388,397,377,411,407,2025-05-27T11:30:37.729092
15041,-0.3494,0.6188,0.2860,-76.510,116.760,-15.925,418,416,380,395,391,2025-05-27T11:30:37.729092
15042,-0.4002,0.5919,0.3567,-84.490,118.055,-26.390,416,302,376,392,392,2025-05-27T11:30:37.729092
15043,-0.4665,0.5461,0.3792,-85.155,112.840,-35.560,392,323,365,397,407,2025-05-27T11:30:37.812771
15044,-0.5558,0.5114,0.4138,-85.995,99.645,-45.535,413,406,381,406,409,2025-05-27T11:30:37.812771
15045,-0.6124,0.4890,0.4826,-82.355,80.780,-57.575,341,385,374,412,357,2025-05-27T11:30:37.812771
15046,-0.6178,0.4763,0.4939,-77.910,59.745,-68.110,389,420,383,393,371,2025-05-27T11:30:37.812771
15047,-0.6344,0.4753,0.4948,-74.375,42.280,-77.070,409,422,377,386,388,2025-05-27T11:30:37.812771
15048,-0.6588,0.4607,0.5602,-72.940,28.735,-86.450,432,413,380,370,386,2025-05-27T11:30:37.812771
15049,-0.6544,0.4670,0.6564,-72.030,17.430,-93.450,437,396,349,337,391,2025-05-27T11:30:37.812771
15050,-0.6559,0.4826,0.6739,-71.995,11.585,-98.385,403,334,333,368,401,2025-05-27T11:30:37.812771
15051,-0.6798,0.4485,0.6764,-71.330,7.980,-101.080,409,397,365,383,396,2025-05-27T11:30:37.906680
15052,-0.7037,0.4182,0.7276,-71.750,4.200,-100.940,397,415,377,388,351,2025-05-27T11:30:37.906680
15053,-0.7013,0.3943,0.7784,-69.930,1.645,-96.250,392,370,384,410,336,2025-05-27T11:30:37.906680
15054,-0.7213,0.3733,0.7871,-68.565,1.820,-89.460,360,399,376,354,333,2025-05-27T11:30:37.906680
15055,-0.7447,0.3440,0.8330,-66.640,4.795,-82.775,414,423,365,377,383,2025-05-27T11:30:38.007780
15056,-0.7540,0.3523,0.9130,-64.715,6.825,-76.965,411,405,363,398,400,2025-05-27T11:30:38.007780
15057,-0.7569,0.3367,0.9404,-62.965,8.435,-70.280,402,422,369,406,411,2025-05-27T11:30:38.007780
15058,-0.7959,0.3162,0.9570,-58.800,9.135,-64.260,419,397,375,390,401,2025-05-27T11:30:38.007780
15059,-0.8506,0.3172,0.9804,-54.355,5.390,-59.535,341,412,350,369,385,2025-05-27T11:30:38.007780
15060,-0.9048,0.3026,0.9823,-44.240,-0.910,-54.215,379,420,373,374,369,2025-05-27T11:30:38.007780
15061,-0.9433,0.2987,1.0019,-27.300,-11.375,-48.790,398,421,384,384,356,2025-05-27T11:30:38.007780
15062,-0.9365,0.2782,1.0077,-26.635,-22.015,-42.805,412,429,343,392,392,2025-05-27T11:30:38.007780
15063,-0.8969,0.2669,0.9931,-17.185,-30.450,-37.835,420,305,354,401,389,2025-05-27T11:30:38.007780
15064,-0.8628,0.2699,0.9628,-9.275,-37.660,-32.585,422,396,375,406,343,2025-05-27T11:30:38.007780
15065,-0.8335,0.2816,0.9579,-4.235,-42.105,-26.845,424,418,374,423,395,2025-05-27T11:30:38.007780
15066,-0.8008,0.2830,0.9326,-1.960,-44.485,-23.310,422,405,384,385,348,2025-05-27T11:30:38.128858
15067,-0.7862,0.3660,0.9072,-0.980,-46.235,-22.085,429,424,388,397,386,2025-05-27T11:30:38.128858
15068,-0.7066,0.2601,0.8520,0.840,-47.390,-14.595,432,412,384,378,395,2025-05-27T11:30:38.128858
15069,-0.6871,0.2328,0.8037,2.555,-46.690,-10.780,427,392,387,389,397,2025-05-27T11:30:38.128858
15070,-0.6734,0.2503,0.7901,1.575,-46.060,-8.190,420,401,372,358,393,2025-05-27T11:30:38.128858
15071,-0.6666,0.2435,0.7701,2.065,-43.890,-7.980,394,405,383,378,404,2025-05-27T11:30:38.128858
15072,-0.6456,0.1757,0.7315,0.420,-42.210,-4.025,298,424,384,399,390,2025-05-27T11:30:38.128858
15073,-0.6759,0.2035,0.7208,-0.770,-42.700,-3.010,367,341,378,400,396,2025-05-27T11:30:38.128858
15074,-0.6837,0.1469,0.6812,-2.975,-44.345,-3.150,357,382,308,408,394,2025-05-27T11:30:38.128858
15075,-0.6690,0.1688,0.6876,-1.820,-45.570,-2.275,410,390,343,395,392,2025-05-27T11:30:38.128858
15076,-0.6622,0.1630,0.6798,-2.450,-45.955,-2.485,429,399,366,411,382,2025-05-27T11:30:38.178748
15077,-0.6495,0.1420,0.6720,-3.115,-45.990,-2.835,427,396,341,397,386,2025-05-27T11:30:38.178748
15078,-0.6432,0.1313,0.6861,-4.515,-45.465,-3.850,350,417,359,388,407,2025-05-27T11:30:38.178748
15079,-0.6256,0.1147,0.6993,-7.070,-43.750,-4.760,328,421,357,410,357,2025-05-27T11:30:38.178748
15080,-0.6134,0.0893,0.7047,-9.695,-41.825,-5.425,401,420,373,394,394,2025-05-27T11:30:38.178748
15081,-0.5973,0.0693,0.7213,-11.375,-38.360,-5.775,423,416,345,346,405,2025-05-27T11:30:38.360680
15082,-0.5714,0.0473,0.7320,-12.495,-34.265,-5.215,413,393,373,388,360,2025-05-27T11:30:38.360680
15083,-0.5568,0.0371,0.7437,-13.405,-28.035,-3.850,426,366,384,403,379,2025-05-27T11:30:38.360680
15084,-0.5319,0.0371,0.7608,-14.350,-20.930,-2.940,409,394,387,396,353,2025-05-27T11:30:38.360680
15085,-0.5114,0.0371,0.7871,-15.960,-13.230,-2.310,401,421,384,391,379,2025-05-27T11:30:38.360680
15086,-0.4851,0.0425,0.8042,-18.305,-5.530,-1.960,409,421,376,396,402,2025-05-27T11:30:38.360680
15087,-0.4631,0.0395,0.8140,-19.810,1.855,-1.680,402,417,378,397,389,2025-05-27T11:30:38.360680
15088,-0.4451,0.0410,0.8164,-19.705,7.630,-2.800,415,401,370,305,375,2025-05-27T11:30:38.360680
15089,-0.4431,0.0395,0.8237,-17.850,13.755,-4.620,397,336,337,361,397,2025-05-27T11:30:38.360680
15090,-0.4421,0.0439,0.8428,-16.555,17.745,-7.770,392,354,367,396,357,2025-05-27T11:30:38.360680
15091,-0.4451,0.0464,0.8555,-15.155,19.915,-11.095,399,385,381,409,390,2025-05-27T11:30:38.360680
15092,-0.4519,0.0459,0.8530,-12.215,21.350,-14.560,424,344,375,417,402,2025-05-27T11:30:38.360680
15093,-0.4573,0.0503,0.8564,-9.240,22.470,-18.095,406,411,381,416,394,2025-05-27T11:30:38.360680
15094,-0.4651,0.0586,0.8618,-5.845,22.750,-21.385,421,347,382,406,396,2025-05-27T11:30:38.360680
15095,-0.4670,0.0708,0.8686,-3.605,24.255,-23.835,430,413,373,392,391,2025-05-27T11:30:38.360680
15096,-0.4714,0.0722,0.8725,-1.680,26.775,-25.865,406,429,335,409,386,2025-05-27T11:30:38.545202
15097,-0.4846,0.0683,0.8794,0.070,29.470,-27.790,422,358,369,388,397,2025-05-27T11:30:38.545202
15098,-0.5061,0.0590,0.8818,1.120,31.710,-29.995,391,406,381,403,387,2025-05-27T11:30:38.545202
15099,-0.5270,0.0542,0.8686,2.205,32.935,-32.340,337,413,373,413,394,2025-05-27T11:30:38.545202
15100,-0.5475,0.0493,0.8589,4.095,33.355,-34.230,416,412,374,404,414,2025-05-27T11:30:38.545310
15101,-0.5680,0.0512,0.8530,5.250,32.410,-35.595,421,419,377,410,397,2025-05-27T11:30:38.545310
15102,-0.5817,0.0434,0.8447,5.880,30.450,-36.890,392,432,385,352,396,2025-05-27T11:30:38.545310
15103,-0.6007,0.0327,0.8403,5.985,27.440,-37.835,406,431,381,394,410,2025-05-27T11:30:38.545310
15104,-0.6198,0.0205,0.8345,5.845,23.695,-38.885,421,408,353,385,408,2025-05-27T11:30:38.545310
15105,-0.6578,0.0117,0.8276,5.775,19.845,-40.670,382,419,372,363,384,2025-05-27T11:30:38.545310
15106,-0.6754,0.0107,0.8291,5.110,14.350,-42.105,352,422,382,396,365,2025-05-27T11:30:38.545310
15107,-0.6808,0.0039,0.8316,3.150,10.535,-42.525,389,415,383,409,373,2025-05-27T11:30:38.545445
15108,-0.6783,0.0122,0.8408,1.120,9.485,-41.160,386,402,390,425,390,2025-05-27T11:30:38.545445
15109,-0.6910,0.0073,0.8540,-1.225,8.715,-39.130,361,341,382,405,399,2025-05-27T11:30:38.545445
15110,-0.7164,-0.0039,0.8833,-4.200,5.915,-37.730,325,387,369,406,396,2025-05-27T11:30:38.545445
15111,-0.7340,-0.0063,0.9150,-6.090,1.330,-36.365,338,418,376,380,402,2025-05-27T11:30:38.729034
15112,-0.7496,0.0015,0.9594,-5.355,-6.475,-35.805,344,428,373,382,414,2025-05-27T11:30:38.729034
15113,-0.7569,0.0215,1.0053,-3.255,-15.295,-35.525,389,424,380,406,399,2025-05-27T11:30:38.729034
15114,-0.7496,0.0439,1.0429,0.210,-24.535,-34.825,395,400,339,404,350,2025-05-27T11:30:38.729034
15115,-0.7598,0.0810,1.0878,5.635,-35.105,-32.760,341,419,359,393,390,2025-05-27T11:30:38.729034
15116,-0.7623,0.1488,1.1453,10.640,-46.935,-29.470,403,435,362,396,353,2025-05-27T11:30:38.729034
15117,-0.7525,0.2294,1.2005,14.980,-55.825,-23.835,425,429,358,400,357,2025-05-27T11:30:38.729034
15118,-0.7325,0.3030,1.2327,15.995,-63.280,-17.220,419,431,375,412,341,2025-05-27T11:30:38.729034
15119,-0.7252,0.3543,1.2424,15.750,-67.060,-5.775,394,408,386,401,375,2025-05-27T11:30:38.729034
15120,-0.7388,0.4006,1.2410,14.910,-69.825,7.805,422,399,375,392,340,2025-05-27T11:30:38.729034
15121,-0.7745,0.4333,1.2171,13.440,-72.450,22.645,409,396,382,407,369,2025-05-27T11:30:38.729034
15122,-0.8447,0.4773,1.1897,11.690,-74.830,36.855,427,407,392,398,394,2025-05-27T11:30:38.729034
15123,-0.9179,0.5358,1.1595,8.050,-76.755,50.610,425,420,382,394,391,2025-05-27T11:30:38.729034
15124,-0.9799,0.5793,1.1122,3.710,-80.115,62.055,430,437,374,409,405,2025-05-27T11:30:38.729034
15125,-1.0624,0.5851,1.0516,0.455,-85.610,77.210,391,414,377,402,411,2025-05-27T11:30:38.729034
15126,-1.1444,0.5949,1.0092,-2.345,-95.025,91.910,416,347,371,346,411,2025-05-27T11:30:38.729034
15127,-1.2151,0.5880,0.9579,-5.425,-108.080,106.925,338,386,388,395,403,2025-05-27T11:30:38.828846
15128,-1.2898,0.5539,0.8965,-17.465,-128.100,122.780,376,359,347,403,386,2025-05-27T11:30:38.828846
15129,-1.3381,0.5236,0.8330,-10.535,-153.755,139.125,396,349,326,349,393,2025-05-27T11:30:38.828846
15130,-1.3303,0.5324,0.7842,-11.760,-175.315,155.155,427,382,361,390,408,2025-05-27T11:30:38.828846
15131,-1.2849,0.5446,0.7193,-12.180,-194.950,172.095,368,401,380,400,417,2025-05-27T11:30:38.828846
15132,-1.2234,0.5422,0.6612,-12.460,-203.980,185.115,404,422,386,409,407,2025-05-27T11:30:38.828846
15133,-1.1492,0.5324,0.6349,-11.970,-204.190,200.165,391,398,351,396,411,2025-05-27T11:30:38.828846
15134,-1.0751,0.4782,0.6242,-11.830,-198.170,215.600,383,416,380,402,409,2025-05-27T11:30:38.828846
15135,-1.0077,0.4543,0.6139,-13.475,-187.565,232.295,338,369,373,396,401,2025-05-27T11:30:38.828846
15136,-0.9433,0.4270,0.6071,-17.290,-173.985,248.850,325,379,386,388,404,2025-05-27T11:30:38.944560
15137,-0.8940,0.3797,0.5900,-21.315,-159.600,263.550,393,416,392,353,406,2025-05-27T11:30:38.944560
15138,-0.8530,0.3172,0.5695,-26.670,-145.915,274.540,393,417,376,378,404,2025-05-27T11:30:38.944560
15139,-0.8135,0.2611,0.5358,-31.045,-136.010,282.415,407,391,378,406,354,2025-05-27T11:30:38.944560
15140,-0.7666,0.2050,0.4978,-34.055,-124.740,286.860,354,411,380,357,366,2025-05-27T11:30:38.944560
15141,-0.6954,0.1620,0.4636,-37.240,-113.645,291.725,411,417,371,372,381,2025-05-27T11:30:38.944560
15142,-0.6354,0.1225,0.4299,-40.705,-103.005,294.665,415,405,375,389,383,2025-05-27T11:30:38.944560
15143,-0.5885,0.0942,0.4226,-44.695,-92.715,295.400,418,411,380,354,399,2025-05-27T11:30:38.944560
15144,-0.5461,0.0464,0.4080,-48.510,-83.790,294.875,400,417,364,376,353,2025-05-27T11:30:39.098102
15145,-0.5007,0.0063,0.3943,-50.470,-76.370,292.110,405,396,381,379,386,2025-05-27T11:30:39.098102
15146,-0.4529,-0.0381,0.3914,-50.820,-71.050,289.030,344,399,372,419,399,2025-05-27T11:30:39.098102
15147,-0.4285,-0.0825,0.3894,-50.330,-65.030,283.885,326,371,383,416,405,2025-05-27T11:30:39.098102
15148,-0.3855,-0.1142,0.3933,-49.105,-58.835,278.530,383,411,372,426,405,2025-05-27T11:30:39.098102
15149,-0.3201,-0.1542,0.4094,-47.355,-50.750,271.425,389,415,371,418,363,2025-05-27T11:30:39.098102
15150,-0.2518,-0.1728,0.4260,-46.585,-39.970,264.250,413,414,340,421,390,2025-05-27T11:30:39.098102
15151,-0.1981,-0.2098,0.4504,-46.480,-26.250,256.865,425,416,353,414,389,2025-05-27T11:30:39.098102
15152,-0.1488,-0.2450,0.4782,-47.390,-11.270,248.185,407,341,326,414,413,2025-05-27T11:30:39.098102
15153,-0.1020,-0.2708,0.5031,-48.335,1.995,238.840,421,398,360,421,410,2025-05-27T11:30:39.098102
15154,-0.0722,-0.3050,0.5241,-48.755,20.160,230.685,409,430,379,408,393,2025-05-27T11:30:39.098102
15155,-0.0551,-0.3348,0.5651,-48.195,38.115,219.590,338,352,368,413,343,2025-05-27T11:30:39.098102
15156,-0.0444,-0.3787,0.6193,-47.880,52.535,206.745,401,391,367,414,398,2025-05-27T11:30:39.262125
15157,-0.0288,-0.4231,0.6564,-46.585,63.840,193.235,372,420,383,353,397,2025-05-27T11:30:39.262125
15158,-0.0190,-0.4626,0.7052,-44.240,73.395,178.255,418,424,380,357,401,2025-05-27T11:30:39.262125
15159,-0.0039,-0.5100,0.7466,-40.250,80.885,162.260,411,394,380,293,382,2025-05-27T11:30:39.262125
15160,0.0107,-0.5622,0.7910,-34.055,85.260,145.285,406,424,371,352,408,2025-05-27T11:30:39.262125
15161,0.0346,-0.5998,0.8364,-26.180,92.050,131.705,394,428,352,356,315,2025-05-27T11:30:39.262125
15162,0.0595,-0.6159,0.8926,-18.550,102.025,113.435,391,345,358,394,366,2025-05-27T11:30:39.262125
15163,0.0825,-0.6212,0.9496,-12.530,114.835,94.745,396,378,371,389,374,2025-05-27T11:30:39.262125
15164,0.0781,-0.6188,0.9833,-7.560,128.135,75.635,403,404,388,366,341,2025-05-27T11:30:39.262125
15165,0.0483,-0.6271,1.0209,-3.710,139.160,56.140,336,378,392,399,371,2025-05-27T11:30:39.262125
15166,-0.1249,-0.7442,1.1273,15.505,135.275,36.715,401,389,392,420,401,2025-05-27T11:30:39.262125
15167,-0.6549,-1.1570,1.4313,61.495,106.540,6.405,416,348,394,424,353,2025-05-27T11:30:39.262125
15168,-0.3406,-0.7559,1.5792,99.610,9.905,-33.880,423,386,385,414,381,2025-05-27T11:30:39.262125
15169,0.3582,-0.3299,1.4791,103.670,12.250,-60.270,423,405,384,356,341,2025-05-27T11:30:39.262125
15170,0.3855,-0.3299,1.1741,74.095,78.750,-74.795,391,420,340,389,389,2025-05-27T11:30:39.512466
15171,0.3479,-0.3626,0.9262,49.000,161.980,-82.040,333,399,355,406,394,2025-05-27T11:30:39.512466
15172,0.1649,-0.4231,0.8662,56.980,208.600,-96.285,394,412,376,413,388,2025-05-27T11:30:39.512466
15173,0.0146,-0.3831,0.9780,63.525,234.500,-109.130,364,357,384,371,403,2025-05-27T11:30:39.512466
15174,-0.1313,-0.3733,1.0341,58.135,260.260,-116.445,394,413,384,298,387,2025-05-27T11:30:39.512466
15175,-0.3333,-0.4006,1.0248,51.975,258.300,-121.695,410,420,387,373,411,2025-05-27T11:30:39.512466
15176,-0.5344,-0.4309,0.9877,65.415,238.070,-129.255,428,375,389,401,408,2025-05-27T11:30:39.512466
15177,-0.6881,-0.4426,0.9853,90.545,209.755,-140.350,428,408,359,407,406,2025-05-27T11:30:39.512466
15178,-0.7754,-0.3938,0.9960,106.680,176.330,-151.095,415,415,361,403,392,2025-05-27T11:30:39.512466
15179,-0.7979,-0.3357,1.0063,115.080,143.045,-163.135,421,420,376,416,409,2025-05-27T11:30:39.512466
15180,-0.7769,-0.2811,1.0033,125.650,121.625,-173.985,405,345,366,420,373,2025-05-27T11:30:39.512466
15181,-0.7584,-0.2172,1.0004,134.750,103.530,-181.685,412,380,332,419,377,2025-05-27T11:30:39.512466
15182,-0.7374,-0.1527,0.9975,136.885,88.690,-186.550,387,329,365,393,396,2025-05-27T11:30:39.512466
15183,-0.7071,-0.1313,0.9775,136.710,79.835,-191.695,397,391,360,411,403,2025-05-27T11:30:39.512466
15184,-0.6769,-0.0966,0.9638,136.815,78.785,-195.335,426,408,369,415,415,2025-05-27T11:30:39.684485
15185,-0.6612,-0.0893,0.9531,135.765,82.040,-198.065,429,392,346,406,398,2025-05-27T11:30:39.684485
15186,-0.6290,-0.0878,0.9623,131.740,86.975,-198.695,376,379,364,357,398,2025-05-27T11:30:39.684485
15187,-0.6202,-0.0532,0.9989,125.860,94.850,-196.140,424,367,372,409,409,2025-05-27T11:30:39.684485
15188,-0.6427,-0.0190,1.0126,120.785,100.660,-191.695,422,415,384,411,389,2025-05-27T11:30:39.684485
15189,-0.7017,-0.0142,1.0014,118.125,104.370,-187.845,434,434,391,412,357,2025-05-27T11:30:39.684485
15190,-0.7803,-0.0371,0.9697,120.400,105.875,-183.925,345,395,374,401,386,2025-05-27T11:30:39.684485
15191,-0.8725,-0.0473,0.9394,128.450,105.035,-181.090,405,419,379,402,344,2025-05-27T11:30:39.684485
15192,-0.9531,-0.0434,0.9623,133.105,94.920,-176.820,400,437,385,414,392,2025-05-27T11:30:39.684485
15193,-1.0204,-0.0293,0.9941,131.985,76.930,-169.855,397,441,388,417,395,2025-05-27T11:30:39.684485
15194,-1.0721,0.0073,0.9980,135.310,58.240,-155.295,417,416,350,422,374,2025-05-27T11:30:39.684485
15195,-1.1278,0.0346,1.0302,141.575,38.220,-136.675,391,404,338,417,374,2025-05-27T11:30:39.684485
15196,-1.1322,0.0903,1.0541,144.795,18.235,-116.970,388,415,355,413,373,2025-05-27T11:30:39.684485
15197,-1.1429,0.1240,1.0365,149.695,0.980,-97.440,392,413,357,421,394,2025-05-27T11:30:39.684485
15198,-1.1258,0.1537,1.0185,151.760,-15.785,-84.385,422,428,364,366,386,2025-05-27T11:30:39.684485
15199,-1.1263,0.1679,0.9736,155.435,-31.290,-69.650,430,342,377,398,359,2025-05-27T11:30:39.684485
15200,-1.1146,0.1781,0.9941,159.635,-43.645,-55.440,395,387,380,351,363,2025-05-27T11:30:39.684485
15201,-1.0892,0.1903,0.9955,162.225,-52.150,-41.230,395,387,385,392,386,2025-05-27T11:30:39.684485
15202,-1.1146,0.1850,0.9848,164.675,-58.310,-27.790,398,422,384,392,360,2025-05-27T11:30:39.684485
15203,-1.1126,0.1874,0.9726,168.140,-63.805,-14.980,422,401,391,393,376,2025-05-27T11:30:39.716359
15204,-1.0477,0.1918,0.9570,170.240,-62.755,-0.945,435,415,390,414,345,2025-05-27T11:30:39.716359
15205,-0.9823,0.2137,0.9487,169.960,-54.285,13.930,414,422,394,415,386,2025-05-27T11:30:39.716359
15206,-0.9589,0.2294,0.9433,166.880,-43.855,28.945,377,431,390,421,384,2025-05-27T11:30:39.716359
15207,-0.9736,0.2064,0.9414,163.975,-32.690,40.530,399,423,383,350,380,2025-05-27T11:30:39.716359
15208,-1.0097,0.2020,0.9316,162.190,-25.900,54.390,410,361,384,347,391,2025-05-27T11:30:39.879041
15209,-1.0204,0.2089,0.9150,161.945,-24.115,67.655,414,418,390,400,351,2025-05-27T11:30:39.879041
15210,-1.0263,0.2357,0.8969,163.170,-26.285,82.075,430,431,393,413,383,2025-05-27T11:30:39.879041
15211,-0.9804,0.2606,0.8603,164.535,-29.120,97.265,413,401,387,414,401,2025-05-27T11:30:39.879041
15212,-0.9438,0.3099,0.8120,165.060,-28.455,111.790,399,417,379,414,418,2025-05-27T11:30:39.879041
15213,-0.8769,0.3460,0.7452,164.290,-26.390,127.085,397,343,386,356,367,2025-05-27T11:30:39.879041
15214,-0.8511,0.4021,0.6661,161.910,-23.765,138.110,335,391,378,398,407,2025-05-27T11:30:39.879041
15215,-0.7837,0.4436,0.5929,156.905,-20.930,149.345,387,404,375,392,353,2025-05-27T11:30:39.879041
15216,-0.7130,0.4699,0.4997,150.255,-15.890,157.605,413,411,384,376,340,2025-05-27T11:30:39.879041
15217,-0.6173,0.4704,0.4197,143.115,-8.295,164.010,400,420,344,401,370,2025-05-27T11:30:39.879041
15218,-0.5441,0.4729,0.3601,134.085,1.995,166.250,408,369,370,415,376,2025-05-27T11:30:39.879041
15219,-0.4568,0.4992,0.3162,124.810,12.565,164.605,413,414,368,315,385,2025-05-27T11:30:39.879041
15220,-0.3728,0.5017,0.2567,111.685,23.240,161.490,421,392,375,384,393,2025-05-27T11:30:39.879041
15221,-0.3221,0.4763,0.1898,99.645,29.050,157.325,415,336,385,398,392,2025-05-27T11:30:39.879041
15222,-0.2913,0.4685,0.1410,89.180,32.725,153.055,344,359,390,403,346,2025-05-27T11:30:39.978806
15223,-0.2606,0.4631,0.1147,79.695,35.595,145.495,385,404,386,395,370,2025-05-27T11:30:39.978806
15224,-0.2103,0.4397,0.0878,67.445,37.100,135.345,406,422,387,411,375,2025-05-27T11:30:39.978806
15225,-0.1923,0.4046,0.0678,56.385,35.420,124.425,413,430,381,405,378,2025-05-27T11:30:39.978806
15226,-0.1845,0.3699,0.0464,49.875,28.350,112.000,394,438,392,396,391,2025-05-27T11:30:39.978806
15227,-0.1610,0.3406,0.0288,44.590,20.685,97.265,403,411,383,405,381,2025-05-27T11:30:39.978806
15228,-0.1440,0.3162,0.0054,41.475,11.585,79.870,406,428,378,403,387,2025-05-27T11:30:39.978806
15229,-0.1064,0.3211,-0.0034,39.725,3.850,64.995,423,419,378,379,344,2025-05-27T11:30:39.978806
15230,-0.0708,0.3079,0.0185,36.225,0.595,45.990,425,409,375,405,386,2025-05-27T11:30:40.062447
15231,-0.0361,0.3235,0.0576,30.415,2.765,27.825,427,394,349,410,387,2025-05-27T11:30:40.062447
15232,-0.0156,0.3392,0.0795,25.690,5.670,10.010,417,385,361,400,383,2025-05-27T11:30:40.062447
15233,-0.0054,0.3265,0.0820,22.575,11.830,-7.805,424,394,365,396,405,2025-05-27T11:30:40.062447
15234,0.0215,0.3831,0.1171,18.095,20.230,-25.445,409,405,375,408,417,2025-05-27T11:30:40.062447
15235,0.0137,0.4387,0.1806,11.165,34.615,-39.200,392,407,382,363,400,2025-05-27T11:30:40.062447
15236,-0.0044,0.4773,0.2118,4.305,52.115,-55.405,382,347,372,394,405,2025-05-27T11:30:40.062447
15237,-0.0586,0.4973,0.2352,-1.050,69.545,-71.155,399,331,369,413,392,2025-05-27T11:30:40.160352
15238,-0.1469,0.5261,0.3284,-5.145,82.845,-85.190,349,389,380,400,411,2025-05-27T11:30:40.160352
15239,-0.2298,0.5890,0.3797,-6.930,90.125,-96.250,383,418,347,402,418,2025-05-27T11:30:40.160352
15240,-0.3323,0.6632,0.4441,-8.330,93.835,-103.845,392,377,355,407,395,2025-05-27T11:30:40.160352
15241,-0.4377,0.7613,0.5187,-8.435,94.535,-108.080,334,416,378,409,406,2025-05-27T11:30:40.269636
15242,-0.5334,0.8535,0.5807,-9.765,94.185,-107.520,286,400,335,404,396,2025-05-27T11:30:40.269636
15243,-0.6320,0.9316,0.6442,-9.870,92.890,-103.670,380,373,356,405,387,2025-05-27T11:30:40.269636
15244,-0.7008,1.0043,0.7135,-9.485,91.490,-98.070,379,412,343,399,383,2025-05-27T11:30:40.269636
15245,-0.8008,1.0634,0.7896,-12.530,88.025,-86.835,408,381,322,401,389,2025-05-27T11:30:40.269636
15246,-0.9028,1.1351,0.8516,-17.535,81.060,-72.135,420,428,350,406,409,2025-05-27T11:30:40.269636
15247,-1.0170,1.1312,0.8862,-18.935,66.780,-54.145,426,438,373,410,355,2025-05-27T11:30:40.269636
15248,-1.1053,1.1385,0.8882,-18.690,45.010,-34.195,404,376,333,407,393,2025-05-27T11:30:40.269636
15249,-1.1390,1.1331,0.8560,-15.190,24.535,-14.455,429,381,369,406,406,2025-05-27T11:30:40.269636
15250,-1.1258,1.0941,0.7813,-8.050,1.085,0.385,384,402,383,393,392,2025-05-27T11:30:40.269636
15251,-1.0551,1.0497,0.7042,1.050,-18.340,17.710,418,419,387,398,406,2025-05-27T11:30:40.269636
15252,-0.9589,0.9936,0.6183,10.710,-32.445,33.250,423,398,351,345,397,2025-05-27T11:30:40.269636
15253,-0.8584,0.9316,0.5358,17.780,-40.880,45.885,418,427,362,375,346,2025-05-27T11:30:40.269636
15254,-0.7427,0.8701,0.4514,24.150,-43.435,55.300,407,409,365,383,395,2025-05-27T11:30:40.512734
15255,-0.6759,0.8096,0.3914,27.825,-43.645,61.530,422,395,380,366,402,2025-05-27T11:30:40.512734
15256,-0.5895,0.7720,0.3284,28.770,-40.880,64.295,403,339,371,394,405,2025-05-27T11:30:40.512734
15257,-0.5270,0.7359,0.2708,27.230,-36.855,65.310,394,384,341,398,420,2025-05-27T11:30:40.512734
15258,-0.4787,0.6915,0.2206,23.695,-32.760,62.895,420,370,364,352,399,2025-05-27T11:30:40.512734
15259,-0.4377,0.6564,0.1976,19.145,-29.225,57.820,426,416,371,387,407,2025-05-27T11:30:40.512734
15260,-0.3963,0.6095,0.1557,14.000,-25.690,51.730,400,434,368,306,397,2025-05-27T11:30:40.512734
15261,-0.3958,0.5788,0.1586,8.295,-23.240,43.855,410,431,379,362,414,2025-05-27T11:30:40.512734
15262,-0.3850,0.5583,0.1552,3.080,-21.875,36.400,432,413,382,412,413,2025-05-27T11:30:40.512734
15263,-0.3821,0.5427,0.1542,-1.435,-20.650,26.425,406,399,388,390,370,2025-05-27T11:30:40.512734
15264,-0.3719,0.5358,0.1728,-5.425,-18.340,15.995,395,415,383,398,380,2025-05-27T11:30:40.512734
15265,-0.3670,0.5148,0.1830,-17.570,-15.400,5.390,428,377,376,392,401,2025-05-27T11:30:40.512734
15266,-0.3528,0.4958,0.1918,-11.690,-12.810,-3.885,347,381,368,413,410,2025-05-27T11:30:40.512734
15267,-0.3684,0.4963,0.2211,-14.070,-10.255,-12.950,403,409,380,402,364,2025-05-27T11:30:40.512734
15268,-0.3914,0.4943,0.2630,-15.715,-7.595,-20.755,366,378,384,369,336,2025-05-27T11:30:40.512734
15269,-0.4163,0.5026,0.2908,-15.225,-7.840,-29.085,380,386,380,399,368,2025-05-27T11:30:40.512734
15270,-0.4499,0.5280,0.3235,-13.020,-8.750,-37.030,375,413,373,405,337,2025-05-27T11:30:40.512734
15271,-0.4709,0.5675,0.3616,-11.795,-8.960,-44.975,404,413,369,407,387,2025-05-27T11:30:40.512734
15272,-0.4914,0.5895,0.3762,-10.290,-8.225,-51.905,415,424,390,420,394,2025-05-27T11:30:40.512734
15273,-0.5070,0.6242,0.3987,-7.805,-6.965,-57.715,405,418,395,410,361,2025-05-27T11:30:40.512734
15274,-0.5192,0.6739,0.4260,-6.965,-3.465,-61.530,389,421,401,388,386,2025-05-27T11:30:40.562122
15275,-0.5300,0.6944,0.4192,-9.590,2.765,-64.855,342,380,345,407,402,2025-05-27T11:30:40.562122
15276,-0.5485,0.6930,0.4031,-12.705,9.205,-66.290,391,423,361,351,397,2025-05-27T11:30:40.562122
15277,-0.5651,0.6832,0.3953,-15.995,14.140,-66.535,407,429,361,392,372,2025-05-27T11:30:40.562122
15278,-0.5744,0.6705,0.3845,-20.440,17.710,-65.940,378,420,369,401,378,2025-05-27T11:30:40.612249
15279,-0.5890,0.6486,0.3826,-27.160,19.775,-65.065,340,418,377,396,358,2025-05-27T11:30:40.612249
15280,-0.5958,0.6266,0.3660,-33.985,19.075,-64.610,408,354,372,352,346,2025-05-27T11:30:40.612249
15281,-0.5949,0.6007,0.3479,-41.650,15.750,-65.310,381,386,386,391,383,2025-05-27T11:30:40.612249
15282,-0.5754,0.5705,0.3133,-47.355,11.620,-65.625,416,393,379,411,379,2025-05-27T11:30:40.795298
15283,-0.5607,0.5666,0.3196,-54.495,7.140,-68.005,416,412,352,365,397,2025-05-27T11:30:40.795298
15284,-0.5451,0.5519,0.3026,-60.935,3.780,-70.770,412,404,340,352,350,2025-05-27T11:30:40.795298
15285,-0.5768,0.5558,0.3216,-65.030,0.000,-74.025,364,396,324,351,383,2025-05-27T11:30:40.795298
15286,-0.6212,0.5700,0.3357,-63.455,-6.335,-78.470,382,427,349,382,400,2025-05-27T11:30:40.795298
15287,-0.6568,0.5495,0.3475,-57.925,-13.895,-82.775,407,425,370,396,374,2025-05-27T11:30:40.795298
15288,-0.6808,0.5085,0.3606,-53.060,-19.705,-86.975,415,423,373,388,342,2025-05-27T11:30:40.795298
15289,-0.6964,0.4904,0.3860,-47.005,-24.535,-91.385,399,421,388,407,372,2025-05-27T11:30:40.795298
15290,-0.7013,0.4787,0.4006,-41.300,-28.105,-94.325,409,411,388,421,338,2025-05-27T11:30:40.795298
15291,-0.6974,0.4782,0.4407,-38.850,-26.460,-97.580,423,430,395,393,327,2025-05-27T11:30:40.795298
15292,-0.7149,0.4987,0.4778,-37.415,-22.330,-99.645,399,410,355,380,389,2025-05-27T11:30:40.795298
15293,-0.7271,0.5031,0.4904,-37.065,-17.850,-101.080,423,427,373,415,408,2025-05-27T11:30:40.795298
15294,-0.7676,0.5353,0.5046,-35.805,-11.375,-103.110,430,431,381,397,391,2025-05-27T11:30:40.795298
15295,-0.8169,0.5500,0.5334,-32.760,-4.200,-104.755,424,393,381,403,404,2025-05-27T11:30:40.795298
15296,-0.8633,0.5397,0.5666,-28.910,-0.385,-105.525,302,409,391,399,388,2025-05-27T11:30:40.795298
15297,-0.8955,0.5309,0.6090,-25.760,4.410,-105.630,397,408,395,404,404,2025-05-27T11:30:40.890244
15298,-0.9174,0.5080,0.6637,-23.730,8.470,-103.670,413,413,399,406,371,2025-05-27T11:30:40.890244
15299,-0.9321,0.4953,0.6895,-21.805,8.890,-98.525,426,431,385,385,393,2025-05-27T11:30:40.890244
15300,-0.9604,0.4773,0.7144,-20.475,8.540,-92.050,419,394,391,386,408,2025-05-27T11:30:40.890244
15301,-0.9609,0.4709,0.7096,-17.220,8.400,-84.490,348,398,382,404,357,2025-05-27T11:30:40.890244
15302,-0.9823,0.4748,0.7271,-13.860,9.415,-75.110,379,425,377,388,395,2025-05-27T11:30:40.890244
15303,-1.0009,0.4895,0.7642,-12.075,10.920,-67.165,411,424,386,415,407,2025-05-27T11:30:40.890244
15304,-1.0111,0.5056,0.8096,-11.620,12.810,-55.020,412,434,395,407,412,2025-05-27T11:30:40.890244
15305,-1.0228,0.5373,0.8335,-11.655,14.560,-40.040,397,425,392,391,394,2025-05-27T11:30:40.995439
15306,-1.0355,0.5685,0.8550,-11.655,17.395,-23.240,343,420,392,415,392,2025-05-27T11:30:40.995439
15307,-1.0316,0.5929,0.8701,-11.165,20.510,-5.810,415,408,390,397,393,2025-05-27T11:30:40.995439
15308,-1.0590,0.6032,0.8930,-10.255,22.330,11.795,395,392,380,350,386,2025-05-27T11:30:40.995439
15309,-1.0712,0.6154,0.8901,-6.755,23.590,30.100,397,404,345,396,397,2025-05-27T11:30:40.995439
15310,-1.0980,0.6271,0.8872,0.105,23.380,44.905,411,406,365,392,403,2025-05-27T11:30:40.995439
15311,-1.1302,0.6373,0.8755,8.470,22.120,62.860,406,427,366,302,365,2025-05-27T11:30:40.995439
15312,-1.1448,0.6476,0.8496,17.710,19.740,79.310,393,399,361,371,395,2025-05-27T11:30:40.995439
15313,-1.1502,0.6525,0.8252,25.865,16.660,94.710,412,351,359,385,395,2025-05-27T11:30:40.995439
15314,-1.1473,0.6622,0.7837,35.665,14.595,109.305,396,421,377,394,309,2025-05-27T11:30:41.229189
15315,-1.1341,0.6695,0.7462,44.275,13.860,123.060,398,357,376,404,314,2025-05-27T11:30:41.229189
15316,-1.1419,0.6734,0.7105,50.155,14.245,133.175,416,396,342,422,369,2025-05-27T11:30:41.229189
15317,-1.1658,0.6510,0.6388,55.230,13.720,144.270,400,425,371,417,378,2025-05-27T11:30:41.229189
15318,-1.1624,0.6339,0.5910,60.655,10.395,154.140,421,398,382,356,342,2025-05-27T11:30:41.229189
15319,-1.1595,0.6105,0.5392,65.170,7.280,162.925,396,363,387,395,371,2025-05-27T11:30:41.229189
15320,-1.1336,0.5710,0.4646,67.620,2.520,170.660,402,394,397,406,385,2025-05-27T11:30:41.229189
15321,-1.1039,0.5319,0.4070,70.735,-2.660,176.995,414,419,386,408,346,2025-05-27T11:30:41.229189
15322,-1.0546,0.4968,0.3450,73.710,-9.310,181.755,406,418,392,390,390,2025-05-27T11:30:41.229189
15323,-0.9814,0.4738,0.2845,74.690,-14.175,184.730,426,401,379,388,359,2025-05-27T11:30:41.229189
15324,-0.8823,0.4529,0.2435,73.675,-14.245,187.425,422,370,385,401,372,2025-05-27T11:30:41.229189
15325,-0.7910,0.4597,0.2123,70.315,-10.955,188.370,363,394,374,405,396,2025-05-27T11:30:41.229189
15326,-0.6954,0.4246,0.1645,68.110,-7.420,187.250,404,369,377,391,383,2025-05-27T11:30:41.229189
15327,-0.6012,0.4192,0.1283,64.785,-3.045,183.995,398,405,387,406,406,2025-05-27T11:30:41.229189
15328,-0.5124,0.4153,0.1137,60.375,0.840,178.990,398,423,375,411,412,2025-05-27T11:30:41.229189
15329,-0.4441,0.4094,0.1078,53.410,6.580,173.075,342,396,338,423,403,2025-05-27T11:30:41.229189
15330,-0.3762,0.4041,0.0771,45.850,12.845,164.220,377,393,353,399,401,2025-05-27T11:30:41.229189
15331,-0.3216,0.3933,0.0556,38.745,18.025,153.685,414,298,361,380,365,2025-05-27T11:30:41.332792
15332,-0.3016,0.3797,0.0630,32.375,21.105,141.190,409,395,374,357,396,2025-05-27T11:30:41.332792
15333,-0.2669,0.3587,0.0517,28.595,20.265,127.330,361,413,377,374,408,2025-05-27T11:30:41.332792
15334,-0.2328,0.3470,0.0542,24.640,9.100,112.035,354,379,385,399,404,2025-05-27T11:30:41.527296
15335,-0.2113,0.3274,0.0639,21.910,14.070,95.095,355,403,386,370,413,2025-05-27T11:30:41.527296
15336,-0.1557,0.3187,0.0761,18.620,10.640,80.360,330,424,312,345,414,2025-05-27T11:30:41.527296
15337,-0.0986,0.3060,0.0839,15.015,8.645,61.040,386,437,339,370,400,2025-05-27T11:30:41.527296
15338,-0.0620,0.3460,0.0795,11.375,10.640,40.390,412,414,328,404,396,2025-05-27T11:30:41.527296
15339,-0.0581,0.3875,0.1196,7.455,15.540,18.515,400,371,347,386,405,2025-05-27T11:30:41.527296
15340,-0.0517,0.4426,0.1464,3.255,19.215,-1.260,408,406,378,367,409,2025-05-27T11:30:41.527296
15341,-0.0625,0.5070,0.1937,-0.455,22.750,-23.870,428,379,380,356,397,2025-05-27T11:30:41.527296
15342,-0.1069,0.5666,0.2489,-3.885,24.430,-29.190,403,386,375,383,385,2025-05-27T11:30:41.527296
15343,-0.1718,0.6642,0.2996,-6.965,24.885,-40.775,404,409,385,384,403,2025-05-27T11:30:41.527296
15344,-0.2406,0.7954,0.3616,-10.430,23.975,-48.615,400,420,379,407,403,2025-05-27T11:30:41.527296
15345,-0.3001,0.9296,0.4246,-12.880,21.770,-51.275,413,427,381,401,404,2025-05-27T11:30:41.527296
15346,-0.3699,1.0365,0.4802,-14.735,17.605,-49.490,397,347,353,389,350,2025-05-27T11:30:41.527296
15347,-0.4392,1.1502,0.5119,-15.715,14.210,-45.640,368,363,358,348,372,2025-05-27T11:30:41.527296
15348,-0.4987,1.2288,0.5256,-15.785,9.590,-41.755,376,402,366,401,386,2025-05-27T11:30:41.527296
15349,-0.5334,1.2795,0.5212,-15.050,4.725,-35.595,401,416,336,372,385,2025-05-27T11:30:41.527296
15350,-0.5846,1.2937,0.5109,-14.840,1.365,-27.510,403,343,342,346,410,2025-05-27T11:30:41.527296
15351,-0.6271,1.2561,0.5144,-14.245,-2.975,-18.235,391,405,351,372,393,2025-05-27T11:30:41.527296
15352,-0.6588,1.1883,0.5051,-13.405,-9.450,-7.805,415,415,368,386,415,2025-05-27T11:30:41.527296
15353,-0.6593,1.1043,0.4685,-10.885,-16.625,3.535,417,427,367,399,412,2025-05-27T11:30:41.527296
15354,-0.6359,1.0443,0.4348,-8.050,-24.780,11.865,418,351,373,410,400,2025-05-27T11:30:41.527296
15355,-0.5675,0.9560,0.3909,-6.335,-29.890,19.985,394,409,339,419,404,2025-05-27T11:30:41.527296
15356,-0.4865,0.8608,0.3587,-6.230,-31.220,25.025,419,420,373,403,401,2025-05-27T11:30:41.527296
15357,-0.3826,0.7505,0.3021,-6.930,-29.680,26.810,346,436,377,404,402,2025-05-27T11:30:41.711787
15358,-0.2743,0.6159,0.2552,-8.925,-25.585,23.870,387,428,345,394,410,2025-05-27T11:30:41.711787
15359,-0.1757,0.4709,0.1903,-11.970,-16.835,14.595,420,419,366,399,349,2025-05-27T11:30:41.711787
15360,-0.0683,0.3001,0.0830,-16.905,-6.790,-2.590,412,427,369,394,380,2025-05-27T11:30:41.711787
15361,-0.0151,0.1244,0.0005,-23.030,9.310,-28.070,426,383,378,414,367,2025-05-27T11:30:41.711787
15362,0.0581,-0.0766,-0.0810,-30.170,27.265,-53.690,346,410,379,417,381,2025-05-27T11:30:41.711787
15363,0.0756,-0.2347,-0.1118,-38.150,44.660,-89.530,395,424,371,393,381,2025-05-27T11:30:41.711787
15364,0.0356,-0.4080,-0.0961,-43.855,54.145,-125.650,404,411,378,418,365,2025-05-27T11:30:41.711787
15365,-0.0805,-0.5836,0.0190,-44.485,47.950,-159.250,396,379,381,411,389,2025-05-27T11:30:41.711787
15366,-0.2547,-0.7344,0.1157,-35.490,21.840,-190.750,384,420,383,410,387,2025-05-27T11:30:41.711787
15367,-0.3675,-0.8154,0.2294,-15.330,-10.290,-222.320,389,417,386,417,404,2025-05-27T11:30:41.711787
15368,-0.3977,-0.7169,0.3392,8.785,-51.065,-257.250,405,424,381,420,400,2025-05-27T11:30:41.711787
15369,-0.3792,-0.5807,0.4148,29.855,-76.580,-282.170,393,399,376,384,351,2025-05-27T11:30:41.711787
15370,-0.3577,-0.3284,0.5602,35.385,-74.130,-316.960,415,418,343,385,383,2025-05-27T11:30:41.711787
15371,-0.4172,-0.2313,0.7383,32.585,-52.570,-345.800,402,401,357,409,385,2025-05-27T11:30:41.711787
15372,-0.5812,-0.1318,0.9897,18.130,-34.475,-363.825,406,428,334,390,399,2025-05-27T11:30:41.711787
15373,-0.9736,-0.0698,1.2273,31.185,-32.060,-373.660,404,400,351,399,397,2025-05-27T11:30:41.795098
15374,-1.3405,-0.0039,1.4498,39.305,-49.980,-384.720,418,426,379,342,409,2025-05-27T11:30:41.795098
15375,-1.6250,0.4148,1.6987,45.710,-73.010,-379.050,428,428,391,372,372,2025-05-27T11:30:41.795098
15376,-1.9091,0.7993,1.9359,46.550,-87.675,-365.435,428,415,385,392,403,2025-05-27T11:30:41.795098
15377,-2.3287,1.1409,2.0857,41.790,-101.955,-338.695,419,419,371,408,409,2025-05-27T11:30:41.795098
15378,-2.8890,1.5421,2.3580,37.520,-135.240,-307.195,406,429,368,403,406,2025-05-27T11:30:41.795098
15379,-3.3823,1.9988,2.3522,38.220,-189.805,-272.755,350,369,373,384,376,2025-05-27T11:30:41.795098
15380,-3.6239,1.9647,2.3624,40.880,-254.730,-203.630,375,408,377,390,386,2025-05-27T11:30:41.795098
15381,-3.9196,2.0584,2.3785,38.920,-296.345,-139.125,388,411,382,300,381,2025-05-27T11:30:42.045395
15382,-4.1260,2.1091,2.1438,56.525,-354.620,-78.540,402,401,389,315,398,2025-05-27T11:30:42.045395
15383,-3.9723,2.3365,1.8944,77.455,-417.585,-6.930,438,435,379,375,405,2025-05-27T11:30:42.045395
15384,-3.7093,2.3248,1.5499,79.205,-418.320,64.470,419,428,387,389,354,2025-05-27T11:30:42.045395
15385,-3.6097,2.4649,1.1239,72.520,-383.845,132.685,374,435,381,403,388,2025-05-27T11:30:42.045395
15386,-3.5614,2.5488,0.7305,63.840,-337.365,190.015,353,351,381,402,409,2025-05-27T11:30:42.045395
15387,-3.8459,2.4590,0.2869,53.795,-330.155,253.365,382,399,386,426,416,2025-05-27T11:30:42.045395
15388,-4.1358,2.2590,-0.1913,34.510,-363.930,306.075,423,427,379,403,414,2025-05-27T11:30:42.045395
15389,-4.3983,1.9671,-0.6432,19.390,-409.150,367.570,441,409,376,394,413,2025-05-27T11:30:42.045395
15390,-4.3251,1.6084,-1.0004,-1.365,-444.185,425.075,405,399,388,409,409,2025-05-27T11:30:42.045395
15391,-4.4525,1.2390,-1.3644,-32.200,-440.300,473.305,393,428,395,388,366,2025-05-27T11:30:42.045395
15392,-4.8849,0.6793,-1.3142,-62.230,-425.740,552.125,401,408,353,383,371,2025-05-27T11:30:42.045395
15393,-4.9146,0.1610,-1.6514,-65.415,-411.880,601.300,401,387,355,396,349,2025-05-27T11:30:42.045395
15394,-4.9615,-0.3748,-1.4943,-62.020,-389.550,657.230,395,390,373,392,370,2025-05-27T11:30:42.045395
15395,-5.0532,-0.6954,-1.2346,-56.385,-348.670,718.340,395,419,366,406,403,2025-05-27T11:30:42.045395
15396,-5.2192,-1.2790,-1.1029,-38.885,-318.990,772.555,404,348,378,400,369,2025-05-27T11:30:42.045395
15397,-5.0162,-1.8808,-0.9819,-0.105,-303.240,813.085,415,403,373,384,400,2025-05-27T11:30:42.045395
15398,-4.4432,-2.0335,-0.8779,27.685,-293.580,842.380,429,415,379,387,404,2025-05-27T11:30:42.045395
15399,-4.1148,-2.1687,-0.6744,54.180,-226.135,855.575,421,419,343,384,394,2025-05-27T11:30:42.045395
15400,-4.1314,-2.2843,-0.4377,80.360,-188.020,858.445,366,408,370,408,368,2025-05-27T11:30:42.095221
15401,-4.1456,-2.7396,-0.2542,111.055,-168.805,841.610,378,346,381,408,394,2025-05-27T11:30:42.095221
15402,-3.7454,-3.1466,-0.2235,148.435,-162.435,806.680,388,401,392,358,403,2025-05-27T11:30:42.095221
15403,-3.1818,-3.2681,-0.3367,198.660,-143.185,752.010,414,433,345,334,353,2025-05-27T11:30:42.095221
15404,-2.6933,-3.4165,-0.1854,247.905,-102.515,707.980,437,402,322,375,389,2025-05-27T11:30:42.095221
15405,-2.0101,-3.5936,0.0727,268.800,-36.855,654.850,397,414,354,403,388,2025-05-27T11:30:42.145411
15406,-1.5699,-3.5048,0.2889,256.060,37.555,606.795,401,421,377,409,395,2025-05-27T11:30:42.145411
15407,-1.2054,-3.2652,0.4368,229.810,93.205,553.315,409,424,372,364,412,2025-05-27T11:30:42.145411
15408,-1.0360,-3.0485,0.5773,200.375,114.870,486.045,388,364,338,349,420,2025-05-27T11:30:42.145411
15409,-0.6564,-2.8616,0.8511,181.475,128.065,400.785,404,418,354,380,405,2025-05-27T11:30:42.316596
15410,-0.3655,-2.6215,1.1234,161.665,139.090,298.900,423,397,362,348,354,2025-05-27T11:30:42.316596
15411,-0.1039,-2.4629,1.5723,152.950,147.945,208.845,411,416,368,375,384,2025-05-27T11:30:42.316596
15412,-0.1664,-2.1994,1.6431,150.605,126.175,127.190,310,388,340,350,306,2025-05-27T11:30:42.316596
15413,0.0142,-2.1370,1.9447,167.090,106.855,44.205,399,406,362,401,373,2025-05-27T11:30:42.316596
15414,0.1171,-1.6851,1.8359,166.950,99.890,-33.075,392,434,371,419,338,2025-05-27T11:30:42.316596
15415,0.0024,-1.4923,1.7095,155.435,116.410,-84.945,420,399,367,407,376,2025-05-27T11:30:42.316596
15416,-0.2913,-1.3108,1.7021,142.520,133.700,-139.825,403,396,345,404,401,2025-05-27T11:30:42.316596
15417,-0.5383,-1.1561,1.7661,138.145,144.795,-175.210,424,433,370,394,405,2025-05-27T11:30:42.316596
15418,-0.8560,-1.2088,1.9086,147.945,135.485,-196.980,356,401,378,394,412,2025-05-27T11:30:42.316596
15419,-0.9916,-1.0775,1.9559,161.140,111.790,-210.420,379,419,373,409,395,2025-05-27T11:30:42.316596
15420,-1.0731,-0.9457,1.8788,178.640,88.935,-222.005,420,436,339,390,347,2025-05-27T11:30:42.316596
15421,-1.0331,-0.7979,1.7090,192.010,68.075,-232.225,404,421,353,386,373,2025-05-27T11:30:42.316596
15422,-0.9409,-0.6051,1.5465,198.415,63.665,-236.425,400,433,372,375,374,2025-05-27T11:30:42.316596
15423,-0.8994,-0.5007,1.3679,197.820,72.695,-239.925,439,436,387,407,392,2025-05-27T11:30:42.316596
15424,-0.9160,-0.4475,1.2327,201.040,77.805,-242.235,450,418,392,430,403,2025-05-27T11:30:42.428857
15425,-0.9604,-0.3689,1.1766,207.900,71.365,-244.650,423,412,390,414,413,2025-05-27T11:30:42.428857
15426,-0.9902,-0.2821,1.1097,218.820,52.850,-247.905,374,414,402,426,410,2025-05-27T11:30:42.428857
15427,-0.9950,-0.1874,1.0287,227.465,28.420,-250.845,318,415,390,425,412,2025-05-27T11:30:42.428857
15428,-0.9950,-0.1327,0.9316,237.860,0.070,-254.870,429,401,383,406,394,2025-05-27T11:30:42.428857
15429,-1.0053,-0.0922,0.8589,246.155,-13.965,-259.105,463,411,379,408,366,2025-05-27T11:30:42.428857
15430,-1.0160,-0.0088,0.8013,258.055,-33.775,-262.710,464,379,377,400,341,2025-05-27T11:30:42.428857
15431,-0.9882,0.0878,0.7139,267.610,-44.870,-267.330,456,400,351,395,373,2025-05-27T11:30:42.428857
15432,-0.9340,0.2274,0.7369,270.130,-50.050,-266.035,475,400,347,398,399,2025-05-27T11:30:42.512431
15433,-0.9428,0.2801,0.6798,271.180,-60.585,-260.995,473,406,369,382,401,2025-05-27T11:30:42.512431
15434,-0.8530,0.3382,0.5241,271.495,-76.090,-255.080,448,408,371,389,394,2025-05-27T11:30:42.512431
15435,-0.9653,0.2635,0.4607,283.115,-97.895,-247.450,437,384,371,388,403,2025-05-27T11:30:42.512431
15436,-0.9418,0.2489,0.3279,290.920,-107.800,-241.115,430,426,382,416,359,2025-05-27T11:30:42.512431
15437,-0.8823,0.3206,0.2289,299.180,-113.505,-235.305,434,406,381,409,378,2025-05-27T11:30:42.512431
15438,-0.8189,0.3357,0.2137,306.775,-108.360,-230.055,374,406,389,396,347,2025-05-27T11:30:42.512431
15439,-0.7271,0.2899,0.1986,311.570,-91.280,-226.940,411,432,399,389,367,2025-05-27T11:30:42.512431
15440,-0.5836,0.3709,0.2167,312.095,-64.995,-218.925,417,429,373,383,388,2025-05-27T11:30:42.628489
15441,-0.4285,0.4641,0.1981,311.290,-36.680,-199.780,385,390,384,395,392,2025-05-27T11:30:42.628489
15442,-0.4260,0.4670,0.1225,313.705,-16.275,-175.630,440,368,360,418,371,2025-05-27T11:30:42.628489
15443,-0.5129,0.4509,0.0673,321.510,-10.115,-157.990,432,417,366,406,389,2025-05-27T11:30:42.628489
15444,-0.6032,0.4168,-0.0498,333.795,-12.915,-148.190,441,435,377,403,406,2025-05-27T11:30:42.628489
15445,-0.6671,0.4602,-0.1845,340.935,-25.340,-144.585,445,423,365,413,395,2025-05-27T11:30:42.628489
15446,-0.5944,0.4455,-0.2718,350.105,-28.420,-137.060,369,421,361,343,393,2025-05-27T11:30:42.628489
15447,-0.5500,0.4821,-0.3714,349.860,-27.930,-129.500,432,403,375,374,392,2025-05-27T11:30:42.628489
15448,-0.4582,0.5236,-0.4011,338.275,-18.585,-121.205,441,389,384,395,389,2025-05-27T11:30:42.628489
15449,-0.4163,0.5671,-0.3006,322.560,-3.080,-104.510,413,419,375,407,394,2025-05-27T11:30:42.762234
15450,-0.4197,0.7286,-0.3294,296.905,12.355,-85.155,420,408,371,405,398,2025-05-27T11:30:42.762234
15451,-0.4270,0.9013,-0.3055,264.355,19.565,-68.110,410,397,371,399,404,2025-05-27T11:30:42.762234
15452,-0.4573,1.2673,-0.2547,219.835,28.560,-45.920,356,352,378,363,399,2025-05-27T11:30:42.762234
15453,-0.4968,1.5987,-0.1288,175.665,32.130,-27.440,374,288,354,386,412,2025-05-27T11:30:42.762234
15454,-0.6207,1.8373,0.0234,113.610,30.205,-7.385,405,368,364,364,398,2025-05-27T11:30:42.762234
15455,-0.8667,1.8998,0.0698,57.505,19.985,4.935,417,424,301,394,413,2025-05-27T11:30:42.762234
15456,-0.8691,1.8290,-0.0151,20.615,-5.145,12.355,402,420,350,385,409,2025-05-27T11:30:42.762234
15457,-0.9989,1.6919,-0.0898,11.375,-40.530,16.835,404,382,327,402,388,2025-05-27T11:30:42.892520
15458,-1.0497,1.5621,-0.1586,14.805,-72.835,19.880,351,380,322,403,395,2025-05-27T11:30:42.892520
15459,-0.9340,1.4264,-0.1259,23.730,-100.940,27.615,414,422,320,415,386,2025-05-27T11:30:42.892520
15460,-0.7574,1.3542,-0.0576,25.830,-111.475,40.040,345,393,359,400,363,2025-05-27T11:30:42.892520
15461,-0.6183,1.2659,-0.0005,17.605,-106.505,49.980,398,431,374,419,389,2025-05-27T11:30:42.892520
15462,-0.5148,1.1624,0.0356,3.850,-90.300,55.230,413,430,345,412,349,2025-05-27T11:30:42.892520
15463,-0.4236,1.0804,0.0366,-9.835,-70.385,57.750,420,418,376,372,329,2025-05-27T11:30:42.892520
15464,-0.3353,0.9799,0.0185,-18.410,-52.920,58.695,403,407,384,355,380,2025-05-27T11:30:42.892520
15465,-0.2567,0.8886,0.0039,-19.880,-40.915,58.590,402,431,375,397,395,2025-05-27T11:30:42.892520
15466,-0.2303,0.8467,-0.0098,-19.670,-30.590,56.805,418,406,384,347,381,2025-05-27T11:30:42.892520
15467,-0.1923,0.7730,-0.0200,-19.005,-21.910,53.095,408,366,387,393,402,2025-05-27T11:30:42.892520
15468,-0.1728,0.7056,-0.0234,-18.550,-15.400,48.195,431,407,377,393,403,2025-05-27T11:30:43.045035
15469,-0.1610,0.6417,-0.0190,-19.180,-7.420,43.610,397,409,389,389,403,2025-05-27T11:30:43.045035
15470,-0.1703,0.5656,0.0024,-19.145,-3.325,36.610,413,392,389,402,400,2025-05-27T11:30:43.045035
15471,-0.1728,0.4714,0.0215,-17.395,-3.185,28.210,411,409,389,400,391,2025-05-27T11:30:43.045035
15472,-0.1810,0.3548,0.0293,-14.805,-4.585,17.745,421,432,388,418,409,2025-05-27T11:30:43.045035
15473,-0.1669,0.2533,0.0468,-10.990,-4.865,4.550,403,425,384,425,404,2025-05-27T11:30:43.045184
15474,-0.1347,0.1440,0.0425,-8.330,-1.505,-10.500,352,438,343,348,363,2025-05-27T11:30:43.045184
15475,-0.1210,0.0542,0.0566,-6.580,6.930,-24.290,383,432,363,391,378,2025-05-27T11:30:43.045184
15476,-0.1064,-0.0327,0.0547,-2.835,19.075,-43.015,419,420,332,353,393,2025-05-27T11:30:43.045184
15477,-0.0942,-0.1523,0.0268,3.220,33.495,-64.400,392,405,366,338,348,2025-05-27T11:30:43.045184
15478,-0.0464,-0.2264,0.0122,6.020,53.900,-89.705,377,436,381,383,377,2025-05-27T11:30:43.045429
15479,-0.0381,-0.2513,0.0015,3.290,75.740,-117.880,410,351,390,399,387,2025-05-27T11:30:43.045429
15480,-0.0839,-0.2957,0.0410,-4.445,100.065,-149.065,340,333,374,403,382,2025-05-27T11:30:43.045429
15481,-0.2216,-0.3011,0.1152,-11.445,109.690,-165.620,394,345,366,398,385,2025-05-27T11:30:43.045429
15482,-0.3963,-0.3187,0.2372,-12.740,96.845,-187.320,392,417,361,413,397,2025-05-27T11:30:43.045429
15483,-0.5680,-0.2874,0.3655,-4.970,62.930,-206.395,403,405,354,425,385,2025-05-27T11:30:43.128602
15484,-0.7344,-0.1308,0.4880,4.655,19.810,-226.520,415,425,355,354,382,2025-05-27T11:30:43.578505
15485,-0.8442,0.0137,0.7569,16.310,-23.555,-252.140,430,417,369,383,400,2025-05-27T11:30:43.578505
15486,-0.9150,0.1630,0.9658,32.060,-61.950,-278.425,420,440,383,409,412,2025-05-27T11:30:43.578505
15487,-0.9111,0.3465,1.2483,40.495,-80.360,-300.090,415,416,342,346,409,2025-05-27T11:30:43.578505
15488,-0.9984,0.5544,1.5645,34.860,-89.460,-313.600,416,352,354,374,394,2025-05-27T11:30:43.578505
15489,-1.3581,0.7481,1.9154,25.900,-92.085,-320.985,423,399,327,386,393,2025-05-27T11:30:43.578505
15490,-1.7763,0.9170,2.0808,25.305,-113.295,-315.455,414,353,355,397,412,2025-05-27T11:30:43.578505
15491,-2.2053,1.2595,2.3126,29.925,-147.280,-297.570,367,393,376,412,415,2025-05-27T11:30:43.578505
15492,-2.7391,1.5040,2.3258,40.285,-176.435,-274.540,416,396,383,391,393,2025-05-27T11:30:43.578505
15493,-3.0266,1.8471,2.1145,54.075,-201.950,-245.455,337,422,390,402,353,2025-05-27T11:30:43.578505
15494,-3.4145,2.2921,1.9554,68.425,-232.680,-200.480,389,426,387,405,393,2025-05-27T11:30:43.578505
15495,-3.9172,2.5278,1.8451,74.060,-252.000,-140.980,426,427,355,426,408,2025-05-27T11:30:43.578505
15496,-4.1085,2.4312,1.4938,87.220,-292.355,-88.830,419,406,367,400,394,2025-05-27T11:30:43.578505
15497,-4.3720,2.4249,1.2039,93.905,-350.735,-17.990,405,423,381,399,405,2025-05-27T11:30:43.578505
15498,-4.3852,2.4371,0.7359,89.845,-412.195,54.600,415,414,345,391,410,2025-05-27T11:30:43.578505
15499,-4.1763,2.5508,0.2884,78.190,-442.190,121.240,424,381,370,410,401,2025-05-27T11:30:43.578505
15500,-3.8733,2.6030,-0.4133,58.870,-440.650,185.955,401,410,365,349,395,2025-05-27T11:30:43.578505
15501,-3.6624,2.6274,-0.9140,38.045,-415.240,244.230,338,427,365,369,406,2025-05-27T11:30:43.578505
15502,-3.8430,2.5625,-1.2830,-1.330,-378.280,299.390,378,438,382,337,412,2025-05-27T11:30:43.578505
15503,-4.2793,2.1633,-1.5528,-32.340,-367.360,356.475,391,396,350,381,351,2025-05-27T11:30:43.578505
15504,-4.4715,1.5548,-1.7973,-42.350,-385.525,402.430,394,423,361,406,376,2025-05-27T11:30:43.578505
15505,-4.4437,1.2424,-2.0037,-44.695,-394.275,460.110,378,434,384,398,385,2025-05-27T11:30:43.578505
15506,-4.7024,0.7989,-2.2590,-48.195,-364.945,510.510,391,420,357,412,408,2025-05-27T11:30:43.578505
15507,-5.0093,0.3240,-2.2570,-60.725,-311.045,563.885,396,358,368,417,393,2025-05-27T11:30:43.578505
15508,-5.4026,-0.3475,-2.0184,-93.100,-248.115,631.540,405,385,383,410,392,2025-05-27T11:30:43.578505
15509,-5.6403,-0.9145,-1.8837,-100.660,-188.335,719.670,389,386,345,398,392,2025-05-27T11:30:43.578505
15510,-5.9385,-1.6246,-1.5938,-113.295,-137.235,786.730,412,405,362,348,407,2025-05-27T11:30:43.578505
15511,-5.7169,-2.1062,-1.3244,-113.610,-121.765,834.190,349,422,377,389,394,2025-05-27T11:30:43.578505
15512,-5.3470,-2.5381,-1.1483,-96.880,-129.675,859.705,411,406,387,394,394,2025-05-27T11:30:43.578505
15513,-4.4984,-2.7074,-1.0238,-65.800,-137.200,860.405,400,403,368,396,410,2025-05-27T11:30:43.578505
15514,-4.1407,-2.7382,-0.6329,-54.040,-109.410,851.760,397,393,378,412,407,2025-05-27T11:30:43.578505
15515,-4.0436,-3.2018,-0.3860,-53.760,-66.605,817.075,419,407,378,396,397,2025-05-27T11:30:43.578505
15516,-4.1665,-4.0167,-0.2362,-49.175,-52.395,760.410,415,406,343,395,400,2025-05-27T11:30:43.578505
15517,-3.8030,-4.7814,-0.1039,-6.930,-68.565,707.350,413,416,374,401,379,2025-05-27T11:30:43.578505
15518,-2.7865,-5.3192,0.1405,59.465,-78.715,667.590,407,391,372,348,300,2025-05-27T11:30:43.578505
15519,-1.4679,-5.4495,0.3787,121.275,-47.425,629.965,302,425,369,366,367,2025-05-27T11:30:43.578505
15520,-0.3938,-5.0327,0.7115,165.935,29.120,565.495,386,434,379,396,382,2025-05-27T11:30:43.578505
15521,0.1147,-4.5364,0.6861,162.260,113.995,495.285,405,404,381,389,396,2025-05-27T11:30:43.680471
15522,0.1884,-4.0875,0.9360,167.090,150.710,403.970,389,414,371,389,410,2025-05-27T11:30:43.680471
15523,0.2728,-3.5795,0.9394,188.195,143.115,311.885,429,424,334,403,407,2025-05-27T11:30:43.680471
15524,0.2377,-3.0642,1.0887,211.575,148.785,225.575,404,430,333,412,411,2025-05-27T11:30:43.680471
15525,0.2630,-2.7655,1.3976,217.560,158.235,150.885,424,388,353,414,397,2025-05-27T11:30:43.680471
15526,0.2094,-2.3029,1.6841,196.455,177.765,86.940,414,419,366,352,393,2025-05-27T11:30:43.680471
15527,-0.0122,-2.0223,1.7485,179.235,170.835,21.455,425,407,334,390,410,2025-05-27T11:30:43.680471
15528,-0.1669,-1.6368,1.5640,180.565,142.975,-39.830,439,402,353,412,400,2025-05-27T11:30:43.680471
15529,-0.3694,-1.1980,1.4132,184.625,124.915,-100.485,431,408,342,391,385,2025-05-27T11:30:43.680471
15530,-0.6173,-0.9155,1.3034,186.900,117.635,-152.460,352,393,358,401,390,2025-05-27T11:30:43.680471
15531,-0.8194,-0.7681,1.2171,192.255,109.410,-191.030,419,420,375,410,409,2025-05-27T11:30:43.680471
15532,-0.8823,-0.6349,1.2141,199.745,104.790,-215.635,355,393,384,353,386,2025-05-27T11:30:43.680471
15533,-0.8760,-0.4997,1.2171,206.745,116.550,-228.830,427,395,384,352,354,2025-05-27T11:30:43.680471
15534,-0.8867,-0.4353,1.1590,209.930,142.240,-239.540,400,385,389,384,342,2025-05-27T11:30:43.761881
15535,-1.0058,-0.3997,1.0741,217.175,156.590,-246.610,424,359,372,398,342,2025-05-27T11:30:43.761881
15536,-1.1375,-0.3514,0.9438,232.610,149.695,-250.740,443,404,388,399,387,2025-05-27T11:30:43.761881
15537,-1.3200,-0.3070,0.8389,254.835,120.120,-257.040,441,433,386,405,385,2025-05-27T11:30:43.761881
15538,-1.3381,-0.1806,0.6808,282.240,76.300,-263.130,441,416,398,421,384,2025-05-27T11:30:43.761881
15539,-1.2634,-0.0698,0.5954,306.495,36.890,-271.705,366,430,384,361,389,2025-05-27T11:30:43.761881
15540,-1.1839,0.0259,0.5266,319.200,16.730,-281.505,405,436,361,404,356,2025-05-27T11:30:43.761881
15541,-1.0443,0.1171,0.4592,327.145,4.900,-287.245,427,433,379,393,377,2025-05-27T11:30:43.761881
15542,-0.9511,0.1508,0.3743,331.485,3.290,-287.035,441,428,393,397,395,2025-05-27T11:30:43.861182
15543,-0.9672,0.1723,0.2713,334.250,10.920,-288.820,410,434,355,416,389,2025-05-27T11:30:43.861182
15544,-1.0380,0.2020,0.1781,336.490,25.270,-290.465,415,418,374,404,347,2025-05-27T11:30:43.861182
15545,-1.0751,0.2137,0.1069,340.620,32.095,-288.540,415,394,378,409,368,2025-05-27T11:30:43.861182
15546,-1.1136,0.2933,0.0532,343.210,38.990,-276.430,419,391,372,391,385,2025-05-27T11:30:43.861645
15547,-1.2068,0.3689,0.0708,334.075,44.520,-260.085,391,406,376,407,407,2025-05-27T11:30:43.861745
15548,-1.2717,0.4446,0.0678,343.945,37.065,-240.450,391,417,380,417,397,2025-05-27T11:30:43.861745
15549,-1.3474,0.5407,0.0073,346.465,23.030,-223.090,403,419,383,425,400,2025-05-27T11:30:43.861879
15550,-1.4206,0.6749,0.0644,357.560,5.075,-208.530,354,428,348,358,346,2025-05-27T11:30:43.961056
15551,-1.3898,0.8725,0.0971,359.870,-15.575,-197.330,390,413,353,376,372,2025-05-27T11:30:43.961056
15552,-1.2298,1.1170,0.1537,350.805,-29.190,-175.805,410,428,332,413,386,2025-05-27T11:30:43.961056
15553,-1.0736,1.4459,0.2728,330.190,-25.830,-140.105,415,436,357,426,311,2025-05-27T11:30:43.961056
15554,-1.0424,1.6016,0.4026,295.890,-14.490,-99.330,408,434,391,410,383,2025-05-27T11:30:43.961056
15555,-1.1273,1.6860,0.5324,270.865,-14.140,-59.255,403,419,375,345,396,2025-05-27T11:30:43.961484
15556,-1.2058,1.6246,0.5983,242.480,-26.915,-22.120,373,400,368,394,404,2025-05-27T11:30:43.961484
15557,-1.2464,1.6880,0.5505,223.615,-55.895,12.775,369,393,373,383,349,2025-05-27T11:30:43.961484
15558,-1.0492,1.6924,0.6529,213.675,-88.305,36.225,403,337,373,402,387,2025-05-27T11:30:43.961611
15559,-1.1239,1.5758,0.4348,199.220,-105.280,60.900,395,383,334,412,396,2025-05-27T11:30:44.062020
15560,-1.0487,1.5362,0.3084,185.290,-117.215,85.155,297,402,360,402,388,2025-05-27T11:30:44.062020
15561,-0.8721,1.4015,0.2176,172.095,-117.390,103.915,382,428,335,402,406,2025-05-27T11:30:44.062020
15562,-0.7300,1.2747,0.1132,157.605,-110.950,119.210,410,409,348,400,401,2025-05-27T11:30:44.062020
15563,-0.5841,1.1473,0.0644,144.130,-96.110,130.515,389,387,362,393,407,2025-05-27T11:30:44.062020
15564,-0.4851,0.9989,0.0176,125.475,-72.275,138.215,411,389,358,410,399,2025-05-27T11:30:44.062020
15565,-0.4265,0.8989,-0.0205,108.815,-64.890,141.295,423,381,374,413,408,2025-05-27T11:30:44.062020
15566,-0.3479,0.7920,-0.0581,93.695,-50.155,140.385,420,392,333,417,393,2025-05-27T11:30:44.062020
15567,-0.2733,0.7027,-0.1015,79.310,-36.785,135.695,397,391,315,408,387,2025-05-27T11:30:44.162106
15568,-0.2186,0.6446,-0.1610,68.250,-26.670,128.975,419,337,354,418,398,2025-05-27T11:30:44.162106
15569,-0.2006,0.5768,-0.1952,59.920,-23.765,119.700,421,383,354,399,412,2025-05-27T11:30:44.162106
15570,-0.1601,0.5431,-0.2133,54.565,-25.970,108.115,365,410,360,363,397,2025-05-27T11:30:44.162106
15571,-0.1157,0.4909,-0.1976,45.605,-27.405,94.535,410,384,364,337,411,2025-05-27T11:30:44.162106
15572,-0.0825,0.4602,-0.1776,35.280,-25.970,80.430,396,406,363,370,413,2025-05-27T11:30:44.162106
15573,-0.0547,0.4324,-0.1815,26.005,-24.255,69.440,414,410,382,386,418,2025-05-27T11:30:44.162106
15574,-0.0444,0.4114,-0.1903,18.375,-21.210,56.070,381,391,386,407,413,2025-05-27T11:30:44.162106
15575,-0.0332,0.3845,-0.1708,9.975,-13.335,41.860,335,403,373,401,399,2025-05-27T11:30:44.162106
15576,-0.0439,0.3728,-0.1098,0.805,-1.855,26.915,377,410,377,394,399,2025-05-27T11:30:44.228421
15577,-0.0708,0.3587,-0.0800,-6.685,9.345,13.265,414,426,374,393,384,2025-05-27T11:30:44.228421
15578,-0.0791,0.3738,-0.0556,-11.200,20.615,0.630,376,425,374,390,396,2025-05-27T11:30:44.228421
15579,-0.1279,0.4402,-0.0381,-17.010,32.445,-13.720,335,412,349,396,310,2025-05-27T11:30:44.228421
15580,-0.1928,0.4963,-0.0020,-23.975,48.685,-27.160,393,405,373,386,320,2025-05-27T11:30:44.393055
15581,-0.2767,0.5651,0.0991,-32.550,60.095,-44.100,376,403,335,397,369,2025-05-27T11:30:44.393055
15582,-0.3758,0.6324,0.2079,-37.870,60.970,-57.260,407,335,368,361,395,2025-05-27T11:30:44.393055
15583,-0.4714,0.7549,0.2830,-37.870,52.010,-64.820,420,335,366,359,383,2025-05-27T11:30:44.393055
15584,-0.5495,0.8989,0.3484,-35.035,40.005,-68.075,407,398,339,381,396,2025-05-27T11:30:44.393055
15585,-0.5963,1.0038,0.4436,-29.785,28.315,-68.810,420,391,367,387,348,2025-05-27T11:30:44.393055
15586,-0.6266,1.0599,0.5202,-23.030,18.900,-65.730,427,416,375,388,343,2025-05-27T11:30:44.393055
15587,-0.6110,1.1102,0.5666,-14.525,3.815,-60.515,421,414,379,395,363,2025-05-27T11:30:44.393055
15588,-0.5954,1.1473,0.5734,-7.070,-6.790,-52.500,400,403,384,416,386,2025-05-27T11:30:44.393055
15589,-0.5714,1.1361,0.5236,1.575,-15.820,-44.065,354,413,393,409,375,2025-05-27T11:30:44.393055
15590,-0.5607,1.0370,0.4714,8.190,-19.985,-38.220,405,408,376,410,375,2025-05-27T11:30:44.393055
15591,-0.4626,0.8667,0.3460,16.940,-26.635,-35.385,395,414,374,414,398,2025-05-27T11:30:44.393055
15592,-0.2928,0.6320,0.1688,19.285,-26.635,-38.010,417,406,383,417,383,2025-05-27T11:30:44.393055
15593,-0.1103,0.3865,-0.0859,10.745,-13.825,-46.515,431,399,371,412,412,2025-05-27T11:30:44.393055
15594,0.1703,0.1371,-0.3475,-15.750,16.485,-64.680,406,351,380,361,388,2025-05-27T11:30:44.478429
15595,0.4319,-0.2357,-0.4939,-54.355,63.595,-93.940,359,381,383,394,373,2025-05-27T11:30:44.478429
15596,0.6159,-0.6359,-0.5544,-86.590,110.915,-135.310,403,396,392,350,405,2025-05-27T11:30:44.478429
15597,0.5612,-1.0248,-0.6212,-107.485,144.620,-189.735,415,339,383,387,408,2025-05-27T11:30:44.478429
15598,0.3436,-1.3342,-0.5588,-105.560,144.550,-251.930,377,328,370,343,385,2025-05-27T11:30:44.478429
15599,0.1215,-1.4728,-0.3133,-80.920,121.625,-315.280,410,337,372,391,394,2025-05-27T11:30:44.478429
15600,-0.1488,-1.4181,-0.0137,-28.385,60.585,-366.415,423,377,366,392,409,2025-05-27T11:30:44.478429
15601,-0.3128,-1.2083,0.1713,-11.725,34.895,-398.300,421,394,362,354,365,2025-05-27T11:30:44.478429
15602,-0.6398,-1.0458,0.6095,14.770,11.970,-448.980,344,389,370,376,341,2025-05-27T11:30:44.562524
15603,-0.9287,-0.7364,1.0599,38.920,-4.235,-475.965,328,359,384,389,375,2025-05-27T11:30:44.562524
15604,-1.3996,-0.6554,1.2869,62.195,-10.255,-492.485,371,386,348,415,385,2025-05-27T11:30:44.562524
15605,-1.8334,-0.4992,1.6494,75.740,15.855,-487.900,384,386,361,349,387,2025-05-27T11:30:44.562524
15606,-2.3658,-0.3514,1.9974,78.995,75.355,-467.705,412,416,370,375,389,2025-05-27T11:30:44.677667
15607,-3.3218,-0.2508,2.3322,74.200,118.510,-432.425,338,417,381,380,376,2025-05-27T11:30:44.678049
15608,-4.2822,-0.0991,2.3234,89.075,116.200,-383.880,280,403,385,345,387,2025-05-27T11:30:44.678049
15609,-5.0845,0.4138,2.2087,134.050,9.590,-336.175,379,420,385,384,363,2025-05-27T11:30:44.678049
15610,-5.5100,0.9921,1.9705,164.325,-146.440,-274.050,408,315,376,411,392,2025-05-27T11:30:44.678049
15611,-5.6603,0.7452,2.2184,183.295,-283.780,-259.560,405,329,390,357,391,2025-05-27T11:30:44.678049
15612,-5.4895,1.4025,1.8173,183.715,-369.740,-135.660,440,357,396,409,410,2025-05-27T11:30:44.678049
15613,-5.0488,1.7592,1.2995,172.270,-438.795,-48.790,353,403,373,404,354,2025-05-27T11:30:44.678049
15614,-4.4291,1.6241,1.0887,171.395,-446.495,20.825,369,400,373,389,364,2025-05-27T11:30:44.678049
15615,-4.2656,1.6094,0.9765,156.800,-434.140,88.305,416,411,382,399,331,2025-05-27T11:30:44.678049
15616,-4.1334,1.5884,0.7344,138.810,-413.875,130.865,424,420,390,411,369,2025-05-27T11:30:44.678049
15617,-4.1363,1.5474,0.3865,122.465,-403.865,179.340,395,400,388,358,336,2025-05-27T11:30:44.678049
15618,-4.2490,1.4313,-0.0190,114.975,-409.570,226.730,338,345,383,378,368,2025-05-27T11:30:44.778264
15619,-4.3617,1.3527,-0.5144,115.850,-437.045,275.520,388,356,380,346,376,2025-05-27T11:30:44.778264
15620,-4.3749,1.1897,-0.9262,111.125,-466.900,320.005,347,375,382,380,343,2025-05-27T11:30:44.778264
15621,-4.3930,1.0960,-1.3293,82.600,-454.650,358.680,375,420,371,392,344,2025-05-27T11:30:44.778264
15622,-4.7224,0.8667,-1.5982,40.775,-402.150,407.190,399,393,337,391,359,2025-05-27T11:30:44.778264
15623,-5.4588,0.4695,-1.6958,-15.050,-369.600,470.925,333,405,354,305,322,2025-05-27T11:30:44.778264
15624,-6.0166,-0.3924,-1.7802,-41.685,-372.750,540.470,354,396,362,384,367,2025-05-27T11:30:44.778264
15625,-6.0102,-1.0736,-1.9193,-36.540,-399.350,601.720,389,389,364,359,370,2025-05-27T11:30:44.778264
15626,-5.6764,-1.4503,-1.7592,-24.710,-385.525,671.230,416,423,361,383,387,2025-05-27T11:30:44.878381
15627,-5.4368,-1.7075,-1.6158,-22.680,-332.535,728.140,399,411,370,388,387,2025-05-27T11:30:44.878381
15628,-5.5164,-2.0886,-1.3640,-27.755,-279.685,762.055,409,414,328,294,302,2025-05-27T11:30:44.878381
15629,-5.6144,-2.6308,-1.1600,-19.425,-270.655,791.910,424,423,360,366,364,2025-05-27T11:30:44.878381
15630,-5.7037,-3.1935,-1.0716,-1.400,-270.585,812.525,420,394,375,374,383,2025-05-27T11:30:44.878381
15631,-5.5242,-3.5844,-0.9326,6.930,-268.170,823.865,423,416,387,400,398,2025-05-27T11:30:44.878381
15632,-5.0894,-4.1060,-0.8755,30.310,-268.240,826.245,364,385,392,416,395,2025-05-27T11:30:44.878381
15633,-4.4545,-4.7370,-0.7989,66.115,-260.575,801.990,331,413,378,356,392,2025-05-27T11:30:44.878381
15634,-3.6556,-5.1186,-0.7818,125.825,-227.360,772.100,380,385,382,392,393,2025-05-27T11:30:45.644979
15635,-2.5610,-5.4124,-0.5905,193.480,-161.770,733.950,384,421,381,412,396,2025-05-27T11:30:45.644979
15636,-1.5938,-5.3963,-0.4358,262.360,-58.940,698.565,416,427,379,411,406,2025-05-27T11:30:45.644979
15637,-0.9770,-5.2187,-0.2274,275.695,53.550,654.500,421,425,374,417,407,2025-05-27T11:30:45.644979
15638,-0.7022,-4.7629,0.0522,258.790,112.140,609.070,434,407,371,394,416,2025-05-27T11:30:45.644979
15639,-0.3357,-4.3715,0.1996,213.780,134.995,545.230,430,430,383,405,404,2025-05-27T11:30:45.644979
15640,0.0654,-4.0670,0.4597,168.875,137.445,473.375,420,380,398,413,387,2025-05-27T11:30:45.644979
15641,0.3680,-3.6946,0.7008,129.325,143.745,383.390,422,421,391,407,390,2025-05-27T11:30:45.644979
15642,0.5051,-3.2808,0.8906,113.785,143.220,295.015,404,419,390,414,407,2025-05-27T11:30:45.644979
15643,0.4563,-2.6811,1.3557,87.570,168.490,227.220,391,399,380,400,350,2025-05-27T11:30:45.644979
15644,0.2640,-2.2570,1.6289,82.285,184.205,143.850,421,429,385,407,385,2025-05-27T11:30:45.644979
15645,0.0576,-1.9769,1.8368,79.240,189.525,60.760,429,415,377,405,403,2025-05-27T11:30:45.644979
15646,0.0220,-1.7256,1.7627,79.520,179.165,-13.580,401,401,383,398,393,2025-05-27T11:30:45.644979
15647,-0.1200,-1.5435,1.5811,88.725,155.750,-74.025,422,402,396,422,352,2025-05-27T11:30:45.644979
15648,-0.3621,-1.2298,1.4474,104.370,137.130,-130.585,418,411,400,372,390,2025-05-27T11:30:45.644979
15649,-0.6202,-0.9887,1.2942,120.540,119.105,-178.220,417,422,352,403,388,2025-05-27T11:30:45.644979
15650,-0.6051,-0.7462,1.1775,135.240,110.740,-207.025,401,430,378,414,405,2025-05-27T11:30:45.644979
15651,-0.7344,-0.6085,1.0541,143.885,122.010,-232.505,421,426,383,409,352,2025-05-27T11:30:45.644979
15652,-0.8394,-0.5388,0.9931,149.380,146.580,-246.435,417,424,386,422,389,2025-05-27T11:30:45.644979
15653,-1.0014,-0.5348,0.9765,159.600,165.690,-249.025,425,423,386,381,406,2025-05-27T11:30:45.644979
15654,-1.1697,-0.5051,0.9579,176.785,165.935,-246.225,407,414,348,391,390,2025-05-27T11:30:45.644979
15655,-1.2942,-0.4372,0.9287,194.705,146.545,-243.740,431,413,368,351,397,2025-05-27T11:30:45.644979
15656,-1.3366,-0.3675,0.8682,221.060,113.190,-240.975,410,404,342,389,383,2025-05-27T11:30:45.644979
15657,-1.3044,-0.2274,0.8047,244.965,76.685,-241.990,399,409,369,405,396,2025-05-27T11:30:45.644979
15658,-1.2693,-0.1430,0.6686,266.140,55.475,-244.860,406,409,384,412,348,2025-05-27T11:30:45.644979
15659,-1.1854,-0.0488,0.5510,284.340,30.590,-247.135,410,426,393,407,367,2025-05-27T11:30:45.644979
15660,-1.0390,0.0312,0.4636,294.070,20.685,-251.230,449,427,391,352,400,2025-05-27T11:30:45.644979
15661,-0.9340,0.1030,0.4202,297.395,25.340,-253.680,447,412,346,388,398,2025-05-27T11:30:45.644979
15662,-0.9248,0.1659,0.3967,298.865,34.020,-253.575,471,349,356,360,413,2025-05-27T11:30:45.644979
15663,-0.9374,0.1932,0.4338,298.830,36.645,-252.070,440,341,364,407,416,2025-05-27T11:30:45.644979
15664,-1.0438,0.1962,0.4050,307.055,32.550,-248.745,432,334,345,388,364,2025-05-27T11:30:45.644979
15665,-1.1117,0.2357,0.4407,318.640,20.055,-247.100,367,383,359,393,336,2025-05-27T11:30:45.644979
15666,-1.1190,0.4397,0.4821,330.575,-0.840,-239.050,399,331,322,341,378,2025-05-27T11:30:45.644979
15667,-1.0878,0.5295,0.5490,336.210,-15.890,-232.890,405,387,337,368,347,2025-05-27T11:30:45.644979
15668,-1.0399,0.6642,0.6071,335.195,-23.170,-223.440,394,424,361,397,372,2025-05-27T11:30:45.644979
15669,-0.9887,0.8408,0.6852,329.945,-24.255,-206.780,413,411,373,349,373,2025-05-27T11:30:45.644979
15670,-0.9760,0.9989,0.7564,313.775,-24.465,-183.015,412,427,386,380,345,2025-05-27T11:30:45.644979
15671,-1.0492,1.0838,0.7471,314.755,-28.385,-157.220,399,424,391,399,378,2025-05-27T11:30:45.644979
15672,-1.1195,1.1741,0.7359,305.935,-36.645,-135.590,422,426,387,410,405,2025-05-27T11:30:45.644979
15673,-1.1268,1.2210,0.7266,297.080,-51.695,-115.500,420,441,382,409,351,2025-05-27T11:30:45.644979
15674,-1.0970,1.2478,0.6817,282.905,-64.400,-98.525,397,423,373,413,393,2025-05-27T11:30:45.644979
15675,-1.0063,1.2166,0.6764,276.850,-83.825,-72.730,392,404,338,409,405,2025-05-27T11:30:45.644979
15676,-0.9799,1.1902,0.6525,266.105,-92.715,-50.295,388,374,369,396,418,2025-05-27T11:30:45.644979
15677,-0.8389,1.2537,0.5583,255.290,-97.965,-31.255,371,409,369,408,402,2025-05-27T11:30:45.644979
15678,-0.7061,1.2844,0.5236,236.705,-89.950,-11.270,413,395,365,400,406,2025-05-27T11:30:45.644979
15679,-0.6320,1.2210,0.4358,215.320,-77.490,7.350,406,379,372,307,387,2025-05-27T11:30:45.644979
15680,-0.6305,1.1297,0.3338,194.320,-64.470,24.675,416,362,381,357,401,2025-05-27T11:30:45.644979
15681,-0.6315,1.0775,0.2542,178.185,-63.805,37.275,394,412,385,391,388,2025-05-27T11:30:45.644979
15682,-0.6217,1.0063,0.1830,167.510,-70.140,50.540,418,423,346,342,387,2025-05-27T11:30:45.644979
15683,-0.5622,0.9077,0.0991,161.875,-76.160,63.420,416,431,372,331,378,2025-05-27T11:30:45.644979
15684,-0.4333,0.7876,0.0288,156.590,-82.250,74.130,421,397,375,371,406,2025-05-27T11:30:45.644979
15685,-0.2996,0.7281,-0.0054,148.225,-76.790,81.760,403,401,378,407,412,2025-05-27T11:30:45.644979
15686,-0.1928,0.6964,0.0044,136.640,-57.330,85.575,415,423,367,406,413,2025-05-27T11:30:45.644979
15687,-0.1118,0.6725,-0.0244,120.575,-31.325,85.855,398,410,382,420,418,2025-05-27T11:30:45.644979
15688,-0.0727,0.5915,-0.0956,102.165,-11.935,83.930,376,418,391,412,364,2025-05-27T11:30:45.644979
15689,-0.0712,0.5119,-0.1249,89.075,3.360,80.710,367,421,392,410,337,2025-05-27T11:30:45.644979
15690,-0.0786,0.4582,-0.1254,78.785,11.445,75.530,397,424,397,389,380,2025-05-27T11:30:45.644979
15691,-0.0971,0.4221,-0.1244,69.125,13.195,67.865,341,399,383,410,406,2025-05-27T11:30:45.644979
15692,-0.1020,0.4075,-0.1308,62.020,10.535,57.120,405,424,346,424,374,2025-05-27T11:30:45.644979
15693,-0.0815,0.4080,-0.0952,52.780,7.455,42.210,376,420,375,403,381,2025-05-27T11:30:45.644979
15694,-0.0576,0.4304,-0.0810,42.770,8.190,25.025,407,348,338,395,380,2025-05-27T11:30:45.644979
15695,-0.0459,0.4431,-0.0512,30.940,10.920,10.640,374,398,325,407,381,2025-05-27T11:30:45.644979
15696,-0.0293,0.4743,-0.0073,18.480,12.775,-6.755,400,407,343,404,389,2025-05-27T11:30:45.644979
15697,-0.0083,0.5397,0.0185,6.440,15.890,-21.910,409,413,366,393,387,2025-05-27T11:30:45.644979
15698,-0.0146,0.6159,0.0634,-3.535,21.665,-36.890,430,404,338,385,411,2025-05-27T11:30:45.828497
15699,-0.0771,0.7784,0.1420,-14.770,28.070,-50.505,345,398,325,397,396,2025-05-27T11:30:45.828497
15700,-0.1498,0.9311,0.2128,-22.190,33.005,-62.475,405,418,362,412,353,2025-05-27T11:30:45.828497
15701,-0.2635,1.0551,0.3601,-27.125,33.705,-69.300,410,407,355,394,390,2025-05-27T11:30:45.828497
15702,-0.3260,1.1849,0.4709,-31.255,30.065,-71.645,426,398,380,390,391,2025-05-27T11:30:45.828497
15703,-0.4226,1.2912,0.5397,-34.370,24.780,-66.570,427,421,385,384,389,2025-05-27T11:30:45.828497
15704,-0.4924,1.3825,0.6090,-34.370,18.830,-56.840,432,408,395,393,402,2025-05-27T11:30:45.828497
15705,-0.5885,1.4577,0.5724,-31.780,15.225,-47.425,398,430,394,406,412,2025-05-27T11:30:45.828497
15706,-0.6412,1.4245,0.5090,-26.635,10.850,-38.535,414,424,393,405,400,2025-05-27T11:30:45.828497
15707,-0.6573,1.4372,0.1932,-21.105,25.375,-28.385,420,397,342,353,391,2025-05-27T11:30:45.828497
15708,-0.5597,1.2790,0.3870,-19.005,7.735,-18.585,402,387,349,374,387,2025-05-27T11:30:45.828497
15709,-0.6456,1.0287,0.3811,-8.925,-14.175,-7.315,402,422,363,374,414,2025-05-27T11:30:45.828497
15710,-0.5319,0.8384,0.2830,-10.080,-19.810,-0.245,375,393,380,362,405,2025-05-27T11:30:45.828497
15711,-0.3631,0.6744,0.1532,-10.710,-24.185,2.625,401,405,369,394,414,2025-05-27T11:30:45.828497
15712,-0.2826,0.4490,0.0224,-14.630,-19.845,-1.960,394,362,378,404,371,2025-05-27T11:30:45.828497
15713,-0.2011,0.1679,-0.1186,-18.480,-11.095,-11.620,381,411,367,394,382,2025-05-27T11:30:45.918114
15714,-0.0869,-0.0517,-0.2699,-22.330,4.060,-31.640,394,427,384,410,398,2025-05-27T11:30:45.918114
15715,0.0146,-0.3479,-0.4026,-26.180,21.595,-56.490,406,434,375,401,392,2025-05-27T11:30:45.918114
15716,0.1132,-0.5885,-0.4519,-26.845,42.035,-84.875,367,420,382,395,396,2025-05-27T11:30:45.918114
15717,0.0844,-0.7871,-0.4797,-26.180,60.165,-114.485,364,379,380,394,393,2025-05-27T11:30:45.995163
15718,-0.1035,-1.0228,-0.3099,-22.085,70.490,-149.345,385,413,376,390,401,2025-05-27T11:30:45.995163
15719,-0.3065,-1.1214,-0.1742,-7.385,60.515,-184.975,419,409,337,383,399,2025-05-27T11:30:45.995163
15720,-0.5056,-1.1522,0.0176,23.870,34.685,-218.505,410,403,370,345,349,2025-05-27T11:30:45.995163
15721,-0.5963,-0.8784,0.2694,66.080,-15.890,-248.535,414,415,375,389,333,2025-05-27T11:30:45.995163
15722,-0.6617,-0.3841,0.5051,98.140,-52.605,-271.180,416,409,376,344,323,2025-05-27T11:30:45.995163
15723,-0.6134,-0.1039,0.6773,96.600,-51.065,-302.750,431,420,347,366,324,2025-05-27T11:30:45.995163
15724,-0.5261,0.3221,0.7193,83.720,-27.230,-332.045,359,426,360,383,374,2025-05-27T11:30:45.995163
15725,-0.7242,0.5597,1.0116,55.020,-5.880,-350.665,423,410,370,400,400,2025-05-27T11:30:46.111724
15726,-1.1190,0.9575,1.2781,35.070,13.580,-365.260,418,377,383,397,351,2025-05-27T11:30:46.111724
15727,-1.6890,1.2639,1.5030,3.290,21.525,-366.730,416,375,383,412,378,2025-05-27T11:30:46.111724
15728,-2.2077,1.5792,1.8002,-20.510,6.580,-354.270,418,399,370,418,398,2025-05-27T11:30:46.111724
15729,-2.8524,1.7134,2.0262,-24.675,-52.780,-329.280,388,347,377,401,411,2025-05-27T11:30:46.111724
15730,-3.3906,1.9159,2.1452,-19.950,-122.220,-287.420,407,405,382,397,400,2025-05-27T11:30:46.111724
15731,-3.8493,1.8842,2.2316,-7.140,-201.635,-239.085,375,404,403,402,404,2025-05-27T11:30:46.111724
15732,-4.0826,2.1199,2.2658,-6.300,-278.775,-164.465,291,411,386,392,402,2025-05-27T11:30:46.111724
15733,-3.7068,3.3199,2.3639,5.600,-379.540,-34.160,405,442,416,402,355,2025-05-27T11:30:46.111724
15734,-3.7596,2.2126,1.8871,19.460,-387.170,-0.700,420,414,365,390,335,2025-05-27T11:30:46.111724
15735,-3.6088,2.2219,1.8456,24.465,-414.015,50.820,336,421,355,405,371,2025-05-27T11:30:46.111724
15736,-3.0895,2.6049,1.4523,29.855,-414.120,100.275,398,403,370,399,335,2025-05-27T11:30:46.216252
15737,-2.9221,2.5493,0.9457,28.350,-391.685,156.415,385,419,378,414,349,2025-05-27T11:30:46.216252
15738,-2.9973,2.5835,0.4699,18.550,-368.445,203.070,405,399,383,409,368,2025-05-27T11:30:46.216252
15739,-3.1598,2.5947,0.0898,7.000,-374.535,245.700,422,404,338,397,394,2025-05-27T11:30:46.216252
15740,-3.5497,2.4234,-0.2225,-2.975,-399.315,283.325,397,427,363,390,408,2025-05-27T11:30:46.216252
15741,-3.7805,1.9652,-0.5588,-12.425,-452.550,306.845,408,398,377,411,391,2025-05-27T11:30:46.216252
15742,-4.2090,1.6719,-0.7632,-15.295,-451.010,372.995,386,351,384,359,383,2025-05-27T11:30:46.216252
15743,-4.1578,1.3820,-0.9443,-29.365,-453.740,414.645,417,398,391,388,397,2025-05-27T11:30:46.216252
15744,-4.2227,1.2981,-1.1053,-56.000,-404.985,449.575,413,421,391,401,394,2025-05-27T11:30:46.216252
15745,-4.7390,1.2337,-1.3669,-88.375,-333.375,493.850,425,403,392,395,404,2025-05-27T11:30:46.311630
15746,-5.5715,0.5651,-1.3518,-105.245,-302.960,536.270,428,389,381,392,396,2025-05-27T11:30:46.311630
15747,-5.8916,-0.2020,-1.3742,-88.095,-313.215,596.505,426,417,341,402,396,2025-05-27T11:30:46.311630
15748,-5.9634,-1.0516,-1.0736,-57.330,-312.900,657.370,419,390,325,399,400,2025-05-27T11:30:46.311630
15749,-5.8702,-1.7153,-0.7584,-24.535,-277.165,717.220,354,414,358,412,409,2025-05-27T11:30:46.311630
15750,-5.3934,-2.2184,-0.6695,0.175,-232.995,758.870,390,401,370,417,410,2025-05-27T11:30:46.311630
15751,-4.4959,-2.4298,-0.6832,23.555,-187.705,771.155,422,411,382,397,389,2025-05-27T11:30:46.311630
15752,-3.6951,-2.3688,-0.4660,6.090,-120.715,769.510,424,396,386,390,367,2025-05-27T11:30:46.311630
15753,-3.7132,-3.0134,-0.3782,-11.585,-62.195,754.180,419,411,373,403,404,2025-05-27T11:30:46.411326
15754,-4.0850,-3.9406,-0.5836,15.820,-84.105,705.320,423,419,384,350,385,2025-05-27T11:30:46.411326
15755,-3.1910,-4.3896,-0.6808,90.055,-154.560,651.980,418,402,388,379,390,2025-05-27T11:30:46.411326
15756,-1.8768,-4.5364,-0.5202,161.035,-137.025,607.705,403,392,387,380,406,2025-05-27T11:30:46.411326
15757,-0.7642,-4.5067,-0.4821,205.695,-0.735,564.445,400,365,389,405,351,2025-05-27T11:30:46.411326
15758,-0.3245,-3.9035,-0.2869,213.745,159.740,515.935,409,416,355,383,370,2025-05-27T11:30:46.411326
15759,-0.4963,-3.7600,-0.1879,180.215,266.770,457.975,427,428,364,399,396,2025-05-27T11:30:46.411326
15760,-0.3953,-3.5736,0.2045,149.730,292.600,393.190,425,409,336,422,410,2025-05-27T11:30:46.411326
15761,-0.4431,-3.5224,0.5441,142.975,276.325,320.425,413,396,363,408,405,2025-05-27T11:30:46.411326
15762,-0.4226,-3.1276,0.8833,155.330,243.075,259.385,396,348,338,415,395,2025-05-27T11:30:46.462029
15763,-0.2435,-2.6454,1.1244,161.945,270.725,182.840,394,366,373,411,395,2025-05-27T11:30:46.462029
15764,-0.3553,-2.4507,1.4347,157.955,303.240,110.845,404,420,343,416,393,2025-05-27T11:30:46.462029
15765,-0.5153,-2.3697,1.8202,161.385,324.240,48.545,424,439,362,424,401,2025-05-27T11:30:46.462029
15766,-0.6022,-2.0550,2.0150,165.760,317.625,-4.200,434,434,379,407,391,2025-05-27T11:30:46.647115
15767,-0.7037,-1.8329,1.9159,184.660,290.955,-46.305,410,356,342,408,401,2025-05-27T11:30:46.647115
15768,-0.8955,-1.5323,1.7563,206.430,254.380,-94.850,387,397,353,409,409,2025-05-27T11:30:46.647115
15769,-0.9736,-1.1658,1.5416,244.685,219.905,-141.505,423,339,363,407,384,2025-05-27T11:30:46.647115
15770,-1.0189,-0.8169,1.3132,280.210,203.980,-182.490,439,413,370,360,403,2025-05-27T11:30:46.647115
15771,-1.2483,-0.5056,1.1790,304.255,198.345,-214.935,420,385,337,369,407,2025-05-27T11:30:46.647115
15772,-1.2815,-0.3284,1.0263,326.865,182.280,-232.400,429,392,357,397,399,2025-05-27T11:30:46.647115
15773,-1.4040,-0.2601,0.8428,353.290,149.555,-243.600,446,431,369,402,408,2025-05-27T11:30:46.647115
15774,-1.4718,-0.2059,0.7120,378.070,109.760,-249.165,418,417,374,357,416,2025-05-27T11:30:46.647115
15775,-1.5001,-0.1220,0.5666,397.460,78.750,-251.405,368,364,374,340,396,2025-05-27T11:30:46.647115
15776,-1.5484,-0.0386,0.4514,420.105,51.660,-252.735,433,399,385,367,400,2025-05-27T11:30:46.647115
15777,-1.5553,0.1127,0.3967,423.360,31.115,-251.440,393,434,402,347,390,2025-05-27T11:30:46.647115
15778,-1.5133,0.2596,0.4343,426.580,13.930,-240.660,414,313,388,395,386,2025-05-27T11:30:46.647115
15779,-1.4533,0.3518,0.4841,421.120,0.490,-221.445,408,382,388,360,392,2025-05-27T11:30:46.647115
15780,-1.4640,0.3967,0.3475,412.055,-17.325,-194.250,418,422,378,355,388,2025-05-27T11:30:46.827566
15781,-1.5304,0.4163,0.1967,408.940,-39.970,-172.060,393,393,373,379,392,2025-05-27T11:30:46.827566
15782,-1.6436,0.4158,0.0991,406.490,-64.715,-155.855,376,370,343,396,395,2025-05-27T11:30:46.827566
15783,-1.6572,0.5651,0.0976,406.840,-101.570,-134.470,382,412,369,340,409,2025-05-27T11:30:46.827566
15784,-1.4752,0.7549,0.1225,396.165,-128.310,-104.335,383,406,373,391,410,2025-05-27T11:30:47.361639
15785,-1.3196,0.8325,0.1039,385.980,-147.350,-71.855,405,384,351,390,414,2025-05-27T11:30:47.361639
15786,-1.1644,0.8901,0.0327,371.735,-149.380,-43.680,372,391,354,405,408,2025-05-27T11:30:47.361639
15787,-1.0302,0.9140,-0.0503,359.380,-142.520,-25.165,397,384,380,374,413,2025-05-27T11:30:47.361639
15788,-0.8545,0.9335,-0.1240,340.585,-123.375,-4.270,413,396,373,400,397,2025-05-27T11:30:47.361639
15789,-0.7188,0.9906,-0.1806,316.855,-97.440,18.865,398,427,345,392,389,2025-05-27T11:30:47.361639
15790,-0.6700,1.0072,-0.1879,292.880,-78.225,42.175,394,407,356,422,386,2025-05-27T11:30:47.361639
15791,-0.6446,1.0390,-0.2186,273.455,-74.795,61.635,404,390,343,425,340,2025-05-27T11:30:47.361639
15792,-0.6227,1.0326,-0.2689,254.485,-80.605,76.685,299,334,319,405,385,2025-05-27T11:30:47.361639
15793,-0.5153,1.0472,-0.2821,234.290,-82.250,85.855,388,413,357,412,388,2025-05-27T11:30:47.361639
15794,-0.4226,1.1014,-0.3045,212.345,-75.880,89.425,419,409,366,415,407,2025-05-27T11:30:47.361639
15795,-0.3562,1.1214,-0.3143,186.935,-62.440,90.965,338,406,367,411,392,2025-05-27T11:30:47.361639
15796,-0.3523,1.0960,-0.3065,161.735,-48.335,89.775,377,419,366,307,394,2025-05-27T11:30:47.361639
15797,-0.3504,1.0492,-0.3026,136.430,-36.715,86.905,385,419,363,382,415,2025-05-27T11:30:47.361639
15798,-0.3494,0.9999,-0.2850,113.645,-29.470,83.580,397,344,377,402,370,2025-05-27T11:30:47.361639
15799,-0.3104,0.9550,-0.2918,92.820,-22.575,80.605,414,396,377,391,396,2025-05-27T11:30:47.361639
15800,-0.2826,0.9116,-0.2689,76.755,-14.070,77.175,375,334,376,385,405,2025-05-27T11:30:47.361639
15801,-0.2474,0.8613,-0.2416,58.415,-7.000,72.695,374,402,386,415,400,2025-05-27T11:30:47.361639
15802,-0.2045,0.8042,-0.2318,42.455,1.295,68.915,342,390,398,408,367,2025-05-27T11:30:47.361639
15803,-0.1254,0.7793,-0.2206,28.560,10.570,64.225,393,418,386,403,391,2025-05-27T11:30:47.361639
15804,-0.0527,0.7218,-0.1879,15.820,21.105,59.710,417,414,358,409,389,2025-05-27T11:30:47.361639
15805,-0.0015,0.6656,-0.1571,3.080,31.885,54.110,430,427,366,400,372,2025-05-27T11:30:47.361639
15806,0.0268,0.6041,-0.1171,-6.230,39.795,46.935,389,411,368,413,392,2025-05-27T11:30:47.361639
15807,0.0073,0.5485,-0.0649,-14.070,41.825,38.220,343,416,303,350,367,2025-05-27T11:30:47.361639
15808,-0.0356,0.5178,-0.0088,-18.585,36.925,26.775,391,418,348,335,387,2025-05-27T11:30:47.361639
15809,-0.0688,0.4968,0.0376,-19.355,28.945,13.825,412,423,350,377,401,2025-05-27T11:30:47.361639
15810,-0.0903,0.4621,0.0786,-16.940,16.345,2.940,416,430,371,382,406,2025-05-27T11:30:47.361639
15811,-0.0917,0.4631,0.1279,-12.215,3.640,-10.395,380,361,364,406,405,2025-05-27T11:30:47.361639
15812,-0.1244,0.5051,0.1620,-7.350,-6.510,-23.450,412,422,384,398,415,2025-05-27T11:30:47.361639
15813,-0.1879,0.5885,0.2518,-2.065,-13.335,-37.310,423,396,388,364,411,2025-05-27T11:30:47.361639
15814,-0.2323,0.6749,0.2913,5.565,-17.395,-50.190,401,413,389,394,410,2025-05-27T11:30:47.361639
15815,-0.2679,0.7793,0.3157,14.525,-17.080,-60.655,418,423,390,419,396,2025-05-27T11:30:47.361639
15816,-0.2782,0.9433,0.3733,18.515,-8.085,-67.060,427,405,382,415,387,2025-05-27T11:30:47.361639
15817,-0.3465,1.1688,0.4197,16.345,6.790,-66.325,409,407,368,397,401,2025-05-27T11:30:47.361639
15818,-0.4392,1.3986,0.4333,9.905,17.535,-59.325,418,408,365,411,403,2025-05-27T11:30:47.361639
15819,-0.5309,1.5021,0.4504,3.430,26.250,-50.610,407,406,352,420,409,2025-05-27T11:30:47.361639
15820,-0.6681,1.5806,0.4431,-0.770,27.510,-39.620,417,389,327,402,423,2025-05-27T11:30:47.361639
15821,-0.7515,1.6324,0.4143,-1.085,20.020,-28.350,395,417,344,410,400,2025-05-27T11:30:47.361639
15822,-0.8169,1.6773,0.4646,3.745,-0.245,-11.970,431,422,363,391,394,2025-05-27T11:30:47.361639
15823,-0.7925,1.5255,0.3684,4.830,-15.540,-1.680,375,343,368,346,354,2025-05-27T11:30:47.361639
15824,-0.7588,1.4684,0.2952,7.245,-30.730,10.815,390,410,374,377,380,2025-05-27T11:30:47.361639
15825,-0.7081,1.3654,0.2538,7.805,-44.555,19.460,391,430,386,404,368,2025-05-27T11:30:47.445554
15826,-0.5885,1.2678,0.2054,5.285,-50.715,29.225,378,430,377,399,392,2025-05-27T11:30:47.445554
15827,-0.4753,1.1248,0.1742,-1.015,-48.650,35.700,391,346,342,390,405,2025-05-27T11:30:47.445554
15828,-0.3484,0.9536,0.1459,-9.345,-40.495,38.955,330,388,364,396,402,2025-05-27T11:30:47.445554
15829,-0.2557,0.7491,0.1064,-16.695,-29.120,39.935,413,407,374,411,411,2025-05-27T11:30:47.445554
15830,-0.1669,0.5266,0.0561,-26.145,-18.655,37.065,422,299,370,402,405,2025-05-27T11:30:47.445554
15831,-0.1054,0.3123,0.0132,-31.990,-9.205,29.820,403,323,373,385,409,2025-05-27T11:30:47.445554
15832,-0.0161,0.0986,-0.0620,-36.715,1.540,19.600,419,406,377,406,415,2025-05-27T11:30:47.445554
15833,0.0781,-0.0898,-0.1645,-36.785,11.375,0.945,399,403,367,386,401,2025-05-27T11:30:47.445554
15834,0.1889,-0.2786,-0.2645,-32.900,23.485,-23.205,400,368,340,394,406,2025-05-27T11:30:47.445554
15835,0.2567,-0.4416,-0.3421,-27.090,39.480,-53.655,350,388,336,344,406,2025-05-27T11:30:47.445554
15836,0.2908,-0.5466,-0.3592,-18.725,52.430,-87.185,412,357,352,389,405,2025-05-27T11:30:47.445554
15837,0.3011,-0.5866,-0.3484,-13.160,73.990,-122.850,401,405,370,349,404,2025-05-27T11:30:47.445554
15838,0.2811,-0.5910,-0.2738,-6.125,92.400,-145.355,362,379,384,395,395,2025-05-27T11:30:47.445554
15839,0.1362,-0.5885,-0.1669,-0.595,108.220,-177.555,385,342,388,352,397,2025-05-27T11:30:47.445554
15840,-0.1132,-0.5949,-0.0210,12.460,110.425,-208.565,384,335,376,384,362,2025-05-27T11:30:47.445554
15841,-0.3357,-0.5144,0.1313,28.280,90.475,-236.145,421,331,368,402,391,2025-05-27T11:30:47.445554
15842,-0.5490,-0.4202,0.2860,55.720,59.885,-257.040,402,417,364,396,389,2025-05-27T11:30:47.445554
15843,-0.8989,-0.3445,0.4773,70.385,40.775,-290.745,420,385,361,398,400,2025-05-27T11:30:47.445554
15844,-1.1253,-0.1186,0.6266,95.760,-11.620,-312.060,373,393,369,391,411,2025-05-27T11:30:47.544959
15845,-1.4050,-0.0381,0.8154,107.695,-55.160,-337.260,392,397,374,349,390,2025-05-27T11:30:47.544959
15846,-1.6026,0.2289,0.9731,105.140,-94.710,-347.760,368,385,377,327,385,2025-05-27T11:30:47.544959
15847,-1.8466,0.3616,1.2590,94.500,-107.310,-341.670,393,411,337,372,389,2025-05-27T11:30:47.544959
15848,-1.9857,0.7110,1.4352,68.950,-99.610,-333.970,406,423,368,398,385,2025-05-27T11:30:47.544959
15849,-2.2375,1.1473,1.5684,29.505,-70.140,-318.850,430,312,340,396,402,2025-05-27T11:30:47.544959
15850,-2.7748,1.4191,1.6777,4.060,-45.535,-303.800,436,386,363,403,389,2025-05-27T11:30:47.544959
15851,-3.3706,1.6709,1.6831,-17.290,-57.575,-279.615,438,432,366,397,402,2025-05-27T11:30:47.544959
15852,-3.8957,1.9095,1.8481,-28.805,-107.730,-252.315,305,403,363,419,390,2025-05-27T11:30:47.544959
15853,-3.8816,2.7230,1.9740,-14.525,-223.405,-191.240,379,424,380,368,354,2025-05-27T11:30:47.544959
15854,-4.5072,1.8568,1.5753,14.210,-357.385,-154.560,418,361,381,388,387,2025-05-27T11:30:47.544959
15855,-4.3993,2.1862,1.4777,35.770,-472.185,-101.885,396,408,354,406,413,2025-05-27T11:30:47.644718
15856,-3.8406,2.2721,1.2683,48.825,-522.410,-42.210,389,420,367,392,395,2025-05-27T11:30:47.644718
15857,-3.2350,2.3575,1.1224,46.060,-493.255,15.155,383,388,336,369,402,2025-05-27T11:30:47.644718
15858,-3.0827,2.6250,0.7300,30.730,-419.790,64.015,395,393,353,390,396,2025-05-27T11:30:47.644718
15859,-3.1539,2.6206,0.3065,9.730,-366.940,109.655,412,408,341,386,352,2025-05-27T11:30:47.644718
15860,-3.5517,2.5722,-0.1074,-1.085,-355.670,154.350,430,409,322,395,390,2025-05-27T11:30:47.644718
15861,-3.9611,2.3648,-0.4880,8.050,-417.130,200.410,404,351,350,369,345,2025-05-27T11:30:47.644718
15862,-4.0450,2.2794,-0.8789,13.300,-487.795,252.735,388,387,369,376,376,2025-05-27T11:30:47.644718
15863,-3.8552,2.1555,-1.2176,-3.045,-513.835,305.130,372,374,383,382,393,2025-05-27T11:30:47.745206
15864,-3.6781,1.9447,-1.4528,-36.610,-482.300,350.700,400,409,389,393,400,2025-05-27T11:30:47.745206
15865,-3.9347,1.5772,-1.6358,-70.560,-425.110,383.530,372,384,353,399,400,2025-05-27T11:30:47.745206
15866,-4.5360,1.1278,-1.8476,-106.540,-398.125,413.945,370,412,332,403,343,2025-05-27T11:30:47.745206
15867,-5.2099,0.4392,-1.8349,-130.690,-390.810,447.930,394,370,361,391,327,2025-05-27T11:30:47.745206
15868,-5.5764,-0.3762,-1.9940,-120.050,-404.775,491.190,392,352,334,406,366,2025-05-27T11:30:47.745206
15869,-5.7784,-0.9623,-1.8749,-103.320,-397.775,553.070,425,384,337,401,397,2025-05-27T11:30:47.745206
15870,-5.6262,-1.6499,-1.6880,-84.280,-354.060,622.195,418,390,370,407,388,2025-05-27T11:30:47.745206
15871,-5.2885,-2.1770,-1.5962,-55.510,-296.940,683.900,396,420,387,394,388,2025-05-27T11:30:47.745206
15872,-4.6594,-2.3395,-1.3732,-44.485,-233.940,721.350,424,382,383,405,348,2025-05-27T11:30:47.844794
15873,-4.4554,-2.4366,-0.9482,-52.150,-191.205,740.145,430,419,371,397,369,2025-05-27T11:30:47.844794
15874,-4.3007,-3.3921,-0.8008,-42.700,-201.705,744.310,426,420,335,403,383,2025-05-27T11:30:47.844794
15875,-3.9011,-4.4652,-0.8369,9.345,-229.320,712.810,400,423,348,412,348,2025-05-27T11:30:47.844794
15876,-2.8812,-4.4345,-0.9370,86.205,-249.305,678.125,407,426,364,369,366,2025-05-27T11:30:47.844794
15877,-1.7529,-4.1792,-0.6827,141.260,-165.060,643.685,371,422,371,398,342,2025-05-27T11:30:47.844794
15878,-1.1722,-4.3100,-0.3875,167.265,-20.300,620.410,407,395,379,403,368,2025-05-27T11:30:47.844794
15879,-1.0829,-4.3056,-0.2284,180.040,78.190,599.830,396,394,383,401,392,2025-05-27T11:30:47.844794
15880,-0.9023,-4.2720,0.1269,169.785,123.235,559.685,360,413,384,395,407,2025-05-27T11:30:47.929163
15881,-0.5968,-3.9626,0.0283,177.030,125.405,512.715,397,412,378,419,399,2025-05-27T11:30:47.929163
15882,-0.2196,-3.6493,0.3274,170.100,137.550,447.440,395,408,378,376,368,2025-05-27T11:30:47.929163
15883,0.2420,-3.3731,0.6446,146.895,164.290,371.035,358,416,370,340,381,2025-05-27T11:30:47.929163
15884,0.3128,-2.9387,0.9023,124.670,188.790,306.460,383,411,367,390,401,2025-05-27T11:30:48.078114
15885,0.1098,-2.6025,1.1722,120.785,214.200,246.365,399,435,380,356,356,2025-05-27T11:30:48.078114
15886,-0.0664,-2.2102,1.1727,121.100,255.290,172.830,362,378,372,383,384,2025-05-27T11:30:48.078114
15887,-0.2679,-2.0720,1.2390,125.405,301.210,107.555,415,416,339,389,382,2025-05-27T11:30:48.078114
15888,-0.4563,-1.8583,1.2625,131.145,320.250,54.425,407,424,369,389,382,2025-05-27T11:30:48.078114
15889,-0.6934,-1.7558,1.4757,139.230,308.735,13.685,420,428,375,386,404,2025-05-27T11:30:48.078114
15890,-0.8433,-1.4352,1.5992,156.030,260.330,-22.610,389,398,379,346,403,2025-05-27T11:30:48.078114
15891,-0.9433,-1.1732,1.4947,180.145,215.565,-62.650,387,412,385,374,414,2025-05-27T11:30:48.078114
15892,-0.8896,-0.8306,1.3132,204.645,168.945,-108.220,422,308,384,390,399,2025-05-27T11:30:48.078114
15893,-0.7715,-0.5456,1.0946,225.470,149.135,-140.840,400,340,394,417,410,2025-05-27T11:30:48.078114
15894,-0.7393,-0.3650,0.8535,242.900,150.150,-174.300,363,385,384,401,405,2025-05-27T11:30:48.078114
15895,-0.8398,-0.2713,0.6500,259.525,161.910,-198.240,346,363,380,406,415,2025-05-27T11:30:48.078114
15896,-0.9262,-0.2167,0.5636,270.515,185.325,-213.500,399,420,377,402,399,2025-05-27T11:30:48.078114
15897,-1.0590,-0.2601,0.5700,277.830,212.030,-218.645,409,416,351,414,371,2025-05-27T11:30:48.078114
15898,-1.1922,-0.3045,0.5173,293.475,222.320,-213.325,410,428,371,418,396,2025-05-27T11:30:48.078114
15899,-1.3088,-0.2547,0.4826,298.515,209.335,-204.680,381,398,378,425,406,2025-05-27T11:30:48.166660
15900,-1.4123,-0.1991,0.4002,317.450,180.425,-197.925,402,373,379,358,408,2025-05-27T11:30:48.166660
15901,-1.4240,-0.1464,0.3484,339.955,147.315,-193.095,377,335,383,373,388,2025-05-27T11:30:48.166660
15902,-1.3615,-0.0756,0.2542,360.115,109.025,-191.765,415,394,376,347,403,2025-05-27T11:30:48.166660
15903,-1.2205,-0.0181,0.1767,375.060,84.560,-190.610,441,423,370,337,410,2025-05-27T11:30:48.261535
15904,-1.0682,0.0542,0.1000,381.605,82.810,-189.175,428,394,374,358,420,2025-05-27T11:30:48.261535
15905,-0.9482,0.1737,0.0425,382.340,92.050,-182.000,430,426,389,376,406,2025-05-27T11:30:48.261535
15906,-0.9062,0.2494,0.0898,377.195,107.310,-169.890,413,411,380,359,393,2025-05-27T11:30:48.261535
15907,-1.1053,0.2855,0.0566,375.935,110.040,-152.985,425,418,341,369,388,2025-05-27T11:30:48.261535
15908,-1.3054,0.3455,0.1054,380.730,85.925,-139.545,417,414,360,384,412,2025-05-27T11:30:48.261535
15909,-1.4342,0.4333,0.0996,392.175,59.745,-127.715,424,404,364,417,398,2025-05-27T11:30:48.261535
15910,-1.4601,0.5456,0.1166,402.045,32.655,-119.000,405,335,375,351,398,2025-05-27T11:30:48.261535
15911,-1.4064,0.6637,0.1776,400.645,19.565,-104.930,402,412,377,394,393,2025-05-27T11:30:48.261535
15912,-1.3005,0.8745,0.3118,379.820,25.760,-78.925,413,440,355,394,405,2025-05-27T11:30:48.261535
15913,-1.3239,1.0019,0.3938,355.600,29.190,-43.085,392,442,369,343,386,2025-05-27T11:30:48.261535
15914,-1.4767,1.0121,0.4397,320.985,36.925,-13.475,340,304,371,380,364,2025-05-27T11:30:48.344704
15915,-1.5928,1.0106,0.4480,303.520,16.695,12.460,396,405,383,341,377,2025-05-27T11:30:48.344704
15916,-1.6680,1.1092,0.4987,283.395,-6.790,38.570,413,408,376,374,388,2025-05-27T11:30:48.344704
15917,-1.6641,1.2390,0.4260,260.575,-37.135,59.115,403,387,373,378,393,2025-05-27T11:30:48.344704
15918,-1.7588,1.2712,0.4275,244.720,-75.180,76.090,421,390,385,393,409,2025-05-27T11:30:48.461268
15919,-1.7119,1.2976,0.3177,231.210,-114.380,95.200,392,425,379,344,408,2025-05-27T11:30:48.461268
15920,-1.5118,1.1897,0.2484,211.505,-129.290,107.555,394,429,370,329,393,2025-05-27T11:30:48.461268
15921,-1.3171,1.0980,0.1742,188.790,-125.090,123.970,403,417,330,395,407,2025-05-27T11:30:48.461268
15922,-1.1629,1.0663,0.1176,164.955,-109.900,140.140,406,421,354,420,370,2025-05-27T11:30:48.461268
15923,-1.0853,0.9892,0.0791,140.105,-91.385,153.825,374,379,368,415,392,2025-05-27T11:30:48.461268
15924,-1.0302,0.8652,0.0415,123.165,-78.540,165.060,356,416,380,405,405,2025-05-27T11:30:48.461268
15925,-0.9897,0.7491,-0.0093,108.255,-79.450,174.755,400,429,382,402,412,2025-05-27T11:30:48.461268
15926,-0.9428,0.6393,-0.0415,99.540,-87.115,180.110,415,416,376,356,401,2025-05-27T11:30:48.461268
15927,-0.8491,0.5905,-0.0703,93.940,-98.875,181.265,404,396,382,361,407,2025-05-27T11:30:48.461268
15928,-0.6852,0.5456,-0.0991,88.620,-105.525,180.320,414,363,386,391,399,2025-05-27T11:30:48.461268
15929,-0.5183,0.5319,-0.1322,80.885,-101.780,176.855,419,381,381,405,406,2025-05-27T11:30:48.461268
15930,-0.3587,0.5236,-0.1508,71.015,-87.605,171.430,385,420,375,404,375,2025-05-27T11:30:48.461268
15931,-0.2826,0.4919,-0.1718,59.815,-68.250,163.660,390,430,346,398,390,2025-05-27T11:30:48.561633
15932,-0.2391,0.4534,-0.1562,48.685,-51.240,154.035,401,412,356,308,385,2025-05-27T11:30:48.561633
15933,-0.2001,0.4085,-0.1288,40.495,-39.340,143.780,410,426,332,387,383,2025-05-27T11:30:48.561633
15934,-0.1776,0.3611,-0.1200,31.395,-32.165,132.755,422,405,346,350,398,2025-05-27T11:30:48.977129
15935,-0.1596,0.3113,-0.1078,23.205,-24.290,120.610,427,422,360,396,414,2025-05-27T11:30:48.977129
15936,-0.1425,0.2786,-0.0830,17.430,-19.495,110.740,419,402,381,410,406,2025-05-27T11:30:48.977129
15937,-0.1313,0.2508,-0.0610,13.650,-16.310,97.300,393,392,376,398,393,2025-05-27T11:30:48.977129
15938,-0.1147,0.2186,-0.0571,10.815,-14.560,83.825,335,339,382,412,408,2025-05-27T11:30:48.977129
15939,-0.0805,0.2089,-0.0464,8.820,-12.320,70.840,346,408,347,384,393,2025-05-27T11:30:48.977129
15940,-0.0634,0.2269,-0.0166,5.705,-5.600,56.455,402,441,368,344,348,2025-05-27T11:30:48.977129
15941,-0.0488,0.2176,-0.0078,2.240,1.120,40.355,410,407,331,373,387,2025-05-27T11:30:48.977640
15942,-0.0376,0.2469,0.0102,-0.700,8.855,26.600,399,414,319,406,388,2025-05-27T11:30:48.977640
15943,-0.0517,0.2874,0.0390,-3.640,16.450,8.750,433,397,309,406,388,2025-05-27T11:30:48.977640
15944,-0.0732,0.3367,0.0610,-6.580,22.050,-8.680,428,410,347,395,402,2025-05-27T11:30:48.977712
15945,-0.0864,0.3953,0.1279,-8.225,25.375,-23.730,428,397,365,405,388,2025-05-27T11:30:48.977734
15946,-0.1161,0.4875,0.1893,-9.380,27.510,-36.330,410,404,368,359,406,2025-05-27T11:30:48.977734
15947,-0.1649,0.6700,0.2655,-9.275,30.520,-45.045,412,349,365,383,403,2025-05-27T11:30:48.977775
15948,-0.2308,0.8355,0.2889,-6.580,33.390,-53.900,425,391,364,398,415,2025-05-27T11:30:48.977775
15949,-0.3260,1.0868,0.3333,-2.660,34.930,-60.935,409,418,379,391,412,2025-05-27T11:30:48.977775
15950,-0.4294,1.3147,0.4285,-2.800,34.300,-63.700,404,360,368,364,413,2025-05-27T11:30:48.977775
15951,-0.5427,1.4918,0.5236,-4.410,28.350,-61.460,340,391,374,403,416,2025-05-27T11:30:48.977848
15952,-0.6427,1.6002,0.5939,-3.465,15.610,-52.710,405,412,377,407,393,2025-05-27T11:30:48.977874
15953,-0.7613,1.6216,0.6007,-0.035,-4.200,-44.695,404,423,367,400,402,2025-05-27T11:30:48.977874
15954,-0.7945,1.6094,0.5739,7.490,-28.910,-35.000,383,402,330,345,397,2025-05-27T11:30:48.977874
15955,-0.5832,1.6031,0.3792,15.505,-53.795,-25.900,385,391,356,372,349,2025-05-27T11:30:48.977874
15956,-0.8286,1.3859,0.5949,22.015,-65.485,-17.535,388,419,360,392,330,2025-05-27T11:30:48.977874
15957,-0.7710,1.3059,0.4870,24.220,-80.325,-8.610,420,408,362,407,379,2025-05-27T11:30:48.977874
15958,-0.6476,1.1073,0.4573,22.575,-80.920,-5.390,401,408,365,414,397,2025-05-27T11:30:48.977874
15959,-0.5607,0.9462,0.3611,15.365,-77.630,-1.820,419,416,337,346,401,2025-05-27T11:30:48.977874
15960,-0.4329,0.7013,0.2694,6.370,-72.030,-2.100,396,303,361,372,413,2025-05-27T11:30:48.977874
15961,-0.3279,0.4446,0.1576,-5.215,-65.240,-4.200,406,412,334,393,410,2025-05-27T11:30:48.977874
15962,-0.1742,0.1942,-0.0020,-15.365,-54.355,-11.060,382,424,315,396,401,2025-05-27T11:30:48.977874
15963,0.0395,-0.1069,-0.1454,-21.455,-40.005,-22.155,421,430,341,385,407,2025-05-27T11:30:48.977874
15964,0.2064,-0.4070,-0.3299,-35.595,-19.355,-40.635,407,401,351,399,396,2025-05-27T11:30:48.977874
15965,0.3928,-0.7144,-0.4660,-29.925,0.175,-65.730,351,411,369,404,349,2025-05-27T11:30:48.977874
15966,0.4621,-0.9194,-0.5114,-36.505,20.265,-99.260,385,341,378,401,375,2025-05-27T11:30:48.977874
15967,0.4002,-1.0331,-0.5183,-39.515,39.130,-130.725,410,386,392,411,380,2025-05-27T11:30:48.977874
15968,0.2928,-1.0331,-0.4304,-32.410,42.280,-172.340,410,426,378,422,411,2025-05-27T11:30:48.977874
15969,0.1415,-0.9394,-0.3167,-14.420,26.985,-213.290,419,417,375,408,406,2025-05-27T11:30:48.977874
15970,-0.0400,-0.8804,-0.2367,3.500,10.500,-256.060,437,414,379,389,406,2025-05-27T11:30:48.977874
15971,-0.2962,-0.7447,-0.0278,17.325,-7.105,-273.140,428,391,379,386,392,2025-05-27T11:30:48.977874
15972,-0.3553,-0.4963,0.2855,36.470,-18.865,-339.535,433,402,390,415,401,2025-05-27T11:30:48.977874
15973,-0.5602,-0.5129,0.5480,58.800,-30.555,-361.270,428,376,356,310,410,2025-05-27T11:30:49.068094
15974,-0.8808,-0.3030,0.7632,85.715,-55.825,-392.105,433,331,373,362,407,2025-05-27T11:30:49.068094
15975,-1.2093,-0.1864,1.0721,113.610,-72.135,-416.500,425,398,389,379,398,2025-05-27T11:30:49.068094
15976,-1.5094,0.0410,1.3610,114.555,-58.765,-433.405,406,370,312,400,367,2025-05-27T11:30:49.068094
15977,-1.6943,0.3616,1.4484,108.570,-34.895,-432.845,418,410,347,396,343,2025-05-27T11:30:49.177986
15978,-2.0779,0.7808,1.6533,89.355,-1.295,-410.830,397,397,373,409,395,2025-05-27T11:30:49.177986
15979,-2.7948,1.0897,1.8554,62.195,14.245,-376.810,340,403,382,376,354,2025-05-27T11:30:49.177986
15980,-3.6161,1.3293,1.9461,44.625,-3.325,-340.410,411,409,389,385,333,2025-05-27T11:30:49.177986
15981,-4.1778,1.5865,1.9442,39.200,-70.805,-308.175,407,399,376,392,385,2025-05-27T11:30:49.177986
15982,-5.1050,0.5397,1.6441,58.415,-161.525,-316.505,400,422,377,391,400,2025-05-27T11:30:49.177986
15983,-4.8292,1.6265,1.9798,68.495,-278.250,-181.265,432,363,385,403,350,2025-05-27T11:30:49.177986
15984,-4.4803,2.2448,1.5772,62.300,-358.505,-97.055,400,358,392,396,341,2025-05-27T11:30:49.177986
15985,-4.0826,2.2487,1.5055,61.145,-377.265,-16.730,412,365,390,408,389,2025-05-27T11:30:49.177986
15986,-3.8986,2.2980,1.3732,48.720,-364.455,61.670,418,408,395,398,363,2025-05-27T11:30:49.177986
15987,-3.7722,2.1345,1.2244,45.395,-346.745,130.970,403,419,381,408,350,2025-05-27T11:30:49.177986
15988,-3.7483,2.0642,0.8891,55.125,-337.190,195.930,424,438,377,413,388,2025-05-27T11:30:49.177986
15989,-3.7635,2.0247,0.4494,69.615,-342.195,231.980,388,424,345,418,389,2025-05-27T11:30:49.177986
15990,-3.7464,2.0003,-0.0664,90.860,-370.475,281.155,403,411,354,414,392,2025-05-27T11:30:49.278409
15991,-3.6742,1.9447,-0.5017,98.840,-394.450,331.905,415,420,366,405,391,2025-05-27T11:30:49.278409
15992,-3.6229,1.8251,-0.8423,86.695,-384.580,379.155,410,426,383,349,404,2025-05-27T11:30:49.278409
15993,-3.9230,1.5323,-1.2024,56.035,-337.785,411.495,411,393,385,329,406,2025-05-27T11:30:49.278409
15994,-4.4081,1.0985,-1.4957,5.075,-296.800,446.705,414,422,374,376,396,2025-05-27T11:30:49.278409
15995,-4.9781,0.5300,-1.7827,-35.070,-298.935,492.660,387,398,371,395,414,2025-05-27T11:30:49.278409
15996,-5.3534,-0.2167,-1.8637,-77.875,-323.750,541.450,418,382,377,420,360,2025-05-27T11:30:49.278409
15997,-5.4661,-0.8545,-1.9149,-104.510,-347.130,593.880,396,395,377,385,396,2025-05-27T11:30:49.278409
15998,-5.1294,-1.1678,-1.9344,-119.210,-355.810,656.915,377,337,334,392,391,2025-05-27T11:30:49.361315
15999,-4.6614,-1.4128,-1.8046,-132.965,-322.560,695.030,390,409,357,387,397,2025-05-27T11:30:49.361315
16000,-4.3320,-1.6050,-1.7300,-143.605,-270.725,717.010,405,417,355,400,378,2025-05-27T11:30:49.361315
16001,-4.4184,-2.0940,-1.5094,-154.560,-233.485,721.945,421,420,361,409,344,2025-05-27T11:30:49.361315
16002,-4.2920,-2.6581,-1.2307,-163.030,-233.345,730.205,398,427,375,398,393,2025-05-27T11:30:49.361315
16003,-4.2695,-3.3086,-1.1663,-144.305,-260.610,727.195,392,393,370,411,403,2025-05-27T11:30:49.461319
16004,-3.6683,-3.9260,-0.9931,-105.105,-303.765,690.410,422,412,382,419,391,2025-05-27T11:30:49.461319
16005,-2.5274,-3.9450,-1.0268,-53.165,-292.600,651.455,421,406,375,417,412,2025-05-27T11:30:49.461319
16006,-1.8280,-4.0011,-0.8203,3.150,-239.015,619.920,363,341,375,413,409,2025-05-27T11:30:49.461319
16007,-1.1722,-4.0402,-0.5656,49.315,-135.940,577.920,390,393,376,414,413,2025-05-27T11:30:49.461319
16008,-0.8603,-4.1002,-0.5534,101.325,-45.395,537.110,407,402,383,410,416,2025-05-27T11:30:49.461319
16009,-0.6427,-3.7674,-0.5051,129.185,28.140,499.905,395,403,385,349,396,2025-05-27T11:30:49.461319
16010,-0.1215,-3.3052,-0.1830,162.610,69.930,453.145,422,385,392,360,417,2025-05-27T11:30:49.461319
16011,0.1357,-3.1881,-0.0576,156.030,136.010,401.765,418,399,376,337,396,2025-05-27T11:30:49.512179
16012,0.1606,-3.1364,0.1288,148.085,193.900,348.530,433,429,379,370,418,2025-05-27T11:30:49.512179
16013,0.2572,-2.7430,0.4163,134.470,227.360,295.680,426,419,382,344,400,2025-05-27T11:30:49.512179
16014,0.2006,-2.3229,0.5197,124.810,256.410,255.570,426,428,388,377,406,2025-05-27T11:30:49.512179
16015,0.0561,-1.8686,0.7945,126.210,280.980,195.720,412,429,386,343,402,2025-05-27T11:30:49.512179
16016,-0.0566,-1.4757,0.8428,117.145,328.930,128.205,385,409,383,381,412,2025-05-27T11:30:49.512179
16017,-0.2416,-1.3415,0.9989,113.470,359.485,69.755,370,348,389,407,412,2025-05-27T11:30:49.512179
16018,-0.3514,-1.2088,1.0804,118.930,385.245,19.390,397,397,377,383,409,2025-05-27T11:30:49.611784
16019,-0.5876,-1.4274,1.1117,128.835,372.295,-20.825,395,422,374,388,414,2025-05-27T11:30:49.611784
16020,-0.7091,-1.1907,1.1570,144.900,358.925,-58.555,419,422,385,391,350,2025-05-27T11:30:49.611784
16021,-0.7974,-1.1087,1.1292,163.835,339.990,-86.695,424,441,389,385,381,2025-05-27T11:30:49.611784
16022,-0.9126,-0.9658,1.0346,188.055,318.115,-108.220,400,427,375,385,386,2025-05-27T11:30:49.611784
16023,-0.9350,-0.8677,0.9262,217.350,297.815,-131.460,398,383,376,348,403,2025-05-27T11:30:49.611784
16024,-1.0038,-0.7935,0.9028,249.305,280.455,-147.140,418,414,340,396,404,2025-05-27T11:30:49.611784
16025,-1.0492,-0.6905,0.8037,277.095,268.695,-158.480,410,442,368,425,397,2025-05-27T11:30:49.696097
16026,-1.1209,-0.6466,0.7120,305.200,259.315,-166.145,399,355,375,400,416,2025-05-27T11:30:49.696097
16027,-1.1756,-0.5553,0.6368,336.350,254.835,-171.675,420,354,392,357,413,2025-05-27T11:30:49.696097
16028,-1.2444,-0.4743,0.6242,348.005,256.200,-174.055,423,395,392,380,420,2025-05-27T11:30:49.696097
16029,-1.2942,-0.4011,0.5763,363.790,252.805,-167.755,446,395,385,394,426,2025-05-27T11:30:49.696097
16030,-1.3849,-0.3767,0.5002,383.845,232.400,-155.260,442,418,348,352,378,2025-05-27T11:30:49.797568
16031,-1.5113,-0.3040,0.4197,406.210,201.600,-145.845,436,399,366,397,398,2025-05-27T11:30:49.797568
16032,-1.6065,-0.2274,0.4011,427.280,166.600,-136.395,369,421,389,409,398,2025-05-27T11:30:49.797568
16033,-1.5884,-0.0917,0.3958,444.255,131.880,-124.880,355,403,376,314,398,2025-05-27T11:30:49.797568
16034,-1.5562,0.0791,0.4402,449.085,113.330,-110.775,415,416,380,388,371,2025-05-27T11:30:49.797568
16035,-1.5006,0.3304,0.4587,439.985,106.750,-89.705,411,417,377,407,385,2025-05-27T11:30:49.797568
16036,-1.5416,0.4665,0.4885,430.255,98.980,-65.555,342,428,396,374,380,2025-05-27T11:30:49.797568
16037,-1.6289,0.5827,0.4563,411.565,81.830,-38.605,344,408,357,396,348,2025-05-27T11:30:49.797568
16038,-1.7988,0.6076,0.4514,394.240,68.005,-16.240,378,439,372,409,385,2025-05-27T11:30:49.797568
16039,-1.9154,0.6578,0.5026,378.630,28.000,4.830,410,441,367,404,401,2025-05-27T11:30:49.797568
16040,-1.9627,0.6974,0.5266,355.670,-10.535,32.445,418,352,377,414,370,2025-05-27T11:30:49.797568
16041,-1.9296,0.7183,0.4875,341.250,-57.890,59.080,395,394,391,398,408,2025-05-27T11:30:49.894649
16042,-1.8324,0.7598,0.4480,320.180,-89.355,79.240,425,397,382,391,388,2025-05-27T11:30:49.894649
16043,-1.7295,0.7379,0.6417,302.925,-112.875,92.155,427,420,336,358,346,2025-05-27T11:30:49.894649
16044,-1.4328,0.9008,0.3348,270.410,-105.840,112.805,424,432,368,356,349,2025-05-27T11:30:49.894649
16045,-1.2927,0.9423,0.2157,247.380,-100.730,128.835,420,389,359,372,341,2025-05-27T11:30:49.894649
16046,-1.2171,0.8804,0.1581,222.705,-98.490,142.870,414,426,368,390,292,2025-05-27T11:30:49.894649
16047,-1.1536,0.8599,0.0874,199.745,-101.710,154.665,370,412,381,386,312,2025-05-27T11:30:49.894649
16048,-1.0463,0.8769,0.0366,180.530,-108.010,160.755,406,404,354,401,357,2025-05-27T11:30:49.894649
16049,-0.9038,0.8725,-0.0434,161.490,-111.300,165.725,410,421,363,392,384,2025-05-27T11:30:50.004758
16050,-0.7530,0.8589,-0.1357,141.015,-107.800,167.965,373,417,383,392,405,2025-05-27T11:30:50.004758
16051,-0.6183,0.8242,-0.1718,119.700,-100.030,168.945,400,438,388,306,408,2025-05-27T11:30:50.004758
16052,-0.5104,0.7530,-0.1850,99.750,-90.265,168.385,376,425,381,380,404,2025-05-27T11:30:50.004758
16053,-0.4377,0.6378,-0.1850,86.380,-83.370,166.635,385,423,374,389,350,2025-05-27T11:30:50.004758
16054,-0.4109,0.5607,-0.2284,73.325,-80.710,163.240,390,405,335,388,332,2025-05-27T11:30:50.004758
16055,-0.3499,0.5051,-0.2591,66.360,-81.655,159.215,365,416,366,411,374,2025-05-27T11:30:50.004758
16056,-0.2704,0.4558,-0.2591,63.175,-82.495,155.120,354,377,378,428,386,2025-05-27T11:30:50.004758
16057,-0.1601,0.3967,-0.2450,58.695,-76.930,149.345,383,391,384,422,346,2025-05-27T11:30:50.004758
16058,-0.0332,0.3626,-0.2269,50.890,-64.295,143.605,423,408,352,371,382,2025-05-27T11:30:50.094623
16059,0.0781,0.3362,-0.1991,41.615,-49.665,136.150,387,423,372,391,343,2025-05-27T11:30:50.094623
16060,0.1874,0.2933,-0.1557,31.325,-27.790,129.080,410,432,345,383,387,2025-05-27T11:30:50.094623
16061,0.1898,0.2123,-0.1425,21.245,-12.145,115.255,411,427,365,406,406,2025-05-27T11:30:50.094623
16062,0.1859,0.1679,-0.1161,12.215,-0.385,98.070,409,420,345,421,413,2025-05-27T11:30:50.094623
16063,0.2030,0.1269,-0.1020,5.635,12.110,83.020,339,378,371,412,411,2025-05-27T11:30:50.094623
16064,0.2001,0.1327,-0.0815,1.225,23.275,61.670,400,410,354,421,396,2025-05-27T11:30:50.094623
16065,0.1742,0.1596,-0.0630,-1.120,30.030,39.550,431,432,369,418,395,2025-05-27T11:30:50.094623
16066,0.1298,0.1947,-0.0429,-2.520,35.070,16.205,414,414,332,400,350,2025-05-27T11:30:50.327722
16067,0.0742,0.2479,-0.0132,-1.925,37.975,-7.280,375,419,355,345,378,2025-05-27T11:30:50.327722
16068,0.0210,0.3484,0.0254,0.140,39.165,-29.785,424,408,326,358,380,2025-05-27T11:30:50.327722
16069,-0.0634,0.4577,0.0859,1.960,39.865,-45.955,404,405,352,384,388,2025-05-27T11:30:50.327722
16070,-0.1610,0.6495,0.1654,1.645,42.770,-63.455,377,409,376,409,384,2025-05-27T11:30:50.327722
16071,-0.2806,0.8486,0.2308,-0.245,46.060,-76.615,372,377,379,409,398,2025-05-27T11:30:50.327722
16072,-0.4128,1.1244,0.3182,-1.470,44.660,-83.720,367,401,376,356,367,2025-05-27T11:30:50.327722
16073,-0.5685,1.3742,0.4348,-2.590,39.095,-83.300,376,387,336,382,398,2025-05-27T11:30:50.327722
16074,-0.6744,1.5728,0.5348,-4.305,25.340,-77.840,425,338,362,365,385,2025-05-27T11:30:50.327722
16075,-0.7618,1.6753,0.5802,-7.070,13.755,-66.150,414,408,371,370,350,2025-05-27T11:30:50.327722
16076,-0.7730,1.7348,0.6188,-8.225,-1.190,-50.610,349,389,363,375,385,2025-05-27T11:30:50.327722
16077,-0.8198,1.7129,0.6251,-11.270,-10.080,-34.370,385,391,358,410,401,2025-05-27T11:30:50.327722
16078,-0.7403,1.7509,0.8316,-8.295,-24.570,-14.525,395,385,358,308,381,2025-05-27T11:30:50.327722
16079,-0.7813,1.4318,0.5514,-5.880,-28.315,-1.050,406,392,374,386,410,2025-05-27T11:30:50.327722
16080,-0.8691,1.3283,0.4807,-1.680,-39.795,12.985,425,411,342,400,368,2025-05-27T11:30:50.327722
16081,-0.7218,1.1297,0.4006,1.855,-43.225,25.095,347,399,350,358,380,2025-05-27T11:30:50.327722
16082,-0.5895,0.9662,0.3489,2.765,-42.770,36.225,288,405,353,331,379,2025-05-27T11:30:50.327722
16083,-0.4939,0.7491,0.2625,1.995,-38.290,43.890,373,424,367,371,343,2025-05-27T11:30:50.327722
16084,-0.3723,0.5583,0.1835,0.070,-33.355,44.345,408,412,332,340,367,2025-05-27T11:30:50.861096
16085,-0.2918,0.3689,0.0917,-0.910,-26.915,41.055,404,379,362,394,386,2025-05-27T11:30:50.861096
16086,-0.1635,0.2230,-0.0268,0.700,-20.685,33.390,420,407,371,417,408,2025-05-27T11:30:50.861096
16087,0.0468,0.0185,-0.1625,5.145,-9.450,21.455,403,425,384,381,398,2025-05-27T11:30:50.861096
16088,0.2011,-0.1893,-0.2747,7.315,12.075,1.365,421,399,372,390,397,2025-05-27T11:30:50.861096
16089,0.2845,-0.4387,-0.3592,7.525,42.350,-31.220,413,380,334,408,413,2025-05-27T11:30:50.861096
16090,0.2420,-0.6939,-0.4124,6.335,62.650,-71.960,406,395,357,349,394,2025-05-27T11:30:50.861096
16091,0.2001,-0.8535,-0.4704,5.985,80.185,-104.230,426,358,368,388,409,2025-05-27T11:30:50.861096
16092,0.0283,-0.8984,-0.3967,9.730,82.495,-142.485,398,345,362,383,405,2025-05-27T11:30:50.861096
16093,-0.1679,-0.9374,-0.3680,12.495,77.700,-179.515,407,414,364,389,413,2025-05-27T11:30:50.861096
16094,-0.3660,-0.9072,-0.2621,21.560,58.135,-211.225,418,378,383,411,410,2025-05-27T11:30:50.861096
16095,-0.5710,-0.7876,-0.0683,31.850,39.025,-238.735,364,370,383,394,408,2025-05-27T11:30:50.861096
16096,-0.8472,-0.6295,0.0644,45.990,13.475,-268.800,407,401,383,404,404,2025-05-27T11:30:50.861096
16097,-0.8794,-0.4338,0.2469,63.140,-14.630,-302.365,366,413,345,396,363,2025-05-27T11:30:50.861096
16098,-1.0185,-0.2913,0.4475,84.630,-39.235,-315.805,327,400,374,387,383,2025-05-27T11:30:50.861096
16099,-1.0878,-0.1884,0.7379,99.505,-57.785,-333.830,392,358,384,389,401,2025-05-27T11:30:50.861096
16100,-1.2546,-0.0610,0.9189,87.430,-37.275,-353.605,409,333,341,400,387,2025-05-27T11:30:50.861096
16101,-1.4806,0.0259,1.0785,87.185,-35.700,-366.940,395,382,328,389,397,2025-05-27T11:30:50.861096
16102,-1.7353,0.2645,1.2054,91.070,-40.250,-374.920,417,380,355,402,356,2025-05-27T11:30:50.861096
16103,-2.1018,0.6783,1.2771,96.810,-47.390,-380.100,392,402,377,346,377,2025-05-27T11:30:50.861096
16104,-2.5010,0.9545,1.3332,99.610,-55.125,-374.955,419,344,384,361,373,2025-05-27T11:30:50.861096
16105,-2.7943,1.0385,1.3971,102.935,-70.665,-359.205,433,411,390,395,393,2025-05-27T11:30:50.861096
16106,-3.0505,1.0492,1.4943,102.095,-95.165,-322.945,422,352,395,406,413,2025-05-27T11:30:50.861096
16107,-3.8020,0.4504,1.6938,103.040,-138.145,-303.485,422,353,387,404,410,2025-05-27T11:30:50.861096
16108,-3.8596,1.0692,1.8432,105.315,-203.175,-221.305,408,420,399,402,418,2025-05-27T11:30:50.861096
16109,-4.2056,1.6826,1.5050,92.540,-282.625,-166.215,398,425,380,405,394,2025-05-27T11:30:50.861096
16110,-3.9874,1.8149,1.3117,91.245,-349.580,-116.165,398,425,382,396,390,2025-05-27T11:30:50.861096
16111,-3.6327,2.0423,1.1292,84.140,-376.180,-60.585,417,424,387,402,373,2025-05-27T11:30:50.861096
16112,-3.4023,2.0979,1.0570,66.850,-365.330,-6.790,412,416,381,380,361,2025-05-27T11:30:50.861096
16113,-3.3452,2.1213,0.9828,47.495,-360.955,47.145,403,408,388,367,382,2025-05-27T11:30:50.861096
16114,-3.4482,2.0652,0.8716,34.020,-376.705,98.630,353,420,348,387,403,2025-05-27T11:30:50.861096
16115,-3.5561,2.1238,0.6012,31.745,-416.360,134.575,375,426,370,403,412,2025-05-27T11:30:50.861096
16116,-3.4058,2.2995,0.1142,33.145,-448.945,176.365,410,307,373,411,392,2025-05-27T11:30:50.861096
16117,-3.2193,2.4327,-0.3582,27.930,-451.990,221.935,421,407,387,406,407,2025-05-27T11:30:50.861096
16118,-3.1920,2.3614,-0.5139,3.605,-433.335,276.290,429,416,379,402,410,2025-05-27T11:30:50.861096
16119,-3.5448,2.0174,-0.6124,-27.230,-416.185,326.480,412,364,347,387,404,2025-05-27T11:30:50.861096
16120,-4.0075,1.4738,-0.8940,-43.890,-429.940,367.255,402,402,371,381,385,2025-05-27T11:30:50.861096
16121,-4.2671,1.1956,-1.1610,-61.600,-448.770,405.195,398,423,370,407,381,2025-05-27T11:30:50.861096
16122,-4.6907,0.8872,-1.3361,-84.035,-449.890,448.735,336,428,390,413,396,2025-05-27T11:30:50.861096
16123,-5.0908,0.4431,-1.5826,-96.600,-448.560,490.805,385,422,395,392,367,2025-05-27T11:30:50.861096
16124,-5.4461,-0.0283,-1.4533,-87.010,-452.270,545.895,376,376,395,399,400,2025-05-27T11:30:50.861096
16125,-5.5398,-0.7227,-1.2337,-62.195,-445.620,604.625,404,385,388,408,370,2025-05-27T11:30:50.955955
16126,-5.3212,-1.2473,-1.0853,-34.195,-407.925,657.335,421,383,377,391,337,2025-05-27T11:30:50.955955
16127,-5.1484,-1.6738,-0.9482,-8.610,-349.020,695.135,415,401,375,396,382,2025-05-27T11:30:50.955955
16128,-4.8419,-2.1887,-0.8477,12.145,-299.530,721.525,432,363,371,403,402,2025-05-27T11:30:50.955955
16129,-4.4432,-2.5849,-0.6764,44.380,-275.975,739.130,405,398,378,416,390,2025-05-27T11:30:50.955955
16130,-4.1387,-3.2252,-0.4236,80.815,-263.375,729.925,411,409,374,412,392,2025-05-27T11:30:50.955955
16131,-3.3047,-3.7044,-0.4987,131.145,-251.895,703.605,427,415,384,408,409,2025-05-27T11:30:50.955955
16132,-2.6152,-3.9260,-0.5368,181.125,-211.995,673.015,414,377,392,406,401,2025-05-27T11:30:50.955955
16133,-1.7895,-3.7683,-0.5290,215.565,-137.830,635.740,411,385,374,370,388,2025-05-27T11:30:50.955955
16134,-1.4996,-3.8601,-0.2845,226.485,-54.950,594.195,420,375,336,359,347,2025-05-27T11:30:51.161080
16135,-1.4142,-3.8079,-0.3206,214.305,5.565,551.845,410,399,359,372,393,2025-05-27T11:30:51.161080
16136,-0.8764,-3.7190,-0.1459,203.665,39.690,506.905,349,414,340,398,413,2025-05-27T11:30:51.161080
16137,-0.3640,-3.6927,-0.1205,189.910,86.275,454.685,389,426,375,388,373,2025-05-27T11:30:51.161080
16138,-0.0137,-3.3125,-0.0190,166.005,153.160,399.175,406,427,386,418,392,2025-05-27T11:30:51.161080
16139,0.0937,-2.9490,0.1381,128.170,204.680,344.225,403,345,387,412,406,2025-05-27T11:30:51.161080
16140,-0.0771,-2.6440,0.3587,96.390,260.750,286.650,395,406,401,399,409,2025-05-27T11:30:51.161080
16141,-0.2977,-2.3463,0.7178,90.230,298.410,230.195,402,425,394,418,412,2025-05-27T11:30:51.161080
16142,-0.2621,-2.3004,0.7291,89.600,314.475,174.230,407,427,393,406,353,2025-05-27T11:30:51.161080
16143,-0.1928,-1.9925,0.9116,96.460,348.565,122.850,397,421,395,407,388,2025-05-27T11:30:51.161080
16144,-0.4138,-1.6826,0.9916,100.030,378.875,76.195,385,426,386,413,390,2025-05-27T11:30:51.161080
16145,-0.5368,-1.4059,1.0272,120.890,395.360,27.965,343,405,389,401,389,2025-05-27T11:30:51.161080
16146,-0.6744,-1.0804,0.9584,145.320,404.775,-12.845,380,393,373,408,350,2025-05-27T11:30:51.161080
16147,-0.7842,-0.8735,0.8086,174.755,415.205,-45.605,418,398,303,408,375,2025-05-27T11:30:51.161080
16148,-0.9848,-0.6974,0.7554,204.855,414.890,-66.360,425,392,338,431,387,2025-05-27T11:30:51.161080
16149,-1.1702,-0.6271,0.7291,237.300,399.945,-85.470,426,405,369,415,390,2025-05-27T11:30:51.161080
16150,-1.3127,-0.5754,0.7676,274.890,367.640,-97.685,370,423,338,423,387,2025-05-27T11:30:51.161080
16151,-1.3620,-0.5324,0.7779,316.995,327.040,-108.500,402,415,361,404,382,2025-05-27T11:30:51.161080
16152,-1.3025,-0.4319,0.7027,357.385,294.000,-124.425,406,437,380,373,392,2025-05-27T11:30:51.327740
16153,-1.2351,-0.3177,0.5968,394.345,273.595,-139.440,417,426,395,379,404,2025-05-27T11:30:51.327740
16154,-1.1663,-0.2137,0.4670,421.680,267.225,-150.745,390,384,396,405,414,2025-05-27T11:30:51.327740
16155,-1.1283,-0.1688,0.2996,437.920,267.645,-154.875,359,429,394,418,402,2025-05-27T11:30:51.327740
16156,-1.1878,-0.1503,0.1703,454.580,265.685,-150.395,422,355,388,421,408,2025-05-27T11:30:51.327740
16157,-1.3601,-0.1469,0.1020,468.370,254.485,-142.625,424,351,378,405,409,2025-05-27T11:30:51.327740
16158,-1.4650,-0.0839,0.0917,482.580,219.695,-131.705,423,400,360,413,403,2025-05-27T11:30:51.327740
16159,-1.4899,-0.0039,0.1713,495.600,177.485,-121.485,397,424,372,418,390,2025-05-27T11:30:51.327740
16160,-1.5426,0.0698,0.1669,506.380,139.300,-110.775,391,414,378,406,390,2025-05-27T11:30:51.327740
16161,-1.6065,0.0688,0.1474,522.865,97.930,-105.175,423,343,374,397,401,2025-05-27T11:30:51.327740
16162,-1.6431,0.1210,0.0898,528.710,68.810,-98.525,394,396,386,356,410,2025-05-27T11:30:51.327740
16163,-1.7143,0.2704,0.0000,526.995,51.555,-81.165,396,360,390,423,350,2025-05-27T11:30:51.327740
16164,-1.5836,0.5031,0.0254,500.955,59.395,-54.320,301,407,392,402,389,2025-05-27T11:30:51.327740
16165,-1.7207,0.7491,0.0630,454.790,76.580,-24.955,382,404,382,382,360,2025-05-27T11:30:51.327740
16166,-2.0115,0.8179,0.1039,404.005,84.245,19.915,291,387,381,406,381,2025-05-27T11:30:51.327740
16167,-2.3819,0.8140,0.0317,362.565,48.930,54.600,402,356,386,423,404,2025-05-27T11:30:51.538944
16168,-2.6250,0.8764,-0.0483,332.955,-17.990,87.500,401,401,377,410,389,2025-05-27T11:30:51.538944
16169,-2.6084,0.9448,-0.0800,308.070,-87.290,114.835,424,432,380,398,411,2025-05-27T11:30:51.538944
16170,-2.5234,0.9877,-0.1444,284.480,-143.150,139.300,406,422,371,398,397,2025-05-27T11:30:51.538944
16171,-2.2746,0.9326,-0.2420,266.035,-178.850,158.095,412,373,373,389,399,2025-05-27T11:30:51.538944
16172,-1.9569,0.9194,-0.3216,241.955,-193.130,173.215,402,391,366,403,395,2025-05-27T11:30:51.538944
16173,-1.6006,0.9384,-0.2391,213.220,-180.285,188.790,417,418,331,381,386,2025-05-27T11:30:51.538944
16174,-1.3830,0.8623,-0.3460,180.250,-167.055,203.350,344,427,357,386,391,2025-05-27T11:30:51.538944
16175,-1.3088,0.8311,-0.3909,147.315,-147.805,214.935,405,401,356,386,402,2025-05-27T11:30:51.538944
16176,-1.2000,0.7564,-0.3743,121.730,-138.495,222.950,354,394,338,349,402,2025-05-27T11:30:51.538944
16177,-1.1302,0.6525,-0.4055,101.780,-140.385,227.675,407,415,349,374,395,2025-05-27T11:30:51.538944
16178,-1.0268,0.5573,-0.4177,89.950,-152.810,229.845,397,409,362,341,392,2025-05-27T11:30:51.538944
16179,-0.8525,0.4695,-0.4304,83.825,-166.110,229.040,425,400,365,385,395,2025-05-27T11:30:51.538944
16180,-0.6417,0.4065,-0.4314,76.545,-171.465,225.435,416,403,377,397,405,2025-05-27T11:30:51.538944
16181,-0.4216,0.3411,-0.4075,68.880,-168.420,218.925,389,392,352,364,394,2025-05-27T11:30:51.538944
16182,-0.2616,0.2991,-0.3484,57.820,-157.465,213.045,340,340,372,398,362,2025-05-27T11:30:51.538944
16183,-0.1157,0.2674,-0.3240,44.590,-139.685,202.615,384,417,374,394,403,2025-05-27T11:30:51.538944
16184,0.0327,0.2167,-0.3109,35.350,-124.915,192.605,414,430,391,389,387,2025-05-27T11:30:51.770516
16185,0.1532,0.1376,-0.3065,23.310,-101.885,177.485,414,372,337,380,405,2025-05-27T11:30:51.770516
16186,0.2694,0.0932,-0.3045,13.265,-78.120,156.870,338,387,348,396,369,2025-05-27T11:30:51.770516
16187,0.2772,0.0547,-0.3045,2.345,-52.255,128.065,385,414,371,406,391,2025-05-27T11:30:51.770516
16188,0.2782,0.0273,-0.2855,-6.510,-28.735,95.410,399,419,375,406,390,2025-05-27T11:30:51.770516
16189,0.2669,-0.0137,-0.2499,-15.995,-14.840,66.920,343,419,380,416,406,2025-05-27T11:30:51.770516
16190,0.2572,-0.0390,-0.1972,-19.565,-5.740,49.210,380,402,342,370,394,2025-05-27T11:30:51.770516
16191,0.2250,-0.0283,-0.1664,-20.300,-1.435,30.100,417,405,361,381,398,2025-05-27T11:30:51.770516
16192,0.1562,-0.0517,-0.1703,-26.075,11.270,5.215,397,390,367,390,365,2025-05-27T11:30:51.770516
16193,0.1259,-0.0229,-0.0712,-23.975,12.215,-18.585,414,413,366,394,398,2025-05-27T11:30:51.770516
16194,0.0981,-0.0024,0.0000,-25.970,19.635,-44.030,423,399,337,396,404,2025-05-27T11:30:51.770516
16195,0.0737,0.0742,0.0508,-26.670,22.820,-68.390,397,397,349,408,417,2025-05-27T11:30:51.770516
