SeqNum,AccX,AccY,AccZ,GyroX,GyroY,GyroZ,Flex,Force1,Force2,Force3,Force4,TimestampReception
1,0.0000,0.0000,0.0000,-2.940,11.550,-4.060,461,452,356,432,423,2025-06-04T21:47:27.855711
2,-0.9018,-0.1342,0.4324,-0.490,-7.910,-0.420,421,448,406,430,431,2025-06-04T21:47:27.856715
3,-0.8974,-0.1298,0.4397,-1.050,-7.875,-0.385,433,431,389,421,411,2025-06-04T21:47:27.856715
4,-0.9043,-0.1371,0.4324,-1.470,-8.225,-0.070,417,427,378,403,408,2025-06-04T21:47:27.856715
5,-0.9096,-0.1381,0.4299,-1.120,-9.135,0.000,402,438,350,406,404,2025-06-04T21:47:27.856715
6,-0.9150,-0.1405,0.4226,-1.015,-9.730,-0.070,372,404,340,352,400,2025-06-04T21:47:27.856715
7,-0.9126,-0.1381,0.4246,-0.560,-10.115,-0.525,396,377,372,337,413,2025-06-04T21:47:27.856715
8,-0.9062,-0.1376,0.4280,-0.525,-10.150,-0.770,416,401,378,391,418,2025-06-04T21:47:27.856715
9,-0.9018,-0.1318,0.4319,-0.455,-9.905,-0.840,425,418,390,412,417,2025-06-04T21:47:28.059790
10,-0.8989,-0.1313,0.4426,-0.490,-9.485,-0.945,425,433,357,393,409,2025-06-04T21:47:28.059790
11,-0.8989,-0.1332,0.4470,-0.840,-9.240,-0.805,419,352,336,350,418,2025-06-04T21:47:28.059790
12,-0.8984,-0.1352,0.4402,-1.050,-9.345,-0.385,374,389,361,394,416,2025-06-04T21:47:28.059790
13,-0.9126,-0.1415,0.4382,-0.980,-9.345,-0.175,431,421,389,392,406,2025-06-04T21:47:28.059790
14,-0.9111,-0.1371,0.4358,-0.700,-9.310,-0.140,411,426,365,389,413,2025-06-04T21:47:28.059790
15,-0.9145,-0.1401,0.4299,-0.945,-9.310,-0.140,401,410,399,406,362,2025-06-04T21:47:28.059790
16,-0.9135,-0.1425,0.4299,-0.245,-9.310,-0.105,432,431,403,407,384,2025-06-04T21:47:28.059790
17,-0.9082,-0.1362,0.4358,-0.210,-9.310,0.210,418,414,331,418,387,2025-06-04T21:47:28.059790
18,-0.9033,-0.1396,0.4436,-0.315,-9.310,0.595,405,426,329,405,385,2025-06-04T21:47:28.059790
19,-0.9004,-0.1405,0.4402,-0.385,-9.310,1.225,422,367,357,393,395,2025-06-04T21:47:28.059790
20,-0.9004,-0.1425,0.4377,-0.385,-9.030,1.645,421,404,392,414,411,2025-06-04T21:47:28.059790
21,-0.9048,-0.1401,0.4407,-0.280,-8.715,1.715,410,416,364,369,420,2025-06-04T21:47:28.059790
22,-0.9067,-0.1391,0.4392,-0.595,-8.575,1.365,395,436,360,396,365,2025-06-04T21:47:28.059790
23,-0.9091,-0.1444,0.4329,-0.595,-8.750,1.190,421,355,377,396,396,2025-06-04T21:47:28.059790
24,-0.9130,-0.1454,0.4343,-0.140,-9.170,1.050,427,420,382,369,313,2025-06-04T21:47:28.059790
25,-0.9135,-0.1435,0.4485,0.105,-9.975,1.015,394,361,384,399,377,2025-06-04T21:47:28.059790
26,-0.9082,-0.1449,0.4412,-0.280,-10.675,1.225,341,420,405,407,389,2025-06-04T21:47:28.109572
27,-0.9033,-0.1479,0.4314,-0.245,-11.095,1.400,335,422,407,403,388,2025-06-04T21:47:28.109572
28,-0.9028,-0.1498,0.4280,0.245,-10.920,1.225,370,359,407,405,403,2025-06-04T21:47:28.109572
29,-0.8969,-0.1464,0.4309,0.245,-10.360,0.840,393,400,397,404,414,2025-06-04T21:47:28.109572
30,-0.8921,-0.1459,0.4329,0.245,-9.415,0.175,388,404,374,407,421,2025-06-04T21:47:28.109572
31,-0.8872,-0.1401,0.4421,0.175,-8.505,-0.315,411,397,394,411,412,2025-06-04T21:47:28.157508
32,-0.8799,-0.1362,0.4499,-0.245,-7.455,-0.455,366,409,396,382,394,2025-06-04T21:47:28.157508
33,-0.8808,-0.1376,0.4480,-0.630,-6.755,-0.595,347,401,407,382,368,2025-06-04T21:47:28.157508
34,-0.8891,-0.1410,0.4436,-0.630,-6.475,-0.630,418,424,406,409,406,2025-06-04T21:47:28.157508
35,-0.8955,-0.1405,0.4436,-0.350,-6.510,-0.910,443,400,370,411,413,2025-06-04T21:47:28.218564
36,-0.8999,-0.1396,0.4441,-0.490,-6.685,-1.365,412,425,377,410,410,2025-06-04T21:47:28.218564
37,-0.9111,-0.1444,0.4412,-0.455,-7.420,-1.890,441,426,350,369,398,2025-06-04T21:47:28.218564
38,-0.9067,-0.1454,0.4455,0.280,-8.470,-2.135,430,366,386,392,369,2025-06-04T21:47:28.218564
39,-0.8984,-0.1410,0.4548,0.315,-9.310,-1.925,410,400,399,408,391,2025-06-04T21:47:28.218564
40,-0.8950,-0.1381,0.4519,0.070,-9.940,-1.540,414,432,407,400,360,2025-06-04T21:47:28.472227
41,-0.8974,-0.1405,0.4426,0.000,-10.080,-1.260,387,417,402,414,404,2025-06-04T21:47:28.472227
42,-0.9018,-0.1430,0.4402,0.525,-9.765,-1.190,419,349,403,401,403,2025-06-04T21:47:28.472227
43,-0.9018,-0.1376,0.4504,0.595,-9.065,-1.470,395,406,407,398,360,2025-06-04T21:47:28.472227
44,-0.9018,-0.1396,0.4485,0.000,-8.155,-1.540,407,418,398,412,400,2025-06-04T21:47:28.472227
45,-0.9018,-0.1401,0.4485,0.175,-7.560,-1.575,388,368,363,396,359,2025-06-04T21:47:28.472227
46,-0.9033,-0.1405,0.4480,0.315,-7.280,-1.295,390,430,389,397,343,2025-06-04T21:47:28.472227
47,-0.9038,-0.1396,0.4524,0.665,-7.280,-1.155,346,434,402,405,373,2025-06-04T21:47:28.472227
48,-0.9057,-0.1415,0.4465,0.385,-7.665,-0.770,406,431,409,397,378,2025-06-04T21:47:28.472227
49,-0.9062,-0.1420,0.4421,1.190,-8.085,-0.280,419,426,367,388,403,2025-06-04T21:47:28.472227
50,-0.9072,-0.1401,0.4436,1.435,-8.155,-0.105,416,382,393,397,417,2025-06-04T21:47:28.472227
51,-0.9038,-0.1342,0.4519,1.540,-7.945,-0.315,406,386,399,404,408,2025-06-04T21:47:28.472227
52,-0.8974,-0.1303,0.4509,1.155,-7.455,-0.315,384,345,390,411,405,2025-06-04T21:47:28.472227
53,-0.8960,-0.1332,0.4475,0.840,-7.070,-0.210,393,408,370,360,408,2025-06-04T21:47:28.472227
54,-0.9008,-0.1362,0.4412,1.190,-7.070,-0.070,377,396,385,389,400,2025-06-04T21:47:28.472227
55,-0.9048,-0.1376,0.4412,1.295,-7.350,-0.140,420,407,389,416,372,2025-06-04T21:47:28.472227
56,-0.9023,-0.1381,0.4416,1.715,-8.015,-0.070,354,370,364,420,403,2025-06-04T21:47:28.472227
57,-0.9072,-0.1405,0.4465,1.855,-8.470,0.070,386,428,396,399,397,2025-06-04T21:47:28.472227
58,-0.9038,-0.1401,0.4480,1.750,-8.540,0.000,395,409,402,410,406,2025-06-04T21:47:28.472227
59,-0.8994,-0.1396,0.4460,1.610,-8.435,0.035,348,365,405,398,319,2025-06-04T21:47:28.472227
60,-0.8969,-0.1405,0.4534,1.960,-8.295,0.140,379,393,409,409,326,2025-06-04T21:47:28.472227
61,-0.8926,-0.1366,0.4534,1.435,-7.910,0.420,393,413,407,349,358,2025-06-04T21:47:28.571085
62,-0.8965,-0.1405,0.4431,0.945,-7.560,0.770,428,431,407,391,336,2025-06-04T21:47:28.571085
63,-0.9028,-0.1435,0.4363,1.155,-7.175,0.700,362,367,412,346,384,2025-06-04T21:47:28.571085
64,-0.8979,-0.1440,0.4358,1.225,-6.755,0.525,425,411,400,377,344,2025-06-04T21:47:28.571085
65,-0.8999,-0.1396,0.4441,1.295,-6.405,0.315,378,440,398,389,339,2025-06-04T21:47:28.571085
66,-0.8965,-0.1376,0.4470,0.840,-6.370,0.070,413,433,411,345,344,2025-06-04T21:47:28.571085
67,-0.8974,-0.1401,0.4465,0.875,-6.510,0.035,412,372,413,373,373,2025-06-04T21:47:28.571085
68,-0.8940,-0.1342,0.4514,0.840,-6.895,0.000,343,410,419,400,396,2025-06-04T21:47:28.571085
69,-0.8969,-0.1371,0.4455,0.105,-7.210,0.175,392,410,380,404,409,2025-06-04T21:47:28.672830
70,-0.9028,-0.1449,0.4397,0.350,-7.735,0.000,418,354,360,417,390,2025-06-04T21:47:28.672830
71,-0.9048,-0.1449,0.4465,0.595,-8.155,-0.210,420,370,379,417,387,2025-06-04T21:47:28.672830
72,-0.9023,-0.1386,0.4519,0.245,-8.435,-0.525,415,395,387,393,405,2025-06-04T21:47:28.672830
73,-0.8989,-0.1386,0.4475,0.000,-8.680,-0.560,415,397,381,409,412,2025-06-04T21:47:28.672830
74,-0.8935,-0.1391,0.4397,-0.105,-8.575,-0.245,431,404,398,416,378,2025-06-04T21:47:28.672830
75,-0.8960,-0.1425,0.4426,0.105,-8.155,-0.070,418,416,410,418,397,2025-06-04T21:47:28.672830
76,-0.8974,-0.1366,0.4543,0.140,-7.700,-0.140,396,387,394,417,410,2025-06-04T21:47:28.672830
77,-0.8989,-0.1352,0.4514,-0.630,-7.245,-0.105,350,390,408,360,373,2025-06-04T21:47:28.672830
78,-0.9048,-0.1396,0.4441,-0.630,-7.035,-0.175,412,341,406,343,388,2025-06-04T21:47:28.912102
79,-0.9052,-0.1381,0.4392,-0.315,-7.105,-0.315,354,409,405,375,404,2025-06-04T21:47:28.912102
80,-0.9072,-0.1391,0.4436,-0.070,-7.490,-0.455,343,398,401,376,407,2025-06-04T21:47:28.912102
81,-0.9057,-0.1415,0.4470,0.000,-7.910,-0.420,391,427,388,389,397,2025-06-04T21:47:28.912102
82,-0.9057,-0.1425,0.4470,0.105,-8.085,-0.420,419,401,399,344,390,2025-06-04T21:47:28.912102
83,-0.9008,-0.1357,0.4519,0.210,-8.470,-0.245,429,406,399,330,398,2025-06-04T21:47:28.912102
84,-0.8940,-0.1410,0.4514,0.000,-8.610,0.385,434,386,412,373,398,2025-06-04T21:47:28.912102
85,-0.8935,-0.1396,0.4529,0.210,-8.365,0.910,422,371,398,390,401,2025-06-04T21:47:28.912102
86,-0.8945,-0.1396,0.4475,-0.140,-7.735,1.120,437,388,403,385,391,2025-06-04T21:47:28.912102
87,-0.9004,-0.1386,0.4387,-0.280,-7.035,0.910,427,410,411,382,398,2025-06-04T21:47:28.912102
88,-0.9018,-0.1381,0.4348,-0.070,-6.370,0.350,404,428,400,346,358,2025-06-04T21:47:28.912102
89,-0.9028,-0.1352,0.4392,0.000,-5.845,-0.140,424,387,406,379,343,2025-06-04T21:47:28.912102
90,-0.9072,-0.1352,0.4451,0.000,-5.845,-0.455,416,385,414,407,391,2025-06-04T21:47:28.912102
91,-0.9106,-0.1401,0.4519,0.035,-6.685,-0.560,436,430,374,421,408,2025-06-04T21:47:28.912102
92,-0.9101,-0.1401,0.4602,0.385,-7.595,-0.070,368,424,406,424,357,2025-06-04T21:47:28.912102
93,-0.9101,-0.1430,0.4519,0.245,-8.680,0.420,400,432,405,348,358,2025-06-04T21:47:28.912102
94,-0.9082,-0.1503,0.4431,0.665,-9.310,0.805,411,352,363,382,346,2025-06-04T21:47:28.912102
95,-0.9018,-0.1464,0.4441,1.050,-9.240,1.295,415,427,395,406,397,2025-06-04T21:47:29.100774
96,-0.8940,-0.1410,0.4494,1.085,-8.120,1.225,406,402,395,413,348,2025-06-04T21:47:29.100774
97,-0.8877,-0.1371,0.4494,0.840,-6.860,1.155,361,400,363,415,399,2025-06-04T21:47:29.100774
98,-0.8916,-0.1366,0.4514,0.455,-5.390,1.120,413,403,386,420,356,2025-06-04T21:47:29.100774
99,-0.8945,-0.1337,0.4548,0.280,-4.480,0.980,430,431,387,393,382,2025-06-04T21:47:29.100774
100,-0.9023,-0.1366,0.4524,0.140,-4.585,0.980,432,392,361,414,388,2025-06-04T21:47:29.100774
101,-0.9013,-0.1366,0.4514,0.490,-5.565,1.015,388,380,354,406,401,2025-06-04T21:47:29.100774
102,-0.9033,-0.1376,0.4485,0.525,-6.405,1.400,393,422,393,412,396,2025-06-04T21:47:29.100774
103,-0.9087,-0.1430,0.4475,0.980,-7.420,1.400,399,435,393,399,351,2025-06-04T21:47:29.100774
104,-0.8984,-0.1435,0.4407,1.540,-8.330,1.750,425,437,390,394,400,2025-06-04T21:47:29.100774
105,-0.8916,-0.1474,0.4431,1.855,-8.085,2.450,425,431,391,406,421,2025-06-04T21:47:29.100774
106,-0.8921,-0.1410,0.4665,3.010,-7.210,2.625,401,405,385,409,420,2025-06-04T21:47:29.100774
107,-0.8891,-0.1303,0.4807,2.100,-5.845,2.450,392,432,390,402,377,2025-06-04T21:47:29.100774
108,-0.8804,-0.1342,0.4709,2.030,-5.285,2.730,412,385,395,406,387,2025-06-04T21:47:29.100774
109,-0.8818,-0.1357,0.4641,2.555,-4.935,3.185,404,371,395,399,403,2025-06-04T21:47:29.100774
110,-0.8916,-0.1376,0.4592,3.605,-5.215,3.325,407,406,408,416,405,2025-06-04T21:47:29.100774
111,-0.9111,-0.1459,0.4421,4.340,-6.160,2.765,422,420,404,401,401,2025-06-04T21:47:29.100774
112,-0.9091,-0.1474,0.4553,6.265,-7.350,1.715,403,425,392,414,358,2025-06-04T21:47:29.100774
113,-0.9018,-0.1415,0.4636,7.875,-8.330,0.000,406,411,398,421,395,2025-06-04T21:47:29.100774
114,-0.8862,-0.1415,0.4695,9.520,-8.855,-1.750,402,435,390,360,353,2025-06-04T21:47:29.185859
115,-0.8774,-0.1415,0.4738,10.570,-9.170,-3.710,424,445,355,388,400,2025-06-04T21:47:29.185859
116,-0.8721,-0.1484,0.4831,12.110,-9.345,-5.635,379,426,372,363,400,2025-06-04T21:47:29.185859
117,-0.8589,-0.1513,0.4978,13.055,-9.485,-7.280,365,430,389,401,390,2025-06-04T21:47:29.185859
118,-0.8516,-0.1654,0.5114,12.915,-9.345,-9.450,350,386,353,389,391,2025-06-04T21:47:29.185859
119,-0.8403,-0.1845,0.5163,13.475,-9.450,-12.005,411,424,382,403,351,2025-06-04T21:47:29.185859
120,-0.8174,-0.2089,0.5261,13.370,-9.730,-14.665,426,438,352,352,338,2025-06-04T21:47:29.185859
121,-0.7818,-0.2338,0.5397,13.160,-10.185,-17.675,430,416,384,340,377,2025-06-04T21:47:29.231773
122,-0.7340,-0.2567,0.5510,13.055,-10.010,-21.350,436,419,383,380,388,2025-06-04T21:47:29.231773
123,-0.7008,-0.2899,0.5558,12.110,-9.345,-25.935,399,403,396,404,407,2025-06-04T21:47:29.231773
124,-0.7076,-0.3362,0.5529,11.655,-9.065,-30.415,409,401,407,422,411,2025-06-04T21:47:29.231773
125,-0.7608,-0.3894,0.5632,12.775,-9.555,-39.445,423,427,390,414,418,2025-06-04T21:47:29.488519
126,-0.7906,-0.4280,0.5734,12.845,-10.535,-50.750,426,418,389,396,356,2025-06-04T21:47:29.488519
127,-0.8384,-0.4548,0.5729,13.230,-11.970,-63.595,423,411,401,406,388,2025-06-04T21:47:29.488519
128,-0.8076,-0.4582,0.5514,15.400,-13.860,-74.620,373,417,404,417,389,2025-06-04T21:47:29.488519
129,-0.7993,-0.4538,0.5295,16.485,-16.590,-82.530,422,405,394,383,400,2025-06-04T21:47:29.488519
130,-0.7881,-0.4519,0.5261,19.985,-19.880,-87.325,404,412,400,358,410,2025-06-04T21:47:29.488519
131,-0.7950,-0.4446,0.5339,21.210,-23.555,-91.490,385,417,407,396,415,2025-06-04T21:47:29.488519
132,-0.8247,-0.4573,0.5363,23.520,-27.825,-95.585,399,419,413,410,415,2025-06-04T21:47:29.488519
133,-0.8296,-0.4534,0.5339,25.585,-31.430,-98.350,426,410,417,409,415,2025-06-04T21:47:29.488519
134,-0.8540,-0.4490,0.5266,26.740,-33.320,-101.150,424,369,408,405,417,2025-06-04T21:47:29.488519
135,-0.8911,-0.4699,0.5256,29.225,-34.265,-105.350,406,412,364,420,426,2025-06-04T21:47:29.488519
136,-0.8999,-0.4734,0.5046,31.500,-35.000,-108.500,433,425,377,396,414,2025-06-04T21:47:29.488519
137,-0.9213,-0.4948,0.4743,34.370,-35.560,-111.615,398,378,401,387,416,2025-06-04T21:47:29.488519
138,-0.9462,-0.5046,0.4534,38.885,-35.455,-114.590,381,411,401,407,423,2025-06-04T21:47:29.488519
139,-0.9189,-0.4763,0.4626,42.035,-33.320,-116.970,397,426,402,413,397,2025-06-04T21:47:29.488519
140,-0.8960,-0.4446,0.4548,41.965,-29.680,-117.950,422,432,401,410,414,2025-06-04T21:47:29.488519
141,-0.8579,-0.4031,0.4563,43.400,-22.715,-116.970,360,393,404,355,413,2025-06-04T21:47:29.488519
142,-0.8374,-0.3577,0.4524,42.245,-13.230,-115.395,386,386,405,377,415,2025-06-04T21:47:29.488519
143,-0.8267,-0.3240,0.4538,41.055,-2.975,-112.490,414,406,401,384,429,2025-06-04T21:47:29.488519
144,-0.8506,-0.3196,0.4382,38.430,6.160,-108.500,407,399,403,386,414,2025-06-04T21:47:29.488519
145,-0.8667,-0.3318,0.4197,37.835,13.545,-103.810,430,403,403,406,403,2025-06-04T21:47:29.727884
146,-0.9150,-0.3406,0.4021,37.380,18.935,-98.770,433,407,401,391,406,2025-06-04T21:47:29.727884
147,-0.9267,-0.3382,0.3894,38.290,22.610,-93.450,430,433,390,349,357,2025-06-04T21:47:29.727884
148,-0.9316,-0.3235,0.3860,38.605,25.375,-87.500,418,394,406,378,361,2025-06-04T21:47:29.727884
149,-0.9257,-0.3138,0.3714,39.165,28.490,-82.005,425,394,394,406,386,2025-06-04T21:47:29.727884
150,-0.9160,-0.2889,0.3728,40.530,30.870,-74.165,431,437,393,398,392,2025-06-04T21:47:29.727884
151,-0.9067,-0.2708,0.3782,40.285,33.215,-65.590,366,405,400,413,387,2025-06-04T21:47:29.727884
152,-0.8974,-0.2606,0.3845,40.215,35.000,-56.980,341,427,361,421,401,2025-06-04T21:47:29.727884
153,-0.8882,-0.2401,0.3841,40.040,37.800,-48.615,382,437,379,392,398,2025-06-04T21:47:29.727884
154,-0.8594,-0.2157,0.3748,39.340,42.140,-41.055,417,436,382,394,414,2025-06-04T21:47:29.727884
155,-0.8208,-0.1854,0.3479,38.080,52.290,-34.860,367,403,390,361,406,2025-06-04T21:47:29.727884
156,-0.7803,-0.1464,0.3104,35.840,68.145,-27.160,404,370,394,388,367,2025-06-04T21:47:29.727884
157,-0.7823,-0.0864,0.2884,33.215,87.290,-19.565,398,385,402,402,385,2025-06-04T21:47:29.727884
158,-0.8072,-0.0342,0.2938,28.805,106.820,-12.285,433,403,401,413,399,2025-06-04T21:47:29.727884
159,-0.8755,0.0088,0.2684,23.380,123.865,-4.480,429,411,399,404,354,2025-06-04T21:47:29.727884
160,-0.9511,0.0132,0.2664,17.920,135.275,4.760,430,402,399,398,385,2025-06-04T21:47:29.727884
161,-0.9975,0.0517,0.2738,12.985,143.185,14.140,395,427,396,355,342,2025-06-04T21:47:29.727884
162,-1.0677,0.1000,0.2645,6.265,144.340,29.645,430,436,369,374,339,2025-06-04T21:47:29.727884
163,-1.1117,0.1840,0.2313,-0.560,143.395,47.110,411,420,390,400,384,2025-06-04T21:47:29.727884
164,-1.1214,0.2460,0.1596,-11.620,145.145,65.205,430,384,367,415,395,2025-06-04T21:47:29.727884
165,-1.1814,0.2811,0.0908,-19.915,147.525,82.635,433,389,378,425,386,2025-06-04T21:47:29.905294
166,-1.3025,0.2791,0.0576,-30.450,146.125,98.140,434,425,402,418,406,2025-06-04T21:47:29.905294
167,-1.4611,0.2142,0.0034,-43.890,137.410,111.195,413,407,400,359,402,2025-06-04T21:47:29.905294
168,-1.6304,0.1171,-0.0078,-51.870,125.300,121.100,414,394,406,403,417,2025-06-04T21:47:29.905294
169,-1.6587,0.0859,-0.0127,-59.500,105.035,129.955,423,414,413,408,410,2025-06-04T21:47:29.905294
170,-1.6499,0.0634,-0.0283,-72.170,88.375,142.730,435,424,369,420,416,2025-06-04T21:47:29.905294
171,-1.6870,0.0029,-0.0737,-86.835,77.700,155.785,422,425,397,417,400,2025-06-04T21:47:29.905294
172,-1.7539,-0.0761,-0.1181,-100.380,69.090,168.210,422,421,404,409,394,2025-06-04T21:47:29.905294
173,-1.7661,-0.1288,-0.1845,-111.825,63.525,180.810,380,311,389,413,352,2025-06-04T21:47:29.905294
174,-1.7475,-0.1308,-0.2562,-125.475,61.600,194.285,372,333,393,390,398,2025-06-04T21:47:29.908564
175,-1.7631,-0.1303,-0.3357,-138.985,59.080,207.060,427,409,391,404,373,2025-06-04T21:47:29.908564
176,-1.7592,-0.1147,-0.3636,-150.850,52.430,215.705,407,425,398,406,349,2025-06-04T21:47:29.908564
177,-1.7529,-0.1166,-0.3836,-162.155,41.825,224.385,400,396,377,417,387,2025-06-04T21:47:29.908564
178,-1.7563,-0.1806,-0.3723,-167.650,27.230,229.845,405,410,388,384,348,2025-06-04T21:47:29.908564
179,-1.6973,-0.1440,-0.3758,-176.225,15.050,233.205,405,398,392,399,389,2025-06-04T21:47:29.908564
180,-1.5884,-0.1606,-0.3914,-182.175,3.465,235.690,422,401,386,416,402,2025-06-04T21:47:29.908564
181,-1.5040,-0.1718,-0.3850,-184.275,-5.810,237.125,384,358,364,382,398,2025-06-04T21:47:30.003934
182,-1.4308,-0.1796,-0.3528,-187.250,-14.490,237.335,393,394,362,416,377,2025-06-04T21:47:30.003934
183,-1.3723,-0.2035,-0.2982,-188.720,-26.495,235.340,423,427,384,416,407,2025-06-04T21:47:30.003934
184,-1.2981,-0.2211,-0.2064,-186.935,-41.125,231.420,392,369,394,399,388,2025-06-04T21:47:30.003934
185,-1.2376,-0.2274,-0.1259,-183.050,-55.265,225.715,382,343,402,408,413,2025-06-04T21:47:30.003934
186,-1.2117,-0.2445,-0.0429,-175.175,-77.805,217.455,409,387,406,408,380,2025-06-04T21:47:30.003934
187,-1.1341,-0.2743,-0.0078,-165.025,-103.705,210.350,349,390,410,411,379,2025-06-04T21:47:30.003934
188,-1.0292,-0.2918,0.0220,-148.995,-128.345,200.970,406,430,414,421,388,2025-06-04T21:47:30.003934
189,-0.9135,-0.2879,0.0532,-131.915,-147.700,190.435,420,424,362,408,399,2025-06-04T21:47:30.106710
190,-0.7637,-0.2772,0.2489,-116.760,-157.290,178.360,428,434,351,409,391,2025-06-04T21:47:30.106710
191,-0.5988,-0.2318,0.1879,-102.900,-155.435,164.255,416,402,388,427,402,2025-06-04T21:47:30.106710
192,-0.4748,-0.1928,0.2435,-94.815,-141.085,147.245,418,412,403,399,404,2025-06-04T21:47:30.106710
193,-0.4041,-0.1640,0.2772,-87.115,-121.310,127.505,389,394,403,413,403,2025-06-04T21:47:30.106710
194,-0.3748,-0.1386,0.2972,-79.345,-105.280,106.575,399,397,395,399,409,2025-06-04T21:47:30.106710
195,-0.3719,-0.1152,0.3128,-73.115,-86.940,90.370,407,422,360,393,413,2025-06-04T21:47:30.106710
196,-0.3870,-0.0991,0.3157,-65.520,-71.540,71.120,404,426,391,395,410,2025-06-04T21:47:30.106710
197,-0.4138,-0.0669,0.3392,-57.610,-59.220,53.760,401,417,403,400,360,2025-06-04T21:47:30.187968
198,-0.4538,-0.0478,0.3543,-50.155,-49.980,38.290,416,439,387,402,391,2025-06-04T21:47:30.187968
199,-0.4982,-0.0264,0.3836,-43.505,-43.050,24.955,419,400,397,418,409,2025-06-04T21:47:30.187968
200,-0.5187,0.0312,0.4211,-36.400,-38.115,13.720,428,427,404,373,403,2025-06-04T21:47:30.187968
201,-0.5280,0.0888,0.4451,-32.200,-31.045,6.475,420,428,407,399,402,2025-06-04T21:47:30.377941
202,-0.5412,0.1308,0.4558,-29.680,-23.380,-0.840,412,370,361,404,415,2025-06-04T21:47:30.377941
203,-0.5505,0.1869,0.4602,-27.930,-14.350,-6.370,401,423,388,401,393,2025-06-04T21:47:30.377941
204,-0.5812,0.2338,0.4582,-27.650,-5.320,-11.095,411,420,388,369,385,2025-06-04T21:47:30.377941
205,-0.6456,0.2552,0.4524,-27.090,2.065,-16.100,418,430,401,407,352,2025-06-04T21:47:30.377941
206,-0.7066,0.2908,0.4587,-25.760,6.020,-20.265,353,424,410,408,406,2025-06-04T21:47:30.377941
207,-0.7935,0.2894,0.4421,-25.060,8.330,-11.935,416,430,395,422,412,2025-06-04T21:47:30.377941
208,-0.6012,0.4612,0.5290,-2.905,-35.315,-9.870,384,411,402,361,393,2025-06-04T21:47:30.377941
209,-1.2912,0.3538,0.5958,-9.800,-66.360,1.120,396,379,390,385,353,2025-06-04T21:47:30.377941
210,-1.0175,0.4353,0.5622,1.680,-73.255,6.860,425,412,360,360,386,2025-06-04T21:47:30.377941
211,-0.7598,0.4685,0.5300,-1.120,-73.640,9.310,435,428,387,399,409,2025-06-04T21:47:30.377941
212,-0.7086,0.5353,0.5490,-8.680,-58.310,5.005,427,396,385,408,355,2025-06-04T21:47:30.377941
213,-0.5910,0.5544,0.5451,-10.290,-39.130,5.040,409,418,388,403,387,2025-06-04T21:47:30.377941
214,-0.5563,0.5651,0.5309,-17.920,-18.445,4.515,420,411,399,409,404,2025-06-04T21:47:30.377941
215,-0.5275,0.5729,0.5353,-21.455,-1.470,4.480,400,417,410,363,395,2025-06-04T21:47:30.377941
216,-0.5212,0.5646,0.5358,-26.040,14.105,2.695,404,357,396,408,416,2025-06-04T21:47:30.377941
217,-0.6115,0.4987,0.5729,-26.600,24.850,-1.050,423,393,359,402,418,2025-06-04T21:47:30.377941
218,-0.5373,0.5305,0.5383,-28.000,32.410,-6.230,357,414,357,388,419,2025-06-04T21:47:30.538620
219,-0.5305,0.5090,0.5339,-35.805,37.730,-9.730,400,418,345,398,401,2025-06-04T21:47:30.538620
220,-0.5617,0.4734,0.5168,-31.640,41.720,-10.430,433,350,383,412,397,2025-06-04T21:47:30.538620
221,-0.6017,0.4631,0.5212,-30.275,35.280,-9.030,431,337,390,377,405,2025-06-04T21:47:30.538620
222,-0.6783,0.4372,0.5329,-26.950,22.960,-7.665,425,377,403,406,360,2025-06-04T21:47:30.538620
223,-0.7291,0.4319,0.5500,-22.330,11.760,-8.225,376,379,387,398,402,2025-06-04T21:47:30.538620
224,-0.7637,0.4294,0.5690,-20.195,-0.945,-10.080,420,401,395,394,369,2025-06-04T21:47:30.538620
225,-0.7647,0.4280,0.5680,-17.220,-11.410,-12.600,411,406,406,410,398,2025-06-04T21:47:30.538620
226,-0.7544,0.4197,0.5573,-15.540,-19.215,-14.350,380,382,372,426,355,2025-06-04T21:47:30.538620
227,-0.7344,0.4099,0.5529,-12.250,-24.465,-15.925,389,401,376,418,398,2025-06-04T21:47:30.538620
228,-0.7178,0.4080,0.5475,-10.815,-28.770,-16.240,404,425,395,395,389,2025-06-04T21:47:30.538620
229,-0.7022,0.4080,0.5480,-8.680,-29.785,-16.065,415,434,396,355,406,2025-06-04T21:47:30.538620
230,-0.6852,0.4182,0.5558,-6.895,-27.790,-15.855,411,439,389,391,404,2025-06-04T21:47:30.538620
231,-0.6690,0.4329,0.5666,-7.280,-25.165,-15.785,427,355,392,412,413,2025-06-04T21:47:30.538620
232,-0.6642,0.4416,0.5758,-7.455,-20.650,-15.470,425,393,402,384,403,2025-06-04T21:47:30.538620
233,-0.6739,0.4465,0.5778,-7.910,-14.980,-15.225,434,440,366,415,411,2025-06-04T21:47:30.625625
234,-0.6769,0.4392,0.5710,-7.770,-10.395,-15.260,419,421,391,422,381,2025-06-04T21:47:30.625625
235,-0.6900,0.4377,0.5636,-8.015,-6.020,-14.945,424,411,387,404,362,2025-06-04T21:47:30.625625
236,-0.7091,0.4387,0.5558,-7.105,-2.800,-14.665,423,425,393,403,397,2025-06-04T21:47:30.625625
237,-0.7110,0.4460,0.5514,-6.335,-1.750,-13.720,425,426,368,417,397,2025-06-04T21:47:30.625625
238,-0.7183,0.4524,0.5519,-5.985,-1.400,-12.775,420,374,344,415,395,2025-06-04T21:47:30.625625
239,-0.7257,0.4534,0.5568,-4.445,-1.330,-12.110,420,424,368,419,401,2025-06-04T21:47:30.625625
240,-0.7379,0.4568,0.5651,-4.235,-2.555,-11.095,433,407,388,366,354,2025-06-04T21:47:30.891765
241,-0.7457,0.4514,0.5588,-3.255,-4.585,-10.220,413,425,383,404,352,2025-06-04T21:47:30.891765
242,-0.7466,0.4538,0.5505,-2.380,-6.510,-9.310,425,429,352,414,395,2025-06-04T21:47:30.891765
243,-0.7398,0.4573,0.5519,-1.505,-8.120,-8.365,401,435,377,395,402,2025-06-04T21:47:30.891765
244,-0.7344,0.4543,0.5490,-1.085,-9.555,-7.420,405,432,381,397,394,2025-06-04T21:47:30.891765
245,-0.7218,0.4485,0.5470,-0.840,-9.870,-6.265,407,429,384,355,380,2025-06-04T21:47:30.891765
246,-0.7159,0.4455,0.5500,0.035,-9.660,-5.180,378,413,389,405,390,2025-06-04T21:47:30.891765
247,-0.7032,0.4446,0.5573,-0.105,-8.610,-3.920,423,351,383,404,393,2025-06-04T21:47:30.891765
248,-0.7056,0.4382,0.5549,-0.490,-7.350,-2.835,403,384,388,417,406,2025-06-04T21:47:30.891765
249,-0.7042,0.4324,0.5495,-0.140,-5.810,-2.345,424,424,397,357,403,2025-06-04T21:47:30.891765
250,-0.7081,0.4309,0.5505,-0.700,-4.550,-2.100,407,431,387,396,362,2025-06-04T21:47:30.891765
251,-0.7056,0.4319,0.5510,-0.315,-3.745,-2.065,417,407,384,369,397,2025-06-04T21:47:30.891765
252,-0.7144,0.4285,0.5534,-0.420,-3.290,-2.310,419,423,354,384,403,2025-06-04T21:47:30.891765
253,-0.7198,0.4236,0.5558,-0.350,-3.885,-2.625,422,435,372,411,413,2025-06-04T21:47:30.891765
254,-0.7208,0.4202,0.5563,-0.280,-5.040,-2.660,424,416,391,419,398,2025-06-04T21:47:30.891765
255,-0.7183,0.4172,0.5622,-0.210,-6.370,-2.660,431,429,404,361,406,2025-06-04T21:47:30.891765
256,-0.7174,0.4163,0.5656,-0.140,-7.630,-2.450,434,435,395,393,411,2025-06-04T21:47:30.891765
257,-0.7105,0.4119,0.5617,-0.560,-8.610,-2.065,424,428,408,404,411,2025-06-04T21:47:30.891765
258,-0.7076,0.4080,0.5578,-0.770,-9.380,-1.785,408,385,412,415,409,2025-06-04T21:47:30.891765
259,-0.7120,0.4041,0.5573,-0.980,-10.360,-1.575,397,416,400,419,407,2025-06-04T21:47:30.891765
260,-0.7071,0.4026,0.5592,-1.120,-11.165,-1.575,415,419,403,421,394,2025-06-04T21:47:30.891765
261,-0.7081,0.4046,0.5627,-1.085,-11.620,-2.030,425,432,392,426,400,2025-06-04T21:47:31.163968
262,-0.6998,0.4055,0.5622,-1.540,-11.725,-2.345,405,411,397,400,354,2025-06-04T21:47:31.163968
263,-0.6934,0.4021,0.5592,-1.645,-11.305,-2.695,401,435,389,409,394,2025-06-04T21:47:31.163968
264,-0.6954,0.4021,0.5597,-1.400,-10.045,-2.905,425,429,395,406,397,2025-06-04T21:47:31.163968
265,-0.6954,0.3987,0.5622,-1.540,-8.925,-3.465,423,441,362,394,370,2025-06-04T21:47:31.163968
266,-0.6895,0.3977,0.5656,-1.785,-7.350,-3.920,421,426,373,406,388,2025-06-04T21:47:31.163968
267,-0.6895,0.3938,0.5661,-2.065,-5.705,-4.340,413,424,383,417,398,2025-06-04T21:47:31.163968
268,-0.6939,0.3963,0.5627,-1.715,-4.585,-4.550,404,357,395,417,410,2025-06-04T21:47:31.163968
269,-0.7066,0.3958,0.5592,-1.610,-3.675,-4.795,409,342,385,417,395,2025-06-04T21:47:31.163968
270,-0.7144,0.3963,0.5524,-1.190,-3.325,-5.250,420,400,369,396,408,2025-06-04T21:47:31.163968
271,-0.7188,0.3967,0.5602,-1.260,-2.695,-5.355,375,407,383,393,412,2025-06-04T21:47:31.163968
272,-0.7218,0.3924,0.5592,-0.840,-3.115,-5.040,417,414,320,350,356,2025-06-04T21:47:31.163968
273,-0.7257,0.3958,0.5636,-0.105,-4.410,-4.060,385,425,356,295,388,2025-06-04T21:47:31.163968
274,-0.7266,0.3865,0.5607,-0.140,-5.145,-3.220,426,428,372,327,348,2025-06-04T21:47:31.163968
275,-0.7257,0.3884,0.5568,0.665,-6.055,-2.800,407,420,396,386,406,2025-06-04T21:47:31.163968
276,-0.7276,0.3894,0.5534,0.805,-6.370,-2.590,406,437,398,405,404,2025-06-04T21:47:31.163968
277,-0.7159,0.3919,0.5514,1.505,-6.230,-2.555,372,400,408,413,391,2025-06-04T21:47:31.163968
278,-0.7169,0.3919,0.5505,1.225,-5.250,-2.765,403,395,411,414,416,2025-06-04T21:47:31.163968
279,-0.7071,0.3880,0.5456,1.225,-4.340,-3.150,435,393,413,410,406,2025-06-04T21:47:31.163968
280,-0.6969,0.3850,0.5451,1.435,-3.535,-3.045,426,435,404,406,415,2025-06-04T21:47:31.163968
281,-0.6964,0.3797,0.5500,1.470,-2.765,-3.080,402,424,394,400,375,2025-06-04T21:47:31.163968
282,-0.6944,0.3762,0.5558,1.505,-2.310,-3.325,417,418,360,354,399,2025-06-04T21:47:31.217170
283,-0.6934,0.3743,0.5612,0.980,-2.380,-3.675,413,397,381,380,401,2025-06-04T21:47:31.217170
284,-0.6900,0.3694,0.5592,0.875,-2.450,-4.270,419,426,396,378,356,2025-06-04T21:47:31.217170
285,-0.6895,0.3670,0.5553,0.210,-1.925,-5.950,374,440,411,393,340,2025-06-04T21:47:31.217170
286,-0.6866,0.3523,0.5461,-0.490,-1.225,-7.735,412,422,380,372,350,2025-06-04T21:47:31.217170
287,-0.6671,0.3436,0.5451,-0.805,-0.735,-9.310,427,434,387,379,389,2025-06-04T21:47:31.217170
288,-0.6583,0.3353,0.5578,-1.435,-0.175,-10.605,400,412,398,411,412,2025-06-04T21:47:31.217170
289,-0.6437,0.3270,0.5661,-2.835,0.245,-12.390,371,397,405,397,395,2025-06-04T21:47:31.217170
290,-0.6378,0.3196,0.5641,-5.250,1.295,-14.980,342,427,395,402,416,2025-06-04T21:47:31.262934
291,-0.6159,0.3118,0.5510,-7.735,3.080,-17.535,422,436,408,380,396,2025-06-04T21:47:31.262934
292,-0.5963,0.3006,0.5383,-11.165,5.320,-21.280,431,424,409,405,397,2025-06-04T21:47:31.262934
293,-0.5958,0.2738,0.5334,-14.630,6.860,-25.620,402,436,406,403,402,2025-06-04T21:47:31.262934
294,-0.5710,0.2635,0.5412,-17.955,7.525,-30.240,377,350,403,404,406,2025-06-04T21:47:31.344215
295,-0.5641,0.2586,0.5544,-23.450,7.280,-34.335,391,415,402,415,409,2025-06-04T21:47:31.344215
296,-0.5505,0.2455,0.5666,-28.000,5.880,-38.430,417,425,361,354,357,2025-06-04T21:47:31.344215
297,-0.5480,0.2420,0.5695,-34.825,3.850,-42.980,403,404,385,376,389,2025-06-04T21:47:31.344215
298,-0.5412,0.2167,0.5685,-42.210,-0.420,-46.725,419,431,403,395,407,2025-06-04T21:47:31.344215
299,-0.5480,0.2098,0.5553,-49.385,-5.880,-51.975,428,409,386,408,365,2025-06-04T21:47:31.344215
300,-0.5470,0.2001,0.5627,-57.085,-11.865,-58.135,433,422,394,416,391,2025-06-04T21:47:31.540493
301,-0.5651,0.1967,0.5807,-64.120,-19.145,-64.750,417,413,390,405,346,2025-06-04T21:47:31.540493
302,-0.5797,0.1703,0.5910,-70.210,-27.545,-72.135,410,421,396,377,388,2025-06-04T21:47:31.540493
303,-0.6139,0.1405,0.5827,-77.875,-34.125,-81.025,380,436,375,394,399,2025-06-04T21:47:31.540493
304,-0.6378,0.1108,0.5592,-84.805,-41.580,-91.245,394,357,392,407,405,2025-06-04T21:47:31.540493
305,-0.6500,0.1030,0.5431,-90.510,-47.600,-98.875,397,393,401,395,392,2025-06-04T21:47:31.540493
306,-0.6783,0.0952,0.5490,-96.355,-51.345,-108.780,399,347,394,409,387,2025-06-04T21:47:31.540493
307,-0.7266,0.0761,0.5666,-102.375,-51.975,-119.455,408,410,399,414,384,2025-06-04T21:47:31.540493
308,-0.7818,0.0473,0.5773,-108.290,-51.240,-129.535,385,426,391,351,395,2025-06-04T21:47:31.540493
309,-0.9111,-0.0190,0.5754,-112.035,-53.760,-137.130,413,408,407,378,412,2025-06-04T21:47:31.540493
310,-1.0180,-0.0825,0.5754,-110.880,-63.280,-140.945,401,409,404,384,412,2025-06-04T21:47:31.540493
311,-1.0599,-0.0942,0.5910,-107.730,-74.690,-138.460,383,421,404,392,360,2025-06-04T21:47:31.540493
312,-1.1087,-0.1161,0.6051,-105.315,-89.565,-133.735,343,421,401,395,385,2025-06-04T21:47:31.540493
313,-1.1229,-0.1259,0.6080,-100.765,-102.025,-127.470,415,430,411,409,394,2025-06-04T21:47:31.540493
314,-1.1190,-0.1654,0.5963,-100.030,-106.365,-122.500,426,431,407,406,417,2025-06-04T21:47:31.540493
315,-1.0882,-0.1893,0.5827,-97.405,-101.780,-119.875,433,417,405,409,397,2025-06-04T21:47:31.540493
316,-1.0346,-0.2025,0.5636,-96.740,-91.035,-116.305,355,392,402,401,393,2025-06-04T21:47:31.746554
317,-0.9999,-0.2245,0.5510,-94.150,-77.280,-111.090,336,388,357,403,405,2025-06-04T21:47:31.746554
318,-0.9589,-0.2157,0.5675,-92.120,-61.215,-103.880,391,400,389,410,399,2025-06-04T21:47:31.746554
319,-0.9428,-0.2147,0.5705,-91.700,-43.400,-97.055,398,348,385,404,397,2025-06-04T21:47:31.746554
320,-0.9008,-0.1845,0.5734,-89.530,-19.740,-89.635,421,390,387,413,400,2025-06-04T21:47:31.746554
321,-0.9067,-0.2030,0.5612,-91.035,-8.960,-82.810,365,410,367,416,411,2025-06-04T21:47:31.746554
322,-0.9506,-0.2162,0.5490,-88.970,8.505,-78.505,396,360,381,406,396,2025-06-04T21:47:31.746554
323,-0.9794,-0.2206,0.5207,-88.620,21.980,-72.835,381,381,385,402,415,2025-06-04T21:47:31.746554
324,-0.9858,-0.2259,0.5017,-86.940,32.970,-65.555,419,390,358,425,416,2025-06-04T21:47:31.746554
325,-1.0146,-0.2450,0.4787,-84.875,42.210,-57.050,402,400,386,427,415,2025-06-04T21:47:31.746554
326,-1.0370,-0.2386,0.4782,-82.145,47.005,-47.950,417,410,392,427,358,2025-06-04T21:47:31.746554
327,-1.0355,-0.2289,0.4729,-79.765,50.645,-39.935,430,405,400,404,381,2025-06-04T21:47:31.746554
328,-1.0570,-0.2440,0.4695,-77.945,53.515,-29.260,409,404,403,400,351,2025-06-04T21:47:31.746554
329,-1.0721,-0.2508,0.4695,-74.165,53.900,-18.445,403,409,389,388,354,2025-06-04T21:47:31.746554
330,-1.0809,-0.2499,0.4602,-73.080,51.345,-6.440,422,432,356,395,388,2025-06-04T21:47:31.746554
331,-1.0926,-0.2630,0.4421,-70.910,47.635,5.880,384,358,376,409,399,2025-06-04T21:47:31.746554
332,-1.0917,-0.2640,0.4275,-66.990,44.555,17.885,402,398,378,358,405,2025-06-04T21:47:31.746554
333,-1.0809,-0.2601,0.4226,-64.855,40.915,28.805,423,427,386,341,387,2025-06-04T21:47:31.797530
334,-1.0594,-0.2547,0.4168,-62.230,36.855,38.780,407,431,382,379,406,2025-06-04T21:47:31.797530
335,-1.0238,-0.2416,0.4133,-60.480,35.700,48.405,383,418,391,394,367,2025-06-04T21:47:31.797530
336,-0.9984,-0.2303,0.4133,-59.325,34.825,55.650,402,430,395,407,399,2025-06-04T21:47:31.797530
337,-0.9750,-0.2308,0.4158,-58.590,33.950,64.085,424,407,385,419,408,2025-06-04T21:47:31.797530
338,-0.9628,-0.2294,0.4119,-57.820,33.040,71.400,425,396,400,368,357,2025-06-04T21:47:32.065359
339,-0.9594,-0.2323,0.4094,-57.540,31.850,77.315,424,363,399,399,389,2025-06-04T21:47:32.065359
340,-0.9589,-0.2411,0.4104,-57.435,30.625,81.480,425,407,404,404,353,2025-06-04T21:47:32.065359
341,-0.9726,-0.2552,0.4089,-57.050,30.030,84.070,428,422,396,408,346,2025-06-04T21:47:32.065359
342,-0.9721,-0.2733,0.4089,-56.210,30.135,85.960,427,410,357,398,373,2025-06-04T21:47:32.065359
343,-0.9638,-0.2752,0.4119,-55.265,31.360,87.255,405,424,387,412,359,2025-06-04T21:47:32.065359
344,-0.9394,-0.2699,0.4333,-54.530,33.495,89.180,423,419,378,368,375,2025-06-04T21:47:32.065359
345,-0.9301,-0.2655,0.4612,-52.640,33.495,92.750,399,422,346,396,397,2025-06-04T21:47:32.065359
346,-0.9453,-0.2767,0.4929,-50.190,29.750,96.670,424,411,364,371,405,2025-06-04T21:47:32.065359
347,-0.9438,-0.2830,0.5036,-45.465,23.800,100.590,423,420,353,396,399,2025-06-04T21:47:32.065359
348,-0.9243,-0.2884,0.5134,-39.445,20.125,104.545,433,403,382,397,408,2025-06-04T21:47:32.065359
349,-0.9067,-0.2865,0.5139,-31.500,17.325,107.800,435,396,395,408,365,2025-06-04T21:47:32.065359
350,-0.8813,-0.2850,0.5061,-23.310,17.605,111.895,427,407,394,412,305,2025-06-04T21:47:32.065359
351,-0.8901,-0.2645,0.5431,-13.265,22.085,114.660,432,420,369,394,358,2025-06-04T21:47:32.265192
352,-0.9277,-0.1932,0.6398,-4.795,29.610,114.905,435,411,382,414,402,2025-06-04T21:47:32.265192
353,-0.9677,-0.1425,0.7340,-1.260,39.200,112.455,407,396,397,411,413,2025-06-04T21:47:32.265192
354,-1.0541,-0.1527,0.8233,3.605,48.440,106.820,422,402,363,407,403,2025-06-04T21:47:32.265192
355,-1.2146,-0.2811,0.8642,6.475,57.190,99.330,411,414,310,351,404,2025-06-04T21:47:32.265192
356,-1.4738,-0.4548,0.8545,14.700,52.710,88.865,402,348,355,404,419,2025-06-04T21:47:32.265192
357,-1.6338,-0.6212,0.8750,29.400,34.545,82.810,398,404,378,420,364,2025-06-04T21:47:32.265192
358,-1.5699,-0.6588,0.9589,49.280,6.825,87.045,396,409,384,356,338,2025-06-04T21:47:32.290948
359,-1.4113,-0.6012,1.0795,71.085,-21.315,99.260,378,431,397,393,393,2025-06-04T21:47:32.290948
360,-1.2620,-0.5300,1.1839,75.110,-44.975,114.100,401,404,354,404,351,2025-06-04T21:47:32.290948
361,-1.1844,-0.4914,1.2180,80.325,-57.750,125.510,424,430,351,412,355,2025-06-04T21:47:32.290948
362,-1.1873,-0.4841,1.2039,83.475,-67.690,129.640,426,419,374,421,375,2025-06-04T21:47:32.290948
363,-1.2581,-0.5114,1.1629,84.560,-75.600,128.485,427,432,396,422,401,2025-06-04T21:47:32.290948
364,-1.3054,-0.5095,1.0941,87.255,-85.785,123.795,418,439,358,417,390,2025-06-04T21:47:32.290948
365,-1.2991,-0.4919,1.0409,88.865,-97.685,118.930,425,438,381,421,406,2025-06-04T21:47:32.290948
366,-1.2615,-0.4543,1.0004,92.960,-110.390,115.430,422,372,388,363,395,2025-06-04T21:47:32.290948
367,-1.2317,-0.4153,0.9989,96.915,-120.855,113.155,427,344,399,407,413,2025-06-04T21:47:32.290948
368,-1.2044,-0.3826,0.9340,101.605,-135.170,111.685,418,370,391,402,362,2025-06-04T21:47:32.290948
369,-1.1951,-0.3806,0.9233,107.205,-148.120,111.230,436,359,396,377,392,2025-06-04T21:47:32.290948
370,-1.2244,-0.3753,0.8520,116.165,-165.375,111.755,429,413,398,408,393,2025-06-04T21:47:32.290948
371,-1.1839,-0.3728,0.7540,123.480,-183.610,113.015,400,429,392,422,416,2025-06-04T21:47:32.290948
372,-1.1390,-0.3499,0.6739,134.925,-195.230,113.400,394,424,402,361,411,2025-06-04T21:47:32.290948
373,-1.0751,-0.3001,0.6227,143.535,-200.655,112.315,426,426,371,380,399,2025-06-04T21:47:32.290948
374,-0.9941,-0.2630,0.5632,149.380,-199.500,109.305,399,408,357,388,411,2025-06-04T21:47:32.290948
375,-0.9394,-0.2420,0.4821,155.505,-192.745,104.370,404,308,389,400,425,2025-06-04T21:47:32.290948
376,-0.8633,-0.1874,0.4280,160.755,-178.115,100.135,425,329,355,418,404,2025-06-04T21:47:32.290948
377,-0.7627,-0.0132,0.3826,162.190,-159.565,95.830,310,407,378,386,398,2025-06-04T21:47:32.290948
378,-0.6710,-0.0922,0.3187,161.980,-138.250,93.205,355,394,397,400,394,2025-06-04T21:47:32.339111
379,-0.5778,-0.0439,0.2733,157.325,-111.825,91.525,418,364,362,411,384,2025-06-04T21:47:32.339111
380,-0.5524,0.0000,0.2562,155.155,-86.345,90.930,417,421,380,374,392,2025-06-04T21:47:32.339111
381,-0.4973,0.0434,0.2318,149.275,-65.030,91.210,408,436,380,351,409,2025-06-04T21:47:32.339111
382,-0.4534,0.0776,0.1757,144.095,-47.005,92.645,429,425,385,400,411,2025-06-04T21:47:32.339111
383,-0.4509,0.0849,0.1215,138.040,-31.220,93.870,424,420,398,393,398,2025-06-04T21:47:32.384033
384,-0.4387,0.1044,0.0976,133.875,-21.105,94.395,381,431,406,370,414,2025-06-04T21:47:32.384033
385,-0.3870,0.1405,0.0893,128.940,-16.800,95.935,418,382,407,387,394,2025-06-04T21:47:32.384033
386,-0.3518,0.1420,0.0600,125.545,-13.440,97.615,427,345,393,409,403,2025-06-04T21:47:32.430732
387,-0.3343,0.1288,0.0283,125.545,-12.285,98.595,350,383,393,413,403,2025-06-04T21:47:32.430732
388,-0.3289,0.1269,-0.0054,127.155,-13.230,97.650,383,420,397,403,396,2025-06-04T21:47:32.430732
389,-0.2762,0.1235,-0.0527,130.725,-14.805,95.130,397,404,407,408,392,2025-06-04T21:47:32.430732
390,-0.2157,0.1215,-0.1010,142.905,-12.845,91.000,413,422,393,394,409,2025-06-04T21:47:32.512118
391,-0.1864,0.1401,-0.1196,138.705,-9.205,84.280,409,400,358,403,405,2025-06-04T21:47:32.512118
392,-0.1493,0.1664,-0.1288,141.295,-4.830,75.250,423,398,375,409,415,2025-06-04T21:47:32.512118
393,-0.1152,0.1879,-0.1376,142.520,3.325,66.430,401,412,395,394,362,2025-06-04T21:47:32.512118
394,-0.0669,0.2113,-0.1503,141.540,15.995,54.600,399,416,402,352,354,2025-06-04T21:47:32.696678
395,-0.0395,0.2484,-0.1591,138.985,32.095,41.650,420,441,407,336,381,2025-06-04T21:47:32.696678
396,0.0054,0.2948,-0.1713,134.925,51.030,28.455,401,419,408,374,371,2025-06-04T21:47:32.696678
397,0.0151,0.3489,-0.1596,130.200,73.290,14.630,409,416,382,397,408,2025-06-04T21:47:32.696678
398,-0.0117,0.3987,-0.1571,123.550,93.765,0.875,371,405,395,412,417,2025-06-04T21:47:32.696678
399,-0.0415,0.4841,-0.1405,117.495,107.625,-12.250,416,429,390,376,415,2025-06-04T21:47:32.696678
400,-0.0815,0.6012,-0.1444,115.185,121.800,-21.385,402,432,363,377,396,2025-06-04T21:47:32.696678
401,-0.1527,0.6603,-0.1537,111.125,132.370,-31.780,402,399,370,394,410,2025-06-04T21:47:32.696678
402,-0.2791,0.7300,-0.1396,110.425,138.810,-43.960,426,308,354,404,368,2025-06-04T21:47:32.696678
403,-0.3572,0.8174,-0.1215,108.990,141.330,-56.315,410,362,391,411,382,2025-06-04T21:47:32.696678
404,-0.4148,0.8891,-0.1352,110.005,136.430,-66.010,425,414,355,389,397,2025-06-04T21:47:32.696678
405,-0.5295,1.0097,-0.1113,113.505,128.450,-72.520,400,406,380,413,391,2025-06-04T21:47:32.696678
406,-0.6037,1.2010,-0.0834,116.690,110.705,-74.900,402,379,386,419,391,2025-06-04T21:47:32.696678
407,-0.6803,1.3113,-0.0527,110.775,88.410,-75.495,417,405,400,419,402,2025-06-04T21:47:32.696678
408,-0.6837,1.4655,0.0342,109.515,64.820,-71.960,429,429,401,390,396,2025-06-04T21:47:32.696678
409,-0.6412,1.6270,0.0859,94.605,43.610,-63.455,392,378,403,409,395,2025-06-04T21:47:32.696678
410,-0.5661,1.8115,0.1410,79.590,27.335,-50.190,427,416,361,404,371,2025-06-04T21:47:32.696678
411,-0.5285,1.9662,0.1752,64.260,14.455,-33.040,399,389,371,409,399,2025-06-04T21:47:32.696678
412,-0.6110,1.9876,0.1523,47.600,5.670,-18.550,411,397,378,419,396,2025-06-04T21:47:32.743102
413,-0.7169,1.8666,0.0971,34.265,-3.815,-9.275,370,412,380,401,388,2025-06-04T21:47:32.743102
414,-0.8823,1.7353,0.0410,20.650,-15.890,-6.230,416,386,382,396,396,2025-06-04T21:47:32.743102
415,-0.9902,1.5435,-0.0161,6.720,-33.600,-3.885,401,416,396,394,413,2025-06-04T21:47:32.743102
416,-1.0155,1.3430,-0.0576,-4.410,-55.475,0.455,423,405,400,365,406,2025-06-04T21:47:32.792514
417,-0.9418,1.1790,-0.0752,-5.425,-75.495,5.985,427,410,392,345,405,2025-06-04T21:47:32.792514
418,-0.8955,1.0072,-0.0571,24.885,-86.240,13.230,428,387,394,357,408,2025-06-04T21:47:32.792514
419,-0.7989,0.9228,-0.0351,3.080,-94.990,20.020,406,351,386,340,362,2025-06-04T21:47:32.792514
420,-0.6725,0.8179,-0.0376,6.650,-104.510,29.680,424,391,357,386,405,2025-06-04T21:47:32.872361
421,-0.5353,0.7374,-0.0420,9.835,-102.830,39.935,430,409,387,340,402,2025-06-04T21:47:32.872361
422,-0.4011,0.6988,-0.0717,7.000,-92.750,50.890,390,371,402,337,390,2025-06-04T21:47:32.872361
423,-0.3587,0.6788,-0.0981,4.935,-84.770,60.165,425,401,398,335,312,2025-06-04T21:47:32.872361
424,-0.3850,0.6578,-0.1371,2.380,-74.865,64.715,429,399,391,321,388,2025-06-04T21:47:32.976547
425,-0.4236,0.6378,-0.1723,2.590,-60.340,64.925,414,424,356,369,387,2025-06-04T21:47:32.976547
426,-0.4826,0.6183,-0.1810,1.155,-49.455,60.655,394,387,375,390,409,2025-06-04T21:47:32.976547
427,-0.4997,0.6007,-0.1918,-1.820,-38.850,52.885,424,424,395,400,417,2025-06-04T21:47:32.976547
428,-0.5295,0.5856,-0.1693,-0.560,-26.950,43.785,428,402,399,420,379,2025-06-04T21:47:32.976547
429,-0.5553,0.6027,-0.1078,0.175,-20.370,34.265,433,408,375,394,389,2025-06-04T21:47:32.976547
430,-0.5534,0.5998,-0.0693,-0.875,-19.600,26.810,432,353,384,364,399,2025-06-04T21:47:32.976547
431,-0.5510,0.5807,-0.0659,-0.350,-21.490,22.925,414,415,382,388,413,2025-06-04T21:47:32.976547
432,-0.5729,0.5905,-0.0371,4.515,-25.200,19.320,422,433,385,398,398,2025-06-04T21:47:32.976547
433,-0.5988,0.5919,-0.0083,5.705,-32.480,15.855,430,411,386,392,374,2025-06-04T21:47:32.976547
434,-0.6242,0.6041,0.0288,7.560,-41.615,13.265,420,406,398,408,371,2025-06-04T21:47:32.976547
435,-0.6476,0.6217,0.0561,10.745,-49.070,11.305,421,418,392,408,403,2025-06-04T21:47:33.076600
436,-0.6637,0.6481,0.0722,13.160,-59.185,10.115,431,423,396,418,399,2025-06-04T21:47:33.076600
437,-0.6666,0.7027,0.0878,15.890,-70.770,10.430,409,433,386,409,355,2025-06-04T21:47:33.076600
438,-0.6788,0.7335,0.1030,16.905,-80.465,11.375,389,413,394,400,352,2025-06-04T21:47:33.076600
439,-0.6622,0.8477,0.1318,19.670,-87.780,12.845,425,416,401,398,379,2025-06-04T21:47:33.076600
440,-0.6681,0.9418,0.1366,18.235,-93.310,16.100,407,406,404,414,407,2025-06-04T21:47:33.076600
441,-0.6817,0.9858,0.1405,16.415,-99.680,21.945,424,424,412,363,383,2025-06-04T21:47:33.076600
442,-0.6895,1.0155,0.1640,16.520,-115.290,30.170,423,421,392,358,416,2025-06-04T21:47:33.076600
443,-0.6978,1.0594,0.2250,17.465,-115.745,40.600,370,434,387,337,358,2025-06-04T21:47:33.076600
444,-0.6837,1.0594,0.1791,18.865,-127.330,50.470,395,408,395,377,402,2025-06-04T21:47:33.280986
445,-0.6822,1.0482,0.1420,23.765,-139.895,65.065,400,427,387,407,414,2025-06-04T21:47:33.280986
446,-0.7315,1.0468,0.0996,30.940,-151.480,77.420,436,435,398,315,391,2025-06-04T21:47:33.280986
447,-0.7325,1.0385,0.0825,37.030,-160.545,85.750,406,393,401,379,352,2025-06-04T21:47:33.280986
448,-0.7281,1.0214,0.0498,40.460,-167.230,90.615,409,396,409,382,399,2025-06-04T21:47:33.280986
449,-0.6954,0.9931,0.0259,45.045,-171.115,93.100,400,306,395,405,415,2025-06-04T21:47:33.280986
450,-0.5036,0.9467,0.0244,48.195,-171.955,94.430,417,393,400,395,418,2025-06-04T21:47:33.280986
451,-0.5256,0.9023,0.0010,48.160,-168.875,95.865,409,417,405,382,373,2025-06-04T21:47:33.280986
452,-0.4382,0.8857,0.0107,48.685,-161.140,97.860,421,402,392,347,379,2025-06-04T21:47:33.280986
453,-0.3797,0.8374,-0.0049,46.550,-151.410,99.400,426,356,351,367,397,2025-06-04T21:47:33.280986
454,-0.3738,0.8047,-0.0254,41.895,-139.335,99.680,425,414,386,386,414,2025-06-04T21:47:33.280986
455,-0.3392,0.7652,-0.0644,37.485,-125.790,98.525,421,418,384,355,403,2025-06-04T21:47:33.280986
456,-0.3714,0.7300,-0.1035,34.475,-112.700,94.850,425,397,383,370,416,2025-06-04T21:47:33.280986
457,-0.3748,0.6876,-0.1166,29.610,-102.900,88.620,377,401,380,379,390,2025-06-04T21:47:33.280986
458,-0.3670,0.6769,-0.1230,24.395,-91.630,80.570,416,399,349,401,390,2025-06-04T21:47:33.280986
459,-0.3660,0.6603,-0.1318,19.180,-81.760,73.430,435,430,373,411,414,2025-06-04T21:47:33.280986
460,-0.3440,0.6388,-0.1596,13.685,-75.285,64.715,434,423,386,409,403,2025-06-04T21:47:33.280986
461,-0.3889,0.6056,-0.1962,8.540,-72.870,54.845,409,429,393,391,391,2025-06-04T21:47:33.508511
462,-0.4226,0.5675,-0.2069,6.090,-75.355,42.000,404,362,407,387,392,2025-06-04T21:47:33.508511
463,-0.4182,0.5524,-0.2030,4.585,-82.145,27.930,356,399,406,389,408,2025-06-04T21:47:33.508511
464,-0.3919,0.5397,-0.1976,2.485,-90.300,13.755,406,380,373,394,400,2025-06-04T21:47:33.508511
465,-0.3904,0.5510,-0.1503,1.050,-106.085,-2.100,406,414,352,417,388,2025-06-04T21:47:33.508511
466,-0.3684,0.5758,-0.1196,-0.595,-107.205,-19.250,376,384,384,396,368,2025-06-04T21:47:33.508511
467,-0.3504,0.5705,-0.1171,-4.690,-115.920,-33.880,356,370,398,398,359,2025-06-04T21:47:33.508511
468,-0.3772,0.5222,-0.1181,-4.165,-125.475,-54.705,383,403,397,383,375,2025-06-04T21:47:33.508511
469,-0.3538,0.4768,-0.1064,-3.675,-136.115,-74.340,407,393,388,369,383,2025-06-04T21:47:33.508511
470,-0.3045,0.4475,-0.0859,0.315,-149.170,-89.600,425,416,383,384,372,2025-06-04T21:47:33.508511
471,-0.2664,0.4900,-0.0185,8.190,-161.210,-100.415,412,406,403,404,400,2025-06-04T21:47:33.508511
472,-0.1932,0.5500,0.0117,17.150,-177.520,-105.980,426,411,393,397,394,2025-06-04T21:47:33.508511
473,-0.0947,0.6676,0.0063,28.140,-191.555,-106.680,357,425,388,405,410,2025-06-04T21:47:33.508511
474,-0.0478,0.8032,0.0405,36.225,-197.295,-107.275,397,426,368,379,390,2025-06-04T21:47:33.508511
475,-0.0059,0.9999,0.0439,43.610,-197.050,-107.275,361,431,370,378,401,2025-06-04T21:47:33.508511
476,0.0820,1.3039,0.0747,49.280,-192.430,-104.370,405,425,376,342,403,2025-06-04T21:47:33.508511
477,0.1498,1.5606,0.0468,52.395,-184.835,-94.885,394,429,381,364,373,2025-06-04T21:47:33.508511
478,0.1771,1.7451,0.0102,54.145,-173.075,-81.060,394,428,362,390,404,2025-06-04T21:47:33.508511
479,0.1459,1.8363,-0.0293,49.805,-158.130,-68.915,399,433,374,395,385,2025-06-04T21:47:33.555738
480,0.0732,1.8437,-0.0200,47.145,-142.835,-52.255,412,430,343,400,394,2025-06-04T21:47:33.555738
481,-0.0122,1.7841,0.0156,43.155,-131.915,-33.705,434,360,338,415,386,2025-06-04T21:47:33.555738
482,-0.1039,1.6392,0.0395,40.950,-126.560,-13.650,422,420,375,415,407,2025-06-04T21:47:33.555738
483,-0.2030,1.4738,0.0390,41.615,-125.720,6.615,396,411,386,365,392,2025-06-04T21:47:33.604357
484,-0.2791,1.3244,-0.0024,48.615,-124.180,25.095,414,419,386,339,347,2025-06-04T21:47:33.604357
485,-0.3196,1.2039,-0.0434,46.445,-121.485,39.550,425,409,388,393,392,2025-06-04T21:47:33.604357
486,-0.3274,1.0960,-0.0922,49.490,-114.625,49.035,403,406,387,403,408,2025-06-04T21:47:33.604357
487,-0.3328,0.9628,-0.1503,47.600,-99.925,53.480,422,427,384,408,418,2025-06-04T21:47:33.689148
488,-0.3060,0.8906,-0.1757,48.510,-83.405,56.455,434,437,396,403,393,2025-06-04T21:47:33.689148
489,-0.2245,0.8330,-0.2040,47.355,-64.855,58.485,427,351,391,342,399,2025-06-04T21:47:33.689148
490,-0.1571,0.7740,-0.2118,42.770,-43.225,60.200,412,345,389,389,404,2025-06-04T21:47:33.689148
491,-0.1420,0.7115,-0.2298,40.740,-22.260,59.815,399,410,408,352,371,2025-06-04T21:47:33.689148
492,-0.1425,0.6695,-0.2230,36.715,-2.590,56.385,409,430,358,336,385,2025-06-04T21:47:33.689148
493,-0.1244,0.6442,-0.1996,29.575,10.780,51.625,416,382,369,387,392,2025-06-04T21:47:33.689148
494,-0.1566,0.5983,-0.1859,23.415,24.780,46.620,351,386,391,398,408,2025-06-04T21:47:33.791071
495,-0.1937,0.5685,-0.1703,17.430,32.550,39.620,411,396,387,404,370,2025-06-04T21:47:33.791071
496,-0.2420,0.5334,-0.1752,11.900,31.640,32.095,405,426,367,403,401,2025-06-04T21:47:33.791071
497,-0.2982,0.4846,-0.1952,9.625,24.920,23.730,422,430,392,402,418,2025-06-04T21:47:33.791071
498,-0.3235,0.4807,-0.1962,10.850,14.525,13.930,415,402,357,413,415,2025-06-04T21:47:33.791071
499,-0.3518,0.4753,-0.2035,10.955,1.400,3.045,410,353,384,400,418,2025-06-04T21:47:33.791071
500,-0.3675,0.4665,-0.2020,12.915,-9.625,-9.100,423,389,397,396,324,2025-06-04T21:47:33.791071
501,-0.3802,0.4909,-0.1830,16.835,-24.220,-19.180,420,423,398,410,389,2025-06-04T21:47:33.966578
502,-0.3802,0.5002,-0.1820,20.895,-39.550,-31.605,404,416,369,422,391,2025-06-04T21:47:33.966578
503,-0.3514,0.5168,-0.2157,28.315,-54.705,-42.875,422,408,376,374,386,2025-06-04T21:47:33.967575
504,-0.3035,0.5861,-0.2445,37.695,-64.645,-52.710,422,415,385,383,386,2025-06-04T21:47:33.967575
505,-0.2874,0.6227,-0.3148,45.255,-71.190,-61.425,436,416,389,382,387,2025-06-04T21:47:33.967575
506,-0.3221,0.7188,-0.3143,58.485,-77.070,-69.160,422,355,390,407,401,2025-06-04T21:47:33.967575
507,-0.2601,0.8769,-0.3226,70.735,-82.320,-73.080,396,408,358,355,387,2025-06-04T21:47:33.967575
508,-0.1986,0.9999,-0.3670,81.480,-84.105,-73.185,414,411,377,395,403,2025-06-04T21:47:33.967575
509,-0.1415,1.1541,-0.3475,91.280,-81.270,-68.565,401,425,387,413,414,2025-06-04T21:47:33.967575
510,-0.0634,1.3430,-0.3070,94.745,-76.265,-58.625,396,437,391,418,415,2025-06-04T21:47:33.967575
511,0.0776,1.5260,-0.2557,91.175,-66.150,-42.595,342,420,400,400,363,2025-06-04T21:47:34.141403
512,0.2220,1.6948,-0.2176,80.605,-48.405,-21.770,415,427,397,387,373,2025-06-04T21:47:34.141403
513,0.3333,1.8232,-0.1444,68.845,-22.225,1.470,399,413,400,392,405,2025-06-04T21:47:34.141403
514,0.3289,1.8808,-0.0547,45.465,8.190,22.295,420,422,381,400,374,2025-06-04T21:47:34.141403
515,0.2381,1.8158,-0.0146,16.380,32.550,37.975,420,414,400,361,381,2025-06-04T21:47:34.141403
516,0.1259,1.6529,-0.0278,-6.475,58.695,46.865,345,417,356,399,398,2025-06-04T21:47:34.141403
517,-0.0195,1.4933,-0.1069,-23.835,75.495,50.540,391,423,380,413,350,2025-06-04T21:47:34.141403
518,-0.1728,1.3005,-0.1908,-36.610,80.815,51.730,413,406,398,374,378,2025-06-04T21:47:34.141403
519,-0.3109,1.1263,-0.2377,-39.270,76.720,49.000,421,421,401,388,349,2025-06-04T21:47:34.141403
520,-0.3675,1.0053,-0.2572,-39.795,67.095,43.750,409,416,363,377,296,2025-06-04T21:47:34.141403
521,-0.3762,0.9140,-0.2176,-38.955,53.620,38.325,403,400,387,395,361,2025-06-04T21:47:34.141403
522,-0.3294,0.8423,-0.1640,-38.640,41.405,34.685,417,423,383,395,374,2025-06-04T21:47:34.141403
523,-0.2894,0.7832,-0.1098,-38.115,26.810,32.865,353,430,355,414,407,2025-06-04T21:47:34.141403
524,-0.2645,0.7291,-0.1127,-40.075,14.140,30.520,404,425,379,392,357,2025-06-04T21:47:34.141403
525,-0.2572,0.6671,-0.1235,-42.000,4.620,25.935,422,413,393,390,393,2025-06-04T21:47:34.141403
526,-0.2499,0.6388,-0.1274,-41.930,-1.505,19.145,408,353,387,398,408,2025-06-04T21:47:34.141403
527,-0.2416,0.6188,-0.1513,-41.580,-6.545,12.250,345,396,387,393,403,2025-06-04T21:47:34.141403
528,-0.2752,0.5968,-0.1464,-40.285,-10.570,4.795,408,430,403,400,401,2025-06-04T21:47:34.141403
529,-0.2660,0.5876,-0.1566,-36.785,-16.940,-0.525,420,430,410,362,394,2025-06-04T21:47:34.141403
530,-0.2391,0.5778,-0.1576,-32.130,-22.050,-5.985,432,412,396,379,389,2025-06-04T21:47:34.141403
531,-0.1962,0.6178,-0.1371,-27.055,-24.745,-9.975,431,431,388,359,402,2025-06-04T21:47:34.317858
532,-0.1498,0.6588,-0.1298,-25.480,-22.365,-13.475,359,419,381,329,409,2025-06-04T21:47:34.317858
533,-0.1269,0.7125,-0.1191,-22.575,-15.295,-16.625,409,354,388,394,380,2025-06-04T21:47:34.317858
534,-0.1386,0.8130,-0.1098,-20.685,-7.455,-20.020,402,374,390,402,409,2025-06-04T21:47:34.317858
535,-0.1586,0.8999,-0.1225,-19.845,-1.435,-24.185,396,374,365,417,405,2025-06-04T21:47:34.317858
536,-0.1918,0.9672,-0.1484,-16.765,5.250,-28.210,424,401,345,396,365,2025-06-04T21:47:34.317858
537,-0.2606,0.9921,-0.1635,-15.155,11.060,-34.860,429,414,337,410,388,2025-06-04T21:47:34.317858
538,-0.2899,1.0116,-0.1718,-13.545,14.315,-41.265,391,341,372,415,388,2025-06-04T21:47:34.317858
539,-0.2884,1.0253,-0.1659,-11.375,15.015,-44.380,396,405,387,415,399,2025-06-04T21:47:34.317858
540,-0.2699,1.0433,-0.1649,-9.625,13.790,-42.875,418,350,388,416,414,2025-06-04T21:47:34.317858
541,-0.2733,1.0458,-0.1532,-8.120,11.375,-38.045,397,395,399,416,413,2025-06-04T21:47:34.317858
542,-0.2752,1.0599,-0.1601,-6.370,7.840,-32.865,421,389,400,381,413,2025-06-04T21:47:34.317858
543,-0.2874,1.0751,-0.1874,-5.600,5.530,-26.285,404,376,396,362,357,2025-06-04T21:47:34.317858
544,-0.3323,1.0643,-0.2147,-5.600,5.110,-21.560,396,348,353,377,392,2025-06-04T21:47:34.317858
545,-0.3738,1.0433,-0.2513,-5.705,5.985,-19.180,365,383,377,410,371,2025-06-04T21:47:34.317858
546,-0.3909,1.0160,-0.2757,-6.510,8.120,-17.815,334,427,347,413,403,2025-06-04T21:47:34.363012
547,-0.3792,0.9902,-0.2684,-6.930,10.360,-15.470,378,431,365,392,355,2025-06-04T21:47:34.363012
548,-0.3660,0.9638,-0.2386,-8.190,13.545,-12.915,415,431,387,387,372,2025-06-04T21:47:34.363012
549,-0.3357,0.9482,-0.2059,-9.450,15.995,-8.260,428,380,392,355,383,2025-06-04T21:47:34.363012
550,-0.2996,0.9326,-0.1776,-10.115,17.850,-1.995,406,403,394,337,383,2025-06-04T21:47:34.415346
551,-0.2899,0.9179,-0.1552,-11.515,19.215,4.480,343,417,400,329,382,2025-06-04T21:47:34.415346
552,-0.2962,0.8974,-0.1688,-13.195,20.230,9.415,397,405,389,376,407,2025-06-04T21:47:34.415346
553,-0.3030,0.8745,-0.1752,-13.370,20.825,12.705,401,408,365,379,403,2025-06-04T21:47:34.415346
554,-0.2977,0.8574,-0.1806,-13.195,21.700,15.085,389,412,376,348,403,2025-06-04T21:47:34.511313
555,-0.2991,0.8452,-0.1737,-12.390,22.050,16.450,415,393,378,404,410,2025-06-04T21:47:34.511313
556,-0.3133,0.8355,-0.1591,-11.480,21.490,16.520,437,392,388,355,414,2025-06-04T21:47:34.511313
557,-0.3162,0.8237,-0.1401,-10.430,20.230,15.750,427,417,378,380,412,2025-06-04T21:47:34.511313
558,-0.3211,0.8213,-0.1225,-8.575,16.905,14.875,430,439,376,383,408,2025-06-04T21:47:34.511313
559,-0.3235,0.8179,-0.1132,-6.685,11.865,14.525,380,413,377,386,363,2025-06-04T21:47:34.511313
560,-0.3421,0.8179,-0.1249,-4.025,7.280,14.210,391,408,383,388,394,2025-06-04T21:47:34.511313
561,-0.3562,0.8189,-0.1498,-0.070,1.575,13.335,425,405,395,414,414,2025-06-04T21:47:34.511313
562,-0.3689,0.8208,-0.1640,3.920,-3.430,11.900,424,431,402,364,404,2025-06-04T21:47:34.719500
563,-0.3743,0.8350,-0.1474,7.525,-7.630,9.940,413,401,407,400,404,2025-06-04T21:47:34.719500
564,-0.3636,0.8545,-0.1283,10.430,-10.780,8.050,430,427,399,405,400,2025-06-04T21:47:34.719500
565,-0.3518,0.8662,-0.1230,11.445,-13.195,7.105,427,427,387,409,354,2025-06-04T21:47:34.719500
566,-0.3514,0.8638,-0.1161,12.565,-14.280,6.230,408,396,356,397,395,2025-06-04T21:47:34.719500
567,-0.3440,0.8779,-0.1152,13.790,-14.980,5.810,421,417,342,395,395,2025-06-04T21:47:34.719500
568,-0.3353,0.8813,-0.1322,13.405,-15.085,6.090,418,354,380,367,386,2025-06-04T21:47:34.719500
569,-0.3196,0.8813,-0.1415,14.000,-14.910,6.965,367,409,377,389,409,2025-06-04T21:47:34.719500
570,-0.3079,0.8999,-0.1420,14.035,-14.070,8.400,399,393,378,399,405,2025-06-04T21:47:34.719500
571,-0.2987,0.9096,-0.1420,13.230,-13.755,10.605,420,400,353,387,402,2025-06-04T21:47:34.719500
572,-0.2879,0.9057,-0.1444,11.795,-13.370,13.020,400,381,378,404,413,2025-06-04T21:47:34.719500
573,-0.2547,0.9170,-0.1435,11.130,-12.145,15.330,344,402,361,387,360,2025-06-04T21:47:34.719500
574,-0.2191,0.9272,-0.1435,9.135,-8.960,18.410,387,413,385,391,339,2025-06-04T21:47:34.719500
575,-0.2011,0.9292,-0.1620,6.300,-4.340,20.510,411,428,384,389,373,2025-06-04T21:47:34.719500
576,-0.2015,0.9184,-0.1908,3.885,1.400,21.070,406,433,392,361,384,2025-06-04T21:47:34.719500
577,-0.1952,0.9111,-0.2196,2.240,7.455,20.475,380,375,392,377,388,2025-06-04T21:47:34.719500
578,-0.1942,0.9008,-0.2420,0.210,12.285,18.620,391,402,350,361,405,2025-06-04T21:47:34.719500
579,-0.1747,0.9282,-0.2582,-1.015,19.285,16.555,397,391,366,343,395,2025-06-04T21:47:34.719500
580,-0.1537,0.9526,-0.2699,-3.115,28.245,12.495,407,421,382,398,414,2025-06-04T21:47:34.766029
581,-0.1937,0.9570,-0.2816,-6.405,38.780,4.585,413,414,370,403,420,2025-06-04T21:47:34.766029
582,-0.2484,0.9213,-0.2791,-10.990,48.370,-6.720,400,427,385,392,384,2025-06-04T21:47:34.766029
583,-0.2586,0.8672,-0.2547,-15.225,54.075,-18.235,407,409,392,350,404,2025-06-04T21:47:34.766029
584,-0.2069,0.8208,-0.1947,-19.390,55.335,-24.465,409,351,394,378,395,2025-06-04T21:47:34.844741
585,-0.1503,0.7935,-0.1240,-23.310,51.625,-24.745,401,414,408,304,396,2025-06-04T21:47:34.844741
586,-0.1113,0.7735,-0.0766,-25.025,44.520,-21.595,408,375,395,377,393,2025-06-04T21:47:34.844741
587,-0.1337,0.7398,-0.0752,-26.950,35.385,-16.485,433,389,358,404,354,2025-06-04T21:47:34.844741
588,-0.1757,0.7081,-0.0229,-27.020,24.535,-12.845,423,342,370,420,381,2025-06-04T21:47:34.946623
589,-0.2338,0.6959,-0.0039,-24.780,10.255,-9.765,431,415,381,414,359,2025-06-04T21:47:34.946623
590,-0.2372,0.7169,0.0215,-22.715,-5.460,-5.670,403,421,374,409,392,2025-06-04T21:47:34.946623
591,-0.2128,0.7745,0.0224,-17.045,-16.940,-0.735,403,434,391,393,390,2025-06-04T21:47:34.946623
592,-0.1850,0.8433,0.0288,-13.965,-26.670,3.920,418,436,401,401,397,2025-06-04T21:47:34.946623
593,-0.1688,0.9189,0.0410,-10.955,-29.365,7.280,347,399,409,399,396,2025-06-04T21:47:34.946623
594,-0.1806,0.9994,0.0488,-9.415,-25.305,7.350,393,398,413,409,412,2025-06-04T21:47:34.946623
595,-0.1928,1.0814,0.0386,-8.820,-16.660,5.180,425,425,397,420,396,2025-06-04T21:47:34.946623
596,-0.2289,1.1312,0.0200,-8.750,-6.545,1.750,423,353,399,402,396,2025-06-04T21:47:34.946623
597,-0.2523,1.1629,0.0244,-8.085,0.175,-1.610,396,414,403,404,413,2025-06-04T21:47:34.946623
598,-0.2420,1.2024,0.0268,-7.630,6.370,-2.800,393,412,388,366,358,2025-06-04T21:47:34.946623
599,-0.2318,1.2517,0.0498,-7.665,11.655,-2.835,423,416,361,382,385,2025-06-04T21:47:35.124232
600,-0.2401,1.2956,0.0727,-8.190,15.645,-2.975,427,417,371,389,410,2025-06-04T21:47:35.124232
601,-0.2625,1.3074,0.0761,-9.415,17.535,-4.480,410,389,387,408,376,2025-06-04T21:47:35.124232
602,-0.2923,1.2830,0.0698,-10.675,16.730,-6.860,427,407,395,402,383,2025-06-04T21:47:35.124232
603,-0.3309,1.2239,0.0522,-10.395,11.270,-8.680,421,407,389,397,398,2025-06-04T21:47:35.124232
604,-0.3401,1.1527,0.0185,-8.540,0.840,-9.380,406,410,389,394,410,2025-06-04T21:47:35.124232
605,-0.3148,1.0585,-0.0049,-4.165,-13.020,-7.175,406,402,387,416,399,2025-06-04T21:47:35.124232
606,-0.2664,0.9711,-0.0234,0.385,-27.020,-2.345,416,403,392,361,406,2025-06-04T21:47:35.124232
607,-0.2069,0.8921,-0.0278,4.725,-36.015,3.290,367,403,391,380,380,2025-06-04T21:47:35.124232
608,-0.1635,0.8340,-0.0244,8.610,-43.190,7.630,393,411,406,395,409,2025-06-04T21:47:35.124232
609,-0.1240,0.7920,-0.0278,10.045,-44.835,12.215,418,410,402,400,408,2025-06-04T21:47:35.124232
610,-0.0981,0.7471,-0.0493,11.235,-43.435,15.645,417,424,392,398,413,2025-06-04T21:47:35.124232
611,-0.0947,0.7154,-0.0878,11.375,-38.430,17.465,397,401,381,404,406,2025-06-04T21:47:35.124232
612,-0.1161,0.6798,-0.1313,11.515,-32.410,16.590,411,402,386,412,417,2025-06-04T21:47:35.124232
613,-0.1420,0.6739,-0.1488,12.495,-23.870,13.160,431,421,380,417,416,2025-06-04T21:47:35.124647
614,-0.1635,0.6812,-0.1571,13.125,-15.540,8.995,363,421,384,359,397,2025-06-04T21:47:35.329162
615,-0.1698,0.6852,-0.1630,13.930,-7.665,4.620,415,433,397,390,395,2025-06-04T21:47:35.329162
616,-0.1830,0.6915,-0.1571,14.910,-0.525,1.155,348,391,386,401,384,2025-06-04T21:47:35.329162
617,-0.1942,0.7110,-0.1396,15.925,4.900,-2.590,418,420,356,407,387,2025-06-04T21:47:35.329162
618,-0.2001,0.7505,-0.1015,16.520,7.490,-5.390,404,411,342,426,413,2025-06-04T21:47:35.329162
619,-0.1981,0.7993,-0.0854,17.115,7.455,-6.475,388,434,373,409,394,2025-06-04T21:47:35.329162
620,-0.2015,0.8701,-0.0893,17.710,6.510,-6.615,434,431,348,365,350,2025-06-04T21:47:35.329162
621,-0.1869,0.9784,-0.0947,18.340,5.460,-6.405,439,435,380,351,390,2025-06-04T21:47:35.329162
622,-0.1444,1.1126,-0.0839,18.375,7.175,-5.880,415,431,379,383,381,2025-06-04T21:47:35.329162
623,-0.1708,1.2249,-0.0776,13.720,11.515,-6.615,421,403,380,392,405,2025-06-04T21:47:35.329162
624,-0.2416,1.2273,-0.0708,8.645,13.650,-9.590,429,414,391,402,397,2025-06-04T21:47:35.329162
625,-0.2596,1.2244,-0.0400,4.830,12.320,-11.970,425,419,352,373,392,2025-06-04T21:47:35.329162
626,-0.2245,1.2322,0.0044,0.105,7.525,-9.065,425,346,381,389,382,2025-06-04T21:47:35.329162
627,-0.1752,1.2205,0.0337,-4.865,1.015,-3.920,399,405,392,404,370,2025-06-04T21:47:35.329162
628,-0.1420,1.1883,0.0488,-9.555,-5.425,4.410,400,412,401,402,384,2025-06-04T21:47:35.329162
629,-0.1454,1.1361,0.0547,-13.405,-9.765,12.180,308,432,371,412,397,2025-06-04T21:47:35.329162
630,-0.1742,1.0736,0.0327,-17.220,-12.565,17.220,391,421,377,403,398,2025-06-04T21:47:35.329162
631,-0.2015,1.0063,-0.0005,-20.265,-14.980,19.355,410,406,391,415,405,2025-06-04T21:47:35.536921
632,-0.2318,0.9418,-0.0351,-20.860,-16.800,19.810,400,428,352,400,413,2025-06-04T21:47:35.536921
633,-0.2381,0.8984,-0.0610,-19.355,-18.550,19.740,408,422,376,361,408,2025-06-04T21:47:35.536921
634,-0.2411,0.8569,-0.0712,-17.535,-19.600,19.110,377,420,345,377,404,2025-06-04T21:47:35.536921
635,-0.2499,0.8252,-0.0698,-15.610,-19.180,17.500,352,384,330,399,410,2025-06-04T21:47:35.536921
636,-0.2542,0.8018,-0.0756,-13.720,-17.920,15.225,405,401,360,353,413,2025-06-04T21:47:35.536921
637,-0.2567,0.7837,-0.0654,-11.515,-16.450,12.390,430,428,345,389,414,2025-06-04T21:47:35.536921
638,-0.2596,0.7764,-0.0722,-8.400,-14.630,10.010,369,395,365,380,402,2025-06-04T21:47:35.536921
639,-0.2664,0.7686,-0.0859,-5.635,-12.915,7.105,418,416,341,385,393,2025-06-04T21:47:35.536921
640,-0.2723,0.7618,-0.0952,-2.345,-11.200,3.675,426,410,376,387,406,2025-06-04T21:47:35.537926
641,-0.2723,0.7652,-0.0952,0.385,-9.520,0.140,402,402,378,357,395,2025-06-04T21:47:35.537926
642,-0.2508,0.7779,-0.0903,3.255,-8.085,-3.080,397,430,315,378,412,2025-06-04T21:47:35.537926
643,-0.2372,0.8018,-0.0756,5.670,-5.950,-4.830,426,409,370,403,394,2025-06-04T21:47:35.537926
644,-0.2220,0.8189,-0.0678,7.315,-4.025,-6.545,418,418,378,408,409,2025-06-04T21:47:35.537926
645,-0.2172,0.8413,-0.0595,8.575,-2.135,-7.560,401,405,392,355,408,2025-06-04T21:47:35.537926
646,-0.2167,0.8730,-0.0449,9.205,-1.365,-8.540,407,407,391,335,400,2025-06-04T21:47:35.537926
647,-0.2162,0.9013,-0.0342,9.415,-1.470,-8.855,350,427,391,387,389,2025-06-04T21:47:35.537926
648,-0.2113,0.9409,-0.0264,9.415,-2.520,-8.715,416,435,401,400,362,2025-06-04T21:47:35.786092
649,-0.2103,0.9653,-0.0283,8.890,-4.130,-8.085,430,440,372,396,405,2025-06-04T21:47:35.786092
650,-0.1996,0.9916,-0.0249,8.155,-5.635,-7.280,403,406,394,414,404,2025-06-04T21:47:35.786092
651,-0.2030,1.0121,-0.0254,7.210,-6.475,-6.860,387,424,364,357,409,2025-06-04T21:47:35.952822
652,-0.2094,1.0228,-0.0273,5.635,-6.685,-6.965,386,363,370,408,426,2025-06-04T21:47:35.952822
653,-0.2098,1.0370,-0.0259,4.585,-7.700,-6.720,417,402,395,398,404,2025-06-04T21:47:35.952822
654,-0.2011,1.0409,-0.0234,2.870,-8.890,-5.740,359,387,398,394,377,2025-06-04T21:47:35.952822
655,-0.1967,1.0380,-0.0215,1.715,-10.290,-4.235,407,393,384,418,352,2025-06-04T21:47:35.952822
656,-0.1869,1.0292,-0.0185,0.490,-11.690,-2.380,426,406,404,417,395,2025-06-04T21:47:35.952822
657,-0.1928,1.0092,-0.0229,-1.400,-12.845,-0.350,421,422,409,417,393,2025-06-04T21:47:35.952822
658,-0.2025,0.9853,-0.0317,-1.925,-14.770,1.120,422,385,397,425,409,2025-06-04T21:47:35.952822
659,-0.2025,0.9721,-0.0415,-2.450,-16.905,2.905,396,407,398,418,410,2025-06-04T21:47:35.952822
660,-0.2035,0.9545,-0.0498,-2.310,-18.585,4.410,405,410,409,397,392,2025-06-04T21:47:35.952822
661,-0.1986,0.9414,-0.0590,-1.890,-19.215,5.495,349,426,415,382,361,2025-06-04T21:47:35.952822
662,-0.1967,0.9218,-0.0625,-1.645,-19.005,5.985,394,442,412,363,398,2025-06-04T21:47:35.952822
663,-0.1942,0.9082,-0.0556,-1.295,-18.095,6.020,422,433,408,393,409,2025-06-04T21:47:35.952822
664,-0.1952,0.9004,-0.0527,-1.610,-16.940,5.565,406,366,407,405,413,2025-06-04T21:47:35.952822
665,-0.2069,0.8813,-0.0503,-1.575,-16.590,4.690,344,345,391,397,406,2025-06-04T21:47:35.952822
666,-0.2240,0.8618,-0.0473,-1.610,-17.570,2.730,415,393,390,417,389,2025-06-04T21:47:35.952822
667,-0.2328,0.8491,-0.0483,-1.645,-19.040,0.035,426,393,382,360,372,2025-06-04T21:47:35.952822
668,-0.2396,0.8428,-0.0527,-1.435,-21.525,-2.310,367,411,401,390,350,2025-06-04T21:47:35.952822
669,-0.2396,0.8428,-0.0478,-0.770,-23.660,-5.880,394,428,396,365,382,2025-06-04T21:47:35.952822
670,-0.2425,0.8355,-0.0439,-0.490,-25.760,-9.485,350,417,389,396,362,2025-06-04T21:47:35.952822
671,-0.2484,0.8330,-0.0459,8.785,-27.860,-13.055,415,425,405,341,385,2025-06-04T21:47:35.952822
672,-0.2499,0.8457,-0.0181,0.595,-29.015,-16.625,422,411,402,398,355,2025-06-04T21:47:35.952822
673,-0.2645,0.8452,-0.0054,-0.245,-30.625,-20.720,393,420,402,395,378,2025-06-04T21:47:35.952822
674,-0.2938,0.8325,0.0264,-0.350,-35.105,-23.310,383,425,401,407,404,2025-06-04T21:47:35.952822
675,-0.3353,0.8145,0.0117,-1.645,-42.455,-26.740,395,422,395,418,421,2025-06-04T21:47:35.952822
676,-0.3421,0.7779,0.0000,-1.470,-53.620,-28.210,416,411,384,406,423,2025-06-04T21:47:35.952822
677,-0.3470,0.7920,0.0512,2.835,-62.335,-27.475,411,400,389,420,422,2025-06-04T21:47:35.952822
678,-0.4333,0.8369,0.1518,1.575,-70.315,-30.765,431,425,394,399,415,2025-06-04T21:47:35.952822
679,-0.4699,0.8799,0.1430,-1.610,-77.630,-37.765,425,418,391,413,361,2025-06-04T21:47:35.952822
680,-0.4265,0.8969,0.0034,-1.120,-84.035,-40.215,427,418,401,397,375,2025-06-04T21:47:35.952822
681,-0.3475,0.8852,-0.0961,6.685,-88.130,-33.215,436,430,391,389,381,2025-06-04T21:47:35.952822
682,-0.3372,0.8891,-0.1654,16.205,-90.265,-22.330,431,435,390,402,360,2025-06-04T21:47:36.149958
683,-0.3689,0.9296,-0.1444,22.505,-79.695,-14.560,416,416,384,410,408,2025-06-04T21:47:36.149958
684,-0.3445,0.9823,-0.1581,22.225,-62.615,-12.320,437,428,386,317,388,2025-06-04T21:47:36.149958
685,-0.2874,1.0541,-0.2133,19.915,-27.755,-10.885,411,425,385,371,407,2025-06-04T21:47:36.149958
686,-0.2020,1.0848,-0.2455,14.035,14.385,-5.355,425,417,384,352,374,2025-06-04T21:47:36.149958
687,-0.2206,1.0941,-0.2406,10.815,50.120,5.390,400,356,379,378,386,2025-06-04T21:47:36.149958
688,-0.3143,1.0951,-0.2689,10.955,66.500,19.810,362,397,394,393,401,2025-06-04T21:47:36.149958
689,-0.4494,1.1000,-0.2430,12.600,60.445,35.980,416,425,401,392,398,2025-06-04T21:47:36.149958
690,-0.5129,1.1244,-0.1640,16.135,41.615,50.120,418,431,404,412,397,2025-06-04T21:47:36.149958
691,-0.4846,1.1536,-0.0703,16.485,12.880,58.800,428,429,403,415,384,2025-06-04T21:47:36.149958
692,-0.4026,1.1610,-0.0049,11.025,-12.845,66.185,359,411,398,427,404,2025-06-04T21:47:36.149958
693,-0.2904,1.1414,0.0083,4.795,-33.985,70.385,402,409,383,396,408,2025-06-04T21:47:36.149958
694,-0.1664,1.1102,-0.0039,-1.085,-48.370,72.380,405,426,388,397,400,2025-06-04T21:47:36.149958
695,-0.0937,1.0736,-0.0200,-7.875,-54.915,71.225,416,361,382,400,392,2025-06-04T21:47:36.149958
696,-0.0473,1.0287,-0.0522,-12.145,-58.695,68.355,370,423,389,396,355,2025-06-04T21:47:36.149958
697,-0.0088,1.0028,-0.0303,-14.875,-58.275,63.070,418,425,400,394,399,2025-06-04T21:47:36.149958
698,0.0293,0.9804,-0.0264,-15.610,-57.575,57.470,426,431,396,348,408,2025-06-04T21:47:36.149958
699,0.0273,0.9638,-0.0024,-15.890,-54.075,51.065,358,446,387,373,391,2025-06-04T21:47:36.211435
700,0.0473,0.9321,0.0059,-17.430,-46.305,42.875,392,416,389,381,409,2025-06-04T21:47:36.211435
701,0.0561,0.9028,-0.0029,-18.865,-28.910,34.440,411,403,395,348,391,2025-06-04T21:47:36.211435
702,0.0517,0.8725,-0.0024,-18.550,-26.250,26.425,390,401,399,369,392,2025-06-04T21:47:36.211435
703,0.0332,0.8540,0.0088,-18.795,-14.525,20.510,419,431,397,404,356,2025-06-04T21:47:36.211435
704,0.0146,0.8398,0.0117,-18.130,-5.320,13.930,308,384,355,413,389,2025-06-04T21:47:36.299777
705,-0.0390,0.8296,0.0195,-17.150,1.645,8.120,386,399,368,426,409,2025-06-04T21:47:36.299777
706,-0.0908,0.8125,0.0268,-16.415,4.970,2.310,401,351,378,364,408,2025-06-04T21:47:36.299777
707,-0.1074,0.8072,0.0293,-15.295,4.235,-2.240,398,402,342,358,401,2025-06-04T21:47:36.299777
708,-0.1420,0.7998,0.0132,-12.670,2.275,-5.425,409,346,380,339,414,2025-06-04T21:47:36.299777
709,-0.1923,0.8052,0.0156,-9.450,-0.490,-8.820,395,400,386,358,419,2025-06-04T21:47:36.299777
710,-0.1947,0.8135,0.0020,-6.650,-4.830,-11.760,406,349,382,401,406,2025-06-04T21:47:36.299777
711,-0.2103,0.8223,-0.0078,-3.850,-8.715,-14.735,417,420,403,404,414,2025-06-04T21:47:36.562049
712,-0.2079,0.8599,-0.0049,-0.665,-11.655,-16.905,354,401,390,406,371,2025-06-04T21:47:36.562049
713,-0.1928,0.8677,0.0039,0.455,-14.350,-18.060,334,423,383,389,394,2025-06-04T21:47:36.562049
714,-0.1806,0.8769,0.0000,0.805,-16.100,-17.955,351,416,396,418,410,2025-06-04T21:47:36.562049
715,-0.1615,0.8930,-0.0054,1.155,-17.010,-16.765,420,392,391,422,412,2025-06-04T21:47:36.562049
716,-0.1571,0.9033,-0.0181,1.400,-18.130,-15.190,411,416,324,401,408,2025-06-04T21:47:36.562049
717,-0.1640,0.9248,-0.0215,1.820,-17.710,-14.455,428,432,328,417,397,2025-06-04T21:47:36.562049
718,-0.1625,0.9438,-0.0327,1.540,-15.925,-14.385,394,414,374,403,391,2025-06-04T21:47:36.562049
719,-0.1171,0.9531,-0.0508,2.485,-12.740,-13.055,399,409,380,376,408,2025-06-04T21:47:36.562049
720,-0.1205,0.9692,-0.0395,2.485,-7.770,-11.515,365,424,382,382,362,2025-06-04T21:47:36.562049
721,-0.1235,0.9931,0.0049,2.100,-2.100,-10.640,412,382,384,300,395,2025-06-04T21:47:36.562049
722,-0.1327,1.0004,0.0224,-1.050,0.805,-9.520,405,419,390,373,393,2025-06-04T21:47:36.562049
723,-0.1362,0.9960,0.0190,-3.885,3.745,-7.700,406,423,393,392,411,2025-06-04T21:47:36.562049
724,-0.1503,0.9936,0.0220,-3.780,4.235,-5.180,412,412,362,410,418,2025-06-04T21:47:36.562049
725,-0.1649,0.9867,0.0205,-3.745,2.555,-2.520,406,351,383,411,388,2025-06-04T21:47:36.562049
726,-0.1942,0.9775,0.0034,-4.795,-0.105,-0.490,380,417,391,417,406,2025-06-04T21:47:36.562049
727,-0.1928,0.9814,0.0122,-2.345,-3.115,0.420,412,429,397,410,416,2025-06-04T21:47:36.562049
728,-0.1976,0.9760,0.0093,-2.450,-5.285,1.365,418,421,404,371,416,2025-06-04T21:47:36.562049
729,-0.1918,0.9692,0.0229,-2.100,-7.385,1.785,408,353,383,388,325,2025-06-04T21:47:36.562049
730,-0.1703,0.9648,0.0200,-1.890,-8.925,2.835,341,384,397,403,381,2025-06-04T21:47:36.562049
731,-0.1586,0.9565,0.0312,-2.100,-8.400,3.990,401,406,362,413,396,2025-06-04T21:47:36.608320
732,-0.1620,0.9560,0.0298,-1.785,-7.875,4.235,398,408,383,416,412,2025-06-04T21:47:36.608320
733,-0.1596,0.9496,0.0420,-2.695,-6.405,3.780,390,427,393,355,412,2025-06-04T21:47:36.608320
734,-0.1718,0.9433,0.0317,-3.745,-5.075,2.660,417,412,396,400,423,2025-06-04T21:47:36.608320
735,-0.1728,0.9287,0.0342,-4.200,-4.830,1.715,397,414,391,405,402,2025-06-04T21:47:36.608320
736,-0.1728,0.9233,0.0288,-4.515,-6.020,2.030,412,415,392,391,393,2025-06-04T21:47:36.608320
737,-0.1771,0.9150,0.0273,-3.745,-7.000,1.995,427,350,398,397,408,2025-06-04T21:47:36.658231
738,-0.1840,0.9087,0.0244,-2.905,-8.750,1.925,402,370,356,406,415,2025-06-04T21:47:36.658231
739,-0.1869,0.9072,0.0215,-1.925,-9.765,1.330,420,418,333,406,398,2025-06-04T21:47:36.658231
740,-0.1923,0.9028,0.0400,-0.420,-10.430,-0.350,374,412,332,400,410,2025-06-04T21:47:36.658231
741,-0.1688,0.8999,0.0410,0.105,-10.290,-2.170,392,359,365,404,355,2025-06-04T21:47:36.760709
742,-0.1596,0.9033,0.0332,0.280,-8.540,-3.920,401,408,388,419,394,2025-06-04T21:47:36.760709
743,-0.1630,0.8999,0.0371,1.505,-6.195,-5.740,349,422,399,416,413,2025-06-04T21:47:36.760709
744,-0.1688,0.9018,0.0415,1.855,-4.375,-7.280,387,405,355,421,399,2025-06-04T21:47:36.760709
745,-0.1723,0.8935,0.0381,2.415,-3.850,-8.855,414,405,373,399,395,2025-06-04T21:47:36.760709
746,-0.1820,0.8955,0.0400,3.465,-3.990,-9.940,414,417,346,397,393,2025-06-04T21:47:36.760709
747,-0.1908,0.9048,0.0400,4.795,-5.740,-10.220,402,388,367,408,409,2025-06-04T21:47:36.760709
748,-0.1923,0.9179,0.0468,5.250,-8.400,-9.905,417,401,384,400,374,2025-06-04T21:47:36.760709
749,-0.2054,0.9223,0.0229,6.090,-12.110,-9.660,428,398,318,386,354,2025-06-04T21:47:36.760709
750,-0.2084,0.9340,0.0122,7.420,-15.645,-9.345,425,416,325,405,383,2025-06-04T21:47:36.966594
751,-0.1898,0.9492,0.0044,7.805,-18.655,-8.855,397,403,370,426,400,2025-06-04T21:47:36.966594
752,-0.1737,0.9584,0.0029,8.400,-19.005,-8.435,344,401,373,398,360,2025-06-04T21:47:36.966594
753,-0.1654,0.9692,-0.0044,7.980,-17.920,-7.875,343,402,388,371,399,2025-06-04T21:47:36.966594
754,-0.1523,0.9823,0.0000,7.420,-15.785,-7.595,380,431,392,364,416,2025-06-04T21:47:36.966594
755,-0.1469,0.9872,0.0137,6.300,-13.300,-6.545,375,347,353,374,415,2025-06-04T21:47:36.966594
756,-0.1547,0.9887,0.0059,4.480,-10.745,-5.180,393,388,381,402,425,2025-06-04T21:47:36.966594
757,-0.1679,0.9867,-0.0024,3.605,-10.010,-3.745,414,395,399,408,373,2025-06-04T21:47:36.966594
758,-0.1850,0.9814,-0.0054,2.835,-9.940,-2.450,419,416,397,396,400,2025-06-04T21:47:36.966594
759,-0.1913,0.9765,-0.0005,2.975,-10.640,-1.680,410,399,353,396,378,2025-06-04T21:47:36.966594
760,-0.1864,0.9814,0.0093,2.205,-11.550,-0.840,415,414,378,394,392,2025-06-04T21:47:36.966594
761,-0.1908,0.9789,0.0083,1.295,-12.320,0.070,399,426,396,407,407,2025-06-04T21:47:36.966594
762,-0.1864,0.9736,0.0098,1.155,-13.195,0.700,417,427,357,395,397,2025-06-04T21:47:36.966594
763,-0.1830,0.9711,0.0146,0.350,-14.000,1.155,415,431,384,389,400,2025-06-04T21:47:36.966594
764,-0.1810,0.9633,0.0122,-0.315,-14.805,1.610,425,414,386,411,409,2025-06-04T21:47:36.966594
765,-0.1796,0.9540,0.0093,-0.385,-15.295,1.855,411,428,403,404,413,2025-06-04T21:47:36.966594
766,-0.1791,0.9438,0.0063,-0.490,-15.120,1.785,344,417,394,408,414,2025-06-04T21:47:36.966594
767,-0.1796,0.9404,0.0044,-0.525,-14.630,1.260,403,427,352,419,354,2025-06-04T21:47:37.015075
768,-0.1825,0.9331,0.0068,-0.665,-14.210,0.630,377,416,332,422,339,2025-06-04T21:47:37.015075
769,-0.1762,0.9296,0.0000,-0.595,-13.370,0.315,417,400,364,423,389,2025-06-04T21:47:37.015075
770,-0.1713,0.9248,-0.0039,-0.245,-12.250,0.140,422,400,336,419,403,2025-06-04T21:47:37.015075
771,-0.1806,0.9238,0.0020,0.035,-10.885,-0.420,421,346,328,422,402,2025-06-04T21:47:37.067494
772,-0.1869,0.9223,0.0039,0.350,-10.045,-1.155,407,382,330,372,408,2025-06-04T21:47:37.067494
773,-0.1810,0.9257,0.0020,0.840,-9.695,-1.680,415,402,362,406,422,2025-06-04T21:47:37.067494
774,-0.1850,0.9252,-0.0078,1.190,-9.030,-2.030,407,424,386,354,401,2025-06-04T21:47:37.067494
775,-0.1893,0.9194,-0.0112,2.100,-8.680,-2.520,409,424,395,395,395,2025-06-04T21:47:37.067494
776,-0.1830,0.9238,-0.0107,2.660,-8.190,-2.870,393,399,382,361,401,2025-06-04T21:47:37.196730
777,-0.1806,0.9248,-0.0078,2.765,-7.070,-3.080,409,400,382,388,394,2025-06-04T21:47:37.196730
778,-0.1718,0.9404,-0.0034,3.045,-5.810,-3.115,384,405,391,379,407,2025-06-04T21:47:37.196730
779,-0.1688,0.9433,-0.0039,1.995,-4.445,-2.695,388,412,355,385,392,2025-06-04T21:47:37.196730
780,-0.1796,0.9457,-0.0088,1.470,-2.835,-2.870,403,403,368,408,363,2025-06-04T21:47:37.196730
781,-0.1879,0.9472,-0.0015,1.155,-1.820,-3.255,416,411,385,396,401,2025-06-04T21:47:37.196730
782,-0.1835,0.9531,-0.0010,-8.960,-1.330,-3.395,421,403,383,392,399,2025-06-04T21:47:37.196730
783,-0.1996,0.9472,0.0015,-0.805,-1.330,-3.675,400,307,390,410,416,2025-06-04T21:47:37.196730
784,-0.1991,0.9492,0.0029,-1.260,-2.730,-3.850,375,404,364,395,406,2025-06-04T21:47:37.196730
785,-0.2059,0.9448,0.0078,-2.345,-4.550,-3.990,401,394,384,402,420,2025-06-04T21:47:37.196730
786,-0.1937,0.9428,0.0059,-2.625,-6.475,-4.095,426,414,384,355,390,2025-06-04T21:47:37.290544
787,-0.1957,0.9384,0.0059,-3.465,-7.595,-4.340,424,418,389,386,414,2025-06-04T21:47:37.290544
788,-0.1962,0.9370,0.0078,-3.850,-8.470,-5.005,404,431,399,400,360,2025-06-04T21:47:37.290544
789,-0.1991,0.9350,0.0078,-4.200,-8.855,-5.985,374,402,359,384,392,2025-06-04T21:47:37.290544
790,-0.2001,0.9331,0.0083,-4.480,-8.785,-6.930,420,426,353,404,417,2025-06-04T21:47:37.290544
791,-0.2059,0.9370,0.0181,-4.130,-8.365,-7.735,408,385,371,412,401,2025-06-04T21:47:37.379976
792,-0.2152,0.9360,0.0156,-4.305,-9.275,-8.610,419,408,391,391,394,2025-06-04T21:47:37.379976
793,-0.2216,0.9340,0.0156,-3.955,-10.115,-8.715,431,343,379,396,417,2025-06-04T21:47:37.379976
794,-0.2186,0.9355,0.0264,-3.780,-10.500,-8.260,420,391,386,417,406,2025-06-04T21:47:37.379976
795,-0.2216,0.9370,0.0264,-3.675,-10.990,-7.630,432,426,389,413,400,2025-06-04T21:47:37.379976
796,-0.2240,0.9326,0.0146,-3.500,-11.550,-7.175,440,385,401,397,404,2025-06-04T21:47:37.379976
797,-0.2250,0.9272,0.0068,-3.150,-11.130,-7.070,434,424,403,411,413,2025-06-04T21:47:37.379976
798,-0.2298,0.9292,0.0122,-2.485,-10.640,-7.245,440,360,396,397,402,2025-06-04T21:47:37.379976
799,-0.2172,0.9316,0.0166,-2.590,-9.555,-7.210,423,409,394,398,393,2025-06-04T21:47:37.379976
800,-0.2235,0.9238,0.0293,-2.905,-8.505,-7.035,423,419,391,350,413,2025-06-04T21:47:37.379976
801,-0.2176,0.9399,0.0371,-2.450,-7.735,-6.405,410,349,394,380,417,2025-06-04T21:47:37.522018
802,-0.2274,0.9423,0.0273,-3.465,-7.630,-5.110,387,333,387,382,363,2025-06-04T21:47:37.522018
803,-0.2416,0.9448,0.0107,-2.870,-7.735,-4.830,403,385,384,406,405,2025-06-04T21:47:37.522018
804,-0.2513,0.9623,0.0029,-1.925,-7.665,-5.110,398,427,398,409,399,2025-06-04T21:47:37.522018
805,-0.2586,0.9726,-0.0083,-2.240,-7.560,-5.565,411,437,383,401,392,2025-06-04T21:47:37.522018
806,-0.2728,0.9667,-0.0166,-1.855,-7.070,-7.105,422,434,388,369,349,2025-06-04T21:47:37.522018
807,-0.2723,0.9623,-0.0117,-1.295,-6.440,-8.960,411,415,393,408,397,2025-06-04T21:47:37.522018
808,-0.2523,0.9565,-0.0107,-2.205,-5.635,-9.975,412,429,399,400,316,2025-06-04T21:47:37.522018
809,-0.2386,0.9472,-0.0171,-3.115,-4.655,-10.255,370,431,383,393,365,2025-06-04T21:47:37.522018
810,-0.2328,0.9365,-0.0220,-3.815,-3.605,-10.045,399,408,396,400,381,2025-06-04T21:47:37.582714
811,-0.2469,0.9248,-0.0156,-4.725,-3.150,-10.115,419,424,360,414,405,2025-06-04T21:47:37.582714
812,-0.2508,0.9165,-0.0122,-5.810,-4.060,-10.255,401,427,372,413,397,2025-06-04T21:47:37.582714
813,-0.2547,0.8955,-0.0112,-6.860,-5.460,-10.430,423,397,383,406,418,2025-06-04T21:47:37.582714
814,-0.2445,0.8969,-0.0029,-7.105,-6.755,-10.990,351,405,385,410,411,2025-06-04T21:47:37.582714
815,-0.2201,0.8896,-0.0034,-8.925,-7.035,-10.815,407,416,351,412,381,2025-06-04T21:47:37.582714
816,-0.2133,0.8818,0.0049,-10.640,-5.740,-11.025,398,418,378,411,391,2025-06-04T21:47:37.582714
817,-0.2015,0.8813,0.0244,-11.760,-1.855,-11.095,409,427,382,409,394,2025-06-04T21:47:37.582714
818,-0.1893,0.8930,0.0586,-15.260,2.170,-11.375,418,430,401,402,418,2025-06-04T21:47:37.819104
819,-0.2054,0.9062,0.0747,-18.340,7.805,-11.795,419,426,405,402,370,2025-06-04T21:47:37.819104
820,-0.2269,0.9111,0.0917,-21.070,13.160,-12.915,356,383,401,413,401,2025-06-04T21:47:37.819104
821,-0.2552,0.9150,0.1020,-23.450,17.220,-14.245,406,421,404,402,415,2025-06-04T21:47:37.819104
822,-0.2782,0.9243,0.1166,-24.815,19.985,-15.890,399,430,404,351,408,2025-06-04T21:47:37.819104
823,-0.2938,0.9243,0.1371,-25.235,21.175,-17.360,405,424,397,375,419,2025-06-04T21:47:37.819104
824,-0.3016,0.9170,0.1601,-25.445,20.160,-18.130,407,402,396,342,417,2025-06-04T21:47:37.819104
825,-0.2996,0.9121,0.1835,-24.535,16.660,-17.150,347,416,390,375,415,2025-06-04T21:47:37.819104
826,-0.2816,0.9008,0.1859,-22.505,12.635,-14.455,416,429,396,383,399,2025-06-04T21:47:37.819104
827,-0.2694,0.8955,0.1762,-18.795,7.630,-11.585,420,367,383,379,401,2025-06-04T21:47:37.819104
828,-0.2523,0.8945,0.1410,-13.720,2.695,-7.420,422,402,397,395,397,2025-06-04T21:47:37.819104
829,-0.2513,0.8930,0.0981,-8.365,-0.490,-3.360,346,405,353,381,404,2025-06-04T21:47:37.819104
830,-0.2567,0.8965,0.0551,-3.465,-1.890,-0.910,409,404,306,399,416,2025-06-04T21:47:37.819104
831,-0.2704,0.8969,0.0376,1.820,-1.645,0.140,404,381,343,414,412,2025-06-04T21:47:37.819104
832,-0.2445,0.9213,0.0293,7.000,-0.630,1.225,415,401,364,418,396,2025-06-04T21:47:37.819104
833,-0.2250,0.9423,0.0307,9.450,2.835,2.590,383,416,380,404,412,2025-06-04T21:47:37.819104
834,-0.2220,0.9672,0.0239,10.780,6.930,3.675,370,406,400,419,396,2025-06-04T21:47:37.819104
835,-0.2494,0.9716,0.0088,11.445,10.990,3.290,415,427,388,316,390,2025-06-04T21:47:37.819104
836,-0.2440,0.9765,-0.0088,10.815,14.840,2.135,375,419,389,359,388,2025-06-04T21:47:38.007427
837,-0.2425,0.9916,-0.0195,9.660,18.445,0.315,361,425,354,377,392,2025-06-04T21:47:38.007427
838,-0.2435,1.0194,-0.0137,7.770,22.015,-0.875,415,433,380,392,349,2025-06-04T21:47:38.007427
839,-0.2308,1.0609,0.0000,5.460,24.115,-1.750,405,431,390,410,392,2025-06-04T21:47:38.007427
840,-0.2391,1.0882,0.0093,0.770,25.480,-2.030,391,406,348,376,403,2025-06-04T21:47:38.007427
841,-0.2420,1.0926,0.0288,-1.785,25.200,-2.065,387,398,372,399,413,2025-06-04T21:47:38.007427
842,-0.2528,1.1078,0.0625,-5.075,23.170,-1.295,409,417,394,394,377,2025-06-04T21:47:38.007427
843,-0.2987,1.1165,0.0942,-9.065,18.060,0.070,420,402,382,369,395,2025-06-04T21:47:38.007427
844,-0.3494,1.0985,0.0776,-9.555,7.280,3.080,418,412,350,367,389,2025-06-04T21:47:38.007427
845,-0.3860,1.0394,0.0493,-7.595,-7.455,8.505,404,413,378,397,396,2025-06-04T21:47:38.007427
846,-0.4060,0.9638,0.0449,-3.745,-24.640,16.240,407,403,391,395,388,2025-06-04T21:47:38.007427
847,-0.3875,0.9067,0.0508,3.640,-37.800,25.655,403,416,384,395,403,2025-06-04T21:47:38.007427
848,-0.3553,0.8706,0.0786,8.400,-50.680,33.390,407,416,385,397,413,2025-06-04T21:47:38.007427
849,-0.3011,0.8496,0.0937,12.285,-56.630,42.070,399,398,397,413,412,2025-06-04T21:47:38.007427
850,-0.2333,0.8447,0.0942,14.350,-54.985,48.965,305,404,396,403,392,2025-06-04T21:47:38.007427
851,-0.1850,0.8355,0.0630,14.245,-47.110,53.410,382,437,399,391,349,2025-06-04T21:47:38.007427
852,-0.1679,0.8272,0.0210,13.545,-28.280,53.235,407,427,396,408,340,2025-06-04T21:47:38.007427
853,-0.1635,0.8335,-0.0195,12.775,-22.470,48.930,399,398,390,410,391,2025-06-04T21:47:38.007427
854,-0.1488,0.8423,-0.0493,10.780,-6.160,42.945,398,370,393,406,354,2025-06-04T21:47:38.110782
855,-0.1449,0.8413,-0.0615,7.455,9.800,33.390,401,412,398,403,375,2025-06-04T21:47:38.110782
856,-0.1269,0.8423,-0.0590,4.095,23.345,23.730,422,425,386,411,404,2025-06-04T21:47:38.110782
857,-0.1327,0.8472,-0.0351,1.715,32.235,16.135,364,403,382,419,409,2025-06-04T21:47:38.110782
858,-0.1454,0.8589,-0.0132,-1.610,44.590,10.045,417,432,399,393,395,2025-06-04T21:47:38.110782
859,-0.1635,0.8721,-0.0034,-4.340,35.735,6.090,433,417,396,394,395,2025-06-04T21:47:38.110782
860,-0.1972,0.8769,0.0044,-6.825,31.850,1.505,427,425,385,417,390,2025-06-04T21:47:38.110782
861,-0.2396,0.8891,0.0229,-8.855,25.025,-3.465,383,398,355,396,387,2025-06-04T21:47:38.191634
862,-0.2655,0.8965,0.0517,-10.850,15.645,-8.295,381,425,366,394,392,2025-06-04T21:47:38.191634
863,-0.2650,0.8979,0.0644,-11.760,6.055,-12.145,429,410,386,403,352,2025-06-04T21:47:38.191634
864,-0.2596,0.9028,0.0898,-12.530,-2.590,-15.295,414,370,385,346,393,2025-06-04T21:47:38.191634
865,-0.2401,0.9018,0.1088,-13.090,-8.085,-17.710,400,413,389,383,408,2025-06-04T21:47:38.191634
866,-0.2103,0.9106,0.1322,-13.405,-12.810,-18.620,425,431,382,395,397,2025-06-04T21:47:38.191634
867,-0.1923,0.9189,0.1342,-14.000,-14.770,-18.270,410,407,388,403,406,2025-06-04T21:47:38.191634
868,-0.1703,0.9213,0.1357,-13.790,-15.890,-17.115,397,394,399,393,384,2025-06-04T21:47:38.191634
869,-0.1596,0.9257,0.1293,-13.580,-14.455,-15.120,394,434,394,402,394,2025-06-04T21:47:38.399365
870,-0.1620,0.9443,0.1386,-12.810,-11.270,-13.405,417,406,396,394,410,2025-06-04T21:47:38.399365
871,-0.1542,0.9565,0.1381,-12.075,-6.685,-12.005,422,418,374,394,406,2025-06-04T21:47:38.399365
872,-0.1537,0.9740,0.1274,-11.130,-2.450,-11.130,355,431,385,391,410,2025-06-04T21:47:38.399365
873,-0.1645,0.9765,0.1039,-10.570,3.955,-10.500,376,361,392,417,390,2025-06-04T21:47:38.399365
874,-0.1791,0.9780,0.0854,-9.485,9.625,-10.220,403,406,394,400,410,2025-06-04T21:47:38.399365
875,-0.1923,0.9736,0.0752,-7.840,13.440,-9.765,380,425,396,400,362,2025-06-04T21:47:38.399365
876,-0.2045,0.9614,0.0839,-7.000,15.015,-8.225,406,412,398,400,347,2025-06-04T21:47:38.400350
877,-0.2103,0.9526,0.0981,-4.970,14.140,-5.915,422,388,406,408,297,2025-06-04T21:47:38.400350
878,-0.2050,0.9638,0.1103,-3.080,10.780,-3.255,420,411,393,411,363,2025-06-04T21:47:38.400350
879,-0.2172,0.9492,0.1118,-2.660,6.685,-0.420,436,353,388,376,359,2025-06-04T21:47:38.400350
880,-0.2313,0.9409,0.1044,-0.840,2.625,0.770,413,335,380,404,382,2025-06-04T21:47:38.400350
881,-0.2279,0.9233,0.0888,-0.595,-0.490,1.190,427,395,378,366,389,2025-06-04T21:47:38.400350
882,-0.2094,0.9052,0.0830,0.140,-2.170,1.225,395,394,357,375,391,2025-06-04T21:47:38.400350
883,-0.1932,0.8960,0.0805,0.910,-2.485,1.260,405,398,372,417,398,2025-06-04T21:47:38.400350
884,-0.1757,0.8896,0.0820,0.735,-1.785,1.470,423,424,380,399,388,2025-06-04T21:47:38.400350
885,-0.1776,0.8882,0.0776,1.120,-0.140,0.910,415,414,387,398,394,2025-06-04T21:47:38.400350
886,-0.1957,0.8877,0.0727,0.490,2.170,-0.910,308,419,381,417,392,2025-06-04T21:47:38.400350
887,-0.2250,0.8750,0.0669,0.420,3.605,-4.025,363,402,399,410,408,2025-06-04T21:47:38.640079
888,-0.2347,0.8691,0.0644,0.595,3.850,-6.055,424,395,387,407,396,2025-06-04T21:47:38.640079
889,-0.2318,0.8706,0.0683,1.260,2.765,-7.630,417,424,398,399,401,2025-06-04T21:47:38.640079
890,-0.2313,0.8647,0.0727,1.960,0.910,-8.540,421,427,380,380,376,2025-06-04T21:47:38.640079
891,-0.2503,0.8608,0.0878,2.555,-1.610,-9.485,355,434,380,351,340,2025-06-04T21:47:38.640079
892,-0.2586,0.8706,0.1025,3.325,-4.235,-11.095,358,431,349,383,388,2025-06-04T21:47:38.640079
893,-0.2547,0.8721,0.1069,3.360,-7.280,-12.495,401,411,377,392,348,2025-06-04T21:47:38.640079
894,-0.2416,0.8794,0.1078,4.305,-9.485,-14.140,395,427,390,398,395,2025-06-04T21:47:38.640079
895,-0.2259,0.8930,0.1093,4.340,-10.500,-15.085,416,419,355,386,406,2025-06-04T21:47:38.640079
896,-0.2108,0.8891,0.1054,4.200,-10.815,-15.435,399,428,352,396,398,2025-06-04T21:47:38.640079
897,-0.2089,0.8833,0.1127,4.270,-10.605,-15.680,427,405,360,360,413,2025-06-04T21:47:38.640079
898,-0.1952,0.8862,0.1215,3.955,-10.360,-15.540,351,418,391,389,397,2025-06-04T21:47:38.640079
899,-0.1962,0.8818,0.1435,2.975,-10.500,-15.330,391,418,360,351,405,2025-06-04T21:47:38.640079
900,-0.1952,0.8755,0.1547,2.310,-12.005,-15.015,408,381,368,339,402,2025-06-04T21:47:38.640079
901,-0.2094,0.8662,0.1488,1.680,-14.350,-14.945,416,396,374,391,407,2025-06-04T21:47:38.640079
902,-0.2289,0.8633,0.1415,1.435,-17.255,-16.415,394,418,376,372,399,2025-06-04T21:47:38.640079
903,-0.2445,0.8613,0.1440,1.190,-19.810,-19.145,406,410,384,342,374,2025-06-04T21:47:38.640079
904,-0.2562,0.8642,0.1342,0.840,-23.590,-22.540,380,434,383,324,380,2025-06-04T21:47:38.640079
905,-0.2684,0.8628,0.1308,0.770,-27.230,-25.900,401,431,389,378,412,2025-06-04T21:47:38.640079
906,-0.2874,0.8496,0.1240,0.525,-30.555,-31.080,393,425,388,390,409,2025-06-04T21:47:38.812915
907,-0.2943,0.8223,0.1405,0.175,-32.760,-36.890,342,422,361,389,398,2025-06-04T21:47:38.812915
908,-0.3109,0.8106,0.1757,-0.945,-34.125,-43.400,415,399,371,402,366,2025-06-04T21:47:38.812915
909,-0.3314,0.7910,0.1869,-1.925,-35.980,-49.595,366,408,388,352,340,2025-06-04T21:47:38.812915
910,-0.3665,0.7725,0.1942,-2.905,-39.200,-55.405,393,346,385,384,295,2025-06-04T21:47:38.812915
911,-0.4182,0.7530,0.2030,-3.885,-42.455,-61.425,391,405,385,387,314,2025-06-04T21:47:38.812915
912,-0.4509,0.7393,0.1986,-4.900,-47.285,-66.150,431,403,382,397,369,2025-06-04T21:47:38.812915
913,-0.4704,0.7330,0.1996,-6.230,-52.150,-71.295,428,395,390,400,382,2025-06-04T21:47:38.812915
914,-0.4831,0.7291,0.2020,-7.735,-53.900,-76.580,428,401,397,414,406,2025-06-04T21:47:38.812915
915,-0.4919,0.7374,0.1947,-8.540,-52.290,-81.165,423,392,357,399,399,2025-06-04T21:47:38.812915
916,-0.5358,0.7779,0.1864,-8.435,-49.420,-85.120,409,408,372,403,349,2025-06-04T21:47:38.812915
917,-0.5861,0.8481,0.1444,-7.280,-46.340,-89.075,427,418,390,396,388,2025-06-04T21:47:38.812915
918,-0.6568,0.8574,0.0986,-5.670,-40.880,-92.680,434,415,392,414,405,2025-06-04T21:47:38.812915
919,-0.7286,0.8438,0.0722,-0.630,-36.820,-96.040,433,432,398,402,410,2025-06-04T21:47:38.812915
920,-0.7349,0.8311,0.0595,6.055,-35.455,-95.200,361,399,383,398,419,2025-06-04T21:47:38.812915
921,-0.7037,0.8462,0.0634,13.965,-35.070,-88.165,387,393,378,415,418,2025-06-04T21:47:38.911673
922,-0.6539,0.8882,0.0634,20.825,-34.615,-76.510,410,430,395,416,420,2025-06-04T21:47:38.911673
923,-0.6373,0.9360,0.0410,27.510,-33.040,-63.105,404,374,398,422,418,2025-06-04T21:47:38.911673
924,-0.6320,0.9697,0.0098,32.865,-28.980,-50.575,349,395,386,362,321,2025-06-04T21:47:38.911673
925,-0.6237,0.9858,-0.0068,37.030,-22.925,-41.370,383,428,389,381,365,2025-06-04T21:47:38.911673
926,-0.6329,1.0014,-0.0073,39.410,-19.180,-30.240,418,434,393,412,367,2025-06-04T21:47:38.911673
927,-0.6134,0.9994,-0.0142,41.720,-19.845,-18.410,423,399,391,411,382,2025-06-04T21:47:38.911673
928,-0.5802,0.9984,-0.0156,42.805,-23.485,-5.320,374,426,389,422,389,2025-06-04T21:47:38.911673
929,-0.5456,0.9975,-0.0112,44.170,-28.280,7.910,411,425,400,371,388,2025-06-04T21:47:39.014210
930,-0.5348,0.9882,-0.0010,44.030,-33.985,18.655,429,349,400,356,347,2025-06-04T21:47:39.014210
931,-0.5041,0.9950,0.0166,42.385,-37.485,25.130,395,392,403,392,347,2025-06-04T21:47:39.014210
932,-0.4792,0.9911,0.0102,39.060,-37.975,30.800,398,390,362,404,378,2025-06-04T21:47:39.014210
933,-0.4660,0.9819,-0.0015,35.035,-36.120,33.775,417,340,379,404,346,2025-06-04T21:47:39.014210
934,-0.4612,0.9706,-0.0063,31.815,-32.760,34.405,421,399,388,399,375,2025-06-04T21:47:39.014210
935,-0.4538,0.9589,-0.0029,27.405,-28.630,33.145,399,420,360,352,397,2025-06-04T21:47:39.014210
936,-0.4553,0.9370,-0.0054,23.065,-25.760,30.730,397,420,378,391,398,2025-06-04T21:47:39.014210
937,-0.4436,0.9233,0.0029,18.865,-22.820,29.050,406,410,391,405,352,2025-06-04T21:47:39.014210
938,-0.4348,0.9038,0.0234,14.385,-21.245,27.405,412,403,397,410,387,2025-06-04T21:47:39.220044
939,-0.4221,0.8764,0.0410,10.535,-21.175,26.565,423,418,389,415,399,2025-06-04T21:47:39.220044
940,-0.4187,0.8564,0.0493,6.720,-22.400,26.285,395,344,388,380,352,2025-06-04T21:47:39.220044
941,-0.4202,0.8364,0.0356,4.025,-23.870,25.655,364,387,383,399,385,2025-06-04T21:47:39.220044
942,-0.4187,0.8159,0.0200,1.855,-25.305,24.430,411,407,378,407,395,2025-06-04T21:47:39.220044
943,-0.4114,0.8042,0.0034,0.770,-26.390,22.785,414,428,383,415,413,2025-06-04T21:47:39.220044
944,-0.3933,0.8052,0.0039,0.175,-25.585,21.035,422,387,394,429,401,2025-06-04T21:47:39.220044
945,-0.3767,0.8115,0.0107,-1.155,-22.890,18.375,400,407,388,359,400,2025-06-04T21:47:39.220044
946,-0.3753,0.8076,0.0239,-2.835,-19.110,14.980,428,410,387,394,414,2025-06-04T21:47:39.220044
947,-0.3782,0.8072,0.0264,-3.885,-16.170,11.970,413,405,385,408,416,2025-06-04T21:47:39.220044
948,-0.3792,0.8072,0.0283,-5.145,-14.315,9.065,364,409,397,396,415,2025-06-04T21:47:39.220044
949,-0.3880,0.8096,0.0273,-4.970,-13.230,6.860,403,410,392,362,362,2025-06-04T21:47:39.220044
950,-0.3967,0.8150,0.0283,-4.725,-12.285,4.095,403,418,405,385,382,2025-06-04T21:47:39.220044
951,-0.4046,0.8208,0.0254,-4.620,-11.480,0.875,429,438,403,384,350,2025-06-04T21:47:39.374063
952,-0.3845,0.8272,0.0224,-4.305,-9.625,-2.135,364,428,402,350,382,2025-06-04T21:47:39.374063
953,-0.3728,0.8276,0.0342,-4.620,-6.860,-5.180,411,398,369,391,393,2025-06-04T21:47:39.374063
954,-0.3792,0.8267,0.0527,-5.390,-3.640,-7.385,413,424,352,404,370,2025-06-04T21:47:39.374063
955,-0.3699,0.8320,0.0590,-6.615,-1.750,-9.590,418,354,389,409,400,2025-06-04T21:47:39.445691
956,-0.3709,0.8276,0.0595,-7.770,0.035,-10.990,433,419,397,407,409,2025-06-04T21:47:39.445691
957,-0.3792,0.8296,0.0644,-7.630,1.435,-12.320,427,392,401,414,397,2025-06-04T21:47:39.445691
958,-0.3704,0.8291,0.0625,-7.840,2.940,-13.545,432,428,394,417,413,2025-06-04T21:47:39.445691
959,-0.3626,0.8081,0.0361,-7.805,5.495,-14.280,429,354,401,408,409,2025-06-04T21:47:39.445691
960,-0.3523,0.7964,0.0410,-5.320,8.155,-13.580,430,341,389,390,421,2025-06-04T21:47:39.445691
961,-0.3714,0.7832,0.0688,-4.060,11.585,-13.825,432,375,378,399,402,2025-06-04T21:47:39.445691
962,-0.4094,0.7515,0.1381,-4.165,15.855,-15.750,397,393,390,389,393,2025-06-04T21:47:39.445691
963,-0.4182,0.7579,0.2259,-2.590,19.040,-16.590,395,391,382,414,415,2025-06-04T21:47:39.445691
964,-0.4470,0.7086,0.2855,-3.395,24.535,-18.480,393,409,382,398,418,2025-06-04T21:47:39.445691
965,-0.4841,0.6647,0.3011,-0.350,25.865,-17.885,426,404,381,400,379,2025-06-04T21:47:39.445691
966,-0.5368,0.6383,0.2738,6.580,22.120,-14.105,344,418,362,410,407,2025-06-04T21:47:39.445691
967,-0.6271,0.6320,0.2782,14.665,17.535,-10.570,401,408,381,396,394,2025-06-04T21:47:39.445691
968,-0.6876,0.6515,0.3030,21.455,17.045,-10.605,419,389,386,350,352,2025-06-04T21:47:39.445691
969,-0.6827,0.6817,0.2747,27.195,21.315,-12.005,421,423,396,294,381,2025-06-04T21:47:39.445691
970,-0.6676,0.6915,0.2167,33.705,31.745,-12.845,427,349,396,372,369,2025-06-04T21:47:39.445691
971,-0.6359,0.7125,0.1518,41.930,42.350,-11.340,423,394,390,406,409,2025-06-04T21:47:39.445691
972,-0.6359,0.7237,0.0834,49.910,50.505,-7.035,415,427,397,413,412,2025-06-04T21:47:39.445691
973,-0.6364,0.7535,0.0390,56.980,55.055,-1.505,422,443,387,411,387,2025-06-04T21:47:39.533114
974,-0.6339,0.7857,-0.0298,62.475,56.665,4.375,425,353,377,401,384,2025-06-04T21:47:39.533114
975,-0.6471,0.8106,-0.0595,65.590,54.705,9.870,421,412,377,396,404,2025-06-04T21:47:39.533114
976,-0.6344,0.8189,-0.0942,66.430,48.265,14.945,393,406,359,388,402,2025-06-04T21:47:39.533114
977,-0.6110,0.8189,-0.1205,66.045,38.360,20.300,421,428,382,418,418,2025-06-04T21:47:39.533114
978,-0.6027,0.8164,-0.1288,64.470,28.175,24.150,398,410,377,395,409,2025-06-04T21:47:39.533114
979,-0.6007,0.8076,-0.1327,61.390,11.760,26.180,419,404,377,350,403,2025-06-04T21:47:39.533114
980,-0.5905,0.8023,-0.1693,57.540,-6.265,26.425,418,435,383,391,399,2025-06-04T21:47:39.533114
981,-0.5861,0.7788,-0.2025,53.165,-24.465,24.185,407,415,392,402,413,2025-06-04T21:47:39.631565
982,-0.5407,0.7725,-0.2347,50.575,-41.895,21.595,346,425,396,358,401,2025-06-04T21:47:39.631565
983,-0.5041,0.7769,-0.2435,46.620,-54.635,17.255,376,437,385,397,391,2025-06-04T21:47:39.631565
984,-0.4636,0.7842,-0.2542,39.935,-59.955,10.430,409,432,357,409,388,2025-06-04T21:47:39.631565
985,-0.3831,0.7857,-0.2879,32.830,-59.045,2.870,397,425,384,407,398,2025-06-04T21:47:39.631565
986,-0.3445,0.7886,-0.3055,25.690,-50.505,-3.115,421,421,377,348,368,2025-06-04T21:47:39.631565
987,-0.3372,0.7793,-0.2874,19.390,-37.870,-10.605,435,400,350,376,370,2025-06-04T21:47:39.631565
988,-0.3611,0.7681,-0.2874,13.615,-26.215,-17.675,428,430,341,386,345,2025-06-04T21:47:39.631565
989,-0.3831,0.7515,-0.3055,11.340,-17.185,-22.330,420,432,371,340,382,2025-06-04T21:47:39.833217
990,-0.3836,0.7764,-0.3045,11.830,-9.590,-24.570,420,362,308,389,389,2025-06-04T21:47:39.833217
991,-0.3577,0.8091,-0.3377,11.445,-1.890,-26.320,422,428,372,420,397,2025-06-04T21:47:39.833217
992,-0.3523,0.8213,-0.3933,11.375,10.150,-27.580,423,415,378,423,413,2025-06-04T21:47:39.833217
993,-0.3758,0.8242,-0.3816,12.670,22.715,-28.770,347,345,374,403,407,2025-06-04T21:47:39.833217
994,-0.4324,0.8472,-0.3274,13.405,29.575,-28.945,398,388,350,400,416,2025-06-04T21:47:39.833217
995,-0.4763,0.8589,-0.2987,13.230,29.960,-28.385,423,426,366,395,418,2025-06-04T21:47:39.833217
996,-0.5378,0.8452,-0.2679,13.335,24.640,-27.650,418,437,373,415,359,2025-06-04T21:47:39.833217
997,-0.6095,0.8481,-0.2235,15.295,15.540,-26.600,404,397,373,413,392,2025-06-04T21:47:39.833217
998,-0.6276,0.8584,-0.2089,15.890,0.070,-26.425,363,391,381,394,405,2025-06-04T21:47:39.833217
999,-0.6246,0.8623,-0.1923,16.415,-16.275,-26.005,411,414,385,408,374,2025-06-04T21:47:39.833217
1000,-0.6393,0.8764,-0.1279,18.235,-33.110,-24.570,406,426,399,408,309,2025-06-04T21:47:39.833217
1001,-0.5988,0.9018,-0.0859,18.095,-49.665,-23.380,407,428,409,405,372,2025-06-04T21:47:39.833217
1002,-0.5597,0.9130,-0.0610,16.065,-61.495,-22.785,369,419,408,415,388,2025-06-04T21:47:39.833217
1003,-0.5173,0.9204,-0.0727,15.680,-67.235,-22.960,394,353,393,421,344,2025-06-04T21:47:39.833217
1004,-0.4982,0.9350,-0.0913,13.965,-68.180,-24.850,422,363,399,417,374,2025-06-04T21:47:39.833217
1005,-0.4812,0.9365,-0.1039,10.290,-65.065,-27.720,425,414,390,409,339,2025-06-04T21:47:39.833217
1006,-0.4534,0.9399,-0.1064,7.735,-56.735,-32.375,427,419,395,395,365,2025-06-04T21:47:40.074159
1007,-0.4192,0.9296,-0.1357,5.705,-47.215,-34.615,406,431,393,417,383,2025-06-04T21:47:40.074159
1008,-0.4314,0.9111,-0.1425,5.810,-40.915,-33.880,398,390,365,352,347,2025-06-04T21:47:40.074159
1009,-0.4397,0.9301,-0.1318,5.915,-36.190,-31.500,417,401,390,377,384,2025-06-04T21:47:40.074159
1010,-0.4592,0.9594,-0.1435,3.710,-30.975,-29.855,381,402,363,395,390,2025-06-04T21:47:40.074159
1011,-0.4948,1.0121,-0.2157,2.695,-27.965,-28.000,429,420,387,400,391,2025-06-04T21:47:40.074159
1012,-0.5412,1.0775,-0.2967,2.415,-27.825,-24.465,401,393,382,421,401,2025-06-04T21:47:40.074159
1013,-0.6080,1.1092,-0.3406,2.555,-36.330,-17.500,417,410,390,359,397,2025-06-04T21:47:40.074159
1014,-0.6505,1.1161,-0.3270,5.040,-57.015,-5.285,405,420,383,372,373,2025-06-04T21:47:40.074159
1015,-0.5929,1.1351,-0.2845,8.750,-85.155,14.420,393,420,353,387,389,2025-06-04T21:47:40.074159
1016,-0.4812,1.1585,-0.2606,12.600,-115.325,39.305,402,352,355,380,396,2025-06-04T21:47:40.074159
1017,-0.4109,1.2102,-0.2435,16.065,-123.900,65.765,401,421,378,407,408,2025-06-04T21:47:40.074159
1018,-0.3426,1.2234,-0.2557,17.955,-129.045,85.190,428,437,394,396,353,2025-06-04T21:47:40.074904
1019,-0.2811,1.2068,-0.2943,18.480,-120.400,105.980,392,434,369,378,376,2025-06-04T21:47:40.074904
1020,-0.2220,1.1614,-0.3470,19.565,-99.155,121.625,416,407,391,408,396,2025-06-04T21:47:40.074904
1021,-0.1781,1.1229,-0.3558,21.875,-70.420,132.685,428,400,401,400,387,2025-06-04T21:47:40.074904
1022,-0.1474,1.1039,-0.3240,21.245,-37.415,139.370,403,426,360,410,376,2025-06-04T21:47:40.074904
1023,-0.1713,1.0799,-0.2850,17.290,-2.415,140.455,345,437,371,351,395,2025-06-04T21:47:40.265111
1024,-0.2318,1.0394,-0.2211,11.130,22.610,136.255,388,409,383,378,410,2025-06-04T21:47:40.265111
1025,-0.2772,1.0136,-0.1542,3.395,45.920,131.180,416,433,373,382,395,2025-06-04T21:47:40.265111
1026,-0.3235,0.9804,-0.1088,-5.285,60.025,124.180,422,373,372,387,388,2025-06-04T21:47:40.265111
1027,-0.3909,0.9223,-0.0781,-12.635,64.575,115.710,366,407,372,370,394,2025-06-04T21:47:40.265111
1028,-0.4270,0.8589,-0.0781,-17.010,60.270,107.170,339,412,359,379,409,2025-06-04T21:47:40.265111
1029,-0.4187,0.8140,-0.0883,-19.880,52.430,99.050,395,438,383,403,415,2025-06-04T21:47:40.265111
1030,-0.4704,0.7574,-0.0688,-21.210,45.710,88.165,417,434,394,399,399,2025-06-04T21:47:40.265111
1031,-0.4851,0.7164,-0.0268,-21.735,40.005,74.480,408,424,383,406,417,2025-06-04T21:47:40.265111
1032,-0.4909,0.6661,0.0454,-25.165,32.830,59.780,398,429,398,409,402,2025-06-04T21:47:40.265111
1033,-0.4748,0.5012,0.0903,-27.160,23.660,48.930,394,408,371,408,316,2025-06-04T21:47:40.265111
1034,-0.4446,0.5895,0.1254,-28.665,13.895,37.800,419,424,345,390,371,2025-06-04T21:47:40.265111
1035,-0.4133,0.5983,0.1479,-31.850,5.670,26.705,388,424,375,403,378,2025-06-04T21:47:40.265111
1036,-0.4026,0.5919,0.1415,-33.530,0.770,14.980,423,419,380,371,342,2025-06-04T21:47:40.265111
1037,-0.4553,0.5778,0.1200,-34.230,-2.765,2.135,413,412,376,344,390,2025-06-04T21:47:40.265111
1038,-0.5100,0.5475,0.1469,-33.145,-10.920,-8.785,418,436,380,391,410,2025-06-04T21:47:40.265111
1039,-0.5407,0.5339,0.1347,-28.560,-26.390,-19.215,413,418,362,407,397,2025-06-04T21:47:40.265111
1040,-0.5231,0.5226,0.1366,-20.405,-41.650,-25.900,422,425,373,410,402,2025-06-04T21:47:40.265111
1041,-0.5183,0.5592,0.1635,-13.405,-52.045,-32.725,411,412,389,409,387,2025-06-04T21:47:40.346943
1042,-0.4997,0.5675,0.1186,-9.975,-56.525,-40.250,424,431,396,412,351,2025-06-04T21:47:40.346943
1043,-0.4807,0.5758,0.0937,-5.880,-52.920,-48.370,399,422,349,418,398,2025-06-04T21:47:40.346943
1044,-0.4924,0.6066,0.0752,-3.255,-44.275,-56.945,422,430,386,426,409,2025-06-04T21:47:40.346943
1045,-0.5085,0.6232,0.0537,-2.625,-37.730,-63.560,409,416,387,409,415,2025-06-04T21:47:40.346943
1046,-0.5671,0.6320,0.0991,-0.910,-32.270,-69.300,388,427,393,414,321,2025-06-04T21:47:40.346943
1047,-0.6261,0.6598,0.1010,-2.170,-33.320,-74.550,391,400,383,387,368,2025-06-04T21:47:40.346943
1048,-0.6354,0.6671,0.0644,-2.345,-40.635,-74.970,425,426,349,383,386,2025-06-04T21:47:40.430413
1049,-0.6651,0.6242,-0.0498,-0.280,-52.220,-71.015,417,399,370,397,381,2025-06-04T21:47:40.430413
1050,-0.6671,0.6578,-0.0908,4.340,-60.935,-68.250,393,412,376,411,402,2025-06-04T21:47:40.430413
1051,-0.7115,0.6827,-0.0864,4.410,-67.165,-69.405,419,406,345,412,372,2025-06-04T21:47:40.430413
1052,-0.7008,0.7247,-0.0776,0.840,-71.645,-74.375,379,414,375,354,381,2025-06-04T21:47:40.430413
1053,-0.6290,0.7681,-0.0683,-3.850,-73.115,-81.200,417,393,343,329,399,2025-06-04T21:47:40.552336
1054,-0.5749,0.8081,-0.1137,-8.785,-72.485,-85.960,424,301,358,399,407,2025-06-04T21:47:40.552336
1055,-0.4851,0.8481,-0.2328,-10.710,-70.945,-87.780,433,380,389,402,396,2025-06-04T21:47:40.552336
1056,-0.4124,0.8652,-0.3001,-12.705,-60.655,-89.565,363,387,378,310,398,2025-06-04T21:47:40.552336
1057,-0.4304,0.8716,-0.3440,-14.070,-44.415,-94.010,414,413,389,392,364,2025-06-04T21:47:40.552336
1058,-0.3640,0.9150,-0.3816,-16.170,-25.830,-98.805,372,369,387,404,409,2025-06-04T21:47:40.552336
1059,-0.3206,1.0150,-0.3367,-16.100,-8.575,-99.470,387,410,383,402,419,2025-06-04T21:47:40.552336
1060,-0.3152,1.1561,-0.3016,-16.170,0.280,-94.955,414,410,391,418,410,2025-06-04T21:47:40.552336
1061,-0.2723,1.3205,-0.2879,-11.690,1.470,-82.740,410,428,385,398,417,2025-06-04T21:47:40.552336
1062,-0.2655,1.4899,-0.3484,-9.100,-9.485,-67.480,403,424,396,397,402,2025-06-04T21:47:40.552336
1063,-0.3421,1.5967,-0.4060,0.035,-34.650,-42.840,421,427,390,404,359,2025-06-04T21:47:40.552336
1064,-0.3494,1.7617,-0.3977,5.075,-68.985,-17.955,425,415,385,415,389,2025-06-04T21:47:40.552336
1065,-0.1845,1.9535,-0.3958,5.320,-94.430,7.210,397,422,402,366,410,2025-06-04T21:47:40.756695
1066,-0.0717,2.1116,-0.4460,0.210,-101.325,28.875,393,426,393,397,412,2025-06-04T21:47:40.756695
1067,0.0166,2.2243,-0.5183,-12.810,-102.585,47.180,418,407,396,398,420,2025-06-04T21:47:40.756695
1068,0.0781,2.2375,-0.6212,-29.225,-105.630,62.475,422,351,391,391,421,2025-06-04T21:47:40.756695
1069,-0.0425,2.2097,-0.5680,-50.260,-113.155,79.695,429,384,383,391,416,2025-06-04T21:47:40.756695
1070,-0.3201,2.2531,-0.5758,-72.940,-127.190,90.160,392,398,394,410,361,2025-06-04T21:47:40.756695
1071,-0.5651,2.3444,-0.6222,-83.615,-149.625,101.500,408,404,393,397,379,2025-06-04T21:47:40.756695
1072,-0.7120,2.2580,-0.8135,-83.895,-178.185,115.745,423,418,371,388,342,2025-06-04T21:47:40.756695
1073,-0.8418,2.1252,-0.9794,-74.235,-202.510,129.325,426,403,384,395,391,2025-06-04T21:47:40.756695
1074,-0.8335,2.0335,-1.0809,-63.805,-228.270,138.915,397,395,397,409,391,2025-06-04T21:47:40.756695
1075,-0.7252,2.0213,-1.1756,-58.170,-236.110,142.835,424,408,391,397,400,2025-06-04T21:47:40.756695
1076,-0.5905,1.9344,-1.1863,-57.575,-223.230,143.500,436,407,394,413,400,2025-06-04T21:47:40.756695
1077,-0.7452,1.8549,-1.1014,-68.600,-202.615,131.355,314,380,393,404,374,2025-06-04T21:47:40.756695
1078,-0.9711,1.7187,-0.9550,-92.855,-190.365,101.570,347,401,392,411,402,2025-06-04T21:47:40.756695
1079,-0.8911,1.5352,-0.7471,-116.655,-180.390,68.950,385,431,397,395,397,2025-06-04T21:47:40.756695
1080,-0.7413,1.2058,-0.6900,-155.260,-177.380,42.385,410,444,400,395,391,2025-06-04T21:47:40.756695
1081,-0.8213,1.0477,-0.1664,-176.855,-172.060,16.380,405,433,381,386,359,2025-06-04T21:47:40.756695
1082,-0.7867,0.8067,0.0415,-204.855,-184.485,-5.565,428,432,395,408,389,2025-06-04T21:47:40.811156
1083,-0.5675,0.5788,0.1508,-230.545,-198.870,-17.185,423,418,405,425,399,2025-06-04T21:47:40.811156
1084,-0.3133,0.3065,0.0288,-257.565,-206.080,-26.355,424,310,372,422,402,2025-06-04T21:47:40.811156
1085,-0.3431,-0.0586,0.0024,-273.560,-213.115,-40.005,433,393,381,402,417,2025-06-04T21:47:40.811156
1086,-0.2362,-0.3314,0.0810,-295.785,-233.100,-57.645,429,418,379,418,412,2025-06-04T21:47:40.982105
1087,0.3123,-1.0053,0.0791,-308.665,-246.085,-55.790,397,399,381,396,375,2025-06-04T21:47:40.982105
1088,0.6832,-1.6675,0.5607,-316.610,-245.035,-45.815,423,407,376,401,409,2025-06-04T21:47:40.982105
1089,0.8408,-1.8993,0.9697,-299.985,-238.105,-36.435,392,351,385,403,408,2025-06-04T21:47:40.982105
1090,1.1248,-1.8500,1.1492,-290.395,-212.590,-26.845,372,425,401,424,415,2025-06-04T21:47:40.982105
1091,1.1922,-1.8759,1.1317,-291.340,-182.105,-16.695,389,359,404,388,370,2025-06-04T21:47:40.982105
1092,1.0824,-1.9559,1.0526,-286.020,-161.525,-11.025,401,420,403,424,367,2025-06-04T21:47:40.982105
1093,1.0253,-1.9222,1.0238,-253.715,-159.180,-10.745,392,405,399,425,414,2025-06-04T21:47:40.982105
1094,0.9130,-1.9642,0.9570,-215.110,-175.560,-18.830,394,436,412,437,405,2025-06-04T21:47:40.982105
1095,0.4616,-1.7324,0.8672,-173.250,-198.660,-45.850,416,450,372,380,426,2025-06-04T21:47:40.982105
1096,0.4524,-1.2800,0.7320,-125.405,-203.140,-83.160,429,412,393,403,408,2025-06-04T21:47:40.982105
1097,0.8428,-0.8252,0.7388,-95.410,-185.185,-100.170,437,410,361,415,407,2025-06-04T21:47:40.982105
1098,1.1722,-0.4982,0.7052,-74.480,-135.170,-91.455,410,419,373,411,404,2025-06-04T21:47:40.982105
1099,1.1039,-0.2562,0.8218,-56.735,-89.075,-54.110,425,403,377,414,411,2025-06-04T21:47:40.982105
1100,1.0770,-0.2245,0.8545,-37.730,-57.680,-10.465,396,309,383,400,422,2025-06-04T21:47:40.982105
1101,0.9667,-0.1430,0.8804,-17.815,-38.430,17.185,380,339,352,412,384,2025-06-04T21:47:41.173933
1102,0.8272,-0.1527,0.9775,-6.160,-15.155,21.490,378,416,384,359,405,2025-06-04T21:47:41.173933
1103,0.7066,-0.1244,1.0487,6.860,0.665,9.240,420,412,368,410,428,2025-06-04T21:47:41.173933
1104,0.3850,-0.1103,1.0067,15.015,-3.745,-5.635,399,409,394,429,406,2025-06-04T21:47:41.173933
1105,0.5197,-0.0005,0.9672,29.365,-21.805,-9.940,416,426,408,426,419,2025-06-04T21:47:41.173933
1106,0.6300,-0.0742,0.9448,43.820,-34.755,-6.195,418,444,363,425,420,2025-06-04T21:47:41.173933
1107,0.7637,-0.0264,0.9721,51.975,-31.885,-0.560,419,416,381,400,411,2025-06-04T21:47:41.173933
1108,0.9365,0.0293,0.9540,51.205,-6.405,4.235,427,409,392,378,388,2025-06-04T21:47:41.173933
1109,0.9521,0.0420,0.9453,43.225,26.600,3.955,420,424,388,426,405,2025-06-04T21:47:41.173933
1110,0.8599,-0.0024,0.9711,32.865,65.345,4.305,433,436,367,417,407,2025-06-04T21:47:41.173933
1111,0.9057,-0.0634,1.0009,21.805,96.880,8.960,422,420,379,421,395,2025-06-04T21:47:41.173933
1112,0.8999,-0.1410,0.8721,21.070,127.470,14.875,397,420,368,381,401,2025-06-04T21:47:41.173933
1113,0.8799,-0.2328,0.8291,23.730,165.060,19.390,417,414,381,396,422,2025-06-04T21:47:41.173933
1114,1.0258,-0.2913,0.7579,21.315,216.195,24.815,352,387,385,415,425,2025-06-04T21:47:41.173933
1115,1.0756,-0.3265,0.7091,18.550,274.050,34.895,386,422,360,401,406,2025-06-04T21:47:41.173933
1116,1.2156,-0.3518,0.6344,12.495,357.000,45.465,403,409,345,424,415,2025-06-04T21:47:41.370381
1117,1.5426,-0.3719,0.4563,2.905,457.765,71.260,420,389,388,414,327,2025-06-04T21:47:41.370381
1118,1.5494,-0.5070,0.1493,-13.965,580.895,90.510,413,415,393,421,373,2025-06-04T21:47:41.370381
1119,1.0521,-0.6969,-0.1737,-31.185,700.980,110.915,433,411,404,413,395,2025-06-04T21:47:41.370381
1120,0.2547,-0.9282,-0.3572,-34.300,756.350,137.235,421,434,398,420,407,2025-06-04T21:47:41.370381
1121,-0.5031,-1.0619,-0.3192,-25.305,732.165,177.905,411,422,381,418,374,2025-06-04T21:47:41.370381
1122,-1.3513,-1.3117,-0.1986,-7.175,636.230,208.565,435,427,389,422,346,2025-06-04T21:47:41.370381
1123,-1.5421,-1.5284,-0.1371,35.700,505.260,244.580,322,439,417,423,380,2025-06-04T21:47:41.370381
1124,-1.8656,-1.6382,-0.0605,81.200,384.195,271.915,412,436,392,429,405,2025-06-04T21:47:41.370381
1125,-1.6870,-1.5089,0.1327,137.725,295.330,279.790,444,401,374,429,424,2025-06-04T21:47:41.370381
1126,-1.2908,-0.7910,0.3050,158.095,238.245,284.690,440,371,398,432,418,2025-06-04T21:47:41.370381
1127,-1.0770,-0.4246,0.2991,147.945,219.730,284.690,434,417,414,405,426,2025-06-04T21:47:41.370381
1128,-1.0263,0.0307,0.2294,135.345,210.280,269.115,436,389,415,423,418,2025-06-04T21:47:41.370381
1129,-0.8721,0.3206,0.0761,112.280,198.870,250.215,434,410,410,380,409,2025-06-04T21:47:41.370381
1130,-0.6832,0.4919,-0.0869,101.185,182.910,236.145,435,405,414,393,393,2025-06-04T21:47:41.370381
1131,-0.4514,0.5436,-0.2996,98.560,167.825,233.590,416,408,373,401,381,2025-06-04T21:47:41.370381
1132,-0.4680,0.7286,-0.2982,101.115,154.035,231.735,418,370,354,351,383,2025-06-04T21:47:41.370381
1133,-0.5300,1.0463,-0.1923,100.065,147.035,222.005,429,396,383,378,408,2025-06-04T21:47:41.611365
1134,-0.6095,1.3815,-0.0952,92.890,142.975,202.755,383,344,385,403,414,2025-06-04T21:47:41.611365
1135,-0.6349,1.6192,-0.0849,80.115,135.275,186.200,397,393,350,349,402,2025-06-04T21:47:41.611365
1136,-0.7964,1.6699,-0.1064,74.060,119.770,163.275,402,427,356,376,396,2025-06-04T21:47:41.611365
1137,-0.4821,1.5923,-0.2406,60.165,97.335,152.670,401,412,368,409,399,2025-06-04T21:47:41.611365
1138,-0.2528,1.7153,-0.2987,66.710,74.690,151.410,416,427,386,416,410,2025-06-04T21:47:41.611365
1139,-0.1039,1.8056,-0.2606,78.190,66.815,154.035,424,367,394,420,404,2025-06-04T21:47:41.611365
1140,0.1103,1.8954,-0.1942,74.550,55.685,157.710,418,340,361,401,407,2025-06-04T21:47:41.611365
1141,0.2259,2.0023,-0.0952,69.790,45.010,163.100,415,412,342,351,351,2025-06-04T21:47:41.611365
1142,0.6998,2.1086,-0.0166,55.720,55.720,174.965,419,417,362,390,405,2025-06-04T21:47:41.611365
1143,1.0814,2.2765,0.0420,33.145,92.470,180.950,404,393,375,409,414,2025-06-04T21:47:41.611365
1144,1.3981,2.3644,0.0874,-3.045,134.470,178.185,398,424,390,394,416,2025-06-04T21:47:41.611365
1145,1.6924,2.4483,0.1322,-30.310,162.015,166.670,428,428,392,373,407,2025-06-04T21:47:41.611365
1146,1.3615,2.2399,0.0727,-59.290,158.165,153.405,413,394,357,401,414,2025-06-04T21:47:41.611365
1147,0.3704,1.7212,-0.0830,-77.140,112.350,114.380,424,421,369,405,400,2025-06-04T21:47:41.611365
1148,-0.6349,1.1263,-0.1464,-70.455,43.400,65.135,411,406,377,399,393,2025-06-04T21:47:41.611365
1149,-0.8418,1.0570,-0.0888,-50.330,-42.175,11.445,407,402,387,413,388,2025-06-04T21:47:41.611365
1150,-0.4343,0.9960,-0.0420,-41.475,-116.200,-13.020,374,349,389,407,385,2025-06-04T21:47:41.611365
1151,-0.1298,0.9199,0.1635,-27.755,-163.940,-15.855,417,389,395,416,400,2025-06-04T21:47:41.611365
1152,0.2826,0.8764,0.1240,-24.920,-185.185,-0.595,370,417,391,417,407,2025-06-04T21:47:41.785772
1153,0.3431,0.8686,0.0805,-30.975,-175.385,16.625,415,401,397,416,416,2025-06-04T21:47:41.785772
1154,0.1464,0.7457,-0.0864,-34.405,-149.275,18.725,398,436,359,402,400,2025-06-04T21:47:41.785772
1155,0.0786,0.6739,-0.2381,-28.700,-125.230,11.690,431,395,338,350,407,2025-06-04T21:47:41.785772
1156,0.0259,0.6974,-0.2411,-28.000,-101.255,4.935,420,377,352,396,397,2025-06-04T21:47:41.785772
1157,0.0815,0.7188,-0.1386,-19.355,-82.040,-3.465,413,405,381,403,408,2025-06-04T21:47:41.785772
1158,0.1820,0.7642,-0.0273,-15.085,-66.955,-6.895,408,415,391,349,391,2025-06-04T21:47:41.785772
1159,0.2577,0.7901,0.0278,-10.570,-56.840,-5.530,422,426,398,376,397,2025-06-04T21:47:41.785772
1160,0.2694,0.7896,0.0195,-4.970,-54.040,1.260,346,416,398,390,391,2025-06-04T21:47:41.785772
1161,0.1562,0.7945,-0.0386,2.625,-57.750,7.560,405,424,359,391,400,2025-06-04T21:47:41.785772
1162,0.0317,0.8169,-0.0669,12.670,-65.450,7.805,346,369,367,345,403,2025-06-04T21:47:41.785772
1163,-0.0234,0.8511,-0.0371,19.355,-70.210,2.030,390,426,309,371,411,2025-06-04T21:47:41.785772
1164,0.0381,0.9067,-0.0063,22.890,-69.125,-5.110,412,425,344,361,404,2025-06-04T21:47:41.785772
1165,0.1469,0.9414,0.0654,22.505,-59.640,-10.605,424,433,372,387,410,2025-06-04T21:47:41.785772
1166,0.2191,0.9745,0.1142,19.215,-46.760,-12.985,432,421,377,382,394,2025-06-04T21:47:41.785772
1167,0.2352,0.9780,0.0952,16.485,-29.645,-11.375,427,350,389,403,406,2025-06-04T21:47:41.874888
1168,0.1415,0.9823,0.0756,12.005,-15.365,-9.450,364,403,383,382,392,2025-06-04T21:47:41.874888
1169,0.0249,0.9784,0.0405,10.325,-6.895,-9.660,415,414,380,305,398,2025-06-04T21:47:41.874888
1170,-0.1054,0.9721,0.0371,9.450,-4.585,-12.390,413,429,345,376,372,2025-06-04T21:47:41.874888
1171,-0.1274,0.9638,0.0620,9.555,-8.680,-13.965,427,398,375,400,387,2025-06-04T21:47:41.874888
1172,-0.1293,0.9545,0.0883,8.995,-14.770,-13.720,434,388,376,395,407,2025-06-04T21:47:41.983982
1173,-0.1147,0.9692,0.1176,9.275,-19.600,-12.460,426,377,384,416,414,2025-06-04T21:47:41.983982
1174,-0.0703,0.9882,0.1161,7.665,-21.910,-10.955,403,401,389,420,419,2025-06-04T21:47:41.983982
1175,-0.0273,0.9994,0.0669,4.585,-19.495,-7.595,416,428,360,380,396,2025-06-04T21:47:41.983982
1176,-0.0737,0.9770,0.0312,2.485,-14.035,-6.475,367,394,373,401,407,2025-06-04T21:47:41.983982
1177,-0.1108,0.9628,0.0210,1.260,-9.555,-7.560,419,395,369,411,398,2025-06-04T21:47:41.983982
1178,-0.1493,0.9423,0.0312,-0.560,-8.435,-9.205,410,400,351,392,398,2025-06-04T21:47:41.983982
1179,-0.1430,0.9521,0.0493,-0.385,-9.800,-9.415,380,422,384,384,396,2025-06-04T21:47:41.983982
1180,-0.1566,0.9648,0.0673,-1.365,-13.580,-8.820,342,435,390,408,415,2025-06-04T21:47:41.983982
1181,-0.1376,0.9560,0.0864,-0.945,-18.130,-7.910,409,434,354,365,407,2025-06-04T21:47:41.983982
1182,-0.0839,0.9555,0.0795,-1.155,-21.210,-6.055,405,409,362,381,391,2025-06-04T21:47:41.983982
1183,-0.0747,0.9511,0.0610,-3.185,-21.770,-4.585,405,424,344,382,369,2025-06-04T21:47:41.983982
1184,-0.0747,0.9409,0.0102,-3.990,-21.385,-5.215,384,410,333,397,395,2025-06-04T21:47:42.189825
1185,-0.0522,0.9536,-0.0283,-6.825,-19.495,-7.035,383,413,358,409,386,2025-06-04T21:47:42.189825
1186,-0.0381,0.9638,-0.0293,-11.795,-15.820,-8.960,372,351,371,402,411,2025-06-04T21:47:42.189825
1187,-0.0932,0.9936,0.0425,-19.390,-17.500,-11.480,413,407,389,416,411,2025-06-04T21:47:42.189825
1188,-0.0698,1.0067,0.0903,-26.600,-28.035,-12.775,406,379,395,404,415,2025-06-04T21:47:42.189825
1189,-0.0439,1.0472,0.0942,-36.260,-41.125,-10.815,399,390,393,405,397,2025-06-04T21:47:42.189825
1190,-0.0220,1.0697,0.0556,-45.535,-61.145,-9.625,399,411,388,379,403,2025-06-04T21:47:42.189825
1191,-0.0283,1.1244,0.0468,-55.440,-83.055,-11.025,403,420,360,353,382,2025-06-04T21:47:42.189825
1192,-0.0947,1.1883,0.0869,-69.580,-108.815,-19.040,405,417,377,388,349,2025-06-04T21:47:42.189825
1193,0.0805,1.1790,0.0015,-82.880,-134.155,-27.125,400,430,346,390,385,2025-06-04T21:47:42.189825
1194,0.3426,1.2044,-0.0610,-89.565,-153.195,-29.435,387,398,381,387,411,2025-06-04T21:47:42.189825
1195,0.5109,1.3596,-0.0259,-96.775,-163.765,-32.200,336,422,349,405,396,2025-06-04T21:47:42.189825
1196,0.6403,1.5338,-0.1288,-104.755,-175.070,-35.000,418,424,375,396,413,2025-06-04T21:47:42.189825
1197,0.6134,1.6875,-0.2704,-114.695,-185.640,-40.075,391,421,385,388,358,2025-06-04T21:47:42.189825
1198,0.4041,1.7514,-0.4538,-118.335,-209.090,-53.970,406,433,387,384,347,2025-06-04T21:47:42.189825
1199,0.3782,1.8139,-0.5954,-113.470,-244.160,-69.160,416,405,392,397,335,2025-06-04T21:47:42.189825
1200,0.5392,1.9208,-0.7086,-109.165,-279.930,-72.975,389,418,398,414,385,2025-06-04T21:47:42.189825
1201,0.7061,2.0862,-0.7452,-108.150,-297.920,-66.395,412,369,348,372,386,2025-06-04T21:47:42.247892
1202,0.5539,2.0960,-0.7242,-119.070,-299.845,-65.485,419,411,364,405,395,2025-06-04T21:47:42.247892
1203,0.2952,2.0374,-0.7623,-133.385,-299.880,-77.770,417,420,336,361,396,2025-06-04T21:47:42.247892
1204,0.3074,1.9735,-0.9223,-149.135,-304.150,-90.405,358,402,326,379,405,2025-06-04T21:47:42.247892
1205,0.3196,2.1091,-0.6978,-158.760,-299.285,-95.935,379,415,370,385,397,2025-06-04T21:47:42.412183
1206,0.3030,2.0193,-0.8018,-177.520,-301.035,-96.915,411,407,382,406,355,2025-06-04T21:47:42.412183
1207,0.2123,1.8442,-0.7027,-188.405,-305.585,-94.150,387,403,371,392,350,2025-06-04T21:47:42.412183
1208,-0.0620,1.6338,-0.5675,-209.230,-311.920,-98.490,401,399,372,307,381,2025-06-04T21:47:42.412183
1209,-0.2416,1.4152,-0.3372,-219.520,-326.235,-108.395,408,411,338,381,403,2025-06-04T21:47:42.412183
1210,-0.1078,1.2883,-0.1210,-227.430,-347.760,-108.675,415,342,365,398,358,2025-06-04T21:47:42.412183
1211,-0.0400,1.0995,-0.0908,-234.955,-367.920,-103.915,415,331,376,414,389,2025-06-04T21:47:42.412183
1212,0.1952,0.8262,0.0498,-253.225,-379.925,-94.850,400,359,373,401,400,2025-06-04T21:47:42.412183
1213,0.2869,0.1386,0.1625,-286.825,-380.590,-90.020,418,405,390,416,411,2025-06-04T21:47:42.412183
1214,0.6105,-0.1152,0.3884,-324.730,-364.910,-84.595,426,414,381,416,395,2025-06-04T21:47:42.412183
1215,1.2332,-0.9506,0.7486,-324.940,-328.825,-73.535,392,370,395,405,384,2025-06-04T21:47:42.412183
1216,1.4952,-1.8207,0.9877,-369.285,-270.515,-63.490,396,363,394,418,402,2025-06-04T21:47:42.412183
1217,1.5514,-2.2707,1.0106,-341.495,-222.355,-65.590,388,372,401,396,419,2025-06-04T21:47:42.412183
1218,1.5270,-2.5425,1.2966,-352.205,-171.045,-67.935,409,395,391,354,362,2025-06-04T21:47:42.412183
1219,1.4298,-2.6796,1.5069,-333.165,-130.585,-76.720,405,404,351,399,381,2025-06-04T21:47:42.459605
1220,0.7906,-2.2790,1.3732,-293.615,-106.190,-100.205,408,425,372,413,391,2025-06-04T21:47:42.459605
1221,0.6647,-1.9769,0.7784,-244.230,-116.200,-122.815,405,424,383,421,412,2025-06-04T21:47:42.459605
1222,0.6193,-1.6880,0.4387,-185.115,-128.940,-131.215,426,389,388,422,399,2025-06-04T21:47:42.459605
1223,0.6808,-1.2112,0.4143,-129.150,-107.905,-133.140,406,367,381,396,407,2025-06-04T21:47:42.513221
1224,1.0721,-0.6954,0.6173,-83.090,-67.445,-103.985,389,414,392,417,393,2025-06-04T21:47:42.513221
1225,1.1195,-0.4216,0.7071,-52.220,-21.280,-53.200,424,380,399,404,401,2025-06-04T21:47:42.513221
1226,0.9262,-0.2767,0.7837,-22.610,14.665,-4.480,401,344,392,409,412,2025-06-04T21:47:42.513221
1227,0.7910,-0.2845,0.8052,-5.495,29.400,24.640,374,393,349,408,361,2025-06-04T21:47:42.513221
1228,0.8003,-0.2772,0.8828,8.610,41.265,29.225,411,392,376,393,400,2025-06-04T21:47:42.599185
1229,0.4856,-0.2245,0.7818,12.600,51.905,10.535,384,411,378,412,395,2025-06-04T21:47:42.599185
1230,0.3928,-0.2411,0.6974,16.135,48.230,-13.160,396,419,388,420,397,2025-06-04T21:47:42.599185
1231,0.5226,-0.1889,0.6783,21.000,25.760,-15.995,413,428,361,402,397,2025-06-04T21:47:42.599185
1232,0.5309,-0.1635,0.7754,24.675,1.330,-6.545,416,313,367,419,403,2025-06-04T21:47:42.599185
1233,0.5817,-0.0961,0.8076,33.285,-19.390,6.230,409,385,389,404,406,2025-06-04T21:47:42.599185
1234,0.6525,-0.0205,0.7989,31.780,-29.715,16.870,428,430,398,357,409,2025-06-04T21:47:42.599185
1235,0.7154,-0.0869,0.7784,30.905,-28.490,21.805,408,429,392,406,381,2025-06-04T21:47:42.681627
1236,0.6964,-0.0473,0.8135,30.590,-21.035,19.530,425,420,390,418,406,2025-06-04T21:47:42.681627
1237,0.6647,-0.0869,0.8296,27.475,-14.140,16.240,434,428,391,399,420,2025-06-04T21:47:42.681627
1238,0.8135,-0.1279,0.8369,33.425,-8.925,16.730,404,430,394,421,413,2025-06-04T21:47:42.681627
1239,1.0643,-0.1249,0.8189,36.645,19.530,22.855,346,406,400,425,416,2025-06-04T21:47:42.804922
1240,1.1497,-0.1810,0.8574,35.000,74.690,26.950,346,401,383,399,412,2025-06-04T21:47:42.804922
1241,1.1556,-0.2738,0.8418,32.830,141.330,30.625,361,407,387,412,405,2025-06-04T21:47:42.804922
1242,1.2029,-0.3065,0.7828,29.575,191.555,43.540,403,407,384,398,379,2025-06-04T21:47:42.804922
1243,1.4098,-0.3675,0.6900,32.865,255.500,70.770,407,398,391,415,400,2025-06-04T21:47:42.804922
1244,1.3654,-0.4817,0.6651,34.090,330.295,82.740,418,414,390,405,357,2025-06-04T21:47:42.804922
1245,1.1492,-0.7052,0.5344,33.530,414.400,89.670,421,405,395,401,410,2025-06-04T21:47:42.804922
1246,0.7964,-0.9184,0.4778,40.250,482.265,94.885,408,402,390,368,367,2025-06-04T21:47:42.804922
1247,0.5968,-1.0692,0.3650,46.725,519.330,114.660,431,403,395,409,346,2025-06-04T21:47:42.804922
1248,0.3040,-1.1112,0.3582,60.235,527.345,146.125,409,397,402,413,391,2025-06-04T21:47:42.804922
1249,-0.1947,-1.1653,0.4592,72.625,515.900,174.090,429,395,386,423,412,2025-06-04T21:47:42.804922
1250,-0.5402,-1.1312,0.4285,94.430,471.380,192.430,357,427,402,430,426,2025-06-04T21:47:42.804922
1251,-0.7623,-1.1263,0.4246,119.665,401.555,218.400,423,430,368,363,402,2025-06-04T21:47:42.969519
1252,-0.8564,-1.0565,0.4719,146.860,333.025,242.130,419,413,383,405,409,2025-06-04T21:47:43.042866
1253,-0.9550,-0.8633,0.5529,163.100,291.130,248.815,423,396,386,402,367,2025-06-04T21:47:43.042866
