SeqNum,AccX,AccY,AccZ,GyroX,GyroY,GyroZ,Flex,Force1,Force2,Force3,Force4,TimestampReception
1,0.0000,0.0000,0.0000,8.960,-14.070,3.780,462,367,350,385,390,2025-05-24T00:03:25.835250
2,-0.7808,0.3479,-0.4046,-25.900,37.520,-21.070,424,390,341,340,355,2025-05-24T00:03:25.835347
3,-0.7047,0.3518,-0.3401,-31.570,46.900,-27.020,420,411,358,384,383,2025-05-24T00:03:25.835369
4,-0.6715,0.3748,-0.3338,-44.590,66.360,-31.850,421,421,375,401,387,2025-05-24T00:03:25.835381
5,-0.6939,0.3167,-0.4319,-48.230,82.880,-30.100,417,418,393,391,401,2025-05-24T00:03:25.835391
6,-0.7232,0.2830,-0.4646,-47.180,91.070,-25.270,419,403,393,386,371,2025-05-24T00:03:25.835403
7,-0.7998,0.2669,-0.4934,-41.370,97.510,-21.560,414,384,389,405,385,2025-05-24T00:03:25.835413
8,-0.9858,0.3113,-0.4953,-31.570,88.480,-22.470,430,394,315,386,389,2025-05-24T00:03:25.835422
9,-0.9638,0.2908,-0.5685,-25.900,59.500,-27.790,423,340,340,371,390,2025-05-24T00:03:25.835431
10,-0.8438,0.3035,-0.5880,-38.850,53.410,-31.850,408,396,332,346,393,2025-05-24T00:03:25.835445
11,-0.8179,0.3323,-0.5944,-41.720,42.840,-27.300,419,381,361,332,395,2025-05-24T00:03:25.835455
12,-0.8174,0.3670,-0.6085,-42.840,46.060,-27.510,400,401,376,338,401,2025-05-24T00:03:25.835465
13,-0.7613,0.3304,-0.5241,-40.180,29.470,-20.720,416,423,381,388,399,2025-05-24T00:03:25.835474
14,-0.8355,0.3235,-0.5324,-46.200,19.110,-13.160,345,377,382,341,413,2025-05-24T00:03:25.835483
15,-0.8843,0.2557,-0.5544,-19.460,26.040,-8.960,392,397,388,372,354,2025-05-24T00:03:25.835491
16,-0.8218,0.3128,-0.5817,-26.740,-4.550,-5.600,421,419,380,384,344,2025-05-24T00:03:25.835535
17,-0.7627,0.2059,-0.7154,-23.170,56.490,-4.830,380,347,392,408,292,2025-05-24T00:03:25.835546
18,-0.7525,0.2650,-0.5749,16.800,15.960,-3.290,404,425,348,400,359,2025-05-24T00:03:25.835556
19,-0.7681,0.2757,-0.5924,17.780,-18.830,4.340,421,421,324,355,373,2025-05-24T00:03:25.835564
20,-0.7393,0.2591,-0.6339,3.780,35.210,6.300,426,383,352,351,372,2025-05-24T00:03:25.835573
21,-0.7471,0.2943,-0.6061,-1.680,39.900,5.320,306,412,364,405,388,2025-05-24T00:03:25.835582
22,-0.7325,0.2874,-0.6041,14.280,27.090,1.610,335,401,367,418,388,2025-05-24T00:03:26.003433
23,-0.7154,0.2538,-0.6656,28.420,8.120,-0.910,381,417,333,403,382,2025-05-24T00:03:26.003484
24,-0.6895,0.2298,-0.6993,39.970,-5.880,5.320,403,421,367,401,399,2025-05-24T00:03:26.003514
25,-0.6944,0.2577,-0.6739,49.070,-9.170,14.000,401,398,386,398,411,2025-05-24T00:03:26.003529
26,-0.7310,0.3035,-0.5671,52.010,-0.210,14.420,404,385,385,413,389,2025-05-24T00:03:26.003542
27,-0.7715,0.3206,-0.5197,45.920,15.610,6.650,396,429,385,422,395,2025-05-24T00:03:26.003554
28,-0.8472,0.3489,-0.4724,36.120,23.590,2.660,387,429,389,430,413,2025-05-24T00:03:26.003566
29,-0.9179,0.2991,-0.5036,23.520,14.700,-1.820,399,409,384,360,403,2025-05-24T00:03:26.003576
30,-0.8906,0.2503,-0.5290,15.400,8.050,-3.780,392,401,389,400,409,2025-05-24T00:03:26.003590
31,-0.7930,0.2455,-0.5470,15.400,2.870,-0.280,382,423,387,393,390,2025-05-24T00:03:26.003603
32,-0.7169,0.2523,-0.5490,22.890,6.020,7.770,340,414,388,346,392,2025-05-24T00:03:26.003614
33,-0.7442,0.2430,-0.5407,34.160,5.530,13.440,385,414,393,388,355,2025-05-24T00:03:26.003623
34,-0.7457,0.2957,-0.5597,35.210,4.130,15.190,403,416,354,356,383,2025-05-24T00:03:26.003632
35,-0.7383,0.2991,-0.5348,22.890,9.030,11.620,402,346,338,337,390,2025-05-24T00:03:26.003641
36,-0.7574,0.2865,-0.5422,14.210,19.180,3.500,355,403,356,374,400,2025-05-24T00:03:26.003651
37,-0.7281,0.2313,-0.6022,15.470,27.370,-0.280,409,428,367,377,393,2025-05-24T00:03:26.381674
38,-0.7852,0.2674,-0.6915,7.070,41.930,-2.100,422,430,389,333,380,2025-05-24T00:03:26.381753
39,-0.7691,0.2669,-0.6871,1.120,41.720,-3.640,382,427,386,381,395,2025-05-24T00:03:26.381766
40,-0.7603,0.2762,-0.7120,-2.520,30.240,-4.270,403,415,382,405,405,2025-05-24T00:03:26.381777
41,-0.7481,0.1308,-0.7471,-4.900,15.190,-4.410,395,394,392,394,365,2025-05-24T00:03:26.381787
42,-0.7296,0.2176,-0.7193,2.240,-0.280,-4.270,390,420,397,401,387,2025-05-24T00:03:26.381801
43,-0.6769,0.2396,-0.7320,12.740,-21.350,-5.600,387,406,395,400,402,2025-05-24T00:03:26.381811
44,-0.6398,0.2499,-0.7320,22.890,-30.940,-7.560,403,405,385,384,409,2025-05-24T00:03:26.381820
45,-0.6573,0.2704,-0.7100,28.980,-34.790,-8.260,408,389,382,399,388,2025-05-24T00:03:26.381834
46,-0.6783,0.2777,-0.6959,27.860,-40.110,-6.370,423,391,372,421,403,2025-05-24T00:03:26.381844
47,-0.6773,0.2640,-0.6974,18.900,-35.070,0.140,403,398,373,420,407,2025-05-24T00:03:26.381852
48,-0.7447,0.2094,-0.6686,16.660,-35.840,7.490,397,413,376,415,403,2025-05-24T00:03:26.381861
49,-0.8589,0.1498,-0.6617,26.530,-56.210,10.990,416,358,385,405,403,2025-05-24T00:03:26.381870
50,-0.8808,0.1947,-0.6110,37.800,-81.060,15.190,410,410,380,409,409,2025-05-24T00:03:26.381878
51,-0.8184,0.2367,-0.6188,50.260,-96.040,23.030,401,420,388,404,394,2025-05-24T00:03:26.381887
52,-0.8008,0.2528,-0.6256,51.870,-98.770,33.110,388,383,382,415,384,2025-05-24T00:03:26.381952
53,-0.7462,0.2289,-0.6022,42.770,-89.320,34.650,394,400,374,414,407,2025-05-24T00:03:26.381961
54,-0.8125,0.2050,-0.5192,35.210,-69.440,32.200,409,398,342,418,393,2025-05-24T00:03:26.381971
55,-0.8545,0.2142,-0.4729,37.520,-54.600,28.210,387,418,372,357,373,2025-05-24T00:03:26.381980
56,-0.8828,0.1854,-0.4543,18.690,-53.830,21.700,416,399,375,376,381,2025-05-24T00:03:26.381988
57,-0.8481,0.1981,-0.4787,34.300,-56.840,11.480,403,387,340,391,392,2025-05-24T00:03:26.628616
58,-0.7164,0.2347,-0.5080,31.290,-44.170,4.410,365,392,326,347,404,2025-05-24T00:03:26.628675
59,-0.7154,0.2723,-0.5700,23.380,-35.000,-3.920,388,426,325,393,390,2025-05-24T00:03:26.628693
60,-0.6173,0.3484,-0.5236,-1.330,-16.170,-11.690,419,428,363,412,403,2025-05-24T00:03:26.628705
61,-0.6285,0.3265,-0.5612,-32.830,6.300,-17.570,342,413,380,398,412,2025-05-24T00:03:26.628716
62,-0.6734,0.2655,-0.5656,-60.270,28.070,-19.040,335,420,373,418,408,2025-05-24T00:03:26.628729
63,-0.8130,0.1571,-0.5651,-64.750,39.900,-18.760,385,411,366,313,388,2025-05-24T00:03:26.628739
64,-0.8886,0.1610,-0.5100,-57.120,34.440,-18.200,421,389,373,382,400,2025-05-24T00:03:26.628748
65,-0.7901,0.2918,-0.5056,-51.660,23.870,-12.670,416,419,382,395,398,2025-05-24T00:03:26.628757
66,-0.7257,0.3694,-0.5666,-67.970,32.200,-5.600,368,346,382,349,395,2025-05-24T00:03:26.628768
67,-0.6505,0.3587,-0.5939,-93.870,62.090,-3.780,410,336,379,378,356,2025-05-24T00:03:26.628781
68,-0.6617,0.3216,-0.6080,-116.620,85.120,-0.560,343,370,374,344,379,2025-05-24T00:03:26.628789
69,-0.6891,0.3148,-0.6222,-115.640,105.350,0.560,410,395,384,397,395,2025-05-24T00:03:26.628798
70,-0.9526,0.2001,-0.5944,-106.470,88.130,-5.460,411,414,388,360,396,2025-05-24T00:03:26.628807
71,-0.9096,0.2050,-0.6041,-103.670,56.000,-15.260,395,419,374,382,405,2025-05-24T00:03:26.628816
72,-0.7481,0.2816,-0.5646,-54.950,39.200,-11.760,414,418,355,403,406,2025-05-24T00:03:26.628858
73,-0.6954,0.3577,-0.5061,-35.910,40.530,-4.270,344,405,357,416,371,2025-05-24T00:03:26.628867
74,-0.7257,0.3616,-0.4719,-29.050,41.930,-2.310,398,398,378,422,383,2025-05-24T00:03:26.628879
75,-0.7335,0.3279,-0.4807,-21.210,21.070,-3.430,393,400,378,424,347,2025-05-24T00:03:26.729682
76,-0.7237,0.2645,-0.5685,-4.130,-3.570,-9.870,394,408,373,402,385,2025-05-24T00:03:26.729739
77,-0.6666,0.2669,-0.6198,11.970,-4.550,-14.420,404,411,381,409,402,2025-05-24T00:03:26.729754
78,-0.7188,0.2874,-0.6412,19.950,6.650,-13.510,397,420,351,351,408,2025-05-24T00:03:26.729771
79,-0.7652,0.3035,-0.6608,18.060,19.600,-10.850,418,416,374,390,407,2025-05-24T00:03:26.729783
80,-0.8447,0.3250,-0.7056,7.630,29.190,-11.620,426,418,376,410,410,2025-05-24T00:03:26.729795
81,-0.8125,0.3484,-0.6934,-2.380,38.430,-15.050,365,430,386,411,400,2025-05-24T00:03:26.729828
82,-0.7779,0.3318,-0.6969,-2.660,41.860,-16.030,414,410,389,399,408,2025-05-24T00:03:26.729839
83,-0.7359,0.3338,-0.6773,-5.040,34.860,-7.700,419,403,379,407,401,2025-05-24T00:03:26.729852
84,-0.7457,0.3133,-0.6934,-9.520,49.000,0.000,397,422,388,400,408,2025-05-24T00:03:26.729862
85,-0.8359,0.2816,-0.7637,-4.760,45.430,6.440,409,412,349,407,397,2025-05-24T00:03:26.729873
86,-0.8969,0.2708,-0.6978,-24.990,22.680,8.260,419,390,295,411,408,2025-05-24T00:03:26.729883
87,-0.8555,0.2225,-0.7671,-10.360,7.700,5.810,407,411,331,391,393,2025-05-24T00:03:26.733745
88,-0.7784,0.3177,-0.6681,-10.360,-9.590,13.020,427,402,362,389,393,2025-05-24T00:03:26.733787
89,-0.7608,0.3001,-0.6817,7.980,-5.950,14.000,389,402,374,357,387,2025-05-24T00:03:26.733798
90,-0.7159,0.3045,-0.6388,4.340,5.250,15.120,403,422,371,393,389,2025-05-24T00:03:26.733808
91,-0.6871,0.3055,-0.6183,1.750,-0.700,18.340,392,360,384,387,384,2025-05-24T00:03:26.733868
92,-0.7408,0.2889,-0.6217,5.110,-10.500,19.880,417,405,389,397,395,2025-05-24T00:03:26.733879
93,-0.7183,0.3035,-0.6139,8.610,-23.380,18.410,430,422,392,363,383,2025-05-24T00:03:26.733887
94,-0.7335,0.2743,-0.5905,10.150,-38.570,18.340,406,415,344,396,365,2025-05-24T00:03:26.733897
95,-0.6700,0.2811,-0.5832,19.110,-53.690,21.210,416,412,367,404,341,2025-05-24T00:03:26.733910
96,-0.5841,0.3597,-0.5661,14.700,-42.700,23.800,426,425,380,402,344,2025-05-24T00:03:26.733918
97,-0.6700,0.3475,-0.5661,2.520,-22.610,17.920,426,429,343,409,393,2025-05-24T00:03:26.819388
98,-0.7608,0.2850,-0.5836,-1.750,-19.670,9.310,403,416,322,423,398,2025-05-24T00:03:26.819437
99,-0.7720,0.2894,-0.6124,10.430,-19.390,11.270,399,403,356,417,401,2025-05-24T00:03:26.819451
100,-0.8042,0.2991,-0.6188,21.490,-22.540,17.010,393,418,365,400,353,2025-05-24T00:03:26.819462
101,-0.7906,0.2918,-0.6173,18.410,-23.520,15.400,405,401,368,401,379,2025-05-24T00:03:26.819473
102,-0.7462,0.2991,-0.6539,16.870,-41.930,13.160,394,424,383,411,390,2025-05-24T00:03:26.819501
103,-0.6725,0.3133,-0.6715,15.890,-51.450,9.940,421,348,384,400,387,2025-05-24T00:03:26.819510
104,-0.6085,0.3177,-0.6544,12.740,-52.080,2.520,394,408,391,395,397,2025-05-24T00:03:26.819521
105,-0.5827,0.3875,-0.6300,16.450,-52.290,-4.690,398,398,383,406,410,2025-05-24T00:03:27.074262
106,-0.5817,0.3689,-0.6202,8.190,-54.110,-6.020,423,408,393,407,402,2025-05-24T00:03:27.074314
107,-0.6481,0.3104,-0.6520,-0.280,-47.110,-6.580,392,377,387,410,414,2025-05-24T00:03:27.074327
108,-0.6988,0.2801,-0.6251,-7.140,-47.950,-9.590,395,410,383,407,407,2025-05-24T00:03:27.074339
109,-0.7549,0.2708,-0.6261,4.480,-60.130,-9.870,390,400,385,348,309,2025-05-24T00:03:27.074368
110,-0.7466,0.3011,-0.5988,18.970,-72.520,-8.470,407,418,374,330,332,2025-05-24T00:03:27.074382
111,-0.6656,0.3523,-0.5056,26.880,-79.940,-2.520,407,397,382,379,384,2025-05-24T00:03:27.074392
112,-0.6749,0.3826,-0.4714,22.890,-82.250,-0.630,389,424,384,365,380,2025-05-24T00:03:27.074402
113,-0.7325,0.3235,-0.4768,21.630,-92.470,-7.840,353,413,377,379,388,2025-05-24T00:03:27.074412
114,-0.7471,0.2943,-0.5412,21.980,-105.210,-8.750,416,366,373,405,378,2025-05-24T00:03:27.074428
115,-0.7779,0.2225,-0.5617,40.040,-100.520,-1.260,355,394,392,359,390,2025-05-24T00:03:27.074438
116,-0.8023,0.2015,-0.5641,71.540,-87.150,11.620,334,349,390,390,390,2025-05-24T00:03:27.074448
117,-0.8506,0.2635,-0.5065,85.820,-62.160,17.430,394,366,376,383,380,2025-05-24T00:03:27.074465
118,-0.7681,0.3958,-0.4709,55.090,-41.020,5.040,400,337,378,401,386,2025-05-24T00:03:27.074475
119,-0.7984,0.3260,-0.5041,36.400,-28.700,-4.760,300,407,372,352,364,2025-05-24T00:03:27.074516
120,-0.7984,0.2874,-0.4504,19.950,1.190,-8.610,320,392,379,378,384,2025-05-24T00:03:27.074526
121,-0.9565,0.2542,-0.4250,13.160,31.780,-7.980,384,378,388,363,396,2025-05-24T00:03:27.074538
122,-1.1034,0.2137,-0.4133,15.120,24.570,-6.860,334,373,386,386,397,2025-05-24T00:03:27.249039
123,-1.1019,0.1820,-0.4607,14.210,-1.960,-1.190,403,412,362,346,388,2025-05-24T00:03:27.249080
124,-0.9736,0.2386,-0.4485,13.230,-27.160,2.800,387,388,373,381,410,2025-05-24T00:03:27.249105
125,-0.8384,0.2747,-0.4836,4.060,-27.510,0.630,392,394,347,381,408,2025-05-24T00:03:27.249115
126,-0.8008,0.3084,-0.5061,-5.110,-35.490,-9.240,353,400,369,398,357,2025-05-24T00:03:27.249125
127,-0.7993,0.2923,-0.6100,-13.790,-41.720,-13.020,413,420,389,409,382,2025-05-24T00:03:27.249135
128,-0.7110,0.2982,-0.5924,-18.060,-31.150,-15.540,359,423,384,415,386,2025-05-24T00:03:27.249144
129,-0.7305,0.3006,-0.5675,-21.840,-30.100,-19.320,384,436,375,416,395,2025-05-24T00:03:27.249153
130,-0.7769,0.2533,-0.5353,-24.780,-32.410,-25.270,402,434,389,390,407,2025-05-24T00:03:27.249165
131,-0.9043,0.2201,-0.5553,-17.710,-45.850,-28.420,400,375,363,392,403,2025-05-24T00:03:27.249177
132,-0.7525,0.2318,-0.4865,-1.400,-61.810,-25.830,395,396,381,401,398,2025-05-24T00:03:27.249186
133,-0.8316,0.2991,-0.4041,-1.820,-66.570,-20.860,408,375,340,372,410,2025-05-24T00:03:27.249194
134,-0.8369,0.2762,-0.3538,-7.420,-55.930,-20.720,407,419,362,385,377,2025-05-24T00:03:27.249202
135,-0.8374,0.2811,-0.3572,-10.290,-45.220,-21.490,395,420,384,400,299,2025-05-24T00:03:27.249210
136,-0.9199,0.2460,-0.3460,-10.920,-39.130,-24.500,418,399,385,390,323,2025-05-24T00:03:27.249342
137,-0.9916,0.2362,-0.3304,-8.260,-43.120,-23.800,396,342,352,360,332,2025-05-24T00:03:27.249353
138,-1.0048,0.1947,-0.3192,-6.300,-46.620,-18.970,382,390,378,385,298,2025-05-24T00:03:27.249365
139,-0.9492,0.1918,-0.3504,1.400,-42.000,-18.760,415,401,377,371,288,2025-05-24T00:03:27.249373
140,-0.9506,0.2079,-0.3284,1.820,-31.290,-21.350,396,355,378,367,234,2025-05-24T00:03:27.249382
141,-0.8838,0.2479,-0.3001,0.910,-22.750,-23.520,401,385,369,366,262,2025-05-24T00:03:27.431707
142,-0.8691,0.2874,-0.2777,-3.150,-19.320,-23.520,400,408,338,361,191,2025-05-24T00:03:27.431749
143,-0.8164,0.2523,-0.3245,-3.780,-18.060,-26.040,397,417,364,367,179,2025-05-24T00:03:27.431761
144,-0.8052,0.2342,-0.3333,-10.150,-12.110,-30.660,414,385,370,343,201,2025-05-24T00:03:27.431770
145,-0.8384,0.1786,-0.3445,-11.900,-9.800,-35.070,408,411,377,346,157,2025-05-24T00:03:27.431797
146,-0.8926,0.1698,-0.3509,-2.730,-14.000,-35.700,406,438,392,324,173,2025-05-24T00:03:27.431806
147,-0.9321,0.1825,-0.3709,3.500,-18.760,-38.570,414,386,398,354,187,2025-05-24T00:03:27.431815
148,-0.8945,0.2015,-0.3577,5.250,-21.420,-35.490,373,391,393,333,176,2025-05-24T00:03:27.431824
149,-0.7178,0.1996,-0.2850,-9.940,0.280,-27.300,386,411,379,288,172,2025-05-24T00:03:27.431832
150,-1.0629,0.1420,-0.3509,-29.960,41.860,-29.680,393,402,385,351,205,2025-05-24T00:03:27.431843
151,-1.1610,0.1118,-0.3875,-13.930,19.320,-23.590,390,424,314,372,193,2025-05-24T00:03:27.431852
152,-1.1180,0.1313,-0.4046,1.400,-27.580,-14.420,386,426,358,342,255,2025-05-24T00:03:27.431869
153,-0.9740,0.1786,-0.4046,-2.450,-38.850,-8.890,421,407,375,335,334,2025-05-24T00:03:27.431877
154,-0.9223,0.2050,-0.3636,-12.740,-42.630,-0.490,409,428,379,402,393,2025-05-24T00:03:27.431885
155,-0.9414,0.1928,-0.3196,-19.250,-42.280,-3.990,426,373,374,424,412,2025-05-24T00:03:27.432124
156,-0.8950,0.1928,-0.2484,-16.800,-27.160,-7.280,430,401,386,378,316,2025-05-24T00:03:27.638940
157,-0.9414,0.1630,-0.2377,-5.810,-21.560,-3.290,434,367,372,381,357,2025-05-24T00:03:27.638981
158,-0.9770,0.1542,-0.2264,2.660,-13.580,-3.990,419,413,369,400,352,2025-05-24T00:03:27.638993
159,-1.0082,0.1552,-0.2367,12.530,-17.150,-7.140,381,416,340,413,385,2025-05-24T00:03:27.639016
160,-0.9550,0.1713,-0.2342,16.380,-19.740,-7.280,405,398,373,354,403,2025-05-24T00:03:27.639026
161,-0.9697,0.1513,-0.2357,12.950,-20.580,0.700,404,374,337,389,398,2025-05-24T00:03:27.639038
162,-0.9858,0.1249,-0.2523,16.590,-31.150,4.060,401,395,322,402,376,2025-05-24T00:03:27.639048
163,-0.9267,0.1161,-0.3035,12.180,-34.090,1.960,406,396,316,420,407,2025-05-24T00:03:27.639057
164,-0.9355,0.1249,-0.3304,1.470,-34.650,-6.370,393,415,345,428,411,2025-05-24T00:03:27.639068
165,-0.9209,0.1703,-0.3460,-5.320,-19.880,-5.810,385,407,357,407,409,2025-05-24T00:03:27.639077
166,-0.9501,0.1308,-0.3401,-2.100,-18.410,-7.000,411,412,362,409,397,2025-05-24T00:03:27.639088
167,-0.9628,0.1181,-0.3206,1.750,-22.470,-6.370,426,407,380,371,399,2025-05-24T00:03:27.639096
168,-0.9389,0.1430,-0.3211,11.130,-23.380,-3.430,418,436,371,333,385,2025-05-24T00:03:27.639104
169,-0.9755,0.1542,-0.2972,13.230,-24.850,-2.450,412,379,374,371,388,2025-05-24T00:03:27.639112
170,-0.9643,0.1840,-0.2611,10.920,-27.930,2.170,413,395,380,395,389,2025-05-24T00:03:27.639157
171,-0.9677,0.1781,-0.2528,4.410,-28.420,2.590,394,406,351,403,394,2025-05-24T00:03:27.639165
172,-0.9389,0.1810,-0.2455,-0.980,-24.850,2.800,416,394,366,411,371,2025-05-24T00:03:27.639342
173,-0.9345,0.1698,-0.2474,-2.450,-18.900,3.500,391,405,360,401,339,2025-05-24T00:03:27.872719
174,-0.9536,0.1654,-0.2645,-2.590,-20.580,2.590,331,423,366,363,332,2025-05-24T00:03:27.872762
175,-0.9604,0.1698,-0.2455,-0.210,-25.620,3.780,335,434,366,360,302,2025-05-24T00:03:27.872773
176,-0.9521,0.1503,-0.2508,5.110,-23.240,6.300,406,412,375,379,292,2025-05-24T00:03:27.872782
177,-0.9833,0.1537,-0.2381,5.040,-17.990,8.400,399,401,379,393,262,2025-05-24T00:03:27.872790
178,-1.0165,0.1347,-0.2381,2.800,-17.080,10.360,343,387,372,397,271,2025-05-24T00:03:27.872798
179,-1.0087,0.1576,-0.2342,4.410,-19.810,13.720,382,407,372,355,209,2025-05-24T00:03:27.872819
180,-0.9916,0.1786,-0.2059,4.690,-16.800,17.010,401,391,362,343,172,2025-05-24T00:03:27.872830
181,-0.9775,0.1664,-0.2098,4.760,-10.080,17.570,358,410,377,287,146,2025-05-24T00:03:27.872838
182,-0.9828,0.1874,-0.1937,-0.910,-1.400,15.680,287,424,373,309,143,2025-05-24T00:03:27.872845
183,-0.9667,0.1918,-0.1786,-5.880,-1.820,12.320,356,431,369,295,127,2025-05-24T00:03:27.872853
184,-0.9565,0.1518,-0.1947,-7.210,-10.640,12.460,413,433,339,313,144,2025-05-24T00:03:27.872860
185,-0.9472,0.1254,-0.2098,-6.860,-17.500,15.890,359,411,354,320,139,2025-05-24T00:03:27.872867
186,-0.9560,0.0888,-0.2069,-6.160,-18.760,11.340,399,346,337,303,138,2025-05-24T00:03:27.872874
187,-0.9433,0.1152,-0.2030,9.100,-20.440,7.350,338,402,330,278,137,2025-05-24T00:03:27.872906
188,-0.9257,0.1405,-0.2225,16.590,-14.910,10.640,382,409,357,292,146,2025-05-24T00:03:27.872914
189,-0.9228,0.1825,-0.1518,15.820,3.010,13.020,337,431,332,280,133,2025-05-24T00:03:27.872922
190,-0.9472,0.1908,-0.1903,11.410,24.080,11.760,389,439,377,372,297,2025-05-24T00:03:28.057618
191,-1.0248,0.1513,-0.2089,2.450,5.810,8.960,421,444,399,440,447,2025-05-24T00:03:28.057844
192,-0.8945,0.1576,-0.2908,-1.680,17.360,3.360,403,441,387,443,467,2025-05-24T00:03:28.057858
193,-0.9018,0.1654,-0.2357,0.420,18.340,10.080,346,411,388,422,499,2025-05-24T00:03:28.057868
194,-0.8921,0.1928,-0.1913,0.560,26.460,6.300,406,406,393,410,545,2025-05-24T00:03:28.057878
195,-0.9340,0.1957,-0.1781,-5.810,32.550,-2.730,397,432,403,399,546,2025-05-24T00:03:28.057902
196,-1.0360,0.1313,-0.1771,0.210,24.640,-11.270,428,314,389,398,548,2025-05-24T00:03:28.057912
197,-1.0238,0.1625,-0.2020,1.540,12.810,-11.900,351,390,365,404,539,2025-05-24T00:03:28.057922
198,-1.0414,0.1288,-0.2386,6.510,8.890,-8.330,406,406,384,414,521,2025-05-24T00:03:28.057932
199,-1.0321,0.1283,-0.2523,11.060,-1.890,-7.140,421,428,349,397,522,2025-05-24T00:03:28.057941
200,-1.0058,0.1654,-0.2479,17.850,-6.720,-4.620,389,427,366,418,609,2025-05-24T00:03:28.057950
201,-0.9823,0.1962,-0.2469,15.400,-5.810,-3.290,387,410,343,474,603,2025-05-24T00:03:28.263766
202,-0.9740,0.2235,-0.2474,0.490,2.940,-4.130,412,408,343,500,591,2025-05-24T00:03:28.263797
203,-0.9838,0.2469,-0.2323,-15.750,-1.680,-5.670,422,357,356,540,590,2025-05-24T00:03:28.263809
204,-0.9545,0.2128,-0.2650,-32.340,-4.270,-9.100,381,386,365,559,603,2025-05-24T00:03:28.263881
205,-0.9370,0.1781,-0.2640,-42.000,-5.390,-5.950,387,398,346,568,612,2025-05-24T00:03:28.263905
206,-0.8799,0.1893,-0.2762,-46.690,1.330,-4.340,396,361,354,437,420,2025-05-24T00:03:28.263916
207,-0.9052,0.1557,-0.2840,-41.930,6.440,-7.840,370,356,336,330,282,2025-05-24T00:03:28.263927
208,-0.8789,0.2045,-0.2660,-33.950,15.400,-8.540,406,407,324,319,293,2025-05-24T00:03:28.263936
209,-0.9218,0.1908,-0.2796,-36.190,21.700,-11.060,402,432,308,331,260,2025-05-24T00:03:28.263946
210,-0.9677,0.1986,-0.2377,-41.930,18.690,-11.200,390,421,266,310,294,2025-05-24T00:03:28.263956
211,-1.0019,0.1771,-0.2586,-44.940,10.360,-7.280,363,433,300,334,288,2025-05-24T00:03:28.263966
212,-1.0189,0.1845,-0.2650,-41.790,1.260,-5.040,395,398,268,283,262,2025-05-24T00:03:28.263980
213,-1.0043,0.1718,-0.2752,-36.190,-13.440,-1.610,384,415,294,305,170,2025-05-24T00:03:28.263990
214,-0.8901,0.1205,-0.2782,-33.040,-21.350,-6.720,390,408,309,295,128,2025-05-24T00:03:28.263999
215,-0.8926,0.2133,-0.2430,-29.050,-18.130,-9.800,385,406,321,280,82,2025-05-24T00:03:28.264008
216,-0.8989,0.1679,-0.2879,-19.180,-12.880,-12.600,346,399,344,281,108,2025-05-24T00:03:28.264016
217,-0.9238,0.1903,-0.2484,-12.250,-7.140,-12.950,410,350,353,276,96,2025-05-24T00:03:28.264025
218,-0.9609,0.1684,-0.2528,-9.310,3.010,-11.760,417,383,360,268,120,2025-05-24T00:03:28.264034
219,-0.9848,0.1889,-0.2035,-7.980,-0.210,-10.920,420,376,374,252,127,2025-05-24T00:03:28.264063
220,-1.0116,0.1640,-0.2435,-12.810,-5.180,-10.710,416,416,347,258,159,2025-05-24T00:03:28.264073
221,-1.0106,0.1410,-0.2738,-12.320,-10.080,-8.050,399,420,328,275,193,2025-05-24T00:03:28.264083
222,-1.0224,0.1220,-0.2977,-8.120,-11.690,-3.430,397,412,321,243,252,2025-05-24T00:03:28.264091
223,-1.0170,0.1854,-0.2474,5.880,-19.040,-3.990,400,423,353,328,229,2025-05-24T00:03:28.264100
224,-0.9726,0.2001,-0.2762,0.910,-9.800,-5.810,426,405,347,327,298,2025-05-24T00:03:28.264111
225,-1.0111,0.1957,-0.2806,-10.360,5.460,-7.910,416,405,362,343,302,2025-05-24T00:03:28.415762
226,-1.0565,0.1713,-0.2826,-15.820,1.610,-5.460,369,410,352,302,291,2025-05-24T00:03:28.415840
227,-1.0497,0.1649,-0.2518,-17.220,1.470,-0.490,398,424,322,218,304,2025-05-24T00:03:28.415854
228,-1.0233,0.1659,-0.2699,-22.120,1.890,2.870,419,398,350,322,267,2025-05-24T00:03:28.415865
229,-0.9731,0.1752,-0.2928,-23.520,1.610,4.760,342,423,348,244,265,2025-05-24T00:03:28.415876
230,-0.9140,0.2054,-0.3094,-28.980,14.000,6.580,372,386,322,310,340,2025-05-24T00:03:28.415887
231,-0.9130,0.2006,-0.2752,-34.510,28.210,9.870,350,393,338,294,344,2025-05-24T00:03:28.415897
232,-0.9687,0.1440,-0.2704,-22.330,41.230,10.570,405,427,365,277,358,2025-05-24T00:03:28.415906
233,-1.0141,0.1923,-0.2279,-21.280,33.810,12.250,409,433,376,336,357,2025-05-24T00:03:28.415920
234,-1.0321,0.1947,-0.1903,-20.510,24.640,13.300,339,409,385,326,363,2025-05-24T00:03:28.415930
235,-1.0004,0.1893,-0.1967,-19.670,10.780,16.380,380,382,379,336,360,2025-05-24T00:03:28.415940
236,-1.0224,0.1815,-0.2796,-15.610,0.490,19.670,392,395,379,338,368,2025-05-24T00:03:28.415949
237,-0.9540,0.1854,-0.2884,-7.210,-3.710,16.030,418,343,370,339,368,2025-05-24T00:03:28.415960
238,-0.9501,0.2157,-0.2630,2.730,-7.280,12.180,375,379,366,300,279,2025-05-24T00:03:28.691709
239,-0.9379,0.2508,-0.2298,1.750,-5.320,13.160,349,337,359,293,334,2025-05-24T00:03:28.691760
240,-0.9111,0.2557,-0.2264,-2.450,-1.050,15.190,329,376,374,205,351,2025-05-24T00:03:28.691796
241,-0.9043,0.2640,-0.2152,-10.990,5.880,18.060,372,352,384,159,365,2025-05-24T00:03:28.691812
242,-0.8916,0.2674,-0.2352,-19.110,16.170,20.020,393,380,348,191,381,2025-05-24T00:03:28.691824
243,-0.9062,0.2577,-0.2455,-26.250,21.840,17.220,393,423,355,208,382,2025-05-24T00:03:28.691836
244,-0.9199,0.2699,-0.2601,-31.710,24.500,16.800,361,404,358,230,376,2025-05-24T00:03:28.691847
245,-0.8930,0.2562,-0.2645,-32.900,30.100,18.130,347,335,316,257,385,2025-05-24T00:03:28.691857
246,-0.8335,0.2674,-0.2679,-31.500,39.410,19.600,402,408,341,248,364,2025-05-24T00:03:28.691867
247,-0.8003,0.2640,-0.2821,-27.230,69.720,18.620,375,395,343,213,362,2025-05-24T00:03:28.691881
248,-0.7896,0.2752,-0.2777,-24.710,67.270,16.660,415,392,351,275,368,2025-05-24T00:03:28.691892
249,-0.8930,0.2679,-0.2689,-24.290,76.230,16.870,426,407,352,255,360,2025-05-24T00:03:28.691905
250,-0.9667,0.2650,-0.2635,-21.700,66.850,14.000,365,385,340,306,356,2025-05-24T00:03:28.691915
251,-0.9740,0.2455,-0.2894,-15.260,48.370,8.890,396,428,335,306,348,2025-05-24T00:03:28.691924
252,-0.9438,0.2499,-0.3109,-3.780,31.780,7.420,361,419,330,310,341,2025-05-24T00:03:28.691969
253,-0.8667,0.2547,-0.3621,3.150,27.790,7.630,325,390,337,272,343,2025-05-24T00:03:28.691979
254,-0.8023,0.2816,-0.3670,7.770,34.650,10.780,384,404,286,287,341,2025-05-24T00:03:28.691995
255,-0.7623,0.3104,-0.3348,8.890,51.240,13.300,406,404,305,276,336,2025-05-24T00:03:28.692004
256,-0.7803,0.3094,-0.3709,5.110,71.680,12.810,398,399,321,331,349,2025-05-24T00:03:28.692014
257,-0.8350,0.2982,-0.3494,0.490,82.110,7.140,412,378,340,320,316,2025-05-24T00:03:28.692130
258,-0.9238,0.2757,-0.3719,-7.350,79.310,1.400,409,419,333,283,289,2025-05-24T00:03:28.868786
259,-0.9614,0.2503,-0.4089,-7.840,66.080,-0.140,410,425,295,332,339,2025-05-24T00:03:28.868835
260,-0.9404,0.2450,-0.4636,-3.920,51.310,2.170,401,426,335,344,339,2025-05-24T00:03:28.868848
261,-0.8882,0.2347,-0.4860,2.030,37.660,4.200,385,414,344,333,353,2025-05-24T00:03:28.868873
262,-0.8516,0.2728,-0.5036,13.580,31.500,7.070,380,429,311,339,356,2025-05-24T00:03:28.868884
263,-0.7915,0.2918,-0.4753,14.980,33.670,6.440,394,353,298,322,311,2025-05-24T00:03:28.868895
264,-0.7925,0.3089,-0.4675,10.360,39.270,5.250,425,332,350,305,356,2025-05-24T00:03:28.868906
265,-0.8262,0.2967,-0.4821,5.250,43.260,4.200,439,406,325,351,365,2025-05-24T00:03:28.868919
266,-0.8374,0.2743,-0.4914,-1.470,43.120,1.260,422,419,337,347,348,2025-05-24T00:03:28.868928
267,-0.8589,0.2650,-0.5090,-3.360,40.880,1.400,420,410,356,346,349,2025-05-24T00:03:28.868938
268,-0.8730,0.2674,-0.5104,-1.260,35.350,3.920,417,427,348,338,362,2025-05-24T00:03:28.868950
269,-0.8804,0.2660,-0.5236,2.940,24.010,6.160,382,429,359,339,351,2025-05-24T00:03:28.868959
270,-0.8008,0.2801,-0.5231,5.460,18.270,4.620,410,424,332,310,351,2025-05-24T00:03:28.868968
271,-0.7710,0.2918,-0.5168,4.760,20.090,2.170,399,407,340,331,358,2025-05-24T00:03:28.868976
272,-0.7676,0.2928,-0.5002,6.720,19.810,1.190,381,395,346,324,370,2025-05-24T00:03:28.868985
273,-0.7588,0.3016,-0.4787,10.220,20.720,1.890,413,411,349,330,284,2025-05-24T00:03:28.869026
274,-0.7686,0.2991,-0.4895,6.370,22.050,3.290,406,426,372,323,337,2025-05-24T00:03:28.869035
275,-0.8233,0.2752,-0.4943,1.400,20.300,0.980,399,393,373,361,361,2025-05-24T00:03:28.869044
276,-0.8496,0.2616,-0.5070,0.840,12.320,-2.380,381,338,296,351,362,2025-05-24T00:03:28.953420
277,-0.8447,0.2582,-0.5309,4.200,3.990,-1.960,386,395,325,350,367,2025-05-24T00:03:28.953483
278,-0.8335,0.2621,-0.5475,6.650,-3.220,-2.590,401,403,352,356,331,2025-05-24T00:03:28.953495
279,-0.7867,0.2928,-0.5519,6.020,-2.870,-3.150,338,404,358,346,370,2025-05-24T00:03:28.953505
280,-0.7544,0.3099,-0.5344,7.840,3.850,-2.520,405,410,366,376,365,2025-05-24T00:03:29.073080
281,-0.7574,0.2996,-0.5412,6.580,8.680,-2.660,393,396,359,367,357,2025-05-24T00:03:29.073139
282,-0.7735,0.2991,-0.5344,3.710,10.430,-4.340,393,412,368,369,374,2025-05-24T00:03:29.073154
283,-0.7896,0.2972,-0.5378,-2.520,12.390,-7.420,411,412,331,359,381,2025-05-24T00:03:29.073168
284,-0.8242,0.2928,-0.5607,-7.980,11.970,-5.250,411,388,360,362,346,2025-05-24T00:03:29.073181
285,-0.8433,0.2538,-0.5788,-12.040,12.390,-5.740,376,402,369,366,371,2025-05-24T00:03:29.073193
286,-0.8306,0.2684,-0.5763,-13.020,10.010,-6.510,400,402,373,380,390,2025-05-24T00:03:29.073204
287,-0.8359,0.2640,-0.5876,-9.660,5.880,-5.880,418,383,362,367,365,2025-05-24T00:03:29.073218
288,-0.7915,0.2733,-0.5802,-5.600,4.270,-3.290,414,397,373,359,362,2025-05-24T00:03:29.073229
289,-0.7432,0.2972,-0.5627,-5.040,7.490,-4.690,400,379,369,344,374,2025-05-24T00:03:29.073239
290,-0.7242,0.3074,-0.5358,-7.770,17.430,-5.810,344,402,371,312,378,2025-05-24T00:03:29.073265
291,-0.7491,0.3133,-0.5534,-9.310,25.620,-3.150,415,405,367,376,379,2025-05-24T00:03:29.073275
292,-0.7818,0.2757,-0.5588,-10.220,31.150,-6.510,404,375,364,360,325,2025-05-24T00:03:29.073285
293,-0.8316,0.2372,-0.5836,-7.630,27.720,-6.580,389,386,358,335,332,2025-05-24T00:03:29.276888
294,-0.8569,0.2347,-0.5763,2.590,21.350,-5.250,406,409,343,355,350,2025-05-24T00:03:29.276935
295,-0.8296,0.2455,-0.5646,10.360,10.920,-6.370,395,402,345,359,362,2025-05-24T00:03:29.276947
296,-0.7603,0.2660,-0.5617,16.660,1.260,-8.190,417,390,341,369,305,2025-05-24T00:03:29.276961
297,-0.6866,0.2991,-0.5568,22.540,2.100,-5.390,409,392,329,345,340,2025-05-24T00:03:29.276986
298,-0.7178,0.2928,-0.5470,23.380,4.830,-3.500,346,402,351,366,351,2025-05-24T00:03:29.276996
299,-0.7227,0.2718,-0.5573,26.110,0.070,-2.660,380,402,320,358,345,2025-05-24T00:03:29.277006
300,-0.7662,0.2611,-0.5583,24.710,-3.220,-4.340,408,396,319,358,306,2025-05-24T00:03:29.277015
301,-0.7842,0.2479,-0.5734,22.960,-9.520,-4.060,415,370,351,305,334,2025-05-24T00:03:29.277025
302,-0.7754,0.2508,-0.5763,20.580,-11.340,-3.710,360,391,309,334,353,2025-05-24T00:03:29.277033
303,-0.7549,0.2313,-0.5841,20.860,-8.890,-4.060,416,324,353,352,302,2025-05-24T00:03:29.277042
304,-0.7559,0.2372,-0.6051,22.750,-5.950,-5.180,419,356,319,352,328,2025-05-24T00:03:29.277056
305,-0.7315,0.2338,-0.6193,26.460,-1.330,-1.820,369,369,312,356,326,2025-05-24T00:03:29.277065
306,-0.7296,0.2352,-0.6373,35.140,8.610,1.330,420,391,346,308,309,2025-05-24T00:03:29.277073
307,-0.7686,0.2508,-0.5905,39.270,14.700,0.840,416,372,360,348,291,2025-05-24T00:03:29.277117
308,-0.8203,0.2572,-0.5861,34.860,7.140,-0.280,415,382,318,364,321,2025-05-24T00:03:29.277127
309,-0.8491,0.2157,-0.6559,29.820,-2.310,0.210,405,380,361,335,320,2025-05-24T00:03:29.277136
310,-0.8413,0.1884,-0.6539,19.600,-16.030,0.980,424,394,362,364,329,2025-05-24T00:03:29.328058
311,-0.7940,0.2074,-0.6305,26.320,-25.550,2.590,421,405,351,348,309,2025-05-24T00:03:29.328131
312,-0.7408,0.1889,-0.5612,33.320,-24.220,5.040,428,354,363,369,310,2025-05-24T00:03:29.328152
313,-0.7784,0.1932,-0.6007,37.030,-13.440,4.900,405,366,351,359,297,2025-05-24T00:03:29.328163
314,-0.8032,0.2279,-0.5978,20.370,-12.250,4.200,419,373,353,382,301,2025-05-24T00:03:29.499011
315,-0.8501,0.1869,-0.5793,19.810,-18.620,3.780,400,345,347,381,303,2025-05-24T00:03:29.499061
316,-0.8882,0.1479,-0.5812,19.600,-31.150,6.650,414,338,341,390,304,2025-05-24T00:03:29.499089
317,-0.9072,0.0844,-0.6281,40.670,-49.350,10.500,405,387,355,376,304,2025-05-24T00:03:29.499100
318,-0.9614,0.1532,-0.6520,52.080,-59.290,13.300,371,383,336,381,357,2025-05-24T00:03:29.499114
319,-0.8145,0.2933,-0.5915,42.350,-57.260,19.670,396,409,322,344,328,2025-05-24T00:03:29.499123
320,-0.7544,0.2635,-0.5495,31.710,-47.950,20.090,399,399,378,388,360,2025-05-24T00:03:29.499134
321,-0.7579,0.2547,-0.5148,10.710,-25.550,15.400,360,336,368,339,379,2025-05-24T00:03:29.499144
322,-0.8203,0.1991,-0.5036,11.480,-19.810,17.500,379,396,384,375,391,2025-05-24T00:03:29.499152
323,-0.8662,0.2176,-0.4509,16.310,-4.270,17.150,404,366,396,330,388,2025-05-24T00:03:29.499162
324,-0.8945,0.2123,-0.4592,18.760,-8.540,15.050,402,376,380,385,385,2025-05-24T00:03:29.499172
325,-0.8818,0.2011,-0.5017,16.660,-19.810,13.650,426,389,388,353,380,2025-05-24T00:03:29.499184
326,-0.8550,0.1776,-0.5358,11.340,-32.130,12.460,428,323,359,365,385,2025-05-24T00:03:29.499193
327,-0.8272,0.1991,-0.5549,10.990,-46.200,15.470,427,364,365,324,302,2025-05-24T00:03:29.499202
328,-0.7837,0.2025,-0.5915,14.770,-57.190,18.970,397,394,342,389,371,2025-05-24T00:03:29.546469
329,-0.7432,0.2054,-0.6139,18.060,-57.050,16.380,403,364,362,388,340,2025-05-24T00:03:29.546507
330,-0.7520,0.2323,-0.6056,11.830,-49.350,12.040,375,367,362,402,369,2025-05-24T00:03:29.546517
331,-0.7745,0.2137,-0.5773,10.290,-40.950,11.760,397,375,372,358,374,2025-05-24T00:03:29.546525
332,-0.8394,0.2074,-0.5226,15.190,-35.280,12.600,391,356,345,373,380,2025-05-24T00:03:29.597425
333,-0.8940,0.2186,-0.5353,13.510,-35.070,12.320,365,378,366,404,366,2025-05-24T00:03:29.597467
334,-0.8847,0.2157,-0.5178,5.740,-34.370,8.820,390,354,354,344,335,2025-05-24T00:03:29.597477
335,-0.8652,0.1967,-0.5202,-1.680,-35.490,8.470,388,353,361,394,369,2025-05-24T00:03:29.597487
336,-0.8150,0.2440,-0.4768,-5.950,-30.940,9.730,413,339,338,401,396,2025-05-24T00:03:29.853565
337,-0.7481,0.2079,-0.5075,-9.940,-20.510,13.860,365,345,355,381,393,2025-05-24T00:03:29.853621
338,-0.8423,0.2396,-0.4797,-1.750,-0.070,13.160,415,355,371,385,403,2025-05-24T00:03:29.853641
339,-0.8989,0.2054,-0.4368,2.940,4.760,11.760,393,372,383,392,411,2025-05-24T00:03:29.853678
340,-0.9496,0.2186,-0.4124,-0.840,0.000,14.910,407,403,391,402,418,2025-05-24T00:03:29.853700
341,-0.9745,0.1918,-0.3811,-0.070,-2.590,17.150,424,408,360,350,361,2025-05-24T00:03:29.853716
342,-0.9736,0.1981,-0.3504,9.450,-10.010,19.670,343,415,371,392,390,2025-05-24T00:03:29.853732
343,-0.9736,0.1645,-0.2987,30.940,-23.450,20.580,403,392,388,420,413,2025-05-24T00:03:29.853748
344,-0.8520,0.2294,-0.3138,37.450,-29.120,22.890,395,411,393,415,406,2025-05-24T00:03:29.854016
345,-0.7720,0.2474,-0.3748,33.460,-17.850,23.800,393,403,388,396,412,2025-05-24T00:03:29.854037
346,-0.7398,0.2484,-0.4446,23.240,-11.270,20.160,389,401,388,376,374,2025-05-24T00:03:29.854059
347,-0.7149,0.2347,-0.5148,17.780,8.470,18.480,405,366,367,406,361,2025-05-24T00:03:29.854159
348,-0.7925,0.2015,-0.5714,14.840,19.600,11.060,396,361,361,405,379,2025-05-24T00:03:29.854197
349,-0.8418,0.1859,-0.6300,3.990,5.600,0.000,398,367,362,395,383,2025-05-24T00:03:29.854227
350,-0.7818,0.1952,-0.7257,7.840,-6.650,-0.630,411,411,400,386,349,2025-05-24T00:03:29.854306
351,-0.8408,0.2240,-0.6583,-9.660,-9.940,-3.290,425,407,404,351,387,2025-05-24T00:03:30.059932
352,-0.7427,0.2869,-0.6583,-17.920,-16.450,-7.840,396,391,402,340,346,2025-05-24T00:03:30.059964
353,-0.6998,0.3011,-0.6564,-31.150,-9.450,-11.340,399,398,369,393,367,2025-05-24T00:03:30.059975
354,-0.6744,0.2723,-0.6446,-38.430,8.400,-13.720,397,405,394,390,382,2025-05-24T00:03:30.059984
355,-0.7740,0.3035,-0.5954,-49.350,22.610,-14.700,419,423,391,396,358,2025-05-24T00:03:30.059993
356,-0.8569,0.2865,-0.5827,-55.160,21.840,-16.170,409,428,401,404,396,2025-05-24T00:03:30.060064
357,-0.8628,0.2708,-0.5666,-64.960,16.590,-20.370,358,428,399,411,391,2025-05-24T00:03:30.060074
358,-0.8750,0.2562,-0.5714,-63.210,7.140,-22.610,398,386,389,404,400,2025-05-24T00:03:30.060083
359,-0.8799,0.2684,-0.5422,-60.550,-0.980,-22.960,419,425,380,397,383,2025-05-24T00:03:30.060091
360,-0.8511,0.3065,-0.5246,-57.610,-4.130,-20.860,418,425,387,383,379,2025-05-24T00:03:30.060099
361,-0.8145,0.2855,-0.5139,-61.600,-3.990,-19.110,414,434,353,387,400,2025-05-24T00:03:30.060109
362,-0.8106,0.2772,-0.5109,-62.440,0.700,-17.920,428,445,382,417,389,2025-05-24T00:03:30.127651
363,-0.8228,0.2377,-0.4973,-63.210,11.060,-14.910,398,383,387,388,385,2025-05-24T00:03:30.127917
364,-0.8852,0.1967,-0.4231,-53.130,16.310,-18.340,337,400,355,386,371,2025-05-24T00:03:30.127934
365,-0.9287,0.2201,-0.4085,-41.440,4.970,-23.800,375,426,402,389,380,2025-05-24T00:03:30.127946
366,-0.9106,0.2123,-0.4011,-32.690,-5.740,-20.860,375,406,403,393,402,2025-05-24T00:03:30.127958
367,-0.9604,0.2137,-0.3816,-26.110,-14.980,-12.390,419,417,398,407,395,2025-05-24T00:03:30.127969
368,-0.8325,0.2240,-0.3802,-22.190,-13.020,-10.850,395,413,401,387,404,2025-05-24T00:03:30.127980
369,-0.8725,0.2367,-0.4128,-16.100,-21.910,-5.670,361,419,410,419,405,2025-05-24T00:03:30.127992
370,-0.8086,0.2435,-0.4577,-18.760,-3.780,-1.680,385,392,407,414,403,2025-05-24T00:03:30.128002
371,-0.7964,0.2211,-0.4080,-12.530,3.080,1.260,383,426,403,394,369,2025-05-24T00:03:30.128012
372,-0.8520,0.2420,-0.3714,-0.980,1.190,-0.420,332,350,390,362,388,2025-05-24T00:03:30.128021
373,-0.8779,0.2689,-0.3875,7.980,-5.110,-1.680,327,410,392,400,351,2025-05-24T00:03:30.128031
374,-0.8491,0.2743,-0.3958,6.510,-5.880,-2.380,398,382,385,386,350,2025-05-24T00:03:30.128044
375,-0.8301,0.3030,-0.4133,-4.690,-3.220,-2.660,364,399,394,366,332,2025-05-24T00:03:30.128053
376,-0.8106,0.2938,-0.4465,-5.040,5.880,-1.190,340,425,395,392,370,2025-05-24T00:03:30.128101
377,-0.8228,0.2562,-0.4690,-12.180,3.360,-3.990,380,382,397,389,386,2025-05-24T00:03:30.128111
378,-0.7906,0.2333,-0.5407,-10.150,15.960,-2.450,410,353,377,393,343,2025-05-24T00:03:30.128120
379,-0.8530,0.1859,-0.5026,-3.010,21.070,-7.000,412,406,352,364,328,2025-05-24T00:03:30.128130
380,-0.8857,0.2386,-0.5085,6.300,13.300,-9.450,405,396,384,404,370,2025-05-24T00:03:30.308443
381,-0.8545,0.2303,-0.4948,8.610,7.000,-6.860,352,355,369,402,401,2025-05-24T00:03:30.308496
382,-0.8701,0.2664,-0.4207,12.880,-4.620,-11.480,401,397,378,314,386,2025-05-24T00:03:30.308592
383,-0.8140,0.3709,-0.3606,-4.620,-11.130,-12.110,393,412,377,382,353,2025-05-24T00:03:30.308652
384,-0.7959,0.2782,-0.4441,4.830,-5.600,-10.290,413,416,352,361,376,2025-05-24T00:03:30.308666
385,-0.8579,0.2752,-0.4207,-0.700,1.470,-5.950,378,415,359,384,350,2025-05-24T00:03:30.308678
386,-0.8789,0.2362,-0.4168,6.090,6.300,-3.850,404,413,361,385,366,2025-05-24T00:03:30.308689
387,-0.8911,0.2503,-0.4407,9.310,9.380,-3.640,430,352,378,407,376,2025-05-24T00:03:30.308701
388,-0.8467,0.2503,-0.4719,16.450,20.720,-1.610,384,413,384,377,372,2025-05-24T00:03:30.308713
389,-0.8589,0.2455,-0.4880,16.450,31.290,0.910,296,344,385,397,381,2025-05-24T00:03:30.308750
390,-0.8574,0.2889,-0.4880,14.840,32.130,0.560,372,407,390,392,395,2025-05-24T00:03:30.308770
391,-0.8257,0.2747,-0.5300,5.880,32.900,-0.280,402,412,396,363,377,2025-05-24T00:03:30.308779
392,-0.7969,0.2523,-0.5563,4.410,30.240,-2.100,414,413,382,403,404,2025-05-24T00:03:30.308789
393,-0.7618,0.2640,-0.5680,-0.210,23.520,-2.870,398,414,392,397,393,2025-05-24T00:03:30.308798
394,-0.7574,0.2406,-0.5714,2.310,23.660,-3.010,426,399,381,399,399,2025-05-24T00:03:30.308808
395,-0.8072,0.2435,-0.5388,4.060,24.220,-3.920,412,413,381,411,347,2025-05-24T00:03:30.505471
396,-0.8355,0.2328,-0.5056,7.630,19.740,-3.710,411,390,350,352,334,2025-05-24T00:03:30.505517
397,-0.8477,0.2474,-0.4748,10.430,12.040,-0.210,390,374,361,379,359,2025-05-24T00:03:30.505530
398,-0.8418,0.2440,-0.4753,0.910,17.360,-0.770,423,407,374,346,349,2025-05-24T00:03:30.505541
399,-0.8272,0.2391,-0.5002,-0.840,23.590,-0.770,402,356,343,377,387,2025-05-24T00:03:30.505552
400,-0.8286,0.2225,-0.5334,-0.980,28.560,1.610,398,421,363,397,406,2025-05-24T00:03:30.505562
401,-0.8545,0.2196,-0.5539,-4.830,33.810,2.940,391,416,378,310,352,2025-05-24T00:03:30.505572
402,-0.8452,0.2323,-0.5710,-3.850,24.430,4.200,344,438,385,379,341,2025-05-24T00:03:30.505580
403,-0.8154,0.2318,-0.5905,-1.750,16.030,6.860,379,425,374,401,364,2025-05-24T00:03:30.505590
404,-0.7788,0.2167,-0.5754,1.890,7.700,8.820,420,430,387,388,378,2025-05-24T00:03:30.505599
405,-0.8037,0.2352,-0.5378,1.610,-2.030,6.440,416,417,392,306,359,2025-05-24T00:03:30.505608
406,-0.7715,0.2308,-0.5314,4.060,-11.060,3.080,396,402,390,322,395,2025-05-24T00:03:30.505620
407,-0.7476,0.2357,-0.5290,1.680,-6.930,1.050,412,420,352,380,365,2025-05-24T00:03:30.505629
408,-0.7618,0.2279,-0.5319,-1.680,5.320,1.750,394,423,369,386,360,2025-05-24T00:03:30.505638
409,-0.8189,0.2006,-0.5456,4.340,12.600,3.570,397,421,369,379,371,2025-05-24T00:03:30.505647
410,-0.8769,0.1981,-0.5544,15.610,8.680,9.730,418,356,372,399,394,2025-05-24T00:03:30.505656
411,-0.8496,0.2147,-0.5680,22.820,-3.220,13.300,423,378,385,406,353,2025-05-24T00:03:30.505695
412,-0.7857,0.2567,-0.5480,23.450,-9.380,11.480,405,410,377,394,339,2025-05-24T00:03:30.710988
413,-0.7569,0.2850,-0.5392,19.180,-8.750,10.150,401,411,380,375,374,2025-05-24T00:03:30.711037
414,-0.6344,0.2660,-0.5549,18.270,-6.860,7.840,361,420,358,398,384,2025-05-24T00:03:30.711050
415,-0.7393,0.2826,-0.5519,15.120,0.280,5.250,335,397,378,396,364,2025-05-24T00:03:30.711060
416,-0.7208,0.2713,-0.5632,5.880,13.440,0.560,355,407,383,411,395,2025-05-24T00:03:30.711071
417,-0.7257,0.2367,-0.5924,3.640,29.260,-1.680,378,402,376,354,405,2025-05-24T00:03:30.711081
418,-0.8203,0.2235,-0.5890,3.430,37.170,-1.120,404,396,372,295,395,2025-05-24T00:03:30.711091
419,-0.8833,0.2137,-0.5968,7.070,31.710,1.470,388,399,375,376,371,2025-05-24T00:03:30.711100
420,-0.8481,0.2211,-0.6110,13.090,15.820,3.640,395,411,388,367,391,2025-05-24T00:03:30.711109
421,-0.7906,0.2333,-0.6237,22.190,4.200,5.390,336,422,382,384,309,2025-05-24T00:03:30.711121
422,-0.7486,0.2669,-0.6002,25.340,-5.180,4.690,374,417,387,385,363,2025-05-24T00:03:30.711130
423,-0.7022,0.2913,-0.5807,19.320,-4.060,1.820,406,411,377,344,359,2025-05-24T00:03:30.711139
424,-0.6466,0.2782,-0.5973,10.080,8.750,-3.430,402,369,368,379,386,2025-05-24T00:03:30.711149
425,-0.6866,0.2391,-0.6037,2.660,34.020,-9.730,416,425,368,415,395,2025-05-24T00:03:30.711159
426,-0.7637,0.2176,-0.6227,2.450,44.940,-10.990,399,407,339,394,397,2025-05-24T00:03:30.711169
427,-0.7706,0.2035,-0.6461,6.650,45.150,-8.890,391,399,370,403,348,2025-05-24T00:03:30.711209
428,-0.7486,0.2240,-0.6300,12.110,39.480,-6.510,382,407,337,408,337,2025-05-24T00:03:30.711219
429,-0.7671,0.2411,-0.5934,11.130,28.210,-7.210,380,404,320,400,329,2025-05-24T00:03:30.761956
430,-0.6974,0.2508,-0.6115,9.590,27.790,-6.930,409,392,348,415,380,2025-05-24T00:03:30.762112
431,-0.6730,0.2640,-0.6681,-0.560,47.250,-12.040,389,418,357,354,344,2025-05-24T00:03:30.762125
432,-0.6998,0.2508,-0.6983,-16.660,68.110,-19.740,396,391,370,393,366,2025-05-24T00:03:30.762136
433,-0.7086,0.2328,-0.7052,-25.270,81.760,-24.850,404,425,379,341,389,2025-05-24T00:03:30.843839
434,-0.7027,0.2128,-0.7276,-24.640,92.330,-23.590,415,399,377,374,384,2025-05-24T00:03:30.843886
435,-0.7681,0.1932,-0.7096,-15.820,89.040,-22.400,429,408,388,363,389,2025-05-24T00:03:30.843898
436,-0.7930,0.2118,-0.6808,-6.930,69.790,-19.250,412,376,376,346,358,2025-05-24T00:03:30.843907
437,-0.7315,0.2552,-0.6642,-1.120,58.940,-12.530,370,403,373,372,388,2025-05-24T00:03:30.843916
438,-0.7203,0.2816,-0.6412,-4.690,53.410,-9.730,410,422,376,405,397,2025-05-24T00:03:30.935977
439,-0.6944,0.2606,-0.6749,-7.140,51.100,-10.150,421,417,379,420,369,2025-05-24T00:03:30.936027
440,-0.6290,0.2396,-0.6974,-7.630,53.340,-10.780,415,422,389,412,393,2025-05-24T00:03:30.936041
441,-0.7008,0.2186,-0.7100,-8.960,54.180,-10.010,416,434,346,420,368,2025-05-24T00:03:30.936052
442,-0.6651,0.2133,-0.7320,-1.120,42.560,-7.840,431,424,338,418,387,2025-05-24T00:03:30.936062
443,-0.6422,0.2089,-0.7222,2.240,39.060,-6.580,401,408,361,393,400,2025-05-24T00:03:30.936072
444,-0.6134,0.2284,-0.7276,1.820,27.860,-5.600,390,436,331,401,386,2025-05-24T00:03:30.936083
445,-0.5431,0.2196,-0.7745,-0.280,24.010,-4.690,356,370,364,408,390,2025-05-24T00:03:30.936093
446,-0.5519,0.2054,-0.7935,-4.550,27.230,-6.370,399,404,374,400,356,2025-05-24T00:03:30.936104
447,-0.5290,0.2069,-0.8003,-3.010,30.450,-10.780,421,424,346,388,394,2025-05-24T00:03:30.936115
448,-0.5456,0.1806,-0.8130,-2.030,31.850,-10.920,420,428,328,399,403,2025-05-24T00:03:30.989520
449,-0.5822,0.1747,-0.7803,3.780,29.470,-10.360,418,428,324,396,314,2025-05-24T00:03:30.989574
450,-0.6061,0.1947,-0.7818,7.070,23.870,-7.700,356,360,357,398,373,2025-05-24T00:03:30.989588
451,-0.6173,0.1942,-0.7842,4.410,18.830,-6.720,392,390,367,415,379,2025-05-24T00:03:30.989600
452,-0.5832,0.2064,-0.7935,4.270,15.190,-4.410,411,416,386,366,400,2025-05-24T00:03:31.122519
453,-0.5553,0.1820,-0.8179,2.870,18.200,-2.800,412,422,389,394,410,2025-05-24T00:03:31.122577
454,-0.5544,0.1674,-0.8291,6.370,17.920,-1.680,403,429,383,387,409,2025-05-24T00:03:31.122593
455,-0.5485,0.1606,-0.8369,12.180,13.160,-0.210,400,427,385,397,393,2025-05-24T00:03:31.122606
456,-0.5773,0.1889,-0.8047,14.140,9.660,-0.280,388,307,373,408,367,2025-05-24T00:03:31.122617
457,-0.6134,0.2079,-0.7886,16.450,1.960,1.540,401,397,384,407,399,2025-05-24T00:03:31.122628
458,-0.5719,0.2372,-0.7910,13.090,-5.040,0.770,393,396,376,352,386,2025-05-24T00:03:31.122639
459,-0.5573,0.2338,-0.7964,7.560,0.490,-3.430,390,346,391,371,400,2025-05-24T00:03:31.122650
460,-0.5754,0.1923,-0.8106,7.070,8.750,-1.750,397,404,397,378,399,2025-05-24T00:03:31.122660
461,-0.6188,0.1728,-0.7979,8.050,6.860,0.490,389,420,397,380,413,2025-05-24T00:03:31.122670
462,-0.5632,0.1762,-0.8013,11.060,2.800,4.200,408,422,381,407,353,2025-05-24T00:03:31.122681
463,-0.5431,0.1913,-0.8057,14.070,0.980,6.440,404,425,367,392,379,2025-05-24T00:03:31.324540
464,-0.5739,0.1937,-0.7881,13.160,-4.410,5.600,425,426,334,411,401,2025-05-24T00:03:31.324587
465,-0.5187,0.2089,-0.7940,7.490,-3.640,1.610,422,374,349,394,407,2025-05-24T00:03:31.324599
466,-0.4865,0.2020,-0.8096,3.570,9.240,-1.820,396,354,365,409,412,2025-05-24T00:03:31.324608
467,-0.5392,0.1737,-0.8086,3.010,14.700,-2.520,381,419,384,411,358,2025-05-24T00:03:31.324618
468,-0.5436,0.1713,-0.8052,4.200,14.000,-2.660,367,417,394,411,388,2025-05-24T00:03:31.324627
469,-0.5368,0.1332,-0.8491,8.470,16.660,0.980,346,420,346,393,393,2025-05-24T00:03:31.324635
470,-0.5651,0.1557,-0.8379,15.540,13.720,4.900,325,409,361,411,399,2025-05-24T00:03:31.324649
471,-0.5646,0.1898,-0.8320,16.730,7.000,3.850,371,406,335,392,418,2025-05-24T00:03:31.324658
472,-0.5646,0.2108,-0.8150,10.010,3.360,0.070,412,405,364,416,396,2025-05-24T00:03:31.324666
473,-0.5841,0.2084,-0.7969,0.630,0.420,-3.710,365,418,387,406,409,2025-05-24T00:03:31.324675
474,-0.5773,0.1864,-0.7925,-5.740,0.140,-3.920,397,414,393,396,398,2025-05-24T00:03:31.324683
475,-0.5978,0.1752,-0.7930,-7.700,1.890,-2.170,425,423,380,400,388,2025-05-24T00:03:31.324692
476,-0.5958,0.1498,-0.8164,-5.040,-1.610,-0.910,363,403,380,396,358,2025-05-24T00:03:31.324732
477,-0.5627,0.1327,-0.8501,-2.100,-2.870,1.680,396,373,379,403,391,2025-05-24T00:03:31.324742
478,-0.5895,0.1274,-0.8359,0.770,-4.270,1.400,411,414,392,395,384,2025-05-24T00:03:31.324782
479,-0.5885,0.1274,-0.8364,1.540,-11.270,2.730,374,393,379,405,343,2025-05-24T00:03:31.324790
480,-0.5714,0.1200,-0.8452,1.400,-14.560,3.780,394,418,375,403,380,2025-05-24T00:03:31.530307
481,-0.5602,0.1576,-0.8184,-3.010,-18.060,3.080,350,356,392,372,384,2025-05-24T00:03:31.530357
482,-0.5422,0.1698,-0.8159,-9.940,-21.210,0.700,399,407,376,386,406,2025-05-24T00:03:31.530370
483,-0.5690,0.1649,-0.8174,-14.770,-23.660,0.420,423,399,378,418,411,2025-05-24T00:03:31.530381
484,-0.6051,0.1581,-0.8276,-16.870,-23.940,1.820,411,411,367,412,400,2025-05-24T00:03:31.530393
485,-0.6593,0.1635,-0.7823,-7.490,-21.770,0.700,430,436,347,409,389,2025-05-24T00:03:31.530403
486,-0.6617,0.1996,-0.7613,-14.140,-23.030,2.870,425,412,334,401,400,2025-05-24T00:03:31.530413
487,-0.6710,0.2025,-0.7544,-19.040,-19.670,4.830,410,298,359,420,408,2025-05-24T00:03:31.530421
488,-0.6256,0.2152,-0.7427,-15.540,-18.550,6.580,392,395,368,361,405,2025-05-24T00:03:31.530430
489,-0.6271,0.2523,-0.7037,-11.620,-17.640,11.200,397,407,372,389,395,2025-05-24T00:03:31.530439
490,-0.6041,0.2542,-0.6915,-11.270,-17.010,10.850,411,404,308,404,368,2025-05-24T00:03:31.530449
491,-0.5832,0.2308,-0.7242,-16.520,-23.940,7.770,425,404,352,355,386,2025-05-24T00:03:31.530458
492,-0.5880,0.2479,-0.7871,-17.080,-22.890,8.190,423,418,336,335,397,2025-05-24T00:03:31.530466
493,-0.5807,0.2020,-0.8472,-15.540,-25.200,6.650,421,419,321,385,409,2025-05-24T00:03:31.530474
494,-0.5295,0.1728,-0.9052,-25.480,-34.020,2.800,402,427,358,406,400,2025-05-24T00:03:31.530518
495,-0.4943,0.1918,-0.8843,-41.230,-34.090,0.000,409,365,349,392,353,2025-05-24T00:03:31.530528
496,-0.4997,0.2284,-0.8164,-27.930,-39.270,2.310,362,366,263,402,399,2025-05-24T00:03:31.530537
497,-0.4992,0.3133,-0.7662,-19.880,-31.360,5.180,397,371,286,416,371,2025-05-24T00:03:31.749598
498,-0.4665,0.2889,-0.7618,-3.360,-30.660,0.350,393,362,299,412,391,2025-05-24T00:03:31.749648
499,-0.4802,0.2469,-0.7398,-18.620,-17.780,-6.860,377,344,308,387,380,2025-05-24T00:03:31.749661
500,-0.5090,0.2377,-0.7388,-18.550,-8.190,-5.740,417,357,292,402,366,2025-05-24T00:03:31.749672
501,-0.5617,0.2147,-0.7105,-23.660,-4.830,-6.580,412,338,232,338,319,2025-05-24T00:03:31.956073
502,-0.5446,0.2479,-0.7213,-23.450,-11.270,-5.530,401,290,225,349,319,2025-05-24T00:03:31.956108
503,-0.5266,0.2572,-0.7520,-21.000,-8.260,-3.220,410,255,215,354,281,2025-05-24T00:03:31.956122
504,-0.5563,0.2186,-0.7662,-16.240,-0.070,-3.570,381,223,210,368,328,2025-05-24T00:03:31.956133
505,-0.5768,0.2157,-0.7437,-8.330,0.980,-2.450,410,295,204,311,335,2025-05-24T00:03:31.956143
506,-0.6120,0.2338,-0.7247,3.710,-0.700,0.350,420,275,192,280,300,2025-05-24T00:03:31.956154
507,-0.6520,0.2342,-0.7037,5.110,-6.160,0.560,413,226,124,322,357,2025-05-24T00:03:31.956168
508,-0.6695,0.2328,-0.7247,1.190,-9.800,1.820,345,284,134,255,391,2025-05-24T00:03:31.956177
509,-0.6315,0.2313,-0.7276,4.480,-8.540,4.550,393,223,137,337,395,2025-05-24T00:03:31.956188
510,-0.6246,0.2489,-0.7354,6.930,3.360,6.230,414,284,144,352,369,2025-05-24T00:03:31.956201
511,-0.6422,0.2377,-0.7452,9.450,14.280,7.210,409,274,134,366,382,2025-05-24T00:03:31.956276
512,-0.6598,0.2508,-0.7569,9.240,17.990,6.160,393,274,115,358,395,2025-05-24T00:03:31.956291
513,-0.6959,0.2538,-0.7296,1.470,9.100,2.170,379,179,154,328,320,2025-05-24T00:03:31.956302
514,-0.7164,0.2582,-0.7842,-8.470,-13.020,3.290,346,227,185,358,305,2025-05-24T00:03:31.956313
515,-0.6256,0.2460,-0.8164,-10.920,-22.120,2.730,285,215,155,359,231,2025-05-24T00:03:31.956322
516,-0.5300,0.2679,-0.8530,-18.270,-13.860,-1.610,297,171,191,302,230,2025-05-24T00:03:31.957384
517,-0.5285,0.2747,-0.8369,-26.180,-2.590,-3.710,305,231,191,319,288,2025-05-24T00:03:31.957410
518,-0.5866,0.2147,-0.8257,-24.010,1.470,-6.650,323,229,201,324,254,2025-05-24T00:03:31.957421
519,-0.6617,0.2479,-0.7403,-14.420,-9.870,-7.000,303,224,185,311,273,2025-05-24T00:03:31.957432
520,-0.6427,0.2650,-0.7169,-9.870,-17.220,-8.540,301,234,178,282,300,2025-05-24T00:03:31.957442
521,-0.6246,0.2791,-0.6949,-5.040,-22.330,-10.920,332,203,227,296,289,2025-05-24T00:03:31.957451
522,-0.5939,0.2899,-0.7222,-11.270,-24.570,-14.980,312,220,242,320,280,2025-05-24T00:03:31.957461
523,-0.5578,0.2743,-0.7598,-16.870,-20.580,-13.860,331,243,260,298,293,2025-05-24T00:03:31.957469
524,-0.5553,0.2616,-0.7828,-16.800,-12.460,-6.930,316,238,279,290,301,2025-05-24T00:03:31.957481
525,-0.5778,0.2489,-0.7681,-12.810,-0.140,-5.670,308,259,257,248,285,2025-05-24T00:03:31.957490
526,-0.6300,0.2611,-0.7296,-8.750,-0.210,-4.620,342,284,267,279,279,2025-05-24T00:03:31.957542
527,-0.6744,0.2518,-0.7022,-5.810,-0.910,-4.970,258,285,253,276,299,2025-05-24T00:03:31.957552
528,-0.6900,0.2577,-0.6861,-3.500,-8.610,-4.410,320,285,233,293,290,2025-05-24T00:03:31.957560
529,-0.7135,0.2523,-0.6803,-4.690,-18.690,-3.850,322,290,275,283,284,2025-05-24T00:03:31.957569
530,-0.6461,0.2499,-0.7188,0.070,-27.370,-0.140,306,283,266,244,288,2025-05-24T00:03:31.957577
531,-0.5954,0.2611,-0.7379,2.660,-26.390,2.030,305,289,270,302,295,2025-05-24T00:03:32.147596
532,-0.5773,0.2762,-0.7227,3.290,-17.780,1.260,313,280,285,285,294,2025-05-24T00:03:32.147648
533,-0.5812,0.2845,-0.7164,0.630,-9.030,1.610,331,189,244,281,246,2025-05-24T00:03:32.147661
534,-0.5993,0.2752,-0.7066,-4.550,-2.310,0.000,261,235,280,277,293,2025-05-24T00:03:32.147672
535,-0.6622,0.2733,-0.6964,-10.360,-0.280,-1.330,242,190,280,235,301,2025-05-24T00:03:32.147683
536,-0.7037,0.2572,-0.6900,-9.170,-7.630,-2.590,294,204,276,267,265,2025-05-24T00:03:32.147694
537,-0.6915,0.2411,-0.7022,-5.810,-14.840,-1.400,293,243,274,231,277,2025-05-24T00:03:32.147704
538,-0.7003,0.2503,-0.6939,-0.280,-24.290,1.960,306,245,275,279,260,2025-05-24T00:03:32.147715
539,-0.6529,0.2630,-0.6881,0.280,-30.030,6.580,290,247,279,277,291,2025-05-24T00:03:32.147725
540,-0.5841,0.2845,-0.7300,-3.640,-18.760,5.180,285,257,281,222,298,2025-05-24T00:03:32.147739
541,-0.5651,0.2938,-0.7330,-8.820,-3.570,3.850,317,229,282,272,302,2025-05-24T00:03:32.147749
542,-0.6686,0.2830,-0.7017,-12.740,-0.490,4.200,259,267,237,258,249,2025-05-24T00:03:32.147758
543,-0.7013,0.2855,-0.6656,-9.660,-6.650,4.340,310,287,263,261,279,2025-05-24T00:03:32.147768
544,-0.7105,0.2533,-0.6832,-2.520,-14.420,2.520,320,281,266,256,262,2025-05-24T00:03:32.147777
545,-0.6978,0.2508,-0.6778,8.890,-21.770,1.750,330,211,281,246,279,2025-05-24T00:03:32.147820
546,-0.7052,0.2542,-0.6734,16.380,-33.180,2.870,324,279,274,217,290,2025-05-24T00:03:32.147832
547,-0.6300,0.2772,-0.6886,17.220,-36.260,3.920,305,281,273,215,245,2025-05-24T00:03:32.147842
548,-0.6154,0.2782,-0.6920,13.790,-30.100,1.400,302,252,279,234,247,2025-05-24T00:03:32.378144
549,-0.6198,0.2908,-0.6788,15.470,-25.200,-1.330,302,256,279,234,294,2025-05-24T00:03:32.378192
550,-0.6276,0.2908,-0.6744,11.830,-16.520,-0.070,262,240,281,255,246,2025-05-24T00:03:32.378205
551,-0.6534,0.2650,-0.6695,11.690,-12.600,0.840,271,251,261,250,249,2025-05-24T00:03:32.378216
552,-0.6803,0.2567,-0.6544,12.530,-11.690,0.280,317,258,278,243,277,2025-05-24T00:03:32.378226
553,-0.7154,0.2479,-0.6617,17.920,-15.750,-1.470,306,245,265,271,298,2025-05-24T00:03:32.378236
554,-0.7257,0.2508,-0.6573,21.280,-28.700,-1.120,320,237,275,253,294,2025-05-24T00:03:32.378246
555,-0.6930,0.2704,-0.6817,24.150,-34.160,-1.400,331,248,279,271,290,2025-05-24T00:03:32.378256
556,-0.6544,0.2757,-0.7013,19.950,-38.920,-1.750,287,206,272,246,251,2025-05-24T00:03:32.378268
557,-0.5710,0.2816,-0.7227,11.760,-27.930,0.770,260,252,249,266,261,2025-05-24T00:03:32.378277
558,-0.6085,0.2821,-0.6939,2.730,-7.980,2.030,264,244,274,278,294,2025-05-24T00:03:32.378286
559,-0.6949,0.2401,-0.6466,-0.280,3.360,0.770,236,235,268,206,302,2025-05-24T00:03:32.378296
560,-0.7564,0.2357,-0.6500,2.590,-0.910,-1.330,342,263,269,256,273,2025-05-24T00:03:32.378317
561,-0.7544,0.2191,-0.6198,8.260,-3.500,-0.980,345,263,231,260,259,2025-05-24T00:03:32.378326
562,-0.7520,0.2264,-0.6154,14.910,-12.810,0.980,337,256,270,231,226,2025-05-24T00:03:32.378370
563,-0.7100,0.2513,-0.6139,18.550,-18.200,0.840,283,240,243,200,230,2025-05-24T00:03:32.378380
564,-0.6730,0.2611,-0.6549,20.510,-21.630,4.270,338,213,238,208,219,2025-05-24T00:03:32.378389
565,-0.6378,0.2704,-0.6651,15.540,-15.540,8.680,319,216,246,238,220,2025-05-24T00:03:32.378398
566,-0.7047,0.2557,-0.6573,9.030,-8.890,5.180,322,186,221,232,206,2025-05-24T00:03:32.378406
567,-0.6617,0.2279,-0.6403,1.540,-12.180,3.780,286,168,233,223,187,2025-05-24T00:03:32.378419
568,-0.6964,0.2113,-0.6412,13.930,-5.320,2.730,288,148,188,212,181,2025-05-24T00:03:32.462143
569,-0.7554,0.1981,-0.6393,22.330,-7.770,7.840,258,151,232,159,179,2025-05-24T00:03:32.462199
570,-0.6803,0.2313,-0.6080,26.320,-9.450,9.940,217,153,240,164,198,2025-05-24T00:03:32.462215
571,-0.6622,0.2625,-0.6349,22.120,0.280,8.680,245,166,236,191,195,2025-05-24T00:03:32.462227
572,-0.6993,0.2757,-0.6710,22.190,9.100,2.170,255,187,260,214,220,2025-05-24T00:03:32.558827
573,-0.7261,0.2298,-0.6876,10.710,11.200,-3.150,273,216,275,246,246,2025-05-24T00:03:32.558882
574,-0.7559,0.2181,-0.6886,6.790,-1.400,-3.570,279,236,281,255,265,2025-05-24T00:03:32.558900
575,-0.7110,0.2162,-0.7110,5.530,-8.190,-3.430,316,261,315,299,286,2025-05-24T00:03:32.558913
576,-0.6451,0.2264,-0.7125,13.580,-5.740,-3.850,325,275,320,300,307,2025-05-24T00:03:32.558925
577,-0.6368,0.2084,-0.7076,20.860,2.310,-5.250,330,290,321,328,323,2025-05-24T00:03:32.558937
578,-0.6578,0.2094,-0.7013,15.050,0.980,-1.120,341,302,348,334,345,2025-05-24T00:03:32.558948
579,-0.6500,0.2274,-0.6910,25.270,5.880,-1.890,327,324,333,335,347,2025-05-24T00:03:32.558959
580,-0.6969,0.2377,-0.6705,25.900,7.350,-1.470,365,355,373,337,369,2025-05-24T00:03:32.558969
581,-0.7213,0.2460,-0.6842,21.700,3.570,-0.070,373,362,369,357,374,2025-05-24T00:03:32.558981
582,-0.7144,0.2279,-0.6891,14.490,-0.630,-0.560,402,384,399,375,373,2025-05-24T00:03:32.558992
583,-0.7047,0.2284,-0.6988,9.730,-4.060,-2.590,384,388,367,374,391,2025-05-24T00:03:32.641537
584,-0.6759,0.2157,-0.7100,7.840,-9.660,0.280,399,388,411,373,397,2025-05-24T00:03:32.641583
585,-0.6798,0.1947,-0.7213,8.750,-9.590,1.610,398,402,412,381,408,2025-05-24T00:03:32.641595
586,-0.6803,0.2025,-0.7120,10.710,-8.960,3.290,396,396,417,385,405,2025-05-24T00:03:32.641605
587,-0.7017,0.1732,-0.7037,13.720,-11.760,4.410,412,404,404,365,403,2025-05-24T00:03:32.757865
588,-0.7227,0.1771,-0.6954,19.320,-18.900,5.110,404,402,411,365,406,2025-05-24T00:03:32.757916
589,-0.7300,0.1810,-0.6993,24.430,-22.750,5.950,388,376,365,348,359,2025-05-24T00:03:32.757930
590,-0.7100,0.2035,-0.6998,25.480,-23.450,6.440,285,227,265,221,213,2025-05-24T00:03:32.757942
591,-0.7252,0.1854,-0.7091,21.350,-21.350,3.570,252,191,237,203,191,2025-05-24T00:03:32.757953
592,-0.7300,0.1737,-0.7218,17.360,-23.660,1.960,237,192,254,208,188,2025-05-24T00:03:32.757963
593,-0.7213,0.1615,-0.7276,15.120,-18.970,2.380,254,184,246,197,187,2025-05-24T00:03:32.757975
594,-0.7276,0.1503,-0.7139,13.160,-9.100,2.520,254,185,249,197,185,2025-05-24T00:03:32.757985
595,-0.7564,0.1269,-0.7017,14.000,-4.970,2.590,238,191,222,205,188,2025-05-24T00:03:32.757996
596,-0.7871,0.1279,-0.6837,16.520,-5.740,3.150,257,190,244,201,189,2025-05-24T00:03:32.758008
597,-0.7686,0.1357,-0.6622,19.950,-7.630,5.320,272,192,251,203,192,2025-05-24T00:03:32.758018
598,-0.7359,0.1503,-0.6725,17.850,-1.260,5.460,266,195,252,212,197,2025-05-24T00:03:32.758027
599,-0.7232,0.1610,-0.6817,12.600,7.700,3.500,269,187,245,200,193,2025-05-24T00:03:32.758036
600,-0.7676,0.1425,-0.6803,9.030,9.660,2.170,264,200,253,212,198,2025-05-24T00:03:32.965968
601,-0.8218,0.1303,-0.6705,3.150,7.070,2.800,258,195,258,213,197,2025-05-24T00:03:32.966017
602,-0.8340,0.1064,-0.6778,0.770,-1.960,4.830,259,196,234,209,197,2025-05-24T00:03:32.966141
603,-0.7984,0.1200,-0.6788,0.420,-14.980,6.650,270,217,262,225,234,2025-05-24T00:03:32.966153
604,-0.7203,0.1288,-0.6754,7.350,-29.260,8.610,309,259,293,267,267,2025-05-24T00:03:32.966163
605,-0.6891,0.1601,-0.6295,14.140,-34.090,10.500,335,299,331,292,310,2025-05-24T00:03:32.966174
606,-0.6329,0.1986,-0.6100,20.720,-35.770,11.200,316,323,346,309,333,2025-05-24T00:03:32.966184
607,-0.5939,0.2064,-0.6212,19.180,-30.100,8.260,344,359,372,319,359,2025-05-24T00:03:32.966193
608,-0.5934,0.2181,-0.6163,14.420,-23.170,3.430,376,371,382,362,384,2025-05-24T00:03:32.966202
609,-0.6359,0.1952,-0.6608,7.980,-17.430,-2.520,366,390,390,356,395,2025-05-24T00:03:32.966211
610,-0.7110,0.1791,-0.6832,1.750,-15.610,-5.810,400,412,393,368,415,2025-05-24T00:03:32.966220
611,-0.7598,0.1454,-0.7247,-0.070,-19.040,-5.880,404,420,415,342,421,2025-05-24T00:03:32.966229
612,-0.7501,0.1357,-0.7130,3.850,-20.650,-1.960,409,429,420,391,430,2025-05-24T00:03:32.966238
613,-0.7652,0.1679,-0.6847,7.770,-19.180,3.850,416,433,428,380,438,2025-05-24T00:03:32.966246
614,-0.7564,0.1781,-0.6642,8.820,-12.950,6.020,426,439,431,382,439,2025-05-24T00:03:32.966288
615,-0.7320,0.1776,-0.6407,7.350,-8.050,7.420,418,447,430,358,443,2025-05-24T00:03:32.966297
616,-0.8359,0.2054,-0.6285,-2.030,-7.630,8.610,421,428,412,380,430,2025-05-24T00:03:32.966306
617,-0.9018,0.1679,-0.6364,-6.860,-25.060,9.940,420,436,416,395,431,2025-05-24T00:03:33.187046
618,-0.8940,0.1493,-0.6544,-3.570,-42.560,13.650,406,440,382,398,433,2025-05-24T00:03:33.187094
619,-0.8379,0.1586,-0.6725,0.560,-51.100,16.100,397,387,419,382,412,2025-05-24T00:03:33.187106
620,-0.7442,0.1781,-0.6700,-0.560,-46.550,18.550,380,412,388,373,401,2025-05-24T00:03:33.187124
621,-0.7676,0.2035,-0.7027,-11.480,-35.000,16.800,355,388,370,363,380,2025-05-24T00:03:33.187135
622,-0.7798,0.1732,-0.6710,-15.610,-33.390,14.000,372,375,366,334,387,2025-05-24T00:03:33.187146
623,-0.8491,0.2191,-0.5880,-16.030,-41.020,12.390,342,326,352,372,344,2025-05-24T00:03:33.187157
624,-0.8408,0.1962,-0.5583,-14.490,-39.620,11.480,300,303,344,364,353,2025-05-24T00:03:33.187167
625,-0.8057,0.1786,-0.5690,-9.240,-48.580,11.130,311,331,362,376,385,2025-05-24T00:03:33.187177
626,-0.7886,0.1884,-0.5524,0.140,-43.120,7.000,293,300,310,329,353,2025-05-24T00:03:33.187284
627,-0.7369,0.2279,-0.5436,4.270,-43.400,5.460,340,312,344,343,311,2025-05-24T00:03:33.187297
628,-0.7627,0.2123,-0.5763,7.770,-43.330,4.340,325,305,315,354,361,2025-05-24T00:03:33.187307
629,-0.7320,0.1972,-0.6022,8.330,-38.220,0.770,280,226,272,271,312,2025-05-24T00:03:33.187316
630,-0.7671,0.1830,-0.5968,11.480,-34.440,0.700,200,210,247,306,287,2025-05-24T00:03:33.187325
631,-0.8125,0.1659,-0.5876,21.910,-34.020,0.420,154,211,240,245,287,2025-05-24T00:03:33.187373
632,-0.8091,0.1781,-0.5714,32.270,-40.880,0.140,160,178,198,293,283,2025-05-24T00:03:33.187383
633,-0.8359,0.1962,-0.5612,32.480,-46.690,1.400,300,192,224,274,295,2025-05-24T00:03:33.187392
634,-0.8428,0.1893,-0.5383,28.840,-50.190,3.430,303,164,228,252,235,2025-05-24T00:03:33.187402
635,-0.7984,0.1967,-0.4831,24.500,-43.330,2.100,304,164,233,279,265,2025-05-24T00:03:33.371907
636,-0.7613,0.1937,-0.4939,22.680,-32.760,0.350,238,160,214,284,283,2025-05-24T00:03:33.371960
637,-0.7813,0.1742,-0.5153,26.530,-23.800,3.080,284,194,229,281,283,2025-05-24T00:03:33.371974
638,-0.8145,0.1557,-0.5295,26.740,-25.480,5.880,283,207,229,288,273,2025-05-24T00:03:33.371986
639,-0.8291,0.1713,-0.5280,26.040,-26.110,7.420,298,171,232,281,277,2025-05-24T00:03:33.371997
640,-0.8296,0.1791,-0.5407,1.540,-26.040,8.330,304,205,229,278,278,2025-05-24T00:03:33.372007
641,-0.8433,0.1669,-0.5041,12.810,-20.510,11.060,293,210,233,290,276,2025-05-24T00:03:33.372018
642,-0.8974,0.1610,-0.4758,10.850,-18.480,12.950,292,214,237,280,249,2025-05-24T00:03:33.372029
643,-0.8784,0.1918,-0.4397,7.210,-20.580,13.370,307,205,223,269,271,2025-05-24T00:03:33.372039
644,-0.8584,0.1976,-0.4802,-3.570,-19.250,10.990,285,208,204,254,273,2025-05-24T00:03:33.372049
645,-0.8169,0.1615,-0.4860,-16.520,-16.940,6.790,303,172,223,289,224,2025-05-24T00:03:33.372059
646,-0.8067,0.1781,-0.5168,-12.320,-11.200,5.740,259,208,233,287,226,2025-05-24T00:03:33.372069
647,-0.8057,0.1293,-0.5319,-16.800,-12.530,4.970,285,210,236,273,257,2025-05-24T00:03:33.372078
648,-0.8135,0.1288,-0.5339,-6.090,-10.920,5.390,283,200,198,250,235,2025-05-24T00:03:33.372092
649,-0.8730,0.1508,-0.5261,2.240,-12.810,5.530,303,217,231,236,242,2025-05-24T00:03:33.372135
650,-0.8618,0.1366,-0.3904,-0.280,-14.910,4.550,313,223,236,239,220,2025-05-24T00:03:33.372146
651,-0.8769,0.1757,-0.4895,8.890,-19.880,2.310,250,171,220,276,250,2025-05-24T00:03:33.578948
652,-0.8569,0.2059,-0.4372,-4.410,-24.290,3.150,244,186,231,238,239,2025-05-24T00:03:33.578992
653,-0.8477,0.2059,-0.4524,-6.090,-25.130,3.150,304,193,229,297,240,2025-05-24T00:03:33.579003
654,-0.8472,0.1869,-0.4558,-16.870,-25.130,1.610,293,216,216,287,243,2025-05-24T00:03:33.579012
655,-0.8438,0.1796,-0.4631,-13.300,-22.260,2.590,303,220,212,244,245,2025-05-24T00:03:33.579021
656,-0.8662,0.1562,-0.4768,-7.770,-22.540,7.490,313,220,237,240,237,2025-05-24T00:03:33.579031
657,-0.9189,0.1474,-0.4207,-1.890,-27.230,7.840,308,205,238,286,195,2025-05-24T00:03:33.579039
658,-0.9794,0.1493,-0.4475,1.890,-35.000,5.670,297,205,236,239,214,2025-05-24T00:03:33.579047
659,-0.9921,0.1879,-0.4275,5.670,-45.150,5.810,292,198,187,250,202,2025-05-24T00:03:33.579055
660,-0.9780,0.1801,-0.4187,6.440,-62.440,6.650,315,207,233,278,201,2025-05-24T00:03:33.579063
661,-0.9394,0.1771,-0.4104,7.210,-74.760,9.520,301,191,234,293,204,2025-05-24T00:03:33.579070
662,-0.8833,0.1459,-0.3850,11.900,-71.470,13.860,269,191,236,241,186,2025-05-24T00:03:33.579081
663,-0.8896,0.1566,-0.3694,15.750,-65.870,16.380,287,192,219,258,186,2025-05-24T00:03:33.579090
664,-0.9350,0.1293,-0.3201,22.960,-60.270,17.850,244,192,229,234,179,2025-05-24T00:03:33.579099
665,-1.0150,0.1318,-0.2830,33.320,-69.580,16.380,298,195,233,213,178,2025-05-24T00:03:33.579149
666,-0.9975,0.1698,-0.2713,43.260,-83.580,17.570,291,194,240,209,177,2025-05-24T00:03:33.579157
667,-0.9823,0.1903,-0.2757,43.050,-95.410,21.000,285,189,230,212,174,2025-05-24T00:03:33.579167
668,-0.9389,0.1928,-0.2704,40.670,-99.890,21.280,278,190,229,217,170,2025-05-24T00:03:33.814820
669,-0.9101,0.1937,-0.2655,37.450,-100.660,20.440,277,188,228,210,161,2025-05-24T00:03:33.814868
670,-0.8906,0.1952,-0.2538,37.450,-99.330,19.810,256,186,214,214,159,2025-05-24T00:03:33.814881
671,-0.8989,0.1967,-0.2338,38.220,-95.410,20.650,223,182,227,213,161,2025-05-24T00:03:33.814891
672,-0.9052,0.1913,-0.2084,41.370,-90.650,22.400,260,183,224,210,161,2025-05-24T00:03:33.814901
673,-0.8886,0.2108,-0.1918,41.300,-89.530,22.890,256,186,209,213,161,2025-05-24T00:03:33.814911
674,-0.8808,0.2372,-0.1713,39.830,-85.960,23.240,264,183,209,210,158,2025-05-24T00:03:33.814924
675,-0.8872,0.2313,-0.1688,32.410,-82.600,22.120,209,184,220,207,159,2025-05-24T00:03:33.814933
676,-0.8599,0.2347,-0.1503,25.270,-79.030,19.320,249,184,221,208,158,2025-05-24T00:03:33.814942
677,-0.8569,0.2201,-0.1664,22.820,-77.140,17.430,232,184,204,209,156,2025-05-24T00:03:33.814951
678,-0.9033,0.2225,-0.1625,23.380,-75.880,16.870,214,177,198,203,153,2025-05-24T00:03:33.814960
679,-0.9438,0.2186,-0.1240,27.230,-78.750,17.360,240,173,203,202,152,2025-05-24T00:03:33.814970
680,-1.0067,0.2191,-0.0717,30.590,-92.610,17.640,225,177,203,203,153,2025-05-24T00:03:33.814978
681,-1.0321,0.2089,-0.0542,32.270,-112.280,15.400,222,176,202,199,151,2025-05-24T00:03:33.814986
682,-0.9941,0.2128,-0.0508,33.460,-124.740,14.840,204,175,203,201,151,2025-05-24T00:03:33.815026
683,-0.9477,0.1942,-0.0439,36.400,-125.440,14.910,226,171,201,199,147,2025-05-24T00:03:33.815035
684,-0.9189,0.1986,-0.0073,40.040,-122.430,13.930,213,158,187,185,137,2025-05-24T00:03:33.815044
685,-0.9160,0.2089,0.0420,44.380,-122.500,12.740,203,154,177,177,125,2025-05-24T00:03:33.999889
686,-0.9384,0.2264,0.1049,50.960,-130.410,13.720,213,147,172,174,126,2025-05-24T00:03:33.999937
687,-0.9350,0.2191,0.1503,58.450,-143.150,16.030,200,144,162,169,119,2025-05-24T00:03:34.000058
688,-0.9482,0.2001,0.1469,67.620,-157.430,16.940,211,145,170,172,122,2025-05-24T00:03:34.000070
689,-0.9560,0.1918,0.1347,78.820,-175.420,16.660,198,135,166,166,117,2025-05-24T00:03:34.000081
690,-0.9643,0.2074,0.1264,85.750,-196.280,13.860,198,138,169,169,117,2025-05-24T00:03:34.000095
691,-0.9326,0.2557,0.1225,89.040,-217.350,10.500,184,137,171,172,121,2025-05-24T00:03:34.000104
692,-0.8682,0.2943,0.1337,83.580,-227.500,6.720,183,134,167,167,116,2025-05-24T00:03:34.000114
693,-0.8355,0.3231,0.1654,70.700,-233.310,4.550,190,143,174,174,123,2025-05-24T00:03:34.000123
694,-0.8755,0.3138,0.1923,57.260,-243.390,-0.770,183,134,165,167,119,2025-05-24T00:03:34.000132
695,-0.9165,0.2738,0.2255,47.460,-255.080,-2.240,197,137,163,170,118,2025-05-24T00:03:34.000141
696,-0.9457,0.2518,0.2694,42.070,-268.730,1.120,191,135,169,174,123,2025-05-24T00:03:34.000150
697,-0.9213,0.2513,0.3050,39.130,-275.730,0.490,188,130,161,167,116,2025-05-24T00:03:34.000158
698,-0.8350,0.2996,0.3357,32.340,-273.420,-5.180,199,141,171,177,125,2025-05-24T00:03:34.000166
699,-0.7696,0.3235,0.3455,19.460,-258.160,-11.970,201,138,171,175,126,2025-05-24T00:03:34.000212
700,-0.7300,0.3396,0.3802,5.880,-230.930,-16.310,213,142,173,178,126,2025-05-24T00:03:34.000222
701,-0.8057,0.3172,0.4031,-1.190,-216.580,-19.180,208,144,177,180,130,2025-05-24T00:03:34.000231
702,-0.8481,0.3392,0.4421,-8.680,-209.440,-20.230,202,145,172,177,129,2025-05-24T00:03:34.000240
703,-0.7481,0.4109,0.5261,-35.770,-197.540,-18.620,210,151,181,185,134,2025-05-24T00:03:34.192657
704,-0.7081,0.4104,0.6222,-35.840,-178.080,-15.470,213,148,176,182,132,2025-05-24T00:03:34.192702
705,-0.7208,0.3284,0.6954,-45.010,-144.690,-14.420,221,148,175,184,132,2025-05-24T00:03:34.192714
706,-0.7383,0.2381,0.7452,-34.860,-145.880,-11.340,220,154,182,188,137,2025-05-24T00:03:34.192727
707,-0.7579,0.2191,0.7715,-12.320,-131.810,-7.700,217,151,172,184,137,2025-05-24T00:03:34.192737
708,-0.7359,0.2674,0.8028,3.010,-113.680,-8.890,217,156,185,189,139,2025-05-24T00:03:34.192746
709,-0.7013,0.3348,0.8272,7.000,-94.990,-15.120,209,153,183,189,138,2025-05-24T00:03:34.192756
710,-0.7579,0.3348,0.8496,-17.150,-85.190,-19.740,213,157,186,190,141,2025-05-24T00:03:34.192765
711,-0.7959,0.2835,0.8779,-8.890,-84.770,-21.980,210,160,184,193,147,2025-05-24T00:03:34.192773
712,-0.7793,0.2196,0.8755,-15.050,-83.580,-21.420,200,158,182,192,142,2025-05-24T00:03:34.192783
713,-0.7491,0.1581,0.8867,-12.530,-71.050,-18.340,208,163,191,196,145,2025-05-24T00:03:34.192791
714,-0.7169,0.1366,0.8974,-3.430,-48.580,-15.050,206,157,185,192,144,2025-05-24T00:03:34.192800
715,-0.7154,0.1332,0.8979,7.210,-31.500,-13.930,205,159,187,192,142,2025-05-24T00:03:34.192808
716,-0.7037,0.1654,0.8769,14.140,-23.870,-11.270,204,159,188,195,144,2025-05-24T00:03:34.192816
717,-0.6676,0.1688,0.8169,20.650,-24.220,-6.790,195,160,188,193,145,2025-05-24T00:03:34.192979
718,-0.5880,0.1601,0.7418,24.920,-25.900,-4.480,206,163,189,196,145,2025-05-24T00:03:34.192992
719,-0.5153,0.1566,0.7042,24.430,-25.550,-7.350,209,162,191,197,146,2025-05-24T00:03:34.399688
720,-0.4299,0.1152,0.6661,19.880,-22.820,-12.460,201,163,191,197,147,2025-05-24T00:03:34.399738
721,-0.3865,0.0874,0.6500,14.840,-20.300,-17.430,199,164,187,198,149,2025-05-24T00:03:34.399751
722,-0.3689,0.0703,0.6549,8.330,-18.060,-21.070,204,163,187,197,147,2025-05-24T00:03:34.399762
723,-0.3811,0.0795,0.6852,5.390,-19.810,-29.050,203,165,189,199,148,2025-05-24T00:03:34.399772
724,-0.3694,0.1742,0.7642,-1.470,-23.380,-42.560,204,161,190,197,149,2025-05-24T00:03:34.399782
725,-0.3255,0.2250,0.8252,-19.390,-24.290,-54.390,211,163,191,198,148,2025-05-24T00:03:34.399792
726,-0.3538,0.2342,0.8852,-37.870,-21.420,-60.900,207,164,191,199,151,2025-05-24T00:03:34.399805
727,-0.4792,0.3094,1.0858,-46.970,-19.740,-66.430,207,165,187,197,149,2025-05-24T00:03:34.399814
728,-0.9902,0.2743,1.4167,-43.260,-41.090,-62.020,201,168,192,198,151,2025-05-24T00:03:34.399824
729,-1.0019,-0.1967,1.1024,-22.050,-63.280,-34.860,206,166,188,200,152,2025-05-24T00:03:34.399833
730,-0.8306,-0.0864,0.9916,2.240,-14.210,-2.660,203,166,195,199,150,2025-05-24T00:03:34.399843
731,-0.6007,0.1088,0.7569,48.160,8.470,12.880,201,167,191,201,153,2025-05-24T00:03:34.399852
732,-0.5861,0.1893,0.7569,66.570,-35.140,18.410,180,166,192,196,150,2025-05-24T00:03:34.399861
733,-0.4046,0.3484,0.8252,33.740,-74.620,16.590,210,169,196,199,152,2025-05-24T00:03:34.399901
734,-0.3719,0.2245,0.9784,2.240,-78.190,7.560,205,169,191,200,152,2025-05-24T00:03:34.399910
735,-0.3689,0.1518,0.9721,9.660,-65.590,5.810,208,168,194,200,152,2025-05-24T00:03:34.399919
736,-0.4182,0.0966,0.9482,14.000,-35.910,3.010,213,168,193,201,153,2025-05-24T00:03:34.626032
737,-0.4904,0.1010,0.8599,46.270,-33.390,-8.540,204,167,193,196,152,2025-05-24T00:03:34.626082
738,-0.4948,0.1532,0.8784,44.870,-27.510,-10.780,214,169,195,199,154,2025-05-24T00:03:34.626096
739,-0.4695,0.1693,0.9072,28.910,-15.330,-10.430,213,166,193,198,154,2025-05-24T00:03:34.626108
740,-0.4431,0.2396,0.7554,11.550,-6.650,-9.940,215,167,192,199,153,2025-05-24T00:03:34.626120
741,-0.3836,0.3016,0.8647,6.230,-5.040,-8.400,208,170,191,200,154,2025-05-24T00:03:34.626132
742,-0.3567,0.3030,0.8882,2.380,-5.740,-6.160,214,169,192,197,153,2025-05-24T00:03:34.626142
743,-0.3719,0.2591,0.9213,1.470,-2.310,-4.200,215,168,194,201,154,2025-05-24T00:03:34.626153
744,-0.4353,0.2181,0.9048,-0.560,-2.380,-1.960,218,169,193,198,153,2025-05-24T00:03:34.626163
745,-0.4729,0.2050,0.8911,-0.700,-7.700,-0.770,224,168,193,198,154,2025-05-24T00:03:34.626172
746,-0.4563,0.2167,0.8721,0.770,-11.970,1.820,212,170,193,201,152,2025-05-24T00:03:34.626185
747,-0.4255,0.2181,0.8804,0.630,-11.130,1.470,210,166,192,195,152,2025-05-24T00:03:34.626195
748,-0.4070,0.2191,0.9043,-1.050,-8.470,-0.910,211,169,195,200,153,2025-05-24T00:03:34.626205
749,-0.3865,0.2098,0.9199,-2.730,-6.510,-2.520,218,167,192,198,153,2025-05-24T00:03:34.626215
750,-0.4060,0.2030,0.9096,-4.480,-2.030,-4.410,221,169,192,199,153,2025-05-24T00:03:34.626224
751,-0.4416,0.2006,0.8833,-4.340,-2.940,-7.840,226,169,194,200,155,2025-05-24T00:03:34.626272
752,-0.4436,0.2059,0.8950,-3.990,-6.440,-8.750,221,169,193,198,151,2025-05-24T00:03:34.626283
753,-0.4436,0.1952,0.9170,-6.860,-7.490,-8.400,223,168,192,201,155,2025-05-24T00:03:34.626291
754,-0.4641,0.2054,0.8618,-10.850,-12.180,-10.080,218,167,192,200,155,2025-05-24T00:03:34.626300
755,-0.4568,0.1757,0.9228,-7.210,-11.270,-11.340,218,170,190,200,154,2025-05-24T00:03:34.821045
756,-0.4207,0.2020,0.8623,-5.040,-16.870,-12.320,218,168,193,201,155,2025-05-24T00:03:34.821110
757,-0.4553,0.1537,0.9267,-4.410,-19.320,-10.780,218,167,192,198,154,2025-05-24T00:03:34.821126
758,-0.3714,0.2059,0.9374,-2.380,-15.960,-10.920,212,172,195,202,157,2025-05-24T00:03:34.821140
759,-0.3289,0.1669,0.9765,-3.290,-6.790,-5.180,210,167,192,199,156,2025-05-24T00:03:34.821154
760,-0.4377,0.1825,0.8926,1.050,-0.140,-2.170,218,168,192,200,153,2025-05-24T00:03:34.821169
761,-0.4416,0.2274,0.9936,0.420,-0.980,-6.370,210,168,194,199,157,2025-05-24T00:03:34.821183
762,-0.4587,0.1967,0.9106,-1.610,-7.070,-7.350,214,168,194,200,155,2025-05-24T00:03:34.821196
763,-0.4031,0.2572,0.8974,-9.940,-4.340,-10.920,213,172,198,202,157,2025-05-24T00:03:34.821208
764,-0.3977,0.2323,0.9126,-16.170,-0.490,-15.540,212,168,196,201,157,2025-05-24T00:03:34.821224
765,-0.4363,0.1947,0.9243,-17.010,-3.010,-21.210,220,171,196,202,156,2025-05-24T00:03:34.821236
766,-0.4558,0.1737,0.9311,-20.930,-3.010,-25.410,224,170,197,202,157,2025-05-24T00:03:34.821247
767,-0.4973,0.1337,0.9209,-30.170,-3.570,-32.340,221,168,195,201,155,2025-05-24T00:03:34.821258
768,-0.5100,0.0893,0.9238,-35.980,-6.510,-40.180,216,169,193,202,158,2025-05-24T00:03:34.821268
769,-0.4939,0.0937,0.9394,-41.720,-2.380,-45.150,222,168,195,202,156,2025-05-24T00:03:34.821321
770,-0.5144,0.1054,0.9335,-46.340,4.410,-50.680,216,170,197,204,157,2025-05-24T00:03:35.012290
771,-0.5124,0.1532,0.9897,-46.410,6.650,-55.300,223,172,198,207,161,2025-05-24T00:03:35.012338
772,-0.5485,0.2464,1.0541,-47.250,7.210,-54.320,222,170,193,202,155,2025-05-24T00:03:35.012456
773,-0.6373,0.2879,1.1434,-55.720,-2.100,-54.390,228,171,197,204,157,2025-05-24T00:03:35.012468
774,-0.5573,0.2220,1.1307,-70.700,-2.590,-57.820,222,171,196,203,158,2025-05-24T00:03:35.012479
775,-0.6383,0.0839,1.0326,-90.160,17.220,-53.970,232,172,202,203,159,2025-05-24T00:03:35.012490
776,-0.7105,-0.1152,1.0487,-88.620,25.900,-43.470,230,171,209,206,157,2025-05-24T00:03:35.012501
777,-0.8564,-0.1771,1.0975,-78.400,21.630,-36.400,221,169,209,204,156,2025-05-24T00:03:35.012512
778,-0.8003,-0.0903,1.1868,-63.490,32.900,-37.520,223,172,207,204,156,2025-05-24T00:03:35.012522
779,-0.7876,-0.0181,1.2273,-58.380,57.750,-44.660,226,168,210,203,156,2025-05-24T00:03:35.012532
780,-0.8013,0.0068,1.2337,-60.620,79.380,-53.340,223,168,208,202,155,2025-05-24T00:03:35.012542
781,-0.8608,-0.0590,1.2024,-57.190,82.740,-51.520,188,170,210,202,156,2025-05-24T00:03:35.012552
782,-0.8545,-0.0771,1.1468,-52.080,75.530,-39.900,230,167,203,198,154,2025-05-24T00:03:35.012562
783,-0.7691,-0.0503,1.0838,-43.680,74.830,-27.930,222,170,206,197,156,2025-05-24T00:03:35.012573
784,-0.7037,-0.0259,1.0370,-36.960,82.670,-21.490,225,167,207,195,155,2025-05-24T00:03:35.012582
785,-0.6744,-0.0024,1.0194,-35.700,94.430,-19.670,226,168,198,194,154,2025-05-24T00:03:35.012623
786,-0.6256,0.0361,1.0053,-38.990,110.880,-27.510,222,166,188,195,154,2025-05-24T00:03:35.012634
787,-0.5954,0.0039,1.0043,-43.330,136.220,-39.900,216,164,197,188,154,2025-05-24T00:03:35.217354
788,-0.6310,-0.0888,0.9740,-40.740,164.010,-44.660,226,169,207,192,153,2025-05-24T00:03:35.217577
789,-0.7198,-0.1640,0.9399,-31.080,182.280,-43.400,219,165,202,190,152,2025-05-24T00:03:35.217598
790,-0.8247,-0.1415,0.9160,-16.170,187.320,-40.600,206,167,203,190,153,2025-05-24T00:03:35.217610
791,-0.8794,-0.0805,0.8828,-12.180,184.870,-39.270,226,168,204,187,154,2025-05-24T00:03:35.217621
792,-0.8891,-0.0376,0.8530,-23.940,188.720,-40.250,222,164,201,184,152,2025-05-24T00:03:35.217631
793,-0.8979,-0.0947,0.7954,-38.780,194.110,-34.930,216,167,203,189,153,2025-05-24T00:03:35.217642
794,-0.9482,-0.2284,0.7388,-39.550,194.110,-13.650,221,166,200,185,153,2025-05-24T00:03:35.217652
795,-1.0331,-0.3011,0.6881,-24.430,184.380,10.710,225,166,202,185,149,2025-05-24T00:03:35.217663
796,-1.0502,-0.2816,0.6486,-11.480,172.060,26.460,221,168,203,189,153,2025-05-24T00:03:35.217672
797,-1.0067,-0.2640,0.5890,-6.370,165.130,37.380,222,163,200,188,152,2025-05-24T00:03:35.217683
798,-1.0136,-0.2674,0.5324,-12.250,157.920,42.770,201,167,204,187,152,2025-05-24T00:03:35.217696
799,-0.9740,-0.2186,0.4973,-20.650,160.090,46.760,203,163,200,188,153,2025-05-24T00:03:35.217706
800,-1.0111,-0.1815,0.4558,-32.480,166.810,51.450,208,164,200,190,151,2025-05-24T00:03:35.217715
801,-1.1019,-0.2255,0.4041,-45.360,162.470,54.740,223,165,200,191,151,2025-05-24T00:03:35.406580
802,-1.1107,-0.3187,0.3538,-51.240,150.010,63.840,178,161,199,190,150,2025-05-24T00:03:35.406612
803,-1.1141,-0.3553,0.3182,-49.420,138.530,71.960,202,162,197,191,152,2025-05-24T00:03:35.406624
804,-1.0546,-0.3089,0.2762,-40.390,135.590,80.150,216,164,194,191,153,2025-05-24T00:03:35.406633
805,-1.0409,-0.2650,0.2552,-38.850,130.900,86.030,204,164,195,191,151,2025-05-24T00:03:35.406643
806,-1.0263,-0.2435,0.2455,-45.010,115.150,89.180,217,165,197,192,152,2025-05-24T00:03:35.406651
807,-0.9701,-0.2479,0.2191,-48.300,91.140,92.260,209,164,194,190,152,2025-05-24T00:03:35.406660
808,-0.8774,-0.2469,0.1859,-42.770,80.150,95.480,210,164,198,189,152,2025-05-24T00:03:35.441024
809,-0.8345,-0.2137,0.1874,-30.030,79.520,97.790,217,165,196,190,152,2025-05-24T00:03:35.441089
810,-0.8306,-0.1845,0.1859,-26.180,78.470,96.110,212,161,190,191,150,2025-05-24T00:03:35.441104
811,-0.8291,-0.1830,0.1786,-29.190,74.200,92.190,210,164,195,194,153,2025-05-24T00:03:35.441121
812,-0.7832,-0.1806,0.1669,-34.090,71.190,90.510,207,164,194,191,151,2025-05-24T00:03:35.441137
813,-0.7471,-0.1976,0.1464,-31.290,70.420,92.260,222,163,195,191,149,2025-05-24T00:03:35.441150
814,-0.7125,-0.1908,0.1523,-19.740,67.060,93.450,215,165,190,192,151,2025-05-24T00:03:35.441160
815,-0.6847,-0.1454,0.1693,-6.860,55.300,90.860,216,163,193,191,152,2025-05-24T00:03:35.441171
816,-0.6432,-0.1015,0.1581,-1.330,37.240,83.090,212,165,192,191,153,2025-05-24T00:03:35.441181
817,-0.5739,-0.0634,0.1303,0.770,21.420,75.810,213,164,197,192,151,2025-05-24T00:03:35.441191
818,-0.5368,-0.0673,0.0800,5.810,16.170,69.440,215,163,197,191,150,2025-05-24T00:03:35.441201
819,-0.4900,-0.0293,0.0512,17.990,17.220,65.100,215,164,197,192,153,2025-05-24T00:03:35.441211
820,-0.4748,0.0244,0.0303,26.530,27.440,60.620,209,165,189,191,151,2025-05-24T00:03:35.441220
821,-0.5158,0.0693,0.0283,27.300,38.500,51.940,213,163,197,192,153,2025-05-24T00:03:35.441230
822,-0.5690,0.0927,0.0215,23.520,43.680,43.750,207,164,196,192,153,2025-05-24T00:03:35.441278
823,-0.6202,0.1152,0.0395,21.070,36.190,41.230,215,166,197,191,153,2025-05-24T00:03:35.626253
824,-0.6788,0.1225,0.0400,22.190,25.480,38.710,185,164,192,190,153,2025-05-24T00:03:35.626303
825,-0.7169,0.1274,0.0371,24.990,12.600,34.510,209,163,194,191,151,2025-05-24T00:03:35.626317
826,-0.7169,0.1288,0.0151,30.310,0.000,28.700,209,167,193,192,154,2025-05-24T00:03:35.626328
827,-0.7076,0.1484,-0.0127,38.150,-4.410,25.410,217,165,192,192,154,2025-05-24T00:03:35.626339
828,-0.7447,0.1679,-0.0283,44.240,-3.010,22.540,206,166,196,192,154,2025-05-24T00:03:35.626349
829,-0.8072,0.2001,-0.0337,46.480,-0.280,20.090,216,165,196,192,153,2025-05-24T00:03:35.626359
830,-0.8418,0.2567,-0.0244,45.290,0.560,20.020,217,165,193,191,153,2025-05-24T00:03:35.626368
831,-0.8691,0.2855,-0.0215,37.940,1.400,20.510,185,167,191,193,154,2025-05-24T00:03:35.626377
832,-0.8940,0.2865,-0.0224,29.960,2.800,22.120,178,168,194,192,153,2025-05-24T00:03:35.626386
833,-0.9345,0.2865,-0.0239,25.410,2.940,23.940,214,167,192,192,153,2025-05-24T00:03:35.626394
834,-0.9550,0.2943,-0.0264,25.060,1.050,25.270,206,167,196,193,154,2025-05-24T00:03:35.626404
835,-0.9579,0.3143,-0.0356,25.550,0.910,25.270,200,167,195,190,153,2025-05-24T00:03:35.626413
836,-0.9560,0.3475,-0.0229,24.710,-0.490,26.740,215,168,196,193,156,2025-05-24T00:03:35.626421
837,-0.9350,0.3958,0.0015,20.580,-2.100,30.520,209,166,194,190,154,2025-05-24T00:03:35.626430
838,-0.9311,0.4333,0.0322,11.410,-3.570,36.540,208,166,196,192,153,2025-05-24T00:03:35.834841
839,-0.9184,0.4470,0.0590,0.770,-4.550,40.180,211,165,195,191,153,2025-05-24T00:03:35.834890
840,-0.8965,0.4353,0.0708,-6.790,-0.980,43.260,214,166,194,189,154,2025-05-24T00:03:35.834905
841,-0.9072,0.4153,0.0698,-8.750,10.570,42.630,209,166,193,192,156,2025-05-24T00:03:35.834916
842,-0.8799,0.4387,0.0683,-10.500,31.640,42.350,213,166,191,191,155,2025-05-24T00:03:35.834925
843,-0.8906,0.4548,0.0639,-13.790,70.000,42.280,213,166,193,191,155,2025-05-24T00:03:35.834935
844,-0.9213,0.4455,0.0361,-19.880,76.090,41.090,200,164,189,191,155,2025-05-24T00:03:35.834945
845,-0.9155,0.4817,0.0137,-28.770,97.790,41.510,183,162,190,189,152,2025-05-24T00:03:35.834954
846,-0.9501,0.4841,-0.0039,-38.640,115.010,42.070,213,165,190,191,154,2025-05-24T00:03:35.834964
847,-1.0643,0.4348,-0.0151,-45.570,117.670,43.260,215,164,191,191,154,2025-05-24T00:03:35.834973
848,-1.1214,0.4002,-0.0195,-46.550,106.610,47.670,205,165,191,191,154,2025-05-24T00:03:35.834982
849,-1.0907,0.3855,-0.0400,-44.660,98.770,54.180,205,164,190,191,152,2025-05-24T00:03:35.834992
850,-1.0809,0.3753,-0.0717,-41.790,97.860,59.220,204,163,189,190,153,2025-05-24T00:03:35.835001
851,-1.0863,0.3636,-0.0825,-34.300,94.290,61.460,216,166,191,191,155,2025-05-24T00:03:35.835010
852,-1.0243,0.3860,-0.1137,-28.980,90.020,65.520,203,165,191,190,154,2025-05-24T00:03:35.835047
853,-0.9980,0.3953,-0.1332,-29.890,90.300,67.060,207,165,190,190,152,2025-05-24T00:03:35.835057
854,-0.9711,0.4197,-0.1352,-31.500,85.750,68.110,195,166,190,189,153,2025-05-24T00:03:35.835067
855,-0.9687,0.4285,-0.1220,-35.700,78.050,69.720,211,165,189,191,152,2025-05-24T00:03:36.067433
856,-0.9526,0.4319,-0.1152,-40.460,65.730,72.660,212,164,190,191,154,2025-05-24T00:03:36.067488
857,-0.9277,0.4080,-0.1108,-42.560,53.200,73.990,212,163,190,189,152,2025-05-24T00:03:36.067635
858,-0.8403,0.4197,-0.1171,-36.680,43.050,73.570,212,165,190,190,154,2025-05-24T00:03:36.067654
859,-0.7227,0.4631,-0.1283,-30.870,47.600,70.560,211,163,189,190,154,2025-05-24T00:03:36.067670
860,-0.6852,0.4978,-0.1322,-27.370,55.580,65.730,216,165,190,189,154,2025-05-24T00:03:36.067685
861,-0.6690,0.5158,-0.1371,-23.800,58.100,62.090,210,164,189,191,155,2025-05-24T00:03:36.067700
862,-0.6803,0.5373,-0.1425,-23.170,56.420,58.310,201,165,188,189,154,2025-05-24T00:03:36.067714
863,-0.7017,0.5388,-0.1562,-23.240,48.860,52.220,209,166,189,190,154,2025-05-24T00:03:36.067728
864,-0.6886,0.5368,-0.1732,-23.170,39.620,46.550,208,164,186,189,153,2025-05-24T00:03:36.067742
865,-0.6520,0.5397,-0.1854,-19.110,30.730,40.670,182,164,189,188,151,2025-05-24T00:03:36.067755
866,-0.6276,0.5441,-0.1991,-14.000,26.600,36.960,204,165,189,190,155,2025-05-24T00:03:36.067769
867,-0.6090,0.5729,-0.2069,-10.360,25.620,33.390,211,163,189,188,154,2025-05-24T00:03:36.067782
868,-0.6046,0.5763,-0.2250,-7.770,24.080,28.070,207,164,189,188,154,2025-05-24T00:03:36.067795
869,-0.6022,0.5895,-0.2367,-5.390,24.080,22.960,212,165,189,189,154,2025-05-24T00:03:36.067850
870,-0.6266,0.6022,-0.2425,-3.360,23.170,19.250,217,164,185,189,154,2025-05-24T00:03:36.067867
871,-0.6871,0.5939,-0.2513,-1.120,14.560,14.140,210,166,190,190,154,2025-05-24T00:03:36.067880
872,-0.6978,0.5949,-0.2591,1.540,2.380,9.590,214,162,189,188,154,2025-05-24T00:03:36.252670
873,-0.6754,0.6027,-0.2723,4.970,-5.950,6.580,205,164,190,188,153,2025-05-24T00:03:36.252709
874,-0.6632,0.6178,-0.2860,7.000,-8.190,4.970,212,163,190,191,155,2025-05-24T00:03:36.252719
875,-0.6730,0.6051,-0.3094,9.310,-9.030,1.400,205,164,187,188,152,2025-05-24T00:03:36.252727
876,-0.6676,0.5968,-0.3333,12.320,-9.310,-0.980,209,165,187,190,155,2025-05-24T00:03:36.252738
877,-0.6695,0.6061,-0.3426,13.090,-5.530,-3.640,204,164,189,189,153,2025-05-24T00:03:36.252746
878,-0.7022,0.6071,-0.3411,11.760,-4.060,-7.490,204,164,191,191,154,2025-05-24T00:03:36.252754
879,-0.7291,0.5890,-0.3484,10.780,-10.500,-11.410,204,165,187,191,155,2025-05-24T00:03:36.252761
880,-0.7056,0.5866,-0.3567,10.850,-15.750,-11.760,209,163,189,189,154,2025-05-24T00:03:36.252768
881,-0.6803,0.6105,-0.3597,9.100,-14.840,-9.520,206,166,191,191,156,2025-05-24T00:03:36.252776
882,-0.6798,0.6159,-0.3548,7.140,-11.270,-8.470,203,163,189,190,155,2025-05-24T00:03:36.252784
883,-0.6978,0.6124,-0.3558,5.740,-13.440,-9.800,204,165,189,190,153,2025-05-24T00:03:36.252791
884,-0.7003,0.6046,-0.3636,6.720,-15.330,-12.320,206,164,191,191,155,2025-05-24T00:03:36.252797
885,-0.6773,0.6232,-0.3680,7.770,-10.990,-13.230,209,165,190,190,155,2025-05-24T00:03:36.252804
886,-0.6998,0.6232,-0.3762,7.490,-5.600,-14.000,211,164,190,191,155,2025-05-24T00:03:36.252838
887,-0.7486,0.6144,-0.3753,5.670,-3.430,-14.980,184,165,187,190,152,2025-05-24T00:03:36.252845
888,-0.7681,0.6188,-0.3777,1.750,-5.810,-15.400,208,164,189,190,154,2025-05-24T00:03:36.252852
889,-0.7867,0.6168,-0.3836,-2.100,-9.660,-13.020,185,165,187,190,154,2025-05-24T00:03:36.252859
890,-0.8037,0.6232,-0.3870,-5.250,-12.950,-10.220,203,162,189,189,152,2025-05-24T00:03:36.446366
891,-0.7989,0.6349,-0.3924,-8.610,-14.700,-6.930,196,166,190,191,156,2025-05-24T00:03:36.446413
892,-0.7984,0.6446,-0.3870,-12.180,-12.670,-5.320,209,163,189,190,154,2025-05-24T00:03:36.446426
893,-0.7896,0.6481,-0.3684,-14.560,-8.750,-3.290,203,165,191,190,153,2025-05-24T00:03:36.446436
894,-0.7950,0.6525,-0.3523,-14.000,-4.970,0.280,208,164,191,191,154,2025-05-24T00:03:36.446447
895,-0.7784,0.6690,-0.3377,-14.210,-3.430,3.430,208,164,190,190,154,2025-05-24T00:03:36.446457
896,-0.7754,0.6827,-0.3431,-16.870,-2.730,5.530,210,163,191,191,154,2025-05-24T00:03:36.446470
897,-0.7828,0.6954,-0.3348,-24.500,-3.710,6.510,175,164,187,188,152,2025-05-24T00:03:36.446480
898,-0.7871,0.6998,-0.3226,-31.920,-6.720,7.210,201,166,191,191,156,2025-05-24T00:03:36.446490
899,-0.7720,0.7037,-0.3079,-38.150,-7.420,9.240,211,166,192,191,156,2025-05-24T00:03:36.446499
900,-0.7335,0.7047,-0.2967,-42.630,-2.310,11.550,211,165,189,190,155,2025-05-24T00:03:36.446508
901,-0.7120,0.7022,-0.2811,-43.540,5.390,14.770,210,165,192,192,155,2025-05-24T00:03:36.446517
902,-0.6969,0.6974,-0.2469,-42.560,13.720,18.900,201,164,191,191,156,2025-05-24T00:03:36.446526
903,-0.6920,0.7086,-0.2054,-40.880,18.480,22.680,203,163,192,191,156,2025-05-24T00:03:36.446535
904,-0.6705,0.7340,-0.1693,-43.540,24.290,24.150,205,166,191,192,155,2025-05-24T00:03:36.446573
905,-0.6700,0.7120,-0.1708,-50.120,31.710,23.800,203,166,191,191,155,2025-05-24T00:03:36.446584
906,-0.6773,0.7056,-0.1664,-52.850,36.260,23.590,212,166,192,192,156,2025-05-24T00:03:36.654899
907,-0.6720,0.7149,-0.1620,-52.990,36.470,24.990,206,164,191,191,156,2025-05-24T00:03:36.654944
908,-0.6603,0.7022,-0.1840,-52.500,36.750,24.360,201,165,189,191,156,2025-05-24T00:03:36.654954
909,-0.5919,0.7159,-0.2103,-52.220,40.530,24.010,204,166,191,191,157,2025-05-24T00:03:36.654964
910,-0.5544,0.7340,-0.2289,-52.710,51.940,24.850,202,165,192,191,155,2025-05-24T00:03:36.654974
911,-0.5636,0.7349,-0.2547,-51.100,65.520,26.250,208,164,191,193,156,2025-05-24T00:03:36.654984
912,-0.5856,0.7584,-0.2762,-49.770,74.550,26.950,203,165,192,192,157,2025-05-24T00:03:36.654993
913,-0.6090,0.7754,-0.2879,-53.200,77.700,25.340,211,166,193,192,156,2025-05-24T00:03:36.655001
914,-0.6642,0.7803,-0.3201,-56.910,72.800,25.480,207,166,193,192,156,2025-05-24T00:03:36.655009
915,-0.6661,0.8115,-0.3509,-60.480,61.530,24.500,208,166,192,192,155,2025-05-24T00:03:36.655017
916,-0.5958,0.8535,-0.4011,-62.720,56.000,24.150,209,165,193,193,155,2025-05-24T00:03:36.655026
917,-0.5807,0.8642,-0.4607,-62.930,58.520,25.060,210,166,191,193,157,2025-05-24T00:03:36.655034
918,-0.5675,0.8769,-0.5056,-60.970,66.220,25.060,205,167,193,192,156,2025-05-24T00:03:36.655042
919,-0.5700,0.8721,-0.5305,-59.150,73.430,26.040,192,165,191,192,158,2025-05-24T00:03:36.655051
920,-0.6183,0.8467,-0.5690,-59.290,78.120,26.460,202,166,193,192,156,2025-05-24T00:03:36.655091
921,-0.6730,0.8340,-0.5827,-61.810,75.320,24.920,195,165,195,192,157,2025-05-24T00:03:36.655100
922,-0.7091,0.8042,-0.5934,-65.870,67.130,25.200,181,164,189,191,156,2025-05-24T00:03:36.655109
923,-0.7159,0.7945,-0.6032,-69.300,56.000,28.070,195,165,193,191,156,2025-05-24T00:03:36.882862
924,-0.7149,0.7940,-0.5968,-73.640,47.600,32.130,204,165,193,192,155,2025-05-24T00:03:36.882903
925,-0.7052,0.7803,-0.5724,-74.970,37.170,35.350,208,164,193,191,156,2025-05-24T00:03:36.882913
926,-0.6500,0.7701,-0.5417,-74.270,25.340,36.960,203,165,193,193,158,2025-05-24T00:03:36.882922
927,-0.5719,0.7466,-0.4997,-73.640,21.420,36.260,203,164,193,193,157,2025-05-24T00:03:36.882930
928,-0.5309,0.7164,-0.4402,-72.310,21.280,35.980,207,166,195,193,157,2025-05-24T00:03:36.882939
929,-0.5241,0.7086,-0.3875,-67.200,19.810,36.190,182,165,193,193,157,2025-05-24T00:03:36.882947
930,-0.5187,0.7135,-0.3518,-63.980,18.270,34.230,203,164,193,192,155,2025-05-24T00:03:36.882955
931,-0.5261,0.7076,-0.3192,-63.000,15.680,29.050,206,165,192,193,158,2025-05-24T00:03:36.882962
932,-0.4987,0.7291,-0.2943,-60.900,11.970,24.920,198,165,192,193,156,2025-05-24T00:03:36.882970
933,-0.4714,0.7515,-0.2611,-59.360,10.010,19.810,206,164,191,192,153,2025-05-24T00:03:36.882991
934,-0.4587,0.7559,-0.2635,-54.950,11.340,14.280,204,165,190,192,156,2025-05-24T00:03:36.883002
935,-0.4548,0.7642,-0.2650,-46.830,11.760,10.150,175,163,192,192,156,2025-05-24T00:03:36.883009
936,-0.4621,0.7569,-0.2811,-36.750,11.060,6.510,208,163,191,192,155,2025-05-24T00:03:36.883015
937,-0.4377,0.7901,-0.2679,-31.500,9.590,6.020,181,163,192,192,156,2025-05-24T00:03:36.883049
938,-0.4514,0.8252,-0.2489,-39.480,10.850,6.860,209,163,193,192,156,2025-05-24T00:03:36.883058
939,-0.5075,0.8028,-0.2308,-47.250,6.510,6.020,204,165,194,192,157,2025-05-24T00:03:36.883066
940,-0.5441,0.8047,-0.2030,-53.970,-1.820,5.390,199,162,192,192,154,2025-05-24T00:03:36.883076
941,-0.5285,0.8237,-0.1747,-55.650,-9.730,5.950,210,163,192,193,157,2025-05-24T00:03:36.883084
942,-0.5100,0.8272,-0.1586,-50.750,-14.420,6.860,206,163,193,192,155,2025-05-24T00:03:37.064371
943,-0.4797,0.8428,-0.1220,-44.520,-14.140,6.440,193,166,193,191,156,2025-05-24T00:03:37.064426
944,-0.4626,0.8413,-0.0825,-39.130,-14.840,6.790,207,165,195,192,157,2025-05-24T00:03:37.064440
945,-0.4841,0.8135,-0.0717,-33.040,-19.530,9.800,204,162,193,191,156,2025-05-24T00:03:37.064453
946,-0.4856,0.8257,-0.0508,-29.820,-25.620,16.100,191,163,193,192,157,2025-05-24T00:03:37.064465
947,-0.4909,0.8174,-0.0386,-30.170,-31.290,21.280,198,163,193,191,157,2025-05-24T00:03:37.064493
948,-0.4172,0.8413,-0.0224,-34.580,-33.250,25.340,181,162,194,192,157,2025-05-24T00:03:37.064509
949,-0.3953,0.8257,-0.0288,-41.440,-25.900,24.500,211,164,192,192,156,2025-05-24T00:03:37.064520
950,-0.3831,0.7793,-0.0410,-39.970,-17.010,19.530,208,165,192,192,156,2025-05-24T00:03:37.064531
951,-0.4011,0.7505,-0.0390,-27.720,-12.320,16.730,192,166,194,191,157,2025-05-24T00:03:37.264357
952,-0.4304,0.7584,-0.0215,-18.200,-10.920,14.280,203,163,193,192,157,2025-05-24T00:03:37.264391
953,-0.4333,0.7818,-0.0264,-9.380,-16.380,13.370,198,165,193,192,156,2025-05-24T00:03:37.264403
954,-0.3894,0.8267,-0.0293,-8.190,-23.310,14.560,201,166,194,192,158,2025-05-24T00:03:37.264412
955,-0.3533,0.8355,-0.0805,-14.350,-20.790,16.310,203,165,193,192,156,2025-05-24T00:03:37.264422
956,-0.3870,0.8150,-0.1059,-17.150,-15.820,15.540,191,166,194,192,156,2025-05-24T00:03:37.264496
957,-0.4197,0.7998,-0.1152,-13.440,-17.850,13.720,198,162,193,191,155,2025-05-24T00:03:37.264507
958,-0.4548,0.8164,-0.1196,-11.620,-22.120,12.810,208,162,191,192,157,2025-05-24T00:03:37.264517
959,-0.4782,0.8154,-0.1196,-13.580,-26.880,11.060,194,164,191,192,156,2025-05-24T00:03:37.264527
960,-0.4900,0.8169,-0.0996,-13.510,-32.480,10.850,207,164,191,192,156,2025-05-24T00:03:37.264535
961,-0.5266,0.8218,-0.0834,-10.010,-53.410,12.530,206,164,192,193,156,2025-05-24T00:03:37.264544
962,-0.5339,0.8584,-0.0527,-4.900,-36.960,15.610,181,163,192,193,158,2025-05-24T00:03:37.264554
963,-0.5319,0.8779,-0.0224,-2.730,-38.010,18.340,205,163,193,193,158,2025-05-24T00:03:37.264562
964,-0.5173,0.9243,0.0205,-2.170,-42.770,21.000,207,165,193,192,158,2025-05-24T00:03:37.264571
965,-0.5095,0.9760,0.0956,-3.430,-47.950,21.350,206,165,195,194,159,2025-05-24T00:03:37.264580
966,-0.5646,0.9575,0.1742,-0.980,-59.220,17.640,209,165,195,194,159,2025-05-24T00:03:37.264982
967,-0.5822,0.9140,0.2542,5.810,-74.340,13.440,183,165,195,195,160,2025-05-24T00:03:37.265018
968,-0.5978,0.9326,0.4055,7.630,-91.420,10.220,208,167,196,195,160,2025-05-24T00:03:37.265030
969,-0.5441,0.9780,0.5461,7.350,-107.030,6.790,199,166,196,195,161,2025-05-24T00:03:37.265040
970,-0.5085,1.0863,0.7662,7.840,-136.080,-0.420,209,165,196,194,158,2025-05-24T00:03:37.265049
971,-0.4978,1.2688,1.0541,12.530,-191.170,-11.480,205,167,195,195,160,2025-05-24T00:03:37.265058
972,-0.4163,1.4025,1.2908,23.940,-281.680,-27.440,184,166,195,194,160,2025-05-24T00:03:37.265068
973,-0.1122,1.6319,1.4362,35.560,-406.700,-42.210,199,164,194,193,157,2025-05-24T00:03:37.265077
974,0.4299,2.0872,1.5001,40.670,-554.330,-61.390,181,165,191,193,159,2025-05-24T00:03:37.470697
975,1.1692,2.5195,1.2659,32.060,-689.990,-87.500,198,166,193,194,159,2025-05-24T00:03:37.470753
976,2.0306,2.8026,0.7647,21.420,-757.680,-120.610,198,165,194,193,157,2025-05-24T00:03:37.470767
977,2.4390,3.0090,0.4856,-32.060,-753.690,-152.320,201,163,192,194,158,2025-05-24T00:03:37.470780
978,2.7089,2.9700,0.2313,-112.070,-715.890,-175.140,198,165,194,193,158,2025-05-24T00:03:37.470793
979,2.9343,2.7928,0.0610,-206.150,-665.140,-209.650,202,163,194,193,159,2025-05-24T00:03:37.470805
980,3.0983,2.3170,-0.0605,-268.940,-591.360,-267.050,203,165,194,193,159,2025-05-24T00:03:37.470817
981,3.0495,1.6348,-0.1274,-301.140,-499.450,-326.550,204,167,195,194,161,2025-05-24T00:03:37.470828
982,2.6176,0.9706,-0.0493,-311.220,-437.010,-369.880,206,167,195,195,161,2025-05-24T00:03:37.470841
983,1.9808,0.2342,0.0527,-311.220,-408.310,-409.080,208,167,196,196,160,2025-05-24T00:03:37.470852
984,1.3386,-0.3240,0.2928,-311.290,-414.470,-443.940,200,164,194,195,160,2025-05-24T00:03:37.470863
985,1.1517,-1.2532,0.2918,-329.490,-438.270,-466.620,199,164,192,195,161,2025-05-24T00:03:37.470874
986,1.0995,-2.4439,0.3587,-397.810,-434.140,-466.900,212,165,196,196,161,2025-05-24T00:03:37.470885
987,0.9018,-3.5214,0.6734,-401.730,-373.590,-514.780,196,166,196,195,161,2025-05-24T00:03:37.470895
988,0.2098,-5.0674,1.3479,-446.530,-382.410,-578.410,183,167,196,194,164,2025-05-24T00:03:37.470941
989,-0.3094,-6.5616,1.8549,-424.970,-478.170,-591.780,189,167,196,196,163,2025-05-24T00:03:37.470953
990,0.0371,-6.2762,2.4815,-393.050,-469.910,-532.700,200,167,196,195,160,2025-05-24T00:03:37.470966
991,0.7510,-4.7902,2.0223,-298.410,-130.830,-468.230,199,168,197,197,164,2025-05-24T00:03:37.694281
992,-0.7950,-3.1154,1.0180,-137.130,323.890,-318.080,203,170,198,196,165,2025-05-24T00:03:37.694337
993,-2.6186,-1.8017,0.4573,49.770,570.360,-56.630,174,168,197,195,163,2025-05-24T00:03:37.694352
994,-2.4790,-1.3957,0.2913,79.870,575.820,174.440,181,167,196,195,161,2025-05-24T00:03:37.694365
995,-1.7724,-1.6851,0.7125,11.270,485.940,287.000,178,166,195,195,162,2025-05-24T00:03:37.694378
996,-0.9867,-2.1184,1.0292,-83.440,325.080,349.580,183,168,195,194,161,2025-05-24T00:03:37.694392
997,-0.2518,-2.5244,0.6881,-122.920,199.640,367.220,194,166,195,195,162,2025-05-24T00:03:37.694404
998,0.4851,-2.3712,0.5866,4.270,151.900,375.620,192,166,193,194,162,2025-05-24T00:03:37.694415
999,0.8691,-1.9725,0.3997,79.310,234.570,386.960,188,167,195,194,161,2025-05-24T00:03:37.694426
1000,0.8062,-1.5138,0.4748,150.220,340.480,379.820,186,165,193,192,158,2025-05-24T00:03:37.694437
1001,0.2645,-1.0448,0.5817,118.440,399.000,381.080,197,163,192,191,159,2025-05-24T00:03:37.694448
1002,-0.1318,-0.9243,0.2772,-5.950,557.970,338.030,197,165,192,192,160,2025-05-24T00:03:37.694459
1003,-0.7901,-0.8198,0.1620,-75.740,645.890,337.890,190,163,189,192,159,2025-05-24T00:03:37.694469
1004,-1.2668,-0.8130,0.1645,-107.940,678.650,349.300,193,163,191,193,159,2025-05-24T00:03:37.694479
1005,-1.6368,-0.8281,0.1845,-112.280,670.110,356.580,181,164,189,191,159,2025-05-24T00:03:37.694530
1006,-1.6563,-0.3821,0.1869,-120.750,637.280,365.750,190,164,189,192,158,2025-05-24T00:03:37.694543
1007,-1.5211,0.3543,0.1796,-122.430,619.780,373.240,191,164,191,191,159,2025-05-24T00:03:37.694555
1008,-1.4879,0.9745,0.2133,-146.440,618.380,349.230,187,162,191,191,157,2025-05-24T00:03:37.694566
1009,-1.3405,1.0624,0.3021,-159.600,495.740,341.530,186,165,191,191,158,2025-05-24T00:03:37.893377
1010,-1.1727,0.9926,0.3196,-144.760,335.020,325.150,194,164,191,192,156,2025-05-24T00:03:37.893427
1011,-1.2727,1.0668,0.4490,-137.200,195.020,324.380,170,165,190,190,157,2025-05-24T00:03:37.893439
1012,-1.1722,1.2244,0.6637,-70.070,80.990,329.140,191,163,191,190,158,2025-05-24T00:03:37.893450
1013,-0.8789,1.3405,0.6934,-20.580,21.840,344.960,190,162,189,190,156,2025-05-24T00:03:37.893460
1014,-0.4704,1.5396,0.7901,-2.870,-2.660,339.920,191,165,190,191,155,2025-05-24T00:03:37.893472
1015,0.0981,1.6568,0.8359,-17.850,21.980,311.430,189,164,190,191,155,2025-05-24T00:03:37.893483
1016,0.3260,1.6504,1.0760,-8.190,57.960,277.830,188,164,188,189,157,2025-05-24T00:03:37.893492
1017,0.2460,1.5440,1.4801,-64.050,139.230,241.780,193,163,189,191,157,2025-05-24T00:03:37.893501
1018,0.0547,1.3513,1.9208,-66.640,90.160,239.050,189,163,189,190,157,2025-05-24T00:03:37.893511
1019,0.4548,1.2122,1.9764,-14.630,-2.660,229.670,188,164,189,190,158,2025-05-24T00:03:37.893523
1020,1.4874,1.3347,1.8100,-14.350,-32.340,182.630,188,163,188,189,158,2025-05-24T00:03:37.893532
1021,1.8363,1.3679,1.5084,-1.470,11.410,96.810,198,161,189,190,157,2025-05-24T00:03:37.893541
1022,1.3610,1.1078,1.1946,23.030,70.630,4.620,195,164,189,190,158,2025-05-24T00:03:37.893550
1023,0.2533,0.9087,0.9716,56.630,64.120,-38.010,189,160,188,189,157,2025-05-24T00:03:37.893586
1024,-0.3094,0.7910,0.4329,60.410,37.450,-49.420,191,163,188,188,156,2025-05-24T00:03:37.893596
1025,-0.5519,0.8233,0.0503,31.360,41.510,-32.410,166,161,189,189,157,2025-05-24T00:03:38.084237
1026,-0.7520,0.9374,-0.3084,14.700,68.880,-13.650,192,160,188,190,157,2025-05-24T00:03:38.084497
1027,-0.6920,1.0370,-0.5061,-14.000,94.220,-5.180,171,159,187,189,155,2025-05-24T00:03:38.084512
1028,-0.5446,1.0638,-0.4412,-25.340,94.780,9.870,192,161,188,189,157,2025-05-24T00:03:38.084522
1029,-0.4909,1.0370,-0.2689,-42.070,71.260,19.880,186,162,189,189,155,2025-05-24T00:03:38.084533
1030,-0.4519,1.0146,-0.0229,-51.730,30.660,30.590,172,160,187,189,156,2025-05-24T00:03:38.084543
1031,-0.3445,1.0009,0.1449,-47.320,-14.350,33.600,195,162,187,189,156,2025-05-24T00:03:38.084553
1032,-0.1713,0.9731,0.2469,-30.870,-45.920,34.300,184,163,185,190,157,2025-05-24T00:03:38.084562
1033,-0.0615,0.9487,0.2860,-7.210,-56.770,27.230,192,159,185,189,156,2025-05-24T00:03:38.084571
1034,-0.0571,0.9384,0.2879,-3.360,-32.270,11.830,198,161,186,189,156,2025-05-24T00:03:38.084580
1035,-0.1039,0.9379,0.2718,0.770,-18.830,0.280,167,159,185,190,157,2025-05-24T00:03:38.084589
1036,-0.1718,0.9243,0.2357,0.350,-13.300,-12.530,195,159,186,190,156,2025-05-24T00:03:38.084599
1037,-0.1893,0.9067,0.1571,-3.920,-7.910,-22.890,187,160,185,189,157,2025-05-24T00:03:38.084608
1038,-0.2098,0.8955,0.0717,-10.850,0.560,-30.520,196,158,185,189,156,2025-05-24T00:03:38.084616
1039,-0.2533,0.8882,-0.0044,-11.270,14.000,-34.300,192,161,186,190,157,2025-05-24T00:03:38.084657
1040,-0.3279,0.8867,-0.0473,-4.410,20.160,-33.460,198,159,185,190,157,2025-05-24T00:03:38.084666
1041,-0.3836,0.9033,-0.0620,-0.630,17.570,-28.560,190,160,186,189,157,2025-05-24T00:03:38.084676
1042,-0.4104,0.9057,-0.0644,-3.850,11.620,-25.130,197,162,186,190,158,2025-05-24T00:03:38.321605
1043,-0.4138,0.9340,-0.0361,-5.810,-1.960,-17.500,195,161,185,190,157,2025-05-24T00:03:38.321653
1044,-0.4255,0.9335,-0.0059,-6.580,-12.950,-11.060,192,161,186,191,157,2025-05-24T00:03:38.321665
1045,-0.4011,0.9658,0.0185,-5.250,-23.030,-8.610,192,158,185,190,158,2025-05-24T00:03:38.321676
1046,-0.3704,0.9677,0.0264,-1.680,-27.930,-7.490,195,163,186,190,157,2025-05-24T00:03:38.321689
1047,-0.3372,0.9706,0.0249,0.070,-21.980,-7.630,193,162,187,191,157,2025-05-24T00:03:38.321700
1048,-0.3621,0.9477,0.0342,1.050,-10.150,-7.490,198,161,185,191,157,2025-05-24T00:03:38.321712
1049,-0.3714,0.9540,0.0444,1.750,-1.260,-5.180,200,160,186,189,158,2025-05-24T00:03:38.321722
1050,-0.3909,0.9506,0.0522,0.140,3.010,-3.780,192,162,186,190,158,2025-05-24T00:03:38.321748
1051,-0.3743,0.9550,0.0634,-3.990,0.280,-1.400,203,162,186,190,156,2025-05-24T00:03:38.321759
1052,-0.3723,0.9550,0.0630,-7.980,-6.020,-0.140,191,160,185,190,158,2025-05-24T00:03:38.321768
1053,-0.3362,0.9716,0.0473,-9.660,-10.080,-0.700,196,162,185,190,157,2025-05-24T00:03:38.321777
1054,-0.3011,0.9687,0.0327,-8.470,-10.850,-1.330,192,162,186,191,156,2025-05-24T00:03:38.321786
1055,-0.3104,0.9618,0.0146,-4.690,-8.470,-2.450,199,160,186,190,156,2025-05-24T00:03:38.321794
1056,-0.3040,0.9516,0.0122,1.330,-7.420,-1.400,188,160,186,191,158,2025-05-24T00:03:38.321833
1057,-0.3011,0.9257,0.0327,3.850,-6.300,-1.610,201,163,186,191,157,2025-05-24T00:03:38.321843
1058,-0.3001,0.9301,0.0698,6.090,-5.670,-3.010,197,162,186,190,156,2025-05-24T00:03:38.321852
1059,-0.3240,0.9043,0.0791,6.440,-5.320,-4.900,204,162,185,191,158,2025-05-24T00:03:38.502683
1060,-0.3211,0.9130,0.0952,10.080,-6.020,-5.460,199,162,186,190,156,2025-05-24T00:03:38.502732
1061,-0.3162,0.9316,0.1049,11.550,-6.090,-5.040,201,157,183,187,154,2025-05-24T00:03:38.502745
1062,-0.3055,0.9467,0.1030,9.100,-2.940,-6.440,196,150,175,180,148,2025-05-24T00:03:38.502756
1063,-0.3558,0.8833,0.0830,5.810,-4.550,-11.410,208,146,170,173,141,2025-05-24T00:03:38.502766
1064,-0.3704,0.8847,0.0625,10.710,-8.400,-13.300,202,128,153,156,121,2025-05-24T00:03:38.502776
1065,-0.3958,0.9008,0.0537,16.870,-7.700,-12.040,197,124,149,153,122,2025-05-24T00:03:38.502786
1066,-0.4133,0.9282,0.0356,15.960,-1.260,-10.640,204,124,151,153,122,2025-05-24T00:03:38.502795
1067,-0.4577,0.8935,0.0063,11.340,2.380,-11.480,190,123,146,151,120,2025-05-24T00:03:38.502805
1068,-0.4734,0.8955,-0.0146,9.100,1.750,-8.680,209,121,146,150,120,2025-05-24T00:03:38.502814
1069,-0.4592,0.9277,-0.0312,9.310,-0.700,-5.390,207,123,147,150,122,2025-05-24T00:03:38.502823
1070,-0.4099,0.9516,-0.0405,5.810,-1.960,-2.940,205,119,145,149,118,2025-05-24T00:03:38.502836
1071,-0.3543,0.9550,-0.0527,-1.190,-1.750,-1.540,198,122,147,150,120,2025-05-24T00:03:38.502844
1072,-0.3382,0.9579,-0.0444,-8.470,-1.400,0.490,207,124,146,149,121,2025-05-24T00:03:38.502853
1073,-0.3216,0.9311,-0.0410,-10.220,1.190,4.830,207,123,146,147,119,2025-05-24T00:03:38.502893
1074,-0.2874,0.9682,-0.0156,-10.150,9.240,3.640,213,125,146,150,121,2025-05-24T00:03:38.502903
1075,-0.2816,0.9921,0.0029,-12.950,14.350,0.560,207,126,148,148,119,2025-05-24T00:03:38.502911
1076,-0.3045,0.9736,0.0122,-19.880,12.390,-2.170,214,126,149,149,121,2025-05-24T00:03:38.502920
1077,-0.3138,0.9589,0.0020,-23.940,7.140,-4.830,216,126,148,150,122,2025-05-24T00:03:38.701666
1078,-0.2972,0.9467,0.0015,-24.990,3.920,-6.790,225,124,150,150,120,2025-05-24T00:03:38.701720
1079,-0.2923,0.9130,0.0063,-22.190,4.760,-9.240,225,128,156,158,129,2025-05-24T00:03:38.701734
1080,-0.3255,0.9130,0.0332,-16.660,4.900,-8.610,221,140,163,164,136,2025-05-24T00:03:38.701747
1081,-0.3558,0.9082,0.0483,-14.210,2.450,-8.470,235,147,171,172,144,2025-05-24T00:03:38.701758
1082,-0.3684,0.8921,0.0434,-13.650,-1.400,-10.150,234,147,173,173,146,2025-05-24T00:03:38.701769
1083,-0.3450,0.8813,0.0190,-10.640,-3.780,-9.520,236,149,175,174,146,2025-05-24T00:03:38.701780
1084,-0.3250,0.8847,0.0156,-6.370,-2.240,-11.340,226,151,177,177,149,2025-05-24T00:03:38.701791
1085,-0.3192,0.8828,-0.0273,-4.550,4.900,-17.290,237,152,176,178,148,2025-05-24T00:03:38.701801
1086,-0.3309,0.8955,-0.0342,-5.670,10.500,-18.060,216,153,177,178,152,2025-05-24T00:03:38.701812
1087,-0.3728,0.8960,-0.0142,-10.080,14.210,-19.460,223,153,179,180,152,2025-05-24T00:03:38.701823
1088,-0.3963,0.8774,-0.0010,-15.680,12.950,-21.000,224,152,180,180,153,2025-05-24T00:03:38.701833
1089,-0.3802,0.8891,0.0205,-17.990,7.490,-21.490,231,156,181,181,153,2025-05-24T00:03:38.701842
1090,-0.3484,0.8862,0.0312,-17.500,4.970,-23.940,228,153,180,181,151,2025-05-24T00:03:38.701851
1091,-0.3216,0.8916,0.0439,-16.870,6.720,-28.630,232,154,180,182,154,2025-05-24T00:03:38.701899
1092,-0.3353,0.8745,0.0625,-14.070,6.230,-30.730,228,155,182,183,154,2025-05-24T00:03:38.701909
1093,-0.3772,0.8555,0.0703,-8.680,5.600,-33.880,234,155,182,181,155,2025-05-24T00:03:38.701919
1094,-0.4153,0.8823,0.0864,-5.880,5.110,-35.140,216,157,183,183,155,2025-05-24T00:03:38.911979
1095,-0.4382,0.8896,0.0947,-6.720,3.780,-35.280,236,156,182,182,154,2025-05-24T00:03:38.912034
1096,-0.4363,0.8994,0.1039,-10.500,2.380,-37.800,216,157,182,183,157,2025-05-24T00:03:38.912049
1097,-0.4499,0.9135,0.1191,-14.840,0.560,-42.630,239,156,183,184,157,2025-05-24T00:03:38.912062
1098,-0.4729,0.9091,0.1118,-12.460,-1.960,-41.930,204,158,183,182,155,2025-05-24T00:03:38.912077
1099,-0.5129,0.9067,0.1044,-7.000,-1.190,-40.460,228,156,184,185,156,2025-05-24T00:03:38.912089
1100,-0.5212,0.9189,0.0942,-2.940,0.070,-34.300,223,158,184,184,157,2025-05-24T00:03:38.912102
1101,-0.5524,0.9004,0.0849,0.420,0.350,-28.560,205,158,185,184,157,2025-05-24T00:03:39.432469
1102,-0.5832,0.8945,0.0717,2.520,-1.610,-27.230,235,156,185,185,157,2025-05-24T00:03:39.432492
1103,-0.5539,0.9008,0.0566,2.660,-5.180,-24.150,228,157,186,184,157,2025-05-24T00:03:39.432502
1104,-0.5729,0.8886,0.0366,0.000,-3.710,-20.790,229,159,186,184,157,2025-05-24T00:03:39.432507
1105,-0.5597,0.9160,0.0346,-2.520,-3.360,-18.760,229,155,185,184,157,2025-05-24T00:03:39.432512
1106,-0.5280,0.9565,0.0185,-13.370,-6.370,-20.440,241,157,186,185,157,2025-05-24T00:03:39.432516
1107,-0.5466,0.9277,-0.0434,-25.620,-12.740,-16.450,232,157,186,185,159,2025-05-24T00:03:39.432520
1108,-0.5129,0.8843,0.1078,-25.690,-13.510,-14.630,228,157,186,185,158,2025-05-24T00:03:39.432560
1109,-0.4919,0.8960,0.0625,-16.800,-13.510,-11.830,241,157,186,186,159,2025-05-24T00:03:39.432566
1110,-0.4690,0.9062,0.0893,-12.110,-9.870,-14.210,229,157,187,184,159,2025-05-24T00:03:39.432572
1111,-0.4685,0.8794,0.1132,-10.290,-6.510,-17.150,238,158,187,185,160,2025-05-24T00:03:39.432639
1112,-0.4782,0.8560,0.1479,-5.670,-5.110,-15.330,242,158,188,184,159,2025-05-24T00:03:39.432646
1113,-0.4826,0.8520,0.1645,-1.330,-5.530,-14.840,225,159,189,185,159,2025-05-24T00:03:39.432654
1114,-0.4978,0.8686,0.1571,1.750,-5.040,-17.640,235,158,188,185,160,2025-05-24T00:03:39.432660
1115,-0.5080,0.8569,0.1244,4.480,-7.070,-17.220,239,160,189,185,158,2025-05-24T00:03:39.432666
1116,-0.5270,0.8438,0.0976,5.390,-8.120,-17.290,225,159,189,185,159,2025-05-24T00:03:39.432670
1117,-0.5270,0.8550,0.0791,6.440,-9.660,-15.050,229,159,189,185,159,2025-05-24T00:03:39.432674
1118,-0.5329,0.8599,0.0561,7.770,-9.240,-14.210,233,160,190,185,160,2025-05-24T00:03:39.432679
1119,-0.5300,0.8755,0.0449,6.020,-5.460,-15.610,232,159,189,185,160,2025-05-24T00:03:39.432683
1120,-0.5246,0.8813,0.0312,3.850,-2.870,-14.630,229,158,188,184,159,2025-05-24T00:03:39.432688
1121,-0.5466,0.8667,0.0273,-1.120,-2.100,-13.580,206,161,189,184,160,2025-05-24T00:03:39.432692
1122,-0.5480,0.8618,0.0278,-3.150,-3.220,-10.640,229,157,189,184,160,2025-05-24T00:03:39.432696
1123,-0.5524,0.8623,0.0547,-5.460,-3.570,-9.170,239,159,190,186,160,2025-05-24T00:03:39.432708
1124,-0.5563,0.8579,0.0698,-6.790,-4.760,-9.590,230,160,189,185,160,2025-05-24T00:03:39.432714
1125,-0.5456,0.8555,0.0766,-6.790,-5.950,-9.310,244,159,189,185,160,2025-05-24T00:03:39.432719
1126,-0.5397,0.8594,0.0761,-6.020,-5.530,-8.330,228,158,191,185,161,2025-05-24T00:03:39.432724
1127,-0.5187,0.8730,0.0620,-4.480,-3.290,-6.720,229,160,189,184,159,2025-05-24T00:03:39.432728
1128,-0.4943,0.8808,0.0630,-4.690,1.050,-7.140,239,159,190,185,160,2025-05-24T00:03:39.432733
1129,-0.4943,0.8696,0.0600,-7.000,4.270,-8.680,218,158,188,185,160,2025-05-24T00:03:39.432738
1130,-0.5222,0.8403,0.0712,-8.470,4.620,-8.820,230,159,189,184,157,2025-05-24T00:03:39.432742
1131,-0.5514,0.8247,0.1000,-7.350,2.450,-7.840,243,159,191,185,160,2025-05-24T00:03:39.432746
1132,-0.5773,0.7993,0.1074,1.750,2.310,-7.910,241,159,190,186,159,2025-05-24T00:03:39.432750
1133,-0.5876,0.8545,0.1342,-2.380,-3.500,-8.470,241,161,190,184,158,2025-05-24T00:03:39.432755
1134,-0.5646,0.8628,0.1498,-7.980,-6.720,-8.610,230,158,191,185,160,2025-05-24T00:03:39.432759
1135,-0.5632,0.8520,0.1049,0.490,-8.890,-9.030,223,159,191,185,159,2025-05-24T00:03:39.432763
1136,-0.5739,0.8442,0.0805,-0.210,-6.860,-7.630,245,160,191,186,159,2025-05-24T00:03:39.432768
1137,-0.5734,0.8359,0.0400,-0.980,-8.190,-5.110,239,159,191,185,160,2025-05-24T00:03:39.432772
1138,-0.5563,0.8540,0.0508,-4.340,-4.130,-5.390,235,159,191,186,159,2025-05-24T00:03:39.432785
1139,-0.5573,0.8603,0.0498,-15.120,-2.660,-6.580,241,160,190,185,160,2025-05-24T00:03:39.432789
1140,-0.5622,0.8530,0.0649,-18.340,0.420,-7.910,235,159,191,186,159,2025-05-24T00:03:39.432793
1141,-0.5968,0.8428,0.0708,-15.470,-0.210,-8.190,206,160,190,185,160,2025-05-24T00:03:39.432798
1142,-0.6202,0.8223,0.0859,-14.210,-6.510,-9.310,207,160,192,186,160,2025-05-24T00:03:39.432802
1143,-0.5871,0.8047,0.0917,-9.730,-14.560,-11.340,241,160,191,186,160,2025-05-24T00:03:39.432806
1144,-0.5226,0.8198,0.1074,-4.410,-16.380,-13.230,238,162,192,185,159,2025-05-24T00:03:39.432811
1145,-0.4729,0.8413,0.1274,-4.900,-12.810,-16.730,239,163,191,186,160,2025-05-24T00:03:39.543430
1146,-0.4636,0.8369,0.1235,-10.010,-2.030,-16.940,243,163,191,186,161,2025-05-24T00:03:39.543476
1147,-0.4973,0.8325,0.1249,-14.630,6.930,-14.980,233,164,194,186,161,2025-05-24T00:03:39.543487
1148,-0.5602,0.8091,0.1279,-15.050,15.540,-13.300,222,165,191,186,157,2025-05-24T00:03:39.543497
1149,-0.5812,0.8115,0.0810,-8.400,20.440,-11.060,229,167,196,186,167,2025-05-24T00:03:39.543506
1150,-0.6066,0.8057,0.0932,-8.820,19.670,-13.370,231,170,200,187,183,2025-05-24T00:03:39.543515
1151,-0.6256,0.8003,0.0839,-9.520,13.650,-13.580,176,174,206,189,186,2025-05-24T00:03:39.543524
1152,-0.6217,0.8081,0.0771,-4.410,2.240,-13.930,245,174,208,189,183,2025-05-24T00:03:39.543534
1153,-0.6324,0.8184,0.0810,-2.590,-3.220,-8.890,248,177,209,188,183,2025-05-24T00:03:39.543542
1154,-0.6290,0.8140,0.0971,-4.970,-7.140,-6.580,256,171,209,189,182,2025-05-24T00:03:39.543551
1155,-0.5978,0.8335,0.1025,-9.520,-3.360,-5.040,257,171,209,189,175,2025-05-24T00:03:39.543559
1156,-0.6071,0.8096,0.0927,-11.130,2.170,-3.220,198,167,210,189,175,2025-05-24T00:03:39.543570
1157,-0.6046,0.7906,0.0874,-9.380,4.900,-1.260,205,165,201,189,161,2025-05-24T00:03:39.543578
1158,-0.5978,0.7823,0.1049,-3.220,2.940,-0.560,251,167,207,190,162,2025-05-24T00:03:39.543586
1159,-0.6095,0.7828,0.0727,7.000,-3.640,-1.750,135,171,209,191,171,2025-05-24T00:03:39.543624
1160,-0.5832,0.8599,0.1240,7.770,0.770,1.680,111,165,206,192,181,2025-05-24T00:03:39.543633
1161,-0.6422,0.7989,0.1352,2.940,-4.060,5.180,117,164,205,193,184,2025-05-24T00:03:39.543642
1162,-0.6246,0.7959,0.1288,5.040,-10.220,5.740,118,164,207,192,172,2025-05-24T00:03:39.543651
1163,-0.6217,0.8101,0.1269,7.420,-13.160,5.460,118,162,206,191,174,2025-05-24T00:03:39.724510
1164,-0.5998,0.8081,0.1142,10.150,-22.680,5.530,119,162,206,192,169,2025-05-24T00:03:39.724565
1165,-0.5632,0.8120,0.1049,9.870,-26.320,6.930,114,165,205,191,162,2025-05-24T00:03:39.724580
1166,-0.5651,0.8252,0.1064,11.900,-23.870,5.880,113,165,206,190,159,2025-05-24T00:03:39.724592
1167,-0.5510,0.8203,0.1210,15.750,-15.400,5.460,112,166,205,191,161,2025-05-24T00:03:39.724603
1168,-0.5788,0.8423,0.1342,13.230,-13.440,5.600,113,166,207,192,161,2025-05-24T00:03:39.724616
1169,-0.5802,0.8452,0.1279,6.090,-14.910,6.300,113,169,206,192,166,2025-05-24T00:03:39.724627
1170,-0.5812,0.8145,0.1118,3.220,-14.070,3.080,114,168,209,192,170,2025-05-24T00:03:39.724637
1171,-0.5880,0.7959,0.1088,3.080,-16.450,-0.350,114,171,210,192,173,2025-05-24T00:03:39.724647
1172,-0.5905,0.8047,0.1196,5.320,-19.950,0.980,115,174,212,192,170,2025-05-24T00:03:39.724657
1173,-0.5827,0.7979,0.1196,6.650,-25.830,1.260,117,170,218,194,171,2025-05-24T00:03:39.724666
1174,-0.5485,0.8237,0.1318,16.450,-24.150,-1.820,118,169,220,194,162,2025-05-24T00:03:39.724676
1175,-0.5261,0.8511,0.1396,17.080,-19.250,-1.190,121,171,218,195,157,2025-05-24T00:03:39.724686
1176,-0.5485,0.8413,0.1249,12.880,-16.870,-0.070,122,170,219,196,159,2025-05-24T00:03:39.724700
1177,-0.5266,0.8320,0.1049,12.530,-15.610,0.910,122,170,211,195,157,2025-05-24T00:03:39.724745
1178,-0.5788,0.8345,0.0971,11.200,-12.320,-0.910,127,169,214,194,155,2025-05-24T00:03:39.724755
1179,-0.5924,0.8384,0.1093,6.160,-12.740,-2.590,124,167,207,193,153,2025-05-24T00:03:40.031757
1180,-0.5861,0.8413,0.1210,-0.490,-16.870,-3.500,123,166,211,191,152,2025-05-24T00:03:40.031805
1181,-0.5651,0.8447,0.0932,-4.130,-14.490,-4.690,122,164,208,190,150,2025-05-24T00:03:40.031818
1182,-0.5490,0.8325,0.1035,2.940,-13.720,-4.760,122,166,207,189,150,2025-05-24T00:03:40.031829
1183,-0.5763,0.8184,0.1020,-2.310,-19.810,-3.990,123,164,210,190,150,2025-05-24T00:03:40.031840
1184,-0.5812,0.7915,0.1044,-7.000,-21.350,-1.540,127,163,204,190,152,2025-05-24T00:03:40.031850
1185,-0.5851,0.8013,0.1078,-1.190,-21.210,-1.610,143,163,205,191,153,2025-05-24T00:03:40.031860
1186,-0.5690,0.7940,0.1074,3.430,-15.190,-0.980,156,163,204,191,153,2025-05-24T00:03:40.031869
1187,-0.5890,0.8189,0.1059,-2.660,-12.460,0.000,177,163,201,189,153,2025-05-24T00:03:40.031878
1188,-0.5885,0.8120,0.1210,-6.230,-10.990,1.260,155,162,201,189,154,2025-05-24T00:03:40.031891
1189,-0.6037,0.7910,0.1108,-2.800,-8.960,3.150,151,163,199,191,155,2025-05-24T00:03:40.031900
1190,-0.5768,0.7696,0.1415,10.500,-3.640,5.390,150,163,198,191,155,2025-05-24T00:03:40.031910
1191,-0.5900,0.7637,0.1640,14.070,0.350,6.650,158,167,205,193,157,2025-05-24T00:03:40.031919
1192,-0.5797,0.7520,0.1557,19.320,0.560,7.770,160,163,202,190,155,2025-05-24T00:03:40.031927
1193,-0.5856,0.7803,0.1908,28.350,3.430,6.580,171,163,203,191,153,2025-05-24T00:03:40.031968
1194,-0.6134,0.7720,0.1059,16.450,10.710,5.110,175,162,205,190,154,2025-05-24T00:03:40.031979
1195,-0.5578,0.7920,0.1469,40.740,11.970,7.840,180,161,206,191,153,2025-05-24T00:03:40.031988
1196,-0.5636,0.7740,0.2460,32.620,-2.590,6.160,174,164,208,191,154,2025-05-24T00:03:40.031999
1197,-0.5344,0.6676,0.0976,55.930,-13.090,1.120,182,169,211,196,160,2025-05-24T00:03:40.032113
1198,-0.5900,0.6993,0.1264,72.800,-51.590,-2.940,182,170,211,200,164,2025-05-24T00:03:40.134788
1199,-0.5485,0.7144,0.0654,85.470,-56.910,-9.520,188,177,219,207,170,2025-05-24T00:03:40.134832
1200,-0.4709,0.7832,0.0659,81.340,-58.940,-14.420,192,183,222,210,168,2025-05-24T00:03:40.134844
1201,-0.4114,0.8008,-0.0034,75.530,-42.140,-17.780,191,182,223,211,172,2025-05-24T00:03:40.134855
1202,-0.4338,0.8101,-0.0371,65.380,-26.600,-21.070,186,180,221,208,169,2025-05-24T00:03:40.134864
1203,-0.5173,0.7974,-0.0947,60.200,-12.460,-22.890,182,177,220,206,169,2025-05-24T00:03:40.134873
1204,-0.5739,0.8403,-0.1581,45.640,-3.080,-22.820,178,176,217,205,161,2025-05-24T00:03:40.134882
1205,-0.5929,0.8545,-0.2084,29.890,5.320,-21.070,167,164,204,191,151,2025-05-24T00:03:40.134891
1206,-0.6246,0.8442,-0.2435,16.730,12.670,-18.690,160,158,202,188,147,2025-05-24T00:03:40.134901
1207,-0.6608,0.8745,-0.2455,14.000,11.200,-11.830,165,159,200,188,147,2025-05-24T00:03:40.134909
1208,-0.6969,0.9077,-0.2186,13.370,5.740,-6.650,167,160,198,186,144,2025-05-24T00:03:40.134917
1209,-0.6803,0.9477,-0.1854,12.390,-3.080,-0.770,168,158,196,184,146,2025-05-24T00:03:40.134925
1210,-0.6393,0.9828,-0.1518,5.320,-4.060,5.390,161,157,197,181,147,2025-05-24T00:03:40.134934
1211,-0.6422,0.9716,-0.1274,-5.320,-1.050,9.450,163,157,196,178,145,2025-05-24T00:03:40.134942
1212,-0.6598,0.9575,-0.1025,-13.370,-1.540,17.640,157,156,195,177,145,2025-05-24T00:03:40.134977
1213,-0.6505,0.9306,-0.0800,-19.040,-1.680,26.880,159,156,195,178,145,2025-05-24T00:03:40.336948
1214,-0.6437,0.9135,-0.0429,-20.580,0.700,34.930,138,153,196,178,145,2025-05-24T00:03:40.336991
1215,-0.6037,0.9087,-0.0034,-22.680,4.410,39.410,127,157,198,179,147,2025-05-24T00:03:40.337003
1216,-0.5744,0.9048,0.0503,-22.120,8.260,43.890,128,158,200,179,148,2025-05-24T00:03:40.337013
1217,-0.5690,0.8955,0.0893,-22.050,13.300,45.150,128,158,197,179,149,2025-05-24T00:03:40.337023
1218,-0.5524,0.8999,0.1205,-20.930,17.360,45.220,131,158,200,181,152,2025-05-24T00:03:40.337033
1219,-0.5573,0.8774,0.1249,-16.450,19.670,46.900,132,157,201,182,150,2025-05-24T00:03:40.337042
1220,-0.5671,0.8525,0.1225,-10.850,19.320,49.000,132,157,202,183,152,2025-05-24T00:03:40.337053
1221,-0.5661,0.8467,0.1166,-6.580,15.960,49.490,132,156,203,184,153,2025-05-24T00:03:40.337062
1222,-0.5544,0.8428,0.1059,-4.340,12.250,47.250,131,158,203,182,152,2025-05-24T00:03:40.337071
1223,-0.5314,0.8447,0.0956,-4.340,7.700,45.500,132,159,203,183,153,2025-05-24T00:03:40.337079
1224,-0.5061,0.8477,0.1010,-4.620,6.790,41.790,131,157,203,182,152,2025-05-24T00:03:40.337088
1225,-0.4812,0.8496,0.0991,-5.110,7.070,38.360,130,159,203,182,152,2025-05-24T00:03:40.337096
1226,-0.4782,0.8520,0.1025,-5.180,8.050,34.580,130,160,203,183,153,2025-05-24T00:03:40.337103
1227,-0.4675,0.8667,0.0961,-9.520,9.170,30.240,132,161,204,184,154,2025-05-24T00:03:40.337136
1228,-0.4792,0.8579,0.1010,-11.900,9.240,28.840,133,160,205,184,155,2025-05-24T00:03:40.337145
1229,-0.4831,0.8481,0.1103,-11.200,6.860,27.510,129,161,204,184,154,2025-05-24T00:03:40.337153
1230,-0.4753,0.8438,0.1249,-7.700,3.010,26.390,129,162,205,184,155,2025-05-24T00:03:40.584901
1231,-0.4426,0.8540,0.1435,-3.570,0.910,25.060,130,162,206,184,154,2025-05-24T00:03:40.584944
1232,-0.4089,0.8838,0.1615,-4.060,1.470,21.490,138,162,204,183,153,2025-05-24T00:03:40.584956
1233,-0.4006,0.8794,0.1781,-7.280,0.210,16.240,138,161,205,184,153,2025-05-24T00:03:40.584965
1234,-0.3709,0.8896,0.1937,-9.800,-0.350,13.020,137,162,204,183,154,2025-05-24T00:03:40.584989
1235,-0.3758,0.8750,0.1967,-11.550,1.050,9.170,137,160,204,182,153,2025-05-24T00:03:40.584999
1236,-0.3792,0.8730,0.2035,-11.410,2.310,7.070,136,161,204,182,153,2025-05-24T00:03:40.585008
1237,-0.3904,0.8623,0.2172,-11.900,3.290,5.460,134,159,204,182,150,2025-05-24T00:03:40.585017
1238,-0.4216,0.8506,0.2240,-13.090,1.610,1.470,134,162,204,182,152,2025-05-24T00:03:40.585026
1239,-0.4314,0.8520,0.2342,-14.280,-3.920,-1.330,134,159,203,182,152,2025-05-24T00:03:40.585035
1240,-0.4407,0.8306,0.2367,-15.750,-8.190,-4.760,134,161,203,182,153,2025-05-24T00:03:40.585043
1241,-0.4363,0.8384,0.2474,-14.070,-10.220,-4.480,134,159,203,182,152,2025-05-24T00:03:40.585054
1242,-0.4382,0.8496,0.2577,-12.460,-9.450,-5.460,133,160,203,180,152,2025-05-24T00:03:40.585063
1243,-0.4509,0.8423,0.2377,-10.360,-9.310,-7.910,133,160,203,181,154,2025-05-24T00:03:40.585071
1244,-0.4436,0.8477,0.2289,-7.840,-9.800,-6.790,133,160,202,180,153,2025-05-24T00:03:40.585106
1245,-0.4514,0.8394,0.2137,-6.440,-9.170,-5.320,131,159,202,180,151,2025-05-24T00:03:40.585115
1246,-0.4587,0.8545,0.2201,-4.270,-9.240,-5.250,131,159,202,181,152,2025-05-24T00:03:40.585123
1247,-0.4470,0.8662,0.2308,-3.500,-10.710,-5.880,131,157,202,181,152,2025-05-24T00:03:40.585131
1248,-0.4455,0.8579,0.2181,-2.450,-12.740,-4.830,132,161,203,180,153,2025-05-24T00:03:40.585144
1249,-0.4353,0.9140,0.1972,-0.350,-12.250,-1.890,130,158,202,180,151,2025-05-24T00:03:40.585152
1250,-0.4177,0.9496,0.1869,-1.050,-8.050,-3.850,130,158,203,180,152,2025-05-24T00:03:40.760899
1251,-0.4114,0.9536,0.1781,-0.630,-5.460,-6.510,130,157,201,180,152,2025-05-24T00:03:40.999651
1252,-0.4504,0.9296,0.1718,-2.590,-4.690,-8.400,130,159,202,180,152,2025-05-24T00:03:40.999685
1253,-0.4953,0.8823,0.1693,-4.970,-9.520,-11.200,131,159,202,180,153,2025-05-24T00:03:40.999697
1254,-0.5173,0.8374,0.1469,-2.380,-16.660,-8.680,130,161,202,180,153,2025-05-24T00:03:40.999708
1255,-0.5114,0.8320,0.1440,4.340,-22.960,-6.160,130,159,203,181,153,2025-05-24T00:03:40.999719
1256,-0.4773,0.8403,0.1435,9.800,-25.200,-7.560,130,159,203,180,153,2025-05-24T00:03:40.999728
1257,-0.4055,0.8472,0.1308,13.090,-26.530,-10.710,131,159,203,180,151,2025-05-24T00:03:40.999739
