SeqNum,AccX,AccY,AccZ,GyroX,GyroY,GyroZ,Flex,Force1,Force2,Force3,Force4,TimestampReception
10312,-0.7676,0.5046,0.4055,0.245,-4.095,-0.175,0.93,0.0184,0.0508,0.0401,0.0087,2025-06-06T11:05:57.509026
10313,-0.9238,0.9682,1.3996,404.670,-419.300,305.795,1.38,0.0184,0.0508,0.0906,0.0087,2025-06-06T11:05:57.509026
10314,-1.3361,0.4514,1.8529,549.395,-442.540,424.795,1.37,0.0368,0.0254,0.0602,0.0087,2025-06-06T11:05:57.509026
10315,-1.3801,0.2401,1.2751,527.345,-463.750,459.270,1.37,0.0184,0.0762,0.0602,0.0174,2025-06-06T11:05:57.509026
10316,-1.2610,0.3348,0.9506,460.250,-537.215,465.290,1.37,0.0368,0.1018,0.0703,0.0087,2025-06-06T11:05:57.615055
10317,-0.7091,-0.5358,1.2844,399.385,-646.555,420.035,1.37,0.0368,0.1273,0.0804,0.0087,2025-06-06T11:05:57.615055
10318,-0.2987,0.4270,0.1932,272.370,-706.545,354.375,1.36,0.0368,0.1018,0.0906,0.0174,2025-06-06T11:05:57.615055
10319,0.1908,0.3758,-0.6666,31.045,-590.730,370.860,1.36,0.0368,0.0762,0.0602,0.0174,2025-06-06T11:05:57.615055
10320,-0.2289,-0.0010,0.0703,99.050,-488.250,402.885,1.35,0.0184,0.0508,0.0602,0.0087,2025-06-06T11:05:57.615055
10321,0.3353,-0.7120,-0.2064,114.170,-369.110,334.915,1.35,0.0368,0.0000,0.0602,0.0087,2025-06-06T11:05:57.615055
10322,0.5968,-0.6359,-0.4480,19.425,-301.350,229.985,1.37,0.0184,0.0508,0.0602,0.0000,2025-06-06T11:05:57.615055
10323,0.6461,-0.5934,-0.4016,-58.695,-221.025,112.525,1.35,0.0184,0.0254,0.0602,0.0087,2025-06-06T11:05:57.615055
10324,0.7574,-0.5378,-0.6276,-115.430,-146.790,26.425,1.36,0.0737,0.0508,0.0602,0.0174,2025-06-06T11:05:57.664481
10325,0.8272,-0.5778,-0.8501,-208.915,-21.840,-87.710,1.36,0.0368,0.0762,0.0804,0.0087,2025-06-06T11:05:57.664481
10326,1.3122,-0.3894,-1.4269,-396.445,104.720,-234.675,1.37,0.0368,0.0508,0.0602,0.0087,2025-06-06T11:05:57.664481
10327,0.9248,0.0190,-1.9832,-607.180,410.060,-361.340,1.35,0.0184,0.1018,0.0804,0.0174,2025-06-06T11:05:57.664481
10328,0.7383,-0.9965,-1.5645,-730.905,801.010,-387.345,1.35,0.0368,0.0508,0.0703,0.0087,2025-06-06T11:05:57.842441
10329,-1.0936,-0.2689,0.2674,-675.185,1139.915,-261.310,1.35,0.0184,0.0762,0.0703,0.0087,2025-06-06T11:05:57.842441
10330,-1.5992,1.8778,0.4197,-361.760,1146.740,75.320,1.35,0.0368,0.1786,0.0703,0.0087,2025-06-06T11:05:57.842441
10331,-4.3656,2.7670,1.7592,120.785,1146.740,471.100,1.35,0.0184,0.0508,0.0703,0.0087,2025-06-06T11:05:57.842441
10332,-5.6384,1.2517,5.0913,726.215,1129.905,554.820,1.34,0.0184,0.0508,0.0501,0.0087,2025-06-06T11:05:57.842441
10333,-2.8202,2.2804,5.2304,765.170,405.545,520.135,1.32,0.0368,0.0254,0.0703,0.0087,2025-06-06T11:05:57.842441
10334,-2.1233,1.7656,4.0333,146.440,-469.875,369.880,1.33,0.0184,0.0254,0.0703,0.0087,2025-06-06T11:05:57.842441
10335,-1.8964,0.4919,2.9846,-213.535,-1146.740,206.605,1.35,0.0184,0.0000,0.0300,0.0087,2025-06-06T11:05:57.842441
10336,-3.2315,1.2912,1.0194,-229.460,-1146.740,218.190,1.34,0.0184,0.0254,0.0703,0.0087,2025-06-06T11:05:57.842441
10337,-3.4414,0.6242,-3.1354,-137.970,-1146.740,607.845,1.33,0.0368,0.0254,0.0703,0.0087,2025-06-06T11:05:57.842441
10338,-2.2209,-0.3328,-1.8925,-55.125,-1146.740,747.810,1.33,0.0184,0.0254,0.0703,0.0087,2025-06-06T11:05:57.842441
10339,-0.7505,-2.3644,-2.7025,250.880,-876.820,672.945,1.32,0.0184,0.1529,0.0703,0.0087,2025-06-06T11:05:57.842441
10340,0.1708,-1.8451,-3.0041,-220.430,-647.675,378.315,1.32,0.0184,0.0762,0.0804,0.0000,2025-06-06T11:05:57.842441
10341,0.2679,-1.1688,-0.9277,-373.590,-56.805,190.715,1.31,0.0368,0.0508,0.0906,0.0087,2025-06-06T11:05:57.892971
10342,-0.8769,-1.4167,-2.7528,-6.055,205.170,16.135,1.33,0.0368,0.0254,0.0602,0.0087,2025-06-06T11:05:57.892971
10343,0.9189,-2.0921,-1.5377,-56.630,776.545,-437.465,1.32,0.0184,0.0254,0.0703,0.0174,2025-06-06T11:05:57.892971
10344,-0.2996,-1.3727,-1.9242,-509.460,1146.740,-790.685,1.32,0.0184,0.0508,0.0804,0.0087,2025-06-06T11:05:58.071568
10345,-2.3668,-1.1346,-1.2405,-1099.070,1146.740,-634.760,1.31,0.0184,0.0762,0.0804,0.0087,2025-06-06T11:05:58.071568
10346,-4.6887,1.5030,2.7108,-632.730,1146.740,-56.210,1.31,0.0184,0.0254,0.0804,0.0087,2025-06-06T11:05:58.071568
10347,-7.0492,0.1976,14.9221,380.450,591.780,245.945,1.31,0.0368,0.0508,0.1008,0.0087,2025-06-06T11:05:58.071568
10348,-2.4839,1.7832,8.1628,444.220,-198.415,144.410,1.32,0.0184,0.0762,0.0906,0.0087,2025-06-06T11:05:58.071568
10349,-2.3692,1.6641,4.5150,125.265,-998.550,108.745,1.31,0.0184,0.0508,0.1008,0.0087,2025-06-06T11:05:58.071568
10350,-2.6664,1.9164,3.0441,529.340,-1146.740,315.280,1.31,0.0184,0.0762,0.1109,0.0087,2025-06-06T11:05:58.071568
10351,-2.7645,0.4426,-1.5104,603.715,-1146.740,608.160,1.29,0.0184,0.1018,0.1212,0.0087,2025-06-06T11:05:58.071568
10352,-2.1623,-1.5577,-1.4411,623.805,-1059.310,691.635,1.26,0.0184,0.1273,0.1008,0.0174,2025-06-06T11:05:58.071568
10353,-0.8413,-3.1637,-2.7860,716.625,-749.175,697.585,1.31,0.0368,0.0508,0.1212,0.0174,2025-06-06T11:05:58.071568
10354,0.1918,-1.9730,-2.4459,301.210,-376.215,380.975,1.30,0.0184,0.0508,0.1416,0.0087,2025-06-06T11:05:58.071568
10355,0.8150,-2.1340,-2.5439,-166.740,-141.330,80.570,1.30,0.0368,0.1018,0.1416,0.0087,2025-06-06T11:05:58.071568
10356,0.6251,-1.7129,-2.3961,-261.800,266.210,-319.690,1.30,0.0368,0.0762,0.1416,0.0174,2025-06-06T11:05:58.071568
10357,0.1810,-1.4957,-2.3219,-179.375,532.735,-496.650,1.31,0.0184,0.1018,0.1314,0.0087,2025-06-06T11:05:58.228760
10358,-0.5222,-1.2317,-1.7846,-374.955,717.605,-639.205,1.29,0.0368,0.0000,0.1416,0.0087,2025-06-06T11:05:58.228760
10359,-1.3727,-1.1483,-1.1458,-667.765,809.795,-625.695,1.29,0.0368,0.0762,0.1212,0.0087,2025-06-06T11:05:58.228760
10360,-1.8925,-0.7647,-0.7896,-783.615,949.935,-477.680,1.29,0.0368,0.0762,0.1212,0.0174,2025-06-06T11:05:58.228760
10361,-1.4611,0.2611,0.8325,-785.540,1003.555,-251.510,1.30,0.0368,0.0508,0.1212,0.0000,2025-06-06T11:05:58.228760
10362,-1.2512,0.7100,3.0651,-491.085,907.445,-29.190,1.28,0.0368,0.0508,0.1314,0.0087,2025-06-06T11:05:58.228760
10363,-1.3981,0.7549,4.6848,-130.515,738.570,56.630,1.29,0.0184,0.0508,0.1109,0.0087,2025-06-06T11:05:58.228760
10364,-2.7460,-0.4041,6.5792,-113.015,605.290,5.705,1.29,0.0368,0.0762,0.1314,0.0087,2025-06-06T11:05:58.228760
10365,-2.4664,-0.0454,5.8423,202.650,109.550,20.650,1.29,0.0184,0.0254,0.1109,0.0174,2025-06-06T11:05:58.228760
10366,-3.2896,1.1595,5.7799,283.955,-617.680,74.200,1.28,0.0184,0.0508,0.1212,0.0087,2025-06-06T11:05:58.228760
10367,-3.1930,1.6041,3.8986,850.885,-1146.740,264.425,1.30,0.0184,0.0508,0.1212,0.0087,2025-06-06T11:05:58.228760
10368,-4.0743,1.0770,0.1854,1022.105,-1146.740,809.480,1.29,0.0184,0.0254,0.1416,0.0087,2025-06-06T11:05:58.228760
10369,-2.8148,-0.5139,-1.5821,262.290,-1146.740,1045.065,1.28,0.0368,0.0762,0.1314,0.0087,2025-06-06T11:05:58.282990
10370,-2.2575,-2.7499,-1.8930,580.615,-973.315,976.080,1.28,0.0368,0.0762,0.1109,0.0174,2025-06-06T11:05:58.282990
10371,-0.5607,-4.1792,-1.9920,359.975,-877.555,380.730,1.27,0.0184,0.1273,0.1109,0.0174,2025-06-06T11:05:58.282990
10372,-0.2206,-2.2385,-2.5927,-100.905,-575.365,380.030,1.27,0.0368,0.0508,0.1212,0.0087,2025-06-06T11:05:58.434325
10373,0.0005,-2.2072,-3.0134,-107.065,18.235,-67.620,1.26,0.0184,0.0762,0.1212,0.0174,2025-06-06T11:05:58.434325
10374,-0.7476,-2.2643,-2.8904,-21.490,447.475,-357.105,1.29,0.0184,0.1018,0.1109,0.0087,2025-06-06T11:05:58.434325
10375,-1.1014,-2.1072,-2.3414,-221.865,762.895,-654.430,1.28,0.0184,0.0762,0.1109,0.0087,2025-06-06T11:05:58.434325
10376,-2.0174,-2.1067,-1.8905,-516.110,895.335,-810.600,1.28,0.0184,0.0762,0.1212,0.0087,2025-06-06T11:05:58.434325
10377,-2.3497,-0.9096,-1.7114,-794.290,1146.740,-628.390,1.29,0.0000,0.0762,0.1212,0.0087,2025-06-06T11:05:58.434325
10378,-3.3311,-0.1596,-1.2312,-1143.555,1146.740,-537.145,1.27,0.0368,0.0508,0.0906,0.0087,2025-06-06T11:05:58.434325
10379,-4.7639,-0.1240,2.7518,-978.635,1146.740,-236.950,1.28,0.0368,0.0508,0.1109,0.0087,2025-06-06T11:05:58.434325
10380,-5.7574,-1.0965,6.5524,-673.435,1146.740,120.400,1.26,0.0184,0.0508,0.1008,0.0087,2025-06-06T11:05:58.434325
10381,-5.5998,-0.5680,9.1344,286.195,1041.110,195.195,1.27,0.0000,0.1018,0.1109,0.0087,2025-06-06T11:05:58.434325
10382,-4.6179,-0.3318,7.5699,95.900,27.475,-124.810,1.28,0.0000,0.0762,0.1212,0.0174,2025-06-06T11:05:58.434325
10383,-6.8701,0.2406,7.5664,312.305,-930.860,-399.910,1.29,0.0184,0.0762,0.1212,0.0087,2025-06-06T11:05:58.434325
10384,-2.2765,0.7886,2.8875,996.205,-1146.740,55.440,1.28,0.0368,0.0000,0.1212,0.0174,2025-06-06T11:05:58.483393
10385,-4.3090,0.2113,-3.3101,908.810,-1146.740,679.945,1.28,0.0368,0.0762,0.1212,0.0087,2025-06-06T11:05:58.483393
10386,-4.2300,-2.7714,-4.2749,1109.710,-1146.740,1146.740,1.26,0.0184,0.0000,0.1212,0.0174,2025-06-06T11:05:58.483393
10387,-2.7226,-2.1540,-2.5088,797.370,-1110.690,1129.205,1.27,0.0184,0.0762,0.1109,0.0174,2025-06-06T11:05:58.655802
10388,-1.7285,-4.5901,-2.7709,385.140,-810.110,783.335,1.29,0.0184,0.0508,0.1212,0.0174,2025-06-06T11:05:58.655802
10389,-0.2118,-4.3783,-3.6063,-270.235,-649.565,244.475,1.28,0.0184,0.0508,0.1109,0.0174,2025-06-06T11:05:58.655802
10390,0.8579,-2.6040,-3.5297,-85.925,-39.480,-195.685,1.28,0.0368,0.0000,0.1212,0.0087,2025-06-06T11:05:58.655802
10391,0.1313,-2.2834,-3.5653,64.015,409.780,-489.790,1.27,0.0184,0.1018,0.1008,0.0087,2025-06-06T11:05:58.655802
10392,-0.2791,-1.2098,-2.8929,-263.480,794.920,-697.095,1.29,0.0368,0.0254,0.1008,0.0087,2025-06-06T11:05:58.655802
10393,-0.6271,-1.5782,-2.6562,-641.165,1146.740,-836.850,1.28,0.0184,0.0254,0.1109,0.0087,2025-06-06T11:05:58.655802
10394,-2.4239,-1.1278,-1.7236,-951.090,1146.740,-828.310,1.28,0.0184,0.0254,0.1109,0.0000,2025-06-06T11:05:58.655802
10395,-3.7239,-1.5284,-0.9213,-1085.560,1146.740,-514.990,1.28,0.0184,0.0508,0.0906,0.0087,2025-06-06T11:05:58.655802
10396,-5.2519,-1.5889,2.2531,-911.330,1146.740,-116.165,1.28,0.0184,0.0254,0.0906,0.0174,2025-06-06T11:05:58.655802
10397,-4.4740,-0.3450,5.9643,-483.105,1146.740,73.150,1.28,0.0184,0.0508,0.0906,0.0174,2025-06-06T11:05:58.655802
10398,-2.5586,1.4381,6.7725,387.135,577.220,217.840,1.28,0.0368,0.0508,0.1008,0.0087,2025-06-06T11:05:58.655802
10399,-3.0783,0.3460,6.3123,90.335,-62.965,167.300,1.29,0.0368,0.0508,0.1008,0.0174,2025-06-06T11:05:58.655802
10400,-3.8913,0.3201,5.0269,313.600,-969.045,77.875,1.29,0.0368,0.1018,0.1212,0.0087,2025-06-06T11:05:58.843992
10401,-4.0382,1.6602,3.1642,878.465,-1146.740,227.815,1.28,0.0184,0.0000,0.1008,0.0174,2025-06-06T11:05:58.843992
10402,-4.5740,0.5407,-1.3557,1051.260,-1146.740,906.955,1.29,0.0184,0.0508,0.1008,0.0174,2025-06-06T11:05:58.843992
10403,-3.2955,-1.8041,-1.7168,290.745,-1146.740,1010.205,1.28,0.0184,0.0508,0.1212,0.0087,2025-06-06T11:05:58.843992
10404,-3.0251,-2.8426,-2.1643,577.185,-1141.385,994.770,1.29,0.0368,0.0254,0.1109,0.0087,2025-06-06T11:05:58.843992
10405,-2.4903,-2.0071,-2.0803,358.715,-765.625,657.055,1.30,0.0368,0.0254,0.0906,0.0087,2025-06-06T11:05:58.843992
10406,-0.7520,-1.9110,-3.3379,-10.255,-522.585,277.830,1.28,0.0000,0.0762,0.1008,0.0087,2025-06-06T11:05:58.843992
10407,-0.2928,-2.5703,-3.4341,17.780,-63.175,61.530,1.27,0.0184,0.0508,0.0906,0.0087,2025-06-06T11:05:58.843992
10408,0.1723,-2.2804,-3.3208,-41.055,301.420,-256.270,1.29,0.0184,0.0254,0.0906,0.0087,2025-06-06T11:05:58.843992
10409,-0.0010,-2.1662,-2.8480,-274.015,715.575,-545.650,1.28,0.0184,0.0254,0.0906,0.0000,2025-06-06T11:05:58.843992
10410,-0.9731,-1.9427,-2.4263,-544.215,1037.575,-683.935,1.28,0.0368,0.0254,0.0906,0.0087,2025-06-06T11:05:58.843992
10411,-1.8632,-1.1165,-1.1902,-715.225,1146.740,-793.170,1.28,0.0184,0.0254,0.0906,0.0087,2025-06-06T11:05:58.843992
10412,-4.2480,-1.8344,-1.5431,-945.035,1146.740,-700.945,1.28,0.0184,0.0000,0.1008,0.0087,2025-06-06T11:05:58.843992
10413,-5.9931,-0.8701,1.9588,-832.545,1146.740,-347.025,1.28,0.0368,0.0508,0.1212,0.0174,2025-06-06T11:05:58.894203
10414,-5.7281,-0.0068,9.8517,-77.980,1139.670,177.870,1.29,0.0184,0.0762,0.0906,0.0087,2025-06-06T11:05:58.894203
10415,-2.3580,2.2424,2.3497,520.835,780.745,327.600,1.30,0.0368,0.1018,0.1008,0.0174,2025-06-06T11:05:58.894203
10416,-3.9060,0.2108,7.8090,-74.935,-523.985,-32.235,1.29,0.0000,0.0508,0.1109,0.0174,2025-06-06T11:05:58.894203
10417,-4.0089,2.2199,5.3460,641.025,-1146.740,48.230,1.30,0.0184,0.0508,0.0804,0.0087,2025-06-06T11:05:59.045427
10418,-5.0854,1.3278,-0.1581,1146.740,-1146.740,820.155,1.28,0.0368,0.1273,0.0602,0.0174,2025-06-06T11:05:59.045427
10419,-2.9231,-0.6608,-1.3615,70.945,-1146.740,1095.185,1.28,0.0184,0.0254,0.1008,0.0087,2025-06-06T11:05:59.045427
10420,-3.0588,-2.7470,-1.8871,718.340,-1146.740,1099.595,1.29,0.0368,0.1273,0.0906,0.0087,2025-06-06T11:05:59.045427
10421,-2.1882,-1.5074,-0.8789,652.050,-927.500,495.320,1.28,0.0184,0.0508,0.0804,0.0087,2025-06-06T11:05:59.045427
10422,-0.9296,-2.3648,-2.7318,-66.955,-800.240,527.660,1.28,0.0184,0.0254,0.0703,0.0087,2025-06-06T11:05:59.045427
10423,-0.5417,-2.4571,-3.3516,-108.570,-301.735,221.305,1.29,0.0184,0.1018,0.0906,0.0087,2025-06-06T11:05:59.045427
10424,-0.0673,-2.5659,-3.1779,90.265,96.425,-60.725,1.31,0.0184,0.0508,0.1008,0.0174,2025-06-06T11:05:59.045427
10425,-0.0132,-1.9759,-2.5796,-14.070,471.590,-400.190,1.28,0.0184,0.0254,0.0906,0.0087,2025-06-06T11:05:59.045427
10426,-0.3372,-1.7646,-2.3717,-194.740,842.275,-606.235,1.28,0.0184,0.0508,0.0906,0.0087,2025-06-06T11:05:59.045427
10427,-1.3967,-1.6587,-1.6172,-465.500,1004.325,-752.465,1.28,0.0368,0.0508,0.1212,0.0087,2025-06-06T11:05:59.045427
10428,-2.0789,-1.7822,-0.9609,-697.655,1146.740,-836.535,1.30,0.0368,0.0000,0.1109,0.0087,2025-06-06T11:05:59.102473
10429,-3.1032,-2.0823,-0.0239,-845.320,1146.740,-556.430,1.29,0.0184,0.0508,0.1314,0.0087,2025-06-06T11:05:59.102473
10430,-4.7399,-1.6285,1.6177,-942.200,1146.740,-546.875,1.29,0.0184,0.0762,0.1725,0.0087,2025-06-06T11:05:59.102473
10431,-4.4345,0.9384,4.7302,-674.030,1146.740,-125.615,1.29,0.0184,0.0508,0.2035,0.0174,2025-06-06T11:05:59.102473
10432,-5.2201,0.7813,12.2444,192.850,815.290,177.800,1.29,0.0184,0.1786,0.2139,0.0087,2025-06-06T11:05:59.257577
10433,-2.3775,0.9179,4.3808,187.460,273.560,162.820,1.28,0.0368,0.0762,0.2348,0.0087,2025-06-06T11:05:59.257577
10434,-3.2974,0.2225,6.2044,247.100,-699.475,29.680,1.28,0.0184,0.0762,0.2243,0.0087,2025-06-06T11:05:59.257577
10435,-3.9060,1.8202,4.5296,817.250,-1146.740,135.905,1.29,0.0368,0.0762,0.2557,0.0087,2025-06-06T11:05:59.257577
10436,-4.6624,0.9887,-0.6988,1146.740,-1146.740,855.260,1.29,0.0368,0.1529,0.3084,0.0087,2025-06-06T11:05:59.257577
10437,-2.8543,-1.2058,-2.7299,308.070,-1146.740,1076.670,1.27,0.0184,0.1018,0.3190,0.0000,2025-06-06T11:05:59.257577
10438,-3.1818,-2.6533,-2.0803,671.370,-1141.525,1115.660,1.27,0.0184,0.1018,0.3509,0.0000,2025-06-06T11:05:59.257577
10439,-2.4166,-1.8739,-1.7841,480.690,-812.840,797.335,1.28,0.0184,0.1273,0.4262,0.0087,2025-06-06T11:05:59.257577
10440,-2.7157,-2.7831,-2.5664,29.295,-835.205,493.780,1.27,0.0184,0.1529,0.4696,0.0087,2025-06-06T11:05:59.257577
10441,0.1991,-2.2199,-2.7035,-32.795,-224.840,176.155,1.30,0.0184,0.2043,0.5025,0.0087,2025-06-06T11:05:59.257577
10442,0.1176,-2.3204,-2.6445,33.040,71.155,-124.600,1.29,0.0184,0.2043,0.5356,0.0087,2025-06-06T11:05:59.257577
10443,-0.0503,-1.9505,-2.3478,-130.760,325.535,-324.485,1.28,0.0184,0.2818,0.5688,0.0087,2025-06-06T11:05:59.257577
10444,-0.2347,-1.5338,-2.1287,-228.900,675.500,-534.310,1.27,0.0368,0.2559,0.6247,0.0087,2025-06-06T11:05:59.457700
10445,-0.8398,-1.5309,-1.8847,-445.165,884.730,-650.755,1.28,0.0184,0.3077,0.6135,0.0087,2025-06-06T11:05:59.457700
10446,-1.1775,-1.4093,-1.1707,-635.110,1146.740,-728.560,1.29,0.0368,0.3337,0.6023,0.0087,2025-06-06T11:05:59.457700
10447,-2.0081,-2.5332,-0.5202,-919.590,1146.740,-744.345,1.27,0.0184,0.2559,0.6023,0.0174,2025-06-06T11:05:59.457700
10448,-4.4847,-1.5933,0.6866,-1028.755,1146.740,-538.790,1.29,0.0368,0.2818,0.6023,0.0087,2025-06-06T11:05:59.457700
10449,-4.2973,0.1845,5.1694,-624.995,1146.740,-201.775,1.29,0.0184,0.3077,0.5688,0.0087,2025-06-06T11:05:59.457700
10450,-5.9194,0.8589,12.5304,253.855,975.275,269.640,1.28,0.0184,0.2559,0.5356,0.0087,2025-06-06T11:05:59.457700
10451,-1.5392,0.9945,4.6282,451.710,491.680,226.275,1.28,0.0184,0.2559,0.5245,0.0087,2025-06-06T11:05:59.457700
10452,-3.8254,0.2460,7.5137,212.625,-678.965,33.810,1.30,0.0184,0.2559,0.4696,0.0087,2025-06-06T11:05:59.457700
10453,-4.0416,2.0569,4.8214,951.405,-1146.740,250.985,1.28,0.0368,0.1786,0.4479,0.0087,2025-06-06T11:05:59.457700
10454,-5.6789,0.9921,-1.1336,1144.955,-1146.740,1008.210,1.28,0.0184,0.1529,0.4153,0.0087,2025-06-06T11:05:59.460989
10455,-4.1783,-0.5197,-0.6959,207.060,-1146.740,1146.740,1.29,0.0184,0.1786,0.4045,0.0087,2025-06-06T11:05:59.460989
10456,-3.4887,-2.8104,-1.4201,715.085,-1146.740,1146.740,1.30,0.0368,0.1273,0.3616,0.0087,2025-06-06T11:05:59.460989
10457,-2.0462,-2.3849,-1.1541,495.285,-1004.745,779.030,1.29,0.0368,0.1786,0.3190,0.0174,2025-06-06T11:05:59.460989
10458,-1.4943,-2.0364,-0.6071,100.240,-702.170,611.415,1.31,0.0184,0.1529,0.3084,0.0087,2025-06-06T11:05:59.564070
10459,-1.1043,-2.5542,-2.5449,36.015,-430.185,353.885,1.28,0.0368,0.1529,0.3190,0.0087,2025-06-06T11:05:59.564070
10460,-0.5124,-2.9700,-2.6298,192.640,-165.760,170.590,1.26,0.0368,0.1786,0.3190,0.0087,2025-06-06T11:05:59.564070
10461,0.5251,-2.7631,-2.3824,-16.450,85.295,-133.175,1.29,0.0368,0.1273,0.2662,0.0087,2025-06-06T11:05:59.564070
10462,0.8301,-2.5923,-2.3575,-116.060,407.260,-420.805,1.29,0.0184,0.1273,0.2662,0.0174,2025-06-06T11:05:59.564070
10463,0.9760,-2.2238,-2.5942,-305.620,885.430,-620.865,1.27,0.0184,0.0000,0.2452,0.0000,2025-06-06T11:05:59.564070
10464,0.3797,-1.5675,-2.3024,-528.325,1146.740,-798.560,1.29,0.0184,0.1273,0.2452,0.0087,2025-06-06T11:05:59.564070
10465,-1.3884,-0.6168,-1.6636,-577.605,1146.740,-878.920,1.28,0.0184,0.0000,0.2557,0.0087,2025-06-06T11:05:59.564070
10466,-3.2384,-0.9335,-1.0619,-918.085,1146.740,-869.680,1.29,0.0368,0.0762,0.2139,0.0087,2025-06-06T11:05:59.611220
10467,-5.3055,-3.2408,-0.3445,-1146.740,1146.740,-503.125,1.28,0.0184,0.1018,0.2139,0.0087,2025-06-06T11:05:59.611220
10468,-4.4608,-1.3971,8.1779,-295.645,1146.740,-124.950,1.28,0.0368,0.1786,0.2139,0.0174,2025-06-06T11:05:59.611220
10469,-5.0762,2.5030,10.5672,50.995,1145.865,196.525,1.26,0.0184,0.0762,0.1725,0.0174,2025-06-06T11:05:59.663474
10470,-4.7990,2.4380,-2.5532,306.320,892.220,-100.555,1.30,0.0368,0.1529,0.1622,0.0087,2025-06-06T11:05:59.663474
10471,0.3079,-0.8628,3.0822,-218.295,-103.250,8.050,1.30,0.0368,0.1018,0.1519,0.0000,2025-06-06T11:05:59.663474
10472,-0.3274,0.2460,4.3359,1133.545,-859.530,51.730,1.28,0.0184,0.1018,0.1622,0.0087,2025-06-06T11:05:59.663474
10473,-3.3404,1.4918,-0.4709,798.315,-1146.740,656.530,1.27,0.0184,0.1018,0.1519,0.0087,2025-06-06T11:05:59.761579
10474,-2.6479,0.6798,0.9130,730.100,-1146.740,1146.180,1.29,0.0368,0.1018,0.1519,0.0174,2025-06-06T11:05:59.761579
10475,-3.9728,-1.6987,-1.1810,1063.545,-1064.560,1146.740,1.28,0.0184,0.0508,0.1314,0.0174,2025-06-06T11:05:59.761579
10476,-3.2174,-2.0198,-1.2600,503.545,-863.520,1139.040,1.27,0.0184,0.1018,0.1109,0.0087,2025-06-06T11:05:59.761579
10477,-1.1527,-2.6884,-1.5870,-528.045,-990.745,948.290,1.28,0.0368,0.0762,0.1212,0.0087,2025-06-06T11:05:59.761579
10478,-0.9233,-2.3190,-2.4390,-680.540,-868.665,709.275,1.28,0.0184,0.0762,0.1314,0.0087,2025-06-06T11:05:59.761579
10479,0.7935,-1.5138,-2.1204,-176.085,-431.095,426.265,1.28,0.0184,0.0762,0.1314,0.0087,2025-06-06T11:05:59.761579
10480,0.7398,-2.7094,-2.6337,270.095,19.705,132.965,1.29,0.0368,0.0762,0.1828,0.0087,2025-06-06T11:05:59.761579
10481,0.6764,-2.7948,-4.0894,200.410,-233.170,160.965,1.28,0.0184,0.0508,0.1622,0.0087,2025-06-06T11:05:59.857060
10482,2.0569,-1.8734,-1.0038,284.830,355.320,-422.310,1.27,0.0368,0.1529,0.1828,0.0087,2025-06-06T11:05:59.857060
10483,1.0780,-1.6895,-2.1784,-148.715,627.340,-670.740,1.28,0.0184,0.0254,0.2139,0.0087,2025-06-06T11:05:59.857060
10484,-0.5446,-1.2088,-2.4229,-456.575,804.265,-724.535,1.28,0.0368,0.1786,0.2978,0.0087,2025-06-06T11:05:59.857060
10485,-1.0692,-0.4675,-1.5767,-574.945,1001.455,-731.395,1.27,0.0368,0.1273,0.3084,0.0087,2025-06-06T11:05:59.857060
10486,-2.9827,-0.5246,-1.1936,-687.645,1125.145,-631.400,1.27,0.0184,0.1529,0.4479,0.0087,2025-06-06T11:05:59.857060
10487,-2.3282,-0.9862,0.8696,-738.745,1146.740,-551.110,1.29,0.0368,0.2043,0.5025,0.0087,2025-06-06T11:05:59.857060
10488,-3.7766,-0.9931,0.4841,-723.415,1146.740,-444.815,1.28,0.0368,0.1273,0.6247,0.0087,2025-06-06T11:05:59.966408
10489,-2.8426,0.7227,2.5200,-612.080,1146.740,-162.890,1.29,0.0368,0.2043,0.7153,0.0174,2025-06-06T11:05:59.966408
10490,-2.2043,1.4982,3.1881,-386.995,1023.715,130.340,1.27,0.0184,0.2043,0.8777,0.0087,2025-06-06T11:05:59.966408
10491,-3.0422,0.3255,5.2504,-285.915,987.910,343.105,1.30,0.0368,0.3857,0.9966,0.0174,2025-06-06T11:05:59.966408
10492,-6.5690,1.2537,3.2271,-23.100,542.430,347.025,1.30,0.0184,0.3857,1.2048,0.0087,2025-06-06T11:05:59.966408
10493,0.7564,-0.6988,1.8241,98.210,95.025,368.970,1.28,0.0184,0.3597,1.2172,0.0087,2025-06-06T11:05:59.966408
10494,-2.6113,-0.4075,3.1456,291.620,-38.920,218.715,1.28,0.0368,0.5169,1.3054,0.0087,2025-06-06T11:05:59.966408
10495,-0.8042,-0.3850,1.9217,357.630,-443.135,142.310,1.29,0.0184,0.4906,1.3436,0.0087,2025-06-06T11:06:00.072461
10496,-1.5504,0.5495,1.1966,440.615,-727.615,181.790,1.28,0.0368,0.5962,1.5517,0.0087,2025-06-06T11:06:00.072461
10497,-2.8860,0.3353,2.7513,578.130,-1002.435,288.820,1.28,0.0184,0.4906,1.6049,0.0174,2025-06-06T11:06:00.072461
10498,-1.6763,0.0078,0.2865,468.265,-1146.740,474.425,1.28,0.0184,0.5697,1.6317,0.0087,2025-06-06T11:06:00.072461
10499,-1.7378,0.0761,-0.0888,494.165,-1146.740,566.580,1.29,0.0184,0.5962,1.7950,0.0087,2025-06-06T11:06:00.072461
10500,-1.1580,-0.3967,-0.9667,277.060,-1074.885,560.385,1.29,0.0368,0.7027,1.8924,0.0174,2025-06-06T11:06:00.072461
10501,-0.3309,-0.4860,-1.5689,45.465,-906.220,522.270,1.29,0.0184,0.7832,1.9913,0.0087,2025-06-06T11:06:00.072461
10502,0.0468,-0.5514,-1.8295,-39.830,-709.065,434.525,1.26,0.0184,0.8370,2.0630,0.0000,2025-06-06T11:06:00.072461
10503,1.1702,-0.6886,-1.6807,-43.155,-443.940,275.730,1.28,0.0368,0.9183,2.2682,0.0087,2025-06-06T11:06:00.166274
10504,1.4655,-0.7754,-1.6494,5.530,-170.975,74.095,1.27,0.0184,0.9183,2.2981,0.0174,2025-06-06T11:06:00.166274
10505,1.7134,-0.9301,-1.6002,23.625,86.800,-69.895,1.27,0.0184,0.9727,2.2981,0.0000,2025-06-06T11:06:00.166274
10506,1.8178,-0.7950,-1.4860,-57.120,230.790,-210.805,1.28,0.0368,1.0274,2.4497,0.0087,2025-06-06T11:06:00.166274
10507,1.0228,-0.6012,-1.6148,-204.330,411.495,-370.230,1.28,0.0184,1.1098,2.5424,0.0087,2025-06-06T11:06:00.166274
10508,0.2035,-0.2020,-1.5333,-248.990,552.895,-430.885,1.28,0.0184,1.1650,2.4497,0.0174,2025-06-06T11:06:00.166274
10509,-0.3392,-0.3206,-0.9501,-347.515,736.120,-534.450,1.28,0.0184,1.1927,2.5269,0.0087,2025-06-06T11:06:00.166274
10510,-0.8081,-1.1141,-0.2303,-454.335,767.130,-603.225,1.27,0.0368,1.1927,2.6050,0.0087,2025-06-06T11:06:00.276465
10511,-0.8994,-0.8472,0.7056,-439.810,881.020,-530.355,1.28,0.0184,1.2205,2.6523,0.0174,2025-06-06T11:06:00.276465
10512,-1.6377,1.4577,-0.0971,-545.650,849.590,-308.945,1.27,0.0184,1.2205,2.7480,0.0174,2025-06-06T11:06:00.631983
10513,-1.4386,1.1322,0.8320,-811.335,1002.680,-39.270,1.28,0.0368,1.2762,2.7641,0.0174,2025-06-06T11:06:00.631983
10514,-2.1550,0.6534,1.2961,-545.685,972.860,262.605,1.26,0.0368,1.2762,2.8289,0.0087,2025-06-06T11:06:00.631983
10515,-1.6324,-0.3006,3.0739,-191.835,679.735,150.850,1.27,0.0184,1.3041,2.8779,0.0087,2025-06-06T11:06:00.631983
10516,-0.9965,-0.0434,1.5562,-65.100,425.985,73.990,1.28,0.0184,1.2205,2.9108,0.0087,2025-06-06T11:06:00.631983
10517,-0.9877,-0.5539,2.2409,-129.255,104.230,-60.235,1.25,0.0184,1.2483,2.9438,0.0174,2025-06-06T11:06:00.631983
10518,-0.7964,-0.4499,1.9935,-98.980,-120.260,-176.890,1.28,0.0368,1.3041,2.9273,0.0087,2025-06-06T11:06:00.631983
10519,-0.6905,-0.1078,1.3991,-159.145,-215.635,-236.355,1.27,0.0184,1.3882,2.9604,0.0174,2025-06-06T11:06:00.631983
10520,-0.7710,0.2328,1.1712,-109.830,-205.695,-177.310,1.27,0.0368,1.3882,3.0440,0.0087,2025-06-06T11:06:00.631983
10521,-0.7749,0.4758,1.0048,128.975,-200.305,-96.285,1.30,0.0368,1.4446,3.0608,0.0000,2025-06-06T11:06:00.631983
10522,-0.6154,0.4656,0.6051,72.520,-114.275,1.085,1.28,0.0368,1.3882,3.0440,0.0087,2025-06-06T11:06:00.631983
10523,-0.3636,0.4299,0.5222,30.695,-9.345,73.955,1.28,0.0184,1.4446,3.0440,0.0087,2025-06-06T11:06:00.631983
10524,-0.8452,0.7964,-0.0386,33.285,49.315,108.990,1.29,0.0368,1.3601,3.0440,0.0087,2025-06-06T11:06:00.631983
10525,-0.6227,0.2704,0.4695,-119.840,144.935,136.640,1.28,0.0184,1.4164,3.0104,0.0087,2025-06-06T11:06:00.631983
10526,0.0054,0.1640,0.6281,-49.770,159.320,178.885,1.28,0.0184,1.4164,3.0440,0.0087,2025-06-06T11:06:00.631983
10527,0.5124,-0.3167,0.4641,-14.805,234.465,100.660,1.26,0.0184,1.3041,3.0104,0.0087,2025-06-06T11:06:00.631983
10528,-0.1235,0.0039,1.1785,7.035,229.950,43.330,1.28,0.0000,1.3882,3.0608,0.0174,2025-06-06T11:06:00.631983
10529,-0.7013,-0.1132,1.1976,-141.470,187.250,-15.330,1.27,0.0368,1.3882,3.0946,0.0262,2025-06-06T11:06:00.631983
10530,-0.8994,-0.1762,1.4254,-41.545,102.970,-10.780,1.27,0.0368,1.3601,3.1627,0.0087,2025-06-06T11:06:00.631983
10531,-0.9453,-0.2230,1.3108,61.425,-2.870,-29.750,1.27,0.0368,1.4164,3.0440,0.0087,2025-06-06T11:06:00.631983
10532,-0.9282,-0.2894,1.1990,17.395,-91.805,-92.750,1.28,0.0184,1.3321,3.0608,0.0087,2025-06-06T11:06:00.631983
10533,-0.9701,-0.2845,0.9672,-82.915,-121.450,-153.300,1.29,0.0000,1.3041,3.0440,0.0174,2025-06-06T11:06:00.631983
10534,-0.7130,-0.2952,0.8857,-56.070,-117.880,-186.515,1.28,0.0184,1.5012,3.0777,0.0174,2025-06-06T11:06:00.631983
10535,-0.6573,-0.0346,0.8984,-2.450,-105.700,-179.235,1.27,0.0368,1.4164,3.0104,0.0087,2025-06-06T11:06:00.631983
10536,-0.3577,0.3914,0.8423,34.335,-112.945,-136.955,1.26,0.0184,1.4729,2.9604,0.0174,2025-06-06T11:06:00.631983
10537,-0.1591,0.4797,0.7603,74.095,-105.980,-77.210,1.28,0.0184,1.4446,2.9438,0.0174,2025-06-06T11:06:00.631983
10538,-0.0771,0.4299,0.5139,44.170,-64.120,0.980,1.27,0.0184,1.3882,2.8943,0.0087,2025-06-06T11:06:00.631983
10539,-0.2791,0.2972,0.5056,-24.325,-0.980,43.855,1.26,0.0184,1.2483,2.8452,0.0087,2025-06-06T11:06:00.631983
10540,-0.5549,0.2030,0.7818,-58.590,59.430,78.365,1.29,0.0184,1.2483,2.7964,0.0087,2025-06-06T11:06:00.631983
10541,-0.5402,-0.0361,1.1702,-26.355,81.760,79.170,1.28,0.0368,1.2205,2.6682,0.0087,2025-06-06T11:06:00.631983
10542,-0.5671,0.0991,1.3283,42.245,58.905,78.330,1.27,0.0368,1.2205,2.5893,0.0087,2025-06-06T11:06:00.631983
10543,-0.4821,0.0966,1.4172,35.000,0.385,65.135,1.28,0.0368,1.3041,2.6523,0.0087,2025-06-06T11:06:00.631983
10544,-0.4509,0.0415,1.2878,64.015,-104.720,65.380,1.28,0.0184,1.1927,2.5893,0.0087,2025-06-06T11:06:00.686323
10545,-0.3514,-0.1640,0.9897,123.060,-168.140,32.865,1.30,0.0368,1.2205,2.7160,0.0087,2025-06-06T11:06:00.686323
10546,-0.4860,-0.0805,0.7442,147.245,-180.565,39.935,1.31,0.0368,1.0548,2.7320,0.0174,2025-06-06T11:06:00.686323
10547,-0.5231,-0.1405,0.4241,53.550,-125.895,18.340,1.27,0.0184,1.1927,2.7320,0.0087,2025-06-06T11:06:00.686323
10548,-0.3470,0.0190,0.4880,-8.540,-15.505,-1.190,1.27,0.0368,1.1650,2.7160,0.0174,2025-06-06T11:06:00.781903
10549,-0.2420,0.0586,0.4426,-58.730,58.030,9.450,1.26,0.0368,1.1927,2.6682,0.0087,2025-06-06T11:06:00.781903
10550,-0.2586,0.0483,0.6090,-104.230,119.910,24.080,1.28,0.0368,1.2483,2.6365,0.0087,2025-06-06T11:06:00.781903
10551,-0.2928,0.1615,0.7540,-111.825,133.105,43.015,1.28,0.0368,1.1374,2.6365,0.0087,2025-06-06T11:06:00.781903
10552,-0.4060,0.1523,1.0033,-80.710,120.540,53.130,1.27,0.0184,1.2205,2.7000,0.0087,2025-06-06T11:06:00.781903
10553,-0.5836,0.0020,1.3313,26.495,79.870,53.865,1.27,0.0184,1.2483,2.7480,0.0000,2025-06-06T11:06:00.781903
10554,-0.6710,-0.1566,1.3239,3.220,47.040,36.610,1.28,0.0184,1.2205,2.7320,0.0087,2025-06-06T11:06:00.781903
10555,-0.5553,-0.1508,1.2464,-31.955,9.135,-6.650,1.25,0.0184,1.2205,2.7480,0.0174,2025-06-06T11:06:00.882332
10556,-0.6617,-0.0966,1.1492,-42.350,-24.150,-46.340,1.27,0.0368,1.2762,2.7160,0.0087,2025-06-06T11:06:00.882332
10557,-0.5998,-0.0581,1.0809,-30.590,-48.720,-51.485,1.25,0.0184,1.3321,2.7160,0.0087,2025-06-06T11:06:00.882332
10558,-0.4368,0.0673,1.0146,-13.860,-54.250,-33.145,1.27,0.0368,1.2762,2.6841,0.0174,2025-06-06T11:06:00.882332
10559,-0.3743,0.0669,0.7135,-0.805,-36.645,-23.835,1.26,0.0184,1.2205,2.6682,0.0087,2025-06-06T11:06:00.882332
10560,-0.5490,0.0390,0.6178,2.310,8.400,-23.205,1.27,0.0368,1.2762,2.6841,0.0087,2025-06-06T11:06:00.882332
10561,-0.3309,0.1142,0.6764,-34.230,32.970,-12.460,1.27,0.0184,1.2762,2.7320,0.0087,2025-06-06T11:06:00.882332
10562,-0.3245,0.1420,0.7998,-25.725,50.085,6.230,1.27,0.0184,1.2483,2.7641,0.0087,2025-06-06T11:06:00.882332
10563,-0.4802,0.0468,0.8808,-23.765,65.730,17.850,1.27,0.0368,1.3321,2.7641,0.0087,2025-06-06T11:06:00.994204
10564,-0.5231,-0.0454,0.9711,1.890,56.910,20.335,1.28,0.0184,1.2762,2.7480,0.0087,2025-06-06T11:06:00.994204
10565,-0.5958,-0.0703,1.0189,1.610,40.425,10.675,1.27,0.0184,1.3041,2.7000,0.0087,2025-06-06T11:06:00.994204
10566,-0.5622,-0.0312,1.0780,-12.775,19.110,-2.065,1.28,0.0368,1.3321,2.7320,0.0174,2025-06-06T11:06:00.994204
10567,-0.5578,0.0161,1.0795,-3.535,-2.905,-4.375,1.27,0.0184,1.3041,2.7320,0.0000,2025-06-06T11:06:00.994204
10568,-0.5173,-0.0127,0.9789,0.735,-23.100,-5.250,1.27,0.0368,1.2762,2.7000,0.0087,2025-06-06T11:06:00.994204
10569,-0.5407,-0.0024,0.9121,0.840,-30.100,-7.175,1.27,0.0184,1.2762,2.7000,0.0087,2025-06-06T11:06:00.994204
10570,-0.5300,-0.0044,0.8403,-5.635,-22.400,-7.630,1.27,0.0368,1.2762,2.6841,0.0087,2025-06-06T11:06:01.095317
10571,-0.5114,0.0317,0.8159,1.645,-4.865,-0.455,1.26,0.0368,1.3041,2.7160,0.0174,2025-06-06T11:06:01.095317
10572,-0.4514,0.0381,0.8262,2.415,10.780,5.075,1.27,0.0368,1.2483,2.6841,0.0174,2025-06-06T11:06:01.095317
10573,-0.4397,0.0429,0.8677,4.865,15.575,11.235,1.27,0.0368,1.2483,2.7000,0.0087,2025-06-06T11:06:01.095317
10574,-0.5070,0.0322,0.8813,5.985,9.520,15.015,1.26,0.0184,1.2483,2.7160,0.0087,2025-06-06T11:06:01.095317
10575,-0.5378,-0.0478,0.8901,5.880,8.820,12.390,1.27,0.0184,1.2762,2.7160,0.0174,2025-06-06T11:06:01.095317
10576,-0.5470,-0.0415,0.8794,-3.675,7.595,1.610,1.26,0.0184,1.2762,2.7000,0.0087,2025-06-06T11:06:01.095317
10577,-0.5456,-0.0107,0.9043,-3.710,3.080,1.645,1.27,0.0368,1.2205,2.7320,0.0087,2025-06-06T11:06:01.095317
10578,-0.5226,-0.0034,0.9057,3.780,3.535,5.705,1.28,0.0368,1.2762,2.7320,0.0087,2025-06-06T11:06:01.207698
10579,-0.5524,0.0024,0.8764,5.075,3.990,8.820,1.27,0.0184,1.2762,2.7641,0.0174,2025-06-06T11:06:01.207698
10580,-0.5529,-0.0386,0.9335,8.435,4.585,6.370,1.27,0.0368,1.3041,2.7803,0.0087,2025-06-06T11:06:01.207698
10581,-0.5466,0.0049,0.9833,9.030,-3.220,2.415,1.25,0.0368,1.2762,2.7964,0.0174,2025-06-06T11:06:01.207698
10582,-0.5275,0.0161,1.0077,4.515,-13.230,-3.150,1.27,0.0184,1.3041,2.7641,0.0087,2025-06-06T11:06:01.207698
10583,-0.5558,0.0249,0.9492,6.090,-24.710,-3.745,1.27,0.0368,1.3041,2.7641,0.0087,2025-06-06T11:06:01.207698
10584,-0.6876,-0.0224,0.9638,11.900,-22.925,-7.280,1.28,0.0184,1.3601,2.7641,0.0087,2025-06-06T11:06:01.207698
10585,-1.3264,-0.0298,1.5655,109.410,-13.300,31.745,1.28,0.0368,1.3601,2.7803,0.0087,2025-06-06T11:06:01.207698
10586,-1.6324,-0.0649,2.0882,312.585,-62.475,89.495,1.27,0.0368,1.3601,2.8127,0.0000,2025-06-06T11:06:01.305692
10587,-1.9744,0.4870,2.6235,450.695,-269.220,197.120,1.27,0.0184,1.3882,2.8289,0.0174,2025-06-06T11:06:01.305692
10588,-2.1516,1.1082,2.8602,629.545,-501.760,316.295,1.28,0.0368,1.3601,2.8452,0.0174,2025-06-06T11:06:01.305692
10589,-1.9730,0.6725,1.7270,745.115,-697.235,482.545,1.27,0.0368,1.3882,2.8615,0.0087,2025-06-06T11:06:01.305692
10590,-2.4727,0.4773,1.9662,856.450,-1132.635,687.155,1.29,0.0184,1.3882,2.8615,0.0087,2025-06-06T11:06:01.305692
10591,-2.7884,-0.9033,-0.3196,549.395,-1146.740,837.795,1.27,0.0184,1.4446,2.8943,0.0087,2025-06-06T11:06:01.305692
10592,-2.2536,-0.4470,-1.2664,6.930,-1102.920,892.115,1.27,0.0184,1.4446,2.9273,0.0087,2025-06-06T11:06:01.305692
10593,-1.5396,-1.2961,-1.5021,92.855,-916.300,878.395,1.30,0.0368,1.4164,2.9770,0.0087,2025-06-06T11:06:01.398870
10594,-0.3748,-1.8886,-1.4728,122.465,-775.845,712.950,1.28,0.0184,1.4446,2.9438,0.0087,2025-06-06T11:06:01.398870
10595,0.4182,-1.6182,-2.2014,-170.590,-624.085,507.500,1.28,0.0368,1.4446,3.0104,0.0174,2025-06-06T11:06:01.398870
10596,1.1829,-1.2898,-2.5435,-322.455,-422.800,282.555,1.28,0.0368,1.5580,2.9604,0.0087,2025-06-06T11:06:01.398870
10597,0.4621,-1.2664,-2.5913,-244.335,-313.075,277.795,1.25,0.0184,1.4446,2.9770,0.0087,2025-06-06T11:06:01.398870
10598,0.8447,-0.7998,-1.7734,-55.265,295.925,13.930,1.28,0.0184,1.4446,2.9937,0.0000,2025-06-06T11:06:01.398870
10599,-1.4235,-1.8271,-3.0900,-13.685,334.390,-14.805,1.28,0.0184,1.5296,3.0272,0.0087,2025-06-06T11:06:01.398870
10600,0.2484,-1.6158,-1.4318,-22.190,633.395,-420.070,1.29,0.0184,1.4729,3.0104,0.0087,2025-06-06T11:06:01.452094
10601,0.4231,-1.6885,-1.1897,-147.665,1045.135,-766.325,1.29,0.0184,1.5012,2.9770,0.0174,2025-06-06T11:06:01.452094
10602,-2.3975,-1.4059,-0.5134,-678.720,1146.740,-836.465,1.29,0.0368,1.4446,2.9604,0.0087,2025-06-06T11:06:01.452094
10603,-3.4609,0.2562,2.2536,-740.040,1146.740,-491.470,1.30,0.0368,1.5012,2.9770,0.0087,2025-06-06T11:06:01.452094
10604,-2.4078,3.0973,9.3784,-322.315,1134.385,-100.345,1.29,0.0184,1.4729,2.9770,0.0087,2025-06-06T11:06:01.615748
10605,-3.1944,2.3688,10.1211,414.120,206.605,256.830,1.30,0.0184,1.4729,2.9770,0.0174,2025-06-06T11:06:01.615748
10606,-2.4263,2.1184,5.2787,792.330,-1146.740,505.645,1.30,0.0368,1.3882,2.9273,0.0174,2025-06-06T11:06:01.615748
10607,-1.8768,0.9980,0.6334,472.010,-1146.740,739.550,1.31,0.0368,1.3882,2.9108,0.0087,2025-06-06T11:06:01.615748
10608,-1.6016,-0.1859,-0.6627,355.880,-1107.155,619.885,1.32,0.0184,1.3321,2.8779,0.0087,2025-06-06T11:06:01.615748
10609,-0.6324,-2.2253,-1.6177,427.245,-772.205,793.345,1.33,0.0368,1.2762,2.8779,0.0000,2025-06-06T11:06:01.615748
10610,-0.2767,-1.8598,-1.6407,339.605,-557.725,659.155,1.34,0.0184,1.3041,2.8615,0.0087,2025-06-06T11:06:01.615748
10611,0.1000,-2.4127,-1.6348,-42.805,-374.150,302.925,1.34,0.0184,1.2483,2.7964,0.0087,2025-06-06T11:06:01.615748
10612,0.5734,-2.0638,-1.9432,-271.635,-192.290,28.910,1.35,0.0184,1.2762,2.7000,0.0174,2025-06-06T11:06:01.615748
10613,0.3806,-1.5714,-2.2516,-93.450,201.635,-252.875,1.36,0.0184,1.1650,2.5580,0.0087,2025-06-06T11:06:01.615748
10614,0.2455,-1.2586,-1.9081,24.605,453.985,-392.525,1.36,0.0368,1.1927,2.4038,0.0087,2025-06-06T11:06:01.615748
10615,0.0839,-1.0697,-1.5382,-169.750,572.040,-541.835,1.35,0.0368,1.1098,2.3583,0.0087,2025-06-06T11:06:01.677331
10616,-0.1083,-0.8125,-0.9853,-426.755,663.985,-604.695,1.37,0.0368,1.0274,2.3432,0.0174,2025-06-06T11:06:01.677331
10617,-0.5139,-0.4168,0.0986,-530.495,789.425,-552.650,1.37,0.0184,1.0000,2.3131,0.0174,2025-06-06T11:06:01.677331
10618,-0.9955,0.2635,1.5245,-389.830,883.995,-424.585,1.35,0.0552,1.0548,2.3131,0.0087,2025-06-06T11:06:01.677331
10619,-1.2117,1.7958,4.5862,-109.585,805.070,-182.140,1.37,0.0184,1.1098,2.2831,0.0087,2025-06-06T11:06:01.813310
10620,-0.9326,3.5795,6.6129,219.520,211.260,-42.980,1.37,0.0368,1.0548,2.1794,0.0087,2025-06-06T11:06:01.813310
10621,-0.8340,3.6922,5.0508,354.690,-602.350,349.895,1.37,0.0184,1.0548,2.1064,0.0087,2025-06-06T11:06:01.813310
10622,-0.9604,2.2077,1.8607,263.900,-892.710,684.810,1.39,0.0184,1.0548,2.0486,0.0087,2025-06-06T11:06:01.813310
10623,-1.4084,0.1610,0.2406,271.285,-926.905,866.600,1.37,0.0368,1.0823,2.0056,0.0087,2025-06-06T11:06:01.813310
10624,-1.4791,-1.1785,-0.9887,282.660,-952.595,774.760,1.38,0.0184,1.0274,1.9487,0.0087,2025-06-06T11:06:01.813310
10625,-0.9575,-1.8295,-1.1170,186.130,-791.000,745.115,1.38,0.0184,0.8641,1.9487,0.0087,2025-06-06T11:06:01.813310
10626,-0.4241,-2.1130,-2.1086,-290.080,-788.795,417.200,1.37,0.0184,0.8641,1.9346,0.0087,2025-06-06T11:06:01.813310
10627,-0.1030,-2.1326,-2.2004,-265.125,-172.095,60.480,1.37,0.0184,0.8912,1.8644,0.0087,2025-06-06T11:06:01.813310
10628,-0.3338,-2.3268,-2.8685,32.655,341.530,-270.550,1.37,0.0184,0.8641,1.7812,0.0087,2025-06-06T11:06:01.813310
10629,-0.2718,-2.1252,-2.2160,163.940,826.385,-594.230,1.36,0.0184,0.8101,1.7128,0.0174,2025-06-06T11:06:01.813310
10630,-1.0082,-1.6504,-1.9374,-234.710,871.080,-814.660,1.38,0.0368,0.8101,1.7401,0.0174,2025-06-06T11:06:01.863020
10631,-1.0097,-0.4050,-1.3635,-562.800,1113.980,-718.795,1.39,0.0368,0.7295,1.6992,0.0087,2025-06-06T11:06:01.863020
10632,-1.1858,1.9232,2.3897,-747.250,1146.740,-534.695,1.37,0.0368,0.8370,1.7264,0.0174,2025-06-06T11:06:01.863020
10633,-2.7518,2.3112,8.0583,-318.430,1146.740,-617.610,1.37,0.0184,0.8101,1.6857,0.0174,2025-06-06T11:06:01.863020
10634,-3.8215,2.8587,8.6034,241.990,350.210,-104.825,1.39,0.0184,0.8101,1.6721,0.0087,2025-06-06T11:06:02.018200
10635,-2.6650,3.9572,6.1146,824.250,-1121.295,415.135,1.38,0.0368,0.8370,1.7128,0.0087,2025-06-06T11:06:02.018200
10636,-2.2809,3.1095,-1.3405,117.985,-1146.740,1031.345,1.36,0.0368,0.8370,1.6721,0.0174,2025-06-06T11:06:02.018200
10637,-3.4912,-1.5084,-0.8389,242.620,-1146.740,1133.895,1.36,0.0368,0.8101,1.6721,0.0087,2025-06-06T11:06:02.018200
10638,-3.2042,-2.0374,-1.0214,652.120,-1119.580,1096.060,1.36,0.0184,0.7832,1.6721,0.0174,2025-06-06T11:06:02.018200
10639,-2.3897,-1.7261,-2.6411,-169.435,-1146.740,932.540,1.36,0.0184,0.7027,1.6317,0.0087,2025-06-06T11:06:02.018200
10640,-0.9350,-0.5851,-0.9072,-694.435,-1143.485,610.365,1.36,0.0368,0.7832,1.5916,0.0087,2025-06-06T11:06:02.018200
10641,-2.4893,-0.9872,-1.7944,118.895,-498.400,334.845,1.36,0.0368,0.6760,1.5650,0.0087,2025-06-06T11:06:02.018200
10642,-1.8759,-2.2682,-2.5527,452.550,-124.390,101.360,1.36,0.0184,0.6760,1.5650,0.0087,2025-06-06T11:06:02.018200
10643,-1.1961,-2.5298,-2.5605,328.055,232.050,-97.020,1.36,0.0368,0.7295,1.5385,0.0087,2025-06-06T11:06:02.018200
10644,-0.4919,-2.8455,-2.3619,146.615,769.755,-430.150,1.35,0.0184,0.6494,1.5385,0.0174,2025-06-06T11:06:02.018200
10645,-0.5856,-2.6903,-2.9461,160.580,1146.740,-931.175,1.36,0.0368,0.6760,1.5385,0.0174,2025-06-06T11:06:02.119929
10646,-3.1993,-2.7343,-3.9162,-274.925,1146.740,-1146.740,1.35,0.0184,0.7027,1.5385,0.0174,2025-06-06T11:06:02.119929
10647,-2.0150,-2.4327,-1.7007,-760.130,1146.740,-1145.795,1.35,0.0368,0.5962,1.5385,0.0087,2025-06-06T11:06:02.119929
10648,-6.0697,-0.9345,-1.6348,-1146.740,1146.740,-1025.780,1.36,0.0184,0.7295,1.5253,0.0087,2025-06-06T11:06:02.119929
10649,-10.9288,-1.2551,2.8953,-1146.740,1146.740,-118.300,1.35,0.0184,0.6760,1.5253,0.0087,2025-06-06T11:06:02.119929
10650,-8.6840,-3.1212,15.9888,517.160,952.385,252.070,1.36,0.0184,0.6760,1.5253,0.0087,2025-06-06T11:06:02.119929
10651,-3.5888,1.2073,6.9111,755.825,-78.435,263.200,1.36,0.0184,0.6228,1.4990,0.0087,2025-06-06T11:06:02.119929
10652,-3.1642,2.2887,5.1020,39.690,-1145.235,58.590,1.36,0.0184,0.6760,1.4859,0.0087,2025-06-06T11:06:02.166096
10653,-4.7707,1.6109,2.5269,1146.740,-1146.740,467.075,1.35,0.0368,0.6760,1.4859,0.0087,2025-06-06T11:06:02.166096
10654,-3.2335,0.0420,-5.3426,598.465,-1146.740,1104.845,1.34,0.0368,0.6760,1.5253,0.0174,2025-06-06T11:06:02.166096
10655,-3.3970,-0.7481,-1.0643,794.430,-1138.935,1145.445,1.36,0.0368,0.6760,1.4990,0.0087,2025-06-06T11:06:02.166096
10656,-2.7997,-4.3154,-1.6826,894.390,-865.550,983.220,1.36,0.0184,0.6494,1.4990,0.0174,2025-06-06T11:06:02.325192
10657,-2.4117,-2.6508,-2.1936,-484.015,-1128.015,677.705,1.35,0.0368,0.7027,1.4728,0.0087,2025-06-06T11:06:02.325192
10658,-1.1580,-3.0144,-2.4990,-632.730,-158.760,102.270,1.35,0.0184,0.7027,1.4728,0.0087,2025-06-06T11:06:02.325192
10659,-0.6510,-2.4049,-4.7478,-122.255,406.560,-282.240,1.35,0.0184,0.7295,1.4728,0.0087,2025-06-06T11:06:02.325192
10660,-0.3270,-2.2834,-3.2833,238.175,1142.890,-723.345,1.36,0.0184,0.6494,1.4728,0.0174,2025-06-06T11:06:02.325192
10661,-2.1077,-2.0491,-3.7649,-133.560,1146.740,-1097.110,1.35,0.0368,0.7027,1.4859,0.0000,2025-06-06T11:06:02.325192
10662,-3.0354,-1.8188,-2.2858,-909.440,1146.740,-892.640,1.34,0.0184,0.6494,1.4859,0.0087,2025-06-06T11:06:02.954210
10663,-4.5120,0.4309,1.3679,-1140.265,1146.740,-754.635,1.35,0.0184,0.7027,1.5121,0.0087,2025-06-06T11:06:02.954210
10664,-6.1512,-0.1786,3.8625,-1138.865,1146.740,-242.270,1.35,0.0368,0.6760,1.5385,0.0087,2025-06-06T11:06:02.954210
10665,-5.1474,-3.0632,13.4176,-464.625,849.415,172.445,1.35,0.0184,0.7027,1.5916,0.0087,2025-06-06T11:06:02.954210
10666,-3.8567,-2.2253,10.8858,702.940,393.120,363.055,1.36,0.0000,0.7027,1.6452,0.0087,2025-06-06T11:06:02.954210
10667,-4.1421,1.2078,5.1982,531.020,-1096.690,151.375,1.36,0.0184,0.7295,1.6857,0.0174,2025-06-06T11:06:02.954210
10668,-4.3666,1.5640,2.7689,850.885,-1146.740,383.460,1.35,0.0184,0.7563,1.7401,0.0087,2025-06-06T11:06:02.954210
10669,-4.3383,0.0874,-1.5772,1064.315,-1146.740,923.790,1.34,0.0184,0.8370,1.8227,0.0087,2025-06-06T11:06:02.954210
10670,-3.2579,-1.6192,-1.1063,482.335,-1143.100,899.325,1.35,0.0368,0.8101,1.8784,0.0087,2025-06-06T11:06:02.954210
10671,-2.5635,-3.3516,-2.8860,913.465,-875.630,960.715,1.35,0.0368,0.8370,1.9487,0.0087,2025-06-06T11:06:02.954210
10672,-2.0623,-2.4634,-2.6142,256.935,-618.660,701.995,1.35,0.0184,0.8370,2.0056,0.0087,2025-06-06T11:06:02.954210
10673,-0.5607,-3.4321,-3.0612,-343.875,-419.930,257.950,1.33,0.0184,0.8101,2.0199,0.0087,2025-06-06T11:06:02.954210
10674,-0.3406,-2.9509,-3.5419,-317.240,107.065,-172.900,1.34,0.0368,0.7832,2.0486,0.0087,2025-06-06T11:06:02.954210
10675,-0.0049,-2.0750,-3.4628,-4.515,572.355,-498.995,1.33,0.0368,0.8370,2.0342,0.0000,2025-06-06T11:06:02.954210
10676,-0.3694,-1.5084,-3.5448,-46.235,1092.630,-714.805,1.34,0.0184,0.8912,2.0630,0.0174,2025-06-06T11:06:02.954210
10677,-0.9570,-0.5910,-2.5962,-463.505,1128.890,-657.055,1.33,0.0184,0.8912,2.1064,0.0087,2025-06-06T11:06:02.954210
10678,-1.5958,-0.1781,-0.6661,-765.940,1146.740,-741.020,1.35,0.0184,0.8370,2.0919,0.0174,2025-06-06T11:06:02.954210
10679,-3.4467,-0.0122,1.4679,-811.615,1146.740,-605.150,1.36,0.0184,0.9183,2.1355,0.0087,2025-06-06T11:06:02.954210
10680,-6.1566,-2.4600,4.2466,-926.695,1146.740,-379.645,1.35,0.0184,0.9455,2.1064,0.0000,2025-06-06T11:06:02.954210
10681,-3.8923,-1.1190,9.8664,-159.460,1136.625,-10.290,1.35,0.0000,0.8912,2.1209,0.0087,2025-06-06T11:06:02.954210
10682,-3.9074,1.6968,7.7084,516.040,151.970,177.905,1.34,0.0184,0.9455,2.1209,0.0087,2025-06-06T11:06:02.954210
10683,-3.3433,1.8603,5.3948,328.020,-1040.935,238.385,1.35,0.0184,0.9727,2.1355,0.0087,2025-06-06T11:06:02.954210
10684,-4.0001,0.8847,2.8270,863.100,-1146.740,616.385,1.34,0.0368,0.9183,2.1209,0.0174,2025-06-06T11:06:02.954210
10685,-3.8703,0.5378,-1.1483,598.325,-1146.740,1015.840,1.35,0.0184,0.9455,2.1209,0.0174,2025-06-06T11:06:02.954210
10686,-3.2886,-1.8300,-1.6241,489.790,-1146.740,1044.960,1.34,0.0000,0.8641,2.1648,0.0000,2025-06-06T11:06:02.954210
10687,-2.9714,-3.4653,-2.3458,725.270,-989.100,880.880,1.34,0.0368,0.9183,2.0774,0.0087,2025-06-06T11:06:02.954210
10688,-2.1828,-2.4542,-2.7997,166.565,-725.130,634.620,1.34,0.0368,0.9183,2.0919,0.0087,2025-06-06T11:06:02.954210
10689,-0.5251,-2.9114,-3.1339,-199.010,-442.400,279.965,1.34,0.0368,0.8912,2.1209,0.0174,2025-06-06T11:06:02.954210
10690,0.2528,-2.6942,-3.4487,-15.400,63.875,-145.915,1.34,0.0368,0.9727,2.1209,0.0174,2025-06-06T11:06:02.954210
10691,0.3455,-2.0013,-3.3164,58.485,336.245,-392.910,1.33,0.0368,0.9727,2.1064,0.0087,2025-06-06T11:06:02.954210
10692,0.0366,-1.1336,-2.7509,-191.590,636.895,-604.135,1.34,0.0368,0.9183,2.0774,0.0174,2025-06-06T11:06:02.954210
10693,-0.1000,-0.5617,-2.8660,-421.120,854.875,-666.855,1.34,0.0368,0.9183,2.1064,0.0087,2025-06-06T11:06:02.954210
10694,-0.5929,-0.3148,-1.9779,-618.730,1128.330,-672.770,1.33,0.0184,0.9727,2.0919,0.0087,2025-06-06T11:06:02.954210
10695,-1.5392,-0.4104,-0.7940,-630.805,1146.740,-615.860,1.33,0.0184,0.9455,2.0774,0.0087,2025-06-06T11:06:02.954210
10696,-3.6112,-0.8847,0.7379,-651.105,1096.060,-468.160,1.33,0.0368,1.0274,2.0919,0.0174,2025-06-06T11:06:02.954210
10697,-4.0026,-2.3209,3.1422,-582.330,1146.740,-379.225,1.35,0.0184,0.9455,2.0919,0.0087,2025-06-06T11:06:02.955242
10698,-4.6936,-0.1630,8.1379,-203.280,1146.740,-53.305,1.35,0.0368,1.0000,2.1209,0.0087,2025-06-06T11:06:02.955242
10699,-3.8855,0.6993,6.0292,228.095,326.340,147.560,1.33,0.0184,0.9183,2.1501,0.0087,2025-06-06T11:06:02.955242
10700,-3.3140,0.8208,6.3865,183.680,-611.380,203.140,1.34,0.0184,0.9727,2.1794,0.0087,2025-06-06T11:06:02.955242
10701,-3.8742,1.4010,3.9211,558.670,-1146.740,406.490,1.34,0.0184,1.0823,2.1941,0.0087,2025-06-06T11:06:02.955242
10702,-3.7259,1.5440,-0.0820,833.175,-1146.740,776.230,1.32,0.0184,1.0274,2.1794,0.0087,2025-06-06T11:06:02.955242
10703,-3.6595,-0.1425,-2.1482,309.470,-1146.740,1042.335,1.33,0.0184,1.0274,2.2385,0.0174,2025-06-06T11:06:02.955242
10704,-3.5951,-2.9680,-2.4112,638.750,-1145.410,1080.520,1.33,0.0184,1.0548,2.2533,0.0087,2025-06-06T11:06:02.955242
10705,-2.6918,-3.6800,-2.0223,412.020,-760.200,427.910,1.35,0.0184,1.0274,2.3281,0.0087,2025-06-06T11:06:02.955242
10706,-1.3810,-3.0656,-2.6684,43.120,-591.640,500.675,1.31,0.0184,1.0823,2.3734,0.0174,2025-06-06T11:06:02.955242
10707,-0.4294,-3.2037,-3.6903,-169.820,-358.435,150.745,1.33,0.0184,1.1098,2.3886,0.0087,2025-06-06T11:06:02.955242
10708,0.3933,-2.3917,-3.9587,-29.890,129.990,-265.650,1.34,0.0000,1.1098,2.4344,0.0087,2025-06-06T11:06:02.955242
10709,0.4119,-1.6865,-4.0626,-80.045,816.830,-511.840,1.33,0.0184,1.1650,2.5269,0.0174,2025-06-06T11:06:02.955242
10710,0.1235,-0.9628,-3.3482,-309.505,890.750,-664.580,1.34,0.0184,1.1374,2.6050,0.0087,2025-06-06T11:06:02.955242
10711,-0.3460,-0.5583,-2.6103,-505.995,1146.740,-755.440,1.33,0.0184,1.1650,2.6682,0.0000,2025-06-06T11:06:02.955242
10712,-1.4010,-0.5114,-1.0516,-553.000,1146.740,-755.090,1.34,0.0184,1.1927,2.6682,0.0087,2025-06-06T11:06:02.990081
10713,-4.5745,-1.9349,-0.4451,-764.540,1142.540,-621.075,1.33,0.0368,1.2762,2.7000,0.0087,2025-06-06T11:06:02.990081
10714,-5.2074,-2.7601,5.4412,-574.035,1146.740,-423.255,1.33,0.0184,1.3321,2.7320,0.0000,2025-06-06T11:06:02.990081
10715,-4.5706,0.3426,7.9510,48.300,1146.740,-232.750,1.32,0.0000,1.3041,2.7480,0.0087,2025-06-06T11:06:03.159814
10716,-3.4140,2.4795,6.0117,31.080,158.410,-36.610,1.34,0.0184,1.3601,2.8127,0.0174,2025-06-06T11:06:03.159814
10717,-3.4077,1.1634,6.3435,-48.230,-535.255,182.875,1.33,0.0368,1.3882,2.7964,0.0174,2025-06-06T11:06:03.159814
10718,-3.5058,1.0331,4.5272,692.090,-1146.740,339.675,1.34,0.0184,1.3882,2.8127,0.0087,2025-06-06T11:06:03.159814
10719,-3.7713,1.3244,-1.5875,746.515,-1146.740,946.715,1.33,0.0184,1.4446,2.8943,0.0087,2025-06-06T11:06:03.159814
10720,-3.5717,-0.3753,-1.6856,398.860,-1146.740,1048.040,1.34,0.0184,1.4164,2.9108,0.0087,2025-06-06T11:06:03.159814
10721,-3.6898,-2.5937,-2.1848,667.905,-1146.740,1105.545,1.33,0.0368,1.3882,2.9438,0.0000,2025-06-06T11:06:03.159814
10722,-3.4194,-2.9173,-2.0886,338.485,-868.840,559.160,1.33,0.0184,1.4729,2.9770,0.0087,2025-06-06T11:06:03.159814
10723,-1.7578,-2.9958,-3.2008,132.860,-650.545,618.555,1.33,0.0368,1.4164,2.9770,0.0087,2025-06-06T11:06:03.159814
10724,-0.7935,-3.2193,-3.2623,-36.540,-458.640,298.375,1.32,0.0184,1.4446,2.9937,0.0087,2025-06-06T11:06:03.159814
10725,0.1074,-2.9641,-3.8733,105.700,33.880,-114.870,1.34,0.0184,1.4729,2.9937,0.0087,2025-06-06T11:06:03.159814
10726,0.5963,-2.4117,-4.1094,-128.905,413.385,-389.620,1.32,0.0184,1.4729,2.9937,0.0174,2025-06-06T11:06:03.159814
10727,0.9165,-1.2790,-3.7742,-255.430,889.560,-614.880,1.35,0.0184,1.4446,3.0104,0.0174,2025-06-06T11:06:03.214820
10728,-0.0527,-0.7203,-2.7235,-394.695,1146.495,-831.915,1.34,0.0184,1.4164,3.0608,0.0087,2025-06-06T11:06:03.214820
10729,-0.8574,-0.4616,-1.3166,-472.465,1146.740,-938.175,1.33,0.0184,1.5012,3.0777,0.0087,2025-06-06T11:06:03.214820
10730,-3.8020,-1.7461,-2.4634,-771.435,1092.595,-682.675,1.33,0.0368,1.5012,3.1286,0.0174,2025-06-06T11:06:03.214820
10731,-6.1771,-5.1035,1.8276,-1061.445,1144.535,-596.435,1.34,0.0368,1.5012,3.1456,0.0174,2025-06-06T11:06:03.353959
10732,-2.3878,-1.0150,5.0083,72.310,1142.050,-488.110,1.33,0.0184,1.5296,3.0946,0.0174,2025-06-06T11:06:03.353959
10733,-3.7317,3.6742,4.6682,-101.570,1146.740,-258.650,1.35,0.0368,1.5296,3.1116,0.0087,2025-06-06T11:06:03.353959
10734,-1.0126,3.0217,4.1988,-92.260,528.675,-77.420,1.34,0.0184,1.5012,3.1627,0.0174,2025-06-06T11:06:03.353959
10735,-1.0682,-0.3884,3.7649,-249.235,147.735,21.140,1.32,0.0368,1.4729,3.1799,0.0087,2025-06-06T11:06:03.353959
10736,-1.4845,-0.0898,3.4907,331.450,-594.020,101.990,1.33,0.0184,1.5296,3.1971,0.0087,2025-06-06T11:06:03.353959
10737,-0.9906,1.1087,1.7797,213.885,-691.215,180.215,1.33,0.0368,1.5296,3.1799,0.0087,2025-06-06T11:06:03.353959
10738,-0.4885,0.4494,1.0731,277.480,-750.085,198.555,1.32,0.0184,1.5865,3.1971,0.0087,2025-06-06T11:06:03.353959
10739,-0.2128,-0.2294,-0.2050,227.010,-670.425,220.920,1.33,0.0184,1.5580,3.1627,0.0174,2025-06-06T11:06:03.353959
10740,0.3045,-0.0561,-0.4304,117.985,-503.055,186.550,1.33,0.0184,1.4729,3.1286,0.0087,2025-06-06T11:06:03.353959
10741,0.6505,0.0917,-0.7535,76.860,-353.675,134.610,1.33,0.0368,1.5580,3.1627,0.0087,2025-06-06T11:06:03.353959
10742,0.9428,-0.0307,-0.8447,13.405,-164.640,75.110,1.34,0.0368,1.5296,3.1286,0.0174,2025-06-06T11:06:03.544670
10743,1.1473,-0.0537,-0.8067,-16.450,-2.485,-21.105,1.30,0.0368,1.5296,3.1456,0.0087,2025-06-06T11:06:03.544670
10744,1.0067,0.0454,-0.5915,-78.085,162.505,-100.345,1.32,0.0368,1.5580,3.1286,0.0174,2025-06-06T11:06:03.544670
10745,0.7388,0.2201,-0.3226,-113.400,283.150,-156.870,1.33,0.0368,1.5012,3.1627,0.0087,2025-06-06T11:06:03.544670
10746,0.5031,0.2635,0.0205,-153.195,384.965,-177.625,1.33,0.0184,1.5580,3.1971,0.0087,2025-06-06T11:06:03.544670
10747,0.1825,0.3143,0.3909,-174.755,437.360,-175.455,1.33,0.0368,1.5012,3.1971,0.0000,2025-06-06T11:06:03.544670
10748,0.0112,0.3762,0.6871,-183.785,473.620,-148.925,1.32,0.0368,1.5865,3.1971,0.0087,2025-06-06T11:06:03.544670
10749,-0.1952,0.4509,1.1200,-173.390,468.195,-99.575,1.33,0.0368,1.5865,3.1971,0.0087,2025-06-06T11:06:03.544670
10750,-0.2801,0.4563,1.5289,-123.480,389.970,-69.405,1.31,0.0184,1.5580,3.1971,0.0087,2025-06-06T11:06:03.544670
10751,-0.3235,0.3499,1.5123,-78.330,293.965,-45.850,1.33,0.0184,1.5580,3.1971,0.0000,2025-06-06T11:06:03.544670
10752,-0.3709,0.3040,1.5982,-83.545,185.570,-34.930,1.33,0.0184,1.5865,3.1971,0.0087,2025-06-06T11:06:03.544670
10753,-0.3221,0.2503,1.5743,-67.305,119.980,-39.165,1.33,0.0184,1.5580,3.2316,0.0000,2025-06-06T11:06:03.544670
10754,-0.3250,0.2406,1.5206,-54.670,60.305,-40.040,1.32,0.0184,1.6724,3.2143,0.0087,2025-06-06T11:06:03.544670
10755,-0.2538,0.3162,1.4074,-28.910,14.770,-31.745,1.34,0.0184,1.6151,3.2143,0.0087,2025-06-06T11:06:03.544670
10756,-0.1566,0.4016,1.2781,-11.725,-32.305,-15.715,1.32,0.0184,1.5865,3.2662,0.0174,2025-06-06T11:06:03.660644
10757,-0.0932,0.3753,1.1078,1.050,-54.250,-3.290,1.31,0.0368,1.6724,3.2489,0.0087,2025-06-06T11:06:03.660644
10758,-0.0473,0.3143,0.9604,14.175,-60.305,2.100,1.32,0.0184,1.6437,3.2836,0.0174,2025-06-06T11:06:03.660644
10759,0.0239,0.3148,0.8506,17.815,-47.530,2.905,1.32,0.0368,1.6151,3.2662,0.0087,2025-06-06T11:06:03.660644
10760,-0.0059,0.3221,0.8452,16.450,-2.660,2.660,1.32,0.0368,1.6151,3.2489,0.0087,2025-06-06T11:06:03.660644
10761,-0.0356,0.4109,1.1317,59.535,48.440,24.850,1.32,0.0184,1.6724,3.2662,0.0174,2025-06-06T11:06:03.660644
10762,-0.1279,0.5046,1.3220,119.735,50.855,48.860,1.32,0.0184,1.6151,3.2836,0.0087,2025-06-06T11:06:03.660644
10763,-0.3353,0.6027,1.6714,131.530,12.040,63.700,1.32,0.0368,1.6724,3.2836,0.0087,2025-06-06T11:06:03.660644
10764,-0.3577,0.6725,1.7451,171.360,-120.540,108.045,1.32,0.0368,1.6437,3.3361,0.0087,2025-06-06T11:06:03.744850
10765,-0.6632,1.1156,2.3766,262.325,-215.180,188.895,1.32,0.0184,1.7012,3.3537,0.0087,2025-06-06T11:06:03.744850
10766,-0.8686,0.8623,2.3927,403.585,-409.290,269.885,1.32,0.0368,1.6437,3.3714,0.0174,2025-06-06T11:06:03.744850
10767,-1.5182,1.1497,2.6801,496.335,-657.755,365.260,1.34,0.0184,1.6724,3.3361,0.0087,2025-06-06T11:06:03.744850
10768,-1.5143,0.7579,2.1106,422.065,-795.865,470.785,1.32,0.0368,1.7012,3.2836,0.0000,2025-06-06T11:06:03.744850
10769,-1.8700,0.8633,1.3884,404.880,-913.920,601.510,1.32,0.0184,1.7300,3.3537,0.0087,2025-06-06T11:06:03.744850
10770,-1.1014,0.8003,-0.2191,222.950,-839.300,705.005,1.33,0.0368,1.7300,3.3714,0.0087,2025-06-06T11:06:03.744850
10771,-1.6309,0.2230,0.0166,242.970,-815.360,747.775,1.32,0.0184,1.7300,3.4245,0.0087,2025-06-06T11:06:03.968430
10772,-1.3254,-1.0555,-0.6100,166.390,-894.810,747.495,1.33,0.0184,1.7300,3.4068,0.0087,2025-06-06T11:06:03.968430
10773,-1.4699,-1.1326,-0.8852,91.910,-911.505,709.450,1.32,0.0368,1.8167,3.4245,0.0087,2025-06-06T11:06:03.968430
10774,-0.7808,-1.3381,-0.8525,49.420,-796.810,580.965,1.32,0.0184,1.7877,3.4245,0.0174,2025-06-06T11:06:03.968430
10775,-0.6481,-1.6416,-1.4523,149.870,-426.475,284.970,1.32,0.0368,1.6437,3.3890,0.0087,2025-06-06T11:06:03.968430
10776,-0.2167,-1.9500,-1.9369,199.045,-344.890,254.205,1.33,0.0184,1.7588,3.3890,0.0087,2025-06-06T11:06:03.968430
10777,0.3206,-1.9579,-2.2253,155.750,-172.200,84.945,1.34,0.0184,1.7300,3.3537,0.0087,2025-06-06T11:06:03.968430
10778,0.4768,-1.5884,-2.3829,49.490,-15.540,-72.765,1.32,0.0184,1.7300,3.4068,0.0087,2025-06-06T11:06:03.968430
10779,0.8096,-1.1697,-2.2062,108.430,277.795,-229.355,1.34,0.0368,1.7588,3.4602,0.0174,2025-06-06T11:06:03.968430
10780,0.4407,-0.9184,-2.1506,-109.830,281.680,-251.755,1.32,0.0184,1.7588,3.4961,0.0087,2025-06-06T11:06:03.968430
10781,-0.3001,-0.9902,-2.0379,-183.575,412.090,-276.780,1.32,0.0368,1.8167,3.4602,0.0087,2025-06-06T11:06:03.968430
10782,-0.8769,-1.3127,-1.9110,-276.360,576.415,-337.715,1.33,0.0000,1.7588,3.4602,0.0174,2025-06-06T11:06:03.968430
10783,-1.5265,-1.9461,-1.7480,-408.205,790.615,-472.115,1.33,0.0184,1.7877,3.4245,0.0087,2025-06-06T11:06:03.968430
10784,-1.7734,-1.6031,-2.1296,-550.760,1037.715,-616.665,1.32,0.0184,1.8458,3.4245,0.0174,2025-06-06T11:06:03.968430
10785,-3.2540,-2.0203,-1.5865,-723.275,1146.740,-621.215,1.31,0.0184,1.7877,3.4245,0.0087,2025-06-06T11:06:03.968430
10786,-3.1822,-3.8254,-1.0858,-946.750,1146.740,-490.105,1.32,0.0184,1.7877,3.4424,0.0174,2025-06-06T11:06:04.169067
10787,-4.6702,-1.1409,1.3366,-864.010,1146.740,-382.760,1.32,0.0368,1.7588,3.4424,0.0087,2025-06-06T11:06:04.169067
10788,-5.8418,-1.0180,2.6840,-835.590,1146.740,-207.760,1.34,0.0552,1.7300,3.4424,0.0087,2025-06-06T11:06:04.169067
10789,-6.6119,-1.2044,7.4503,-355.460,993.895,71.295,1.31,0.0368,1.6724,3.3714,0.0087,2025-06-06T11:06:04.169067
10790,-3.8430,-2.4327,7.0292,80.745,911.925,471.660,1.32,0.0368,1.7588,3.3714,0.0087,2025-06-06T11:06:04.169067
10791,-1.7441,-1.4625,4.1470,71.295,44.800,106.540,1.32,0.0368,1.7588,3.3537,0.0087,2025-06-06T11:06:04.169067
10792,-2.5073,-1.1151,4.5042,-3.115,-459.060,-276.150,1.33,0.0368,1.7877,3.3714,0.0087,2025-06-06T11:06:04.169067
10793,-2.5669,0.4275,3.6873,282.275,-984.795,-266.420,1.32,0.0184,1.7300,3.3537,0.0087,2025-06-06T11:06:04.169067
10794,-2.1213,1.0024,1.4489,400.750,-1146.740,-205.555,1.31,0.0368,1.7300,3.3537,0.0087,2025-06-06T11:06:04.169067
10795,-2.1848,0.9677,1.2459,839.370,-1146.740,-14.420,1.33,0.0000,1.7300,3.3537,0.0000,2025-06-06T11:06:04.169067
10796,-1.9047,0.6554,-1.2376,966.980,-1146.740,300.335,1.32,0.0184,1.7588,3.3714,0.0087,2025-06-06T11:06:04.169067
10797,-0.1552,0.2025,-2.5586,753.970,-891.625,491.260,1.32,0.0368,1.6724,3.3186,0.0174,2025-06-06T11:06:04.169067
10798,0.0298,-0.8286,-1.9686,644.315,-640.080,477.435,1.32,0.0184,1.6437,3.3361,0.0000,2025-06-06T11:06:04.169067
10799,0.6778,-1.8071,-2.3004,288.470,-292.845,285.775,1.33,0.0184,1.6724,3.3537,0.0087,2025-06-06T11:06:04.169067
10800,0.7320,-1.6387,-1.9764,-13.895,11.200,74.375,1.32,0.0368,1.7012,3.4068,0.0087,2025-06-06T11:06:04.169067
10801,0.8691,-1.1805,-1.6953,-120.995,232.960,-139.335,1.28,0.0368,1.6724,3.3714,0.0087,2025-06-06T11:06:04.270707
10802,0.8862,-0.7320,-1.1678,-177.205,398.300,-293.615,1.32,0.0368,1.7300,3.3537,0.0174,2025-06-06T11:06:04.270707
10803,0.0049,-0.6412,-0.8447,-260.015,535.640,-363.475,1.32,0.0184,1.7300,3.3011,0.0087,2025-06-06T11:06:04.270707
10804,-0.4368,-0.7271,0.0781,-368.970,618.590,-386.960,1.31,0.0368,1.7012,3.2836,0.0087,2025-06-06T11:06:04.270707
10805,-0.6437,-0.8555,0.7271,-372.575,662.515,-383.390,1.32,0.0368,1.6437,3.2489,0.0174,2025-06-06T11:06:04.270707
10806,-0.7349,-0.5144,1.3034,-312.935,719.565,-354.445,1.32,0.0184,1.6724,3.2316,0.0087,2025-06-06T11:06:04.270707
10807,-0.8891,0.3499,1.2966,-371.280,790.300,-284.410,1.32,0.0184,1.6724,3.2143,0.0087,2025-06-06T11:06:04.270707
10808,-0.9111,0.8369,2.1994,-325.185,627.690,-170.520,1.32,0.0184,1.5296,3.1971,0.0087,2025-06-06T11:06:04.270707
10809,-0.7037,0.7183,1.8110,-236.705,474.145,-130.900,1.34,0.0184,1.6437,3.1799,0.0087,2025-06-06T11:06:04.375313
10810,-0.6105,0.2196,1.9242,-262.150,320.565,-67.900,1.32,0.0368,1.6437,3.1971,0.0174,2025-06-06T11:06:04.375313
10811,-0.5949,0.2308,1.7334,-114.940,188.020,-36.085,1.32,0.0184,1.6151,3.1971,0.0087,2025-06-06T11:06:04.375313
10812,-0.4397,0.4124,1.7490,-58.520,89.600,-10.080,1.31,0.0184,1.6151,3.1456,0.0174,2025-06-06T11:06:04.812811
10813,-0.3748,0.3782,1.5738,-25.305,8.470,-7.770,1.32,0.0184,1.5865,3.0608,0.0087,2025-06-06T11:06:04.812811
10814,-0.3392,0.3055,1.3747,6.160,-68.040,0.280,1.32,0.0000,1.5296,3.0104,0.0087,2025-06-06T11:06:04.812811
10815,-0.2289,0.3372,1.1663,15.610,-108.850,5.495,1.31,0.0368,1.5296,2.9438,0.0087,2025-06-06T11:06:04.812811
10816,-0.1728,0.2904,0.9443,23.345,-94.500,12.810,1.32,0.0368,1.4729,2.9273,0.0087,2025-06-06T11:06:04.812811
10817,-0.1645,0.0874,0.8184,24.045,-40.215,11.305,1.32,0.0368,1.4729,2.9273,0.0174,2025-06-06T11:06:04.812811
10818,-0.1030,0.0483,0.7291,25.935,3.150,3.570,1.32,0.0368,1.4729,2.9273,0.0087,2025-06-06T11:06:04.812811
10819,-0.1137,0.0703,0.7052,-3.010,41.615,6.650,1.31,0.0184,1.4446,2.8943,0.0000,2025-06-06T11:06:04.812811
10820,-0.1152,0.0322,0.7769,-11.340,69.125,3.640,1.32,0.0368,1.4164,2.8943,0.0087,2025-06-06T11:06:04.812811
10821,-0.1708,0.0332,0.7784,-15.505,94.360,-4.165,1.32,0.0184,1.4164,2.8289,0.0087,2025-06-06T11:06:04.812811
10822,-0.1781,0.0644,0.8262,-41.860,111.860,-10.640,1.32,0.0184,1.4446,2.7641,0.0087,2025-06-06T11:06:04.812811
10823,-0.2650,-0.1249,1.0077,-39.900,188.440,-19.460,1.34,0.0184,1.4446,2.7480,0.0087,2025-06-06T11:06:04.812811
10824,-0.2474,0.0405,-0.1518,-116.305,157.675,18.830,1.32,0.0368,1.4164,2.7320,0.0087,2025-06-06T11:06:04.812811
10825,-0.3992,0.0473,1.0677,-104.475,266.035,15.015,1.32,0.0368,1.4164,2.7480,0.0087,2025-06-06T11:06:04.812811
10826,-0.5344,0.1972,0.9321,-132.405,263.060,31.325,1.33,0.0000,1.3601,2.7320,0.0087,2025-06-06T11:06:04.812811
10827,-0.8394,0.1630,1.2478,-144.340,269.325,49.245,1.32,0.0184,1.3882,2.7160,0.0087,2025-06-06T11:06:04.812811
10828,-1.1463,0.1430,1.7300,-85.715,213.570,75.075,1.32,0.0184,1.3601,2.7000,0.0087,2025-06-06T11:06:04.812811
10829,-2.2892,0.4387,2.6298,52.535,181.440,142.625,1.32,0.0184,1.2762,2.6365,0.0087,2025-06-06T11:06:04.812811
10830,-2.8792,0.6573,3.4355,457.800,-26.250,316.785,1.31,0.0184,1.3321,2.6207,0.0087,2025-06-06T11:06:04.812811
10831,-3.0490,1.2468,3.4482,723.030,-334.040,614.040,1.31,0.0184,1.4164,2.6050,0.0087,2025-06-06T11:06:04.812811
10832,-3.7234,1.2049,2.7279,771.190,-737.065,947.555,1.30,0.0368,1.3041,2.6050,0.0174,2025-06-06T11:06:04.812811
10833,-5.9809,0.4216,2.8299,1013.565,-1066.870,1140.230,1.32,0.0184,1.2483,2.6050,0.0087,2025-06-06T11:06:04.812811
10834,-5.3421,0.9043,0.4163,885.605,-1146.740,1146.740,1.31,0.0184,1.3601,2.6207,0.0174,2025-06-06T11:06:04.812811
10835,-6.1942,-1.2000,-3.3062,-383.110,-1146.740,1146.740,1.32,0.0368,1.3321,2.6365,0.0087,2025-06-06T11:06:04.812811
10836,-5.6096,-1.9857,-3.5673,-848.750,-1146.740,1146.740,1.31,0.0368,1.3041,2.6207,0.0087,2025-06-06T11:06:04.812811
10837,-4.7063,-2.1018,-3.1344,-829.115,-1146.740,1146.740,1.32,0.0000,1.3041,2.5736,0.0087,2025-06-06T11:06:04.812811
10838,-3.4009,-1.1541,-1.3454,-75.250,-1146.740,920.150,1.32,0.0184,1.3041,2.5580,0.0087,2025-06-06T11:06:04.812811
10839,-4.0875,-2.4288,-3.9923,458.570,-159.355,561.260,1.33,0.0184,1.3041,2.5736,0.0087,2025-06-06T11:06:04.812811
10840,-2.6342,-2.6655,-2.2404,140.560,-415.170,584.955,1.32,0.0184,1.3041,2.5580,0.0087,2025-06-06T11:06:04.812811
10841,0.2059,-3.2950,-1.9764,-232.505,-115.150,154.280,1.32,0.0184,1.3601,2.6207,0.0087,2025-06-06T11:06:04.813838
10842,0.7632,-2.6128,-2.4210,129.045,308.700,-270.865,1.34,0.0368,1.3882,2.6050,0.0087,2025-06-06T11:06:04.813838
10843,0.0986,-2.2209,-2.9129,319.445,768.285,-617.890,1.32,0.0184,1.3321,2.5893,0.0087,2025-06-06T11:06:04.813838
10844,-0.2128,-1.4050,-2.6337,262.360,906.360,-777.035,1.32,0.0184,1.2762,2.5893,0.0087,2025-06-06T11:06:04.813838
10845,-0.3270,-0.8228,-2.6947,-125.265,806.820,-760.760,1.33,0.0368,1.3041,2.6050,0.0087,2025-06-06T11:06:04.813838
10846,0.1615,-0.6490,-1.9681,-467.355,899.465,-700.490,1.31,0.0184,1.2762,2.6050,0.0174,2025-06-06T11:06:04.831955
10847,-1.3142,-0.6715,-1.4684,-497.455,1024.730,-659.260,1.32,0.0184,1.2762,2.6050,0.0087,2025-06-06T11:06:04.831955
10848,-2.4239,-0.6251,-1.4342,-580.405,1146.740,-647.500,1.33,0.0184,1.2762,2.6050,0.0174,2025-06-06T11:06:04.831955
10849,-2.9300,-0.7418,-1.1170,-568.435,1123.395,-467.390,1.32,0.0184,1.2205,2.5580,0.0087,2025-06-06T11:06:04.831955
10850,-3.5858,-0.9662,1.0390,-414.365,1146.740,-324.275,1.32,0.0368,1.2483,2.5580,0.0174,2025-06-06T11:06:04.881650
10851,-4.0660,-1.1502,0.9819,-567.350,1146.740,-276.080,1.32,0.0184,1.2762,2.5893,0.0087,2025-06-06T11:06:04.881650
10852,-3.7644,0.3704,2.7113,-66.850,1139.985,-161.420,1.33,0.0184,1.2483,2.5736,0.0174,2025-06-06T11:06:04.881650
10853,-3.2520,1.1141,5.2733,-211.155,800.485,-68.320,1.31,0.0368,1.2483,2.5580,0.0087,2025-06-06T11:06:04.988668
10854,-1.9500,0.6812,5.0215,-107.380,775.460,70.385,1.32,0.0368,1.2205,2.4497,0.0174,2025-06-06T11:06:04.988668
10855,-1.2312,-0.2342,2.9666,-39.830,144.410,17.290,1.33,0.0184,1.1927,2.3583,0.0174,2025-06-06T11:06:04.988668
10856,-2.4044,0.0390,4.3188,146.580,-292.740,-1.470,1.32,0.0184,1.1650,2.2385,0.0087,2025-06-06T11:06:04.988668
10857,-1.5645,0.5158,2.5884,97.755,-607.880,-18.235,1.32,0.0184,1.1650,2.1501,0.0174,2025-06-06T11:06:04.988668
10858,-1.6314,0.4275,1.5001,155.400,-810.600,7.070,1.32,0.0184,1.1098,2.1501,0.0174,2025-06-06T11:06:04.988668
10859,-1.2083,0.3670,0.4294,317.975,-890.680,64.260,1.31,0.0368,1.1098,2.1794,0.0087,2025-06-06T11:06:04.988668
10860,-0.5461,0.6666,-0.4812,278.810,-825.055,111.930,1.32,0.0184,1.1098,2.2089,0.0174,2025-06-06T11:06:04.988668
10861,0.2142,0.5807,-0.7852,255.885,-665.630,176.260,1.31,0.0368,1.1374,2.1794,0.0087,2025-06-06T11:06:05.036928
10862,0.4499,0.1381,-0.9892,185.850,-503.440,208.040,1.32,0.0184,1.1098,2.1941,0.0087,2025-06-06T11:06:05.036928
10863,0.8774,-0.2596,-0.7183,134.505,-327.740,145.495,1.32,0.0368,1.0000,2.2089,0.0087,2025-06-06T11:06:05.036928
10864,0.9618,-0.6046,-0.8072,9.100,-60.165,46.795,1.31,0.0368,1.1374,2.2089,0.0087,2025-06-06T11:06:05.036928
10865,0.8955,-0.5724,-0.2508,-25.095,82.530,-48.755,1.32,0.0368,1.1374,2.1794,0.0087,2025-06-06T11:06:05.084804
10866,0.8355,-0.3850,-0.2176,-52.710,192.080,-150.255,1.32,0.0184,1.1098,2.1941,0.0087,2025-06-06T11:06:05.084804
10867,0.6012,-0.1635,0.0356,-97.545,309.365,-209.440,1.32,0.0368,1.1098,2.1941,0.0087,2025-06-06T11:06:05.084804
10868,0.1254,0.0605,0.0654,-143.220,389.725,-235.270,1.32,0.0368,1.0000,2.1941,0.0087,2025-06-06T11:06:05.192418
10869,-0.4626,0.2806,0.3172,-209.825,504.525,-233.730,1.31,0.0368,1.0823,2.1355,0.0174,2025-06-06T11:06:05.192418
10870,-0.4968,0.1235,0.3982,-315.175,590.800,-231.665,1.32,0.0184,1.0548,2.1209,0.0087,2025-06-06T11:06:05.192418
10871,-0.5641,0.0688,0.4104,-409.815,608.685,-182.455,1.31,0.0184,1.0548,2.0919,0.0174,2025-06-06T11:06:05.192418
10872,-0.6959,-0.0917,0.8750,-478.905,514.745,-87.815,1.33,0.0368,1.0274,2.1064,0.0087,2025-06-06T11:06:05.192418
10873,-0.8599,0.2142,-0.2855,-388.290,589.015,-26.425,1.31,0.0184,1.0548,2.1355,0.0087,2025-06-06T11:06:05.192418
10874,-0.9565,0.6217,0.6315,-366.940,542.885,126.560,1.31,0.0368,1.0274,2.1501,0.0087,2025-06-06T11:06:05.192418
10875,-1.3723,0.0878,1.0555,-459.865,602.175,165.025,1.32,0.0184,1.0548,2.1064,0.0087,2025-06-06T11:06:05.192418
10876,-2.5591,0.1005,2.8265,-155.855,666.750,348.285,1.32,0.0000,1.1098,2.1209,0.0174,2025-06-06T11:06:05.292174
10877,-3.9426,-0.2054,3.3443,482.440,392.770,518.560,1.32,0.0368,1.0548,2.1209,0.0087,2025-06-06T11:06:05.292174
10878,-4.4467,1.3586,4.1656,759.255,-15.015,679.595,1.31,0.0184,1.0274,2.1501,0.0087,2025-06-06T11:06:05.292174
10879,-5.8453,0.9697,3.6981,363.965,-734.825,996.835,1.31,0.0184,1.0823,2.1501,0.0174,2025-06-06T11:06:05.292174
10880,-6.4767,2.0564,2.2780,600.740,-1146.740,1146.740,1.31,0.0552,1.0548,2.1501,0.0000,2025-06-06T11:06:05.292174
10881,-5.2772,1.8842,2.7674,778.645,-1146.740,1146.740,1.32,0.0184,1.0274,2.1355,0.0087,2025-06-06T11:06:05.292174
10882,-9.2866,-1.5504,-4.1851,414.400,-1146.740,1146.740,1.31,0.0184,1.0274,2.1501,0.0087,2025-06-06T11:06:05.292174
10883,-8.7752,-2.2131,-3.8464,-1022.840,-1146.740,1146.740,1.32,0.0184,1.0823,2.2089,0.0087,2025-06-06T11:06:05.292174
10884,-7.5567,-0.4895,-4.4994,-917.070,-1146.740,1146.740,1.31,0.0368,1.1098,2.2385,0.0174,2025-06-06T11:06:05.399795
10885,-5.0440,-1.5338,-2.3761,-5.355,-970.060,989.590,1.33,0.0184,1.1098,2.2533,0.0087,2025-06-06T11:06:05.399795
10886,-2.9207,-3.9621,-4.6911,679.210,-876.855,1022.735,1.31,0.0184,1.1374,2.2682,0.0087,2025-06-06T11:06:05.399795
10887,-0.5661,-2.4307,-0.3436,-132.195,-638.435,917.735,1.32,0.0184,1.0823,2.3131,0.0174,2025-06-06T11:06:05.399795
10888,-0.7525,-4.3154,-3.0041,-711.795,-377.580,399.420,1.31,0.0184,1.1650,2.3432,0.0087,2025-06-06T11:06:05.399795
10889,0.5666,-2.6840,-2.7284,-126.455,173.565,-31.745,1.32,0.0184,1.1374,2.4191,0.0087,2025-06-06T11:06:05.399795
10890,0.1039,-2.4102,-3.0056,345.030,640.815,-393.785,1.32,0.0184,1.2762,2.4344,0.0087,2025-06-06T11:06:05.399795
10891,-0.5817,-1.9330,-2.8768,528.150,860.055,-654.500,1.31,0.0368,1.1650,2.4038,0.0087,2025-06-06T11:06:05.439372
10892,-1.0497,-1.3591,-3.2496,299.810,906.605,-716.030,1.32,0.0184,1.1098,2.3886,0.0174,2025-06-06T11:06:05.439372
10893,-0.2889,-0.7652,-2.3019,-65.905,801.815,-690.130,1.32,0.0368,1.1650,2.4038,0.0087,2025-06-06T11:06:05.439372
10894,-2.1062,-0.7257,-1.9500,-468.265,945.210,-738.220,1.31,0.0184,1.1374,2.4344,0.0087,2025-06-06T11:06:05.603074
10895,-2.0335,-0.5817,-1.3991,-434.665,1081.360,-668.290,1.30,0.0184,1.1927,2.4650,0.0087,2025-06-06T11:06:05.603074
10896,-2.5884,-0.5353,-0.7218,-478.240,1123.710,-600.985,1.32,0.0368,1.1927,2.4804,0.0087,2025-06-06T11:06:05.603074
10897,-3.1432,-0.8711,-0.0634,-548.520,1146.740,-598.150,1.31,0.0184,1.1650,2.5113,0.0174,2025-06-06T11:06:05.603074
10898,-4.6633,-2.4102,0.4290,-840.700,1146.740,-580.160,1.32,0.0368,1.1927,2.5269,0.0087,2025-06-06T11:06:05.603074
10899,-3.5570,-2.8397,2.1984,-724.745,1135.750,-44.835,1.31,0.0000,1.2205,2.5424,0.0087,2025-06-06T11:06:05.603074
10900,-3.9689,0.5285,1.6260,-700.910,1146.740,-200.760,1.32,0.0368,1.2483,2.5424,0.0087,2025-06-06T11:06:05.603074
10901,-2.9436,1.8666,1.5411,-606.480,1105.720,79.205,1.32,0.0368,1.2205,2.5736,0.0087,2025-06-06T11:06:05.603074
10902,-4.1363,1.6777,2.1126,-285.635,1145.760,368.270,1.31,0.0184,1.2205,2.5736,0.0174,2025-06-06T11:06:05.603074
10903,-3.1818,1.6568,0.2528,-503.720,945.245,539.455,1.32,0.0184,1.1927,2.5736,0.0087,2025-06-06T11:06:05.603074
10904,-3.0959,-10.6008,13.5000,-92.505,-215.005,74.445,1.31,0.0184,1.2483,2.5424,0.0087,2025-06-06T11:06:05.603074
10905,-3.1437,-2.1501,3.8249,390.285,104.615,203.035,1.32,0.0368,1.2205,2.5580,0.0087,2025-06-06T11:06:05.603074
10906,-0.9292,0.3211,-0.3728,230.720,-393.995,-138.880,1.32,0.0184,1.2762,2.5736,0.0174,2025-06-06T11:06:05.657117
10907,0.2035,0.2045,1.0599,-60.760,-673.120,-227.255,1.32,0.0368,1.2762,2.5580,0.0087,2025-06-06T11:06:05.657117
10908,-0.9394,-0.1269,0.8218,-61.740,-465.360,-111.650,1.31,0.0184,1.2762,2.5893,0.0000,2025-06-06T11:06:05.657117
10909,-0.9745,-0.3548,0.4021,70.525,-290.220,-100.870,1.32,0.0184,1.3041,2.5580,0.0087,2025-06-06T11:06:05.939597
10910,-0.6046,-0.3143,0.2118,288.890,-95.375,-41.930,1.31,0.0368,1.2762,2.5580,0.0174,2025-06-06T11:06:05.939597
10911,-0.4904,-0.1332,-0.1415,175.490,-24.045,-42.910,1.31,0.0368,1.2483,2.4959,0.0174,2025-06-06T11:06:05.939597
10912,-0.4382,-0.2220,0.0117,-0.035,16.450,-81.025,1.31,0.0368,1.1650,2.4038,0.0087,2025-06-06T11:06:05.939597
10913,-0.3982,-0.1659,0.1532,-73.115,70.945,-63.910,1.31,0.0184,1.1374,2.3131,0.0174,2025-06-06T11:06:05.939597
10914,-0.3250,-0.0454,0.3255,-87.605,128.310,-23.275,1.31,0.0368,1.0823,2.1501,0.0174,2025-06-06T11:06:05.939597
10915,-0.2786,0.0810,0.4177,-109.585,164.780,30.065,1.31,0.0184,1.0274,2.0774,0.0087,2025-06-06T11:06:05.939597
10916,-0.6056,0.2650,0.4143,-141.190,176.505,61.985,1.31,0.0368,0.9455,1.9629,0.0174,2025-06-06T11:06:05.939597
10917,-0.6344,0.3884,0.8111,-121.870,185.500,99.855,1.31,0.0184,0.9727,1.9771,0.0087,2025-06-06T11:06:05.939597
10918,-0.5061,0.2274,0.8262,-85.890,171.990,158.865,1.31,0.0184,0.9727,1.9771,0.0087,2025-06-06T11:06:05.939597
10919,-0.4797,-0.0429,0.9760,-46.585,171.780,210.070,1.32,0.0184,1.0000,1.9487,0.0087,2025-06-06T11:06:05.939597
10920,-0.8838,0.0181,0.8877,50.470,162.680,221.725,1.31,0.0184,0.9727,1.9913,0.0174,2025-06-06T11:06:05.939597
10921,-1.1561,-0.2372,0.8886,89.285,151.305,226.765,1.27,0.0368,0.9727,1.9771,0.0087,2025-06-06T11:06:05.939597
10922,-0.9828,-0.5890,0.7642,16.065,84.420,177.170,1.31,0.0368,0.8912,1.8924,0.0087,2025-06-06T11:06:05.939597
10923,-0.4885,-0.9799,0.8140,20.055,26.040,85.015,1.30,0.0368,0.8912,1.8088,0.0000,2025-06-06T11:06:05.939597
10924,-0.9126,-0.7061,0.8642,29.085,38.395,-13.300,1.31,0.0184,0.8101,1.7128,0.0087,2025-06-06T11:06:05.939597
10925,-1.1727,-0.2908,0.9814,-50.890,47.845,-93.380,1.31,0.0368,0.7295,1.6857,0.0087,2025-06-06T11:06:05.999882
10926,-1.1517,-0.1039,0.9321,-99.610,-1.295,-125.580,1.31,0.0368,0.7563,1.6049,0.0087,2025-06-06T11:06:05.999882
10927,-0.8262,-0.0942,0.9052,-54.040,-54.670,-126.175,1.31,0.0184,0.7563,1.5650,0.0087,2025-06-06T11:06:05.999882
10928,-0.7847,-0.0215,0.8394,-18.760,-85.155,-109.025,1.30,0.0368,0.7563,1.5253,0.0174,2025-06-06T11:06:05.999882
10929,-0.8628,-0.0039,0.6027,-22.085,-86.835,-100.800,1.31,0.0184,0.7563,1.5253,0.0087,2025-06-06T11:06:05.999882
10930,-1.3825,0.0961,0.5104,-6.335,-75.635,-97.860,1.30,0.0184,0.7563,1.4990,0.0087,2025-06-06T11:06:05.999882
10931,-0.5470,-0.1054,0.4041,-49.665,-77.420,-79.135,1.31,0.0184,0.7563,1.5253,0.0000,2025-06-06T11:06:05.999882
10932,-0.5973,-0.1781,0.4934,-18.795,-41.090,-68.810,1.31,0.0184,0.7563,1.5253,0.0174,2025-06-06T11:06:05.999882
10933,-0.4743,-0.1757,0.5212,5.775,1.820,-31.185,1.31,0.0368,0.6760,1.4859,0.0087,2025-06-06T11:06:05.999882
10934,-0.4026,-0.0561,0.5427,2.065,13.125,-24.955,1.32,0.0184,0.7027,1.4728,0.0087,2025-06-06T11:06:05.999882
10935,-0.6066,0.1264,0.7618,-15.505,22.435,-10.815,1.31,0.0184,0.5962,1.3950,0.0174,2025-06-06T11:06:05.999882
10936,-0.9189,-0.0503,1.1361,-2.310,39.375,-5.530,1.31,0.0368,0.6494,1.3950,0.0087,2025-06-06T11:06:06.153147
10937,-2.2311,-0.7603,1.5035,144.515,-23.345,88.025,1.31,0.0368,0.6228,1.3309,0.0087,2025-06-06T11:06:06.153147
10938,-2.6791,-0.2679,2.9353,533.435,-201.530,266.840,1.30,0.0184,0.6228,1.3181,0.0087,2025-06-06T11:06:06.153147
10939,-2.4107,1.5323,3.7996,782.425,-527.730,539.665,1.32,0.0184,0.7027,1.3181,0.0087,2025-06-06T11:06:06.153147
10940,-2.5064,1.0385,3.2032,694.575,-748.160,736.575,1.31,0.0184,0.6228,1.3309,0.0087,2025-06-06T11:06:06.153147
10941,-4.0187,0.2303,1.7646,755.195,-686.525,840.840,1.31,0.0184,0.6228,1.3181,0.0087,2025-06-06T11:06:06.153147
10942,-4.8761,0.7608,2.6742,1099.000,-1062.600,1012.620,1.33,0.0184,0.6228,1.2927,0.0087,2025-06-06T11:06:06.153147
10943,-5.3700,1.1082,-0.4802,1034.845,-1146.740,1146.740,1.29,0.0184,0.6494,1.2801,0.0087,2025-06-06T11:06:06.153147
10944,-6.0644,-0.1220,-2.6132,-248.150,-1078.735,1146.740,1.33,0.0368,0.6228,1.2549,0.0174,2025-06-06T11:06:06.153147
10945,-5.7140,-1.3693,-1.8612,-486.290,-1146.740,1135.890,1.30,0.0368,0.6228,1.1923,0.0087,2025-06-06T11:06:06.153147
10946,-5.3978,-1.7788,-1.5557,-901.495,-1146.740,1146.740,1.29,0.0184,0.5697,1.1923,0.0174,2025-06-06T11:06:06.316939
10947,-5.4202,-1.5880,-0.5075,-220.220,-1146.215,1146.740,1.31,0.0184,0.5433,1.1923,0.0087,2025-06-06T11:06:06.316939
10948,-4.1919,-3.6132,-3.8279,199.815,-418.565,819.070,1.32,0.0368,0.5962,1.2048,0.0174,2025-06-06T11:06:06.316939
10949,-3.6371,-4.0748,-2.7143,-744.940,-1109.360,793.310,1.31,0.0184,0.5433,1.1923,0.0174,2025-06-06T11:06:06.316939
10950,0.4529,-2.6088,-2.3107,-41.055,-524.615,283.745,1.31,0.0368,0.5433,1.1799,0.0087,2025-06-06T11:06:06.316939
10951,-0.1269,-2.2170,-4.0748,375.305,-16.590,42.385,1.31,0.0184,0.5169,1.1675,0.0087,2025-06-06T11:06:06.316939
10952,0.1103,-1.6899,-2.9729,330.785,704.690,-370.160,1.31,0.0368,0.4643,1.1059,0.0087,2025-06-06T11:06:06.316939
10953,0.4299,-1.6285,-2.3790,251.195,920.115,-537.740,1.31,0.0368,0.4119,1.0692,0.0087,2025-06-06T11:06:06.316939
10954,-0.2206,-1.9701,-2.9953,196.350,829.115,-525.560,1.33,0.0368,0.4906,1.0570,0.0174,2025-06-06T11:06:06.316939
10955,-2.2126,-1.0936,-1.9056,-187.250,692.930,-480.165,1.31,0.0368,0.4381,1.0814,0.0087,2025-06-06T11:06:06.316939
10956,-1.4660,-0.6295,-0.9516,-222.425,861.140,-575.190,1.31,0.0368,0.4119,1.0692,0.0087,2025-06-06T11:06:06.316939
10957,-1.5333,-0.9370,-1.8076,-259.560,956.235,-631.925,1.30,0.0184,0.4381,1.0570,0.0087,2025-06-06T11:06:06.316939
10958,-2.1765,-0.7725,-1.3156,-241.570,1057.735,-671.055,1.30,0.0184,0.4643,1.0692,0.0087,2025-06-06T11:06:06.451381
10959,-2.1906,-0.6588,-1.0429,-333.095,1144.570,-699.160,1.31,0.0368,0.4381,1.0936,0.0087,2025-06-06T11:06:06.451381
10960,-2.9880,-0.4631,-0.0439,-631.190,1146.740,-716.100,1.30,0.0368,0.4643,1.0692,0.0174,2025-06-06T11:06:06.451381
10961,-5.2460,-1.6612,0.2767,-971.740,1146.740,-584.815,1.31,0.0368,0.4906,1.0936,0.0087,2025-06-06T11:06:06.451381
10962,-2.8446,-2.7543,1.8002,-938.210,1146.740,-77.210,1.31,0.0184,0.4381,1.0936,0.0000,2025-06-06T11:06:07.117328
10963,-3.1115,-0.6969,1.8646,-937.195,1146.740,-87.255,1.32,0.0184,0.4643,1.0570,0.0087,2025-06-06T11:06:07.117328
10964,-3.3321,1.6446,1.9798,-698.495,1001.595,228.445,1.31,0.0184,0.4381,1.0692,0.0087,2025-06-06T11:06:07.117328
10965,-5.2684,1.5440,4.1153,-522.865,1146.740,705.495,1.31,0.0184,0.4119,1.0207,0.0087,2025-06-06T11:06:07.117328
10966,-2.7684,-1.0502,4.0982,-1036.350,469.420,694.190,1.32,0.0184,0.4643,0.9487,0.0087,2025-06-06T11:06:07.117328
10967,-2.2155,-7.1063,11.0088,388.360,-168.980,95.550,1.30,0.0368,0.4643,0.9726,0.0087,2025-06-06T11:06:07.117328
10968,-2.1067,-1.9769,2.6757,651.420,224.105,293.615,1.31,0.0368,0.4643,0.9846,0.0174,2025-06-06T11:06:07.117328
10969,-0.2225,2.2414,-2.5327,219.520,-619.745,-192.640,1.31,0.0368,0.5433,0.9726,0.0087,2025-06-06T11:06:07.117328
10970,-0.1347,-0.1220,1.4655,-273.000,-556.885,-157.955,1.30,0.0368,0.4906,0.9487,0.0087,2025-06-06T11:06:07.117328
10971,-1.1976,-0.3865,0.6476,107.240,-467.075,-98.420,1.31,0.0368,0.5169,0.9846,0.0174,2025-06-06T11:06:07.117328
10972,-0.6759,-0.2611,0.4499,375.655,-238.455,-25.690,1.29,0.0552,0.5169,0.9966,0.0174,2025-06-06T11:06:07.117328
10973,-0.4363,0.0005,0.4616,281.785,-153.230,-2.275,1.31,0.0184,0.4906,0.9966,0.0087,2025-06-06T11:06:07.117328
10974,-0.1669,-0.0078,0.2128,259.175,-88.830,-19.495,1.31,0.0184,0.5169,0.9846,0.0087,2025-06-06T11:06:07.117328
10975,-0.2796,0.0844,-0.0205,133.735,-71.225,-32.200,1.30,0.0368,0.5433,0.9726,0.0087,2025-06-06T11:06:07.117328
10976,-0.1362,0.1391,0.2079,54.040,-45.745,11.200,1.29,0.0184,0.4381,0.9487,0.0087,2025-06-06T11:06:07.117328
10977,-0.1986,0.1054,0.2040,25.585,32.270,42.385,1.31,0.0184,0.4906,0.9607,0.0087,2025-06-06T11:06:07.117328
10978,-0.4548,0.2923,0.1781,29.505,106.190,52.115,1.32,0.0184,0.4643,0.9607,0.0087,2025-06-06T11:06:07.117328
10979,-0.2718,0.1118,0.3040,-68.215,160.440,74.550,1.30,0.0184,0.4381,0.9846,0.0174,2025-06-06T11:06:07.117328
10980,-0.3728,-0.0830,0.2377,-120.645,211.330,89.845,1.30,0.0368,0.5169,0.9846,0.0174,2025-06-06T11:06:07.117328
10981,-0.4987,-0.0561,0.3187,-115.080,265.860,100.450,1.32,0.0368,0.4643,0.9846,0.0087,2025-06-06T11:06:07.117328
10982,-0.7159,0.0966,0.4587,-124.670,303.870,122.360,1.31,0.0368,0.4643,0.9966,0.0087,2025-06-06T11:06:07.117328
10983,-0.9409,0.0478,0.5412,-137.865,320.495,145.810,1.30,0.0368,0.4906,1.0086,0.0087,2025-06-06T11:06:07.117328
10984,-0.8804,0.1347,0.8154,-128.450,306.845,156.310,1.31,0.0368,0.4643,1.0328,0.0174,2025-06-06T11:06:07.117328
10985,-0.9628,0.2811,1.1570,-45.780,263.375,157.815,1.32,0.0184,0.4643,1.0570,0.0087,2025-06-06T11:06:07.117328
10986,-2.4351,-0.7271,1.7807,-109.130,246.890,-30.030,1.28,0.0368,0.5697,1.0936,0.0174,2025-06-06T11:06:07.117328
10987,-1.1517,-0.4451,1.3781,191.100,68.285,28.525,1.31,0.0368,0.5697,1.1551,0.0174,2025-06-06T11:06:07.117328
10988,-0.2323,0.2957,-0.1269,112.700,-258.195,-46.655,1.31,0.0184,0.5169,1.1551,0.0087,2025-06-06T11:06:07.117328
10989,-0.4724,0.4973,1.1078,-52.990,-308.945,-76.440,1.30,0.0184,0.4906,1.1551,0.0087,2025-06-06T11:06:07.117328
10990,-0.5763,0.4631,0.9218,128.345,-147.630,-4.410,1.31,0.0368,0.5697,1.1923,0.0087,2025-06-06T11:06:07.117328
10991,-0.5573,0.4587,0.5783,278.950,-65.940,49.070,1.32,0.0184,0.5169,1.2172,0.0087,2025-06-06T11:06:07.117328
10992,-0.4958,0.3650,0.3196,274.925,4.830,115.465,1.30,0.0184,0.5433,1.2172,0.0174,2025-06-06T11:06:07.117328
10993,-0.6290,0.2591,0.1757,277.900,-4.515,176.120,1.32,0.0184,0.5433,1.2549,0.0087,2025-06-06T11:06:07.117328
10994,-0.5905,0.3582,0.1698,235.445,-7.630,173.285,1.32,0.0184,0.5697,1.2801,0.0087,2025-06-06T11:06:07.117328
10995,-0.6930,0.3855,0.4514,212.800,47.950,116.165,1.29,0.0368,0.5962,1.3054,0.0174,2025-06-06T11:06:07.117328
10996,-1.7373,0.5285,0.2303,256.130,66.010,143.920,1.32,0.0368,0.6494,1.3309,0.0174,2025-06-06T11:06:07.117328
10997,-1.4523,0.4177,1.4860,196.700,48.195,107.835,1.30,0.0184,0.5962,1.3821,0.0087,2025-06-06T11:06:07.117328
10998,-1.1131,0.3499,0.7100,155.995,40.005,81.130,1.31,0.0368,0.6228,1.3950,0.0087,2025-06-06T11:06:07.117328
10999,-0.7437,-0.1157,0.0766,63.630,-0.105,72.275,1.31,0.0184,0.5962,1.4079,0.0087,2025-06-06T11:06:07.117328
11000,-0.7037,-0.0498,0.2054,-29.960,-34.825,60.270,1.31,0.0368,0.6494,1.4338,0.0174,2025-06-06T11:06:07.117328
11001,-0.5217,0.3089,0.7632,-64.260,-19.985,-7.875,1.30,0.0184,0.6228,1.4338,0.0087,2025-06-06T11:06:07.117328
11002,-0.5549,0.7627,0.4577,-64.820,-19.180,-36.295,1.30,0.0184,0.6494,1.4990,0.0087,2025-06-06T11:06:07.117328
11003,-0.6759,0.5427,0.7496,-85.435,-35.455,-38.920,1.30,0.0184,0.7027,1.5385,0.0087,2025-06-06T11:06:07.117328
11004,-0.8281,0.1147,0.6085,-94.500,-41.720,-19.565,1.31,0.0184,0.7295,1.5517,0.0087,2025-06-06T11:06:07.117328
11005,-0.7852,0.2606,0.6412,-11.655,-77.035,16.030,1.31,0.0184,0.6228,1.6049,0.0087,2025-06-06T11:06:07.117328
11006,-0.6012,0.3460,0.5344,-35.105,0.035,41.195,1.31,0.0368,0.7027,1.6586,0.0087,2025-06-06T11:06:07.117328
11007,-0.6159,0.4587,0.8023,-4.550,18.795,41.545,1.30,0.0184,0.5169,1.6586,0.0087,2025-06-06T11:06:07.117328
11008,-0.6134,0.5919,0.5973,2.555,-10.395,30.100,1.30,0.0368,0.7832,1.6586,0.0087,2025-06-06T11:06:07.117328
11009,-0.5783,0.5846,0.6437,-25.970,-25.235,18.795,1.33,0.0184,0.6494,1.6721,0.0087,2025-06-06T11:06:07.117328
11010,-0.5534,0.6520,0.6730,-7.525,-12.495,-1.295,1.31,0.0184,0.7832,1.6992,0.0087,2025-06-06T11:06:07.117328
11011,-0.5861,0.5919,0.6788,16.065,12.565,-14.945,1.33,0.0184,0.7295,1.6857,0.0174,2025-06-06T11:06:07.117328
11012,-0.6066,0.5085,0.4641,21.840,11.970,-20.195,1.31,0.0184,0.6760,1.6992,0.0174,2025-06-06T11:06:07.239179
11013,-0.6271,0.5041,0.6842,8.330,1.820,-22.085,1.29,0.0184,0.7563,1.7401,0.0174,2025-06-06T11:06:07.239179
11014,-0.6393,0.4587,0.7008,8.120,4.585,-24.150,1.31,0.0184,0.7832,1.7538,0.0174,2025-06-06T11:06:07.239179
11015,-0.6769,0.4265,0.6305,24.780,2.765,-17.745,1.31,0.0368,0.7832,1.7675,0.0174,2025-06-06T11:06:07.239179
11016,-0.6793,0.3899,0.4900,20.090,11.235,-5.320,1.31,0.0368,0.8101,1.7675,0.0087,2025-06-06T11:06:07.239179
11017,-0.6642,0.4275,0.5690,15.785,5.320,2.415,1.31,0.0368,0.8101,1.7675,0.0087,2025-06-06T11:06:07.239179
11018,-0.6598,0.5075,0.5856,9.800,-0.945,3.150,1.31,0.0184,0.7295,1.7812,0.0087,2025-06-06T11:06:07.239179
11019,-0.6481,0.4875,0.5412,-7.700,-7.035,3.290,1.28,0.0184,0.7832,1.7812,0.0000,2025-06-06T11:06:07.239179
11020,-0.6534,0.4543,0.4729,-15.540,-11.340,6.475,1.32,0.0368,0.8101,1.7812,0.0087,2025-06-06T11:06:07.239179
11021,-0.6476,0.4690,0.5129,-21.035,-14.875,10.535,1.31,0.0184,0.7563,1.7675,0.0174,2025-06-06T11:06:07.239179
11022,-0.6427,0.4982,0.6198,-24.745,-16.170,10.500,1.31,0.0184,0.8101,1.8088,0.0087,2025-06-06T11:06:07.239179
11023,-0.6388,0.4119,0.8359,-26.530,-13.615,12.180,1.31,0.0368,0.7832,1.8227,0.0087,2025-06-06T11:06:07.239179
11024,-0.6193,0.4543,0.6217,-12.355,-13.405,16.170,1.32,0.0184,0.7832,1.7950,0.0087,2025-06-06T11:06:07.239179
11025,-0.6281,0.5266,0.6076,-9.940,-5.600,14.560,1.30,0.0184,0.8101,1.8227,0.0174,2025-06-06T11:06:07.455350
11026,-0.5949,0.5690,0.6739,11.900,-0.490,5.740,1.31,0.0368,0.8370,1.8088,0.0087,2025-06-06T11:06:07.455350
11027,-0.6090,0.5793,0.6759,7.805,-2.275,-7.910,1.31,0.0184,0.7563,1.8227,0.0087,2025-06-06T11:06:07.455350
11028,-0.6154,0.5139,0.5900,0.630,-2.065,-12.565,1.31,0.0368,0.8101,1.7812,0.0174,2025-06-06T11:06:07.455350
11029,-0.6222,0.4817,0.5861,5.495,1.400,-13.545,1.31,0.0368,0.8912,1.7950,0.0087,2025-06-06T11:06:07.455350
11030,-0.6368,0.4802,0.6261,15.400,5.075,-13.650,1.30,0.0184,0.8370,1.7538,0.0087,2025-06-06T11:06:07.455350
11031,-0.6647,0.4719,0.6407,17.710,0.665,-11.165,1.30,0.0184,0.7832,1.7264,0.0087,2025-06-06T11:06:07.455350
11032,-0.6588,0.4465,0.5470,5.005,-0.140,-6.335,1.32,0.0184,0.7832,1.7264,0.0087,2025-06-06T11:06:07.455350
11033,-0.6554,0.4446,0.5744,6.475,0.525,-1.505,1.32,0.0184,0.7295,1.6857,0.0174,2025-06-06T11:06:07.455350
11034,-0.6554,0.4743,0.5749,8.225,-0.525,1.505,1.27,0.0184,0.7027,1.6183,0.0087,2025-06-06T11:06:07.455350
11035,-0.6534,0.4729,0.5612,-1.855,-5.495,3.605,1.32,0.0184,0.7295,1.6049,0.0087,2025-06-06T11:06:07.455350
11036,-0.6515,0.4680,0.5446,-12.285,-10.290,5.810,1.31,0.0184,0.6760,1.5916,0.0087,2025-06-06T11:06:07.455350
11037,-0.6403,0.4807,0.5739,-13.265,-11.130,7.525,1.31,0.0184,0.6760,1.5650,0.0000,2025-06-06T11:06:07.455350
11038,-0.6393,0.4890,0.6154,-11.305,-9.835,7.490,1.31,0.0000,0.7563,1.5783,0.0087,2025-06-06T11:06:07.455350
11039,-0.6598,0.4807,0.7008,-6.895,-9.135,8.820,1.30,0.0184,0.6760,1.5517,0.0087,2025-06-06T11:06:07.455350
11040,-0.6149,0.4782,0.5851,-7.735,-5.320,9.135,1.31,0.0184,0.7563,1.5517,0.0087,2025-06-06T11:06:07.455350
11041,-0.6232,0.5187,0.6456,-2.450,-3.920,5.600,1.31,0.0184,0.7832,1.5385,0.0174,2025-06-06T11:06:07.697055
11042,-0.6159,0.5412,0.6334,5.355,-2.450,0.035,1.25,0.0184,0.6494,1.4598,0.0174,2025-06-06T11:06:07.697055
11043,-0.6183,0.5231,0.6281,3.815,-2.765,-5.005,1.30,0.0368,0.6494,1.3821,0.0087,2025-06-06T11:06:07.697055
11044,-0.6246,0.5017,0.5998,2.905,-1.750,-8.190,1.31,0.0184,0.6494,1.3309,0.0087,2025-06-06T11:06:07.697055
11045,-0.6364,0.4900,0.6090,7.420,0.420,-8.715,1.28,0.0184,0.6228,1.3181,0.0174,2025-06-06T11:06:07.697055
11046,-0.6510,0.4782,0.6246,10.920,0.490,-7.490,1.31,0.0368,0.5962,1.2927,0.0174,2025-06-06T11:06:07.697055
11047,-0.6432,0.4714,0.5861,6.510,0.035,-5.880,1.30,0.0368,0.6228,1.2801,0.0174,2025-06-06T11:06:07.697055
11048,-0.6490,0.4656,0.5866,3.010,-1.470,-3.115,1.29,0.0184,0.5697,1.3181,0.0087,2025-06-06T11:06:07.697055
11049,-0.6495,0.4656,0.5773,2.380,-2.660,-0.525,1.33,0.0368,0.5433,1.2927,0.0087,2025-06-06T11:06:07.697055
11050,-0.6520,0.4685,0.5822,0.070,-4.410,2.170,1.30,0.0184,0.5697,1.2927,0.0087,2025-06-06T11:06:07.697055
11051,-0.6505,0.4748,0.5827,-4.655,-6.930,4.550,1.30,0.0184,0.5962,1.2801,0.0087,2025-06-06T11:06:07.697055
11052,-0.6427,0.4836,0.5949,-6.545,-7.805,5.495,1.31,0.0184,0.5433,1.2675,0.0087,2025-06-06T11:06:07.697055
11053,-0.6403,0.4909,0.6012,-6.160,-7.210,5.600,1.30,0.0184,0.5433,1.2675,0.0087,2025-06-06T11:06:07.697055
11054,-0.6368,0.4880,0.6276,-4.445,-6.790,5.425,1.30,0.0184,0.5962,1.2172,0.0087,2025-06-06T11:06:07.697055
11055,-0.6285,0.4958,0.6066,-3.290,-6.300,4.305,1.29,0.0368,0.5433,1.2048,0.0087,2025-06-06T11:06:07.697055
11056,-0.6290,0.5085,0.7466,-1.470,-4.830,2.275,1.30,0.0368,0.5433,1.1799,0.0174,2025-06-06T11:06:07.697055
11057,-0.6261,0.5124,0.6222,2.065,-3.780,-1.015,1.29,0.0368,0.5697,1.1675,0.0087,2025-06-06T11:06:07.697055
11058,-0.6295,0.5041,0.6139,2.485,-2.590,-2.975,1.29,0.0368,0.5697,1.1427,0.0087,2025-06-06T11:06:07.748010
11059,-0.6378,0.4924,0.6144,3.605,-2.030,-4.305,1.30,0.0184,0.5433,1.1181,0.0174,2025-06-06T11:06:07.748010
11060,-0.6359,0.4909,0.6056,4.970,-1.015,-4.725,1.30,0.0368,0.5433,1.0936,0.0174,2025-06-06T11:06:07.748010
11061,-0.6432,0.4812,0.6007,5.355,-1.155,-4.340,1.29,0.0368,0.4381,1.1059,0.0087,2025-06-06T11:06:07.748010
11062,-0.6476,0.4773,0.5934,3.780,-2.275,-3.045,1.30,0.0184,0.4906,1.1181,0.0174,2025-06-06T11:06:07.850940
11063,-0.6466,0.4758,0.5905,1.890,-2.905,-1.505,1.29,0.0184,0.4906,1.0814,0.0087,2025-06-06T11:06:07.850940
11064,-0.6471,0.4743,0.5885,0.315,-3.990,0.140,1.29,0.0368,0.4643,1.0936,0.0174,2025-06-06T11:06:07.850940
11065,-0.6456,0.4758,0.5944,-1.225,-4.865,1.995,1.29,0.0368,0.5433,1.0692,0.0174,2025-06-06T11:06:07.850940
11066,-0.6427,0.4778,0.5944,-2.905,-5.810,3.150,1.29,0.0184,0.4381,1.1059,0.0087,2025-06-06T11:06:07.850940
11067,-0.6422,0.4860,0.6027,-3.290,-6.125,3.570,1.30,0.0184,0.4643,1.0936,0.0087,2025-06-06T11:06:07.850940
11068,-0.6368,0.4914,0.6071,-2.940,-5.845,3.500,1.29,0.0368,0.4906,1.1059,0.0087,2025-06-06T11:06:07.850940
11069,-0.6373,0.4943,0.6100,-2.030,-5.530,2.975,1.28,0.0184,0.4643,1.1059,0.0000,2025-06-06T11:06:07.850940
11070,-0.6354,0.4997,0.6110,-1.015,-4.725,1.680,1.27,0.0184,0.4906,1.0814,0.0087,2025-06-06T11:06:07.850940
11071,-0.6305,0.4997,0.6129,0.420,-3.850,0.175,1.28,0.0184,0.4643,1.0328,0.0087,2025-06-06T11:06:07.898075
11072,-0.6344,0.4997,0.6090,1.575,-3.220,-1.470,1.28,0.0368,0.4643,1.0328,0.0087,2025-06-06T11:06:07.898075
11073,-0.6373,0.4958,0.6110,2.450,-2.940,-2.345,1.27,0.0184,0.4381,1.0328,0.0174,2025-06-06T11:06:07.898075
11074,-0.6339,0.4919,0.6051,2.835,-2.485,-3.045,1.26,0.0368,0.4381,1.0449,0.0087,2025-06-06T11:06:07.957663
11075,-0.6398,0.4846,0.6041,2.940,-2.380,-2.730,1.25,0.0368,0.4643,1.0449,0.0174,2025-06-06T11:06:07.957663
11076,-0.6446,0.4821,0.5968,2.660,-2.800,-1.890,1.23,0.0368,0.4643,1.0328,0.0087,2025-06-06T11:06:07.957663
11077,-0.6417,0.4817,0.5963,1.540,-3.255,-1.050,1.22,0.0368,0.4906,1.0449,0.0087,2025-06-06T11:06:07.957663
11078,-0.6442,0.4807,0.5949,0.525,-3.885,8.820,1.19,0.0184,0.4643,1.0449,0.0087,2025-06-06T11:06:08.059058
11079,-0.6417,0.4797,0.5968,-0.420,-4.550,0.980,1.15,0.0368,0.4643,1.0449,0.0087,2025-06-06T11:06:08.059058
11080,-0.6432,0.4817,0.5934,-1.225,-4.935,1.715,1.14,0.0184,0.4643,1.0570,0.0087,2025-06-06T11:06:08.059058
11081,-0.6422,0.4860,0.6027,-1.680,-5.285,2.205,1.12,0.0368,0.4643,1.0814,0.0087,2025-06-06T11:06:08.059058
11082,-0.6378,0.4909,0.6037,-1.470,-5.250,2.135,1.10,0.0368,0.4381,1.0570,0.0087,2025-06-06T11:06:08.059058
11083,-0.6388,0.4948,0.6085,-1.190,-4.900,1.505,1.09,0.0368,0.4381,1.0449,0.0087,2025-06-06T11:06:08.059058
11084,-0.6383,0.4929,0.6071,-0.525,-4.480,0.840,1.08,0.0184,0.4643,1.0328,0.0087,2025-06-06T11:06:08.059058
11085,-0.6368,0.4953,0.6100,0.315,-3.920,0.210,1.07,0.0184,0.4906,1.0207,0.0087,2025-06-06T11:06:08.059058
11086,-0.6364,0.4943,0.6071,1.260,-3.535,-0.700,1.06,0.0184,0.4381,0.9726,0.0087,2025-06-06T11:06:08.112002
11087,-0.6339,0.4914,0.6076,1.645,-3.570,-1.260,1.07,0.0368,0.4643,0.9966,0.0087,2025-06-06T11:06:08.112002
11088,-0.6407,0.4929,0.6051,1.820,-3.290,-1.540,1.06,0.0368,0.4643,0.9846,0.0087,2025-06-06T11:06:08.112002
11089,-0.6417,0.4900,0.5993,1.995,-2.940,-1.750,1.06,0.0184,0.3857,0.9726,0.0087,2025-06-06T11:06:08.266999
11090,-0.6417,0.4836,0.5963,1.400,-3.150,-1.155,1.07,0.0184,0.4381,0.9726,0.0087,2025-06-06T11:06:08.266999
11091,-0.6412,0.4831,0.5958,0.980,-3.675,-0.560,1.07,0.0184,0.3857,0.9846,0.0087,2025-06-06T11:06:08.266999
11092,-0.6422,0.4841,0.5968,0.350,-4.130,0.000,1.08,0.0368,0.4381,0.9726,0.0087,2025-06-06T11:06:08.266999
11093,-0.6417,0.4865,0.5983,0.140,-4.620,0.455,1.07,0.0184,0.4381,0.9607,0.0087,2025-06-06T11:06:08.266999
11094,-0.6398,0.4851,0.5968,-0.455,-4.900,0.945,1.07,0.0184,0.4119,0.9846,0.0087,2025-06-06T11:06:08.266999
11095,-0.6427,0.4807,0.5958,0.665,-5.355,0.980,1.06,0.0184,0.4381,0.9607,0.0087,2025-06-06T11:06:08.266999
11096,-0.6471,0.4992,0.6120,0.805,-3.535,2.590,1.08,0.0368,0.4381,0.9726,0.0087,2025-06-06T11:06:08.266999
11097,-0.6188,0.4885,0.6159,-5.075,-5.880,1.120,1.06,0.0184,0.4643,0.9726,0.0087,2025-06-06T11:06:08.266999
11098,-0.6315,0.5036,0.5924,-0.315,-3.815,-0.245,1.10,0.0368,0.3857,0.9726,0.0087,2025-06-06T11:06:08.266999
11099,-0.6432,0.4856,0.5885,1.365,-1.925,-0.350,1.08,0.0184,0.4381,0.9726,0.0174,2025-06-06T11:06:08.266999
11100,-0.6398,0.4778,0.5880,1.050,-6.860,0.175,1.09,0.0000,0.4381,0.9846,0.0087,2025-06-06T11:06:08.266999
11101,-0.6349,0.5104,0.6183,-2.975,-4.550,-0.770,1.09,0.0184,0.4381,0.9726,0.0174,2025-06-06T11:06:08.355157
11102,-0.6403,0.4943,0.6090,3.780,-2.380,-1.855,1.11,0.0184,0.4643,0.9607,0.0174,2025-06-06T11:06:08.355157
11103,-0.6432,0.4778,0.5719,1.820,-2.660,-1.155,1.10,0.0184,0.4381,0.9607,0.0174,2025-06-06T11:06:08.355157
11104,-0.6466,0.4826,0.5988,-0.700,-4.970,-0.105,1.08,0.0368,0.4119,0.9368,0.0087,2025-06-06T11:06:08.355157
11105,-0.6354,0.4929,0.6041,1.190,-4.340,0.035,1.11,0.0184,0.4643,0.8895,0.0087,2025-06-06T11:06:08.355157
11106,-0.6403,0.4895,0.6154,0.700,-3.010,-0.105,1.09,0.0184,0.3857,0.8542,0.0000,2025-06-06T11:06:08.355157
11107,-0.6471,0.4797,0.5861,0.070,-4.095,0.420,1.11,0.0184,0.3597,0.8075,0.0087,2025-06-06T11:06:08.355157
11108,-0.6422,0.4865,0.5880,-0.980,-5.355,1.120,1.10,0.0184,0.2301,0.6472,0.0087,2025-06-06T11:06:08.468692
11109,-0.6378,0.4948,0.6139,-0.735,-4.620,1.015,1.10,0.0184,0.2043,0.4587,0.0087,2025-06-06T11:06:08.468692
11110,-0.6398,0.4934,0.6066,0.875,-4.060,0.525,1.11,0.0184,0.2043,0.4153,0.0087,2025-06-06T11:06:08.468692
11111,-0.6383,0.4895,0.5978,-0.665,-4.165,0.385,1.11,0.0184,0.1273,0.3616,0.0174,2025-06-06T11:06:08.468692
11112,-0.6412,0.4934,0.5998,0.455,-4.515,0.210,1.12,0.0368,0.1273,0.3616,0.0000,2025-06-06T11:06:08.645903
11113,-0.6383,0.4953,0.6076,0.665,-4.025,-0.245,1.12,0.0184,0.1529,0.3509,0.0087,2025-06-06T11:06:08.645903
11114,-0.6407,0.4939,0.6076,0.875,-3.640,-0.560,1.12,0.0000,0.1786,0.2662,0.0000,2025-06-06T11:06:08.645903
11115,-0.6398,0.4904,0.5998,0.805,-3.605,-0.700,1.12,0.0184,0.0762,0.2243,0.0087,2025-06-06T11:06:08.645903
11116,-0.6354,0.4890,0.5963,1.225,-3.780,-0.665,1.11,0.0184,0.0762,0.2348,0.0087,2025-06-06T11:06:08.668040
11117,-0.6422,0.4904,0.6007,0.945,-3.885,-0.525,1.11,0.0184,0.0000,0.1828,0.0174,2025-06-06T11:06:08.668040
11118,-0.6417,0.4900,0.5998,0.525,-4.025,-0.245,1.12,0.0368,0.0508,0.0906,0.0087,2025-06-06T11:06:08.668040
11119,-0.6422,0.4885,0.5988,-0.035,-3.885,0.000,1.12,0.0184,0.0762,0.0703,0.0087,2025-06-06T11:06:08.668040
11120,-0.6393,0.4895,0.5939,0.525,-3.990,0.210,1.14,0.0368,0.1273,0.0602,0.0087,2025-06-06T11:06:08.668040
11121,-0.6417,0.4885,0.5983,0.350,-4.130,0.350,1.13,0.0184,0.0254,0.0501,0.0174,2025-06-06T11:06:08.668040
11122,-0.6403,0.4904,0.5978,-0.210,-4.725,0.490,1.12,0.0000,0.0508,0.0401,0.0000,2025-06-06T11:06:08.668040
11123,-0.6412,0.4924,0.6032,-0.105,-4.375,0.490,1.13,0.0184,0.0508,0.0300,0.0087,2025-06-06T11:06:08.668040
11124,-0.6383,0.4924,0.6037,0.315,-3.990,0.245,1.12,0.0368,0.0254,0.0300,0.0087,2025-06-06T11:06:08.668040
11125,-0.6398,0.4919,0.5944,0.420,-3.850,0.000,1.12,0.0184,0.0508,0.0401,0.0087,2025-06-06T11:06:08.668040
11126,-0.6393,0.4919,0.6046,0.000,-3.885,-0.175,1.13,0.0184,0.0254,0.0300,0.0087,2025-06-06T11:06:08.668040
11127,-0.6403,0.4914,0.6027,0.245,-4.130,-0.210,1.13,0.0184,0.0508,0.0401,0.0087,2025-06-06T11:06:08.668040
11128,-0.6403,0.4919,0.6022,0.735,-4.095,-0.280,1.13,0.0368,0.0508,0.0501,0.0087,2025-06-06T11:06:08.668040
11129,-0.6412,0.4904,0.5988,1.295,-3.955,-0.350,1.11,0.0184,0.0254,0.0300,0.0087,2025-06-06T11:06:08.668040
11130,-0.6398,0.4885,0.5993,1.295,-4.095,-0.245,1.12,0.0368,0.0254,0.0200,0.0087,2025-06-06T11:06:08.668040
11131,-0.6417,0.4909,0.6007,0.280,-3.780,-0.105,1.12,0.0184,0.0508,0.0401,0.0087,2025-06-06T11:06:08.723393
11132,-0.6388,0.4900,0.6007,0.805,-3.990,-0.140,1.13,0.0184,0.0508,0.0200,0.0087,2025-06-06T11:06:08.723393
11133,-0.6393,0.4900,0.5983,0.525,-4.235,0.105,1.13,0.0368,0.0508,0.0300,0.0087,2025-06-06T11:06:08.723393
11134,-0.6398,0.4914,0.5988,0.455,-4.235,0.175,1.12,0.0184,0.0762,0.0200,0.0087,2025-06-06T11:06:08.723393
11135,-0.6412,0.4924,0.5983,0.105,-4.200,0.280,1.13,0.0184,0.0508,0.0401,0.0087,2025-06-06T11:06:08.871839
11136,-0.6417,0.4904,0.5993,8.855,-4.060,0.175,1.12,0.0000,0.0508,0.0300,0.0087,2025-06-06T11:06:08.871839
11137,-0.6373,0.4890,0.6002,0.280,-3.955,0.140,1.12,0.0000,0.0508,0.0300,0.0087,2025-06-06T11:06:08.871839
11138,-0.6398,0.4934,0.5919,-0.245,-3.920,0.105,1.12,0.0184,0.0254,0.0300,0.0174,2025-06-06T11:06:08.871839
11139,-0.6398,0.4904,0.6041,1.120,-4.095,0.035,1.13,0.0368,0.0254,0.0300,0.0174,2025-06-06T11:06:08.871839
11140,-0.6403,0.4919,0.6061,1.155,-4.025,0.000,1.12,0.0368,0.0508,0.0401,0.0174,2025-06-06T11:06:08.871839
11141,-0.6432,0.4909,0.6002,-0.245,-3.885,-0.175,1.11,0.0184,0.0254,0.0300,0.0087,2025-06-06T11:06:08.871839
11142,-0.6388,0.4909,0.5954,0.945,-3.605,-0.210,1.12,0.0184,0.0508,0.0300,0.0174,2025-06-06T11:06:08.871839
11143,-0.6412,0.4909,0.5993,0.350,-3.990,-0.035,1.12,0.0368,0.0508,0.0401,0.0174,2025-06-06T11:06:08.871839
11144,-0.6422,0.4919,0.5963,-0.070,-3.955,-0.140,1.11,0.0368,0.0508,0.0300,0.0087,2025-06-06T11:06:08.871839
11145,-0.6417,0.4900,0.6012,0.805,-4.270,-0.105,1.12,0.0184,0.0508,0.0501,0.0174,2025-06-06T11:06:08.871839
11146,-0.6412,0.4895,0.5978,-0.070,-3.885,0.035,1.11,0.0184,0.0508,0.0300,0.0174,2025-06-06T11:06:08.918938
11147,-0.6398,0.4900,0.6012,0.350,-4.025,0.035,1.11,0.0368,0.1018,0.0300,0.0087,2025-06-06T11:06:08.918938
11148,-0.6403,0.4914,0.5978,-0.490,-3.920,0.140,1.09,0.0368,0.0254,0.0401,0.0174,2025-06-06T11:06:08.918938
11149,-0.6412,0.4909,0.5968,0.665,-4.340,0.175,1.08,0.0368,0.0254,0.0300,0.0087,2025-06-06T11:06:08.918938
11150,-0.6403,0.4900,0.6017,0.105,-4.130,0.105,1.06,0.0368,0.0254,0.0200,0.0087,2025-06-06T11:06:09.083868
11151,-0.6432,0.4919,0.5973,0.490,-4.130,0.105,1.04,0.0184,0.0508,0.0300,0.0087,2025-06-06T11:06:09.083868
11152,-0.6417,0.4919,0.5988,0.175,-3.955,0.000,1.00,0.0368,0.0254,0.0200,0.0174,2025-06-06T11:06:09.083868
11153,-0.6407,0.4934,0.5978,0.315,-3.920,-0.070,0.99,0.0184,0.0254,0.0300,0.0087,2025-06-06T11:06:09.083868
11154,-0.6417,0.4914,0.5983,0.420,-3.885,-0.140,0.95,0.0368,0.1018,0.0300,0.0174,2025-06-06T11:06:09.083868
11155,-0.6393,0.4919,0.5963,0.525,-3.885,-0.070,0.92,0.0184,0.0508,0.0200,0.0174,2025-06-06T11:06:09.083868
11156,-0.6422,0.4904,0.5978,0.700,-4.095,-0.210,0.90,0.0184,0.0254,0.0300,0.0087,2025-06-06T11:06:09.083868
11157,-0.6403,0.4890,0.6012,0.665,-4.060,-0.105,0.88,0.0184,0.0254,0.0300,0.0087,2025-06-06T11:06:09.083868
11158,-0.6388,0.4934,0.5968,0.070,-3.850,0.000,0.86,0.0184,0.0254,0.0200,0.0087,2025-06-06T11:06:09.083868
11159,-0.6427,0.4939,0.5978,0.455,-3.885,0.070,0.85,0.0184,0.0000,0.0200,0.0087,2025-06-06T11:06:09.083868
11160,-0.6412,0.4900,0.5963,0.350,-3.850,0.000,0.83,0.0184,0.0508,0.0000,0.0087,2025-06-06T11:06:09.083868
11161,-0.6437,0.4909,0.5993,0.455,-4.270,0.140,0.81,0.0368,0.0508,0.0300,0.0174,2025-06-06T11:06:09.083868
11162,-0.6393,0.4904,0.5993,0.280,-4.305,0.070,0.83,0.0184,0.0508,0.0300,0.0000,2025-06-06T11:06:09.288120
11163,-0.6407,0.4953,0.5993,0.455,-4.130,0.070,0.80,0.0368,0.0508,0.0200,0.0087,2025-06-06T11:06:09.288120
11164,-0.6422,0.4919,0.5993,0.315,-3.920,0.000,0.81,0.0184,0.0508,0.0300,0.0087,2025-06-06T11:06:09.288120
11165,-0.6403,0.4900,0.5993,0.350,-3.745,0.000,0.80,0.0368,0.0254,0.0300,0.0087,2025-06-06T11:06:09.288120
11166,-0.6407,0.4929,0.5978,0.455,-3.885,0.000,0.80,0.0184,0.0254,0.0300,0.0087,2025-06-06T11:06:09.288120
11167,-0.6427,0.4909,0.5963,0.525,-4.305,-0.035,0.78,0.0184,0.0254,0.0200,0.0087,2025-06-06T11:06:09.288120
11168,-0.6398,0.4919,0.5998,0.350,-4.235,-0.070,0.78,0.0184,0.0254,0.0300,0.0174,2025-06-06T11:06:09.288120
11169,-0.6427,0.4914,0.5978,0.350,-3.955,-0.140,0.76,0.0184,0.0508,0.0200,0.0174,2025-06-06T11:06:09.288120
11170,-0.6432,0.4934,0.5978,0.140,-3.885,-0.105,0.78,0.0184,0.0254,0.0300,0.0087,2025-06-06T11:06:09.288120
11171,-0.6383,0.4909,0.5973,0.420,-3.850,0.035,0.76,0.0000,0.0254,0.0300,0.0087,2025-06-06T11:06:09.288120
11172,-0.6432,0.4900,0.6002,0.945,-4.515,0.070,0.74,0.0368,0.0254,0.0100,0.0087,2025-06-06T11:06:09.288120
11173,-0.6388,0.4943,0.5915,-1.995,-3.955,0.035,0.76,0.0184,0.0508,0.0300,0.0087,2025-06-06T11:06:09.288120
11174,-0.6446,0.4924,0.5900,0.700,-4.235,0.000,0.76,0.0368,0.0508,0.0200,0.0087,2025-06-06T11:06:09.288120
11175,-0.6412,0.4904,0.6002,1.120,-3.920,0.105,0.76,0.0368,0.0508,0.0300,0.0174,2025-06-06T11:06:09.288120
11176,-0.6422,0.4939,0.5954,0.245,-4.200,-0.035,0.76,0.0184,0.0508,0.0200,0.0087,2025-06-06T11:06:09.288120
11177,-0.6417,0.4953,0.5944,-0.280,-4.025,0.035,0.77,0.0184,0.0508,0.0300,0.0087,2025-06-06T11:06:09.435014
11178,-0.6398,0.4885,0.6017,1.785,-4.270,0.000,0.76,0.0368,0.0254,0.0200,0.0087,2025-06-06T11:06:09.435014
11179,-0.6422,0.4934,0.5983,-0.420,-3.570,0.035,0.76,0.0184,0.0508,0.0300,0.0087,2025-06-06T11:06:09.435014
11180,-0.6412,0.4909,0.5963,0.105,-3.675,-0.035,0.76,0.0184,0.0508,0.0300,0.0087,2025-06-06T11:06:09.435014
11181,-0.6407,0.4943,0.5958,-0.525,-3.640,-0.105,0.77,0.0184,0.0254,0.0300,0.0087,2025-06-06T11:06:09.435014
11182,-0.6412,0.4914,0.5968,1.015,-4.515,-0.105,0.77,0.0184,0.0254,0.0200,0.0087,2025-06-06T11:06:09.435014
11183,-0.6427,0.4919,0.5958,0.315,-4.340,0.035,0.77,0.0000,0.0254,0.0200,0.0087,2025-06-06T11:06:09.435014
11184,-0.6417,0.4924,0.5983,0.840,-4.235,0.000,0.77,0.0184,0.0508,0.0300,0.0000,2025-06-06T11:06:09.435014
11185,-0.6407,0.4924,0.5963,-0.070,-3.850,0.035,0.74,0.0368,0.0000,0.0300,0.0087,2025-06-06T11:06:09.645634
11186,-0.6393,0.4919,0.5939,0.245,-3.920,0.035,0.77,0.0184,0.0508,0.0401,0.0087,2025-06-06T11:06:09.645634
11187,-0.6417,0.4939,0.5983,0.035,-3.850,0.035,0.77,0.0368,0.0254,0.0300,0.0087,2025-06-06T11:06:09.645634
11188,-0.6422,0.4924,0.5954,0.630,-4.025,-0.035,0.77,0.0368,0.0508,0.0100,0.0087,2025-06-06T11:06:09.645634
11189,-0.6422,0.4929,0.5988,0.595,-4.130,0.035,0.78,0.0184,0.0254,0.0200,0.0087,2025-06-06T11:06:09.645634
11190,-0.6398,0.4904,0.5978,0.525,-4.200,-0.035,0.77,0.0184,0.0508,0.0401,0.0174,2025-06-06T11:06:09.645634
11191,-0.6432,0.4924,0.5973,0.070,-4.025,0.000,0.80,0.0184,0.0254,0.0200,0.0087,2025-06-06T11:06:09.645634
11192,-0.6427,0.4909,0.5993,0.385,-4.025,-0.035,0.77,0.0368,0.0508,0.0300,0.0087,2025-06-06T11:06:09.645634
11193,-0.6407,0.4934,0.5963,0.420,-3.850,0.000,0.76,0.0184,0.0254,0.0300,0.0087,2025-06-06T11:06:09.645634
11194,-0.6403,0.4929,0.5963,0.700,-3.955,0.000,0.77,0.0184,0.0254,0.0401,0.0087,2025-06-06T11:06:09.645634
11195,-0.6412,0.4914,0.5973,0.525,-4.270,0.035,0.77,0.0184,0.0762,0.0300,0.0174,2025-06-06T11:06:09.645634
11196,-0.6432,0.4934,0.5963,0.175,-3.990,0.105,0.77,0.0184,0.0508,0.0401,0.0087,2025-06-06T11:06:09.645634
11197,-0.6422,0.4914,0.5934,-0.105,-4.305,-0.070,0.77,0.0184,0.0508,0.0300,0.0087,2025-06-06T11:06:09.645634
11198,-0.6407,0.4943,0.6012,-0.070,-3.815,0.070,0.78,0.0368,0.0254,0.0200,0.0087,2025-06-06T11:06:09.645634
11199,-0.6393,0.4939,0.5958,0.700,-3.815,-0.070,0.77,0.0184,0.0762,0.0200,0.0087,2025-06-06T11:06:09.645634
11200,-0.6412,0.4934,0.5958,0.595,-4.130,-0.105,0.77,0.0184,0.0254,0.0200,0.0087,2025-06-06T11:06:09.645634
11201,-0.6427,0.4929,0.6007,0.490,-4.270,-0.070,0.78,0.0368,0.0508,0.0200,0.0087,2025-06-06T11:06:09.645634
