SeqNum,AccX,AccY,AccZ,GyroX,GyroY,GyroZ,Flex,Force1,Force2,Force3,Force4,TimestampReception
7273,-0.2079,0.5627,0.8242,-0.140,-2.835,-0.105,0.00,0.0184,0.0000,0.0000,0.0174,2025-06-09T13:39:11.858212
7274,-0.2103,0.5597,0.8262,2.415,-1.995,1.085,0.00,0.0184,0.0254,0.0100,0.0174,2025-06-09T13:39:11.858212
7275,-0.2030,0.5617,0.8233,2.100,-1.505,0.385,0.00,0.0184,0.0254,0.0000,0.0087,2025-06-09T13:39:11.858212
7276,-0.2035,0.5666,0.8242,0.070,-2.765,0.525,0.01,0.0000,0.0254,0.0501,0.0087,2025-06-09T13:39:11.858212
7277,-0.2001,0.5700,0.8316,-0.735,-3.185,0.525,0.01,0.0368,0.0254,0.0300,0.0087,2025-06-09T13:39:11.858212
7278,-0.1991,0.5671,0.8272,-0.070,-2.940,-0.035,0.00,0.0184,0.0254,0.0000,0.0087,2025-06-09T13:39:11.858212
7279,-0.2050,0.5592,0.8233,0.490,-3.290,-0.105,0.00,0.0368,0.0762,0.0000,0.0087,2025-06-09T13:39:11.858212
7280,-0.2050,0.5563,0.8218,-0.595,-3.220,-0.105,0.00,0.0368,0.0762,0.0000,0.0174,2025-06-09T13:39:11.858212
7281,-0.2074,0.5563,0.8272,-1.120,-2.660,-0.070,0.00,0.0368,0.0508,0.0000,0.0087,2025-06-09T13:39:11.858212
7282,-0.2011,0.5583,0.8281,0.280,-2.345,0.175,0.00,0.0368,0.0000,0.0000,0.0087,2025-06-09T13:39:11.858212
7283,-0.2015,0.5592,0.8247,1.015,-2.310,0.525,0.00,0.0000,0.0000,0.0100,0.0087,2025-06-09T13:39:11.858212
7284,-0.2020,0.5632,0.8247,0.875,-2.765,0.700,0.00,0.0184,0.0254,0.0000,0.0087,2025-06-09T13:39:11.858212
7285,-0.2045,0.5661,0.8281,0.560,-2.940,0.245,0.01,0.0368,0.0254,0.0401,0.0000,2025-06-09T13:39:11.858212
7286,-0.2040,0.5661,0.8242,-0.420,-2.590,-0.070,0.00,0.0184,0.0508,0.0000,0.0087,2025-06-09T13:39:11.859184
7287,-0.2025,0.5627,0.8233,-0.840,-2.730,-0.315,0.00,0.0184,0.0508,0.0100,0.0174,2025-06-09T13:39:11.859184
7288,-0.2011,0.5612,0.8262,-0.875,-3.080,-0.210,0.01,0.0368,0.0508,0.0100,0.0087,2025-06-09T13:39:11.859184
7289,-0.2015,0.5558,0.8272,-0.140,-3.045,-0.140,0.01,0.0552,0.0762,0.0200,0.0174,2025-06-09T13:39:12.056709
7290,-0.2045,0.5544,0.8218,0.070,-3.045,0.140,0.01,0.0368,0.0254,0.0000,0.0087,2025-06-09T13:39:12.056709
7291,-0.2025,0.5539,0.8262,0.245,-3.010,0.385,0.01,0.0368,0.0254,0.0401,0.0174,2025-06-09T13:39:12.056709
7292,-0.2035,0.5588,0.8257,0.385,-2.345,0.350,0.00,0.0000,0.0508,0.0000,0.0174,2025-06-09T13:39:12.056709
7293,-0.2025,0.5617,0.8252,0.805,-2.345,0.350,0.00,0.0184,0.0508,0.0100,0.0174,2025-06-09T13:39:12.056709
7294,-0.2011,0.5612,0.8291,0.420,-2.870,0.350,0.00,0.0368,0.0254,0.0300,0.0174,2025-06-09T13:39:12.056709
7295,-0.2006,0.5627,0.8286,-0.280,-2.800,0.175,0.00,0.0000,0.0508,0.0200,0.0174,2025-06-09T13:39:12.056709
7296,-0.2011,0.5636,0.8267,-0.280,-2.870,-0.350,0.00,0.0184,0.0254,0.0200,0.0262,2025-06-09T13:39:12.056709
7297,-0.2059,0.5612,0.8237,-0.350,-3.010,-0.280,0.00,0.0368,0.0508,0.0401,0.0087,2025-06-09T13:39:12.056709
7298,-0.2050,0.5646,0.8281,-0.420,-2.310,0.035,0.00,0.0184,0.0508,0.0401,0.0000,2025-06-09T13:39:12.056709
7299,-0.2040,0.5607,0.8340,0.000,-2.765,0.000,0.00,0.0184,0.0508,0.0401,0.0087,2025-06-09T13:39:12.056709
7300,-0.1976,0.5588,0.8252,-0.490,-3.150,0.210,0.00,0.0184,0.0254,0.0300,0.0174,2025-06-09T13:39:12.056709
7301,-0.2011,0.5549,0.8189,-0.875,-3.640,0.035,0.01,0.0184,0.0254,0.0100,0.0087,2025-06-09T13:39:12.056709
7302,-0.2054,0.5544,0.8257,0.280,-2.800,-0.070,0.00,0.0368,0.0254,0.0000,0.0087,2025-06-09T13:39:12.056709
7303,-0.2059,0.5563,0.8257,0.945,-1.750,-0.175,0.00,0.0184,0.0508,0.0100,0.0174,2025-06-09T13:39:12.056709
7304,-0.2045,0.5553,0.8237,0.385,-1.890,0.245,0.01,0.0184,0.0254,0.0401,0.0174,2025-06-09T13:39:12.261108
7305,-0.2006,0.5573,0.8276,-0.035,-2.835,0.700,0.01,0.0368,0.0254,0.0401,0.0087,2025-06-09T13:39:12.261108
7306,-0.2006,0.5636,0.8267,1.085,-2.870,0.910,0.00,0.0184,0.0254,0.0602,0.0087,2025-06-09T13:39:12.261108
7307,-0.2040,0.5666,0.8262,1.715,-2.135,0.665,0.00,0.0184,0.0254,0.0501,0.0087,2025-06-09T13:39:12.261108
7308,-0.2025,0.5661,0.8276,0.665,-2.345,0.105,0.00,0.0184,0.0254,0.0100,0.0174,2025-06-09T13:39:12.261108
7309,-0.2050,0.5651,0.8262,-1.015,-3.045,-0.245,0.01,0.0000,0.0254,0.0200,0.0087,2025-06-09T13:39:12.261108
7310,-0.2011,0.5651,0.8237,-1.505,-2.940,-0.420,0.00,0.0184,0.0762,0.0200,0.0087,2025-06-09T13:39:12.261108
7311,-0.2035,0.5583,0.8291,-0.420,-2.905,-0.315,0.00,0.0184,0.0254,0.0000,0.0174,2025-06-09T13:39:12.261108
7312,-0.2020,0.5549,0.8272,0.245,-2.695,-0.175,0.00,0.0184,0.0508,0.0300,0.0087,2025-06-09T13:39:12.261108
7313,-0.2064,0.5544,0.8223,-0.175,-2.660,0.175,0.00,0.0184,0.0254,0.0100,0.0087,2025-06-09T13:39:12.261108
7314,-0.2059,0.5573,0.8233,0.070,-2.590,0.280,0.00,0.0184,0.0508,0.0000,0.0087,2025-06-09T13:39:12.261108
7315,-0.2040,0.5617,0.8267,0.525,-2.135,0.420,0.00,0.0184,0.0508,0.0100,0.0087,2025-06-09T13:39:12.261108
7316,-0.2045,0.5632,0.8267,0.875,-2.170,0.420,0.00,0.0184,0.0508,0.0000,0.0087,2025-06-09T13:39:12.261108
7317,-0.2001,0.5661,0.8257,0.525,-2.800,0.455,0.01,0.0368,0.0254,0.0200,0.0087,2025-06-09T13:39:12.261108
7318,-0.2030,0.5632,0.8237,-0.350,-2.975,0.105,0.00,0.0184,0.0254,0.0200,0.0087,2025-06-09T13:39:12.261108
7319,-0.2035,0.5588,0.8262,-0.350,-2.730,-0.140,0.01,0.0184,0.0508,0.0602,0.0174,2025-06-09T13:39:12.359847
7320,-0.1952,0.5534,0.8228,-0.420,-2.275,-0.630,0.01,0.0184,0.0508,0.0200,0.0087,2025-06-09T13:39:12.359847
7321,-0.2137,0.5607,0.8257,0.595,-2.450,0.385,0.00,0.0368,0.0762,0.0100,0.0174,2025-06-09T13:39:12.359847
7322,-0.2006,0.5641,0.8369,0.910,-2.135,0.735,0.01,0.0368,0.0508,0.0300,0.0174,2025-06-09T13:39:12.360845
7323,-0.1991,0.5651,0.8335,0.385,-2.660,0.245,0.00,0.0000,0.0254,0.0100,0.0087,2025-06-09T13:39:12.360845
7324,-0.1962,0.5671,0.8223,-1.050,-3.885,0.035,0.00,0.0368,0.0254,0.0000,0.0087,2025-06-09T13:39:12.360845
7325,-0.2050,0.5656,0.8218,-1.015,-3.185,-0.175,0.00,0.0368,0.0254,0.0602,0.0087,2025-06-09T13:39:12.360845
7326,-0.2113,0.5622,0.8247,0.175,-2.625,-0.525,0.00,0.0368,0.0254,0.0100,0.0174,2025-06-09T13:39:12.585244
7327,-0.2015,0.5602,0.8272,-0.490,-2.030,-0.840,0.01,0.0368,0.0508,0.0200,0.0174,2025-06-09T13:39:12.585244
7328,-0.2035,0.5485,0.8233,-2.240,-3.080,-0.105,0.00,0.0184,0.0508,0.0200,0.0087,2025-06-09T13:39:12.585244
7329,-0.1947,0.5485,0.8233,-0.805,-4.270,0.455,0.00,0.0368,0.0508,0.0000,0.0174,2025-06-09T13:39:12.585244
7330,-0.2079,0.5558,0.8233,2.100,-2.310,0.735,0.00,0.0368,0.0508,0.0200,0.0174,2025-06-09T13:39:12.585244
7331,-0.2108,0.5563,0.8301,3.220,-1.155,0.770,0.00,0.0368,0.0254,0.0300,0.0174,2025-06-09T13:39:12.585244
7332,-0.2025,0.5617,0.8218,0.945,-2.240,0.700,0.00,0.0184,0.0508,0.0300,0.0174,2025-06-09T13:39:12.586240
7333,-0.2035,0.5710,0.8311,-1.190,-3.185,0.875,0.01,0.0184,0.0254,0.0100,0.0087,2025-06-09T13:39:12.586240
7334,-0.1947,0.5719,0.8335,0.210,-2.835,0.280,0.01,0.0368,0.0000,0.0200,0.0087,2025-06-09T13:39:12.586240
7335,-0.2001,0.5646,0.8233,1.015,-3.080,-0.350,0.01,0.0368,0.0508,0.0300,0.0087,2025-06-09T13:39:12.586240
7336,-0.2054,0.5597,0.8208,-0.910,-3.360,-0.315,0.00,0.0368,0.0254,0.0300,0.0087,2025-06-09T13:39:12.586240
7337,-0.2094,0.5563,0.8272,-1.715,-2.870,-0.420,0.01,0.0368,0.0254,0.0200,0.0174,2025-06-09T13:39:12.586240
7338,-0.2040,0.5539,0.8272,-0.665,-2.240,-0.210,0.00,0.0368,0.0254,0.0000,0.0087,2025-06-09T13:39:12.586240
7339,-0.2006,0.5578,0.8286,0.840,-2.065,0.315,0.00,0.0184,0.0508,0.0200,0.0174,2025-06-09T13:39:12.586240
7340,-0.1996,0.5622,0.8296,1.540,-2.695,0.910,0.00,0.0368,0.0508,0.0200,0.0087,2025-06-09T13:39:12.586240
7341,-0.2035,0.5656,0.8237,0.945,-3.010,0.630,0.00,0.0184,0.0762,0.0200,0.0087,2025-06-09T13:39:12.586240
7342,-0.2059,0.5675,0.8218,-0.385,-2.940,0.140,0.01,0.0184,0.0254,0.0300,0.0087,2025-06-09T13:39:12.586240
7343,-0.2054,0.5651,0.8267,-0.910,-2.380,-0.455,0.01,0.0184,0.0508,0.0200,0.0087,2025-06-09T13:39:12.773739
7344,-0.2011,0.5617,0.8257,-0.665,-2.730,-0.490,0.00,0.0184,0.0508,0.0501,0.0087,2025-06-09T13:39:12.773739
7345,-0.2020,0.5597,0.8286,-0.700,-3.010,-0.280,0.00,0.0368,0.0254,0.0200,0.0262,2025-06-09T13:39:12.773739
7346,-0.2020,0.5529,0.8242,-0.210,-3.150,-0.035,0.00,0.0368,0.0508,0.0200,0.0087,2025-06-09T13:39:12.773739
7347,-0.2079,0.5519,0.8247,0.280,-2.870,0.455,0.00,0.0184,0.0508,0.0602,0.0087,2025-06-09T13:39:12.773739
7348,-0.2045,0.5583,0.8213,0.770,-2.310,0.595,0.00,0.0000,0.0254,0.0300,0.0087,2025-06-09T13:39:12.773739
7349,-0.2040,0.5632,0.8262,0.980,-2.065,0.560,0.01,0.0184,0.0254,0.0300,0.0174,2025-06-09T13:39:12.773739
7350,-0.2025,0.5666,0.8286,0.840,-2.520,0.350,0.00,0.0184,0.0254,0.0200,0.0174,2025-06-09T13:39:12.773739
7351,-0.2011,0.5685,0.8276,-0.070,-2.800,0.280,0.00,0.0184,0.0508,0.0100,0.0087,2025-06-09T13:39:12.773739
7352,-0.2030,0.5651,0.8252,-0.315,-3.080,-0.105,0.00,0.0368,0.0000,0.0200,0.0087,2025-06-09T13:39:12.773739
7353,-0.2050,0.5646,0.8267,-0.385,-2.870,-0.385,0.00,0.0000,0.0254,0.0300,0.0174,2025-06-09T13:39:12.773739
7354,-0.2040,0.5617,0.8276,-0.770,-2.660,-0.420,0.01,0.0184,0.0254,0.0100,0.0087,2025-06-09T13:39:12.773739
7355,-0.2030,0.5549,0.8242,-0.665,-2.835,-0.210,0.00,0.0184,0.0254,0.0300,0.0087,2025-06-09T13:39:12.773739
7356,-0.2040,0.5578,0.8237,-0.350,-2.765,0.000,0.01,0.0184,0.0254,0.0200,0.0087,2025-06-09T13:39:12.773739
7357,-0.2030,0.5578,0.8262,0.175,-2.835,0.280,0.01,0.0184,0.0000,0.0100,0.0174,2025-06-09T13:39:12.909376
7358,-0.2050,0.5583,0.8233,0.735,-2.660,0.315,0.00,0.0184,0.0508,0.0200,0.0087,2025-06-09T13:39:12.909376
7359,-0.2040,0.5602,0.8257,0.385,-2.485,0.315,0.00,0.0184,0.0508,0.0200,0.0087,2025-06-09T13:39:12.909376
7360,-0.2045,0.5632,0.8262,-0.175,-2.730,0.105,0.01,0.0184,0.0508,0.0100,0.0174,2025-06-09T13:39:12.909376
7361,-0.2006,0.5622,0.8262,-0.175,-2.835,0.105,0.00,0.0368,0.0000,0.0200,0.0087,2025-06-09T13:39:12.909376
7362,-0.2035,0.5612,0.8252,-0.035,-2.835,-0.035,0.00,0.0184,0.0508,0.0000,0.0087,2025-06-09T13:39:12.909376
7363,-0.2050,0.5592,0.8257,-0.070,-2.660,0.000,0.01,0.0184,0.0254,0.0100,0.0174,2025-06-09T13:39:12.909376
7364,-0.2054,0.5583,0.8272,0.035,-2.835,0.035,0.00,0.0368,0.0508,0.0000,0.0087,2025-06-09T13:39:12.909376
7365,-0.2040,0.5592,0.8242,-0.035,-2.695,0.210,0.00,0.0184,0.0000,0.0000,0.0262,2025-06-09T13:39:12.974226
7366,-0.2054,0.5607,0.8262,0.035,-2.555,0.210,0.00,0.0368,0.0254,0.0100,0.0174,2025-06-09T13:39:12.974226
7367,-0.2035,0.5646,0.8281,0.420,-2.695,0.245,0.00,0.0184,0.0508,0.0200,0.0087,2025-06-09T13:39:12.974226
7368,-0.2011,0.5612,0.8257,-0.035,-2.905,0.105,0.01,0.0184,0.0508,0.0200,0.0174,2025-06-09T13:39:12.974226
7369,-0.2040,0.5597,0.8223,-0.525,-2.940,-0.105,0.00,0.0368,0.0254,0.0200,0.0000,2025-06-09T13:39:12.974226
7370,-0.2050,0.5597,0.8257,-0.315,-2.905,-0.105,0.01,0.0184,0.0254,0.0200,0.0000,2025-06-09T13:39:12.974226
7371,-0.2025,0.5573,0.8247,-0.070,-2.520,-0.105,0.00,0.0184,0.0508,0.0200,0.0087,2025-06-09T13:39:12.974226
7372,-0.2025,0.5558,0.8228,-0.140,-2.625,0.140,0.00,0.0368,0.0508,0.0200,0.0087,2025-06-09T13:39:13.076951
7373,-0.2045,0.5588,0.8267,0.455,-2.905,0.315,0.00,0.0368,0.0508,0.0300,0.0087,2025-06-09T13:39:13.076951
7374,-0.2025,0.5612,0.8267,0.665,-2.590,0.455,0.00,0.0368,0.0254,0.0401,0.0174,2025-06-09T13:39:13.076951
7375,-0.2050,0.5607,0.8233,0.420,-2.450,0.280,0.01,0.0368,0.0508,0.0000,0.0174,2025-06-09T13:39:13.076951
7376,-0.2054,0.5636,0.8262,0.280,-2.695,0.245,0.01,0.0368,0.0508,0.0501,0.0000,2025-06-09T13:39:13.076951
7377,-0.2045,0.5617,0.8257,-0.140,-2.730,-0.035,0.00,0.0184,0.0762,0.0300,0.0087,2025-06-09T13:39:13.076951
7378,-0.2015,0.5602,0.8252,-0.385,-2.800,-0.105,0.00,0.0184,0.0508,0.0000,0.0087,2025-06-09T13:39:13.076951
7379,-0.2035,0.5612,0.8286,-0.105,-2.870,-0.070,0.01,0.0184,0.0254,0.0200,0.0087,2025-06-09T13:39:13.076951
7380,-0.2030,0.5578,0.8262,0.000,-2.695,-0.035,0.01,0.0368,0.0254,0.0200,0.0000,2025-06-09T13:39:13.209597
7381,-0.2025,0.5588,0.8257,0.140,-2.520,0.070,0.00,0.0368,0.0254,0.0200,0.0087,2025-06-09T13:39:13.209597
7382,-0.2035,0.5622,0.8262,0.315,-2.625,0.315,0.00,0.0184,0.0254,0.0300,0.0174,2025-06-09T13:39:13.209597
7383,-0.2015,0.5632,0.8252,0.245,-2.625,0.315,0.00,0.0184,0.0254,0.0200,0.0087,2025-06-09T13:39:13.209597
7384,-0.2015,0.5632,0.8247,0.000,-2.730,0.140,0.00,0.0184,0.0254,0.0300,0.0087,2025-06-09T13:39:13.209597
7385,-0.2054,0.5612,0.8257,-0.175,-2.835,-0.105,0.01,0.0184,0.0508,0.0300,0.0087,2025-06-09T13:39:13.209597
7386,-0.2035,0.5592,0.8252,-0.455,-2.730,-0.175,0.01,0.0368,0.0254,0.0300,0.0087,2025-06-09T13:39:13.209597
7387,-0.2030,0.5592,0.8252,-0.385,-2.520,-0.035,0.00,0.0184,0.0508,0.0000,0.0087,2025-06-09T13:39:13.209597
7388,-0.2035,0.5568,0.8276,0.315,-2.555,0.070,0.00,0.0184,0.0508,0.0200,0.0087,2025-06-09T13:39:13.209597
7389,-0.2015,0.5592,0.8242,0.455,-2.520,0.385,0.01,0.0184,0.0254,0.0200,0.0087,2025-06-09T13:39:13.209597
7390,-0.2035,0.5627,0.8252,0.280,-2.800,0.455,0.00,0.0184,0.0254,0.0401,0.0087,2025-06-09T13:39:13.392107
7391,-0.2050,0.5632,0.8262,0.280,-2.800,0.280,0.00,0.0368,0.0762,0.0200,0.0087,2025-06-09T13:39:13.392107
7392,-0.2040,0.5632,0.8247,0.245,-2.555,0.175,0.00,0.0368,0.0000,0.0000,0.0087,2025-06-09T13:39:13.392107
7393,-0.2011,0.5627,0.8247,-0.175,-2.590,-0.035,0.00,0.0368,0.0508,0.0100,0.0087,2025-06-09T13:39:13.392107
7394,-0.2040,0.5627,0.8281,-0.455,-2.905,0.035,0.00,0.0184,0.0254,0.0200,0.0087,2025-06-09T13:39:13.392107
7395,-0.2035,0.5602,0.8267,-0.280,-2.800,0.000,0.00,0.0368,0.0254,0.0300,0.0087,2025-06-09T13:39:13.392107
7396,-0.2011,0.5568,0.8233,0.070,-2.730,0.140,0.00,0.0184,0.0000,0.0300,0.0174,2025-06-09T13:39:13.392107
7397,-0.2025,0.5588,0.8262,0.280,-2.625,0.140,0.00,0.0184,0.0254,0.0000,0.0087,2025-06-09T13:39:13.392107
7398,-0.2025,0.5573,0.8228,0.140,-2.555,0.280,0.00,0.0184,0.0508,0.0200,0.0087,2025-06-09T13:39:13.392107
7399,-0.2015,0.5612,0.8237,0.175,-2.695,0.210,0.00,0.0184,0.0254,0.0401,0.0087,2025-06-09T13:39:13.392107
7400,-0.2030,0.5617,0.8257,0.175,-2.765,0.245,0.00,0.0000,0.0254,0.0000,0.0087,2025-06-09T13:39:13.392107
7401,-0.2025,0.5602,0.8257,0.175,-2.625,0.210,0.00,0.0000,0.0762,0.0200,0.0000,2025-06-09T13:39:13.392107
7402,-0.2025,0.5602,0.8228,-0.035,-2.800,0.105,0.00,0.0368,0.0254,0.0300,0.0087,2025-06-09T13:39:13.392107
7403,-0.2020,0.5612,0.8267,-0.245,-2.800,0.070,0.01,0.0368,0.0508,0.0401,0.0087,2025-06-09T13:39:13.505779
7404,-0.2020,0.5602,0.8252,-0.140,-2.695,0.000,0.01,0.0184,0.0508,0.0401,0.0087,2025-06-09T13:39:13.506782
7405,-0.2040,0.5588,0.8257,0.175,-2.660,0.105,0.01,0.0184,0.0254,0.0200,0.0000,2025-06-09T13:39:13.506782
7406,-0.2050,0.5592,0.8262,0.175,-2.800,0.175,0.00,0.0368,0.0254,0.0100,0.0174,2025-06-09T13:39:13.506782
7407,-0.2040,0.5612,0.8252,0.000,-2.590,0.140,0.00,0.0368,0.0762,0.0200,0.0087,2025-06-09T13:39:13.506782
7408,-0.2050,0.5617,0.8262,-0.070,-2.695,0.070,0.00,0.0184,0.0508,0.0200,0.0087,2025-06-09T13:39:13.506782
7409,-0.2054,0.5612,0.8242,-0.070,-2.800,0.000,0.01,0.0184,0.0508,0.0401,0.0174,2025-06-09T13:39:13.506782
7410,-0.2020,0.5597,0.8247,-0.105,-2.625,0.070,0.00,0.0368,0.0254,0.0000,0.0262,2025-06-09T13:39:13.506782
7411,-0.2040,0.5612,0.8242,-8.855,-2.625,0.035,0.01,0.0368,0.0000,0.0200,0.0087,2025-06-09T13:39:13.588582
7412,-0.2025,0.5612,0.8262,0.000,-2.730,0.070,0.00,0.0184,0.0254,0.0000,0.0087,2025-06-09T13:39:13.588582
7413,-0.2040,0.5583,0.8233,-0.280,-2.765,0.105,0.00,0.0184,0.0508,0.0200,0.0087,2025-06-09T13:39:13.588582
7414,-0.2045,0.5588,0.8247,-8.960,-2.835,0.105,0.00,0.0368,0.1018,0.0401,0.0174,2025-06-09T13:39:13.588582
7415,-0.2050,0.5588,0.8272,0.210,-2.660,0.105,0.01,0.0184,0.0254,0.0300,0.0174,2025-06-09T13:39:13.588582
7416,-0.2030,0.5612,0.8262,0.175,-2.450,0.210,0.01,0.0184,0.0508,0.0100,0.0087,2025-06-09T13:39:13.588582
7417,-0.2030,0.5627,0.8252,-0.035,-2.835,0.070,0.00,0.0184,0.0254,0.0300,0.0087,2025-06-09T13:39:13.588582
7418,-0.2045,0.5612,0.8272,-0.175,-2.765,0.210,0.01,0.0184,0.0508,0.0000,0.0174,2025-06-09T13:39:13.696295
7419,-0.2030,0.5588,0.8247,0.035,-2.695,0.035,0.01,0.0184,0.0254,0.0200,0.0087,2025-06-09T13:39:13.696295
7420,-0.2030,0.5592,0.8252,0.070,-2.765,0.035,0.01,0.0184,0.0254,0.0200,0.0087,2025-06-09T13:39:13.696295
7421,-0.2040,0.5592,0.8267,-0.210,-2.765,0.035,0.01,0.0184,0.0508,0.0300,0.0174,2025-06-09T13:39:13.696295
7422,-0.2030,0.5617,0.8252,0.105,-2.590,0.140,0.01,0.0368,0.0508,0.0300,0.0000,2025-06-09T13:39:13.696295
7423,-0.2020,0.5602,0.8262,0.140,-2.730,0.105,0.01,0.0368,0.0254,0.0000,0.0087,2025-06-09T13:39:13.696295
7424,-0.2030,0.5607,0.8252,-0.105,-2.975,0.175,0.01,0.0184,0.0254,0.0200,0.0087,2025-06-09T13:39:13.696295
7425,-0.2030,0.5592,0.8257,-0.035,-2.800,0.105,0.00,0.0184,0.0254,0.0200,0.0174,2025-06-09T13:39:13.699286
7426,-0.2035,0.5612,0.8242,0.000,-2.835,0.000,0.01,0.0000,0.0254,0.0200,0.0087,2025-06-09T13:39:13.850857
7427,-0.2035,0.5592,0.8247,-0.175,-2.625,0.000,0.00,0.0184,0.0762,0.0100,0.0087,2025-06-09T13:39:13.850857
7428,-0.2030,0.5602,0.8272,-0.070,-2.555,0.105,0.01,0.0184,0.0254,0.0000,0.0174,2025-06-09T13:39:13.850857
7429,-0.2025,0.5583,0.8267,0.105,-2.660,0.140,0.01,0.0368,0.0254,0.0100,0.0174,2025-06-09T13:39:13.850857
7430,-0.2030,0.5602,0.8262,0.105,-2.870,0.280,0.00,0.0184,0.0508,0.0000,0.0174,2025-06-09T13:39:13.850857
7431,-0.2025,0.5617,0.8257,0.175,-2.695,0.140,0.00,0.0368,0.0254,0.0300,0.0000,2025-06-09T13:39:13.850857
7432,-0.2030,0.5607,0.8257,0.070,-2.730,0.070,0.00,0.0184,0.0000,0.0501,0.0000,2025-06-09T13:39:13.850857
7433,-0.2035,0.5612,0.8228,-0.035,-2.590,0.035,0.00,0.0184,0.0508,0.0300,0.0174,2025-06-09T13:39:13.850857
7434,-0.2030,0.5612,0.8257,-0.070,-2.555,0.105,0.01,0.0368,0.0508,0.0100,0.0174,2025-06-09T13:39:13.850857
7435,-0.2015,0.5602,0.8291,0.000,-2.590,-0.035,0.00,0.0184,0.0762,0.0000,0.0174,2025-06-09T13:39:13.850857
7436,-0.2030,0.5617,0.8257,-0.035,-2.940,0.070,0.01,0.0184,0.0508,0.0200,0.0174,2025-06-09T13:39:13.850857
7437,-0.2025,0.5588,0.8242,-0.245,-2.940,0.140,0.00,0.0368,0.0508,0.0200,0.0174,2025-06-09T13:39:14.027408
7438,-0.2040,0.5588,0.8267,0.000,-2.730,0.070,0.00,0.0368,0.0762,0.0100,0.0087,2025-06-09T13:39:14.027408
7439,-0.2035,0.5597,0.8252,0.000,-2.625,0.105,0.00,0.0184,0.0254,0.0501,0.0087,2025-06-09T13:39:14.027408
7440,-0.2025,0.5607,0.8257,0.000,-2.485,0.140,0.01,0.0184,0.0508,0.0200,0.0174,2025-06-09T13:39:14.027408
7441,-0.2035,0.5612,0.8281,-0.035,-2.730,0.210,0.01,0.0368,0.0508,0.0100,0.0174,2025-06-09T13:39:14.027408
7442,-0.2025,0.5602,0.8252,0.210,-2.765,0.210,0.01,0.0368,0.0762,0.0200,0.0174,2025-06-09T13:39:14.027408
7443,-0.2015,0.5612,0.8242,0.280,-2.660,0.210,0.00,0.0368,0.0508,0.0300,0.0174,2025-06-09T13:39:14.027408
7444,-0.2030,0.5622,0.8272,0.035,-2.625,0.070,0.00,0.0184,0.0508,0.0300,0.0087,2025-06-09T13:39:14.027408
7445,-0.2025,0.5612,0.8247,-0.105,-2.625,0.000,0.00,0.0184,0.0508,0.0000,0.0087,2025-06-09T13:39:14.027408
7446,-0.2025,0.5617,0.8228,-0.140,-2.835,0.000,0.00,0.0184,0.0508,0.0200,0.0087,2025-06-09T13:39:14.027408
7447,-0.2050,0.5592,0.8257,-0.070,-2.835,0.175,0.00,0.0368,0.0000,0.0100,0.0174,2025-06-09T13:39:14.027408
7448,-0.2050,0.5597,0.8252,0.140,-2.660,0.105,0.00,0.0184,0.0254,0.0200,0.0000,2025-06-09T13:39:14.027408
7449,-0.2050,0.5588,0.8252,0.280,-2.660,0.105,0.01,0.0368,0.0508,0.0000,0.0174,2025-06-09T13:39:14.027408
7450,-0.2045,0.5568,0.8247,-0.105,-2.660,0.280,0.00,0.0368,0.0508,0.0200,0.0174,2025-06-09T13:39:14.209900
7451,-0.2025,0.5583,0.8276,0.070,-2.590,0.245,0.00,0.0368,0.0508,0.0200,0.0174,2025-06-09T13:39:14.209900
7452,-0.2045,0.5588,0.8262,0.735,-2.380,0.280,0.00,0.0184,0.0508,0.0200,0.0087,2025-06-09T13:39:14.209900
7453,-0.2020,0.5578,0.8228,0.280,-2.485,0.245,0.01,0.0368,0.0508,0.0100,0.0174,2025-06-09T13:39:14.209900
7454,-0.2050,0.5602,0.8247,0.350,-2.345,0.175,0.01,0.0184,0.0000,0.0200,0.0087,2025-06-09T13:39:14.209900
7455,-0.2020,0.5588,0.8233,0.455,-2.205,-0.035,0.00,0.0184,0.0508,0.0100,0.0087,2025-06-09T13:39:14.209900
7456,-0.2030,0.5607,0.8233,0.280,-1.610,-0.105,0.00,0.0184,0.0254,0.1109,0.0174,2025-06-09T13:39:14.209900
7457,-0.2147,0.5661,0.8296,1.015,-1.750,0.595,0.00,0.0184,0.0254,0.0300,0.0174,2025-06-09T13:39:14.209900
7458,-0.2113,0.5739,0.8428,1.680,-2.170,0.875,0.00,0.0000,0.0254,0.0100,0.0087,2025-06-09T13:39:14.209900
7459,-0.1981,0.5768,0.8301,-0.595,-2.485,0.000,0.00,0.0184,0.0254,0.0200,0.0087,2025-06-09T13:39:14.209900
7460,-0.2001,0.5700,0.8262,-2.730,-4.795,-0.455,0.00,0.0184,0.0508,0.0200,0.0000,2025-06-09T13:39:14.209900
7461,-0.1981,0.5553,0.8198,-2.415,-4.270,-1.120,0.00,0.0184,0.0254,0.0300,0.0087,2025-06-09T13:39:14.209900
7462,-0.2108,0.5490,0.8086,-0.980,-3.010,-1.190,0.00,0.0368,0.0000,0.0000,0.0087,2025-06-09T13:39:14.209900
7463,-0.2142,0.5470,0.8276,0.245,-1.645,-0.735,0.00,0.0184,0.0254,0.0100,0.0087,2025-06-09T13:39:14.209900
7464,-0.2025,0.5461,0.8306,-0.105,-1.365,0.315,0.00,0.0000,0.0000,0.0300,0.0174,2025-06-09T13:39:14.422371
7465,-0.1957,0.5480,0.8262,-0.175,-3.465,1.435,0.01,0.0368,0.0508,0.0401,0.0087,2025-06-09T13:39:14.422371
7466,-0.1962,0.5597,0.8247,2.310,-3.185,1.960,0.01,0.0184,0.0508,0.0300,0.0087,2025-06-09T13:39:14.422371
7467,-0.2079,0.5705,0.8272,4.200,-1.785,1.260,0.00,0.0000,0.0508,0.0100,0.0087,2025-06-09T13:39:14.422371
7468,-0.2108,0.5758,0.8228,1.470,-1.820,0.210,0.00,0.0368,0.0508,0.0401,0.0087,2025-06-09T13:39:14.422371
7469,-0.2069,0.5827,0.8301,-2.380,-2.730,-0.420,0.01,0.0184,0.0508,0.0000,0.0087,2025-06-09T13:39:14.422371
7470,-0.1986,0.5817,0.8355,-3.535,-3.710,-0.840,0.00,0.0368,0.0254,0.0300,0.0087,2025-06-09T13:39:14.422371
7471,-0.1962,0.5680,0.8301,-2.065,-4.060,-1.295,0.00,0.0184,0.0254,0.0100,0.0087,2025-06-09T13:39:14.422371
7472,-0.2035,0.5505,0.8164,-1.645,-4.550,-1.435,0.01,0.0368,0.0508,0.0100,0.0087,2025-06-09T13:39:14.422371
7473,-0.2074,0.5441,0.8150,-1.785,-3.920,-0.945,0.00,0.0368,0.0254,0.0200,0.0087,2025-06-09T13:39:14.582898
7474,-0.2089,0.5407,0.8252,-1.435,-1.995,-0.735,0.00,0.0184,0.0508,0.0000,0.0087,2025-06-09T13:39:14.582898
7475,-0.2050,0.5466,0.8242,0.525,-1.435,0.070,0.00,0.0368,0.0508,0.0300,0.0087,2025-06-09T13:39:14.582898
7476,-0.1991,0.5529,0.8281,1.435,-2.170,1.260,0.01,0.0368,0.0508,0.0200,0.0087,2025-06-09T13:39:14.582898
7477,-0.1972,0.5602,0.8262,1.925,-3.115,1.365,0.01,0.0184,0.0254,0.0300,0.0087,2025-06-09T13:39:14.582898
7478,-0.2054,0.5651,0.8252,1.435,-3.185,0.875,0.00,0.0368,0.0254,0.0200,0.0087,2025-06-09T13:39:14.582898
7479,-0.2084,0.5661,0.8194,0.350,-2.380,0.000,0.00,0.0368,0.1018,0.0200,0.0174,2025-06-09T13:39:14.582898
7480,-0.2035,0.5646,0.8267,-0.875,-2.030,-0.595,0.01,0.0184,0.0508,0.0401,0.0174,2025-06-09T13:39:14.582898
7481,-0.2020,0.5632,0.8330,-1.085,-2.695,-0.420,0.00,0.0184,0.0254,0.0200,0.0174,2025-06-09T13:39:14.582898
7482,-0.2001,0.5597,0.8311,-0.420,-3.430,0.000,0.00,0.0184,0.0254,0.0200,0.0174,2025-06-09T13:39:14.582898
7483,-0.2040,0.5573,0.8247,0.140,-3.570,0.350,0.01,0.0552,0.0000,0.0100,0.0174,2025-06-09T13:39:14.582898
7484,-0.2059,0.5539,0.8228,0.350,-2.975,0.315,0.00,0.0368,0.0508,0.0200,0.0174,2025-06-09T13:39:14.644732
7485,-0.2064,0.5563,0.8242,0.315,-1.995,0.000,0.00,0.0368,0.0000,0.0100,0.0087,2025-06-09T13:39:14.644732
7486,-0.2040,0.5617,0.8281,0.000,-1.855,-0.070,0.00,0.0368,0.0000,0.0300,0.0087,2025-06-09T13:39:14.644732
7487,-0.2006,0.5636,0.8301,-0.280,-2.450,0.140,0.01,0.0368,0.0254,0.0200,0.0087,2025-06-09T13:39:14.644732
7488,-0.2025,0.5617,0.8281,-0.035,-3.325,0.035,0.01,0.0368,0.0508,0.0100,0.0087,2025-06-09T13:39:14.644732
7489,-0.2035,0.5597,0.8233,-0.175,-3.185,0.070,0.00,0.0368,0.0254,0.0100,0.0087,2025-06-09T13:39:14.644732
7490,-0.2069,0.5544,0.8213,-0.140,-2.450,-0.105,0.00,0.0184,0.0254,0.0200,0.0174,2025-06-09T13:39:14.644732
7491,-0.2059,0.5539,0.8237,-0.035,-2.030,-0.070,0.00,0.0184,0.0254,0.0200,0.0087,2025-06-09T13:39:14.644732
7492,-0.2040,0.5568,0.8272,0.070,-2.065,0.280,0.00,0.0000,0.0508,0.0000,0.0087,2025-06-09T13:39:14.644732
7493,-0.2006,0.5597,0.8276,0.595,-2.695,0.525,0.00,0.0184,0.0508,0.0200,0.0087,2025-06-09T13:39:14.644732
7494,-0.2015,0.5622,0.8257,0.875,-3.045,0.630,0.01,0.0184,0.0254,0.0000,0.0087,2025-06-09T13:39:14.644732
7495,-0.2059,0.5597,0.8237,0.560,-2.765,0.350,0.01,0.0368,0.0254,0.0200,0.0087,2025-06-09T13:39:14.831258
7496,-0.2079,0.5612,0.8242,0.000,-2.415,0.140,0.00,0.0368,0.0254,0.0000,0.0174,2025-06-09T13:39:14.831258
7497,-0.2040,0.5617,0.8267,-0.245,-2.310,0.000,0.00,0.0368,0.0508,0.0200,0.0087,2025-06-09T13:39:14.831258
7498,-0.2015,0.5612,0.8291,-0.175,-2.485,0.140,0.00,0.0184,0.0508,0.0000,0.0000,2025-06-09T13:39:14.831258
7499,-0.2011,0.5617,0.8296,0.105,-3.010,0.245,0.01,0.0184,0.0254,0.0100,0.0174,2025-06-09T13:39:14.831258
7500,-0.2030,0.5597,0.8257,0.245,-3.220,0.315,0.00,0.0368,0.0000,0.0100,0.0087,2025-06-09T13:39:14.831258
7501,-0.2050,0.5588,0.8237,0.210,-2.800,0.245,0.00,0.0368,0.0762,0.0000,0.0087,2025-06-09T13:39:14.832230
7502,-0.2064,0.5597,0.8247,0.245,-2.275,0.070,0.00,0.0184,0.0254,0.0200,0.0174,2025-06-09T13:39:14.832230
7503,-0.2050,0.5607,0.8272,0.175,-2.240,0.175,0.00,0.0184,0.0254,0.0100,0.0087,2025-06-09T13:39:14.832230
7504,-0.2015,0.5622,0.8281,0.105,-2.625,0.350,0.00,0.0368,0.0254,0.0100,0.0087,2025-06-09T13:39:14.832230
7505,-0.2015,0.5632,0.8281,0.315,-3.080,0.350,0.00,0.0184,0.0000,0.0100,0.0087,2025-06-09T13:39:14.832230
7506,-0.2064,0.5607,0.8252,0.350,-2.940,0.245,0.00,0.0552,0.0762,0.0100,0.0087,2025-06-09T13:39:14.832230
7507,-0.2050,0.5597,0.8247,-0.070,-2.520,0.105,0.00,0.0368,0.0254,0.0300,0.0087,2025-06-09T13:39:14.832230
7508,-0.2050,0.5578,0.8272,-0.105,-2.485,0.000,0.01,0.0368,0.0254,0.0401,0.0000,2025-06-09T13:39:14.832230
7509,-0.2011,0.5597,0.8267,-0.070,-2.590,0.035,0.00,0.0184,0.0254,0.0200,0.0087,2025-06-09T13:39:14.832230
7510,-0.2001,0.5602,0.8262,0.105,-2.800,0.175,0.00,0.0368,0.0508,0.0300,0.0087,2025-06-09T13:39:14.832230
7511,-0.2030,0.5607,0.8272,0.385,-2.835,0.315,0.00,0.0368,0.0508,0.0200,0.0087,2025-06-09T13:39:15.025738
7512,-0.2054,0.5588,0.8252,0.245,-2.730,0.105,0.00,0.0368,0.0762,0.0200,0.0087,2025-06-09T13:39:15.025738
7513,-0.2045,0.5607,0.8228,-0.105,-2.590,0.140,0.00,0.0184,0.0254,0.0000,0.0087,2025-06-09T13:39:15.025738
7514,-0.2040,0.5612,0.8237,0.035,-2.590,0.105,0.00,0.0368,0.0762,0.0100,0.0174,2025-06-09T13:39:15.025738
7515,-0.2035,0.5612,0.8272,0.350,-2.625,0.140,0.00,0.0184,0.0254,0.0200,0.0087,2025-06-09T13:39:15.025738
7516,-0.2050,0.5602,0.8267,0.245,-2.695,0.210,0.00,0.0368,0.0508,0.0100,0.0000,2025-06-09T13:39:15.025738
7517,-0.2035,0.5617,0.8262,0.105,-3.010,0.210,0.01,0.0368,0.0508,0.0200,0.0087,2025-06-09T13:39:15.025738
7518,-0.2035,0.5632,0.8281,0.140,-2.765,0.210,0.01,0.0368,0.0508,0.0100,0.0087,2025-06-09T13:39:15.025738
7519,-0.2040,0.5617,0.8267,0.140,-2.450,0.175,0.00,0.0000,0.0508,0.0000,0.0087,2025-06-09T13:39:15.025738
7520,-0.2035,0.5602,0.8262,0.210,-2.555,0.140,0.01,0.0184,0.0254,0.0000,0.0000,2025-06-09T13:39:15.025738
7521,-0.2040,0.5641,0.8281,-0.035,-2.835,0.175,0.00,0.0184,0.0508,0.0000,0.0087,2025-06-09T13:39:15.025738
7522,-0.2040,0.5617,0.8228,-0.105,-2.835,0.175,0.00,0.0184,0.0254,0.0401,0.0174,2025-06-09T13:39:15.025738
7523,-0.2059,0.5622,0.8247,0.070,-2.765,0.070,0.01,0.0368,0.0254,0.0200,0.0087,2025-06-09T13:39:15.025738
7524,-0.2064,0.5602,0.8252,0.105,-2.625,0.175,0.00,0.0184,0.0254,0.0200,0.0000,2025-06-09T13:39:15.025738
7525,-0.2045,0.5588,0.8252,0.035,-2.590,0.105,0.00,0.0184,0.1273,0.0300,0.0087,2025-06-09T13:39:15.025738
7526,-0.2025,0.5617,0.8267,0.140,-2.730,0.175,0.01,0.0184,0.0508,0.0200,0.0087,2025-06-09T13:39:15.228173
7527,-0.2040,0.5602,0.8262,0.035,-2.695,0.175,0.00,0.0368,0.0762,0.0906,0.0087,2025-06-09T13:39:15.228173
7528,-0.2045,0.5602,0.8262,0.245,-2.660,0.245,0.01,0.0184,0.0508,0.0000,0.0087,2025-06-09T13:39:15.228173
7529,-0.2040,0.5602,0.8262,0.280,-2.625,0.105,0.01,0.0184,0.0508,0.0401,0.0087,2025-06-09T13:39:15.228173
7530,-0.2045,0.5622,0.8247,-0.105,-2.450,0.140,0.01,0.0184,0.0508,0.0401,0.0087,2025-06-09T13:39:15.228173
7531,-0.2035,0.5636,0.8257,0.035,-2.625,0.140,0.00,0.0184,0.0000,0.0100,0.0087,2025-06-09T13:39:15.228173
7532,-0.2030,0.5597,0.8252,-0.035,-2.975,0.105,0.00,0.0184,0.0254,0.0100,0.0087,2025-06-09T13:39:15.228173
7533,-0.2035,0.5573,0.8237,-0.210,-2.870,0.105,0.00,0.0184,0.0508,0.0200,0.0174,2025-06-09T13:39:15.228173
7534,-0.2069,0.5529,0.8213,0.035,-3.010,0.245,0.00,0.0184,0.0508,0.0703,0.0087,2025-06-09T13:39:15.228173
7535,-0.2035,0.5519,0.8218,0.280,-2.905,0.385,0.00,0.0184,0.0254,0.0000,0.0000,2025-06-09T13:39:15.228173
7536,-0.2020,0.5514,0.8242,0.560,-2.380,0.700,0.01,0.0184,0.0254,0.0300,0.0087,2025-06-09T13:39:15.228173
7537,-0.2045,0.5553,0.8272,1.680,-2.310,1.050,0.00,0.0184,0.0254,0.0000,0.0000,2025-06-09T13:39:15.228173
7538,-0.2040,0.5597,0.8223,1.785,-2.555,1.470,0.00,0.0184,0.0000,0.0100,0.0087,2025-06-09T13:39:15.228173
7539,-0.2006,0.5690,0.8252,1.400,-2.380,1.365,0.00,0.0184,0.0254,0.0200,0.0174,2025-06-09T13:39:15.228173
7540,-0.2054,0.5797,0.8355,1.960,-1.785,0.805,0.00,0.0184,0.0508,0.0000,0.0174,2025-06-09T13:39:15.228173
7541,-0.2069,0.5827,0.8355,0.770,-2.205,0.175,0.01,0.0184,0.0254,0.0100,0.0174,2025-06-09T13:39:15.367799
7542,-0.2015,0.5812,0.8252,-1.540,-3.325,-0.630,0.00,0.0368,0.0508,0.0100,0.0087,2025-06-09T13:39:15.367799
7543,-0.2045,0.5783,0.8286,-3.115,-3.990,-1.120,0.00,0.0000,0.0000,0.0200,0.0087,2025-06-09T13:39:15.367799
7544,-0.2054,0.5700,0.8301,-2.485,-3.920,-1.750,0.00,0.0184,0.0508,0.0100,0.0087,2025-06-09T13:39:15.367799
7545,-0.2059,0.5583,0.8228,-2.835,-3.535,-2.205,0.00,0.0184,0.0254,0.0100,0.0087,2025-06-09T13:39:15.367799
7546,-0.2040,0.5470,0.8237,-3.395,-3.745,-1.785,0.00,0.0184,0.0254,0.0000,0.0087,2025-06-09T13:39:15.367799
7547,-0.2050,0.5456,0.8267,-2.450,-3.535,-0.980,0.00,0.0184,0.0508,0.0000,0.0087,2025-06-09T13:39:15.367799
7548,-0.2015,0.5485,0.8242,-0.350,-2.835,-0.210,0.00,0.0368,0.0254,0.0100,0.0087,2025-06-09T13:39:15.460574
7549,-0.2045,0.5534,0.8242,1.225,-2.765,0.280,0.01,0.0184,0.0508,0.0100,0.0087,2025-06-09T13:39:15.460574
7550,-0.2069,0.5597,0.8301,0.455,-2.905,0.350,0.01,0.0184,0.0000,0.0100,0.0087,2025-06-09T13:39:15.460574
7551,-0.2030,0.5636,0.8262,-0.700,-3.395,0.175,0.01,0.0368,0.0254,0.0000,0.0087,2025-06-09T13:39:15.460574
7552,-0.2030,0.5666,0.8237,-1.260,-3.780,-0.245,0.01,0.0368,0.0000,0.0401,0.0087,2025-06-09T13:39:15.460574
7553,-0.2035,0.5622,0.8262,-1.120,-3.780,-0.630,0.00,0.0184,0.0508,0.0300,0.0087,2025-06-09T13:39:15.460574
7554,-0.1996,0.5558,0.8272,-1.190,-3.465,-0.910,0.00,0.0368,0.0254,0.0100,0.0174,2025-06-09T13:39:15.460574
7555,-0.2025,0.5490,0.8262,-1.610,-3.675,-0.805,0.01,0.0368,0.0254,0.0401,0.0087,2025-06-09T13:39:15.460574
7556,-0.2025,0.5480,0.8272,-1.155,-3.465,-0.315,0.00,0.0368,0.0254,0.0100,0.0087,2025-06-09T13:39:15.460574
7557,-0.2045,0.5466,0.8262,-0.105,-2.975,0.350,0.00,0.0368,0.0254,0.0100,0.0174,2025-06-09T13:39:15.460574
7558,-0.2059,0.5490,0.8257,1.260,-3.220,0.875,0.01,0.0184,0.0762,0.0401,0.0087,2025-06-09T13:39:15.551308
7559,-0.2006,0.5568,0.8276,1.190,-2.695,1.050,0.01,0.0184,0.0000,0.0000,0.0174,2025-06-09T13:39:15.552305
7560,-0.2025,0.5627,0.8330,1.050,-2.800,0.770,0.00,0.0184,0.0000,0.0000,0.0087,2025-06-09T13:39:15.552305
7561,-0.2015,0.5690,0.8296,0.770,-3.290,0.735,0.00,0.0368,0.0762,0.0300,0.0174,2025-06-09T13:39:15.552305
7562,-0.1981,0.5690,0.8267,-0.350,-3.500,0.280,0.00,0.0368,0.0508,0.0100,0.0174,2025-06-09T13:39:15.552305
7563,-0.2040,0.5724,0.8340,-0.560,-3.605,-0.525,0.00,0.0184,0.0762,0.0401,0.0087,2025-06-09T13:39:15.552305
7564,-0.2040,0.5700,0.8345,-1.155,-3.290,-1.225,0.01,0.0368,0.0000,0.0200,0.0174,2025-06-09T13:39:15.552305
7565,-0.2001,0.5651,0.8335,-2.275,-3.185,-1.680,0.01,0.0184,0.0254,0.0100,0.0174,2025-06-09T13:39:15.643062
7566,-0.2011,0.5612,0.8291,-3.605,-2.975,-2.030,0.00,0.0552,0.0762,0.0100,0.0087,2025-06-09T13:39:15.643062
7567,-0.2001,0.5500,0.8252,-3.115,-3.430,-1.820,0.01,0.0184,0.0508,0.0200,0.0174,2025-06-09T13:39:15.643062
7568,-0.2025,0.5422,0.8213,-1.715,-3.220,-1.365,0.00,0.0184,0.0000,0.0200,0.0087,2025-06-09T13:39:15.643062
7569,-0.2059,0.5407,0.8198,-0.035,-2.765,-0.595,0.00,0.0368,0.0508,0.0300,0.0087,2025-06-09T13:39:15.643062
7570,-0.2064,0.5461,0.8350,0.210,-1.750,-0.210,0.00,0.0000,0.0508,0.0200,0.0087,2025-06-09T13:39:15.643062
7571,-0.2054,0.5490,0.8281,0.210,-1.505,0.105,0.00,0.0368,0.0508,0.0300,0.0174,2025-06-09T13:39:15.643062
7572,-0.2006,0.5519,0.8223,0.210,-2.870,0.840,0.01,0.0000,0.0762,0.0300,0.0087,2025-06-09T13:39:15.742794
7573,-0.2025,0.5549,0.8257,0.910,-2.940,0.980,0.00,0.0184,0.1018,0.0300,0.0174,2025-06-09T13:39:15.742794
7574,-0.2069,0.5612,0.8301,1.925,-2.450,0.525,0.00,0.0184,0.0254,0.0401,0.0174,2025-06-09T13:39:15.742794
7575,-0.2069,0.5617,0.8272,1.225,-2.030,0.000,0.01,0.0184,0.0508,0.0200,0.0087,2025-06-09T13:39:15.742794
7576,-0.2025,0.5617,0.8330,-1.050,-2.450,-0.175,0.00,0.0184,0.1018,0.0200,0.0087,2025-06-09T13:39:15.742794
7577,-0.2025,0.5666,0.8364,-1.260,-3.115,-0.105,0.01,0.0184,0.0508,0.0300,0.0087,2025-06-09T13:39:15.742794
7578,-0.2025,0.5646,0.8325,0.175,-3.185,0.105,0.01,0.0368,0.0254,0.0200,0.0087,2025-06-09T13:39:15.742794
7579,-0.2006,0.5632,0.8301,0.245,-3.185,-0.140,0.00,0.0184,0.0508,0.0300,0.0174,2025-06-09T13:39:15.841532
7580,-0.2059,0.5617,0.8296,-1.120,-3.010,-0.735,0.01,0.0368,0.0508,0.0000,0.0174,2025-06-09T13:39:15.841532
7581,-0.2035,0.5588,0.8291,-2.100,-3.185,-1.085,0.00,0.0368,0.0254,0.0200,0.0174,2025-06-09T13:39:15.841532
7582,-0.2050,0.5558,0.8340,-1.715,-3.290,-1.260,0.00,0.0000,0.0508,0.0200,0.0087,2025-06-09T13:39:15.841532
7583,-0.2006,0.5510,0.8213,-2.065,-2.730,-1.120,0.00,0.0184,0.0508,0.0200,0.0087,2025-06-09T13:39:15.841532
7584,-0.2025,0.5480,0.8296,-0.980,-3.605,-0.875,0.01,0.0184,0.0508,0.0200,0.0087,2025-06-09T13:39:15.841532
7585,-0.2074,0.5490,0.8306,-0.945,-2.520,-0.630,0.00,0.0184,0.0508,0.0200,0.0174,2025-06-09T13:39:15.841532
7586,-0.1996,0.5451,0.8286,-0.595,-2.485,-0.420,0.01,0.0184,0.0508,0.0300,0.0087,2025-06-09T13:39:15.841532
7587,-0.2054,0.5431,0.8242,-0.805,-3.150,-0.280,0.00,0.0368,0.0508,0.0100,0.0000,2025-06-09T13:39:15.954255
7588,-0.2069,0.5505,0.8252,-0.420,-2.765,0.210,0.00,0.0368,0.0508,0.0200,0.0087,2025-06-09T13:39:15.954255
7589,-0.2074,0.5534,0.8345,0.735,-2.800,0.350,0.01,0.0368,0.0508,0.0401,0.0087,2025-06-09T13:39:15.954255
7590,-0.2035,0.5524,0.8272,0.140,-3.290,0.315,0.00,0.0184,0.1529,0.0100,0.0174,2025-06-09T13:39:15.954255
7591,-0.2030,0.5529,0.8276,-0.630,-3.605,0.350,0.01,0.0184,0.0508,0.0200,0.0087,2025-06-09T13:39:15.954255
7592,-0.2035,0.5529,0.8296,-0.140,-3.325,0.455,0.01,0.0184,0.0254,0.0300,0.0087,2025-06-09T13:39:15.954255
7593,-0.2035,0.5495,0.8291,0.910,-2.870,0.315,0.01,0.0368,0.0254,0.0100,0.0174,2025-06-09T13:39:15.954255
7594,-0.2030,0.5505,0.8286,0.595,-2.870,0.420,0.00,0.0184,0.0508,0.0200,0.0174,2025-06-09T13:39:15.954255
7595,-0.0039,-0.5470,0.4036,-41.370,-65.765,32.725,0.01,0.0368,0.0508,0.0000,0.0087,2025-06-09T13:39:16.046981
7596,0.0249,0.0254,1.1629,-8.890,-57.785,43.505,0.00,0.0184,0.0254,0.0300,0.0087,2025-06-09T13:39:16.046981
7597,0.0434,0.0493,0.5958,73.920,-60.270,35.280,0.01,0.0184,0.1529,0.0401,0.0087,2025-06-09T13:39:16.046981
7598,-0.1928,0.6466,0.9189,213.325,-36.015,43.960,0.00,0.0184,0.0508,0.0100,0.0087,2025-06-09T13:39:16.046981
7599,-0.4211,0.7993,0.6808,213.990,-36.330,30.345,0.00,0.0368,0.0762,0.0300,0.0087,2025-06-09T13:39:16.046981
7600,-0.5495,0.8911,0.6559,116.935,15.190,39.970,0.00,0.0368,0.0000,0.0300,0.0087,2025-06-09T13:39:16.046981
7601,-0.4597,1.1141,1.2019,141.400,15.925,15.820,0.00,0.0184,0.0254,0.0200,0.0174,2025-06-09T13:39:16.046981
7602,-0.3455,1.4137,1.2732,205.660,49.420,-19.145,0.01,0.0184,0.0508,0.0100,0.0174,2025-06-09T13:39:16.182647
7603,-0.3011,1.2468,1.0756,200.305,30.345,-55.965,0.00,0.0368,0.0508,0.0300,0.0087,2025-06-09T13:39:16.182647
7604,-0.4265,1.0560,1.2000,62.580,-37.520,-65.800,0.00,0.0184,0.0508,0.0100,0.0174,2025-06-09T13:39:16.182647
7605,0.3123,1.4445,-0.2157,-352.030,-119.630,-201.810,0.01,0.0368,0.0254,0.0200,0.0174,2025-06-09T13:39:16.182647
7606,0.3582,0.3055,0.3548,-580.580,-25.865,-271.145,0.00,0.0184,0.0000,0.0100,0.0087,2025-06-09T13:39:16.182647
7607,-1.1712,-3.4809,2.8460,-242.480,129.780,-130.620,0.00,0.0184,0.0254,0.0401,0.0087,2025-06-09T13:39:16.182647
7608,-1.7222,1.7612,-1.0150,443.205,127.330,-80.255,0.01,0.0184,0.0254,0.0100,0.0174,2025-06-09T13:39:16.182647
7609,0.0322,1.1605,2.3712,812.700,138.040,95.445,0.00,0.0368,0.2043,0.0300,0.0087,2025-06-09T13:39:16.182647
7610,-1.6724,1.2166,2.1399,598.535,-215.845,219.905,0.00,0.0184,0.0508,0.0401,0.0087,2025-06-09T13:39:16.182647
7611,-2.1628,0.7413,0.9374,-5.845,-254.835,242.795,0.00,0.0184,0.0254,0.0300,0.0174,2025-06-09T13:39:16.182647
7612,-1.9310,0.9101,0.9726,-283.955,-499.275,127.155,0.00,0.0184,0.0762,0.0200,0.0087,2025-06-09T13:39:16.266395
7613,-1.6465,3.4106,1.5626,-235.970,-479.710,450.590,0.00,0.0368,0.0508,0.0200,0.0087,2025-06-09T13:39:16.266395
7614,-1.3615,2.0398,1.3186,42.315,-377.230,22.435,0.00,0.0368,0.0508,0.0200,0.0174,2025-06-09T13:39:16.266395
7615,0.0127,-0.2757,0.1713,557.795,-735.070,221.270,0.01,0.0368,0.0508,0.0100,0.0174,2025-06-09T13:39:16.455912
7616,0.3616,1.0878,-0.2313,297.640,-781.690,341.950,0.00,0.0184,0.0508,0.0300,0.0087,2025-06-09T13:39:16.455912
7617,-0.7584,1.4645,-0.9584,-140.840,-991.060,418.355,0.00,0.0184,0.0762,0.0501,0.0087,2025-06-09T13:39:16.455912
7618,-0.0146,-0.0405,-1.2854,-617.855,-676.725,193.760,0.00,0.0368,0.0254,0.0200,0.0174,2025-06-09T13:39:16.455912
7619,0.5427,0.4660,-1.7431,-835.310,-517.020,-54.460,0.00,0.0184,0.0000,0.0300,0.0087,2025-06-09T13:39:16.455912
7620,1.1283,0.9448,-1.7817,-643.720,-238.560,-55.825,0.01,0.0184,0.0762,0.0200,0.0087,2025-06-09T13:39:16.455912
7621,1.4401,0.8745,-2.7762,237.195,-21.805,71.715,0.00,0.0368,0.0508,0.0200,0.0087,2025-06-09T13:39:16.455912
7622,0.6383,1.0770,-1.8100,673.470,655.655,100.065,0.00,0.0184,0.0508,0.0200,0.0087,2025-06-09T13:39:16.455912
7623,0.4080,0.9916,-1.5421,362.390,291.970,169.260,0.01,0.0184,0.0508,0.0703,0.0000,2025-06-09T13:39:16.602496
7624,0.4416,0.8081,-1.9296,-6.055,488.740,209.370,0.00,0.0184,0.0254,0.0200,0.0087,2025-06-09T13:39:16.602496
7625,0.1986,0.7959,-1.2893,-300.510,628.145,223.230,0.00,0.0368,0.0508,0.0200,0.0174,2025-06-09T13:39:16.602496
7626,0.0107,1.0609,-0.2943,-243.460,475.125,278.040,0.00,0.0368,0.0508,0.0401,0.0087,2025-06-09T13:39:16.603494
7627,-0.3987,0.4987,-0.6861,249.270,775.985,162.120,0.01,0.0184,0.0254,0.0300,0.0174,2025-06-09T13:39:16.603494
7628,-1.5650,0.7091,-0.0800,588.420,933.730,149.135,0.00,0.0184,0.0508,0.0100,0.0087,2025-06-09T13:39:16.603494
7629,-1.3649,-0.2362,0.2562,844.900,677.460,19.250,0.00,0.0184,0.0508,0.0300,0.0087,2025-06-09T13:39:16.603494
7630,-2.6040,0.9223,1.9335,770.105,682.570,-88.515,0.01,0.0368,0.0254,0.0000,0.0087,2025-06-09T13:39:16.603494
7631,-5.1040,2.9153,1.6597,237.650,435.925,-25.900,0.00,0.0184,0.0254,0.0200,0.0087,2025-06-09T13:39:16.603494
7632,-3.1857,1.1873,6.8486,524.825,889.385,-53.270,0.00,0.0184,0.0254,0.0300,0.0087,2025-06-09T13:39:16.603494
7633,-2.7045,1.2342,3.5009,196.700,431.130,-3.080,0.01,0.0368,0.0254,0.0100,0.0174,2025-06-09T13:39:16.603494
7634,-1.3752,0.5519,0.7042,98.490,-542.955,23.030,0.01,0.0184,0.0254,0.0200,0.0000,2025-06-09T13:39:16.603494
7635,-1.2283,1.8944,0.4534,-303.555,-660.730,34.755,0.00,0.0368,0.0508,0.0602,0.0174,2025-06-09T13:39:16.603494
7636,-1.2703,1.4694,-0.6847,-638.190,-910.980,31.990,0.00,0.0184,0.0508,0.0100,0.0087,2025-06-09T13:39:16.603494
7637,-1.0121,0.4778,0.0073,-734.930,-951.615,-14.455,0.00,0.0184,0.0254,0.0000,0.0087,2025-06-09T13:39:16.603494
7638,-1.1419,0.8794,-1.7958,-541.765,-967.855,-228.025,0.00,0.0184,0.0254,0.0300,0.0087,2025-06-09T13:39:16.603494
7639,-1.4689,1.3103,-1.1868,-279.545,-750.995,-183.540,0.00,0.0184,0.0762,0.0100,0.0087,2025-06-09T13:39:16.603494
7640,0.1815,0.3577,-1.6304,-359.870,-480.900,-381.325,0.00,0.0184,0.0508,0.0200,0.0087,2025-06-09T13:39:16.660365
7641,0.5846,1.4054,-1.0443,-369.600,-238.175,-407.925,0.01,0.0368,0.0508,0.0200,0.0174,2025-06-09T13:39:16.660365
7642,1.1034,1.6104,-1.0209,-497.560,39.585,-311.465,0.01,0.0184,0.0000,0.0100,0.0087,2025-06-09T13:39:16.660365
7643,1.2751,1.7139,-0.2298,-426.615,178.010,-152.950,0.00,0.0184,0.0254,0.0100,0.0174,2025-06-09T13:39:16.660365
7644,1.2224,1.6929,0.1103,-232.715,266.735,50.505,0.00,0.0184,0.0254,0.0100,0.0087,2025-06-09T13:39:16.660365
7645,0.8433,1.3601,0.5470,78.050,366.730,279.090,0.00,0.0368,0.0254,0.0501,0.0087,2025-06-09T13:39:16.660365
7646,0.1503,1.0775,0.6422,249.585,408.835,389.445,0.00,0.0184,0.0254,0.0100,0.0087,2025-06-09T13:39:16.660365
7647,-0.3392,0.8184,0.6642,307.195,428.995,410.445,0.01,0.0184,0.0762,0.0200,0.0174,2025-06-09T13:39:16.767084
7648,-0.6969,0.6041,0.8281,331.590,445.585,357.840,0.00,0.0184,0.0508,0.0300,0.0087,2025-06-09T13:39:16.767084
7649,-0.8540,0.4812,1.0624,276.640,419.405,253.925,0.01,0.0000,0.0508,0.0300,0.0174,2025-06-09T13:39:16.767084
7650,-0.8677,0.2650,1.3293,262.325,376.985,157.360,0.01,0.0184,0.0000,0.0200,0.0087,2025-06-09T13:39:16.767084
7651,-0.8589,0.3045,1.4616,194.110,289.870,48.475,0.00,0.0184,0.0508,0.0200,0.0087,2025-06-09T13:39:16.767084
7652,-0.7715,0.4392,1.5850,76.405,182.770,-22.050,0.01,0.0184,0.0508,0.0300,0.0087,2025-06-09T13:39:16.767084
7653,-0.5919,0.6305,1.4991,-29.925,23.485,-63.350,0.00,0.0000,0.0000,0.0000,0.0087,2025-06-09T13:39:16.767084
7654,-0.4455,0.6993,1.3957,-114.765,-80.465,-65.625,0.01,0.0184,0.0508,0.0200,0.0262,2025-06-09T13:39:16.898702
7655,-0.3850,0.6359,1.1273,-129.080,-148.610,-54.040,0.01,0.0368,0.0254,0.0100,0.0087,2025-06-09T13:39:16.898702
7656,-0.3094,0.5944,0.8838,-87.115,-156.485,-43.680,0.00,0.0184,0.0508,0.0100,0.0087,2025-06-09T13:39:16.898702
7657,-0.2440,0.5514,0.7022,-62.895,-141.505,-36.470,0.00,0.0184,0.0000,0.0200,0.0174,2025-06-09T13:39:16.898702
7658,-0.1718,0.5358,0.5334,-45.745,-108.080,-31.990,0.01,0.0368,0.0254,0.0000,0.0087,2025-06-09T13:39:16.898702
7659,-0.1118,0.5656,0.4802,-37.275,-69.300,-27.405,0.00,0.0184,0.0254,0.0200,0.0174,2025-06-09T13:39:16.898702
7660,-0.0498,0.6120,0.5026,-13.755,-15.435,-21.525,0.01,0.0368,0.0508,0.0200,0.0087,2025-06-09T13:39:16.898702
7661,-0.0176,0.6832,0.5671,15.855,27.685,-11.935,0.01,0.0184,0.0254,0.0000,0.0087,2025-06-09T13:39:16.898702
7662,-0.0288,0.7242,0.6354,40.110,60.585,7.035,0.01,0.0184,0.0254,0.0300,0.0174,2025-06-09T13:39:16.898702
7663,-0.0864,0.7178,0.7144,51.695,70.700,22.155,0.01,0.0368,0.0508,0.0200,0.0087,2025-06-09T13:39:16.899700
7664,-0.1625,0.6725,0.7754,51.205,70.105,28.105,0.00,0.0184,0.0508,0.0000,0.0087,2025-06-09T13:39:16.951562
7665,-0.2269,0.6339,0.8330,45.395,59.500,24.220,0.01,0.0184,0.0508,0.0200,0.0174,2025-06-09T13:39:16.951562
7666,-0.2762,0.6012,0.8462,22.820,43.855,11.655,0.01,0.0184,0.0508,0.0200,0.0000,2025-06-09T13:39:16.951562
7667,-0.3030,0.6925,0.9267,3.955,15.435,-11.305,0.01,0.0368,0.0762,0.0000,0.0087,2025-06-09T13:39:16.951562
7668,-0.2977,0.6144,0.8657,-28.770,4.235,-19.600,0.01,0.0368,0.0254,0.0100,0.0174,2025-06-09T13:39:17.001453
7669,-0.2596,0.5802,0.8223,-27.020,-2.205,-14.350,0.01,0.0368,0.0508,0.0100,0.0087,2025-06-09T13:39:17.001453
7670,-0.2230,0.5627,0.7393,-29.470,2.240,-16.520,0.00,0.0368,0.0508,0.0401,0.0087,2025-06-09T13:39:17.001453
7671,-0.2230,0.5661,0.6534,-32.795,12.565,-18.970,0.00,0.0184,0.0508,0.0100,0.0087,2025-06-09T13:39:17.001453
7672,-0.1884,0.5690,0.5802,-43.120,27.615,-22.820,0.00,0.0184,0.0508,0.0200,0.0174,2025-06-09T13:39:17.080242
7673,-0.1757,0.5602,0.5534,-51.485,51.730,-31.815,0.00,0.0184,0.0508,0.0300,0.0087,2025-06-09T13:39:17.080242
7674,-0.2235,0.5602,0.5022,-57.575,79.170,-39.270,0.00,0.0368,0.0508,0.0200,0.0087,2025-06-09T13:39:17.080242
7675,-0.4158,0.7554,0.4329,-58.275,116.165,-29.015,0.00,0.0368,0.0508,0.0100,0.0087,2025-06-09T13:39:17.080242
7676,-0.6071,0.8218,0.4402,-80.150,139.895,0.805,0.01,0.0368,0.0762,0.0300,0.0087,2025-06-09T13:39:17.080242
7677,-0.5070,0.9350,0.6720,-80.815,155.715,41.055,0.01,0.0000,0.0254,0.0000,0.0087,2025-06-09T13:39:17.080242
7678,-0.2347,0.9311,0.8721,-55.195,173.215,50.120,0.01,0.0368,0.0254,0.0200,0.0174,2025-06-09T13:39:17.291652
7679,-0.5592,0.7364,1.1658,-26.775,191.030,72.520,0.01,0.0368,0.0000,0.0300,0.0087,2025-06-09T13:39:17.291652
7680,-0.3880,0.2645,1.5021,35.070,135.905,104.370,0.00,0.0368,0.0254,0.0100,0.0087,2025-06-09T13:39:17.291652
7681,-0.1493,-0.3162,1.8115,131.775,67.480,132.160,0.00,0.0368,0.0254,0.0200,0.0087,2025-06-09T13:39:17.291652
7682,-1.2830,-0.0107,1.9710,299.285,21.350,166.705,0.00,0.0184,0.0762,0.0200,0.0087,2025-06-09T13:39:17.291652
7683,-2.4180,0.3470,3.5790,566.930,-85.855,221.690,0.00,0.0184,0.0508,0.0200,0.0087,2025-06-09T13:39:17.291652
7684,-4.6375,-0.3255,3.1632,681.520,-407.575,233.170,0.01,0.0368,0.0254,0.0200,0.0087,2025-06-09T13:39:17.291652
7685,-2.7767,2.1804,2.6328,124.215,-951.335,226.730,0.00,0.0368,0.0508,0.0100,0.0087,2025-06-09T13:39:17.291652
7686,-3.0793,2.4361,0.3001,-277.060,-1146.740,237.895,0.00,0.0184,0.0254,0.0401,0.0174,2025-06-09T13:39:17.291652
7687,-2.7182,2.4063,-1.4762,-415.870,-1146.740,314.615,0.00,0.0368,0.0254,0.0200,0.0087,2025-06-09T13:39:17.291652
7688,-3.7210,0.4499,-4.2022,-140.490,-1146.740,306.215,0.00,0.0368,0.0254,0.0100,0.0087,2025-06-09T13:39:17.291652
7689,-3.3628,-1.5294,-2.8704,-533.190,-1055.005,-170.135,0.00,0.0184,0.0508,0.0200,0.0174,2025-06-09T13:39:17.291652
7690,0.9233,2.7338,-4.5662,-45.570,-490.420,-350.630,0.00,0.0184,0.0508,0.0200,0.0087,2025-06-09T13:39:17.291652
7691,1.3288,1.9813,-4.9083,-105.665,-627.095,77.700,0.00,0.0184,0.0000,0.0401,0.0174,2025-06-09T13:39:17.291652
7692,0.9687,-0.5270,-4.3871,-225.960,299.460,237.160,0.01,0.0184,0.0508,0.0300,0.0087,2025-06-09T13:39:17.377422
7693,0.0551,0.7920,-1.8612,-15.085,571.165,181.825,0.00,0.0368,0.0508,0.0100,0.0087,2025-06-09T13:39:17.377422
7694,0.0410,1.1122,-1.7017,42.455,845.495,148.365,0.01,0.0368,0.0254,0.0401,0.0000,2025-06-09T13:39:17.377422
7695,0.6222,1.5894,-1.9100,-311.710,956.550,71.435,0.00,0.0000,0.0508,0.0200,0.0174,2025-06-09T13:39:17.377422
7696,0.1698,1.9593,-1.3030,-571.375,1091.195,226.695,0.00,0.0184,0.0000,0.0300,0.0174,2025-06-09T13:39:17.377422
7697,-1.6343,1.8198,-0.0698,-404.915,1040.830,416.990,0.00,0.0368,0.0254,0.0000,0.0087,2025-06-09T13:39:17.377422
7698,-2.8372,0.7544,0.3797,43.995,833.070,553.665,0.01,0.0184,0.0508,0.0200,0.0087,2025-06-09T13:39:17.377422
7699,-3.1779,-0.4953,-0.5514,745.605,925.960,393.435,0.01,0.0184,0.0254,0.0100,0.0174,2025-06-09T13:39:17.480149
7700,-4.3100,0.1937,0.4821,1144.815,1145.410,224.420,0.00,0.0184,0.0254,0.0200,0.0087,2025-06-09T13:39:17.480149
7701,-5.7194,1.0697,2.0838,1146.740,1146.740,-91.945,0.01,0.0184,0.0508,0.0100,0.0174,2025-06-09T13:39:17.480149
7702,-4.7453,1.2708,5.9975,719.285,934.255,-128.380,0.00,0.0368,0.0508,0.0100,0.0087,2025-06-09T13:39:17.480149
7703,-1.3776,0.1606,-1.5840,40.705,-281.680,74.340,0.01,0.0184,0.0508,0.0300,0.0087,2025-06-09T13:39:17.480149
7704,-1.5684,1.5435,0.2757,-784.980,-877.800,166.565,0.00,0.0184,0.0508,0.0200,0.0087,2025-06-09T13:39:17.480149
7705,-1.1312,0.7076,1.6499,-900.900,-924.000,26.810,0.00,0.0368,0.0254,0.0100,0.0087,2025-06-09T13:39:17.480149
7706,-0.9067,0.2411,0.4080,-581.980,-661.395,-79.730,0.00,0.0368,0.0254,0.0200,0.0087,2025-06-09T13:39:17.480149
7707,-0.7945,0.2406,0.4065,-245.350,-336.665,-103.390,0.01,0.0184,0.0508,0.0300,0.0087,2025-06-09T13:39:17.615784
7708,-0.3050,0.4172,-0.9072,10.850,-179.340,-122.500,0.00,0.0368,0.0254,0.0300,0.0174,2025-06-09T13:39:17.615784
7709,0.2025,0.5104,-0.7515,47.145,34.825,-138.845,0.00,0.0184,0.0254,0.0200,0.0087,2025-06-09T13:39:17.615784
7710,0.2689,0.9374,-0.2962,11.340,-84.210,-119.385,0.00,0.0368,0.0508,0.0000,0.0087,2025-06-09T13:39:17.615784
7711,0.2499,1.1370,-0.0927,-179.445,6.370,-80.745,0.01,0.0368,0.0254,0.0401,0.0087,2025-06-09T13:39:17.615784
7712,0.2801,1.2317,0.2147,-184.205,98.140,-29.365,0.00,0.0184,0.0254,0.0100,0.0087,2025-06-09T13:39:17.616782
7713,0.1835,1.0180,0.6612,-28.315,149.975,49.140,0.00,0.0184,0.0254,0.0000,0.0087,2025-06-09T13:39:17.616782
7714,-0.0708,0.9243,0.7100,156.555,217.630,84.560,0.00,0.0368,0.0000,0.0100,0.0087,2025-06-09T13:39:17.716544
7715,-0.3011,0.8076,0.8574,238.560,228.655,86.765,0.01,0.0368,0.0508,0.0200,0.0000,2025-06-09T13:39:17.716544
7716,-0.3992,0.6959,0.8940,195.370,199.570,68.495,0.00,0.0368,0.0508,0.0200,0.0087,2025-06-09T13:39:17.716544
7717,-0.5666,0.6637,0.9858,100.170,151.305,35.770,0.01,0.0184,0.0508,0.0300,0.0174,2025-06-09T13:39:17.716544
7718,-0.5802,0.5470,1.0985,17.605,82.915,10.465,0.01,0.0368,0.0508,0.0200,0.0087,2025-06-09T13:39:17.716544
7719,-0.5573,0.5578,1.1341,-5.180,27.160,-12.075,0.00,0.0184,0.0254,0.0200,0.0087,2025-06-09T13:39:17.716544
7720,-0.5041,0.5939,1.0819,-7.840,-22.260,-24.780,0.01,0.0184,0.0254,0.0401,0.0087,2025-06-09T13:39:17.716544
7721,-0.4626,0.6017,0.9082,-23.730,-52.430,-21.105,0.00,0.0184,0.0000,0.0000,0.0087,2025-06-09T13:39:17.716544
7722,-0.4065,0.5680,0.7935,-38.815,-65.380,-12.425,0.00,0.0368,0.0254,0.0100,0.0087,2025-06-09T13:39:17.716544
7723,-0.3733,0.5319,0.6886,-40.810,-59.430,-8.190,0.00,0.0184,0.0508,0.0300,0.0174,2025-06-09T13:39:17.716544
7724,-0.3299,0.5090,0.6525,-22.820,-40.670,-5.285,0.00,0.0184,0.0762,0.0200,0.0174,2025-06-09T13:39:17.890075
7725,-0.3152,0.5334,0.6188,1.785,-12.565,-3.955,0.00,0.0184,0.0000,0.0100,0.0087,2025-06-09T13:39:17.890075
7726,-0.2884,0.5768,0.6163,10.220,5.810,-1.855,0.00,0.0368,0.0508,0.0200,0.0087,2025-06-09T13:39:17.890075
7727,-0.2796,0.6139,0.6432,6.510,16.450,0.945,0.00,0.0184,0.0254,0.0000,0.0174,2025-06-09T13:39:17.890075
7728,-0.2996,0.6246,0.6988,0.210,19.530,2.310,0.01,0.0184,0.0508,0.0100,0.0087,2025-06-09T13:39:17.890075
7729,-0.3318,0.6115,0.7564,3.640,20.370,1.505,0.00,0.0184,0.0508,0.0100,0.0087,2025-06-09T13:39:17.890075
7730,-0.3440,0.6295,0.7823,11.060,17.080,2.275,0.00,0.0184,0.0254,0.0200,0.0087,2025-06-09T13:39:17.890075
7731,-0.3338,0.6490,0.8184,12.775,7.490,3.325,0.00,0.0368,0.0508,0.0100,0.0087,2025-06-09T13:39:17.890075
7732,-0.3416,0.6451,0.8081,5.005,-6.055,3.010,0.00,0.0184,0.0508,0.0200,0.0087,2025-06-09T13:39:17.890075
7733,-0.3475,0.6373,0.7632,-3.955,-15.470,3.255,0.00,0.0184,0.0254,0.0200,0.0087,2025-06-09T13:39:17.890075
7734,-0.3294,0.6095,0.7427,-8.575,-19.915,3.010,0.00,0.0184,0.0508,0.0200,0.0087,2025-06-09T13:39:17.890075
7735,-0.3172,0.5998,0.7056,-1.995,-17.815,5.740,0.01,0.0184,0.0000,0.0100,0.0087,2025-06-09T13:39:17.890075
7736,-0.3021,0.5949,0.7052,6.160,-13.475,10.080,0.00,0.0184,0.0508,0.0200,0.0174,2025-06-09T13:39:17.890075
7737,-0.3065,0.5954,0.6832,11.025,-6.755,12.565,0.01,0.0184,0.0508,0.0200,0.0087,2025-06-09T13:39:17.993797
7738,-0.3016,0.5993,0.6978,9.905,-3.150,15.470,0.01,0.0368,0.0508,0.0100,0.0174,2025-06-09T13:39:17.993797
7739,-0.3284,0.5851,0.7110,10.325,1.680,16.695,0.00,0.0184,0.0508,0.0200,0.0174,2025-06-09T13:39:17.993797
7740,-0.3357,0.5910,0.7564,15.015,3.395,16.485,0.00,0.0368,0.0508,0.0401,0.0174,2025-06-09T13:39:17.993797
7741,-0.3294,0.6159,0.7745,17.430,-0.035,15.505,0.00,0.0368,0.0254,0.0000,0.0087,2025-06-09T13:39:17.993797
7742,-0.3221,0.6378,0.7788,14.140,-7.140,14.315,0.00,0.0184,0.0508,0.0000,0.0087,2025-06-09T13:39:17.993797
7743,-0.2908,0.6061,0.7452,3.955,-26.355,14.735,0.00,0.0184,0.0254,0.0300,0.0087,2025-06-09T13:39:17.993797
7744,-0.2987,0.6700,0.7291,-4.830,-25.970,13.930,0.00,0.0368,0.0508,0.0200,0.0087,2025-06-09T13:39:17.993797
7745,-0.2918,0.6320,0.6808,-8.400,-25.025,12.355,0.01,0.0368,0.0508,0.0200,0.0174,2025-06-09T13:39:18.094528
7746,-0.2757,0.6188,0.6642,-8.470,-20.965,10.395,0.00,0.0184,0.0000,0.0200,0.0087,2025-06-09T13:39:18.094528
7747,-0.2674,0.6222,0.6642,-6.265,-11.305,5.810,0.00,0.0184,0.0254,0.0200,0.0087,2025-06-09T13:39:18.094528
7748,-0.2811,0.6393,0.6769,-1.225,1.750,2.625,0.00,0.0368,0.0254,0.0300,0.0000,2025-06-09T13:39:18.094528
7749,-0.2879,0.6515,0.7013,4.830,10.710,3.010,0.01,0.0368,0.0508,0.0200,0.0174,2025-06-09T13:39:18.094528
7750,-0.2826,0.6710,0.7457,11.690,14.630,5.075,0.01,0.0184,0.0000,0.0401,0.0174,2025-06-09T13:39:18.094528
7751,-0.2894,0.6783,0.7764,21.070,12.530,7.805,0.00,0.0368,0.0254,0.0100,0.0087,2025-06-09T13:39:18.094528
7752,-0.3070,0.6700,0.8037,23.310,5.145,10.115,0.01,0.0000,0.0254,0.0200,0.0087,2025-06-09T13:39:18.200220
7753,-0.3255,0.6446,0.7788,17.885,-5.670,7.875,0.01,0.0368,0.0000,0.0100,0.0174,2025-06-09T13:39:18.200220
7754,-0.3284,0.6300,0.7530,2.520,-13.615,2.870,0.00,0.0184,0.0762,0.0000,0.0087,2025-06-09T13:39:18.200220
7755,-0.3157,0.6324,0.7281,-10.290,-18.480,-2.835,0.01,0.0184,0.0508,0.0501,0.0087,2025-06-09T13:39:18.200220
7756,-0.3040,0.6398,0.7144,-15.610,-17.605,-5.250,0.01,0.0552,0.0254,0.0000,0.0174,2025-06-09T13:39:18.200220
7757,-0.2826,0.6564,0.7013,-9.870,-12.390,-3.430,0.01,0.0184,0.0508,0.0200,0.0087,2025-06-09T13:39:18.200220
7758,-0.2713,0.6583,0.6969,-0.280,-4.515,0.980,0.00,0.0000,0.0000,0.0000,0.0174,2025-06-09T13:39:18.200220
7759,-0.2708,0.6593,0.6964,9.345,0.770,3.220,0.01,0.0184,0.0508,0.0000,0.0174,2025-06-09T13:39:18.200220
7760,-0.2747,0.6564,0.6983,10.185,3.780,3.710,0.01,0.0184,0.0508,0.0000,0.0087,2025-06-09T13:39:18.343838
7761,-0.2796,0.6568,0.7110,7.385,3.780,2.415,0.01,0.0184,0.0508,0.0401,0.0087,2025-06-09T13:39:18.343838
7762,-0.2850,0.6529,0.7218,2.730,2.135,0.385,0.00,0.0368,0.0508,0.0200,0.0000,2025-06-09T13:39:18.343838
7763,-0.2869,0.6520,0.7369,0.525,-0.175,-0.210,0.01,0.0184,0.0000,0.0300,0.0087,2025-06-09T13:39:18.343838
7764,-0.2918,0.6608,0.7296,-0.280,-3.465,1.295,0.00,0.0184,0.0254,0.0000,0.0087,2025-06-09T13:39:18.343838
7765,-0.2904,0.6617,0.7501,1.050,-5.110,2.520,0.00,0.0184,0.0254,0.0200,0.0087,2025-06-09T13:39:18.343838
7766,-0.2943,0.6544,0.7369,2.415,-6.090,3.535,0.00,0.0184,0.0254,0.0100,0.0000,2025-06-09T13:39:18.343838
7767,-0.2982,0.6383,0.7276,1.365,-6.300,3.605,0.01,0.0184,0.0254,0.0000,0.0087,2025-06-09T13:39:18.344834
7768,-0.2948,0.6349,0.7149,-0.735,-6.405,2.940,0.00,0.0368,0.0508,0.0000,0.0174,2025-06-09T13:39:18.344834
7769,-0.2850,0.6334,0.7071,-3.325,-5.285,0.945,0.00,0.0368,0.0508,0.0200,0.0087,2025-06-09T13:39:18.344834
7770,-0.2782,0.6442,0.7169,-3.255,-4.690,-0.210,0.01,0.0184,0.0508,0.0100,0.0087,2025-06-09T13:39:18.344834
7771,-0.2689,0.6549,0.7193,-2.625,-4.970,0.070,0.00,0.0184,0.0508,0.0200,0.0000,2025-06-09T13:39:18.525376
7772,-0.2660,0.6520,0.7056,-3.115,-5.110,-0.035,0.00,0.0552,0.0508,0.0200,0.0087,2025-06-09T13:39:18.525376
7773,-0.2801,0.6451,0.7125,-4.375,-4.550,0.735,0.00,0.0368,0.0762,0.0200,0.0087,2025-06-09T13:39:19.056984
7774,-0.2796,0.6412,0.7154,-3.710,-3.955,3.010,0.00,0.0184,0.0000,0.0100,0.0087,2025-06-09T13:39:19.198604
7775,-0.2821,0.6403,0.7359,-0.735,-2.205,3.955,0.01,0.0184,0.0508,0.0000,0.0087,2025-06-09T13:39:19.199602
7776,-0.2806,0.6442,0.7388,2.310,-2.205,4.200,0.00,0.0184,0.0254,0.0100,0.0000,2025-06-09T13:39:19.199602
7777,-0.2835,0.6529,0.7549,3.570,-4.165,4.620,0.00,0.0184,0.0508,0.0000,0.0087,2025-06-09T13:39:19.199602
7778,-0.2850,0.6627,0.7584,3.255,-7.245,4.900,0.00,0.0184,0.0508,0.0300,0.0087,2025-06-09T13:39:19.199602
7779,-0.2879,0.6588,0.7579,0.875,-11.340,5.810,0.00,0.0184,0.0254,0.0000,0.0087,2025-06-09T13:39:19.199602
7780,-0.2894,0.6481,0.7471,-3.080,-14.560,4.480,0.00,0.0184,0.0508,0.0100,0.0087,2025-06-09T13:39:19.199602
7781,-0.2786,0.6481,0.7369,-5.145,-14.560,1.680,0.01,0.0184,0.0508,0.0200,0.0174,2025-06-09T13:39:19.199602
7782,-0.2689,0.6588,0.7286,-4.620,-13.405,1.015,0.00,0.0368,0.0254,0.0100,0.0000,2025-06-09T13:39:19.199602
7783,-0.2586,0.6568,0.7198,-1.295,-12.040,2.275,0.01,0.0368,0.0508,0.0200,0.0087,2025-06-09T13:39:19.199602
7784,-0.2577,0.6461,0.7135,2.065,-8.995,2.345,0.01,0.0368,0.0508,0.0200,0.0087,2025-06-09T13:39:19.199602
7785,-0.2674,0.6378,0.7130,4.795,-5.985,2.485,0.00,0.0368,0.0762,0.0100,0.0174,2025-06-09T13:39:19.199602
7786,-0.2645,0.6427,0.7198,4.760,-2.940,1.365,0.00,0.0368,0.0508,0.0200,0.0174,2025-06-09T13:39:19.199602
7787,-0.2640,0.6461,0.7169,2.800,-1.610,0.105,0.01,0.0368,0.0508,0.0200,0.0174,2025-06-09T13:39:19.199602
7788,-0.2577,0.6549,0.7271,2.310,-2.345,-0.035,0.00,0.0184,0.0254,0.0300,0.0174,2025-06-09T13:39:19.199602
7789,-0.2635,0.6481,0.7242,1.260,-1.890,-0.840,0.00,0.0184,0.0508,0.0000,0.0087,2025-06-09T13:39:19.199602
7790,-0.2669,0.6515,0.7232,0.805,-2.380,-0.945,0.00,0.0368,0.0508,0.0100,0.0087,2025-06-09T13:39:19.199602
7791,-0.2684,0.6505,0.7296,0.315,-1.400,-2.450,0.00,0.0368,0.0254,0.0300,0.0087,2025-06-09T13:39:19.199602
7792,-0.2669,0.6520,0.7232,-0.175,-0.140,-3.920,0.00,0.0184,0.0254,0.0300,0.0174,2025-06-09T13:39:19.199602
7793,-0.2616,0.6583,0.7213,-0.490,0.560,-4.060,0.00,0.0368,0.0508,0.0200,0.0087,2025-06-09T13:39:19.199602
7794,-0.2601,0.6608,0.7276,0.770,1.295,-3.500,0.00,0.0184,0.0254,0.0000,0.0087,2025-06-09T13:39:19.199602
7795,-0.2606,0.6593,0.7169,2.590,1.750,-2.555,0.01,0.0368,0.0254,0.0100,0.0087,2025-06-09T13:39:19.199602
7796,-0.2640,0.6520,0.7271,4.060,2.520,-1.575,0.00,0.0184,0.0000,0.0300,0.0087,2025-06-09T13:39:19.199602
7797,-0.2669,0.6407,0.7213,3.640,0.735,-0.910,0.00,0.0184,0.0254,0.0000,0.0174,2025-06-09T13:39:19.199602
7798,-0.2718,0.6134,0.7198,-0.525,-0.595,-1.785,0.01,0.0184,0.0508,0.0200,0.0174,2025-06-09T13:39:19.199602
7799,-0.2679,0.6232,0.7330,-3.010,-0.455,-3.465,0.01,0.0184,0.0254,0.0501,0.0174,2025-06-09T13:39:19.199602
7800,-0.2826,0.6769,0.7466,0.000,1.715,-2.835,0.01,0.0000,0.0508,0.0000,0.0174,2025-06-09T13:39:19.199602
7801,-0.2801,0.6676,0.7393,3.290,0.350,0.525,0.00,0.0184,0.0508,0.0200,0.0174,2025-06-09T13:39:19.199602
7802,-0.2757,0.6559,0.7457,5.040,-2.205,2.310,0.00,0.0184,0.0254,0.0200,0.0174,2025-06-09T13:39:19.199602
7803,-0.2738,0.6417,0.7291,3.640,-4.725,1.540,0.00,0.0184,0.0254,0.0602,0.0087,2025-06-09T13:39:19.199602
7804,-0.2943,0.6466,0.7242,-0.805,-3.465,-1.820,0.01,0.0368,0.0508,0.0200,0.0087,2025-06-09T13:39:19.199602
7805,-0.2738,0.6383,0.7017,-5.285,-3.570,-4.725,0.01,0.0368,0.0508,0.0200,0.0000,2025-06-09T13:39:19.199602
7806,-0.2708,0.6490,0.7178,-5.810,-1.330,-6.755,0.01,0.0184,0.0000,0.0100,0.0087,2025-06-09T13:39:19.199602
7807,-0.2655,0.6593,0.7169,-2.590,0.455,-6.300,0.01,0.0184,0.0254,0.0200,0.0087,2025-06-09T13:39:19.199602
7808,-0.2630,0.6554,0.7222,2.135,0.980,-4.830,0.01,0.0368,0.0508,0.0401,0.0087,2025-06-09T13:39:19.199602
7809,-0.2835,0.6446,0.7281,5.005,1.400,-3.045,0.00,0.0368,0.0254,0.0100,0.0087,2025-06-09T13:39:19.199602
7810,-0.2933,0.6315,0.7364,5.565,1.820,-2.555,0.00,0.0368,0.0254,0.0000,0.0174,2025-06-09T13:39:19.199602
7811,-0.2977,0.6354,0.7540,6.300,1.400,-3.570,0.01,0.0368,0.0508,0.0300,0.0087,2025-06-09T13:39:19.199602
7812,-0.2923,0.6461,0.7652,6.125,-1.715,-4.200,0.00,0.0184,0.0254,0.0300,0.0174,2025-06-09T13:39:19.199602
7813,-0.2928,0.6471,0.7510,3.570,-5.740,-6.615,0.01,0.0000,0.0254,0.0200,0.0174,2025-06-09T13:39:19.199602
7814,-0.3030,0.6476,0.7540,-0.665,-9.485,-7.805,0.00,0.0184,0.0254,0.0300,0.0087,2025-06-09T13:39:19.199602
7815,-0.3011,0.6486,0.7779,3.150,-10.850,-7.175,0.00,0.0184,0.0254,0.0300,0.0087,2025-06-09T13:39:19.199602
7816,-0.2996,0.6651,0.7525,10.255,-11.130,-5.985,0.00,0.0184,0.0508,0.0000,0.0174,2025-06-09T13:39:19.199602
7817,-0.2840,0.6632,0.7369,10.395,-14.070,-6.930,0.00,0.0368,0.0508,0.0401,0.0087,2025-06-09T13:39:19.199602
7818,-0.2786,0.6632,0.7022,-0.070,-19.670,-7.035,0.00,0.0184,0.0254,0.0200,0.0174,2025-06-09T13:39:19.199602
7819,-0.2630,0.6486,0.6705,-10.815,-21.000,-6.510,0.01,0.0184,0.0254,0.0000,0.0087,2025-06-09T13:39:19.199602
7820,-0.2699,0.6320,0.6549,-7.840,-15.085,-6.930,0.00,0.0184,0.0254,0.0100,0.0174,2025-06-09T13:39:19.199602
7821,-0.2777,0.6232,0.6490,1.365,-2.660,-8.190,0.01,0.0368,0.0508,0.0200,0.0087,2025-06-09T13:39:19.202595
7822,-0.2757,0.6256,0.6495,4.480,7.735,-12.530,0.01,0.0368,0.0508,0.0602,0.0087,2025-06-09T13:39:19.202595
7823,-0.2826,0.6354,0.6647,-1.890,13.405,-19.355,0.00,0.0184,0.0508,0.0100,0.0174,2025-06-09T13:39:19.202595
7824,-0.2801,0.6559,0.6817,-8.785,17.220,-22.435,0.00,0.0368,0.0508,0.0200,0.0087,2025-06-09T13:39:19.236505
7825,-0.2816,0.6647,0.7135,-9.520,18.900,-21.700,0.00,0.0368,0.0254,0.0000,0.0174,2025-06-09T13:39:19.236505
7826,-0.2826,0.6739,0.7115,-4.690,17.255,-16.730,0.00,0.0184,0.0254,0.0100,0.0087,2025-06-09T13:39:19.236505
7827,-0.2991,0.6739,0.7432,1.575,13.930,-9.345,0.01,0.0368,0.0508,0.0602,0.0174,2025-06-09T13:39:19.236505
7828,-0.3045,0.6725,0.7569,7.035,10.500,-4.445,0.00,0.0368,0.0508,0.0300,0.0087,2025-06-09T13:39:19.236505
7829,-0.3192,0.6349,0.7432,4.165,5.915,-4.095,0.00,0.0184,0.0254,0.0100,0.0087,2025-06-09T13:39:19.236505
7830,-0.3314,0.6056,0.7237,-3.290,0.175,-9.660,0.00,0.0184,0.0254,0.0000,0.0087,2025-06-09T13:39:19.236505
7831,-0.3387,0.5910,0.7149,-12.215,0.700,-18.340,0.00,0.0000,0.0508,0.0300,0.0087,2025-06-09T13:39:19.236505
7832,-0.3201,0.6066,0.6895,-15.680,3.430,-25.235,0.00,0.0184,0.0254,0.0100,0.0087,2025-06-09T13:39:19.236505
7833,-0.3152,0.6163,0.6739,-16.835,9.240,-29.050,0.00,0.0184,0.0762,0.0100,0.0174,2025-06-09T13:39:19.236505
7834,-0.3211,0.6251,0.6651,-16.065,16.205,-29.750,0.00,0.0368,0.0508,0.0401,0.0087,2025-06-09T13:39:19.236505
7835,-0.3318,0.6295,0.6744,-11.165,24.325,-25.480,0.00,0.0368,0.0254,0.0200,0.0174,2025-06-09T13:39:19.236505
7836,-0.3299,0.6315,0.7008,0.000,29.680,-19.635,0.01,0.0184,0.0508,0.0300,0.0087,2025-06-09T13:39:19.236505
7837,-0.3514,0.6432,0.7388,12.460,32.935,-12.110,0.00,0.0000,0.0254,0.0100,0.0174,2025-06-09T13:39:19.332247
7838,-0.3533,0.6427,0.7564,18.165,27.335,-5.985,0.00,0.0184,0.0254,0.0200,0.0174,2025-06-09T13:39:19.332247
7839,-0.3850,0.6368,0.7769,14.210,16.870,-2.940,0.01,0.0184,0.0762,0.0100,0.0087,2025-06-09T13:39:19.332247
7840,-0.4065,0.6217,0.7671,3.325,3.360,-4.515,0.00,0.0184,0.0508,0.0200,0.0174,2025-06-09T13:39:19.332247
7841,-0.4060,0.6202,0.7525,-4.690,-5.040,-9.135,0.00,0.0368,0.0508,0.0300,0.0174,2025-06-09T13:39:19.332247
7842,-0.3728,0.6202,0.7320,-9.485,-12.635,-11.060,0.01,0.0184,0.0254,0.0100,0.0174,2025-06-09T13:39:19.332247
7843,-0.3504,0.6481,0.7203,-10.360,-16.240,-10.080,0.00,0.0184,0.0254,0.0300,0.0087,2025-06-09T13:39:19.332247
7844,-0.3338,0.6622,0.6539,-11.375,-13.755,-11.095,0.01,0.0184,0.0508,0.0100,0.0087,2025-06-09T13:39:19.425995
7845,-0.3211,0.6700,0.6232,-12.915,-10.815,-10.465,0.00,0.0184,0.0000,0.0200,0.0087,2025-06-09T13:39:19.425995
7846,-0.2855,0.6759,0.6256,-12.145,-8.505,-6.510,0.01,0.0368,0.0254,0.0401,0.0174,2025-06-09T13:39:19.425995
7847,-0.2757,0.6983,0.6217,-2.415,-6.160,-1.575,0.00,0.0184,0.0254,0.0000,0.0087,2025-06-09T13:39:19.425995
7848,-0.1732,0.7598,0.6578,15.400,-8.435,-0.245,0.01,0.0184,0.0254,0.0000,0.0087,2025-06-09T13:39:19.425995
7849,-0.1659,0.8316,0.6598,36.890,-15.295,-0.070,0.00,0.0184,0.0254,0.0000,0.0087,2025-06-09T13:39:19.425995
7850,0.0220,0.9404,0.7227,66.990,-23.345,-33.425,0.00,0.0184,0.0254,0.0100,0.0087,2025-06-09T13:39:19.425995
7851,-0.0171,0.5275,0.5661,52.675,-38.885,-76.720,0.00,0.0368,0.0508,0.0401,0.0087,2025-06-09T13:39:19.527748
7852,-0.0752,0.3065,0.5314,10.885,-59.850,-102.025,0.01,0.0184,0.0508,0.0401,0.0087,2025-06-09T13:39:19.527748
7853,-0.0942,0.2289,0.5505,12.005,-14.070,-149.835,0.00,0.0368,0.0254,0.0000,0.0087,2025-06-09T13:39:19.527748
7854,-0.5392,0.4080,1.1712,77.315,-0.560,-131.250,0.01,0.0184,0.0508,0.0200,0.0087,2025-06-09T13:39:19.527748
7855,-0.9780,0.5983,1.1932,156.205,-11.865,-43.610,0.00,0.0000,0.0508,0.0200,0.0174,2025-06-09T13:39:19.527748
7856,-1.4650,0.3894,0.9814,103.250,-15.120,-12.040,0.01,0.0368,0.0508,0.0000,0.0087,2025-06-09T13:39:19.527748
7857,-1.3352,0.6193,0.7808,18.970,-37.240,20.370,0.00,0.0184,0.0254,0.0200,0.0087,2025-06-09T13:39:19.527748
7858,-0.3826,0.4641,0.6461,-97.895,-31.780,60.130,0.00,0.0000,0.0254,0.0200,0.0174,2025-06-09T13:39:19.527748
7859,-0.1054,0.5153,0.7774,-81.025,-17.920,52.675,0.01,0.0368,0.0508,0.0300,0.0174,2025-06-09T13:39:19.633440
7860,-0.2884,0.6393,0.8272,19.880,6.370,42.700,0.00,0.0184,0.0254,0.0100,0.0087,2025-06-09T13:39:19.633440
7861,-0.4075,0.7574,0.5783,115.815,8.190,29.785,0.01,0.0368,0.0508,0.0300,0.0174,2025-06-09T13:39:19.633440
7862,-0.3562,0.8408,0.4734,93.870,1.785,14.875,0.00,0.0368,0.0254,0.0000,0.0087,2025-06-09T13:39:19.633440
7863,-0.3440,0.8716,0.4119,-8.925,-7.140,3.850,0.01,0.0368,0.0508,0.0300,0.0087,2025-06-09T13:39:19.633440
7864,-0.4089,0.8384,0.5417,-63.840,-10.920,-8.120,0.01,0.0368,0.0508,0.0200,0.0087,2025-06-09T13:39:19.633440
7865,-0.3699,0.7300,0.6861,-49.630,-9.135,-20.055,0.00,0.0368,0.0254,0.0000,0.0087,2025-06-09T13:39:19.633440
7866,-0.3372,0.6334,0.7178,-6.860,-3.675,-25.830,0.01,0.0184,0.0254,0.0100,0.0087,2025-06-09T13:39:19.867816
7867,-0.4050,0.5763,0.6949,11.515,1.120,-21.910,0.00,0.0368,0.0254,0.0200,0.0087,2025-06-09T13:39:19.867816
7868,-0.4587,0.5446,0.6983,0.665,0.595,-11.480,0.01,0.0184,0.0254,0.0100,0.0174,2025-06-09T13:39:19.867816
7869,-0.4431,0.5329,0.7330,-11.200,-4.900,1.645,0.01,0.0368,0.0762,0.0300,0.0087,2025-06-09T13:39:19.867816
7870,-0.4016,0.5592,0.7281,-4.690,-4.970,8.960,0.00,0.0184,0.0508,0.0401,0.0087,2025-06-09T13:39:19.867816
7871,-0.4016,0.6237,0.6788,13.125,0.035,12.180,0.00,0.0368,0.0254,0.0000,0.0087,2025-06-09T13:39:19.867816
7872,-0.3914,0.6710,0.6481,24.010,3.220,10.920,0.00,0.0184,0.0508,0.0200,0.0087,2025-06-09T13:39:19.867816
7873,-0.3831,0.7096,0.6295,12.880,0.665,7.070,0.01,0.0368,0.0254,0.0100,0.0087,2025-06-09T13:39:19.867816
7874,-0.3845,0.7208,0.6217,-3.290,-4.200,0.630,0.00,0.0368,0.0254,0.0300,0.0087,2025-06-09T13:39:19.867816
7875,-0.3875,0.7037,0.6310,-11.550,-5.040,-4.340,0.00,0.0368,0.0508,0.0200,0.0087,2025-06-09T13:39:19.867816
7876,-0.3894,0.6539,0.6559,-7.350,-3.605,-7.175,0.00,0.0184,0.0508,0.0200,0.0087,2025-06-09T13:39:19.867816
7877,-0.3997,0.6251,0.6798,-1.015,-2.380,-6.335,0.01,0.0368,0.0254,0.0401,0.0087,2025-06-09T13:39:19.867816
7878,-0.4075,0.6071,0.6910,-0.595,-2.660,-3.395,0.00,0.0184,0.0254,0.0200,0.0087,2025-06-09T13:39:19.867816
7879,-0.4094,0.6046,0.6881,-1.995,-3.010,1.260,0.00,0.0184,0.0508,0.0100,0.0000,2025-06-09T13:39:19.867816
7880,-0.4006,0.6202,0.6798,1.645,-2.100,3.920,0.00,0.0184,0.0508,0.0000,0.0087,2025-06-09T13:39:19.867816
7881,-0.3972,0.6481,0.6656,7.210,-0.770,4.585,0.00,0.0184,0.0508,0.0100,0.0087,2025-06-09T13:39:19.867816
7882,-0.3953,0.6686,0.6525,8.400,-0.525,3.290,0.01,0.0184,0.0508,0.0300,0.0174,2025-06-09T13:39:19.867816
7883,-0.3928,0.6783,0.6451,2.135,-1.855,1.295,0.00,0.0368,0.0000,0.0401,0.0174,2025-06-09T13:39:20.059326
7884,-0.3933,0.6734,0.6505,-3.395,-3.290,-1.085,0.01,0.0368,0.0508,0.0300,0.0087,2025-06-09T13:39:20.059326
7885,-0.3938,0.6588,0.6632,-4.445,-3.360,-2.275,0.00,0.0368,0.0508,0.0200,0.0174,2025-06-09T13:39:20.059326
7886,-0.3987,0.6432,0.6695,-1.680,-2.625,-2.205,0.01,0.0368,0.0508,0.0401,0.0174,2025-06-09T13:39:20.059326
7887,-0.4026,0.6339,0.6720,0.735,-2.135,-0.910,0.00,0.0184,0.0508,0.0100,0.0087,2025-06-09T13:39:20.059326
7888,-0.4021,0.6359,0.6759,0.630,-2.030,0.385,0.00,0.0184,0.0254,0.0200,0.0174,2025-06-09T13:39:20.059326
7889,-0.4011,0.6442,0.6705,0.945,-1.960,1.330,0.00,0.0184,0.0254,0.0300,0.0087,2025-06-09T13:39:20.059326
7890,-0.3972,0.6525,0.6588,1.925,-1.890,1.365,0.00,0.0368,0.0000,0.0300,0.0087,2025-06-09T13:39:20.059326
7891,-0.3963,0.6598,0.6534,2.030,-1.820,0.630,0.01,0.0368,0.0508,0.0300,0.0087,2025-06-09T13:39:20.059326
7892,-0.3958,0.6612,0.6559,0.385,-2.240,-0.245,0.00,0.0368,0.0508,0.0200,0.0174,2025-06-09T13:39:20.059326
7893,-0.3977,0.6525,0.6578,-1.505,-2.905,-0.945,0.01,0.0368,0.0000,0.0401,0.0174,2025-06-09T13:39:20.059326
7894,-0.3933,0.6422,0.6583,-2.660,-2.905,-1.120,0.00,0.0368,0.0762,0.0100,0.0087,2025-06-09T13:39:20.059326
7895,-0.3943,0.6359,0.6647,-0.875,-2.310,-0.700,0.01,0.0368,0.0254,0.0300,0.0087,2025-06-09T13:39:20.059326
7896,-0.3938,0.6324,0.6642,1.260,-1.645,0.000,0.00,0.0184,0.0254,0.0200,0.0087,2025-06-09T13:39:20.060299
7897,-0.4021,0.6364,0.6651,2.170,-1.330,0.945,0.01,0.0184,0.0508,0.0401,0.0174,2025-06-09T13:39:20.060299
7898,-0.4016,0.6407,0.6612,2.485,-1.260,1.645,0.01,0.0368,0.0508,0.0100,0.0087,2025-06-09T13:39:20.163049
7899,-0.3933,0.6510,0.6637,1.365,-1.050,1.680,0.00,0.0184,0.0508,0.0200,0.0087,2025-06-09T13:39:20.163049
7900,-0.4006,0.6554,0.6627,1.610,-1.225,1.225,0.00,0.0184,0.0762,0.0300,0.0087,2025-06-09T13:39:20.163049
7901,-0.3958,0.6544,0.6564,1.610,-1.120,0.770,0.00,0.0000,0.0000,0.0200,0.0087,2025-06-09T13:39:20.163049
7902,-0.3948,0.6539,0.6559,0.875,-1.085,0.315,0.00,0.0184,0.0762,0.0000,0.0174,2025-06-09T13:39:20.163049
7903,-0.3977,0.6544,0.6622,0.385,-1.155,0.140,0.00,0.0000,0.0508,0.0000,0.0087,2025-06-09T13:39:20.163049
7904,-0.3982,0.6564,0.6642,0.700,-0.840,-0.070,0.00,0.0368,0.0508,0.0100,0.0087,2025-06-09T13:39:20.163049
7905,-0.4026,0.6529,0.6642,0.525,-0.665,-0.140,0.00,0.0368,0.0254,0.0100,0.0174,2025-06-09T13:39:20.163049
7906,-0.4031,0.6520,0.6612,0.455,-0.805,-0.140,0.01,0.0184,0.0508,0.0200,0.0174,2025-06-09T13:39:20.360521
7907,-0.4016,0.6490,0.6573,0.420,-0.875,0.140,0.01,0.0184,0.0762,0.0200,0.0174,2025-06-09T13:39:20.360521
7908,-0.4021,0.6500,0.6568,0.910,-1.085,0.350,0.01,0.0184,0.0508,0.0000,0.0087,2025-06-09T13:39:20.360521
7909,-0.4021,0.6549,0.6603,1.505,-1.260,0.490,0.00,0.0184,0.0508,0.0100,0.0087,2025-06-09T13:39:20.360521
7910,-0.4021,0.6564,0.6612,1.260,-1.225,0.560,0.01,0.0184,0.0508,0.0300,0.0087,2025-06-09T13:39:20.360521
7911,-0.4006,0.6573,0.6612,0.700,-1.330,0.420,0.01,0.0184,0.0254,0.0300,0.0087,2025-06-09T13:39:20.360521
7912,-0.3987,0.6593,0.6583,0.105,-1.680,0.035,0.00,0.0368,0.0254,0.0100,0.0087,2025-06-09T13:39:20.360521
7913,-0.4075,0.6598,0.6573,-0.140,-1.785,-0.035,0.00,0.0184,0.0254,0.0200,0.0000,2025-06-09T13:39:20.360521
7914,-0.4006,0.6549,0.6564,0.105,-2.030,-0.315,0.00,0.0184,0.0254,0.0100,0.0000,2025-06-09T13:39:20.360521
7915,-0.3977,0.6490,0.6564,-0.420,-1.715,-0.560,0.00,0.0184,0.0508,0.0000,0.0087,2025-06-09T13:39:20.360521
7916,-0.4065,0.6505,0.6559,-0.140,-2.100,-0.350,0.01,0.0368,0.0508,0.0401,0.0087,2025-06-09T13:39:20.360521
7917,-0.4046,0.6510,0.6608,0.140,-1.960,-0.140,0.00,0.0184,0.0508,0.0000,0.0000,2025-06-09T13:39:20.360521
7918,-0.4011,0.6490,0.6593,0.245,-1.960,-0.035,0.00,0.0184,0.0254,0.0401,0.0087,2025-06-09T13:39:20.360521
7919,-0.4021,0.6510,0.6568,0.175,-1.925,0.175,0.00,0.0184,0.0254,0.0300,0.0087,2025-06-09T13:39:20.360521
7920,-0.4031,0.6520,0.6564,0.385,-1.820,0.210,0.00,0.0368,0.0762,0.0300,0.0174,2025-06-09T13:39:20.456264
7921,-0.4021,0.6510,0.6534,0.385,-1.750,0.245,0.01,0.0368,0.0508,0.0300,0.0087,2025-06-09T13:39:20.456264
7922,-0.4050,0.6505,0.6568,0.595,-1.820,0.140,0.01,0.0368,0.0508,0.0200,0.0087,2025-06-09T13:39:20.456264
7923,-0.4060,0.6534,0.6544,0.490,-1.995,0.175,0.00,0.0184,0.0000,0.0000,0.0174,2025-06-09T13:39:20.456264
7924,-0.4046,0.6534,0.6559,0.490,-2.100,0.245,0.00,0.0368,0.0762,0.0300,0.0174,2025-06-09T13:39:20.613822
7925,-0.4055,0.6568,0.6588,0.490,-2.030,0.245,0.01,0.0184,0.0254,0.0100,0.0174,2025-06-09T13:39:20.613822
7926,-0.4055,0.6578,0.6583,0.525,-2.240,0.210,0.00,0.0184,0.0000,0.0000,0.0087,2025-06-09T13:39:20.613822
7927,-0.4050,0.6573,0.6583,0.315,-2.485,0.000,0.00,0.0184,0.0508,0.0200,0.0087,2025-06-09T13:39:20.613822
7928,-0.4041,0.6578,0.6544,-0.070,-2.485,-0.140,0.01,0.0368,0.0254,0.0300,0.0087,2025-06-09T13:39:20.613822
7929,-0.4041,0.6554,0.6539,-0.280,-2.625,-0.175,0.01,0.0184,0.0000,0.0000,0.0174,2025-06-09T13:39:20.613822
7930,-0.4050,0.6564,0.6573,-0.280,-2.730,-0.210,0.00,0.0368,0.0254,0.0100,0.0174,2025-06-09T13:39:20.613822
7931,-0.4055,0.6525,0.6554,-0.140,-2.765,-0.245,0.01,0.0184,0.0508,0.0401,0.0087,2025-06-09T13:39:20.613822
7932,-0.4041,0.6486,0.6564,-0.175,-2.835,-0.035,0.00,0.0184,0.0508,0.0000,0.0174,2025-06-09T13:39:20.613822
7933,-0.4036,0.6486,0.6554,0.035,-2.940,0.210,0.01,0.0184,0.0762,0.0703,0.0174,2025-06-09T13:39:20.613822
7934,-0.4046,0.6510,0.6568,0.525,-2.765,0.315,0.00,0.0184,0.0508,0.0000,0.0087,2025-06-09T13:39:20.613822
7935,-0.4041,0.6520,0.6588,0.560,-2.800,0.245,0.00,0.0368,0.0508,0.0000,0.0174,2025-06-09T13:39:20.677672
7936,-0.4036,0.6539,0.6564,0.420,-2.940,0.210,0.00,0.0184,0.0508,0.0401,0.0174,2025-06-09T13:39:20.677672
7937,-0.4021,0.6544,0.6534,0.000,-3.010,0.280,0.00,0.0368,0.0254,0.0200,0.0174,2025-06-09T13:39:20.677672
7938,-0.4041,0.6520,0.6529,-0.245,-2.975,0.105,0.00,0.0184,0.0508,0.0100,0.0000,2025-06-09T13:39:20.677672
7939,-0.4036,0.6539,0.6559,0.350,-2.870,0.140,0.01,0.0368,0.0508,0.0501,0.0087,2025-06-09T13:39:20.677672
7940,-0.4006,0.6490,0.6593,0.490,-2.800,0.105,0.01,0.0184,0.0508,0.0501,0.0087,2025-06-09T13:39:20.677672
7941,-0.4055,0.6495,0.6549,0.035,-2.905,0.210,0.00,0.0184,0.0508,0.0401,0.0087,2025-06-09T13:39:20.677672
7942,-0.4031,0.6500,0.6554,0.070,-3.010,0.350,0.01,0.0184,0.0508,0.0000,0.0087,2025-06-09T13:39:20.677672
7943,-0.4046,0.6534,0.6573,0.385,-2.660,0.315,0.00,0.0184,0.1018,0.0300,0.0174,2025-06-09T13:39:20.677672
7944,-0.4011,0.6525,0.6564,0.700,-2.660,0.210,0.01,0.0368,0.0000,0.0000,0.0000,2025-06-09T13:39:20.677672
7945,-0.4046,0.6544,0.6568,0.385,-2.870,0.175,0.00,0.0368,0.0254,0.0602,0.0174,2025-06-09T13:39:20.867150
7946,-0.4026,0.6534,0.6559,-0.210,-2.870,0.140,0.00,0.0184,0.0254,0.0501,0.0174,2025-06-09T13:39:20.867150
7947,-0.4011,0.6549,0.6588,-0.175,-2.765,-0.070,0.01,0.0184,0.1273,0.0401,0.0087,2025-06-09T13:39:20.867150
7948,-0.4046,0.6525,0.6564,0.140,-2.835,-0.140,0.01,0.0368,0.0508,0.0401,0.0087,2025-06-09T13:39:20.867150
7949,-0.4060,0.6515,0.6549,0.210,-2.555,0.070,0.00,0.0184,0.0254,0.0000,0.0087,2025-06-09T13:39:20.867150
7950,-0.4041,0.6539,0.6583,-0.070,-2.695,0.070,0.00,0.0184,0.0254,0.0200,0.0087,2025-06-09T13:39:20.867150
7951,-0.4041,0.6525,0.6568,-0.175,-2.835,-0.070,0.00,0.0184,0.0254,0.0401,0.0087,2025-06-09T13:39:20.867150
7952,-0.4050,0.6505,0.6549,-0.245,-2.800,-0.035,0.00,0.0368,0.0254,0.0501,0.0087,2025-06-09T13:39:20.867150
7953,-0.4041,0.6500,0.6525,-0.140,-2.730,0.105,0.00,0.0368,0.0508,0.0000,0.0087,2025-06-09T13:39:20.867150
7954,-0.4060,0.6510,0.6549,0.385,-2.765,0.140,0.01,0.0184,0.0508,0.0000,0.0087,2025-06-09T13:39:20.867150
7955,-0.4031,0.6525,0.6598,0.350,-2.660,0.175,0.00,0.0184,0.0254,0.0100,0.0087,2025-06-09T13:39:20.867150
7956,-0.4036,0.6544,0.6544,0.070,-2.765,0.105,0.00,0.0184,0.0508,0.0200,0.0087,2025-06-09T13:39:20.867150
7957,-0.4031,0.6520,0.6554,-0.035,-2.905,0.105,0.01,0.0184,0.0254,0.0401,0.0000,2025-06-09T13:39:20.867150
7958,-0.4026,0.6544,0.6539,0.175,-2.625,0.350,0.00,0.0184,0.0254,0.0100,0.0174,2025-06-09T13:39:20.867150
7959,-0.4050,0.6544,0.6554,0.560,-2.590,0.140,0.00,0.0368,0.0508,0.0000,0.0087,2025-06-09T13:39:20.964879
7960,-0.4016,0.6554,0.6573,0.245,-2.765,0.035,0.00,0.0000,0.0762,0.0000,0.0087,2025-06-09T13:39:20.964879
7961,-0.4046,0.6539,0.6549,-0.490,-2.800,0.000,0.00,0.0368,0.0254,0.0200,0.0087,2025-06-09T13:39:20.964879
7962,-0.4031,0.6529,0.6539,-0.385,-2.765,-0.035,0.01,0.0184,0.0508,0.0100,0.0087,2025-06-09T13:39:20.964879
7963,-0.4026,0.6529,0.6564,0.070,-2.695,0.000,0.01,0.0184,0.0000,0.0401,0.0087,2025-06-09T13:39:20.964879
7964,-0.4046,0.6529,0.6559,0.280,-2.450,0.035,0.00,0.0184,0.0508,0.0100,0.0087,2025-06-09T13:39:20.964879
7965,-0.4050,0.6539,0.6583,0.385,-2.625,0.210,0.01,0.0368,0.0000,0.0000,0.0087,2025-06-09T13:39:20.964879
7966,-0.4031,0.6525,0.6564,-0.140,-2.730,0.105,0.01,0.0184,0.0000,0.0000,0.0087,2025-06-09T13:39:21.065609
7967,-0.4060,0.6544,0.6559,-0.105,-2.625,0.070,0.00,0.0368,0.0508,0.0401,0.0174,2025-06-09T13:39:21.065609
7968,-0.4036,0.6534,0.6559,0.280,-2.590,0.105,0.01,0.0184,0.0254,0.0200,0.0087,2025-06-09T13:39:21.065609
7969,-0.4021,0.6534,0.6544,0.175,-2.660,0.035,0.00,0.0184,0.0254,0.0000,0.0174,2025-06-09T13:39:21.065609
7970,-0.4055,0.6510,0.6549,-0.140,-2.625,0.070,0.00,0.0368,0.0762,0.0100,0.0087,2025-06-09T13:39:21.065609
7971,-0.4046,0.6539,0.6568,-0.140,-2.660,0.105,0.00,0.0000,0.0254,0.0401,0.0087,2025-06-09T13:39:21.065609
7972,-0.4016,0.6534,0.6578,0.140,-2.730,0.140,0.00,0.0368,0.0508,0.0401,0.0087,2025-06-09T13:39:21.065609
7973,-0.4021,0.6520,0.6539,0.210,-2.590,0.140,0.00,0.0368,0.0254,0.0300,0.0174,2025-06-09T13:39:21.065609
7974,-0.4036,0.6520,0.6564,0.280,-2.520,0.070,0.00,0.0184,0.0000,0.0200,0.0174,2025-06-09T13:39:21.166369
7975,-0.4041,0.6534,0.6564,0.245,-2.625,0.070,0.01,0.0184,0.0508,0.0100,0.0087,2025-06-09T13:39:21.166369
7976,-0.4031,0.6544,0.6564,0.035,-2.625,0.035,0.01,0.0184,0.0508,0.0100,0.0174,2025-06-09T13:39:21.166369
7977,-0.4026,0.6549,0.6549,-0.105,-2.695,0.105,0.00,0.0368,0.0254,0.0100,0.0087,2025-06-09T13:39:21.166369
7978,-0.4031,0.6525,0.6559,-0.035,-2.695,0.035,0.00,0.0184,0.0508,0.0100,0.0087,2025-06-09T13:39:21.166369
7979,-0.4036,0.6500,0.6573,0.035,-2.555,-0.035,0.01,0.0184,0.0254,0.0100,0.0174,2025-06-09T13:39:21.166369
7980,-0.4031,0.6500,0.6549,0.245,-2.590,0.000,0.00,0.0184,0.0762,0.0401,0.0087,2025-06-09T13:39:21.166369
7981,-0.4041,0.6534,0.6539,0.105,-2.520,0.210,0.00,0.0368,0.0762,0.0200,0.0087,2025-06-09T13:39:21.399717
7982,-0.4036,0.6534,0.6568,0.105,-2.450,0.105,0.00,0.0184,0.0254,0.0300,0.0000,2025-06-09T13:39:21.399717
7983,-0.4046,0.6539,0.6568,0.280,-2.520,0.175,0.01,0.0000,0.0000,0.0000,0.0174,2025-06-09T13:39:21.399717
7984,-0.4036,0.6520,0.6568,0.105,-2.555,0.035,0.00,0.0368,0.0508,0.0000,0.0174,2025-06-09T13:39:21.399717
7985,-0.4036,0.6529,0.6559,-0.070,-2.520,0.035,0.00,0.0368,0.0254,0.0300,0.0174,2025-06-09T13:39:21.399717
7986,-0.4055,0.6515,0.6534,0.105,-2.590,8.925,0.00,0.0368,0.0254,0.0100,0.0087,2025-06-09T13:39:21.399717
7987,-0.4041,0.6529,0.6564,0.210,-2.485,0.105,0.00,0.0368,0.0254,0.0200,0.0087,2025-06-09T13:39:21.399717
7988,-0.4026,0.6539,0.6564,0.385,-2.450,0.175,0.00,0.0184,0.0508,0.0200,0.0174,2025-06-09T13:39:21.399717
7989,-0.4016,0.6520,0.6593,0.280,-2.485,0.210,0.00,0.0000,0.0254,0.0501,0.0087,2025-06-09T13:39:21.399717
7990,-0.4026,0.6549,0.6544,0.105,-2.625,0.210,0.00,0.0184,0.0000,0.0100,0.0174,2025-06-09T13:39:21.399717
7991,-0.4046,0.6554,0.6568,0.280,-2.450,0.105,0.00,0.0184,0.0254,0.0200,0.0087,2025-06-09T13:39:21.399717
7992,-0.4050,0.6544,0.6568,0.245,-2.590,0.070,0.01,0.0184,0.0254,0.0300,0.0087,2025-06-09T13:39:21.399717
7993,-0.4055,0.6534,0.6549,-0.175,-2.625,0.105,0.00,0.0368,0.0254,0.0100,0.0087,2025-06-09T13:39:21.399717
7994,-0.4041,0.6534,0.6559,-0.070,-2.695,0.035,0.01,0.0184,0.0254,0.0100,0.0087,2025-06-09T13:39:21.399717
7995,-0.4050,0.6520,0.6568,-0.175,-2.625,-0.035,0.00,0.0368,0.0508,0.0100,0.0087,2025-06-09T13:39:21.399717
7996,-0.4036,0.6534,0.6573,0.280,-2.555,0.070,0.00,0.0368,0.0508,0.0300,0.0087,2025-06-09T13:39:21.399717
7997,-0.4026,0.6549,0.6549,0.245,-2.590,0.175,0.00,0.0368,0.0508,0.0200,0.0174,2025-06-09T13:39:21.399717
7998,-0.4002,0.6510,0.6534,0.000,-2.555,0.000,0.00,0.0184,0.0254,0.0100,0.0087,2025-06-09T13:39:21.584223
7999,-0.4065,0.6525,0.6544,0.035,-2.660,0.140,0.00,0.0184,0.0254,0.0401,0.0087,2025-06-09T13:39:21.584223
8000,-0.4006,0.6529,0.6529,0.420,-2.485,0.210,0.01,0.0184,0.0508,0.0300,0.0174,2025-06-09T13:39:21.584223
8001,-0.4070,0.6549,0.6549,0.385,-2.520,0.210,0.01,0.0184,0.0762,0.0300,0.0087,2025-06-09T13:39:21.584223
8002,-0.4026,0.6549,0.6564,0.245,-2.660,0.105,0.01,0.0184,0.0508,0.0200,0.0087,2025-06-09T13:39:21.584223
8003,-0.4050,0.6544,0.6534,-0.070,-2.660,0.035,0.01,0.0184,0.0254,0.0200,0.0262,2025-06-09T13:39:21.584223
8004,-0.4036,0.6549,0.6534,-0.070,-2.765,0.175,0.01,0.0368,0.0508,0.0804,0.0087,2025-06-09T13:39:21.584223
8005,-0.4036,0.6544,0.6559,0.210,-2.590,-0.035,0.00,0.0184,0.0000,0.0300,0.0174,2025-06-09T13:39:21.584223
8006,-0.4050,0.6534,0.6564,0.280,-2.625,0.000,0.00,0.0368,0.0254,0.0300,0.0087,2025-06-09T13:39:21.584223
8007,-0.4060,0.6520,0.6559,0.070,-2.695,0.210,0.00,0.0184,0.0508,0.0401,0.0174,2025-06-09T13:39:21.584223
8008,-0.4046,0.6539,0.6549,-0.455,-2.730,0.140,0.00,0.0184,0.0254,0.0200,0.0000,2025-06-09T13:39:21.584223
8009,-0.4041,0.6529,0.6559,0.140,-2.660,0.000,0.00,0.0368,0.0508,0.0300,0.0087,2025-06-09T13:39:21.584223
8010,-0.4036,0.6515,0.6573,0.280,-2.520,0.105,0.00,0.0368,0.0508,0.0602,0.0000,2025-06-09T13:39:21.584223
8011,-0.4016,0.6529,0.6525,-0.105,-2.800,0.105,0.00,0.0368,0.0254,0.0200,0.0087,2025-06-09T13:39:21.584223
8012,-0.4055,0.6554,0.6588,-0.035,-2.660,0.105,0.00,0.0368,0.0508,0.0100,0.0087,2025-06-09T13:39:21.684953
8013,-0.4011,0.6529,0.6554,0.035,-2.485,0.000,0.00,0.0184,0.0254,0.0000,0.0174,2025-06-09T13:39:21.684953
8014,-0.4060,0.6529,0.6529,0.175,-2.730,0.070,0.00,0.0184,0.0000,0.0200,0.0087,2025-06-09T13:39:21.684953
8015,-0.4031,0.6559,0.6564,0.210,-2.660,0.245,0.00,0.0368,0.0508,0.0300,0.0087,2025-06-09T13:39:21.684953
8016,-0.4026,0.6539,0.6578,0.000,-2.450,0.070,0.01,0.0184,0.0508,0.0501,0.0174,2025-06-09T13:39:21.684953
8017,-0.4065,0.6564,0.6559,0.245,-2.800,0.070,0.00,0.0184,0.0508,0.0200,0.0000,2025-06-09T13:39:21.684953
8018,-0.4026,0.6534,0.6534,0.000,-2.590,0.175,0.00,0.0184,0.0508,0.0100,0.0087,2025-06-09T13:39:21.684953
8019,-0.4065,0.6544,0.6573,0.000,-2.590,0.000,0.00,0.0184,0.0762,0.0300,0.0087,2025-06-09T13:39:21.684953
8020,-0.4046,0.6539,0.6559,0.315,-2.765,-0.035,0.01,0.0368,0.0508,0.0200,0.0087,2025-06-09T13:39:21.759787
8021,-0.4046,0.6515,0.6544,-0.245,-2.730,0.000,0.00,0.0368,0.0508,0.0200,0.0087,2025-06-09T13:39:21.759787
8022,-0.4050,0.6525,0.6544,-0.385,-2.765,0.035,0.00,0.0184,0.0508,0.0100,0.0087,2025-06-09T13:39:21.759787
8023,-0.4046,0.6534,0.6549,0.105,-2.660,0.140,0.00,0.0368,0.0254,0.0100,0.0087,2025-06-09T13:39:21.759787
8024,-0.4016,0.6515,0.6549,0.175,-2.590,-0.105,0.00,0.0184,0.0508,0.0401,0.0087,2025-06-09T13:39:21.759787
8025,-0.4060,0.6525,0.6525,-0.385,-2.485,-0.140,0.01,0.0184,0.0254,0.0300,0.0087,2025-06-09T13:39:21.759787
8026,-0.4041,0.6505,0.6529,-0.175,-2.660,0.175,0.00,0.0184,0.0508,0.0100,0.0087,2025-06-09T13:39:21.810618
8027,-0.4036,0.6549,0.6573,0.490,-2.520,0.315,0.00,0.0184,0.0508,0.0300,0.0174,2025-06-09T13:39:21.810618
8028,-0.4041,0.6568,0.6583,0.630,-2.520,0.140,0.00,0.0184,0.1273,0.0401,0.0087,2025-06-09T13:39:21.810618
8029,-0.4046,0.6564,0.6520,-0.350,-2.660,0.000,0.01,0.0368,0.0508,0.0300,0.0087,2025-06-09T13:39:21.891402
8030,-0.4036,0.6544,0.6539,-0.700,-2.905,0.105,0.00,0.0184,0.0508,0.0401,0.0087,2025-06-09T13:39:21.891402
8031,-0.4016,0.6554,0.6544,-0.070,-2.520,-0.035,0.00,0.0368,0.0254,0.0000,0.0174,2025-06-09T13:39:21.891402
8032,-0.4065,0.6568,0.6588,1.015,-2.520,-0.070,0.00,0.0368,0.0254,0.0200,0.0000,2025-06-09T13:39:21.891402
8033,-0.4085,0.6564,0.6564,0.385,-2.590,0.210,0.01,0.0368,0.0000,0.0300,0.0087,2025-06-09T13:39:21.891402
8034,-0.4021,0.6534,0.6544,-0.560,-3.045,0.000,0.01,0.0184,0.0762,0.0200,0.0087,2025-06-09T13:39:21.891402
8035,-0.4046,0.6505,0.6554,-1.085,-2.835,-0.315,0.01,0.0368,0.0508,0.0200,0.0174,2025-06-09T13:39:21.989267
8036,-0.4041,0.6476,0.6525,-0.315,-2.800,-0.245,0.01,0.0368,0.0508,0.0100,0.0087,2025-06-09T13:39:21.989267
8037,-0.4055,0.6486,0.6529,0.665,-2.415,0.140,0.00,0.0184,0.0254,0.0300,0.0087,2025-06-09T13:39:21.989267
8038,-0.4036,0.6520,0.6593,0.665,-2.835,0.105,0.01,0.0368,0.0508,0.0200,0.0087,2025-06-09T13:39:21.989267
8039,-0.4036,0.6481,0.6544,-0.560,-2.765,0.175,0.01,0.0000,0.0000,0.0300,0.0087,2025-06-09T13:39:21.989267
8040,-0.4080,0.6510,0.6525,0.035,-2.940,0.595,0.00,0.0184,0.0508,0.0200,0.0087,2025-06-09T13:39:21.989267
8041,-0.3992,0.6520,0.6554,0.910,-2.625,0.490,0.01,0.0184,0.0254,0.0000,0.0087,2025-06-09T13:39:21.989267
8042,-0.4055,0.6583,0.6598,1.225,-2.240,0.210,0.00,0.0184,0.0254,0.0200,0.0087,2025-06-09T13:39:22.130886
8043,-0.4089,0.6539,0.6554,0.595,-2.800,0.280,0.00,0.0368,0.0508,0.0501,0.0087,2025-06-09T13:39:22.131882
8044,-0.4041,0.6549,0.6515,-0.490,-3.010,0.350,0.00,0.0000,0.0508,0.0100,0.0087,2025-06-09T13:39:22.131882
8045,-0.4002,0.6578,0.6593,-0.140,-2.800,0.035,0.01,0.0184,0.0000,0.0200,0.0087,2025-06-09T13:39:22.131882
8046,-0.4065,0.6549,0.6583,0.805,-2.380,-0.245,0.01,0.0368,0.0762,0.0000,0.0000,2025-06-09T13:39:22.131882
8047,-0.4041,0.6515,0.6500,0.245,-2.835,0.035,0.00,0.0184,0.0508,0.0300,0.0174,2025-06-09T13:39:22.131882
8048,-0.4050,0.6539,0.6539,-1.120,-2.905,0.140,0.00,0.0000,0.0508,0.0100,0.0174,2025-06-09T13:39:22.131882
8049,-0.4055,0.6539,0.6622,-0.140,-2.800,-0.035,0.00,0.0368,0.0254,0.0401,0.0087,2025-06-09T13:39:22.131882
8050,-0.4021,0.6505,0.6568,0.770,-2.695,-0.035,0.01,0.0184,0.0254,0.0200,0.0087,2025-06-09T13:39:22.131882
8051,-0.4075,0.6529,0.6500,0.070,-2.800,0.280,0.01,0.0000,0.0508,0.0200,0.0087,2025-06-09T13:39:22.131882
8052,-0.4021,0.6568,0.6539,0.035,-2.730,0.280,0.01,0.0184,0.0254,0.0501,0.0087,2025-06-09T13:39:22.321377
8053,-0.4094,0.6568,0.6612,0.455,-2.660,0.175,0.00,0.0184,0.0000,0.0200,0.0087,2025-06-09T13:39:22.321377
8054,-0.4041,0.6544,0.6510,0.175,-2.975,0.035,0.00,0.0368,0.0254,0.0000,0.0174,2025-06-09T13:39:22.321377
8055,-0.4050,0.6481,0.6486,-0.595,-2.975,0.175,0.00,0.0368,0.0508,0.0100,0.0087,2025-06-09T13:39:22.321377
8056,-0.4031,0.6529,0.6588,-0.105,-2.870,0.210,0.01,0.0368,0.0508,0.0200,0.0087,2025-06-09T13:39:22.321377
8057,-0.4031,0.6515,0.6559,0.805,-2.625,0.070,0.00,0.0184,0.0254,0.0000,0.0174,2025-06-09T13:39:22.321377
8058,-0.4060,0.6510,0.6529,0.805,-2.555,0.280,0.00,0.0184,0.0508,0.0000,0.0087,2025-06-09T13:39:22.321377
8059,-0.4046,0.6534,0.6549,0.105,-2.730,0.490,0.00,0.0368,0.0254,0.0200,0.0087,2025-06-09T13:39:22.321377
8060,-0.4046,0.6573,0.6564,0.105,-2.695,0.245,0.00,0.0184,0.0254,0.0000,0.0087,2025-06-09T13:39:22.321377
8061,-0.4046,0.6578,0.6539,0.455,-2.590,0.035,0.01,0.0184,0.0254,0.0300,0.0087,2025-06-09T13:39:22.321377
8062,-0.4041,0.6559,0.6529,0.210,-2.555,0.070,0.00,0.0184,0.0508,0.0200,0.0087,2025-06-09T13:39:22.321377
8063,-0.4036,0.6549,0.6529,-0.140,-2.625,0.140,0.00,0.0184,0.0508,0.0000,0.0087,2025-06-09T13:39:22.321377
8064,-0.4065,0.6578,0.6583,0.140,-2.730,-0.105,0.00,0.0184,0.0508,0.0200,0.0087,2025-06-09T13:39:22.321377
8065,-0.4060,0.6525,0.6520,-0.070,-2.695,-0.070,0.01,0.0368,0.0508,0.0200,0.0087,2025-06-09T13:39:22.321377
8066,-0.4031,0.6515,0.6539,-0.245,-2.870,0.000,0.01,0.0184,0.0508,0.0300,0.0174,2025-06-09T13:39:22.321377
8067,-0.4031,0.6539,0.6568,-0.035,-2.730,0.070,0.01,0.0184,0.0508,0.0401,0.0174,2025-06-09T13:39:22.574723
8068,-0.4041,0.6529,0.6573,0.245,-2.520,0.070,0.01,0.0368,0.0000,0.0300,0.0087,2025-06-09T13:39:22.574723
8069,-0.4046,0.6515,0.6515,0.105,-2.800,0.175,0.01,0.0368,0.0508,0.0703,0.0087,2025-06-09T13:39:22.574723
8070,-0.4050,0.6520,0.6554,0.000,-2.660,0.175,0.01,0.0184,0.0254,0.0000,0.0174,2025-06-09T13:39:22.574723
8071,-0.4046,0.6549,0.6544,0.245,-2.625,0.245,0.00,0.0368,0.0000,0.0000,0.0087,2025-06-09T13:39:22.574723
8072,-0.4036,0.6554,0.6539,0.385,-2.625,0.140,0.00,0.0368,0.0508,0.0000,0.0087,2025-06-09T13:39:22.574723
8073,-0.4055,0.6525,0.6529,0.245,-2.660,0.210,0.00,0.0368,0.0254,0.0000,0.0000,2025-06-09T13:39:22.574723
8074,-0.4031,0.6539,0.6559,-0.035,-2.485,0.315,0.00,0.0184,0.0254,0.0100,0.0087,2025-06-09T13:39:22.730282
8075,-0.4036,0.6534,0.6554,0.210,-2.660,0.245,0.00,0.0184,0.0254,0.0000,0.0087,2025-06-09T13:39:22.730282
8076,-0.4041,0.6525,0.6539,0.280,-2.485,0.315,0.01,0.0184,0.0254,0.0200,0.0174,2025-06-09T13:39:22.730282
8077,-0.4050,0.6544,0.6534,0.210,-2.520,0.350,0.00,0.0368,0.0508,0.0000,0.0087,2025-06-09T13:39:22.730282
8078,-0.4065,0.6568,0.6549,0.315,-2.660,0.210,0.00,0.0368,0.0762,0.0300,0.0087,2025-06-09T13:39:22.730282
8079,-0.4050,0.6564,0.6544,0.175,-2.660,0.035,0.00,0.0184,0.0508,0.0401,0.0087,2025-06-09T13:39:22.730282
8080,-0.4046,0.6544,0.6544,0.035,-2.555,0.070,0.01,0.0184,0.0508,0.0000,0.0174,2025-06-09T13:39:22.730282
8081,-0.4075,0.6525,0.6554,0.210,-2.730,0.105,0.00,0.0184,0.0254,0.0200,0.0087,2025-06-09T13:39:22.730282
8082,-0.4036,0.6529,0.6539,0.105,-2.625,0.315,0.00,0.0368,0.0254,0.0000,0.0087,2025-06-09T13:39:22.730282
8083,-0.4041,0.6534,0.6549,0.105,-2.520,0.140,0.01,0.0184,0.0000,0.0000,0.0174,2025-06-09T13:39:22.730282
8084,-0.4055,0.6554,0.6554,0.420,-2.625,0.175,0.00,0.0184,0.0000,0.0401,0.0000,2025-06-09T13:39:22.730282
8085,-0.4046,0.6529,0.6539,0.175,-2.660,0.175,0.01,0.0368,0.0762,0.0000,0.0087,2025-06-09T13:39:22.730282
8086,-0.4041,0.6539,0.6520,-0.175,-2.695,0.245,0.01,0.0184,0.0254,0.0000,0.0087,2025-06-09T13:39:22.730282
8087,-0.4055,0.6544,0.6549,0.280,-2.695,0.175,0.01,0.0368,0.0508,0.0300,0.0174,2025-06-09T13:39:22.730282
8088,-0.4050,0.6520,0.6534,0.175,-2.695,0.035,0.01,0.0184,0.0508,0.0401,0.0087,2025-06-09T13:39:22.730282
8089,-0.4046,0.6500,0.6510,-0.140,-2.765,0.245,0.01,0.0184,0.0254,0.0401,0.0087,2025-06-09T13:39:22.730282
8090,-0.4016,0.6549,0.6529,0.315,-2.695,0.245,0.01,0.0368,0.0508,0.0804,0.0174,2025-06-09T13:39:22.730282
8091,-0.4021,0.6534,0.6568,0.630,-2.310,0.315,0.01,0.0184,0.0254,0.0401,0.0087,2025-06-09T13:39:22.730282
8092,-0.4041,0.6529,0.6529,0.665,-2.625,0.560,0.00,0.0184,0.0254,0.0000,0.0087,2025-06-09T13:39:22.730282
8093,-0.4041,0.6554,0.6525,0.245,-2.695,0.525,0.00,0.0184,0.0254,0.0000,0.0087,2025-06-09T13:39:22.730282
8094,-0.4065,0.6564,0.6559,0.210,-2.450,0.350,0.00,0.0368,0.0508,0.0200,0.0087,2025-06-09T13:39:22.730282
8095,-0.3987,0.6554,0.6539,0.630,-2.310,0.070,0.00,0.0368,0.0508,0.0000,0.0174,2025-06-09T13:39:22.730282
