SeqNum,AccX,AccY,AccZ,GyroX,GyroY,GyroZ,Flex,Force1,Force2,Force3,Force4,TimestampReception
7997,-0.1810,-0.4382,0.9448,0.910,12.775,5.005,0.95,0.0368,0.1529,0.0804,0.0087,2025-06-11T08:59:02.546084
7998,-0.3889,0.2435,0.9516,-27.545,25.270,29.610,0.92,0.0184,0.1529,0.1725,0.0174,2025-06-11T08:59:02.546084
7999,-0.3767,0.2455,0.9653,-24.500,24.395,26.425,0.93,0.0368,0.1529,0.1725,0.0087,2025-06-11T08:59:02.546084
8000,-0.4177,0.2660,0.9745,-21.840,23.170,23.135,0.93,0.0368,0.1529,0.1828,0.0087,2025-06-11T08:59:02.546084
8001,-0.4290,0.2865,1.0028,-19.180,21.035,19.635,0.92,0.0368,0.1273,0.1828,0.0174,2025-06-11T08:59:02.546084
8002,-0.4612,0.3050,1.0155,-16.870,16.730,15.505,0.93,0.0184,0.1273,0.1622,0.0174,2025-06-11T08:59:02.546084
8003,-0.4641,0.2835,0.9809,-14.490,10.080,14.000,0.93,0.0368,0.1273,0.1828,0.0087,2025-06-11T08:59:02.547153
8004,-0.5041,0.2708,0.9970,-11.865,3.115,13.790,0.93,0.0368,0.1273,0.1932,0.0174,2025-06-11T08:59:02.547153
8005,-0.5197,0.2679,1.0414,-9.520,-2.940,13.335,0.93,0.0184,0.1273,0.1932,0.0087,2025-06-11T08:59:02.547153
8006,-0.5022,0.2572,1.0795,-6.650,-4.620,12.915,0.93,0.0368,0.1273,0.1932,0.0087,2025-06-11T08:59:02.547153
8007,-0.4953,0.2547,1.0941,-4.515,-4.585,12.565,0.93,0.0368,0.1529,0.1725,0.0174,2025-06-11T08:59:02.547153
8008,-0.4646,0.2425,1.0926,-3.150,-3.360,13.475,0.93,0.0368,0.1273,0.1622,0.0087,2025-06-11T08:59:02.547153
8009,-0.4333,0.2030,1.0404,-0.840,-5.985,15.470,0.93,0.0184,0.1273,0.1622,0.0087,2025-06-11T08:59:02.547153
8010,-0.4314,0.1796,1.0155,2.240,-8.680,17.185,0.93,0.0368,0.1273,0.1725,0.0000,2025-06-11T08:59:02.547153
8011,-0.3997,0.1874,1.0116,4.305,-9.590,16.205,0.93,0.0184,0.1273,0.1828,0.0087,2025-06-11T08:59:02.547153
8012,-0.3880,0.1850,1.0121,8.085,-9.660,14.280,0.93,0.0368,0.1529,0.1622,0.0087,2025-06-11T08:59:02.564634
8013,-0.3660,0.1830,0.9926,10.570,-9.485,10.780,0.93,0.0368,0.1529,0.1725,0.0087,2025-06-11T08:59:02.564634
8014,-0.3611,0.1791,0.9389,14.070,-11.165,7.595,0.93,0.0368,0.1529,0.1828,0.0174,2025-06-11T08:59:02.564634
8015,-0.3587,0.1898,0.8843,16.415,-15.925,3.745,0.93,0.0368,0.1273,0.1932,0.0087,2025-06-11T08:59:02.564634
8016,-0.3182,0.1850,0.8545,18.095,-22.050,0.910,0.93,0.0368,0.1529,0.1725,0.0087,2025-06-11T08:59:02.564634
8017,-0.3094,0.2113,0.8389,20.020,-25.760,-3.570,0.93,0.0368,0.1529,0.1828,0.0087,2025-06-11T08:59:02.564634
8018,-0.2962,0.2411,0.8194,20.230,-27.930,-8.750,0.92,0.0368,0.1529,0.1622,0.0087,2025-06-11T08:59:02.565644
8019,-0.3079,0.2635,0.8091,20.265,-27.615,-14.595,0.93,0.0184,0.1273,0.1622,0.0087,2025-06-11T08:59:02.565644
8020,-0.3250,0.2845,0.8062,19.600,-26.425,-21.455,0.93,0.0184,0.1273,0.1725,0.0174,2025-06-11T08:59:02.565772
8021,-0.3572,0.2865,0.8145,18.970,-25.900,-26.950,0.93,0.0368,0.1529,0.1519,0.0087,2025-06-11T08:59:02.565772
8022,-0.3894,0.2908,0.7862,18.270,-30.030,-31.675,0.93,0.0368,0.1529,0.2035,0.0087,2025-06-11T08:59:02.565772
8023,-0.4231,0.2923,0.7657,17.570,-36.225,-33.040,0.93,0.0184,0.1529,0.1725,0.0087,2025-06-11T08:59:02.565772
8024,-0.4299,0.2699,0.7828,17.465,-42.175,-31.360,0.93,0.0368,0.1273,0.1622,0.0087,2025-06-11T08:59:02.565772
8025,-0.4573,0.2850,0.8740,18.620,-43.925,-29.400,0.93,0.0368,0.1273,0.1519,0.0087,2025-06-11T08:59:02.565772
8026,-0.4724,0.3016,0.9209,19.670,-42.070,-27.195,0.93,0.0368,0.1273,0.1519,0.0087,2025-06-11T08:59:02.565772
8027,-0.4460,0.3006,0.9301,21.595,-36.330,-25.375,0.93,0.0368,0.1273,0.1519,0.0174,2025-06-11T08:59:02.565772
8028,-0.4280,0.2869,0.9170,22.295,-27.160,-23.380,0.93,0.0368,0.1273,0.1416,0.0174,2025-06-11T08:59:02.565772
8029,-0.3972,0.2713,0.9389,23.905,-18.970,-19.705,0.93,0.0368,0.1273,0.1725,0.0087,2025-06-11T08:59:02.573782
8030,-0.3709,0.2708,0.9921,25.165,-7.070,-13.685,0.93,0.0552,0.1273,0.1725,0.0174,2025-06-11T08:59:02.947777
8031,-0.3255,0.2674,1.0341,26.565,4.900,-9.100,0.93,0.0368,0.1273,0.1622,0.0174,2025-06-11T08:59:02.947777
8032,-0.3011,0.2835,1.0638,27.720,12.215,-5.600,0.93,0.0368,0.1273,0.1725,0.0174,2025-06-11T08:59:02.948779
8033,-0.3055,0.3065,1.0516,27.300,17.220,-2.660,0.93,0.0368,0.1273,0.1828,0.0174,2025-06-11T08:59:02.948942
8034,-0.3177,0.3084,0.9921,25.270,15.925,-1.890,0.93,0.0368,0.1529,0.1828,0.0174,2025-06-11T08:59:02.948942
8035,-0.3270,0.3138,0.9760,23.275,10.255,-1.190,0.93,0.0368,0.1273,0.1932,0.0087,2025-06-11T08:59:02.948942
8036,-0.3367,0.3226,0.9882,20.755,1.295,-2.310,0.93,0.0368,0.1273,0.1932,0.0087,2025-06-11T08:59:02.948942
8037,-0.3436,0.3255,0.9906,17.920,-7.140,-4.165,0.93,0.0368,0.1529,0.2035,0.0087,2025-06-11T08:59:02.948942
8038,-0.3255,0.3152,0.9838,15.365,-17.815,-4.620,0.93,0.0368,0.1273,0.2035,0.0087,2025-06-11T08:59:02.948942
8039,-0.3309,0.3045,0.9623,13.160,-23.590,-5.985,0.93,0.0184,0.1273,0.1828,0.0087,2025-06-11T08:59:02.948942
8040,-0.3367,0.2952,0.9384,11.095,-27.580,-8.295,0.93,0.0368,0.1273,0.1828,0.0087,2025-06-11T08:59:02.948942
8041,-0.3387,0.2845,0.9160,10.045,-29.225,-10.535,0.93,0.0184,0.1273,0.1932,0.0174,2025-06-11T08:59:02.949777
8042,-0.3475,0.2767,0.8989,9.240,-29.785,-12.320,0.93,0.0368,0.1273,0.1519,0.0174,2025-06-11T08:59:02.949777
8043,-0.3616,0.2630,0.9072,9.765,-29.435,-14.385,0.93,0.0368,0.1273,0.1725,0.0087,2025-06-11T08:59:02.983686
8044,-0.3738,0.2474,0.9082,11.340,-29.015,-15.645,0.93,0.0368,0.1529,0.1828,0.0174,2025-06-11T08:59:02.983686
8045,-0.3831,0.2352,0.9008,12.915,-27.895,-17.220,0.93,0.0368,0.1273,0.2035,0.0087,2025-06-11T08:59:02.984324
8046,-0.3704,0.2333,0.8974,15.190,-26.075,-18.550,0.93,0.0368,0.1273,0.2035,0.0087,2025-06-11T08:59:02.984683
8047,-0.3299,0.2416,0.8940,16.975,-23.870,-19.845,0.93,0.0368,0.1273,0.2035,0.0174,2025-06-11T08:59:02.984683
8048,-0.3128,0.2562,0.8891,18.410,-19.285,-21.630,0.93,0.0368,0.1529,0.2035,0.0174,2025-06-11T08:59:02.984683
8049,-0.2855,0.2713,0.8813,19.215,-15.785,-23.800,0.93,0.0184,0.1273,0.1932,0.0087,2025-06-11T08:59:02.984683
8050,-0.2835,0.2879,0.8872,20.370,-13.195,-25.620,0.93,0.0184,0.1273,0.2035,0.0174,2025-06-11T08:59:02.984683
8051,-0.2957,0.3074,0.8847,20.335,-12.040,-28.350,0.93,0.0368,0.1273,0.2035,0.0087,2025-06-11T08:59:02.984683
8052,-0.3001,0.3187,0.8906,21.210,-13.265,-29.890,0.93,0.0184,0.1529,0.2139,0.0087,2025-06-11T08:59:02.984683
8053,-0.3123,0.3274,0.8921,21.315,-15.365,-30.485,0.93,0.0184,0.1529,0.2035,0.0174,2025-06-11T08:59:02.984683
8054,-0.3143,0.3387,0.8999,21.140,-16.695,-31.710,0.93,0.0368,0.1273,0.1932,0.0087,2025-06-11T08:59:02.984683
8055,-0.3011,0.3479,0.9150,21.245,-16.975,-31.395,0.93,0.0184,0.1273,0.1932,0.0087,2025-06-11T08:59:02.985680
8056,-0.3026,0.3567,0.9213,20.720,-16.135,-30.345,0.93,0.0368,0.1273,0.2035,0.0087,2025-06-11T08:59:02.985680
8057,-0.3089,0.3665,0.9316,19.495,-15.190,-29.120,0.93,0.0368,0.1529,0.2035,0.0174,2025-06-11T08:59:02.985680
8058,-0.3065,0.3806,0.9462,19.005,-14.595,-27.300,0.93,0.0368,0.1273,0.1932,0.0087,2025-06-11T08:59:02.985680
8059,-0.3177,0.3782,0.9282,17.640,-14.840,-25.235,0.93,0.0368,0.1529,0.2035,0.0174,2025-06-11T08:59:02.985680
8060,-0.3089,0.3753,0.9101,16.345,-16.905,-22.295,0.93,0.0368,0.1529,0.2139,0.0174,2025-06-11T08:59:03.027835
8061,-0.2845,0.3699,0.9199,16.345,-17.220,-19.915,0.93,0.0368,0.1273,0.2139,0.0174,2025-06-11T08:59:03.340560
8062,-0.2801,0.3826,0.9052,14.735,-17.920,-17.990,0.93,0.0368,0.1529,0.2035,0.0174,2025-06-11T08:59:03.340560
8063,-0.2821,0.3811,0.9072,14.280,-17.325,-16.870,0.93,0.0368,0.1529,0.2035,0.0087,2025-06-11T08:59:03.340560
8064,-0.2786,0.3816,0.9140,14.245,-16.065,-14.840,0.93,0.0368,0.1529,0.2035,0.0174,2025-06-11T08:59:03.340560
8065,-0.2884,0.3806,0.9038,14.070,-14.980,-13.895,0.93,0.0368,0.1529,0.2035,0.0087,2025-06-11T08:59:03.340560
8066,-0.3221,0.3748,0.8891,13.230,-14.980,-13.685,0.93,0.0184,0.1529,0.2035,0.0087,2025-06-11T08:59:03.340560
8067,-0.3118,0.4963,0.9004,13.300,-15.750,-12.355,0.93,0.0368,0.1529,0.1932,0.0174,2025-06-11T08:59:03.340560
8068,-0.3094,0.3758,0.9067,13.335,-16.100,-10.640,0.93,0.0184,0.1273,0.2035,0.0174,2025-06-11T08:59:03.340560
8069,-0.3099,0.3753,0.9008,12.810,-15.995,-9.380,0.93,0.0184,0.1529,0.2035,0.0174,2025-06-11T08:59:03.341626
8070,-0.2918,0.3802,0.8955,12.180,-14.595,-7.700,0.93,0.0184,0.1273,0.2035,0.0087,2025-06-11T08:59:03.341626
8071,-0.2850,0.3884,0.8965,11.305,-12.390,-6.510,0.93,0.0184,0.1529,0.1932,0.0174,2025-06-11T08:59:03.341626
8072,-0.2904,0.3909,0.8799,10.290,-11.165,-5.005,0.93,0.0368,0.1273,0.1932,0.0174,2025-06-11T08:59:03.341626
8073,-0.2972,0.3948,0.8721,9.240,-11.165,-3.640,0.93,0.0552,0.1529,0.2035,0.0087,2025-06-11T08:59:03.341626
8074,-0.2957,0.3997,0.8745,8.295,-11.305,-2.170,0.93,0.0368,0.1529,0.2035,0.0174,2025-06-11T08:59:03.341626
8075,-0.3001,0.3967,0.8716,7.490,-11.725,-1.400,0.93,0.0368,0.1786,0.2035,0.0174,2025-06-11T08:59:03.341626
8076,-0.3055,0.4002,0.8774,7.140,-11.830,-0.945,0.93,0.0368,0.1786,0.1828,0.0174,2025-06-11T08:59:03.341626
8077,-0.3006,0.3928,0.8813,6.965,-12.250,-0.525,0.93,0.0368,0.1529,0.1725,0.0087,2025-06-11T08:59:03.341626
8078,-0.3118,0.3889,0.8755,7.140,-12.740,-0.035,0.93,0.0184,0.1529,0.1725,0.0174,2025-06-11T08:59:03.543232
8079,-0.3143,0.3841,0.8721,7.140,-12.950,0.070,0.93,0.0368,0.1529,0.1622,0.0174,2025-06-11T08:59:03.543232
8080,-0.3065,0.3792,0.8716,7.875,-13.160,-0.105,0.93,0.0368,0.1529,0.1416,0.0174,2025-06-11T08:59:03.543232
8081,-0.2987,0.3680,0.8662,8.505,-12.600,-0.035,0.93,0.0368,0.1529,0.1416,0.0174,2025-06-11T08:59:03.543232
8082,-0.2943,0.3675,0.8794,8.890,-11.585,-0.175,0.93,0.0368,0.1529,0.1416,0.0174,2025-06-11T08:59:03.543232
8083,-0.2777,0.3743,0.9077,9.730,-9.940,-0.385,0.93,0.0368,0.1529,0.1519,0.0174,2025-06-11T08:59:03.543232
8084,-0.2743,0.3714,0.8930,9.310,-7.630,-0.245,0.93,0.0368,0.1529,0.1519,0.0087,2025-06-11T08:59:03.543232
8085,-0.2767,0.3660,0.8843,9.485,-6.055,-0.245,0.93,0.0368,0.1529,0.1519,0.0087,2025-06-11T08:59:03.543232
8086,-0.2772,0.3655,0.8955,9.415,-4.445,-0.385,0.93,0.0368,0.1529,0.1519,0.0087,2025-06-11T08:59:03.543232
8087,-0.2791,0.3655,0.8950,9.275,-3.710,-0.595,0.93,0.0368,0.1529,0.1212,0.0087,2025-06-11T08:59:03.543232
8088,-0.2855,0.3636,0.9018,9.100,-3.465,-0.035,0.93,0.0184,0.1529,0.1416,0.0087,2025-06-11T08:59:03.543232
8089,-0.2869,0.3675,0.9165,8.785,-3.570,0.140,0.93,0.0368,0.1529,0.1212,0.0174,2025-06-11T08:59:03.543232
8090,-0.2796,0.3733,0.9223,8.715,-2.975,0.035,0.93,0.0184,0.1529,0.1314,0.0087,2025-06-11T08:59:03.544299
8091,-0.2723,0.3782,0.9199,7.945,-1.540,-0.560,0.93,0.0184,0.1529,0.1314,0.0174,2025-06-11T08:59:03.544299
8092,-0.2747,0.3787,0.9062,7.210,0.035,-1.400,0.93,0.0368,0.1786,0.1212,0.0087,2025-06-11T08:59:03.544299
8093,-0.2699,0.3831,0.8974,6.195,1.470,-2.520,0.93,0.0368,0.1529,0.1314,0.0174,2025-06-11T08:59:03.544299
8094,-0.2786,0.3865,0.9004,5.250,1.960,-3.255,0.93,0.0368,0.1273,0.1314,0.0087,2025-06-11T08:59:03.544299
8095,-0.2845,0.3875,0.9067,3.955,1.645,-3.990,0.93,0.0368,0.1529,0.1314,0.0087,2025-06-11T08:59:03.544299
8096,-0.2879,0.3865,0.8979,3.185,-0.070,-4.340,0.93,0.0184,0.1529,0.1314,0.0087,2025-06-11T08:59:03.807514
8097,-0.2943,0.3875,0.8965,2.415,-1.960,-4.760,0.93,0.0368,0.1273,0.1314,0.0174,2025-06-11T08:59:03.807514
8098,-0.2938,0.3845,0.8979,1.575,-3.955,-4.935,0.93,0.0368,0.1529,0.1314,0.0174,2025-06-11T08:59:03.807514
8099,-0.2894,0.3806,0.8989,1.155,-4.865,-5.425,0.93,0.0368,0.1529,0.1314,0.0087,2025-06-11T08:59:03.807514
8100,-0.2918,0.3806,0.9038,1.085,-4.760,-5.880,0.93,0.0368,0.1529,0.1416,0.0174,2025-06-11T08:59:03.807514
8101,-0.2987,0.3738,0.8950,1.225,-4.550,-6.685,0.93,0.0184,0.1273,0.1314,0.0087,2025-06-11T08:59:03.807514
8102,-0.3035,0.3704,0.8857,1.645,-4.375,-7.455,0.93,0.0368,0.1273,0.1416,0.0087,2025-06-11T08:59:03.807514
8103,-0.2991,0.3723,0.8901,2.695,-3.815,-7.665,0.93,0.0368,0.1273,0.1416,0.0087,2025-06-11T08:59:03.807514
8104,-0.3104,0.3738,0.8901,3.395,-2.345,-8.540,0.93,0.0368,0.1273,0.1416,0.0087,2025-06-11T08:59:03.807514
8105,-0.3177,0.3758,0.8916,4.095,-1.085,-9.380,0.93,0.0368,0.1273,0.1416,0.0087,2025-06-11T08:59:03.807514
8106,-0.3143,0.3792,0.8867,4.655,-1.015,-9.520,0.93,0.0184,0.1273,0.1416,0.0174,2025-06-11T08:59:03.807514
8107,-0.3211,0.3816,0.8823,5.145,-0.980,-9.590,0.93,0.0184,0.1273,0.1416,0.0087,2025-06-11T08:59:03.807514
8108,-0.3060,0.3865,0.8843,5.460,-1.155,-9.730,0.93,0.0368,0.1273,0.1519,0.0087,2025-06-11T08:59:03.807514
8109,-0.3021,0.3992,0.8857,5.810,-0.840,-9.730,0.93,0.0368,0.1018,0.1519,0.0087,2025-06-11T08:59:03.808523
8110,-0.3055,0.3982,0.8818,5.320,-0.525,-9.730,0.93,0.0368,0.1018,0.1519,0.0087,2025-06-11T08:59:03.808523
8111,-0.3074,0.4006,0.8769,5.075,-0.840,-9.660,0.93,0.0368,0.1529,0.1519,0.0087,2025-06-11T08:59:03.808523
8112,-0.3104,0.4050,0.8901,4.760,-1.295,-9.800,0.93,0.0368,0.1273,0.1519,0.0087,2025-06-11T08:59:03.808523
8113,-0.3060,0.4050,0.8886,4.095,-1.715,-9.730,0.93,0.0368,0.1273,0.1416,0.0174,2025-06-11T08:59:03.962614
8114,-0.3035,0.4119,0.8891,3.745,-2.030,-9.345,0.93,0.0368,0.1273,0.1416,0.0174,2025-06-11T08:59:03.962614
8115,-0.3133,0.4148,0.8896,2.800,-2.275,-9.065,0.93,0.0368,0.1273,0.1519,0.0087,2025-06-11T08:59:03.962614
8116,-0.3060,0.4114,0.8891,1.995,-2.695,-8.400,0.93,0.0368,0.1529,0.1519,0.0174,2025-06-11T08:59:03.962614
8117,-0.3113,0.4119,0.8965,1.540,-2.765,-7.595,0.93,0.0368,0.1529,0.1416,0.0174,2025-06-11T08:59:03.962614
8118,-0.3138,0.4138,0.8945,0.980,-2.520,-6.965,0.93,0.0368,0.1273,0.1519,0.0087,2025-06-11T08:59:03.962614
8119,-0.3133,0.4153,0.8974,0.910,-1.785,-6.370,0.93,0.0368,0.1273,0.1519,0.0087,2025-06-11T08:59:03.962614
8120,-0.3084,0.4163,0.9038,0.805,-1.295,-5.355,0.93,0.0368,0.1273,0.1519,0.0174,2025-06-11T08:59:03.962614
8121,-0.3157,0.4221,0.9096,0.595,-1.470,-4.270,0.93,0.0368,0.1273,0.1519,0.0087,2025-06-11T08:59:03.962614
8122,-0.3143,0.4285,0.9170,0.385,-1.540,-3.290,0.93,0.0368,0.1529,0.1519,0.0174,2025-06-11T08:59:03.962614
8123,-0.3201,0.4255,0.9101,0.140,-1.960,-2.240,0.93,0.0368,0.1273,0.1519,0.0174,2025-06-11T08:59:03.963558
8124,-0.3177,0.4250,0.8979,-0.315,-2.765,-1.365,0.93,0.0184,0.1273,0.1622,0.0174,2025-06-11T08:59:03.963558
8125,-0.3216,0.4280,0.9018,-0.560,-3.850,-0.245,0.93,0.0368,0.1273,0.1519,0.0174,2025-06-11T08:59:03.963558
8126,-0.3113,0.4221,0.8945,-0.980,-5.390,0.770,0.93,0.0368,0.1273,0.1519,0.0174,2025-06-11T08:59:03.963558
8127,-0.3118,0.4216,0.8906,-0.945,-6.090,1.295,0.93,0.0184,0.1273,0.1725,0.0087,2025-06-11T08:59:03.963558
8128,-0.3026,0.4216,0.8906,-1.225,-6.510,1.400,0.93,0.0184,0.1529,0.1725,0.0087,2025-06-11T08:59:03.963558
8129,-0.2948,0.4133,0.8818,-1.085,-6.510,1.645,0.93,0.0368,0.1273,0.1725,0.0087,2025-06-11T08:59:03.963558
8130,-0.2987,0.4109,0.8818,-0.875,-6.300,1.680,0.93,0.0184,0.1273,0.1725,0.0087,2025-06-11T08:59:03.963558
8131,-0.2972,0.4148,0.8867,-0.595,-5.880,1.190,0.93,0.0368,0.1273,0.1725,0.0087,2025-06-11T08:59:04.202757
8132,-0.2943,0.4133,0.8847,-0.245,-6.195,0.805,0.93,0.0368,0.1273,0.1828,0.0174,2025-06-11T08:59:04.202757
8133,-0.2982,0.4080,0.8735,0.035,-6.685,0.595,0.93,0.0368,0.1273,0.1725,0.0087,2025-06-11T08:59:04.202757
8134,-0.2894,0.4099,0.8784,0.490,-7.000,0.105,0.93,0.0184,0.1273,0.1725,0.0087,2025-06-11T08:59:04.202757
8135,-0.2884,0.4080,0.8735,1.120,-6.440,-0.525,0.93,0.0368,0.1529,0.1725,0.0174,2025-06-11T08:59:04.202757
8136,-0.2987,0.4080,0.8755,1.225,-5.880,-0.980,0.93,0.0368,0.1529,0.1622,0.0174,2025-06-11T08:59:04.202757
8137,-0.3050,0.4065,0.8774,1.400,-6.160,-1.050,0.93,0.0368,0.1273,0.1622,0.0087,2025-06-11T08:59:04.202757
8138,-0.3138,0.4055,0.8769,1.855,-7.000,-1.050,0.93,0.0368,0.1018,0.1519,0.0087,2025-06-11T08:59:04.202757
8139,-0.3157,0.4046,0.8750,2.135,-7.910,-0.735,0.93,0.0368,0.1273,0.1519,0.0087,2025-06-11T08:59:04.202757
8140,-0.3035,0.4055,0.8764,2.905,-7.665,-0.945,0.93,0.0184,0.1273,0.1622,0.0087,2025-06-11T08:59:04.202757
8141,-0.2923,0.4055,0.8706,3.290,-6.335,-1.085,0.93,0.0368,0.1529,0.1519,0.0087,2025-06-11T08:59:04.202757
8142,-0.3001,0.4085,0.8774,3.990,-4.375,-1.435,0.93,0.0368,0.1273,0.1519,0.0174,2025-06-11T08:59:04.202757
8143,-0.3050,0.4011,0.8628,4.060,-4.165,-1.645,0.93,0.0184,0.1273,0.1519,0.0174,2025-06-11T08:59:04.202757
8144,-0.3104,0.4065,0.8701,3.955,-4.900,-1.295,0.93,0.0368,0.1273,0.1622,0.0087,2025-06-11T08:59:04.202757
8145,-0.3074,0.4104,0.8784,3.605,-5.355,-1.295,0.93,0.0368,0.1273,0.1622,0.0087,2025-06-11T08:59:04.202757
8146,-0.2991,0.4070,0.8667,3.045,-5.705,-1.575,0.93,0.0368,0.1018,0.1519,0.0087,2025-06-11T08:59:04.202757
8147,-0.2972,0.4046,0.8696,2.765,-5.705,-1.820,0.93,0.0184,0.1273,0.1622,0.0087,2025-06-11T08:59:04.205750
8148,-0.2894,0.4114,0.8843,2.380,-4.760,-2.170,0.93,0.0184,0.1273,0.1622,0.0174,2025-06-11T08:59:04.388124
8149,-0.2967,0.4050,0.8789,1.995,-3.710,-2.695,0.93,0.0368,0.1018,0.1622,0.0087,2025-06-11T08:59:04.388124
8150,-0.3030,0.4070,0.8823,1.890,-3.675,-2.590,0.93,0.0368,0.1529,0.1519,0.0174,2025-06-11T08:59:04.388124
8151,-0.3035,0.4036,0.8882,1.540,-3.780,-1.960,0.93,0.0368,0.1529,0.1622,0.0174,2025-06-11T08:59:04.388124
8152,-0.3148,0.4055,0.8804,0.980,-3.710,-1.750,0.93,0.0368,0.1273,0.1519,0.0087,2025-06-11T08:59:04.388124
8153,-0.3070,0.4050,0.8804,0.525,-3.710,-1.120,0.93,0.0368,0.1273,0.1519,0.0087,2025-06-11T08:59:04.388124
8154,-0.3021,0.4065,0.8838,0.070,-3.325,-0.490,0.93,0.0368,0.1273,0.1519,0.0087,2025-06-11T08:59:04.388124
8155,-0.2982,0.4060,0.8857,-0.385,-2.625,-0.140,0.93,0.0184,0.1529,0.1519,0.0087,2025-06-11T08:59:04.388124
8156,-0.3021,0.4080,0.8867,-0.595,-1.995,0.140,0.93,0.0368,0.1273,0.1622,0.0087,2025-06-11T08:59:04.388124
8157,-0.3060,0.4104,0.8872,-0.735,-1.575,0.385,0.93,0.0368,0.1529,0.1622,0.0087,2025-06-11T08:59:04.388124
8158,-0.3128,0.4085,0.8891,-0.910,-1.645,0.665,0.93,0.0368,0.1529,0.1519,0.0174,2025-06-11T08:59:04.388124
8159,-0.3118,0.4104,0.8926,-0.875,-2.520,0.945,0.93,0.0184,0.1273,0.1519,0.0174,2025-06-11T08:59:04.388124
8160,-0.3079,0.4089,0.8955,-0.770,-3.150,1.330,0.93,0.0368,0.1273,0.1622,0.0087,2025-06-11T08:59:04.389184
8161,-0.3060,0.4055,0.8891,-0.875,-3.150,1.470,0.93,0.0368,0.1273,0.1622,0.0174,2025-06-11T08:59:04.389184
8162,-0.3006,0.4002,0.8857,-0.490,-3.010,1.680,0.93,0.0368,0.1273,0.1622,0.0087,2025-06-11T08:59:04.389184
8163,-0.2957,0.4021,0.8867,-0.315,-2.520,1.610,0.93,0.0368,0.1529,0.1725,0.0174,2025-06-11T08:59:04.669447
8164,-0.2996,0.4006,0.8896,0.000,-1.925,1.645,0.93,0.0368,0.1529,0.1725,0.0174,2025-06-11T08:59:04.669447
8165,-0.3045,0.4002,0.8862,0.245,-1.575,1.505,0.93,0.0368,0.1529,0.1622,0.0174,2025-06-11T08:59:04.669447
8166,-0.3065,0.3992,0.8833,0.735,-1.470,1.295,0.93,0.0368,0.1529,0.1622,0.0174,2025-06-11T08:59:04.669447
8167,-0.3113,0.4011,0.8872,1.225,-1.435,1.015,0.93,0.0184,0.1529,0.1725,0.0174,2025-06-11T08:59:04.669447
8168,-0.3079,0.4021,0.8872,1.575,-1.330,0.630,0.93,0.0184,0.1529,0.1622,0.0087,2025-06-11T08:59:04.669447
8169,-0.3070,0.4002,0.8735,2.065,-1.470,0.490,0.93,0.0368,0.1529,0.1725,0.0087,2025-06-11T08:59:04.669447
8170,-0.3026,0.4021,0.8725,2.170,-1.540,0.280,0.93,0.0368,0.1529,0.1725,0.0087,2025-06-11T08:59:04.669447
8171,-0.2972,0.4011,0.8789,2.520,-0.945,0.280,0.93,0.0368,0.1529,0.1725,0.0174,2025-06-11T08:59:04.669447
8172,-0.3021,0.4046,0.8804,2.170,-0.455,-0.035,0.93,0.0368,0.1273,0.1725,0.0174,2025-06-11T08:59:04.670512
8173,-0.3035,0.4046,0.8779,2.100,-0.665,-0.070,0.93,0.0552,0.1273,0.1725,0.0087,2025-06-11T08:59:04.670512
8174,-0.3079,0.4109,0.8779,1.680,-0.875,-0.210,0.93,0.0368,0.1273,0.1622,0.0174,2025-06-11T08:59:04.670662
8175,-0.3113,0.4099,0.8799,1.050,-0.980,-0.315,0.93,0.0368,0.1273,0.1622,0.0087,2025-06-11T08:59:04.670662
8176,-0.3133,0.4094,0.8838,0.490,-1.155,-0.385,0.93,0.0184,0.1273,0.1725,0.0087,2025-06-11T08:59:04.670662
8177,-0.3138,0.4050,0.8779,-0.035,-1.645,-0.245,0.93,0.0368,0.1273,0.1725,0.0087,2025-06-11T08:59:04.670662
8178,-0.3162,0.3997,0.8808,-0.070,-1.820,0.105,0.93,0.0368,0.1273,0.1828,0.0174,2025-06-11T08:59:04.984088
8179,-0.3182,0.4055,0.8857,-0.385,-1.085,0.035,0.93,0.0368,0.1529,0.1622,0.0087,2025-06-11T08:59:04.984088
8180,-0.3157,0.4026,0.8838,-0.385,-0.665,0.210,0.93,0.0552,0.1273,0.1725,0.0087,2025-06-11T08:59:04.984088
8181,-0.3231,0.4031,0.8862,-0.490,-0.560,0.385,0.93,0.0368,0.1273,0.1622,0.0087,2025-06-11T08:59:04.984088
8182,-0.3299,0.3958,0.8808,-0.595,-1.400,0.770,0.93,0.0368,0.1529,0.1622,0.0174,2025-06-11T08:59:04.984088
8183,-0.3294,0.3933,0.8828,-0.245,-2.240,1.120,0.93,0.0368,0.1273,0.1622,0.0087,2025-06-11T08:59:04.984088
8184,-0.3157,0.3938,0.8755,-0.140,-1.540,0.980,0.93,0.0368,0.1273,0.1622,0.0087,2025-06-11T08:59:04.984088
8185,-0.3148,0.3953,0.8764,0.175,8.890,0.245,0.93,0.0368,0.1273,0.1622,0.0087,2025-06-11T08:59:04.984088
8186,-0.3152,0.3967,0.8784,0.315,1.120,-0.350,0.93,0.0368,0.1273,0.1622,0.0087,2025-06-11T08:59:04.984088
8187,-0.3304,0.3948,0.8740,0.350,0.700,-0.455,0.93,0.0184,0.1273,0.1622,0.0174,2025-06-11T08:59:04.984088
8188,-0.3377,0.3948,0.8774,0.315,-0.665,-0.350,0.93,0.0184,0.1273,0.1725,0.0000,2025-06-11T08:59:04.984088
8189,-0.3299,0.3938,0.8843,0.385,-1.470,-0.245,0.93,0.0368,0.1273,0.1622,0.0174,2025-06-11T08:59:04.985090
8190,-0.3279,0.3953,0.8769,0.315,-1.470,-0.665,0.93,0.0368,0.1273,0.1519,0.0087,2025-06-11T08:59:04.985090
8191,-0.3167,0.3982,0.8867,0.175,-1.190,-1.015,0.93,0.0184,0.1273,0.1622,0.0174,2025-06-11T08:59:04.985090
8192,-0.3211,0.4006,0.8813,0.105,-0.945,-1.680,0.93,0.0368,0.1273,0.1622,0.0174,2025-06-11T08:59:04.985090
8193,-0.3274,0.4002,0.8760,-0.140,-1.365,-2.065,0.93,0.0368,0.1273,0.1725,0.0087,2025-06-11T08:59:04.985090
8194,-0.3284,0.3977,0.8896,-0.315,-2.205,-2.275,0.93,0.0368,0.1273,0.1622,0.0174,2025-06-11T08:59:04.985090
8195,-0.3299,0.3967,0.8828,-0.525,-2.800,-2.275,0.93,0.0368,0.1273,0.1622,0.0174,2025-06-11T08:59:05.075306
8196,-0.3231,0.3938,0.8760,-0.630,-2.730,-2.310,0.93,0.0368,0.1529,0.1725,0.0087,2025-06-11T08:59:05.075306
8197,-0.3255,0.3938,0.8750,-0.980,-1.575,-2.415,0.93,0.0368,0.1529,0.1622,0.0174,2025-06-11T08:59:05.370309
8198,-0.3284,0.3933,0.8764,-1.330,-0.770,-2.555,0.93,0.0368,0.1273,0.1725,0.0174,2025-06-11T08:59:05.370309
8199,-0.3338,0.3982,0.8760,-1.470,-0.770,-2.310,0.93,0.0368,0.1529,0.1725,0.0174,2025-06-11T08:59:05.370309
8200,-0.3377,0.4046,0.8789,-2.030,-1.225,-1.890,0.93,0.0368,0.1273,0.1725,0.0174,2025-06-11T08:59:05.370309
8201,-0.3392,0.4055,0.8852,-2.485,-1.750,-1.470,0.93,0.0184,0.1529,0.1622,0.0174,2025-06-11T08:59:05.370309
8202,-0.3357,0.4060,0.8847,-2.835,-2.205,-1.330,0.93,0.0368,0.1273,0.1622,0.0087,2025-06-11T08:59:05.370309
8203,-0.3323,0.4036,0.8857,-3.220,-2.345,-0.700,0.93,0.0368,0.1273,0.1622,0.0174,2025-06-11T08:59:05.370309
8204,-0.3304,0.4011,0.8906,-3.150,-1.855,0.070,0.93,0.0184,0.1529,0.1622,0.0087,2025-06-11T08:59:05.370309
8205,-0.3387,0.4036,0.8891,-3.640,-1.680,0.595,0.93,0.0184,0.1273,0.1622,0.0174,2025-06-11T08:59:05.370309
8206,-0.3426,0.4026,0.8872,-3.745,-2.100,1.225,0.93,0.0368,0.1018,0.1725,0.0087,2025-06-11T08:59:05.370309
8207,-0.3411,0.4089,0.8926,-3.955,-2.835,1.575,0.93,0.0368,0.1529,0.1725,0.0174,2025-06-11T08:59:05.370309
8208,-0.3436,0.4085,0.8833,-4.200,-3.955,1.890,0.93,0.0184,0.1529,0.1622,0.0174,2025-06-11T08:59:05.370309
8209,-0.3289,0.4002,0.8833,-3.675,-5.355,2.415,0.93,0.0368,0.1529,0.1725,0.0174,2025-06-11T08:59:05.370309
8210,-0.3294,0.3972,0.8833,-2.940,-5.530,2.660,0.93,0.0184,0.1529,0.1622,0.0087,2025-06-11T08:59:05.370309
8211,-0.3221,0.3933,0.8896,-2.415,-4.760,2.450,0.93,0.0368,0.1273,0.1622,0.0087,2025-06-11T08:59:05.370309
8212,-0.3172,0.3928,0.8965,-1.435,-3.710,2.415,0.93,0.0368,0.1529,0.1725,0.0174,2025-06-11T08:59:05.370309
8213,-0.3318,0.3909,0.8843,-0.595,-2.905,2.345,0.93,0.0368,0.1273,0.1622,0.0174,2025-06-11T08:59:05.370309
8214,-0.3367,0.3958,0.8906,0.000,-2.730,2.240,0.93,0.0368,0.1529,0.1622,0.0174,2025-06-11T08:59:05.370309
8215,-0.3328,0.3972,0.8926,0.630,-3.465,2.520,0.93,0.0368,0.1529,0.1622,0.0087,2025-06-11T08:59:05.370309
8216,-0.3304,0.3987,0.8886,0.910,-4.200,2.660,0.93,0.0368,0.1529,0.1622,0.0174,2025-06-11T08:59:05.370309
8217,-0.3260,0.3987,0.8823,1.015,-4.655,2.660,0.93,0.0368,0.1273,0.1725,0.0087,2025-06-11T08:59:05.370309
8218,-0.3201,0.3967,0.8686,1.015,-4.830,2.835,0.93,0.0368,0.1273,0.1622,0.0174,2025-06-11T08:59:05.370309
8219,-0.3162,0.3982,0.8721,0.805,-4.305,2.590,0.93,0.0184,0.1273,0.1622,0.0174,2025-06-11T08:59:05.370309
8220,-0.3118,0.3977,0.8740,0.315,-3.570,2.485,0.93,0.0368,0.1273,0.1725,0.0174,2025-06-11T08:59:05.370309
8221,-0.3211,0.3982,0.8677,-0.175,-2.905,2.380,0.93,0.0184,0.1273,0.1725,0.0087,2025-06-11T08:59:05.370309
8222,-0.3235,0.3997,0.8755,-0.735,-2.310,2.135,0.93,0.0184,0.1273,0.1725,0.0174,2025-06-11T08:59:05.370309
8223,-0.3245,0.4026,0.8764,-1.190,-1.540,2.450,0.93,0.0368,0.1529,0.1622,0.0174,2025-06-11T08:59:05.370309
8224,-0.3235,0.3972,0.8638,-2.100,-0.315,2.660,0.94,0.0368,0.1529,0.1622,0.0087,2025-06-11T08:59:05.486582
8225,-0.3157,0.3997,0.8725,-2.905,1.995,3.255,0.93,0.0368,0.1529,0.1622,0.0087,2025-06-11T08:59:05.486582
8226,-0.3011,0.4050,0.8818,-3.990,5.145,4.130,0.93,0.0184,0.1273,0.1622,0.0174,2025-06-11T08:59:05.486582
8227,-0.3026,0.4041,0.8760,-5.005,9.205,5.915,0.94,0.0368,0.1273,0.1622,0.0087,2025-06-11T08:59:05.486582
8228,-0.3167,0.4133,0.8935,-6.615,13.545,6.895,0.93,0.0368,0.1018,0.1622,0.0174,2025-06-11T08:59:05.486582
8229,-0.3177,0.4163,0.9106,-8.155,15.435,9.205,0.93,0.0368,0.1273,0.1622,0.0174,2025-06-11T08:59:05.486582
8230,-0.3294,0.4148,0.9028,-9.835,16.240,11.795,0.93,0.0368,0.1273,0.1622,0.0174,2025-06-11T08:59:05.486582
8231,-0.3494,0.4143,0.9082,-11.445,16.380,14.490,0.93,0.0368,0.1273,0.1725,0.0174,2025-06-11T08:59:05.487598
8232,-0.3543,0.4163,0.9204,-12.775,15.435,17.640,0.93,0.0184,0.1273,0.1828,0.0087,2025-06-11T08:59:05.487598
8233,-0.3304,0.4177,0.9277,-14.455,14.280,21.595,0.93,0.0368,0.1529,0.1622,0.0087,2025-06-11T08:59:05.487598
8234,-0.3011,0.4211,0.9331,-14.770,15.330,27.055,0.93,0.0184,0.1273,0.1519,0.0087,2025-06-11T08:59:05.487598
8235,-0.2811,0.4314,0.9282,-17.185,19.425,30.870,0.93,0.0368,0.1273,0.1519,0.0174,2025-06-11T08:59:05.487598
8236,-0.3338,0.4465,0.9013,-19.530,28.070,33.320,0.94,0.0368,0.1273,0.1725,0.0087,2025-06-11T08:59:05.487598
8237,-0.4812,0.4309,0.8355,-24.080,32.480,29.575,0.93,0.0184,0.1273,0.1828,0.0087,2025-06-11T08:59:05.487598
8238,-0.4494,0.4128,0.8613,-25.970,18.410,28.035,0.94,0.0368,0.1786,0.1828,0.0174,2025-06-11T08:59:05.487598
8239,-0.4504,0.4153,0.9082,-24.815,14.105,31.570,0.94,0.0368,0.1529,0.1932,0.0174,2025-06-11T08:59:05.598172
8240,-0.4787,0.4241,0.9023,-25.550,1.190,33.355,0.94,0.0368,0.1529,0.1932,0.0174,2025-06-11T08:59:05.598172
8241,-0.4534,0.4246,0.8857,-25.865,-8.540,33.285,0.94,0.0184,0.1529,0.1932,0.0174,2025-06-11T08:59:05.598172
8242,-0.3914,0.4133,0.8677,-26.355,-14.595,33.145,0.94,0.0184,0.1529,0.1932,0.0087,2025-06-11T08:59:05.598172
8243,-0.3465,0.3884,0.8447,-27.335,-15.750,32.760,0.94,0.0368,0.1529,0.1725,0.0174,2025-06-11T08:59:05.599189
8244,-0.3089,0.3631,0.8364,-27.230,-13.790,32.690,0.93,0.0184,0.1529,0.1725,0.0087,2025-06-11T08:59:05.599189
8245,-0.2889,0.3631,0.8418,-26.880,-6.510,32.515,0.94,0.0368,0.1529,0.1622,0.0087,2025-06-11T08:59:05.599189
8246,-0.2894,0.3606,0.8481,-26.285,1.750,31.220,0.94,0.0184,0.1529,0.1519,0.0087,2025-06-11T08:59:05.599189
8247,-0.3426,0.3982,0.8740,-24.535,13.020,29.820,0.94,0.0368,0.1529,0.1519,0.0174,2025-06-11T08:59:05.599189
8248,-0.3948,0.4133,0.8296,-22.680,20.405,29.925,0.94,0.0184,0.1529,0.1622,0.0174,2025-06-11T08:59:05.599189
8249,-0.4538,0.4006,0.7715,-18.445,23.520,33.810,0.94,0.0368,0.1529,0.1416,0.0087,2025-06-11T08:59:05.599189
8250,-0.4597,0.3933,0.7608,-14.665,23.835,39.340,0.94,0.0368,0.1529,0.1416,0.0087,2025-06-11T08:59:05.599189
8251,-0.4011,0.3977,0.8013,-10.325,25.830,47.495,0.94,0.0184,0.1529,0.1314,0.0087,2025-06-11T08:59:05.599189
8252,-0.3562,0.4080,0.8428,-6.755,29.330,52.780,0.94,0.0184,0.1529,0.1314,0.0087,2025-06-11T08:59:05.599189
8253,-0.3109,0.4133,0.8618,-3.150,34.650,55.860,0.94,0.0368,0.1529,0.1314,0.0087,2025-06-11T08:59:05.599189
8254,-0.2806,0.4124,0.8457,-0.560,37.730,56.280,0.94,0.0552,0.1529,0.1314,0.0174,2025-06-11T08:59:05.803787
8255,-0.2640,0.3997,0.8189,0.105,38.325,55.125,0.94,0.0368,0.1529,0.1212,0.0174,2025-06-11T08:59:05.803787
8256,-0.2582,0.3899,0.8228,-0.210,35.980,52.815,0.94,0.0368,0.1529,0.1212,0.0087,2025-06-11T08:59:05.803787
8257,-0.2347,0.3948,0.8477,-1.190,32.095,48.265,0.94,0.0368,0.1529,0.1212,0.0174,2025-06-11T08:59:05.803787
8258,-0.2396,0.4046,0.8760,-2.940,28.525,43.050,0.94,0.0368,0.1529,0.1212,0.0174,2025-06-11T08:59:05.803787
8259,-0.2630,0.4114,0.8872,-5.180,23.450,35.910,0.94,0.0368,0.1529,0.1212,0.0087,2025-06-11T08:59:05.803787
8260,-0.2869,0.3884,0.8662,-7.420,13.790,30.835,0.94,0.0368,0.1529,0.1212,0.0087,2025-06-11T08:59:05.803787
8261,-0.2821,0.3743,0.8506,-8.855,6.615,25.515,0.94,0.0552,0.1529,0.1212,0.0087,2025-06-11T08:59:05.803787
8262,-0.2367,0.3650,0.8613,-11.270,4.795,21.140,0.94,0.0368,0.1529,0.1212,0.0087,2025-06-11T08:59:05.803787
8263,-0.2220,0.3538,0.8779,-12.915,8.470,17.290,0.94,0.0368,0.1529,0.1212,0.0087,2025-06-11T08:59:05.803787
8264,-0.2450,0.3523,0.8764,-15.050,15.015,13.300,0.94,0.0368,0.1529,0.1212,0.0087,2025-06-11T08:59:05.803787
8265,-0.2938,0.3543,0.8764,-17.080,19.215,10.955,0.94,0.0368,0.1529,0.1212,0.0087,2025-06-11T08:59:05.803787
8266,-0.3504,0.3592,0.8730,-18.340,20.615,9.275,0.94,0.0368,0.1786,0.1212,0.0174,2025-06-11T08:59:05.803787
8267,-0.3894,0.3758,0.8823,-19.040,19.460,8.540,0.94,0.0368,0.1529,0.1212,0.0087,2025-06-11T08:59:05.803787
8268,-0.4089,0.3850,0.8808,-19.775,17.045,8.540,0.94,0.0184,0.1529,0.1109,0.0087,2025-06-11T08:59:05.803787
8269,-0.4055,0.3875,0.8823,-20.230,15.015,9.205,0.94,0.0368,0.1529,0.1212,0.0174,2025-06-11T08:59:06.002076
8270,-0.4065,0.3963,0.8843,-20.510,14.105,10.290,0.94,0.0368,0.1529,0.1109,0.0087,2025-06-11T08:59:06.002076
8271,-0.4060,0.3967,0.8740,-20.825,14.140,10.745,0.94,0.0368,0.1529,0.1212,0.0087,2025-06-11T08:59:06.002076
8272,-0.4070,0.3943,0.8721,-20.405,15.085,11.025,0.94,0.0368,0.1529,0.1212,0.0174,2025-06-11T08:59:06.002076
8273,-0.4104,0.3884,0.8823,-19.950,15.855,10.990,0.94,0.0368,0.1529,0.1212,0.0087,2025-06-11T08:59:06.002076
8274,-0.4153,0.3899,0.8945,-18.690,15.610,11.095,0.94,0.0184,0.1529,0.1109,0.0087,2025-06-11T08:59:06.003079
8275,-0.4133,0.3811,0.8911,-17.570,13.650,11.795,0.94,0.0368,0.1529,0.1212,0.0087,2025-06-11T08:59:06.003079
8276,-0.4006,0.3792,0.8926,-16.590,11.970,12.740,0.94,0.0368,0.1273,0.1212,0.0087,2025-06-11T08:59:06.003079
8277,-0.3943,0.3777,0.9008,-15.645,10.010,12.845,0.94,0.0368,0.1529,0.1212,0.0087,2025-06-11T08:59:06.003079
8278,-0.3894,0.3640,0.9057,-14.385,7.525,12.775,0.94,0.0368,0.1529,0.1212,0.0087,2025-06-11T08:59:06.003079
8279,-0.3914,0.3533,0.9033,-12.215,4.200,12.215,0.94,0.0184,0.1529,0.1212,0.0087,2025-06-11T08:59:06.003079
8280,-0.3841,0.3445,0.9023,-10.185,1.575,10.780,0.94,0.0368,0.1273,0.1212,0.0087,2025-06-11T08:59:06.003079
8281,-0.3933,0.3416,0.9028,-6.860,-1.155,8.715,0.94,0.0184,0.1529,0.1212,0.0087,2025-06-11T08:59:06.003079
8282,-0.3963,0.3455,0.9043,-4.410,-3.185,6.020,0.94,0.0368,0.1529,0.1212,0.0087,2025-06-11T08:59:06.003079
8283,-0.4255,0.3479,0.9057,-1.365,-6.510,1.855,0.94,0.0368,0.1786,0.1212,0.0087,2025-06-11T08:59:06.003079
8284,-0.4446,0.3436,0.9052,2.275,-10.325,-1.785,0.94,0.0184,0.1529,0.1314,0.0174,2025-06-11T08:59:06.307461
8285,-0.4538,0.3201,0.8989,6.195,-14.875,-5.530,0.94,0.0368,0.1786,0.1416,0.0174,2025-06-11T08:59:06.307461
8286,-0.4582,0.3079,0.9082,11.515,-16.765,-8.995,0.94,0.0368,0.1273,0.1314,0.0087,2025-06-11T08:59:06.307461
8287,-0.4368,0.2840,0.9135,15.960,-16.590,-11.935,0.94,0.0368,0.1786,0.1314,0.0087,2025-06-11T08:59:06.307461
8288,-0.4338,0.2655,0.9248,21.875,-12.845,-13.790,0.94,0.0368,0.1529,0.1212,0.0087,2025-06-11T08:59:06.308419
8289,-0.4441,0.2577,0.9360,26.390,-7.595,-16.275,0.94,0.0184,0.1786,0.1314,0.0174,2025-06-11T08:59:06.308419
8290,-0.4665,0.2455,0.9199,31.430,-2.870,-17.815,0.94,0.0368,0.1786,0.1212,0.0087,2025-06-11T08:59:06.308419
8291,-0.4987,0.2445,0.9038,35.210,-1.400,-19.145,0.94,0.0368,0.1529,0.1314,0.0087,2025-06-11T08:59:06.308419
8292,-0.5012,0.2523,0.9130,38.675,-1.295,-19.565,0.94,0.0368,0.1529,0.1212,0.0174,2025-06-11T08:59:06.308419
8293,-0.4895,0.2650,0.9116,40.215,-1.855,-19.285,0.94,0.0368,0.1529,0.1314,0.0087,2025-06-11T08:59:06.308419
8294,-0.4763,0.2791,0.9126,40.075,-3.115,-18.410,0.94,0.0184,0.1529,0.1314,0.0087,2025-06-11T08:59:06.308419
8295,-0.4699,0.2894,0.9160,38.395,-5.635,-16.800,0.94,0.0368,0.1786,0.1212,0.0087,2025-06-11T08:59:06.308419
8296,-0.5017,0.3045,0.9033,36.575,-10.255,-15.680,0.94,0.0368,0.1529,0.1314,0.0087,2025-06-11T08:59:06.308419
8297,-0.4856,0.3104,0.8926,33.635,-15.400,-15.365,0.94,0.0368,0.1786,0.1314,0.0174,2025-06-11T08:59:06.308419
8298,-0.4817,0.3074,0.8789,33.075,-21.140,-14.945,0.94,0.0368,0.1529,0.1314,0.0087,2025-06-11T08:59:06.308419
8299,-0.4743,0.2967,0.8481,32.200,-24.465,-15.435,0.94,0.0368,0.1786,0.1314,0.0087,2025-06-11T08:59:06.431040
8300,-0.4675,0.2913,0.8413,33.845,-25.725,-17.780,0.94,0.0368,0.1786,0.1314,0.0087,2025-06-11T08:59:06.431040
8301,-0.4221,0.2928,0.8389,35.945,-24.010,-20.020,0.94,0.0368,0.1529,0.1314,0.0087,2025-06-11T08:59:06.431040
8302,-0.3616,0.2928,0.8301,39.235,-9.170,-21.595,0.94,0.0184,0.1786,0.1314,0.0174,2025-06-11T08:59:06.431040
8303,-0.2757,0.3089,0.8135,44.520,1.820,-24.325,0.94,0.0368,0.1529,0.1314,0.0174,2025-06-11T08:59:06.431040
8304,-0.2533,0.3304,0.8125,50.260,27.930,-27.755,0.94,0.0368,0.1529,0.1416,0.0087,2025-06-11T08:59:06.431040
8305,-0.2913,0.3294,0.7891,61.390,55.265,-27.055,0.94,0.0368,0.1529,0.1519,0.0087,2025-06-11T08:59:06.431040
8306,-0.3919,0.3558,0.7818,71.995,67.480,-22.085,0.94,0.0368,0.1529,0.1622,0.0087,2025-06-11T08:59:06.431875
8307,-0.3953,0.3816,0.7564,87.850,78.505,-14.910,0.94,0.0184,0.1786,0.1416,0.0174,2025-06-11T08:59:06.432144
8308,-0.3479,0.4407,0.7383,98.980,93.310,-7.245,0.94,0.0368,0.1529,0.1314,0.0174,2025-06-11T08:59:06.432144
8309,-0.3050,0.4982,0.6876,112.630,129.325,1.680,0.94,0.0368,0.1529,0.1519,0.0087,2025-06-11T08:59:06.432144
8310,-0.3392,0.5490,0.5422,119.945,161.735,8.365,0.94,0.0368,0.1273,0.1416,0.0087,2025-06-11T08:59:06.432144
8311,-0.4812,0.5895,0.4519,127.575,190.155,26.215,0.94,0.0368,0.1273,0.1725,0.0087,2025-06-11T08:59:06.432144
8312,-0.6383,0.6324,0.4002,136.885,193.970,38.780,0.94,0.0184,0.1273,0.1725,0.0087,2025-06-11T08:59:06.432144
8313,-0.6974,0.6993,0.3938,143.045,186.410,57.680,0.94,0.0184,0.1273,0.1622,0.0000,2025-06-11T08:59:06.432144
8314,-0.7359,0.7232,0.3816,143.850,168.840,73.080,0.94,0.0368,0.1529,0.1725,0.0174,2025-06-11T08:59:06.432144
8315,-0.6827,0.7613,0.3328,143.325,149.310,88.200,0.94,0.0368,0.1529,0.1622,0.0174,2025-06-11T08:59:06.717731
8316,-0.6534,0.7725,0.2425,137.060,128.660,97.545,0.94,0.0368,0.1529,0.1622,0.0174,2025-06-11T08:59:06.717731
8317,-0.7076,0.7950,0.2572,131.635,108.220,104.475,0.94,0.0368,0.1529,0.1828,0.0174,2025-06-11T08:59:06.717731
8318,-0.5988,0.8291,0.2552,119.665,101.745,104.825,0.94,0.0368,0.1529,0.1622,0.0087,2025-06-11T08:59:06.717731
8319,-0.5441,0.8111,0.1981,109.305,109.235,100.870,0.94,0.0368,0.1529,0.1828,0.0087,2025-06-11T08:59:06.717731
8320,-0.5832,0.8076,0.2025,93.800,113.715,92.960,0.94,0.0368,0.1273,0.1828,0.0087,2025-06-11T08:59:06.717731
8321,-0.5485,0.8194,0.2201,86.415,121.310,87.290,0.94,0.0368,0.1529,0.1932,0.0087,2025-06-11T08:59:06.717731
8322,-0.5622,0.8032,0.1752,72.100,120.785,84.840,0.94,0.0368,0.1273,0.1932,0.0087,2025-06-11T08:59:06.717731
8323,-0.6232,0.7627,0.1005,66.885,114.695,83.195,0.94,0.0368,0.1529,0.1932,0.0087,2025-06-11T08:59:06.718729
8324,-0.6686,0.7730,0.0971,57.470,104.265,78.295,0.94,0.0184,0.1273,0.1932,0.0174,2025-06-11T08:59:06.718729
8325,-0.6320,0.7910,0.0917,51.975,99.120,71.085,0.94,0.0368,0.1529,0.1725,0.0174,2025-06-11T08:59:06.718729
8326,-0.5890,0.7984,0.0717,43.155,99.610,65.555,0.94,0.0368,0.1529,0.1932,0.0174,2025-06-11T08:59:06.718729
8327,-0.5578,0.8135,0.0576,33.915,103.740,56.595,0.94,0.0368,0.1529,0.1932,0.0087,2025-06-11T08:59:06.718729
8328,-0.6359,0.7935,0.0410,24.080,104.055,48.615,0.94,0.0184,0.1273,0.1622,0.0174,2025-06-11T08:59:06.718729
8329,-0.6451,0.7940,0.0547,18.165,92.505,41.895,0.94,0.0368,0.1529,0.1725,0.0087,2025-06-11T08:59:06.859094
8330,-0.6900,0.7720,0.0864,10.395,79.940,36.435,0.94,0.0368,0.1529,0.1725,0.0087,2025-06-11T08:59:06.859094
8331,-0.7398,0.7881,0.1293,5.985,61.600,26.845,0.94,0.0368,0.1529,0.1828,0.0262,2025-06-11T08:59:06.859094
8332,-0.7042,0.7935,0.1508,0.455,36.260,20.895,0.94,0.0368,0.1529,0.1622,0.0174,2025-06-11T08:59:06.859875
8333,-0.6159,0.7876,0.1591,-2.730,17.640,15.680,0.94,0.0368,0.1529,0.1622,0.0087,2025-06-11T08:59:06.859875
8334,-0.5714,0.8023,0.1742,-8.855,3.815,8.820,0.94,0.0184,0.1529,0.1622,0.0174,2025-06-11T08:59:06.859875
8335,-0.5358,0.8047,0.1610,-12.355,1.470,0.700,0.94,0.0368,0.1529,0.1519,0.0087,2025-06-11T08:59:06.859875
8336,-0.4826,0.7920,0.1386,-15.400,3.080,-6.160,0.94,0.0368,0.1529,0.1519,0.0174,2025-06-11T08:59:06.859875
8337,-0.5104,0.7896,0.1362,-17.290,2.800,-9.800,0.94,0.0368,0.1529,0.1622,0.0087,2025-06-11T08:59:06.859875
8338,-0.5661,0.7881,0.1386,-17.465,-1.330,-13.720,0.94,0.0184,0.1529,0.1519,0.0087,2025-06-11T08:59:06.859875
8339,-0.5910,0.7808,0.1235,-16.555,-8.015,-16.275,0.94,0.0368,0.1273,0.1519,0.0174,2025-06-11T08:59:06.859875
8340,-0.6271,0.7828,0.1035,-15.505,-16.975,-18.550,0.94,0.0184,0.1529,0.1519,0.0174,2025-06-11T08:59:06.859875
8341,-0.5861,0.7896,0.0874,-13.685,-26.600,-20.720,0.94,0.0368,0.1273,0.1519,0.0087,2025-06-11T08:59:06.859875
8342,-0.5197,0.8096,0.0874,-11.655,-27.160,-23.345,0.94,0.0368,0.1273,0.1622,0.0000,2025-06-11T08:59:06.859875
8343,-0.4934,0.8208,0.0878,-8.960,-19.880,-25.480,0.94,0.0368,0.1529,0.1519,0.0174,2025-06-11T08:59:06.859875
8344,-0.5036,0.8242,0.0903,-6.510,-14.770,-26.985,0.94,0.0368,0.1273,0.1622,0.0174,2025-06-11T08:59:07.117607
8345,-0.5222,0.8203,0.0942,-4.200,-14.630,-27.300,0.94,0.0368,0.1529,0.1725,0.0174,2025-06-11T08:59:07.117607
8346,-0.5353,0.8106,0.0742,-2.030,-18.690,-26.880,0.94,0.0368,0.1529,0.1622,0.0174,2025-06-11T08:59:07.117607
8347,-0.5666,0.8189,0.0966,-1.295,-26.005,-26.390,0.94,0.0368,0.1529,0.1622,0.0087,2025-06-11T08:59:07.372833
8348,-0.4987,0.8208,0.1035,-1.295,-26.880,-27.370,0.94,0.0368,0.1786,0.1622,0.0087,2025-06-11T08:59:07.372833
8349,-0.4870,0.8096,0.0820,-1.085,-22.330,-28.805,0.94,0.0368,0.1529,0.1725,0.0087,2025-06-11T08:59:07.372833
8350,-0.5002,0.8042,0.0771,-1.085,-16.450,-29.785,0.94,0.0368,0.1273,0.1622,0.0087,2025-06-11T08:59:07.372833
8351,-0.5348,0.8008,0.0732,-1.505,-16.275,-30.310,0.94,0.0368,0.1529,0.1622,0.0087,2025-06-11T08:59:07.372833
8352,-0.5622,0.8003,0.0971,-2.905,-20.720,-30.520,0.94,0.0368,0.1529,0.1519,0.0087,2025-06-11T08:59:07.372833
8353,-0.6124,0.7984,0.1078,-3.605,-30.835,-31.570,0.94,0.0368,0.1273,0.1725,0.0174,2025-06-11T08:59:07.372833
8354,-0.6446,0.7979,0.1196,-7.175,-52.220,-32.480,0.94,0.0552,0.1529,0.1519,0.0087,2025-06-11T08:59:07.372833
8355,-0.5968,0.8169,0.1415,-10.745,-69.160,-33.180,0.94,0.0368,0.1273,0.1622,0.0087,2025-06-11T08:59:07.372833
8356,-0.4182,0.8140,0.1108,-13.580,-69.300,-36.120,0.94,0.0552,0.1529,0.1828,0.0174,2025-06-11T08:59:07.372833
8357,-0.3987,0.8140,0.0844,-15.645,-54.565,-41.195,0.94,0.0368,0.1529,0.1932,0.0174,2025-06-11T08:59:07.372833
8358,-0.3870,0.8081,0.0908,-16.555,-33.355,-48.020,0.94,0.0368,0.1273,0.1932,0.0087,2025-06-11T08:59:07.372833
8359,-0.4221,0.7915,0.0996,-15.680,-21.980,-50.540,0.94,0.0552,0.1529,0.2035,0.0087,2025-06-11T08:59:07.372833
8360,-0.5280,0.7886,0.1215,-14.770,-26.810,-51.275,0.94,0.0368,0.1529,0.1828,0.0174,2025-06-11T08:59:07.372833
8361,-0.6432,0.7974,0.1513,-14.490,-27.020,-51.380,0.94,0.0368,0.1529,0.1932,0.0087,2025-06-11T08:59:07.372833
8362,-0.7096,0.8145,0.1645,-15.120,-44.940,-50.645,0.94,0.0368,0.1529,0.1828,0.0174,2025-06-11T08:59:07.372833
8363,-0.7091,0.8262,0.1810,-16.870,-69.895,-49.840,0.94,0.0184,0.1529,0.1622,0.0174,2025-06-11T08:59:07.372833
8364,-0.6778,0.8330,0.1630,-19.600,-89.110,-47.810,0.94,0.0368,0.1529,0.1828,0.0174,2025-06-11T08:59:07.372833
8365,-0.6202,0.7998,0.1322,-21.595,-110.040,-41.895,0.94,0.0368,0.1273,0.1725,0.0087,2025-06-11T08:59:07.372833
8366,-0.6276,0.8086,0.1649,-23.030,-121.100,-35.455,0.94,0.0368,0.1273,0.1725,0.0174,2025-06-11T08:59:07.372833
8367,-0.6193,0.8047,0.1903,-25.585,-125.685,-32.935,0.94,0.0368,0.1273,0.1828,0.0087,2025-06-11T08:59:07.372833
8368,-0.6139,0.8115,0.2357,-26.670,-125.160,-31.815,0.94,0.0368,0.1529,0.1932,0.0174,2025-06-11T08:59:07.372833
8369,-0.5880,0.8169,0.2586,-28.490,-119.385,-31.325,0.94,0.0368,0.1529,0.1932,0.0174,2025-06-11T08:59:07.372833
8370,-0.5510,0.7915,0.2894,-28.385,-111.335,-30.380,0.94,0.0368,0.1273,0.2139,0.0087,2025-06-11T08:59:07.372833
8371,-0.5549,0.7920,0.3211,-29.435,-101.500,-30.380,0.94,0.0184,0.1273,0.2035,0.0087,2025-06-11T08:59:07.372833
8372,-0.5397,0.7627,0.3221,-30.030,-95.970,-29.365,0.94,0.0368,0.1273,0.1932,0.0087,2025-06-11T08:59:07.372833
8373,-0.5085,0.7476,0.3314,-28.630,-90.475,-25.375,0.94,0.0368,0.1018,0.1828,0.0087,2025-06-11T08:59:07.372833
8374,-0.5285,0.7574,0.3714,-27.895,-83.755,-22.645,0.94,0.0368,0.1273,0.1828,0.0174,2025-06-11T08:59:07.537119
8375,-0.5065,0.7710,0.4163,-28.070,-69.125,-22.750,0.94,0.0368,0.1529,0.1725,0.0174,2025-06-11T08:59:07.537119
8376,-0.4455,0.7549,0.4094,-29.050,-54.215,-20.895,0.94,0.0552,0.1273,0.1828,0.0174,2025-06-11T08:59:07.537119
8377,-0.4407,0.7359,0.4080,-28.875,-33.880,-17.920,0.94,0.0184,0.1273,0.1828,0.0174,2025-06-11T08:59:07.537119
8378,-0.4782,0.7432,0.4524,-28.735,-15.575,-17.465,0.94,0.0368,0.1529,0.1725,0.0087,2025-06-11T08:59:07.537119
8379,-0.4973,0.7286,0.4616,-27.825,3.535,-16.555,0.94,0.0184,0.1529,0.1828,0.0174,2025-06-11T08:59:07.537119
8380,-0.5490,0.7066,0.4451,-24.465,13.510,-13.790,0.94,0.0368,0.1529,0.1828,0.0174,2025-06-11T08:59:07.537119
8381,-0.6159,0.7017,0.4446,-20.685,18.690,-8.925,0.94,0.0368,0.1529,0.1828,0.0087,2025-06-11T08:59:07.537119
8382,-0.6471,0.7037,0.4475,-15.470,18.480,-4.200,0.94,0.0184,0.1529,0.1828,0.0174,2025-06-11T08:59:07.537119
8383,-0.6827,0.7218,0.4392,-10.780,16.450,0.455,0.94,0.0368,0.1273,0.1828,0.0087,2025-06-11T08:59:07.537119
8384,-0.6681,0.7188,0.4172,-5.600,15.015,3.360,0.94,0.0368,0.1529,0.1828,0.0087,2025-06-11T08:59:07.537119
8385,-0.6271,0.7013,0.4089,-0.980,14.035,8.260,0.94,0.0368,0.1529,0.1828,0.0087,2025-06-11T08:59:07.537119
8386,-0.6193,0.6983,0.4207,3.780,13.930,12.390,0.94,0.0368,0.1529,0.1828,0.0087,2025-06-11T08:59:07.538183
8387,-0.6037,0.6910,0.4158,7.140,14.245,16.800,0.94,0.0184,0.1786,0.1828,0.0087,2025-06-11T08:59:07.538183
8388,-0.6061,0.6847,0.4046,10.885,14.525,20.020,0.94,0.0368,0.1529,0.1932,0.0174,2025-06-11T08:59:07.538183
8389,-0.6115,0.6808,0.3948,13.825,14.700,22.015,0.94,0.0184,0.1529,0.1932,0.0174,2025-06-11T08:59:07.642623
8390,-0.5919,0.6852,0.3850,16.625,14.000,24.325,0.94,0.0368,0.1529,0.1932,0.0174,2025-06-11T08:59:07.642623
8391,-0.5641,0.6852,0.3758,18.690,15.505,25.410,0.94,0.0552,0.1529,0.1828,0.0087,2025-06-11T08:59:07.642623
8392,-0.5588,0.6881,0.3675,20.195,19.845,25.165,0.94,0.0552,0.1529,0.1828,0.0174,2025-06-11T08:59:07.642940
8393,-0.5719,0.6925,0.3606,20.720,22.120,24.080,0.94,0.0368,0.1529,0.1828,0.0174,2025-06-11T08:59:07.642940
8394,-0.5666,0.6988,0.3684,20.475,22.820,23.205,0.94,0.0368,0.1529,0.1932,0.0087,2025-06-11T08:59:07.642940
8395,-0.5719,0.7037,0.3728,19.460,22.330,22.330,0.94,0.0368,0.1529,0.1828,0.0174,2025-06-11T08:59:07.642940
8396,-0.5739,0.7052,0.3684,17.640,20.405,20.755,0.94,0.0368,0.1529,0.1932,0.0174,2025-06-11T08:59:07.642940
8397,-0.5563,0.7003,0.3450,15.260,18.865,19.250,0.94,0.0368,0.1529,0.1932,0.0087,2025-06-11T08:59:07.642940
8398,-0.5529,0.6969,0.3440,13.370,17.220,17.710,0.94,0.0184,0.1273,0.1932,0.0087,2025-06-11T08:59:07.642940
8399,-0.5378,0.6954,0.3543,11.480,19.565,15.225,0.94,0.0368,0.1273,0.1932,0.0174,2025-06-11T08:59:07.642940
8400,-0.5319,0.7003,0.3528,10.395,23.135,11.655,0.94,0.0368,0.1273,0.2035,0.0174,2025-06-11T08:59:07.642940
8401,-0.5383,0.7071,0.3475,9.275,26.810,9.100,0.94,0.0368,0.1273,0.2035,0.0174,2025-06-11T08:59:07.642940
8402,-0.5578,0.7056,0.3294,8.645,28.665,6.160,0.94,0.0368,0.1273,0.2035,0.0087,2025-06-11T08:59:07.642940
8403,-0.6046,0.7096,0.3152,7.525,28.070,3.710,0.94,0.0184,0.1273,0.2035,0.0174,2025-06-11T08:59:07.642940
8404,-0.6344,0.7105,0.3157,6.685,23.695,1.750,0.94,0.0368,0.1273,0.2139,0.0087,2025-06-11T08:59:07.697966
8405,-0.6334,0.7047,0.3255,5.495,15.750,1.960,0.94,0.0368,0.1529,0.2035,0.0174,2025-06-11T08:59:07.697966
8406,-0.6364,0.7115,0.3396,4.795,10.220,2.800,0.94,0.0368,0.1529,0.2035,0.0174,2025-06-11T08:59:07.697966
8407,-0.6378,0.7154,0.3431,3.605,6.825,2.765,0.94,0.0368,0.1529,0.2139,0.0087,2025-06-11T08:59:07.697966
8408,-0.5817,0.7169,0.3406,2.590,7.455,2.695,0.94,0.0184,0.1529,0.2035,0.0174,2025-06-11T08:59:07.850631
8409,-0.5641,0.7174,0.3367,2.485,15.400,2.520,0.94,0.0368,0.1529,0.2035,0.0174,2025-06-11T08:59:07.850631
8410,-0.5783,0.7281,0.3421,2.310,23.310,1.715,0.94,0.0368,0.1273,0.2139,0.0174,2025-06-11T08:59:07.850631
8411,-0.6193,0.7418,0.3538,2.135,27.965,1.260,0.94,0.0368,0.1529,0.2139,0.0174,2025-06-11T08:59:07.850631
8412,-0.6539,0.7549,0.3660,2.030,27.160,2.450,0.94,0.0368,0.1529,0.2035,0.0087,2025-06-11T08:59:07.850631
8413,-0.7096,0.7666,0.3733,1.890,21.630,4.480,0.94,0.0368,0.1529,0.2035,0.0087,2025-06-11T08:59:07.850631
8414,-0.7052,0.7725,0.3660,1.645,12.530,6.930,0.94,0.0184,0.1273,0.1932,0.0174,2025-06-11T08:59:07.850631
8415,-0.7081,0.7842,0.3665,1.400,5.880,9.975,0.94,0.0184,0.1273,0.2139,0.0174,2025-06-11T08:59:07.850631
8416,-0.6568,0.7920,0.3636,1.050,1.260,12.425,0.94,0.0368,0.1529,0.2139,0.0087,2025-06-11T08:59:07.850631
8417,-0.6193,0.7925,0.3440,1.050,0.595,14.910,0.94,0.0368,0.1529,0.2035,0.0087,2025-06-11T08:59:07.850631
8418,-0.6124,0.7945,0.3294,1.470,3.290,17.045,0.94,0.0368,0.1273,0.2035,0.0087,2025-06-11T08:59:07.850631
8419,-0.6037,0.7925,0.3235,1.960,5.145,19.075,0.94,0.0368,0.1273,0.2139,0.0174,2025-06-11T08:59:08.188676
8420,-0.6071,0.7964,0.3201,2.170,5.530,22.330,0.94,0.0368,0.1529,0.2139,0.0174,2025-06-11T08:59:08.188676
8421,-0.5929,0.7935,0.3079,2.765,6.475,25.340,0.94,0.0368,0.1529,0.2139,0.0174,2025-06-11T08:59:08.188676
8422,-0.5939,0.7989,0.3040,3.675,7.385,28.070,0.94,0.0368,0.1529,0.2139,0.0174,2025-06-11T08:59:08.188676
8423,-0.6066,0.8003,0.2826,3.920,6.510,30.100,0.94,0.0552,0.1529,0.2243,0.0174,2025-06-11T08:59:08.188676
8424,-0.5900,0.7910,0.2621,3.955,3.605,32.340,0.94,0.0368,0.1529,0.2139,0.0087,2025-06-11T08:59:08.188676
8425,-0.5724,0.7808,0.2655,4.480,0.945,34.125,0.94,0.0184,0.1529,0.2035,0.0087,2025-06-11T08:59:08.188676
8426,-0.5627,0.7871,0.2894,4.410,-1.120,34.860,0.94,0.0184,0.1529,0.1932,0.0174,2025-06-11T08:59:08.188676
8427,-0.5431,0.7749,0.2884,4.445,-4.130,35.280,0.94,0.0368,0.1529,0.1725,0.0087,2025-06-11T08:59:08.188676
8428,-0.5558,0.7618,0.2606,5.110,-7.525,34.790,0.94,0.0368,0.1529,0.1725,0.0087,2025-06-11T08:59:08.188676
8429,-0.5285,0.7544,0.2489,6.335,-11.795,33.460,0.94,0.0184,0.1529,0.1828,0.0087,2025-06-11T08:59:08.188676
8430,-0.5026,0.7569,0.2499,7.770,-14.875,32.795,0.94,0.0368,0.1529,0.1725,0.0174,2025-06-11T08:59:08.188676
8431,-0.4914,0.7662,0.2508,8.680,-16.730,30.450,0.94,0.0368,0.1529,0.1828,0.0087,2025-06-11T08:59:08.188676
8432,-0.4734,0.7730,0.2557,9.100,-18.375,27.300,0.94,0.0368,0.1529,0.1932,0.0087,2025-06-11T08:59:08.188676
8433,-0.4709,0.7803,0.2513,8.330,-21.175,23.135,0.94,0.0184,0.1273,0.2035,0.0174,2025-06-11T08:59:08.188676
8434,-0.4753,0.7818,0.2562,6.790,-24.710,19.180,0.94,0.0368,0.1529,0.2139,0.0087,2025-06-11T08:59:08.188676
8435,-0.4363,0.7818,0.2567,5.145,-27.545,13.965,0.94,0.0184,0.1273,0.2139,0.0174,2025-06-11T08:59:08.188676
8436,-0.4187,0.7828,0.2391,3.150,-25.970,9.065,0.94,0.0368,0.1273,0.2139,0.0174,2025-06-11T08:59:08.314450
8437,-0.4041,0.7818,0.2411,1.295,-21.350,3.290,0.94,0.0368,0.1273,0.2243,0.0174,2025-06-11T08:59:08.314450
8438,-0.4011,0.7920,0.2689,-1.400,-16.100,-1.680,0.94,0.0368,0.1529,0.2243,0.0174,2025-06-11T08:59:08.314450
8439,-0.4002,0.7920,0.2669,-4.515,-10.640,-6.300,0.94,0.0184,0.1529,0.2139,0.0174,2025-06-11T08:59:08.315518
8440,-0.4226,0.7935,0.2611,-8.400,-7.945,-8.960,0.94,0.0184,0.1529,0.2139,0.0087,2025-06-11T08:59:08.315518
8441,-0.4504,0.8057,0.2718,-11.620,-8.015,-11.725,0.94,0.0368,0.1273,0.2035,0.0174,2025-06-11T08:59:08.315518
8442,-0.4763,0.8233,0.2894,-15.785,-10.920,-13.930,0.94,0.0368,0.1273,0.2139,0.0174,2025-06-11T08:59:08.315518
8443,-0.4953,0.8301,0.2991,-19.530,-15.610,-16.170,0.94,0.0368,0.1529,0.2243,0.0174,2025-06-11T08:59:08.315518
8444,-0.4973,0.8316,0.3089,-23.835,-22.435,-17.430,0.94,0.0368,0.1529,0.1828,0.0087,2025-06-11T08:59:08.315518
8445,-0.4890,0.8345,0.3152,-27.300,-27.335,-18.200,0.94,0.0368,0.1529,0.1519,0.0087,2025-06-11T08:59:08.315518
8446,-0.4904,0.8272,0.3109,-30.905,-31.080,-18.305,0.94,0.0184,0.1529,0.1519,0.0087,2025-06-11T08:59:08.315518
8447,-0.5056,0.8267,0.3235,-34.125,-32.935,-18.935,0.94,0.0184,0.1273,0.1622,0.0087,2025-06-11T08:59:08.316510
8448,-0.5114,0.8350,0.3504,-36.470,-34.615,-20.230,0.94,0.0368,0.1529,0.1416,0.0174,2025-06-11T08:59:08.316510
8449,-0.5168,0.8442,0.3919,-39.690,-38.045,-19.845,0.94,0.0368,0.2043,0.1519,0.0174,2025-06-11T08:59:08.316510
8450,-0.5305,0.8301,0.3762,-40.985,-46.830,-16.765,0.94,0.0368,0.1529,0.1622,0.0087,2025-06-11T08:59:08.316510
8451,-0.5734,0.8516,0.4109,-41.930,-56.000,-14.875,0.94,0.0368,0.1529,0.1314,0.0174,2025-06-11T08:59:08.316510
8452,-0.5895,0.8618,0.4294,-44.205,-64.400,-16.380,0.94,0.0184,0.1018,0.1622,0.0087,2025-06-11T08:59:08.316510
8453,-0.5344,0.8530,0.4499,-46.935,-68.845,-17.150,0.94,0.0368,0.1018,0.1725,0.0087,2025-06-11T08:59:08.461444
8454,-0.5031,0.8491,0.4695,-49.350,-70.245,-17.920,0.94,0.0184,0.1273,0.1725,0.0174,2025-06-11T08:59:08.461444
8455,-0.4821,0.8764,0.5139,-53.270,-67.725,-19.040,0.94,0.0368,0.1273,0.1725,0.0174,2025-06-11T08:59:08.461444
8456,-0.5026,0.8818,0.5412,-58.800,-60.795,-23.380,0.94,0.0184,0.1273,0.1416,0.0174,2025-06-11T08:59:08.461444
8457,-0.5300,0.8442,0.5392,-64.995,-58.660,-25.725,0.94,0.0368,0.1273,0.1828,0.0174,2025-06-11T08:59:08.462441
8458,-0.5675,0.8359,0.5334,-67.305,-63.805,-24.115,0.94,0.0368,0.1273,0.2035,0.0174,2025-06-11T08:59:08.462441
8459,-0.6324,0.8564,0.5705,-70.105,-71.645,-23.590,0.94,0.0368,0.1273,0.1828,0.0087,2025-06-11T08:59:08.462441
8460,-0.6690,0.8272,0.6090,-72.450,-85.435,-23.205,0.94,0.0184,0.1273,0.1932,0.0087,2025-06-11T08:59:08.462441
8461,-0.6012,0.7403,0.6769,-77.630,-102.585,-15.400,0.94,0.0368,0.1273,0.2348,0.0174,2025-06-11T08:59:08.462441
8462,-0.4865,0.6754,0.7554,-82.915,-122.045,1.540,0.94,0.0368,0.1273,0.2243,0.0087,2025-06-11T08:59:08.462441
8463,-0.3880,0.6539,0.7623,-87.395,-131.215,17.745,0.94,0.0184,0.1018,0.2139,0.0087,2025-06-11T08:59:08.462441
8464,-0.3450,0.6490,0.7257,-90.580,-129.185,30.625,0.94,0.0368,0.1273,0.2348,0.0174,2025-06-11T08:59:08.502473
8465,-0.2845,0.6427,0.7047,-92.260,-115.535,32.655,0.94,0.0368,0.1018,0.2557,0.0174,2025-06-11T08:59:08.502473
8466,-0.2913,0.5890,0.6939,-90.405,-94.115,30.835,0.94,0.0552,0.1273,0.2662,0.0087,2025-06-11T08:59:08.502473
8467,-0.3528,0.5378,0.7418,-89.670,-77.070,27.335,0.94,0.0552,0.1273,0.2139,0.0174,2025-06-11T08:59:08.502473
8468,-0.3948,0.4563,0.7706,-88.830,-63.000,26.705,0.94,0.0368,0.1018,0.2243,0.0087,2025-06-11T08:59:08.766896
8469,-0.3953,0.3870,0.7764,-87.115,-59.325,30.135,0.94,0.0368,0.1273,0.2139,0.0087,2025-06-11T08:59:08.766896
8470,-0.3772,0.3577,0.8047,-83.615,-56.630,35.560,0.94,0.0368,0.1273,0.2348,0.0087,2025-06-11T08:59:08.766896
8471,-0.3411,0.3523,0.8135,-81.305,-51.905,36.960,0.94,0.0368,0.1018,0.2348,0.0174,2025-06-11T08:59:08.766896
8472,-0.2860,0.3162,0.7979,-78.960,-46.550,35.595,0.94,0.0368,0.1018,0.2243,0.0087,2025-06-11T08:59:08.766896
8473,-0.2357,0.2835,0.8359,-75.285,-38.115,32.795,0.94,0.0368,0.1018,0.2035,0.0087,2025-06-11T08:59:08.767902
8474,-0.1947,0.2494,0.8877,-72.520,-26.600,26.355,0.94,0.0184,0.0762,0.2243,0.0087,2025-06-11T08:59:08.767902
8475,-0.2123,0.1967,0.9331,-69.895,-10.815,19.285,0.94,0.0184,0.1018,0.2139,0.0087,2025-06-11T08:59:08.767902
8476,-0.2689,0.1576,1.0141,-65.625,-1.540,11.900,0.94,0.0368,0.1018,0.2139,0.0087,2025-06-11T08:59:08.767902
8477,-0.3870,0.1064,1.0141,-62.020,-2.135,7.980,0.94,0.0368,0.1018,0.1932,0.0087,2025-06-11T08:59:08.767902
8478,-0.4768,0.0615,1.0629,-58.905,-10.710,3.955,0.94,0.0184,0.1018,0.2035,0.0087,2025-06-11T08:59:08.767902
8479,-0.5324,0.0112,1.0760,-56.770,-25.795,-1.190,0.94,0.0368,0.1273,0.1932,0.0174,2025-06-11T08:59:08.767902
8480,-0.5100,-0.0317,1.1019,-54.915,-34.965,-7.245,0.94,0.0368,0.1018,0.1725,0.0174,2025-06-11T08:59:08.767902
8481,-0.4573,-0.0834,1.1810,-53.515,-36.225,-19.460,0.94,0.0368,0.1018,0.2035,0.0174,2025-06-11T08:59:08.877901
8482,-0.4529,-0.1537,1.1966,-53.725,-33.635,-30.765,0.94,0.0368,0.1018,0.2139,0.0174,2025-06-11T08:59:08.877901
8483,-0.4987,-0.2289,1.2507,-51.835,-33.740,-43.575,0.94,0.0368,0.1273,0.2243,0.0174,2025-06-11T08:59:08.877901
8484,-0.6022,-0.2591,1.4113,-52.150,-42.630,-53.725,0.94,0.0368,0.1018,0.1932,0.0174,2025-06-11T08:59:08.877901
8485,-0.7832,-0.2962,1.5094,-49.630,-61.985,-67.095,0.94,0.0184,0.1018,0.1828,0.0174,2025-06-11T08:59:08.877901
8486,-0.9809,-0.3016,1.6241,-44.905,-87.710,-85.960,0.94,0.0184,0.1273,0.2139,0.0000,2025-06-11T08:59:08.877901
8487,-0.9331,-0.2128,1.6587,-40.040,-103.600,-114.275,0.94,0.0368,0.1273,0.2557,0.0087,2025-06-11T08:59:08.877901
8488,-0.8047,-0.1220,1.6016,-27.580,-108.045,-138.530,0.94,0.0184,0.1273,0.2348,0.0087,2025-06-11T08:59:08.877901
8489,-0.7159,-0.0098,1.3971,-18.410,-102.760,-168.420,0.94,0.0184,0.1273,0.2557,0.0087,2025-06-11T08:59:08.877901
8490,-0.8218,0.1444,1.2956,-2.870,-96.565,-193.690,0.93,0.0368,0.1786,0.2348,0.0087,2025-06-11T08:59:08.878967
8491,-0.8862,0.3396,1.1907,8.645,-102.095,-218.225,0.93,0.0184,0.1529,0.2872,0.0087,2025-06-11T08:59:08.878967
8492,-1.0365,0.4846,1.0233,26.810,-126.315,-230.685,0.93,0.0368,0.1529,0.3084,0.0087,2025-06-11T08:59:08.878967
8493,-1.1527,0.6905,0.8311,37.485,-159.145,-236.145,0.92,0.0184,0.1529,0.3084,0.0087,2025-06-11T08:59:08.878967
8494,-1.1829,0.9448,0.5944,45.780,-208.355,-239.155,0.91,0.0368,0.1529,0.3938,0.0087,2025-06-11T08:59:08.878967
8495,-1.0497,1.8085,0.1679,48.230,-250.460,-241.325,0.91,0.0368,0.1273,0.3723,0.0087,2025-06-11T08:59:09.175399
8496,-0.5427,2.6933,-0.5007,49.175,-297.465,-219.485,0.92,0.0368,0.1529,0.3616,0.0174,2025-06-11T08:59:09.175399
8497,0.3094,3.0944,-1.7544,50.610,-317.310,-109.410,0.92,0.0184,0.1529,0.3084,0.0174,2025-06-11T08:59:09.409629
8498,1.3435,3.3613,-2.4156,64.680,-243.810,14.980,0.92,0.0368,0.1273,0.3190,0.0087,2025-06-11T08:59:09.409629
8499,1.8217,3.4750,-2.5620,65.415,-44.275,154.910,0.92,0.0184,0.1273,0.2978,0.0174,2025-06-11T08:59:09.409629
8500,1.3688,3.6576,-2.6191,44.275,215.915,247.380,0.91,0.0368,0.1786,0.3296,0.0087,2025-06-11T08:59:09.409629
8501,0.1742,4.0968,-2.1955,-8.120,355.635,313.600,0.91,0.0368,0.1786,0.2662,0.0087,2025-06-11T08:59:09.409629
8502,-1.2742,4.1939,-1.4972,-69.265,387.275,383.635,0.91,0.0184,0.2043,0.2139,0.0087,2025-06-11T08:59:09.409629
8503,-2.3492,3.8991,-0.8028,-149.905,300.405,442.260,0.91,0.0184,0.2559,0.1314,0.0087,2025-06-11T08:59:09.409629
8504,-3.1047,3.3799,-0.0093,-211.190,156.695,497.595,0.92,0.0184,0.2301,0.1212,0.0087,2025-06-11T08:59:09.409629
8505,-3.0046,2.7430,0.8711,-261.660,85.085,524.825,0.92,0.0184,0.2818,0.0703,0.0087,2025-06-11T08:59:09.409629
8506,-2.9661,1.9227,0.9618,-244.755,53.200,519.190,0.93,0.0922,0.4119,0.4153,0.0087,2025-06-11T08:59:09.409629
8507,-5.3631,-12.7783,2.1950,-574.805,-118.790,527.625,0.84,0.0368,1.1927,0.3616,0.0087,2025-06-11T08:59:09.409629
8508,4.2759,1.0770,12.9496,230.790,-75.705,-203.420,0.87,0.0368,0.3077,0.2035,0.0174,2025-06-11T08:59:09.409629
8509,0.1625,-0.3040,1.4484,647.885,378.770,37.345,0.90,0.0737,0.5169,0.2243,0.0174,2025-06-11T08:59:09.409629
8510,-4.6584,0.6842,-0.4660,111.265,248.640,152.530,0.90,0.0737,0.5697,0.4262,0.0087,2025-06-11T08:59:09.409629
8511,-2.7060,-3.2354,-2.6567,-110.180,-126.385,124.215,0.91,0.0552,0.6494,0.3190,0.0174,2025-06-11T08:59:09.409629
8512,2.6650,-2.7191,1.1151,78.855,-85.680,101.920,0.91,0.0552,0.5169,0.1725,0.0087,2025-06-11T08:59:09.409629
8513,-0.3665,-0.7139,2.1540,151.060,172.270,65.975,0.91,0.0552,0.5169,0.1416,0.0087,2025-06-11T08:59:09.409629
8514,-1.6812,-0.6549,1.4616,18.445,156.275,80.500,0.91,0.0368,0.5962,0.1519,0.0174,2025-06-11T08:59:09.409629
8515,-0.7769,-1.0638,0.7081,59.395,8.715,47.565,0.91,0.0368,0.4381,0.1212,0.0087,2025-06-11T08:59:09.409629
8516,0.0717,-0.5490,0.8955,43.050,40.005,22.960,0.91,0.0368,0.3337,0.1109,0.0174,2025-06-11T08:59:09.409629
8517,-0.1679,-0.2001,1.1019,3.920,60.060,8.960,0.91,0.0368,0.2818,0.1109,0.0087,2025-06-11T08:59:09.409629
8518,0.0234,-0.0493,0.8764,-69.405,81.655,-6.265,0.91,0.0368,0.2043,0.0906,0.0087,2025-06-11T08:59:09.409629
8519,-0.0083,0.1679,0.6993,-68.495,49.070,-25.375,0.91,0.0368,0.2043,0.0804,0.0087,2025-06-11T08:59:09.409629
8520,-0.0737,0.3772,0.7135,-72.415,24.010,-40.040,0.91,0.0368,0.1786,0.1008,0.0087,2025-06-11T08:59:09.409629
8521,0.1376,0.3943,0.8647,-88.095,47.530,-44.450,0.91,0.0368,0.1273,0.1008,0.0174,2025-06-11T08:59:09.409629
8522,0.3035,0.3567,0.9936,-66.430,74.130,-56.140,0.90,0.0184,0.1786,0.1109,0.0087,2025-06-11T08:59:09.409629
8523,0.2352,0.1908,0.7647,-43.995,125.930,-64.400,0.91,0.0368,0.1529,0.1008,0.0087,2025-06-11T08:59:09.409629
8524,-0.3548,0.4494,0.8618,-24.430,160.055,-65.905,0.91,0.0368,0.1529,0.1314,0.0174,2025-06-11T08:59:09.409629
8525,-0.5446,0.5949,0.8955,-15.190,152.040,-62.335,0.91,0.0368,0.1786,0.1314,0.0087,2025-06-11T08:59:09.409629
8526,-0.6832,0.6827,0.9760,3.325,114.765,-58.520,0.91,0.0368,0.1273,0.1416,0.0174,2025-06-11T08:59:09.409629
8527,-0.6822,0.6100,0.9165,5.460,87.745,-54.075,0.91,0.0368,0.1018,0.1622,0.0174,2025-06-11T08:59:09.410622
8528,-0.5388,0.5734,0.8799,11.375,68.600,-48.370,0.91,0.0368,0.1018,0.1622,0.0174,2025-06-11T08:59:09.410622
8529,-0.4743,0.5431,0.8891,12.110,58.310,-45.710,0.91,0.0552,0.1529,0.1622,0.0174,2025-06-11T08:59:09.583256
8530,-0.6144,0.4836,0.8916,9.520,54.390,-41.125,0.91,0.0368,0.1529,0.1416,0.0174,2025-06-11T08:59:09.583256
8531,-0.5065,0.5007,1.0482,-0.175,55.300,-40.180,0.91,0.0368,0.1273,0.1519,0.0174,2025-06-11T08:59:09.583256
8532,-0.5544,0.4656,1.1039,0.000,55.615,-36.785,0.91,0.0552,0.1529,0.1932,0.0174,2025-06-11T08:59:09.583256
8533,-0.6237,0.4075,1.1483,-4.900,51.730,-32.200,0.91,0.0368,0.1529,0.1828,0.0174,2025-06-11T08:59:09.583256
8534,-0.6598,0.3475,1.1756,-4.865,43.330,-28.595,0.91,0.0368,0.1018,0.1828,0.0087,2025-06-11T08:59:09.583256
8535,-0.5295,0.2333,1.1126,-3.710,26.180,-22.645,0.91,0.0368,0.1273,0.2243,0.0087,2025-06-11T08:59:09.583256
8536,-0.5900,0.2054,1.0951,2.205,16.800,-15.645,0.91,0.0368,0.1018,0.2035,0.0087,2025-06-11T08:59:09.583256
8537,-0.6066,0.2621,1.1117,-2.065,10.955,-14.735,0.91,0.0368,0.1273,0.2035,0.0087,2025-06-11T08:59:09.583256
8538,-0.5280,0.3060,1.1507,-0.210,10.500,-17.885,0.91,0.0184,0.1273,0.2348,0.0087,2025-06-11T08:59:09.583256
8539,-0.4216,0.2987,1.1317,2.135,16.590,-23.275,0.90,0.0368,0.1273,0.2452,0.0174,2025-06-11T08:59:09.583256
8540,-0.4441,0.3045,1.0341,3.710,22.120,-29.190,0.90,0.0368,0.1273,0.2662,0.0174,2025-06-11T08:59:09.704363
8541,-0.4680,0.2908,1.0180,3.955,27.720,-38.710,0.90,0.0368,0.1273,0.2557,0.0174,2025-06-11T08:59:09.704363
8542,-0.4046,0.2381,0.9604,6.790,29.750,-45.710,0.90,0.0368,0.1529,0.2662,0.0087,2025-06-11T08:59:09.704363
8543,-0.4172,0.1913,0.8652,7.875,30.765,-46.970,0.89,0.0368,0.1273,0.2243,0.0087,2025-06-11T08:59:09.704363
8544,-0.4563,0.1684,0.7340,8.785,22.645,-44.170,0.90,0.0368,0.1018,0.2139,0.0174,2025-06-11T08:59:09.705359
8545,-0.5144,0.2079,0.8511,10.220,20.475,-39.865,0.90,0.0368,0.1018,0.2243,0.0087,2025-06-11T08:59:09.705359
8546,-0.5563,0.2791,0.9609,12.005,25.830,-40.810,0.90,0.0368,0.1018,0.2243,0.0174,2025-06-11T08:59:09.705359
8547,-0.5734,0.2582,0.9243,8.225,28.490,-40.320,0.90,0.0184,0.1273,0.2348,0.0087,2025-06-11T08:59:09.705728
8548,-0.5632,0.2669,0.8769,6.370,25.305,-40.005,0.90,0.0368,0.1273,0.2557,0.0087,2025-06-11T08:59:09.705728
8549,-0.5705,0.2586,0.8882,4.095,22.120,-42.805,0.90,0.0184,0.1018,0.1828,0.0174,2025-06-11T08:59:09.705728
8550,-0.5446,0.1972,0.8291,2.170,11.865,-42.455,0.90,0.0184,0.1273,0.2035,0.0087,2025-06-11T08:59:09.705728
8551,-0.5436,0.1327,0.7096,2.100,-2.870,-36.225,0.90,0.0368,0.1529,0.1622,0.0087,2025-06-11T08:59:09.705728
8552,-0.5993,0.1293,0.7076,3.255,-14.630,-32.830,0.90,0.0184,0.1018,0.1519,0.0087,2025-06-11T08:59:09.705728
8553,-0.6139,0.1576,0.8237,2.730,-12.635,-34.510,0.90,0.0368,0.1273,0.1622,0.0087,2025-06-11T08:59:09.705728
8554,-0.5163,0.1488,0.8516,3.570,-0.805,-38.675,0.90,0.0552,0.1529,0.1725,0.0174,2025-06-11T08:59:09.705728
8555,-0.5002,0.1088,0.7950,5.845,11.690,-38.885,0.90,0.0184,0.1273,0.1725,0.0087,2025-06-11T08:59:09.994080
8556,-0.5383,0.0927,0.7593,4.865,27.265,-37.765,0.90,0.0368,0.1529,0.1622,0.0174,2025-06-11T08:59:09.994080
8557,-0.5348,0.0815,0.7252,3.465,36.575,-37.415,0.90,0.0368,0.1529,0.1519,0.0087,2025-06-11T08:59:09.994080
8558,-0.5002,0.0493,0.6769,2.835,41.125,-33.670,0.90,0.0184,0.1529,0.1416,0.0174,2025-06-11T08:59:09.994080
8559,-0.5754,0.0425,0.6988,3.360,45.640,-29.890,0.90,0.0368,0.1529,0.1416,0.0087,2025-06-11T08:59:09.994080
8560,-0.6456,0.0830,0.7642,3.430,51.380,-31.430,0.90,0.0184,0.1273,0.1519,0.0087,2025-06-11T08:59:09.994080
8561,-0.6739,0.0961,0.8096,4.830,54.705,-35.245,0.90,0.0368,0.1786,0.1416,0.0174,2025-06-11T08:59:09.994080
8562,-0.7237,0.0791,0.7662,4.760,50.855,-37.415,0.90,0.0368,0.1786,0.1416,0.0087,2025-06-11T08:59:09.994080
8563,-0.7457,0.0405,0.7252,5.565,38.080,-37.310,0.90,0.0368,0.1786,0.1519,0.0174,2025-06-11T08:59:09.994080
8564,-0.7466,0.0063,0.7149,7.000,25.445,-35.000,0.90,0.0368,0.1529,0.1416,0.0087,2025-06-11T08:59:09.994080
8565,-0.7203,-0.0107,0.7481,9.695,15.260,-33.600,0.90,0.0368,0.1786,0.1314,0.0174,2025-06-11T08:59:09.994080
8566,-0.7042,-0.0298,0.7910,12.110,12.600,-33.635,0.90,0.0368,0.1529,0.1212,0.0087,2025-06-11T08:59:09.994080
8567,-0.6769,-0.0376,0.8111,14.140,16.170,-34.860,0.90,0.0184,0.1786,0.1109,0.0087,2025-06-11T08:59:09.994080
8568,-0.6495,-0.0449,0.7984,14.805,22.050,-36.400,0.90,0.0368,0.1529,0.1416,0.0174,2025-06-11T08:59:09.994080
8569,-0.6500,-0.0459,0.7930,14.595,29.365,-37.765,0.90,0.0368,0.1529,0.1416,0.0174,2025-06-11T08:59:09.994080
8570,-0.6529,-0.0532,0.7867,11.935,32.935,-38.640,0.90,0.0368,0.1529,0.1416,0.0087,2025-06-11T08:59:09.994080
8571,-0.6978,-0.0605,0.7954,9.555,33.285,-38.675,0.90,0.0368,0.1529,0.1519,0.0174,2025-06-11T08:59:09.994080
8572,-0.7471,-0.0542,0.8213,6.335,29.190,-39.690,0.90,0.0368,0.1273,0.1519,0.0087,2025-06-11T08:59:10.145612
8573,-0.7740,-0.0464,0.8486,3.395,21.140,-41.545,0.90,0.0368,0.1273,0.1622,0.0174,2025-06-11T08:59:10.145612
8574,-0.7696,-0.0522,0.8584,0.875,13.475,-41.825,0.90,0.0368,0.1273,0.1416,0.0174,2025-06-11T08:59:10.145612
8575,-0.7491,-0.0693,0.8491,-0.980,8.540,-41.335,0.91,0.0368,0.1273,0.1519,0.0174,2025-06-11T08:59:10.145612
8576,-0.7096,-0.0805,0.8306,-2.765,7.875,-40.250,0.90,0.0368,0.1529,0.1622,0.0087,2025-06-11T08:59:10.145612
8577,-0.6939,-0.0761,0.8281,-3.080,11.970,-39.585,0.90,0.0368,0.1529,0.1416,0.0174,2025-06-11T08:59:10.145612
8578,-0.6915,-0.0669,0.8296,-3.290,18.900,-39.410,0.90,0.0368,0.1529,0.1519,0.0087,2025-06-11T08:59:10.145612
8579,-0.7330,-0.0649,0.8067,-2.695,23.065,-38.955,0.90,0.0184,0.1529,0.1416,0.0087,2025-06-11T08:59:10.145612
8580,-0.7774,-0.0586,0.7847,-2.170,23.660,-39.200,0.90,0.0368,0.1529,0.1314,0.0174,2025-06-11T08:59:10.145612
8581,-0.7930,-0.0664,0.7774,-0.735,21.210,-39.480,0.90,0.0368,0.1529,0.1416,0.0087,2025-06-11T08:59:10.145612
8582,-0.7984,-0.0732,0.7715,0.140,17.220,-40.600,0.90,0.0184,0.1273,0.1622,0.0174,2025-06-11T08:59:10.145612
8583,-0.7706,-0.0869,0.7476,0.420,11.200,-41.195,0.91,0.0368,0.1273,0.1519,0.0087,2025-06-11T08:59:10.145612
8584,-0.7496,-0.0854,0.7413,0.770,5.915,-40.985,0.90,0.0368,0.1529,0.1622,0.0174,2025-06-11T08:59:10.146677
8585,-0.7169,-0.0761,0.7476,0.490,1.155,-40.425,0.91,0.0184,0.1529,0.1519,0.0174,2025-06-11T08:59:10.146677
8586,-0.6969,-0.0805,0.7408,0.385,-1.155,-39.935,0.90,0.0368,0.1529,0.1622,0.0174,2025-06-11T08:59:10.146677
8587,-0.6886,-0.0927,0.7266,0.280,-2.870,-37.625,0.91,0.0368,0.1529,0.1622,0.0087,2025-06-11T08:59:10.509840
8588,-0.6905,-0.0893,0.7213,0.175,-2.765,-34.440,0.91,0.0368,0.1529,0.1725,0.0087,2025-06-11T08:59:10.509840
8589,-0.6798,-0.0727,0.7379,-0.525,1.155,-33.110,0.90,0.0368,0.1529,0.1725,0.0174,2025-06-11T08:59:10.509840
8590,-0.6676,-0.0527,0.7242,-1.575,7.175,-33.145,0.91,0.0184,0.1529,0.1725,0.0087,2025-06-11T08:59:10.509840
8591,-0.6603,-0.0473,0.6998,-3.080,12.180,-33.110,0.90,0.0368,0.1786,0.1725,0.0087,2025-06-11T08:59:10.509840
8592,-0.6671,-0.0420,0.6974,-4.165,13.755,-31.255,0.91,0.0368,0.1786,0.1622,0.0174,2025-06-11T08:59:10.509840
8593,-0.6734,-0.0381,0.6905,-5.215,12.740,-27.370,0.91,0.0368,0.2043,0.1725,0.0087,2025-06-11T08:59:10.509840
8594,-0.7037,-0.0312,0.6949,-5.880,10.465,-23.415,0.91,0.0184,0.1786,0.1725,0.0087,2025-06-11T08:59:10.509840
8595,-0.6832,-0.0298,0.6676,-6.335,7.000,-17.885,0.90,0.0368,0.1786,0.1725,0.0087,2025-06-11T08:59:10.509840
8596,-0.6647,-0.0307,0.6505,-6.090,5.740,-13.860,0.90,0.0368,0.1529,0.1622,0.0174,2025-06-11T08:59:10.509840
8597,-0.6422,-0.0283,0.6432,-6.545,8.995,-11.550,0.90,0.0368,0.1529,0.1622,0.0174,2025-06-11T08:59:10.509840
8598,-0.6495,-0.0381,0.6222,-7.490,15.575,-10.360,0.91,0.0368,0.1786,0.1622,0.0174,2025-06-11T08:59:10.509840
8599,-0.6749,-0.0483,0.6212,-9.485,20.650,-10.290,0.91,0.0368,0.1529,0.1622,0.0174,2025-06-11T08:59:10.509840
8600,-0.7071,-0.0688,0.6237,-11.375,24.535,-10.220,0.91,0.0368,0.1529,0.1725,0.0087,2025-06-11T08:59:10.509840
8601,-0.7383,-0.0908,0.6124,-14.000,24.850,-9.485,0.91,0.0368,0.1529,0.1622,0.0174,2025-06-11T08:59:10.509840
8602,-0.7676,-0.1215,0.6046,-15.925,22.085,-7.350,0.90,0.0368,0.1273,0.1416,0.0174,2025-06-11T08:59:10.509840
8603,-0.7652,-0.1396,0.6051,-18.445,18.795,-4.900,0.91,0.0368,0.1529,0.1314,0.0174,2025-06-11T08:59:10.509840
8604,-0.7486,-0.1454,0.6124,-20.125,19.390,-3.290,0.91,0.0368,0.1786,0.1622,0.0174,2025-06-11T08:59:10.509840
8605,-0.7232,-0.1566,0.6076,-22.225,23.345,-2.520,0.91,0.0552,0.1529,0.1725,0.0174,2025-06-11T08:59:10.603449
8606,-0.7291,-0.1684,0.5915,-22.855,27.055,-1.435,0.91,0.0368,0.1529,0.1725,0.0087,2025-06-11T08:59:10.603449
8607,-0.7437,-0.1708,0.5768,-23.835,31.465,-1.295,0.91,0.0552,0.1273,0.1828,0.0174,2025-06-11T08:59:10.603449
8608,-0.7569,-0.1835,0.5710,-24.010,34.230,-1.400,0.91,0.0368,0.1529,0.1725,0.0174,2025-06-11T08:59:10.603449
8609,-0.7569,-0.1913,0.5739,-23.590,36.225,-1.050,0.91,0.0368,0.1529,0.1725,0.0087,2025-06-11T08:59:10.603449
8610,-0.7798,-0.1952,0.5705,-23.485,36.680,-0.245,0.91,0.0552,0.1273,0.1932,0.0087,2025-06-11T08:59:10.603449
8611,-0.7784,-0.1854,0.5754,-23.030,35.980,0.385,0.91,0.0368,0.1273,0.1725,0.0174,2025-06-11T08:59:10.603449
8612,-0.7779,-0.1737,0.5949,-22.085,34.545,1.085,0.90,0.0368,0.1529,0.1519,0.0087,2025-06-11T08:59:10.603449
8613,-0.7867,-0.1713,0.6129,-20.650,31.850,1.400,0.91,0.0552,0.1529,0.1622,0.0174,2025-06-11T08:59:10.603449
8614,-0.8198,-0.1801,0.6115,-19.320,28.525,1.435,0.91,0.0368,0.1273,0.1416,0.0174,2025-06-11T08:59:10.603449
8615,-0.8447,-0.2015,0.5841,-9.065,23.625,0.945,0.91,0.0368,0.1273,0.1519,0.0087,2025-06-11T08:59:10.603449
8616,-0.8316,-0.2167,0.5939,-15.995,21.385,0.805,0.90,0.0368,0.1273,0.1622,0.0174,2025-06-11T08:59:10.603449
8617,-0.8115,-0.2259,0.6105,-14.210,22.750,1.435,0.91,0.0368,0.1273,0.1725,0.0087,2025-06-11T08:59:10.603449
8618,-0.8174,-0.2250,0.6227,-13.300,26.635,1.575,0.91,0.0368,0.1273,0.1725,0.0174,2025-06-11T08:59:10.603449
8619,-0.8345,-0.2152,0.6261,-13.195,30.730,1.890,0.91,0.0368,0.1273,0.1828,0.0087,2025-06-11T08:59:10.603449
8620,-0.8618,-0.2084,0.6305,-14.105,32.515,2.730,0.91,0.0368,0.1273,0.1932,0.0174,2025-06-11T08:59:10.603449
8621,-0.8994,-0.1986,0.6281,-15.015,30.625,4.235,0.90,0.0368,0.1273,0.1932,0.0174,2025-06-11T08:59:10.603449
8622,-0.9199,-0.2001,0.6139,-16.870,24.465,5.390,0.91,0.0368,0.1018,0.1725,0.0174,2025-06-11T08:59:10.713439
8623,-0.9248,-0.2079,0.6066,-18.025,17.850,6.160,0.91,0.0552,0.1273,0.1932,0.0174,2025-06-11T08:59:10.713439
8624,-0.8974,-0.2113,0.5924,-18.865,15.085,5.810,0.90,0.0368,0.1273,0.1932,0.0087,2025-06-11T08:59:10.713439
8625,-0.8745,-0.2103,0.5734,-18.935,14.980,4.725,0.91,0.0368,0.1273,0.1932,0.0087,2025-06-11T08:59:10.713439
8626,-0.8413,-0.2045,0.5490,-18.550,16.660,3.850,0.91,0.0368,0.1273,0.1932,0.0087,2025-06-11T08:59:10.713439
8627,-0.8081,-0.2059,0.5173,-17.745,18.900,4.025,0.91,0.0368,0.1529,0.1932,0.0174,2025-06-11T08:59:10.713439
8628,-0.8233,-0.1991,0.4992,-16.800,21.630,4.760,0.91,0.0368,0.1529,0.1932,0.0087,2025-06-11T08:59:10.713439
8629,-0.8355,-0.1937,0.4860,-15.785,22.505,6.090,0.90,0.0368,0.1273,0.1932,0.0174,2025-06-11T08:59:10.713439
8630,-0.8584,-0.1879,0.4836,-13.650,22.225,7.070,0.91,0.0368,0.1529,0.1932,0.0087,2025-06-11T08:59:11.120591
8631,-0.8760,-0.1884,0.4607,-12.180,21.350,7.735,0.91,0.0368,0.1786,0.1828,0.0087,2025-06-11T08:59:11.120591
8632,-0.9004,-0.1850,0.4416,-11.130,18.550,8.750,0.91,0.0368,0.1786,0.1828,0.0087,2025-06-11T08:59:11.120591
8633,-0.9101,-0.1879,0.4397,-10.395,16.730,9.415,0.91,0.0368,0.1786,0.1828,0.0087,2025-06-11T08:59:11.120591
8634,-0.9160,-0.1874,0.4314,-9.905,16.100,10.045,0.91,0.0368,0.1786,0.1828,0.0087,2025-06-11T08:59:11.120591
8635,-0.9248,-0.1981,0.4187,-10.010,15.750,10.780,0.91,0.0368,0.1529,0.1828,0.0087,2025-06-11T08:59:11.120591
8636,-0.9306,-0.2079,0.4153,-9.695,15.435,12.145,0.91,0.0368,0.1529,0.1828,0.0087,2025-06-11T08:59:11.120591
8637,-0.9399,-0.2167,0.4104,-9.310,15.225,12.950,0.91,0.0184,0.1529,0.1828,0.0087,2025-06-11T08:59:11.120591
8638,-0.9448,-0.2196,0.4119,-9.135,14.630,13.685,0.91,0.0184,0.1529,0.1932,0.0087,2025-06-11T08:59:11.120591
8639,-0.9667,-0.2211,0.4065,-8.610,12.110,14.630,0.91,0.0368,0.1786,0.1828,0.0087,2025-06-11T08:59:11.121657
8640,-0.9736,-0.2294,0.4094,-8.365,8.645,15.295,0.90,0.0368,0.1529,0.1828,0.0174,2025-06-11T08:59:11.121657
8641,-0.9745,-0.2372,0.4158,-7.105,4.550,15.575,0.90,0.0368,0.1529,0.1932,0.0087,2025-06-11T08:59:11.121657
8642,-0.9770,-0.2474,0.4055,-5.425,2.240,15.120,0.91,0.0368,0.1529,0.1932,0.0087,2025-06-11T08:59:11.121657
8643,-0.9399,-0.2542,0.3953,-3.325,2.240,13.825,0.91,0.0368,0.1529,0.1932,0.0087,2025-06-11T08:59:11.121657
8644,-0.9140,-0.2542,0.3792,-0.420,4.060,12.740,0.90,0.0368,0.1529,0.1828,0.0087,2025-06-11T08:59:11.121657
8645,-0.8828,-0.2489,0.3597,1.260,7.630,11.060,0.90,0.0184,0.1529,0.1932,0.0174,2025-06-11T08:59:11.121657
8646,-0.8843,-0.2352,0.3689,2.660,11.410,9.345,0.91,0.0368,0.1529,0.1932,0.0174,2025-06-11T08:59:11.121657
8647,-0.9028,-0.2181,0.3758,2.730,13.790,6.930,0.91,0.0368,0.1529,0.1932,0.0174,2025-06-11T08:59:11.696815
8648,-0.9326,-0.2103,0.3719,2.450,13.265,5.565,0.90,0.0368,0.1786,0.2035,0.0174,2025-06-11T08:59:11.697349
8649,-0.9570,-0.2025,0.3836,1.505,10.850,4.340,0.91,0.0368,0.1786,0.1932,0.0087,2025-06-11T08:59:11.697349
8650,-0.9536,-0.2040,0.3777,0.350,6.510,4.445,0.91,0.0368,0.1786,0.1932,0.0174,2025-06-11T08:59:11.697349
8651,-0.9565,-0.1952,0.3777,-0.595,3.955,4.550,0.91,0.0368,0.1529,0.2035,0.0174,2025-06-11T08:59:11.697349
8652,-0.9526,-0.1952,0.3709,-2.135,2.940,4.445,0.91,0.0552,0.1786,0.1932,0.0087,2025-06-11T08:59:11.697811
8653,-0.9501,-0.1981,0.3680,-3.150,3.115,3.920,0.91,0.0368,0.1529,0.1932,0.0174,2025-06-11T08:59:11.697811
8654,-0.9477,-0.2020,0.3704,-3.745,4.515,2.345,0.91,0.0368,0.1529,0.1932,0.0087,2025-06-11T08:59:11.697811
8655,-0.9550,-0.2050,0.3582,-3.710,6.265,0.490,0.90,0.0368,0.1529,0.1932,0.0087,2025-06-11T08:59:11.697811
8656,-0.9496,-0.1957,0.3538,-4.270,7.770,-1.785,0.90,0.0368,0.1529,0.1932,0.0087,2025-06-11T08:59:11.697811
8657,-0.9316,-0.1854,0.3655,-4.445,8.575,-2.975,0.91,0.0184,0.1273,0.2035,0.0174,2025-06-11T08:59:11.697811
8658,-0.9301,-0.1693,0.3528,-4.970,8.330,-3.325,0.91,0.0368,0.1529,0.2035,0.0087,2025-06-11T08:59:11.697811
8659,-0.9409,-0.1654,0.3362,-5.775,6.370,-2.975,0.90,0.0368,0.1529,0.2035,0.0087,2025-06-11T08:59:11.698810
8660,-0.9428,-0.1571,0.3479,-6.545,4.480,-2.625,0.90,0.0368,0.1273,0.2035,0.0087,2025-06-11T08:59:11.698810
8661,-0.9501,-0.1581,0.3479,-6.755,2.625,-1.960,0.91,0.0368,0.1529,0.2035,0.0087,2025-06-11T08:59:11.698810
8662,-0.9506,-0.1615,0.3338,-6.580,1.400,-1.820,0.91,0.0368,0.1273,0.2035,0.0087,2025-06-11T08:59:11.698810
8663,-0.9428,-0.1654,0.3372,-5.950,1.015,-2.310,0.90,0.0368,0.1529,0.2035,0.0174,2025-06-11T08:59:11.698810
8664,-0.9326,-0.1664,0.3445,-4.865,1.505,-2.345,0.91,0.0368,0.1273,0.1932,0.0174,2025-06-11T08:59:11.698810
8665,-0.9316,-0.1723,0.3255,-4.165,2.135,-2.030,0.90,0.0184,0.1273,0.1932,0.0087,2025-06-11T08:59:11.698810
8666,-0.9223,-0.1757,0.3109,-3.955,2.625,-1.260,0.91,0.0368,0.1529,0.1932,0.0174,2025-06-11T08:59:11.699803
8667,-0.9277,-0.1698,0.3250,-3.815,3.710,-0.280,0.91,0.0368,0.1529,0.1932,0.0262,2025-06-11T08:59:11.699803
8668,-0.9511,-0.1698,0.3314,-4.340,4.515,0.140,0.91,0.0368,0.1529,0.2139,0.0087,2025-06-11T08:59:11.699803
8669,-0.9799,-0.1757,0.3314,-4.445,3.535,0.210,0.91,0.0184,0.1273,0.2035,0.0174,2025-06-11T08:59:11.699803
8670,-0.9999,-0.1781,0.3377,-4.130,0.175,0.385,0.91,0.0368,0.1273,0.1932,0.0087,2025-06-11T08:59:11.699803
8671,-1.0043,-0.1903,0.3304,-3.570,-2.940,0.560,0.91,0.0368,0.1529,0.1932,0.0174,2025-06-11T08:59:11.699803
8672,-0.9740,-0.1991,0.3226,-2.975,-5.040,0.805,0.91,0.0368,0.1273,0.1932,0.0174,2025-06-11T08:59:11.699803
8673,-0.9662,-0.1996,0.3104,-1.995,-4.445,0.875,0.91,0.0368,0.1273,0.1932,0.0174,2025-06-11T08:59:11.699803
8674,-0.9238,-0.1981,0.3099,-1.575,-2.345,1.470,0.91,0.0368,0.1273,0.1622,0.0174,2025-06-11T08:59:11.700804
8675,-0.9057,-0.1947,0.3138,-0.595,2.625,1.470,0.90,0.0368,0.1529,0.1622,0.0174,2025-06-11T08:59:11.700804
8676,-0.9004,-0.1747,0.3372,-0.630,9.310,0.770,0.91,0.0368,0.1529,0.1725,0.0087,2025-06-11T08:59:11.700804
8677,-0.9209,-0.1625,0.3367,-0.945,12.915,0.210,0.91,0.0368,0.1529,0.1828,0.0087,2025-06-11T08:59:11.700804
8678,-0.9433,-0.1581,0.3162,-2.030,12.740,0.700,0.91,0.0368,0.1273,0.1828,0.0174,2025-06-11T08:59:11.700804
8679,-0.9531,-0.1474,0.3162,-2.905,9.660,1.435,0.91,0.0368,0.1273,0.1828,0.0174,2025-06-11T08:59:11.700804
8680,-0.9536,-0.1386,0.3167,-4.270,6.160,2.275,0.91,0.0368,0.1273,0.1932,0.0174,2025-06-11T08:59:11.700804
8681,-0.9536,-0.1366,0.3118,-4.900,1.435,3.360,0.91,0.0368,0.1529,0.1932,0.0087,2025-06-11T08:59:11.700804
8682,-0.9540,-0.1347,0.3221,-5.880,-1.610,3.710,0.91,0.0368,0.1273,0.2035,0.0174,2025-06-11T08:59:11.700804
8683,-0.9453,-0.1371,0.3274,-6.370,-3.325,4.060,0.91,0.0184,0.1273,0.1932,0.0087,2025-06-11T08:59:11.700804
8684,-0.9516,-0.1484,0.3138,-6.720,-4.865,5.040,0.91,0.0184,0.1273,0.2035,0.0087,2025-06-11T08:59:11.701806
8685,-0.9496,-0.1596,0.3157,-6.510,-5.705,5.775,0.91,0.0368,0.1273,0.1932,0.0174,2025-06-11T08:59:11.701806
8686,-0.9487,-0.1698,0.3104,-5.565,-5.355,6.230,0.91,0.0368,0.1273,0.2035,0.0174,2025-06-11T08:59:11.701806
8687,-0.9643,-0.1767,0.3055,-4.620,-4.480,6.230,0.91,0.0368,0.1273,0.1932,0.0087,2025-06-11T08:59:11.701806
8688,-0.9623,-0.1820,0.3026,-3.710,-3.675,6.230,0.90,0.0368,0.1273,0.1932,0.0087,2025-06-11T08:59:11.701806
8689,-0.9677,-0.1884,0.3133,-1.820,-3.150,6.405,0.91,0.0368,0.1529,0.1932,0.0087,2025-06-11T08:59:11.701806
8690,-0.9701,-0.1889,0.3177,-1.050,-2.415,6.300,0.91,0.0184,0.1273,0.2035,0.0087,2025-06-11T08:59:11.701806
8691,-0.9740,-0.1947,0.3118,-0.105,-1.995,6.195,0.91,0.0368,0.1273,0.1932,0.0087,2025-06-11T08:59:11.701806
8692,-0.9794,-0.1976,0.3104,0.280,-1.890,5.740,0.91,0.0368,0.1273,0.1932,0.0087,2025-06-11T08:59:11.701806
8693,-0.9667,-0.1937,0.3084,0.455,-1.085,5.005,0.91,0.0368,0.1529,0.1932,0.0087,2025-06-11T08:59:11.702798
8694,-0.9594,-0.1903,0.3099,0.210,0.105,3.955,0.91,0.0368,0.1273,0.1932,0.0087,2025-06-11T08:59:11.735710
8695,-0.9521,-0.1810,0.3118,-0.070,1.645,2.485,0.91,0.0368,0.1529,0.1932,0.0174,2025-06-11T08:59:11.735710
8696,-0.9487,-0.1757,0.3138,-0.840,2.520,1.365,0.91,0.0368,0.1529,0.1932,0.0174,2025-06-11T08:59:11.735710
8697,-0.9506,-0.1786,0.3065,-1.680,2.065,0.945,0.91,0.0368,0.1273,0.1828,0.0174,2025-06-11T08:59:11.735710
8698,-0.9672,-0.1747,0.3231,-2.730,0.875,0.910,0.91,0.0368,0.1529,0.1725,0.0087,2025-06-11T08:59:11.735710
8699,-0.9662,-0.1742,0.3211,-3.745,-0.700,1.505,0.91,0.0184,0.1273,0.1622,0.0087,2025-06-11T08:59:11.735710
8700,-0.9628,-0.1732,0.3167,-4.830,-1.995,1.750,0.91,0.0368,0.1273,0.1622,0.0087,2025-06-11T08:59:11.735710
8701,-0.9423,-0.1674,0.3123,-5.495,-2.205,1.505,0.91,0.0368,0.1273,0.1622,0.0174,2025-06-11T08:59:11.735710
8702,-0.9287,-0.1640,0.3128,-5.845,-1.050,0.980,0.91,0.0184,0.1273,0.1622,0.0174,2025-06-11T08:59:11.735710
8703,-0.9292,-0.1615,0.3133,-6.160,-0.035,0.245,0.91,0.0368,0.1529,0.1622,0.0087,2025-06-11T08:59:11.736706
8704,-0.9428,-0.1630,0.3040,-6.475,-0.280,-0.350,0.91,0.0368,0.1273,0.1622,0.0087,2025-06-11T08:59:11.736706
8705,-0.9433,-0.1615,0.3050,-6.545,-1.855,-0.385,0.91,0.0184,0.1273,0.1725,0.0087,2025-06-11T08:59:12.041051
8706,-0.9492,-0.1610,0.3177,-6.265,-3.115,-0.490,0.91,0.0184,0.1273,0.1725,0.0174,2025-06-11T08:59:12.041051
8707,-0.9531,-0.1591,0.3162,-5.915,-3.395,-0.840,0.91,0.0368,0.1273,0.1828,0.0174,2025-06-11T08:59:12.041051
8708,-0.9575,-0.1562,0.3138,-5.390,-3.255,-0.910,0.91,0.0368,0.1273,0.1828,0.0087,2025-06-11T08:59:12.041051
8709,-0.9628,-0.1562,0.3070,-5.040,-3.360,-0.840,0.91,0.0368,0.1529,0.1828,0.0174,2025-06-11T08:59:12.041051
8710,-0.9633,-0.1562,0.3167,-4.445,-3.640,-0.385,0.91,0.0368,0.1273,0.1828,0.0087,2025-06-11T08:59:12.041051
8711,-0.9697,-0.1591,0.3177,-3.360,-3.815,0.140,0.91,0.0368,0.1273,0.1932,0.0087,2025-06-11T08:59:12.041051
8712,-0.9750,-0.1659,0.3040,-2.555,-4.130,0.770,0.91,0.0184,0.1273,0.1828,0.0087,2025-06-11T08:59:12.041051
8713,-0.9677,-0.1728,0.3089,-1.680,-3.815,1.435,0.91,0.0368,0.1529,0.1828,0.0087,2025-06-11T08:59:12.041051
8714,-0.9555,-0.1640,0.3216,-0.385,-2.625,1.540,0.91,0.0184,0.1273,0.1828,0.0174,2025-06-11T08:59:12.042120
8715,-0.9589,-0.1625,0.3113,0.140,-1.085,1.645,0.91,0.0184,0.1273,0.1828,0.0087,2025-06-11T08:59:12.042120
8716,-0.9697,-0.1620,0.3035,0.560,-1.610,1.820,0.91,0.0368,0.1529,0.1828,0.0174,2025-06-11T08:59:12.042120
8717,-0.9716,-0.1581,0.3089,0.980,-3.080,2.100,0.91,0.0184,0.1273,0.1828,0.0087,2025-06-11T08:59:12.042120
8718,-0.9784,-0.1606,0.3123,1.225,-4.900,2.030,0.91,0.0368,0.1529,0.1828,0.0087,2025-06-11T08:59:12.042120
8719,-0.9701,-0.1669,0.3070,1.085,-6.405,2.065,0.91,0.0368,0.1273,0.1828,0.0087,2025-06-11T08:59:12.042120
8720,-0.9614,-0.1693,0.3099,1.190,-7.175,2.380,0.91,0.0368,0.1529,0.1828,0.0087,2025-06-11T08:59:12.042120
8721,-0.9477,-0.1649,0.3187,1.330,-6.055,2.695,0.91,0.0368,0.1273,0.1828,0.0087,2025-06-11T08:59:12.144918
8722,-0.9540,-0.1654,0.3172,1.365,-4.305,2.520,0.91,0.0368,0.1273,0.1828,0.0087,2025-06-11T08:59:12.144918
8723,-0.9575,-0.1684,0.3113,1.505,-4.095,2.730,0.91,0.0184,0.1273,0.1828,0.0087,2025-06-11T08:59:12.144918
8724,-0.9506,-0.1640,0.3104,1.855,-4.200,2.800,0.91,0.0368,0.1273,0.1828,0.0087,2025-06-11T08:59:12.144918
8725,-0.9496,-0.1615,0.3099,1.820,-4.095,2.485,0.91,0.0184,0.1273,0.1828,0.0087,2025-06-11T08:59:12.144918
8726,-0.9511,-0.1581,0.3109,1.540,-4.480,2.030,0.91,0.0368,0.1273,0.1828,0.0087,2025-06-11T08:59:12.144918
8727,-0.9453,-0.1596,0.3084,1.365,-5.565,1.365,0.91,0.0368,0.1273,0.1828,0.0087,2025-06-11T08:59:12.144918
8728,-0.9457,-0.1630,0.3138,1.155,-6.475,1.120,0.91,0.0184,0.1273,0.1828,0.0087,2025-06-11T08:59:12.144918
8729,-0.9443,-0.1610,0.3133,0.980,-7.035,0.875,0.91,0.0368,0.1018,0.1828,0.0174,2025-06-11T08:59:12.144918
8730,-0.9399,-0.1591,0.3109,0.805,-7.070,0.735,0.91,0.0184,0.1273,0.1828,0.0087,2025-06-11T08:59:12.145984
8731,-0.9316,-0.1552,0.3143,0.490,-6.370,0.770,0.91,0.0368,0.1273,0.1828,0.0087,2025-06-11T08:59:12.145984
8732,-0.9443,-0.1547,0.3226,0.210,-5.145,0.455,0.91,0.0368,0.1273,0.1828,0.0087,2025-06-11T08:59:12.145984
8733,-0.9565,-0.1537,0.3216,0.000,-4.935,0.350,0.91,0.0184,0.1273,0.1828,0.0087,2025-06-11T08:59:12.145984
8734,-0.9677,-0.1557,0.3231,-0.140,-5.740,0.210,0.91,0.0368,0.1273,0.1828,0.0087,2025-06-11T08:59:12.145984
8735,-0.9731,-0.1557,0.3231,-0.175,-7.035,0.280,0.91,0.0184,0.1273,0.1828,0.0087,2025-06-11T08:59:12.145984
8736,-0.9638,-0.1596,0.3201,0.070,-7.840,0.525,0.91,0.0368,0.1529,0.1828,0.0174,2025-06-11T08:59:12.202273
8737,-0.9453,-0.1610,0.3182,0.630,-7.350,1.260,0.91,0.0368,0.1529,0.1828,0.0174,2025-06-11T08:59:12.202273
8738,-0.9389,-0.1527,0.3231,1.015,-5.250,1.505,0.91,0.0368,0.1273,0.1932,0.0174,2025-06-11T08:59:12.202273
8739,-0.9384,-0.1498,0.3226,1.190,-2.835,1.750,0.91,0.0184,0.1273,0.1932,0.0087,2025-06-11T08:59:12.202273
8740,-0.9492,-0.1454,0.3152,1.785,-2.415,2.310,0.91,0.0368,0.1529,0.1932,0.0087,2025-06-11T08:59:12.450135
8741,-0.9550,-0.1362,0.3187,1.750,-2.870,2.660,0.91,0.0368,0.1529,0.1828,0.0174,2025-06-11T08:59:12.451188
8742,-0.9467,-0.1352,0.3196,1.715,-3.780,2.590,0.91,0.0368,0.1273,0.1932,0.0087,2025-06-11T08:59:12.451188
8743,-0.9404,-0.1327,0.3162,1.540,-4.585,2.590,0.91,0.0368,0.1273,0.1932,0.0087,2025-06-11T08:59:12.451188
8744,-0.9418,-0.1313,0.3167,1.190,-4.760,2.380,0.91,0.0368,0.1273,0.1932,0.0087,2025-06-11T08:59:12.451188
8745,-0.9335,-0.1347,0.3221,0.700,-5.075,2.310,0.91,0.0184,0.1273,0.1932,0.0087,2025-06-11T08:59:12.451188
8746,-0.9394,-0.1386,0.3201,0.735,-5.250,2.800,0.91,0.0368,0.1529,0.1932,0.0174,2025-06-11T08:59:12.451188
8747,-0.9428,-0.1420,0.3109,0.175,-4.865,3.185,0.91,0.0368,0.1529,0.1932,0.0174,2025-06-11T08:59:12.451188
8748,-0.9321,-0.1415,0.3143,-0.105,-4.165,2.905,0.91,0.0184,0.1018,0.1932,0.0087,2025-06-11T08:59:12.451188
8749,-0.9306,-0.1405,0.3182,-0.350,-2.660,2.590,0.91,0.0184,0.1273,0.1932,0.0000,2025-06-11T08:59:12.451188
8750,-0.9457,-0.1381,0.3157,-0.595,-2.485,2.205,0.91,0.0368,0.1273,0.1828,0.0087,2025-06-11T08:59:12.451188
8751,-0.9589,-0.1410,0.3138,-1.260,-4.060,1.680,0.91,0.0368,0.1529,0.1932,0.0174,2025-06-11T08:59:12.561569
8752,-0.9540,-0.1410,0.3162,-1.505,-5.880,1.470,0.91,0.0184,0.1273,0.1932,0.0174,2025-06-11T08:59:12.561569
8753,-0.9540,-0.1464,0.3235,-1.645,-6.860,1.295,0.91,0.0368,0.1529,0.1932,0.0174,2025-06-11T08:59:12.561569
8754,-0.9492,-0.1464,0.3211,-1.820,-6.720,1.365,0.91,0.0368,0.1529,0.1828,0.0174,2025-06-11T08:59:12.561569
8755,-0.9555,-0.1537,0.3162,-1.750,-6.230,1.470,0.91,0.0368,0.1529,0.1932,0.0087,2025-06-11T08:59:12.561569
8756,-0.9536,-0.1513,0.3250,-1.540,-4.725,1.575,0.91,0.0368,0.1273,0.1932,0.0174,2025-06-11T08:59:12.561569
8757,-0.9570,-0.1518,0.3284,-1.015,-3.185,1.400,0.91,0.0368,0.1273,0.1828,0.0174,2025-06-11T08:59:12.561569
8758,-0.9682,-0.1508,0.3231,-0.595,-2.450,1.505,0.91,0.0368,0.1273,0.1932,0.0174,2025-06-11T08:59:12.561569
8759,-0.9658,-0.1518,0.3240,-0.280,-2.555,1.610,0.91,0.0368,0.1273,0.1932,0.0174,2025-06-11T08:59:12.561569
8760,-0.9599,-0.1479,0.3260,-0.175,-2.415,1.855,0.91,0.0368,0.1273,0.1932,0.0087,2025-06-11T08:59:12.561569
8761,-0.9565,-0.1454,0.3343,0.105,-2.520,2.100,0.91,0.0184,0.1273,0.1932,0.0174,2025-06-11T08:59:12.561569
8762,-0.9536,-0.1440,0.3304,0.175,-2.695,2.240,0.91,0.0184,0.1273,0.1932,0.0174,2025-06-11T08:59:12.561569
8763,-0.9579,-0.1469,0.3284,0.420,-3.080,2.065,0.91,0.0368,0.1273,0.1932,0.0174,2025-06-11T08:59:12.561569
8764,-0.9667,-0.1513,0.3377,0.490,-3.675,1.925,0.91,0.0368,0.1529,0.2035,0.0087,2025-06-11T08:59:12.561569
8765,-0.9589,-0.1518,0.3299,0.770,-4.480,2.100,0.91,0.0368,0.1273,0.1932,0.0174,2025-06-11T08:59:12.561569
8766,-0.9526,-0.1523,0.3294,1.120,-4.410,1.925,0.91,0.0368,0.1529,0.2035,0.0087,2025-06-11T08:59:12.561569
8767,-0.9350,-0.1498,0.3265,1.085,-3.640,1.540,0.91,0.0368,0.1273,0.1932,0.0087,2025-06-11T08:59:12.786798
8768,-0.9277,-0.1454,0.3250,1.295,-1.995,1.120,0.91,0.0368,0.1529,0.2035,0.0174,2025-06-11T08:59:12.786798
8769,-0.9316,-0.1342,0.3323,1.225,-0.770,0.070,0.91,0.0368,0.1273,0.1932,0.0174,2025-06-11T08:59:12.786798
8770,-0.9462,-0.1342,0.3314,0.945,-1.610,-0.525,0.91,0.0368,0.1529,0.2035,0.0174,2025-06-11T08:59:12.786798
8771,-0.9521,-0.1342,0.3226,1.085,-4.200,-0.735,0.91,0.0368,0.1529,0.2035,0.0087,2025-06-11T08:59:12.786798
8772,-0.9511,-0.1337,0.3240,0.945,-6.895,-1.155,0.91,0.0184,0.1273,0.1932,0.0087,2025-06-11T08:59:12.787748
8773,-0.9448,-0.1376,0.3221,0.910,-7.945,-1.540,0.91,0.0368,0.1273,0.1932,0.0087,2025-06-11T08:59:12.787748
8774,-0.9306,-0.1415,0.3182,1.085,-7.630,-1.540,0.91,0.0184,0.1273,0.2035,0.0087,2025-06-11T08:59:12.787748
8775,-0.9287,-0.1415,0.3221,1.470,-6.300,-1.330,0.91,0.0368,0.1273,0.1932,0.0087,2025-06-11T08:59:12.787748
8776,-0.9326,-0.1376,0.3245,1.645,-4.445,-1.540,0.91,0.0184,0.1273,0.1932,0.0087,2025-06-11T08:59:12.787748
8777,-0.9418,-0.1362,0.3265,1.960,-2.975,-1.890,0.91,0.0368,0.1273,0.1932,0.0087,2025-06-11T08:59:12.787748
8778,-0.9492,-0.1357,0.3231,1.890,-3.150,-1.715,0.91,0.0184,0.1273,0.2035,0.0087,2025-06-11T08:59:12.787748
8779,-0.9599,-0.1381,0.3187,1.820,-4.865,-1.610,0.91,0.0184,0.1529,0.1828,0.0174,2025-06-11T08:59:12.787748
8780,-0.9628,-0.1386,0.3187,1.715,-6.195,-1.435,0.91,0.0368,0.1529,0.1932,0.0087,2025-06-11T08:59:12.787748
8781,-0.9526,-0.1386,0.3211,1.610,-6.405,-1.365,0.91,0.0184,0.1529,0.2035,0.0087,2025-06-11T08:59:12.787748
8782,-0.9433,-0.1420,0.3211,1.855,-5.285,-1.365,0.91,0.0368,0.1529,0.1828,0.0174,2025-06-11T08:59:12.787748
8783,-0.9506,-0.1449,0.3201,2.065,-3.850,-1.050,0.91,0.0368,0.1529,0.1932,0.0087,2025-06-11T08:59:12.989026
8784,-0.9487,-0.1444,0.3211,2.275,-2.800,-0.735,0.91,0.0368,0.1529,0.1932,0.0174,2025-06-11T08:59:12.989026
8785,-0.9579,-0.1381,0.3279,2.380,-2.345,-0.595,0.91,0.0184,0.1529,0.2035,0.0174,2025-06-11T08:59:12.989026
8786,-0.9584,-0.1381,0.3250,2.310,-2.415,-0.315,0.91,0.0368,0.1529,0.1932,0.0174,2025-06-11T08:59:12.989026
8787,-0.9540,-0.1371,0.3250,2.310,-2.835,-0.350,0.91,0.0368,0.1529,0.1932,0.0087,2025-06-11T08:59:12.989026
8788,-0.9472,-0.1366,0.3255,2.170,-2.765,-0.420,0.91,0.0368,0.1529,0.1932,0.0174,2025-06-11T08:59:12.989026
8789,-0.9394,-0.1371,0.3255,1.855,-2.625,-0.245,0.91,0.0368,0.1529,0.1932,0.0087,2025-06-11T08:59:12.989026
8790,-0.9360,-0.1313,0.3279,1.715,-1.715,-0.245,0.91,0.0368,0.1273,0.1932,0.0087,2025-06-11T08:59:12.989026
8791,-0.9389,-0.1327,0.3270,1.400,-1.435,-0.315,0.91,0.0368,0.1786,0.1932,0.0174,2025-06-11T08:59:12.989026
8792,-0.9433,-0.1381,0.3226,1.120,-2.170,0.000,0.91,0.0368,0.1529,0.1932,0.0087,2025-06-11T08:59:12.989865
8793,-0.9472,-0.1401,0.3167,0.945,-3.255,0.315,0.91,0.0184,0.1529,0.1828,0.0174,2025-06-11T08:59:12.989865
8794,-0.9389,-0.1410,0.3235,0.875,-3.360,0.105,0.91,0.0368,0.1529,0.1932,0.0087,2025-06-11T08:59:12.989865
8795,-0.9394,-0.1420,0.3250,0.805,-2.310,-0.420,0.91,0.0368,0.1529,0.1932,0.0087,2025-06-11T08:59:12.989865
8796,-0.9443,-0.1415,0.3231,0.840,-1.505,-0.665,0.91,0.0368,0.1529,0.1828,0.0174,2025-06-11T08:59:12.989865
8797,-0.9462,-0.1401,0.3299,0.840,-0.980,-1.015,0.91,0.0368,0.1529,0.1932,0.0174,2025-06-11T08:59:13.255515
8798,-0.9565,-0.1371,0.3314,0.875,-1.085,-1.120,0.91,0.0368,0.1786,0.1932,0.0174,2025-06-11T08:59:13.255515
8799,-0.9584,-0.1415,0.3235,0.595,-2.065,-0.805,0.91,0.0368,0.1529,0.1828,0.0174,2025-06-11T08:59:13.255515
8800,-0.9575,-0.1420,0.3216,0.280,-2.835,-0.280,0.91,0.0368,0.1273,0.1932,0.0087,2025-06-11T08:59:13.255515
8801,-0.9453,-0.1396,0.3284,0.175,-1.995,0.000,0.91,0.0552,0.1529,0.1932,0.0174,2025-06-11T08:59:13.255515
8802,-0.9511,-0.1430,0.3333,0.000,-0.630,-0.035,0.91,0.0184,0.1529,0.1932,0.0174,2025-06-11T08:59:13.255515
8803,-0.9589,-0.1396,0.3343,-0.035,-0.280,-0.070,0.91,0.0184,0.1273,0.1828,0.0174,2025-06-11T08:59:13.255515
8804,-0.9692,-0.1381,0.3318,-0.105,-1.085,0.140,0.91,0.0184,0.1273,0.1932,0.0174,2025-06-11T08:59:13.255515
8805,-0.9584,-0.1386,0.3279,-0.245,-3.080,0.490,0.91,0.0368,0.1273,0.1828,0.0174,2025-06-11T08:59:13.255515
8806,-0.9506,-0.1371,0.3289,-0.140,-3.710,0.665,0.91,0.0368,0.1529,0.1932,0.0087,2025-06-11T08:59:13.255515
8807,-0.9399,-0.1362,0.3284,-0.490,-2.730,0.315,0.91,0.0368,0.1529,0.1828,0.0174,2025-06-11T08:59:13.255515
8808,-0.9418,-0.1410,0.3250,-0.490,-1.925,-0.070,0.91,0.0368,0.1529,0.1828,0.0174,2025-06-11T08:59:13.255515
8809,-0.9433,-0.1430,0.3240,-0.420,-2.030,0.105,0.91,0.0368,0.1529,0.1932,0.0174,2025-06-11T08:59:13.255515
8810,-0.9516,-0.1376,0.3353,-0.350,-1.960,-0.105,0.91,0.0368,0.1529,0.1932,0.0174,2025-06-11T08:59:13.255515
8811,-0.9633,-0.1430,0.3270,-0.665,-2.835,-0.210,0.91,0.0368,0.1529,0.1932,0.0174,2025-06-11T08:59:13.255515
8812,-0.9736,-0.1425,0.3270,-0.700,-4.865,-0.105,0.91,0.0184,0.1529,0.2035,0.0174,2025-06-11T08:59:13.473514
8813,-0.9599,-0.1381,0.3265,-0.700,-5.775,-0.210,0.91,0.0552,0.1529,0.2035,0.0087,2025-06-11T08:59:13.473514
8814,-0.9414,-0.1410,0.3196,-0.385,-5.320,-0.315,0.91,0.0368,0.1529,0.1932,0.0087,2025-06-11T08:59:13.473514
8815,-0.9296,-0.1366,0.3128,-0.245,-4.095,0.070,0.91,0.0368,0.1529,0.2035,0.0174,2025-06-11T08:59:13.473514
8816,-0.9340,-0.1220,0.3148,0.105,-2.100,0.595,0.91,0.0184,0.1529,0.1932,0.0087,2025-06-11T08:59:13.473514
8817,-0.9360,-0.1083,0.3118,0.350,0.105,1.120,0.91,0.0184,0.1273,0.1725,0.0087,2025-06-11T08:59:13.474582
8818,-0.9399,-0.0971,0.2967,0.140,1.155,2.065,0.91,0.0368,0.1529,0.1828,0.0174,2025-06-11T08:59:13.474582
8819,-0.9555,-0.0834,0.2928,-0.175,0.980,3.080,0.91,0.0368,0.1529,0.1828,0.0174,2025-06-11T08:59:13.474582
8820,-0.9623,-0.0825,0.2918,-0.700,0.245,4.270,0.91,0.0368,0.1273,0.1828,0.0087,2025-06-11T08:59:13.474582
8821,-0.9755,-0.0869,0.2972,-1.050,-1.085,5.845,0.91,0.0368,0.1273,0.1828,0.0087,2025-06-11T08:59:13.474582
8822,-0.9858,-0.1015,0.3011,-2.100,-3.045,7.000,0.91,0.0368,0.1529,0.1828,0.0174,2025-06-11T08:59:13.474582
8823,-0.9911,-0.1220,0.3182,-2.100,-5.635,8.400,0.91,0.0368,0.1273,0.1725,0.0174,2025-06-11T08:59:13.474582
8824,-0.9794,-0.1366,0.3270,-1.820,-6.300,8.890,0.91,0.0368,0.1529,0.1828,0.0174,2025-06-11T08:59:13.474582
8825,-0.9584,-0.1610,0.3235,-1.540,-4.655,8.645,0.91,0.0184,0.1273,0.1828,0.0174,2025-06-11T08:59:13.474582
8826,-0.9472,-0.1713,0.3265,-1.435,-1.820,8.365,0.91,0.0184,0.1273,0.1828,0.0174,2025-06-11T08:59:13.474582
8827,-0.9448,-0.1762,0.3255,-0.945,0.070,7.560,0.91,0.0368,0.1529,0.1828,0.0174,2025-06-11T08:59:13.474582
8828,-0.9448,-0.1767,0.3279,-1.050,2.660,5.635,0.91,0.0368,0.1529,0.1932,0.0174,2025-06-11T08:59:13.474582
8829,-0.9536,-0.1767,0.3333,-1.085,3.290,4.165,0.91,0.0368,0.1529,0.1932,0.0087,2025-06-11T08:59:13.580558
8830,-0.9721,-0.1732,0.3367,-1.190,1.715,2.450,0.91,0.0552,0.1273,0.1932,0.0174,2025-06-11T08:59:13.580558
8831,-0.9706,-0.1703,0.3348,-1.295,-2.065,1.330,0.91,0.0552,0.1529,0.1828,0.0087,2025-06-11T08:59:13.580558
8832,-0.9638,-0.1645,0.3260,-1.400,-4.760,-0.210,0.91,0.0368,0.1529,0.1932,0.0087,2025-06-11T08:59:13.580558
8833,-0.9404,-0.1586,0.3221,-1.295,-6.370,-1.400,0.91,0.0368,0.1273,0.1828,0.0174,2025-06-11T08:59:13.581577
8834,-0.9287,-0.1542,0.3177,-1.120,-6.370,-2.940,0.91,0.0368,0.1273,0.1828,0.0174,2025-06-11T08:59:13.581577
8835,-0.9228,-0.1474,0.3167,-0.770,-5.670,-4.410,0.91,0.0184,0.1273,0.1828,0.0174,2025-06-11T08:59:13.581577
8836,-0.9355,-0.1425,0.3192,-0.455,-5.495,-5.600,0.91,0.0368,0.1273,0.1828,0.0174,2025-06-11T08:59:13.581577
8837,-0.9516,-0.1376,0.3255,-0.070,-5.950,-7.035,0.91,0.0184,0.1273,0.1828,0.0087,2025-06-11T08:59:13.581577
8838,-0.9653,-0.1362,0.3265,0.455,-7.595,-7.980,0.91,0.0368,0.1529,0.1828,0.0087,2025-06-11T08:59:13.581577
8839,-0.9736,-0.1381,0.3162,0.665,-9.730,-8.540,0.91,0.0184,0.1273,0.1828,0.0174,2025-06-11T08:59:13.581577
8840,-0.9648,-0.1410,0.3177,1.050,-11.865,-8.085,0.91,0.0368,0.1273,0.1828,0.0174,2025-06-11T08:59:13.581577
8841,-0.9599,-0.1401,0.3196,1.610,-11.865,-7.455,0.91,0.0368,0.1529,0.1932,0.0087,2025-06-11T08:59:13.581577
8842,-0.9462,-0.1391,0.3182,1.785,-9.590,-6.825,0.91,0.0368,0.1529,0.1828,0.0174,2025-06-11T08:59:13.790391
8843,-0.9511,-0.1342,0.3192,2.205,-7.210,-6.055,0.91,0.0368,0.1273,0.1932,0.0087,2025-06-11T08:59:13.790391
8844,-0.9560,-0.1293,0.3240,2.310,-5.320,-5.005,0.91,0.0368,0.1529,0.1828,0.0174,2025-06-11T08:59:13.790391
8845,-0.9662,-0.1283,0.3216,2.380,-5.110,-4.200,0.91,0.0368,0.1529,0.1828,0.0087,2025-06-11T08:59:13.790391
8846,-0.9760,-0.1254,0.3192,2.275,-6.475,-3.150,0.91,0.0368,0.1529,0.1828,0.0174,2025-06-11T08:59:13.790391
8847,-0.9677,-0.1235,0.3182,2.065,-8.190,-2.240,0.91,0.0184,0.1529,0.1932,0.0174,2025-06-11T08:59:13.790391
8848,-0.9531,-0.1298,0.3118,2.170,-8.435,-1.400,0.91,0.0368,0.1529,0.1828,0.0087,2025-06-11T08:59:13.790391
8849,-0.9384,-0.1283,0.3118,2.065,-6.405,-0.665,0.91,0.0552,0.1529,0.1828,0.0174,2025-06-11T08:59:13.790391
8850,-0.9287,-0.1244,0.3074,2.065,-4.025,-0.350,0.91,0.0368,0.1529,0.1828,0.0174,2025-06-11T08:59:13.790391
8851,-0.9394,-0.1244,0.3055,2.205,-1.890,0.385,0.91,0.0368,0.1529,0.1725,0.0087,2025-06-11T08:59:13.791406
8852,-0.9467,-0.1200,0.3109,2.030,-1.295,0.945,0.91,0.0368,0.1529,0.1828,0.0087,2025-06-11T08:59:13.791406
8853,-0.9531,-0.1181,0.3104,1.890,-1.750,1.155,0.91,0.0368,0.1273,0.1828,0.0087,2025-06-11T08:59:13.791406
8854,-0.9506,-0.1220,0.3079,1.505,-3.115,1.575,0.91,0.0368,0.1273,0.1828,0.0087,2025-06-11T08:59:13.791406
8855,-0.9448,-0.1230,0.3040,1.120,-4.200,1.995,0.91,0.0184,0.1786,0.1828,0.0087,2025-06-11T08:59:13.791406
8856,-0.9287,-0.1235,0.3074,0.700,-4.200,2.135,0.91,0.0368,0.1529,0.1828,0.0174,2025-06-11T08:59:13.791406
8857,-0.9301,-0.1274,0.3065,0.490,-3.325,2.030,0.91,0.0368,0.1529,0.1828,0.0174,2025-06-11T08:59:14.035645
8858,-0.9292,-0.1308,0.3016,0.105,-2.415,1.925,0.91,0.0368,0.1529,0.1828,0.0174,2025-06-11T08:59:14.035645
8859,-0.9423,-0.1308,0.3074,0.140,-1.960,1.995,0.91,0.0368,0.1529,0.1828,0.0174,2025-06-11T08:59:14.035645
8860,-0.9433,-0.1279,0.3133,-0.280,-1.505,1.925,0.91,0.0368,0.1529,0.1828,0.0174,2025-06-11T08:59:14.035645
8861,-0.9540,-0.1264,0.3172,-0.280,-1.435,1.820,0.91,0.0368,0.1529,0.1828,0.0174,2025-06-11T08:59:14.036641
8862,-0.9604,-0.1288,0.3133,-0.700,-1.925,1.715,0.91,0.0368,0.1273,0.1725,0.0087,2025-06-11T08:59:14.036641
8863,-0.9584,-0.1293,0.3167,-1.190,-2.485,1.540,0.91,0.0368,0.1529,0.1725,0.0174,2025-06-11T08:59:14.036641
8864,-0.9628,-0.1332,0.3192,-1.470,-3.465,1.610,0.91,0.0368,0.1529,0.1828,0.0174,2025-06-11T08:59:14.036641
8865,-0.9618,-0.1386,0.3118,-1.750,-4.060,2.030,0.91,0.0368,0.1529,0.1828,0.0174,2025-06-11T08:59:14.036641
8866,-0.9638,-0.1420,0.3196,-1.890,-4.270,2.695,0.91,0.0184,0.1529,0.1725,0.0174,2025-06-11T08:59:14.036641
8867,-0.9584,-0.1449,0.3221,-1.960,-3.815,3.080,0.91,0.0368,0.1529,0.1828,0.0174,2025-06-11T08:59:14.036641
8868,-0.9570,-0.1454,0.3216,-1.750,-2.695,3.360,0.91,0.0368,0.1529,0.1725,0.0174,2025-06-11T08:59:14.036641
8869,-0.9560,-0.1464,0.3265,-1.225,-1.330,3.395,0.91,0.0368,0.1786,0.1622,0.0174,2025-06-11T08:59:14.036641
8870,-0.9658,-0.1464,0.3260,-1.085,-0.840,3.325,0.91,0.0368,0.1529,0.1725,0.0174,2025-06-11T08:59:14.036641
8871,-0.9721,-0.1464,0.3177,-0.525,-1.925,3.360,0.91,0.0184,0.1529,0.1725,0.0174,2025-06-11T08:59:14.036641
8872,-0.9711,-0.1425,0.3309,0.000,-2.765,3.185,0.91,0.0368,0.1786,0.1725,0.0174,2025-06-11T08:59:14.036641
8873,-0.9677,-0.1440,0.3206,0.350,-3.395,2.765,0.92,0.0368,0.1529,0.1725,0.0174,2025-06-11T08:59:14.036641
8874,-0.9536,-0.1459,0.3162,0.840,-3.885,2.520,0.91,0.0368,0.1786,0.1725,0.0174,2025-06-11T08:59:14.036641
8875,-0.9487,-0.1415,0.3226,1.225,-3.325,1.925,0.91,0.0368,0.1529,0.1725,0.0174,2025-06-11T08:59:14.199587
8876,-0.9492,-0.1420,0.3216,1.925,-2.415,1.120,0.91,0.0368,0.1273,0.1725,0.0087,2025-06-11T08:59:14.199587
8877,-0.9545,-0.1401,0.3226,2.380,-2.310,0.630,0.91,0.0368,0.1786,0.1725,0.0174,2025-06-11T08:59:14.199587
8878,-0.9604,-0.1391,0.3235,2.660,-3.150,0.035,0.91,0.0368,0.1529,0.1622,0.0087,2025-06-11T08:59:14.200582
8879,-0.9521,-0.1352,0.3260,3.045,-4.165,-0.105,0.91,0.0368,0.1529,0.1725,0.0087,2025-06-11T08:59:14.200582
8880,-0.9457,-0.1347,0.3187,3.430,-5.005,-0.560,0.91,0.0368,0.1786,0.1725,0.0174,2025-06-11T08:59:14.200582
8881,-0.9472,-0.1342,0.3133,3.255,-5.110,-1.225,0.91,0.0368,0.1529,0.1622,0.0087,2025-06-11T08:59:14.200582
8882,-0.9394,-0.1342,0.3187,3.150,-4.900,-2.135,0.91,0.0184,0.1529,0.1622,0.0174,2025-06-11T08:59:14.200582
8883,-0.9482,-0.1337,0.3231,3.115,-4.620,-2.590,0.91,0.0368,0.1786,0.1828,0.0174,2025-06-11T08:59:14.200582
8884,-0.9550,-0.1362,0.3172,2.835,-5.145,-2.765,0.91,0.0368,0.1529,0.1519,0.0087,2025-06-11T08:59:14.201216
8885,-0.9609,-0.1337,0.3206,2.520,-5.985,-2.590,0.91,0.0184,0.1273,0.1622,0.0174,2025-06-11T08:59:14.201583
8886,-0.9594,-0.1347,0.3221,2.275,-6.195,-2.205,0.91,0.0368,0.1529,0.1622,0.0087,2025-06-11T08:59:14.201583
8887,-0.9545,-0.1322,0.3240,2.170,-5.285,-1.995,0.91,0.0368,0.1529,0.1622,0.0174,2025-06-11T08:59:14.400523
8888,-0.9575,-0.1288,0.3216,1.960,-4.445,-1.820,0.91,0.0368,0.1529,0.1725,0.0174,2025-06-11T08:59:14.400523
8889,-0.9560,-0.1308,0.3196,1.925,-4.060,-1.295,0.91,0.0368,0.1529,0.1725,0.0262,2025-06-11T08:59:14.400523
8890,-0.9536,-0.1283,0.3157,1.715,-4.060,-0.945,0.91,0.0368,0.1786,0.1828,0.0174,2025-06-11T08:59:14.400523
8891,-0.9467,-0.1235,0.3196,1.750,-4.200,-0.350,0.91,0.0368,0.1786,0.1828,0.0174,2025-06-11T08:59:14.401518
8892,-0.9506,-0.1200,0.3196,1.575,-3.815,-0.420,0.91,0.0368,0.1786,0.1725,0.0174,2025-06-11T08:59:14.401518
8893,-0.9482,-0.1196,0.3152,1.155,-3.570,-0.700,0.91,0.0368,0.1529,0.1725,0.0174,2025-06-11T08:59:14.401518
8894,-0.9531,-0.1220,0.3157,0.910,-3.850,-0.630,0.91,0.0368,0.1529,0.1725,0.0087,2025-06-11T08:59:14.401518
8895,-0.9584,-0.1230,0.3187,0.945,-4.095,-0.665,0.91,0.0368,0.1786,0.1725,0.0087,2025-06-11T08:59:14.402516
8896,-0.9540,-0.1283,0.3167,0.945,-4.375,-0.490,0.91,0.0368,0.1529,0.1725,0.0174,2025-06-11T08:59:14.402516
8897,-0.9496,-0.1313,0.3138,1.330,-4.270,-0.315,0.91,0.0368,0.1529,0.1725,0.0087,2025-06-11T08:59:14.402516
8898,-0.9389,-0.1322,0.3143,1.540,-3.115,-0.175,0.91,0.0368,0.1529,0.1828,0.0174,2025-06-11T08:59:14.402516
8899,-0.9370,-0.1288,0.3128,1.785,-1.960,-0.420,0.91,0.0184,0.1529,0.1622,0.0174,2025-06-11T08:59:14.403513
8900,-0.9492,-0.1269,0.3177,1.925,-1.225,-0.805,0.91,0.0368,0.1529,0.1725,0.0174,2025-06-11T08:59:14.403513
8901,-0.9501,-0.1279,0.3182,2.030,-1.890,-0.875,0.91,0.0368,0.1529,0.1828,0.0174,2025-06-11T08:59:14.403513
8902,-0.9614,-0.1293,0.3182,2.310,-2.730,-0.945,0.92,0.0368,0.1529,0.1828,0.0087,2025-06-11T08:59:14.403513
8903,-0.9604,-0.1298,0.3192,2.240,-3.465,-1.120,0.91,0.0368,0.1529,0.1725,0.0174,2025-06-11T08:59:14.705940
8904,-0.9516,-0.1337,0.3221,2.485,-3.570,-1.155,0.91,0.0368,0.1529,0.1828,0.0174,2025-06-11T08:59:14.705940
8905,-0.9506,-0.1362,0.3196,2.590,-2.625,-1.120,0.91,0.0368,0.1529,0.1725,0.0174,2025-06-11T08:59:14.705940
8906,-0.9496,-0.1381,0.3187,2.275,-1.960,-0.945,0.91,0.0368,0.1529,0.1725,0.0174,2025-06-11T08:59:14.705940
8907,-0.9540,-0.1337,0.3216,2.310,-1.505,-0.595,0.91,0.0184,0.1529,0.1725,0.0174,2025-06-11T08:59:14.705940
8908,-0.9579,-0.1318,0.3216,2.065,-1.295,-0.315,0.91,0.0368,0.1529,0.1725,0.0087,2025-06-11T08:59:14.705940
8909,-0.9575,-0.1279,0.3323,1.960,-1.400,-0.245,0.91,0.0368,0.1273,0.1725,0.0174,2025-06-11T08:59:14.705940
8910,-0.9653,-0.1293,0.3304,1.715,-2.240,-0.315,0.91,0.0184,0.1529,0.1725,0.0174,2025-06-11T08:59:14.705940
8911,-0.9658,-0.1308,0.3221,1.260,-3.675,-0.245,0.91,0.0368,0.1529,0.1725,0.0174,2025-06-11T08:59:14.705940
8912,-0.9526,-0.1337,0.3260,1.190,-4.550,-0.175,0.91,0.0368,0.1273,0.1725,0.0087,2025-06-11T08:59:14.706935
8913,-0.9340,-0.1352,0.3167,1.120,-4.130,-0.070,0.91,0.0368,0.1529,0.1725,0.0174,2025-06-11T08:59:14.707936
8914,-0.9350,-0.1303,0.3172,1.050,-2.485,-0.350,0.91,0.0368,0.1529,0.1725,0.0087,2025-06-11T08:59:14.707936
8915,-0.9365,-0.1259,0.3265,0.840,-1.190,-0.840,0.91,0.0368,0.1529,0.1828,0.0174,2025-06-11T08:59:14.707936
8916,-0.9467,-0.1225,0.3240,0.770,-1.295,-1.295,0.91,0.0368,0.1529,0.1828,0.0174,2025-06-11T08:59:14.707936
8917,-0.9648,-0.1210,0.3279,0.595,-2.940,-1.645,0.91,0.0368,0.1529,0.1828,0.0174,2025-06-11T08:59:14.707936
8918,-0.9643,-0.1210,0.3289,0.280,-5.425,-1.785,0.91,0.0368,0.1529,0.1828,0.0174,2025-06-11T08:59:14.812390
8919,-0.9579,-0.1298,0.3177,0.210,-7.910,-1.470,0.91,0.0368,0.1529,0.1725,0.0174,2025-06-11T08:59:14.812390
8920,-0.9467,-0.1347,0.3138,0.070,-8.260,-1.190,0.91,0.0368,0.1529,0.1828,0.0087,2025-06-11T08:59:14.812390
8921,-0.9355,-0.1318,0.3216,0.070,-5.985,-1.260,0.92,0.0368,0.1529,0.1828,0.0174,2025-06-11T08:59:14.812390
8922,-0.9438,-0.1337,0.3235,0.455,-3.640,-1.295,0.91,0.0368,0.1529,0.1932,0.0174,2025-06-11T08:59:14.812390
8923,-0.9648,-0.1337,0.3226,0.595,-2.730,-1.120,0.91,0.0368,0.1273,0.1932,0.0174,2025-06-11T08:59:14.812390
8924,-0.9765,-0.1308,0.3260,0.770,-3.885,-0.805,0.91,0.0368,0.1529,0.1932,0.0087,2025-06-11T08:59:14.812390
8925,-0.9750,-0.1264,0.3304,0.770,-5.145,-0.245,0.91,0.0368,0.1273,0.1932,0.0174,2025-06-11T08:59:14.812390
8926,-0.9706,-0.1283,0.3255,0.595,-6.090,0.140,0.91,0.0368,0.1529,0.1828,0.0174,2025-06-11T08:59:14.812390
8927,-0.9638,-0.1303,0.3216,0.700,-6.195,0.315,0.91,0.0368,0.1529,0.1828,0.0174,2025-06-11T08:59:14.812390
8928,-0.9536,-0.1347,0.3182,1.050,-5.635,0.630,0.91,0.0368,0.1529,0.1828,0.0174,2025-06-11T08:59:14.812390
8929,-0.9467,-0.1332,0.3240,1.330,-4.235,0.665,0.91,0.0368,0.1529,0.1828,0.0174,2025-06-11T08:59:14.812390
8930,-0.9472,-0.1357,0.3182,1.470,-3.185,0.805,0.91,0.0184,0.1273,0.1725,0.0174,2025-06-11T08:59:14.812390
8931,-0.9467,-0.1342,0.3162,1.575,-3.150,0.910,0.91,0.0368,0.1529,0.1725,0.0087,2025-06-11T08:59:14.812390
8932,-0.9496,-0.1279,0.3265,1.400,-3.220,0.805,0.91,0.0184,0.1529,0.1828,0.0174,2025-06-11T08:59:14.812390
8933,-0.9521,-0.1279,0.3265,1.085,-3.850,0.630,0.91,0.0368,0.1529,0.1828,0.0174,2025-06-11T08:59:15.149372
8934,-0.9531,-0.1283,0.3157,0.630,-5.215,0.770,0.91,0.0368,0.1529,0.1622,0.0174,2025-06-11T08:59:15.149372
8935,-0.9555,-0.1308,0.3177,0.350,-6.475,0.700,0.91,0.0552,0.1529,0.1725,0.0174,2025-06-11T08:59:15.149372
8936,-0.9453,-0.1337,0.3216,0.385,-6.510,0.560,0.91,0.0368,0.1529,0.1622,0.0174,2025-06-11T08:59:15.149372
8937,-0.9409,-0.1386,0.3148,0.665,-5.215,0.245,0.91,0.0368,0.1529,0.1725,0.0174,2025-06-11T08:59:15.150122
8938,-0.9467,-0.1430,0.3079,0.770,-4.270,0.175,0.92,0.0368,0.1529,0.1725,0.0174,2025-06-11T08:59:15.150122
8939,-0.9531,-0.1391,0.3138,1.050,-3.605,0.105,0.92,0.0368,0.1529,0.1828,0.0174,2025-06-11T08:59:15.150122
8940,-0.9550,-0.1342,0.3216,1.365,-3.045,0.035,0.91,0.0368,0.1529,0.1828,0.0174,2025-06-11T08:59:15.150122
8941,-0.9570,-0.1322,0.3192,1.400,-3.395,0.000,0.91,0.0368,0.1529,0.1828,0.0174,2025-06-11T08:59:15.150122
8942,-0.9658,-0.1332,0.3206,1.470,-4.270,0.035,0.91,0.0368,0.1273,0.1828,0.0087,2025-06-11T08:59:15.150122
8943,-0.9599,-0.1313,0.3196,1.365,-4.970,0.105,0.91,0.0368,0.1529,0.1828,0.0087,2025-06-11T08:59:15.150122
8944,-0.9555,-0.1322,0.3240,1.330,-5.145,0.280,0.91,0.0184,0.1273,0.1828,0.0174,2025-06-11T08:59:15.150122
8945,-0.9462,-0.1337,0.3260,1.225,-4.410,0.280,0.91,0.0184,0.1529,0.1828,0.0174,2025-06-11T08:59:15.150122
8946,-0.9516,-0.1322,0.3221,1.190,-3.570,0.350,0.92,0.0368,0.1529,0.1828,0.0174,2025-06-11T08:59:15.150122
8947,-0.9516,-0.1332,0.3231,1.120,-2.940,0.595,0.91,0.0368,0.1529,0.1828,0.0087,2025-06-11T08:59:15.457638
8948,-0.9560,-0.1288,0.3289,1.120,-2.695,0.735,0.92,0.0368,0.1786,0.1828,0.0174,2025-06-11T08:59:15.457638
8949,-0.9609,-0.1274,0.3255,1.050,-3.080,0.910,0.91,0.0368,0.1786,0.1828,0.0174,2025-06-11T08:59:15.457638
8950,-0.9618,-0.1283,0.3211,0.980,-4.165,1.260,0.91,0.0368,0.1529,0.1828,0.0174,2025-06-11T08:59:15.457638
8951,-0.9575,-0.1288,0.3216,0.945,-5.005,1.470,0.91,0.0368,0.1529,0.1828,0.0174,2025-06-11T08:59:15.457638
8952,-0.9516,-0.1274,0.3192,0.945,-4.865,1.120,0.91,0.0368,0.1529,0.1828,0.0087,2025-06-11T08:59:15.457638
8953,-0.9545,-0.1288,0.3206,0.910,-4.165,0.665,0.91,0.0184,0.1529,0.1932,0.0087,2025-06-11T08:59:15.457638
8954,-0.9570,-0.1308,0.3270,1.015,-3.535,0.245,0.91,0.0368,0.1529,0.1932,0.0087,2025-06-11T08:59:15.457638
8955,-0.9643,-0.1293,0.3260,0.840,-3.815,0.525,0.91,0.0184,0.1529,0.1828,0.0087,2025-06-11T08:59:15.457638
8956,-0.9643,-0.1283,0.3226,0.560,-4.480,0.665,0.91,0.0368,0.1529,0.1932,0.0174,2025-06-11T08:59:15.457638
8957,-0.9604,-0.1259,0.3265,0.525,-4.725,0.980,0.92,0.0368,0.1273,0.1932,0.0174,2025-06-11T08:59:15.457638
8958,-0.9570,-0.1220,0.3240,0.315,-4.480,1.365,0.91,0.0184,0.1529,0.1932,0.0087,2025-06-11T08:59:15.457638
8959,-0.9555,-0.1205,0.3196,0.000,-4.655,1.995,0.91,0.0368,0.1529,0.1932,0.0174,2025-06-11T08:59:15.457638
8960,-0.9536,-0.1186,0.3201,0.070,-5.355,2.660,0.91,0.0368,0.1529,0.1932,0.0087,2025-06-11T08:59:15.457638
8961,-0.9506,-0.1122,0.3211,0.000,-6.195,3.465,0.91,0.0368,0.1529,0.1828,0.0174,2025-06-11T08:59:15.458603
8962,-0.9560,-0.1078,0.3221,0.105,-7.000,3.850,0.91,0.0368,0.1529,0.2035,0.0174,2025-06-11T08:59:15.458603
8963,-0.9643,-0.1083,0.3182,0.035,-8.120,4.515,0.91,0.0368,0.1529,0.1932,0.0174,2025-06-11T08:59:15.458603
8964,-0.9692,-0.1093,0.3172,0.140,-9.765,5.390,0.92,0.0368,0.1529,0.2035,0.0174,2025-06-11T08:59:15.458603
8965,-0.9745,-0.1108,0.3206,0.315,-10.745,6.125,0.92,0.0368,0.1529,0.2035,0.0174,2025-06-11T08:59:15.458603
8966,-0.9823,-0.1083,0.3245,0.630,-11.725,6.965,0.91,0.0368,0.1529,0.1932,0.0174,2025-06-11T08:59:15.458603
8967,-0.9892,-0.1083,0.3309,1.085,-12.425,7.525,0.91,0.0368,0.1529,0.1932,0.0174,2025-06-11T08:59:15.458603
8968,-0.9936,-0.1103,0.3245,1.680,-13.510,7.980,0.92,0.0552,0.1529,0.1932,0.0174,2025-06-11T08:59:15.458603
8969,-0.9941,-0.1127,0.3294,2.380,-14.490,8.365,0.91,0.0368,0.1786,0.2035,0.0174,2025-06-11T08:59:15.458603
8970,-0.9936,-0.1093,0.3318,3.080,-15.155,9.100,0.91,0.0368,0.1786,0.1932,0.0174,2025-06-11T08:59:15.458603
8971,-0.9926,-0.1132,0.3304,3.955,-15.470,9.870,0.91,0.0368,0.1529,0.1932,0.0087,2025-06-11T08:59:15.458603
8972,-0.9906,-0.1118,0.3323,4.620,-15.050,10.850,0.92,0.0368,0.1529,0.1932,0.0087,2025-06-11T08:59:15.458603
8973,-0.9823,-0.1147,0.3382,5.425,-14.000,11.620,0.91,0.0368,0.1786,0.2035,0.0087,2025-06-11T08:59:15.458603
8974,-0.9809,-0.1127,0.3362,6.195,-13.195,12.810,0.91,0.0552,0.1529,0.2035,0.0174,2025-06-11T08:59:15.458603
8975,-0.9828,-0.1118,0.3450,6.720,-12.705,14.035,0.91,0.0552,0.1529,0.1932,0.0174,2025-06-11T08:59:15.458603
8976,-0.9838,-0.1122,0.3353,7.140,-13.405,15.400,0.91,0.0368,0.1529,0.2035,0.0174,2025-06-11T08:59:15.458603
8977,-0.9760,-0.1078,0.3396,7.210,-13.965,16.625,0.91,0.0368,0.1529,0.1932,0.0174,2025-06-11T08:59:15.458603
8978,-0.9638,-0.0991,0.3465,7.035,-13.965,17.115,0.92,0.0368,0.1529,0.2035,0.0174,2025-06-11T08:59:15.458603
8979,-0.9565,-0.0922,0.3484,6.860,-13.965,17.290,0.92,0.0368,0.1529,0.2035,0.0174,2025-06-11T08:59:15.726795
8980,-0.9540,-0.0874,0.3465,6.195,-14.735,17.360,0.92,0.0368,0.1529,0.2035,0.0174,2025-06-11T08:59:15.726795
8981,-0.9536,-0.0859,0.3533,5.670,-16.275,16.940,0.91,0.0368,0.1529,0.1932,0.0174,2025-06-11T08:59:15.726795
8982,-0.9540,-0.0859,0.3514,5.285,-17.815,16.765,0.91,0.0368,0.1529,0.2035,0.0174,2025-06-11T08:59:15.726795
8983,-0.9482,-0.0874,0.3494,5.075,-19.180,16.415,0.91,0.0368,0.1529,0.2035,0.0262,2025-06-11T08:59:15.726795
8984,-0.9472,-0.0854,0.3597,5.145,-19.530,16.065,0.92,0.0368,0.1529,0.2035,0.0087,2025-06-11T08:59:15.726795
8985,-0.9511,-0.0893,0.3621,5.320,-19.775,15.785,0.92,0.0368,0.1786,0.2035,0.0174,2025-06-11T08:59:15.726795
8986,-0.9628,-0.0869,0.3636,6.020,-20.160,15.680,0.91,0.0184,0.1529,0.2035,0.0087,2025-06-11T08:59:15.727821
8987,-0.9623,-0.0844,0.3592,6.335,-20.615,15.505,0.91,0.0368,0.1529,0.2035,0.0087,2025-06-11T08:59:15.727821
8988,-0.9579,-0.0825,0.3675,7.175,-20.685,15.085,0.92,0.0368,0.1529,0.1932,0.0174,2025-06-11T08:59:15.727821
8989,-0.9584,-0.0805,0.3675,8.015,-20.510,14.630,0.91,0.0368,0.1529,0.2035,0.0174,2025-06-11T08:59:15.727821
8990,-0.9536,-0.0756,0.3694,8.890,-20.545,14.560,0.91,0.0368,0.1529,0.2035,0.0174,2025-06-11T08:59:15.727821
8991,-0.9531,-0.0708,0.3728,9.870,-20.300,14.245,0.91,0.0368,0.1529,0.1932,0.0174,2025-06-11T08:59:15.727821
8992,-0.9623,-0.0649,0.3723,10.640,-19.810,13.965,0.91,0.0184,0.1529,0.2035,0.0174,2025-06-11T08:59:15.727821
8993,-0.9550,-0.0630,0.3889,11.760,-20.335,13.825,0.92,0.0368,0.1786,0.2035,0.0174,2025-06-11T08:59:15.834202
8994,-0.9614,-0.0576,0.3855,12.880,-20.930,13.650,0.92,0.0368,0.1529,0.2035,0.0174,2025-06-11T08:59:15.834202
8995,-0.9570,-0.0556,0.3816,13.265,-21.350,13.545,0.91,0.0552,0.1529,0.2035,0.0087,2025-06-11T08:59:15.834202
8996,-0.9453,-0.0493,0.3914,14.035,-20.895,13.090,0.92,0.0368,0.1529,0.2035,0.0174,2025-06-11T08:59:15.834202
8997,-0.9316,-0.0420,0.3982,14.420,-19.740,12.565,0.91,0.0368,0.1529,0.2035,0.0174,2025-06-11T08:59:15.834202
8998,-0.9355,-0.0337,0.3977,14.770,-18.550,12.250,0.91,0.0184,0.1273,0.1932,0.0087,2025-06-11T08:59:15.834202
8999,-0.9365,-0.0327,0.4050,14.735,-18.025,11.970,0.91,0.0368,0.1529,0.2035,0.0087,2025-06-11T08:59:15.834202
9000,-0.9331,-0.0254,0.4138,15.015,-17.745,11.515,0.91,0.0368,0.1273,0.2035,0.0087,2025-06-11T08:59:15.834202
9001,-0.9287,-0.0239,0.4094,14.735,-17.990,11.095,0.92,0.0184,0.1273,0.1932,0.0174,2025-06-11T08:59:15.834202
9002,-0.9194,-0.0185,0.4089,14.665,-18.305,10.395,0.91,0.0368,0.1529,0.2035,0.0087,2025-06-11T08:59:15.834202
9003,-0.9140,-0.0156,0.4143,14.280,-18.025,9.520,0.91,0.0368,0.1273,0.2035,0.0174,2025-06-11T08:59:15.834202
9004,-0.8994,-0.0098,0.4177,14.140,-17.640,8.820,0.92,0.0368,0.1529,0.2035,0.0087,2025-06-11T08:59:15.834202
9005,-0.9052,0.0005,0.4177,13.580,-17.395,8.225,0.91,0.0184,0.1529,0.1932,0.0174,2025-06-11T08:59:15.834965
9006,-0.9116,0.0068,0.4236,12.600,-17.675,7.245,0.91,0.0368,0.1529,0.2035,0.0174,2025-06-11T08:59:15.834965
9007,-0.9077,0.0117,0.4319,11.690,-18.620,6.790,0.91,0.0368,0.1273,0.2035,0.0174,2025-06-11T08:59:15.834965
9008,-0.9101,0.0185,0.4402,10.885,-19.775,6.650,0.92,0.0368,0.1529,0.2139,0.0174,2025-06-11T08:59:15.834965
9009,-0.9209,0.0195,0.4426,10.185,-20.860,6.440,0.92,0.0368,0.1529,0.2035,0.0174,2025-06-11T08:59:16.091225
9010,-0.9233,0.0205,0.4431,9.555,-22.470,6.335,0.91,0.0368,0.1529,0.2035,0.0174,2025-06-11T08:59:16.091225
9011,-0.9111,0.0176,0.4431,9.485,-23.695,6.825,0.92,0.0184,0.1273,0.1932,0.0174,2025-06-11T08:59:16.091225
9012,-0.9028,0.0161,0.4451,9.695,-24.045,7.210,0.91,0.0368,0.1529,0.1932,0.0087,2025-06-11T08:59:16.091225
9013,-0.8965,0.0239,0.4421,10.150,-23.590,7.665,0.91,0.0184,0.1273,0.1932,0.0087,2025-06-11T08:59:16.091225
9014,-0.8862,0.0278,0.4455,11.095,-21.735,7.595,0.91,0.0368,0.1529,0.1828,0.0174,2025-06-11T08:59:16.091225
9015,-0.8843,0.0346,0.4470,11.865,-20.125,7.315,0.91,0.0184,0.1273,0.1828,0.0174,2025-06-11T08:59:16.091225
9016,-0.8901,0.0351,0.4485,12.915,-19.180,7.245,0.92,0.0184,0.1529,0.1725,0.0087,2025-06-11T08:59:16.091225
9017,-0.8974,0.0356,0.4494,13.930,-19.145,7.105,0.92,0.0368,0.1273,0.1725,0.0087,2025-06-11T08:59:16.091225
9018,-0.9013,0.0322,0.4509,14.490,-19.320,6.615,0.91,0.0368,0.1273,0.1725,0.0174,2025-06-11T08:59:16.091225
9019,-0.8979,0.0293,0.4529,15.295,-19.285,6.370,0.92,0.0184,0.1529,0.1725,0.0174,2025-06-11T08:59:16.091225
9020,-0.8833,0.0229,0.4548,15.715,-18.620,6.195,0.91,0.0368,0.1786,0.1725,0.0087,2025-06-11T08:59:16.091225
9021,-0.8745,0.0283,0.4563,16.555,-17.080,6.020,0.92,0.0368,0.1529,0.1828,0.0087,2025-06-11T08:59:16.092288
9022,-0.8618,0.0342,0.4602,16.975,-15.260,5.565,0.92,0.0368,0.1529,0.1725,0.0174,2025-06-11T08:59:16.092288
9023,-0.8613,0.0361,0.4607,17.500,-13.160,5.425,0.92,0.0368,0.1529,0.1725,0.0174,2025-06-11T08:59:16.092288
9024,-0.8599,0.0410,0.4568,17.710,-12.460,5.845,0.92,0.0368,0.1529,0.1828,0.0174,2025-06-11T08:59:16.092288
9025,-0.8520,0.0454,0.4641,18.305,-12.250,6.440,0.92,0.0368,0.1529,0.1828,0.0174,2025-06-11T08:59:16.092288
9026,-0.8359,0.0532,0.4695,18.970,-11.865,7.175,0.92,0.0368,0.1786,0.1725,0.0174,2025-06-11T08:59:16.172311
9027,-0.8286,0.0610,0.4719,19.705,-10.290,7.455,0.92,0.0368,0.1529,0.1828,0.0174,2025-06-11T08:59:16.172311
9028,-0.8247,0.0742,0.4758,20.335,-9.030,7.385,0.91,0.0368,0.1786,0.1828,0.0174,2025-06-11T08:59:16.172311
9029,-0.8320,0.0820,0.4885,21.245,-8.330,7.035,0.92,0.0368,0.1786,0.1725,0.0174,2025-06-11T08:59:16.172311
9030,-0.8447,0.0834,0.4919,21.665,-8.925,6.790,0.91,0.0368,0.1786,0.1828,0.0174,2025-06-11T08:59:16.172311
9031,-0.8647,0.0805,0.5007,22.575,-11.270,6.475,0.92,0.0368,0.1529,0.1932,0.0174,2025-06-11T08:59:16.450443
9032,-0.8755,0.0693,0.5124,23.905,-13.335,6.265,0.92,0.0184,0.1529,0.1932,0.0000,2025-06-11T08:59:16.450443
9033,-0.8740,0.0590,0.5168,25.375,-14.735,5.810,0.92,0.0184,0.1786,0.1932,0.0174,2025-06-11T08:59:16.450443
9034,-0.8677,0.0590,0.5236,28.000,-14.350,4.690,0.92,0.0368,0.1529,0.1828,0.0174,2025-06-11T08:59:16.450443
9035,-0.8413,0.0630,0.5300,30.100,-10.955,2.310,0.92,0.0368,0.1786,0.1932,0.0174,2025-06-11T08:59:16.450443
9036,-0.8276,0.0693,0.5353,32.655,-5.740,-0.315,0.92,0.0184,0.1786,0.1932,0.0087,2025-06-11T08:59:16.450443
9037,-0.8218,0.0815,0.5324,34.545,-0.315,-3.535,0.92,0.0368,0.1273,0.1828,0.0087,2025-06-11T08:59:16.450443
9038,-0.8286,0.0888,0.5290,36.680,3.815,-5.145,0.92,0.0184,0.1529,0.1932,0.0174,2025-06-11T08:59:16.450443
9039,-0.8467,0.1030,0.5339,38.080,5.005,-5.775,0.92,0.0368,0.1786,0.1932,0.0087,2025-06-11T08:59:16.450443
9040,-0.8467,0.1142,0.5378,39.165,4.270,-5.635,0.92,0.0368,0.1786,0.1932,0.0174,2025-06-11T08:59:16.450443
9041,-0.8638,0.1254,0.5373,40.145,2.730,-5.145,0.92,0.0184,0.1786,0.1725,0.0174,2025-06-11T08:59:16.450443
9042,-0.8477,0.1269,0.5427,40.880,0.805,-4.445,0.92,0.0368,0.1786,0.1725,0.0174,2025-06-11T08:59:16.450443
9043,-0.8496,0.1308,0.5397,41.685,-1.085,-3.885,0.92,0.0368,0.2043,0.1828,0.0174,2025-06-11T08:59:16.450443
9044,-0.8486,0.1425,0.5270,41.615,-3.115,-3.395,0.92,0.0368,0.1786,0.1622,0.0087,2025-06-11T08:59:16.450443
9045,-0.8467,0.1503,0.5290,42.070,-4.970,-3.080,0.92,0.0368,0.2043,0.1314,0.0174,2025-06-11T08:59:16.450443
9046,-0.8433,0.1552,0.5300,41.755,-6.055,-2.555,0.92,0.0552,0.2043,0.1416,0.0087,2025-06-11T08:59:16.450443
9047,-0.8491,0.1586,0.5246,42.035,-7.035,-2.205,0.92,0.0368,0.2043,0.1212,0.0174,2025-06-11T08:59:16.450443
9048,-0.8584,0.1659,0.5236,41.720,-7.210,-2.135,0.92,0.0184,0.2043,0.1109,0.0174,2025-06-11T08:59:16.647764
9049,-0.8545,0.1649,0.5212,41.720,-7.105,-2.310,0.92,0.0184,0.2301,0.1008,0.0174,2025-06-11T08:59:16.648780
9050,-0.8506,0.1698,0.5202,41.790,-7.000,-2.345,0.92,0.0184,0.2043,0.1109,0.0174,2025-06-11T08:59:16.648780
9051,-0.8550,0.1742,0.5148,41.160,-6.860,-2.205,0.92,0.0368,0.2043,0.1109,0.0174,2025-06-11T08:59:16.648780
9052,-0.8545,0.1879,0.5173,40.495,-7.350,-1.855,0.92,0.0368,0.2043,0.1109,0.0087,2025-06-11T08:59:16.648780
9053,-0.8745,0.2015,0.5231,39.270,-9.450,-1.190,0.92,0.0368,0.2043,0.1008,0.0087,2025-06-11T08:59:16.648780
9054,-0.8867,0.2069,0.5373,38.115,-12.775,-0.455,0.92,0.0368,0.2301,0.0804,0.0174,2025-06-11T08:59:16.648780
9055,-0.9262,0.1937,0.5431,37.450,-16.730,0.210,0.92,0.0368,0.2043,0.0804,0.0174,2025-06-11T08:59:16.648780
9056,-0.9170,0.1918,0.5305,36.540,-22.225,1.540,0.92,0.0184,0.1786,0.0906,0.0174,2025-06-11T08:59:16.648780
9057,-0.9282,0.1840,0.5446,37.205,-26.495,3.150,0.92,0.0368,0.2043,0.0804,0.0087,2025-06-11T08:59:16.648780
9058,-0.9067,0.1815,0.5446,36.855,-29.645,5.110,0.92,0.0184,0.2559,0.0703,0.0174,2025-06-11T08:59:16.649771
9059,-0.8955,0.1898,0.5485,37.555,-29.820,6.685,0.92,0.0184,0.2301,0.0804,0.0087,2025-06-11T08:59:16.649771
9060,-0.8721,0.1952,0.5534,38.115,-27.440,7.945,0.92,0.0368,0.2301,0.0703,0.0087,2025-06-11T08:59:16.649771
9061,-0.8540,0.2020,0.5636,39.375,-23.415,8.225,0.92,0.0368,0.2043,0.0703,0.0087,2025-06-11T08:59:16.649771
9062,-0.8311,0.2142,0.5724,40.250,-15.610,7.175,0.92,0.0368,0.2043,0.0804,0.0087,2025-06-11T08:59:16.649771
9063,-0.8257,0.2098,0.5607,41.685,-10.605,5.495,0.92,0.0184,0.2043,0.0703,0.0087,2025-06-11T08:59:16.649771
9064,-0.8120,0.2152,0.5519,43.820,-8.715,3.955,0.92,0.0368,0.2043,0.0703,0.0087,2025-06-11T08:59:16.649771
9065,-0.8042,0.2245,0.5573,46.025,-8.435,2.800,0.92,0.0368,0.2301,0.0703,0.0174,2025-06-11T08:59:16.649771
9066,-0.7969,0.2333,0.5539,48.055,-9.730,1.960,0.92,0.0368,0.2301,0.0804,0.0174,2025-06-11T08:59:16.952663
9067,-0.8057,0.2342,0.5436,50.540,-13.545,1.680,0.92,0.0368,0.2559,0.0804,0.0087,2025-06-11T08:59:16.952663
9068,-0.8130,0.2460,0.5417,52.290,-16.065,0.105,0.92,0.0552,0.2818,0.0703,0.0087,2025-06-11T08:59:16.952663
9069,-0.8023,0.2674,0.5622,52.115,-15.540,-2.380,0.92,0.0368,0.2818,0.0703,0.0087,2025-06-11T08:59:16.952663
9070,-0.8276,0.2669,0.5910,51.660,-15.540,-4.270,0.92,0.0184,0.2818,0.0804,0.0174,2025-06-11T08:59:16.952663
9071,-0.8452,0.2562,0.6007,51.065,-21.420,-2.870,0.92,0.0368,0.2559,0.0703,0.0087,2025-06-11T08:59:16.952663
9072,-0.8686,0.2474,0.5988,51.520,-29.645,0.945,0.92,0.0184,0.2559,0.0804,0.0087,2025-06-11T08:59:16.952663
9073,-0.8467,0.2455,0.5827,51.800,-39.690,4.515,0.92,0.0368,0.2043,0.0906,0.0087,2025-06-11T08:59:16.952663
9074,-0.8179,0.2503,0.5783,53.375,-44.100,6.965,0.92,0.0368,0.2301,0.0906,0.0174,2025-06-11T08:59:16.952663
9075,-0.7867,0.2416,0.5661,54.705,-44.590,7.630,0.92,0.0368,0.2301,0.1109,0.0174,2025-06-11T08:59:16.952663
9076,-0.7891,0.2313,0.5485,58.135,-42.945,6.895,0.92,0.0368,0.2301,0.1109,0.0087,2025-06-11T08:59:16.952663
9077,-0.8106,0.2230,0.5373,61.180,-41.230,4.725,0.92,0.0368,0.2301,0.1109,0.0087,2025-06-11T08:59:16.952663
9078,-0.8442,0.2196,0.5339,65.275,-41.020,2.170,0.92,0.0368,0.2043,0.1008,0.0087,2025-06-11T08:59:16.952663
9079,-0.8516,0.2020,0.5275,68.460,-41.685,-0.840,0.92,0.0368,0.2559,0.0906,0.0174,2025-06-11T08:59:16.952663
9080,-0.8257,0.1913,0.5202,73.220,-41.685,-2.520,0.92,0.0368,0.2301,0.0804,0.0174,2025-06-11T08:59:16.952663
9081,-0.7930,0.1937,0.5085,76.300,-39.305,-4.375,0.92,0.0368,0.2559,0.0804,0.0174,2025-06-11T08:59:16.952663
9082,-0.7730,0.2079,0.5090,79.345,-34.160,-6.580,0.92,0.0552,0.2301,0.0906,0.0174,2025-06-11T08:59:16.952663
9083,-0.7706,0.2167,0.5065,81.130,-30.415,-8.750,0.92,0.0552,0.2301,0.0804,0.0174,2025-06-11T08:59:17.082474
9084,-0.7613,0.2240,0.5026,82.390,-28.035,-10.710,0.92,0.0552,0.2559,0.0906,0.0174,2025-06-11T08:59:17.082474
9085,-0.7588,0.2489,0.4948,82.880,-27.300,-12.565,0.92,0.0368,0.2559,0.0804,0.0087,2025-06-11T08:59:17.082474
9086,-0.7603,0.2782,0.5036,82.425,-26.215,-15.120,0.92,0.0368,0.2559,0.0906,0.0174,2025-06-11T08:59:17.082474
9087,-0.7710,0.3201,0.5100,81.025,-24.955,-18.515,0.92,0.0368,0.2559,0.1008,0.0087,2025-06-11T08:59:17.083362
9088,-0.7823,0.3523,0.5261,78.330,-24.185,-22.365,0.92,0.0368,0.2818,0.1008,0.0174,2025-06-11T08:59:17.083362
9089,-0.7891,0.3636,0.5309,74.900,-24.675,-24.185,0.92,0.0368,0.2559,0.1008,0.0087,2025-06-11T08:59:17.083468
9090,-0.7998,0.3748,0.5373,71.715,-25.970,-24.885,0.92,0.0368,0.2301,0.0906,0.0087,2025-06-11T08:59:17.083468
9091,-0.7842,0.3787,0.5446,67.235,-27.230,-24.290,0.92,0.0368,0.2043,0.0906,0.0087,2025-06-11T08:59:17.083468
9092,-0.7603,0.3845,0.5485,63.385,-27.825,-22.085,0.92,0.0368,0.2301,0.0804,0.0087,2025-06-11T08:59:17.083468
9093,-0.7491,0.3933,0.5573,58.240,-26.635,-19.810,0.92,0.0184,0.2301,0.0804,0.0174,2025-06-11T08:59:17.083468
9094,-0.7359,0.4011,0.5500,53.200,-24.955,-17.430,0.92,0.0368,0.2301,0.0602,0.0087,2025-06-11T08:59:17.083468
9095,-0.7144,0.4065,0.5368,47.320,-23.415,-15.820,0.92,0.0368,0.2301,0.0703,0.0087,2025-06-11T08:59:17.083468
9096,-0.7047,0.4148,0.5348,42.525,-21.595,-14.245,0.92,0.0368,0.2559,0.0906,0.0174,2025-06-11T08:59:17.083468
9097,-0.6930,0.4226,0.5148,36.645,-19.565,-13.755,0.92,0.0368,0.2301,0.0804,0.0174,2025-06-11T08:59:17.291839
9098,-0.6812,0.4387,0.4943,32.410,-18.130,-14.420,0.92,0.0184,0.2301,0.0906,0.0087,2025-06-11T08:59:17.291839
9099,-0.6803,0.4538,0.4773,27.650,-15.295,-15.925,0.92,0.0368,0.2301,0.0906,0.0174,2025-06-11T08:59:17.291839
9100,-0.6886,0.4738,0.4714,23.275,-12.705,-18.935,0.92,0.0368,0.2301,0.0906,0.0174,2025-06-11T08:59:17.291839
9101,-0.7164,0.4826,0.4587,18.620,-10.395,-22.470,0.92,0.0368,0.2301,0.0906,0.0174,2025-06-11T08:59:17.291839
9102,-0.7320,0.4929,0.4504,13.720,-8.645,-26.495,0.92,0.0184,0.2301,0.1212,0.0174,2025-06-11T08:59:17.291839
