SeqNum,AccX,AccY,AccZ,GyroX,GyroY,GyroZ,Flex,Force1,Force2,Force3,Force4,TimestampReception
1,0.1322,0.4041,0.9287,0.245,-4.865,-0.245,1,1,1,333,321,2025-06-06T09:40:56.287447
2,0.1366,0.4070,0.9267,0.000,-5.005,-0.175,2,1,2,324,352,2025-06-06T09:40:56.287447
3,0.1352,0.4026,0.9248,0.245,-5.110,-0.070,2,2,1,366,384,2025-06-06T09:40:56.287447
4,0.1376,0.4036,0.9252,0.245,-4.900,-0.140,1,2,1,374,400,2025-06-06T09:40:56.287447
5,0.1352,0.4041,0.9252,0.280,-5.040,-0.245,2,1,1,344,390,2025-06-06T09:40:56.287447
6,0.1362,0.4031,0.9252,0.350,-4.970,-0.175,1,1,1,368,397,2025-06-06T09:40:56.287447
7,0.1342,0.4031,0.9262,0.070,-4.935,-0.105,2,1,1,366,390,2025-06-06T09:40:56.287447
8,0.1362,0.4050,0.9252,0.455,-5.040,-0.245,1,1,1,367,387,2025-06-06T09:40:56.287447
9,0.1357,0.4050,0.9277,0.560,-4.935,-0.175,1,1,1,383,390,2025-06-06T09:40:56.287447
10,0.1352,0.4041,0.9282,0.140,-4.900,-0.175,1,1,1,378,356,2025-06-06T09:40:56.287447
11,0.1342,0.4041,0.9257,0.350,-4.865,-0.070,1,1,1,385,381,2025-06-06T09:40:56.287447
12,0.1357,0.4041,0.9267,0.490,-5.040,-0.140,1,2,1,377,346,2025-06-06T09:40:56.287447
13,0.1342,0.4021,0.9243,0.245,-4.935,-0.140,1,1,1,381,372,2025-06-06T09:40:56.287447
14,0.1347,0.4036,0.9277,-0.105,-4.935,-0.175,1,1,1,385,385,2025-06-06T09:40:56.287447
15,0.1362,0.4050,0.9272,0.525,-5.110,-0.105,1,2,2,390,365,2025-06-06T09:40:56.381161
16,0.1337,0.4041,0.9238,0.175,-5.145,-0.210,2,2,1,392,372,2025-06-06T09:40:56.381161
17,0.1352,0.4055,0.9262,-0.105,-4.830,-0.140,2,2,1,400,378,2025-06-06T09:40:56.381161
18,0.1366,0.4055,0.9282,0.315,-4.970,-0.175,1,1,1,405,390,2025-06-06T09:40:56.381161
19,0.1347,0.4011,0.9262,0.560,-5.145,-0.105,1,2,1,393,379,2025-06-06T09:40:56.381161
20,0.1362,0.4036,0.9262,0.070,-4.830,-0.105,2,2,1,383,387,2025-06-06T09:40:56.381161
21,0.1357,0.4046,0.9267,0.210,-4.970,-0.140,2,1,2,385,392,2025-06-06T09:40:56.381161
22,0.1352,0.4026,0.9257,0.630,-5.040,-0.245,1,1,1,387,393,2025-06-06T09:40:56.381161
23,0.1332,0.4036,0.9262,0.245,-4.970,-0.175,2,1,2,384,399,2025-06-06T09:40:56.381161
24,0.1347,0.4036,0.9272,0.210,-4.935,-0.210,2,1,1,391,404,2025-06-06T09:40:56.431627
25,0.1352,0.4050,0.9262,0.420,-5.040,-0.210,2,2,2,389,390,2025-06-06T09:40:56.431627
26,0.1347,0.4011,0.9272,0.280,-4.970,-0.140,1,1,1,395,393,2025-06-06T09:40:56.431627
27,0.1342,0.4046,0.9267,0.385,-4.970,-0.140,1,2,1,349,386,2025-06-06T09:40:56.431627
28,0.1381,0.4041,0.9257,0.245,-5.110,-0.140,1,1,2,367,388,2025-06-06T09:40:56.483546
29,0.1357,0.4046,0.9262,0.280,-4.935,-0.175,1,1,2,384,397,2025-06-06T09:40:56.483546
30,0.1371,0.4046,0.9272,0.455,-5.005,-0.105,1,2,1,386,391,2025-06-06T09:40:56.483546
31,0.1342,0.4036,0.9252,0.350,-5.075,-0.175,2,2,1,395,390,2025-06-06T09:40:56.483546
32,0.1366,0.4050,0.9282,0.245,-4.900,-0.245,1,1,1,380,396,2025-06-06T09:40:56.550750
33,0.1347,0.4041,0.9272,0.420,-4.970,-0.140,1,2,2,389,403,2025-06-06T09:40:56.550750
34,0.1362,0.4060,0.9252,0.455,-5.145,-0.140,2,2,1,382,402,2025-06-06T09:40:56.550750
35,0.1352,0.4046,0.9248,0.070,-4.970,-0.105,2,1,2,389,402,2025-06-06T09:40:56.550750
36,0.1357,0.4046,0.9262,0.140,-4.900,-0.210,1,1,1,398,400,2025-06-06T09:40:56.550750
37,0.1352,0.4031,0.9248,0.595,-4.970,-0.210,1,1,2,404,403,2025-06-06T09:40:56.687568
38,0.1352,0.4041,0.9262,0.560,-5.075,-0.175,2,2,1,404,398,2025-06-06T09:40:56.687568
39,0.1357,0.4050,0.9272,0.070,-4.865,-0.210,1,2,1,366,384,2025-06-06T09:40:56.687568
40,0.1347,0.4065,0.9267,0.280,-4.935,-0.140,1,1,1,375,394,2025-06-06T09:40:56.687568
41,0.1362,0.4060,0.9252,0.560,-5.145,-0.175,1,1,2,347,380,2025-06-06T09:40:56.687568
42,0.1342,0.4026,0.9262,0.000,-5.005,-0.105,2,2,2,363,385,2025-06-06T09:40:56.687568
43,0.1357,0.4021,0.9272,0.140,-4.865,-0.140,1,2,1,378,365,2025-06-06T09:40:56.687568
44,0.1347,0.4021,0.9267,0.350,-5.110,-0.140,1,1,0,345,364,2025-06-06T09:40:56.687568
45,0.1357,0.4036,0.9223,0.350,-5.005,-0.245,2,1,1,361,387,2025-06-06T09:40:56.687568
46,0.1366,0.4055,0.9277,0.280,-4.865,-0.210,1,1,1,371,390,2025-06-06T09:40:56.687568
47,0.1332,0.4036,0.9272,0.245,-5.005,-0.245,1,1,1,381,389,2025-06-06T09:40:56.687568
48,0.1342,0.4055,0.9252,0.420,-4.830,-0.245,1,1,1,379,389,2025-06-06T09:40:56.687568
49,0.1357,0.4055,0.9277,0.385,-4.900,-0.315,1,2,1,380,392,2025-06-06T09:40:56.739984
50,0.1332,0.4031,0.9257,0.385,-5.040,-0.175,1,2,2,380,351,2025-06-06T09:40:56.739984
51,0.1337,0.4046,0.9252,0.140,-4.935,-0.175,1,2,1,365,376,2025-06-06T09:40:56.739984
52,0.1357,0.4021,0.9287,0.420,-4.935,-0.210,2,1,2,378,392,2025-06-06T09:40:56.739984
53,0.1342,0.4050,0.9262,0.455,-5.110,-0.105,2,2,2,395,383,2025-06-06T09:40:56.739984
54,0.1342,0.4046,0.9252,-0.140,-5.075,-0.070,2,2,2,401,395,2025-06-06T09:40:56.900961
55,0.1366,0.4055,0.9282,0.175,-4.900,-0.140,1,2,1,402,389,2025-06-06T09:40:56.900961
56,0.1371,0.4046,0.9252,0.665,-5.040,-0.140,1,1,2,400,385,2025-06-06T09:40:56.900961
57,0.1362,0.4036,0.9248,0.140,-4.935,-0.175,1,2,2,404,356,2025-06-06T09:40:56.900961
58,0.1352,0.4050,0.9262,0.000,-4.865,-0.140,2,1,1,384,384,2025-06-06T09:40:56.900961
59,0.1352,0.4046,0.9257,0.665,-5.110,-0.245,1,0,1,379,390,2025-06-06T09:40:56.900961
60,0.1381,0.4036,0.9252,0.455,-5.040,-0.210,1,2,1,392,401,2025-06-06T09:40:56.900961
61,0.1352,0.4026,0.9257,-0.070,-4.900,-0.210,1,2,1,379,389,2025-06-06T09:40:56.900961
62,0.1352,0.4046,0.9272,0.560,-5.040,-0.175,1,2,1,369,385,2025-06-06T09:40:56.900961
63,0.1337,0.4050,0.9277,0.490,-5.110,-0.175,1,1,1,390,385,2025-06-06T09:40:56.900961
64,0.1352,0.4016,0.9262,-0.175,-4.865,-0.210,2,2,1,390,382,2025-06-06T09:40:56.900961
65,0.1342,0.4036,0.9267,0.280,-5.040,-0.175,1,1,1,401,379,2025-06-06T09:40:56.900961
66,0.1347,0.4050,0.9262,0.525,-5.110,-0.210,2,1,2,394,380,2025-06-06T09:40:56.900961
67,0.1357,0.4021,0.9243,0.315,-4.900,-0.175,2,1,2,401,374,2025-06-06T09:40:56.999688
68,0.1357,0.4050,0.9262,0.105,-4.865,-0.140,2,1,1,404,381,2025-06-06T09:40:56.999688
69,0.1362,0.4046,0.9252,0.420,-5.040,-0.175,2,2,2,406,384,2025-06-06T09:40:56.999688
70,0.1347,0.4026,0.9248,0.210,-4.970,-0.210,2,2,1,396,360,2025-06-06T09:40:56.999688
71,0.1362,0.4041,0.9257,0.175,-4.935,-0.140,1,2,1,347,369,2025-06-06T09:40:56.999688
72,0.1352,0.4065,0.9252,0.455,-5.005,-0.140,2,1,0,329,364,2025-06-06T09:40:56.999688
73,0.1337,0.4026,0.9262,0.175,-5.040,-0.175,1,2,2,367,386,2025-06-06T09:40:56.999688
74,0.1352,0.4041,0.9257,0.245,-5.075,-0.140,1,1,1,378,392,2025-06-06T09:40:56.999688
75,0.1347,0.4041,0.9267,0.455,-5.040,-0.210,1,1,1,376,363,2025-06-06T09:40:56.999688
76,0.1357,0.4041,0.9252,0.280,-4.935,-0.210,2,2,1,386,387,2025-06-06T09:40:57.050821
77,0.1366,0.4041,0.9262,0.105,-4.935,-0.245,1,1,1,386,393,2025-06-06T09:40:57.050821
78,0.1347,0.4031,0.9248,0.455,-5.005,-0.175,2,2,2,385,392,2025-06-06T09:40:57.050821
79,0.1366,0.4046,0.9252,0.420,-4.865,-0.140,2,1,1,384,397,2025-06-06T09:40:57.050821
80,0.1342,0.4021,0.9238,-0.070,-4.900,-0.210,2,1,1,382,407,2025-06-06T09:40:57.099039
81,0.1352,0.4036,0.9257,0.525,-5.040,-0.245,1,2,1,388,399,2025-06-06T09:40:57.099039
82,0.1342,0.4011,0.9243,0.700,-5.005,-0.245,2,1,2,395,394,2025-06-06T09:40:57.099039
83,0.1366,0.4065,0.9267,0.175,-4.690,-0.350,1,1,2,400,398,2025-06-06T09:40:57.099039
84,0.1352,0.4046,0.9282,0.490,-4.900,-0.245,2,2,1,390,362,2025-06-06T09:40:57.148774
85,0.1332,0.4036,0.9252,0.700,-5.075,-0.280,2,2,1,392,352,2025-06-06T09:40:57.148774
86,0.1366,0.4002,0.9248,0.315,-4.760,-0.175,2,1,1,384,375,2025-06-06T09:40:57.148774
87,0.1342,0.4036,0.9213,0.000,-4.865,-0.420,2,1,1,391,389,2025-06-06T09:40:57.148774
88,0.1376,0.4187,0.9370,0.875,-5.075,0.105,1,2,2,389,353,2025-06-06T09:40:57.340215
89,0.1293,0.3860,0.9194,0.000,-5.355,-0.385,2,1,1,385,361,2025-06-06T09:40:57.340215
90,0.1381,0.4260,0.9389,0.595,-4.550,0.000,1,1,1,388,382,2025-06-06T09:40:57.340215
91,0.1322,0.3958,0.9384,0.490,-5.390,-0.035,2,2,2,401,388,2025-06-06T09:40:57.340215
92,0.1327,0.3997,0.9067,-1.190,-5.390,-0.140,2,2,2,399,387,2025-06-06T09:40:57.340215
93,0.1381,0.4046,0.9335,0.385,-4.725,0.140,1,2,1,394,392,2025-06-06T09:40:57.340215
94,0.1274,0.4089,0.9233,1.260,-5.530,0.140,2,2,1,394,400,2025-06-06T09:40:57.340215
95,0.1444,0.3972,0.9267,-1.400,-5.355,-0.070,1,2,1,394,409,2025-06-06T09:40:57.340215
96,0.1342,0.4031,0.9248,-0.455,-5.145,-0.140,2,1,2,384,402,2025-06-06T09:40:57.340215
97,0.1396,0.3992,0.9223,1.680,-5.005,-0.140,1,1,1,384,400,2025-06-06T09:40:57.340215
98,0.1357,0.4055,0.9228,0.315,-4.620,-0.315,1,1,1,396,406,2025-06-06T09:40:57.340215
99,0.1337,0.4011,0.9277,-0.175,-5.250,-0.385,1,2,2,396,389,2025-06-06T09:40:57.340215
100,0.1313,0.4031,0.9243,0.315,-4.620,-0.280,2,2,1,388,388,2025-06-06T09:40:57.340215
101,0.1303,0.4031,0.9228,1.085,-4.865,-0.175,2,2,1,389,380,2025-06-06T09:40:57.340215
102,0.1313,0.4114,0.9340,-0.175,-5.285,-0.070,1,2,1,397,391,2025-06-06T09:40:57.389855
103,0.1269,0.3787,0.9038,-0.805,-5.425,-0.280,1,2,1,385,353,2025-06-06T09:40:57.389855
104,0.1410,0.4211,0.9267,1.715,-4.655,0.070,1,2,1,374,385,2025-06-06T09:40:57.389855
105,0.1322,0.3953,0.9414,0.665,-4.515,0.175,1,1,1,388,347,2025-06-06T09:40:57.389855
106,0.1484,0.4046,0.9116,-1.505,-6.090,-0.210,2,2,1,386,371,2025-06-06T09:40:57.389855
107,0.1352,0.3958,0.9238,2.485,-4.445,-0.175,1,2,1,388,389,2025-06-06T09:40:57.389855
108,0.1322,0.4187,0.9257,1.855,-4.760,-0.350,1,1,2,397,398,2025-06-06T09:40:57.389855
109,0.1386,0.3987,0.9345,-0.980,-4.375,-0.385,2,1,1,394,362,2025-06-06T09:40:57.499069
110,0.1288,0.4002,0.9184,-1.575,-5.705,-0.595,1,1,1,349,369,2025-06-06T09:40:57.499069
111,0.1366,0.4055,0.9340,3.185,-4.480,-0.070,1,2,1,370,373,2025-06-06T09:40:57.499069
112,0.1303,0.4163,0.9331,2.310,-4.550,0.035,2,2,1,376,390,2025-06-06T09:40:57.499069
113,0.1303,0.4050,0.9335,-2.835,-5.810,0.070,2,2,1,379,376,2025-06-06T09:40:57.499069
114,0.1376,0.3967,0.9126,-1.785,-5.600,-0.175,1,1,1,376,382,2025-06-06T09:40:57.499069
115,0.1357,0.3992,0.9243,2.485,-4.200,0.245,1,1,1,358,398,2025-06-06T09:40:57.499069
116,0.1362,0.4041,0.9228,0.910,-5.285,-0.105,1,1,1,385,397,2025-06-06T09:40:57.499069
117,0.1401,0.4070,0.9262,-1.785,-5.215,-0.245,1,2,1,392,384,2025-06-06T09:40:57.499069
118,0.1405,0.4002,0.9257,0.245,-5.145,-0.315,2,1,2,394,397,2025-06-06T09:40:57.546722
119,0.1357,0.3992,0.9223,2.940,-4.410,-0.315,2,2,1,391,383,2025-06-06T09:40:57.546722
120,0.1347,0.4109,0.9335,0.385,-4.795,-0.455,1,1,2,391,383,2025-06-06T09:40:57.546722
121,0.1332,0.4119,0.9389,-1.155,-5.145,-0.210,1,2,1,380,352,2025-06-06T09:40:57.546722
122,0.1318,0.3875,0.9150,0.000,-5.215,-0.350,2,2,1,378,381,2025-06-06T09:40:57.594607
123,0.1308,0.3992,0.9126,1.190,-4.830,-0.175,2,1,1,375,381,2025-06-06T09:40:57.594607
124,0.1327,0.4109,0.9321,0.770,-4.480,-0.070,2,1,1,370,388,2025-06-06T09:40:57.594607
125,0.1322,0.4075,0.9252,-0.560,-5.635,-0.070,2,2,1,374,388,2025-06-06T09:40:57.594607
126,0.1420,0.4041,0.9277,-0.840,-5.040,-0.070,2,1,1,379,386,2025-06-06T09:40:57.647044
127,0.1366,0.4036,0.9316,0.945,-4.690,-0.105,2,2,1,385,386,2025-06-06T09:40:57.647044
128,0.1391,0.4041,0.9228,0.735,-5.040,-0.140,2,2,1,380,383,2025-06-06T09:40:57.647044
129,0.1357,0.4016,0.9204,-0.035,-5.180,-0.245,2,2,1,379,380,2025-06-06T09:40:57.647044
130,0.1386,0.4075,0.9292,0.070,-4.900,-0.280,1,0,1,382,397,2025-06-06T09:40:57.830614
131,0.1362,0.4050,0.9316,1.225,-4.550,-0.175,2,2,2,398,392,2025-06-06T09:40:57.830614
132,0.1357,0.3992,0.9257,0.140,-5.075,-0.350,2,2,1,356,362,2025-06-06T09:40:57.830614
133,0.1352,0.4065,0.9252,0.385,-5.075,-0.280,1,2,2,371,380,2025-06-06T09:40:57.830614
134,0.1303,0.4060,0.9262,1.015,-4.690,-0.140,2,2,1,377,396,2025-06-06T09:40:57.830614
135,0.1332,0.4050,0.9272,0.315,-5.250,-0.175,1,1,2,375,390,2025-06-06T09:40:57.830614
136,0.1342,0.4021,0.9282,-0.700,-5.215,-0.105,1,1,1,384,388,2025-06-06T09:40:57.830614
137,0.1352,0.4021,0.9257,0.350,-4.865,-0.140,2,1,1,376,359,2025-06-06T09:40:57.830614
138,0.1357,0.4041,0.9248,0.945,-4.865,-0.035,2,2,1,380,383,2025-06-06T09:40:57.830614
139,0.1347,0.4060,0.9257,-0.210,-5.075,-0.105,1,1,1,351,384,2025-06-06T09:40:57.830614
140,0.1357,0.4041,0.9262,-0.210,-5.145,-0.175,1,1,1,363,397,2025-06-06T09:40:57.830614
141,0.1391,0.4046,0.9248,0.770,-5.005,-0.210,1,1,1,375,400,2025-06-06T09:40:57.830614
142,0.1362,0.4041,0.9272,0.700,-4.865,-0.245,1,1,1,379,384,2025-06-06T09:40:57.830614
143,0.1342,0.4041,0.9257,-0.070,-4.970,-0.280,1,2,1,340,383,2025-06-06T09:40:57.830614
144,0.1337,0.4075,0.9243,0.315,-5.250,-0.210,2,2,1,371,383,2025-06-06T09:40:57.830614
145,0.1308,0.4006,0.9257,0.665,-4.620,-0.210,1,2,1,340,345,2025-06-06T09:40:57.830614
146,0.1332,0.4055,0.9282,-0.175,-4.760,-0.175,1,2,1,365,360,2025-06-06T09:40:57.878083
147,0.1352,0.4065,0.9272,0.385,-5.285,-0.280,2,2,2,382,382,2025-06-06T09:40:57.878083
148,0.1342,0.4046,0.9262,0.105,-4.760,-0.105,1,2,1,375,391,2025-06-06T09:40:57.878083
149,0.1357,0.4026,0.9257,0.105,-5.110,-0.070,1,1,1,385,378,2025-06-06T09:40:57.878083
150,0.1347,0.4065,0.9252,0.350,-5.250,-0.070,2,2,1,380,351,2025-06-06T09:40:57.927861
151,0.1376,0.4006,0.9257,0.350,-5.215,-0.175,1,1,1,371,359,2025-06-06T09:40:57.927861
152,0.1366,0.4070,0.9257,0.210,-4.795,-0.105,1,1,1,366,376,2025-06-06T09:40:57.927861
153,0.1357,0.4021,0.9277,0.070,-5.110,-0.245,2,1,1,368,393,2025-06-06T09:40:57.927861
154,0.1347,0.4046,0.9267,0.560,-5.005,-0.350,1,2,2,396,400,2025-06-06T09:40:57.978754
155,0.1347,0.4031,0.9292,0.315,-4.725,-0.280,2,2,2,401,395,2025-06-06T09:40:57.978754
156,0.1337,0.4046,0.9277,0.420,-4.900,-0.280,2,1,1,399,392,2025-06-06T09:40:57.978754
157,0.1332,0.4036,0.9257,0.455,-5.040,-0.210,1,1,2,384,364,2025-06-06T09:40:57.978754
158,0.1318,0.4065,0.9282,0.175,-5.075,-0.140,2,2,1,372,388,2025-06-06T09:40:58.029463
159,0.1342,0.4055,0.9282,-0.105,-5.005,0.000,2,2,1,380,401,2025-06-06T09:40:58.029463
160,0.1347,0.4050,0.9272,-0.105,-5.285,-0.035,1,1,2,393,396,2025-06-06T09:40:58.029463
161,0.1371,0.3997,0.9228,-0.175,-5.215,0.035,2,2,2,396,393,2025-06-06T09:40:58.029463
162,0.1366,0.4011,0.9209,0.210,-4.970,-0.035,2,1,2,403,404,2025-06-06T09:40:58.029463
163,0.1391,0.4046,0.9287,0.490,-4.970,-0.105,2,2,1,401,387,2025-06-06T09:40:58.079971
164,0.1366,0.4011,0.9252,-0.280,-5.075,-0.175,2,3,2,403,392,2025-06-06T09:40:58.079971
165,0.1371,0.3967,0.9194,0.035,-4.970,-0.455,2,2,2,402,388,2025-06-06T09:40:58.079971
166,0.1332,0.4148,0.9282,1.400,-4.760,-0.280,1,1,2,387,400,2025-06-06T09:40:58.079971
167,0.1303,0.3963,0.9267,0.175,-4.830,-0.210,1,2,2,398,396,2025-06-06T09:40:58.325519
168,0.1371,0.3987,0.9165,-0.455,-5.180,-0.350,2,2,1,398,390,2025-06-06T09:40:58.325519
169,0.1308,0.4065,0.9331,1.225,-4.655,-0.105,1,2,2,405,406,2025-06-06T09:40:58.325519
170,0.1332,0.4021,0.9243,0.665,-5.250,-0.140,2,2,1,402,393,2025-06-06T09:40:58.325519
171,0.1352,0.4046,0.9262,-0.910,-4.970,-0.175,2,2,1,400,366,2025-06-06T09:40:58.325519
172,0.1337,0.4036,0.9296,-0.070,-5.145,-0.140,1,1,1,378,380,2025-06-06T09:40:58.325519
173,0.1362,0.4002,0.9199,1.400,-5.005,-0.035,1,2,1,380,396,2025-06-06T09:40:58.325519
174,0.1357,0.4050,0.9287,0.035,-4.970,-0.175,1,1,1,381,391,2025-06-06T09:40:58.325519
175,0.1332,0.4060,0.9316,-0.490,-5.145,-0.210,2,1,1,376,349,2025-06-06T09:40:58.325519
176,0.1376,0.4075,0.9228,0.735,-4.970,-0.245,0,1,1,384,380,2025-06-06T09:40:58.325519
177,0.1327,0.3977,0.9238,0.945,-4.865,-0.280,1,1,1,348,386,2025-06-06T09:40:58.325519
178,0.1352,0.4080,0.9292,0.070,-4.830,-0.210,2,1,1,375,393,2025-06-06T09:40:58.325519
179,0.1342,0.4036,0.9301,-0.105,-4.935,-0.280,1,1,2,384,397,2025-06-06T09:40:58.325519
180,0.1337,0.3992,0.9189,0.105,-5.110,-0.140,0,1,1,394,391,2025-06-06T09:40:58.325519
181,0.1357,0.4031,0.9248,0.665,-5.075,-0.140,1,1,1,386,396,2025-06-06T09:40:58.325519
182,0.1327,0.4055,0.9306,0.770,-4.830,0.000,1,1,1,377,390,2025-06-06T09:40:58.325519
183,0.1342,0.4016,0.9223,0.175,-5.495,-0.140,2,1,1,369,355,2025-06-06T09:40:58.325519
184,0.1391,0.4055,0.9267,0.315,-5.040,-0.105,1,1,1,382,384,2025-06-06T09:40:58.325519
185,0.1347,0.4041,0.9272,0.245,-4.865,-0.035,1,1,1,387,392,2025-06-06T09:40:58.325519
186,0.1376,0.4031,0.9243,0.070,-5.110,-0.245,2,1,1,354,394,2025-06-06T09:40:58.325519
187,0.1366,0.4060,0.9267,0.490,-5.110,-0.210,2,2,1,374,393,2025-06-06T09:40:58.445783
188,0.1337,0.4046,0.9233,1.155,-4.865,-0.245,1,2,1,386,409,2025-06-06T09:40:58.445783
189,0.1357,0.4016,0.9252,0.105,-5.005,-0.245,1,2,1,389,363,2025-06-06T09:40:58.445783
190,0.1347,0.4065,0.9282,-0.140,-4.795,-0.140,2,1,1,392,377,2025-06-06T09:40:58.449065
191,0.1342,0.4041,0.9248,0.700,-4.935,-0.315,1,2,1,392,348,2025-06-06T09:40:58.449065
192,0.1371,0.4031,0.9233,0.735,-4.935,-0.175,1,2,1,392,373,2025-06-06T09:40:58.449065
193,0.1318,0.4036,0.9282,-0.350,-4.970,-0.070,1,2,1,385,375,2025-06-06T09:40:58.449065
194,0.1362,0.4026,0.9252,0.210,-5.040,-0.070,0,1,2,379,389,2025-06-06T09:40:58.449065
195,0.1357,0.4046,0.9272,0.525,-5.075,-0.105,1,1,0,357,377,2025-06-06T09:40:58.449065
196,0.1357,0.4026,0.9257,0.000,-4.970,-0.210,1,1,2,337,386,2025-06-06T09:40:58.449065
197,0.1381,0.4055,0.9243,0.035,-5.005,-0.105,2,1,1,360,391,2025-06-06T09:40:58.510985
198,0.1362,0.4036,0.9282,0.420,-5.145,-0.210,2,2,2,381,384,2025-06-06T09:40:58.510985
199,0.1357,0.4036,0.9267,0.595,-4.935,-0.175,1,2,1,384,392,2025-06-06T09:40:58.510985
200,0.1362,0.4016,0.9248,0.280,-4.900,-0.280,2,1,2,380,390,2025-06-06T09:40:58.510985
201,0.1366,0.4041,0.9287,0.385,-5.075,-0.210,1,1,1,387,395,2025-06-06T09:40:58.668234
202,0.1342,0.4046,0.9238,0.560,-4.970,-0.245,2,1,1,391,393,2025-06-06T09:40:58.668234
203,0.1347,0.4036,0.9277,0.175,-4.935,-0.210,1,1,1,380,400,2025-06-06T09:40:58.737607
204,0.1342,0.4046,0.9267,0.350,-4.865,-0.210,1,2,2,388,396,2025-06-06T09:40:58.737607
205,0.1332,0.4021,0.9267,0.105,-5.215,-0.175,1,2,2,380,401,2025-06-06T09:40:58.737607
206,0.1357,0.4055,0.9252,0.210,-5.040,-0.140,2,2,2,394,377,2025-06-06T09:40:58.737607
207,0.1366,0.4041,0.9277,0.350,-5.075,-0.140,1,2,2,387,377,2025-06-06T09:40:58.737607
208,0.1352,0.4041,0.9238,0.210,-5.075,-0.105,1,2,1,388,384,2025-06-06T09:40:58.737607
209,0.1357,0.4016,0.9262,0.210,-4.900,-0.175,1,1,1,384,392,2025-06-06T09:40:58.737607
210,0.1352,0.4036,0.9262,0.525,-4.970,-0.210,1,1,1,389,390,2025-06-06T09:40:58.737607
211,0.1347,0.4016,0.9228,0.560,-4.935,-0.210,1,2,1,392,385,2025-06-06T09:40:58.737607
212,0.1352,0.4046,0.9277,0.175,-4.795,-0.315,1,1,1,393,391,2025-06-06T09:40:58.737607
213,0.1337,0.4031,0.9287,0.630,-4.830,-0.280,1,2,0,368,400,2025-06-06T09:40:58.737607
214,0.1362,0.4011,0.9257,0.490,-5.040,-0.245,1,1,1,369,392,2025-06-06T09:40:58.737607
215,0.1347,0.4031,0.9272,0.070,-4.900,-0.175,1,1,1,369,398,2025-06-06T09:40:58.737607
216,0.1342,0.4080,0.9282,0.350,-4.760,-0.105,2,2,1,378,356,2025-06-06T09:40:58.737607
217,0.1347,0.4046,0.9252,0.630,-5.250,-0.245,1,1,1,378,371,2025-06-06T09:40:58.737607
218,0.1342,0.4036,0.9262,-0.070,-4.970,-0.210,1,2,1,399,371,2025-06-06T09:40:58.737607
219,0.1376,0.4021,0.9277,-0.385,-5.075,-0.210,1,1,1,364,386,2025-06-06T09:40:58.737607
220,0.1357,0.4046,0.9267,0.560,-5.180,-0.140,1,1,1,386,388,2025-06-06T09:40:58.737607
221,0.1357,0.4060,0.9267,0.385,-5.180,-0.070,1,1,1,353,373,2025-06-06T09:40:58.737607
222,0.1381,0.4050,0.9233,-0.175,-5.145,-0.105,2,2,1,359,388,2025-06-06T09:40:58.841099
223,0.1371,0.4055,0.9296,0.420,-5.040,-0.105,2,1,1,385,399,2025-06-06T09:40:58.841099
224,0.1386,0.4085,0.9335,-0.035,-5.005,-0.035,2,1,1,386,405,2025-06-06T09:40:58.841099
225,0.1366,0.4021,0.9262,0.700,-5.040,-0.280,2,1,1,392,359,2025-06-06T09:40:58.841099
226,0.1279,0.4041,0.9262,0.560,-4.760,-0.210,2,1,2,388,384,2025-06-06T09:40:58.841099
227,0.1352,0.4021,0.9257,-0.630,-5.180,-0.280,1,2,1,385,379,2025-06-06T09:40:58.841099
228,0.1362,0.4080,0.9311,-0.420,-4.620,-0.105,2,1,0,363,385,2025-06-06T09:40:58.841099
229,0.1327,0.3992,0.9306,0.770,-5.145,-0.140,1,1,1,385,379,2025-06-06T09:40:58.841099
230,0.1337,0.4016,0.9179,0.875,-5.320,-0.035,2,1,2,387,396,2025-06-06T09:40:58.841099
231,0.1371,0.3972,0.9257,-0.630,-4.795,0.035,1,1,2,393,398,2025-06-06T09:40:58.889749
232,0.1357,0.3972,0.9160,-0.525,-5.460,0.035,2,1,2,384,404,2025-06-06T09:40:58.889749
233,0.1469,0.4119,0.9262,2.485,-4.620,-0.315,2,2,1,376,407,2025-06-06T09:40:58.889749
234,0.1313,0.4324,0.9540,0.980,-4.585,0.070,1,2,2,386,411,2025-06-06T09:40:58.889749
235,0.1347,0.3709,0.9101,-4.130,-5.880,-0.560,1,1,1,395,400,2025-06-06T09:40:58.940526
236,0.1449,0.4158,0.9116,0.490,-4.445,-0.490,2,2,1,375,354,2025-06-06T09:40:58.940526
237,0.1274,0.4094,0.9540,4.445,-3.885,0.070,0,2,1,378,384,2025-06-06T09:40:58.940526
238,0.1332,0.4036,0.9082,-0.070,-6.055,-0.385,1,2,2,384,388,2025-06-06T09:40:58.941499
239,0.1357,0.3943,0.9248,-3.640,-5.460,-0.280,1,2,1,376,387,2025-06-06T09:40:59.148197
240,0.1269,0.3997,0.9287,1.820,-4.585,-0.035,1,2,1,387,397,2025-06-06T09:40:59.148197
241,0.1454,0.4226,0.9360,2.905,-4.165,-0.105,1,1,2,399,384,2025-06-06T09:40:59.148197
242,0.1279,0.4104,0.9492,-2.940,-5.530,0.035,1,2,1,383,386,2025-06-06T09:40:59.148197
243,0.1347,0.3821,0.8999,-3.150,-6.510,-0.420,2,1,1,378,402,2025-06-06T09:40:59.148197
244,0.1459,0.4109,0.9326,3.325,-2.905,0.000,1,2,1,390,405,2025-06-06T09:40:59.148197
245,0.1225,0.4050,0.7725,3.255,-2.870,0.070,2,1,2,406,412,2025-06-06T09:40:59.148197
246,0.0517,0.4177,0.6032,-22.365,-15.365,-0.385,1,2,1,401,393,2025-06-06T09:40:59.148197
247,0.1352,0.3928,0.9135,-7.315,-12.565,0.770,1,1,1,391,388,2025-06-06T09:40:59.148197
248,0.0132,0.3704,0.9096,-4.725,-3.395,-0.070,1,1,1,391,383,2025-06-06T09:40:59.148197
249,0.1498,0.3870,0.9399,11.760,-0.980,0.735,1,2,1,381,386,2025-06-06T09:40:59.148197
250,0.1342,0.4002,0.9306,12.390,-4.515,0.420,1,1,1,392,402,2025-06-06T09:40:59.148197
251,0.1484,0.3953,0.9121,11.655,2.275,0.280,2,0,1,386,402,2025-06-06T09:40:59.148197
252,0.1401,0.3933,0.9248,19.285,1.505,-0.105,1,1,2,386,411,2025-06-06T09:40:59.148197
253,0.1327,0.4114,0.9516,12.880,-1.050,-0.630,1,1,1,348,410,2025-06-06T09:40:59.148197
254,0.1318,0.4080,0.9248,-2.555,-5.075,-1.400,1,1,1,360,393,2025-06-06T09:40:59.148197
255,0.1210,0.4021,0.9262,-3.185,-6.755,-0.945,2,1,2,381,404,2025-06-06T09:40:59.148197
256,0.1279,0.4026,0.9272,5.460,-2.590,0.000,2,2,2,381,398,2025-06-06T09:40:59.148197
257,0.1254,0.4046,0.9355,3.605,-4.900,0.315,2,2,2,394,383,2025-06-06T09:40:59.353088
258,0.1303,0.4055,0.9331,-5.425,-7.000,0.280,1,1,1,391,395,2025-06-06T09:40:59.353088
259,0.1254,0.3972,0.8843,-18.515,-11.690,0.140,2,2,1,381,354,2025-06-06T09:40:59.353088
260,0.1415,0.3977,0.9252,-19.635,-7.560,0.245,2,1,1,378,375,2025-06-06T09:40:59.353088
261,0.1479,0.3894,0.9374,-19.005,-2.765,0.140,2,2,2,388,355,2025-06-06T09:40:59.353088
262,0.1420,0.3792,0.9340,-21.070,-4.200,-0.420,1,1,1,393,366,2025-06-06T09:40:59.353088
263,0.1420,0.3777,0.9135,-6.300,-2.765,-0.385,1,2,1,394,353,2025-06-06T09:40:59.353088
264,0.1366,0.3865,0.9374,-0.735,-2.345,-0.455,1,1,1,393,360,2025-06-06T09:40:59.353088
265,0.1332,0.3919,0.9550,-13.580,-0.875,-0.525,1,2,1,395,376,2025-06-06T09:40:59.353088
266,0.1342,0.3670,0.9526,-14.735,-10.395,-0.735,1,1,1,390,346,2025-06-06T09:40:59.353088
267,0.1342,0.3777,0.9267,18.760,-13.055,-0.175,1,1,1,395,364,2025-06-06T09:40:59.353088
268,0.1322,0.3889,0.9433,15.890,-9.415,0.070,1,1,1,385,378,2025-06-06T09:40:59.353088
269,0.1313,0.3919,0.9467,11.270,-11.200,0.210,1,1,1,386,389,2025-06-06T09:40:59.353088
270,0.1405,0.3811,0.9272,15.225,-12.390,0.175,1,1,2,404,387,2025-06-06T09:40:59.353088
271,0.1484,0.3904,0.9121,20.790,-6.020,0.280,1,2,1,348,345,2025-06-06T09:40:59.353088
272,0.1566,0.4104,0.9487,10.010,2.205,0.805,2,1,1,371,370,2025-06-06T09:40:59.353088
273,0.1566,0.4075,0.9716,-15.085,15.365,0.455,2,1,1,378,384,2025-06-06T09:40:59.353088
274,0.1298,0.3855,0.9399,-32.795,0.665,-1.470,1,2,1,395,396,2025-06-06T09:40:59.560033
275,0.1069,0.3626,0.9506,7.595,-10.605,-1.715,2,2,1,389,391,2025-06-06T09:40:59.560033
276,0.1059,0.3831,0.9545,-3.115,-14.980,-1.435,1,1,2,383,385,2025-06-06T09:40:59.560033
277,0.1283,0.3860,0.9448,9.940,2.660,0.350,1,2,2,384,398,2025-06-06T09:40:59.560033
278,0.1430,0.3606,0.9277,27.160,-2.135,0.455,2,1,1,394,402,2025-06-06T09:40:59.560033
279,0.1230,0.3845,0.9916,9.975,-6.300,-0.490,2,1,1,381,385,2025-06-06T09:40:59.560033
280,0.1444,0.4133,0.9443,6.615,-4.410,0.175,1,2,1,390,391,2025-06-06T09:40:59.560033
281,0.1298,0.4055,0.8994,15.365,-3.815,0.560,1,1,1,384,386,2025-06-06T09:40:59.560033
282,0.1498,0.4153,0.9823,13.230,0.035,0.315,1,1,1,376,384,2025-06-06T09:40:59.560033
283,0.1371,0.3870,0.9321,7.280,-6.650,-0.315,1,1,1,377,377,2025-06-06T09:40:59.560033
284,0.1357,0.3904,0.9306,-4.725,-6.615,-0.595,1,1,1,378,352,2025-06-06T09:40:59.560033
285,0.1347,0.4080,0.9238,1.400,-3.500,-0.245,2,1,2,374,369,2025-06-06T09:40:59.560033
286,0.1322,0.4094,0.9257,7.910,-4.130,0.035,1,1,1,370,374,2025-06-06T09:40:59.560033
287,0.1318,0.4011,0.9360,-1.855,-5.915,-0.280,2,1,1,375,391,2025-06-06T09:40:59.560033
288,0.1357,0.3924,0.9306,-3.325,-6.020,-0.245,2,1,2,385,401,2025-06-06T09:40:59.560033
289,0.1362,0.3972,0.9277,3.045,-4.025,0.035,0,1,1,383,398,2025-06-06T09:40:59.560033
290,0.1347,0.4046,0.9252,3.780,-4.235,-0.035,1,1,1,393,402,2025-06-06T09:40:59.560033
291,0.1352,0.4016,0.9252,-2.800,-6.020,-0.140,1,1,1,383,393,2025-06-06T09:40:59.774270
292,0.1386,0.3948,0.9248,-1.330,-5.390,-0.210,1,2,1,390,370,2025-06-06T09:40:59.774270
293,0.1381,0.3967,0.9292,3.570,-4.025,-0.070,1,2,2,397,388,2025-06-06T09:40:59.774270
294,0.1366,0.3992,0.9287,2.030,-4.865,-0.315,2,1,1,404,399,2025-06-06T09:40:59.774270
295,0.1342,0.4036,0.9262,-1.575,-5.425,-0.315,1,2,1,406,403,2025-06-06T09:40:59.774270
296,0.1332,0.4016,0.9248,0.455,-5.005,-0.175,1,1,2,406,370,2025-06-06T09:40:59.774270
297,0.1332,0.3987,0.9311,2.135,-4.620,-0.070,1,1,1,399,376,2025-06-06T09:40:59.774270
298,0.1327,0.4006,0.9321,0.280,-5.110,-0.210,2,1,2,387,376,2025-06-06T09:40:59.774270
299,0.1347,0.3997,0.9267,-0.945,-5.425,-0.105,1,1,1,389,385,2025-06-06T09:40:59.774270
300,0.1332,0.4011,0.9233,0.945,-4.865,0.000,1,2,1,378,389,2025-06-06T09:40:59.774270
301,0.1352,0.4031,0.9292,0.875,-4.865,-0.035,2,2,2,381,386,2025-06-06T09:40:59.774270
302,0.1366,0.4021,0.9311,-0.420,-5.425,-0.105,2,2,1,375,386,2025-06-06T09:40:59.774270
303,0.1366,0.3963,0.9238,-0.280,-5.110,-0.140,1,1,1,370,345,2025-06-06T09:40:59.774270
304,0.1362,0.3997,0.9287,1.260,-4.620,-0.210,1,1,1,340,358,2025-06-06T09:40:59.774270
305,0.1357,0.4026,0.9301,0.595,-4.865,-0.245,2,1,1,360,383,2025-06-06T09:40:59.774270
306,0.1342,0.4011,0.9238,-0.140,-5.110,-0.420,1,1,1,379,391,2025-06-06T09:40:59.774270
307,0.1337,0.3972,0.9287,0.140,-4.655,-0.245,1,1,1,384,355,2025-06-06T09:40:59.774270
308,0.1513,0.4089,0.9877,4.095,-5.810,-0.280,2,2,2,387,377,2025-06-06T09:40:59.774270
309,0.2157,0.3572,0.9209,10.850,2.100,-1.400,1,1,1,355,374,2025-06-06T09:40:59.970003
310,0.1923,0.3938,1.0175,26.075,7.210,-3.990,2,2,1,377,391,2025-06-06T09:40:59.970003
311,0.2211,0.5597,1.0931,48.755,22.260,-9.975,2,1,2,392,324,2025-06-06T09:40:59.970003
312,0.1420,0.4709,0.9760,43.995,29.575,-15.505,2,2,1,396,360,2025-06-06T09:40:59.970003
313,0.1591,0.5100,0.8608,67.830,20.335,-19.320,2,1,2,403,339,2025-06-06T09:40:59.970003
314,-0.4792,0.1220,0.0625,34.090,29.085,-20.195,1,2,1,384,362,2025-06-06T09:40:59.970003
315,0.4573,0.5353,1.4069,-3.710,5.740,-30.975,1,1,1,390,373,2025-06-06T09:40:59.970003
316,0.4314,0.6817,1.7880,-13.300,26.110,-25.795,2,1,1,396,354,2025-06-06T09:40:59.970003
317,0.0429,0.3631,0.9218,57.645,15.120,-19.915,1,1,1,399,373,2025-06-06T09:40:59.970003
318,0.1903,0.4333,0.4773,93.590,8.295,-30.065,1,1,1,405,383,2025-06-06T09:40:59.970003
319,-0.0683,0.4729,1.1814,79.345,17.045,-33.110,1,2,1,403,376,2025-06-06T09:40:59.970003
320,-0.3231,0.3333,1.0243,31.710,2.380,-40.810,1,1,1,388,351,2025-06-06T09:40:59.970003
321,-0.2621,-0.0386,1.6124,-20.965,5.950,-71.995,1,1,1,348,362,2025-06-06T09:40:59.970003
322,-0.1908,0.5285,1.5933,-64.750,-12.285,-72.870,1,1,1,378,388,2025-06-06T09:40:59.970003
323,-0.1288,0.3767,1.3410,-78.295,-20.475,-60.760,1,1,1,384,361,2025-06-06T09:40:59.970003
324,-0.0888,0.5192,1.4533,-115.885,-32.375,-47.880,1,1,2,386,385,2025-06-06T09:40:59.970003
325,-0.1020,0.6412,1.3937,-120.540,-28.245,-34.405,1,2,1,389,375,2025-06-06T09:40:59.970003
326,0.0322,0.6920,1.3503,-93.275,-74.410,-22.050,1,1,2,401,389,2025-06-06T09:41:00.016175
327,0.0961,0.6812,1.2210,-51.870,-120.470,-15.680,2,2,2,403,385,2025-06-06T09:41:00.017171
328,0.1698,0.7203,1.1976,-75.320,-139.265,-5.530,2,1,1,393,385,2025-06-06T09:41:00.017171
329,0.1718,0.5012,1.1468,-67.655,-159.355,11.550,2,1,1,399,392,2025-06-06T09:41:00.017171
330,-0.0327,0.3821,1.0731,-41.615,-151.060,16.590,2,2,2,397,391,2025-06-06T09:41:00.074022
331,0.0322,0.3079,0.8808,12.110,-135.100,26.040,1,1,2,387,381,2025-06-06T09:41:00.074022
332,0.3357,0.1898,1.1658,63.455,-115.430,2.240,2,1,2,392,403,2025-06-06T09:41:00.074022
333,-0.0381,0.2289,0.9799,94.780,-70.910,-10.885,2,1,1,385,394,2025-06-06T09:41:00.176375
334,-0.1991,0.3416,1.0375,121.275,-33.810,-45.465,1,1,1,380,387,2025-06-06T09:41:00.176375
335,-0.0283,0.3270,0.6891,50.050,-31.745,-61.355,1,2,1,345,387,2025-06-06T09:41:00.176375
336,0.2450,0.0722,0.5714,-37.240,-75.670,-74.515,2,2,1,370,398,2025-06-06T09:41:00.176375
337,0.2767,-0.0991,0.4431,-25.270,-108.570,-75.985,1,2,1,375,390,2025-06-06T09:41:00.176375
338,0.1781,0.0395,0.4421,-6.790,-66.010,-74.340,2,1,1,371,392,2025-06-06T09:41:00.176375
339,0.1196,0.3782,0.5368,48.825,-33.705,-39.235,1,2,1,390,405,2025-06-06T09:41:00.176375
340,0.1435,0.6417,0.6681,83.160,-61.425,-18.235,1,1,1,353,396,2025-06-06T09:41:00.176375
341,0.2513,0.6202,0.7188,76.125,-59.325,-35.455,2,2,1,371,396,2025-06-06T09:41:00.176375
342,0.2528,0.5617,0.9575,58.030,-99.960,-27.370,2,2,1,388,401,2025-06-06T09:41:00.176375
343,0.2372,0.5519,0.8530,66.500,-117.635,-28.210,2,1,1,388,368,2025-06-06T09:41:00.226410
344,0.3743,0.3265,0.2728,62.055,-88.760,-35.910,2,1,2,381,377,2025-06-06T09:41:00.226410
345,0.3889,0.1391,0.5168,42.385,-47.950,-39.795,2,1,2,397,391,2025-06-06T09:41:00.226410
346,0.3719,0.3465,0.6573,70.210,-18.760,-29.505,2,2,2,387,384,2025-06-06T09:41:00.226410
347,0.4075,0.5144,0.6744,78.295,3.325,-41.475,2,2,1,399,388,2025-06-06T09:41:00.375033
348,0.2460,0.6730,0.9023,109.165,8.750,-35.595,2,1,1,397,386,2025-06-06T09:41:00.375033
349,0.2621,0.7398,0.7862,123.760,2.310,-23.205,1,2,1,398,386,2025-06-06T09:41:00.375033
350,0.3665,0.5412,0.5744,91.630,-28.840,-12.425,2,1,2,391,386,2025-06-06T09:41:00.375033
351,0.1923,0.5431,0.5754,122.570,-45.745,-6.510,1,2,1,394,356,2025-06-06T09:41:00.518603
352,0.3572,0.6188,0.9296,141.050,-52.430,0.560,2,2,1,382,373,2025-06-06T09:41:00.518603
353,0.3875,0.6320,0.9487,151.900,-53.480,6.545,2,1,1,379,370,2025-06-06T09:41:00.518603
354,0.1357,0.6251,0.8364,162.120,-49.420,7.455,1,1,0,348,388,2025-06-06T09:41:00.518603
355,0.0800,0.6505,0.7281,161.560,-56.105,3.570,1,2,1,344,396,2025-06-06T09:41:00.518603
356,0.0190,0.7125,0.7447,146.720,-69.020,-6.020,1,1,0,332,398,2025-06-06T09:41:00.518603
357,0.0820,0.6808,0.6734,147.840,-98.630,-10.395,2,2,1,367,408,2025-06-06T09:41:00.518603
358,0.2962,0.6129,0.4636,154.735,-112.560,-11.340,1,1,1,388,394,2025-06-06T09:41:00.518603
359,0.4934,0.7706,0.8603,163.590,-139.300,-3.290,1,2,1,389,384,2025-06-06T09:41:00.518603
360,0.3504,0.8208,0.9765,182.000,-129.850,-3.745,2,1,1,387,401,2025-06-06T09:41:00.518603
361,0.4612,0.7715,0.5597,262.850,-122.605,0.140,1,1,1,383,399,2025-06-06T09:41:00.518603
362,0.5549,0.7662,0.6964,299.565,-94.080,1.400,1,1,1,396,395,2025-06-06T09:41:00.518603
363,0.4641,0.9892,0.4934,239.330,-54.495,-0.420,2,1,1,396,399,2025-06-06T09:41:00.518603
364,0.2625,0.7706,-0.4865,152.320,-9.660,-22.960,1,1,1,400,403,2025-06-06T09:41:00.581006
365,0.5583,0.7398,-0.5305,184.625,-52.185,-28.770,1,2,1,401,408,2025-06-06T09:41:00.581006
366,0.8330,0.9204,-0.1513,142.065,-57.260,-23.205,1,1,1,392,370,2025-06-06T09:41:00.581006
367,0.6949,0.7920,-0.4338,119.630,-17.500,-25.025,2,2,1,351,371,2025-06-06T09:41:00.581006
368,0.5339,0.6368,-0.6466,99.330,7.490,-23.485,2,1,2,334,389,2025-06-06T09:41:00.581006
369,0.5158,0.6437,-0.7910,64.750,-20.300,-20.090,1,1,2,360,389,2025-06-06T09:41:00.581006
370,0.4660,0.7271,-0.8047,32.060,-47.810,-17.850,1,1,2,367,399,2025-06-06T09:41:00.581006
371,0.3850,0.6061,-1.0424,-12.740,-57.925,-15.820,1,1,1,381,387,2025-06-06T09:41:00.581006
372,0.3558,0.6466,-1.1331,-69.895,-72.065,-12.950,1,2,1,360,356,2025-06-06T09:41:00.581006
373,0.4538,0.7530,-0.7632,-192.640,-127.785,-6.580,2,1,1,366,371,2025-06-06T09:41:00.581006
374,0.5890,0.9018,0.0708,-310.695,-157.185,-27.370,1,2,1,378,393,2025-06-06T09:41:00.581006
375,0.6490,0.8252,0.0112,-86.905,-167.265,-41.475,1,1,1,392,392,2025-06-06T09:41:00.581006
376,0.6412,0.9404,0.1025,-148.750,-100.415,-44.170,2,2,1,374,382,2025-06-06T09:41:00.739936
377,0.5436,0.8691,0.2113,-120.855,-85.435,-43.225,2,2,1,391,353,2025-06-06T09:41:00.739936
378,0.4124,0.7837,0.0508,-129.395,-75.600,-36.295,1,3,1,386,373,2025-06-06T09:41:00.739936
379,0.2469,0.7105,-0.2303,-126.245,-85.610,-31.185,1,2,1,399,378,2025-06-06T09:41:00.739936
380,0.2001,0.6676,-0.2811,-125.755,-115.640,-23.135,2,1,2,409,378,2025-06-06T09:41:00.739936
381,0.2552,0.6525,-0.0991,-115.185,-155.330,-15.645,1,2,1,387,369,2025-06-06T09:41:00.739936
382,0.3479,0.6886,0.2054,-91.770,-174.230,-9.345,1,1,0,364,386,2025-06-06T09:41:00.739936
383,0.4089,0.7574,0.4348,-83.440,-171.885,-6.685,1,1,1,378,360,2025-06-06T09:41:00.739936
384,0.4231,0.7647,0.6788,-71.120,-144.830,-4.515,1,2,1,379,368,2025-06-06T09:41:00.739936
385,0.3255,0.7598,0.6993,-58.275,-107.345,-6.300,2,1,1,374,386,2025-06-06T09:41:00.739936
386,0.2294,0.7047,0.4089,-51.450,-102.900,-13.440,1,2,1,370,360,2025-06-06T09:41:00.739936
387,0.3065,0.6666,0.3938,-19.740,-135.975,-19.215,1,1,1,383,342,2025-06-06T09:41:00.739936
388,0.5187,0.7218,0.9775,-2.275,-165.130,-18.900,2,1,1,344,336,2025-06-06T09:41:00.739936
389,0.6681,0.7808,1.4957,1.785,-150.640,-16.415,2,1,1,358,363,2025-06-06T09:41:00.887164
390,0.6388,0.8013,1.8651,9.170,-105.560,-16.590,1,2,2,389,342,2025-06-06T09:41:00.887478
391,0.6354,0.8677,2.1169,-5.985,-68.355,-21.035,2,2,2,391,368,2025-06-06T09:41:00.887478
392,0.5690,0.8052,1.9608,-20.650,-21.385,-24.185,2,1,2,385,371,2025-06-06T09:41:00.887478
393,0.5788,0.7486,1.8646,-22.295,14.140,-25.795,2,1,2,383,386,2025-06-06T09:41:00.887478
394,0.6266,0.7452,1.7875,-21.595,41.860,-24.500,1,2,1,392,356,2025-06-06T09:41:00.887478
395,0.6066,0.7135,1.5572,-9.030,63.910,-22.120,1,1,1,378,380,2025-06-06T09:41:00.887478
396,0.5729,0.6910,1.1844,-5.320,81.270,-18.130,1,1,1,374,355,2025-06-06T09:41:00.887478
397,0.5373,0.6632,0.9252,13.125,86.170,-16.345,1,1,1,380,381,2025-06-06T09:41:00.887478
398,0.4290,0.6183,0.4304,49.105,98.070,-12.985,1,2,1,378,386,2025-06-06T09:41:00.887478
399,0.3470,0.6373,0.3543,83.160,86.310,-13.685,1,1,1,385,375,2025-06-06T09:41:00.887478
400,0.4963,0.6847,0.3304,114.065,73.920,-12.110,1,1,1,393,386,2025-06-06T09:41:00.887478
401,0.3792,0.7340,0.2342,148.995,66.045,-13.790,2,2,1,384,380,2025-06-06T09:41:00.887478
402,0.4250,0.8184,0.1703,160.440,73.115,-18.515,2,1,1,397,384,2025-06-06T09:41:00.941036
403,0.4348,0.8218,-0.0576,190.050,85.155,-19.530,1,2,1,382,396,2025-06-06T09:41:00.941036
404,0.4114,0.8438,-0.1703,216.475,88.515,-20.755,2,2,2,384,359,2025-06-06T09:41:00.941036
405,0.4529,0.8828,-0.4773,242.865,104.650,-17.150,1,1,2,393,371,2025-06-06T09:41:00.941036
406,0.3694,0.9248,-0.8130,241.045,111.160,-22.295,2,1,1,392,376,2025-06-06T09:41:01.096324
407,0.5202,0.7452,-0.7935,192.850,73.605,-25.900,1,2,1,396,388,2025-06-06T09:41:01.096324
408,0.5910,0.7408,-1.1814,153.580,46.690,-25.060,1,1,1,392,361,2025-06-06T09:41:01.096324
409,0.6056,0.8145,-1.1936,133.875,21.700,-16.310,1,2,1,379,379,2025-06-06T09:41:01.096324
410,0.4953,0.8140,-1.2747,60.375,13.510,-9.940,2,1,1,380,394,2025-06-06T09:41:01.096324
411,0.4294,0.8281,-1.1727,15.365,-14.280,-7.420,1,1,1,378,402,2025-06-06T09:41:01.096324
412,0.3079,0.8252,-1.0907,2.275,-47.880,-8.855,2,2,1,392,409,2025-06-06T09:41:01.096324
413,0.2952,0.8711,-0.9155,-49.770,-82.110,-14.560,1,1,2,391,397,2025-06-06T09:41:01.096324
414,0.3255,0.8491,-0.7427,-71.890,-98.595,-21.105,1,1,1,379,398,2025-06-06T09:41:01.096324
415,0.4304,0.8574,-0.4992,-72.905,-98.595,-21.455,1,2,1,394,395,2025-06-06T09:41:01.096324
416,0.4992,0.9828,-0.3440,-81.725,-93.695,-16.485,2,1,2,387,398,2025-06-06T09:41:01.096324
417,0.5729,1.0185,-0.2943,-104.055,-88.725,-10.500,1,1,1,380,327,2025-06-06T09:41:01.096324
418,0.5470,1.0365,-0.1923,-117.250,-79.835,-3.850,2,1,2,384,371,2025-06-06T09:41:01.096324
419,0.4636,1.0380,-0.3167,-132.055,-80.395,-4.900,1,2,1,382,386,2025-06-06T09:41:01.144437
420,0.3699,1.0082,-0.3782,-133.805,-85.435,-10.220,2,1,1,389,397,2025-06-06T09:41:01.144437
421,0.3733,1.0311,-0.2713,-137.865,-93.310,-18.830,1,1,1,350,355,2025-06-06T09:41:01.144437
422,0.2948,0.9658,-0.4665,-138.530,-100.800,-29.925,2,1,2,359,341,2025-06-06T09:41:01.144437
423,0.2708,0.9906,-0.3577,-119.875,-115.990,-38.255,1,1,1,362,336,2025-06-06T09:41:01.194604
424,0.2718,0.9760,-0.1859,-99.260,-129.290,-45.465,1,2,2,382,297,2025-06-06T09:41:01.194604
425,0.2962,0.9711,0.0073,-74.270,-137.620,-47.880,2,1,1,343,329,2025-06-06T09:41:01.194604
426,0.3436,0.9980,0.3343,-59.080,-138.390,-46.760,1,1,2,384,336,2025-06-06T09:41:01.194604
427,0.4163,0.9496,0.4758,-56.000,-123.585,-41.650,1,1,1,379,363,2025-06-06T09:41:01.244954
428,0.3831,0.8594,0.5924,-39.130,-115.640,-33.040,1,1,1,392,386,2025-06-06T09:41:01.244954
429,0.2664,0.8213,0.7291,-21.000,-108.535,-24.990,2,2,1,382,344,2025-06-06T09:41:01.244954
430,0.2425,0.8062,0.9296,-5.460,-104.545,-19.110,2,2,1,386,371,2025-06-06T09:41:01.244954
431,0.2747,0.8423,1.2132,2.345,-84.000,-13.650,1,2,1,393,372,2025-06-06T09:41:01.403433
432,0.3440,0.8721,1.3957,-3.360,-49.070,-8.995,1,2,2,390,348,2025-06-06T09:41:01.403433
433,0.2635,0.8525,1.2234,-7.245,-12.355,-7.630,1,2,1,376,303,2025-06-06T09:41:01.403433
434,0.0976,0.7857,1.0175,-14.140,-0.420,-12.110,1,2,1,373,338,2025-06-06T09:41:01.403433
435,0.1640,0.6944,0.7906,-10.710,2.065,-12.390,1,2,1,389,366,2025-06-06T09:41:01.403433
436,0.2240,0.6651,0.6378,-9.065,-4.480,-8.085,1,1,1,381,371,2025-06-06T09:41:01.403433
437,0.2518,0.6549,0.4616,-11.480,-5.565,-2.415,1,1,1,375,378,2025-06-06T09:41:01.403433
438,0.2718,0.6446,0.4368,-10.325,-4.900,5.600,2,2,1,389,375,2025-06-06T09:41:01.403433
439,0.3099,0.6471,0.4582,-14.105,-2.275,15.190,2,1,2,389,383,2025-06-06T09:41:01.403433
440,0.2552,0.6378,0.3411,-15.925,4.095,24.115,1,2,1,381,393,2025-06-06T09:41:01.403433
441,0.1976,0.6876,0.2406,-15.015,0.105,28.700,1,1,1,376,323,2025-06-06T09:41:01.403433
442,0.1986,0.7281,0.1606,-9.345,-8.575,29.225,1,2,1,364,350,2025-06-06T09:41:01.403433
443,0.2074,0.7710,0.1259,-0.315,-12.460,28.035,0,1,1,378,378,2025-06-06T09:41:01.403433
444,0.2274,0.8545,0.1762,1.295,-14.630,22.855,1,1,1,386,398,2025-06-06T09:41:01.509993
445,0.2367,0.8921,0.2303,1.575,-10.290,16.100,2,1,2,393,392,2025-06-06T09:41:01.509993
446,0.2933,0.8955,0.3162,-5.775,-1.365,11.305,1,2,2,392,358,2025-06-06T09:41:01.509993
447,0.3587,0.8935,0.2416,-9.205,5.880,13.545,3,2,2,397,372,2025-06-06T09:41:01.509993
448,0.3645,0.9262,0.2591,-12.530,7.770,17.815,2,1,1,400,351,2025-06-06T09:41:01.509993
449,0.3660,0.9243,0.2586,-16.800,4.445,24.920,1,2,1,390,377,2025-06-06T09:41:01.509993
450,0.3533,0.9477,0.2079,-15.925,4.305,31.815,1,1,1,404,384,2025-06-06T09:41:01.509993
451,0.2816,0.9833,0.2142,-25.935,1.190,33.985,2,1,1,395,393,2025-06-06T09:41:01.509993
452,0.3079,0.9872,0.2747,-22.925,-2.135,32.445,1,1,2,395,401,2025-06-06T09:41:01.509993
453,0.3231,1.0043,0.1957,-25.025,0.945,31.220,1,2,1,355,393,2025-06-06T09:41:01.559766
454,0.2718,1.0141,0.1854,-26.425,5.565,28.070,1,2,2,366,397,2025-06-06T09:41:01.559766
455,0.3304,1.0009,0.1952,-27.720,3.045,24.710,1,1,1,373,398,2025-06-06T09:41:01.559766
456,0.3323,1.0228,0.2196,-27.335,3.430,24.185,1,2,1,380,403,2025-06-06T09:41:01.559766
457,0.3138,1.0326,0.2479,-26.565,4.095,23.205,1,1,2,398,407,2025-06-06T09:41:01.559766
458,0.3972,1.0370,0.3162,-23.310,-0.245,23.870,1,1,1,390,396,2025-06-06T09:41:01.605482
459,0.4231,1.0355,0.3138,-21.140,-4.270,26.985,2,2,2,392,388,2025-06-06T09:41:01.605482
460,0.4294,1.0555,0.2611,-7.630,-7.630,30.170,2,1,1,381,385,2025-06-06T09:41:01.605482
461,0.4524,1.0946,0.3738,1.505,-17.290,30.835,1,1,1,353,386,2025-06-06T09:41:01.744715
462,0.6076,1.1805,0.4973,5.320,-18.830,30.415,1,1,2,370,392,2025-06-06T09:41:01.744715
463,0.5597,1.2093,0.5417,7.980,-7.700,24.255,2,2,1,368,395,2025-06-06T09:41:01.744715
464,0.5778,1.2537,0.6471,15.540,1.295,10.850,1,2,1,377,357,2025-06-06T09:41:01.744715
465,0.4895,1.2800,0.6364,17.640,10.920,-9.485,1,2,1,375,380,2025-06-06T09:41:01.744715
466,0.4480,1.2703,0.4821,26.775,18.480,-29.540,1,1,1,391,388,2025-06-06T09:41:01.744715
467,0.3235,1.2366,0.3684,43.085,16.800,-56.455,1,1,1,390,399,2025-06-06T09:41:01.744715
468,0.3026,1.2029,0.1440,58.380,8.820,-83.545,1,1,1,399,391,2025-06-06T09:41:01.744715
469,0.2879,1.1341,0.1903,72.870,5.390,-104.545,1,1,1,390,402,2025-06-06T09:41:01.744715
470,0.3109,1.0326,0.1630,87.990,3.780,-119.770,2,1,1,389,397,2025-06-06T09:41:01.744715
471,0.2889,0.9121,0.0976,99.785,3.010,-128.310,2,2,1,394,392,2025-06-06T09:41:01.744715
472,0.1942,0.7398,0.0986,99.995,8.645,-132.405,1,2,1,380,397,2025-06-06T09:41:01.744715
473,0.2269,0.5666,0.0795,89.985,8.855,-132.650,2,1,2,402,404,2025-06-06T09:41:01.911620
474,0.1576,0.3567,0.0966,78.750,9.625,-126.980,2,1,1,398,406,2025-06-06T09:41:01.911620
475,0.1005,0.1649,0.1615,47.950,1.365,-119.385,2,1,1,400,367,2025-06-06T09:41:01.911620
476,0.0381,-0.0005,0.0444,26.460,-7.875,-105.910,2,1,2,390,374,2025-06-06T09:41:01.911620
477,0.1005,-0.0337,-0.0644,3.990,-18.410,-84.630,1,1,2,399,375,2025-06-06T09:41:01.911620
478,0.0586,-0.0830,-0.1669,-23.730,-33.775,-64.085,1,1,2,396,392,2025-06-06T09:41:01.911620
479,0.0078,-0.1513,-0.1235,-43.610,-48.545,-37.835,1,0,1,354,388,2025-06-06T09:41:01.911620
480,0.0049,-0.1025,-0.0366,-46.550,-55.755,-10.675,2,1,1,373,401,2025-06-06T09:41:01.911620
481,-0.0317,-0.0625,-0.0351,-67.760,-54.845,8.820,1,2,1,373,393,2025-06-06T09:41:01.911620
482,0.0966,0.1752,0.1762,-72.100,-42.770,30.415,1,2,1,381,383,2025-06-06T09:41:01.911620
483,0.0937,0.3899,0.1337,-85.960,-26.845,40.845,1,2,1,386,387,2025-06-06T09:41:01.911620
484,0.0542,0.5856,0.0381,-90.300,-16.345,46.760,1,1,1,388,394,2025-06-06T09:41:01.911620
485,0.1537,0.9287,-0.1113,-70.070,-15.435,52.395,1,1,1,395,394,2025-06-06T09:41:01.911620
486,0.0986,1.3074,-0.0371,-46.165,-29.470,51.205,2,2,1,378,383,2025-06-06T09:41:01.911620
487,0.1752,1.6324,0.0996,-29.225,-56.035,41.265,1,1,1,383,393,2025-06-06T09:41:02.028894
488,0.2455,1.9115,0.4953,-15.855,-64.855,31.150,2,1,1,393,387,2025-06-06T09:41:02.028894
489,0.2850,2.1145,0.6793,-14.455,-54.355,22.470,1,2,1,377,372,2025-06-06T09:41:02.028894
490,0.3094,2.2487,0.7735,-15.645,-30.765,11.410,2,2,2,384,375,2025-06-06T09:41:02.028894
491,0.3070,2.3761,0.7998,-19.670,-14.315,-0.245,2,1,1,393,372,2025-06-06T09:41:02.028894
492,0.1942,2.4595,0.6232,-15.960,-3.150,-15.400,2,1,1,401,383,2025-06-06T09:41:02.028894
493,0.1718,2.4693,0.5958,-14.385,3.745,-31.885,2,1,2,407,389,2025-06-06T09:41:02.028894
494,0.1322,2.3761,0.5061,-2.660,7.455,-48.545,2,1,1,390,397,2025-06-06T09:41:02.028894
495,0.1176,2.2014,0.4358,16.590,11.130,-60.375,2,1,2,397,393,2025-06-06T09:41:02.028894
496,0.1127,1.8930,0.2708,45.115,14.560,-70.910,2,1,2,384,404,2025-06-06T09:41:02.217983
497,0.1508,1.8105,0.2098,74.795,16.660,-77.490,2,2,1,396,407,2025-06-06T09:41:02.217983
498,0.1801,1.6060,0.2201,104.230,26.460,-79.065,2,2,1,384,394,2025-06-06T09:41:02.217983
499,0.1049,1.3225,0.0839,135.695,49.175,-79.030,1,2,2,395,381,2025-06-06T09:41:02.217983
500,0.1122,1.0360,-0.0229,210.035,81.865,-70.420,1,1,2,391,375,2025-06-06T09:41:02.217983
501,0.0742,0.7466,-0.1161,266.700,98.000,-63.665,1,2,1,378,392,2025-06-06T09:41:02.384519
502,0.0366,0.4509,-0.0307,227.080,35.980,-62.790,1,1,1,389,380,2025-06-06T09:41:02.384519
503,0.3255,0.1420,0.2420,310.730,-2.345,-45.465,1,1,2,390,350,2025-06-06T09:41:02.384519
504,0.2816,-0.0810,0.2216,404.110,-29.225,-28.630,1,1,2,385,370,2025-06-06T09:41:02.384519
505,0.2284,-0.2294,0.1732,323.925,-39.515,-25.060,1,1,1,379,379,2025-06-06T09:41:02.384519
506,0.2201,-0.4587,0.2176,86.380,4.690,-27.440,1,1,1,381,386,2025-06-06T09:41:02.384519
507,0.1825,-0.5929,0.3255,36.785,0.700,-31.080,1,1,2,348,350,2025-06-06T09:41:02.384519
508,-0.0752,-0.7710,0.2333,8.120,-24.115,-35.945,2,1,1,359,334,2025-06-06T09:41:02.384519
509,0.0420,-0.7657,0.2908,-195.930,-28.455,-33.950,2,1,1,361,368,2025-06-06T09:41:02.384519
510,0.1893,-0.7266,0.3406,-445.200,-19.075,-25.095,1,1,1,368,357,2025-06-06T09:41:02.384519
511,0.2840,-0.7584,0.2216,-273.210,-75.880,-7.945,1,1,1,378,391,2025-06-06T09:41:02.384519
512,0.1913,-0.3831,0.0259,-297.850,-161.315,-3.815,2,2,1,381,389,2025-06-06T09:41:02.384519
513,0.0752,-0.0049,-0.1122,-169.260,-103.600,16.100,2,2,1,388,364,2025-06-06T09:41:02.384519
514,-0.1054,0.5065,0.0015,-160.930,-50.785,46.445,2,1,2,348,373,2025-06-06T09:41:02.384519
515,-0.1854,0.9389,0.1025,-137.445,-46.025,57.155,2,2,2,377,387,2025-06-06T09:41:02.384519
516,-0.0800,1.3225,0.3416,-100.695,-61.635,68.145,1,1,1,385,396,2025-06-06T09:41:02.384519
517,0.0673,1.7905,0.5680,-75.250,-53.270,85.995,1,2,2,375,392,2025-06-06T09:41:02.429513
518,0.2025,2.3126,0.6920,-76.510,-33.565,102.515,1,2,2,397,385,2025-06-06T09:41:02.429513
519,0.0273,2.6830,0.6666,-77.315,-23.940,102.375,2,1,0,355,389,2025-06-06T09:41:02.429513
520,0.0805,2.8690,0.8808,-77.315,-17.885,88.725,2,2,2,384,388,2025-06-06T09:41:02.429513
521,-0.0156,2.8182,0.8403,-75.180,4.165,66.115,2,2,1,380,350,2025-06-06T09:41:02.429513
522,-0.0952,2.6630,0.6261,-53.445,30.345,41.825,0,2,1,369,362,2025-06-06T09:41:02.429513
523,-0.0429,2.4790,0.3694,-26.460,38.955,9.205,1,1,1,358,374,2025-06-06T09:41:02.429513
524,0.0093,2.1077,0.0381,-6.825,40.705,-20.475,1,2,0,337,385,2025-06-06T09:41:02.429513
525,-0.0151,1.7163,-0.2689,0.980,32.095,-45.605,2,2,1,371,385,2025-06-06T09:41:02.429513
526,0.1440,1.3659,-0.2582,17.990,12.740,-61.985,1,2,2,389,385,2025-06-06T09:41:02.429513
527,0.2538,1.0463,-0.0947,39.025,-4.235,-65.590,1,1,1,389,394,2025-06-06T09:41:02.429513
528,0.2162,0.8379,0.0220,52.430,-1.995,-64.820,2,2,1,383,391,2025-06-06T09:41:02.429513
529,0.2538,0.6939,0.2294,62.405,2.170,-64.155,2,2,2,386,392,2025-06-06T09:41:02.429513
530,0.1088,0.5768,0.2538,72.030,9.905,-64.190,1,2,2,394,392,2025-06-06T09:41:02.483487
531,0.0590,0.4665,0.2381,77.175,23.345,-65.835,1,2,1,397,397,2025-06-06T09:41:02.483487
532,0.0810,0.4168,0.3314,67.340,20.265,-63.770,1,1,1,396,403,2025-06-06T09:41:02.483487
533,0.1161,0.3855,0.3265,60.305,11.235,-60.060,1,2,1,383,407,2025-06-06T09:41:02.483487
534,0.1937,0.4158,0.2879,41.685,8.645,-49.595,2,2,1,381,399,2025-06-06T09:41:02.529283
535,0.0576,0.4226,0.2069,30.730,10.185,-38.815,1,2,1,384,392,2025-06-06T09:41:02.529283
536,-0.0337,0.4451,0.1942,20.125,0.840,-31.955,2,1,1,389,384,2025-06-06T09:41:02.529283
537,-0.0303,0.5144,0.1420,15.050,-9.800,-25.095,2,1,2,384,318,2025-06-06T09:41:02.529283
538,-0.0664,0.5812,0.0986,5.250,-12.215,-16.870,2,1,1,343,342,2025-06-06T09:41:02.637366
539,-0.0859,0.6232,0.1269,-2.765,-15.260,-8.470,2,1,1,365,374,2025-06-06T09:41:02.637366
540,-0.0586,0.6593,0.1405,-12.285,-22.295,-1.015,1,2,2,388,380,2025-06-06T09:41:02.637366
541,-0.0078,0.7271,0.1664,-18.760,-23.730,9.590,2,2,1,381,390,2025-06-06T09:41:02.637366
542,-0.0278,0.7950,0.1737,-23.765,-20.300,17.710,2,2,2,389,380,2025-06-06T09:41:02.637366
543,-0.1444,0.8472,0.1469,-28.420,-15.470,18.830,1,1,1,393,396,2025-06-06T09:41:02.637366
544,-0.1210,0.8867,0.1474,-26.075,-17.220,16.275,1,1,1,387,381,2025-06-06T09:41:02.637366
545,-0.0776,0.9575,0.1942,-25.235,-20.370,14.000,1,1,1,384,353,2025-06-06T09:41:02.637366
546,-0.0795,0.9965,0.2137,-28.805,-16.450,11.515,1,1,2,347,364,2025-06-06T09:41:02.637366
547,-0.1039,1.0102,0.1771,-28.035,-13.895,7.875,2,2,2,375,375,2025-06-06T09:41:02.831661
548,-0.0454,1.0414,0.2089,-25.340,-18.480,4.795,2,2,2,390,399,2025-06-06T09:41:02.831661
549,-0.0590,1.0707,0.1864,-23.450,-17.255,3.605,2,2,1,378,394,2025-06-06T09:41:02.831661
550,-0.1005,1.0707,0.1742,-23.415,-13.825,1.855,2,2,1,392,387,2025-06-06T09:41:02.831661
551,-0.0166,1.0726,0.2108,-21.245,-17.640,1.015,2,2,1,384,388,2025-06-06T09:41:02.831661
552,0.0376,1.0795,0.2347,-23.625,-16.730,2.310,1,1,1,375,382,2025-06-06T09:41:02.831661
553,-0.0073,1.0599,0.2191,-24.710,-10.325,2.590,2,2,1,391,391,2025-06-06T09:41:02.831661
554,-0.0366,1.0487,0.2435,-23.485,-11.095,0.315,1,1,1,380,388,2025-06-06T09:41:02.831661
555,-0.0151,1.0433,0.2577,-21.700,-13.125,-1.610,1,2,1,383,391,2025-06-06T09:41:02.831661
556,-0.0024,1.0126,0.2660,-12.075,-14.770,-1.820,1,1,1,365,381,2025-06-06T09:41:02.831661
557,-0.0088,1.0194,0.2991,-19.110,-7.665,-0.175,2,1,1,364,394,2025-06-06T09:41:02.831661
558,0.0215,0.9955,0.2650,-7.630,-19.145,-0.735,2,1,1,385,398,2025-06-06T09:41:02.831661
559,0.0468,1.0268,0.2796,-16.975,-13.300,1.050,2,2,1,392,362,2025-06-06T09:41:02.831661
560,-0.0059,0.9950,0.2630,-16.415,-13.545,1.085,1,0,1,349,369,2025-06-06T09:41:02.831661
561,0.0098,1.0053,0.2420,-9.345,-4.235,2.450,1,2,1,375,379,2025-06-06T09:41:02.831661
562,-0.0390,1.0009,0.2284,-19.705,-3.710,0.210,2,1,1,369,380,2025-06-06T09:41:02.831661
563,-0.0581,0.9780,0.2040,-9.380,-12.810,-3.290,1,2,2,378,385,2025-06-06T09:41:02.935695
564,-0.0581,0.9750,0.2245,-1.050,-5.005,-3.325,1,1,1,388,355,2025-06-06T09:41:02.935695
565,-0.0425,0.9662,0.2216,2.660,4.445,-2.345,2,2,1,377,365,2025-06-06T09:41:02.935695
566,-0.0351,0.9789,0.2528,-12.775,1.330,-4.340,2,1,2,397,383,2025-06-06T09:41:02.935695
567,-0.0259,0.9614,0.2728,17.710,-33.810,-6.755,1,1,1,390,392,2025-06-06T09:41:02.935695
568,-0.0068,0.9814,0.2948,-3.675,-7.035,-2.450,2,1,1,402,371,2025-06-06T09:41:02.935695
569,0.0078,0.9687,0.3026,-7.770,2.240,0.210,1,2,1,399,377,2025-06-06T09:41:02.935695
570,-0.0029,0.9638,0.2972,-0.945,-16.555,-2.310,2,1,1,382,383,2025-06-06T09:41:02.935695
571,0.0010,0.9794,0.3177,-4.305,-11.620,-1.750,2,1,1,388,399,2025-06-06T09:41:02.935695
572,0.0337,0.9838,0.3572,-16.135,4.445,-0.420,1,2,1,386,391,2025-06-06T09:41:03.035480
573,-0.0078,0.9853,0.2855,-10.080,-1.295,-2.485,1,2,2,393,391,2025-06-06T09:41:03.035480
574,-0.0405,0.9833,0.2562,-10.150,-8.435,-6.720,2,1,1,384,399,2025-06-06T09:41:03.035480
575,-0.0356,0.9814,0.2669,-9.205,-6.335,-8.925,2,2,1,380,328,2025-06-06T09:41:03.035480
576,-0.0556,0.9672,0.2318,-5.985,-6.370,-10.815,1,1,1,381,372,2025-06-06T09:41:03.035480
577,-0.0551,0.9477,0.2030,1.470,-9.835,-12.250,1,2,1,397,374,2025-06-06T09:41:03.035480
578,-0.0356,0.9472,0.2367,4.340,-11.060,-12.215,1,1,1,395,386,2025-06-06T09:41:03.035480
579,-0.0293,0.9496,0.2484,3.115,-7.175,-11.025,1,1,1,401,386,2025-06-06T09:41:03.035480
580,-0.0293,0.9550,0.2469,2.765,-6.790,-10.570,1,1,2,407,394,2025-06-06T09:41:03.035480
581,-0.0664,0.9599,0.2948,2.765,-4.235,-11.095,2,2,1,391,395,2025-06-06T09:41:03.256889
582,-0.0649,0.9633,0.3074,-0.665,-3.045,-12.145,1,2,1,386,387,2025-06-06T09:41:03.256889
583,-0.0669,0.9516,0.3099,-1.995,-3.780,-12.460,2,2,1,393,353,2025-06-06T09:41:03.256889
584,-0.0893,0.9477,0.2991,-2.975,-1.785,-12.355,1,2,1,396,371,2025-06-06T09:41:03.256889
585,-0.0815,0.9531,0.2738,-6.720,-3.500,-11.830,1,1,1,400,376,2025-06-06T09:41:03.256889
586,-0.0849,0.9453,0.2455,-2.240,-8.295,-10.990,1,2,1,400,383,2025-06-06T09:41:03.256889
587,-0.0771,0.9404,0.2416,0.945,-8.995,-8.575,1,1,1,396,401,2025-06-06T09:41:03.256889
588,-0.0561,0.9496,0.2718,-2.870,1.435,-3.815,1,1,1,351,382,2025-06-06T09:41:03.256889
589,-0.0600,0.9360,0.2786,-2.905,1.120,-0.315,1,1,1,360,360,2025-06-06T09:41:03.256889
590,-0.0805,0.9335,0.3099,-2.695,3.150,2.100,1,1,2,375,383,2025-06-06T09:41:03.256889
591,-0.0708,0.9326,0.3250,-8.330,4.305,3.220,2,2,1,344,389,2025-06-06T09:41:03.256889
592,-0.0815,0.9170,0.2991,-8.260,3.185,2.345,1,1,1,381,391,2025-06-06T09:41:03.256889
593,-0.0756,0.9189,0.2972,-12.495,-1.540,2.940,0,1,1,385,389,2025-06-06T09:41:03.256889
594,-0.0630,0.9282,0.2557,-17.605,-3.290,3.185,1,1,1,364,398,2025-06-06T09:41:03.256889
595,-0.0937,0.9204,0.2328,-9.625,1.820,4.270,2,2,1,388,409,2025-06-06T09:41:03.256889
596,-0.1088,0.9140,0.2625,-9.625,6.930,3.185,0,1,1,386,397,2025-06-06T09:41:03.256889
597,-0.0952,0.9301,0.2845,-8.750,-4.200,0.770,1,1,1,396,407,2025-06-06T09:41:03.256889
598,-0.0766,0.9228,0.3070,-7.525,-3.290,0.105,1,1,1,394,365,2025-06-06T09:41:03.342998
599,-0.0444,0.9111,0.3455,-7.770,-4.235,-0.280,2,2,2,400,377,2025-06-06T09:41:03.342998
600,-0.0220,0.9048,0.3694,-5.180,-2.310,0.000,1,2,1,405,383,2025-06-06T09:41:03.342998
601,-0.0146,0.9145,0.3577,-10.430,-2.485,-0.105,2,1,1,400,398,2025-06-06T09:41:03.342998
602,-0.0356,0.8969,0.3377,-8.190,2.380,0.105,1,2,1,400,408,2025-06-06T09:41:03.342998
603,-0.0181,0.8852,0.3479,-6.755,7.525,1.470,2,1,2,408,397,2025-06-06T09:41:03.342998
604,-0.0205,0.8935,0.3514,-10.185,9.695,2.345,2,2,1,393,384,2025-06-06T09:41:03.342998
605,-0.0673,0.8882,0.3065,-8.015,10.675,2.170,1,1,1,381,381,2025-06-06T09:41:03.342998
606,-0.0673,0.8730,0.2865,-3.885,10.850,2.380,2,2,1,389,379,2025-06-06T09:41:03.447161
607,-0.0586,0.8706,0.2669,-4.025,9.450,3.185,1,1,1,385,395,2025-06-06T09:41:03.447161
608,-0.0356,0.8633,0.2411,0.490,6.615,5.075,2,2,1,395,400,2025-06-06T09:41:03.447161
609,-0.0351,0.8623,0.2362,3.360,1.890,6.860,2,1,2,402,393,2025-06-06T09:41:03.447161
610,-0.0098,0.8750,0.2767,2.870,-0.315,8.645,2,2,1,403,390,2025-06-06T09:41:03.447161
611,0.0034,0.9013,0.3162,-0.490,-4.970,9.590,1,2,0,352,386,2025-06-06T09:41:03.447161
612,-0.0366,0.9043,0.3362,-8.190,-0.175,9.520,1,1,1,377,389,2025-06-06T09:41:03.447161
613,-0.0595,0.9072,0.3250,-13.825,8.400,9.730,1,1,1,366,395,2025-06-06T09:41:03.447161
614,-0.0551,0.8945,0.3226,-17.500,10.080,8.645,1,1,1,343,352,2025-06-06T09:41:03.447161
615,-0.0376,0.8784,0.3211,-23.345,5.740,8.645,1,2,2,327,377,2025-06-06T09:41:03.649588
616,-0.0332,0.8965,0.3060,-16.730,3.570,9.800,1,2,2,357,384,2025-06-06T09:41:03.649588
617,-0.0376,0.9145,0.3094,-22.680,7.070,9.800,1,1,2,390,405,2025-06-06T09:41:03.649588
618,-0.0449,0.9399,0.2752,-22.155,-1.015,8.400,2,2,2,390,391,2025-06-06T09:41:03.649588
619,-0.0986,0.9540,0.2503,-23.730,4.060,6.650,2,1,1,383,394,2025-06-06T09:41:03.649588
620,-0.0717,0.9384,0.2699,-26.985,8.050,5.740,2,2,2,377,355,2025-06-06T09:41:03.649588
621,-0.0356,0.9428,0.2952,-24.920,5.460,5.495,2,1,1,377,373,2025-06-06T09:41:03.649588
622,-0.0425,0.9536,0.3001,-28.420,3.885,5.670,1,1,1,392,395,2025-06-06T09:41:03.649588
623,-0.0425,0.9662,0.3113,-36.400,3.850,6.125,1,1,1,379,394,2025-06-06T09:41:03.649588
624,-0.0449,0.9506,0.3182,-32.480,-2.065,5.355,1,2,1,391,387,2025-06-06T09:41:03.649588
625,-0.0839,0.9487,0.3265,-25.760,0.245,5.530,1,1,1,380,390,2025-06-06T09:41:03.649588
626,-0.0791,0.9584,0.3396,-20.300,2.625,5.145,1,1,1,392,387,2025-06-06T09:41:03.649588
627,-0.0795,0.9350,0.3406,-21.455,1.330,3.500,1,2,1,388,392,2025-06-06T09:41:03.649588
628,-0.0561,0.9609,0.3850,-24.745,-0.910,3.010,1,1,1,374,351,2025-06-06T09:41:03.649588
629,-0.0405,0.9433,0.3767,-17.815,3.150,4.515,1,1,1,357,370,2025-06-06T09:41:03.649588
630,-0.0542,0.9536,0.3728,-28.770,4.865,5.110,1,1,1,377,385,2025-06-06T09:41:03.649588
631,-0.0605,0.9272,0.3816,-24.955,0.665,5.285,1,1,1,374,396,2025-06-06T09:41:03.649588
632,-0.0625,0.9301,0.3792,-24.395,-1.575,5.530,1,2,1,396,399,2025-06-06T09:41:03.914940
633,-0.0732,0.9087,0.4041,-18.095,-1.855,5.810,1,2,2,378,384,2025-06-06T09:41:03.914940
634,-0.0800,0.9316,0.4158,-22.190,-0.665,5.285,2,1,1,387,394,2025-06-06T09:41:03.914940
635,-0.0791,0.9101,0.4148,-16.625,-0.245,3.675,2,1,1,387,398,2025-06-06T09:41:03.914940
636,-0.0439,0.9082,0.3987,-12.040,2.205,4.305,1,2,2,351,385,2025-06-06T09:41:03.914940
637,0.0195,0.9140,0.4109,-15.610,5.005,5.880,1,1,1,376,381,2025-06-06T09:41:03.914940
638,0.0161,0.9135,0.4207,-13.125,1.190,6.790,1,1,1,385,390,2025-06-06T09:41:03.914940
639,0.0020,0.9238,0.4016,-13.965,3.325,8.575,1,2,1,393,387,2025-06-06T09:41:03.914940
640,-0.0195,0.9223,0.3841,-13.860,0.910,8.435,2,1,1,385,395,2025-06-06T09:41:03.914940
641,-0.0376,0.9209,0.3914,-9.240,-3.640,7.700,1,1,2,382,395,2025-06-06T09:41:03.914940
642,-0.0503,0.9340,0.3880,-4.865,-4.165,6.895,1,2,1,382,363,2025-06-06T09:41:03.914940
643,-0.0337,0.9306,0.4187,-2.660,-4.025,6.055,1,2,2,373,383,2025-06-06T09:41:03.914940
644,0.0185,0.9355,0.4460,0.735,-4.235,6.755,1,1,1,346,379,2025-06-06T09:41:03.914940
645,0.0366,0.9501,0.4670,3.045,-2.030,7.910,1,1,1,357,386,2025-06-06T09:41:03.914940
646,0.0303,0.9662,0.4616,2.695,1.295,8.785,1,1,1,365,389,2025-06-06T09:41:03.914940
647,0.0386,0.9950,0.4304,0.805,4.620,9.135,1,1,1,374,392,2025-06-06T09:41:03.914940
648,0.0742,0.9775,0.4592,-2.695,6.440,10.465,2,1,1,373,380,2025-06-06T09:41:03.914940
649,0.0688,1.0048,0.4841,-2.625,7.910,11.515,1,2,2,382,382,2025-06-06T09:41:03.914940
650,0.0649,1.0136,0.5153,-3.185,11.690,11.095,1,1,1,385,384,2025-06-06T09:41:04.071409
651,0.0493,1.0272,0.4914,-6.475,12.040,9.345,2,2,2,381,387,2025-06-06T09:41:04.218035
652,0.0464,1.0311,0.5022,-7.140,11.305,6.370,1,1,1,389,396,2025-06-06T09:41:04.218035
653,0.0961,1.0502,0.5134,-9.240,10.325,3.955,1,1,1,384,391,2025-06-06T09:41:04.218035
654,0.1322,1.0653,0.5363,-9.030,9.905,2.205,1,2,1,352,360,2025-06-06T09:41:04.218035
655,0.1274,1.0638,0.5675,-11.165,12.530,0.700,1,1,1,371,381,2025-06-06T09:41:04.218035
656,0.1352,1.0580,0.5495,-12.880,15.225,-0.455,1,1,2,386,383,2025-06-06T09:41:04.218035
657,0.1098,1.0565,0.4934,-14.525,18.235,-2.065,1,1,1,394,364,2025-06-06T09:41:04.218035
658,0.0805,1.0277,0.4568,-18.515,19.495,-4.725,2,2,1,386,381,2025-06-06T09:41:04.218035
659,0.1225,0.9809,0.4402,-19.985,19.495,-5.775,1,1,1,387,381,2025-06-06T09:41:04.218035
660,0.1835,0.9374,0.4455,-20.370,15.540,-4.305,1,1,1,395,381,2025-06-06T09:41:04.218035
661,0.2406,0.9111,0.4831,-17.010,9.065,8.260,1,1,1,350,352,2025-06-06T09:41:04.218035
662,0.2201,0.9101,0.4250,-12.320,7.735,4.410,1,1,1,363,365,2025-06-06T09:41:04.218035
663,0.2030,0.9316,0.4826,-8.820,4.095,6.825,1,1,1,372,385,2025-06-06T09:41:04.218035
664,0.1879,0.9462,0.5158,-14.315,5.285,6.930,1,1,1,380,383,2025-06-06T09:41:04.218035
665,0.1776,0.9438,0.5309,-10.220,10.640,5.180,2,1,1,392,366,2025-06-06T09:41:04.218035
666,0.1928,0.9023,0.5373,-15.085,19.670,2.380,2,2,2,391,380,2025-06-06T09:41:04.218035
667,0.2123,0.8808,0.5553,-11.760,26.180,-0.070,2,1,1,403,386,2025-06-06T09:41:04.321464
668,0.1830,0.8740,0.4524,-10.360,30.800,-1.890,1,1,1,397,390,2025-06-06T09:41:04.321464
669,0.0303,0.6246,0.4075,-16.345,26.215,-5.775,2,2,1,384,396,2025-06-06T09:41:04.321464
670,0.2006,0.8111,0.4065,-4.620,14.455,-4.970,2,2,1,395,391,2025-06-06T09:41:04.321464
671,0.0673,0.7647,0.2411,-5.810,5.355,-7.980,1,1,1,400,404,2025-06-06T09:41:04.321464
672,0.2225,0.7281,0.4368,5.705,-12.075,-8.610,1,1,1,387,362,2025-06-06T09:41:04.321464
673,0.1542,0.7608,0.4436,8.925,-20.090,-11.830,1,1,1,386,375,2025-06-06T09:41:04.321464
674,0.1352,0.7823,0.4738,14.525,-23.485,-17.745,1,2,1,380,381,2025-06-06T09:41:04.321464
675,0.0420,0.7344,0.3592,12.915,-29.505,-28.315,0,1,1,386,354,2025-06-06T09:41:04.321464
676,0.0952,0.7969,0.3221,22.610,-36.365,-38.115,1,1,1,393,367,2025-06-06T09:41:04.321464
677,0.0381,0.7979,0.3845,17.990,-42.770,-46.550,1,1,1,390,377,2025-06-06T09:41:04.321464
678,-0.0098,0.7149,0.2991,13.720,-55.230,-53.060,1,2,1,380,378,2025-06-06T09:41:04.321464
679,0.1244,0.8481,0.2523,38.360,-63.945,-47.635,1,1,1,384,382,2025-06-06T09:41:04.321464
680,-0.1122,0.9487,0.8789,1.260,-79.800,-55.790,2,1,1,398,387,2025-06-06T09:41:04.321464
681,0.0151,0.9087,0.4402,37.590,-98.140,-51.800,1,1,1,398,398,2025-06-06T09:41:04.321464
682,0.3558,0.8623,0.3938,89.075,-96.635,-57.400,2,1,0,361,395,2025-06-06T09:41:04.321464
683,0.0810,0.8135,0.4748,7.245,-94.990,-57.330,1,2,1,374,394,2025-06-06T09:41:04.321464
684,0.0322,1.1941,0.3284,85.505,-86.765,-57.330,2,2,1,345,394,2025-06-06T09:41:04.476215
685,-0.1157,1.1995,0.6407,54.915,-96.985,-66.045,2,1,1,367,393,2025-06-06T09:41:04.476215
686,-0.1010,1.2839,0.5910,38.815,-115.290,-70.315,2,2,2,390,405,2025-06-06T09:41:04.476215
687,-0.1591,1.1619,0.4748,14.735,-169.330,-70.105,1,1,2,384,407,2025-06-06T09:41:04.476215
688,-0.2450,1.0370,0.0059,24.605,-201.145,-68.705,1,2,2,390,396,2025-06-06T09:41:04.476215
689,-0.7037,0.9706,0.2611,51.170,-188.580,-77.455,2,2,1,386,401,2025-06-06T09:41:04.476215
690,-0.6427,1.0277,0.3821,76.440,-182.980,-99.085,1,2,1,380,329,2025-06-06T09:41:04.476215
691,-0.1586,0.9428,0.6651,57.785,-185.010,-109.410,2,2,2,391,365,2025-06-06T09:41:04.476215
692,0.2162,0.5588,0.4738,36.435,-156.695,-100.240,1,2,1,392,385,2025-06-06T09:41:04.476215
693,0.3958,0.7203,0.4573,47.775,-139.720,-80.045,1,1,1,388,350,2025-06-06T09:41:04.476215
694,0.1986,1.1917,0.5344,63.455,-113.365,-51.870,1,1,1,357,360,2025-06-06T09:41:04.476215
695,-0.2713,1.2185,0.4382,73.710,-113.295,-50.015,2,2,1,380,345,2025-06-06T09:41:04.476215
696,-0.3362,0.8262,0.4475,50.295,-120.820,-56.420,1,0,1,388,366,2025-06-06T09:41:04.476215
697,-0.2333,0.7847,0.3372,29.015,-122.360,-61.670,1,2,1,396,350,2025-06-06T09:41:04.476215
698,-0.3187,0.9008,0.3431,38.780,-121.450,-69.405,0,1,1,383,373,2025-06-06T09:41:04.476215
699,-0.3382,0.8921,0.3284,55.615,-125.755,-82.565,2,1,2,396,389,2025-06-06T09:41:04.476215
700,-0.2538,0.9301,0.3943,63.525,-139.930,-94.920,2,1,2,389,389,2025-06-06T09:41:04.530197
701,-0.2367,0.9809,0.5085,57.190,-157.290,-104.930,1,1,2,405,391,2025-06-06T09:41:04.530197
702,-0.0761,0.9130,0.5075,67.795,-170.975,-108.955,2,2,1,392,399,2025-06-06T09:41:04.530197
703,0.0376,0.8979,0.5602,76.510,-161.105,-102.655,1,2,2,395,394,2025-06-06T09:41:04.530197
704,0.0893,0.9262,0.6564,89.075,-158.970,-96.740,2,2,1,395,396,2025-06-06T09:41:04.530197
705,0.0669,0.9243,0.6246,99.505,-151.725,-94.850,2,2,2,357,392,2025-06-06T09:41:04.581019
706,-0.0883,0.9409,0.6032,113.540,-127.120,-94.430,2,1,1,377,393,2025-06-06T09:41:04.581019
707,-0.1015,0.9638,0.7520,123.760,-131.040,-102.025,2,2,1,376,392,2025-06-06T09:41:04.581019
708,-0.2103,0.9838,0.6495,121.835,-117.110,-107.485,1,2,1,384,352,2025-06-06T09:41:04.581019
709,-0.2489,0.9955,0.5690,128.520,-111.510,-118.265,1,1,1,383,358,2025-06-06T09:41:04.661370
710,-0.2435,0.9623,0.4426,135.415,-109.935,-127.260,2,1,1,383,373,2025-06-06T09:41:04.661370
711,-0.3743,1.0477,0.2547,147.875,-119.980,-136.465,2,1,2,395,377,2025-06-06T09:41:04.661370
712,-0.3514,1.1107,0.2425,137.515,-138.670,-129.885,2,2,2,355,380,2025-06-06T09:41:04.661370
713,-0.3416,1.0814,0.2733,133.315,-150.325,-126.385,1,1,1,375,347,2025-06-06T09:41:04.661370
714,-0.3074,1.0707,0.4294,124.600,-152.320,-121.240,2,1,1,380,368,2025-06-06T09:41:04.661370
715,-0.3845,1.0487,0.5285,119.315,-136.675,-124.845,2,1,1,396,345,2025-06-06T09:41:04.661370
716,-0.4968,1.0126,0.4597,114.660,-106.855,-132.090,1,1,1,381,369,2025-06-06T09:41:04.723936
717,-0.6266,0.9326,0.2635,114.100,-94.570,-140.210,2,2,1,390,348,2025-06-06T09:41:04.723936
718,-0.5885,0.8638,0.1122,111.895,-99.925,-141.155,2,1,1,389,371,2025-06-06T09:41:04.723936
719,-0.6900,0.7862,0.0615,113.225,-111.755,-138.390,1,2,2,390,377,2025-06-06T09:41:04.723936
720,-0.7115,0.7198,0.1669,107.835,-127.435,-136.080,1,1,1,379,370,2025-06-06T09:41:04.723936
721,-0.6925,0.6564,0.2752,99.470,-130.585,-134.470,2,1,1,393,377,2025-06-06T09:41:04.991886
722,-0.7603,0.5915,0.3162,93.485,-123.515,-132.685,1,1,2,399,381,2025-06-06T09:41:04.991886
723,-0.8203,0.4929,0.3894,88.165,-105.525,-128.170,1,2,1,389,391,2025-06-06T09:41:04.991886
724,-0.8418,0.3762,0.3128,81.095,-86.205,-117.775,2,1,1,393,390,2025-06-06T09:41:04.991886
725,-0.9394,0.3001,0.2640,72.520,-77.560,-100.205,2,1,2,402,400,2025-06-06T09:41:04.991886
726,-1.0009,0.1230,0.1610,67.375,-77.140,-76.055,1,1,1,402,406,2025-06-06T09:41:04.991886
727,-1.0272,-0.0268,0.1313,71.890,-80.570,-42.000,1,1,1,397,394,2025-06-06T09:41:04.991886
728,-1.1522,-0.1298,0.3084,75.845,-84.420,-19.040,0,1,1,385,395,2025-06-06T09:41:04.991886
729,-1.2952,-0.2396,0.4494,70.035,-85.050,11.480,2,1,1,394,397,2025-06-06T09:41:04.991886
730,-1.4010,-0.3109,0.5549,59.885,-76.370,39.795,1,1,1,395,403,2025-06-06T09:41:04.991886
731,-1.4450,-0.3182,0.5256,57.155,-50.330,68.530,1,1,1,387,396,2025-06-06T09:41:04.991886
732,-1.4943,-0.2460,0.4006,50.050,-23.275,95.410,2,1,2,389,400,2025-06-06T09:41:04.991886
733,-1.4904,-0.2094,0.1967,33.390,2.030,114.345,1,1,1,391,389,2025-06-06T09:41:04.991886
734,-1.5553,-0.1996,0.1137,19.775,18.585,133.665,2,2,1,381,392,2025-06-06T09:41:04.991886
735,-1.6392,-0.2601,0.1371,0.000,34.895,151.235,2,1,1,366,404,2025-06-06T09:41:04.991886
736,-1.5592,-0.4089,0.1552,-10.780,40.775,173.355,2,1,1,388,407,2025-06-06T09:41:04.991886
737,-1.5474,-0.4612,0.2430,-24.290,46.095,201.285,2,1,2,386,375,2025-06-06T09:41:04.991886
738,-1.4162,-0.5041,0.2523,-31.780,48.230,238.140,2,1,1,381,388,2025-06-06T09:41:04.991886
739,-1.2883,-0.4870,0.0649,-54.880,42.560,268.940,2,2,1,384,387,2025-06-06T09:41:04.991886
740,-1.0551,-0.5348,-0.1196,-52.920,20.860,311.885,2,1,2,382,399,2025-06-06T09:41:04.991886
741,-0.7442,-0.6456,-0.0034,-35.490,-1.295,366.765,1,2,1,384,365,2025-06-06T09:41:04.991886
742,-0.2869,-0.6739,-0.1459,-10.815,-29.610,429.065,2,2,1,343,364,2025-06-06T09:41:04.991886
743,0.3177,-0.6085,-0.1576,26.670,-45.465,488.460,2,2,2,358,339,2025-06-06T09:41:05.090849
744,1.3025,-0.3070,0.1000,83.965,-26.040,555.520,2,1,1,379,366,2025-06-06T09:41:05.090849
745,1.3288,0.1645,0.5553,89.810,5.635,571.585,2,2,1,391,382,2025-06-06T09:41:05.090849
746,1.7958,0.5817,0.7203,90.160,81.130,566.370,1,2,1,396,385,2025-06-06T09:41:05.090849
747,0.9306,0.6056,0.8198,0.490,153.230,507.395,2,2,2,387,400,2025-06-06T09:41:05.090849
748,0.8847,0.2772,0.0752,-28.910,175.385,432.110,1,2,1,396,394,2025-06-06T09:41:05.090849
749,0.8325,-0.0059,-0.4719,-38.955,110.390,351.680,1,2,0,360,365,2025-06-06T09:41:05.090849
750,2.0735,-0.1693,-0.1220,24.675,26.110,300.790,1,1,1,378,394,2025-06-06T09:41:05.090849
751,1.7944,-0.2391,0.0342,-16.450,-18.305,240.240,2,2,1,389,397,2025-06-06T09:41:05.187148
752,2.5908,-0.1566,0.3138,35.910,-51.590,203.490,2,2,2,395,388,2025-06-06T09:41:05.187148
753,2.6435,0.4255,0.4773,8.365,-34.685,163.170,1,1,1,385,384,2025-06-06T09:41:05.187148
754,2.9148,0.6744,0.7974,-23.555,17.535,132.440,2,2,1,390,399,2025-06-06T09:41:05.187148
755,2.6518,0.9277,0.7300,-60.095,81.795,90.895,2,2,1,392,367,2025-06-06T09:41:05.187148
756,2.3556,1.0380,0.3518,-58.800,117.390,40.285,2,1,2,395,388,2025-06-06T09:41:05.187148
757,1.9388,1.1658,-0.2147,-39.095,97.335,-14.035,2,1,1,386,396,2025-06-06T09:41:05.187148
758,2.2087,1.1673,-0.0610,1.680,38.290,-54.670,1,1,1,378,360,2025-06-06T09:41:05.187148
759,2.3883,1.1829,-0.2391,7.980,15.855,-75.775,2,1,2,389,383,2025-06-06T09:41:05.290757
760,2.6825,1.3020,0.1366,20.370,8.575,-104.965,1,2,2,357,374,2025-06-06T09:41:05.290757
761,2.8055,1.3230,0.6061,5.705,40.075,-115.150,1,1,1,367,395,2025-06-06T09:41:05.290757
762,2.3741,1.3766,0.4724,-10.535,96.180,-137.655,1,1,1,371,394,2025-06-06T09:41:05.290757
763,2.0374,1.3640,0.1937,0.770,118.335,-169.925,1,1,1,373,385,2025-06-06T09:41:05.290757
764,1.6865,1.1829,-0.0224,34.790,92.400,-206.220,1,2,1,385,382,2025-06-06T09:41:05.290757
765,1.4386,1.0785,-0.0556,64.085,51.520,-236.705,1,1,1,395,393,2025-06-06T09:41:05.290757
766,1.2722,0.9765,-0.0932,84.665,9.975,-262.010,1,1,1,405,395,2025-06-06T09:41:05.290757
767,1.2005,0.9038,0.0327,88.340,-28.770,-273.000,1,1,1,405,380,2025-06-06T09:41:05.290757
768,0.9970,0.8345,0.0854,74.060,-45.850,-280.630,2,2,2,400,399,2025-06-06T09:41:05.496068
769,0.9345,0.6573,0.1030,68.110,-52.395,-280.105,2,2,1,392,400,2025-06-06T09:41:05.496068
770,0.8140,0.5353,0.2045,63.175,-41.055,-270.480,2,1,1,389,400,2025-06-06T09:41:05.496068
771,0.7896,0.3631,0.1532,65.240,-35.140,-252.385,2,1,1,395,402,2025-06-06T09:41:05.496068
772,0.3928,0.3162,0.1088,67.900,-30.275,-234.325,2,2,1,388,396,2025-06-06T09:41:05.496068
773,0.1249,0.2284,0.1108,66.045,-36.155,-222.530,1,1,1,397,399,2025-06-06T09:41:05.496068
774,-0.0625,0.2167,0.1928,56.000,-44.695,-212.730,1,2,1,398,406,2025-06-06T09:41:05.496068
775,-0.1405,0.2020,0.1186,45.150,-54.180,-200.235,2,0,1,404,403,2025-06-06T09:41:05.496068
776,-0.2904,0.2489,0.0381,39.375,-58.520,-187.215,2,2,1,367,390,2025-06-06T09:41:05.496068
777,-0.3221,0.2411,0.0683,45.255,-66.745,-177.135,2,2,1,386,366,2025-06-06T09:41:05.496068
778,-0.5466,0.3001,0.1225,45.080,-67.095,-167.230,1,1,1,392,348,2025-06-06T09:41:05.496068
779,-0.6920,0.3767,0.1542,37.835,-70.245,-165.340,2,2,2,384,336,2025-06-06T09:41:05.496068
780,-0.6676,0.4060,0.1571,33.075,-68.880,-162.330,2,2,1,388,357,2025-06-06T09:41:05.496068
781,-0.7452,0.4709,0.1576,25.690,-61.040,-157.395,2,1,2,398,370,2025-06-06T09:41:05.496068
782,-0.7471,0.4865,0.0532,23.590,-56.875,-151.865,2,1,1,357,368,2025-06-06T09:41:05.496068
783,-0.7300,0.4734,-0.0468,27.790,-48.895,-139.580,1,1,1,374,378,2025-06-06T09:41:05.496068
784,-0.9272,0.5129,-0.1488,25.235,-50.750,-128.870,2,2,2,377,388,2025-06-06T09:41:05.496068
785,-0.9252,0.5236,-0.2001,24.290,-57.400,-118.580,2,2,1,378,402,2025-06-06T09:41:05.549140
786,-0.9555,0.5622,-0.2059,25.340,-62.405,-107.205,2,2,1,383,399,2025-06-06T09:41:05.549140
787,-0.9926,0.6120,-0.1347,17.745,-63.035,-90.580,1,2,1,381,383,2025-06-06T09:41:05.549140
788,-0.8950,0.6051,-0.1054,15.715,-52.430,-87.955,2,2,2,386,392,2025-06-06T09:41:05.549140
789,-0.8481,0.6212,-0.0776,14.490,-35.245,-74.655,2,2,2,394,396,2025-06-06T09:41:05.713795
790,-0.7720,0.6832,-0.0376,10.745,-19.530,-60.690,2,1,2,400,372,2025-06-06T09:41:05.713795
791,-0.8198,0.7213,-0.0942,2.625,-7.805,-49.035,1,1,1,391,387,2025-06-06T09:41:05.713795
792,-0.7798,0.7135,-0.1362,-3.080,-3.255,-37.380,2,1,1,384,384,2025-06-06T09:41:05.713795
793,-0.7408,0.7032,-0.1098,-13.055,-2.170,-25.760,1,2,1,384,383,2025-06-06T09:41:05.713795
794,-0.6227,0.6759,-0.2137,-10.990,-8.645,-8.225,2,2,1,396,388,2025-06-06T09:41:05.713795
795,-0.5929,0.7013,-0.2152,-11.690,-16.065,10.010,1,1,1,387,383,2025-06-06T09:41:05.713795
796,-0.5524,0.7247,-0.1347,-11.725,-23.975,24.605,2,1,2,386,381,2025-06-06T09:41:05.713795
797,-0.5427,0.7603,-0.0537,-12.110,-21.700,34.475,2,1,1,376,350,2025-06-06T09:41:05.713795
798,-0.5319,0.8286,0.0185,-12.565,-13.615,38.675,2,1,1,370,381,2025-06-06T09:41:05.713795
799,-0.5090,0.8808,0.0551,-17.115,-0.280,37.940,1,1,1,385,396,2025-06-06T09:41:05.713795
800,-0.5100,0.9018,0.0293,-20.370,13.230,34.125,1,1,1,389,405,2025-06-06T09:41:05.713795
801,-0.5305,0.9067,-0.0039,-20.860,18.620,26.355,1,1,1,391,361,2025-06-06T09:41:06.117690
802,-0.5236,0.9179,-0.0864,-17.850,16.835,18.515,1,2,1,377,370,2025-06-06T09:41:06.117690
803,-0.5344,0.9199,-0.0908,-15.610,6.825,9.590,1,1,2,395,385,2025-06-06T09:41:06.117690
804,-0.4919,0.8813,-0.0986,-16.975,-7.280,1.680,1,1,1,399,392,2025-06-06T09:41:06.117690
805,-0.3489,0.8725,-0.0556,-10.115,-17.885,-1.645,1,1,1,380,397,2025-06-06T09:41:06.117690
806,-0.3172,0.9350,-0.0390,-5.145,-17.605,-4.130,2,2,2,377,404,2025-06-06T09:41:06.117690
807,-0.3245,0.9516,-0.0185,-4.515,-15.155,-8.540,2,2,2,389,407,2025-06-06T09:41:06.117690
808,-0.2640,0.9272,0.0224,-2.310,-7.280,-9.345,1,1,0,364,328,2025-06-06T09:41:06.117690
809,-0.2982,0.9462,0.0634,-1.295,-4.025,-9.765,1,1,1,370,361,2025-06-06T09:41:06.117690
810,-0.3396,0.9360,0.0761,-4.865,-0.700,-10.535,1,1,2,389,370,2025-06-06T09:41:06.117690
811,-0.3123,0.9335,0.0981,-3.500,1.365,-9.345,1,1,2,397,384,2025-06-06T09:41:06.117690
812,-0.3538,0.9467,0.0688,-4.935,2.415,-9.135,2,2,2,405,390,2025-06-06T09:41:06.117690
813,-0.3621,0.9292,0.0117,-3.465,3.395,-9.275,2,1,1,403,385,2025-06-06T09:41:06.117690
814,-0.3479,0.9570,-0.0098,-1.820,4.550,-7.140,2,1,2,390,388,2025-06-06T09:41:06.117690
815,-0.3514,0.9682,-0.0830,-2.135,2.100,-5.530,2,2,2,391,391,2025-06-06T09:41:06.117690
816,-0.3640,0.9589,-0.0888,0.945,-1.925,-2.695,2,1,1,385,382,2025-06-06T09:41:06.117690
817,-0.3372,0.9701,-0.0669,4.060,-3.815,0.000,1,1,1,371,380,2025-06-06T09:41:06.117690
818,-0.3684,0.9687,-0.0366,3.465,-3.185,1.645,1,1,2,384,388,2025-06-06T09:41:06.117690
819,-0.4085,0.9521,-0.0190,3.465,-0.210,0.560,1,1,2,393,392,2025-06-06T09:41:06.117690
820,-0.3919,0.9618,-0.0156,3.850,1.085,-0.525,1,2,1,396,393,2025-06-06T09:41:06.117690
821,-0.4041,0.9462,-0.0376,0.420,1.785,-3.150,2,1,2,385,383,2025-06-06T09:41:06.117690
822,-0.4070,0.8589,-0.0698,-0.980,1.575,-4.690,1,1,1,375,379,2025-06-06T09:41:06.117690
823,-0.4431,0.7027,-0.0371,-5.110,-0.630,-5.495,2,2,2,390,401,2025-06-06T09:41:06.117690
824,-0.2743,0.9238,-0.0986,-0.175,-6.230,8.750,1,1,1,384,393,2025-06-06T09:41:06.117690
825,-0.4573,0.9111,-0.1562,2.345,-14.770,1.190,1,2,1,381,381,2025-06-06T09:41:06.117690
826,-0.3826,0.8272,-0.0561,-3.745,-25.830,0.665,1,2,1,374,381,2025-06-06T09:41:06.117690
827,-0.3226,0.8642,0.0044,-0.210,-28.630,5.075,1,1,1,387,379,2025-06-06T09:41:06.117690
828,-0.2957,0.8623,0.0400,-0.805,-25.025,9.170,1,1,1,361,375,2025-06-06T09:41:06.117690
829,-0.3235,0.8823,0.0673,-2.625,-14.770,10.500,1,1,1,380,393,2025-06-06T09:41:06.117690
830,-0.3523,0.8911,0.0498,-3.220,-7.035,9.205,1,2,1,389,383,2025-06-06T09:41:06.117690
831,-0.3748,0.9004,-0.0054,-3.955,-2.520,6.965,1,1,1,393,399,2025-06-06T09:41:06.117690
832,-0.3845,0.9252,-0.0503,-3.570,-1.085,4.830,2,1,2,395,391,2025-06-06T09:41:06.117690
833,-0.3880,0.9140,-0.0839,-3.780,-4.830,2.590,2,1,1,394,401,2025-06-06T09:41:06.117690
834,-0.4089,0.9057,-0.0732,-1.610,-11.445,-0.630,1,1,1,394,393,2025-06-06T09:41:06.117690
835,-0.4158,0.9213,-0.0420,0.455,-18.760,-4.340,2,1,1,398,399,2025-06-06T09:41:06.117690
836,-0.3826,0.9209,-0.0551,0.875,-23.800,-6.860,1,2,1,399,386,2025-06-06T09:41:06.167953
837,-0.3489,0.9213,-0.0454,5.845,-28.350,-7.315,1,2,1,389,398,2025-06-06T09:41:06.167953
838,-0.3348,0.9321,-0.0171,5.775,-30.065,-6.580,2,2,1,394,403,2025-06-06T09:41:06.167953
839,-0.3309,0.9404,-0.0024,9.065,-29.505,-5.320,2,1,2,392,394,2025-06-06T09:41:06.167953
840,-0.3387,0.9501,0.0332,8.365,-24.640,-3.885,1,2,2,397,381,2025-06-06T09:41:06.167953
841,-0.3743,0.9482,0.0312,6.790,-17.675,-3.920,1,1,1,391,380,2025-06-06T09:41:06.215255
842,-0.3982,0.9374,-0.0020,8.295,-16.065,-5.355,1,2,2,397,397,2025-06-06T09:41:06.215255
843,-0.4026,0.9331,-0.0044,7.350,-15.260,-6.685,2,2,2,403,387,2025-06-06T09:41:06.215255
844,-0.4241,0.9111,-0.0346,4.445,-16.450,-7.840,2,1,1,391,351,2025-06-06T09:41:06.215255
845,-0.4070,0.9052,-0.0478,5.950,-19.810,-8.505,1,1,1,343,360,2025-06-06T09:41:06.312259
846,-0.3953,0.9345,-0.0171,7.490,-21.280,-7.665,1,2,1,331,371,2025-06-06T09:41:06.312259
847,-0.3860,0.9257,-0.0151,4.480,-24.535,-7.875,2,2,1,352,389,2025-06-06T09:41:06.312259
848,-0.3723,0.9130,0.0029,4.165,-26.565,-7.630,2,2,1,376,405,2025-06-06T09:41:06.312259
849,-0.3611,0.9150,0.0146,1.400,-25.935,-7.175,2,2,1,386,407,2025-06-06T09:41:06.312259
850,-0.3426,0.8930,0.0068,-1.295,-22.050,-5.985,1,1,1,376,331,2025-06-06T09:41:06.312259
851,-0.3196,0.8784,-0.0132,8.295,-19.495,-4.130,1,2,1,383,369,2025-06-06T09:41:06.312259
852,-0.3182,0.8706,-0.0307,6.335,-19.950,-1.890,2,1,2,394,345,2025-06-06T09:41:06.312259
853,-0.3797,0.8843,0.0029,5.425,-20.335,-1.680,1,2,1,394,344,2025-06-06T09:41:06.415479
854,-0.3924,0.8316,0.0039,-2.205,-21.035,-2.415,2,1,1,396,338,2025-06-06T09:41:06.415479
855,-0.4046,0.8062,0.0215,-1.540,-23.450,-2.625,2,1,2,387,328,2025-06-06T09:41:06.415479
856,-0.3992,0.7998,-0.0122,0.000,-26.880,-2.485,2,1,1,385,354,2025-06-06T09:41:06.415479
857,-0.3933,0.8852,-0.0449,2.520,-27.195,0.980,2,2,1,384,363,2025-06-06T09:41:06.415479
858,-0.4597,0.8272,-0.0303,-2.660,-31.815,0.980,2,1,2,380,339,2025-06-06T09:41:06.415479
859,-0.3963,0.7910,-0.1069,0.700,-32.970,5.040,1,2,1,341,369,2025-06-06T09:41:06.415479
860,-0.3972,0.8569,-0.0288,1.120,-29.260,11.025,2,1,1,301,376,2025-06-06T09:41:06.415479
861,-0.3826,0.8794,-0.0346,0.805,-28.770,16.240,1,2,1,340,383,2025-06-06T09:41:06.415479
862,-0.3797,0.8286,-0.0137,1.400,-26.775,19.110,2,1,2,370,392,2025-06-06T09:41:06.528678
863,-0.4050,0.8257,0.0044,1.190,-24.570,22.610,2,2,1,341,373,2025-06-06T09:41:06.528678
864,-0.4358,0.8950,0.0698,-2.485,-23.275,23.800,1,1,2,378,387,2025-06-06T09:41:06.528678
865,-0.4582,0.8872,0.0229,-6.300,-25.165,23.555,1,1,1,393,381,2025-06-06T09:41:06.528678
866,-0.4246,0.8911,0.0454,-8.785,-27.685,21.980,2,1,1,380,399,2025-06-06T09:41:06.528678
867,-0.4250,0.9140,0.0683,-10.675,-28.245,20.090,2,1,1,392,407,2025-06-06T09:41:06.528678
868,-0.4114,0.9345,0.0952,-11.655,-27.650,17.185,1,1,1,387,391,2025-06-06T09:41:06.528678
869,-0.3616,0.9453,0.1137,-14.350,-24.185,15.260,1,2,1,384,389,2025-06-06T09:41:06.528678
870,-0.3719,0.9994,0.1342,-15.890,-20.825,13.790,2,2,1,390,388,2025-06-06T09:41:06.528678
871,-0.3933,1.0609,0.1669,-15.820,-17.220,12.215,2,2,2,380,360,2025-06-06T09:41:06.528678
872,-0.3919,1.0673,0.1684,-14.385,-15.645,9.695,2,2,1,349,362,2025-06-06T09:41:06.580057
873,-0.4011,1.0350,0.1810,-9.940,-12.880,7.175,2,2,1,370,384,2025-06-06T09:41:06.580057
874,-0.4163,0.9897,0.1430,-9.625,-10.080,1.715,1,1,1,374,362,2025-06-06T09:41:06.580057
875,-0.3777,0.9321,0.1030,-6.685,-6.755,-3.150,2,2,2,381,384,2025-06-06T09:41:06.580057
876,-0.3440,0.9072,0.0791,-4.410,-2.940,-6.125,2,2,1,385,387,2025-06-06T09:41:06.726313
877,-0.3821,0.8891,0.0708,-2.205,0.980,-8.820,2,2,1,382,388,2025-06-06T09:41:06.726313
878,-0.3850,0.8633,0.0503,-0.070,2.905,-10.255,2,1,1,388,392,2025-06-06T09:41:06.726313
879,-0.3836,0.8491,0.0586,2.205,2.870,-10.045,1,1,2,395,396,2025-06-06T09:41:06.726313
880,-0.4246,0.8311,0.0878,2.625,0.385,-10.010,2,2,1,398,401,2025-06-06T09:41:06.726313
881,-0.4529,0.8067,0.1152,2.660,-1.225,-9.800,2,1,1,395,399,2025-06-06T09:41:06.726313
882,-0.4573,0.7993,0.1347,2.450,-3.220,-8.960,1,1,1,394,402,2025-06-06T09:41:06.726313
883,-0.4368,0.7930,0.1591,-0.560,-1.925,-6.685,2,2,1,390,388,2025-06-06T09:41:06.726313
884,-0.3967,0.7803,0.1645,-0.945,0.770,-2.135,1,1,1,386,385,2025-06-06T09:41:06.726313
885,-0.3694,0.8125,0.1869,-2.940,8.085,3.535,2,1,1,385,389,2025-06-06T09:41:06.726313
886,-0.4016,0.8433,0.1776,-7.245,14.595,6.650,2,1,1,392,366,2025-06-06T09:41:06.726313
887,-0.4207,0.8594,0.1552,-10.010,23.660,8.155,1,1,2,389,378,2025-06-06T09:41:06.726313
888,-0.4397,0.8804,0.1337,-13.265,29.120,8.645,2,2,2,400,393,2025-06-06T09:41:06.833238
889,-0.4538,0.8852,0.1054,-17.500,28.385,7.490,2,2,1,400,395,2025-06-06T09:41:06.833238
890,-0.4455,0.8725,0.0756,-19.495,26.180,5.985,2,1,1,386,402,2025-06-06T09:41:06.833238
891,-0.4202,0.8740,0.0405,-18.690,23.940,5.250,2,2,1,373,388,2025-06-06T09:41:06.833238
892,-0.4119,0.8794,0.0063,-18.060,20.195,4.480,2,1,1,386,400,2025-06-06T09:41:06.833238
893,-0.4031,0.8764,0.0127,-18.165,15.470,4.060,2,1,1,385,393,2025-06-06T09:41:06.833238
894,-0.3811,0.8721,0.0488,-16.555,11.270,4.550,1,1,1,388,395,2025-06-06T09:41:06.833238
895,-0.3616,0.8862,0.0991,-16.170,11.830,5.355,2,1,1,399,393,2025-06-06T09:41:06.833238
896,-0.3777,0.8838,0.1366,-15.925,16.030,4.865,1,2,2,397,396,2025-06-06T09:41:06.833238
897,-0.4021,0.8882,0.1825,-18.270,21.070,3.080,2,2,1,394,402,2025-06-06T09:41:06.933154
898,-0.4250,0.8940,0.1796,-19.215,25.900,1.190,2,2,2,397,392,2025-06-06T09:41:06.933154
899,-0.4646,0.8926,0.1615,-20.895,29.190,-1.855,1,2,1,382,351,2025-06-06T09:41:06.933154
900,-0.5002,0.9004,0.1679,-23.905,28.385,-4.935,2,2,1,340,379,2025-06-06T09:41:06.933154
901,-0.4982,0.8906,0.1923,-28.350,25.165,-7.280,2,2,2,378,396,2025-06-06T09:41:06.933154
902,-0.4738,0.8794,0.2250,-32.130,24.115,-6.965,2,1,1,391,402,2025-06-06T09:41:06.933154
903,-0.4568,0.8657,0.2250,-34.055,25.515,-5.705,2,1,1,397,388,2025-06-06T09:41:06.933154
904,-0.4080,0.8472,0.2518,-34.685,31.220,-3.010,1,2,2,382,391,2025-06-06T09:41:06.933154
905,-0.4031,0.8340,0.2601,-34.650,40.180,0.595,1,1,2,392,396,2025-06-06T09:41:07.083920
906,-0.4270,0.8374,0.2464,-35.175,50.785,3.990,1,1,1,396,397,2025-06-06T09:41:07.083920
907,-0.4480,0.8701,0.2342,-36.120,60.305,6.720,1,2,1,367,394,2025-06-06T09:41:07.083920
908,-0.4509,0.8711,0.2445,-38.010,66.710,8.470,1,2,2,382,402,2025-06-06T09:41:07.083920
909,-0.4587,0.8584,0.2416,-38.675,75.915,9.975,2,2,1,388,401,2025-06-06T09:41:07.083920
910,-0.5090,0.8603,0.2391,-40.635,82.600,9.660,1,1,1,394,389,2025-06-06T09:41:07.083920
911,-0.5192,0.8428,0.2303,-42.070,84.245,8.260,1,1,1,385,396,2025-06-06T09:41:07.083920
912,-0.4978,0.8145,0.1991,-42.175,84.315,7.770,1,1,1,390,360,2025-06-06T09:41:07.083920
913,-0.4797,0.8096,0.2015,-41.440,83.545,8.050,2,2,2,396,350,2025-06-06T09:41:07.083920
914,-0.4646,0.8130,0.2196,-41.265,83.895,9.485,1,1,1,379,373,2025-06-06T09:41:07.256764
915,-0.4582,0.8164,0.2713,-41.195,86.695,11.270,2,1,1,382,387,2025-06-06T09:41:07.256764
916,-0.4465,0.8218,0.3274,-41.335,90.615,13.440,1,2,1,396,323,2025-06-06T09:41:07.256764
917,-0.4226,0.8320,0.3758,-44.205,97.195,15.820,1,2,1,380,357,2025-06-06T09:41:07.256764
918,-0.4109,0.8257,0.4221,-48.440,106.190,17.675,2,2,1,386,373,2025-06-06T09:41:07.256764
919,-0.3855,0.7979,0.4070,-50.890,116.725,19.950,1,1,1,385,342,2025-06-06T09:41:07.256764
920,-0.4128,0.8018,0.4128,-53.095,126.140,20.860,2,1,1,370,333,2025-06-06T09:41:07.256764
921,-0.4514,0.8081,0.4192,-56.105,132.020,20.580,2,1,1,386,369,2025-06-06T09:41:07.256764
922,-0.5056,0.8091,0.3967,-59.955,136.675,19.110,1,2,1,398,387,2025-06-06T09:41:07.256764
923,-0.5602,0.8008,0.4192,-63.315,139.300,15.820,1,1,2,386,399,2025-06-06T09:41:07.256764
924,-0.5475,0.7686,0.4660,-70.280,141.645,13.510,1,2,1,352,399,2025-06-06T09:41:07.256764
925,-0.4846,0.7393,0.4172,-72.310,146.755,13.685,1,1,0,342,396,2025-06-06T09:41:07.256764
926,-0.4255,0.7110,0.3845,-72.555,152.040,16.660,1,1,1,324,388,2025-06-06T09:41:07.256764
927,-0.3372,0.7115,0.3836,-73.745,156.345,23.135,1,2,1,366,400,2025-06-06T09:41:07.256764
928,-0.2699,0.7296,0.3421,-73.710,163.415,32.200,2,1,1,369,393,2025-06-06T09:41:07.256764
929,-0.2513,0.7554,0.3143,-73.290,171.815,41.650,2,2,1,370,393,2025-06-06T09:41:07.256764
930,-0.2557,0.7871,0.3518,-79.765,180.810,49.245,2,1,2,382,404,2025-06-06T09:41:07.256764
931,-0.2762,0.7696,0.4055,-87.115,187.250,54.215,2,2,1,372,330,2025-06-06T09:41:07.256764
932,-0.3099,0.7369,0.4568,-91.210,188.545,57.330,2,2,1,378,353,2025-06-06T09:41:07.338505
933,-0.3094,0.6920,0.4768,-94.605,186.410,58.345,2,2,1,379,376,2025-06-06T09:41:07.338505
934,-0.2279,0.6998,0.4143,-94.815,183.120,61.565,1,1,1,389,388,2025-06-06T09:41:07.338505
935,-0.1967,0.7505,0.2752,-95.900,176.645,65.135,2,2,1,390,386,2025-06-06T09:41:07.338505
936,-0.1620,0.7847,0.2342,-94.990,170.870,69.300,2,1,2,384,346,2025-06-06T09:41:07.338505
937,-0.1640,0.8028,0.2713,-95.620,165.515,72.345,1,2,1,382,379,2025-06-06T09:41:07.338505
938,-0.1903,0.8198,0.3499,-99.190,159.180,73.815,2,2,1,392,389,2025-06-06T09:41:07.338505
939,-0.2059,0.8052,0.4773,-104.930,156.450,73.570,1,1,2,404,359,2025-06-06T09:41:07.559030
940,-0.2494,0.7584,0.5251,-107.590,156.100,70.595,1,1,1,384,351,2025-06-06T09:41:07.559030
941,-0.1874,0.7466,0.4470,-105.945,159.215,68.600,2,2,1,383,365,2025-06-06T09:41:07.559030
942,-0.1420,0.7930,0.2518,-103.985,159.705,68.285,2,1,1,377,379,2025-06-06T09:41:07.559030
943,-0.0766,0.8242,0.1659,-104.580,153.160,70.700,2,2,1,391,380,2025-06-06T09:41:07.559030
944,-0.0224,0.7901,0.1591,-104.440,136.150,75.250,1,1,1,366,350,2025-06-06T09:41:07.559030
945,-0.0317,0.7652,0.2274,-103.110,117.040,81.130,1,1,1,365,377,2025-06-06T09:41:07.559030
946,-0.1157,0.7559,0.3665,-103.250,99.435,82.915,1,1,2,388,386,2025-06-06T09:41:07.559030
947,-0.2342,0.7188,0.3904,-104.230,86.100,77.210,2,1,1,380,384,2025-06-06T09:41:07.559030
948,-0.2040,0.6637,0.3562,-100.660,77.245,69.020,1,1,1,390,381,2025-06-06T09:41:07.559030
949,-0.1088,0.6490,0.2713,-93.135,72.940,63.315,1,1,1,383,381,2025-06-06T09:41:07.559030
950,0.0215,0.6778,0.2469,-83.335,64.470,71.155,1,1,1,390,384,2025-06-06T09:41:07.559030
951,0.1747,0.7554,0.2918,-78.715,58.660,66.885,2,1,1,398,392,2025-06-06T09:41:07.746958
952,0.1645,0.8096,0.2650,-74.550,53.025,69.125,1,1,1,386,398,2025-06-06T09:41:07.746958
953,0.1557,0.8447,0.2338,-67.795,48.195,70.420,1,2,0,352,398,2025-06-06T09:41:07.746958
954,0.2547,0.9213,0.2923,-61.145,34.125,72.485,1,2,1,378,403,2025-06-06T09:41:07.746958
955,0.2108,0.9853,0.3201,-58.450,20.335,74.060,1,2,1,387,404,2025-06-06T09:41:07.746958
956,0.1552,1.0463,0.3743,-50.505,3.815,72.695,1,2,1,397,401,2025-06-06T09:41:07.746958
957,0.1498,1.2464,0.5295,-46.235,-16.310,70.910,1,2,2,405,402,2025-06-06T09:41:07.746958
958,0.3421,1.1492,0.6446,-44.485,-35.875,71.610,2,2,2,393,394,2025-06-06T09:41:07.746958
959,0.4758,1.1727,0.7159,-42.350,-37.975,75.880,2,2,1,352,382,2025-06-06T09:41:07.746958
960,0.4382,1.2366,0.8101,-42.350,-25.830,75.390,1,1,1,374,380,2025-06-06T09:41:07.746958
961,0.2908,1.2644,0.7915,-49.455,-6.825,68.005,2,1,1,384,402,2025-06-06T09:41:07.746958
962,0.1635,1.2576,0.7266,-58.030,14.175,53.935,1,1,1,392,407,2025-06-06T09:41:07.747956
963,0.0498,1.2083,0.5627,-64.715,26.495,41.650,2,2,1,387,394,2025-06-06T09:41:07.747956
964,0.1069,1.1575,0.4860,-61.180,18.655,32.970,2,2,1,377,395,2025-06-06T09:41:07.938905
965,0.2630,1.1112,0.4524,-55.790,-2.485,35.035,1,1,1,382,405,2025-06-06T09:41:07.938905
966,0.3831,1.0746,0.4329,-42.945,-25.585,43.925,1,2,1,379,359,2025-06-06T09:41:07.938905
967,0.3436,1.0677,0.5017,-33.845,-38.675,50.960,2,1,2,369,372,2025-06-06T09:41:07.938905
968,0.2006,1.0731,0.6261,-24.115,-40.530,49.980,1,1,1,381,375,2025-06-06T09:41:07.938905
969,0.1274,1.0731,0.7305,-26.355,-33.565,43.645,2,1,2,399,379,2025-06-06T09:41:07.938905
970,0.1176,1.0365,0.7242,-30.275,-19.775,33.425,1,1,1,395,381,2025-06-06T09:41:07.938905
971,0.0991,0.9814,0.6842,-30.940,-4.165,23.135,1,1,1,396,352,2025-06-06T09:41:07.938905
972,0.0620,0.9345,0.5832,-18.970,7.000,14.735,2,1,1,398,372,2025-06-06T09:41:07.938905
973,0.0688,0.9004,0.4953,-20.125,6.335,9.660,2,2,1,385,368,2025-06-06T09:41:07.938905
974,0.0810,0.8974,0.4314,-11.795,-2.345,8.225,1,1,1,386,386,2025-06-06T09:41:07.938905
975,0.0893,0.8901,0.4241,-2.345,-15.575,8.295,2,1,1,388,394,2025-06-06T09:41:07.938905
976,0.1440,0.8716,0.4670,7.735,-27.020,10.185,1,0,1,352,361,2025-06-06T09:41:07.938905
977,0.1503,0.8779,0.5202,13.230,-31.150,12.670,2,1,1,325,380,2025-06-06T09:41:07.938905
978,0.1244,0.8896,0.5622,17.395,-28.420,13.160,2,1,2,366,363,2025-06-06T09:41:07.938905
979,0.1093,0.8701,0.5861,17.675,-24.220,10.990,1,2,1,337,376,2025-06-06T09:41:07.938905
980,0.1352,0.8355,0.5641,17.255,-18.620,9.415,2,1,1,363,383,2025-06-06T09:41:07.938905
981,0.0693,0.8228,0.5124,19.110,-12.320,6.755,1,2,1,366,384,2025-06-06T09:41:07.938905
982,0.0088,0.8233,0.4851,21.175,-9.555,3.150,2,1,0,341,395,2025-06-06T09:41:07.938905
983,0.0390,0.8228,0.4616,20.930,-11.305,0.700,1,2,1,370,403,2025-06-06T09:41:07.938905
984,0.1171,0.8213,0.4602,21.035,-14.770,2.415,2,2,1,391,403,2025-06-06T09:41:07.938905
985,0.1474,0.8394,0.4685,19.180,-16.870,5.880,1,1,1,384,398,2025-06-06T09:41:07.938905
986,0.1679,0.8491,0.4807,18.270,-21.105,10.850,2,2,2,395,403,2025-06-06T09:41:07.938905
987,0.1806,0.9438,0.3538,29.610,-17.745,16.310,1,1,1,399,386,2025-06-06T09:41:08.086015
988,0.1054,0.9243,0.5480,-20.475,-19.635,18.375,2,1,2,381,394,2025-06-06T09:41:08.086015
989,0.0981,0.7954,0.5051,21.840,-19.425,21.700,1,1,2,393,400,2025-06-06T09:41:08.086015
990,0.1342,0.8452,0.5646,18.165,-18.515,23.030,1,2,1,389,399,2025-06-06T09:41:08.087012
991,0.1410,0.8642,0.5407,6.860,-6.265,26.425,1,1,2,383,400,2025-06-06T09:41:08.087012
992,0.1005,0.9028,0.5451,5.180,3.815,26.600,2,2,2,389,401,2025-06-06T09:41:08.087012
993,0.0678,0.9394,0.5578,3.360,9.590,25.690,1,2,1,349,391,2025-06-06T09:41:08.087012
994,0.0268,0.9335,0.4875,7.280,18.550,24.395,2,2,2,372,408,2025-06-06T09:41:08.087012
995,-0.0483,0.9409,0.4368,1.540,16.100,20.650,1,2,1,375,392,2025-06-06T09:41:08.087012
996,-0.0922,0.9482,0.4124,7.070,11.060,15.925,1,1,1,343,387,2025-06-06T09:41:08.087012
997,-0.0683,0.9433,0.3982,10.675,5.915,12.845,1,2,1,371,388,2025-06-06T09:41:08.087012
998,0.0098,0.9228,0.3997,11.900,6.300,12.530,1,2,2,389,394,2025-06-06T09:41:08.087012
999,0.1074,0.8999,0.4260,14.000,8.330,14.525,2,1,1,397,404,2025-06-06T09:41:08.260234
1000,0.1713,0.8589,0.4480,19.250,10.675,19.390,2,1,1,392,401,2025-06-06T09:41:08.260234
1001,0.0844,0.8203,0.5104,18.060,13.860,23.415,2,1,2,398,406,2025-06-06T09:41:08.260234
1002,0.0146,0.8262,0.4792,22.435,15.435,24.115,2,1,1,385,402,2025-06-06T09:41:08.260234
1003,-0.0259,0.7457,0.3865,24.325,17.220,22.190,1,1,2,383,390,2025-06-06T09:41:08.260234
1004,0.0742,0.7530,0.4343,25.165,6.160,22.750,1,1,1,393,398,2025-06-06T09:41:08.260234
1005,0.0605,0.8916,0.5334,18.585,4.480,23.975,1,1,1,374,394,2025-06-06T09:41:08.260234
1006,0.1098,0.8642,0.5461,7.385,12.740,27.790,2,1,1,345,381,2025-06-06T09:41:08.260234
1007,0.0966,0.8394,0.5714,10.220,22.750,29.995,1,1,1,326,399,2025-06-06T09:41:08.260234
1008,0.1771,0.8706,0.6251,9.975,26.390,29.715,1,1,1,362,396,2025-06-06T09:41:08.260234
1009,0.1796,0.8355,0.7120,-4.445,44.485,33.985,1,2,1,369,401,2025-06-06T09:41:08.260234
1010,0.2045,0.8062,0.5934,-22.680,56.070,37.800,1,1,1,367,403,2025-06-06T09:41:08.260234
1011,0.2391,0.7593,0.5231,-18.550,62.930,44.905,2,1,1,372,404,2025-06-06T09:41:08.260234
1012,0.1703,0.7710,0.5573,-22.960,66.990,52.710,1,1,1,338,406,2025-06-06T09:41:08.260234
1013,0.4524,0.8164,0.4299,-38.325,63.805,61.075,1,1,2,361,407,2025-06-06T09:41:08.260234
1014,0.3831,0.8584,0.7520,-38.010,79.835,70.770,1,1,1,381,394,2025-06-06T09:41:08.260234
1015,0.0454,0.8057,0.5661,-60.270,92.540,67.690,2,1,2,372,403,2025-06-06T09:41:08.260234
1016,0.0903,0.7691,0.4714,-52.640,91.945,62.195,2,2,1,383,403,2025-06-06T09:41:08.315184
1017,0.0947,0.7842,0.5807,-52.745,90.440,56.700,2,1,1,383,387,2025-06-06T09:41:08.315184
1018,0.0586,0.6944,0.6134,-49.420,87.745,51.695,1,2,1,393,384,2025-06-06T09:41:08.315184
1019,0.0888,0.6300,0.7954,-55.650,72.835,41.020,2,1,1,395,386,2025-06-06T09:41:08.315184
1020,0.4236,0.5968,0.7266,-27.405,58.205,47.110,1,2,1,396,394,2025-06-06T09:41:08.468637
1021,0.4675,0.8891,0.7296,-3.955,32.900,58.730,2,2,2,360,404,2025-06-06T09:41:08.468637
1022,0.6173,1.0677,0.6637,-27.370,39.270,75.005,1,2,2,338,391,2025-06-06T09:41:08.468637
1023,0.2747,0.9262,0.7154,-31.220,34.300,84.070,1,1,1,373,396,2025-06-06T09:41:08.468637
1024,0.0239,0.7505,0.5251,-74.725,32.480,77.875,2,2,2,377,357,2025-06-06T09:41:08.468637
1025,-0.0132,0.6461,0.5651,-82.495,35.070,64.680,1,1,1,366,366,2025-06-06T09:41:08.468637
1026,0.0386,0.6622,0.7144,-49.070,44.135,52.745,1,1,1,379,385,2025-06-06T09:41:08.468637
1027,0.1488,0.7305,0.7871,-70.490,81.130,47.950,2,1,1,384,319,2025-06-06T09:41:08.468637
1028,0.2318,0.6710,0.6920,-56.175,74.515,40.740,2,1,1,390,337,2025-06-06T09:41:08.468637
1029,0.3245,0.6486,0.6046,-39.935,90.685,43.785,1,1,1,398,334,2025-06-06T09:41:08.468637
1030,0.4128,0.7013,0.5968,-47.670,122.955,55.230,1,2,2,390,360,2025-06-06T09:41:08.468637
1031,0.3904,0.7666,0.6954,-36.505,111.160,66.570,1,1,0,362,373,2025-06-06T09:41:08.468637
1032,0.2162,0.6856,0.6798,-57.050,89.215,74.270,1,2,1,362,379,2025-06-06T09:41:08.468637
1033,0.1069,0.5041,0.7364,-59.955,77.420,78.330,1,1,1,386,402,2025-06-06T09:41:08.567754
1034,0.1371,0.4641,0.8833,-50.505,65.205,83.405,2,1,2,353,383,2025-06-06T09:41:08.567754
1035,0.1205,0.6217,0.9462,-64.365,60.795,85.645,2,1,1,368,353,2025-06-06T09:41:08.567754
1036,0.2635,0.5100,0.9316,-68.040,61.915,89.845,1,1,1,369,367,2025-06-06T09:41:08.567754
1037,0.3904,0.5431,0.9492,-66.500,83.510,102.165,2,2,1,366,370,2025-06-06T09:41:08.567754
1038,0.3606,0.5802,1.0263,-74.375,108.255,113.505,1,1,2,346,336,2025-06-06T09:41:08.567754
1039,0.4646,0.6461,0.9311,-88.550,115.990,124.950,1,1,1,368,362,2025-06-06T09:41:08.567754
1040,0.3528,0.6974,0.7730,-83.895,119.875,134.330,1,1,1,340,373,2025-06-06T09:41:08.567754
1041,0.0200,0.6495,0.6676,-83.265,110.635,131.285,2,2,1,362,396,2025-06-06T09:41:08.671166
1042,-0.1386,0.5846,0.7349,-83.685,102.305,120.190,1,2,1,373,393,2025-06-06T09:41:08.671166
1043,-0.3314,0.4846,0.7754,-74.865,84.000,102.690,1,1,2,395,401,2025-06-06T09:41:08.671166
1044,-0.1645,0.6983,1.2932,-76.790,82.250,74.935,2,1,1,385,389,2025-06-06T09:41:08.671166
1045,-0.1664,0.5573,1.0931,-85.050,41.615,56.455,2,1,1,346,382,2025-06-06T09:41:08.671166
1046,0.0239,0.4343,0.7637,-71.890,61.110,44.765,2,1,1,373,355,2025-06-06T09:41:08.671166
1047,0.2347,0.5051,0.8428,-55.440,59.290,45.570,1,1,1,383,364,2025-06-06T09:41:08.671166
1048,0.4363,0.5685,0.8784,-55.650,49.700,55.650,1,1,1,380,370,2025-06-06T09:41:08.671166
1049,0.6720,0.6486,0.5729,-65.765,66.990,82.845,1,1,2,389,384,2025-06-06T09:41:08.782297
1050,0.4724,0.7281,0.5876,-58.835,92.785,104.090,2,1,1,383,390,2025-06-06T09:41:08.782297
1051,0.3260,0.8115,1.2005,-24.045,63.560,115.570,2,1,1,380,398,2025-06-06T09:41:08.782297
1052,0.2455,0.6120,0.9770,-20.510,21.105,117.215,1,1,2,377,398,2025-06-06T09:41:08.782297
1053,0.0102,0.4094,0.9135,-23.520,-9.870,112.105,1,2,1,390,404,2025-06-06T09:41:08.782297
1054,-0.3660,0.3772,0.8447,-47.250,-24.290,94.360,1,2,1,396,410,2025-06-06T09:41:08.782297
1055,-0.1962,0.4934,0.7135,-35.770,-32.970,73.045,1,1,1,393,405,2025-06-06T09:41:08.782297
1056,0.1976,0.5861,0.8213,-42.070,-16.240,63.350,1,1,2,403,400,2025-06-06T09:41:08.782297
1057,0.3177,0.5300,0.8189,-58.240,-5.810,60.970,1,2,1,395,385,2025-06-06T09:41:08.782297
1058,0.3343,0.4621,0.7603,-40.355,1.015,57.820,1,1,1,380,396,2025-06-06T09:41:08.782297
1059,0.3719,0.4011,0.7696,-5.075,-8.540,57.470,1,2,1,379,383,2025-06-06T09:41:08.871321
1060,0.0917,0.4470,1.0419,21.280,-22.960,52.465,2,1,1,392,397,2025-06-06T09:41:08.871321
1061,0.5002,0.6012,1.0453,-91.280,25.830,56.525,1,2,2,405,399,2025-06-06T09:41:08.871321
1062,0.6349,0.4724,1.0443,-29.715,-23.240,60.585,2,2,1,389,400,2025-06-06T09:41:08.871321
1063,0.4172,0.4612,0.9467,11.830,-58.415,65.310,1,2,1,380,370,2025-06-06T09:41:08.871321
1064,0.5431,0.4973,1.4689,159.530,-22.015,21.210,1,1,1,374,383,2025-06-06T09:41:08.871321
1065,0.5358,1.4713,1.6460,166.845,90.580,-49.245,1,1,1,376,394,2025-06-06T09:41:08.871321
1066,-1.3498,-0.4997,0.5104,-13.370,84.560,-68.285,2,1,1,383,357,2025-06-06T09:41:08.976842
1067,-0.1713,0.3396,-0.1069,190.190,1.645,-63.070,1,1,1,338,343,2025-06-06T09:41:08.976842
1068,0.3855,-0.0771,-0.1552,-144.655,-94.920,-24.990,1,2,2,330,333,2025-06-06T09:41:08.976842
1069,0.0717,-0.1654,-0.2713,-186.340,-145.495,-14.560,2,1,1,364,330,2025-06-06T09:41:08.976842
1070,0.4104,1.3347,4.0289,123.515,-140.035,-31.885,2,1,2,379,323,2025-06-06T09:41:08.976842
1071,-0.3372,-0.2245,0.7193,-155.505,-48.580,-30.205,2,1,1,345,361,2025-06-06T09:41:08.976842
1072,0.7100,0.1396,1.4440,46.865,-32.515,-46.165,1,2,2,368,385,2025-06-06T09:41:08.976842
1073,0.4119,0.3270,1.0370,13.755,26.320,-41.650,1,1,1,386,381,2025-06-06T09:41:08.976842
1074,0.2015,0.2318,1.0331,60.690,47.040,-37.905,1,1,0,359,389,2025-06-06T09:41:08.976842
1075,0.2167,0.2167,0.8316,42.525,22.785,-28.700,2,1,1,373,390,2025-06-06T09:41:09.085080
1076,0.3665,0.1952,0.7993,-14.665,0.245,-17.115,2,2,2,349,381,2025-06-06T09:41:09.085080
1077,0.2162,0.2142,0.9292,-13.510,8.295,-9.765,1,2,1,337,392,2025-06-06T09:41:09.085080
1078,0.0322,0.3172,1.1561,2.905,18.235,-5.355,1,2,2,356,368,2025-06-06T09:41:09.085080
1079,0.1293,0.3953,1.0097,19.565,11.270,1.820,1,1,1,374,381,2025-06-06T09:41:09.085080
1080,0.0659,0.3631,0.9121,-14.560,-6.125,2.520,2,2,1,377,388,2025-06-06T09:41:09.085080
1081,0.0610,0.3665,0.9135,-8.995,-15.645,4.900,2,1,1,392,366,2025-06-06T09:41:09.085080
1082,0.1874,0.4802,0.9618,-2.485,-8.575,7.980,1,2,1,382,374,2025-06-06T09:41:09.085080
1083,0.2255,0.3919,0.9243,-5.705,-7.770,10.745,1,1,2,377,384,2025-06-06T09:41:09.085080
1084,0.2845,0.3689,0.8135,-8.505,-13.440,16.310,2,1,1,395,383,2025-06-06T09:41:09.286877
1085,0.1376,0.4182,0.9331,-22.890,-7.665,17.360,1,2,1,378,382,2025-06-06T09:41:09.286877
1086,0.1298,0.4216,0.9770,-8.505,-6.965,17.080,1,2,1,377,398,2025-06-06T09:41:09.287123
1087,0.2625,0.4143,0.9077,-10.675,-8.750,20.230,2,2,1,377,389,2025-06-06T09:41:09.287123
1088,0.1479,0.3714,0.9223,-11.795,-2.450,19.460,2,2,1,386,388,2025-06-06T09:41:09.287123
1089,0.1030,0.3450,0.9609,-10.780,-5.670,16.835,2,1,1,318,385,2025-06-06T09:41:09.287123
1090,0.1152,0.3109,0.9799,-28.805,-4.480,11.235,1,1,1,315,388,2025-06-06T09:41:09.287123
1091,0.1532,0.1581,1.0370,-25.515,-11.060,-2.905,2,1,1,351,397,2025-06-06T09:41:09.287123
1092,0.3113,0.3118,1.0033,-21.070,-14.245,-6.685,1,2,2,366,400,2025-06-06T09:41:09.287123
1093,0.4538,0.3933,0.8189,-7.875,9.135,-8.120,1,1,1,379,404,2025-06-06T09:41:09.287123
1094,0.1454,0.3733,0.8486,-20.685,30.555,-6.440,1,2,1,375,359,2025-06-06T09:41:09.287123
1095,0.1230,0.4329,0.8779,-1.575,10.500,-8.050,1,1,1,374,378,2025-06-06T09:41:09.287123
1096,0.1488,0.3616,0.9072,-16.380,2.310,-6.510,2,2,1,387,386,2025-06-06T09:41:09.287123
1097,0.1518,0.3543,1.0409,-0.595,-4.900,-5.600,1,1,2,398,358,2025-06-06T09:41:09.287123
1098,0.1420,0.2938,1.0272,-9.240,8.015,-2.765,1,1,1,388,389,2025-06-06T09:41:09.287123
1099,0.1484,0.3138,0.9238,4.270,-1.645,-1.400,1,2,2,393,392,2025-06-06T09:41:09.287123
1100,0.1200,0.3611,0.9228,1.295,-7.175,-0.035,2,2,1,398,402,2025-06-06T09:41:09.287123
1101,0.1318,0.3875,0.9462,-1.155,-9.905,1.890,1,1,1,400,393,2025-06-06T09:41:09.413472
1102,0.1606,0.3538,0.9272,-6.160,-8.610,2.765,2,1,1,400,387,2025-06-06T09:41:09.413472
1103,0.1874,0.3235,0.9550,-1.890,-12.390,2.660,1,2,1,399,392,2025-06-06T09:41:09.413472
1104,0.1986,0.3318,0.9750,-2.065,-10.255,2.135,1,1,2,396,381,2025-06-06T09:41:09.413472
1105,0.2015,0.3353,0.9350,-1.085,-7.000,1.365,2,2,2,400,361,2025-06-06T09:41:09.413472
1106,0.1996,0.3470,0.9130,-1.260,-4.690,0.385,1,2,0,356,371,2025-06-06T09:41:09.413472
1107,0.1913,0.3518,0.9209,-1.470,-5.285,-0.735,2,2,1,369,380,2025-06-06T09:41:09.413472
1108,0.1928,0.3426,0.9433,-0.105,-4.900,-1.470,1,1,1,384,394,2025-06-06T09:41:09.413472
1109,0.1918,0.3289,0.9492,-0.595,-1.995,-1.820,2,1,2,396,396,2025-06-06T09:41:09.486279
1110,0.1806,0.3318,0.9531,1.155,-1.785,-2.030,2,1,2,388,402,2025-06-06T09:41:09.486279
1111,0.1674,0.3450,0.9448,0.490,-2.485,-1.855,1,2,2,402,408,2025-06-06T09:41:09.486279
1112,0.1606,0.3523,0.9418,0.105,-3.675,-1.225,1,2,2,401,360,2025-06-06T09:41:09.486279
1113,0.1615,0.3494,0.9467,-0.805,-4.585,-0.455,1,1,1,395,370,2025-06-06T09:41:09.486279
1114,0.1610,0.3396,0.9540,-1.015,-5.950,0.035,1,2,1,401,377,2025-06-06T09:41:09.486279
1115,0.1693,0.3377,0.9536,-0.875,-6.475,0.420,2,2,2,406,351,2025-06-06T09:41:09.486279
1116,0.1732,0.3421,0.9477,-1.015,-6.265,0.595,1,1,1,389,366,2025-06-06T09:41:09.486279
1117,0.1762,0.3401,0.9418,-1.260,-6.195,0.525,1,2,2,386,390,2025-06-06T09:41:09.486279
1118,0.1810,0.3431,0.9394,-0.945,-6.300,0.245,1,2,1,383,396,2025-06-06T09:41:09.593204
1119,0.1840,0.3382,0.9428,-1.225,-5.740,-0.035,2,2,1,387,388,2025-06-06T09:41:09.593204
1120,0.1850,0.3343,0.9418,-0.315,-4.900,-0.455,1,1,1,383,386,2025-06-06T09:41:09.593204
1121,0.1820,0.3382,0.9467,-0.315,-4.060,-0.875,2,2,2,396,394,2025-06-06T09:41:09.593204
1122,0.1776,0.3421,0.9477,-0.315,-3.955,-0.945,1,2,2,398,359,2025-06-06T09:41:09.593204
1123,0.1718,0.3411,0.9428,0.035,-4.200,-0.910,1,2,2,384,346,2025-06-06T09:41:09.593204
1124,0.1708,0.3436,0.9457,-0.315,-4.305,-0.770,1,1,2,348,371,2025-06-06T09:41:09.593204
1125,0.1698,0.3396,0.9511,-0.665,-4.690,-0.560,1,2,1,363,373,2025-06-06T09:41:09.593204
1126,0.1679,0.3396,0.9492,-0.315,-5.320,-0.315,1,1,2,384,389,2025-06-06T09:41:09.693406
1127,0.1742,0.3421,0.9492,-0.735,-5.320,0.035,2,2,1,379,399,2025-06-06T09:41:09.693406
1128,0.1713,0.3382,0.9457,-0.735,-5.635,0.070,1,2,1,391,398,2025-06-06T09:41:09.693406
1129,0.1762,0.3396,0.9438,-0.665,-5.705,0.105,1,2,1,395,391,2025-06-06T09:41:09.693406
1130,0.1771,0.3382,0.9448,-1.085,-5.460,-0.070,1,1,1,399,380,2025-06-06T09:41:09.693406
1131,0.1771,0.3382,0.9477,0.000,-5.425,-0.315,1,1,1,386,317,2025-06-06T09:41:09.693406
1132,0.1801,0.3396,0.9492,-0.560,-4.585,-0.420,1,1,2,376,351,2025-06-06T09:41:09.693406
1133,0.1737,0.3333,0.9457,-0.560,-4.725,-0.700,2,1,1,377,375,2025-06-06T09:41:09.693406
1134,0.1728,0.3353,0.9453,-0.140,-4.585,-0.735,1,1,1,363,385,2025-06-06T09:41:09.693406
1135,0.1703,0.3367,0.9496,-0.525,-4.375,-0.630,1,1,1,366,399,2025-06-06T09:41:09.798485
1136,0.1674,0.3377,0.9487,0.105,-4.865,-0.525,2,1,2,388,399,2025-06-06T09:41:09.798485
1137,0.1688,0.3343,0.9511,-0.455,-4.935,-0.315,2,1,1,394,359,2025-06-06T09:41:09.798485
1138,0.1703,0.3392,0.9492,-0.350,-5.285,-0.175,2,3,1,392,377,2025-06-06T09:41:09.798485
1139,0.1708,0.3377,0.9501,-0.560,-5.320,-0.105,2,2,1,387,378,2025-06-06T09:41:09.798485
1140,0.1732,0.3357,0.9482,-0.735,-5.670,-0.035,2,1,1,395,376,2025-06-06T09:41:09.798485
1141,0.1747,0.3387,0.9457,-0.490,-5.600,0.000,1,2,1,381,370,2025-06-06T09:41:09.798485
1142,0.1767,0.3343,0.9496,-0.770,-5.495,-0.070,2,1,1,344,388,2025-06-06T09:41:09.798485
1143,0.1771,0.3372,0.9462,-0.280,-5.215,-0.210,1,2,1,373,379,2025-06-06T09:41:09.798485
1144,0.1757,0.3338,0.9472,-0.525,-4.935,-0.385,1,2,2,389,396,2025-06-06T09:41:09.902481
1145,0.1762,0.3343,0.9477,-0.035,-4.830,-0.560,2,2,1,386,391,2025-06-06T09:41:09.902481
1146,0.1728,0.3362,0.9487,-0.105,-4.620,-0.595,2,1,1,389,388,2025-06-06T09:41:09.902481
1147,0.1718,0.3357,0.9511,-0.350,-4.655,-0.665,2,2,1,376,358,2025-06-06T09:41:09.902481
1148,0.1688,0.3343,0.9477,0.070,-4.725,-0.525,2,1,2,382,378,2025-06-06T09:41:09.902481
1149,0.1664,0.3348,0.9501,-0.245,-4.830,-0.560,1,1,1,395,390,2025-06-06T09:41:09.902481
1150,0.1693,0.3362,0.9501,-0.210,-5.110,-0.420,1,2,1,358,384,2025-06-06T09:41:09.902481
1151,0.1679,0.3372,0.9511,-0.420,-5.320,-0.210,1,1,1,369,396,2025-06-06T09:41:09.902481
1152,0.1718,0.3362,0.9487,-0.490,-5.565,-0.070,1,2,2,393,401,2025-06-06T09:41:09.998492
1153,0.1732,0.3367,0.9496,-0.385,-5.530,0.035,1,1,1,352,370,2025-06-06T09:41:09.998492
1154,0.1728,0.3357,0.9492,-0.630,-5.495,0.000,2,2,2,334,383,2025-06-06T09:41:09.998492
1155,0.1771,0.3338,0.9448,-0.350,-5.530,-0.140,3,1,2,371,391,2025-06-06T09:41:09.998492
1156,0.1752,0.3323,0.9492,-0.595,-5.180,-0.245,2,1,1,386,394,2025-06-06T09:41:09.998492
1157,0.1713,0.3299,0.9272,-1.435,-4.305,-0.770,1,1,1,391,384,2025-06-06T09:41:09.998492
1158,0.1718,0.3167,0.9394,-0.595,-5.075,-1.085,1,1,1,394,380,2025-06-06T09:41:09.998492
1159,0.1630,0.3401,0.9355,1.925,-5.390,-0.630,1,2,1,383,387,2025-06-06T09:41:09.998492
1160,0.1693,0.3304,0.9438,1.330,-4.375,-0.490,2,1,2,382,384,2025-06-06T09:41:09.998492
1161,0.1708,0.3401,0.9409,1.120,-4.970,-0.385,2,1,2,388,395,2025-06-06T09:41:10.049001
1162,0.1669,0.3426,0.9526,-0.560,-4.655,-0.035,1,2,1,383,386,2025-06-06T09:41:10.049001
1163,0.1684,0.3338,0.9501,-1.155,-6.265,0.070,1,1,1,375,378,2025-06-06T09:41:10.049001
1164,0.1771,0.3294,0.9467,0.000,-5.915,0.000,1,2,1,388,399,2025-06-06T09:41:10.218728
1165,0.1747,0.3367,0.9560,-0.525,-4.935,-0.070,1,2,1,398,397,2025-06-06T09:41:10.218728
1166,0.1728,0.3338,0.9482,-0.280,-5.005,-0.350,1,2,1,400,399,2025-06-06T09:41:10.218728
1167,0.1732,0.3289,0.9404,-0.280,-5.285,-0.455,2,2,1,394,399,2025-06-06T09:41:10.218728
1168,0.1723,0.3338,0.9540,-0.175,-4.865,-0.490,1,2,1,397,387,2025-06-06T09:41:10.218728
1169,0.1674,0.3328,0.9540,-0.140,-4.480,-0.525,1,2,1,386,355,2025-06-06T09:41:10.218728
1170,0.1718,0.3304,0.9492,0.070,-4.830,-0.455,1,1,1,391,339,2025-06-06T09:41:10.218728
1171,0.1693,0.3318,0.9496,-0.070,-5.005,-0.385,1,2,1,390,360,2025-06-06T09:41:10.218728
1172,0.1674,0.3338,0.9506,-0.140,-5.180,-0.280,2,1,1,378,363,2025-06-06T09:41:10.218728
1173,0.1698,0.3323,0.9521,-0.315,-5.145,-0.210,1,1,1,353,380,2025-06-06T09:41:10.218728
1174,0.1693,0.3309,0.9496,-0.035,-5.530,-0.105,2,1,1,369,389,2025-06-06T09:41:10.218728
1175,0.1698,0.3314,0.9536,-0.525,-5.530,-0.140,1,1,1,370,391,2025-06-06T09:41:10.218728
1176,0.1742,0.3333,0.9482,0.140,-5.285,-0.140,1,1,1,384,404,2025-06-06T09:41:10.218728
1177,0.1703,0.3338,0.9506,-0.630,-5.110,-0.175,1,1,1,378,393,2025-06-06T09:41:10.218728
1178,0.1713,0.3328,0.9467,0.000,-5.530,-0.315,2,1,1,376,397,2025-06-06T09:41:10.218728
1179,0.1728,0.3318,0.9501,-0.035,-5.005,-0.315,1,2,1,383,385,2025-06-06T09:41:10.310027
1180,0.1723,0.3294,0.9531,-0.350,-4.795,-0.420,2,1,1,382,403,2025-06-06T09:41:10.310027
1181,0.1703,0.3294,0.9496,0.035,-4.935,-0.385,1,2,1,386,392,2025-06-06T09:41:10.310027
1182,0.1688,0.3333,0.9492,-0.245,-5.005,-0.315,2,1,1,380,391,2025-06-06T09:41:10.310027
1183,0.1674,0.3314,0.9487,-0.035,-5.145,-0.350,1,2,2,394,398,2025-06-06T09:41:10.310027
1184,0.1703,0.3299,0.9492,-0.175,-5.145,-0.315,1,1,1,396,393,2025-06-06T09:41:10.310027
1185,0.1693,0.3304,0.9511,-0.210,-5.250,-0.140,1,1,1,391,355,2025-06-06T09:41:10.310027
1186,0.1688,0.3318,0.9516,-0.175,-5.285,-0.175,1,1,2,348,328,2025-06-06T09:41:10.310027
1187,0.1723,0.3304,0.9501,-0.280,-5.250,-0.140,1,2,1,372,338,2025-06-06T09:41:10.516445
1188,0.1747,0.3294,0.9462,-0.245,-5.320,-0.245,2,2,1,383,361,2025-06-06T09:41:10.516445
1189,0.1708,0.3314,0.9521,-0.455,-5.180,-0.245,2,1,1,349,372,2025-06-06T09:41:10.516445
1190,0.1718,0.3294,0.9531,-0.035,-5.145,-0.350,1,1,1,363,376,2025-06-06T09:41:10.516445
1191,0.1698,0.3279,0.9531,-0.245,-5.110,-0.350,2,1,1,367,387,2025-06-06T09:41:10.516445
1192,0.1723,0.3294,0.9496,0.280,-4.970,-0.315,1,1,1,379,390,2025-06-06T09:41:10.516445
1193,0.1688,0.3323,0.9506,0.000,-4.935,-0.350,1,1,1,386,359,2025-06-06T09:41:10.516445
1194,0.1688,0.3299,0.9501,-0.315,-5.180,-0.315,1,1,1,390,385,2025-06-06T09:41:10.516445
1195,0.1688,0.3318,0.9516,0.105,-5.250,-0.280,1,1,1,385,349,2025-06-06T09:41:10.516445
1196,0.1698,0.3294,0.9506,-0.280,-5.250,-0.280,1,1,1,376,334,2025-06-06T09:41:10.516445
1197,0.1708,0.3284,0.9506,-0.035,-5.390,-0.210,1,1,1,378,340,2025-06-06T09:41:10.516445
1198,0.1698,0.3294,0.9511,-0.070,-5.355,-0.210,1,1,1,380,365,2025-06-06T09:41:10.516445
1199,0.1698,0.3323,0.9511,-0.140,-5.215,-0.175,1,1,1,380,344,2025-06-06T09:41:10.516445
1200,0.1684,0.3279,0.9511,-0.210,-5.390,-0.315,1,1,1,380,368,2025-06-06T09:41:10.516445
1201,0.1728,0.3309,0.9511,-0.070,-5.145,-0.350,1,1,1,375,380,2025-06-06T09:41:10.516445
1202,0.1688,0.3279,0.9496,0.175,-5.075,-0.280,1,2,1,372,353,2025-06-06T09:41:10.516445
1203,0.1684,0.3284,0.9516,-0.210,-5.040,-0.385,2,2,1,382,384,2025-06-06T09:41:10.516445
1204,0.1679,0.3279,0.9506,0.105,-5.145,-0.315,1,1,1,346,380,2025-06-06T09:41:10.570616
1205,0.1703,0.3314,0.9555,-0.280,-5.320,-0.280,1,2,1,377,353,2025-06-06T09:41:10.570616
1206,0.1674,0.3294,0.9521,-0.035,-5.180,-0.245,1,1,1,381,367,2025-06-06T09:41:10.570616
1207,0.1703,0.3245,0.9482,0.175,-5.390,-0.280,1,2,1,389,381,2025-06-06T09:41:10.570616
1208,0.1713,0.3323,0.9545,-0.175,-5.320,-0.245,2,1,1,397,392,2025-06-06T09:41:10.570616
1209,0.1674,0.3274,0.9521,-0.140,-5.320,-0.245,2,2,1,388,395,2025-06-06T09:41:10.778698
1210,0.1708,0.3274,0.9487,-0.070,-5.495,-0.315,2,2,2,402,391,2025-06-06T09:41:10.778698
1211,0.1688,0.3270,0.9521,-0.105,-5.075,-0.280,1,2,1,387,396,2025-06-06T09:41:10.778698
1212,0.1693,0.3274,0.9511,0.070,-5.145,-0.350,2,1,1,385,393,2025-06-06T09:41:10.778698
1213,0.1693,0.3309,0.9516,-0.070,-5.005,-0.350,1,2,2,384,327,2025-06-06T09:41:10.778698
1214,0.1684,0.3245,0.9511,-0.140,-5.145,-0.350,2,2,1,371,369,2025-06-06T09:41:10.778698
1215,0.1698,0.3265,0.9487,0.210,-5.180,-0.420,1,2,1,385,374,2025-06-06T09:41:10.778698
1216,0.1688,0.3318,0.9545,-0.210,-5.040,-0.385,0,1,1,387,383,2025-06-06T09:41:10.778698
1217,0.1664,0.3279,0.9526,0.000,-5.250,-0.280,2,1,1,388,350,2025-06-06T09:41:10.778698
1218,0.1688,0.3265,0.9506,0.210,-5.250,-0.210,1,1,1,349,368,2025-06-06T09:41:10.778698
1219,0.1688,0.3279,0.9511,-0.245,-5.145,-0.280,1,1,1,336,370,2025-06-06T09:41:10.778698
1220,0.1703,0.3309,0.9521,0.245,-5.180,-0.245,1,1,2,360,390,2025-06-06T09:41:10.778698
1221,0.1698,0.3299,0.9545,-0.315,-5.215,-0.280,1,2,2,378,401,2025-06-06T09:41:10.778698
1222,0.1674,0.3260,0.9516,0.280,-5.320,-0.280,1,2,1,387,397,2025-06-06T09:41:10.778698
1223,0.1679,0.3284,0.9526,0.175,-5.040,-0.315,2,1,1,395,356,2025-06-06T09:41:10.986609
1224,0.1693,0.3265,0.9526,-0.245,-5.075,-0.280,1,1,1,347,367,2025-06-06T09:41:10.986609
1225,0.1669,0.3279,0.9516,0.210,-5.285,-0.280,2,1,2,337,380,2025-06-06T09:41:10.986609
1226,0.1679,0.3260,0.9521,-0.245,-5.180,-0.350,1,2,2,363,383,2025-06-06T09:41:10.986609
1227,0.1684,0.3274,0.9521,0.210,-5.285,-0.315,1,1,1,381,394,2025-06-06T09:41:10.986609
1228,0.1693,0.3260,0.9536,-0.035,-5.145,-0.280,1,1,2,377,400,2025-06-06T09:41:10.986609
1229,0.1684,0.3284,0.9506,0.105,-5.285,-0.280,2,1,0,349,396,2025-06-06T09:41:10.986609
1230,0.1674,0.3270,0.9531,-0.140,-5.215,-0.245,1,1,2,373,396,2025-06-06T09:41:10.986609
1231,0.1674,0.3260,0.9506,0.035,-5.215,-0.315,1,1,2,374,391,2025-06-06T09:41:10.986609
1232,0.1679,0.3274,0.9531,0.070,-5.320,-0.315,1,1,1,390,400,2025-06-06T09:41:10.986609
1233,0.1698,0.3289,0.9540,-0.315,-5.075,-0.245,1,2,2,383,401,2025-06-06T09:41:10.986609
1234,0.1674,0.3240,0.9506,0.245,-5.495,-0.280,1,1,1,392,399,2025-06-06T09:41:10.986609
1235,0.1684,0.3265,0.9526,-0.315,-5.250,-0.210,1,1,1,381,401,2025-06-06T09:41:10.986609
1236,0.1703,0.3284,0.9526,0.105,-5.250,-0.245,1,1,2,394,394,2025-06-06T09:41:10.986609
1237,0.1688,0.3260,0.9501,0.210,-5.250,-0.315,1,1,0,360,356,2025-06-06T09:41:10.987395
1238,0.1674,0.3260,0.9526,-0.245,-5.180,-0.350,2,1,1,376,367,2025-06-06T09:41:11.141711
1239,0.1669,0.3265,0.9526,0.420,-5.180,-0.280,2,1,1,388,386,2025-06-06T09:41:11.141711
1240,0.1674,0.3240,0.9531,-0.175,-5.040,-0.385,2,1,2,394,384,2025-06-06T09:41:11.141711
1241,0.1688,0.3260,0.9516,0.280,-5.215,-0.245,2,2,2,395,382,2025-06-06T09:41:11.141711
1242,0.1669,0.3240,0.9545,0.070,-5.180,-0.280,2,1,1,402,397,2025-06-06T09:41:11.141711
1243,0.1674,0.3255,0.9531,0.175,-5.145,-0.420,1,2,2,388,395,2025-06-06T09:41:11.141711
1244,0.1669,0.3250,0.9526,0.000,-5.320,-0.245,2,1,1,395,384,2025-06-06T09:41:11.141711
1245,0.1688,0.3279,0.9560,-0.105,-5.355,-0.315,1,2,1,350,388,2025-06-06T09:41:11.141711
1246,0.1679,0.3265,0.9511,0.315,-5.390,-0.280,2,1,1,377,386,2025-06-06T09:41:11.141711
1247,0.1688,0.3265,0.9536,-0.210,-5.320,-0.315,1,1,1,383,389,2025-06-06T09:41:11.141711
1248,0.1684,0.3294,0.9511,0.280,-5.180,-0.350,2,1,1,382,382,2025-06-06T09:41:11.141711
1249,0.1693,0.3250,0.9550,-0.315,-5.180,-0.280,1,1,1,379,392,2025-06-06T09:41:11.141711
1250,0.1649,0.3245,0.9487,0.000,-5.425,-0.280,2,1,1,384,403,2025-06-06T09:41:11.141711
1251,0.1703,0.3211,0.9570,0.210,-5.320,-0.350,2,1,1,377,389,2025-06-06T09:41:11.328458
1252,0.1674,0.3270,0.9516,0.105,-5.145,-0.315,2,1,0,353,387,2025-06-06T09:41:11.328458
1253,0.1664,0.3279,0.9545,0.105,-4.935,-0.315,1,1,1,377,398,2025-06-06T09:41:11.328458
1254,0.1645,0.3260,0.9492,-0.280,-5.285,-0.245,1,0,2,388,365,2025-06-06T09:41:11.328458
1255,0.1674,0.3231,0.9526,0.280,-5.495,-0.315,2,2,1,374,384,2025-06-06T09:41:11.328458
1256,0.1698,0.3255,0.9560,-0.035,-5.250,-0.350,1,1,1,392,350,2025-06-06T09:41:11.328458
1257,0.1669,0.3245,0.9536,0.280,-5.180,-0.245,2,1,1,385,367,2025-06-06T09:41:11.328458
1258,0.1669,0.3279,0.9492,0.035,-5.285,-0.280,2,1,1,378,342,2025-06-06T09:41:11.328458
1259,0.1664,0.3235,0.9526,-0.035,-5.425,-0.315,2,1,1,377,367,2025-06-06T09:41:11.328458
1260,0.1659,0.3240,0.9545,0.000,-5.355,-0.280,1,2,1,380,379,2025-06-06T09:41:11.328458
1261,0.1664,0.3221,0.9575,-0.105,-5.250,-0.350,1,1,2,381,388,2025-06-06T09:41:11.328458
1262,0.1693,0.3240,0.9560,0.420,-5.075,-0.245,1,1,2,389,390,2025-06-06T09:41:11.328458
1263,0.1684,0.3255,0.9496,-8.610,-5.180,-0.280,2,1,2,382,360,2025-06-06T09:41:11.328458
1264,0.1659,0.3274,0.9521,-0.140,-5.250,-0.280,2,2,1,391,379,2025-06-06T09:41:11.330189
1265,0.1688,0.3270,0.9526,0.385,-5.320,-0.210,1,2,2,391,372,2025-06-06T09:41:11.330189
1266,0.1669,0.3255,0.9545,-0.140,-5.250,-0.280,1,1,1,397,387,2025-06-06T09:41:11.330189
1267,0.1703,0.3240,0.9531,0.175,-5.320,-0.245,1,2,1,400,384,2025-06-06T09:41:11.330189
1268,0.1684,0.3245,0.9526,0.105,-5.215,-0.315,2,1,1,397,387,2025-06-06T09:41:11.330189
1269,0.1674,0.3240,0.9526,0.105,-5.320,-0.245,2,2,1,397,397,2025-06-06T09:41:11.330189
1270,0.1664,0.3187,0.9506,0.000,-5.215,-0.315,1,2,1,402,403,2025-06-06T09:41:11.330189
1271,0.1669,0.3235,0.9516,0.735,-5.180,-0.420,1,2,1,404,363,2025-06-06T09:41:11.330189
1272,0.1664,0.3353,0.9643,-8.470,-4.900,-0.385,1,2,1,393,382,2025-06-06T09:41:11.434812
1273,0.1645,0.3216,0.9550,-0.455,-5.285,-0.245,2,1,2,402,389,2025-06-06T09:41:11.434812
1274,0.1674,0.3167,0.9428,0.980,-5.740,-0.420,2,2,2,395,400,2025-06-06T09:41:11.434812
1275,0.1664,0.3309,0.9604,-0.035,-4.865,-0.210,2,2,1,393,394,2025-06-06T09:41:11.434812
1276,0.1640,0.3255,0.9550,-0.280,-5.180,-0.105,1,1,1,389,399,2025-06-06T09:41:11.434812
1277,0.1688,0.3221,0.9501,0.350,-6.055,-0.245,2,1,1,388,392,2025-06-06T09:41:11.434812
1278,0.1693,0.3260,0.9565,0.105,-5.215,-0.175,1,2,1,385,353,2025-06-06T09:41:11.434812
1279,0.1664,0.3240,0.9550,0.315,-5.215,-0.280,1,1,1,342,337,2025-06-06T09:41:11.434812
1280,0.1698,0.3250,0.9506,-0.280,-5.250,-0.315,1,2,1,324,366,2025-06-06T09:41:11.434812
1281,0.1684,0.3235,0.9550,0.630,-5.390,-0.350,1,1,1,361,392,2025-06-06T09:41:11.483697
1282,0.1654,0.3226,0.9555,-0.245,-4.970,-0.385,1,2,1,371,393,2025-06-06T09:41:11.483697
1283,0.1693,0.3250,0.9531,0.140,-5.040,-0.350,1,2,1,385,393,2025-06-06T09:41:11.483697
1284,0.1654,0.3235,0.9579,0.210,-5.180,-0.350,2,1,1,397,356,2025-06-06T09:41:11.483697
1285,0.1659,0.3260,0.9526,0.350,-5.285,-0.350,1,2,2,387,372,2025-06-06T09:41:11.530586
1286,0.1664,0.3255,0.9565,-0.035,-5.215,-0.210,1,1,1,396,392,2025-06-06T09:41:11.530586
1287,0.1645,0.3245,0.9545,0.175,-5.390,-0.210,2,2,1,398,402,2025-06-06T09:41:11.530586
1288,0.1659,0.3250,0.9511,0.490,-5.530,-0.140,2,1,2,399,398,2025-06-06T09:41:11.530586
1289,0.1674,0.3231,0.9550,-0.210,-5.390,-0.210,2,1,2,402,406,2025-06-06T09:41:11.594367
1290,0.1659,0.3250,0.9531,0.385,-5.355,-0.210,2,1,2,386,399,2025-06-06T09:41:11.594367
1291,0.1684,0.3245,0.9560,-0.070,-5.145,-0.315,2,1,1,395,401,2025-06-06T09:41:11.594367
1292,0.1669,0.3226,0.9550,0.385,-5.250,-0.385,1,1,1,394,355,2025-06-06T09:41:11.594367
1293,0.1659,0.3221,0.9550,0.490,-5.145,-0.385,1,2,1,379,366,2025-06-06T09:41:11.739406
1294,0.1659,0.3211,0.9555,-0.105,-5.040,-0.280,1,1,1,378,345,2025-06-06T09:41:11.739406
1295,0.1615,0.3240,0.9560,0.560,-5.250,-0.420,1,1,1,369,330,2025-06-06T09:41:11.739406
1296,0.1635,0.3353,0.9648,0.490,-5.250,-0.455,1,2,2,378,324,2025-06-06T09:41:11.739406
1297,0.1552,0.3118,0.9506,-1.785,-4.585,0.035,1,1,1,392,358,2025-06-06T09:41:11.739406
1298,0.1654,0.2996,0.9228,2.205,-7.490,-0.420,1,1,1,352,300,2025-06-06T09:41:11.739406
1299,0.1781,0.3494,0.9819,-0.525,-4.270,0.000,2,1,1,373,360,2025-06-06T09:41:11.739406
1300,0.1610,0.3172,0.9667,-1.365,-5.390,0.070,1,1,1,382,337,2025-06-06T09:41:11.739406
1301,0.1728,0.3177,0.9262,2.800,-6.895,-0.525,1,1,1,387,360,2025-06-06T09:41:11.739406
1302,0.1771,0.3475,0.9638,0.000,-3.395,-0.140,1,1,1,358,371,2025-06-06T09:41:11.739406
1303,0.1552,0.3211,0.9511,-1.505,-4.795,-0.280,1,1,1,380,355,2025-06-06T09:41:11.739406
1304,0.1747,0.3074,0.9399,0.805,-6.825,-0.455,1,1,1,382,370,2025-06-06T09:41:11.739406
1305,0.1776,0.3133,0.9701,-0.105,-4.550,-0.350,1,1,1,390,380,2025-06-06T09:41:11.739406
1306,0.1581,0.3255,0.9623,1.085,-4.270,-0.525,1,2,1,381,394,2025-06-06T09:41:11.739406
1307,0.1708,0.3314,0.9423,0.140,-4.200,-0.420,2,1,2,393,397,2025-06-06T09:41:11.853226
1308,0.1581,0.3240,0.9521,-0.035,-5.600,-0.420,2,2,1,383,398,2025-06-06T09:41:11.853226
1309,0.1591,0.3157,0.9540,0.000,-5.810,-0.350,2,2,2,383,391,2025-06-06T09:41:11.853226
1310,0.1718,0.3128,0.9623,-0.140,-4.900,-0.210,2,1,1,381,399,2025-06-06T09:41:11.853226
1311,0.1640,0.3235,0.9623,0.700,-5.355,-0.105,1,2,1,390,393,2025-06-06T09:41:11.853226
1312,0.1625,0.3309,0.9506,0.385,-5.495,-0.105,1,2,1,393,385,2025-06-06T09:41:11.853226
1313,0.1684,0.3304,0.9443,-0.070,-5.530,0.035,1,2,2,395,391,2025-06-06T09:41:11.853226
1314,0.1669,0.3206,0.9531,-0.595,-5.950,-0.035,1,2,1,354,359,2025-06-06T09:41:11.853226
1315,0.1723,0.3138,0.9579,-0.140,-5.985,-0.315,2,1,1,369,374,2025-06-06T09:41:11.853226
1316,0.1732,0.3182,0.9575,0.665,-4.900,-0.350,2,2,1,374,341,2025-06-06T09:41:11.946385
1317,0.1635,0.3265,0.9540,0.210,-4.375,-0.490,1,1,1,379,367,2025-06-06T09:41:11.946385
1318,0.1640,0.3270,0.9467,0.490,-4.935,-0.490,2,2,1,392,350,2025-06-06T09:41:11.946385
1319,0.1625,0.3235,0.9511,-0.210,-5.250,-0.490,1,2,1,393,363,2025-06-06T09:41:11.946385
1320,0.1640,0.3157,0.9609,-0.280,-5.145,-0.420,1,2,2,355,372,2025-06-06T09:41:11.946385
1321,0.1664,0.3201,0.9589,0.770,-5.110,-0.315,1,2,1,371,371,2025-06-06T09:41:11.946385
1322,0.1591,0.3118,0.9487,13.720,-8.330,-0.035,0,1,1,369,381,2025-06-06T09:41:11.946385
1323,0.1654,0.3284,0.9374,-0.875,-2.100,0.140,1,2,0,352,386,2025-06-06T09:41:11.946385
1324,0.1571,0.3182,0.9394,2.800,-10.570,-0.350,2,1,1,359,388,2025-06-06T09:41:12.161068
1325,0.1723,0.3265,0.9648,15.260,-5.670,0.035,1,2,1,366,390,2025-06-06T09:41:12.161068
1326,0.1776,0.3196,0.9536,3.010,0.280,0.455,2,2,1,384,370,2025-06-06T09:41:12.161068
1327,0.1615,0.3240,0.9526,4.235,-4.165,-0.035,2,2,2,390,347,2025-06-06T09:41:12.161068
1328,0.1664,0.3323,0.9506,-0.105,-4.655,-0.490,2,1,1,377,372,2025-06-06T09:41:12.161068
1329,0.1728,0.3314,0.9482,-2.870,-1.575,-0.420,1,1,1,373,380,2025-06-06T09:41:12.161068
1330,0.1591,0.3226,0.9521,-4.025,-3.815,-0.560,1,1,1,378,347,2025-06-06T09:41:12.161068
1331,0.1620,0.3279,0.9618,-2.170,-8.365,-0.805,1,1,1,344,358,2025-06-06T09:41:12.161068
1332,0.1654,0.3206,0.9540,-3.360,-6.265,-0.560,1,1,1,371,377,2025-06-06T09:41:12.161068
1333,0.1625,0.3279,0.9560,-7.210,-1.365,-0.140,1,1,1,386,387,2025-06-06T09:41:12.161068
1334,0.1586,0.3235,0.9501,-5.005,-3.115,-0.070,1,1,1,347,372,2025-06-06T09:41:12.161068
1335,0.1552,0.3148,0.9223,2.695,-6.055,-0.245,2,2,2,375,394,2025-06-06T09:41:12.161068
1336,0.1693,0.3284,0.9589,-4.935,-4.095,-0.245,1,1,1,313,374,2025-06-06T09:41:12.161068
1337,0.1732,0.3152,0.9604,4.200,-3.185,0.245,1,2,2,356,376,2025-06-06T09:41:12.161068
1338,0.1737,0.3221,0.9672,-16.870,6.895,0.210,2,1,1,361,378,2025-06-06T09:41:12.161068
1339,0.1586,0.3138,0.9492,3.640,-8.470,-0.525,2,1,1,376,353,2025-06-06T09:41:12.161068
1340,0.1679,0.3192,0.9570,-10.815,-0.840,-0.420,2,1,0,338,336,2025-06-06T09:41:12.161068
1341,0.1659,0.3177,0.9638,2.660,-4.935,-0.525,2,1,1,352,342,2025-06-06T09:41:12.355616
1342,0.1606,0.3255,0.9550,-6.790,-0.280,-0.455,2,2,1,370,371,2025-06-06T09:41:12.355616
1343,0.1571,0.3118,0.9506,-4.480,-2.275,-0.350,1,2,1,346,374,2025-06-06T09:41:12.355616
1344,0.1571,0.3152,0.9692,-5.215,0.210,-0.035,2,1,2,374,392,2025-06-06T09:41:12.355616
1345,0.1640,0.3231,0.9628,-3.255,1.365,-0.455,2,2,1,378,387,2025-06-06T09:41:12.355616
1346,0.1484,0.3040,0.9423,-6.020,1.155,-0.035,2,1,1,385,386,2025-06-06T09:41:12.355616
1347,0.1454,0.3157,0.9814,-6.440,-13.160,-1.085,1,1,1,391,386,2025-06-06T09:41:12.355616
1348,0.1586,0.3157,0.9560,-2.765,-9.450,-0.420,1,2,1,395,387,2025-06-06T09:41:12.355616
1349,0.1557,0.3050,0.9277,2.625,-9.765,-0.245,1,1,1,350,376,2025-06-06T09:41:12.355616
1350,0.1708,0.3070,1.0019,-37.730,24.920,1.085,2,1,1,375,380,2025-06-06T09:41:12.355616
1351,0.2484,0.3011,0.9579,49.630,-45.395,-1.330,1,1,1,385,376,2025-06-06T09:41:12.355616
1352,0.1796,0.3240,0.9584,-25.725,5.880,-0.350,1,2,1,394,386,2025-06-06T09:41:12.355616
1353,0.1659,0.2933,0.9560,-2.905,4.340,0.560,1,1,1,389,382,2025-06-06T09:41:12.355616
1354,0.1444,0.3211,0.9770,-6.615,-1.190,-0.420,1,2,1,378,355,2025-06-06T09:41:12.355616
1355,0.1640,0.2977,0.9501,-8.680,-2.625,-0.560,2,1,1,371,377,2025-06-06T09:41:12.355616
1356,0.1527,0.3035,0.9682,18.235,-13.370,-0.420,1,2,1,342,389,2025-06-06T09:41:12.355616
1357,0.1566,0.3157,0.9711,-11.865,3.675,-0.210,1,1,2,374,400,2025-06-06T09:41:12.355616
1358,0.1444,0.2904,0.9721,3.815,-3.675,0.000,1,2,1,382,367,2025-06-06T09:41:12.409146
1359,0.1552,0.3216,0.9799,-7.770,-4.690,-0.595,1,1,2,383,372,2025-06-06T09:41:12.409146
1360,0.1581,0.2982,0.9692,-11.585,-2.485,0.035,1,2,1,396,381,2025-06-06T09:41:12.409146
1361,0.1479,0.2996,0.9477,1.015,-1.995,0.105,2,2,1,395,376,2025-06-06T09:41:12.409146
1362,0.1435,0.3079,0.9784,-1.330,-6.685,-0.350,2,1,2,382,371,2025-06-06T09:41:12.409146
1363,0.1615,0.3050,0.9716,-5.600,-2.660,0.140,2,2,1,364,380,2025-06-06T09:41:12.571488
