SeqNum,AccX,AccY,AccZ,GyroX,GyroY,GyroZ,Flex,Force1,Force2,Force3,Force4,TimestampReception
1,0.0000,0.0000,0.0000,6.020,-12.880,3.780,146,207,167,151,225,2025-05-24T00:43:30.713845
2,0.0956,-0.1010,0.9882,6.650,-36.330,-13.650,144,205,169,150,220,2025-05-24T00:43:30.713974
3,0.0986,0.2294,1.0067,-18.200,3.570,13.790,150,211,170,155,226,2025-05-24T00:43:30.714000
4,0.2084,-0.0542,0.9726,-12.320,-12.460,-15.750,151,213,173,154,224,2025-05-24T00:43:30.714016
5,0.1518,-0.1196,1.0136,-2.240,-7.840,-3.780,151,217,170,155,227,2025-05-24T00:43:30.714029
6,0.1215,-0.0908,1.0116,0.140,-3.080,-1.050,151,217,174,156,229,2025-05-24T00:43:30.884821
7,0.0488,-0.1142,1.0350,1.540,3.780,-2.380,151,216,171,155,230,2025-05-24T00:43:30.884892
8,0.0761,-0.0986,1.0194,3.850,5.180,1.820,152,215,170,155,225,2025-05-24T00:43:30.884904
9,0.0815,-0.0932,1.0053,7.490,6.090,1.050,152,217,165,156,225,2025-05-24T00:43:30.884914
10,0.0820,-0.0952,1.0077,6.090,-0.770,0.840,152,204,171,156,231,2025-05-24T00:43:30.884924
11,0.0659,-0.1103,0.9784,16.940,1.190,0.000,152,222,172,156,223,2025-05-24T00:43:30.884934
12,0.0864,-0.0834,0.9623,12.880,-5.040,0.140,152,216,172,155,210,2025-05-24T00:43:30.884945
13,0.0966,-0.0922,0.9736,3.290,-7.490,-1.400,152,200,173,157,223,2025-05-24T00:43:31.000965
14,0.0795,-0.0864,0.9921,-5.670,-12.250,-1.820,153,220,173,156,230,2025-05-24T00:43:31.001013
15,0.0615,-0.1122,1.0141,-7.770,-13.090,-0.910,152,220,174,157,223,2025-05-24T00:43:31.001026
16,0.1186,-0.1118,1.0268,-2.450,-9.170,-1.190,153,215,173,157,222,2025-05-24T00:43:31.001036
17,0.1444,-0.1020,1.0365,-2.030,-2.660,-1.050,153,219,171,157,229,2025-05-24T00:43:31.001045
18,0.1230,-0.1044,1.0404,0.210,3.990,-3.290,153,218,174,157,230,2025-05-24T00:43:31.001240
19,0.1039,-0.0996,1.0394,1.190,5.040,-5.950,153,223,176,157,232,2025-05-24T00:43:31.001251
20,0.1020,-0.0927,1.0341,1.960,1.400,-5.110,153,220,173,157,232,2025-05-24T00:43:31.001260
21,0.2440,-0.0766,1.0297,3.150,0.140,-6.160,153,218,174,157,223,2025-05-24T00:43:31.001441
22,0.1249,-0.0820,1.0199,3.850,-1.260,-6.020,153,220,172,157,224,2025-05-24T00:43:31.001467
23,0.1205,-0.0727,1.0053,5.810,1.750,-7.070,152,216,175,157,230,2025-05-24T00:43:31.001475
24,0.1157,-0.0664,0.9819,3.710,-1.610,-7.350,153,222,173,158,225,2025-05-24T00:43:31.001483
25,0.0864,-0.0434,0.9926,-2.660,-11.760,-9.240,153,219,173,158,227,2025-05-24T00:43:31.001499
26,0.1152,0.0386,1.0609,-22.050,-31.570,-3.080,154,224,176,157,232,2025-05-24T00:43:31.001507
27,0.0346,-0.1352,1.0385,-5.810,-24.570,-11.760,153,222,174,157,223,2025-05-24T00:43:31.001517
28,0.0947,-0.1044,1.0336,-0.630,-22.470,-7.560,153,219,176,158,223,2025-05-24T00:43:31.001565
29,0.1693,-0.0952,1.0409,2.380,15.540,-6.090,153,204,173,158,232,2025-05-24T00:43:31.001577
30,0.0761,-0.0795,1.0150,1.960,1.820,-6.790,154,219,173,158,211,2025-05-24T00:43:31.105606
31,0.0732,-0.1132,0.9902,8.540,-2.240,-2.240,154,224,177,159,226,2025-05-24T00:43:31.105654
32,0.0303,-0.1132,0.9780,10.710,-8.960,-2.380,154,207,175,159,225,2025-05-24T00:43:31.105666
33,0.1108,-0.0742,0.9618,6.160,-9.800,-3.220,154,220,174,158,226,2025-05-24T00:43:31.105677
34,0.1318,-0.0732,0.9589,1.120,-8.330,-3.010,155,218,176,158,235,2025-05-24T00:43:31.105687
35,0.1049,-0.0049,0.9506,-3.080,-7.070,-3.010,154,220,175,159,230,2025-05-24T00:43:31.105696
36,0.1342,-0.1113,0.9955,-3.290,-5.390,-0.840,155,221,174,158,226,2025-05-24T00:43:31.105724
37,0.1318,-0.1264,1.0116,-5.180,-2.100,-0.490,155,206,174,159,229,2025-05-24T00:43:31.105733
38,0.1074,-0.1254,1.0102,0.910,-0.910,-2.730,155,204,177,159,213,2025-05-24T00:43:31.105742
39,0.0869,-0.0908,0.9926,-4.620,-6.790,-2.380,154,219,166,159,225,2025-05-24T00:43:31.203916
40,0.1298,-0.1279,0.9536,4.270,-11.970,-2.800,155,221,174,158,226,2025-05-24T00:43:31.203985
41,0.1635,-0.0761,0.9897,-2.590,-11.550,-2.730,154,221,175,158,226,2025-05-24T00:43:31.203998
42,0.1684,-0.1078,0.9960,-6.020,-0.700,-3.640,155,220,177,159,231,2025-05-24T00:43:31.204007
43,0.1108,-0.1928,0.9745,15.190,1.050,-10.360,155,221,175,159,225,2025-05-24T00:43:31.204033
44,0.1591,-0.0991,0.9853,6.020,-8.470,-4.690,154,224,173,158,232,2025-05-24T00:43:31.204041
45,0.1464,-0.0664,1.0087,-0.350,-11.480,-4.760,154,220,174,159,226,2025-05-24T00:43:31.204050
46,0.1313,-0.0795,1.0160,0.280,-10.850,-7.070,155,220,174,159,212,2025-05-24T00:43:31.204058
47,0.1044,-0.0810,1.0111,5.810,-12.880,-10.360,154,223,173,160,227,2025-05-24T00:43:31.425627
48,0.0786,-0.0752,1.0136,8.190,-10.570,-12.600,155,221,176,160,212,2025-05-24T00:43:31.425846
49,0.1132,-0.0708,1.0199,4.620,-15.400,-9.310,155,219,176,159,211,2025-05-24T00:43:31.425878
50,0.0874,-0.0556,1.0175,0.420,-12.810,-8.330,155,221,175,160,227,2025-05-24T00:43:31.425892
51,0.1064,-0.0786,0.9936,3.010,-7.000,-5.320,154,225,174,159,230,2025-05-24T00:43:31.425901
52,0.1049,-0.0493,0.9911,-0.420,-3.570,-2.940,155,220,175,159,232,2025-05-24T00:43:31.425913
53,0.1093,-0.0537,1.0004,-2.800,-0.700,-2.170,155,224,175,159,225,2025-05-24T00:43:31.425922
54,0.0996,-0.0576,1.0126,-6.930,0.070,-0.980,155,208,175,159,226,2025-05-24T00:43:31.425933
55,0.0337,-0.0547,1.0185,-6.930,-1.330,-0.840,155,223,175,159,230,2025-05-24T00:43:31.425941
56,0.0547,-0.0761,1.0165,-0.910,-6.510,-0.630,154,222,173,160,230,2025-05-24T00:43:31.425949
57,0.1166,-0.0781,1.0131,1.050,-13.020,1.890,155,224,174,159,227,2025-05-24T00:43:31.425960
58,0.1645,-0.0747,1.0341,-5.320,-10.010,2.380,155,208,176,159,222,2025-05-24T00:43:31.425970
59,0.2333,-0.0996,1.0394,-8.610,3.290,0.560,155,203,175,159,226,2025-05-24T00:43:31.425983
60,0.1698,-0.1078,1.0399,-3.220,3.500,-1.890,156,224,175,159,231,2025-05-24T00:43:31.425991
61,0.0683,-0.0922,1.0067,11.130,7.070,-4.760,155,218,173,159,213,2025-05-24T00:43:31.425999
62,0.1586,-0.0849,1.0311,3.290,-4.620,-1.050,155,221,176,160,226,2025-05-24T00:43:31.426044
63,0.2704,-0.1615,1.0380,5.880,-6.580,-5.110,155,227,178,160,234,2025-05-24T00:43:31.426053
64,0.1801,-0.1122,1.0502,1.540,-8.050,-8.470,154,226,176,159,227,2025-05-24T00:43:31.426063
65,0.1376,-0.0976,1.0360,9.030,-8.470,-8.120,155,227,174,160,232,2025-05-24T00:43:31.426069
66,0.1196,-0.0532,1.0028,1.260,-4.130,-8.190,155,224,177,160,232,2025-05-24T00:43:31.617452
67,0.1322,-0.1000,1.0648,-23.030,-6.580,-3.920,155,219,177,159,225,2025-05-24T00:43:31.617503
68,0.0844,-0.0820,1.0219,-30.450,1.890,-6.580,155,225,175,160,235,2025-05-24T00:43:31.617516
69,0.0815,-0.1000,1.0682,-32.340,10.850,-6.090,154,205,174,159,231,2025-05-24T00:43:31.617527
70,0.0098,-0.1113,0.9697,-6.020,13.300,-7.000,155,225,177,160,227,2025-05-24T00:43:31.617538
71,0.0712,-0.0595,0.9521,8.960,-0.070,-5.180,155,225,178,160,227,2025-05-24T00:43:31.617564
72,0.1571,-0.0869,0.8760,35.140,10.990,-5.530,154,220,173,159,223,2025-05-24T00:43:31.617576
73,0.1264,-0.1274,0.8940,-3.290,8.470,-1.470,154,220,177,160,214,2025-05-24T00:43:31.617586
74,0.0742,-0.0878,0.9106,-2.310,4.060,-0.280,155,221,177,160,229,2025-05-24T00:43:31.617599
75,0.1049,-0.0952,0.9658,-1.890,-5.950,1.470,155,223,177,159,230,2025-05-24T00:43:31.617609
76,0.1420,-0.1240,1.0146,-0.350,-11.130,-1.330,155,225,177,159,229,2025-05-24T00:43:31.617617
77,0.1552,-0.1396,1.0697,4.480,-17.710,-3.500,155,224,175,160,225,2025-05-24T00:43:31.617626
78,0.1796,-0.1327,1.1331,11.060,-31.850,-5.880,155,221,177,159,227,2025-05-24T00:43:31.617643
79,0.1937,-0.1401,1.1463,17.220,-47.180,-12.040,154,223,176,159,234,2025-05-24T00:43:31.617651
80,0.2372,-0.1352,1.0824,22.610,-42.210,-17.360,155,218,177,160,226,2025-05-24T00:43:31.617660
81,0.2528,-0.1020,1.0521,23.100,-38.500,-21.560,155,219,177,158,232,2025-05-24T00:43:31.817886
82,0.2869,-0.0932,1.0180,20.720,-31.290,-30.380,156,209,177,159,232,2025-05-24T00:43:31.817946
83,0.3109,-0.0571,0.9501,15.120,8.120,-30.660,155,222,178,160,232,2025-05-24T00:43:31.817962
84,0.1698,-0.0752,0.9638,27.930,-7.840,-36.680,156,219,175,160,235,2025-05-24T00:43:31.817975
85,0.1420,-0.0854,0.9638,21.490,-11.200,-42.700,156,218,175,160,213,2025-05-24T00:43:31.817988
86,0.1118,-0.0771,0.9536,0.910,-15.120,-35.560,156,220,176,160,228,2025-05-24T00:43:31.818345
87,0.0927,-0.0634,0.9560,-13.510,-44.520,-55.370,156,227,174,160,222,2025-05-24T00:43:31.818404
88,0.1903,-0.0386,0.9462,-3.990,-46.270,-51.240,157,221,174,161,234,2025-05-24T00:43:31.818419
89,0.1645,0.0034,0.9394,4.970,-32.550,-33.740,156,227,178,160,231,2025-05-24T00:43:31.819614
90,0.1381,-0.0791,0.9331,-40.530,-7.350,-39.340,157,221,176,160,229,2025-05-24T00:43:31.819642
91,0.1596,-0.0434,0.9160,-28.350,-13.090,-21.000,156,223,174,160,224,2025-05-24T00:43:31.819654
92,0.1957,-0.0171,0.9877,-34.580,-3.150,-15.120,156,208,172,160,233,2025-05-24T00:43:31.819665
93,0.1518,-0.0630,0.9872,-29.540,0.350,-9.800,155,221,168,160,229,2025-05-24T00:43:31.819686
94,0.1645,-0.1030,1.0028,-12.180,-0.490,-3.710,156,223,175,160,213,2025-05-24T00:43:31.819701
95,0.1898,-0.0752,1.0116,-7.770,6.370,-1.750,156,220,175,160,207,2025-05-24T00:43:31.819762
96,0.1518,-0.0878,1.0087,0.770,9.870,-1.050,155,227,176,160,232,2025-05-24T00:43:31.819772
97,0.0996,-0.0947,1.0243,8.680,6.510,1.330,155,223,174,160,229,2025-05-24T00:43:31.819782
98,0.1244,-0.0771,1.0453,-1.120,5.250,4.760,156,226,177,160,227,2025-05-24T00:43:32.054728
99,0.1762,-0.1083,1.0692,2.940,0.840,2.660,157,220,172,160,233,2025-05-24T00:43:32.054776
100,0.1669,-0.1025,1.0585,2.450,-3.220,1.330,156,224,178,160,235,2025-05-24T00:43:32.054811
101,0.1801,-0.0771,1.0331,5.040,-5.950,-0.210,155,228,177,160,230,2025-05-24T00:43:32.054822
102,0.1981,-0.0439,0.9794,11.620,-4.830,-0.630,156,226,177,161,233,2025-05-24T00:43:32.054832
103,0.2303,-0.0268,0.9360,7.280,0.560,-0.490,156,218,176,160,233,2025-05-24T00:43:32.054842
104,0.2357,-0.0176,0.9048,-7.770,18.900,-2.240,156,231,169,160,233,2025-05-24T00:43:32.054852
105,0.1342,-0.0395,0.9121,-15.120,26.110,-1.610,157,209,179,161,230,2025-05-24T00:43:32.054861
106,0.1235,-0.0371,0.9038,-16.800,15.120,-1.890,156,223,175,160,233,2025-05-24T00:43:32.054871
107,0.1108,-0.0483,0.9140,-21.280,13.020,-2.870,156,222,170,161,233,2025-05-24T00:43:32.054884
108,0.1127,-0.0717,0.9677,-21.980,3.360,1.260,156,221,177,161,233,2025-05-24T00:43:32.054893
109,0.1610,-0.0800,1.1195,-28.700,10.500,3.850,157,226,169,161,231,2025-05-24T00:43:32.055072
110,0.1903,-0.0888,1.0067,-26.670,23.380,7.630,157,227,175,161,230,2025-05-24T00:43:32.055095
111,0.1762,-0.0839,1.0297,-26.180,23.240,6.160,155,229,177,161,229,2025-05-24T00:43:32.055105
112,0.1728,-0.0776,1.0521,-22.190,21.980,7.910,157,221,177,160,233,2025-05-24T00:43:32.055168
113,0.1464,-0.0971,1.0458,-14.560,12.320,7.350,157,221,178,160,222,2025-05-24T00:43:32.055264
114,0.1122,-0.1196,1.0268,-1.050,-4.900,5.810,156,228,175,160,226,2025-05-24T00:43:32.055291
115,0.1410,-0.1166,1.0160,3.010,-6.580,4.340,156,224,176,160,214,2025-05-24T00:43:32.055300
116,0.1840,-0.1118,1.0102,5.530,-11.340,3.080,156,212,177,160,228,2025-05-24T00:43:32.055327
117,0.1972,-0.1274,1.0111,6.230,-10.990,2.030,156,207,169,159,229,2025-05-24T00:43:32.055336
118,0.2035,-0.1313,1.0199,6.650,-9.800,2.100,154,227,175,160,233,2025-05-24T00:43:32.145594
119,0.1737,-0.1347,1.0394,3.360,-9.590,0.210,156,224,169,160,222,2025-05-24T00:43:32.145637
120,0.2084,-0.0415,1.0590,-13.650,-3.080,1.190,156,225,177,161,230,2025-05-24T00:43:32.145649
121,0.1610,-0.1235,0.9941,-7.560,0.350,-0.840,155,225,178,160,227,2025-05-24T00:43:32.145676
122,0.0947,-0.1093,0.9199,-8.120,3.360,-1.820,157,228,169,160,231,2025-05-24T00:43:32.145687
123,0.0586,-0.0893,0.9150,-3.220,-5.040,-0.210,157,229,177,161,231,2025-05-24T00:43:32.145696
124,0.0644,-0.1152,0.9282,-5.110,-10.220,2.940,156,230,169,161,231,2025-05-24T00:43:32.145705
125,0.0820,-0.1215,0.9648,-9.940,-11.200,1.330,157,222,169,160,225,2025-05-24T00:43:32.145713
126,0.1479,-0.1005,1.0116,-10.430,-12.460,2.660,157,223,177,161,232,2025-05-24T00:43:32.410122
127,0.1986,-0.1401,1.0419,-8.610,-9.520,0.980,156,220,178,160,226,2025-05-24T00:43:32.410168
128,0.2167,-0.1025,1.0594,-8.050,-4.830,-0.700,156,210,177,160,226,2025-05-24T00:43:32.410199
129,0.1903,-0.1464,1.0585,-1.120,-4.410,-1.610,156,223,176,160,224,2025-05-24T00:43:32.410209
130,0.1976,-0.1771,1.0751,2.940,-2.870,-3.010,156,229,176,161,230,2025-05-24T00:43:32.410222
131,0.1674,-0.1586,1.0663,11.130,-10.290,-8.260,157,223,177,161,231,2025-05-24T00:43:32.410230
132,0.1732,-0.1161,1.0453,9.660,-13.230,-8.330,156,225,176,160,232,2025-05-24T00:43:32.410239
133,0.2625,-0.1884,1.0087,2.170,-5.950,-8.470,156,209,177,160,228,2025-05-24T00:43:32.410247
134,0.1508,-0.1332,0.9784,12.530,-7.000,-11.900,156,207,177,160,232,2025-05-24T00:43:32.410255
135,0.1596,-0.0874,0.9555,14.630,-6.580,-7.630,156,224,178,160,230,2025-05-24T00:43:32.410266
136,0.2001,-0.0683,0.9618,9.380,-5.390,-5.390,156,206,169,161,228,2025-05-24T00:43:32.410274
137,0.1415,-0.0834,0.9677,4.900,-5.110,-4.760,156,223,175,161,227,2025-05-24T00:43:32.410281
138,0.1074,-0.0839,0.9736,4.270,-6.930,-5.110,155,228,178,161,234,2025-05-24T00:43:32.410289
139,0.0883,-0.0839,0.9692,3.500,-10.080,-4.690,156,219,176,160,227,2025-05-24T00:43:32.410296
140,0.1342,-0.0688,0.9716,-0.070,-12.670,-2.590,157,219,177,160,228,2025-05-24T00:43:32.410303
141,0.1298,-0.0722,0.9911,-4.760,-9.870,-0.980,156,223,169,160,226,2025-05-24T00:43:32.410341
142,0.1444,-0.0898,1.0214,-9.730,-11.480,2.800,157,221,175,160,208,2025-05-24T00:43:32.410354
143,0.1279,-0.0859,1.0531,-15.330,1.260,3.290,157,221,177,161,227,2025-05-24T00:43:32.410361
144,0.1274,-0.1147,1.0302,-19.040,18.130,4.970,157,228,177,161,232,2025-05-24T00:43:32.410368
145,0.1747,-0.0805,1.0668,-29.750,31.080,8.190,156,226,176,160,234,2025-05-24T00:43:32.410376
146,0.1166,-0.1171,1.0712,-41.580,58.380,7.700,156,220,176,160,228,2025-05-24T00:43:32.410383
147,0.1015,-0.1581,1.0331,-33.670,60.620,4.690,156,206,175,160,214,2025-05-24T00:43:32.499713
148,-0.0117,-0.1684,1.0321,-9.870,28.070,2.940,156,209,173,160,229,2025-05-24T00:43:32.499767
149,0.0888,-0.1420,1.0365,-0.630,-4.550,7.070,155,224,175,159,232,2025-05-24T00:43:32.499798
150,0.1796,-0.1410,1.0263,-3.360,-14.630,6.650,155,220,173,159,229,2025-05-24T00:43:32.499810
151,0.2045,-0.1513,1.0214,-3.920,-6.440,5.040,156,221,176,161,225,2025-05-24T00:43:32.499820
152,0.1762,-0.1557,0.9945,-0.140,-1.190,4.690,156,228,178,161,224,2025-05-24T00:43:32.499836
153,0.1698,-0.1401,0.9877,0.630,-8.540,3.430,156,209,176,159,231,2025-05-24T00:43:32.637544
154,0.1815,-0.1283,1.0019,-2.030,-18.060,2.870,155,224,175,159,228,2025-05-24T00:43:32.637601
155,0.1708,-0.1386,0.9916,-8.120,-14.560,0.980,156,225,175,159,231,2025-05-24T00:43:32.637613
156,0.1444,-0.1635,0.9887,-8.260,-12.390,-0.910,156,222,175,160,227,2025-05-24T00:43:32.637643
157,0.1327,-0.1630,0.9628,-4.480,-8.960,-2.520,155,229,178,160,233,2025-05-24T00:43:32.637653
158,0.1537,-0.1459,0.9667,-4.620,-9.240,-3.990,156,222,174,160,226,2025-05-24T00:43:32.637664
159,0.1562,-0.1337,0.9614,-7.840,-8.960,-3.010,156,228,174,160,231,2025-05-24T00:43:32.637673
160,0.1488,-0.1410,0.9540,-10.220,-4.830,-1.820,155,224,175,160,227,2025-05-24T00:43:32.637682
161,0.1205,-0.1347,0.9687,-12.600,-5.950,-1.120,156,228,174,159,213,2025-05-24T00:43:32.637691
162,0.1035,-0.1479,0.9911,-14.770,-13.370,0.560,155,227,176,160,228,2025-05-24T00:43:32.637700
163,0.0883,-0.1625,1.0106,-13.580,-23.800,2.660,155,225,168,161,225,2025-05-24T00:43:32.637713
164,0.0986,-0.1810,1.0472,-9.380,-30.240,4.060,155,225,174,160,232,2025-05-24T00:43:32.637722
165,0.1220,-0.1791,1.0878,-0.840,-49.280,10.920,155,230,178,160,225,2025-05-24T00:43:32.637730
166,0.0717,-0.1986,1.0136,0.070,-29.890,7.840,156,227,174,160,236,2025-05-24T00:43:32.637741
167,0.1293,-0.1947,1.0941,4.200,-13.090,2.940,155,223,177,160,229,2025-05-24T00:43:32.686748
168,0.1161,-0.1825,1.1004,8.540,-14.000,2.800,155,230,177,161,224,2025-05-24T00:43:32.686793
169,0.1293,-0.1776,1.0673,9.100,-15.330,1.400,155,227,177,160,234,2025-05-24T00:43:32.686822
170,0.1352,-0.1645,1.0531,7.980,-8.540,0.700,155,227,177,160,228,2025-05-24T00:43:32.686832
171,0.1191,-0.1488,1.0331,8.260,-4.060,2.660,156,223,176,159,225,2025-05-24T00:43:32.863418
172,0.0956,-0.1503,1.0277,10.430,-4.270,5.670,156,225,177,160,233,2025-05-24T00:43:32.863465
173,0.0854,-0.1508,1.0331,9.940,-3.010,8.610,155,224,176,160,227,2025-05-24T00:43:32.863478
174,0.0991,-0.1713,1.0336,9.030,-0.770,12.320,154,229,178,159,213,2025-05-24T00:43:32.863490
175,0.1020,-0.1771,1.0307,9.100,3.570,18.480,156,225,177,160,232,2025-05-24T00:43:32.863519
176,0.0932,-0.1767,1.0253,11.550,8.540,22.680,156,226,175,160,219,2025-05-24T00:43:32.863723
177,0.0810,-0.1576,1.0263,13.580,10.780,27.720,155,223,177,159,228,2025-05-24T00:43:32.863734
178,0.0630,-0.1527,1.0321,14.140,10.850,28.910,155,226,176,160,235,2025-05-24T00:43:32.863749
179,0.0737,-0.1425,1.0316,13.090,9.030,30.660,155,219,174,159,231,2025-05-24T00:43:32.863762
180,0.0956,-0.1488,1.0341,10.710,8.680,31.360,155,219,177,159,232,2025-05-24T00:43:32.863772
181,0.1220,-0.1488,1.0297,10.850,10.920,32.270,155,225,176,159,226,2025-05-24T00:43:32.863780
182,0.1244,-0.1625,1.0316,12.740,13.650,34.440,156,208,174,159,213,2025-05-24T00:43:32.863789
183,0.1059,-0.1732,1.0409,16.870,14.700,36.470,156,226,177,159,229,2025-05-24T00:43:32.863797
184,0.1030,-0.1688,1.0429,20.440,13.440,37.170,154,226,176,159,226,2025-05-24T00:43:32.863805
185,0.1093,-0.1684,1.0512,23.100,10.920,34.790,155,224,175,160,231,2025-05-24T00:43:32.863814
186,-0.0625,-0.1713,0.9477,51.870,4.690,24.920,156,226,177,160,232,2025-05-24T00:43:33.051507
187,0.1557,-0.0937,1.1444,112.210,6.370,21.630,154,223,177,159,225,2025-05-24T00:43:33.051553
188,0.1747,-0.0551,0.9989,-1.540,-19.670,29.680,154,226,172,158,231,2025-05-24T00:43:33.051565
189,0.2167,-0.0820,0.9150,10.850,4.970,29.120,155,224,174,158,207,2025-05-24T00:43:33.051575
190,0.2528,-0.1035,0.9150,-3.990,18.060,30.380,155,209,173,159,229,2025-05-24T00:43:33.051585
191,0.2079,-0.0961,0.9628,3.150,26.180,29.680,155,224,171,159,229,2025-05-24T00:43:33.051594
192,0.2001,-0.1015,0.9706,3.430,23.240,28.700,155,228,174,159,229,2025-05-24T00:43:33.051604
193,0.1718,-0.0795,0.9877,-2.590,16.310,22.050,155,222,165,159,213,2025-05-24T00:43:33.051613
194,0.1552,-0.0849,0.9326,18.060,17.920,14.560,154,229,177,159,233,2025-05-24T00:43:33.051622
195,0.1474,-0.0634,0.9257,27.580,20.230,8.610,155,225,175,159,228,2025-05-24T00:43:33.051631
196,0.1337,-0.0581,0.9599,39.550,8.050,6.160,155,223,168,159,224,2025-05-24T00:43:33.051640
197,0.1366,-0.0102,0.9770,17.080,-6.370,7.070,154,207,176,158,230,2025-05-24T00:43:33.051649
198,0.1581,-0.0317,0.9560,5.040,-2.940,6.440,155,218,176,160,229,2025-05-24T00:43:33.051657
199,0.1352,-0.0678,0.9945,-11.130,9.310,6.720,156,230,168,159,225,2025-05-24T00:43:33.051681
200,0.1000,-0.0498,1.0014,5.390,12.250,7.560,155,220,173,160,231,2025-05-24T00:43:33.051690
201,0.0371,-0.0327,0.9716,8.960,12.810,8.260,155,221,174,160,232,2025-05-24T00:43:33.197781
202,0.0415,0.0156,1.0404,3.430,4.620,12.600,155,224,178,160,231,2025-05-24T00:43:33.197798
203,0.0449,-0.0361,1.0087,11.410,2.450,13.370,156,226,168,160,232,2025-05-24T00:43:33.197805
204,0.0659,-0.0610,1.0243,5.460,0.630,7.350,155,225,172,159,226,2025-05-24T00:43:33.197811
205,0.1064,-0.0542,1.0365,10.220,-1.330,10.570,155,226,175,160,213,2025-05-24T00:43:33.197822
206,0.1293,-0.0708,1.0048,8.540,4.620,11.270,155,226,174,159,226,2025-05-24T00:43:33.197828
207,0.1142,-0.0644,1.0136,8.190,7.700,12.600,155,222,177,159,223,2025-05-24T00:43:33.197833
208,0.1147,-0.0185,1.0243,6.440,6.720,15.890,155,225,177,160,234,2025-05-24T00:43:33.251266
209,0.1288,-0.0337,1.0385,10.010,2.240,16.240,156,227,173,160,233,2025-05-24T00:43:33.251329
210,0.1142,-0.0454,1.0497,7.700,-6.650,13.510,155,225,173,159,212,2025-05-24T00:43:33.251344
211,0.1127,-0.0493,1.0272,14.420,-16.660,4.900,155,225,168,159,213,2025-05-24T00:43:33.251354
212,0.1122,-0.0434,1.0472,30.800,-14.980,-3.010,155,222,174,159,226,2025-05-24T00:43:33.251366
213,0.1249,-0.0376,1.0263,30.870,-19.320,-2.380,156,210,177,160,231,2025-05-24T00:43:33.251376
214,0.2020,-0.0078,1.0673,45.010,-32.830,-3.710,155,226,174,159,214,2025-05-24T00:43:33.251386
215,0.1889,-0.0107,1.0253,42.350,-34.160,-2.450,155,209,176,159,225,2025-05-24T00:43:33.251396
216,0.1864,0.0098,0.9945,50.050,-25.200,-9.520,155,224,172,160,213,2025-05-24T00:43:33.251410
217,0.1669,-0.0176,0.9955,44.870,-26.950,-7.280,155,222,173,159,227,2025-05-24T00:43:33.251420
218,0.2176,0.0190,1.0028,33.810,-33.670,0.980,155,226,173,160,232,2025-05-24T00:43:33.491517
219,0.1210,-0.0117,0.9672,33.040,-51.030,-2.380,155,221,175,159,232,2025-05-24T00:43:33.491558
220,0.1005,-0.0400,0.9877,31.780,-37.240,-2.450,155,207,173,159,225,2025-05-24T00:43:33.491570
221,0.0659,-0.0249,0.9355,30.100,-32.760,-2.380,155,221,175,160,233,2025-05-24T00:43:33.491580
222,0.1308,0.0102,0.8994,21.350,-22.610,-0.770,155,226,177,160,220,2025-05-24T00:43:33.491589
223,0.1649,0.0190,0.8574,4.900,-12.670,2.100,156,231,175,161,227,2025-05-24T00:43:33.491611
224,0.1840,0.0786,0.8921,-18.690,2.660,5.460,156,228,177,160,225,2025-05-24T00:43:33.491624
225,0.1152,0.0698,0.9643,-35.910,18.550,5.460,156,228,176,160,207,2025-05-24T00:43:33.491632
226,0.0337,0.0464,1.0355,-41.790,8.890,1.260,155,223,177,160,221,2025-05-24T00:43:33.491641
227,0.1005,0.0195,1.0863,-43.400,1.400,-0.350,156,220,175,160,225,2025-05-24T00:43:33.491649
228,0.1015,-0.0439,1.0863,-35.070,-4.270,-2.660,155,227,177,160,235,2025-05-24T00:43:33.491657
229,0.1713,-0.0185,1.0946,-23.310,-0.350,1.330,155,221,175,160,226,2025-05-24T00:43:33.491666
230,0.1830,-0.0107,1.0692,-17.780,9.240,1.540,155,224,174,160,220,2025-05-24T00:43:33.491683
231,0.1464,-0.1010,1.1492,-34.020,5.390,5.250,154,223,175,159,229,2025-05-24T00:43:33.491691
232,0.0620,-0.0332,1.1497,-35.770,2.170,4.760,155,224,178,159,225,2025-05-24T00:43:33.491699
233,0.0971,0.0142,1.0385,-43.610,-8.260,3.570,155,210,174,159,212,2025-05-24T00:43:33.491732
234,0.1332,-0.0366,1.0697,-5.530,-8.960,6.650,154,221,173,159,224,2025-05-24T00:43:33.491741
235,0.1606,-0.0293,1.0409,3.290,1.610,8.960,154,219,167,157,231,2025-05-24T00:43:33.583181
236,0.0703,0.0317,1.1170,7.000,-2.100,9.800,154,220,177,159,230,2025-05-24T00:43:33.583238
237,0.1210,-0.0224,1.0126,11.550,-3.430,8.050,153,208,175,159,233,2025-05-24T00:43:33.583253
238,0.1913,-0.0654,1.0087,4.060,3.360,11.480,153,219,175,158,233,2025-05-24T00:43:33.583290
239,0.1430,0.0015,0.9067,8.820,-4.130,5.460,154,226,176,158,232,2025-05-24T00:43:33.583302
240,0.1357,-0.0142,0.9726,-3.360,-13.720,7.980,154,224,172,159,230,2025-05-24T00:43:33.583323
241,0.1459,0.0039,0.9399,13.580,-20.440,3.220,155,218,173,158,231,2025-05-24T00:43:33.583338
242,0.1854,0.0137,0.9277,-4.200,-19.390,2.800,154,221,176,159,226,2025-05-24T00:43:33.675379
243,0.2342,0.0034,0.9448,1.470,-15.400,1.820,154,217,174,159,224,2025-05-24T00:43:33.675427
244,0.2664,-0.0034,0.9443,-6.580,-8.820,1.470,154,209,175,159,222,2025-05-24T00:43:33.675439
245,0.1898,-0.0464,0.9496,-24.990,6.230,-8.120,155,206,176,159,225,2025-05-24T00:43:33.675469
246,0.1059,-0.0122,0.9496,-11.060,-3.710,-8.120,154,207,175,159,231,2025-05-24T00:43:33.675479
247,0.1444,-0.0273,0.9848,-1.190,-14.980,-6.370,154,221,166,159,229,2025-05-24T00:43:33.675489
248,0.1366,-0.0473,0.9911,3.290,-8.190,-12.390,155,210,168,160,232,2025-05-24T00:43:33.675500
249,0.0874,-0.0278,0.9706,12.320,10.850,-21.980,154,223,173,159,212,2025-05-24T00:43:33.675511
250,0.1161,-0.0395,1.0472,28.420,3.990,-20.160,154,228,173,160,231,2025-05-24T00:43:33.675521
251,0.0703,-0.0229,1.0141,15.120,-5.460,-10.080,155,225,175,159,212,2025-05-24T00:43:33.675530
252,0.0444,-0.0195,0.9916,17.920,5.880,-9.240,155,226,167,159,230,2025-05-24T00:43:33.675545
253,0.1054,-0.0254,1.0292,25.410,3.500,-6.650,155,221,173,159,228,2025-05-24T00:43:33.766158
254,0.1093,-0.0239,1.0063,23.380,10.150,-0.350,155,226,172,160,234,2025-05-24T00:43:33.766184
255,0.0878,-0.0190,1.0448,24.780,5.110,1.890,155,220,178,160,235,2025-05-24T00:43:33.766189
256,0.0854,-0.0107,1.0438,28.420,-3.360,0.000,155,224,174,160,227,2025-05-24T00:43:33.766195
257,0.0908,0.0102,1.0429,30.450,-4.550,1.960,155,220,173,159,233,2025-05-24T00:43:33.766199
258,0.1430,0.0073,1.0492,18.550,-1.190,0.490,155,220,173,160,232,2025-05-24T00:43:33.766212
259,0.1591,0.0000,1.0433,15.050,2.450,0.210,154,226,175,159,213,2025-05-24T00:43:33.766218
260,0.1293,0.0088,1.0311,7.770,1.050,1.400,154,216,174,160,230,2025-05-24T00:43:33.766222
261,0.1015,0.0185,1.0116,10.780,-2.940,0.000,155,223,177,160,235,2025-05-24T00:43:33.814658
262,0.1137,0.0273,0.9989,14.980,-3.710,-0.700,155,208,173,160,214,2025-05-24T00:43:33.814698
263,0.1132,0.0142,1.0185,13.510,-9.380,0.980,156,227,177,160,234,2025-05-24T00:43:33.814802
264,0.1444,0.0303,1.0219,7.910,-11.760,2.450,156,229,177,160,227,2025-05-24T00:43:33.814823
265,0.1464,0.0088,1.0331,1.890,-7.350,2.310,156,229,177,160,228,2025-05-24T00:43:33.871448
266,0.1659,0.0386,1.0370,5.040,-5.880,-1.190,155,223,168,159,232,2025-05-24T00:43:33.871508
267,0.1288,0.0278,1.0121,9.380,6.300,0.140,156,223,177,160,234,2025-05-24T00:43:33.871520
268,0.1415,0.0346,1.0136,4.060,1.820,-0.490,156,228,176,160,229,2025-05-24T00:43:33.871530
269,0.1425,0.0259,1.0058,4.200,6.090,0.840,155,225,175,160,225,2025-05-24T00:43:34.134865
270,0.1283,0.0312,1.0067,-0.070,11.410,0.770,156,228,175,160,232,2025-05-24T00:43:34.134919
271,0.1396,0.0342,1.0233,-4.620,7.000,1.190,155,224,176,158,227,2025-05-24T00:43:34.134933
272,0.1157,0.0361,1.0175,-6.020,0.210,-3.500,155,208,176,159,211,2025-05-24T00:43:34.134945
273,0.1171,0.0390,1.0233,-7.630,-6.860,-3.220,155,209,168,160,232,2025-05-24T00:43:34.134957
274,0.1469,0.0146,1.0150,-2.730,-6.370,-2.520,155,225,177,160,229,2025-05-24T00:43:34.134967
275,0.1147,0.0224,1.0146,2.310,-4.410,-3.850,156,222,174,160,208,2025-05-24T00:43:34.135090
276,0.1078,0.0020,1.0673,3.220,-3.640,-2.730,157,218,177,160,230,2025-05-24T00:43:34.135157
277,0.1039,0.0151,1.1263,-8.050,-6.510,-4.830,155,227,169,160,228,2025-05-24T00:43:34.135184
278,0.1244,-0.0010,1.1195,-19.740,-4.340,-11.410,155,222,177,161,226,2025-05-24T00:43:34.135194
279,0.2094,-0.0229,1.0560,-8.470,-8.190,-16.030,155,219,176,160,221,2025-05-24T00:43:34.135204
280,0.2064,0.0190,0.9887,2.730,-2.730,-9.590,156,225,178,160,225,2025-05-24T00:43:34.135214
281,0.1469,0.0586,0.9189,6.860,6.930,-6.860,155,223,176,159,233,2025-05-24T00:43:34.135225
282,0.1376,0.0664,0.8882,7.000,7.350,-1.680,156,230,178,161,220,2025-05-24T00:43:34.135234
283,0.1259,0.0756,0.8852,-1.050,8.890,0.910,155,224,177,161,214,2025-05-24T00:43:34.135243
284,0.1225,0.0854,0.8950,-12.950,11.970,3.360,155,220,175,160,225,2025-05-24T00:43:34.135299
285,0.1020,0.0190,0.9194,-18.690,10.220,2.170,156,223,175,160,207,2025-05-24T00:43:34.135310
286,0.0625,-0.0024,0.9560,-20.790,5.670,2.940,156,230,176,160,207,2025-05-24T00:43:34.135320
287,0.0795,-0.0073,0.9604,-17.570,0.350,1.820,156,224,174,161,228,2025-05-24T00:43:34.135334
288,0.1127,-0.0020,0.9579,-16.310,-1.120,0.000,156,227,175,160,234,2025-05-24T00:43:34.349944
289,0.1288,0.0073,0.9867,-18.760,-2.380,0.490,155,225,178,160,226,2025-05-24T00:43:34.349988
290,0.1557,0.0073,1.0175,-22.470,-1.820,-0.070,156,225,168,160,229,2025-05-24T00:43:34.350001
291,0.1113,-0.0151,1.0385,-26.530,-1.330,0.980,157,225,175,161,231,2025-05-24T00:43:34.350010
292,0.0942,-0.0512,1.0463,-21.350,-2.660,0.140,156,224,176,160,224,2025-05-24T00:43:34.350019
293,0.0864,-0.0410,1.0458,-15.330,-2.100,-0.350,156,209,178,161,212,2025-05-24T00:43:34.350028
294,0.0522,-0.0586,1.0926,-11.340,-4.270,3.570,156,223,178,160,227,2025-05-24T00:43:34.350054
295,0.0737,-0.0654,1.1122,-8.050,-4.480,6.790,156,229,175,161,226,2025-05-24T00:43:34.350063
296,0.1303,-0.0708,1.1356,-4.900,1.120,4.340,156,222,178,161,212,2025-05-24T00:43:34.350075
297,0.0869,-0.0673,1.1107,0.560,1.540,1.260,156,223,174,160,228,2025-05-24T00:43:34.350084
298,0.0747,-0.0537,1.0697,9.590,0.910,-0.840,156,229,177,160,232,2025-05-24T00:43:34.350092
299,0.0976,-0.0210,1.0443,14.280,-1.260,-3.080,157,225,175,160,221,2025-05-24T00:43:34.350100
300,0.0800,-0.0195,0.9931,13.440,-0.070,-5.040,156,221,174,160,226,2025-05-24T00:43:34.350108
301,0.1035,0.0137,0.9501,11.270,1.610,-4.690,156,222,177,160,229,2025-05-24T00:43:34.350121
302,0.1030,0.0420,0.9355,-0.140,1.750,-5.460,156,223,176,161,231,2025-05-24T00:43:34.350129
303,0.0859,0.0044,0.9316,-9.520,-0.140,-6.510,155,226,174,160,230,2025-05-24T00:43:34.350164
304,0.0908,-0.0098,0.9526,-18.760,-2.450,-4.410,157,224,175,160,226,2025-05-24T00:43:34.350173
305,0.1118,-0.0386,0.9867,-22.610,-1.820,-3.780,157,224,178,160,228,2025-05-24T00:43:34.350181
306,0.0102,0.0298,0.9941,-27.090,1.120,-3.220,156,229,175,161,226,2025-05-24T00:43:34.350189
307,0.1713,-0.0410,1.0492,-42.000,-4.270,-2.660,156,225,178,161,230,2025-05-24T00:43:34.522100
308,0.0761,-0.0454,1.0350,-13.230,-2.380,-3.500,156,220,176,160,224,2025-05-24T00:43:34.522174
309,0.0327,-0.0190,1.0394,-10.010,-11.480,-2.450,156,208,177,161,229,2025-05-24T00:43:34.522186
310,0.0825,-0.0200,1.0360,-6.790,-14.700,-0.350,156,223,175,161,225,2025-05-24T00:43:34.522197
311,0.2152,-0.0303,1.0692,-15.330,-34.860,4.340,156,227,176,160,231,2025-05-24T00:43:34.522207
312,0.3196,-0.1859,1.0917,-14.210,-1.330,3.220,157,227,176,161,229,2025-05-24T00:43:34.522216
313,0.1220,-0.0493,1.1048,-8.190,-4.620,-2.310,156,224,178,160,229,2025-05-24T00:43:34.522230
314,0.1723,-0.0859,1.0912,-9.940,-9.870,0.700,157,227,176,160,224,2025-05-24T00:43:34.522240
315,0.1249,-0.0737,1.0804,2.310,-4.900,-2.800,157,223,177,160,232,2025-05-24T00:43:34.522257
316,0.0761,-0.0473,1.0555,2.380,-11.900,-3.640,157,220,177,161,229,2025-05-24T00:43:34.522267
317,0.1196,-0.0293,1.0746,-1.820,-29.050,-2.870,156,216,176,160,231,2025-05-24T00:43:34.522281
318,0.1215,-0.0278,1.0721,-3.150,-33.250,-1.540,156,225,175,160,229,2025-05-24T00:43:34.522290
319,0.1791,-0.0249,1.0609,-7.910,-22.470,-0.700,156,218,175,160,224,2025-05-24T00:43:34.522299
320,0.1298,-0.0122,1.0780,-5.040,-5.460,-1.120,156,223,176,160,226,2025-05-24T00:43:34.522312
321,0.0952,-0.0610,1.0399,-4.480,-1.890,-1.470,156,219,179,160,221,2025-05-24T00:43:34.522356
322,0.1362,-0.0732,1.0692,1.890,-5.460,-2.940,157,227,177,161,229,2025-05-24T00:43:34.787282
323,0.0830,-0.0781,1.0448,10.640,-8.680,-5.040,157,221,178,161,228,2025-05-24T00:43:34.787343
324,0.0942,-0.0864,1.0419,19.880,-8.470,-5.740,156,225,177,161,229,2025-05-24T00:43:34.787353
325,0.1044,-0.0351,1.0033,19.040,-10.920,-7.630,157,226,175,161,220,2025-05-24T00:43:34.787362
326,0.1376,-0.0088,0.9653,19.600,-3.570,-5.950,156,223,178,160,227,2025-05-24T00:43:34.787371
327,0.1488,-0.0307,0.9516,17.290,-1.820,-3.990,156,223,177,161,232,2025-05-24T00:43:34.787378
328,0.1464,-0.0034,0.9492,18.970,-1.120,-2.170,156,221,175,161,234,2025-05-24T00:43:34.787387
329,0.1098,-0.0005,0.9238,15.190,3.430,-0.700,157,223,175,160,209,2025-05-24T00:43:34.787394
330,0.0913,0.0098,0.9531,8.750,-1.960,0.840,157,228,177,162,228,2025-05-24T00:43:34.787406
331,0.0551,-0.0220,0.9267,4.480,-4.060,-0.980,157,227,178,161,229,2025-05-24T00:43:34.787413
332,0.0059,-0.0298,0.9048,19.740,-10.850,-0.210,157,227,179,161,228,2025-05-24T00:43:34.787421
333,0.0464,0.0205,0.8979,16.940,-18.690,1.820,158,227,178,162,209,2025-05-24T00:43:34.787428
334,0.1020,0.0127,0.8960,12.810,-16.100,3.710,158,224,175,162,229,2025-05-24T00:43:34.787435
335,0.1147,0.0390,0.9301,0.840,-13.370,7.560,156,220,176,162,234,2025-05-24T00:43:34.787553
336,0.1591,0.0015,1.0102,-8.190,-13.300,11.270,157,226,177,162,214,2025-05-24T00:43:34.787562
337,0.1630,-0.0610,1.0512,-16.240,-10.220,8.540,158,234,174,162,228,2025-05-24T00:43:34.787600
338,0.1942,-0.0337,1.0829,-19.320,-8.610,7.700,157,236,179,161,230,2025-05-24T00:43:34.787607
339,0.1347,-0.0659,1.0634,-16.870,-7.910,3.640,158,227,177,162,231,2025-05-24T00:43:34.964442
340,0.1376,-0.0810,1.0497,-12.740,-10.570,1.960,157,226,178,162,228,2025-05-24T00:43:34.964610
341,0.1088,-0.0712,1.0858,-11.900,-17.570,1.470,159,222,176,162,234,2025-05-24T00:43:34.964622
342,0.1664,-0.0630,1.1219,-14.770,-21.000,-1.120,158,234,168,161,230,2025-05-24T00:43:34.964632
343,0.1615,-0.0908,1.0868,-17.290,-17.990,-3.710,157,235,169,162,234,2025-05-24T00:43:34.964645
344,0.2279,-0.0605,1.0429,-14.420,-13.860,-2.380,157,230,179,162,232,2025-05-24T00:43:34.964667
345,0.2069,-0.0464,0.9892,-4.410,0.140,0.980,158,229,177,161,232,2025-05-24T00:43:34.964680
346,0.1659,-0.0322,0.9784,-6.300,9.870,2.940,158,234,177,162,230,2025-05-24T00:43:34.964689
347,0.1093,-0.0449,0.9784,-7.560,12.250,2.870,158,213,177,162,215,2025-05-24T00:43:34.964697
348,0.0820,-0.0410,0.9775,-5.250,7.980,2.590,158,214,177,162,233,2025-05-24T00:43:34.964707
349,0.1303,-0.0283,1.0043,-3.850,2.590,1.470,158,226,178,162,225,2025-05-24T00:43:34.964715
350,0.1732,-0.0425,1.0209,-7.840,2.730,2.100,158,233,179,161,232,2025-05-24T00:43:34.965003
351,0.2128,-0.0381,1.0424,-8.330,6.020,2.030,158,226,176,162,225,2025-05-24T00:43:35.158300
352,0.2191,-0.0551,1.0653,-4.550,9.520,1.330,158,224,175,162,227,2025-05-24T00:43:35.158317
353,0.1069,-0.0825,1.0931,1.750,12.110,-3.360,158,232,177,162,230,2025-05-24T00:43:35.158322
354,0.1225,-0.0839,1.1141,8.890,7.420,-6.020,158,227,178,162,230,2025-05-24T00:43:35.158358
355,0.1664,-0.0586,1.1190,14.910,2.240,-4.830,156,229,174,160,210,2025-05-24T00:43:35.158363
356,0.1991,-0.0600,1.1278,18.130,3.010,-2.590,158,227,179,162,229,2025-05-24T00:43:35.158368
357,0.1796,-0.0146,1.1375,21.700,0.140,-1.960,157,233,177,162,222,2025-05-24T00:43:35.158373
358,0.1083,-0.0659,1.0438,26.460,4.130,-1.820,158,235,179,162,222,2025-05-24T00:43:35.158377
359,0.1659,-0.0288,1.0414,29.190,-8.610,-1.120,157,236,177,162,227,2025-05-24T00:43:35.158381
360,0.1845,-0.0112,1.0004,29.050,-10.920,0.700,158,232,178,162,228,2025-05-24T00:43:35.158385
361,0.1308,0.0010,0.9623,22.540,-0.490,-3.290,158,227,178,163,233,2025-05-24T00:43:35.158389
362,-0.0425,-0.2972,0.6930,24.710,-9.030,-5.460,158,230,178,163,228,2025-05-24T00:43:35.158393
363,0.0698,-0.0215,0.9072,18.550,-7.910,-8.120,157,215,177,162,229,2025-05-24T00:43:35.158397
364,0.0917,0.0498,0.7974,14.420,-15.400,-7.420,158,224,177,162,222,2025-05-24T00:43:35.158401
365,0.0371,0.0434,0.9492,-3.780,-29.750,-7.210,157,232,177,163,223,2025-05-24T00:43:35.158405
366,0.2045,0.1825,1.0507,1.470,-41.930,-1.680,157,228,178,162,231,2025-05-24T00:43:35.158409
367,0.1493,0.0712,1.0092,4.620,-15.820,-0.770,158,236,177,162,231,2025-05-24T00:43:35.158412
368,0.0771,-0.1118,0.9331,19.810,-8.680,1.190,158,232,178,163,228,2025-05-24T00:43:35.158416
369,0.1098,-0.0332,0.9736,16.240,-6.300,3.570,157,233,177,163,214,2025-05-24T00:43:35.158428
370,0.1308,0.0054,0.9438,14.070,-2.170,6.090,158,231,178,163,226,2025-05-24T00:43:35.158431
371,0.1210,0.0278,0.9399,-4.410,9.660,8.610,158,236,176,161,228,2025-05-24T00:43:35.158435
372,0.1908,0.0259,1.0243,-10.850,2.660,15.330,157,214,178,162,227,2025-05-24T00:43:35.158438
373,0.2660,0.0000,1.0682,-21.980,3.850,12.110,157,231,177,163,233,2025-05-24T00:43:35.158442
374,0.2840,-0.0722,1.0526,-19.670,9.030,2.030,158,236,177,162,234,2025-05-24T00:43:35.158446
375,0.2830,-0.0600,1.0302,-6.230,6.930,-5.390,158,228,178,163,227,2025-05-24T00:43:35.302097
376,0.2367,-0.0132,1.0058,5.740,4.760,-10.850,158,235,178,163,213,2025-05-24T00:43:35.302143
377,0.1498,-0.0024,1.0024,10.290,1.820,-10.220,158,231,170,162,221,2025-05-24T00:43:35.302156
378,0.1074,0.0195,0.9687,12.600,-1.540,-7.000,158,223,176,162,233,2025-05-24T00:43:35.302167
379,0.0805,0.0176,0.9599,12.180,-4.900,-6.510,158,233,176,162,216,2025-05-24T00:43:35.302176
380,0.0561,0.0312,0.9521,6.860,-7.210,-5.600,158,231,170,163,234,2025-05-24T00:43:35.302185
381,0.0732,0.0512,0.9511,-2.240,-9.030,-3.990,159,234,177,163,228,2025-05-24T00:43:35.302230
382,0.0820,0.0122,1.0048,-13.160,-10.010,-2.450,159,208,180,162,229,2025-05-24T00:43:35.302242
383,0.0610,-0.0361,1.0863,-21.840,-12.250,-3.570,158,228,179,163,231,2025-05-24T00:43:35.302252
384,0.0517,-0.0522,1.1136,-21.980,-16.520,-6.720,158,230,179,162,227,2025-05-24T00:43:35.302261
385,0.0927,-0.0742,1.1170,-15.610,-19.670,-5.320,158,230,178,163,227,2025-05-24T00:43:35.302270
386,0.0971,-0.0586,1.0985,-9.660,-17.500,-2.030,158,227,179,163,232,2025-05-24T00:43:35.302279
387,0.1493,-0.0185,1.0702,-10.150,-9.030,1.820,158,231,179,163,230,2025-05-24T00:43:35.302288
388,0.2094,0.0132,1.0375,-9.450,-2.730,4.480,158,228,179,163,235,2025-05-24T00:43:35.302297
389,0.1864,0.0171,1.0224,-13.790,9.240,6.160,158,232,178,163,232,2025-05-24T00:43:35.378817
390,0.1669,-0.0088,1.0419,-19.670,9.590,9.730,158,230,179,163,228,2025-05-24T00:43:35.378868
391,0.1322,-0.0551,1.0531,-17.640,4.480,12.740,158,229,179,163,227,2025-05-24T00:43:35.378881
392,0.1249,-0.1283,1.0726,-12.880,-5.600,6.930,158,238,179,163,227,2025-05-24T00:43:35.378892
393,0.1118,-0.0532,1.0311,-3.220,-16.730,0.700,158,228,177,162,234,2025-05-24T00:43:35.378901
394,0.2025,-0.0181,0.9941,11.340,-18.900,-0.070,158,234,177,163,214,2025-05-24T00:43:35.430981
395,0.2225,0.0708,0.9955,4.970,-1.470,6.720,158,233,180,163,230,2025-05-24T00:43:35.431029
396,0.3582,-0.2074,0.9599,-11.060,1.260,12.740,158,222,175,162,226,2025-05-24T00:43:35.431042
397,0.2216,-0.0307,1.0775,-7.490,-25.060,8.470,158,234,176,162,214,2025-05-24T00:43:35.431053
398,0.2391,-0.0244,1.1165,0.140,-34.790,2.380,158,228,176,162,210,2025-05-24T00:43:35.431062
399,0.1327,-0.0283,1.0824,3.500,-36.190,-6.790,158,226,176,162,234,2025-05-24T00:43:35.431072
400,0.1630,-0.0444,1.0594,4.130,-31.150,-9.800,158,230,178,162,224,2025-05-24T00:43:35.478688
401,0.1000,-0.0556,1.0307,4.480,-21.140,-9.240,158,225,179,162,229,2025-05-24T00:43:35.478734
402,0.1381,-0.0708,1.0102,6.160,-15.120,-3.220,158,224,177,162,229,2025-05-24T00:43:35.478745
403,0.0869,-0.1161,0.9418,5.740,-5.670,2.730,158,236,178,162,230,2025-05-24T00:43:35.478756
404,0.0327,-0.0834,0.9018,2.030,-11.620,15.260,158,237,174,162,230,2025-05-24T00:43:35.525565
405,0.0649,0.0049,0.8828,2.030,-10.570,19.040,158,230,179,162,227,2025-05-24T00:43:35.525614
406,0.1240,0.0586,0.8657,-1.470,-0.490,15.820,158,225,179,163,228,2025-05-24T00:43:35.525628
407,0.1576,0.0293,0.8755,-12.320,5.740,14.000,159,228,179,163,228,2025-05-24T00:43:35.525639
408,0.3162,-0.0527,0.8730,-15.680,3.500,15.330,159,229,170,163,234,2025-05-24T00:43:35.576198
409,0.1742,-0.0044,0.9404,-26.250,3.430,11.620,159,228,174,163,228,2025-05-24T00:43:35.576222
410,0.1625,-0.0878,0.9975,-27.720,-0.770,10.990,159,232,177,164,216,2025-05-24T00:43:35.576227
411,0.0615,-0.1620,0.9540,-22.960,-6.370,5.740,159,236,171,163,234,2025-05-24T00:43:35.576231
412,0.1386,-0.0483,0.9916,-16.380,-20.930,2.730,159,232,176,163,227,2025-05-24T00:43:35.738925
413,0.2191,-0.0112,1.0541,-4.690,-19.460,0.000,159,227,180,162,209,2025-05-24T00:43:35.738968
414,0.2455,0.0005,1.0921,-8.540,-9.660,-3.220,158,231,179,163,237,2025-05-24T00:43:35.738980
415,0.2338,-0.0595,1.0873,-14.770,-6.370,1.400,158,230,176,163,234,2025-05-24T00:43:35.738991
416,0.2298,-0.0825,1.0648,-14.980,4.620,4.200,159,232,169,163,228,2025-05-24T00:43:35.739000
417,0.2577,-0.0932,1.0736,-8.890,14.280,3.990,158,231,180,163,222,2025-05-24T00:43:35.739008
418,0.3094,0.1571,1.1063,-1.610,15.960,11.550,159,231,178,163,230,2025-05-24T00:43:35.739017
419,0.2147,-0.0717,1.1204,-16.100,18.620,5.880,159,215,176,163,228,2025-05-24T00:43:35.739026
420,0.1386,-0.0966,1.1278,-16.030,7.490,-1.190,158,229,170,163,228,2025-05-24T00:43:35.739034
421,0.1454,-0.1371,1.0995,2.240,-5.250,-3.640,159,231,177,164,227,2025-05-24T00:43:35.739042
422,0.1718,-0.0917,1.0638,13.720,-11.550,-6.300,159,236,180,164,231,2025-05-24T00:43:35.739051
423,0.2094,-0.0888,1.0253,19.670,-8.750,-7.700,159,228,177,163,227,2025-05-24T00:43:35.938195
424,0.2284,-0.0810,1.0043,15.330,-3.570,-6.510,159,235,178,163,231,2025-05-24T00:43:35.938240
425,0.1801,-0.0849,0.9848,8.680,1.610,-5.460,158,228,177,163,222,2025-05-24T00:43:35.938252
426,0.1801,-0.0922,0.9536,9.450,2.730,-4.480,158,227,171,163,228,2025-05-24T00:43:35.938266
427,0.2147,-0.0644,0.9340,8.190,6.860,-3.220,159,229,179,162,227,2025-05-24T00:43:35.938277
428,0.2001,-0.0654,0.9121,5.600,14.420,-3.290,158,234,179,163,215,2025-05-24T00:43:35.938286
429,0.1484,-0.0590,0.9018,5.600,13.020,-7.140,157,227,179,163,230,2025-05-24T00:43:35.938296
430,0.1376,-0.0346,0.9257,5.670,4.060,-11.060,159,230,180,163,231,2025-05-24T00:43:35.938306
431,0.1449,-0.0444,0.9677,1.400,-1.540,-13.090,159,215,177,163,227,2025-05-24T00:43:35.938315
432,0.1464,-0.0561,0.9931,-4.340,-5.740,-13.160,159,230,174,163,231,2025-05-24T00:43:35.938325
433,0.1718,-0.0698,1.0204,-5.530,-5.390,-9.870,158,228,179,163,229,2025-05-24T00:43:35.938334
434,0.1825,-0.0664,1.0516,0.910,1.260,-6.930,158,236,178,163,235,2025-05-24T00:43:35.938344
435,0.1444,-0.0766,1.0965,2.870,7.700,-7.280,158,232,169,162,233,2025-05-24T00:43:35.938625
436,0.1713,-0.0986,1.1097,7.070,9.030,-3.290,158,227,170,162,233,2025-05-24T00:43:35.938653
437,0.1552,-0.1308,1.0990,8.120,17.500,-3.570,158,227,170,162,232,2025-05-24T00:43:35.938777
438,0.1425,-0.0712,1.0756,13.160,22.120,-5.530,159,214,177,162,226,2025-05-24T00:43:35.938833
439,0.1508,-0.0927,1.0531,20.020,22.050,-7.980,157,228,168,163,223,2025-05-24T00:43:35.938843
440,0.1820,-0.0908,1.0243,18.830,22.470,-10.500,158,234,177,162,227,2025-05-24T00:43:35.938852
441,0.2137,-0.0961,0.9838,16.520,24.640,-14.350,157,215,170,162,225,2025-05-24T00:43:36.119050
442,0.1679,-0.0849,0.9404,18.830,27.370,-17.920,158,232,175,162,228,2025-05-24T00:43:36.119098
443,0.1186,-0.0503,0.8979,27.160,26.180,-21.420,158,232,176,162,234,2025-05-24T00:43:36.119110
444,0.1025,-0.0176,0.8804,28.350,22.890,-24.150,158,227,179,162,222,2025-05-24T00:43:36.119121
445,0.1074,0.0239,0.8691,22.470,24.570,-23.800,158,229,175,162,215,2025-05-24T00:43:36.119131
446,0.1030,0.0537,0.8745,15.330,29.960,-21.420,159,235,175,163,233,2025-05-24T00:43:36.119144
447,0.0634,0.0678,0.9101,11.410,34.370,-18.200,158,231,178,162,233,2025-05-24T00:43:36.119153
448,0.0088,0.0708,0.9443,6.090,34.160,-13.650,158,232,178,162,224,2025-05-24T00:43:36.119163
449,-0.0317,0.0805,0.9750,2.380,30.520,-8.540,159,230,177,162,224,2025-05-24T00:43:36.119173
450,-0.0498,0.0913,1.0102,0.350,24.710,-3.990,158,231,179,162,224,2025-05-24T00:43:36.119183
451,-0.0590,0.1010,1.0453,-1.610,18.830,1.680,158,223,176,163,228,2025-05-24T00:43:36.119194
452,-0.0439,0.0976,1.0824,-5.880,12.810,7.000,158,236,168,163,224,2025-05-24T00:43:36.119203
453,-0.0215,0.0683,1.1214,-9.590,8.050,12.110,157,238,178,163,226,2025-05-24T00:43:36.119212
454,0.1225,0.0293,1.1585,-11.620,5.460,16.800,158,220,177,162,230,2025-05-24T00:43:36.119220
455,0.0024,-0.0190,1.1810,-10.010,3.080,18.970,158,226,177,161,232,2025-05-24T00:43:36.119229
456,0.0185,-0.0429,1.1849,-6.160,-0.210,21.000,158,230,177,161,214,2025-05-24T00:43:36.119269
457,0.0512,-0.0688,1.1824,-3.080,-1.610,21.280,157,230,177,162,231,2025-05-24T00:43:36.119278
458,0.0766,-0.0805,1.1668,0.140,-1.960,20.510,157,229,175,161,233,2025-05-24T00:43:36.194104
459,0.0913,-0.0849,1.1385,4.200,-3.710,18.900,157,233,178,162,233,2025-05-24T00:43:36.194150
460,0.1152,-0.0756,1.1165,6.440,-5.320,16.870,157,228,178,162,233,2025-05-24T00:43:36.194162
461,0.0800,-0.1137,1.0580,71.400,2.310,6.720,157,213,176,161,231,2025-05-24T00:43:36.194172
462,0.0825,-0.0425,1.0804,59.010,-8.120,7.210,156,209,179,161,227,2025-05-24T00:43:36.194181
463,0.0927,-0.0181,0.8789,35.350,-13.090,7.840,157,230,174,162,234,2025-05-24T00:43:36.194190
464,0.1010,0.0278,0.9965,10.220,-14.140,6.440,158,231,178,162,215,2025-05-24T00:43:36.323067
465,0.1083,0.0244,0.9633,-2.170,-18.690,5.040,158,222,176,162,230,2025-05-24T00:43:36.323103
466,0.1161,0.0244,0.9433,-7.630,-14.140,3.710,157,232,175,162,232,2025-05-24T00:43:36.323112
467,0.1103,0.0254,0.9653,-9.730,-11.340,1.750,158,234,178,162,232,2025-05-24T00:43:36.323120
468,0.0996,0.0059,0.9799,-15.680,-10.850,1.610,158,227,178,162,234,2025-05-24T00:43:36.323231
469,0.2167,-0.0181,1.0590,-26.880,-3.360,4.270,158,234,178,163,215,2025-05-24T00:43:36.323246
470,0.0600,-0.0669,0.9682,-21.770,5.390,0.070,159,229,178,163,233,2025-05-24T00:43:36.323257
471,-0.0166,-0.0576,1.0067,12.600,4.830,-0.420,158,237,178,163,228,2025-05-24T00:43:36.323263
472,0.0264,0.0122,1.0453,13.090,-6.090,3.080,158,227,178,162,228,2025-05-24T00:43:36.323271
473,0.0595,0.0273,1.0194,14.000,-22.960,1.120,159,230,181,163,227,2025-05-24T00:43:36.323277
474,0.0966,0.0239,1.0570,-11.620,-8.820,2.100,157,227,177,162,228,2025-05-24T00:43:36.323284
475,0.0673,-0.0010,1.0453,-14.350,-5.320,1.890,159,233,178,163,228,2025-05-24T00:43:36.585486
476,0.0425,-0.0215,1.0419,-7.840,-6.440,0.980,158,233,174,162,216,2025-05-24T00:43:36.585534
477,0.0542,-0.0112,1.0463,1.260,-8.190,0.560,158,233,177,163,209,2025-05-24T00:43:36.585547
478,0.0795,-0.0264,0.9999,6.580,-12.390,1.470,159,209,178,163,234,2025-05-24T00:43:36.585558
479,0.1166,-0.0259,1.0331,13.090,-4.200,4.270,158,226,178,163,232,2025-05-24T00:43:36.585569
480,0.1513,0.0000,1.0297,12.880,4.900,3.710,159,212,180,163,227,2025-05-24T00:43:36.585579
481,0.1249,0.0049,1.0414,8.610,10.780,2.240,158,233,179,163,229,2025-05-24T00:43:36.585589
482,0.0371,-0.0034,1.0326,1.470,2.730,-1.260,158,236,180,164,216,2025-05-24T00:43:36.585598
483,0.0083,0.0098,1.0385,0.490,-9.380,-3.080,158,232,180,163,231,2025-05-24T00:43:36.585607
484,0.0493,0.0205,1.0272,-2.940,-16.660,-5.320,159,215,170,163,232,2025-05-24T00:43:36.585617
485,0.0927,0.0093,1.0131,-2.170,-14.490,-4.760,159,234,176,163,234,2025-05-24T00:43:36.585626
486,0.1000,-0.0020,1.0155,-0.840,-9.730,-2.520,159,227,177,162,229,2025-05-24T00:43:36.585636
487,0.0996,-0.0039,1.0311,-1.750,-7.560,-0.840,159,228,177,163,232,2025-05-24T00:43:36.585645
488,0.0776,-0.0161,1.0292,-0.210,-6.090,-1.260,158,233,178,163,230,2025-05-24T00:43:36.585654
489,0.0703,-0.0122,1.0209,1.750,-6.720,-2.100,159,231,178,163,226,2025-05-24T00:43:36.585663
490,0.0405,-0.0015,1.0414,0.700,-8.960,-3.360,159,225,178,163,235,2025-05-24T00:43:36.585708
491,0.0259,-0.0151,1.0404,-1.260,-13.860,-3.920,158,234,180,162,227,2025-05-24T00:43:36.585719
492,0.0527,0.0210,1.0375,-3.780,-14.700,-3.780,157,214,180,163,235,2025-05-24T00:43:36.585728
493,0.0766,-0.0073,1.0638,-3.990,-12.180,-3.220,158,229,178,162,231,2025-05-24T00:43:36.585737
494,0.0761,-0.0229,1.0541,-4.270,-10.080,-2.380,159,229,171,163,228,2025-05-24T00:43:36.585746
495,0.1303,-0.0181,1.0643,-4.550,-6.440,-2.100,158,228,181,162,234,2025-05-24T00:43:36.585755
496,0.1088,-0.0127,1.0521,-2.590,-2.660,-1.890,158,231,178,162,222,2025-05-24T00:43:36.735273
497,0.0737,0.0039,1.0453,0.420,-2.800,-2.380,159,229,178,163,226,2025-05-24T00:43:36.735321
498,0.0459,-0.0142,1.0370,8.960,-8.190,-3.360,158,213,170,163,233,2025-05-24T00:43:36.735337
499,0.0874,0.0142,1.0307,4.130,-11.410,-4.480,159,226,177,163,228,2025-05-24T00:43:36.735348
500,0.1210,0.0239,1.0268,-0.280,-8.470,-4.270,158,235,179,163,230,2025-05-24T00:43:36.735359
501,0.1098,0.0176,0.9653,-4.900,-3.570,-3.710,159,229,178,163,232,2025-05-24T00:43:36.924383
502,0.0996,0.0098,0.9921,-3.570,-1.610,-2.380,159,227,179,163,231,2025-05-24T00:43:36.924418
503,0.0810,0.0005,0.9931,-4.060,-3.710,-2.940,159,232,177,163,228,2025-05-24T00:43:36.924429
504,0.1005,0.0083,0.9843,-0.490,-3.990,-4.060,158,239,178,163,228,2025-05-24T00:43:36.924438
505,0.1732,0.0132,0.9965,1.190,-15.610,-6.300,159,234,178,163,235,2025-05-24T00:43:36.924446
506,0.0512,-0.0112,0.9584,13.160,-6.580,-9.310,158,232,178,162,232,2025-05-24T00:43:36.924456
507,0.0913,0.0151,0.9945,26.040,-7.210,-7.980,159,228,179,163,233,2025-05-24T00:43:36.924468
508,0.0712,0.0234,0.9809,14.770,-10.990,-8.750,159,226,175,163,227,2025-05-24T00:43:36.924479
509,0.0346,0.0102,0.9726,-16.590,-17.640,-7.420,158,214,179,163,232,2025-05-24T00:43:36.924539
510,0.0620,0.0190,0.9789,-3.080,-19.250,-4.830,158,238,177,163,227,2025-05-24T00:43:36.924548
511,0.0839,-0.0029,0.9492,-0.980,-20.440,-0.770,159,224,177,163,228,2025-05-24T00:43:36.924556
512,0.0981,0.0166,0.9438,0.560,-17.080,2.940,158,230,179,163,231,2025-05-24T00:43:36.924565
513,0.0922,0.0151,0.9887,-13.930,-14.000,4.550,159,228,180,163,232,2025-05-24T00:43:36.939235
514,0.0810,-0.0117,1.0102,-34.230,-19.810,7.910,159,230,179,163,234,2025-05-24T00:43:36.939264
515,0.1108,-0.0054,1.0560,-42.000,-21.560,6.720,158,226,179,163,232,2025-05-24T00:43:36.939272
516,0.1283,0.0122,1.0692,-35.770,-17.220,3.360,159,232,177,163,233,2025-05-24T00:43:36.939277
517,0.1674,-0.0351,1.0477,-25.970,-13.090,1.470,159,212,180,162,229,2025-05-24T00:43:36.939283
518,0.1674,-0.0054,1.0419,-2.800,-9.590,-1.890,159,212,179,163,227,2025-05-24T00:43:36.939288
519,0.1464,0.0010,1.0546,0.140,-10.360,1.540,159,226,179,163,234,2025-05-24T00:43:36.939293
520,0.1401,-0.0166,1.0512,0.490,-9.660,0.770,159,230,171,164,231,2025-05-24T00:43:36.939298
521,0.1610,0.0854,1.0614,3.990,-6.370,-10.150,159,233,177,163,234,2025-05-24T00:43:36.939303
522,0.1391,0.1610,1.0819,3.850,-5.250,-1.400,159,228,177,163,229,2025-05-24T00:43:36.939308
523,0.1196,-0.0390,1.0521,-2.590,-9.240,-3.430,159,228,171,163,215,2025-05-24T00:43:36.939313
524,0.1157,0.0029,1.0551,-1.470,-10.850,-5.810,159,234,180,164,215,2025-05-24T00:43:36.939438
525,0.0795,-0.0146,1.0263,0.490,-13.790,-7.490,159,228,176,163,233,2025-05-24T00:43:36.939443
526,0.0849,0.0000,1.0038,4.270,-16.170,-7.280,159,231,178,163,231,2025-05-24T00:43:37.142917
527,0.1049,0.0005,0.9867,8.610,-15.680,-5.390,160,238,180,163,232,2025-05-24T00:43:37.143058
528,0.1249,0.0098,0.9731,8.960,-10.850,-2.380,160,213,179,164,227,2025-05-24T00:43:37.143076
529,0.1493,0.0200,0.9740,5.320,-4.830,-0.140,159,212,171,164,235,2025-05-24T00:43:37.143087
530,0.1215,-0.0752,0.9882,1.470,-0.210,1.540,160,231,177,165,225,2025-05-24T00:43:37.143098
531,0.0869,0.0029,0.9941,-3.430,-0.210,3.710,160,225,181,165,211,2025-05-24T00:43:37.143108
532,0.0795,-0.0215,0.9975,-1.890,-0.280,4.060,160,222,175,164,230,2025-05-24T00:43:37.143117
533,0.0874,-0.0273,1.0258,-2.660,-2.870,4.480,159,224,176,163,233,2025-05-24T00:43:37.143127
534,0.1181,-0.0386,1.0424,-4.620,-3.640,3.710,160,228,178,164,236,2025-05-24T00:43:37.143136
535,0.1352,-0.0595,1.0624,-5.810,-3.710,2.520,160,238,181,164,234,2025-05-24T00:43:37.143145
536,0.1225,-0.0605,1.0882,-4.760,-5.390,0.280,159,228,176,163,228,2025-05-24T00:43:37.143153
537,0.1508,-0.0673,1.1341,-6.370,-6.720,-1.120,160,233,178,164,228,2025-05-24T00:43:37.143162
538,0.1942,-0.0669,1.1668,-9.170,-2.380,-3.360,160,211,171,164,235,2025-05-24T00:43:37.143171
539,0.2411,-0.0766,1.2005,-9.730,9.450,-5.390,160,207,179,164,233,2025-05-24T00:43:37.143179
540,0.2635,-0.0976,1.2180,-8.120,20.160,-6.090,160,226,176,165,227,2025-05-24T00:43:37.143191
541,0.2474,-0.1064,1.2288,-0.560,30.100,-7.210,160,232,179,164,230,2025-05-24T00:43:37.143235
542,0.2250,-0.1176,1.2171,9.590,37.870,-12.880,161,241,179,164,212,2025-05-24T00:43:37.143244
543,0.2826,-0.1259,1.1751,24.290,37.030,-17.920,160,232,172,164,221,2025-05-24T00:43:37.192199
544,0.2011,-0.0991,1.1478,36.820,27.230,-20.790,160,230,177,164,235,2025-05-24T00:43:37.192244
545,0.1240,-0.1059,1.0634,37.590,31.360,-23.170,160,235,180,164,235,2025-05-24T00:43:37.192256
546,0.0947,-0.1283,1.0336,49.210,21.700,-25.550,160,224,176,165,227,2025-05-24T00:43:37.192265
547,0.1225,-0.1049,0.9916,56.140,24.010,-29.190,160,230,179,164,237,2025-05-24T00:43:37.366262
548,0.1903,-0.0952,0.9706,60.690,32.830,-30.800,160,222,177,164,235,2025-05-24T00:43:37.366310
549,0.2142,-0.0996,0.9423,62.510,55.720,-31.920,160,234,180,164,211,2025-05-24T00:43:37.366323
550,0.2079,-0.1044,0.9599,65.870,80.780,-32.270,160,207,180,165,215,2025-05-24T00:43:37.366334
551,0.1962,-0.0961,0.9784,69.160,106.890,-33.250,161,227,178,165,228,2025-05-24T00:43:37.366344
552,0.1532,-0.0932,1.0077,71.750,131.320,-38.780,159,231,178,165,235,2025-05-24T00:43:37.366355
553,0.0771,-0.0898,1.0321,76.930,145.320,-46.480,160,231,179,165,236,2025-05-24T00:43:37.366364
554,0.0088,-0.0659,1.0653,88.340,148.330,-51.940,161,232,181,165,216,2025-05-24T00:43:37.366373
555,-0.0249,-0.0634,1.1170,103.810,147.420,-52.850,160,224,180,165,234,2025-05-24T00:43:37.366382
556,-0.0493,-0.0590,1.1483,122.920,147.140,-52.920,161,234,180,165,234,2025-05-24T00:43:37.366395
557,-0.0595,-0.0517,1.1439,144.130,153.090,-55.650,160,231,180,165,236,2025-05-24T00:43:37.366404
558,-0.0869,-0.0224,1.1361,166.390,162.540,-57.120,160,237,181,164,224,2025-05-24T00:43:37.366428
559,-0.1410,0.0459,1.0951,181.230,174.720,-56.000,161,223,181,165,232,2025-05-24T00:43:37.366437
560,-0.1932,0.1503,1.0399,192.780,189.210,-54.530,160,225,178,165,234,2025-05-24T00:43:37.366446
561,-0.3026,0.2098,0.9867,199.010,196.700,-51.100,160,226,179,165,227,2025-05-24T00:43:37.366487
562,-0.4436,0.2362,0.9204,204.540,197.820,-45.640,160,225,172,165,228,2025-05-24T00:43:37.552946
563,-0.5514,0.2767,0.8730,213.430,187.460,-38.360,160,227,177,165,212,2025-05-24T00:43:37.552998
564,-0.6046,0.3250,0.8042,224.000,170.030,-30.380,161,224,180,165,217,2025-05-24T00:43:37.553011
565,-0.6124,0.4275,0.7174,234.850,156.520,-21.210,161,223,182,165,234,2025-05-24T00:43:37.553043
566,-0.5685,0.5212,0.6227,241.290,155.260,-6.650,161,226,173,165,237,2025-05-24T00:43:37.553054
567,-0.5290,0.6446,0.5329,237.300,171.290,8.540,161,225,181,165,229,2025-05-24T00:43:37.553065
568,-0.5832,0.7481,0.4280,225.750,191.590,26.670,160,220,179,164,223,2025-05-24T00:43:37.553076
569,-0.6905,0.8154,0.3582,213.570,202.440,46.200,160,216,177,165,236,2025-05-24T00:43:37.553086
570,-0.7867,0.8535,0.2948,195.790,206.500,63.000,160,226,181,165,234,2025-05-24T00:43:37.553096
571,-0.8545,0.8633,0.2489,177.030,204.050,77.910,161,227,180,165,237,2025-05-24T00:43:37.553107
572,-0.9018,0.8677,0.2137,162.960,193.760,89.390,159,226,179,164,216,2025-05-24T00:43:37.553118
573,-0.8745,0.8813,0.1396,146.160,177.380,100.660,161,224,179,165,230,2025-05-24T00:43:37.553129
574,-0.7701,0.9096,0.0922,135.310,166.880,110.810,159,232,179,166,236,2025-05-24T00:43:37.553139
575,-0.6871,0.9462,0.0468,127.120,161.770,119.700,161,225,180,165,234,2025-05-24T00:43:37.553148
576,-0.6388,0.9648,0.0386,116.270,157.780,124.390,160,226,177,165,212,2025-05-24T00:43:37.553191
577,-0.6481,0.9506,0.0215,95.690,150.500,125.440,160,206,181,165,236,2025-05-24T00:43:37.757652
578,-0.6368,0.9340,0.0073,74.900,133.490,125.020,161,228,177,165,234,2025-05-24T00:43:37.757705
579,-0.5817,0.9540,0.0000,58.310,115.920,124.670,161,233,178,165,233,2025-05-24T00:43:37.757718
580,-0.5397,0.9618,-0.0283,36.960,108.990,123.340,161,227,180,166,236,2025-05-24T00:43:37.757729
581,-0.5226,0.9477,-0.0215,15.330,102.060,118.650,162,227,181,167,236,2025-05-24T00:43:37.757741
582,-0.5344,0.9096,-0.0039,-0.280,85.260,114.100,162,232,180,166,238,2025-05-24T00:43:37.757752
583,-0.5275,0.8945,0.0317,-10.150,64.960,107.030,163,231,183,167,218,2025-05-24T00:43:37.757762
584,-0.4548,0.8872,0.0727,-16.380,51.170,95.690,163,233,180,168,235,2025-05-24T00:43:37.757772
585,-0.4368,0.8701,0.1108,-21.770,32.410,87.220,163,208,182,167,237,2025-05-24T00:43:37.757782
586,-0.3914,0.8725,0.1235,-30.590,17.570,78.890,163,233,181,168,231,2025-05-24T00:43:37.757792
587,-0.3499,0.8618,0.1366,-39.830,13.090,71.750,163,227,183,167,230,2025-05-24T00:43:37.757802
588,-0.3367,0.8525,0.1571,-43.540,13.650,68.530,163,227,183,167,234,2025-05-24T00:43:37.757811
589,-0.3240,0.8418,0.1728,-43.680,18.340,66.220,163,233,173,167,232,2025-05-24T00:43:37.757822
590,-0.2869,0.8384,0.1923,-43.190,24.570,64.750,163,227,182,168,230,2025-05-24T00:43:37.757831
591,-0.2738,0.8272,0.1996,-43.400,30.310,62.160,164,230,183,168,233,2025-05-24T00:43:37.757881
592,-0.2547,0.8276,0.2157,-41.650,31.640,56.140,162,220,179,168,233,2025-05-24T00:43:37.757891
593,-0.2255,0.8428,0.2294,-39.760,30.520,49.350,163,226,184,168,235,2025-05-24T00:43:37.757901
594,-0.1869,0.8457,0.2381,-40.110,31.640,43.190,163,229,180,167,231,2025-05-24T00:43:38.003834
595,-0.1825,0.8291,0.2318,-38.360,30.870,38.990,164,231,181,167,219,2025-05-24T00:43:38.003882
596,-0.1884,0.8316,0.2430,-32.200,26.880,35.210,163,235,175,169,233,2025-05-24T00:43:38.003898
597,-0.1830,0.8394,0.2494,-25.270,21.770,31.220,163,234,183,168,232,2025-05-24T00:43:38.003908
598,-0.1928,0.8384,0.2538,-19.950,14.000,27.300,163,238,182,168,239,2025-05-24T00:43:38.003918
599,-0.1947,0.8472,0.2664,-15.960,5.880,22.890,163,229,180,168,238,2025-05-24T00:43:38.003927
600,-0.1908,0.8574,0.2640,-11.690,0.210,18.480,163,224,183,167,235,2025-05-24T00:43:38.003938
601,-0.1810,0.8613,0.2538,-8.050,-2.450,14.700,164,226,180,168,233,2025-05-24T00:43:38.003949
602,-0.1752,0.8618,0.2381,-5.250,-2.380,11.970,162,205,183,168,234,2025-05-24T00:43:38.003958
603,-0.1850,0.8633,0.2264,-3.290,-0.420,8.050,163,231,182,168,230,2025-05-24T00:43:38.003967
604,-0.1972,0.8701,0.2289,-3.360,2.450,4.760,163,207,181,168,225,2025-05-24T00:43:38.003976
605,-0.2411,0.8652,0.2255,-4.690,3.990,1.820,163,225,180,168,235,2025-05-24T00:43:38.003985
606,-0.2767,0.8760,0.2294,-4.830,2.450,0.560,163,225,184,168,237,2025-05-24T00:43:38.003994
607,-0.3089,0.8891,0.2362,-4.480,-2.030,-0.490,162,229,180,168,237,2025-05-24T00:43:38.004003
608,-0.3148,0.8974,0.2303,-2.940,-6.090,-1.050,163,226,184,167,234,2025-05-24T00:43:38.004011
609,-0.3065,0.9248,0.2318,-1.400,-9.730,-0.630,163,201,182,167,236,2025-05-24T00:43:38.004055
610,-0.2850,0.9428,0.2396,-1.330,-10.570,-0.210,163,218,182,167,235,2025-05-24T00:43:38.004172
611,-0.2640,0.9536,0.2455,-3.570,-7.980,-0.420,163,220,181,168,239,2025-05-24T00:43:38.004181
612,-0.2743,0.9443,0.2391,-5.670,-5.320,-0.980,163,218,180,167,234,2025-05-24T00:43:38.004190
613,-0.2967,0.9428,0.2435,-5.670,-5.670,-1.540,163,220,180,167,236,2025-05-24T00:43:38.004199
614,-0.2977,0.9487,0.2489,-5.530,-7.490,-2.310,162,217,182,169,227,2025-05-24T00:43:38.176183
615,-0.3045,0.9501,0.2567,-7.070,-10.220,-2.870,163,234,180,167,231,2025-05-24T00:43:38.176229
616,-0.2830,0.9618,0.2621,-8.610,-13.020,-2.660,163,219,183,168,231,2025-05-24T00:43:38.176241
617,-0.2713,0.9584,0.2591,-8.680,-14.840,-2.170,163,212,180,167,236,2025-05-24T00:43:38.176251
618,-0.2655,0.9609,0.2494,-4.900,-16.730,-1.190,162,227,180,167,238,2025-05-24T00:43:38.176260
619,-0.2460,0.9697,0.2552,-1.050,-17.990,0.280,163,226,182,168,234,2025-05-24T00:43:38.176270
620,-0.2294,0.9706,0.2572,-1.330,-14.770,0.980,163,232,180,168,237,2025-05-24T00:43:38.176282
621,-0.2216,0.9677,0.2621,-3.360,-10.850,1.470,164,230,180,167,218,2025-05-24T00:43:38.176291
622,-0.2396,0.9604,0.2704,-5.180,-7.490,1.330,163,238,174,168,236,2025-05-24T00:43:38.176300
623,-0.2557,0.9565,0.2669,-5.810,-6.440,0.840,163,218,182,168,233,2025-05-24T00:43:38.176309
624,-0.2596,0.9599,0.2621,-6.020,-5.950,1.120,162,221,182,167,236,2025-05-24T00:43:38.176317
625,-0.2591,0.9560,0.2567,-6.090,-5.530,1.540,162,232,179,168,225,2025-05-24T00:43:38.176326
626,-0.2508,0.9570,0.2479,-5.460,-5.250,2.240,163,227,182,169,236,2025-05-24T00:43:38.176335
627,-0.2372,0.9531,0.2445,-5.390,-3.360,2.660,161,225,180,168,236,2025-05-24T00:43:38.176343
628,-0.2435,0.9423,0.2406,-5.670,-1.330,3.150,163,217,173,168,219,2025-05-24T00:43:38.176352
629,-0.2679,0.9345,0.2416,-5.180,-1.820,3.920,163,232,180,169,237,2025-05-24T00:43:38.267355
630,-0.2791,0.9384,0.2464,-4.620,-3.780,3.990,162,220,179,168,232,2025-05-24T00:43:38.267401
631,-0.2655,0.9409,0.2484,-4.900,-5.460,4.060,162,232,180,168,235,2025-05-24T00:43:38.267412
632,-0.1279,0.9399,0.2455,-6.510,-4.620,3.780,162,205,173,168,232,2025-05-24T00:43:38.267421
633,-0.2269,0.9370,0.2445,-7.630,-1.610,4.060,163,229,181,168,233,2025-05-24T00:43:38.372002
634,-0.2235,0.9277,0.2386,-7.770,2.800,4.060,161,230,180,168,236,2025-05-24T00:43:38.372049
635,-0.2318,0.9340,0.2396,-7.000,4.900,3.920,162,234,178,168,232,2025-05-24T00:43:38.372062
636,-0.2440,0.9399,0.2391,-6.230,4.550,2.590,163,237,180,168,238,2025-05-24T00:43:38.372073
637,-0.2635,0.9409,0.2391,-5.600,2.520,1.400,162,237,180,168,236,2025-05-24T00:43:38.372082
638,-0.2723,0.9438,0.2547,-6.160,-2.450,0.700,163,235,181,168,235,2025-05-24T00:43:38.372091
639,-0.2733,0.9277,0.2655,-8.260,-7.560,-0.280,163,202,180,168,234,2025-05-24T00:43:38.372101
640,-0.2704,0.9243,0.2704,-9.310,-10.990,-0.350,163,234,174,167,232,2025-05-24T00:43:38.372110
641,-0.2528,0.9248,0.2679,-8.050,-10.010,0.980,163,232,180,168,237,2025-05-24T00:43:38.372119
642,-0.2289,0.9326,0.2674,-5.110,-5.110,3.640,162,231,179,168,236,2025-05-24T00:43:38.372233
643,-0.2372,0.9335,0.2664,-3.290,2.870,3.780,163,224,179,167,236,2025-05-24T00:43:38.372243
644,-0.2557,0.9355,0.2728,-2.870,5.950,3.710,163,229,180,167,234,2025-05-24T00:43:38.372251
645,-0.2772,0.9384,0.2869,-4.410,3.710,3.360,162,230,182,167,230,2025-05-24T00:43:38.578425
646,-0.2840,0.9257,0.2923,-6.160,-2.100,2.240,162,227,173,167,236,2025-05-24T00:43:38.578475
647,-0.2660,0.9267,0.2850,-5.600,-8.470,1.610,162,225,174,167,218,2025-05-24T00:43:38.578487
648,-0.2396,0.9350,0.2811,-2.940,-10.150,1.890,161,223,181,168,232,2025-05-24T00:43:38.578502
649,-0.2308,0.9355,0.2625,-0.070,-9.730,2.170,161,213,181,167,236,2025-05-24T00:43:38.578513
650,-0.2362,0.9311,0.2430,2.100,-8.820,2.730,163,215,181,167,231,2025-05-24T00:43:38.578522
651,-0.2679,0.9267,0.2396,3.360,-8.400,4.270,163,201,181,168,237,2025-05-24T00:43:38.729711
652,-0.2889,0.9296,0.2460,3.360,-9.240,5.530,162,224,174,167,237,2025-05-24T00:43:38.729746
653,-0.2977,0.9321,0.2479,2.310,-10.150,7.140,163,218,179,168,234,2025-05-24T00:43:38.729757
654,-0.2777,0.9594,0.2479,0.070,-10.080,8.750,162,213,181,167,231,2025-05-24T00:43:38.729767
655,-0.2479,0.9677,0.2284,-2.940,-6.510,10.080,162,197,180,167,225,2025-05-24T00:43:38.729777
656,-0.2372,0.9755,0.2162,-4.410,-2.800,10.500,162,212,182,167,233,2025-05-24T00:43:38.729786
657,-0.2552,0.9716,0.2157,-4.760,-2.730,9.450,161,222,181,167,229,2025-05-24T00:43:38.729795
658,-0.2723,0.9628,0.2235,-6.020,-5.180,8.890,163,219,181,167,239,2025-05-24T00:43:38.729873
659,-0.2811,0.9604,0.2420,-8.330,-9.800,8.820,162,215,180,167,218,2025-05-24T00:43:38.729885
660,-0.2767,0.9594,0.2621,-11.200,-14.770,8.330,162,210,179,167,229,2025-05-24T00:43:38.729956
661,-0.2425,0.9662,0.2733,-12.530,-18.760,8.680,162,202,181,167,232,2025-05-24T00:43:38.729967
662,-0.1908,0.9692,0.2972,-12.810,-18.480,8.400,163,213,183,166,235,2025-05-24T00:43:38.729978
663,-0.1732,0.9589,0.3152,-12.180,-14.420,8.050,162,221,180,167,229,2025-05-24T00:43:38.729987
664,-0.1810,0.9540,0.3284,-10.780,-8.820,7.980,163,214,180,168,235,2025-05-24T00:43:38.729996
665,-0.2001,0.9526,0.3450,-8.890,-4.480,7.840,162,219,176,167,237,2025-05-24T00:43:38.730004
666,-0.2289,0.9306,0.3411,-7.980,-4.130,6.510,163,220,174,167,237,2025-05-24T00:43:38.730013
667,-0.2289,0.9262,0.3382,-6.230,-7.140,6.650,162,221,181,167,233,2025-05-24T00:43:38.827568
668,-0.2342,0.9189,0.3255,-4.620,-10.640,5.950,162,219,180,167,230,2025-05-24T00:43:38.827618
669,-0.1976,0.9267,0.3250,-3.220,-14.280,4.550,162,209,180,167,238,2025-05-24T00:43:38.827630
670,-0.1313,0.9355,0.3382,-4.480,-15.820,1.330,161,218,173,166,233,2025-05-24T00:43:38.827640
671,-0.0781,0.8969,0.3733,-9.100,-14.770,-0.840,162,219,181,167,235,2025-05-24T00:43:38.827650
672,0.0034,0.8140,0.4841,-13.370,-11.830,0.280,161,231,176,166,230,2025-05-24T00:43:38.827660
673,-0.0185,0.7652,0.8247,-18.060,-22.190,2.310,162,200,181,166,218,2025-05-24T00:43:38.827670
674,-0.3772,0.8740,1.3874,-27.300,-83.230,-13.580,162,216,180,166,236,2025-05-24T00:43:38.827682
675,-0.2596,0.9892,1.6363,-51.380,-180.600,-46.760,161,212,180,166,237,2025-05-24T00:43:38.827692
676,0.1405,1.1024,1.7056,-89.180,-257.040,-87.080,162,217,182,167,231,2025-05-24T00:43:38.827703
677,0.7037,1.2532,1.6553,-67.760,-287.350,-131.810,161,202,177,168,231,2025-05-24T00:43:38.827712
678,1.2659,1.4860,1.4645,-44.030,-280.140,-175.000,164,212,182,169,239,2025-05-24T00:43:38.827721
679,1.4176,2.0042,1.3620,-21.560,-273.630,-203.910,164,214,184,169,233,2025-05-24T00:43:38.827731
680,1.1717,2.5747,1.3000,-22.960,-340.200,-232.400,165,220,184,169,232,2025-05-24T00:43:38.827740
681,0.9477,2.8519,1.0931,-70.700,-498.050,-262.360,166,219,184,170,235,2025-05-24T00:43:38.827782
682,1.4801,2.8577,0.6539,-145.530,-668.290,-297.710,165,217,182,170,220,2025-05-24T00:43:38.827792
683,2.3673,2.6030,0.4558,-256.340,-746.410,-346.500,165,224,181,170,237,2025-05-24T00:43:38.985961
684,2.8367,2.1579,0.1362,-310.380,-720.020,-392.140,166,224,183,173,237,2025-05-24T00:43:38.986021
685,2.7523,1.5416,-0.2464,-296.870,-656.880,-421.330,170,207,187,175,239,2025-05-24T00:43:38.986037
686,2.0574,0.9238,-0.4904,-246.260,-643.930,-415.100,170,226,187,175,239,2025-05-24T00:43:38.986050
687,1.6870,0.5114,-0.5407,-224.140,-637.280,-420.980,167,221,186,172,222,2025-05-24T00:43:38.986064
688,1.4128,-0.3065,-0.3709,-265.230,-592.690,-415.240,165,221,183,173,236,2025-05-24T00:43:38.986077
689,1.0853,-1.1136,0.0556,-355.670,-511.910,-420.980,167,222,185,177,224,2025-05-24T00:43:38.986089
690,1.4284,-2.0950,0.2889,-454.650,-352.310,-444.360,168,219,186,178,236,2025-05-24T00:43:38.986101
691,1.0751,-3.7713,0.6632,-555.240,-191.660,-470.190,169,223,186,180,240,2025-05-24T00:43:38.986112
692,-0.1103,-5.3368,1.2361,-512.260,-134.050,-510.650,173,223,189,185,245,2025-05-24T00:43:38.986123
693,-1.6138,-6.3420,2.4849,-452.340,-164.990,-528.220,173,238,189,185,246,2025-05-24T00:43:38.986134
694,-1.2751,-5.3153,2.1106,-365.050,-54.740,-419.650,169,233,180,182,244,2025-05-24T00:43:38.986144
695,-1.3308,-3.6151,1.5050,-169.610,324.310,-205.170,165,224,180,178,238,2025-05-24T00:43:38.986155
696,-2.7045,-2.6806,1.3361,-5.950,547.400,62.020,165,228,182,176,231,2025-05-24T00:43:39.033536
697,-2.5893,-2.6201,0.8291,162.750,570.360,252.840,167,230,185,179,239,2025-05-24T00:43:39.033584
698,-1.5704,-2.4942,0.8530,158.410,518.910,315.490,168,230,184,179,238,2025-05-24T00:43:39.033596
699,-1.2517,-2.4624,0.8438,32.620,367.150,336.280,169,229,181,180,242,2025-05-24T00:43:39.033722
700,-0.8101,-2.4585,0.5119,-5.390,222.110,353.150,166,225,184,178,240,2025-05-24T00:43:39.085076
701,-0.5402,-2.3356,0.3714,60.550,174.860,360.080,166,231,184,177,235,2025-05-24T00:43:39.085121
702,-0.2733,-1.9066,0.3640,125.720,220.640,381.430,163,230,182,174,238,2025-05-24T00:43:39.085132
703,-0.1669,-1.3122,0.3650,147.140,302.610,423.920,162,223,182,172,232,2025-05-24T00:43:39.085142
704,-0.2347,-0.5524,0.3933,115.220,388.010,456.400,161,216,185,172,226,2025-05-24T00:43:39.190150
705,-0.4309,0.0142,0.4563,56.490,420.910,459.620,160,240,185,171,227,2025-05-24T00:43:39.190194
706,-0.5431,0.3880,0.4943,23.380,434.490,446.180,160,237,182,169,233,2025-05-24T00:43:39.190207
707,-0.5314,0.4612,0.5451,6.580,415.800,430.150,159,239,186,169,233,2025-05-24T00:43:39.190217
708,-0.5539,0.4753,0.6554,15.330,390.740,413.630,158,239,183,168,229,2025-05-24T00:43:39.190226
709,-0.4382,0.7218,0.7876,24.220,380.310,378.910,156,231,184,167,228,2025-05-24T00:43:39.190235
710,-0.3362,0.8750,0.9453,31.220,355.880,347.270,155,235,174,166,225,2025-05-24T00:43:39.190245
711,-0.1723,1.1341,1.0307,27.580,325.290,322.140,156,220,185,166,231,2025-05-24T00:43:39.190254
712,-0.0312,1.2166,0.9765,14.700,306.460,302.540,155,241,174,165,224,2025-05-24T00:43:39.190262
713,-0.1376,1.2327,1.0189,1.470,274.680,290.710,154,236,177,162,231,2025-05-24T00:43:39.432482
714,-0.3011,1.2215,1.2078,-5.810,215.180,289.590,152,230,181,161,227,2025-05-24T00:43:39.432535
715,-0.2689,1.1922,1.3703,-9.240,157.710,289.100,150,245,177,159,220,2025-05-24T00:43:39.432548
716,-0.0234,1.2073,1.4176,-11.550,131.460,284.760,149,241,168,158,221,2025-05-24T00:43:39.432560
717,0.3802,1.3244,1.3884,-10.080,148.120,278.810,149,236,175,158,225,2025-05-24T00:43:39.432571
718,0.7935,1.3581,1.2976,0.630,196.980,262.430,149,246,177,158,225,2025-05-24T00:43:39.432582
719,0.6754,1.2342,1.4821,13.370,219.590,238.070,149,245,181,159,209,2025-05-24T00:43:39.432592
720,0.3592,1.1653,1.8954,22.260,160.510,210.000,151,243,181,160,218,2025-05-24T00:43:39.432602
721,0.4085,1.0219,1.8598,29.050,55.090,167.300,151,250,179,161,220,2025-05-24T00:43:39.432614
722,1.0380,1.1458,1.5099,24.010,1.120,129.710,150,256,183,163,221,2025-05-24T00:43:39.432801
723,1.2888,1.1951,1.2776,13.300,31.010,88.970,150,256,179,162,215,2025-05-24T00:43:39.432812
724,0.9199,1.1380,0.9243,21.070,82.880,39.130,151,257,179,163,222,2025-05-24T00:43:39.432821
725,0.2045,0.9521,0.6568,35.490,97.230,-8.540,150,258,182,163,208,2025-05-24T00:43:39.432830
726,-0.2450,0.9360,0.5241,17.430,72.380,-27.930,150,254,182,164,226,2025-05-24T00:43:39.432844
727,-0.4695,0.9087,0.3353,-13.860,34.720,-27.370,150,253,181,164,223,2025-05-24T00:43:39.432890
728,-0.4978,0.9360,0.2137,-38.360,15.610,-21.420,149,261,183,164,209,2025-05-24T00:43:39.432900
729,-0.3231,0.9487,0.1532,-45.990,27.230,-10.990,149,228,179,165,217,2025-05-24T00:43:39.432910
730,-0.2196,0.9414,0.1298,-37.800,47.320,-3.570,149,257,184,165,218,2025-05-24T00:43:39.483919
731,-0.1937,0.9374,0.2074,-32.970,63.280,5.740,149,256,180,165,220,2025-05-24T00:43:39.483971
732,-0.2489,0.8926,0.3006,-38.360,58.310,10.080,149,261,178,166,225,2025-05-24T00:43:39.483985
733,-0.3206,0.8081,0.4070,-46.970,30.380,11.060,149,260,180,167,224,2025-05-24T00:43:39.483996
734,-0.2952,0.7891,0.4963,-35.140,-9.030,13.510,150,257,183,166,222,2025-05-24T00:43:39.484006
735,-0.1776,0.8018,0.5334,-15.260,-29.890,10.290,149,264,185,167,220,2025-05-24T00:43:39.484015
736,-0.0566,0.8428,0.5285,2.450,-25.690,3.150,149,262,183,167,225,2025-05-24T00:43:39.484025
737,-0.0298,0.8862,0.5002,11.060,-10.500,-1.190,150,251,184,168,228,2025-05-24T00:43:39.543909
738,-0.0986,0.8974,0.4665,11.760,1.960,-4.060,150,261,180,167,222,2025-05-24T00:43:39.543956
739,-0.1571,0.9048,0.4250,9.800,5.880,-5.670,149,262,184,169,219,2025-05-24T00:43:39.543967
740,-0.1923,0.8994,0.3762,7.000,3.710,-6.230,149,262,185,170,221,2025-05-24T00:43:39.543977
741,-0.2128,0.9008,0.3431,7.420,-2.660,-7.070,150,261,186,170,223,2025-05-24T00:43:39.543986
742,-0.1552,0.9272,0.3221,5.460,-5.880,-7.420,150,256,169,171,221,2025-05-24T00:43:39.803019
743,-0.1664,0.9399,0.2835,3.360,-2.310,-10.080,150,264,183,173,220,2025-05-24T00:43:39.803068
744,-0.1962,0.9633,0.2904,2.730,-1.470,-7.770,149,252,186,174,226,2025-05-24T00:43:39.803081
745,-0.2245,0.9575,0.2923,1.750,0.630,-4.830,149,266,187,174,223,2025-05-24T00:43:39.803091
746,-0.2411,0.9521,0.3030,0.070,-0.280,-0.910,150,263,182,175,224,2025-05-24T00:43:39.803105
747,-0.2011,0.9482,0.3182,-2.800,-3.500,2.100,150,269,174,176,215,2025-05-24T00:43:39.803115
748,-0.1791,0.9448,0.3323,-6.370,-5.040,0.420,150,264,174,177,226,2025-05-24T00:43:39.803164
749,-0.1405,0.9511,0.3518,-10.010,-5.810,-1.680,151,264,183,177,224,2025-05-24T00:43:39.803176
750,-0.1508,0.9448,0.3680,-12.180,-5.740,-4.760,150,264,183,177,220,2025-05-24T00:43:39.803187
751,-0.1825,0.9384,0.3933,-11.620,-6.720,-7.210,150,262,184,177,227,2025-05-24T00:43:39.803197
752,-0.2313,0.9126,0.4148,-8.400,-9.380,-8.960,151,259,175,178,209,2025-05-24T00:43:39.803206
753,-0.2523,0.8833,0.4226,-5.110,-12.880,-9.030,150,242,171,178,222,2025-05-24T00:43:39.803216
754,-0.2377,0.8706,0.4280,-0.350,-13.090,-7.420,151,252,181,178,221,2025-05-24T00:43:39.803226
755,-0.2494,0.8560,0.4036,4.760,-11.060,-6.510,150,264,186,178,218,2025-05-24T00:43:39.803235
756,-0.2606,0.8804,0.3797,11.830,-12.740,-5.180,150,243,182,178,223,2025-05-24T00:43:39.803243
757,-0.2469,0.9062,0.3494,14.350,-16.660,-4.690,150,263,185,179,223,2025-05-24T00:43:39.803286
758,-0.2015,0.9335,0.3094,9.870,-18.480,-3.990,150,250,183,179,221,2025-05-24T00:43:39.803296
759,-0.1791,0.9457,0.2718,7.490,-20.370,-2.520,150,211,186,179,220,2025-05-24T00:43:39.803304
760,-0.1591,0.9565,0.2630,7.490,-21.420,-1.960,150,210,184,178,222,2025-05-24T00:43:39.803312
761,-0.1313,0.9609,0.2743,8.330,-19.110,-0.840,150,208,176,179,226,2025-05-24T00:43:39.803322
762,-0.1059,0.9658,0.2889,5.460,-12.600,-1.680,150,209,189,179,221,2025-05-24T00:43:39.803330
763,-0.1303,0.9589,0.2889,1.330,-5.530,-3.150,150,207,188,179,220,2025-05-24T00:43:40.011102
764,-0.1420,0.9550,0.2821,0.980,-0.070,0.070,150,209,187,179,224,2025-05-24T00:43:40.011159
765,-0.1737,0.9594,0.2845,1.890,5.530,1.330,151,205,187,180,221,2025-05-24T00:43:40.011173
766,-0.2020,0.9721,0.2943,2.590,4.830,1.120,150,209,188,179,222,2025-05-24T00:43:40.011184
767,-0.2108,0.9789,0.3109,-0.140,0.770,1.470,151,210,185,179,227,2025-05-24T00:43:40.011195
768,-0.2279,0.9755,0.3206,-4.900,-2.170,0.840,150,211,188,181,219,2025-05-24T00:43:40.011206
769,-0.2220,0.9716,0.3372,-7.140,-5.810,1.960,150,207,187,181,217,2025-05-24T00:43:40.011216
770,-0.2323,0.9443,0.3440,-7.840,-7.350,2.800,150,207,188,180,203,2025-05-24T00:43:40.011419
771,-0.2089,0.9213,0.3372,-5.880,-7.000,6.020,150,209,190,180,224,2025-05-24T00:43:40.011468
772,-0.2059,0.9126,0.3274,-2.800,-4.620,7.770,150,208,186,182,208,2025-05-24T00:43:40.011482
773,-0.2035,0.9174,0.3192,-0.210,-2.730,7.630,150,210,187,180,207,2025-05-24T00:43:40.011495
774,-0.2030,0.9155,0.3099,-0.490,-2.730,7.490,151,210,185,181,216,2025-05-24T00:43:40.011506
775,-0.1991,0.9204,0.3157,-2.310,-4.270,7.070,150,203,172,180,202,2025-05-24T00:43:40.011517
776,-0.1893,0.9267,0.3270,-4.620,-6.090,6.020,150,210,187,181,219,2025-05-24T00:43:40.011527
777,-0.1698,0.9238,0.3382,-6.510,-9.170,4.760,150,208,190,182,226,2025-05-24T00:43:40.011537
778,-0.1557,0.9121,0.3328,-6.580,-11.200,3.290,151,205,187,181,222,2025-05-24T00:43:40.011602
779,-0.1288,0.9028,0.3250,-3.150,-11.270,4.130,151,210,186,182,222,2025-05-24T00:43:40.011614
780,-0.1371,0.9028,0.3250,0.700,-8.050,3.080,151,207,184,181,227,2025-05-24T00:43:40.011624
781,-0.1293,0.9267,0.3416,4.410,-5.670,2.660,149,210,190,181,220,2025-05-24T00:43:40.249845
782,-0.1401,0.9296,0.3514,2.660,-3.290,1.680,150,208,189,182,224,2025-05-24T00:43:40.249993
783,-0.1645,0.9243,0.3650,0.000,-1.050,-0.140,150,210,189,182,226,2025-05-24T00:43:40.250007
784,-0.1898,0.9150,0.3636,0.210,-2.380,-1.750,150,207,191,183,220,2025-05-24T00:43:40.250018
785,-0.2011,0.9267,0.3655,2.870,-4.340,-2.730,149,207,191,182,225,2025-05-24T00:43:40.250027
786,-0.1932,0.9423,0.3694,3.430,-4.270,-2.800,151,202,181,182,227,2025-05-24T00:43:40.250036
787,-0.1840,0.9511,0.3562,2.730,-3.710,-2.380,151,208,186,182,222,2025-05-24T00:43:40.250044
788,-0.1947,0.9526,0.3367,3.430,-4.200,-2.380,149,207,189,183,224,2025-05-24T00:43:40.250053
789,-0.2216,0.9360,0.3177,5.390,-7.630,-2.100,151,208,188,183,225,2025-05-24T00:43:40.250061
790,-0.2069,0.9331,0.3206,6.370,-11.830,-0.140,151,208,192,183,216,2025-05-24T00:43:40.250069
791,-0.2098,0.9267,0.3118,4.410,-12.950,-0.070,151,210,187,183,225,2025-05-24T00:43:40.250078
792,-0.2069,0.9399,0.2972,2.660,-13.930,0.000,151,210,193,182,228,2025-05-24T00:43:40.250087
793,-0.1972,0.9428,0.2811,2.450,-15.890,0.980,150,207,189,182,226,2025-05-24T00:43:40.250096
794,-0.1752,0.9511,0.2772,1.680,-15.960,0.980,151,203,194,183,224,2025-05-24T00:43:40.250104
795,-0.1523,0.9623,0.2987,0.420,-15.680,0.420,150,207,192,183,224,2025-05-24T00:43:40.250111
796,-0.1518,0.9467,0.3157,-4.200,-14.070,-1.330,150,208,191,182,215,2025-05-24T00:43:40.250150
797,-0.1444,0.9379,0.3465,-8.750,-11.270,-3.150,150,207,193,183,223,2025-05-24T00:43:40.250159
798,-0.1493,0.9409,0.3621,-10.850,-7.630,-3.570,150,206,177,182,228,2025-05-24T00:43:40.250201
799,-0.1591,0.9321,0.3548,-9.100,-3.430,-2.940,150,208,188,183,225,2025-05-24T00:43:40.250211
800,-0.1796,0.9228,0.3518,-4.550,-0.840,-1.820,150,203,190,183,225,2025-05-24T00:43:40.250220
801,-0.1874,0.9296,0.3499,-0.210,-2.170,-0.910,151,207,189,183,219,2025-05-24T00:43:40.446937
802,-0.1923,0.9379,0.3548,2.450,-4.130,-0.700,151,205,188,184,224,2025-05-24T00:43:40.446973
803,-0.1967,0.9438,0.3621,2.030,-8.120,-1.260,150,205,189,183,202,2025-05-24T00:43:40.446985
804,-0.1845,0.9448,0.3670,0.630,-12.740,-1.190,151,207,195,184,223,2025-05-24T00:43:40.446995
805,-0.1688,0.9428,0.3587,0.000,-13.230,-1.610,150,207,190,183,225,2025-05-24T00:43:40.447005
806,-0.1547,0.9399,0.3479,0.490,-9.450,-1.400,151,210,191,183,208,2025-05-24T00:43:40.447014
807,-0.1630,0.9379,0.3396,1.890,-5.600,-0.840,151,207,190,184,225,2025-05-24T00:43:40.447024
808,-0.1723,0.9360,0.3411,1.890,-1.820,-0.210,150,209,193,183,223,2025-05-24T00:43:40.447033
809,-0.2030,0.9267,0.3382,1.120,-2.450,0.420,151,205,191,184,222,2025-05-24T00:43:40.447042
810,-0.1903,0.9262,0.3489,1.610,-6.860,0.980,151,205,190,183,223,2025-05-24T00:43:40.447050
811,-0.1718,0.9218,0.3475,1.820,-8.120,-0.070,150,202,178,183,225,2025-05-24T00:43:40.447059
812,-0.1405,0.9384,0.3450,2.800,-7.490,-0.140,151,205,179,184,222,2025-05-24T00:43:40.447068
813,-0.1425,0.9404,0.3406,2.660,-6.160,-0.490,150,207,188,183,223,2025-05-24T00:43:40.447076
814,-0.1527,0.9345,0.3367,2.520,-5.950,-0.700,150,203,193,184,207,2025-05-24T00:43:40.447084
815,-0.1518,0.9360,0.3362,1.540,-6.440,-1.190,150,204,190,183,225,2025-05-24T00:43:40.447093
816,-0.1615,0.9257,0.3401,0.560,-6.440,-2.170,150,206,173,183,217,2025-05-24T00:43:40.624663
817,-0.1596,0.9223,0.3543,-0.560,-5.950,-2.590,151,199,192,183,222,2025-05-24T00:43:40.624719
818,-0.1659,0.9189,0.3597,-0.630,-4.970,-4.200,150,204,178,183,203,2025-05-24T00:43:40.624733
819,-0.1810,0.9140,0.3518,0.490,-4.060,-5.390,151,206,193,183,221,2025-05-24T00:43:40.624746
820,-0.1845,0.9194,0.3460,1.890,-3.640,-4.550,150,205,177,184,225,2025-05-24T00:43:40.624757
821,-0.2011,0.9267,0.3367,2.590,-2.310,-3.920,151,206,179,185,215,2025-05-24T00:43:40.624768
822,-0.2045,0.9335,0.3377,2.800,-2.170,-2.380,151,207,188,184,203,2025-05-24T00:43:40.624779
823,-0.2274,0.9282,0.3357,2.730,-2.590,-1.540,150,209,187,183,222,2025-05-24T00:43:40.624791
824,-0.2250,0.9340,0.3465,2.800,-5.040,-0.560,151,206,192,184,227,2025-05-24T00:43:40.624805
825,-0.2074,0.9374,0.3484,1.820,-6.860,0.560,151,207,191,184,218,2025-05-24T00:43:40.624816
826,-0.1820,0.9345,0.3489,1.540,-6.160,0.910,151,208,193,185,221,2025-05-24T00:43:40.624827
827,-0.1635,0.9350,0.3421,2.520,-4.970,0.840,151,207,189,184,224,2025-05-24T00:43:40.624838
828,-0.1586,0.9404,0.3372,4.200,-3.570,0.420,150,205,187,184,225,2025-05-24T00:43:40.624849
829,-0.1654,0.9365,0.3328,3.150,-2.590,-0.280,151,206,183,185,223,2025-05-24T00:43:40.624859
830,-0.1820,0.9335,0.3333,0.840,-4.550,-0.840,150,206,194,184,214,2025-05-24T00:43:40.624869
831,-0.1835,0.9414,0.3323,-0.630,-6.020,-0.770,151,202,179,184,215,2025-05-24T00:43:40.624915
832,-0.1864,0.9340,0.3333,-0.630,-5.950,-0.630,151,206,192,183,220,2025-05-24T00:43:40.624927
833,-0.1810,0.9335,0.3382,0.280,-6.020,-0.280,150,204,183,184,224,2025-05-24T00:43:40.830053
834,-0.1801,0.9321,0.3392,0.000,-5.880,-0.350,151,207,188,185,223,2025-05-24T00:43:40.830104
835,-0.1757,0.9311,0.3387,-0.350,-6.300,-0.140,150,207,187,185,207,2025-05-24T00:43:40.830119
836,-0.1659,0.9374,0.3426,0.560,-6.510,0.140,151,204,190,185,207,2025-05-24T00:43:40.830133
837,-0.1645,0.9399,0.3387,1.540,-5.320,-0.070,151,206,192,184,224,2025-05-24T00:43:40.830143
838,-0.1645,0.9404,0.3367,1.260,-4.410,-0.140,151,207,190,185,221,2025-05-24T00:43:40.830153
839,-0.1674,0.9365,0.3333,0.000,-3.010,-0.070,151,207,178,185,224,2025-05-24T00:43:40.830163
840,-0.1737,0.9301,0.3294,0.000,-3.010,0.000,150,204,190,184,225,2025-05-24T00:43:40.830175
841,-0.1889,0.9204,0.3318,0.490,-4.200,-0.560,151,204,189,184,225,2025-05-24T00:43:40.830184
842,-0.1967,0.9233,0.3475,1.470,-7.000,-1.050,150,204,173,184,225,2025-05-24T00:43:40.830193
843,-0.1752,0.9277,0.3528,1.120,-8.750,-0.700,150,205,177,184,221,2025-05-24T00:43:40.830202
844,-0.1532,0.9345,0.3475,1.540,-5.390,0.210,151,206,187,184,224,2025-05-24T00:43:40.830211
845,-0.1503,0.9399,0.3401,3.430,0.000,1.610,151,200,191,185,226,2025-05-24T00:43:40.830220
846,-0.1659,0.9389,0.3377,5.670,2.100,1.540,152,207,193,185,220,2025-05-24T00:43:40.830228
847,-0.1820,0.9345,0.3270,5.810,1.330,1.120,150,206,194,184,216,2025-05-24T00:43:40.830238
848,-0.1913,0.9399,0.3196,4.900,-1.470,1.470,151,209,192,185,222,2025-05-24T00:43:40.830278
849,-0.1908,0.9496,0.3231,4.410,-4.200,0.700,151,203,189,184,203,2025-05-24T00:43:40.830288
850,-0.1791,0.9560,0.3235,2.380,-6.300,0.210,149,209,192,184,217,2025-05-24T00:43:41.063541
851,-0.1688,0.9453,0.3187,-0.420,-6.510,0.350,152,208,194,185,220,2025-05-24T00:43:41.063593
852,-0.1571,0.9448,0.3109,-1.050,-5.460,0.560,151,208,178,184,219,2025-05-24T00:43:41.063607
853,-0.1523,0.9438,0.3094,0.210,-3.430,0.560,151,207,187,184,201,2025-05-24T00:43:41.063619
854,-0.1620,0.9355,0.3089,0.280,-2.100,0.420,151,207,188,185,227,2025-05-24T00:43:41.063630
855,-0.1820,0.9350,0.3187,-0.560,-2.520,-0.280,151,208,188,184,207,2025-05-24T00:43:41.063641
856,-0.1903,0.9394,0.3338,-1.190,-3.500,-0.420,151,207,187,185,217,2025-05-24T00:43:41.063655
857,-0.1889,0.9394,0.3460,-1.680,-4.480,-0.840,151,205,191,185,220,2025-05-24T00:43:41.063665
858,-0.1781,0.9394,0.3489,-1.960,-5.320,-0.560,151,206,190,185,223,2025-05-24T00:43:41.063674
859,-0.1640,0.9379,0.3489,-0.630,-5.110,0.000,152,209,192,185,218,2025-05-24T00:43:41.063684
860,-0.1752,0.9360,0.3470,1.400,-5.180,-0.490,150,207,177,184,220,2025-05-24T00:43:41.063695
861,-0.1728,0.9370,0.3484,3.080,-5.740,17.780,151,206,193,185,218,2025-05-24T00:43:41.063704
862,-0.1801,0.9379,0.3396,1.540,-5.600,-0.350,151,207,192,185,207,2025-05-24T00:43:41.063718
863,-0.1688,0.9316,0.3357,-0.210,-5.530,-0.420,150,204,188,185,223,2025-05-24T00:43:41.063727
864,-0.1713,0.9287,0.3323,0.420,-3.710,0.070,151,207,195,185,224,2025-05-24T00:43:41.063735
865,-0.1810,0.9394,0.3284,2.100,-1.960,-0.420,151,200,188,185,223,2025-05-24T00:43:41.063776
866,-0.1742,0.9482,0.3216,1.680,-1.750,-0.350,151,200,179,185,222,2025-05-24T00:43:41.063786
867,-0.1674,0.9433,0.3050,-0.070,-1.610,0.000,151,204,192,185,217,2025-05-24T00:43:41.063795
868,-0.1581,0.9384,0.2972,0.210,-0.210,0.490,151,208,194,185,224,2025-05-24T00:43:41.063804
869,-0.1601,0.9355,0.3021,0.630,1.190,0.840,150,204,186,185,224,2025-05-24T00:43:41.238734
870,-0.1757,0.9267,0.3138,-0.280,0.490,0.280,151,208,191,185,227,2025-05-24T00:43:41.238912
871,-0.1786,0.9316,0.3328,-2.730,-3.430,-0.700,151,209,192,185,225,2025-05-24T00:43:41.238933
872,-0.1762,0.9326,0.3455,-4.200,-7.070,-2.100,151,206,185,186,226,2025-05-24T00:43:41.238950
873,-0.1640,0.9345,0.3499,-3.990,-7.840,-2.870,151,208,188,184,220,2025-05-24T00:43:41.238965
874,-0.1596,0.9365,0.3494,-2.590,-5.600,-2.310,151,205,188,185,222,2025-05-24T00:43:41.238980
875,-0.1674,0.9374,0.3553,0.000,-3.220,-1.540,151,207,187,185,225,2025-05-24T00:43:41.238995
876,-0.1854,0.9340,0.3543,2.100,-1.470,-0.910,151,205,192,186,224,2025-05-24T00:43:41.239011
877,-0.2074,0.9248,0.3538,2.520,-2.940,-0.910,151,206,189,185,220,2025-05-24T00:43:41.239025
878,-0.2059,0.9189,0.3479,1.470,-6.160,-0.280,152,207,189,184,202,2025-05-24T00:43:41.239039
879,-0.1991,0.9184,0.3426,0.910,-8.470,-0.490,151,209,179,185,226,2025-05-24T00:43:41.239052
880,-0.1659,0.9374,0.3338,1.400,-9.100,-0.350,151,206,179,185,224,2025-05-24T00:43:41.239065
881,-0.1640,0.9360,0.3167,2.170,-7.280,-0.210,151,208,195,185,219,2025-05-24T00:43:41.239077
882,-0.1488,0.9506,0.3157,3.360,-4.970,0.490,151,203,189,185,223,2025-05-24T00:43:41.239090
883,-0.1532,0.9496,0.3157,2.660,-3.360,0.840,152,207,193,185,224,2025-05-24T00:43:41.239207
884,-0.1649,0.9448,0.3192,1.610,-3.220,0.140,151,205,188,184,213,2025-05-24T00:43:41.446401
885,-0.1645,0.9438,0.3289,0.700,-4.200,0.070,151,207,189,185,222,2025-05-24T00:43:41.446448
886,-0.1552,0.9501,0.3353,0.350,-3.780,-0.350,152,206,179,186,222,2025-05-24T00:43:41.446462
887,-0.1523,0.9511,0.3362,0.350,-2.590,-0.140,151,205,192,186,208,2025-05-24T00:43:41.446473
888,-0.1537,0.9521,0.3382,1.190,-2.100,0.140,151,205,189,186,222,2025-05-24T00:43:41.446636
889,-0.1610,0.9521,0.3387,0.910,-2.310,-0.140,150,204,188,186,223,2025-05-24T00:43:41.446649
890,-0.1737,0.9453,0.3377,0.560,-2.800,-0.280,152,205,193,186,225,2025-05-24T00:43:41.446659
891,-0.1737,0.9360,0.3406,0.140,-3.500,0.070,152,209,189,185,207,2025-05-24T00:43:41.446668
892,-0.1688,0.9360,0.3382,-0.070,-3.360,0.070,152,205,196,185,220,2025-05-24T00:43:41.446677
893,-0.1679,0.9389,0.3348,0.490,-2.450,-0.420,151,204,185,186,221,2025-05-24T00:43:41.446686
894,-0.1757,0.9370,0.3260,0.770,-1.890,-0.140,151,207,179,186,220,2025-05-24T00:43:41.446695
895,-0.1767,0.9350,0.3177,0.770,-1.330,0.280,152,206,188,185,227,2025-05-24T00:43:41.446705
896,-0.1786,0.9292,0.3084,0.420,-0.840,0.700,152,201,194,185,225,2025-05-24T00:43:41.446717
897,-0.1879,0.9252,0.3070,0.630,-0.980,0.910,152,208,184,186,219,2025-05-24T00:43:41.446726
898,-0.1918,0.9228,0.3026,0.070,-1.750,1.120,152,206,190,186,226,2025-05-24T00:43:41.446734
899,-0.1806,0.9282,0.3167,-0.980,-2.590,1.400,151,206,186,186,221,2025-05-24T00:43:41.446777
900,-0.1728,0.9296,0.3284,-2.170,-3.290,0.840,152,201,192,186,225,2025-05-24T00:43:41.446786
901,-0.1591,0.9316,0.3431,-1.680,-4.130,0.910,151,205,194,186,220,2025-05-24T00:43:41.446795
902,-0.1464,0.9306,0.3436,-0.140,-3.150,0.000,151,203,189,186,225,2025-05-24T00:43:41.680153
903,-0.1410,0.9321,0.3460,1.050,-1.610,-0.840,152,201,193,187,222,2025-05-24T00:43:41.680457
904,-0.1557,0.9262,0.3396,1.610,-0.420,-1.610,151,204,194,186,217,2025-05-24T00:43:41.680477
905,-0.1615,0.9326,0.3309,2.240,0.000,-1.610,152,208,195,186,225,2025-05-24T00:43:41.680490
906,-0.1649,0.9389,0.3274,1.820,0.420,-1.330,151,200,193,187,227,2025-05-24T00:43:41.680501
907,-0.1845,0.9399,0.3206,1.960,-0.280,-1.470,152,206,192,186,221,2025-05-24T00:43:41.680513
908,-0.1815,0.9506,0.3289,2.520,-1.960,-0.910,152,208,190,186,221,2025-05-24T00:43:41.680524
909,-0.1796,0.9521,0.3250,1.540,-2.590,-1.330,152,204,178,186,228,2025-05-24T00:43:41.680535
910,-0.1684,0.9575,0.3270,0.210,-3.220,-1.050,152,208,189,186,225,2025-05-24T00:43:41.680546
911,-0.1581,0.9550,0.3289,-0.840,-2.940,-0.910,152,206,192,187,225,2025-05-24T00:43:41.680557
912,-0.1625,0.9384,0.3318,-0.910,-3.500,-1.330,151,205,189,186,223,2025-05-24T00:43:41.680568
913,-0.1571,0.9409,0.3396,0.210,-4.830,-1.680,152,208,188,186,221,2025-05-24T00:43:41.680578
914,-0.1664,0.9340,0.3518,0.210,-5.320,-3.150,151,208,192,186,204,2025-05-24T00:43:41.680588
915,-0.1703,0.9384,0.3558,0.210,-6.650,-3.290,152,202,192,187,220,2025-05-24T00:43:41.680598
916,-0.1645,0.9365,0.3465,0.350,-6.510,-3.080,152,204,188,187,223,2025-05-24T00:43:41.680607
917,-0.1606,0.9404,0.3470,1.610,-5.040,-3.290,151,206,190,187,225,2025-05-24T00:43:41.680661
918,-0.1684,0.9394,0.3382,2.590,-4.760,-3.570,152,202,193,186,215,2025-05-24T00:43:41.680672
919,-0.1889,0.9365,0.3265,1.820,-5.530,-4.130,152,207,189,187,225,2025-05-24T00:43:41.864227
920,-0.2113,0.9340,0.3157,0.210,-7.840,-3.920,152,205,188,186,225,2025-05-24T00:43:41.864278
921,-0.2094,0.9394,0.3182,-0.140,-9.870,-3.780,152,206,187,186,219,2025-05-24T00:43:41.864290
922,-0.2137,0.9335,0.3104,-0.910,-9.450,-3.780,152,204,179,187,217,2025-05-24T00:43:41.864300
923,-0.2084,0.9404,0.3099,-0.560,-8.890,-2.450,152,201,190,187,225,2025-05-24T00:43:41.864312
924,-0.1908,0.9457,0.3074,-0.210,-7.420,-0.700,152,204,188,187,208,2025-05-24T00:43:41.864322
925,-0.1889,0.9457,0.3050,0.070,-5.110,0.350,152,206,179,186,209,2025-05-24T00:43:41.864331
926,-0.1742,0.9477,0.3162,0.000,-5.110,1.330,152,202,192,187,207,2025-05-24T00:43:41.864341
927,-0.1796,0.9374,0.3196,-1.190,-6.510,1.260,152,205,192,187,219,2025-05-24T00:43:41.864350
928,-0.1728,0.9394,0.3270,-1.400,-10.010,0.840,152,201,193,187,219,2025-05-24T00:43:41.864359
929,-0.1523,0.9389,0.3265,-1.750,-10.920,0.420,152,202,188,187,224,2025-05-24T00:43:41.864368
930,-0.1488,0.9443,0.3187,-1.330,-8.960,-0.350,152,205,192,187,207,2025-05-24T00:43:41.864377
931,-0.1371,0.9482,0.3084,-0.630,-4.830,0.210,153,203,192,187,225,2025-05-24T00:43:41.864385
932,-0.1576,0.9394,0.3070,-0.280,-0.980,0.490,152,205,193,188,221,2025-05-24T00:43:41.864414
933,-0.1674,0.9292,0.3094,-0.140,-0.140,1.120,153,205,193,187,209,2025-05-24T00:43:41.864422
934,-0.1835,0.9233,0.3187,-0.280,-1.330,0.560,152,207,192,187,220,2025-05-24T00:43:41.864461
935,-0.1737,0.9282,0.3260,-0.700,-3.850,0.770,152,200,188,187,225,2025-05-24T00:43:41.864471
936,-0.1659,0.9306,0.3284,-0.350,-4.620,0.980,152,203,196,188,223,2025-05-24T00:43:41.864479
937,-0.1523,0.9414,0.3338,1.190,-3.290,1.680,152,202,179,188,221,2025-05-24T00:43:42.060267
938,-0.1488,0.9457,0.3323,1.890,-1.120,1.260,153,205,192,187,222,2025-05-24T00:43:42.060321
939,-0.1771,0.9379,0.3284,1.820,-0.770,0.840,152,203,179,187,225,2025-05-24T00:43:42.060353
940,-0.1854,0.9389,0.3221,1.540,-1.540,1.190,152,209,195,187,221,2025-05-24T00:43:42.060366
941,-0.1981,0.9331,0.3192,0.490,-1.190,0.980,152,204,186,187,222,2025-05-24T00:43:42.060377
942,-0.2059,0.9311,0.3216,-0.420,-2.100,1.330,151,205,178,186,215,2025-05-24T00:43:42.060388
943,-0.1884,0.9365,0.3211,-0.910,-1.400,2.170,152,205,189,187,209,2025-05-24T00:43:42.060398
944,-0.1810,0.9335,0.3240,-1.610,-1.260,2.520,152,207,188,186,224,2025-05-24T00:43:42.060409
945,-0.1698,0.9438,0.3304,-0.210,-1.470,2.940,153,208,185,187,225,2025-05-24T00:43:42.060418
946,-0.1684,0.9462,0.3314,-0.280,-2.240,2.240,152,207,189,187,224,2025-05-24T00:43:42.060432
947,-0.1513,0.9453,0.3362,-1.610,-3.990,1.400,152,207,194,186,208,2025-05-24T00:43:42.060445
948,-0.1459,0.9335,0.3318,-3.010,-4.550,0.700,153,205,186,187,208,2025-05-24T00:43:42.060456
949,-0.1498,0.9243,0.3348,-2.730,-4.200,-0.420,153,207,188,187,227,2025-05-24T00:43:42.060466
950,-0.1571,0.9209,0.3348,-0.770,-4.480,-1.260,153,209,193,187,224,2025-05-24T00:43:42.060475
951,-0.1474,0.9252,0.3387,0.210,-3.850,-2.170,152,204,188,187,224,2025-05-24T00:43:42.198810
952,-0.1552,0.9277,0.3348,-0.070,-1.680,-2.660,152,206,184,187,226,2025-05-24T00:43:42.198899
953,-0.1640,0.9374,0.3343,0.490,-0.700,-2.170,153,197,192,187,222,2025-05-24T00:43:42.264939
954,-0.1718,0.9428,0.3314,1.890,-0.840,-1.750,152,202,188,187,223,2025-05-24T00:43:42.264988
955,-0.1893,0.9418,0.3279,2.240,-1.820,-2.170,152,206,193,187,208,2025-05-24T00:43:42.265000
956,-0.1898,0.9501,0.3314,1.260,-4.830,-1.750,152,208,192,186,217,2025-05-24T00:43:42.265011
957,-0.2040,0.9365,0.3289,-1.470,-6.300,-2.240,152,206,190,187,207,2025-05-24T00:43:42.265021
958,-0.1991,0.9345,0.3294,-2.310,-8.260,-0.980,152,207,188,186,223,2025-05-24T00:43:42.265139
959,-0.1879,0.9399,0.3338,-1.610,-8.400,-0.210,152,204,191,187,226,2025-05-24T00:43:42.265149
960,-0.1732,0.9443,0.3392,-0.210,-6.860,0.350,152,204,190,187,225,2025-05-24T00:43:42.265159
961,-0.1684,0.9492,0.3440,0.770,-4.410,1.470,153,207,193,187,225,2025-05-24T00:43:42.265169
962,-0.1781,0.9521,0.3465,0.910,-2.100,1.680,153,202,189,187,225,2025-05-24T00:43:42.265180
963,-0.1859,0.9462,0.3450,0.840,-2.940,2.170,152,205,189,187,221,2025-05-24T00:43:42.265189
964,-0.1835,0.9379,0.3450,0.350,-4.340,1.750,152,202,187,187,225,2025-05-24T00:43:42.265198
965,-0.1669,0.9409,0.3396,-0.350,-6.160,1.190,153,202,190,187,227,2025-05-24T00:43:42.265207
966,-0.1518,0.9399,0.3299,-1.680,-6.790,0.070,153,205,188,187,225,2025-05-24T00:43:42.265215
967,-0.1566,0.9423,0.3265,-1.750,-7.000,-0.280,153,205,189,188,221,2025-05-24T00:43:42.265223
968,-0.1532,0.9374,0.3216,-1.540,-6.370,0.140,153,203,188,188,221,2025-05-24T00:43:42.265265
969,-0.1576,0.9316,0.3167,-1.190,-5.180,0.000,153,204,189,187,226,2025-05-24T00:43:42.265274
970,-0.1562,0.9282,0.3192,-0.630,-3.990,0.350,153,204,189,187,225,2025-05-24T00:43:42.321564
971,-0.1566,0.9233,0.3231,-0.140,-2.380,0.280,152,203,194,187,225,2025-05-24T00:43:42.321615
972,-0.1542,0.9199,0.3314,0.000,-2.380,-0.350,153,202,191,187,223,2025-05-24T00:43:42.321629
973,-0.1493,0.9301,0.3445,-0.210,-4.200,-1.680,153,203,194,187,226,2025-05-24T00:43:42.321640
974,-0.1498,0.9384,0.3518,-0.980,-5.460,-3.430,153,204,192,188,220,2025-05-24T00:43:42.321654
975,-0.1493,0.9409,0.3494,-0.630,-5.880,-3.920,154,205,193,187,225,2025-05-24T00:43:42.513378
976,-0.1703,0.9482,0.3455,0.980,-5.320,-4.060,153,206,194,187,221,2025-05-24T00:43:42.513424
977,-0.1791,0.9438,0.3382,1.330,-3.920,-2.450,153,203,196,187,225,2025-05-24T00:43:42.513653
978,-0.1991,0.9326,0.3411,0.560,-3.780,-1.470,153,202,189,187,228,2025-05-24T00:43:42.513668
979,-0.2186,0.9252,0.3450,0.420,-6.580,-0.910,152,205,188,186,222,2025-05-24T00:43:42.513678
980,-0.2040,0.9335,0.3450,1.050,-8.470,0.490,153,205,190,188,224,2025-05-24T00:43:42.513688
981,-0.1864,0.9340,0.3411,1.190,-8.120,0.280,152,202,196,187,221,2025-05-24T00:43:42.513697
982,-0.1610,0.9443,0.3421,0.770,-8.120,0.420,152,205,189,188,222,2025-05-24T00:43:42.513706
983,-0.1440,0.9555,0.3440,-0.420,-7.210,-0.630,153,205,186,188,226,2025-05-24T00:43:42.513717
984,-0.1396,0.9487,0.3416,-1.400,-7.420,-1.680,152,207,189,187,227,2025-05-24T00:43:42.513726
985,-0.1444,0.9399,0.3533,-1.260,-9.030,-3.360,152,200,191,188,218,2025-05-24T00:43:42.513734
986,-0.1347,0.9355,0.3645,-0.980,-10.990,-4.690,152,204,190,187,220,2025-05-24T00:43:42.513743
987,-0.1200,0.9223,0.3792,-0.770,-12.180,-6.160,153,206,193,188,224,2025-05-24T00:43:42.513751
988,-0.1127,0.9165,0.3870,-0.560,-13.440,-8.680,153,204,179,187,221,2025-05-24T00:43:42.513760
989,-0.1132,0.9135,0.3997,0.140,-15.680,-11.060,152,203,189,188,227,2025-05-24T00:43:42.674729
990,-0.1249,0.9106,0.4202,-0.420,-21.350,-14.630,154,204,193,188,209,2025-05-24T00:43:42.674780
991,-0.1035,0.9135,0.4426,-2.450,-27.020,-19.950,152,203,194,188,224,2025-05-24T00:43:42.674793
992,-0.0708,0.9023,0.4978,-5.250,-34.720,-24.710,153,204,195,188,219,2025-05-24T00:43:42.674804
993,0.0010,0.8945,0.6446,-7.280,-47.880,-31.010,153,199,180,187,220,2025-05-24T00:43:42.674814
994,0.0986,0.8438,0.7959,-10.640,-75.880,-46.760,152,207,192,187,225,2025-05-24T00:43:42.674823
995,0.2250,0.7798,1.0063,-7.070,-136.360,-73.710,154,206,186,188,228,2025-05-24T00:43:42.674833
996,0.1942,0.7642,1.1893,11.830,-230.930,-113.960,154,200,191,189,210,2025-05-24T00:43:42.674843
997,0.3582,0.8325,1.2586,35.140,-355.110,-155.820,155,205,194,189,223,2025-05-24T00:43:42.674852
998,0.4929,1.0409,1.1727,52.850,-423.220,-191.940,155,208,191,190,221,2025-05-24T00:43:42.674862
999,0.6647,1.3962,1.0365,48.230,-501.130,-216.300,155,205,193,190,210,2025-05-24T00:43:42.674871
1000,1.0004,1.6582,0.7647,26.180,-553.910,-234.640,156,207,191,191,227,2025-05-24T00:43:42.674880
1001,1.5343,2.1184,0.5222,-4.690,-572.040,-248.710,155,206,183,190,226,2025-05-24T00:43:42.674889
1002,1.9144,2.5908,0.2723,-44.030,-550.620,-275.520,156,207,189,191,222,2025-05-24T00:43:42.674898
1003,2.1506,2.9900,0.0166,-100.310,-506.730,-297.500,156,202,189,191,229,2025-05-24T00:43:42.674938
1004,1.9764,3.0466,-0.2089,-142.450,-481.740,-308.560,156,203,193,191,228,2025-05-24T00:43:42.725259
1005,1.7461,2.7889,-0.3040,-216.230,-490.140,-326.340,156,210,192,192,226,2025-05-24T00:43:42.725310
1006,1.8554,2.3683,-0.4451,-263.830,-505.750,-356.790,156,209,191,192,227,2025-05-24T00:43:42.725326
1007,1.8754,1.7212,-0.6812,-325.710,-498.470,-375.410,157,205,198,192,228,2025-05-24T00:43:42.725337
1008,1.8651,0.9052,-0.8472,-354.060,-459.060,-382.060,157,211,195,192,224,2025-05-24T00:43:42.725348
1009,1.9925,-0.1820,-0.4943,-408.310,-362.670,-384.160,156,208,197,191,225,2025-05-24T00:43:42.774317
1010,1.6377,-1.9930,0.0805,-492.520,-268.310,-400.190,156,209,195,193,214,2025-05-24T00:43:42.774372
1011,0.8779,-3.9943,0.6417,-586.530,-233.660,-459.270,157,213,198,186,228,2025-05-24T00:43:42.774387
1012,0.7022,-5.5993,1.0848,-584.990,-267.260,-514.920,159,206,199,181,227,2025-05-24T00:43:42.855461
1013,0.4465,-6.3625,1.4938,-570.850,-258.860,-558.390,158,217,198,181,229,2025-05-24T00:43:42.855512
1014,0.1962,-5.7130,1.4479,-477.610,-143.500,-537.460,157,216,191,178,227,2025-05-24T00:43:42.855527
1015,-1.1361,-4.1612,1.2576,-297.990,71.750,-441.280,155,205,192,174,230,2025-05-24T00:43:42.855539
1016,-2.9407,-2.9007,1.8051,-103.740,161.910,-215.320,155,211,198,172,225,2025-05-24T00:43:42.855549
1017,-3.2374,-2.1765,1.8198,21.140,135.940,2.940,153,206,182,170,226,2025-05-24T00:43:42.855560
1018,-1.3469,-2.0999,1.3884,126.630,151.900,157.010,153,212,196,170,231,2025-05-24T00:43:42.855569
1019,0.0244,-2.1306,1.1161,147.490,230.860,260.960,154,212,196,171,223,2025-05-24T00:43:43.082751
1020,0.2562,-2.3170,0.7086,130.130,286.650,327.530,155,213,192,170,231,2025-05-24T00:43:43.082810
1021,-0.0327,-2.4786,0.4621,147.210,281.400,348.390,155,216,197,170,233,2025-05-24T00:43:43.082826
1022,-0.1430,-2.4668,0.3626,174.650,236.180,348.320,154,210,199,169,228,2025-05-24T00:43:43.082841
1023,-0.0834,-2.2702,0.2050,213.990,245.000,340.620,155,212,184,169,230,2025-05-24T00:43:43.082856
1024,-0.1337,-1.7778,0.1996,240.170,286.300,351.470,164,208,187,167,229,2025-05-24T00:43:43.082869
1025,-0.2967,-1.2376,0.3733,229.110,316.540,367.290,164,209,190,166,226,2025-05-24T00:43:43.082882
1026,-0.2904,-0.6954,0.2713,198.660,356.580,367.010,158,210,193,166,224,2025-05-24T00:43:43.082897
1027,-0.1147,-0.1083,0.3680,155.610,424.340,366.240,155,210,195,165,225,2025-05-24T00:43:43.082908
1028,-0.2445,0.4943,0.2874,70.630,487.620,373.520,158,210,189,165,228,2025-05-24T00:43:43.082920
1029,-0.5461,1.0775,0.2933,27.300,548.450,377.160,158,202,194,165,229,2025-05-24T00:43:43.082932
1030,-0.8530,1.0799,0.3382,-20.090,527.940,391.930,155,208,190,164,229,2025-05-24T00:43:43.082943
1031,-0.9579,1.0292,0.6178,-35.140,435.610,411.950,152,207,179,164,229,2025-05-24T00:43:43.082955
1032,-0.8418,0.9399,0.7681,-40.320,333.690,407.750,152,208,186,161,227,2025-05-24T00:43:43.082966
1033,-0.7169,0.7989,0.8525,-31.150,249.830,366.520,156,205,188,159,228,2025-05-24T00:43:43.083021
1034,-0.4226,1.0536,0.8052,-5.600,193.690,318.990,163,205,177,160,222,2025-05-24T00:43:43.083035
1035,-0.0898,1.2727,0.6905,22.960,167.580,295.890,166,209,186,158,222,2025-05-24T00:43:43.083048
1036,0.0737,1.4489,0.6007,48.090,167.510,291.760,167,208,190,159,227,2025-05-24T00:43:43.083059
1037,0.1503,1.4947,0.6744,40.600,177.660,298.200,166,208,187,159,209,2025-05-24T00:43:43.083071
1038,0.0610,1.4440,0.8345,13.160,179.270,297.850,164,207,190,158,221,2025-05-24T00:43:43.316716
1039,0.0303,1.3464,0.9306,-18.970,160.370,284.340,166,242,193,159,226,2025-05-24T00:43:43.316763
1040,0.2035,1.2254,0.9272,-28.210,136.570,256.130,171,253,190,159,225,2025-05-24T00:43:43.316775
1041,0.6134,1.2327,0.8696,-24.920,136.080,226.870,175,248,191,158,228,2025-05-24T00:43:43.316785
1042,0.9418,1.2629,0.8560,-10.710,156.730,202.860,175,254,189,157,208,2025-05-24T00:43:43.316794
1043,1.0282,1.2141,0.9941,-18.130,194.670,163.800,168,250,186,157,220,2025-05-24T00:43:43.317003
1044,0.7540,1.2054,1.3327,-41.860,190.050,149.030,167,260,170,157,223,2025-05-24T00:43:43.317014
1045,0.5378,1.0814,1.4450,-67.690,128.800,111.720,168,262,184,156,229,2025-05-24T00:43:43.317023
1046,0.4485,0.8930,1.3088,-79.520,59.220,75.040,171,260,188,156,230,2025-05-24T00:43:43.317036
1047,0.4939,0.7647,0.9931,-57.330,31.570,44.380,175,267,189,156,225,2025-05-24T00:43:43.317046
1048,0.4309,0.7701,0.7271,-9.520,39.410,19.320,178,253,191,156,230,2025-05-24T00:43:43.317055
1049,0.3260,0.8306,0.5739,32.900,61.390,8.540,187,224,182,156,229,2025-05-24T00:43:43.317064
1050,-0.0342,0.8789,0.5407,45.570,75.390,-6.720,179,253,189,155,221,2025-05-24T00:43:43.317073
1051,-0.2679,0.9282,0.5080,33.740,63.350,-17.990,169,251,186,155,223,2025-05-24T00:43:43.317082
1052,-0.4748,0.9199,0.4177,-13.720,34.160,-20.370,187,253,189,155,208,2025-05-24T00:43:43.317121
1053,-0.4626,0.9292,0.3314,-22.610,10.850,-19.180,187,262,177,154,222,2025-05-24T00:43:43.317130
1054,-0.3089,0.9130,0.2411,-29.470,6.510,-21.210,208,236,172,155,224,2025-05-24T00:43:43.317138
1055,-0.2460,0.8584,0.1752,-28.140,14.770,-24.640,223,261,191,155,223,2025-05-24T00:43:43.317146
1056,-0.2284,0.8369,0.1669,-24.710,25.970,-18.620,233,250,188,155,204,2025-05-24T00:43:43.317155
1057,-0.2938,0.8335,0.1947,-21.560,32.760,-7.140,262,253,186,155,226,2025-05-24T00:43:43.499226
1058,-0.3665,0.8491,0.2572,-16.310,29.190,0.910,224,257,187,155,230,2025-05-24T00:43:43.499274
1059,-0.3533,0.8711,0.3294,-13.720,16.100,2.870,270,254,193,156,230,2025-05-24T00:43:43.499287
1060,-0.3235,0.8779,0.3655,-14.980,4.270,0.630,267,227,193,155,210,2025-05-24T00:43:43.499299
1061,-0.2811,0.8818,0.3714,-15.960,-7.840,-2.100,254,264,191,157,222,2025-05-24T00:43:43.499309
1062,-0.2499,0.8706,0.3396,-8.750,-15.890,-3.850,255,269,190,156,223,2025-05-24T00:43:43.499318
1063,-0.2172,0.8711,0.3070,3.920,-14.840,-3.010,218,250,191,156,229,2025-05-24T00:43:43.499328
1064,-0.2450,0.8872,0.2977,11.690,-11.690,-1.190,254,260,193,156,229,2025-05-24T00:43:43.499337
1065,-0.2303,0.9262,0.3109,12.180,-9.030,3.290,260,262,188,155,224,2025-05-24T00:43:43.499346
1066,-0.2284,0.9536,0.3318,2.800,-3.920,4.340,275,247,189,155,228,2025-05-24T00:43:43.499355
1067,-0.2777,0.9560,0.3284,-5.040,-2.380,2.380,220,254,192,155,210,2025-05-24T00:43:43.499364
1068,-0.2660,0.9701,0.3392,-5.950,-5.040,3.570,197,262,188,155,223,2025-05-24T00:43:43.499373
1069,-0.2386,0.9814,0.3475,-6.020,-4.760,4.340,188,249,190,155,220,2025-05-24T00:43:43.499382
1070,-0.2152,0.9667,0.3601,-6.440,-6.790,4.410,192,255,175,154,222,2025-05-24T00:43:43.499393
1071,-0.2879,0.9233,0.3548,-3.500,-11.900,4.060,202,259,176,154,222,2025-05-24T00:43:43.499431
1072,-0.2679,0.9321,0.3704,2.870,-13.510,7.840,211,263,184,154,227,2025-05-24T00:43:43.499441
1073,-0.2357,0.9340,0.3767,5.460,-8.470,11.690,212,263,190,154,229,2025-05-24T00:43:43.699265
1074,-0.2064,0.9399,0.3875,4.410,-5.460,13.790,248,249,184,154,217,2025-05-24T00:43:43.699318
1075,-0.1762,0.9462,0.3826,2.660,-5.810,13.930,253,260,189,153,223,2025-05-24T00:43:43.699348
1076,-0.1810,0.9331,0.3606,1.470,-7.420,10.850,243,255,187,153,222,2025-05-24T00:43:43.699361
1077,-0.1693,0.9267,0.3411,4.760,-12.460,9.380,231,246,186,152,219,2025-05-24T00:43:43.699371
1078,-0.1181,0.9457,0.3338,6.230,-16.100,8.400,239,259,190,153,214,2025-05-24T00:43:43.699382
1079,-0.0834,0.9350,0.3304,5.600,-16.870,4.200,254,261,187,152,219,2025-05-24T00:43:43.699392
1080,-0.0874,0.9091,0.3196,4.970,-19.390,-0.700,255,256,181,152,224,2025-05-24T00:43:43.699402
1081,-0.1371,0.8989,0.3021,7.210,-22.050,-6.440,238,266,187,152,226,2025-05-24T00:43:43.699413
1082,-0.1752,0.9038,0.2908,9.030,-23.870,-7.560,213,249,174,152,207,2025-05-24T00:43:43.699423
1083,-0.1864,0.9106,0.2845,6.300,-22.050,-7.490,244,257,187,152,220,2025-05-24T00:43:43.699432
1084,-0.1815,0.9184,0.2718,3.150,-18.410,-6.930,241,253,191,152,225,2025-05-24T00:43:43.699442
1085,-0.1688,0.9350,0.2679,0.700,-13.580,-6.300,254,250,186,152,216,2025-05-24T00:43:43.699451
1086,-0.1815,0.9399,0.2728,2.100,-10.640,-6.300,226,238,190,152,227,2025-05-24T00:43:43.699460
1087,-0.2074,0.9433,0.2728,2.170,-6.930,-6.720,210,223,184,151,226,2025-05-24T00:43:43.699502
1088,-0.2430,0.9560,0.2943,0.840,-4.130,-6.650,262,241,187,152,221,2025-05-24T00:43:43.699512
1089,-0.2606,0.9570,0.3143,-3.080,-2.730,-3.780,257,252,186,152,207,2025-05-24T00:43:43.759234
1090,-0.2660,0.9399,0.3294,-5.040,-3.570,-0.980,212,244,183,151,226,2025-05-24T00:43:43.759278
1091,-0.2372,0.9311,0.3348,-3.220,-5.950,1.190,247,247,188,152,208,2025-05-24T00:43:43.759289
1092,-0.2030,0.9306,0.3372,1.050,-6.650,2.730,254,211,186,152,207,2025-05-24T00:43:43.759298
1093,-0.1693,0.9443,0.3362,5.110,-5.040,2.730,253,255,187,152,227,2025-05-24T00:43:43.759307
1094,-0.1635,0.9448,0.3270,4.830,-3.850,1.260,255,261,189,152,203,2025-05-24T00:43:43.850615
1095,-0.1918,0.9496,0.3196,4.130,-5.110,-0.560,248,220,187,152,226,2025-05-24T00:43:43.850664
1096,-0.1952,0.9521,0.3006,3.220,-6.510,0.210,258,246,188,152,221,2025-05-24T00:43:43.850678
1097,-0.2035,0.9584,0.2938,1.960,-5.600,-1.190,242,242,170,151,219,2025-05-24T00:43:43.850707
1098,-0.2020,0.9643,0.2894,0.490,-6.720,-1.890,213,245,189,151,225,2025-05-24T00:43:43.850720
1099,-0.1967,0.9628,0.2845,-1.190,-8.190,-1.540,212,256,187,152,221,2025-05-24T00:43:43.850730
1100,-0.2011,0.9526,0.2957,-2.660,-8.680,-1.540,255,252,174,151,218,2025-05-24T00:43:43.850739
1101,-0.2303,0.9296,0.3021,-3.010,-11.900,-2.870,246,249,190,153,220,2025-05-24T00:43:44.002131
1102,-0.2201,0.9267,0.3113,-2.730,-14.210,-2.170,257,254,189,153,207,2025-05-24T00:43:44.002210
1103,-0.2079,0.9243,0.3065,-3.430,-11.410,-0.630,254,254,169,152,222,2025-05-24T00:43:44.002223
1104,-0.2035,0.9292,0.3099,-3.010,-5.950,0.210,255,253,189,152,209,2025-05-24T00:43:44.002232
1105,-0.2030,0.9423,0.3035,-2.170,-2.940,0.700,250,225,188,151,207,2025-05-24T00:43:44.002241
1106,-0.1986,0.9462,0.3001,-2.240,-1.470,1.190,257,249,186,152,223,2025-05-24T00:43:44.116395
1107,-0.2113,0.9331,0.2957,-2.940,-1.680,-0.140,258,231,185,151,208,2025-05-24T00:43:44.116449
1108,-0.2123,0.9423,0.3104,-1.890,-3.850,17.640,256,255,180,151,224,2025-05-24T00:43:44.116465
1109,-0.2196,0.9374,0.3094,-1.610,-5.110,0.700,254,234,191,152,220,2025-05-24T00:43:44.116478
1110,-0.1942,0.9311,0.3128,-2.520,-5.880,1.400,249,243,189,152,201,2025-05-24T00:43:44.116489
1111,-0.1791,0.9272,0.3123,-2.520,-5.810,1.190,257,243,185,153,221,2025-05-24T00:43:44.116499
1112,-0.1840,0.9213,0.2996,-1.750,-5.320,0.980,212,238,189,152,220,2025-05-24T00:43:44.116511
1113,-0.1913,0.9257,0.3006,3.220,-4.340,1.750,245,252,179,152,221,2025-05-24T00:43:44.116522
1114,-0.1776,0.9374,0.2957,1.750,-3.640,0.980,251,249,186,153,204,2025-05-24T00:43:44.116532
1115,-0.1737,0.9438,0.2987,1.120,-2.940,-1.190,243,221,186,152,220,2025-05-24T00:43:44.116542
1116,-0.1932,0.9448,0.3040,-2.030,-4.060,-2.800,259,249,187,152,203,2025-05-24T00:43:44.116553
1117,-0.2094,0.9374,0.3060,-2.660,-5.950,-2.450,246,243,185,152,208,2025-05-24T00:43:44.116564
1118,-0.2040,0.9374,0.3118,-2.380,-6.580,-1.820,246,244,188,153,203,2025-05-24T00:43:44.116574
1119,-0.1957,0.9365,0.3167,-1.330,-5.880,-1.260,252,241,174,152,221,2025-05-24T00:43:44.116583
1120,-0.2128,0.9238,0.3201,-0.630,-6.300,-1.330,247,248,186,152,225,2025-05-24T00:43:44.116629
1121,-0.2167,0.9252,0.3235,0.280,-7.210,0.280,263,254,186,152,221,2025-05-24T00:43:44.116639
1122,-0.2137,0.9331,0.3240,0.420,-6.510,0.630,239,254,189,153,221,2025-05-24T00:43:44.116649
1123,-0.2069,0.9418,0.3284,0.420,-4.410,0.700,241,241,188,152,207,2025-05-24T00:43:44.116660
1124,-0.2172,0.9399,0.3270,0.350,-3.150,1.400,241,254,190,152,202,2025-05-24T00:43:44.164390
1125,-0.2191,0.9448,0.3240,0.490,-3.010,1.400,200,257,189,152,220,2025-05-24T00:43:44.164455
1126,-0.2147,0.9394,0.3143,1.190,-3.990,0.980,258,241,190,153,221,2025-05-24T00:43:44.164466
1127,-0.2162,0.9438,0.3045,1.820,-4.970,0.700,245,247,185,153,213,2025-05-24T00:43:44.164476
1128,-0.2186,0.9389,0.3065,0.980,-7.000,1.400,258,243,185,152,220,2025-05-24T00:43:44.214130
1129,-0.2054,0.9360,0.3065,-1.330,-8.470,1.960,242,245,188,152,203,2025-05-24T00:43:44.214264
1130,-0.2045,0.9243,0.3113,-2.870,-8.890,1.750,258,251,184,152,227,2025-05-24T00:43:44.214276
1131,-0.2011,0.9306,0.3182,-2.520,-9.940,1.540,254,243,174,153,216,2025-05-24T00:43:44.214286
1132,-0.1923,0.9267,0.3113,-1.470,-10.430,1.190,230,218,180,152,223,2025-05-24T00:43:44.310852
1133,-0.1830,0.9292,0.3099,0.560,-9.730,1.540,244,249,185,152,221,2025-05-24T00:43:44.310897
1134,-0.1698,0.9384,0.3187,1.470,-8.190,2.100,249,248,190,153,223,2025-05-24T00:43:44.310909
1135,-0.1654,0.9374,0.3284,1.050,-6.580,0.630,254,244,181,152,220,2025-05-24T00:43:44.310922
1136,-0.1713,0.9292,0.3348,0.140,-7.000,-0.070,243,215,191,153,226,2025-05-24T00:43:44.310934
1137,-0.1796,0.9296,0.3387,0.210,-8.680,-0.700,253,245,188,153,221,2025-05-24T00:43:44.310944
1138,-0.1781,0.9374,0.3343,0.980,-9.660,-1.820,251,227,182,152,225,2025-05-24T00:43:44.310956
1139,-0.1810,0.9326,0.3216,1.820,-10.150,-2.240,249,250,186,151,224,2025-05-24T00:43:44.310968
1140,-0.1972,0.9331,0.3109,2.660,-9.380,-2.100,238,240,191,152,207,2025-05-24T00:43:44.310978
1141,-0.2020,0.9360,0.3050,3.080,-7.630,-1.260,211,217,188,153,225,2025-05-24T00:43:44.516427
1142,-0.2118,0.9404,0.3118,2.310,-5.740,-1.120,241,217,190,152,222,2025-05-24T00:43:44.516477
1143,-0.2259,0.9394,0.3299,-0.490,-6.020,-0.840,253,250,191,152,216,2025-05-24T00:43:44.516490
1144,-0.2494,0.9340,0.3445,-3.710,-10.080,-1.610,261,235,187,152,222,2025-05-24T00:43:44.516502
1145,-0.2362,0.9301,0.3523,-4.900,-14.840,-2.380,258,248,190,153,224,2025-05-24T00:43:44.516551
1146,-0.2050,0.9292,0.3562,-4.480,-15.400,-2.240,261,239,190,152,204,2025-05-24T00:43:44.516564
1147,-0.1830,0.9243,0.3577,-3.150,-14.070,-2.660,247,247,189,153,222,2025-05-24T00:43:44.516575
1148,-0.1635,0.9267,0.3606,0.000,-14.070,-3.780,258,239,185,152,222,2025-05-24T00:43:44.516585
1149,-0.1737,0.9248,0.3694,2.800,-15.050,-6.020,247,237,183,153,221,2025-05-24T00:43:44.516595
1150,-0.1928,0.9233,0.3816,4.270,-18.060,-10.010,247,243,191,152,225,2025-05-24T00:43:44.516604
1151,-0.1923,0.9150,0.3884,3.220,-20.650,-13.020,240,247,188,153,227,2025-05-24T00:43:44.516614
1152,-0.1947,0.9067,0.4036,0.140,-23.450,-16.450,244,247,175,153,228,2025-05-24T00:43:44.516624
1153,-0.1786,0.9091,0.4148,-2.520,-28.840,-21.420,257,240,190,153,227,2025-05-24T00:43:44.516633
1154,-0.1479,0.9135,0.4133,-4.130,-34.440,-27.440,251,235,185,152,221,2025-05-24T00:43:44.516643
1155,-0.1225,0.9184,0.4221,-5.460,-39.550,-34.650,248,238,184,151,225,2025-05-24T00:43:44.516701
1156,-0.1152,0.9326,0.4592,-7.070,-46.830,-42.840,253,238,176,152,203,2025-05-24T00:43:44.516711
1157,-0.1308,0.9170,0.5314,-9.800,-62.020,-54.950,231,235,185,152,225,2025-05-24T00:43:44.516720
1158,-0.1723,0.9223,0.7388,-14.910,-94.150,-68.600,250,235,189,153,223,2025-05-24T00:43:44.565551
1159,-0.3118,0.9462,0.9448,-16.450,-169.960,-91.350,240,250,188,152,227,2025-05-24T00:43:44.565596
1160,-0.3948,1.0150,1.0477,-14.560,-293.510,-117.600,255,248,185,152,220,2025-05-24T00:43:44.565608
1161,-0.2723,1.0921,1.0111,3.360,-455.910,-149.730,240,245,176,155,228,2025-05-24T00:43:44.565619
1162,0.0405,1.3142,0.7813,38.920,-637.210,-186.900,251,244,188,157,224,2025-05-24T00:43:44.749967
1163,1.2947,1.8549,0.5773,74.830,-780.920,-200.900,219,260,194,156,226,2025-05-24T00:43:44.750030
1164,2.4834,2.5781,0.5026,55.860,-768.110,-213.500,244,234,188,155,223,2025-05-24T00:43:44.750048
1165,3.1476,3.2066,0.5226,-8.750,-679.140,-217.420,255,249,190,156,227,2025-05-24T00:43:44.750064
1166,3.0241,3.4785,0.3875,-88.760,-568.400,-222.950,254,248,193,155,226,2025-05-24T00:43:44.750079
1167,2.4014,3.2755,0.2586,-190.610,-460.040,-237.860,224,245,190,154,218,2025-05-24T00:43:44.750095
1168,1.8295,3.0324,-0.0859,-237.300,-419.650,-266.630,263,249,186,155,230,2025-05-24T00:43:44.750111
1169,1.5557,2.7318,-0.3001,-264.810,-376.460,-293.160,260,222,193,156,219,2025-05-24T00:43:44.750125
1170,1.4274,2.2014,-0.4831,-305.970,-325.640,-323.610,274,252,191,155,230,2025-05-24T00:43:44.750138
1171,1.3664,1.5821,-0.6310,-337.960,-297.220,-359.240,279,241,178,156,225,2025-05-24T00:43:44.750151
1172,1.2625,0.7784,-0.7125,-391.650,-304.010,-390.530,258,242,193,155,225,2025-05-24T00:43:44.750165
1173,1.1912,-0.3572,-0.6803,-410.970,-293.930,-406.420,224,202,183,155,226,2025-05-24T00:43:44.750179
1174,1.3967,-1.7251,-0.3070,-548.730,-241.570,-417.830,247,204,192,156,223,2025-05-24T00:43:44.750192
1175,1.5577,-3.2594,-0.3162,-528.080,-185.570,-435.610,250,202,189,155,229,2025-05-24T00:43:44.750521
1176,1.4625,-5.0196,-0.1118,-516.460,-116.130,-460.180,151,201,177,156,230,2025-05-24T00:43:44.750544
1177,0.6573,-6.0087,0.3577,-445.830,-55.720,-490.000,149,202,190,157,212,2025-05-24T00:43:44.926884
1178,-0.4856,-6.0278,0.5597,-357.980,-27.370,-504.490,149,205,184,157,224,2025-05-24T00:43:44.926948
1179,-1.7792,-4.5374,0.8511,-239.120,-27.300,-433.300,149,200,196,157,223,2025-05-24T00:43:44.926967
1180,-2.4063,-2.8480,1.1541,-156.170,-0.630,-276.990,149,202,191,156,217,2025-05-24T00:43:44.926981
1181,-2.2219,-1.9823,1.6041,-114.870,43.050,-92.890,149,205,183,155,224,2025-05-24T00:43:44.926994
1182,-1.3435,-1.8339,1.1307,-46.060,122.290,81.970,163,204,182,155,225,2025-05-24T00:43:44.927009
1183,-0.2567,-1.7778,0.6964,57.260,207.270,238.700,168,198,191,153,220,2025-05-24T00:43:44.927022
1184,0.0146,-1.7875,0.4309,108.990,308.770,335.790,169,203,191,155,223,2025-05-24T00:43:44.927034
1185,0.0142,-1.8837,0.2899,101.150,344.470,405.160,160,196,190,155,225,2025-05-24T00:43:44.927045
1186,-0.3445,-2.1096,0.1064,94.710,284.690,431.410,176,203,187,156,205,2025-05-24T00:43:44.927057
1187,-0.6739,-2.2360,-0.0171,146.440,167.930,427.910,178,201,185,154,227,2025-05-24T00:43:44.927069
1188,-0.6676,-2.2297,-0.0410,209.440,44.590,404.670,181,203,184,154,220,2025-05-24T00:43:44.927080
1189,-0.3636,-1.9349,0.0234,273.280,-21.070,364.700,190,200,186,155,225,2025-05-24T00:43:44.927092
1190,0.0932,-1.4547,0.0825,285.950,-44.870,334.320,197,201,187,153,224,2025-05-24T00:43:44.927103
1191,0.4046,-0.8159,0.1254,256.130,1.890,318.290,220,200,189,153,222,2025-05-24T00:43:44.927159
1192,0.5861,-0.1527,0.2435,194.320,108.080,305.270,225,202,189,154,207,2025-05-24T00:43:45.130988
1193,0.4499,0.4109,0.2406,150.570,204.400,320.460,230,199,186,153,216,2025-05-24T00:43:45.131058
1194,0.2274,0.6383,0.3016,61.740,293.230,308.000,241,199,181,153,227,2025-05-24T00:43:45.131072
1195,-0.0376,0.7876,0.3719,31.290,321.720,291.480,176,203,172,153,212,2025-05-24T00:43:45.131083
1196,-0.3479,0.9536,0.5954,-10.290,302.190,250.110,175,256,187,152,205,2025-05-24T00:43:45.131096
1197,-0.4831,0.9716,0.8662,-24.850,226.660,206.010,181,246,186,150,223,2025-05-24T00:43:45.131106
1198,-0.3401,1.1331,1.0990,-39.480,150.780,172.900,186,239,183,147,220,2025-05-24T00:43:45.131116
1199,-0.1030,1.2137,1.1292,-39.480,120.400,140.770,181,247,182,145,218,2025-05-24T00:43:45.131164
1200,0.0673,1.2659,1.1995,-28.000,112.770,117.740,180,254,177,144,216,2025-05-24T00:43:45.131174
1201,0.2225,1.3313,1.2171,0.980,113.190,98.140,263,246,182,142,218,2025-05-24T00:43:45.131190
1202,0.3016,1.4186,1.2991,29.610,125.720,84.140,264,255,180,141,209,2025-05-24T00:43:45.131200
1203,0.1640,1.5377,1.2986,38.080,149.870,51.940,256,212,177,140,216,2025-05-24T00:43:45.131209
1204,0.0005,1.5967,1.3186,39.830,161.000,17.850,244,254,172,140,208,2025-05-24T00:43:45.131218
1205,-0.1362,1.5650,1.2722,21.070,158.130,-4.410,265,256,175,140,209,2025-05-24T00:43:45.131226
1206,-0.1810,1.4889,1.1707,1.610,155.400,-16.170,224,200,172,140,210,2025-05-24T00:43:45.131609
1207,-0.2723,1.2542,1.1932,-12.950,159.390,-20.510,249,228,178,139,214,2025-05-24T00:43:45.131630
1208,-0.4299,1.2288,1.3239,-17.080,142.100,-19.740,230,255,175,138,202,2025-05-24T00:43:45.335574
1209,-0.4900,1.1131,1.3664,-22.820,110.740,-23.800,208,242,172,138,214,2025-05-24T00:43:45.335624
1210,-0.4412,0.9784,1.2883,-21.560,83.160,-30.590,233,250,171,140,212,2025-05-24T00:43:45.335637
1211,-0.3143,0.9111,1.1854,-12.740,71.050,-35.630,234,245,176,140,210,2025-05-24T00:43:45.335648
1212,-0.3045,0.8706,1.0360,2.520,76.160,-34.230,207,201,175,140,210,2025-05-24T00:43:45.335659
1213,-0.4080,0.8506,0.9501,23.240,76.160,-28.770,230,215,174,139,209,2025-05-24T00:43:45.335790
1214,-0.5388,0.8364,0.8735,35.770,66.920,-23.520,232,245,164,138,209,2025-05-24T00:43:45.335802
1215,-0.7159,0.8023,0.8413,33.670,39.270,-20.160,243,248,179,139,209,2025-05-24T00:43:45.335813
1216,-0.7891,0.7867,0.7925,27.230,-2.170,-14.980,252,252,178,138,217,2025-05-24T00:43:45.335823
1217,-0.7315,0.7745,0.7393,24.780,-39.410,-10.990,243,239,173,139,196,2025-05-24T00:43:45.335833
1218,-0.6139,0.7544,0.6427,30.660,-59.290,-12.040,250,251,174,139,209,2025-05-24T00:43:45.335843
1219,-0.4748,0.7584,0.5563,45.220,-60.060,-9.240,254,202,178,140,192,2025-05-24T00:43:45.335852
1220,-0.4148,0.7588,0.4943,57.960,-48.720,-3.570,246,250,171,140,215,2025-05-24T00:43:45.335865
1221,-0.4509,0.7447,0.4485,63.280,-28.560,-0.140,250,240,180,140,212,2025-05-24T00:43:45.335874
1222,-0.5270,0.7359,0.4055,63.140,-14.140,1.190,246,256,167,140,206,2025-05-24T00:43:45.335915
1223,-0.5705,0.7242,0.3860,59.710,-4.900,2.870,260,241,177,140,197,2025-05-24T00:43:45.335925
1224,-0.6969,0.7032,0.3948,52.360,-4.200,2.030,250,251,181,141,210,2025-05-24T00:43:45.335935
1225,-0.7218,0.6866,0.3855,44.940,-16.730,2.870,259,244,161,140,212,2025-05-24T00:43:45.552141
1226,-0.6486,0.6871,0.3514,38.570,-37.730,1.540,266,247,180,140,213,2025-05-24T00:43:45.552189
1227,-0.5802,0.6847,0.3431,34.930,-42.770,-0.910,213,251,181,141,198,2025-05-24T00:43:45.552202
1228,-0.4963,0.6881,0.3333,36.540,-43.750,0.630,264,248,179,141,198,2025-05-24T00:43:45.552213
1229,-0.4275,0.6925,0.3387,39.480,-34.860,3.780,268,245,180,142,212,2025-05-24T00:43:45.552223
1230,-0.5153,0.6827,0.3884,37.380,-23.940,2.030,233,252,181,142,212,2025-05-24T00:43:45.552233
1231,-0.5397,0.6910,0.4109,34.440,-24.570,3.080,230,248,182,141,213,2025-05-24T00:43:45.552243
1232,-0.5222,0.7013,0.4202,27.370,-22.680,1.960,244,252,181,143,218,2025-05-24T00:43:45.552252
1233,-0.5183,0.7008,0.4177,19.600,-15.050,-1.050,254,255,183,142,200,2025-05-24T00:43:45.552261
1234,-0.5329,0.6920,0.4255,16.940,-10.990,-2.030,264,213,182,143,214,2025-05-24T00:43:45.552270
1235,-0.5192,0.7037,0.4353,16.450,-9.660,-0.420,246,245,182,142,217,2025-05-24T00:43:45.552279
1236,-0.4802,0.7193,0.4465,13.860,-4.410,0.140,215,238,181,143,218,2025-05-24T00:43:45.552289
1237,-0.5061,0.7203,0.4641,9.170,-1.960,-1.540,247,237,183,143,210,2025-05-24T00:43:45.552297
1238,-0.5031,0.7335,0.4651,5.950,-3.990,-0.490,242,248,179,143,218,2025-05-24T00:43:45.552306
1239,-0.4773,0.7466,0.4577,3.290,-2.730,3.290,252,256,182,143,216,2025-05-24T00:43:45.552351
1240,-0.4973,0.7486,0.4612,0.630,3.640,4.340,259,248,163,143,218,2025-05-24T00:43:45.552360
1241,-0.5378,0.7422,0.4719,-1.330,4.340,4.830,258,236,168,143,217,2025-05-24T00:43:45.552369
1242,-0.5695,0.7374,0.4812,-3.570,0.560,5.390,248,218,175,143,220,2025-05-24T00:43:45.552377
1243,-0.5890,0.7418,0.4900,-8.190,-4.900,4.410,257,242,167,143,205,2025-05-24T00:43:45.552386
1244,-0.5802,0.7222,0.4890,-13.860,-12.180,4.620,239,250,180,142,213,2025-05-24T00:43:45.745883
1245,-0.5446,0.7047,0.4851,-16.380,-16.030,6.090,206,248,168,143,211,2025-05-24T00:43:45.745929
1246,-0.5158,0.6856,0.4875,-14.770,-14.630,7.700,251,253,168,143,215,2025-05-24T00:43:45.745941
1247,-0.5290,0.6730,0.5007,-13.090,-12.110,6.720,248,242,179,143,218,2025-05-24T00:43:45.745951
1248,-0.5505,0.6539,0.5163,-11.830,-10.360,7.770,259,252,174,143,218,2025-05-24T00:43:45.745964
1249,-0.5553,0.6451,0.5300,-12.950,-7.000,7.980,255,216,179,143,211,2025-05-24T00:43:45.745973
1250,-0.5617,0.6300,0.5407,-14.070,-2.240,7.490,239,250,181,143,212,2025-05-24T00:43:45.745983
1251,-0.5568,0.6285,0.5456,-12.670,1.610,6.160,243,229,184,143,212,2025-05-24T00:43:45.936560
1252,-0.5348,0.6295,0.5451,-11.270,3.500,3.780,220,229,184,144,216,2025-05-24T00:43:45.936744
1253,-0.5451,0.6207,0.5519,-11.690,2.870,-0.280,239,251,181,142,213,2025-05-24T00:43:45.936758
1254,-0.5768,0.6046,0.5475,-11.550,-0.280,-3.710,238,255,184,143,220,2025-05-24T00:43:45.936769
1255,-0.5617,0.6071,0.5344,-8.750,-4.900,-4.480,260,217,184,143,219,2025-05-24T00:43:45.936778
1256,-0.5446,0.6120,0.5256,-5.320,-4.620,-4.480,208,235,180,143,216,2025-05-24T00:43:45.936786
1257,-0.5295,0.6076,0.5241,-3.360,-1.260,-4.130,243,249,181,144,212,2025-05-24T00:43:45.936795
1258,-0.5334,0.6080,0.5270,-2.030,2.940,-3.990,233,248,179,144,216,2025-05-24T00:43:45.936860
1259,-0.5470,0.6115,0.5251,-0.700,6.090,-5.950,208,250,181,144,200,2025-05-24T00:43:45.936869
1260,-0.5924,0.6163,0.5222,-0.210,8.470,-9.030,255,242,183,143,200,2025-05-24T00:43:45.952870
1261,-0.6032,0.6256,0.5139,-1.050,8.680,-10.640,243,245,185,143,216,2025-05-24T00:43:45.952918
1262,-0.6163,0.6285,0.4958,-3.430,7.840,-12.810,247,239,178,144,200,2025-05-24T00:43:45.952932
1263,-0.6276,0.6246,0.4812,-4.410,5.180,-14.630,237,252,182,143,218,2025-05-24T00:43:45.952943
1264,-0.6246,0.6168,0.4646,-3.710,0.840,-15.400,246,239,182,144,209,2025-05-24T00:43:45.952952
1265,-0.6051,0.6085,0.4514,-1.750,-1.820,-14.560,238,243,169,144,220,2025-05-24T00:43:45.952962
1266,-0.6080,0.5993,0.4475,-0.210,-2.030,-15.190,242,241,173,144,209,2025-05-24T00:43:45.952972
1267,-0.6115,0.6017,0.4504,-0.770,-0.980,-17.360,227,256,179,145,210,2025-05-24T00:43:45.952982
1268,-0.5910,0.6120,0.4504,-3.640,3.010,-17.850,252,249,168,144,218,2025-05-24T00:43:45.952992
1269,-0.5641,0.6032,0.4402,-8.260,11.620,-18.900,254,255,185,144,213,2025-05-24T00:43:45.953001
1270,-0.5285,0.5832,0.4329,-13.020,19.530,-21.280,244,256,182,143,214,2025-05-24T00:43:45.953010
1271,-0.4953,0.5412,0.4036,-16.030,29.960,-25.200,252,215,180,144,213,2025-05-24T00:43:45.953019
1272,-0.4011,0.5251,0.3977,-18.410,44.240,-31.010,238,242,169,145,216,2025-05-24T00:43:45.953028
1273,-0.2786,0.4860,0.3977,-24.360,63.770,-36.470,257,233,184,143,218,2025-05-24T00:43:45.953038
