SeqNum,AccX,AccY,AccZ,GyroX,GyroY,GyroZ,Flex,Force1,Force2,Force3,Force4,TimestampReception
1,-0.0976,-0.8228,0.6173,1.960,-7.035,-2.695,480,423,279,385,379,2025-05-27T11:08:22.975367
2,-0.0952,-0.8120,0.6124,1.435,-3.885,-2.695,435,416,326,362,399,2025-05-27T11:08:22.975367
3,-0.0908,-0.8101,0.6095,0.735,-2.275,-2.555,430,402,363,402,408,2025-05-27T11:08:22.975367
4,-0.0888,-0.8086,0.6144,0.245,-0.560,-2.520,399,422,373,347,396,2025-05-27T11:08:22.975367
5,-0.0927,-0.8120,0.6193,-0.350,0.700,-2.310,348,380,367,373,410,2025-05-27T11:08:22.975367
6,-0.1030,-0.8115,0.6193,-0.665,1.575,-2.205,398,424,376,404,395,2025-05-27T11:08:22.975367
7,-0.1113,-0.8169,0.6212,-0.665,1.470,-2.135,393,392,373,410,407,2025-05-27T11:08:22.975367
8,-0.1137,-0.8159,0.6237,-0.455,0.910,-1.995,402,348,369,403,389,2025-05-27T11:08:22.975367
9,-0.1147,-0.8164,0.6276,-0.245,0.315,-1.680,397,376,341,389,401,2025-05-27T11:08:22.975367
10,-0.1157,-0.8125,0.6285,-0.175,-0.280,-1.505,410,392,356,411,397,2025-05-27T11:08:22.975367
11,-0.1137,-0.8130,0.6315,0.035,-0.945,-1.330,395,399,378,354,385,2025-05-27T11:08:22.975367
12,-0.1181,-0.8145,0.6315,0.175,-1.855,-1.260,335,416,341,392,402,2025-05-27T11:08:22.975367
13,-0.1157,-0.8164,0.6354,0.280,-3.010,-1.190,387,427,351,413,397,2025-05-27T11:08:22.975367
14,-0.1142,-0.8184,0.6349,0.210,-3.955,-0.910,423,409,369,408,353,2025-05-27T11:08:22.975367
15,-0.1088,-0.8189,0.6334,0.210,-4.550,-0.560,422,399,368,412,338,2025-05-27T11:08:22.975367
16,-0.1049,-0.8184,0.6310,0.420,-5.040,-0.280,418,427,380,359,376,2025-05-27T11:08:23.185751
17,-0.1035,-0.8184,0.6295,0.630,-5.040,-0.280,358,378,306,335,377,2025-05-27T11:08:23.185751
18,-0.0981,-0.8179,0.6281,0.665,-4.725,-0.210,386,427,335,367,387,2025-05-27T11:08:23.185751
19,-0.0961,-0.8198,0.6261,0.525,-3.990,-0.070,401,418,367,400,416,2025-05-27T11:08:23.185751
20,-0.0898,-0.8228,0.6266,0.420,-3.500,0.000,432,428,387,401,389,2025-05-27T11:08:23.185751
21,-0.0913,-0.8223,0.6246,0.420,-3.080,-0.035,392,417,384,413,377,2025-05-27T11:08:23.185751
22,-0.0893,-0.8242,0.6237,0.665,-2.765,-0.350,414,427,381,412,387,2025-05-27T11:08:23.185751
23,-0.0917,-0.8218,0.5002,0.665,-2.485,-0.770,342,415,379,410,361,2025-05-27T11:08:23.185751
24,-0.0937,-0.8228,0.6281,0.490,-2.100,-1.330,328,400,369,411,369,2025-05-27T11:08:23.185751
25,-0.0893,-0.8208,0.6261,0.315,-1.820,-1.855,373,418,368,356,349,2025-05-27T11:08:23.185751
26,-0.0898,-0.8208,0.6261,0.210,-1.575,-2.100,419,404,380,379,399,2025-05-27T11:08:23.185751
27,-0.0913,-0.8174,0.6242,0.245,-1.190,-2.240,424,373,386,384,352,2025-05-27T11:08:23.185751
28,-0.0952,-0.8169,0.6256,0.245,-1.015,-2.205,407,417,393,397,391,2025-05-27T11:08:23.185751
29,-0.0996,-0.8184,0.6305,0.140,-1.050,-2.310,417,395,370,421,399,2025-05-27T11:08:23.185751
30,-0.1054,-0.8174,0.6285,0.070,-1.505,-2.135,389,411,380,419,405,2025-05-27T11:08:23.185751
31,-0.1039,-0.8174,0.6251,0.035,-1.610,-1.960,409,425,380,359,350,2025-05-27T11:08:23.185751
32,-0.1039,-0.8164,0.6256,-0.035,-1.680,-1.645,402,395,336,376,391,2025-05-27T11:08:23.185751
33,-0.1044,-0.8150,0.6237,-0.105,-1.820,-1.225,388,420,322,384,373,2025-05-27T11:08:23.381840
34,-0.1064,-0.8140,0.6237,-0.175,-2.345,-0.945,390,424,354,353,335,2025-05-27T11:08:23.381840
35,-0.1054,-0.8145,0.6256,-0.280,-2.695,-0.805,423,412,331,357,361,2025-05-27T11:08:23.381840
36,-0.1059,-0.8115,0.6285,-0.490,-3.185,-0.665,405,394,361,385,394,2025-05-27T11:08:23.381840
37,-0.1088,-0.8150,0.6295,-0.525,-3.990,-0.350,422,348,372,407,383,2025-05-27T11:08:23.381840
38,-0.1074,-0.8159,0.6305,-0.385,-4.585,-0.210,416,380,371,346,385,2025-05-27T11:08:23.381840
39,-0.1049,-0.8174,0.6320,-0.420,-4.865,-0.035,421,336,387,373,398,2025-05-27T11:08:23.381840
40,-0.1064,-0.8213,0.6324,-0.420,-5.040,0.175,418,407,383,399,390,2025-05-27T11:08:23.381840
41,-0.1030,-0.8218,0.6324,-0.490,-5.040,0.420,373,420,387,394,391,2025-05-27T11:08:23.381840
42,-0.1005,-0.8208,0.6285,-0.700,-4.795,0.665,388,356,389,391,391,2025-05-27T11:08:23.381840
43,-0.0986,-0.8174,0.6271,-0.595,-5.005,1.085,408,415,389,401,400,2025-05-27T11:08:23.381840
44,-0.0971,-0.8184,0.6271,-0.665,-5.005,1.260,432,408,391,387,388,2025-05-27T11:08:23.381840
45,-0.0986,-0.8174,0.6266,-0.560,-4.900,1.365,423,417,383,393,397,2025-05-27T11:08:23.381840
46,-0.1005,-0.8189,0.6290,-0.595,-5.180,1.155,423,414,390,413,407,2025-05-27T11:08:23.381840
47,-0.0986,-0.8189,0.6315,-0.455,-5.390,0.840,343,413,375,410,406,2025-05-27T11:08:23.381840
48,-0.0986,-0.8213,0.6285,-0.245,-5.390,0.875,369,406,385,393,421,2025-05-27T11:08:23.381840
49,-0.0991,-0.8174,0.6266,-0.210,-5.040,1.015,377,414,386,353,406,2025-05-27T11:08:23.381840
50,-0.1020,-0.8198,0.6290,-0.315,-4.550,0.945,394,411,376,399,397,2025-05-27T11:08:23.598456
51,-0.1005,-0.8189,0.6276,-0.560,-4.480,1.015,417,394,386,418,408,2025-05-27T11:08:23.598456
52,-0.1025,-0.8189,0.6256,-0.840,-4.515,1.050,396,355,386,358,309,2025-05-27T11:08:23.598456
53,-0.0956,-0.8184,0.6217,-0.875,-4.550,1.120,386,366,381,365,372,2025-05-27T11:08:23.598456
54,-0.0952,-0.8208,0.6212,-0.945,-4.445,0.910,345,380,359,397,385,2025-05-27T11:08:23.598456
55,-0.0786,-0.8198,0.6188,-0.840,-2.625,0.525,322,394,378,416,399,2025-05-27T11:08:23.598456
56,-0.0732,-0.8169,0.6202,-1.015,-1.330,0.245,399,405,372,415,409,2025-05-27T11:08:23.598456
57,-0.0878,-0.8237,0.6217,-0.875,-1.470,0.035,415,401,377,393,405,2025-05-27T11:08:23.598456
58,-0.1035,-0.8281,0.6281,-0.455,-2.870,-0.490,418,410,364,367,415,2025-05-27T11:08:23.598456
59,-0.1074,-0.8306,0.6329,-0.315,-4.655,-0.875,414,428,366,394,358,2025-05-27T11:08:23.598456
60,-0.1064,-0.8213,0.6324,0.140,-5.775,-0.700,397,346,383,408,387,2025-05-27T11:08:23.598456
61,-0.1093,-0.8311,0.6334,0.980,-6.895,-0.525,415,408,357,413,398,2025-05-27T11:08:23.598456
62,-0.0971,-0.8208,0.6339,1.365,-6.160,-0.210,399,399,368,371,346,2025-05-27T11:08:23.598456
63,-0.0971,-0.8203,0.6310,1.295,-5.250,-0.140,428,419,369,388,391,2025-05-27T11:08:23.598456
64,-0.1010,-0.8228,0.6281,1.225,-5.040,-0.070,405,396,348,392,390,2025-05-27T11:08:23.598456
65,-0.1044,-0.8179,0.6251,1.260,-5.600,-0.245,409,411,327,405,399,2025-05-27T11:08:23.598456
66,-0.1039,-0.8194,0.6227,1.225,-6.160,-0.455,395,402,360,356,350,2025-05-27T11:08:23.598456
67,-0.1005,-0.8208,0.6207,1.155,-6.650,-0.455,415,413,360,352,343,2025-05-27T11:08:23.598456
68,-0.0952,-0.8189,0.6202,0.910,-7.140,-0.210,422,429,363,389,372,2025-05-27T11:08:23.653145
69,-0.0952,-0.8203,0.6217,0.980,-7.070,0.070,399,429,335,400,378,2025-05-27T11:08:23.653145
70,-0.0991,-0.8208,0.6246,0.560,-6.930,0.175,400,435,354,406,400,2025-05-27T11:08:23.653145
71,-0.0956,-0.8208,0.6237,0.455,-6.860,0.350,410,430,362,396,405,2025-05-27T11:08:23.653145
72,-0.0942,-0.8203,0.6251,0.560,-6.615,0.315,334,405,367,409,410,2025-05-27T11:08:23.653145
73,-0.0961,-0.8247,0.6281,1.120,-7.105,0.385,402,433,371,350,401,2025-05-27T11:08:23.703362
74,-0.0917,-0.8247,0.6315,1.190,-6.790,0.560,423,400,378,374,413,2025-05-27T11:08:23.703362
75,-0.0849,-0.8233,0.6242,1.155,-6.475,0.875,398,401,384,345,406,2025-05-27T11:08:23.703362
76,-0.0805,-0.8281,0.6261,1.295,-5.390,0.770,394,430,386,375,417,2025-05-27T11:08:23.703362
77,-0.0581,-0.8106,0.6159,0.700,-3.290,0.525,342,424,354,298,352,2025-05-27T11:08:23.756649
78,-0.0722,-0.8179,0.6242,-0.210,-2.240,0.350,343,415,324,363,391,2025-05-27T11:08:23.756649
79,-0.0766,-0.8145,0.6144,-0.210,-2.940,-0.280,372,430,316,338,390,2025-05-27T11:08:23.756649
80,-0.0874,-0.8174,0.6217,-0.315,-4.060,-0.805,338,437,356,399,399,2025-05-27T11:08:23.756649
81,-0.0966,-0.8194,0.6261,-0.210,-3.885,-0.910,402,438,362,397,409,2025-05-27T11:08:23.808808
82,-0.1005,-0.8223,0.6285,0.070,-4.760,-1.155,416,403,372,347,405,2025-05-27T11:08:23.808808
83,-0.0996,-0.8164,0.6256,0.315,-4.900,-1.120,396,372,376,391,387,2025-05-27T11:08:23.808808
84,-0.0952,-0.8159,0.6300,0.280,-3.185,-0.770,410,409,379,398,409,2025-05-27T11:08:23.808808
85,-0.0927,-0.8150,0.6310,-0.175,-2.660,-0.455,407,410,380,370,391,2025-05-27T11:08:23.853601
86,-0.0927,-0.8174,0.6329,-0.665,-1.785,0.035,340,391,388,354,410,2025-05-27T11:08:23.853601
87,-0.0942,-0.8154,0.6344,-1.470,-0.490,0.315,330,377,391,377,398,2025-05-27T11:08:23.853601
88,-0.1005,-0.8174,0.6329,-1.750,-0.420,0.630,398,431,397,396,363,2025-05-27T11:08:23.853601
89,-0.1010,-0.8203,0.6334,-1.680,-1.890,1.050,403,424,387,386,340,2025-05-27T11:08:23.853601
90,-0.1142,-0.8179,0.6403,-1.505,-4.025,1.505,422,420,393,382,391,2025-05-27T11:08:23.998449
91,-0.0874,-0.8159,0.6359,-1.540,-3.010,1.330,416,420,359,384,310,2025-05-27T11:08:23.998449
92,-0.0937,-0.8135,0.6388,-1.680,-3.850,1.575,403,343,365,377,353,2025-05-27T11:08:23.998449
93,-0.0859,-0.8228,0.6334,-0.840,-3.395,1.050,376,418,379,396,397,2025-05-27T11:08:23.998449
94,-0.0888,-0.8189,0.6271,-0.210,-3.395,1.085,332,403,366,405,397,2025-05-27T11:08:23.998449
95,-0.0932,-0.8262,0.6266,0.140,-3.395,1.155,323,397,373,400,400,2025-05-27T11:08:23.998449
96,-0.1000,-0.8262,0.6285,0.945,-4.725,0.945,387,427,377,395,405,2025-05-27T11:08:23.998449
97,-0.0956,-0.8218,0.6256,1.085,-5.040,1.015,413,393,364,393,403,2025-05-27T11:08:23.998449
98,-0.0908,-0.8174,0.6300,1.050,-4.340,1.225,419,423,382,366,418,2025-05-27T11:08:23.998449
99,-0.0927,-0.8184,0.6300,1.015,-4.200,1.190,425,393,380,339,395,2025-05-27T11:08:23.998449
100,-0.0898,-0.8174,0.6276,0.910,-3.885,1.085,434,376,388,355,397,2025-05-27T11:08:23.998449
101,-0.0810,-0.8203,0.6222,1.225,-3.325,0.630,415,396,382,394,410,2025-05-27T11:08:24.043629
102,-0.0761,-0.8174,0.6202,1.540,-2.170,0.490,405,411,384,355,397,2025-05-27T11:08:24.043629
103,-0.0781,-0.8179,0.6202,1.540,-1.540,0.280,395,423,370,380,399,2025-05-27T11:08:24.043629
104,-0.0820,-0.8213,0.6251,1.540,-1.295,0.350,413,421,383,402,399,2025-05-27T11:08:24.043629
105,-0.0864,-0.8189,0.6256,1.400,-1.750,0.210,387,405,382,393,407,2025-05-27T11:08:24.203776
106,-0.0874,-0.8198,0.6217,1.330,-1.365,-0.070,408,427,377,412,420,2025-05-27T11:08:24.203776
107,-0.0844,-0.8169,0.6276,0.770,-0.245,-0.105,423,403,383,410,410,2025-05-27T11:08:24.203776
108,-0.0883,-0.8174,0.6251,0.455,0.245,-0.105,421,421,377,406,362,2025-05-27T11:08:24.203776
109,-0.0903,-0.8179,0.6276,0.140,0.700,-0.595,400,429,370,359,377,2025-05-27T11:08:24.203776
110,-0.0913,-0.8140,0.6242,0.140,1.050,-0.805,412,379,379,392,396,2025-05-27T11:08:24.203776
111,-0.0981,-0.8184,0.6251,0.315,0.490,-0.805,374,365,368,394,408,2025-05-27T11:08:24.203776
112,-0.1020,-0.8164,0.6271,0.420,-0.945,-0.910,400,422,388,350,375,2025-05-27T11:08:24.203776
113,-0.1049,-0.8184,0.6320,0.140,-1.190,-0.910,415,401,383,373,397,2025-05-27T11:08:24.203776
114,-0.1025,-0.8208,0.6310,0.105,-1.435,-0.805,423,393,387,392,390,2025-05-27T11:08:24.203776
115,-0.0942,-0.8169,0.6261,0.385,-1.120,-0.630,405,401,382,415,408,2025-05-27T11:08:24.203776
116,-0.0883,-0.8164,0.6266,0.945,-0.385,-0.455,414,424,382,414,353,2025-05-27T11:08:24.203776
117,-0.0913,-0.8150,0.6271,0.805,0.280,-0.350,428,424,393,396,358,2025-05-27T11:08:24.203776
118,-0.0932,-0.8213,0.6242,0.350,-0.035,-0.630,396,378,359,391,390,2025-05-27T11:08:24.301371
119,-0.0947,-0.8223,0.6290,1.085,-0.140,-0.595,397,382,380,344,350,2025-05-27T11:08:24.301371
120,-0.0942,-0.8169,0.6354,-7.875,-4.550,0.665,374,422,389,383,376,2025-05-27T11:08:24.301371
121,-0.0922,-0.8262,0.6281,-3.570,-1.925,0.350,424,423,385,389,395,2025-05-27T11:08:24.301371
122,-0.0937,-0.8164,0.6295,-2.905,-1.960,2.555,400,433,390,420,408,2025-05-27T11:08:24.301371
123,-0.0961,-0.8403,0.6207,-2.380,-1.680,1.645,426,431,382,398,412,2025-05-27T11:08:24.301371
124,-0.1010,-0.8345,0.6281,-3.080,-2.870,1.155,306,351,350,391,405,2025-05-27T11:08:24.301371
125,-0.1049,-0.8281,0.6300,-2.520,-2.555,0.385,389,384,368,371,407,2025-05-27T11:08:24.301371
126,-0.1015,-0.8218,0.6324,-1.785,-2.450,0.840,411,418,386,387,409,2025-05-27T11:08:24.301371
127,-0.0986,-0.8394,0.7476,-2.590,-3.185,-0.105,416,370,387,406,416,2025-05-27T11:08:24.531699
128,-0.0942,-0.8335,0.6315,-2.275,-2.135,0.630,365,414,393,404,417,2025-05-27T11:08:24.531699
129,-0.0996,-0.8237,0.6305,-1.855,-2.100,1.260,404,383,385,418,400,2025-05-27T11:08:24.531699
130,-0.0981,-0.8316,0.6281,-1.260,-1.785,1.225,394,428,394,415,405,2025-05-27T11:08:24.531699
131,-0.1015,-0.8072,0.6271,-0.875,-2.590,1.225,415,415,387,409,389,2025-05-27T11:08:24.531699
132,-0.0976,-0.8072,0.6246,-0.770,-1.435,1.400,414,378,393,402,347,2025-05-27T11:08:24.531699
133,-0.0986,-0.8120,0.6256,-1.960,-1.540,1.785,389,402,342,406,374,2025-05-27T11:08:24.531699
134,-0.1044,-0.8111,0.6193,-0.980,-1.645,0.455,389,335,360,374,390,2025-05-27T11:08:24.531699
135,-0.1103,-0.8267,0.6217,-3.395,-1.575,1.050,420,334,381,341,403,2025-05-27T11:08:24.531699
136,-0.1069,-0.8194,0.6198,-2.100,-1.085,1.330,421,389,368,384,409,2025-05-27T11:08:24.531699
137,-0.1030,-0.8325,0.6237,-3.220,-1.260,1.225,407,396,381,388,415,2025-05-27T11:08:24.531699
138,-0.1035,-0.8325,0.6242,-4.165,-1.400,2.310,425,389,389,406,360,2025-05-27T11:08:24.531699
139,-0.1044,-0.8223,0.6261,-3.220,-0.875,1.680,411,417,390,410,348,2025-05-27T11:08:24.531699
140,-0.0981,-0.8257,0.6227,-1.610,-0.945,2.450,433,425,397,389,389,2025-05-27T11:08:24.531699
141,-0.1044,-0.8252,0.6222,-2.205,-1.855,2.730,400,352,379,405,396,2025-05-27T11:08:24.531699
142,-0.1025,-0.8169,0.6207,-1.260,-1.575,3.535,371,409,340,351,392,2025-05-27T11:08:24.531699
143,-0.1064,-0.8233,0.6285,-1.190,-2.030,2.065,420,423,351,375,395,2025-05-27T11:08:24.531699
144,-0.1059,-0.8198,0.6300,-1.120,-1.995,2.590,411,423,367,376,392,2025-05-27T11:08:24.583374
145,-0.1039,-0.8247,0.6222,-2.135,-3.115,1.960,372,388,379,389,384,2025-05-27T11:08:24.583374
146,-0.1054,-0.8213,0.6193,-2.275,-2.905,1.855,394,420,391,402,364,2025-05-27T11:08:24.583374
147,-0.0991,-0.7940,0.6154,-0.665,-2.835,1.820,419,418,396,393,398,2025-05-27T11:08:24.583374
148,-0.1015,-0.8311,0.6159,-1.785,-1.855,1.925,437,406,399,340,391,2025-05-27T11:08:24.583374
149,-0.1069,-0.8281,0.6115,-3.605,-2.205,2.135,402,436,391,381,391,2025-05-27T11:08:24.583374
150,-0.1176,-0.8106,0.6212,-4.235,-1.400,1.925,396,412,391,388,344,2025-05-27T11:08:24.583374
151,-0.1122,-0.8364,0.6110,-4.130,-0.315,3.535,423,424,383,403,392,2025-05-27T11:08:24.633216
152,-0.1083,-0.8189,0.6144,-2.765,-0.105,5.005,383,405,384,403,381,2025-05-27T11:08:24.633216
153,-0.1357,-0.7198,0.6178,-3.395,-2.100,0.700,415,342,384,413,395,2025-05-27T11:08:24.633216
154,-0.1137,-0.8072,0.6183,-2.695,-0.945,3.255,409,384,390,416,406,2025-05-27T11:08:24.633216
155,-0.1083,-0.8511,0.6261,-5.425,0.280,4.620,427,404,345,391,354,2025-05-27T11:08:24.681505
156,-0.1127,-0.8467,0.6173,-3.955,-0.105,3.850,402,399,361,404,383,2025-05-27T11:08:24.681505
157,-0.1035,-0.8520,0.6120,-3.780,-1.015,2.870,401,344,348,370,400,2025-05-27T11:08:24.681505
158,-0.1064,-0.8491,0.6115,-0.700,-1.820,3.395,400,395,374,405,399,2025-05-27T11:08:24.681505
159,-0.1186,-0.8403,0.6178,0.560,-2.450,3.010,413,410,382,390,350,2025-05-27T11:08:24.741430
160,-0.1161,-0.8350,0.6173,-0.875,-2.730,2.450,424,427,380,361,388,2025-05-27T11:08:24.741430
161,-0.1010,-0.8306,0.6159,-2.135,-1.680,3.010,409,389,384,404,397,2025-05-27T11:08:24.741430
162,-0.1030,-0.8413,0.6105,-2.730,1.120,3.780,415,400,355,396,389,2025-05-27T11:08:24.741430
163,-0.1230,-0.8335,0.6007,-2.800,0.525,2.870,426,422,363,392,403,2025-05-27T11:08:24.741430
164,-0.1254,-0.8281,0.6037,-3.115,-0.350,1.540,402,421,358,404,396,2025-05-27T11:08:24.814843
165,-0.1220,-0.8169,0.6129,-11.025,3.325,4.130,349,402,372,420,402,2025-05-27T11:08:24.814843
166,-0.1039,-0.8257,0.6100,-8.750,5.705,2.380,415,422,378,357,391,2025-05-27T11:08:24.814843
167,-0.0952,-0.8228,0.5851,-2.590,1.435,0.735,421,392,333,372,349,2025-05-27T11:08:24.814843
168,-0.1093,-0.8237,0.5973,1.820,-0.945,0.315,337,416,327,382,379,2025-05-27T11:08:24.814843
169,-0.1196,-0.8276,0.6159,0.910,0.420,0.630,412,408,315,336,354,2025-05-27T11:08:24.814843
170,-0.1176,-0.8267,0.6144,0.070,-0.455,-0.035,399,339,336,331,381,2025-05-27T11:08:24.918077
171,-0.1093,-0.8242,0.6139,8.750,-1.540,-0.315,417,409,364,393,409,2025-05-27T11:08:24.918077
172,-0.1152,-0.8237,0.6217,0.385,0.630,0.175,424,426,303,403,393,2025-05-27T11:08:24.918077
173,-0.1259,-0.8369,0.6198,-0.910,2.065,0.420,421,400,348,413,394,2025-05-27T11:08:24.918077
174,-0.1254,-0.8301,0.6202,-2.520,1.925,-0.035,430,413,356,357,396,2025-05-27T11:08:24.918077
175,-0.1157,-0.8296,0.6100,-2.520,3.430,0.070,389,397,360,396,410,2025-05-27T11:08:24.920647
176,-0.1171,-0.8340,0.6032,-1.435,5.740,0.525,393,339,365,406,355,2025-05-27T11:08:24.920647
177,-0.1274,-0.8442,0.5973,3.150,3.885,-0.070,406,391,377,395,369,2025-05-27T11:08:24.920647
178,-0.1352,-0.8296,0.5954,4.935,1.225,0.595,398,401,372,416,385,2025-05-27T11:08:25.022405
179,-0.1381,-0.8350,0.6076,3.885,1.855,0.595,424,378,387,390,362,2025-05-27T11:08:25.022405
180,-0.1376,-0.8291,0.6085,0.980,1.435,0.910,424,398,388,371,390,2025-05-27T11:08:25.022405
181,-0.1396,-0.8472,0.5905,2.625,1.050,0.630,425,410,377,390,395,2025-05-27T11:08:25.022405
182,-0.1264,-0.8276,0.5963,3.885,2.380,0.770,393,393,383,385,344,2025-05-27T11:08:25.022405
183,-0.1308,-0.8340,0.5944,4.585,1.645,1.295,341,416,346,404,354,2025-05-27T11:08:25.022405
184,-0.1357,-0.8355,0.6085,5.110,0.735,1.610,383,390,371,411,393,2025-05-27T11:08:25.022405
185,-0.1401,-0.8145,0.6085,3.605,-0.595,1.435,392,419,384,423,384,2025-05-27T11:08:25.022405
186,-0.1352,-0.8203,0.6120,2.625,-0.035,1.610,431,407,387,405,377,2025-05-27T11:08:25.022405
187,-0.1391,-0.8203,0.6085,0.560,-1.190,1.960,345,429,391,392,353,2025-05-27T11:08:25.083059
188,-0.1435,-0.8311,0.6051,1.260,-3.605,1.330,385,425,389,389,391,2025-05-27T11:08:25.083059
189,-0.1313,-0.8252,0.6076,2.345,-3.325,1.435,385,338,350,398,391,2025-05-27T11:08:25.083059
190,-0.1308,-0.8301,0.6066,3.115,-3.885,1.190,413,330,375,409,395,2025-05-27T11:08:25.083059
191,-0.1244,-0.8389,0.6056,4.305,-4.620,1.645,415,403,386,416,408,2025-05-27T11:08:25.137743
192,-0.1259,-0.8320,0.6115,3.710,-5.040,1.435,425,394,396,427,410,2025-05-27T11:08:25.137743
193,-0.1308,-0.8316,0.6178,5.250,-2.800,1.610,432,413,383,390,415,2025-05-27T11:08:25.137743
194,-0.1381,-0.8267,0.6207,3.045,-3.885,1.400,424,406,389,413,416,2025-05-27T11:08:25.137743
195,-0.1396,-0.8301,0.6144,4.760,-5.040,0.945,405,407,394,428,416,2025-05-27T11:08:25.137743
196,-0.1313,-0.8267,0.6134,2.590,-7.735,2.135,366,421,395,417,402,2025-05-27T11:08:25.137743
197,-0.1581,-0.8213,0.6129,5.600,-6.125,0.490,420,423,396,423,404,2025-05-27T11:08:25.185663
198,-0.1322,-0.8267,0.6168,6.580,-7.805,1.365,385,407,390,429,404,2025-05-27T11:08:25.185663
199,-0.2098,-0.8233,0.6276,8.995,-7.525,0.105,422,422,393,401,398,2025-05-27T11:08:25.185663
200,-0.0761,-0.8506,0.6134,6.265,-10.150,4.025,376,303,346,373,409,2025-05-27T11:08:25.185663
201,-0.1464,-0.8159,0.6242,7.770,-4.165,1.085,398,411,353,396,392,2025-05-27T11:08:25.433538
202,-0.1303,-0.8208,0.6285,7.035,-3.955,1.050,434,427,326,349,403,2025-05-27T11:08:25.433538
203,-0.1293,-0.8076,0.6305,5.495,-3.780,1.365,400,385,358,402,375,2025-05-27T11:08:25.433538
204,-0.1405,-0.8067,0.6232,4.900,-3.500,-0.105,422,392,372,413,395,2025-05-27T11:08:25.433538
205,-0.1444,-0.8091,0.6188,4.480,-3.920,-0.455,421,399,369,413,405,2025-05-27T11:08:25.433538
206,-0.1376,-0.8081,0.6115,4.655,-4.095,-0.805,397,387,376,400,392,2025-05-27T11:08:25.433538
207,-0.1381,-0.8081,0.6120,3.570,-3.675,-0.525,403,416,373,413,390,2025-05-27T11:08:25.433538
208,-0.1386,-0.8091,0.6090,2.940,-3.150,-0.525,343,393,380,416,407,2025-05-27T11:08:25.433538
209,-0.1420,-0.8115,0.6154,1.050,-2.485,-0.175,400,412,391,412,412,2025-05-27T11:08:25.433538
210,-0.1396,-0.8145,0.6198,-0.105,-2.240,-0.035,353,416,385,394,315,2025-05-27T11:08:25.433538
211,-0.1347,-0.8130,0.6251,-0.875,-1.995,0.140,384,356,350,347,354,2025-05-27T11:08:25.433538
212,-0.1342,-0.8150,0.6285,-0.560,-1.995,0.280,414,360,366,335,391,2025-05-27T11:08:25.433538
213,-0.1371,-0.8189,0.6300,-0.210,-2.520,-0.140,425,390,367,377,399,2025-05-27T11:08:25.508781
214,-0.1337,-0.8184,0.6320,0.490,-3.430,-0.630,405,412,386,389,409,2025-05-27T11:08:25.508781
215,-0.1303,-0.8169,0.6359,0.630,-3.535,-0.980,403,404,345,389,407,2025-05-27T11:08:25.508781
216,-0.1303,-0.8228,0.6315,0.665,-3.185,-1.155,408,433,353,390,404,2025-05-27T11:08:25.508781
217,-0.1342,-0.8213,0.6310,0.805,-3.430,-1.190,421,434,378,408,315,2025-05-27T11:08:25.508781
218,-0.1347,-0.8179,0.6305,0.805,-3.360,-1.050,407,415,380,397,358,2025-05-27T11:08:25.508781
219,-0.1308,-0.8120,0.6281,0.665,-2.940,-0.665,354,403,383,387,387,2025-05-27T11:08:25.508781
220,-0.1318,-0.8120,0.6217,1.015,-2.835,-0.525,380,396,381,400,396,2025-05-27T11:08:25.508781
221,-0.1308,-0.8076,0.6212,0.910,-2.975,-0.595,423,409,388,411,386,2025-05-27T11:08:25.508781
222,-0.1313,-0.8072,0.6193,0.735,-3.150,-0.665,425,390,394,410,396,2025-05-27T11:08:25.508781
223,-0.1293,-0.8037,0.6212,-0.175,-2.730,-0.770,407,392,393,413,408,2025-05-27T11:08:25.508781
224,-0.1283,-0.8072,0.6242,-0.805,-2.555,-1.085,356,405,395,412,377,2025-05-27T11:08:25.508781
225,-0.1264,-0.8101,0.6246,-1.120,-2.170,-1.155,403,401,390,426,407,2025-05-27T11:08:25.707287
226,-0.1313,-0.8115,0.6232,-1.400,-1.470,-0.980,395,406,349,406,396,2025-05-27T11:08:25.707287
227,-0.1322,-0.8150,0.6222,-1.995,-1.260,-0.910,409,407,359,392,406,2025-05-27T11:08:25.707287
228,-0.1308,-0.8130,0.6261,-1.785,-1.015,-0.910,364,403,371,404,405,2025-05-27T11:08:25.707287
229,-0.1322,-0.8159,0.6271,-1.260,-1.155,-0.945,409,427,370,309,399,2025-05-27T11:08:25.707287
230,-0.1362,-0.8179,0.6281,-1.575,-0.630,-0.630,418,367,361,322,409,2025-05-27T11:08:25.707287
231,-0.1362,-0.8135,0.6295,-2.485,-1.015,-0.700,412,384,376,334,411,2025-05-27T11:08:25.707287
232,-0.1352,-0.8159,0.6305,-2.240,-1.295,-0.805,396,412,388,386,366,2025-05-27T11:08:25.707287
233,-0.1249,-0.8154,0.6285,-1.785,-0.805,-0.700,396,394,394,400,388,2025-05-27T11:08:25.707287
234,-0.1293,-0.8198,0.6266,-1.120,-0.245,-0.315,381,424,383,409,339,2025-05-27T11:08:25.707287
235,-0.1313,-0.8150,0.6281,-0.980,-0.490,-0.210,390,428,389,348,393,2025-05-27T11:08:25.707287
236,-0.1332,-0.8154,0.6256,-0.770,-1.400,-0.140,408,405,387,381,397,2025-05-27T11:08:25.707287
237,-0.1342,-0.8174,0.6266,-0.140,-2.310,-0.035,417,390,377,385,405,2025-05-27T11:08:25.707287
238,-0.1342,-0.8159,0.6271,0.210,-3.395,-0.070,419,399,384,409,407,2025-05-27T11:08:25.707287
239,-0.1371,-0.8125,0.6271,0.210,-3.605,0.280,419,419,389,407,413,2025-05-27T11:08:25.707287
240,-0.1401,-0.8154,0.6290,-0.420,-3.850,0.315,404,408,313,404,378,2025-05-27T11:08:25.707287
241,-0.1362,-0.8164,0.6295,-1.225,-4.165,0.315,433,413,350,410,341,2025-05-27T11:08:25.707287
242,-0.1332,-0.8164,0.6266,-1.120,-3.955,0.385,425,389,358,400,339,2025-05-27T11:08:25.707287
243,-0.1288,-0.8164,0.6227,-0.875,-3.360,0.735,402,422,364,402,393,2025-05-27T11:08:25.707287
244,-0.1322,-0.8154,0.6217,-0.420,-3.465,0.875,415,399,367,414,407,2025-05-27T11:08:25.753670
245,-0.1332,-0.8135,0.6188,0.140,-3.885,0.770,344,396,378,375,400,2025-05-27T11:08:25.753670
246,-0.1313,-0.8130,0.6207,0.420,-4.095,0.630,404,400,343,387,407,2025-05-27T11:08:25.753670
247,-0.1259,-0.8135,0.6183,0.525,-4.025,0.700,408,369,374,407,395,2025-05-27T11:08:25.753670
248,-0.1288,-0.8120,0.6193,-0.315,-3.990,0.770,399,411,380,351,400,2025-05-27T11:08:25.805041
249,-0.1357,-0.8184,0.6217,-0.665,-4.200,0.735,360,421,367,377,403,2025-05-27T11:08:25.805041
250,-0.1352,-0.8213,0.6222,-0.420,-4.585,0.875,384,401,370,399,390,2025-05-27T11:08:25.805041
251,-0.1357,-0.8213,0.6237,-0.840,-4.620,0.805,410,431,377,386,397,2025-05-27T11:08:25.805041
252,-0.1332,-0.8242,0.6256,-1.365,-4.235,0.945,416,422,375,399,392,2025-05-27T11:08:25.853968
253,-0.1298,-0.8233,0.6256,-1.540,-4.130,0.840,395,427,371,412,360,2025-05-27T11:08:25.853968
254,-0.1269,-0.8213,0.6217,-1.050,-4.165,0.700,393,419,340,410,391,2025-05-27T11:08:25.853968
255,-0.1249,-0.8218,0.6207,-0.455,-4.235,0.595,408,398,364,415,383,2025-05-27T11:08:25.853968
256,-0.1279,-0.8237,0.6217,-0.280,-4.270,0.385,401,398,334,392,395,2025-05-27T11:08:25.903227
257,-0.1269,-0.8242,0.6227,0.035,-4.235,0.140,394,411,363,389,402,2025-05-27T11:08:25.903227
258,-0.1230,-0.8218,0.6237,0.140,-4.025,-0.210,422,378,378,392,414,2025-05-27T11:08:25.903227
259,-0.1225,-0.8223,0.6246,0.070,-3.150,-0.175,400,420,355,389,408,2025-05-27T11:08:25.903227
260,-0.1215,-0.8237,0.6237,0.245,-2.485,-0.105,391,420,381,388,405,2025-05-27T11:08:25.903227
261,-0.1244,-0.8203,0.6222,0.315,-2.275,-0.210,406,423,374,406,414,2025-05-27T11:08:25.954278
262,-0.1254,-0.8223,0.6222,0.840,-2.310,-0.385,425,426,383,413,395,2025-05-27T11:08:25.954278
263,-0.1318,-0.8194,0.6217,1.120,-2.730,-0.490,420,407,389,409,413,2025-05-27T11:08:25.954278
264,-0.1288,-0.8174,0.4997,1.260,-2.870,-0.805,416,410,389,417,406,2025-05-27T11:08:25.954278
265,-0.1279,-0.8179,0.6212,1.400,-2.485,-0.805,428,376,355,390,390,2025-05-27T11:08:26.008812
266,-0.1318,-0.8130,0.6242,1.120,-2.275,-0.490,397,397,376,365,388,2025-05-27T11:08:26.008812
267,-0.1342,-0.8159,0.6212,1.050,-2.555,-0.525,417,343,370,351,392,2025-05-27T11:08:26.008812
268,-0.1327,-0.8145,0.6242,0.665,-2.695,-0.595,430,415,372,374,412,2025-05-27T11:08:26.008812
269,-0.1293,-0.8130,0.6242,0.175,-2.345,-0.735,393,410,385,386,363,2025-05-27T11:08:26.148061
270,-0.1288,-0.8150,0.6256,0.035,-1.750,-0.735,411,393,379,381,373,2025-05-27T11:08:26.148061
271,-0.1303,-0.8140,0.6242,-0.245,-1.855,-0.630,409,395,380,396,400,2025-05-27T11:08:26.148061
272,-0.1313,-0.8145,0.6246,0.035,-2.100,-0.735,397,394,384,372,396,2025-05-27T11:08:26.148061
273,-0.1318,-0.8140,0.6256,0.210,-2.135,-0.910,415,420,390,401,401,2025-05-27T11:08:26.148061
274,-0.1298,-0.8154,0.6246,0.455,-2.345,-1.015,418,427,388,376,402,2025-05-27T11:08:26.148061
275,-0.1322,-0.8189,0.6266,0.000,-2.030,-0.910,355,398,396,407,398,2025-05-27T11:08:26.148061
276,-0.1293,-0.8198,0.6256,0.035,-1.715,-0.595,412,359,387,388,364,2025-05-27T11:08:26.148061
277,-0.1308,-0.8218,0.6246,0.385,-2.065,-0.525,397,404,361,378,399,2025-05-27T11:08:26.148061
278,-0.1322,-0.8213,0.6251,1.085,-2.135,-0.525,338,419,365,397,412,2025-05-27T11:08:26.148061
279,-0.1322,-0.8194,0.6212,1.715,-2.205,-0.630,400,408,337,393,389,2025-05-27T11:08:26.148061
280,-0.1337,-0.8125,0.6198,1.785,-2.345,-0.700,397,400,333,402,398,2025-05-27T11:08:26.148061
281,-0.1269,-0.8140,0.6202,1.925,-2.625,-0.560,297,389,316,400,394,2025-05-27T11:08:26.248249
282,-0.1274,-0.8120,0.6202,1.855,-2.205,-0.735,410,421,353,384,349,2025-05-27T11:08:26.248249
283,-0.1327,-0.8145,0.6193,1.050,-1.715,-0.665,412,410,366,396,390,2025-05-27T11:08:26.248249
284,-0.1303,-0.8150,0.6168,0.455,-1.645,-0.665,423,394,349,386,364,2025-05-27T11:08:26.248249
285,-0.1322,-0.8154,0.6173,-0.385,-1.365,0.035,416,402,371,380,380,2025-05-27T11:08:26.248249
286,-0.1327,-0.8159,0.6178,-0.665,-1.470,0.350,397,402,342,383,384,2025-05-27T11:08:26.248249
287,-0.1210,-0.8140,0.6154,0.630,-1.435,0.210,360,405,367,390,393,2025-05-27T11:08:26.248249
288,-0.1225,-0.8115,0.6212,0.140,-0.840,0.910,331,396,374,395,402,2025-05-27T11:08:26.248249
289,-0.1396,-0.8325,0.6222,0.980,-2.100,1.540,403,392,374,416,400,2025-05-27T11:08:26.248249
290,-0.1122,-0.8003,0.6359,-3.290,-2.555,0.455,370,402,378,359,400,2025-05-27T11:08:26.348303
291,-0.1015,-0.8252,0.6173,4.795,-1.750,-0.245,367,429,372,352,353,2025-05-27T11:08:26.348303
292,-0.1274,-0.8184,0.6251,1.015,1.645,0.175,390,411,380,389,369,2025-05-27T11:08:26.348303
293,-0.1371,-0.8213,0.6193,0.560,2.345,-0.070,383,403,382,392,356,2025-05-27T11:08:26.348303
294,-0.1039,-0.8072,0.6695,-3.710,2.415,0.035,389,414,393,386,389,2025-05-27T11:08:26.348303
295,-0.1220,-0.8135,0.6222,0.385,2.065,-0.560,386,420,378,408,405,2025-05-27T11:08:26.348303
296,-0.1493,-0.8198,0.6163,0.665,0.245,-0.770,382,426,377,410,415,2025-05-27T11:08:26.348303
297,-0.1444,-0.8208,0.6178,1.225,0.735,-0.350,414,381,375,390,317,2025-05-27T11:08:26.348303
298,-0.1391,-0.8223,0.6237,1.820,-0.210,-0.210,338,405,380,402,328,2025-05-27T11:08:26.464966
299,-0.1332,-0.8189,0.6251,2.380,-1.330,-0.420,403,421,384,407,320,2025-05-27T11:08:26.464966
300,-0.1210,-0.8213,0.6281,2.100,0.175,-0.245,427,348,350,413,354,2025-05-27T11:08:26.464966
301,-0.1157,-0.8247,0.6271,2.205,2.100,-1.120,404,363,372,417,394,2025-05-27T11:08:26.464966
302,-0.1200,-0.8364,0.6383,3.605,2.030,-2.590,365,401,387,420,402,2025-05-27T11:08:26.464966
303,-0.1059,-0.8296,0.6305,4.725,5.285,-2.835,422,434,391,414,407,2025-05-27T11:08:26.560371
304,-0.1332,-0.8340,0.6359,4.270,5.705,-2.800,427,412,344,412,389,2025-05-27T11:08:26.560371
305,-0.1610,-0.8398,0.6446,4.340,4.165,-2.695,433,418,368,396,393,2025-05-27T11:08:26.560371
306,-0.1420,-0.8442,0.6315,7.350,0.035,-3.780,429,423,378,413,407,2025-05-27T11:08:26.560371
307,-0.1000,-0.8379,0.6290,10.465,3.885,-2.660,433,395,369,414,409,2025-05-27T11:08:26.560371
308,-0.1074,-0.8359,0.6334,12.425,9.870,-0.735,404,423,374,405,397,2025-05-27T11:08:26.560371
309,-0.1308,-0.8364,0.6407,12.390,11.585,-0.735,393,421,335,407,383,2025-05-27T11:08:26.560371
310,-0.1327,-0.8052,0.6354,12.145,10.430,-2.065,413,398,371,410,349,2025-05-27T11:08:26.560371
311,-0.1425,-0.8276,0.6281,13.335,11.095,-1.925,427,422,345,416,349,2025-05-27T11:08:26.560371
312,-0.1430,-0.8150,0.6310,14.280,9.975,-2.415,424,357,351,388,334,2025-05-27T11:08:26.560371
313,-0.1415,-0.7998,0.6310,15.505,8.750,-3.710,301,374,329,405,323,2025-05-27T11:08:26.560371
314,-0.1396,-0.7881,0.6329,14.735,11.025,-4.725,361,417,318,418,380,2025-05-27T11:08:26.560371
315,-0.1484,-0.7706,0.6398,13.160,13.125,-4.585,413,398,346,418,382,2025-05-27T11:08:26.660433
316,-0.1547,-0.7998,0.6393,12.740,12.215,-4.760,423,405,355,399,386,2025-05-27T11:08:26.660433
317,-0.1488,-0.7871,0.6437,12.320,10.535,-5.670,399,420,361,419,393,2025-05-27T11:08:26.660433
318,-0.1386,-0.7954,0.6398,14.385,11.130,-5.250,413,421,364,372,341,2025-05-27T11:08:26.660433
319,-0.1488,-0.7871,0.6354,16.135,9.030,-3.430,416,441,369,394,396,2025-05-27T11:08:26.660433
320,-0.1654,-0.7847,0.6383,17.395,6.300,-4.690,380,353,369,402,411,2025-05-27T11:08:26.660433
321,-0.1498,-0.7852,0.6525,11.060,7.875,-4.550,418,416,340,411,393,2025-05-27T11:08:26.660433
322,-0.1586,-0.7686,0.6529,11.900,10.535,-5.320,396,349,320,366,403,2025-05-27T11:08:26.660433
323,-0.1576,-0.7706,0.6466,14.420,7.525,-5.075,394,418,357,340,390,2025-05-27T11:08:26.754689
324,-0.1645,-0.7823,0.6481,8.925,5.670,-4.480,423,389,358,393,403,2025-05-27T11:08:26.754689
325,-0.1669,-0.7725,0.6632,11.200,9.765,-5.320,421,343,373,404,315,2025-05-27T11:08:26.754689
326,-0.1332,-0.8091,0.6700,4.200,4.725,-4.235,409,401,383,406,380,2025-05-27T11:08:26.754689
327,-0.1606,-0.7759,0.6783,9.415,7.945,-6.300,426,435,390,356,352,2025-05-27T11:08:26.754689
328,-0.1703,-0.7793,0.6793,6.300,8.925,-5.040,361,395,388,337,391,2025-05-27T11:08:26.754689
329,-0.1654,-0.7920,0.6661,9.135,7.420,-5.810,398,416,360,351,401,2025-05-27T11:08:26.764574
330,-0.1635,-0.7759,0.6661,7.070,6.580,-4.900,401,392,332,288,349,2025-05-27T11:08:26.764574
331,-0.1732,-0.7774,0.6754,6.650,5.845,-3.990,339,388,355,360,339,2025-05-27T11:08:26.764628
332,-0.1444,-0.7906,0.6778,3.325,1.120,-2.415,400,344,375,375,375,2025-05-27T11:08:26.819277
333,-0.1664,-0.7774,0.6730,7.385,2.450,-4.130,410,375,372,390,352,2025-05-27T11:08:26.819277
334,-0.1615,-0.7715,0.6705,8.470,2.590,-3.710,416,376,383,383,374,2025-05-27T11:08:26.819277
335,-0.1703,-0.7632,0.6769,6.580,3.465,-2.870,410,397,369,399,384,2025-05-27T11:08:26.819277
336,-0.1723,-0.7652,0.6715,4.830,2.765,-2.660,376,422,370,404,386,2025-05-27T11:08:26.819277
337,-0.0224,-0.7481,0.6593,-1.015,-7.140,0.770,427,412,349,415,384,2025-05-27T11:08:26.970501
338,-0.1757,-0.7520,0.6739,4.200,1.015,-2.975,387,415,361,414,389,2025-05-27T11:08:26.970501
339,-0.1742,-0.7632,0.6754,2.625,0.560,-2.695,409,399,373,393,379,2025-05-27T11:08:26.970501
340,-0.1723,-0.7579,0.6749,0.105,-0.980,-2.485,404,410,374,388,397,2025-05-27T11:08:26.970501
341,-0.1723,-0.7647,0.6803,-1.295,-0.315,-2.065,417,400,370,365,345,2025-05-27T11:08:26.970501
342,-0.1728,-0.7676,0.6773,-2.380,-0.105,-1.085,418,424,383,395,380,2025-05-27T11:08:26.970501
343,-0.1776,-0.7652,0.6788,-3.780,0.420,-0.280,370,430,384,397,399,2025-05-27T11:08:26.970501
344,-0.1742,-0.7784,0.6871,-2.765,-0.420,-1.050,396,356,386,369,391,2025-05-27T11:08:26.970501
345,-0.1781,-0.7618,0.6808,-3.150,-0.490,0.455,405,409,376,399,399,2025-05-27T11:08:26.970501
346,-0.1732,-0.7706,0.6954,-2.800,-0.735,0.945,339,413,388,419,401,2025-05-27T11:08:26.970501
347,-0.1723,-0.7598,0.6895,-5.425,0.070,2.520,405,411,379,415,388,2025-05-27T11:08:26.970501
348,-0.1571,-0.7862,0.6861,-5.635,0.385,2.205,423,343,366,371,378,2025-05-27T11:08:26.970501
349,-0.2362,-0.6993,0.6432,-10.885,2.030,-1.470,419,401,371,398,346,2025-05-27T11:08:26.970501
350,-0.1688,-0.7632,0.6773,-2.975,1.925,-0.560,396,363,361,405,375,2025-05-27T11:08:27.072047
351,-0.1630,-0.7818,0.6676,-4.550,1.995,-1.225,409,405,368,409,389,2025-05-27T11:08:27.254198
352,-0.1542,-0.7749,0.6588,-3.780,3.150,-0.280,419,341,373,417,399,2025-05-27T11:08:27.254198
353,-0.1591,-0.7686,0.6549,-4.235,1.645,-1.820,416,343,371,407,393,2025-05-27T11:08:27.254198
354,-0.1591,-0.7745,0.6510,-4.480,1.575,-1.155,408,384,378,397,387,2025-05-27T11:08:27.254198
355,-0.1615,-0.7764,0.6529,-3.290,0.525,-0.700,416,417,337,386,407,2025-05-27T11:08:27.254198
356,-0.1581,-0.7710,0.6559,-1.575,1.120,-0.175,420,400,354,404,364,2025-05-27T11:08:27.254198
357,-0.1620,-0.7657,0.6603,-1.715,0.280,0.035,373,417,355,399,396,2025-05-27T11:08:27.254198
358,-0.1723,-0.7642,0.6671,-3.990,-0.070,0.140,413,421,368,411,404,2025-05-27T11:08:27.255195
359,-0.1796,-0.7706,0.6588,-5.740,-0.385,-0.105,406,409,378,418,395,2025-05-27T11:08:27.255250
360,-0.1830,-0.7730,0.6500,-5.215,-0.735,-0.105,405,393,385,392,400,2025-05-27T11:08:27.255250
361,-0.1810,-0.7749,0.6500,-3.430,-2.065,0.910,392,425,382,348,397,2025-05-27T11:08:27.255250
362,-0.1889,-0.7784,0.6593,-1.330,-3.220,0.910,402,403,385,384,399,2025-05-27T11:08:27.255250
363,-0.1771,-0.7808,0.6608,-3.640,-4.900,1.225,403,335,385,404,417,2025-05-27T11:08:27.255250
364,-0.1669,-0.7788,0.6632,-4.515,-4.760,1.680,418,412,386,395,412,2025-05-27T11:08:27.255250
365,-0.1664,-0.7847,0.6598,-3.640,-3.010,2.170,409,425,383,398,372,2025-05-27T11:08:27.255250
366,-0.1640,-0.7857,0.6617,-3.325,-1.610,2.450,401,414,378,410,341,2025-05-27T11:08:27.320354
367,-0.1581,-0.7867,0.6661,-2.590,-0.700,2.450,409,422,375,404,348,2025-05-27T11:08:27.320354
368,-0.1645,-0.7852,0.6622,-3.360,0.000,3.115,392,374,388,351,360,2025-05-27T11:08:27.320354
369,-0.1776,-0.7842,0.6525,-5.110,-0.875,3.115,412,384,374,396,385,2025-05-27T11:08:27.320354
370,-0.1606,-0.7920,0.6437,-0.560,0.385,2.205,423,385,390,416,408,2025-05-27T11:08:27.320354
371,-0.1606,-0.7891,0.6461,-0.700,1.715,2.870,403,401,392,414,375,2025-05-27T11:08:27.320354
372,-0.1820,-0.7876,0.6495,-0.770,1.995,3.535,396,397,391,407,381,2025-05-27T11:08:27.320354
373,-0.1864,-0.7798,0.6437,-2.415,0.665,4.025,407,428,394,398,400,2025-05-27T11:08:27.320354
374,-0.1762,-0.7832,0.6451,-2.590,1.225,5.215,300,393,389,402,401,2025-05-27T11:08:27.320354
375,-0.1649,-0.7867,0.6529,-1.190,4.550,7.910,391,430,384,407,408,2025-05-27T11:08:27.531103
376,-0.1649,-0.7920,0.6534,-2.625,7.770,13.475,379,345,373,388,358,2025-05-27T11:08:27.531103
377,-0.1854,-0.7828,0.6534,-5.670,8.995,16.240,418,417,380,393,369,2025-05-27T11:08:27.531103
378,-0.2142,-0.7803,0.6500,-4.970,3.955,12.915,397,397,386,397,399,2025-05-27T11:08:27.531103
379,-0.1972,-0.7901,0.6466,-2.205,0.315,11.060,414,398,392,415,408,2025-05-27T11:08:27.531103
380,-0.1957,-0.7808,0.6510,-2.240,-3.115,8.295,396,428,387,388,351,2025-05-27T11:08:27.531103
381,-0.0420,-0.7837,0.6573,-4.305,-6.720,15.190,423,399,376,398,377,2025-05-27T11:08:27.531103
382,-0.1440,-0.8008,0.6466,-1.715,-4.305,21.070,419,389,341,407,395,2025-05-27T11:08:27.531103
383,-0.0908,-0.7779,0.6349,-1.400,-13.405,28.770,410,399,358,384,415,2025-05-27T11:08:27.531103
384,-0.2220,-0.8091,0.6432,5.145,-5.950,41.195,418,394,343,408,405,2025-05-27T11:08:27.531103
385,-0.2591,-0.7945,0.6510,6.580,-6.545,43.050,409,409,370,407,400,2025-05-27T11:08:27.531103
386,-0.2933,-0.7964,0.6515,4.830,-6.545,54.705,378,411,384,365,345,2025-05-27T11:08:27.531103
387,-0.3211,-0.8164,0.6373,-1.085,-8.295,54.740,423,396,337,379,329,2025-05-27T11:08:27.531103
388,0.0083,-0.7901,0.6798,-1.820,-14.945,82.285,423,418,357,400,391,2025-05-27T11:08:27.531103
389,0.1049,-0.7135,0.6608,-6.300,-19.320,100.730,409,425,353,412,413,2025-05-27T11:08:27.531103
390,-0.2552,-0.7871,0.6617,0.525,-10.535,101.885,423,399,369,397,385,2025-05-27T11:08:27.531103
391,-0.5490,-0.7330,0.6632,10.675,-10.220,89.285,412,347,359,402,384,2025-05-27T11:08:27.531103
392,-0.4348,-0.7735,0.6588,1.505,-18.830,72.065,410,397,374,422,396,2025-05-27T11:08:27.531103
393,-0.6393,-0.7222,0.6486,5.635,-9.380,50.190,402,345,367,395,388,2025-05-27T11:08:27.531103
394,-0.2782,-0.7139,0.6832,-0.385,-19.565,42.000,362,400,375,409,392,2025-05-27T11:08:27.531103
395,-0.4202,-0.7388,0.6793,4.095,-8.925,34.020,354,426,376,420,403,2025-05-27T11:08:27.531103
396,-0.4577,-0.7349,0.6505,-5.005,-5.110,23.205,390,408,350,421,398,2025-05-27T11:08:27.588682
397,-0.3475,-0.7637,0.6593,-2.975,-5.285,15.645,401,400,333,388,349,2025-05-27T11:08:27.588682
398,-0.3479,-0.7447,0.6466,-1.575,-6.405,5.950,415,405,344,350,395,2025-05-27T11:08:27.588682
399,-0.3392,-0.7325,0.6515,0.630,-3.605,0.175,415,388,321,379,394,2025-05-27T11:08:27.588682
400,-0.2938,-0.7447,0.6446,1.225,-0.840,-3.290,399,398,350,345,405,2025-05-27T11:08:27.588682
401,-0.3104,-0.7383,0.6666,1.680,-3.185,-5.040,406,426,375,369,397,2025-05-27T11:08:27.644290
402,-0.3323,-0.7544,0.6622,0.315,-2.975,-5.950,401,346,348,343,391,2025-05-27T11:08:27.644290
403,-0.3060,-0.7266,0.6891,-0.210,-3.710,-5.075,401,398,363,383,406,2025-05-27T11:08:27.644290
404,-0.3157,-0.7510,0.6700,-2.590,-3.045,-7.455,402,391,373,404,413,2025-05-27T11:08:27.644290
405,-0.3167,-0.7335,0.6812,-2.870,-3.815,-7.385,396,357,382,396,412,2025-05-27T11:08:27.644290
406,-0.3465,-0.7701,0.6398,-2.240,-1.435,-11.060,373,385,373,395,404,2025-05-27T11:08:27.784487
407,-0.3597,-0.7613,0.6481,-1.085,-1.610,-14.105,366,425,383,394,362,2025-05-27T11:08:27.784487
408,-0.3904,-0.7808,0.6403,-0.210,-1.505,-22.190,404,369,370,418,379,2025-05-27T11:08:27.784487
409,-0.2728,-0.7091,0.6568,0.945,-3.010,-26.705,413,411,383,402,351,2025-05-27T11:08:27.784487
410,-0.2723,-0.7305,0.6647,5.460,-1.610,-27.020,407,399,378,414,394,2025-05-27T11:08:27.784487
411,-0.2879,-0.7154,0.6529,1.120,-3.080,-24.885,421,417,385,420,404,2025-05-27T11:08:27.784487
412,-0.3231,-0.7588,0.6500,2.135,-2.450,-29.750,406,428,348,368,388,2025-05-27T11:08:27.784487
413,-0.4270,-0.7681,0.6437,-0.105,1.890,-40.880,410,432,372,339,397,2025-05-27T11:08:27.784487
414,-0.3533,-0.7427,0.6705,6.125,1.855,-53.200,410,433,375,372,407,2025-05-27T11:08:27.784487
415,-0.4787,-0.7618,0.6344,7.280,5.320,-72.065,409,401,384,405,391,2025-05-27T11:08:27.784487
416,-0.5661,-0.7422,0.6500,2.730,11.165,-74.970,399,416,381,413,388,2025-05-27T11:08:27.784487
417,0.1586,-0.6793,0.6798,-3.115,-9.170,-42.385,405,412,348,375,387,2025-05-27T11:08:27.784487
418,-0.1893,-0.7442,0.6442,7.980,-0.455,-28.105,384,379,367,398,390,2025-05-27T11:08:27.835079
419,-0.2230,-0.7662,0.6622,-5.670,-0.735,-36.260,392,357,381,392,412,2025-05-27T11:08:27.835079
420,-0.5158,-0.7935,0.6568,4.655,17.850,-38.325,393,382,352,393,418,2025-05-27T11:08:27.835079
421,-0.1991,-0.7706,0.6456,0.315,-0.420,-20.685,419,385,371,393,400,2025-05-27T11:08:27.835079
422,-0.3050,-0.7701,0.6510,0.595,8.330,-15.855,408,424,382,348,358,2025-05-27T11:08:27.886791
423,-0.2928,-0.7852,0.6608,-4.025,3.920,-15.750,405,413,382,395,376,2025-05-27T11:08:27.886791
424,-0.1025,-0.7579,0.6656,-1.855,-7.805,-3.955,424,424,339,404,380,2025-05-27T11:08:27.886791
425,-0.1864,-0.7715,0.6583,0.175,1.435,0.700,403,408,358,419,392,2025-05-27T11:08:27.886791
426,-0.2357,-0.7730,0.6539,0.980,1.435,1.435,373,415,360,406,386,2025-05-27T11:08:27.938339
427,-0.2347,-0.7701,0.6529,2.275,-1.925,0.595,403,420,376,357,390,2025-05-27T11:08:27.938339
428,-0.2230,-0.7623,0.6500,3.010,-3.255,0.175,424,385,368,338,348,2025-05-27T11:08:27.938339
429,-0.2269,-0.7544,0.6529,0.385,-5.110,0.595,353,416,364,347,380,2025-05-27T11:08:27.938339
430,-0.2294,-0.7662,0.6515,-1.225,-6.370,-0.035,418,432,336,387,398,2025-05-27T11:08:28.093937
431,-0.2298,-0.7666,0.6442,-1.295,-4.725,-0.175,407,416,321,408,409,2025-05-27T11:08:28.093937
432,-0.2172,-0.7647,0.6466,0.315,-2.590,-0.420,404,406,357,392,392,2025-05-27T11:08:28.093937
433,-0.2245,-0.7632,0.6559,-0.770,-2.520,-0.070,351,419,373,389,403,2025-05-27T11:08:28.093937
434,-0.2245,-0.7652,0.6554,-0.805,-1.085,-0.035,379,402,378,410,408,2025-05-27T11:08:28.093937
435,-0.2181,-0.7666,0.6520,-0.840,0.245,0.070,367,409,380,418,381,2025-05-27T11:08:28.093937
436,-0.2142,-0.7554,0.6500,-2.065,1.295,0.525,388,405,377,403,392,2025-05-27T11:08:28.093937
437,-0.2372,-0.7642,0.6490,-3.500,2.310,0.035,390,355,372,366,395,2025-05-27T11:08:28.093937
438,-0.2264,-0.7681,0.6427,-3.640,2.695,0.910,411,415,379,398,353,2025-05-27T11:08:28.093937
439,-0.2216,-0.7725,0.6432,-3.605,3.360,2.205,423,398,389,345,367,2025-05-27T11:08:28.093937
440,-0.2289,-0.7857,0.6495,-1.890,3.850,1.540,346,423,374,333,395,2025-05-27T11:08:28.093937
441,-0.2357,-0.7857,0.6568,-0.945,1.750,0.770,400,407,366,381,394,2025-05-27T11:08:28.093937
442,-0.2279,-0.7857,0.6568,-0.630,2.065,1.400,401,408,375,390,363,2025-05-27T11:08:28.093937
443,-0.2352,-0.7720,0.6632,-0.700,2.835,0.105,410,401,372,365,388,2025-05-27T11:08:28.197949
444,-0.2284,-0.7671,0.6632,-0.700,1.155,0.910,342,377,366,377,341,2025-05-27T11:08:28.197949
445,-0.2733,-0.7608,0.6627,-2.520,-1.260,0.175,403,428,380,343,390,2025-05-27T11:08:28.197949
446,-0.2318,-0.7471,0.6617,-6.930,-3.360,3.220,389,400,307,367,404,2025-05-27T11:08:28.197949
447,-0.2069,-0.7598,0.6549,-9.135,-2.345,9.240,398,395,337,342,396,2025-05-27T11:08:28.197949
448,-0.1801,-0.7627,0.6461,-7.770,-3.185,9.800,389,406,371,393,412,2025-05-27T11:08:28.197949
449,-0.2279,-0.7657,0.6568,-5.530,-4.830,12.285,420,418,307,403,392,2025-05-27T11:08:28.197949
450,-0.2860,-0.7950,0.6549,-2.065,-4.305,5.635,423,428,353,417,407,2025-05-27T11:08:28.197949
451,-0.2728,-0.7920,0.6612,-1.995,-5.845,2.345,411,412,361,392,393,2025-05-27T11:08:28.401078
452,-0.2381,-0.7774,0.6710,0.595,-9.380,0.035,396,423,333,402,417,2025-05-27T11:08:28.401078
453,-0.2137,-0.7676,0.6734,3.920,-11.095,0.140,424,372,320,352,396,2025-05-27T11:08:28.401078
454,-0.2250,-0.7735,0.6568,2.205,-8.890,5.810,402,389,355,401,408,2025-05-27T11:08:28.401078
455,-0.2518,-0.7998,0.6437,0.280,-8.855,8.365,408,392,326,364,413,2025-05-27T11:08:28.401078
456,-0.2889,-0.7774,0.6461,2.135,-7.980,4.655,422,373,352,405,393,2025-05-27T11:08:28.401078
457,-0.2669,-0.7759,0.6476,3.990,-8.960,0.000,421,417,361,390,413,2025-05-27T11:08:28.401078
458,-0.2333,-0.7823,0.6534,2.975,-7.245,1.610,420,429,358,375,355,2025-05-27T11:08:28.401078
459,-0.2196,-0.7691,0.6593,3.045,-6.545,2.835,419,423,372,382,386,2025-05-27T11:08:28.401078
460,-0.3143,-0.7857,0.6437,4.270,-6.440,2.065,418,407,383,401,404,2025-05-27T11:08:28.401078
461,-0.2489,-0.7696,0.6544,5.250,-9.555,-2.030,415,415,342,418,408,2025-05-27T11:08:28.401078
462,-0.1918,-0.7530,0.6690,6.545,-11.970,3.465,385,400,374,419,407,2025-05-27T11:08:28.401078
463,-0.2020,-0.7535,0.6642,9.415,-12.740,3.640,389,414,379,411,392,2025-05-27T11:08:28.401078
464,-0.1908,-0.7593,0.6671,15.925,-18.690,6.475,416,383,340,370,400,2025-05-27T11:08:28.401078
465,-0.3099,-0.7735,0.6500,13.055,-20.895,3.920,359,391,365,405,408,2025-05-27T11:08:28.401078
466,-0.2879,-0.7730,0.6617,14.910,-14.000,1.015,407,423,365,405,406,2025-05-27T11:08:28.401078
467,-0.2303,-0.7588,0.6730,11.025,-13.265,-0.980,365,393,376,361,406,2025-05-27T11:08:28.401078
468,-0.3265,-0.7774,0.6798,8.750,-11.550,-0.455,396,361,368,387,391,2025-05-27T11:08:28.401078
469,-0.2294,-0.7105,0.7110,3.430,-13.895,0.455,417,392,336,387,385,2025-05-27T11:08:28.608900
470,-0.3577,-0.7984,0.6578,6.160,-9.940,0.350,410,386,358,355,379,2025-05-27T11:08:28.608900
471,-0.2562,-0.7618,0.6573,7.105,-15.785,-3.955,414,400,381,389,379,2025-05-27T11:08:28.608900
472,-0.2054,-0.7398,0.6437,11.760,-15.155,-5.740,409,386,390,387,384,2025-05-27T11:08:28.608900
473,-0.1957,-0.7418,0.6705,10.640,-11.725,-1.925,420,401,377,388,394,2025-05-27T11:08:28.608900
474,-0.2084,-0.7515,0.6788,4.235,-7.420,-0.875,423,423,373,406,393,2025-05-27T11:08:28.608900
475,-0.2147,-0.7588,0.6744,2.870,-9.065,-1.995,429,420,381,401,405,2025-05-27T11:08:28.608900
476,-0.2113,-0.7393,0.6637,5.075,-9.240,-3.010,389,392,344,416,354,2025-05-27T11:08:28.608900
477,-0.1967,-0.7427,0.6695,5.320,-9.765,-3.150,417,400,343,415,370,2025-05-27T11:08:28.608900
478,-0.2128,-0.7505,0.6798,4.655,-12.705,-3.745,414,341,364,395,399,2025-05-27T11:08:28.608900
479,-0.2079,-0.7462,0.6817,6.195,-16.310,-4.060,410,404,369,409,348,2025-05-27T11:08:28.608900
480,-0.2201,-0.7457,0.7008,6.650,-17.185,-5.460,432,419,339,409,381,2025-05-27T11:08:28.608900
481,-0.2069,-0.7593,0.7105,5.775,-15.680,-6.965,412,382,351,404,396,2025-05-27T11:08:28.608900
482,-0.2030,-0.7681,0.7008,5.110,-14.420,-7.980,365,425,370,401,403,2025-05-27T11:08:28.608900
483,-0.1796,-0.7569,0.6939,6.720,-11.620,-7.665,376,352,384,309,382,2025-05-27T11:08:28.608900
484,-0.1967,-0.7291,0.7091,6.930,-8.295,-9.800,394,360,376,381,400,2025-05-27T11:08:28.608900
485,-0.1542,-0.7476,0.6715,6.510,-8.820,-13.825,409,396,372,396,350,2025-05-27T11:08:28.608900
486,-0.1815,-0.7437,0.6754,11.585,-11.025,-15.050,424,417,379,399,391,2025-05-27T11:08:28.702562
487,-0.2328,-0.7422,0.6749,17.465,-16.835,-19.495,400,392,391,404,410,2025-05-27T11:08:28.702562
488,-0.2411,-0.7369,0.6852,17.080,-23.625,-26.810,421,409,379,408,396,2025-05-27T11:08:28.702562
489,-0.1430,-0.7388,0.6754,13.685,-21.980,-19.425,420,404,389,392,347,2025-05-27T11:08:28.702562
490,-0.1762,-0.7154,0.6852,10.920,-21.735,-16.240,427,424,393,398,372,2025-05-27T11:08:28.702562
491,-0.1098,-0.8242,0.6739,10.360,-22.960,-6.405,306,396,396,415,393,2025-05-27T11:08:28.702562
492,-0.1810,-0.7408,0.6827,11.725,-23.870,-5.530,393,420,352,360,399,2025-05-27T11:08:28.702562
493,-0.1586,-0.7437,0.6847,10.500,-18.165,-3.220,410,433,372,379,388,2025-05-27T11:08:28.702562
494,-0.1493,-0.7335,0.7032,7.000,-13.510,-0.140,354,388,345,389,345,2025-05-27T11:08:28.802032
495,-0.1498,-0.7218,0.7135,2.940,-10.255,3.465,374,405,360,393,371,2025-05-27T11:08:28.802032
496,-0.1552,-0.7115,0.7281,3.430,-11.375,6.825,407,415,376,411,390,2025-05-27T11:08:28.802032
497,-0.1601,-0.7086,0.7276,2.380,-8.120,10.255,403,415,367,416,359,2025-05-27T11:08:28.802032
498,-0.1215,-0.7144,0.7257,-0.315,-3.675,13.685,389,399,331,412,341,2025-05-27T11:08:28.802032
499,-0.1703,-0.7252,0.7286,-2.800,3.360,12.845,413,403,344,353,386,2025-05-27T11:08:28.802032
500,-0.1708,-0.7432,0.7130,0.420,3.675,12.950,379,400,368,339,383,2025-05-27T11:08:28.802032
501,-0.1903,-0.7520,0.7227,0.420,6.580,13.755,398,402,383,380,403,2025-05-27T11:08:28.970824
502,-0.1562,-0.7383,0.7066,-1.820,13.230,18.305,411,400,383,380,412,2025-05-27T11:08:28.970824
503,-0.1254,-0.7154,0.7188,-4.270,15.050,22.680,346,424,345,340,354,2025-05-27T11:08:28.970824
504,-0.1205,-0.6905,0.7096,-5.145,19.075,29.540,346,425,365,362,340,2025-05-27T11:08:28.970824
505,-0.1601,-0.6959,0.7193,-5.845,22.960,37.555,410,437,380,295,361,2025-05-27T11:08:28.970824
506,-0.1947,-0.7022,0.7110,-9.975,20.440,36.680,400,433,382,373,390,2025-05-27T11:08:28.970824
507,-0.3558,-0.7676,0.7193,-10.920,16.310,23.450,420,411,372,342,394,2025-05-27T11:08:28.970824
508,-0.3338,-0.7432,0.7222,-8.540,5.110,1.155,412,430,348,357,399,2025-05-27T11:08:28.970824
509,-0.2660,-0.7559,0.7139,-4.165,2.835,6.440,405,340,331,390,353,2025-05-27T11:08:28.970824
510,-0.2225,-0.7349,0.7266,-5.880,-2.170,1.365,392,387,352,410,400,2025-05-27T11:08:29.013992
511,-0.2152,-0.7340,0.7305,-3.990,-0.875,1.470,341,390,359,414,397,2025-05-27T11:08:29.013992
512,-0.2147,-0.7296,0.7232,-4.095,-4.165,-0.455,408,406,380,425,412,2025-05-27T11:08:29.013992
513,-0.2118,-0.7149,0.7203,-2.975,-5.075,-2.625,394,401,373,404,413,2025-05-27T11:08:29.013992
514,-0.2538,-0.6803,0.6934,-0.385,-5.775,-5.705,407,420,378,413,402,2025-05-27T11:08:29.013992
515,-0.2533,-0.7296,0.7115,-4.025,-8.260,-6.440,418,416,391,408,399,2025-05-27T11:08:29.013992
516,-0.2079,-0.7588,0.6905,-2.905,-8.435,-5.355,417,395,373,391,383,2025-05-27T11:08:29.013992
517,-0.1854,-0.7540,0.6930,1.050,-7.070,-4.270,420,364,380,393,383,2025-05-27T11:08:29.013992
518,-0.2255,-0.7901,0.6803,4.130,-3.430,-4.060,424,377,371,386,400,2025-05-27T11:08:29.013992
519,-0.1957,-0.7432,0.7066,1.715,-1.645,-4.620,378,340,336,409,382,2025-05-27T11:08:29.281272
520,-0.2094,-0.7393,0.7110,3.675,-1.785,-1.190,405,376,327,406,363,2025-05-27T11:08:29.281272
521,-0.2494,-0.7379,0.7071,0.595,-5.915,-5.600,416,387,355,386,400,2025-05-27T11:08:29.281272
522,-0.2250,-0.7164,0.6969,-0.385,-5.565,-3.675,432,395,357,401,388,2025-05-27T11:08:29.281272
523,-0.1718,-0.7042,0.6934,-3.920,-4.165,0.350,398,406,375,406,410,2025-05-27T11:08:29.281272
524,-0.2201,-0.7286,0.6832,-3.885,-1.470,1.855,395,402,385,407,396,2025-05-27T11:08:29.281272
525,-0.2586,-0.7525,0.6769,-4.830,-2.975,0.210,402,430,356,412,396,2025-05-27T11:08:29.281272
526,-0.1908,-0.7261,0.6842,-1.610,-5.215,1.855,395,417,356,417,384,2025-05-27T11:08:29.281272
527,-0.2020,-0.7613,0.6895,0.315,-3.780,0.385,412,308,366,417,392,2025-05-27T11:08:29.281272
528,-0.1967,-0.7447,0.7100,0.875,-3.955,1.855,389,376,351,413,380,2025-05-27T11:08:29.281272
529,-0.2176,-0.7632,0.6852,-3.500,-3.115,-0.140,362,401,367,394,400,2025-05-27T11:08:29.281272
530,-0.1947,-0.7305,0.6959,0.805,-3.640,0.175,354,342,378,365,404,2025-05-27T11:08:29.281272
531,-0.1996,-0.7627,0.6993,1.610,-4.060,0.525,354,347,380,398,419,2025-05-27T11:08:29.281272
532,-0.1913,-0.7422,0.6959,0.630,-3.920,3.185,330,406,310,399,402,2025-05-27T11:08:29.281272
533,-0.1937,-0.7564,0.6856,-0.560,-2.695,4.270,349,340,303,393,398,2025-05-27T11:08:29.281272
534,-0.1967,-0.7159,0.6930,0.875,-2.730,3.185,413,395,356,415,353,2025-05-27T11:08:29.281272
535,-0.1962,-0.7364,0.7013,3.255,-2.240,3.815,411,414,295,389,364,2025-05-27T11:08:29.281272
536,-0.1967,-0.7213,0.7183,-0.140,-4.795,5.110,423,395,342,407,379,2025-05-27T11:08:29.281272
537,-0.1947,-0.7227,0.7178,-2.415,-5.355,6.580,404,426,359,408,405,2025-05-27T11:08:29.281272
538,-0.2469,-0.7422,0.7056,-1.085,-4.410,5.215,421,406,383,404,355,2025-05-27T11:08:29.281272
539,-0.1557,-0.7052,0.7130,-1.015,-5.915,8.540,414,410,375,410,383,2025-05-27T11:08:29.281272
540,-0.2835,-0.7574,0.7061,1.260,-1.260,8.960,415,418,370,410,391,2025-05-27T11:08:29.281272
541,-0.2050,-0.7247,0.6964,-2.135,-5.565,8.505,420,397,375,414,351,2025-05-27T11:08:29.414348
542,-0.1903,-0.7774,0.6856,9.240,-1.050,14.665,396,349,388,392,354,2025-05-27T11:08:29.414348
543,-0.2128,-0.7476,0.6827,6.825,-1.995,10.675,420,413,377,408,391,2025-05-27T11:08:29.414348
544,-0.2621,-0.7476,0.7047,7.490,-0.770,5.740,402,361,340,313,386,2025-05-27T11:08:29.414348
545,-0.2294,-0.7169,0.7198,3.045,-2.555,-0.945,407,410,324,369,381,2025-05-27T11:08:29.414348
546,-0.2352,-0.7218,0.7164,-1.960,-0.770,-0.455,423,401,357,384,369,2025-05-27T11:08:29.414348
547,-0.2191,-0.6759,0.7052,-13.055,-0.350,1.890,342,412,381,403,383,2025-05-27T11:08:29.414348
548,-0.1347,-0.7178,0.6837,-1.925,-3.010,4.900,384,303,387,410,346,2025-05-27T11:08:29.414348
549,-0.2176,-0.7066,0.6837,-1.960,1.680,1.995,370,388,378,415,330,2025-05-27T11:08:29.414348
550,-0.1254,-0.7286,0.6934,5.950,-0.245,6.650,396,405,381,416,327,2025-05-27T11:08:29.414348
551,-0.1381,-0.7218,0.7052,1.680,0.945,0.595,414,400,338,404,327,2025-05-27T11:08:29.414348
552,-0.2181,-0.7266,0.7086,-0.910,0.910,2.030,416,346,365,390,385,2025-05-27T11:08:29.414348
553,-0.2884,-0.7281,0.7174,-1.260,1.260,-0.490,400,403,362,398,345,2025-05-27T11:08:29.414348
554,-0.2201,-0.7296,0.7071,-1.855,1.505,-1.120,406,416,382,403,378,2025-05-27T11:08:29.464581
555,-0.2245,-0.7349,0.7037,-2.345,0.035,-2.205,421,431,375,410,306,2025-05-27T11:08:29.464581
556,-0.2230,-0.7286,0.6925,-3.080,0.420,-1.680,402,361,375,385,356,2025-05-27T11:08:29.464581
557,-0.2216,-0.7315,0.6847,-0.980,-0.210,-2.100,402,417,377,384,359,2025-05-27T11:08:29.464581
558,-0.2298,-0.7261,0.6803,-0.665,-1.435,-1.015,421,410,385,404,384,2025-05-27T11:08:29.514474
559,-0.2469,-0.7422,0.6783,0.315,-1.330,-0.945,392,397,347,391,392,2025-05-27T11:08:29.514474
560,-0.2328,-0.7266,0.6861,-1.365,-1.855,-0.105,367,414,370,399,397,2025-05-27T11:08:29.514474
561,-0.2489,-0.7300,0.6993,-4.340,-1.435,0.805,412,414,371,391,349,2025-05-27T11:08:29.514474
562,-0.2533,-0.7344,0.7100,-6.405,-3.150,0.245,420,400,384,405,376,2025-05-27T11:08:29.565059
563,-0.2406,-0.7427,0.7110,-5.705,-4.445,-0.980,410,437,383,417,384,2025-05-27T11:08:29.565059
564,-0.2420,-0.7418,0.7261,-6.090,-5.285,-2.625,422,419,387,408,356,2025-05-27T11:08:29.565059
565,-0.2435,-0.7657,0.7037,-5.600,-3.675,-3.990,419,397,378,365,364,2025-05-27T11:08:29.565059
566,-0.2523,-0.7540,0.6920,-3.500,-4.165,-6.510,424,363,375,396,374,2025-05-27T11:08:29.614565
567,-0.3572,-0.7515,0.6881,-5.950,-3.010,-7.945,378,367,378,387,385,2025-05-27T11:08:29.614565
568,-0.2430,-0.7388,0.6876,-6.090,-0.805,-10.220,390,393,383,395,345,2025-05-27T11:08:29.614565
569,-0.1791,-0.7330,0.6842,-8.120,0.035,-12.355,414,424,380,403,332,2025-05-27T11:08:29.614565
570,-0.2635,-0.7535,0.6764,-4.935,3.605,-15.610,354,424,382,395,360,2025-05-27T11:08:29.730885
571,-0.2347,-0.7608,0.6876,0.525,3.535,-14.175,419,410,380,305,374,2025-05-27T11:08:29.730885
572,-0.3460,-0.7823,0.6720,-4.410,7.280,-21.910,421,422,388,388,409,2025-05-27T11:08:29.730885
573,-0.2640,-0.7300,0.6886,-7.735,6.440,-28.420,398,434,380,349,384,2025-05-27T11:08:29.730885
574,-0.1723,-0.7178,0.6905,-6.895,2.800,-19.845,419,426,345,383,389,2025-05-27T11:08:29.730885
575,-0.2118,-0.7252,0.6725,-9.030,4.410,-23.065,339,412,372,415,406,2025-05-27T11:08:29.730885
576,-0.2220,-0.7359,0.6676,-8.890,6.405,-26.005,402,428,374,428,412,2025-05-27T11:08:29.730885
577,-0.2528,-0.7706,0.6769,-6.615,5.740,-25.375,396,413,366,405,395,2025-05-27T11:08:29.730885
578,-0.0332,-0.7188,0.7110,-6.825,1.960,-17.500,396,381,364,406,408,2025-05-27T11:08:29.730885
579,-0.1796,-0.7701,0.6983,-2.905,7.525,-19.670,408,362,369,387,405,2025-05-27T11:08:29.780929
580,-0.1459,-0.7437,0.6998,-2.380,0.805,-22.260,415,402,367,401,411,2025-05-27T11:08:29.780929
581,-0.2172,-0.7637,0.6944,-1.015,0.735,-23.695,395,393,371,396,358,2025-05-27T11:08:29.780929
582,-0.2279,-0.7788,0.6773,-0.210,-0.525,-33.880,417,416,353,406,374,2025-05-27T11:08:29.780929
583,-0.1288,-0.7442,0.6656,0.735,-0.840,-30.765,426,419,374,418,402,2025-05-27T11:08:29.780929
584,-0.1020,-0.7603,0.6710,0.385,-3.395,-23.730,428,387,376,416,353,2025-05-27T11:08:29.931068
585,-0.1674,-0.7666,0.6617,-0.105,-1.050,-15.890,402,395,381,386,393,2025-05-27T11:08:29.931068
586,-0.1327,-0.7540,0.6637,-1.855,-1.470,-13.685,385,400,389,392,390,2025-05-27T11:08:29.931068
587,-0.0278,-0.7476,0.6803,3.220,-2.555,-3.255,369,401,371,408,399,2025-05-27T11:08:29.931068
588,-0.1688,-0.7627,0.6964,6.510,-1.435,-0.420,381,423,379,412,398,2025-05-27T11:08:29.931068
589,-0.1640,-0.7584,0.6905,3.710,-2.520,-0.875,356,399,372,422,412,2025-05-27T11:08:29.931068
590,-0.1562,-0.7618,0.6695,3.780,-1.995,-1.645,343,412,347,401,394,2025-05-27T11:08:29.931068
591,-0.1596,-0.7618,0.6510,6.125,-1.330,-2.415,344,400,355,412,393,2025-05-27T11:08:29.931068
592,-0.1923,-0.7554,0.6603,5.355,-4.865,-3.185,409,401,375,399,403,2025-05-27T11:08:29.931068
593,-0.1825,-0.7505,0.6793,1.575,-7.805,-3.640,415,391,381,380,371,2025-05-27T11:08:29.931068
594,-0.1825,-0.7462,0.6803,-1.925,-9.520,-3.045,414,433,371,381,392,2025-05-27T11:08:29.931068
595,-0.1713,-0.7725,0.6647,-0.455,-5.775,-3.465,416,410,371,383,387,2025-05-27T11:08:29.931068
596,-0.1396,-0.7540,0.6705,2.730,-2.135,-5.740,426,424,372,400,354,2025-05-27T11:08:30.030909
597,-0.1469,-0.7584,0.6905,3.010,0.980,-0.945,428,369,374,405,373,2025-05-27T11:08:30.030909
598,-0.1786,-0.7754,0.7056,1.575,-1.295,-1.540,407,408,309,408,352,2025-05-27T11:08:30.030909
599,-0.1932,-0.7671,0.7013,2.555,-4.270,-1.505,421,412,312,391,390,2025-05-27T11:08:30.030909
600,-0.2030,-0.7759,0.6920,5.110,-9.240,-2.240,403,408,344,408,408,2025-05-27T11:08:30.030909
601,-0.1747,-0.7759,0.6837,5.250,-7.595,-1.750,379,424,291,414,410,2025-05-27T11:08:30.030909
602,-0.1464,-0.7584,0.6695,4.445,-5.215,-0.945,389,395,339,393,411,2025-05-27T11:08:30.030909
603,-0.1518,-0.7623,0.6627,3.395,-3.115,-0.315,405,413,361,381,351,2025-05-27T11:08:30.030909
604,-0.1571,-0.7549,0.6671,1.995,-4.480,-0.560,419,410,381,372,379,2025-05-27T11:08:30.030909
605,-0.2050,-0.7696,0.6656,4.480,-6.510,-2.870,341,405,379,380,388,2025-05-27T11:08:30.030909
606,-0.1810,-0.7696,0.6690,2.240,-8.295,-2.625,351,345,380,413,411,2025-05-27T11:08:30.147720
607,-0.1879,-0.7393,0.6891,1.890,-12.495,-5.180,381,327,384,385,389,2025-05-27T11:08:30.147720
608,-0.2547,-0.8130,0.6803,8.435,-8.365,-10.990,418,388,354,359,389,2025-05-27T11:08:30.147720
609,-0.1776,-0.7623,0.6915,3.885,-8.470,-11.130,407,393,360,387,401,2025-05-27T11:08:30.147720
610,-0.2352,-0.7676,0.7300,1.960,-6.055,-11.865,417,340,295,338,362,2025-05-27T11:08:30.147720
611,-0.0776,-0.7559,0.7047,-0.385,-5.215,-10.745,403,406,299,388,386,2025-05-27T11:08:30.147720
612,-0.1825,-0.7598,0.6832,-2.170,-1.820,-7.840,425,343,337,409,407,2025-05-27T11:08:30.147720
613,-0.2255,-0.7920,0.6695,-1.295,2.730,-17.255,410,407,350,409,392,2025-05-27T11:08:30.147720
614,-0.1747,-0.7520,0.6744,-0.070,4.935,-22.680,408,347,366,413,389,2025-05-27T11:08:30.332901
615,-0.1562,-0.7603,0.6803,-3.955,3.535,-25.235,407,377,368,419,387,2025-05-27T11:08:30.332901
616,-0.0044,-0.7369,0.6852,-6.755,0.770,-15.365,405,399,368,421,400,2025-05-27T11:08:30.332901
617,-0.1161,-0.6583,0.7169,-5.705,2.380,-3.220,423,434,384,424,397,2025-05-27T11:08:30.332901
618,-0.0654,-0.7847,0.6939,-4.970,2.520,-8.540,427,409,371,419,347,2025-05-27T11:08:30.332901
619,-0.1127,-0.7496,0.7047,-2.835,2.870,-6.790,399,401,383,405,385,2025-05-27T11:08:30.332901
620,-0.1274,-0.7681,0.7042,-2.765,2.100,-4.305,406,436,382,405,396,2025-05-27T11:08:30.332901
621,-0.1732,-0.7671,0.7110,-3.850,0.175,-4.795,407,422,390,396,392,2025-05-27T11:08:30.332901
622,-0.1240,-0.7725,0.6964,-3.360,0.035,-4.340,410,422,343,396,408,2025-05-27T11:08:30.332901
623,-0.1279,-0.7657,0.6837,-2.625,1.190,-3.675,302,431,359,389,400,2025-05-27T11:08:30.332901
624,-0.1444,-0.7696,0.6730,-1.085,2.415,-1.855,404,307,326,361,391,2025-05-27T11:08:30.347277
625,-0.1586,-0.7623,0.6764,-0.280,1.645,-1.400,410,328,325,378,393,2025-05-27T11:08:30.347277
626,-0.1449,-0.7632,0.6798,1.610,3.780,-1.610,339,395,348,351,397,2025-05-27T11:08:30.347277
627,-0.1410,-0.7637,0.6886,1.855,3.955,-2.870,406,432,328,355,388,2025-05-27T11:08:30.347277
628,-0.1527,-0.7671,0.6925,3.185,5.320,-2.170,373,419,355,376,392,2025-05-27T11:08:30.347400
629,-0.1664,-0.7647,0.6900,3.080,5.530,-2.380,348,376,372,405,406,2025-05-27T11:08:30.347443
630,-0.1440,-0.7623,0.7008,1.120,3.010,-2.275,388,392,382,406,394,2025-05-27T11:08:30.347443
631,-0.1298,-0.7457,0.6744,0.910,1.925,0.070,415,420,388,352,304,2025-05-27T11:08:30.447992
632,-0.1425,-0.7613,0.6647,0.980,0.980,-0.945,420,429,381,372,360,2025-05-27T11:08:30.447992
633,-0.1459,-0.7593,0.6608,-0.210,2.975,-0.245,392,410,386,385,382,2025-05-27T11:08:30.447992
634,-0.1610,-0.7584,0.6700,-0.280,3.045,-0.455,421,434,401,389,389,2025-05-27T11:08:30.447992
635,-0.1469,-0.7471,0.6725,-2.415,1.750,1.400,412,396,349,384,406,2025-05-27T11:08:30.447992
636,-0.1405,-0.7613,0.6749,-1.645,0.630,0.525,430,399,351,397,392,2025-05-27T11:08:30.447992
637,-0.1669,-0.7496,0.6773,-4.095,1.715,3.290,424,401,370,353,402,2025-05-27T11:08:30.447992
638,-0.1527,-0.7881,0.6739,-3.920,2.905,3.255,435,399,368,380,412,2025-05-27T11:08:30.447992
639,-0.1488,-0.7598,0.6939,-4.830,2.135,3.150,371,375,374,399,411,2025-05-27T11:08:30.551125
640,-0.2011,-0.7959,0.6900,-2.310,-0.175,3.780,417,393,376,308,392,2025-05-27T11:08:30.551125
641,-0.1449,-0.7862,0.6876,-3.465,-0.525,4.550,370,414,335,362,417,2025-05-27T11:08:30.551125
642,-0.1391,-0.7828,0.6852,-2.730,-0.840,4.445,395,414,368,407,401,2025-05-27T11:08:30.551125
643,-0.1440,-0.7915,0.6842,0.350,0.035,2.695,390,411,368,411,393,2025-05-27T11:08:30.551125
644,-0.1410,-0.7749,0.6837,-1.190,-1.750,5.285,397,425,363,402,388,2025-05-27T11:08:30.551125
645,-0.1474,-0.7803,0.6837,0.035,-3.255,5.005,414,428,336,389,404,2025-05-27T11:08:30.551125
646,-0.1942,-0.7998,0.6832,2.380,-1.680,2.730,373,399,362,352,369,2025-05-27T11:08:30.551125
647,-0.1747,-0.7881,0.6832,2.695,-1.750,0.735,381,389,377,398,342,2025-05-27T11:08:30.551125
648,-0.1532,-0.7745,0.6876,3.780,-1.680,0.910,390,412,376,405,375,2025-05-27T11:08:30.730857
649,-0.1684,-0.7666,0.6866,1.610,-3.850,0.910,393,408,392,399,397,2025-05-27T11:08:30.730857
650,-0.1649,-0.7681,0.6798,1.400,-4.200,0.630,385,419,348,393,392,2025-05-27T11:08:30.730857
651,-0.1518,-0.7662,0.6725,2.030,-1.680,0.595,397,399,356,370,401,2025-05-27T11:08:30.853008
652,-0.1366,-0.7476,0.6764,0.630,0.490,2.870,392,378,375,399,390,2025-05-27T11:08:30.853008
653,-0.1601,-0.7549,0.6666,-0.245,0.665,2.835,398,348,379,406,405,2025-05-27T11:08:30.853008
654,-0.1547,-0.7437,0.6520,-0.385,-1.225,1.785,421,384,383,405,393,2025-05-27T11:08:30.853008
655,-0.1064,-0.5939,0.5690,-9.310,-2.030,4.095,425,388,384,412,405,2025-05-27T11:08:30.853008
656,-0.2201,-0.7388,0.6154,-4.690,3.255,2.205,399,408,375,400,353,2025-05-27T11:08:30.853008
657,-0.2513,-0.7081,0.6715,-10.675,-2.310,2.555,396,384,376,349,384,2025-05-27T11:08:30.853008
658,-0.2006,-0.7891,0.6647,-9.730,1.610,3.010,376,416,379,382,407,2025-05-27T11:08:30.853008
659,-0.2015,-0.8091,0.6886,-11.130,-3.710,2.800,382,402,350,366,396,2025-05-27T11:08:30.853008
660,-0.2020,-0.8169,0.6983,-8.435,-5.285,4.305,399,432,370,379,407,2025-05-27T11:08:30.853008
661,-0.1625,-0.8140,0.6969,-5.845,-5.810,5.670,399,418,382,355,404,2025-05-27T11:08:30.853008
662,-0.1547,-0.8174,0.7008,-3.010,-4.305,6.265,419,414,390,383,347,2025-05-27T11:08:30.853008
663,-0.1693,-0.8194,0.7110,0.280,-4.445,5.180,416,413,386,387,325,2025-05-27T11:08:30.853008
664,-0.1679,-0.8140,0.6949,2.730,-7.140,2.765,421,394,385,389,318,2025-05-27T11:08:30.853008
665,-0.1357,-0.8013,0.6798,4.165,-9.415,1.190,404,407,372,412,323,2025-05-27T11:08:30.853008
666,-0.1630,-0.8003,0.6895,3.885,-12.670,-1.015,410,422,373,344,371,2025-05-27T11:08:30.853008
667,-0.1679,-0.7925,0.6842,2.100,-15.365,-5.215,415,405,371,331,389,2025-05-27T11:08:30.853008
668,-0.1606,-0.7686,0.6622,0.035,-15.155,-7.945,417,394,384,383,415,2025-05-27T11:08:30.853008
669,-0.2133,-0.7867,0.6398,0.315,-8.960,-13.580,425,401,389,385,389,2025-05-27T11:08:30.853008
670,-0.1488,-0.7657,0.6017,2.870,-2.380,-13.895,395,417,387,385,392,2025-05-27T11:08:30.853008
671,-0.1347,-0.7462,0.6154,4.655,0.350,-12.355,298,396,393,383,411,2025-05-27T11:08:30.853008
672,-0.2367,-0.7559,0.6730,5.705,1.470,-5.670,382,351,390,413,410,2025-05-27T11:08:30.883270
673,-0.1459,-0.7462,0.6993,3.185,0.140,-3.290,417,383,378,417,419,2025-05-27T11:08:30.883270
674,-0.1854,-0.7588,0.6934,1.365,-0.945,-1.960,413,419,372,406,412,2025-05-27T11:08:30.883270
675,-0.2079,-0.7427,0.7052,2.240,-2.730,-2.170,379,413,365,419,389,2025-05-27T11:08:30.883270
676,-0.1401,-0.7471,0.6852,2.450,-3.150,-4.760,382,407,377,409,385,2025-05-27T11:08:30.938321
677,-0.2054,-0.7715,0.6817,2.345,-5.320,-3.710,389,419,381,388,412,2025-05-27T11:08:30.938321
678,-0.1591,-0.7808,0.6725,0.910,-7.455,-4.725,298,426,391,392,406,2025-05-27T11:08:30.938321
679,-0.1464,-0.8018,0.6725,2.800,-7.315,-5.005,366,415,379,387,407,2025-05-27T11:08:30.938321
680,-0.2064,-0.8032,0.6974,6.860,-4.550,-5.530,333,400,344,392,366,2025-05-27T11:08:30.985927
681,-0.1264,-0.7749,0.6734,3.885,-5.985,-3.815,404,420,368,392,379,2025-05-27T11:08:30.985927
682,-0.1327,-0.7691,0.6759,3.185,-6.440,-3.080,402,421,368,391,389,2025-05-27T11:08:30.985927
683,-0.1249,-0.7954,0.6715,4.970,-5.985,-3.710,414,406,378,395,396,2025-05-27T11:08:30.985927
684,-0.1293,-0.7735,0.6910,6.405,-7.385,-5.845,420,417,339,388,386,2025-05-27T11:08:31.030589
685,-0.1254,-0.7993,0.6827,8.190,-5.985,-6.965,415,404,365,385,396,2025-05-27T11:08:31.030589
686,-0.0527,-0.8189,0.5046,15.120,4.235,-6.755,404,418,381,387,344,2025-05-27T11:08:31.030589
687,-0.1283,-0.2943,1.0502,26.285,3.745,0.805,382,402,374,382,379,2025-05-27T11:08:31.030589
688,-0.1039,-0.9848,0.8003,16.660,-24.850,-9.835,386,400,386,355,388,2025-05-27T11:08:31.090362
689,0.0459,-0.6632,0.7642,18.235,-11.620,12.530,356,399,382,375,408,2025-05-27T11:08:31.090362
690,-0.1747,-0.6744,0.6900,1.715,-43.610,38.605,410,426,349,379,406,2025-05-27T11:08:31.090362
691,-0.1786,-0.7979,0.4485,-1.575,-6.055,-42.945,429,426,362,388,365,2025-05-27T11:08:31.090362
692,-0.3099,-0.7501,0.6622,14.945,-4.795,-1.575,400,369,367,382,342,2025-05-27T11:08:31.090362
693,-0.2269,-0.7457,0.7320,11.340,-29.295,-4.095,411,400,379,390,391,2025-05-27T11:08:31.140424
694,-0.1035,-0.7510,0.7242,7.840,-23.345,-5.390,424,408,307,405,400,2025-05-27T11:08:31.140424
695,-0.0683,-0.7588,0.7447,10.010,-3.850,-5.740,423,418,355,389,405,2025-05-27T11:08:31.140424
696,-0.0454,-0.7379,0.7374,10.710,12.775,-6.930,398,427,375,340,389,2025-05-27T11:08:31.140424
697,-0.0224,-0.7286,0.7227,7.665,22.925,-12.880,392,422,380,389,394,2025-05-27T11:08:31.267286
698,-0.0752,-0.6964,0.7335,9.205,22.400,-15.820,395,429,377,413,388,2025-05-27T11:08:31.267286
699,-0.1957,-0.7393,0.7749,10.360,12.775,-16.555,397,426,384,421,384,2025-05-27T11:08:31.267286
700,-0.2035,-0.7364,0.7379,11.025,-7.805,-18.550,410,408,390,404,352,2025-05-27T11:08:31.267286
701,-0.1464,-0.7364,0.7042,10.990,-7.770,-13.335,402,420,313,412,334,2025-05-27T11:08:31.267286
702,-0.1532,-0.7315,0.6754,8.120,-4.200,-8.470,384,423,352,397,383,2025-05-27T11:08:31.267286
703,-0.1762,-0.7383,0.6891,9.135,-6.825,-5.110,388,354,358,391,383,2025-05-27T11:08:31.267286
704,-0.1874,-0.7330,0.6939,8.155,-10.465,-1.960,389,379,374,400,348,2025-05-27T11:08:31.267286
705,-0.1752,-0.7413,0.7125,7.595,-12.425,0.490,390,374,369,389,386,2025-05-27T11:08:31.267286
706,-0.1122,-0.7286,0.7135,7.000,-14.560,1.225,373,386,372,392,366,2025-05-27T11:08:31.267286
707,-0.0732,-0.7310,0.6969,6.545,-12.915,1.295,392,406,349,384,354,2025-05-27T11:08:31.367185
708,-0.0620,-0.7242,0.6856,4.690,-7.105,0.280,374,304,336,344,387,2025-05-27T11:08:31.367185
709,-0.0664,-0.7208,0.6900,2.275,-5.670,-1.715,381,314,370,378,400,2025-05-27T11:08:31.367185
710,-0.0639,-0.7159,0.6944,-0.105,-5.180,-3.885,340,385,362,380,353,2025-05-27T11:08:31.367185
711,-0.0712,-0.7242,0.6832,-1.295,-1.785,-7.210,390,377,378,401,386,2025-05-27T11:08:31.367185
712,-0.0722,-0.7286,0.6798,-1.015,0.560,-8.610,392,375,369,408,360,2025-05-27T11:08:31.367185
713,-0.0961,-0.7413,0.7115,-1.050,4.795,-8.680,402,393,378,421,399,2025-05-27T11:08:31.367185
714,-0.0410,-0.7154,0.7213,-2.415,0.875,-8.330,399,422,347,414,349,2025-05-27T11:08:31.367185
715,-0.0815,-0.7330,0.7061,-1.960,3.675,-9.590,420,424,366,413,370,2025-05-27T11:08:31.367185
716,-0.1000,-0.7393,0.7144,-0.700,6.650,-10.045,427,430,382,418,380,2025-05-27T11:08:31.431206
717,-0.0634,-0.7349,0.7144,1.225,7.980,-12.040,366,414,336,399,375,2025-05-27T11:08:31.431206
718,-0.0883,-0.7310,0.6949,0.210,12.460,-9.205,391,425,319,417,383,2025-05-27T11:08:31.431206
719,-0.0678,-0.7427,0.7222,-2.870,11.235,-9.345,332,430,354,410,390,2025-05-27T11:08:31.431206
720,-0.1176,-0.7466,0.7364,-2.415,11.620,-7.700,347,349,358,412,384,2025-05-27T11:08:31.573504
721,-0.1220,-0.7598,0.7432,-1.470,7.980,-7.070,362,389,376,419,346,2025-05-27T11:08:31.573504
722,-0.1366,-0.7603,0.7315,1.120,8.785,-10.710,411,427,382,419,373,2025-05-27T11:08:31.573504
723,-0.1264,-0.7549,0.7427,0.245,6.055,-6.755,412,408,387,406,359,2025-05-27T11:08:31.573504
724,-0.1493,-0.7496,0.7281,3.220,6.720,-7.420,407,423,385,393,384,2025-05-27T11:08:31.573504
725,-0.1332,-0.7418,0.7330,2.065,2.625,-4.340,397,421,369,403,389,2025-05-27T11:08:31.573504
726,-0.1449,-0.7418,0.7398,1.855,1.750,-3.010,406,430,388,378,409,2025-05-27T11:08:31.573504
727,-0.1396,-0.7379,0.7335,1.330,2.275,-1.960,416,387,389,394,399,2025-05-27T11:08:31.573504
728,-0.1283,-0.7330,0.7310,0.525,3.290,-1.120,417,423,389,398,389,2025-05-27T11:08:31.573504
729,-0.1274,-0.7320,0.7281,-0.105,6.020,-0.700,395,428,381,404,407,2025-05-27T11:08:31.573504
730,-0.1313,-0.7398,0.7164,-0.420,7.455,-0.490,403,430,388,411,392,2025-05-27T11:08:31.573504
731,-0.1366,-0.7427,0.7047,0.455,7.000,-0.595,417,412,376,414,407,2025-05-27T11:08:31.573504
732,-0.1357,-0.7525,0.7013,0.980,6.055,-1.680,395,402,385,421,411,2025-05-27T11:08:31.573504
733,-0.1371,-0.7496,0.6969,2.555,3.640,-1.785,410,429,375,416,358,2025-05-27T11:08:31.674861
734,-0.1357,-0.6320,0.6978,2.870,1.190,-1.155,427,424,351,400,392,2025-05-27T11:08:31.674861
735,-0.1352,-0.7520,0.6915,2.240,-0.245,-0.525,411,430,370,412,395,2025-05-27T11:08:31.674861
736,-0.1230,-0.7559,0.6925,0.595,-1.155,0.455,406,421,384,353,389,2025-05-27T11:08:31.674861
737,-0.1113,-0.7671,0.6930,-0.280,-2.100,0.770,389,406,376,379,398,2025-05-27T11:08:31.674861
738,-0.1122,-0.7740,0.6881,-1.995,-0.665,0.805,420,426,390,384,418,2025-05-27T11:08:31.674861
739,-0.1142,-0.7715,0.6837,-2.835,-0.945,-0.280,413,429,383,394,407,2025-05-27T11:08:31.674861
740,-0.1200,-0.8233,0.7144,-2.275,-0.385,0.175,398,430,382,397,404,2025-05-27T11:08:31.674861
741,-0.1220,-0.7779,0.6832,-2.905,-1.120,-0.735,380,371,375,406,405,2025-05-27T11:08:31.674861
742,-0.0937,-0.8003,0.6856,-2.975,0.770,-1.575,407,390,385,411,394,2025-05-27T11:08:31.780612
743,-0.0922,-0.7847,0.6817,-3.220,-1.260,-3.465,368,417,374,375,396,2025-05-27T11:08:31.780612
744,-0.1064,-0.7935,0.7061,-2.450,-5.425,-5.110,383,394,339,409,354,2025-05-27T11:08:31.780612
745,-0.0942,-0.7788,0.7056,-3.185,-8.680,-6.895,410,343,348,350,350,2025-05-27T11:08:31.780612
746,-0.0815,-0.7769,0.7100,-4.795,-3.745,-7.700,300,352,369,384,352,2025-05-27T11:08:31.780612
747,-0.0888,-0.7564,0.7066,-6.335,2.975,-8.505,407,382,380,392,293,2025-05-27T11:08:31.780612
748,-0.0898,-0.7549,0.7130,-7.315,1.715,-9.170,393,390,309,405,361,2025-05-27T11:08:31.780612
749,-0.1078,-0.7559,0.7310,-7.665,2.415,-8.295,400,341,356,400,357,2025-05-27T11:08:31.780612
750,-0.1157,-0.7261,0.7188,-6.370,5.075,-9.205,393,324,345,412,374,2025-05-27T11:08:31.880651
751,-0.1269,-0.7388,0.7154,-6.650,6.510,-8.645,423,398,357,416,389,2025-05-27T11:08:31.880651
752,-0.1357,-0.7422,0.7105,-6.370,4.515,-10.255,407,406,365,397,386,2025-05-27T11:08:31.880651
753,-0.1781,-0.7418,0.6959,-4.655,6.755,-15.470,392,422,372,350,386,2025-05-27T11:08:31.880651
754,-0.2011,-0.7569,0.6915,-4.200,12.215,-26.845,404,350,328,338,401,2025-05-27T11:08:31.880651
755,0.0171,-0.7398,0.6974,-4.375,5.250,-12.600,406,407,340,389,410,2025-05-27T11:08:31.880651
756,-0.2084,-0.7706,0.6910,-3.325,11.550,-19.145,432,365,324,396,412,2025-05-27T11:08:31.880651
757,-0.1366,-0.7647,0.6930,-8.015,12.845,-22.785,428,408,327,392,362,2025-05-27T11:08:31.880651
758,-0.0288,-0.7520,0.6944,-3.920,11.235,-19.460,413,430,323,404,341,2025-05-27T11:08:31.880651
759,-0.0200,-0.7652,0.6934,-3.430,9.310,-12.355,411,391,353,388,366,2025-05-27T11:08:32.085092
760,-0.0732,-0.7569,0.6852,-3.815,11.865,-11.585,399,403,359,408,375,2025-05-27T11:08:32.085092
761,-0.0805,-0.7584,0.6856,-3.535,15.365,-11.725,334,423,361,393,393,2025-05-27T11:08:32.085092
762,-0.0942,-0.7549,0.6934,-3.675,17.920,-12.355,399,398,299,399,385,2025-05-27T11:08:32.085092
763,-0.1015,-0.7564,0.6954,-4.025,20.755,-12.915,403,408,316,350,384,2025-05-27T11:08:32.085092
764,-0.1059,-0.7549,0.6925,-4.060,21.000,-13.300,407,414,306,396,347,2025-05-27T11:08:32.085092
765,-0.1098,-0.7535,0.6910,-3.080,22.190,-13.615,400,362,341,383,390,2025-05-27T11:08:32.085092
766,-0.1088,-0.7530,0.6915,-2.765,24.220,-13.545,413,333,352,372,402,2025-05-27T11:08:32.085092
767,-0.1161,-0.8735,0.6891,-1.890,22.540,-13.440,409,406,378,386,392,2025-05-27T11:08:32.085092
768,-0.1200,-0.7530,0.6944,-0.840,21.875,-12.880,438,434,386,403,387,2025-05-27T11:08:32.085092
769,-0.1171,-0.7491,0.6905,-0.350,22.785,-12.530,421,434,392,398,404,2025-05-27T11:08:32.085092
770,-0.1049,-0.7413,0.7017,-0.070,22.015,-12.600,426,421,382,352,409,2025-05-27T11:08:32.085092
771,-0.1044,-0.7393,0.7115,0.140,23.065,-12.320,341,417,373,395,408,2025-05-27T11:08:32.085092
772,-0.1025,-0.7354,0.7135,0.035,24.885,-11.970,385,414,389,387,410,2025-05-27T11:08:32.085092
773,-0.1113,-0.7398,0.7096,0.525,25.865,-11.620,394,382,349,398,420,2025-05-27T11:08:32.085092
774,-0.1259,-0.7418,0.7042,1.190,25.095,-11.515,339,406,359,382,400,2025-05-27T11:08:32.085092
775,-0.1381,-0.7476,0.7013,1.785,24.360,-11.270,354,358,333,335,395,2025-05-27T11:08:32.085092
776,-0.1449,-0.7481,0.6974,2.345,23.030,-11.550,325,406,360,369,389,2025-05-27T11:08:32.166076
777,-0.1513,-0.7520,0.6954,3.045,20.860,-12.530,383,345,367,386,395,2025-05-27T11:08:32.166076
778,-0.1503,-0.7535,0.6998,2.940,20.650,-12.285,403,409,340,408,398,2025-05-27T11:08:32.166076
779,-0.1562,-0.7525,0.6915,2.100,20.335,-14.420,402,426,363,402,406,2025-05-27T11:08:32.166076
780,-0.1444,-0.7398,0.6886,2.345,22.470,-12.775,411,420,365,403,392,2025-05-27T11:08:32.287456
781,-0.1474,-0.7359,0.6934,1.820,23.660,-8.225,413,391,331,382,407,2025-05-27T11:08:32.287456
782,-0.1606,-0.7218,0.6930,-0.350,25.130,0.105,404,376,358,384,402,2025-05-27T11:08:32.287456
783,-0.1659,-0.7271,0.7081,-0.175,22.260,1.820,404,369,366,391,405,2025-05-27T11:08:32.287456
784,-0.1723,-0.7432,0.7242,-0.455,21.840,3.185,421,427,378,400,361,2025-05-27T11:08:32.287456
785,-0.1645,-0.7374,0.7125,-1.260,20.125,4.620,403,397,371,401,377,2025-05-27T11:08:32.287456
786,-0.1562,-0.7408,0.7076,-1.855,20.020,5.845,401,401,374,401,392,2025-05-27T11:08:32.287456
787,-0.1771,-0.7749,0.7159,1.190,18.515,5.950,375,343,374,377,398,2025-05-27T11:08:32.287456
788,-0.2103,-0.7993,0.7164,2.415,17.010,5.670,408,393,366,369,402,2025-05-27T11:08:32.287456
789,-0.2196,-0.7891,0.7130,3.360,12.425,6.510,420,363,377,392,353,2025-05-27T11:08:32.287456
790,-0.2250,-0.7915,0.7120,4.235,8.120,7.490,419,379,371,408,339,2025-05-27T11:08:32.287456
791,-0.2245,-0.7896,0.7086,5.040,3.850,8.365,420,342,371,417,365,2025-05-27T11:08:32.287456
792,-0.2211,-0.7896,0.7120,5.705,0.385,8.925,405,406,383,412,380,2025-05-27T11:08:32.287456
793,-0.2269,-0.7828,0.7125,5.670,-2.100,8.820,408,418,391,402,390,2025-05-27T11:08:32.347785
794,-0.2103,-0.7803,0.7135,5.565,-5.110,9.415,389,401,387,387,408,2025-05-27T11:08:32.347785
795,-0.2064,-0.7745,0.7052,5.740,-5.040,9.835,420,381,373,406,413,2025-05-27T11:08:32.347785
796,-0.1923,-0.7706,0.6978,5.845,-6.440,10.745,343,403,379,411,388,2025-05-27T11:08:32.347785
797,-0.1859,-0.7666,0.6925,6.300,-6.510,11.165,420,417,371,415,346,2025-05-27T11:08:32.347785
798,-0.1908,-0.7691,0.6886,6.965,-6.930,11.235,397,407,374,413,385,2025-05-27T11:08:32.397445
799,-0.1962,-0.7637,0.6920,7.350,-7.420,11.270,389,417,383,412,349,2025-05-27T11:08:32.397445
800,-0.1913,-0.7623,0.6881,7.140,-8.785,11.235,413,399,388,418,381,2025-05-27T11:08:32.397445
801,-0.1825,-0.7569,0.6871,6.895,-8.260,11.060,418,417,392,419,404,2025-05-27T11:08:32.564581
802,-0.1835,-0.7515,0.6827,6.685,-7.665,10.780,423,393,380,415,397,2025-05-27T11:08:32.564581
803,-0.1830,-0.7515,0.6847,6.685,-7.455,10.640,423,399,368,373,392,2025-05-27T11:08:32.564581
804,-0.1898,-0.7476,0.6827,7.245,-8.750,10.045,415,414,369,339,344,2025-05-27T11:08:32.564581
805,-0.1845,-0.7466,0.6886,7.805,-9.975,9.275,425,421,370,383,333,2025-05-27T11:08:32.564581
806,-0.1869,-0.8745,0.6876,8.505,-10.430,8.715,412,399,374,384,375,2025-05-27T11:08:32.564581
807,-0.1972,-0.7476,0.6905,8.330,-11.025,7.945,411,403,365,383,393,2025-05-27T11:08:32.564581
808,-0.2040,-0.7447,0.6944,8.120,-11.725,7.175,416,412,381,405,405,2025-05-27T11:08:32.564581
809,-0.1996,-0.7432,0.6944,8.225,-12.705,6.895,399,421,371,413,403,2025-05-27T11:08:32.564581
810,-0.2069,-0.7364,0.6944,8.190,-13.790,6.965,387,418,305,413,390,2025-05-27T11:08:32.596344
811,-0.1952,-0.7374,0.6969,8.365,-14.105,7.175,424,405,344,417,394,2025-05-27T11:08:32.596344
812,-0.1952,-0.7310,0.6978,8.295,-13.475,7.595,403,393,360,410,350,2025-05-27T11:08:32.596344
813,-0.2025,-0.7296,0.7037,8.365,-13.265,7.560,421,422,377,401,372,2025-05-27T11:08:32.596344
814,-0.2123,-0.7315,0.7066,8.365,-14.770,7.420,427,405,370,377,370,2025-05-27T11:08:32.596344
815,-0.2157,-0.7276,0.7066,8.260,-16.555,7.840,414,424,369,385,385,2025-05-27T11:08:32.596344
816,-0.2401,-0.7354,0.7052,8.680,-19.075,8.085,407,404,346,352,387,2025-05-27T11:08:32.596344
817,-0.2103,-0.7315,0.7032,9.765,-20.615,7.945,422,416,358,349,385,2025-05-27T11:08:32.596344
818,-0.1781,-0.7222,0.7052,10.150,-19.705,8.750,420,438,382,336,403,2025-05-27T11:08:32.797430
819,-0.1532,-0.7154,0.7096,9.555,-16.345,9.485,423,351,372,287,397,2025-05-27T11:08:32.797430
820,-0.1396,-0.7096,0.7037,8.225,-12.390,10.675,341,405,336,315,356,2025-05-27T11:08:32.797430
821,-0.1586,-0.7222,0.6978,7.315,-9.765,10.920,388,421,363,356,393,2025-05-27T11:08:32.797430
822,-0.1767,-0.7159,0.7042,6.965,-10.255,10.745,397,429,334,405,411,2025-05-27T11:08:32.797430
823,-0.1728,-0.7125,0.7071,7.175,-12.250,10.010,418,435,364,401,405,2025-05-27T11:08:32.797430
824,-0.1840,-0.7081,0.7213,6.510,-12.635,9.975,416,375,330,414,413,2025-05-27T11:08:32.797430
825,-0.1845,-0.7100,0.7247,6.405,-13.300,9.660,413,405,365,411,350,2025-05-27T11:08:32.797430
826,-0.1757,-0.7164,0.7305,6.475,-14.875,9.380,386,403,371,396,336,2025-05-27T11:08:32.797430
827,-0.1820,-0.7247,0.7310,6.930,-14.840,9.485,399,405,369,397,358,2025-05-27T11:08:32.797430
828,-0.1879,-0.7330,0.7432,6.965,-14.665,9.485,421,412,376,412,388,2025-05-27T11:08:32.797430
829,-0.1893,-0.7315,0.7447,7.140,-15.505,9.380,373,431,371,416,390,2025-05-27T11:08:32.797430
830,-0.1898,-0.7330,0.7408,7.315,-14.770,9.590,425,419,384,401,403,2025-05-27T11:08:32.797430
831,-0.1972,-0.7320,0.7408,7.350,-14.735,10.080,347,410,383,397,409,2025-05-27T11:08:32.797430
832,-0.1976,-0.7296,0.7354,7.280,-15.925,10.290,381,396,351,387,406,2025-05-27T11:08:32.797430
833,-0.1996,-0.7271,0.7305,7.455,-16.940,10.500,421,403,324,414,361,2025-05-27T11:08:32.797430
834,-0.2064,-0.7227,0.7276,7.455,-18.480,11.130,395,384,315,408,338,2025-05-27T11:08:32.797430
835,-0.2084,-0.7125,0.7218,7.280,-19.985,11.830,417,405,353,394,379,2025-05-27T11:08:32.797430
836,-0.1957,-0.7017,0.7218,6.895,-21.210,12.215,402,429,363,410,390,2025-05-27T11:08:32.847707
837,-0.1991,-0.7052,0.7213,6.300,-21.560,12.705,349,404,372,366,383,2025-05-27T11:08:32.847707
838,-0.1840,-0.6939,0.7237,5.635,-20.895,13.090,379,424,336,398,387,2025-05-27T11:08:32.847707
839,-0.1771,-0.6920,0.7330,4.515,-19.915,12.950,400,422,351,406,401,2025-05-27T11:08:32.847707
840,-0.1757,-0.7037,0.7398,3.815,-17.990,12.250,393,419,355,413,398,2025-05-27T11:08:32.997280
841,-0.1684,-0.7066,0.7335,3.185,-16.940,11.550,409,414,364,421,406,2025-05-27T11:08:32.997280
842,-0.1713,-0.7042,0.7359,3.465,-15.645,10.990,417,401,360,375,394,2025-05-27T11:08:32.997280
843,-0.1664,-0.7042,0.7403,3.430,-14.945,10.290,351,393,368,409,406,2025-05-27T11:08:32.997280
844,-0.1771,-0.7042,0.7496,3.535,-14.525,9.170,331,421,381,386,396,2025-05-27T11:08:32.997280
845,-0.1898,-0.7115,0.7588,3.640,-14.385,7.560,384,354,370,388,395,2025-05-27T11:08:32.997280
846,-0.1820,-0.7071,0.7613,3.745,-14.560,7.350,388,366,352,408,401,2025-05-27T11:08:32.997280
847,-0.1708,-0.7056,0.7642,3.955,-15.260,7.385,412,407,361,408,397,2025-05-27T11:08:32.997280
848,-0.1649,-0.6978,0.7637,4.200,-13.755,7.070,392,404,340,360,414,2025-05-27T11:08:32.997280
849,-0.1586,-0.6925,0.7647,5.005,-11.620,7.140,415,416,324,379,401,2025-05-27T11:08:32.997280
850,-0.1669,-0.6832,0.7681,5.810,-11.445,7.210,408,426,360,362,407,2025-05-27T11:08:32.997280
851,-0.1708,-0.6837,0.7642,6.265,-10.745,7.455,425,436,380,352,395,2025-05-27T11:08:32.997280
852,-0.1674,-0.6817,0.7632,6.160,-9.625,7.280,425,346,373,327,349,2025-05-27T11:08:32.997280
853,-0.1679,-0.6783,0.7588,6.440,-8.855,6.965,390,396,342,380,337,2025-05-27T11:08:33.139201
854,-0.1718,-0.6744,0.7603,6.370,-10.325,6.650,418,417,325,355,382,2025-05-27T11:08:33.139201
855,-0.1601,-0.6710,0.7564,6.265,-9.065,6.230,403,421,352,401,401,2025-05-27T11:08:33.139201
856,-0.1537,-0.6656,0.7662,5.250,-8.330,5.355,408,425,381,388,368,2025-05-27T11:08:33.139201
857,-0.1640,-0.6681,0.7730,3.780,-7.420,4.690,375,426,383,413,397,2025-05-27T11:08:33.139201
858,-0.1571,-0.6647,0.7725,2.590,-6.860,4.165,387,396,387,422,410,2025-05-27T11:08:33.139201
859,-0.1606,-0.6730,0.7691,1.890,-6.370,4.095,393,399,374,426,416,2025-05-27T11:08:33.139201
860,-0.1659,-0.6686,0.7671,1.995,-6.020,3.780,412,422,371,409,411,2025-05-27T11:08:33.139201
861,-0.1625,-0.6666,0.7784,2.135,-5.425,3.465,402,401,361,394,378,2025-05-27T11:08:33.139201
862,-0.1645,-0.6642,0.7871,1.855,-3.850,3.290,403,341,360,364,380,2025-05-27T11:08:33.139201
863,-0.1742,-0.6656,0.7891,1.260,-4.130,3.290,413,398,368,378,401,2025-05-27T11:08:33.197755
864,-0.1908,-0.6715,0.7910,1.435,-5.075,3.115,398,425,371,404,407,2025-05-27T11:08:33.197755
865,-0.1937,-0.6725,0.7915,1.960,-6.790,3.115,392,425,369,404,395,2025-05-27T11:08:33.197755
866,-0.1981,-0.6803,0.7906,2.660,-9.765,3.255,392,439,335,401,343,2025-05-27T11:08:33.197755
867,-0.1962,-0.6827,0.7876,3.535,-10.395,3.360,294,302,351,394,387,2025-05-27T11:08:33.197755
868,-0.1928,-0.6808,0.7862,4.060,-10.185,3.780,387,392,370,394,386,2025-05-27T11:08:33.197755
869,-0.1962,-0.6842,0.7881,4.515,-10.675,4.305,353,417,384,410,408,2025-05-27T11:08:33.197755
870,-0.1996,-0.6842,0.7910,5.005,-11.130,4.970,403,412,392,397,354,2025-05-27T11:08:33.314113
871,-0.1957,-0.6837,0.7828,5.530,-11.235,5.355,356,421,392,395,366,2025-05-27T11:08:33.314129
872,-0.1859,-0.6725,0.7784,6.510,-11.340,6.405,344,401,390,404,338,2025-05-27T11:08:33.314129
873,-0.1854,-0.6642,0.7803,7.210,-11.375,6.965,362,426,380,407,321,2025-05-27T11:08:33.314129
874,-0.1767,-0.6622,0.7828,7.280,-11.690,7.525,408,430,370,367,362,2025-05-27T11:08:33.314223
875,-0.1771,-0.6544,0.7769,7.070,-11.970,7.525,410,417,364,402,383,2025-05-27T11:08:33.314223
876,-0.1781,-0.6495,0.7784,6.475,-12.460,7.210,410,426,377,394,355,2025-05-27T11:08:33.314223
877,-0.1703,-0.6529,0.7828,5.740,-12.775,6.895,414,438,382,409,384,2025-05-27T11:08:33.314223
878,-0.1640,-0.6603,0.7803,5.635,-12.880,6.650,417,405,371,411,398,2025-05-27T11:08:33.413997
879,-0.1488,-0.6622,0.7754,5.635,-11.725,5.915,383,405,339,390,409,2025-05-27T11:08:33.413997
880,-0.1449,-0.6710,0.7832,6.125,-10.080,5.390,404,427,360,412,358,2025-05-27T11:08:33.413997
881,-0.1474,-0.6715,0.7774,6.510,-8.365,4.690,427,413,365,403,373,2025-05-27T11:08:33.413997
882,-0.1425,-0.6710,0.7735,6.965,-7.945,3.745,406,403,375,413,394,2025-05-27T11:08:33.413997
883,-0.1469,-0.6617,0.7710,7.210,-7.000,3.815,420,416,308,392,411,2025-05-27T11:08:33.413997
884,-0.1440,-0.6598,0.7730,6.720,-5.670,3.815,417,393,335,401,396,2025-05-27T11:08:33.413997
885,-0.1527,-0.6617,0.7793,5.740,-6.160,3.500,376,377,356,409,391,2025-05-27T11:08:33.413997
886,-0.1552,-0.6632,0.7823,4.760,-7.210,3.045,403,417,372,402,388,2025-05-27T11:08:33.413997
887,-0.1586,-0.6661,0.7803,4.025,-8.295,2.485,409,401,374,402,404,2025-05-27T11:08:33.514363
888,-0.1537,-0.6642,0.7832,2.870,-9.240,2.240,427,416,333,413,404,2025-05-27T11:08:33.514363
889,-0.1484,-0.6651,0.7808,1.960,-9.555,2.240,370,363,349,408,400,2025-05-27T11:08:33.514363
890,-0.1469,-0.6622,0.7828,1.085,-9.415,2.135,386,428,336,355,394,2025-05-27T11:08:33.514363
891,-0.1435,-0.6617,0.7832,0.350,-9.030,1.925,400,351,341,373,403,2025-05-27T11:08:33.514363
892,-0.1410,-0.6583,0.7867,-0.175,-8.610,1.820,409,385,326,398,355,2025-05-27T11:08:33.514363
893,-0.1479,-0.6534,0.7901,-0.875,-8.120,1.400,386,393,362,392,358,2025-05-27T11:08:33.514363
894,-0.1508,-0.6476,0.7920,-1.470,-8.085,1.085,410,427,366,399,374,2025-05-27T11:08:33.514363
895,-0.1532,-0.6471,0.7925,-1.855,-8.365,0.805,430,408,375,394,380,2025-05-27T11:08:33.573550
896,-0.1562,-0.6427,0.7906,-2.240,-8.645,0.595,410,418,374,407,377,2025-05-27T11:08:33.573550
897,-0.1562,-0.6427,0.7920,-2.625,-9.100,0.350,336,420,390,391,392,2025-05-27T11:08:33.573550
898,-0.1527,-0.6422,0.7959,-2.905,-8.645,0.140,389,403,382,407,388,2025-05-27T11:08:33.573550
899,-0.1493,-0.6437,0.7940,-3.255,-7.630,0.070,362,425,385,397,340,2025-05-27T11:08:33.714173
900,-0.1498,-0.6456,0.7896,-3.290,-6.230,0.035,401,419,385,388,331,2025-05-27T11:08:33.714173
901,-0.1547,-0.6515,0.7896,-2.800,-5.460,0.000,416,424,381,392,336,2025-05-27T11:08:33.714173
902,-0.1630,-0.6534,0.7940,-2.205,-5.460,-0.105,426,412,379,394,383,2025-05-27T11:08:33.714173
903,-0.1635,-0.6520,0.7974,-1.715,-6.125,-0.455,429,344,373,404,400,2025-05-27T11:08:33.714173
904,-0.1601,-0.6520,0.7950,-1.470,-6.685,-0.840,396,395,363,407,351,2025-05-27T11:08:33.714173
905,-0.1503,-0.6476,0.7945,-1.330,-6.440,-1.015,338,409,381,411,331,2025-05-27T11:08:33.714173
906,-0.1396,-0.6451,0.7876,-1.330,-5.740,-1.155,414,420,395,391,362,2025-05-27T11:08:33.714173
907,-0.1386,-0.6481,0.7950,-1.330,-4.200,-1.365,395,406,378,420,399,2025-05-27T11:08:33.714173
908,-0.1449,-0.6486,0.7959,-1.365,-2.975,-1.750,398,406,390,409,411,2025-05-27T11:08:33.714173
909,-0.1464,-0.6559,0.7945,-1.120,-2.870,-2.275,387,398,393,415,393,2025-05-27T11:08:33.714173
910,-0.1469,-0.6642,0.7945,-0.490,-3.150,-2.555,415,396,316,422,387,2025-05-27T11:08:33.714173
911,-0.1449,-0.6627,0.7867,-0.420,-2.660,-2.905,413,426,348,418,384,2025-05-27T11:08:33.714173
912,-0.1347,-0.6676,0.7876,0.980,-2.030,-2.870,400,422,327,405,390,2025-05-27T11:08:33.814128
913,-0.1405,-0.6647,0.7915,1.225,-0.595,-2.800,417,403,314,413,407,2025-05-27T11:08:33.814128
914,-0.1415,-0.6642,0.7891,0.770,1.225,-3.080,395,400,357,421,404,2025-05-27T11:08:33.814128
915,-0.1474,-0.6593,0.7906,0.350,0.700,-3.395,420,418,375,415,391,2025-05-27T11:08:33.814128
916,-0.1484,-0.6573,0.7886,0.525,0.035,-3.605,411,425,380,415,379,2025-05-27T11:08:33.814128
917,-0.1503,-0.6583,0.7974,0.630,-0.280,-3.920,402,431,384,372,378,2025-05-27T11:08:33.814128
918,-0.1498,-0.6612,0.8018,0.560,-0.560,-4.095,410,416,393,401,396,2025-05-27T11:08:33.814128
919,-0.1508,-0.6612,0.8028,0.770,-0.665,-4.095,405,425,377,392,404,2025-05-27T11:08:33.814128
920,-0.1523,-0.6598,0.8008,0.980,-0.805,-3.745,341,406,387,380,410,2025-05-27T11:08:33.814128
921,-0.1547,-0.6617,0.7979,1.365,-0.840,-3.535,407,420,341,387,403,2025-05-27T11:08:33.914098
922,-0.1547,-0.6598,0.7954,1.470,-0.910,-3.010,341,421,361,389,405,2025-05-27T11:08:33.914098
923,-0.1542,-0.6564,0.7979,1.855,-1.960,-2.625,379,419,373,411,388,2025-05-27T11:08:33.914098
924,-0.1630,-0.6593,0.7891,0.630,-2.730,-2.345,371,418,384,402,412,2025-05-27T11:08:33.914098
925,-0.1693,-0.6603,0.7940,1.715,-5.320,-1.610,376,409,386,416,359,2025-05-27T11:08:33.914098
926,-0.1571,-0.6598,0.7935,1.085,-5.460,-1.085,406,438,394,420,399,2025-05-27T11:08:33.914098
927,-0.1542,-0.6598,0.7920,0.805,-6.265,-0.630,415,350,381,393,381,2025-05-27T11:08:33.914098
928,-0.1688,-0.6573,0.7920,0.980,-7.035,-0.140,417,404,393,416,346,2025-05-27T11:08:33.914098
929,-0.1640,-0.6627,0.7862,0.700,-7.945,0.385,302,374,389,397,372,2025-05-27T11:08:33.914098
930,-0.1518,-0.6554,0.7813,0.175,-8.575,0.840,372,388,383,345,376,2025-05-27T11:08:34.130566
931,-0.1498,-0.6539,0.7798,0.175,-8.540,1.365,391,406,382,393,396,2025-05-27T11:08:34.130566
932,-0.1576,-0.6598,0.7759,-0.455,-7.315,1.155,375,394,353,384,406,2025-05-27T11:08:34.130566
933,-0.1493,-0.6515,0.7730,-1.610,-7.525,1.435,425,421,328,401,391,2025-05-27T11:08:34.130566
934,-0.1430,-0.6549,0.7769,-1.855,-8.680,1.470,420,385,350,408,359,2025-05-27T11:08:34.130566
935,-0.1440,-0.6617,0.7784,-2.975,-6.930,1.295,421,385,357,409,377,2025-05-27T11:08:34.130566
936,-0.1318,-0.6627,0.7852,-2.870,-6.965,1.365,342,414,370,402,395,2025-05-27T11:08:34.130566
937,-0.1230,-0.6676,0.7823,-2.660,-4.445,1.295,386,421,370,418,401,2025-05-27T11:08:34.130566
938,-0.1186,-0.6710,0.7832,-2.170,-2.835,1.120,414,424,384,405,397,2025-05-27T11:08:34.130566
939,-0.1303,-0.6695,0.7832,-1.365,-1.960,0.525,419,437,374,421,351,2025-05-27T11:08:34.130566
940,-0.1366,-0.6666,0.7901,-0.735,-2.240,-0.350,340,361,367,349,370,2025-05-27T11:08:34.130566
941,-0.1318,-0.6627,0.7940,-0.840,-2.590,-1.190,404,417,371,393,395,2025-05-27T11:08:34.130566
942,-0.1332,-0.6622,0.7910,-0.490,-3.220,-2.030,416,433,371,402,415,2025-05-27T11:08:34.130566
943,-0.1298,-0.6583,0.7891,-0.875,-2.660,-2.380,418,387,375,404,415,2025-05-27T11:08:34.130566
944,-0.1235,-0.6554,0.7906,-0.350,-2.135,-2.450,402,420,385,390,399,2025-05-27T11:08:34.130566
945,-0.1269,-0.6554,0.7935,-0.140,-1.190,-2.765,394,363,371,388,407,2025-05-27T11:08:34.130566
946,-0.1362,-0.6568,0.7969,-0.070,-1.365,-2.800,399,331,371,398,364,2025-05-27T11:08:34.130566
947,-0.1488,-0.6608,0.7969,-0.210,-1.330,-3.010,353,397,335,351,378,2025-05-27T11:08:34.196504
948,-0.1532,-0.6632,0.7959,-0.070,-1.435,-3.080,364,416,320,385,401,2025-05-27T11:08:34.196504
949,-0.1562,-0.6656,0.7969,0.525,-2.205,-2.800,330,409,350,394,408,2025-05-27T11:08:34.196504
950,-0.1562,-0.6622,0.7964,0.980,-2.590,-2.380,348,351,353,397,389,2025-05-27T11:08:34.196504
951,-0.1532,-0.6593,0.7945,0.700,-2.380,-1.715,413,414,368,398,414,2025-05-27T11:08:34.330275
952,-0.1586,-0.6671,0.8032,1.260,-2.240,-1.050,417,399,371,403,410,2025-05-27T11:08:34.330275
953,-0.1547,-0.6578,0.7910,-0.105,-2.275,-0.455,373,417,378,403,392,2025-05-27T11:08:34.330275
954,-0.1513,-0.6637,0.7906,0.455,-3.185,-0.140,408,388,389,413,402,2025-05-27T11:08:34.330275
955,-0.1537,-0.6578,0.7901,0.245,-3.360,0.140,374,399,377,410,390,2025-05-27T11:08:34.330275
956,-0.1537,-0.6647,0.7896,0.595,-4.025,0.315,399,411,380,415,404,2025-05-27T11:08:34.330275
957,-0.1479,-0.6642,0.7867,0.560,-3.745,0.665,360,433,339,411,394,2025-05-27T11:08:34.330275
958,-0.1396,-0.6642,0.7808,0.735,-3.220,1.015,404,384,366,378,413,2025-05-27T11:08:34.330275
959,-0.1415,-0.6622,0.7818,0.805,-2.240,1.155,337,386,371,403,413,2025-05-27T11:08:34.330275
960,-0.1440,-0.6608,0.7852,0.455,-2.100,1.365,325,419,389,401,397,2025-05-27T11:08:34.330275
961,-0.1469,-0.6598,0.7842,-0.105,-3.080,1.540,325,420,395,393,345,2025-05-27T11:08:34.330275
962,-0.1474,-0.6564,0.7832,-0.280,-4.270,1.365,395,402,385,400,375,2025-05-27T11:08:34.330275
963,-0.1415,-0.6515,0.7832,-0.735,-4.655,1.120,389,398,349,411,391,2025-05-27T11:08:34.330275
964,-0.1322,-0.6544,0.7857,-0.945,-4.550,1.295,384,418,326,420,388,2025-05-27T11:08:34.382915
965,-0.1357,-0.6539,0.7925,-1.190,-3.920,1.225,407,413,344,354,383,2025-05-27T11:08:34.382915
966,-0.1401,-0.6593,0.7950,-1.190,-3.465,1.155,396,383,367,399,399,2025-05-27T11:08:34.382915
967,-0.1410,-0.6632,0.7925,-0.875,-3.465,1.295,393,412,302,410,354,2025-05-27T11:08:34.382915
968,-0.1396,-0.6642,0.7906,-0.280,-3.360,1.330,342,408,337,388,328,2025-05-27T11:08:34.442703
969,-0.1386,-0.6598,0.7930,0.490,-2.870,1.400,332,413,364,413,380,2025-05-27T11:08:34.442703
970,-0.1362,-0.6598,0.7993,0.910,-2.310,1.435,401,399,371,402,391,2025-05-27T11:08:34.442703
971,-0.1415,-0.6564,0.7989,0.840,-2.135,1.365,337,393,360,396,306,2025-05-27T11:08:34.442703
972,-0.1396,-0.6578,0.8003,0.840,-2.240,1.050,413,341,369,396,377,2025-05-27T11:08:34.536122
973,-0.1391,-0.6588,0.7993,0.980,-2.275,0.595,413,408,340,417,397,2025-05-27T11:08:34.536122
974,-0.1410,-0.6612,0.7979,1.190,-2.555,0.490,405,409,369,402,406,2025-05-27T11:08:34.536122
975,-0.1396,-0.6642,0.7969,1.820,-2.625,0.315,427,393,375,404,395,2025-05-27T11:08:34.536122
976,-0.1391,-0.6661,0.7974,2.205,-2.660,0.280,407,421,384,412,366,2025-05-27T11:08:34.536122
977,-0.1396,-0.6603,0.7964,2.555,-2.590,0.175,401,415,340,389,389,2025-05-27T11:08:34.536122
978,-0.1371,-0.6578,0.7930,2.730,-2.310,0.140,406,357,322,348,382,2025-05-27T11:08:34.536122
979,-0.1410,-0.6578,0.7950,2.345,-1.680,-0.035,342,407,351,396,361,2025-05-27T11:08:34.536122
980,-0.1352,-0.6525,0.7954,1.540,-1.225,-0.140,393,387,365,405,375,2025-05-27T11:08:34.536122
981,-0.1362,-0.6529,0.7935,1.505,-1.330,-0.315,399,410,372,406,392,2025-05-27T11:08:34.644576
982,-0.1381,-0.6568,0.7959,1.680,-1.785,-0.385,373,407,384,416,396,2025-05-27T11:08:34.644576
983,-0.1435,-0.6578,0.7940,1.855,-2.065,-0.420,349,387,387,415,405,2025-05-27T11:08:34.644576
984,-0.1405,-0.6559,0.7935,0.910,-2.170,-0.910,384,424,382,396,408,2025-05-27T11:08:34.644576
985,-0.1444,-0.6573,0.7969,1.050,-2.940,-1.015,398,430,385,383,414,2025-05-27T11:08:34.644576
986,-0.1405,-0.6598,0.7959,0.945,-2.905,-0.910,391,414,349,395,400,2025-05-27T11:08:34.644576
987,-0.1366,-0.6564,0.7925,0.665,-2.275,-0.665,397,417,359,393,405,2025-05-27T11:08:34.644576
988,-0.1391,-0.6544,0.7935,0.350,-1.575,-0.455,336,379,364,359,403,2025-05-27T11:08:34.644576
989,-0.1430,-0.6539,0.7954,0.070,-1.750,-0.350,406,393,365,382,410,2025-05-27T11:08:34.746735
990,-0.1488,-0.6568,0.7974,-0.245,-2.275,-0.245,423,429,367,402,416,2025-05-27T11:08:34.746735
991,-0.1498,-0.6544,0.7993,-0.525,-2.905,-0.245,423,398,384,362,415,2025-05-27T11:08:34.746735
992,-0.1474,-0.6578,0.8032,-0.490,-3.360,-0.280,419,412,389,339,402,2025-05-27T11:08:34.746735
993,-0.1459,-0.6568,0.8086,-0.315,-3.815,-0.245,414,409,388,359,411,2025-05-27T11:08:34.747163
994,-0.1503,-0.6603,0.8130,0.175,-4.445,-0.070,387,425,346,336,411,2025-05-27T11:08:34.747163
995,-0.1459,-0.6520,0.8042,-0.350,-5.005,-0.070,409,411,352,333,393,2025-05-27T11:08:34.747163
996,-0.1298,-0.6539,0.8076,0.630,-3.535,0.210,389,401,371,393,390,2025-05-27T11:08:34.747163
997,-0.1318,-0.6559,0.8057,1.260,-3.885,0.280,414,406,336,411,400,2025-05-27T11:08:34.747163
998,-0.1430,-0.6544,0.8037,1.470,-5.740,-0.070,390,421,358,380,409,2025-05-27T11:08:34.813790
999,-0.1410,-0.6495,0.7993,1.225,-6.370,-0.280,337,412,370,346,405,2025-05-27T11:08:34.813790
1000,-0.1362,-0.6490,0.7993,0.385,-7.910,-0.455,399,430,349,381,406,2025-05-27T11:08:34.813790
1001,-0.1322,-0.6461,0.7940,0.070,-8.400,-0.560,419,425,359,386,416,2025-05-27T11:08:34.813790
1002,-0.1279,-0.6442,0.7920,-0.315,-8.645,-0.525,387,423,371,384,419,2025-05-27T11:08:34.813790
1003,-0.1249,-0.6407,0.7925,-0.770,-8.470,-0.560,387,399,365,378,417,2025-05-27T11:08:34.951754
1004,-0.1225,-0.6354,0.7989,-1.435,-8.190,-0.805,407,395,332,379,392,2025-05-27T11:08:34.951754
1005,-0.1152,-0.6256,0.7954,-2.100,-7.910,-0.875,349,340,358,395,391,2025-05-27T11:08:34.951754
1006,-0.1176,-0.6237,0.7969,-3.150,-7.245,-1.155,325,396,337,395,376,2025-05-27T11:08:34.951754
1007,-0.1230,-0.6232,0.8037,-4.690,-6.930,-1.750,364,426,323,392,379,2025-05-27T11:08:34.951754
1008,-0.1352,-0.6285,0.8037,-5.775,-7.560,-2.520,403,423,357,404,388,2025-05-27T11:08:34.951754
1009,-0.1405,-0.6349,0.7979,-6.580,-8.610,-2.695,358,415,369,399,398,2025-05-27T11:08:34.951754
1010,-0.1405,-0.6461,0.7950,-6.720,-9.555,-2.345,393,428,375,390,402,2025-05-27T11:08:34.951754
1011,-0.1347,-0.6505,0.7925,-6.405,-9.800,-1.785,406,409,363,342,352,2025-05-27T11:08:34.951754
1012,-0.1474,-0.6700,0.7964,-5.775,-10.010,-1.260,384,409,365,374,380,2025-05-27T11:08:34.951754
1013,-0.1581,-0.6832,0.7925,-5.215,-10.640,-0.980,422,419,367,403,403,2025-05-27T11:08:34.951754
1014,-0.1635,-0.6954,0.7901,-4.130,-11.375,-0.665,429,432,370,411,406,2025-05-27T11:08:34.951754
1015,-0.1635,-0.7037,0.7793,-2.555,-11.690,-0.070,430,434,386,410,365,2025-05-27T11:08:35.030654
1016,-0.1586,-0.7037,0.7793,-1.190,-11.550,1.015,402,408,358,399,384,2025-05-27T11:08:35.030654
1017,-0.1464,-0.6983,0.7774,0.000,-10.885,2.835,401,404,373,398,394,2025-05-27T11:08:35.030654
1018,-0.1401,-0.6871,0.7784,0.350,-9.730,4.795,416,364,380,408,415,2025-05-27T11:08:35.030654
1019,-0.1322,-0.6744,0.7798,0.665,-8.785,5.950,390,416,373,408,414,2025-05-27T11:08:35.147342
1020,-0.1215,-0.6651,0.7871,0.560,-7.945,6.615,392,355,371,415,403,2025-05-27T11:08:35.147342
1021,-0.1200,-0.6559,0.7974,0.280,-8.085,6.720,384,336,370,401,412,2025-05-27T11:08:35.147342
1022,-0.1108,-0.6559,0.8091,-0.035,-9.590,6.545,336,389,381,389,412,2025-05-27T11:08:35.147342
1023,-0.1069,-0.6578,0.8140,-0.140,-11.550,5.600,343,414,379,406,372,2025-05-27T11:08:35.147342
1024,-0.0927,-0.6671,0.8154,0.140,-12.985,4.725,386,417,382,423,379,2025-05-27T11:08:35.147342
1025,-0.0810,-0.6730,0.8086,0.805,-13.580,3.500,408,427,379,392,389,2025-05-27T11:08:35.147342
1026,0.0888,-0.6242,0.7798,6.860,-14.105,6.545,420,405,385,389,386,2025-05-27T11:08:35.147342
1027,0.0112,-0.6905,0.7354,2.835,-0.770,1.785,412,368,387,401,407,2025-05-27T11:08:35.147342
1028,-0.0776,-0.7096,0.7647,0.035,8.890,1.190,406,411,377,399,398,2025-05-27T11:08:35.147342
1029,-0.1191,-0.6593,0.7691,-3.185,-0.700,-1.960,426,430,375,384,412,2025-05-27T11:08:35.147342
1030,-0.1279,-0.7003,0.8013,-2.030,-3.850,-5.075,349,428,384,375,400,2025-05-27T11:08:35.147342
1031,-0.1152,-0.7003,0.7993,-2.555,-7.000,-6.545,409,405,388,360,392,2025-05-27T11:08:35.147342
1032,-0.0961,-0.6812,0.7998,-1.505,-6.545,-7.035,418,420,380,355,401,2025-05-27T11:08:35.247135
1033,-0.0859,-0.6817,0.7940,0.700,-4.270,-6.720,401,407,373,393,415,2025-05-27T11:08:35.247135
1034,-0.1152,-0.6969,0.7886,1.505,0.175,-5.670,421,418,350,389,392,2025-05-27T11:08:35.247135
1035,-0.1191,-0.6622,0.7945,2.415,2.170,-4.130,360,418,371,382,395,2025-05-27T11:08:35.247135
1036,-0.1371,-0.6500,0.7954,2.870,1.645,-3.675,404,389,337,398,346,2025-05-27T11:08:35.247135
1037,-0.1474,-0.6608,0.7906,2.170,0.875,-2.940,390,400,353,401,330,2025-05-27T11:08:35.247135
1038,-0.1371,-0.6534,0.7837,0.700,-0.560,-2.275,396,424,365,396,363,2025-05-27T11:08:35.247135
1039,-0.1322,-0.6481,0.7798,-0.105,-1.225,-1.400,404,439,381,420,388,2025-05-27T11:08:35.247135
1040,-0.1342,-0.6442,0.7784,-0.105,-1.960,-0.595,394,439,386,421,403,2025-05-27T11:08:35.247135
1041,-0.1459,-0.6251,0.7896,-6.650,-6.545,0.035,411,428,355,417,351,2025-05-27T11:08:35.313758
1042,-0.1371,-0.6427,0.7993,-8.120,-8.505,0.910,407,409,359,395,398,2025-05-27T11:08:35.313758
1043,-0.1205,-0.6437,0.7954,-10.290,-8.120,1.750,403,389,378,424,407,2025-05-27T11:08:35.313758
1044,-0.1044,-0.6451,0.7950,-9.800,-4.900,3.080,417,398,342,422,362,2025-05-27T11:08:35.313758
1045,-0.1171,-0.6554,0.7749,-5.495,8.470,3.920,385,398,367,415,390,2025-05-27T11:08:35.313758
1046,-0.1074,-0.6583,0.7642,3.885,2.835,2.590,392,407,379,414,365,2025-05-27T11:08:35.463840
1047,-0.1069,-0.6647,0.7632,9.345,6.440,1.890,403,422,386,424,377,2025-05-27T11:08:35.463840
1048,-0.1210,-0.6588,0.7886,9.485,2.870,1.330,387,401,388,376,396,2025-05-27T11:08:35.463840
1049,-0.0991,-0.6671,0.8086,6.510,3.290,1.120,348,400,395,404,372,2025-05-27T11:08:35.463840
1050,-0.1083,-0.6554,0.7925,3.955,3.920,0.910,380,421,380,390,387,2025-05-27T11:08:35.463840
1051,-0.1220,-0.6690,0.8018,3.185,3.290,1.155,396,374,377,387,402,2025-05-27T11:08:35.463840
1052,-0.1132,-0.6573,0.8047,0.560,4.375,1.680,420,422,380,404,374,2025-05-27T11:08:35.463840
1053,-0.1181,-0.6603,0.8028,-1.015,3.815,2.135,397,418,378,397,395,2025-05-27T11:08:35.463840
1054,-0.1327,-0.6495,0.8057,-1.610,3.710,2.485,333,435,374,360,398,2025-05-27T11:08:35.463840
1055,-0.1425,-0.6608,0.8125,-2.415,1.785,3.115,400,428,368,355,400,2025-05-27T11:08:35.463840
1056,-0.1493,-0.6510,0.8115,-4.305,-0.980,3.955,400,357,365,333,348,2025-05-27T11:08:35.463840
1057,-0.1562,-0.6451,0.8169,-1.015,-2.170,10.675,363,394,385,389,384,2025-05-27T11:08:35.463840
1058,-0.1425,-0.6651,0.7989,0.455,-1.225,5.425,410,426,389,399,408,2025-05-27T11:08:35.564667
1059,-0.1425,-0.6637,0.7950,2.345,-1.260,5.810,428,411,382,414,416,2025-05-27T11:08:35.564667
1060,-0.1488,-0.6637,0.7959,2.345,-2.310,5.915,406,353,385,392,398,2025-05-27T11:08:35.564667
1061,-0.1444,-0.6622,0.7969,2.450,-3.080,5.880,421,414,387,406,394,2025-05-27T11:08:35.564667
1062,-0.1332,-0.6666,0.7891,2.345,-3.465,5.915,429,399,383,415,402,2025-05-27T11:08:35.564667
1063,-0.1298,-0.6676,0.7862,1.365,-3.080,4.165,423,418,353,423,410,2025-05-27T11:08:35.564667
1064,-0.1366,-0.6651,0.7842,0.840,-3.920,5.040,416,401,373,408,398,2025-05-27T11:08:35.564667
1065,-0.1381,-0.6661,0.7906,-1.575,-5.425,4.900,404,417,338,398,401,2025-05-27T11:08:35.564667
1066,-0.1420,-0.6617,0.7876,-0.700,-5.985,5.670,423,411,365,410,395,2025-05-27T11:08:35.564667
1067,-0.1362,-0.6671,0.7871,0.980,-6.020,4.655,418,420,337,403,385,2025-05-27T11:08:35.614017
1068,-0.1347,-0.6651,0.7852,2.065,-6.615,4.305,412,382,354,401,341,2025-05-27T11:08:35.614017
1069,-0.1362,-0.6612,0.7886,1.260,-7.245,4.165,395,416,326,355,381,2025-05-27T11:08:35.614017
1070,-0.1318,-0.6622,0.7930,-0.735,-8.120,4.165,390,435,358,383,401,2025-05-27T11:08:35.614017
1071,-0.1303,-0.6627,0.7910,-1.610,-9.275,4.480,391,407,369,344,367,2025-05-27T11:08:35.664005
1072,-0.1186,-0.6642,0.7891,-1.260,-7.840,4.270,399,337,335,322,355,2025-05-27T11:08:35.664005
1073,-0.1127,-0.6642,0.7862,-1.015,-6.440,3.605,383,375,366,330,388,2025-05-27T11:08:35.664005
1074,-0.1078,-0.6651,0.7871,-0.560,-4.830,3.395,404,343,374,374,405,2025-05-27T11:08:35.664005
1075,-0.1088,-0.6671,0.7920,-0.140,-3.290,3.220,385,396,343,382,398,2025-05-27T11:08:35.730754
1076,-0.1098,-0.6681,0.7969,-0.665,-2.065,2.485,353,396,372,362,404,2025-05-27T11:08:35.730754
1077,-0.1049,-0.6686,0.7940,-0.945,-0.945,2.170,414,421,377,397,399,2025-05-27T11:08:35.730754
1078,-0.1035,-0.6700,0.7891,0.385,0.630,1.225,391,411,369,399,413,2025-05-27T11:08:35.730754
1079,-0.1196,-0.6720,0.7871,0.700,0.420,-0.280,332,351,347,407,397,2025-05-27T11:08:35.780503
1080,-0.1386,-0.6749,0.7950,0.245,-1.575,-1.295,390,397,366,415,408,2025-05-27T11:08:35.780503
1081,-0.1444,-0.6769,0.7979,0.140,-3.325,-1.645,297,415,364,405,395,2025-05-27T11:08:35.780503
1082,-0.1425,-0.6720,0.7984,-0.070,-4.305,-1.645,370,411,366,398,394,2025-05-27T11:08:35.780503
1083,-0.1391,-0.6705,0.7969,-0.350,-4.305,-1.015,409,392,365,408,404,2025-05-27T11:08:35.780503
1084,-0.1401,-0.6681,0.7959,-0.980,-4.130,8.750,391,423,369,402,354,2025-05-27T11:08:35.780503
1085,-0.1493,-0.6808,0.7969,-0.035,-3.325,1.015,410,349,379,392,369,2025-05-27T11:08:35.830591
1086,-0.1405,-0.6627,0.7901,-0.070,-3.535,1.960,429,393,366,402,393,2025-05-27T11:08:35.830591
1087,-0.1410,-0.6739,0.7989,-0.140,-4.620,0.770,342,397,375,399,387,2025-05-27T11:08:35.830591
1088,-0.1405,-0.6588,0.7906,-0.945,-5.740,0.595,382,414,386,396,400,2025-05-27T11:08:35.830591
1089,-0.1435,-0.6651,0.7901,-0.980,-6.055,2.730,416,410,387,407,410,2025-05-27T11:08:35.980563
1090,-0.1391,-0.6612,0.7842,-1.470,-5.950,1.925,425,413,384,418,400,2025-05-27T11:08:35.980563
1091,-0.1405,-0.6500,0.7876,-1.645,-5.320,5.390,374,384,354,314,381,2025-05-27T11:08:35.980563
1092,-0.1269,-0.6627,0.7857,-4.340,-4.865,5.530,386,415,365,380,366,2025-05-27T11:08:35.980563
1093,-0.1283,-0.6656,0.7847,-5.705,-3.535,8.575,395,424,372,396,350,2025-05-27T11:08:35.980563
1094,-0.1254,-0.6690,0.7813,-4.445,-3.045,8.190,402,430,343,380,354,2025-05-27T11:08:35.980563
1095,-0.1157,-0.6798,0.7832,-4.025,-2.205,7.000,428,404,360,408,372,2025-05-27T11:08:35.980563
1096,-0.1425,-0.6578,0.7837,-3.010,-2.800,6.825,375,407,328,356,358,2025-05-27T11:08:35.980563
1097,-0.1420,-0.6603,0.7857,-4.830,-2.240,9.590,339,410,357,381,386,2025-05-27T11:08:35.980563
1098,-0.1303,-0.6671,0.7881,-5.285,-1.330,12.180,333,407,327,386,406,2025-05-27T11:08:35.980563
1099,-0.1440,-0.6612,0.7920,-3.430,-0.525,12.635,382,407,343,383,407,2025-05-27T11:08:35.980563
1100,-0.1303,-0.6773,0.7925,-4.025,-0.630,5.635,419,422,323,400,396,2025-05-27T11:08:35.980563
1101,-0.1386,-0.6817,0.7906,-0.245,0.735,1.820,425,420,350,348,349,2025-05-27T11:08:36.139725
1102,-0.1366,-0.6769,0.7915,2.170,2.170,1.085,423,406,377,389,388,2025-05-27T11:08:36.179869
1103,-0.1396,-0.6749,0.7915,3.990,4.305,1.260,428,360,373,392,352,2025-05-27T11:08:36.180874
1104,-0.1410,-0.6705,0.7935,6.510,6.580,2.310,425,399,378,405,398,2025-05-27T11:08:36.180874
1105,-0.1415,-0.6637,0.7910,8.225,9.170,3.185,399,415,371,406,350,2025-05-27T11:08:36.180874
1106,-0.1449,-0.6598,0.7886,9.345,10.780,4.200,416,405,372,374,391,2025-05-27T11:08:36.180874
1107,-0.1542,-0.6539,0.7871,10.080,11.725,4.655,403,398,336,363,382,2025-05-27T11:08:36.180874
1108,-0.1532,-0.6486,0.7823,10.535,11.480,4.375,422,425,372,399,378,2025-05-27T11:08:36.180874
1109,-0.1562,-0.6466,0.7788,11.060,10.710,4.970,425,427,367,390,359,2025-05-27T11:08:36.180874
1110,-0.1591,-0.6490,0.7803,11.725,9.695,4.760,417,401,382,412,345,2025-05-27T11:08:36.180874
1111,-0.1645,-0.6520,0.7793,12.565,9.520,4.690,418,377,374,416,382,2025-05-27T11:08:36.180874
1112,-0.1718,-0.6490,0.7745,12.425,8.645,1.365,386,421,378,359,332,2025-05-27T11:08:36.180874
1113,-0.1737,-0.6559,0.7779,13.650,10.220,0.735,358,346,367,382,369,2025-05-27T11:08:36.180874
1114,-0.1698,-0.6559,0.7798,13.510,10.220,0.140,409,383,369,403,335,2025-05-27T11:08:36.180874
1115,-0.2084,-0.6564,0.7818,17.710,12.915,-2.275,394,408,341,407,385,2025-05-27T11:08:36.180874
1116,-0.1762,-0.6403,0.7759,14.070,10.535,-2.730,417,400,371,409,405,2025-05-27T11:08:36.180874
1117,-0.2094,-0.6612,0.7910,10.500,2.590,-5.355,420,399,335,383,406,2025-05-27T11:08:36.180874
1118,-0.2084,-0.6568,0.8057,4.935,-2.800,-3.605,417,421,359,402,349,2025-05-27T11:08:36.230542
1119,-0.1854,-0.6642,0.8008,3.780,-4.620,-3.955,431,412,348,364,378,2025-05-27T11:08:36.230542
1120,-0.2006,-0.6481,0.8076,3.290,-4.375,-5.145,397,422,374,384,387,2025-05-27T11:08:36.230542
1121,-0.1635,-0.6588,0.8150,3.675,-2.555,-3.570,407,409,377,404,358,2025-05-27T11:08:36.230542
1122,-0.1391,-0.6525,0.8267,3.535,0.280,-2.065,416,438,353,387,387,2025-05-27T11:08:36.380519
1123,-0.1357,-0.6568,0.8213,5.425,3.465,-1.330,409,394,377,402,348,2025-05-27T11:08:36.380519
1124,-0.1479,-0.6568,0.8198,7.280,4.725,-1.575,397,411,380,411,389,2025-05-27T11:08:36.380519
1125,-0.1620,-0.6515,0.8311,8.155,3.605,-1.820,418,429,379,423,380,2025-05-27T11:08:36.380519
1126,-0.1708,-0.6481,0.8316,8.960,0.560,-2.485,427,422,388,414,373,2025-05-27T11:08:36.380519
1127,-0.1620,-0.6446,0.8340,9.590,-2.520,-2.975,409,397,373,396,396,2025-05-27T11:08:36.380519
1128,-0.1405,-0.6398,0.8306,10.290,-3.395,-3.255,391,338,384,403,401,2025-05-27T11:08:36.380519
1129,-0.1196,-0.6373,0.8276,11.025,-1.890,-3.395,403,397,385,346,346,2025-05-27T11:08:36.380519
1130,-0.1113,-0.6388,0.8394,11.760,1.470,-3.430,417,415,381,368,335,2025-05-27T11:08:36.380519
1131,-0.1132,-0.6407,0.8467,12.145,4.480,-3.710,415,425,340,381,364,2025-05-27T11:08:36.380519
1132,-0.1279,-0.6486,0.8569,12.495,5.635,-4.375,413,429,321,405,394,2025-05-27T11:08:36.380519
1133,-0.1362,-0.6515,0.8672,12.950,5.145,-5.250,425,418,359,415,402,2025-05-27T11:08:36.380519
1134,-0.1357,-0.6505,0.8735,13.895,4.235,-5.985,425,423,367,417,350,2025-05-27T11:08:36.380519
1135,-0.1303,-0.6486,0.8838,14.980,3.220,-6.755,428,374,379,407,389,2025-05-27T11:08:36.430516
1136,-0.1240,-0.6398,0.8896,16.170,2.660,-7.245,420,386,379,395,381,2025-05-27T11:08:36.430516
1137,-0.1171,-0.6344,0.8950,17.395,2.380,-7.245,417,407,376,414,348,2025-05-27T11:08:36.430516
1138,-0.1220,-0.6324,0.8984,18.760,1.785,-6.720,413,418,374,395,371,2025-05-27T11:08:36.430516
1139,-0.1142,-0.6344,0.8945,20.370,0.595,-5.460,419,392,382,411,401,2025-05-27T11:08:36.590857
1140,-0.1171,-0.6320,0.8872,22.750,-0.735,-2.940,425,400,338,353,402,2025-05-27T11:08:36.590857
1141,-0.1196,-0.6173,0.8808,24.780,-0.070,-1.330,423,406,352,336,405,2025-05-27T11:08:36.590857
1142,-0.1161,-0.6227,0.8877,26.040,1.890,-0.035,421,402,367,394,418,2025-05-27T11:08:36.590857
1143,-0.1235,-0.6188,0.8945,26.145,4.025,1.855,409,400,385,385,393,2025-05-27T11:08:36.590857
1144,-0.1342,-0.6339,0.8950,25.760,6.125,3.745,400,377,345,379,349,2025-05-27T11:08:36.590857
1145,-0.1459,-0.6446,0.8838,25.935,8.085,6.020,389,417,365,377,387,2025-05-27T11:08:36.590857
1146,-0.1601,-0.6446,0.8862,27.125,9.695,8.365,412,350,337,396,404,2025-05-27T11:08:36.590857
1147,-0.1747,-0.6554,0.8950,28.490,10.850,9.940,414,360,362,418,393,2025-05-27T11:08:36.590857
1148,-0.1864,-0.6598,0.8969,30.660,9.940,12.040,402,411,365,393,377,2025-05-27T11:08:36.590857
1149,-0.1986,-0.6637,0.9018,33.390,7.770,14.525,409,389,372,418,381,2025-05-27T11:08:36.590857
1150,-0.1884,-0.6705,0.9038,36.225,7.455,17.255,401,418,380,416,360,2025-05-27T11:08:36.590857
1151,-0.1693,-0.6827,0.9165,39.620,9.695,20.475,418,420,337,393,373,2025-05-27T11:08:36.590857
1152,-0.1586,-0.6876,0.9252,43.190,15.855,24.430,388,405,355,399,396,2025-05-27T11:08:36.630636
1153,-0.1698,-0.6920,0.9311,46.725,24.885,27.510,428,428,346,406,353,2025-05-27T11:08:36.630636
1154,-0.2001,-0.7081,0.9443,49.875,33.320,29.645,403,399,358,419,369,2025-05-27T11:08:36.630636
1155,-0.2172,-0.7017,0.9428,52.675,41.230,33.215,418,422,377,355,387,2025-05-27T11:08:36.630636
1156,-0.2303,-0.6939,0.9301,55.860,50.295,38.605,413,395,383,379,388,2025-05-27T11:08:36.686544
1157,-0.2664,-0.6725,0.9296,58.555,59.080,42.910,399,402,389,395,410,2025-05-27T11:08:36.686544
1158,-0.3079,-0.6525,0.9233,59.885,65.660,46.865,397,338,384,370,392,2025-05-27T11:08:36.686544
1159,-0.3440,-0.6368,0.9160,61.635,68.005,51.730,405,403,395,332,361,2025-05-27T11:08:36.686544
1160,-0.3699,-0.6090,0.9052,63.315,69.195,55.720,413,416,394,386,401,2025-05-27T11:08:36.730568
1161,-0.4026,-0.5866,0.8935,65.275,68.600,60.375,418,427,384,409,397,2025-05-27T11:08:36.730568
1162,-0.4392,-0.5612,0.8823,66.955,67.970,63.630,341,395,370,366,386,2025-05-27T11:08:36.730568
1163,-0.4509,-0.5392,0.8794,67.865,67.410,67.130,333,410,380,351,390,2025-05-27T11:08:36.730568
1164,-0.4573,-0.5178,0.8721,68.635,68.355,71.225,368,428,372,348,404,2025-05-27T11:08:36.905982
1165,-0.4416,-0.4812,0.8486,69.125,71.190,75.635,361,400,385,390,412,2025-05-27T11:08:36.905982
1166,-0.4763,-0.4573,0.8340,69.160,74.690,79.485,389,413,387,381,388,2025-05-27T11:08:36.905982
1167,-0.5061,-0.4231,0.8237,68.565,77.560,82.250,419,401,340,412,406,2025-05-27T11:08:36.905982
1168,-0.5197,-0.3875,0.8267,67.270,77.420,85.120,434,397,359,410,355,2025-05-27T11:08:36.905982
1169,-0.5339,-0.3450,0.8072,66.710,76.755,88.130,397,416,364,391,367,2025-05-27T11:08:36.905982
1170,-0.5461,-0.3079,0.7910,65.695,76.335,91.140,400,428,375,401,396,2025-05-27T11:08:36.905982
1171,-0.5841,-0.2816,0.7798,64.855,74.655,92.260,397,348,384,410,397,2025-05-27T11:08:36.905982
1172,-0.5719,-0.2582,0.7798,64.715,71.330,94.640,412,415,385,407,402,2025-05-27T11:08:36.905982
1173,-0.5724,-0.2211,0.7701,63.665,68.845,97.125,425,394,393,394,396,2025-05-27T11:08:36.905982
1174,-0.5783,-0.2118,0.7608,63.490,68.460,99.750,430,354,351,407,408,2025-05-27T11:08:36.905982
1175,-0.5558,-0.1864,0.7383,63.945,68.810,101.675,367,379,355,397,402,2025-05-27T11:08:36.905982
1176,-0.5568,-0.1615,0.7359,65.205,72.625,103.985,340,340,369,404,362,2025-05-27T11:08:36.905982
1177,-0.5490,-0.1186,0.7496,62.230,77.945,104.580,328,378,350,391,333,2025-05-27T11:08:36.905982
1178,-0.5768,-0.0815,0.7476,56.420,82.810,103.145,407,402,373,383,384,2025-05-27T11:08:36.947297
1179,-0.6095,-0.0752,0.7149,50.505,84.805,100.765,419,410,387,397,395,2025-05-27T11:08:36.947297
1180,-0.6320,-0.0878,0.7066,47.775,82.985,98.175,400,421,382,355,382,2025-05-27T11:08:36.947297
1181,-0.6344,-0.0366,0.7003,44.940,79.275,95.130,414,408,386,353,396,2025-05-27T11:08:36.947297
1182,-0.6578,-0.0283,0.6749,41.475,75.670,92.645,430,436,382,397,388,2025-05-27T11:08:36.947297
1183,-0.6642,-0.0264,0.6603,38.010,69.055,89.670,416,426,386,412,404,2025-05-27T11:08:37.207921
1184,-0.6759,-0.0210,0.6544,37.170,60.900,86.800,389,414,349,351,388,2025-05-27T11:08:37.207921
1185,-0.6642,0.0142,0.6173,34.475,54.250,84.245,353,409,356,390,397,2025-05-27T11:08:37.207921
1186,-0.6520,0.0395,0.6222,31.640,48.825,80.010,402,433,359,402,394,2025-05-27T11:08:37.207921
1187,-0.6193,0.0717,0.5910,27.090,43.750,76.230,428,428,366,393,387,2025-05-27T11:08:37.207921
1188,-0.6305,0.0981,0.6080,23.800,40.040,71.540,410,410,339,385,379,2025-05-27T11:08:37.207921
1189,-0.6110,0.1137,0.5793,19.880,37.485,67.270,341,338,366,406,345,2025-05-27T11:08:37.207921
1190,-0.6290,0.1269,0.6051,15.785,35.350,62.965,395,403,375,404,391,2025-05-27T11:08:37.207921
1191,-0.6412,0.1396,0.5754,14.420,33.600,59.115,398,384,390,420,397,2025-05-27T11:08:37.207921
1192,-0.6549,0.1415,0.5758,11.935,29.085,56.420,401,415,376,395,387,2025-05-27T11:08:37.207921
1193,-0.6656,0.1591,0.5788,9.590,24.850,53.445,415,424,350,394,388,2025-05-27T11:08:37.207921
1194,-0.6769,0.1098,0.6071,14.700,26.635,48.335,377,338,374,417,347,2025-05-27T11:08:37.207921
1195,-0.6988,0.2025,0.5646,7.035,26.005,46.725,404,354,333,410,340,2025-05-27T11:08:37.207921
1196,-0.6998,0.2289,0.5675,6.860,27.650,45.360,394,410,370,428,329,2025-05-27T11:08:37.207921
1197,-0.7359,0.2328,0.5797,3.640,31.430,43.505,406,410,379,410,371,2025-05-27T11:08:37.207921
1198,-0.7369,0.2216,0.5475,1.680,38.395,41.440,404,434,376,415,368,2025-05-27T11:08:37.207921
1199,-0.7549,0.5065,1.2078,26.530,46.130,31.570,301,397,383,389,394,2025-05-27T11:08:37.207921
1200,-0.9911,0.2333,0.9775,54.530,40.600,23.170,393,416,381,388,351,2025-05-27T11:08:37.207921
1201,-0.6988,0.4099,0.9506,35.175,19.250,26.600,388,346,349,407,389,2025-05-27T11:08:37.207921
1202,-0.9043,0.1654,0.6920,27.755,18.655,24.255,386,368,296,413,392,2025-05-27T11:08:37.207921
1203,-0.8618,0.3562,0.6471,26.005,-5.005,19.460,414,387,331,404,391,2025-05-27T11:08:37.413577
1204,-0.7710,0.4646,0.4568,37.870,1.750,15.155,337,420,331,401,394,2025-05-27T11:08:37.413577
1205,-0.8921,0.3758,0.3938,28.245,1.155,16.345,349,425,359,407,402,2025-05-27T11:08:37.413577
1206,-0.9414,0.3850,0.3831,11.515,3.185,17.640,396,382,363,416,401,2025-05-27T11:08:37.413577
1207,-0.9292,0.3187,0.4538,10.465,-13.755,18.480,391,404,378,401,414,2025-05-27T11:08:37.413577
1208,-0.8530,0.3294,0.5329,18.935,-20.580,21.455,393,344,304,347,392,2025-05-27T11:08:37.413577
1209,-0.8125,0.3387,0.6095,18.270,-18.165,23.905,423,405,341,392,402,2025-05-27T11:08:37.413577
1210,-0.8140,0.3748,0.6764,12.845,-19.985,24.675,352,411,369,395,407,2025-05-27T11:08:37.413577
1211,-0.7925,0.3953,0.6739,14.735,-22.575,25.480,403,408,363,401,409,2025-05-27T11:08:37.413577
1212,-0.7598,0.4353,0.6715,17.920,-19.390,26.985,396,395,375,418,404,2025-05-27T11:08:37.413577
1213,-0.7554,0.4485,0.6720,16.835,-15.505,26.635,343,411,371,405,396,2025-05-27T11:08:37.413577
1214,-0.7408,0.4329,0.6720,15.645,-16.065,24.710,289,418,381,410,410,2025-05-27T11:08:37.413577
1215,-0.7100,0.4163,0.6529,16.835,-13.615,22.890,391,421,377,387,402,2025-05-27T11:08:37.413577
1216,-0.6754,0.4402,0.6329,17.080,-6.440,21.350,379,391,376,413,397,2025-05-27T11:08:37.413577
1217,-0.6739,0.4109,0.6207,18.445,-3.255,22.120,412,419,378,416,416,2025-05-27T11:08:37.413577
1218,-0.7213,0.4182,0.5905,20.755,-2.590,23.450,302,419,367,412,418,2025-05-27T11:08:37.413577
1219,-0.7754,0.4099,0.6046,23.975,-6.125,23.625,383,423,376,408,417,2025-05-27T11:08:37.413577
1220,-0.7876,0.4011,0.5910,26.075,-9.835,22.085,409,422,386,411,405,2025-05-27T11:08:37.413577
1221,-0.7530,0.3601,0.5929,26.845,-17.360,21.280,396,439,382,370,389,2025-05-27T11:08:37.513638
1222,-0.8169,0.3933,0.5656,31.465,-23.940,19.775,393,439,377,401,405,2025-05-27T11:08:37.513638
1223,-0.7213,0.4236,0.5056,36.085,-32.410,18.165,394,364,347,412,359,2025-05-27T11:08:37.513638
1224,-0.7344,0.4046,0.5436,33.600,-40.530,16.310,385,384,371,413,387,2025-05-27T11:08:37.513638
1225,-0.6354,0.4119,0.4363,37.100,-40.110,13.090,398,401,339,391,396,2025-05-27T11:08:37.513638
1226,-0.6149,0.4397,0.5373,35.735,-45.360,11.305,405,421,352,412,416,2025-05-27T11:08:37.513638
1227,-0.5319,0.4529,0.5461,38.115,-43.960,8.960,360,416,330,423,413,2025-05-27T11:08:37.513638
1228,-0.5114,0.5007,0.5495,38.815,-41.790,7.945,407,426,322,424,405,2025-05-27T11:08:37.513638
1229,-0.5178,0.5109,0.5407,36.225,-28.700,6.720,387,431,348,398,360,2025-05-27T11:08:37.564558
1230,-0.5431,0.5339,0.5300,35.420,-23.940,5.320,349,402,333,405,395,2025-05-27T11:08:37.564558
1231,-0.6320,0.5363,0.4919,31.990,-18.340,4.410,391,395,359,412,353,2025-05-27T11:08:37.564558
1232,-0.5939,0.5475,0.5295,32.970,-26.565,1.050,390,381,376,406,397,2025-05-27T11:08:37.564558
1233,-0.6378,0.5353,0.5475,34.755,-25.340,-2.240,387,395,385,409,391,2025-05-27T11:08:37.713895
1234,-0.6183,0.5324,0.5544,34.370,-23.030,-4.550,387,411,385,416,403,2025-05-27T11:08:37.713895
1235,-0.6159,0.5300,0.5510,33.565,-23.415,-7.140,381,396,390,401,397,2025-05-27T11:08:37.713895
1236,-0.5690,0.4934,0.5505,32.900,-19.390,-11.655,385,407,395,393,387,2025-05-27T11:08:37.713895
1237,-0.5607,0.4909,0.5422,26.110,-15.715,-12.145,403,419,386,346,387,2025-05-27T11:08:37.713895
1238,-0.5885,0.4758,0.5427,25.830,-14.770,-10.080,420,429,385,370,385,2025-05-27T11:08:37.713895
1239,-0.6276,0.5104,0.5871,26.845,-15.330,-4.620,418,400,378,343,379,2025-05-27T11:08:37.713895
1240,-0.5451,0.4900,0.5900,24.255,-8.715,-3.115,419,404,344,333,351,2025-05-27T11:08:37.713895
1241,-0.5910,0.5246,0.6442,24.255,-2.310,1.295,412,430,374,375,377,2025-05-27T11:08:37.713895
1242,-0.5622,0.5314,0.6324,19.950,1.365,0.665,417,419,382,398,303,2025-05-27T11:08:37.713895
1243,-0.6500,0.5597,0.6593,19.565,3.325,3.220,423,424,389,405,374,2025-05-27T11:08:37.713895
1244,-0.6071,0.5607,0.6515,18.445,5.215,2.450,426,435,392,361,373,2025-05-27T11:08:37.713895
1245,-0.6139,0.5475,0.6398,16.695,7.525,1.190,423,405,377,395,384,2025-05-27T11:08:37.713895
1246,-0.6471,0.5461,0.6393,16.205,6.370,0.315,386,422,350,368,389,2025-05-27T11:08:37.796685
1247,-0.6705,0.5290,0.6232,15.330,4.060,-0.875,334,422,373,401,404,2025-05-27T11:08:37.796753
1248,-0.6578,0.5207,0.6227,15.505,1.435,-1.260,390,415,362,415,394,2025-05-27T11:08:37.796802
1249,-0.6349,0.5085,0.6266,15.050,1.680,-1.225,341,405,372,416,352,2025-05-27T11:08:37.796802
1250,-0.6403,0.4982,0.6154,14.770,1.225,-1.155,407,413,371,389,384,2025-05-27T11:08:38.013423
1251,-0.6598,0.5085,0.6110,14.140,-0.140,-0.595,420,432,372,366,386,2025-05-27T11:08:38.188324
1252,-0.6427,0.5036,0.5836,15.400,-0.385,1.120,349,422,373,376,402,2025-05-27T11:08:38.188324
1253,-0.6198,0.5241,0.5563,16.205,-2.100,2.415,404,413,376,391,351,2025-05-27T11:08:38.188324
1254,-0.6290,0.4948,0.5539,15.820,-5.075,5.145,415,418,343,389,391,2025-05-27T11:08:38.188324
1255,-0.6544,0.5051,0.5431,15.925,-6.755,5.985,411,407,356,410,347,2025-05-27T11:08:38.188324
1256,-0.6505,0.5173,0.5207,15.225,-10.325,6.895,427,397,374,405,368,2025-05-27T11:08:38.188324
1257,-0.5978,0.5144,0.5202,15.715,-10.955,8.190,421,388,339,404,403,2025-05-27T11:08:38.188324
1258,-0.5861,0.5309,0.5251,14.350,-8.155,9.065,345,424,325,383,392,2025-05-27T11:08:38.188324
1259,-0.5641,0.5402,0.5290,12.880,-1.260,9.625,355,426,319,408,388,2025-05-27T11:08:38.188324
1260,-0.5719,0.5173,0.5202,10.675,1.960,9.590,412,429,351,388,402,2025-05-27T11:08:38.188324
1261,-0.5749,0.5158,0.5153,9.380,4.515,8.820,424,418,330,346,410,2025-05-27T11:08:38.188324
1262,-0.6046,0.5319,0.5134,5.075,4.095,6.265,411,417,350,373,408,2025-05-27T11:08:38.188324
1263,-0.6368,0.5661,0.5178,7.630,6.580,12.845,346,409,325,403,397,2025-05-27T11:08:38.188324
1264,-0.6266,0.5553,0.5324,4.725,1.610,13.195,375,417,360,396,391,2025-05-27T11:08:38.188324
1265,-0.5924,0.5168,0.5710,6.930,2.660,15.120,391,427,378,413,351,2025-05-27T11:08:38.188324
1266,-0.5788,0.5641,0.5431,3.780,5.635,16.205,415,426,385,423,391,2025-05-27T11:08:38.188324
1267,-0.5949,0.5573,0.5431,2.940,7.455,16.800,392,426,354,423,409,2025-05-27T11:08:38.188324
1268,-0.5558,0.5407,0.5558,4.270,11.095,18.095,415,346,375,429,395,2025-05-27T11:08:38.188324
1269,-0.5646,0.5246,0.5910,4.935,17.605,19.005,415,388,384,406,398,2025-05-27T11:08:38.188324
1270,-0.5588,0.5134,0.5978,5.670,25.480,23.100,425,400,373,407,345,2025-05-27T11:08:38.188324
1271,-0.6017,0.5910,0.5905,3.675,30.275,22.365,417,397,366,400,393,2025-05-27T11:08:38.232009
1272,-0.6159,0.5178,0.5353,4.095,40.355,29.680,403,402,374,393,345,2025-05-27T11:08:38.232009
1273,-0.6324,0.5632,0.5832,-1.120,41.125,31.220,416,359,377,390,389,2025-05-27T11:08:38.232009
