SeqNum,AccX,AccY,AccZ,GyroX,GyroY,GyroZ,Flex,Force1,Force2,Force3,Force4,TimestampReception
18274,-1.2644,1.3454,0.2728,364.175,-39.795,-163.310,436,426,297,412,384,2025-05-27T11:32:22.686386
18275,-1.2307,0.8042,0.8008,6.055,-56.420,87.010,472,414,253,394,348,2025-05-27T11:32:22.686386
18276,-1.1771,0.7896,0.7813,13.300,-58.345,103.110,429,424,283,404,333,2025-05-27T11:32:22.686386
18277,-1.1307,0.7608,0.7496,19.250,-57.225,118.335,422,408,324,417,362,2025-05-27T11:32:22.686386
18278,-1.0960,0.7344,0.7110,27.265,-54.040,131.740,397,394,351,414,343,2025-05-27T11:32:22.686386
18279,-1.0756,0.6949,0.6539,35.105,-52.115,142.590,401,419,364,373,365,2025-05-27T11:32:22.686386
18280,-1.0741,0.6554,0.6129,43.470,-51.835,148.680,397,415,373,382,386,2025-05-27T11:32:22.686386
18281,-1.0336,0.6237,0.5807,51.625,-53.655,154.805,419,399,380,387,377,2025-05-27T11:32:22.686386
18282,-0.9955,0.5988,0.5456,60.165,-57.890,159.705,426,393,340,343,402,2025-05-27T11:32:22.686386
18283,-0.9438,0.5797,0.4909,68.110,-62.650,164.150,438,366,319,377,415,2025-05-27T11:32:22.686386
18284,-0.8950,0.5841,0.4494,74.095,-67.165,166.565,400,387,345,408,409,2025-05-27T11:32:22.686386
18285,-0.8311,0.5876,0.4285,80.465,-68.740,167.055,420,390,358,350,366,2025-05-27T11:32:22.686386
18286,-0.6256,0.5856,0.3889,84.700,-67.060,166.950,404,411,351,383,378,2025-05-27T11:32:22.686386
18287,-0.6769,0.5744,0.3538,87.115,-59.080,166.600,396,346,377,413,402,2025-05-27T11:32:22.686386
18288,-0.6066,0.5827,0.2982,88.760,-48.965,165.340,403,407,370,417,396,2025-05-27T11:32:22.869931
18289,-0.5510,0.5744,0.2430,89.250,-38.255,164.115,419,420,342,313,382,2025-05-27T11:32:22.869931
18290,-0.5309,0.5778,0.2362,88.515,-28.105,161.420,410,417,356,335,401,2025-05-27T11:32:22.869931
18291,-0.4919,0.5890,0.2015,87.640,-20.300,158.060,427,406,380,369,397,2025-05-27T11:32:22.869931
18292,-0.4631,0.5514,0.1596,86.240,-14.560,154.525,430,410,381,397,345,2025-05-27T11:32:22.869931
18293,-0.4216,0.5314,0.1357,84.910,-9.975,150.640,429,430,388,395,362,2025-05-27T11:32:22.869931
18294,-0.3680,0.5290,0.0908,82.985,-4.620,146.300,430,429,393,344,343,2025-05-27T11:32:22.869931
18295,-0.3196,0.5300,0.0595,79.730,1.680,140.630,435,418,385,398,391,2025-05-27T11:32:22.869931
18296,-0.2811,0.5163,0.0361,74.410,10.815,134.890,403,391,383,401,398,2025-05-27T11:32:22.869931
18297,-0.2547,0.5017,0.0342,67.585,19.565,127.400,413,334,336,399,399,2025-05-27T11:32:22.869931
18298,-0.2338,0.4846,0.0322,60.375,25.410,119.350,409,395,360,407,388,2025-05-27T11:32:22.869931
18299,-0.2137,0.4704,0.0151,45.850,27.895,110.915,345,414,370,372,402,2025-05-27T11:32:22.869931
18300,-0.1864,0.4514,0.0122,47.950,28.910,101.220,410,419,374,405,406,2025-05-27T11:32:22.869931
18301,-0.1586,0.4426,0.0224,40.915,29.155,90.230,420,304,339,343,410,2025-05-27T11:32:22.869931
18302,-0.1230,0.4348,0.0195,33.845,30.520,80.605,417,370,372,390,399,2025-05-27T11:32:22.869931
18303,-0.0820,0.4324,0.0107,27.195,32.725,68.285,400,368,369,394,417,2025-05-27T11:32:23.152948
18304,-0.0459,0.4241,0.0059,20.545,37.485,55.125,400,416,384,350,372,2025-05-27T11:32:23.152948
18305,-0.0210,0.4338,0.0117,14.560,43.190,41.055,429,428,310,392,406,2025-05-27T11:32:23.152948
18306,-0.0044,0.4441,0.0151,0.700,50.085,26.040,356,304,353,406,403,2025-05-27T11:32:23.152948
18307,-0.0117,0.4665,0.0429,2.835,55.685,10.570,381,369,368,420,408,2025-05-27T11:32:23.152948
18308,-0.0400,0.5134,0.0844,-2.870,58.905,-3.535,412,412,336,363,407,2025-05-27T11:32:23.152948
18309,-0.0654,0.5441,0.1181,-6.965,56.945,-13.300,340,343,358,339,396,2025-05-27T11:32:23.152948
18310,-0.1035,0.5895,0.1508,-10.045,52.045,-23.975,415,384,372,398,396,2025-05-27T11:32:23.152948
18311,-0.1391,0.6461,0.2064,-11.725,44.835,-33.145,435,334,370,349,383,2025-05-27T11:32:23.152948
18312,-0.1757,0.7037,0.2601,-12.460,35.000,-40.180,420,329,380,335,394,2025-05-27T11:32:23.152948
18313,-0.2064,0.7969,0.3026,-11.480,26.880,-45.220,365,406,351,367,408,2025-05-27T11:32:23.152948
18314,-0.2333,0.8969,0.3440,-9.590,17.780,-48.650,390,425,356,297,402,2025-05-27T11:32:23.152948
18315,-0.2508,1.1102,0.3650,-7.350,10.115,-50.155,424,403,375,378,399,2025-05-27T11:32:23.152948
18316,-0.2494,1.0687,0.3845,-6.615,6.195,-50.820,422,300,371,402,403,2025-05-27T11:32:23.152948
18317,-0.2508,1.1385,0.3992,-7.000,5.880,-49.770,343,382,387,416,392,2025-05-27T11:32:23.152948
18318,-0.2625,1.1912,0.3963,-7.175,7.455,-46.655,389,387,383,389,405,2025-05-27T11:32:23.152948
18319,-0.2723,1.2112,0.3611,-7.700,9.905,-42.525,336,397,373,388,348,2025-05-27T11:32:23.152948
18320,-0.2879,1.2049,0.3265,-9.555,14.700,-39.025,400,396,335,383,387,2025-05-27T11:32:23.152948
18321,-0.3001,1.1819,0.3030,-12.600,19.915,-34.755,392,391,347,388,354,2025-05-27T11:32:23.152948
18322,-0.3177,1.1380,0.2991,-17.780,24.710,-30.905,394,395,327,380,335,2025-05-27T11:32:23.152948
18323,-0.3460,1.0599,0.2874,-23.275,28.070,-28.035,411,427,358,397,374,2025-05-27T11:32:23.302981
18324,-0.3806,0.9550,0.2762,-31.325,27.335,-25.235,346,425,369,403,386,2025-05-27T11:32:23.302981
18325,-0.3977,0.8398,0.2479,-35.175,21.455,-22.470,390,410,375,401,411,2025-05-27T11:32:23.302981
18326,-0.4041,0.7579,0.2259,-38.535,13.755,-21.525,407,395,377,394,353,2025-05-27T11:32:23.302981
18327,-0.3831,0.6856,0.2191,-41.265,7.910,-22.855,393,392,341,399,375,2025-05-27T11:32:23.302981
18328,-0.3660,0.6256,0.1835,-43.750,0.945,-25.340,390,420,327,405,377,2025-05-27T11:32:23.302981
18329,-0.3284,0.5866,0.1708,-46.025,-3.045,-30.520,395,393,353,389,377,2025-05-27T11:32:23.302981
18330,-0.2821,0.5431,0.1430,-48.720,-3.290,-37.730,338,398,377,392,361,2025-05-27T11:32:23.302981
18331,-0.2469,0.5100,0.1161,-51.205,0.070,-47.005,410,397,381,391,395,2025-05-27T11:32:23.302981
18332,-0.2269,0.4880,0.0966,-55.160,7.490,-57.995,410,300,388,350,408,2025-05-27T11:32:23.302981
18333,-0.2113,0.4890,0.0952,-59.465,15.680,-70.910,424,333,384,359,416,2025-05-27T11:32:23.302981
18334,-0.2186,0.4743,0.0781,-63.420,27.545,-82.320,425,381,340,378,404,2025-05-27T11:32:23.302981
18335,-0.2313,0.4597,0.0576,-66.850,39.550,-98.035,419,333,362,381,407,2025-05-27T11:32:23.302981
18336,-0.2572,0.4309,0.0551,-69.090,50.540,-114.975,404,394,373,396,316,2025-05-27T11:32:23.302981
18337,-0.3128,0.3982,0.0927,-69.370,60.060,-132.580,384,421,366,367,371,2025-05-27T11:32:23.318607
18338,-0.3841,0.3680,0.1264,-67.165,64.820,-149.415,392,370,367,401,380,2025-05-27T11:32:23.318607
18339,-0.4592,0.3328,0.1244,-60.865,63.770,-164.535,409,403,379,348,392,2025-05-27T11:32:23.486275
18340,-0.5144,0.3167,0.1230,-51.520,60.585,-178.850,373,387,380,339,405,2025-05-27T11:32:23.486275
18341,-0.5739,0.3001,0.1337,-41.510,57.750,-192.675,410,403,376,357,418,2025-05-27T11:32:23.486275
18342,-0.6603,0.2718,0.1762,-31.290,55.930,-205.520,427,343,379,389,360,2025-05-27T11:32:23.486275
18343,-0.7344,0.2655,0.2157,-20.825,52.955,-216.790,397,406,395,388,383,2025-05-27T11:32:23.486275
18344,-0.8032,0.2508,0.2357,-10.640,49.420,-223.965,342,377,394,414,401,2025-05-27T11:32:23.486275
18345,-0.8555,0.2508,0.2635,-1.260,45.675,-231.245,381,419,400,396,349,2025-05-27T11:32:23.486275
18346,-0.9438,0.2596,0.2830,8.575,40.670,-236.915,409,424,396,406,371,2025-05-27T11:32:23.486275
18347,-1.0199,0.2450,0.3060,25.305,33.915,-241.185,337,392,395,395,389,2025-05-27T11:32:23.486275
18348,-1.1239,0.2425,0.3548,26.075,25.130,-244.580,377,394,362,398,392,2025-05-27T11:32:23.486275
18349,-1.2063,0.2420,0.3884,36.050,15.925,-246.925,385,389,359,399,404,2025-05-27T11:32:23.486275
18350,-1.2683,0.2303,0.4402,44.520,3.500,-247.415,361,332,344,413,352,2025-05-27T11:32:23.486275
18351,-1.3113,0.2308,0.4768,52.395,-7.035,-245.770,331,385,348,412,333,2025-05-27T11:32:23.486275
18352,-1.3605,0.2025,0.4978,58.870,-14.630,-242.165,399,393,355,407,377,2025-05-27T11:32:23.486275
18353,-1.4157,0.1908,0.5417,64.155,-20.020,-235.375,413,414,378,412,345,2025-05-27T11:32:23.486275
18354,-1.4645,0.1962,0.5817,67.445,-21.490,-226.555,419,391,380,374,371,2025-05-27T11:32:23.702139
18355,-1.4908,0.2386,0.6105,69.300,-16.940,-216.440,394,402,309,395,398,2025-05-27T11:32:23.702139
18356,-1.5148,0.2650,0.6134,69.230,-10.395,-205.870,413,389,351,390,360,2025-05-27T11:32:23.702539
18357,-1.5309,0.2694,0.6012,68.460,-0.700,-193.620,413,421,370,418,360,2025-05-27T11:32:23.702539
18358,-1.5152,0.2821,0.5714,67.865,8.995,-181.475,356,305,371,397,370,2025-05-27T11:32:23.702539
18359,-1.5240,0.2967,0.5461,67.445,18.095,-163.940,403,392,348,397,378,2025-05-27T11:32:23.702539
18360,-1.5177,0.3231,0.5207,67.340,23.485,-145.775,399,405,360,394,344,2025-05-27T11:32:23.702539
18361,-1.4982,0.3504,0.4690,66.850,25.305,-127.330,296,373,376,415,365,2025-05-27T11:32:23.702539
18362,-1.4650,0.3733,0.4177,66.220,26.040,-109.550,401,393,341,348,375,2025-05-27T11:32:23.702539
18363,-1.4352,0.3880,0.3772,64.645,25.970,-92.015,421,386,372,346,343,2025-05-27T11:32:23.702539
18364,-1.4269,0.4143,0.3582,63.735,24.360,-73.430,417,410,332,401,386,2025-05-27T11:32:23.702539
18365,-1.4411,0.4616,0.3021,63.490,20.230,-58.030,432,418,374,407,399,2025-05-27T11:32:23.702539
18366,-1.4528,0.5436,0.2503,62.720,17.080,-37.975,397,397,374,421,394,2025-05-27T11:32:23.702539
18367,-1.4464,0.6105,0.2186,60.340,14.945,-16.345,372,416,390,401,348,2025-05-27T11:32:23.702539
18368,-1.4289,0.6822,0.2011,56.595,14.665,8.540,392,403,391,340,370,2025-05-27T11:32:23.702539
18369,-1.4118,0.7452,0.1908,49.910,17.710,38.920,421,412,344,337,376,2025-05-27T11:32:23.702539
18370,-1.4411,0.7823,0.2264,40.670,23.135,71.540,407,419,364,358,345,2025-05-27T11:32:23.702539
18371,-1.5382,0.7745,0.2338,32.270,26.075,109.165,425,408,299,388,345,2025-05-27T11:32:23.786091
18372,-1.6690,0.7657,0.2011,25.165,19.285,136.955,392,415,349,384,389,2025-05-27T11:32:23.786091
18373,-1.7485,0.7330,0.1542,19.950,5.180,173.110,407,420,358,349,401,2025-05-27T11:32:23.786091
18374,-1.7646,0.6710,0.1430,16.170,-11.340,207.375,402,436,375,392,398,2025-05-27T11:32:23.786091
18375,-1.7090,0.6100,0.1279,13.720,-25.690,238.630,413,428,338,349,404,2025-05-27T11:32:23.786091
18376,-1.6314,0.5632,0.1044,11.655,-35.490,265.615,376,349,351,373,403,2025-05-27T11:32:23.786091
18377,-1.5479,0.5041,0.0752,9.975,-40.425,287.770,388,363,371,398,413,2025-05-27T11:32:23.786091
18378,-1.4845,0.4441,0.0551,8.995,-44.415,300.650,389,413,379,400,358,2025-05-27T11:32:23.786091
18379,-1.3815,0.4031,0.0361,8.995,-45.080,311.325,381,427,386,408,342,2025-05-27T11:32:24.041293
18380,-1.2903,0.3484,0.0161,9.800,-43.610,317.625,359,417,372,348,366,2025-05-27T11:32:24.041293
18381,-1.1961,0.3011,0.0161,10.325,-40.285,318.710,359,415,336,376,395,2025-05-27T11:32:24.041293
18382,-1.0907,0.2635,0.0098,9.905,-35.175,314.825,386,427,365,404,404,2025-05-27T11:32:24.041293
18383,-0.9999,0.2259,-0.0063,8.925,-29.680,307.300,401,427,372,353,405,2025-05-27T11:32:24.041293
18384,-0.9062,0.2011,-0.0171,7.525,-26.425,295.645,416,367,379,377,416,2025-05-27T11:32:24.041293
18385,-0.8242,0.1879,-0.0254,5.775,-22.890,283.920,346,392,310,352,318,2025-05-27T11:32:24.041293
18386,-0.7159,0.1801,-0.0190,3.920,-19.390,266.840,329,380,338,397,368,2025-05-27T11:32:24.041293
18387,-0.5968,0.1732,0.0000,1.960,-15.960,248.255,374,366,370,413,392,2025-05-27T11:32:24.041293
18388,-0.4597,0.1830,0.0278,-0.210,-11.060,229.320,392,416,378,357,403,2025-05-27T11:32:24.041293
18389,-0.3289,0.1937,0.0420,-3.080,-4.340,208.985,417,397,386,377,406,2025-05-27T11:32:24.041293
18390,-0.2235,0.1952,0.0390,-6.300,8.120,182.210,357,406,348,401,407,2025-05-27T11:32:24.041293
18391,-0.1166,0.1952,0.0171,-10.185,24.570,167.055,393,421,326,390,410,2025-05-27T11:32:24.041293
18392,0.0029,0.1640,-0.0083,-13.860,45.535,139.720,419,432,368,412,395,2025-05-27T11:32:24.041293
18393,0.0654,0.1059,-0.0278,-16.870,69.895,108.710,419,426,367,411,406,2025-05-27T11:32:24.041293
18394,0.0581,0.0322,0.0044,-19.320,92.960,73.430,424,434,338,415,413,2025-05-27T11:32:24.041293
18395,0.0132,-0.0371,0.0649,-20.755,104.720,38.710,420,410,363,349,402,2025-05-27T11:32:24.041293
18396,-0.0156,-0.1064,0.1118,-19.565,108.255,8.540,413,405,371,370,391,2025-05-27T11:32:24.041293
18397,-0.1059,-0.1737,0.1391,-13.825,100.275,-13.510,395,418,340,367,401,2025-05-27T11:32:24.041293
18398,-0.1713,-0.2064,0.1757,-4.025,84.140,-40.320,397,414,317,403,388,2025-05-27T11:32:24.041293
18399,-0.2308,-0.2352,0.2294,7.385,65.870,-67.585,418,436,309,402,396,2025-05-27T11:32:24.119456
18400,-0.2694,-0.2723,0.2542,19.530,50.995,-95.375,356,382,353,388,403,2025-05-27T11:32:24.119456
18401,-0.2796,-0.2499,0.2957,27.755,39.375,-121.450,382,369,359,411,393,2025-05-27T11:32:24.119456
18402,-0.3143,-0.1962,0.3616,37.975,34.300,-145.950,407,386,381,408,364,2025-05-27T11:32:24.119456
18403,-0.3792,-0.1523,0.4080,46.095,26.425,-167.265,415,405,342,377,378,2025-05-27T11:32:24.119456
18404,-0.4670,-0.0527,0.5187,51.730,10.815,-182.385,402,427,357,406,404,2025-05-27T11:32:24.119456
18405,-0.5900,0.0508,0.6417,57.330,-10.570,-201.355,420,424,361,411,404,2025-05-27T11:32:24.119456
18406,-0.8179,0.2118,0.7164,63.315,-40.740,-219.835,379,426,384,362,358,2025-05-27T11:32:24.302892
18407,-0.9648,0.4177,0.7945,66.710,-78.050,-237.195,388,412,338,390,340,2025-05-27T11:32:24.302892
18408,-1.0214,0.6290,0.8672,63.840,-104.440,-252.805,398,428,355,400,379,2025-05-27T11:32:24.302892
18409,-1.0941,0.8462,0.9755,53.935,-108.430,-267.435,420,426,377,393,380,2025-05-27T11:32:24.302892
18410,-1.1805,1.0965,1.1302,37.555,-104.020,-271.775,400,373,372,359,394,2025-05-27T11:32:24.302892
18411,-1.3547,1.3274,1.2283,16.170,-103.950,-264.250,407,399,381,335,384,2025-05-27T11:32:24.302892
18412,-1.6953,1.4586,1.2068,-3.570,-114.660,-247.415,362,384,336,347,395,2025-05-27T11:32:24.302892
18413,-1.9803,1.5831,1.1229,-21.455,-134.750,-225.330,386,397,351,371,395,2025-05-27T11:32:24.302892
18414,-2.1433,1.6597,1.0380,-31.780,-154.245,-198.590,418,422,383,401,414,2025-05-27T11:32:24.302892
18415,-2.3053,1.7163,0.8638,-36.540,-172.655,-167.755,414,350,350,409,406,2025-05-27T11:32:24.302892
18416,-2.4390,1.7134,0.6983,-37.870,-199.360,-135.065,421,403,372,421,414,2025-05-27T11:32:24.302892
18417,-2.4190,1.6890,0.4812,-34.195,-227.360,-98.980,372,410,384,397,411,2025-05-27T11:32:24.302892
18418,-2.2389,1.6392,0.3084,-28.385,-256.655,-62.055,393,422,391,391,394,2025-05-27T11:32:24.302892
18419,-1.9134,1.5718,0.1601,-21.175,-260.470,-28.980,391,347,381,400,407,2025-05-27T11:32:24.302892
18420,-1.5777,1.4747,0.0195,-12.810,-241.815,-6.440,392,373,386,420,400,2025-05-27T11:32:24.302892
18421,-1.3205,1.2849,-0.1025,-0.980,-211.645,17.185,400,412,385,427,390,2025-05-27T11:32:24.302892
18422,-1.1463,1.0214,-0.2118,10.885,-178.255,39.480,429,395,374,415,381,2025-05-27T11:32:24.403039
18423,-1.0497,0.7701,-0.2674,21.700,-140.630,61.005,399,341,373,352,388,2025-05-27T11:32:24.403039
18424,-0.9301,0.5534,-0.3240,28.840,-100.170,83.195,415,393,371,384,413,2025-05-27T11:32:24.403039
18425,-0.8428,0.3758,-0.3928,34.965,-68.390,104.475,415,411,386,405,395,2025-05-27T11:32:24.403039
18426,-0.7730,0.2645,-0.3953,36.575,-30.730,121.660,393,417,371,418,393,2025-05-27T11:32:24.403039
18427,-0.6622,0.2079,-0.3816,31.325,3.115,132.650,399,426,376,393,404,2025-05-27T11:32:24.403039
18428,-0.5905,0.1742,-0.3128,22.120,33.110,142.205,417,426,380,419,385,2025-05-27T11:32:24.403039
18429,-0.5446,0.1210,-0.2791,10.115,53.515,149.590,403,399,369,389,376,2025-05-27T11:32:24.403039
18430,-0.5314,0.0952,-0.2474,-1.295,61.110,154.070,398,404,335,392,303,2025-05-27T11:32:24.525789
18431,-0.5261,0.0834,-0.1854,-7.455,63.385,154.700,415,343,347,396,381,2025-05-27T11:32:24.525789
18432,-0.4982,0.0644,-0.1488,-12.670,66.465,153.230,399,403,354,410,380,2025-05-27T11:32:24.525789
18433,-0.5095,0.0708,-0.0205,-14.700,75.880,149.485,354,393,356,377,396,2025-05-27T11:32:24.525789
18434,-0.4846,0.0752,0.0307,-15.890,86.765,147.245,354,395,357,402,416,2025-05-27T11:32:24.525789
18435,-0.5226,0.0922,0.0488,-14.945,95.900,145.985,334,426,367,386,413,2025-05-27T11:32:24.525789
18436,-0.5636,0.1283,0.0678,-9.205,103.425,144.165,388,382,350,408,364,2025-05-27T11:32:24.525789
18437,-0.6120,0.1620,0.0976,-1.225,111.965,141.365,417,333,371,401,378,2025-05-27T11:32:24.525789
18438,-0.6378,0.2108,0.1581,4.900,121.835,136.920,397,404,342,364,341,2025-05-27T11:32:24.525789
18439,-0.6637,0.2772,0.2196,12.215,130.130,131.600,394,367,363,397,331,2025-05-27T11:32:24.582338
18440,-0.7061,0.3577,0.2494,18.480,139.440,125.895,411,414,377,405,323,2025-05-27T11:32:24.586169
18441,-0.7379,0.4182,0.2611,23.590,145.320,120.750,403,421,371,407,360,2025-05-27T11:32:24.586169
18442,-0.7627,0.4524,0.2772,26.950,149.870,112.945,392,400,370,367,380,2025-05-27T11:32:24.586169
18443,-0.7813,0.4812,0.2908,28.910,152.530,104.195,390,374,382,407,387,2025-05-27T11:32:24.752700
18444,-0.7940,0.5192,0.3250,29.540,152.600,94.395,412,404,388,413,401,2025-05-27T11:32:24.752700
18445,-0.7847,0.5695,0.3426,28.875,150.955,84.770,422,418,393,420,392,2025-05-27T11:32:24.752700
18446,-0.7696,0.6041,0.3436,27.020,148.015,75.705,383,420,316,416,350,2025-05-27T11:32:24.752700
18447,-0.7315,0.6246,0.3192,24.675,144.095,66.745,386,380,356,359,322,2025-05-27T11:32:24.752700
18448,-0.6730,0.6315,0.2777,19.950,142.730,57.015,413,413,368,338,375,2025-05-27T11:32:24.752700
18449,-0.6071,0.6471,0.2372,12.145,145.495,45.290,426,355,368,394,396,2025-05-27T11:32:24.752700
18450,-0.5597,0.6334,0.2328,3.605,154.070,34.510,403,405,372,403,407,2025-05-27T11:32:24.752700
18451,-0.5256,0.6232,0.2489,-7.735,164.010,21.700,413,416,353,347,393,2025-05-27T11:32:24.752700
18452,-0.5119,0.5998,0.2899,-18.970,172.270,9.520,407,406,372,401,413,2025-05-27T11:32:24.752700
18453,-0.5339,0.5905,0.2977,-29.855,176.820,-2.695,425,398,335,407,413,2025-05-27T11:32:24.752700
18454,-0.5695,0.5612,0.2801,-37.870,176.155,-15.435,402,397,372,416,356,2025-05-27T11:32:24.752700
18455,-0.5895,0.5392,0.2611,-46.585,170.135,-28.105,379,391,378,395,364,2025-05-27T11:32:24.836172
18456,-0.6115,0.5148,0.2713,-54.985,162.120,-41.020,407,406,350,410,390,2025-05-27T11:32:24.836172
18457,-0.6969,0.4817,0.3797,-64.715,150.220,-54.740,407,400,373,402,406,2025-05-27T11:32:24.836172
18458,-0.8247,0.4387,0.4982,-71.610,133.805,-66.885,422,377,363,397,394,2025-05-27T11:32:24.836172
18459,-0.9453,0.4011,0.5534,-74.970,101.920,-74.830,366,408,376,306,402,2025-05-27T11:32:24.836172
18460,-1.0370,0.3787,0.5500,-74.025,60.935,-80.640,367,411,368,343,348,2025-05-27T11:32:24.836172
18461,-1.0697,0.3782,0.5378,-70.665,19.705,-83.615,396,431,362,372,353,2025-05-27T11:32:24.836172
18462,-1.0468,0.4265,0.5485,-66.885,-12.425,-86.870,408,355,361,389,387,2025-05-27T11:32:24.836172
18463,-0.9984,0.4656,0.6198,-65.450,-29.960,-91.560,408,371,370,354,395,2025-05-27T11:32:24.836172
18464,-1.0024,0.4885,0.7130,-62.685,-40.460,-94.045,395,334,342,376,361,2025-05-27T11:32:24.836172
18465,-1.0253,0.5056,0.7393,-54.180,-49.035,-92.400,391,406,368,411,394,2025-05-27T11:32:24.836172
18466,-1.0414,0.5861,0.7032,-41.125,-57.925,-89.355,425,409,381,391,384,2025-05-27T11:32:24.936223
18467,-1.0331,0.6505,0.6412,-26.285,-61.040,-84.735,436,403,381,387,398,2025-05-27T11:32:24.936223
18468,-1.0009,0.6910,0.6002,-11.795,-56.945,-79.520,414,420,348,406,393,2025-05-27T11:32:24.936223
18469,-0.9667,0.7193,0.6032,2.345,-45.360,-73.815,428,424,360,406,405,2025-05-27T11:32:24.936223
18470,-0.9487,0.7335,0.6295,13.930,-29.995,-65.310,421,433,378,394,397,2025-05-27T11:32:24.936223
18471,-0.9618,0.7466,0.6437,27.055,-15.890,-54.565,426,411,373,405,397,2025-05-27T11:32:24.936223
18472,-0.9989,0.7432,0.6198,39.725,-7.700,-40.775,419,398,392,354,406,2025-05-27T11:32:24.936223
18473,-1.0233,0.7408,0.5549,52.430,-2.310,-25.340,417,410,315,376,400,2025-05-27T11:32:25.201888
18474,-1.0385,0.7291,0.4890,63.805,-1.820,-13.475,411,411,356,343,378,2025-05-27T11:32:25.385945
18475,-1.0307,0.7281,0.4387,72.450,-3.500,-0.105,406,421,362,388,388,2025-05-27T11:32:25.385945
18476,-0.9897,0.7203,0.3987,78.085,-5.670,11.655,356,373,359,388,405,2025-05-27T11:32:25.385945
18477,-0.9331,0.6978,0.3426,80.850,-7.315,21.945,414,416,377,408,398,2025-05-27T11:32:25.385945
18478,-0.8774,0.6822,0.2826,82.285,-8.050,30.625,416,432,337,387,403,2025-05-27T11:32:25.385945
18479,-0.8389,0.6554,0.2294,81.550,-8.225,37.345,418,411,366,396,409,2025-05-27T11:32:25.385945
18480,-0.7974,0.6412,0.1835,79.135,-7.805,41.230,412,433,360,410,420,2025-05-27T11:32:25.385945
18481,-0.7559,0.6105,0.1376,75.705,-7.140,44.380,398,405,374,425,412,2025-05-27T11:32:25.385945
18482,-0.7266,0.5919,0.0981,71.505,-7.315,46.130,346,426,388,424,406,2025-05-27T11:32:25.385945
18483,-0.7096,0.5763,0.0498,67.655,-9.030,46.340,390,431,380,420,393,2025-05-27T11:32:25.385945
18484,-0.6974,0.5714,0.0073,62.965,-12.390,44.660,395,400,381,411,407,2025-05-27T11:32:25.385945
18485,-0.6788,0.5617,-0.0156,58.695,-16.345,41.755,405,420,371,351,397,2025-05-27T11:32:25.385945
18486,-0.6637,0.5588,-0.0356,54.075,-22.050,38.360,417,419,336,348,366,2025-05-27T11:32:25.385945
18487,-0.6510,0.5578,-0.0532,49.945,-28.105,33.250,357,421,350,396,387,2025-05-27T11:32:25.385945
18488,-0.6242,0.5617,-0.0654,46.235,-33.670,27.160,386,416,379,394,413,2025-05-27T11:32:25.385945
18489,-0.5988,0.5793,-0.0942,42.525,-37.380,20.405,409,421,390,415,414,2025-05-27T11:32:25.385945
18490,-0.5754,0.5954,-0.1103,39.445,-38.395,13.230,420,407,390,418,417,2025-05-27T11:32:25.385945
18491,-0.5568,0.6149,-0.1200,35.770,-37.135,6.125,392,410,389,408,375,2025-05-27T11:32:25.385945
18492,-0.5456,0.6339,-0.1235,31.815,-33.040,-8.435,393,398,399,394,395,2025-05-27T11:32:25.385945
18493,-0.5353,0.6486,-0.1235,27.895,-26.670,-5.915,406,345,345,384,400,2025-05-27T11:32:25.385945
18494,-0.5358,0.6666,-0.1132,23.590,-19.040,-12.145,399,403,325,408,395,2025-05-27T11:32:25.385945
18495,-0.5524,0.6769,-0.0981,19.110,-11.340,-18.165,419,418,349,408,391,2025-05-27T11:32:25.385945
18496,-0.5710,0.6905,-0.0854,14.245,-3.745,-23.415,399,413,365,414,407,2025-05-27T11:32:25.385945
18497,-0.5988,0.7071,-0.0620,9.695,3.080,-27.790,395,406,370,401,398,2025-05-27T11:32:25.385945
18498,-0.6285,0.7183,-0.0537,6.440,8.295,-30.660,420,408,385,406,389,2025-05-27T11:32:25.385945
18499,-0.6637,0.7286,-0.0337,2.695,10.850,-32.095,401,395,385,390,341,2025-05-27T11:32:25.385945
18500,-0.6959,0.7315,0.0010,-0.840,11.795,-32.620,414,423,388,355,321,2025-05-27T11:32:25.473014
18501,-0.7476,0.7325,0.0386,-3.955,9.660,-32.270,394,403,388,403,359,2025-05-27T11:32:25.473014
18502,-0.7974,0.7344,0.0644,-6.125,4.165,-30.380,411,423,349,397,373,2025-05-27T11:32:25.473014
18503,-0.8379,0.7471,0.0888,-7.420,-3.780,-26.810,408,387,365,395,375,2025-05-27T11:32:25.473014
18504,-0.8574,0.7696,0.1240,-8.680,-9.975,-22.085,388,366,382,422,383,2025-05-27T11:32:25.473014
18505,-0.8594,0.7954,0.1542,-10.080,-16.310,-16.485,388,422,394,362,339,2025-05-27T11:32:25.473014
18506,-0.8642,0.8130,0.1810,-11.550,-20.965,-11.480,413,423,374,389,382,2025-05-27T11:32:25.473014
18507,-0.8691,0.8237,0.2152,-12.880,-25.480,-4.585,414,425,381,381,401,2025-05-27T11:32:25.473014
18508,-0.8784,0.8345,0.2367,-13.440,-29.890,3.185,411,343,383,397,397,2025-05-27T11:32:25.473014
18509,-0.8794,0.8359,0.2562,-13.615,-33.845,10.570,406,386,384,373,392,2025-05-27T11:32:25.473014
18510,-0.8769,0.8389,0.2713,-13.475,-36.890,17.500,421,408,389,399,349,2025-05-27T11:32:25.473014
18511,-0.8662,0.8340,0.2713,-12.740,-38.920,24.010,401,397,378,392,378,2025-05-27T11:32:25.473014
18512,-0.8511,0.8174,0.2723,-11.725,-40.390,29.470,391,425,390,398,344,2025-05-27T11:32:25.473014
18513,-0.8262,0.7974,0.2630,-11.095,-40.145,32.970,398,422,390,405,365,2025-05-27T11:32:25.473014
18514,-0.7940,0.7808,0.2542,-10.815,-37.695,36.470,388,426,378,405,384,2025-05-27T11:32:25.473014
18515,-0.7588,0.7627,0.2489,-11.200,-32.970,38.745,388,429,378,398,349,2025-05-27T11:32:25.736367
18516,-0.7344,0.7398,0.2460,-12.215,-26.740,39.620,399,400,372,345,374,2025-05-27T11:32:25.736367
18517,-0.7203,0.7125,0.2279,-12.880,-20.790,39.025,415,404,373,375,399,2025-05-27T11:32:25.736367
18518,-0.7174,0.6798,0.2089,-13.300,-16.275,37.240,396,344,385,390,405,2025-05-27T11:32:25.736367
18519,-0.7115,0.6534,0.1874,-12.915,-14.140,34.265,334,410,388,304,359,2025-05-27T11:32:25.736367
18520,-0.7027,0.6256,0.1815,-12.075,-12.880,31.430,403,414,395,364,400,2025-05-27T11:32:25.736367
18521,-0.6822,0.6105,0.1796,-11.270,-12.390,27.790,421,421,384,376,309,2025-05-27T11:32:25.736367
18522,-0.6632,0.5910,0.1752,-10.360,-12.320,24.465,406,408,381,384,321,2025-05-27T11:32:25.736367
18523,-0.6383,0.5695,0.1674,-9.170,-12.915,21.315,423,415,370,411,374,2025-05-27T11:32:25.736367
18524,-0.6183,0.5563,0.1635,-7.490,-14.210,18.305,368,348,339,352,338,2025-05-27T11:32:25.736367
18525,-0.5934,0.5461,0.1581,-5.950,-15.435,14.840,411,389,364,399,382,2025-05-27T11:32:25.736367
18526,-0.5700,0.5417,0.1479,-3.920,-16.240,10.920,431,415,362,350,403,2025-05-27T11:32:25.736367
18527,-0.5510,0.5397,0.1357,-1.505,-16.345,7.140,398,402,382,400,409,2025-05-27T11:32:25.736367
18528,-0.5348,0.5383,0.1274,0.805,-14.910,1.575,427,405,371,416,393,2025-05-27T11:32:25.736367
18529,-0.5153,0.5358,0.1254,2.905,-11.550,-4.480,428,371,376,403,399,2025-05-27T11:32:25.736367
18530,-0.5007,0.5329,0.1215,4.200,-7.000,-10.430,404,343,369,415,409,2025-05-27T11:32:25.736367
18531,-0.4924,0.5266,0.1225,5.670,-2.660,-16.380,421,374,370,405,389,2025-05-27T11:32:25.736367
18532,-0.4963,0.5202,0.1215,7.035,2.520,-21.315,410,394,371,397,395,2025-05-27T11:32:25.736367
18533,-0.5017,0.5231,0.1191,8.575,7.665,-27.300,403,409,382,399,380,2025-05-27T11:32:25.736367
18534,-0.5187,0.5329,0.1113,10.045,12.250,-33.600,428,430,390,380,402,2025-05-27T11:32:25.736367
18535,-0.5412,0.5475,0.1093,11.515,16.415,-39.935,349,439,383,408,410,2025-05-27T11:32:25.836037
18536,-0.5661,0.5651,0.1025,12.635,19.950,-46.235,356,434,389,406,412,2025-05-27T11:32:25.836037
18537,-0.5949,0.5846,0.1054,13.370,23.310,-51.765,352,367,387,415,413,2025-05-27T11:32:25.836037
18538,-0.6305,0.5978,0.1030,13.825,25.585,-56.665,383,406,381,411,401,2025-05-27T11:32:25.836037
18539,-0.6759,0.6105,0.1049,14.000,27.930,-60.375,419,340,388,363,399,2025-05-27T11:32:25.836037
18540,-0.7178,0.6222,0.1161,13.475,29.505,-62.405,415,376,379,328,400,2025-05-27T11:32:25.836037
18541,-0.7706,0.6427,0.1283,12.180,30.660,-63.140,351,383,369,391,414,2025-05-27T11:32:25.836037
18542,-0.8125,0.6603,0.1279,10.500,31.395,-61.180,333,393,382,403,400,2025-05-27T11:32:25.836037
18543,-0.8540,0.6827,0.1376,8.225,32.340,-56.805,377,340,371,418,355,2025-05-27T11:32:25.836037
18544,-0.8828,0.7047,0.1415,6.720,33.355,-50.610,326,413,368,377,373,2025-05-27T11:32:25.836037
18545,-0.9052,0.7237,0.1503,4.410,34.650,-43.575,368,350,348,392,360,2025-05-27T11:32:25.836037
18546,-0.9252,0.7408,0.1615,2.100,36.365,-37.870,392,386,365,393,389,2025-05-27T11:32:25.836037
18547,-0.9340,0.7510,0.1757,0.455,37.485,-30.170,335,386,368,347,383,2025-05-27T11:32:25.836037
18548,-0.9350,0.7618,0.1791,-0.315,37.380,-21.980,392,397,365,380,309,2025-05-27T11:32:25.836037
18549,-0.9389,0.7671,0.1757,-1.050,36.085,-13.965,411,419,370,404,380,2025-05-27T11:32:25.936180
18550,-0.9414,0.7701,0.1767,-1.260,33.180,-6.265,428,389,374,418,393,2025-05-27T11:32:25.936180
18551,-0.9316,0.7691,0.1718,-1.610,29.680,0.805,389,426,390,404,389,2025-05-27T11:32:25.936180
18552,-0.9218,0.7574,0.1610,-1.925,24.535,5.915,418,443,380,420,395,2025-05-27T11:32:25.936180
18553,-0.9008,0.7364,0.1459,-1.995,18.200,11.935,401,427,371,403,391,2025-05-27T11:32:25.936180
18554,-0.8833,0.7188,0.1386,-1.820,11.830,16.730,426,432,387,406,363,2025-05-27T11:32:25.936180
18555,-0.8589,0.6993,0.1347,-2.065,7.035,19.355,419,420,357,411,390,2025-05-27T11:32:25.936180
18556,-0.8311,0.6803,0.1200,-2.660,4.375,20.405,372,421,364,408,389,2025-05-27T11:32:25.936180
18557,-0.8086,0.6642,0.0976,-3.465,1.995,20.685,416,406,364,395,400,2025-05-27T11:32:26.052609
18558,-0.7837,0.6495,0.0776,-4.130,0.875,20.405,432,384,378,395,387,2025-05-27T11:32:26.052609
18559,-0.7666,0.6334,0.0649,-5.110,0.840,19.460,421,415,376,353,397,2025-05-27T11:32:26.052609
18560,-0.7491,0.6217,0.0620,-6.405,1.750,17.605,429,344,376,357,404,2025-05-27T11:32:26.052609
18561,-0.7364,0.6090,0.0532,-7.525,3.255,14.980,424,341,371,388,412,2025-05-27T11:32:26.052609
18562,-0.7315,0.6041,0.0400,-8.820,4.515,11.830,399,400,340,392,318,2025-05-27T11:32:26.052609
18563,-0.7291,0.5998,0.0322,-9.940,5.425,9.380,401,390,326,371,363,2025-05-27T11:32:26.052609
18564,-0.7296,0.5958,0.0205,-10.745,6.020,6.090,429,404,352,385,383,2025-05-27T11:32:26.052609
18565,-0.7320,0.5944,0.0137,-11.480,6.930,2.835,419,391,375,379,396,2025-05-27T11:32:26.052609
18566,-0.7369,0.5944,0.0151,-12.145,8.225,0.000,359,406,386,408,412,2025-05-27T11:32:26.103031
18567,-0.7466,0.6002,0.0190,-13.020,9.345,-2.205,340,428,361,391,400,2025-05-27T11:32:26.103031
18568,-0.7569,0.5998,0.0220,-13.755,10.850,-3.010,405,428,372,389,402,2025-05-27T11:32:26.103031
18569,-0.7686,0.6022,0.0332,-14.385,12.250,-3.185,393,397,366,415,354,2025-05-27T11:32:26.103031
18570,-0.7881,0.6027,0.0537,-15.015,13.300,-2.800,399,417,380,402,343,2025-05-27T11:32:26.103031
18571,-0.8072,0.6071,0.0752,-15.505,13.160,-1.505,391,426,388,379,322,2025-05-27T11:32:26.285932
18572,-0.8291,0.6149,0.1044,-16.135,11.270,0.385,374,411,346,385,374,2025-05-27T11:32:26.285932
18573,-0.8457,0.6290,0.1386,-16.310,8.470,2.940,416,350,292,392,381,2025-05-27T11:32:26.285932
18574,-0.8579,0.6564,0.1723,-16.345,3.850,5.355,402,398,352,409,382,2025-05-27T11:32:26.285932
18575,-0.8730,0.6798,0.1986,-15.890,-1.505,8.820,430,428,373,413,398,2025-05-27T11:32:26.285932
18576,-0.8857,0.7110,0.2220,-14.770,-6.860,13.160,427,425,380,403,411,2025-05-27T11:32:26.285932
18577,-0.9038,0.7574,0.2601,-13.370,-12.355,18.095,407,425,384,410,393,2025-05-27T11:32:26.285932
18578,-0.9331,0.8291,0.3138,-12.075,-17.115,23.625,413,422,381,387,354,2025-05-27T11:32:26.285932
18579,-0.9711,0.9106,0.3694,-10.465,-21.210,30.415,354,401,374,403,381,2025-05-27T11:32:26.285932
18580,-1.0024,0.9794,0.3982,-8.225,-27.370,36.960,406,395,373,418,410,2025-05-27T11:32:26.285932
18581,-1.0404,1.0087,0.4060,-5.425,-35.665,46.165,429,410,385,392,390,2025-05-27T11:32:26.285932
18582,-1.0619,1.0287,0.3894,-2.275,-45.395,56.980,427,428,375,408,388,2025-05-27T11:32:26.285932
18583,-1.0453,1.0292,0.3841,1.435,-53.690,68.600,426,416,347,386,391,2025-05-27T11:32:26.285932
18584,-1.0282,1.0136,0.3611,4.200,-57.750,79.905,416,410,337,414,392,2025-05-27T11:32:26.285932
18585,-1.0248,0.9960,0.3523,7.805,-60.060,89.355,418,407,360,405,393,2025-05-27T11:32:26.369423
18586,-0.9941,0.9594,0.3094,12.075,-64.155,98.245,431,405,359,397,394,2025-05-27T11:32:26.369423
18587,-0.9614,0.8979,0.2538,16.135,-67.865,106.225,432,434,376,397,399,2025-05-27T11:32:26.369423
18588,-0.9023,0.8316,0.2094,19.740,-70.210,112.105,402,412,307,402,393,2025-05-27T11:32:26.369423
18589,-0.8345,0.7842,0.1762,22.540,-70.490,118.300,401,406,323,383,383,2025-05-27T11:32:26.369423
18590,-0.7510,0.7354,0.1410,23.835,-67.795,122.780,406,430,345,385,408,2025-05-27T11:32:26.369423
18591,-0.6695,0.6939,0.0913,23.555,-61.810,125.265,404,355,366,386,350,2025-05-27T11:32:26.369423
18592,-0.5929,0.6446,0.0605,22.435,-54.810,124.495,428,387,378,417,371,2025-05-27T11:32:26.369423
18593,-0.5187,0.6154,0.0395,20.265,-49.980,121.485,415,425,389,418,392,2025-05-27T11:32:26.645102
18594,-0.4602,0.5749,0.0259,17.605,-45.395,117.215,305,391,387,415,394,2025-05-27T11:32:26.645102
18595,-0.4207,0.5358,0.0229,15.365,-44.520,112.735,394,375,373,348,366,2025-05-27T11:32:26.645102
18596,-0.3880,0.5036,0.0029,14.175,-47.005,105.070,366,387,381,375,391,2025-05-27T11:32:26.645102
18597,-0.3518,0.4836,-0.0098,13.825,-51.310,94.535,412,427,394,407,406,2025-05-27T11:32:26.645102
18598,-0.2991,0.4534,-0.0132,13.510,-54.880,82.110,408,364,390,400,355,2025-05-27T11:32:26.645102
18599,-0.2528,0.4270,-0.0137,13.300,-56.420,68.670,386,413,375,399,382,2025-05-27T11:32:26.645102
18600,-0.2059,0.4046,-0.0146,12.950,-56.280,55.650,396,424,375,390,304,2025-05-27T11:32:26.645102
18601,-0.1932,0.3894,-0.0127,11.970,-55.650,42.350,375,412,380,300,373,2025-05-27T11:32:26.645102
18602,-0.1840,0.3919,-0.0112,12.670,-54.355,31.010,390,396,395,361,381,2025-05-27T11:32:26.645102
18603,-0.1640,0.3899,-0.0054,13.650,-50.715,16.100,387,427,389,374,387,2025-05-27T11:32:26.645102
18604,-0.1298,0.3855,0.0122,14.350,-43.085,0.210,403,420,395,392,394,2025-05-27T11:32:26.645102
18605,-0.0922,0.3792,0.0322,14.140,-32.795,-15.610,418,429,393,398,405,2025-05-27T11:32:26.645102
18606,-0.0634,0.3723,0.0410,13.160,-20.895,-30.240,416,430,384,397,400,2025-05-27T11:32:26.645102
18607,-0.0283,0.3636,0.0517,12.040,-10.850,-43.680,400,430,391,387,410,2025-05-27T11:32:26.645102
18608,-0.0361,0.3479,0.0771,10.500,4.725,-55.370,391,415,394,397,411,2025-05-27T11:32:26.645102
18609,-0.0805,0.3314,0.0698,9.940,16.380,-70.455,396,376,344,413,403,2025-05-27T11:32:26.645102
18610,-0.1366,0.3396,0.0761,10.115,19.285,-85.295,397,406,361,411,412,2025-05-27T11:32:26.645102
18611,-0.2191,0.2772,0.1523,8.995,14.525,-100.905,412,408,342,397,393,2025-05-27T11:32:26.645102
18612,-0.2796,0.3021,0.2303,8.995,7.910,-117.250,395,404,322,421,386,2025-05-27T11:32:26.645102
18613,-0.3475,0.2679,0.2962,10.990,-2.975,-133.385,412,356,361,393,383,2025-05-27T11:32:26.865141
18614,-0.3865,0.2606,0.3709,12.600,-18.795,-147.805,406,342,370,395,383,2025-05-27T11:32:26.865141
18615,-0.4338,0.2879,0.4651,16.730,-32.760,-159.145,392,387,351,399,401,2025-05-27T11:32:26.865141
18616,-0.4992,0.2913,0.5388,20.300,-47.285,-172.200,427,413,352,353,352,2025-05-27T11:32:26.865141
18617,-0.5475,0.3113,0.6690,25.445,-61.425,-184.485,404,402,368,398,396,2025-05-27T11:32:26.865141
18618,-0.6227,0.3128,0.7549,30.205,-75.285,-197.225,421,415,366,416,358,2025-05-27T11:32:26.865141
18619,-0.6783,0.3299,0.8242,32.445,-89.425,-207.970,357,405,366,421,383,2025-05-27T11:32:26.865141
18620,-0.7686,0.4041,0.9467,31.465,-101.990,-218.995,377,410,337,392,363,2025-05-27T11:32:26.865141
18621,-0.8603,0.5407,1.0204,26.530,-109.410,-226.450,395,403,362,394,341,2025-05-27T11:32:26.865141
18622,-0.9858,0.7027,1.0941,11.725,-119.630,-230.895,421,421,367,399,377,2025-05-27T11:32:26.865141
18623,-1.2005,0.8755,1.2185,-5.600,-129.815,-235.025,410,351,372,418,402,2025-05-27T11:32:26.865141
18624,-1.4318,1.1009,1.2849,-25.725,-142.485,-235.375,391,398,346,419,406,2025-05-27T11:32:27.003129
18625,-1.7553,1.3596,1.3781,-49.000,-162.610,-230.160,422,423,362,422,396,2025-05-27T11:32:27.003129
18626,-2.1394,1.6187,1.4650,-65.205,-194.215,-219.135,404,426,369,417,405,2025-05-27T11:32:27.003129
18627,-2.6425,1.9286,1.5309,-82.845,-250.565,-205.345,417,423,369,402,396,2025-05-27T11:32:27.003129
18628,-2.9304,2.2873,1.5455,-97.370,-313.460,-181.265,372,412,343,401,398,2025-05-27T11:32:27.003129
18629,-2.8333,2.6045,1.6172,-113.995,-384.125,-138.670,421,421,325,396,371,2025-05-27T11:32:27.003129
18630,-2.6386,2.7284,1.7334,-128.975,-399.980,-97.195,421,405,353,389,402,2025-05-27T11:32:27.003129
18631,-2.5425,2.8250,1.7353,-136.045,-382.340,-43.925,359,411,365,386,409,2025-05-27T11:32:27.003129
18632,-2.6059,2.9143,1.6455,-132.370,-371.840,11.305,389,412,336,383,409,2025-05-27T11:32:27.003129
18633,-2.6245,3.1208,1.4733,-127.505,-361.830,64.400,400,438,327,406,372,2025-05-27T11:32:27.003129
18634,-2.6196,3.2452,1.2332,-126.595,-341.810,116.690,341,399,313,406,394,2025-05-27T11:32:27.003129
18635,-2.6674,3.3574,0.6539,-121.135,-319.655,170.030,380,428,311,344,342,2025-05-27T11:32:27.003129
18636,-2.9041,3.4741,0.0215,-112.980,-315.770,219.380,371,417,335,367,385,2025-05-27T11:32:27.003129
18637,-3.1564,3.5204,-0.5841,-115.815,-319.935,272.930,408,416,361,341,381,2025-05-27T11:32:27.003129
18638,-3.5043,3.3936,-1.0878,-133.105,-321.650,337.400,407,404,361,331,378,2025-05-27T11:32:27.099421
18639,-4.1382,3.0212,-1.5362,-153.755,-302.715,405.895,399,393,328,369,380,2025-05-27T11:32:27.099421
18640,-4.8737,2.4439,-1.9496,-160.755,-293.895,475.265,370,422,355,401,377,2025-05-27T11:32:27.099421
18641,-5.2885,1.8568,-2.1233,-164.045,-277.970,554.540,336,430,378,402,345,2025-05-27T11:32:27.099421
18642,-5.7242,1.1932,-2.1228,-167.440,-247.065,625.765,382,411,387,402,383,2025-05-27T11:32:27.099421
18643,-6.2220,0.6168,-2.1077,-171.500,-216.475,704.620,394,356,376,375,396,2025-05-27T11:32:27.099421
18644,-6.4743,0.0278,-1.8930,-171.395,-208.530,770.665,374,424,363,395,409,2025-05-27T11:32:27.099421
18645,-6.2918,-0.5388,-1.7080,-169.890,-202.265,818.720,405,401,378,417,396,2025-05-27T11:32:27.099421
18646,-6.2327,-1.0834,-1.5250,-168.245,-166.915,837.760,420,383,371,394,390,2025-05-27T11:32:27.099421
18647,-6.0649,-1.5572,-1.3381,-163.835,-140.245,846.405,426,348,385,404,358,2025-05-27T11:32:27.099421
18648,-6.0258,-2.1116,-1.0297,-147.000,-134.785,841.715,416,356,387,393,389,2025-05-27T11:32:27.099421
18649,-5.8511,-2.6913,-0.8091,-118.720,-135.415,811.825,343,387,389,383,392,2025-05-27T11:32:27.099421
18650,-5.5549,-3.3130,-0.6456,-70.595,-137.480,767.410,337,422,386,403,407,2025-05-27T11:32:27.099421
18651,-4.9678,-3.8303,-0.4431,-9.170,-133.700,742.000,380,381,384,418,400,2025-05-27T11:32:27.099421
18652,-4.1958,-4.0704,-0.2152,49.910,-107.870,721.560,419,422,387,419,405,2025-05-27T11:32:27.286196
18653,-3.2418,-4.3100,0.1430,92.890,-58.905,692.300,405,400,347,391,393,2025-05-27T11:32:27.286196
18654,-2.3927,-4.2549,0.3489,125.300,-13.510,643.230,400,406,374,357,398,2025-05-27T11:32:27.286196
18655,-1.7627,-4.0826,0.6041,140.490,7.280,572.705,356,418,375,398,414,2025-05-27T11:32:27.286196
18656,-1.3147,-3.6907,0.8028,140.350,14.350,499.170,399,344,372,403,393,2025-05-27T11:32:27.286196
18657,-1.0692,-3.3082,0.9072,134.715,16.940,428.820,401,379,380,346,404,2025-05-27T11:32:27.286196
18658,-0.8940,-2.9910,1.0551,126.315,26.600,352.800,415,421,383,385,411,2025-05-27T11:32:27.286196
18659,-0.6934,-2.7123,1.1434,108.220,51.030,275.765,420,419,378,414,359,2025-05-27T11:32:27.286196
18660,-0.6695,-2.4346,1.2298,89.425,70.000,205.065,417,396,376,403,390,2025-05-27T11:32:27.286196
18661,-0.6817,-2.1653,1.2912,75.565,79.170,155.400,406,393,373,391,347,2025-05-27T11:32:27.286196
18662,-0.6710,-1.9525,1.2332,73.325,70.560,101.675,400,421,381,389,386,2025-05-27T11:32:27.286196
18663,-0.6978,-1.6167,1.1424,83.825,61.495,51.520,393,389,370,403,404,2025-05-27T11:32:27.286196
18664,-0.6222,-1.2224,1.0409,101.115,69.965,3.045,379,397,377,413,408,2025-05-27T11:32:27.286196
18665,-0.6300,-0.9130,0.9360,123.970,94.850,-39.900,377,404,345,346,350,2025-05-27T11:32:27.286196
18666,-0.7208,-0.6988,0.8686,132.300,122.430,-72.590,416,347,352,332,338,2025-05-27T11:32:27.286196
18667,-0.8945,-0.5944,0.8330,153.720,131.355,-95.165,399,411,366,345,383,2025-05-27T11:32:27.552923
18668,-1.0482,-0.5187,0.7910,178.815,120.295,-113.295,394,410,389,391,396,2025-05-27T11:32:27.552923
18669,-1.0892,-0.4109,0.7662,205.065,104.440,-129.465,377,402,360,341,348,2025-05-27T11:32:27.552923
18670,-1.0926,-0.3333,0.7096,228.340,85.610,-144.620,388,428,372,389,371,2025-05-27T11:32:27.552923
18671,-1.0219,-0.2694,0.6237,249.935,68.285,-155.960,332,396,342,410,403,2025-05-27T11:32:27.552923
18672,-1.0019,-0.2572,0.5495,271.775,52.640,-168.595,400,428,320,413,409,2025-05-27T11:32:27.552923
18673,-0.9862,-0.2220,0.5270,292.915,35.910,-176.155,411,416,359,391,406,2025-05-27T11:32:27.552923
18674,-1.0204,-0.2230,0.5236,311.815,11.690,-181.685,399,393,369,386,405,2025-05-27T11:32:27.552923
18675,-1.0541,-0.1962,0.5529,324.380,-14.035,-189.630,406,418,385,412,316,2025-05-27T11:32:27.552923
18676,-1.0409,-0.1630,0.4973,339.010,-37.940,-198.835,405,392,354,408,367,2025-05-27T11:32:27.552923
18677,-1.0443,-0.0961,0.4280,353.885,-66.710,-210.840,409,340,365,414,400,2025-05-27T11:32:27.552923
18678,-1.0370,-0.0098,0.3279,368.410,-91.665,-221.795,406,403,367,425,401,2025-05-27T11:32:27.552923
18679,-0.9828,0.0937,0.2416,379.085,-104.440,-236.390,397,400,376,425,394,2025-05-27T11:32:27.552923
18680,-1.0087,0.2181,0.2255,382.585,-108.010,-248.570,390,398,385,420,416,2025-05-27T11:32:27.552923
18681,-1.0775,0.3577,0.1615,382.060,-112.525,-256.795,386,422,379,355,402,2025-05-27T11:32:27.552923
18682,-1.1824,0.4128,0.0849,384.370,-124.110,-256.480,410,379,375,387,389,2025-05-27T11:32:27.552923
18683,-1.2634,0.4158,-0.0010,387.905,-145.355,-251.860,420,297,386,382,387,2025-05-27T11:32:27.552923
18684,-1.3166,0.5144,0.0254,393.295,-159.145,-242.375,415,316,386,405,388,2025-05-27T11:32:27.552923
18685,-1.2766,0.7227,0.1318,391.475,-168.910,-233.940,431,381,383,348,360,2025-05-27T11:32:27.552923
18686,-1.1897,0.9843,0.2259,383.180,-168.140,-222.320,418,368,379,390,383,2025-05-27T11:32:27.719209
18687,-1.1473,1.2180,0.2630,371.070,-162.470,-192.885,425,390,354,394,349,2025-05-27T11:32:27.719209
18688,-1.1849,1.3493,0.2308,360.500,-158.865,-177.030,408,342,336,391,393,2025-05-27T11:32:27.719209
18689,-1.2898,1.4025,0.1796,350.560,-164.815,-151.480,395,387,324,350,400,2025-05-27T11:32:27.719209
18690,-1.3322,1.4757,0.0986,340.025,-180.670,-124.565,344,415,353,328,345,2025-05-27T11:32:27.719209
18691,-1.2830,1.5352,0.0634,325.290,-195.230,-95.340,403,420,336,384,336,2025-05-27T11:32:27.719209
18692,-1.1507,1.6519,0.0366,310.205,-197.890,-64.190,373,417,367,384,383,2025-05-27T11:32:27.719209
18693,-1.0131,1.7866,0.0273,290.185,-183.715,-31.815,410,422,377,408,355,2025-05-27T11:32:27.719209
18694,-0.8682,1.7695,0.0756,265.755,-162.750,2.800,423,420,378,416,400,2025-05-27T11:32:27.719209
18695,-0.8184,1.7051,0.0249,241.010,-133.945,39.375,413,414,388,392,358,2025-05-27T11:32:27.719209
18696,-0.7574,1.6543,-0.0654,218.680,-109.690,62.195,400,359,382,362,336,2025-05-27T11:32:27.719209
18697,-0.7471,1.6055,-0.1747,197.155,-93.135,87.430,419,402,378,337,380,2025-05-27T11:32:27.719209
18698,-0.7979,1.5743,-0.2274,178.990,-91.035,107.135,417,388,383,382,415,2025-05-27T11:32:27.719209
18699,-0.7369,1.5026,-0.2469,165.515,-102.025,123.725,399,408,356,356,414,2025-05-27T11:32:27.719209
18700,-0.6422,1.3630,-0.2274,148.225,-116.445,136.955,356,365,371,394,417,2025-05-27T11:32:27.719209
18701,-0.4987,1.1976,-0.2333,130.340,-125.580,146.370,401,413,386,386,420,2025-05-27T11:32:27.719209
18702,-0.3543,1.0541,-0.2367,110.635,-131.880,151.830,393,338,390,403,416,2025-05-27T11:32:27.719209
18703,-0.1371,0.9116,-0.2176,90.895,-126.455,153.440,297,394,396,398,397,2025-05-27T11:32:27.719209
18704,0.0766,0.7857,-0.2255,68.180,-105.945,151.760,381,401,384,414,355,2025-05-27T11:32:27.769485
18705,0.2342,0.6183,-0.2133,43.575,-75.600,144.130,411,394,389,408,391,2025-05-27T11:32:27.769485
18706,0.3440,0.4660,-0.1488,17.185,-42.700,130.445,396,396,381,422,410,2025-05-27T11:32:27.769485
18707,0.3675,0.3343,-0.0961,-7.700,-11.165,111.090,421,402,386,421,406,2025-05-27T11:32:27.769485
18708,0.3070,0.2172,-0.0908,-22.050,9.135,87.780,434,430,377,390,412,2025-05-27T11:32:27.819081
18709,0.2625,0.1283,-0.1098,-28.700,13.615,64.715,350,302,386,348,410,2025-05-27T11:32:27.819081
18710,0.2211,0.0864,-0.1557,-24.780,9.765,41.825,375,382,388,399,395,2025-05-27T11:32:27.819081
18711,0.1718,0.0678,-0.1493,-15.890,3.920,23.765,392,379,389,407,406,2025-05-27T11:32:27.819081
18712,0.1249,0.0893,-0.0615,-7.385,0.280,-0.490,416,420,389,401,394,2025-05-27T11:32:28.069209
18713,0.1181,0.1767,0.0239,-1.610,2.100,-21.455,377,338,375,385,406,2025-05-27T11:32:28.069209
18714,0.1118,0.2786,0.0932,0.840,8.120,-36.050,413,379,379,386,393,2025-05-27T11:32:28.069209
18715,0.0752,0.4241,0.1161,2.590,14.210,-44.240,416,373,376,395,396,2025-05-27T11:32:28.069209
18716,0.0395,0.6027,0.1332,3.990,22.645,-47.215,394,369,371,411,408,2025-05-27T11:32:28.069209
18717,-0.0420,0.7135,0.1976,4.830,30.100,-49.105,419,385,371,397,398,2025-05-27T11:32:28.069209
18718,-0.1728,0.8496,0.3733,6.650,29.925,-49.665,350,399,374,406,354,2025-05-27T11:32:28.069209
18719,-0.2923,0.9809,0.2913,10.045,20.580,-48.020,397,395,373,392,380,2025-05-27T11:32:28.069209
18720,-0.3845,1.0731,0.3231,12.985,5.950,-45.990,396,393,370,345,378,2025-05-27T11:32:28.069209
18721,-0.4216,1.1570,0.3440,16.380,-6.650,-43.225,424,418,387,391,386,2025-05-27T11:32:28.069209
18722,-0.4099,1.1956,0.3440,19.320,-19.810,-40.425,375,395,387,384,350,2025-05-27T11:32:28.069209
18723,-0.3826,1.1976,0.3523,19.215,-26.110,-37.030,294,412,380,410,395,2025-05-27T11:32:28.069209
18724,-0.3509,1.1639,0.3645,17.185,-26.040,-34.510,394,444,386,377,391,2025-05-27T11:32:28.069209
18725,-0.2855,1.0663,0.3533,13.825,-22.960,-31.605,391,430,397,382,407,2025-05-27T11:32:28.069209
18726,-0.2347,0.9082,0.2869,10.885,-18.935,-29.085,424,405,390,388,404,2025-05-27T11:32:28.069209
18727,-0.1166,0.7042,0.2113,7.245,-12.600,-31.185,411,418,393,391,399,2025-05-27T11:32:28.069209
18728,-0.0322,0.4514,0.1030,1.925,3.920,-42.280,423,392,393,408,365,2025-05-27T11:32:28.069209
18729,0.0590,0.2181,-0.0239,-4.620,27.125,-58.065,411,337,392,368,354,2025-05-27T11:32:28.069209
18730,0.0791,-0.1254,-0.0747,-10.570,50.295,-84.560,344,397,378,410,377,2025-05-27T11:32:28.069209
18731,-0.0620,-0.4665,-0.0361,-17.150,61.495,-119.665,388,395,343,395,399,2025-05-27T11:32:28.069209
18732,-0.2611,-0.7422,0.0390,-16.520,49.630,-157.920,394,397,364,396,406,2025-05-27T11:32:28.169228
18733,-0.4587,-0.9902,0.1069,-7.105,12.425,-192.220,421,414,371,389,399,2025-05-27T11:32:28.169228
18734,-0.5885,-1.0053,0.2279,15.400,-28.210,-220.080,401,412,376,356,408,2025-05-27T11:32:28.169228
18735,-0.5929,-0.8921,0.3592,44.940,-77.700,-247.205,394,365,382,378,403,2025-05-27T11:32:28.169228
18736,-0.6583,-0.6246,0.5783,71.610,-89.320,-279.615,391,383,371,390,368,2025-05-27T11:32:28.169228
18737,-0.7154,-0.3582,0.7989,92.365,-87.430,-306.915,360,336,370,388,398,2025-05-27T11:32:28.169228
18738,-0.8296,-0.0327,1.0067,105.490,-79.905,-336.385,366,386,389,404,354,2025-05-27T11:32:28.302363
18739,-1.1419,0.5944,1.1902,120.750,-72.765,-358.190,417,408,356,394,335,2025-05-27T11:32:28.302363
18740,-1.4425,1.0238,1.2986,124.565,-79.135,-360.710,392,423,373,340,325,2025-05-27T11:32:28.302363
18741,-1.6992,1.4079,1.4464,109.620,-89.775,-345.415,405,428,377,368,368,2025-05-27T11:32:28.302363
18742,-2.1438,1.7627,1.5152,92.575,-99.330,-318.710,399,419,375,381,397,2025-05-27T11:32:28.302363
18743,-2.7562,2.1526,1.4396,72.660,-117.215,-290.920,389,406,384,414,397,2025-05-27T11:32:28.302363
18744,-3.3604,2.6264,1.1878,57.225,-165.725,-271.600,382,351,373,396,408,2025-05-27T11:32:28.302363
18745,-3.5961,3.0393,0.8555,47.005,-234.395,-242.130,337,365,375,415,408,2025-05-27T11:32:28.302363
18746,-3.4799,3.0446,0.7422,27.335,-278.180,-208.810,391,400,374,419,406,2025-05-27T11:32:28.302363
18747,-3.3540,3.0773,0.7354,-0.665,-280.315,-147.070,391,399,333,410,371,2025-05-27T11:32:28.302363
18748,-3.5336,3.1193,0.6793,-28.805,-286.300,-76.930,421,396,353,407,396,2025-05-27T11:32:28.302363
18749,-3.7986,3.2198,0.4709,-46.340,-332.430,-11.585,427,396,357,411,383,2025-05-27T11:32:28.302363
18750,-3.6771,3.4790,0.0893,-66.010,-383.215,44.730,404,340,327,390,404,2025-05-27T11:32:28.302363
18751,-3.2520,3.6498,-0.3889,-79.870,-401.520,100.450,389,386,347,389,415,2025-05-27T11:32:28.302363
18752,-2.7592,3.8713,-0.8477,-87.920,-392.350,164.360,421,385,361,395,403,2025-05-27T11:32:28.584962
18753,-2.5762,4.1280,-1.3064,-106.645,-357.070,233.940,401,332,362,372,393,2025-05-27T11:32:28.584962
18754,-2.5547,4.1334,-1.7778,-153.405,-305.200,284.235,387,373,366,296,397,2025-05-27T11:32:28.584962
18755,-3.1403,3.9167,-2.1950,-221.480,-260.680,327.775,401,400,348,376,395,2025-05-27T11:32:28.584962
18756,-4.1651,3.6302,-2.7918,-292.495,-275.660,359.205,397,392,363,339,386,2025-05-27T11:32:28.585447
18757,-5.4529,2.9485,-3.2432,-329.770,-327.845,409.325,349,423,382,392,405,2025-05-27T11:32:28.585447
18758,-6.5465,2.1267,-3.8025,-326.130,-403.830,503.720,401,429,378,411,395,2025-05-27T11:32:28.585519
18759,-6.6051,1.2283,-3.7025,-308.945,-423.185,630.665,425,403,375,396,358,2025-05-27T11:32:28.585539
18760,-6.7534,0.3562,-3.4375,-302.890,-352.940,747.040,400,404,385,387,393,2025-05-27T11:32:28.585574
18761,-7.0028,-0.4748,-3.0593,-310.590,-231.140,828.940,398,420,343,408,411,2025-05-27T11:32:28.585574
18762,-7.4932,-1.5050,-2.8089,-313.880,-152.460,872.025,392,404,366,356,371,2025-05-27T11:32:28.585646
18763,-7.7499,-2.7089,-2.6703,-290.185,-165.655,891.625,410,433,376,392,348,2025-05-27T11:32:28.585646
18764,-7.2463,-3.4326,-2.3883,-248.115,-212.450,879.480,422,419,381,384,349,2025-05-27T11:32:28.585646
18765,-6.2840,-4.0114,-2.0608,-189.000,-237.160,845.145,416,383,341,382,339,2025-05-27T11:32:28.585782
18766,-5.1679,-4.7087,-1.7939,-116.480,-225.540,806.330,390,413,370,345,323,2025-05-27T11:32:28.585782
18767,-3.9416,-4.9527,-1.3474,-56.210,-170.240,755.895,412,430,390,333,370,2025-05-27T11:32:28.585782
18768,-2.9470,-4.9625,-0.9287,10.360,-82.390,700.630,408,419,374,372,400,2025-05-27T11:32:28.585782
18769,-2.2297,-4.7780,-0.5358,52.850,-5.950,641.900,376,366,383,394,393,2025-05-27T11:32:28.585782
18770,-1.9515,-4.4628,0.0913,61.670,73.675,591.465,381,404,393,394,389,2025-05-27T11:32:28.735733
18771,-1.7373,-4.2646,0.4534,59.710,92.540,530.320,404,426,351,410,346,2025-05-27T11:32:28.735733
18772,-1.3547,-3.9596,0.7120,67.235,65.345,472.850,426,383,355,407,377,2025-05-27T11:32:28.735733
18773,-0.9199,-3.5268,0.9618,77.140,50.085,407.155,393,414,299,387,384,2025-05-27T11:32:28.735733
18774,-0.5729,-3.0646,1.0692,77.665,66.115,340.200,381,413,332,373,376,2025-05-27T11:32:29.519333
18775,-0.3192,-2.6845,1.2498,69.265,99.015,278.810,399,400,355,401,399,2025-05-27T11:32:29.519333
18776,-0.3172,-2.3858,1.4864,56.980,131.425,223.405,409,419,360,392,387,2025-05-27T11:32:29.519333
18777,-0.4534,-2.1340,1.5187,47.565,142.730,171.815,420,428,334,389,398,2025-05-27T11:32:29.519333
18778,-0.5793,-1.8407,1.4742,54.390,139.055,120.400,345,423,352,354,400,2025-05-27T11:32:29.519333
18779,-0.6886,-1.4703,1.3571,70.805,132.895,79.520,364,357,322,395,351,2025-05-27T11:32:29.519333
18780,-0.7613,-1.2444,1.2302,91.420,134.715,32.760,401,397,348,417,366,2025-05-27T11:32:29.519333
18781,-0.8940,-1.0682,1.1902,110.495,144.900,-3.115,401,398,373,401,373,2025-05-27T11:32:29.519333
18782,-0.9516,-0.9472,1.1727,130.795,147.840,-28.490,411,403,375,401,399,2025-05-27T11:32:29.519333
18783,-1.1068,-0.8740,1.1507,147.245,143.535,-50.610,386,414,339,411,396,2025-05-27T11:32:29.519333
18784,-1.2005,-0.7828,1.1014,169.645,126.490,-70.000,419,416,373,411,387,2025-05-27T11:32:29.519333
18785,-1.2049,-0.7286,1.0297,196.700,103.145,-88.795,391,423,375,393,396,2025-05-27T11:32:29.519333
18786,-1.1175,-0.6037,0.9194,225.260,76.895,-102.095,412,427,335,407,403,2025-05-27T11:32:29.519333
18787,-0.9643,-0.5109,0.7657,252.560,69.755,-117.950,416,419,360,412,394,2025-05-27T11:32:29.519333
18788,-0.8657,-0.4494,0.6432,276.535,76.300,-127.470,385,404,374,404,393,2025-05-27T11:32:29.519333
18789,-0.8316,-0.3328,0.5924,299.635,81.305,-133.945,335,420,341,407,380,2025-05-27T11:32:29.519333
18790,-0.8682,-0.2137,0.6261,318.675,78.295,-140.910,378,381,360,418,403,2025-05-27T11:32:29.519333
18791,-0.9858,-0.1259,0.5627,333.060,65.205,-147.700,379,425,376,378,392,2025-05-27T11:32:29.519333
18792,-1.1488,-0.0859,0.4743,352.730,35.560,-152.705,339,384,375,404,404,2025-05-27T11:32:29.519333
18793,-1.2137,-0.0102,0.4075,375.445,1.435,-154.770,354,423,370,354,406,2025-05-27T11:32:29.519333
18794,-1.1976,0.0581,0.4168,394.695,-40.215,-155.470,332,398,333,293,390,2025-05-27T11:32:29.519333
18795,-1.1468,0.1279,0.3743,407.190,-68.775,-157.850,417,417,347,312,348,2025-05-27T11:32:29.519333
18796,-1.0219,0.2113,0.2674,411.495,-87.290,-158.935,378,432,329,365,391,2025-05-27T11:32:29.519333
18797,-0.9394,0.3436,0.1815,416.010,-89.040,-156.870,392,432,313,401,399,2025-05-27T11:32:29.519333
18798,-1.0033,0.4119,0.1171,418.285,-82.775,-154.000,414,415,354,357,393,2025-05-27T11:32:29.519333
18799,-1.0785,0.4246,0.1396,419.860,-80.290,-148.680,416,414,371,400,359,2025-05-27T11:32:29.519333
18800,-1.0824,0.5729,0.1532,413.385,-84.070,-136.500,398,385,371,407,370,2025-05-27T11:32:29.519333
18801,-1.0795,0.7837,0.2069,399.315,-90.650,-117.145,406,389,370,419,379,2025-05-27T11:32:29.519333
18802,-1.0814,0.9633,0.1913,382.445,-100.065,-98.245,403,394,351,352,393,2025-05-27T11:32:29.519333
18803,-1.0770,1.0160,0.1332,367.255,-112.735,-72.695,415,417,365,334,399,2025-05-27T11:32:29.519333
18804,-1.1688,1.1497,0.0473,351.330,-127.365,-51.870,398,400,363,393,388,2025-05-27T11:32:29.519333
18805,-1.2234,1.2712,0.0259,334.145,-146.755,-35.175,390,342,373,406,406,2025-05-27T11:32:29.519333
18806,-1.1629,1.3713,-0.0044,315.000,-166.565,-16.415,412,343,371,387,388,2025-05-27T11:32:29.519333
18807,-1.0804,1.3874,-0.0059,298.095,-180.775,3.710,419,377,378,404,393,2025-05-27T11:32:29.519333
18808,-0.9784,1.3522,-0.0434,275.345,-182.770,23.870,396,421,373,346,382,2025-05-27T11:32:29.519333
18809,-0.8428,1.3596,-0.1176,251.580,-174.195,44.835,425,348,376,380,358,2025-05-27T11:32:29.519333
18810,-0.6812,1.3386,-0.1859,226.765,-151.970,70.420,424,368,373,405,385,2025-05-27T11:32:29.519333
18811,-0.5544,1.3308,-0.2367,199.290,-119.245,81.410,421,390,369,408,402,2025-05-27T11:32:29.519333
18812,-0.5841,1.2654,-0.2011,170.765,-88.725,99.680,375,414,348,409,403,2025-05-27T11:32:29.519333
18813,-0.6168,1.1858,-0.1932,148.715,-75.845,116.480,407,400,326,399,407,2025-05-27T11:32:29.519333
18814,-0.6144,1.1366,-0.2430,131.635,-80.465,132.895,392,380,349,400,397,2025-05-27T11:32:29.519333
18815,-0.5588,1.0663,-0.2982,119.945,-91.665,145.635,406,403,369,344,343,2025-05-27T11:32:29.519333
18816,-0.4465,0.9775,-0.3289,105.700,-102.340,153.615,423,404,373,390,388,2025-05-27T11:32:29.519333
18817,-0.2972,0.8589,-0.2801,91.000,-107.345,156.870,426,422,391,386,388,2025-05-27T11:32:29.519333
18818,-0.1552,0.7491,-0.2557,78.050,-107.030,157.465,411,390,388,364,404,2025-05-27T11:32:29.519333
18819,-0.0024,0.6656,-0.2401,67.165,-102.865,155.190,400,343,378,409,399,2025-05-27T11:32:29.519333
18820,0.1313,0.6071,-0.2230,57.505,-96.005,149.555,386,398,339,392,387,2025-05-27T11:32:29.519333
18821,0.2235,0.5124,-0.1996,48.265,-85.715,138.985,381,403,358,408,346,2025-05-27T11:32:29.519333
18822,0.2625,0.4026,-0.1693,42.070,-77.140,124.845,421,422,370,412,384,2025-05-27T11:32:29.519333
18823,0.3133,0.3157,-0.1274,40.460,-73.640,105.035,360,347,369,386,411,2025-05-27T11:32:29.519333
18824,0.3362,0.2796,-0.0874,39.725,-72.625,79.800,380,409,367,387,409,2025-05-27T11:32:29.519333
18825,0.3948,0.2786,-0.0864,39.165,-67.655,50.540,409,404,335,401,395,2025-05-27T11:32:29.519333
18826,0.4558,0.3152,-0.0698,34.825,-55.440,19.810,406,415,360,359,404,2025-05-27T11:32:29.519333
18827,0.4577,0.3743,-0.0161,26.390,-36.295,-3.115,411,425,358,385,391,2025-05-27T11:32:29.519333
18828,0.4006,0.4021,-0.0220,17.500,-20.685,-28.000,426,435,371,396,413,2025-05-27T11:32:29.519333
18829,0.2430,0.4714,0.0000,11.200,-15.365,-49.700,411,415,367,406,406,2025-05-27T11:32:29.519333
18830,0.0878,0.5861,0.0303,8.820,-19.040,-69.335,428,388,382,394,405,2025-05-27T11:32:29.519333
18831,-0.0059,0.6866,0.0522,6.510,-24.640,-85.365,408,429,383,397,353,2025-05-27T11:32:29.519333
18832,-0.0815,0.7603,0.0903,4.900,-29.120,-96.180,424,401,372,358,335,2025-05-27T11:32:29.519333
18833,-0.1200,0.7896,0.0849,5.670,-33.075,-100.170,418,302,377,385,382,2025-05-27T11:32:29.519333
18834,-0.1425,0.7818,0.0752,8.645,-38.010,-99.330,366,405,373,394,401,2025-05-27T11:32:29.519333
18835,-0.1708,0.7647,0.0795,9.520,-37.695,-99.120,385,420,388,351,384,2025-05-27T11:32:29.519333
18836,-0.1279,0.6822,0.0776,6.265,-29.750,-103.600,389,406,375,380,406,2025-05-27T11:32:29.519333
18837,-0.0883,0.5768,0.0878,-2.765,-11.620,-113.015,420,428,342,405,404,2025-05-27T11:32:29.519333
18838,-0.1669,0.4050,0.2103,-12.460,7.525,-126.525,384,350,369,416,395,2025-05-27T11:32:29.519333
18839,-0.3392,0.1850,0.3245,-19.320,10.045,-140.525,405,405,379,399,401,2025-05-27T11:32:29.519333
18840,-0.5466,0.0503,0.4465,-12.880,-6.090,-154.035,341,411,385,400,401,2025-05-27T11:32:29.519333
18841,-0.6934,0.0000,0.4870,3.955,-36.610,-165.585,388,390,389,384,391,2025-05-27T11:32:29.519333
18842,-0.7457,-0.0122,0.4358,24.080,-76.440,-181.965,393,414,381,383,396,2025-05-27T11:32:29.519333
18843,-0.6915,0.0761,0.5202,38.010,-107.800,-201.670,369,416,377,384,390,2025-05-27T11:32:29.519333
18844,-0.6710,0.1937,0.7579,46.340,-121.870,-227.150,395,425,376,397,384,2025-05-27T11:32:29.519333
18845,-0.7901,0.3260,0.8945,52.220,-135.625,-252.175,400,384,375,407,401,2025-05-27T11:32:29.519333
18846,-1.0326,0.5319,0.8989,53.795,-161.105,-274.190,418,428,377,398,347,2025-05-27T11:32:29.519333
18847,-1.1790,0.7886,1.0609,55.265,-209.580,-289.345,418,425,371,382,375,2025-05-27T11:32:29.519333
18848,-1.2229,1.1058,1.2932,46.550,-256.095,-305.795,406,437,365,402,389,2025-05-27T11:32:29.519333
18849,-1.2727,1.6036,1.4147,26.565,-285.600,-320.040,419,408,383,397,412,2025-05-27T11:32:29.519333
18850,-1.3967,2.1038,1.4469,-1.785,-297.815,-329.805,414,424,389,406,407,2025-05-27T11:32:29.519333
18851,-1.5714,2.4922,1.4625,-25.655,-303.275,-336.665,415,430,395,398,391,2025-05-27T11:32:29.519333
18852,-1.9154,2.7328,1.5626,-54.845,-302.995,-342.475,418,430,392,370,415,2025-05-27T11:32:29.519333
18853,-2.2116,3.0500,1.5455,-84.140,-300.895,-329.840,404,362,393,396,413,2025-05-27T11:32:29.785539
18854,-2.7465,3.1388,1.4962,-102.900,-314.860,-281.085,412,416,385,393,410,2025-05-27T11:32:29.785539
18855,-3.3682,3.2408,1.4015,-113.470,-357.630,-210.140,421,386,377,407,417,2025-05-27T11:32:29.785539
18856,-3.8791,3.4775,1.0590,-109.830,-435.470,-158.060,396,374,385,385,408,2025-05-27T11:32:29.785539
18857,-3.6400,3.6336,0.6456,-103.600,-477.925,-85.365,391,385,385,395,411,2025-05-27T11:32:29.785539
18858,-3.2511,3.6171,0.3538,-98.455,-428.540,0.595,411,420,382,394,419,2025-05-27T11:32:29.785539
18859,-3.4428,3.7308,0.2235,-90.545,-350.735,95.410,395,415,394,405,415,2025-05-27T11:32:29.785539
18860,-3.9279,3.7332,-0.0586,-86.940,-324.275,187.635,395,413,392,378,411,2025-05-27T11:32:29.785539
18861,-4.4027,3.4790,-0.6383,-80.710,-347.725,277.095,415,413,385,397,402,2025-05-27T11:32:29.785539
18862,-4.6277,3.2584,-1.3220,-80.395,-362.180,366.240,346,404,384,416,380,2025-05-27T11:32:29.785539
18863,-5.3797,2.7821,-1.6285,-93.275,-347.305,454.580,382,424,389,403,375,2025-05-27T11:32:29.785539
18864,-6.0410,2.0618,-1.9027,-101.675,-338.905,540.645,412,407,374,402,401,2025-05-27T11:32:29.785539
18865,-6.3801,1.3796,-2.2292,-87.675,-343.105,650.685,393,412,386,357,389,2025-05-27T11:32:29.785539
18866,-6.3259,0.6588,-2.1194,-59.045,-341.635,734.020,387,422,389,392,403,2025-05-27T11:32:29.785539
18867,-6.1595,0.1093,-1.9310,-47.740,-277.060,796.285,418,435,351,401,409,2025-05-27T11:32:29.785539
18868,-6.6280,-0.6022,-1.5797,-48.615,-182.805,836.220,409,402,375,408,357,2025-05-27T11:32:29.785539
18869,-7.3332,-1.3688,-1.4396,-54.495,-120.435,859.460,425,408,383,389,368,2025-05-27T11:32:29.785539
18870,-7.8148,-2.2306,-1.2703,-53.970,-121.415,883.120,425,419,367,388,350,2025-05-27T11:32:29.785539
18871,-7.6133,-2.9109,-0.8603,-43.260,-166.425,901.635,414,409,373,390,379,2025-05-27T11:32:29.785539
18872,-6.7266,-3.3882,-0.6827,-29.715,-165.690,908.145,416,423,384,394,360,2025-05-27T11:32:29.840723
18873,-5.8716,-3.8415,-0.4656,-25.760,-96.635,877.205,434,407,382,388,337,2025-05-27T11:32:29.840723
18874,-5.1069,-4.1695,-0.3597,-6.755,-27.755,824.285,413,417,380,344,365,2025-05-27T11:32:29.840723
18875,-4.5160,-4.5384,-0.1069,25.165,12.110,770.210,421,393,392,392,364,2025-05-27T11:32:29.840723
18876,-3.6859,-4.9215,0.1435,69.090,31.920,732.970,382,415,389,399,378,2025-05-27T11:32:29.840723
18877,-2.8909,-5.1113,0.3514,102.340,53.725,689.325,354,416,391,401,397,2025-05-27T11:32:29.840723
18878,-2.1267,-4.9337,0.6256,115.710,91.490,638.435,399,424,388,373,405,2025-05-27T11:32:29.840723
18879,-1.2366,-4.7160,0.7989,117.810,138.670,573.650,403,415,377,387,403,2025-05-27T11:32:29.969400
18880,-0.5998,-4.3744,0.9233,117.600,178.360,493.045,386,418,388,402,369,2025-05-27T11:32:29.969400
18881,-0.3279,-3.7722,0.9780,126.805,212.695,399.210,419,340,397,393,335,2025-05-27T11:32:29.969400
18882,-0.2884,-3.0720,1.0394,150.920,238.805,321.055,386,389,384,417,377,2025-05-27T11:32:29.969400
18883,-0.4948,-2.8753,1.2747,172.515,258.300,223.230,410,397,384,317,388,2025-05-27T11:32:29.969400
18884,-0.6041,-2.4727,1.6099,181.230,258.790,135.380,391,420,341,363,384,2025-05-27T11:32:29.969400
18885,-0.7686,-2.2477,1.6655,194.180,231.910,64.225,370,409,367,383,344,2025-05-27T11:32:29.969400
18886,-0.9267,-1.9481,1.6250,219.205,187.670,2.415,419,426,340,385,393,2025-05-27T11:32:29.969400
18887,-0.9189,-1.6563,1.4586,237.090,147.350,-54.530,409,395,359,400,406,2025-05-27T11:32:29.969400
18888,-0.9072,-1.3137,1.1883,266.910,128.450,-101.780,391,403,359,395,406,2025-05-27T11:32:29.969400
18889,-0.9311,-0.9638,0.9135,292.740,126.315,-141.540,423,405,378,400,403,2025-05-27T11:32:29.969400
18890,-0.9936,-0.6969,0.7139,314.650,135.135,-166.460,408,395,388,405,392,2025-05-27T11:32:30.168657
18891,-1.2015,-0.4104,0.6847,330.085,143.290,-188.300,399,420,390,371,397,2025-05-27T11:32:30.168657
18892,-1.4577,-0.3323,0.7188,345.415,133.700,-198.555,408,410,357,399,385,2025-05-27T11:32:30.168657
18893,-1.6943,-0.2030,0.6988,364.875,102.410,-200.410,385,429,367,407,385,2025-05-27T11:32:30.168657
18894,-1.8754,-0.0986,0.5739,386.645,52.605,-200.340,410,408,372,393,342,2025-05-27T11:32:30.168657
18895,-1.8920,0.0288,0.4548,404.635,-0.770,-201.075,409,396,378,352,382,2025-05-27T11:32:30.168657
18896,-1.6958,0.1401,0.3035,422.345,-34.475,-201.880,416,406,376,391,408,2025-05-27T11:32:30.168657
18897,-1.5377,0.2303,0.1625,432.215,-58.065,-201.075,395,431,374,395,396,2025-05-27T11:32:30.168657
18898,-1.3708,0.2377,0.0815,431.025,-65.905,-198.590,360,417,380,348,351,2025-05-27T11:32:30.168657
18899,-1.3562,0.2401,0.1205,425.950,-68.005,-191.415,379,399,381,392,381,2025-05-27T11:32:30.168657
18900,-1.4425,0.2313,0.1693,426.755,-66.465,-175.770,386,399,382,410,389,2025-05-27T11:32:30.168657
18901,-1.4840,0.2708,0.2001,428.295,-76.615,-158.060,391,397,379,351,395,2025-05-27T11:32:30.168657
18902,-1.5357,0.3997,0.0956,428.750,-93.905,-141.575,387,419,383,383,401,2025-05-27T11:32:30.168657
18903,-1.4869,0.5836,0.0102,425.390,-113.330,-125.895,420,406,351,386,412,2025-05-27T11:32:30.168657
18904,-1.3893,0.7418,-0.0195,412.475,-128.345,-115.570,350,398,339,392,392,2025-05-27T11:32:30.168657
18905,-1.3542,0.8184,-0.0268,399.175,-139.930,-100.240,408,420,317,409,414,2025-05-27T11:32:30.423099
18906,-1.4040,0.8979,-0.0776,378.875,-156.940,-88.270,395,413,359,393,406,2025-05-27T11:32:30.423099
18907,-1.4123,0.9692,-0.0224,366.695,-177.450,-68.705,369,415,356,404,372,2025-05-27T11:32:30.423099
18908,-1.4103,1.0087,-0.0839,350.420,-194.355,-46.095,407,401,374,397,395,2025-05-27T11:32:30.423099
18909,-1.3010,1.1497,-0.1366,332.080,-198.520,-21.735,335,392,343,388,393,2025-05-27T11:32:30.423099
18910,-1.1722,1.2600,-0.1815,310.065,-192.430,2.275,381,419,325,405,413,2025-05-27T11:32:30.423099
18911,-1.0936,1.3132,-0.1952,291.725,-178.815,23.310,391,422,356,393,405,2025-05-27T11:32:30.423099
18912,-1.0199,1.3005,-0.2103,270.200,-167.405,42.070,412,419,357,388,392,2025-05-27T11:32:30.423099
18913,-0.9838,1.2937,-0.2962,252.805,-156.170,59.325,375,417,380,375,383,2025-05-27T11:32:30.423099
18914,-1.0297,1.2810,-0.3592,237.860,-156.940,72.205,409,418,377,391,399,2025-05-27T11:32:30.423099
18915,-0.9248,1.2527,-0.2938,220.045,-164.150,89.705,387,416,346,367,389,2025-05-27T11:32:30.423099
18916,-0.7710,1.2371,-0.2245,198.835,-163.800,110.390,411,410,365,378,346,2025-05-27T11:32:30.423099
18917,-0.6437,1.1629,-0.2020,175.140,-154.070,129.010,410,372,371,400,341,2025-05-27T11:32:30.423099
18918,-0.5353,1.0843,-0.2699,156.380,-139.860,144.130,410,364,336,397,374,2025-05-27T11:32:30.423099
18919,-0.4382,0.9980,-0.3484,137.795,-130.060,154.420,419,393,367,410,365,2025-05-27T11:32:30.423099
18920,-0.2645,0.9165,-0.3792,124.425,-120.400,160.370,410,393,378,407,373,2025-05-27T11:32:30.423099
18921,-0.3192,0.8203,-0.3777,113.155,-113.820,161.175,414,422,377,399,394,2025-05-27T11:32:30.423099
18922,-0.2328,0.7276,-0.3440,102.655,-110.425,158.165,413,400,375,416,406,2025-05-27T11:32:30.423099
18923,-0.1171,0.6017,-0.3318,90.650,-109.410,150.640,344,379,384,353,414,2025-05-27T11:32:30.423099
18924,0.0156,0.5129,-0.3314,76.860,-105.525,139.965,332,296,390,355,392,2025-05-27T11:32:30.884132
18925,0.1464,0.4387,-0.3221,62.615,-97.370,126.630,404,281,391,327,384,2025-05-27T11:32:30.884132
18926,0.2352,0.3762,-0.3426,52.080,-88.060,111.160,415,394,389,374,406,2025-05-27T11:32:30.884132
18927,0.3309,0.3060,-0.3318,39.445,-76.930,92.540,408,427,388,388,373,2025-05-27T11:32:30.884132
18928,0.3489,0.2176,-0.3157,27.895,-66.850,71.575,403,406,382,385,397,2025-05-27T11:32:30.884132
18929,0.3972,0.1322,-0.3001,16.520,-56.700,49.665,398,370,375,381,391,2025-05-27T11:32:30.884132
18930,0.3816,0.0874,-0.2713,7.210,-47.110,30.625,402,419,363,391,403,2025-05-27T11:32:30.884132
18931,0.3216,0.0556,-0.2011,-0.525,-40.425,4.025,407,412,380,354,352,2025-05-27T11:32:30.884132
18932,0.2772,0.0630,-0.1430,-5.600,-36.750,-20.930,419,422,349,391,389,2025-05-27T11:32:30.884132
18933,0.2704,0.1488,-0.0942,-10.465,-32.060,-42.315,421,396,295,390,388,2025-05-27T11:32:30.884132
18934,0.2362,0.2777,-0.0283,-13.965,-23.730,-59.920,402,342,347,403,403,2025-05-27T11:32:30.884132
18935,0.1893,0.4773,0.0351,-15.225,-14.840,-75.075,396,404,326,414,415,2025-05-27T11:32:30.884132
18936,0.1230,0.7100,0.1059,-14.105,-5.425,-89.880,418,413,358,410,422,2025-05-27T11:32:30.884132
18937,0.0088,0.8877,0.1810,-5.915,-1.575,-97.965,423,394,372,400,412,2025-05-27T11:32:30.884132
18938,-0.1225,1.1858,0.1815,2.695,3.430,-101.010,379,409,378,400,372,2025-05-27T11:32:30.884132
18939,-0.2211,1.4908,0.1679,11.480,1.365,-96.670,373,413,373,415,378,2025-05-27T11:32:30.884132
18940,-0.2328,1.7914,0.1371,17.640,-0.980,-83.860,410,417,387,400,357,2025-05-27T11:32:30.884132
18941,-0.2928,1.9217,0.1732,19.565,1.330,-67.970,339,393,391,391,375,2025-05-27T11:32:30.884132
18942,-0.4055,1.9408,0.2464,15.260,4.585,-56.385,399,419,372,367,376,2025-05-27T11:32:30.884132
18943,-0.5007,1.8890,0.2757,6.720,0.630,-42.595,384,367,363,394,362,2025-05-27T11:32:30.884132
18944,-0.5519,1.7470,0.2538,-3.780,-10.605,-27.545,388,402,374,398,378,2025-05-27T11:32:30.884132
18945,-0.5646,1.5514,0.1654,-10.675,-27.895,-12.320,355,392,385,412,399,2025-05-27T11:32:30.884132
18946,-0.5397,1.3191,0.0791,-16.275,-45.780,-0.350,324,423,383,401,390,2025-05-27T11:32:30.884132
18947,-0.4016,1.0521,0.0215,-20.020,-55.510,5.145,404,431,382,416,359,2025-05-27T11:32:30.884132
18948,-0.2191,0.7344,-0.0932,-23.730,-55.020,4.900,414,419,371,389,390,2025-05-27T11:32:30.884132
18949,0.0346,0.4602,-0.2250,-26.775,-40.355,-1.750,392,368,334,396,365,2025-05-27T11:32:30.884132
18950,0.2606,0.0532,-0.3636,-27.860,-19.495,-18.025,399,416,353,406,394,2025-05-27T11:32:30.884132
18951,0.3762,-0.4148,-0.5061,-27.825,-0.525,-47.215,298,392,363,396,391,2025-05-27T11:32:30.957699
18952,0.2674,-0.7725,-0.5871,-28.385,5.810,-90.545,361,393,375,408,363,2025-05-27T11:32:30.957699
18953,0.1449,-0.9399,-0.5295,-30.870,-0.035,-142.905,414,427,381,413,374,2025-05-27T11:32:30.957699
18954,0.0839,-1.0438,-0.3650,-30.275,-14.315,-193.830,410,437,377,392,403,2025-05-27T11:32:30.957699
18955,0.1396,-1.0385,-0.1313,-30.660,-22.260,-228.795,418,424,350,411,404,2025-05-27T11:32:30.957699
18956,0.0830,-0.9579,0.0883,-26.495,-18.550,-264.530,428,432,374,411,399,2025-05-27T11:32:30.957699
18957,-0.1244,-0.8433,0.3060,-14.525,-8.190,-300.440,416,375,339,396,350,2025-05-27T11:32:30.957699
18958,-0.4421,-0.6690,0.4782,2.835,3.045,-338.310,362,342,368,406,347,2025-05-27T11:32:30.957699
18959,-0.8228,-0.4870,0.7271,16.765,-3.080,-369.530,388,336,381,407,372,2025-05-27T11:32:30.957699
18960,-1.2015,-0.2484,1.1082,30.555,-19.110,-390.425,423,415,378,427,376,2025-05-27T11:32:30.957699
18961,-1.5387,0.0117,1.4264,36.715,-44.975,-402.885,421,399,377,392,344,2025-05-27T11:32:30.957699
18962,-1.7661,0.2508,1.6704,35.245,-63.420,-406.455,413,406,373,405,387,2025-05-27T11:32:30.957699
18963,-2.1692,0.4987,1.9315,22.540,-68.425,-402.290,397,399,385,405,382,2025-05-27T11:32:30.957699
18964,-2.6137,0.8013,2.2311,11.760,-72.555,-391.160,423,412,389,413,377,2025-05-27T11:32:30.957699
18965,-3.2769,1.1219,2.1960,6.510,-98.140,-376.145,413,401,395,412,382,2025-05-27T11:32:30.957699
18966,-3.8845,1.3815,2.2741,6.580,-172.760,-355.635,360,369,395,404,346,2025-05-27T11:32:30.957699
18967,-4.0621,1.6655,2.2087,10.255,-257.985,-325.465,412,340,382,375,369,2025-05-27T11:32:30.957699
18968,-4.0763,1.9793,2.1321,10.045,-307.090,-282.835,394,403,371,401,389,2025-05-27T11:32:30.957699
18969,-4.2222,2.3200,2.0169,5.985,-354.725,-240.695,417,416,305,387,398,2025-05-27T11:32:30.957699
18970,-4.2793,2.5796,1.8915,9.450,-396.655,-184.520,409,336,270,411,391,2025-05-27T11:32:31.069080
18971,-4.2432,2.7025,1.7134,16.380,-426.440,-123.445,400,398,323,416,409,2025-05-27T11:32:31.069080
18972,-3.9318,2.8202,1.4333,26.880,-424.865,-55.545,340,420,363,417,418,2025-05-27T11:32:31.069080
18973,-3.5590,2.6903,1.0180,31.080,-403.970,22.505,380,358,380,396,407,2025-05-27T11:32:31.069080
18974,-3.7054,3.3936,0.4704,36.365,-366.100,94.780,399,402,382,389,397,2025-05-27T11:32:31.069080
18975,-4.0284,3.5980,-0.1854,33.775,-369.110,164.430,340,403,375,393,403,2025-05-27T11:32:31.069080
18976,-4.0933,3.7527,-0.8799,21.245,-383.320,237.335,395,423,381,412,411,2025-05-27T11:32:31.069080
18977,-4.4857,3.6268,-1.5260,-9.975,-381.990,314.335,410,353,370,354,366,2025-05-27T11:32:31.069080
18978,-4.9308,3.3570,-2.0667,-42.105,-373.730,378.560,429,392,377,375,383,2025-05-27T11:32:31.069080
18979,-5.7965,2.6513,-2.6254,-65.345,-363.545,460.670,419,406,373,390,389,2025-05-27T11:32:31.069080
18980,-5.9951,1.8222,-2.9973,-75.145,-312.305,560.420,393,416,373,409,378,2025-05-27T11:32:31.170328
18981,-6.3845,1.1297,-2.9173,-99.085,-189.560,670.915,420,350,372,410,413,2025-05-27T11:32:31.170328
18982,-6.9828,0.6837,-3.0437,-137.515,-82.390,777.420,426,356,335,412,417,2025-05-27T11:32:31.170328
18983,-7.8309,-0.0996,-2.9680,-184.240,-79.625,851.025,421,409,350,416,361,2025-05-27T11:32:31.170328
18984,-8.3019,-1.2293,-2.9314,-213.990,-176.680,892.570,345,389,349,347,387,2025-05-27T11:32:31.170328
18985,-7.9388,-2.1316,-2.7660,-208.495,-280.245,905.275,400,420,359,375,393,2025-05-27T11:32:31.170328
18986,-7.3786,-3.0656,-2.3190,-175.700,-268.765,889.840,421,396,343,399,405,2025-05-27T11:32:31.170328
18987,-7.0048,-3.5004,-1.5670,-154.805,-177.205,874.475,424,422,363,397,412,2025-05-27T11:32:31.170328
18988,-7.0008,-4.2251,-0.9340,-135.135,-61.880,860.195,388,424,340,414,418,2025-05-27T11:32:31.268914
18989,-6.5153,-5.2631,-0.6334,-92.120,-24.255,859.600,406,399,360,358,367,2025-05-27T11:32:31.268914
18990,-5.1523,-5.7374,-0.2596,-20.510,-31.255,828.205,405,416,360,332,400,2025-05-27T11:32:31.268914
18991,-3.3706,-5.3846,-0.0590,66.080,-30.310,785.085,353,428,339,375,397,2025-05-27T11:32:31.268914
18992,-2.2150,-4.7907,0.1176,134.505,-5.810,711.830,383,421,375,375,397,2025-05-27T11:32:31.268914
18993,-1.5548,-4.0807,0.3982,155.470,62.405,629.195,404,433,377,376,413,2025-05-27T11:32:31.268914
18994,-1.3820,-3.7913,0.6159,142.520,142.065,556.080,386,431,338,358,396,2025-05-27T11:32:31.268914
18995,-1.3518,-3.6722,0.8579,109.795,181.510,491.960,417,421,354,398,356,2025-05-27T11:32:31.268914
18996,-1.3454,-3.4253,1.0824,84.210,189.700,429.170,300,418,363,339,378,2025-05-27T11:32:31.268914
18997,-1.3249,-3.0715,1.2127,74.270,171.185,360.675,384,409,377,369,378,2025-05-27T11:32:31.368843
18998,-1.2615,-2.6659,1.2712,78.750,153.195,319.865,342,423,367,387,385,2025-05-27T11:32:31.368843
18999,-1.1688,-2.3292,1.2995,92.330,147.210,258.615,391,418,383,342,397,2025-05-27T11:32:31.368843
19000,-1.1156,-2.2468,1.5753,92.855,156.695,195.405,386,424,393,377,409,2025-05-27T11:32:31.368843
19001,-0.9667,-1.9808,1.6773,88.095,157.850,144.410,407,421,386,413,414,2025-05-27T11:32:31.368843
19002,-0.9770,-1.8276,1.7422,97.755,142.275,101.115,412,418,354,356,357,2025-05-27T11:32:31.368843
19003,-0.8799,-1.5352,1.6734,98.630,121.520,56.560,421,342,371,382,381,2025-05-27T11:32:31.368843
19004,-0.7666,-1.1785,1.4352,117.040,114.555,6.860,420,379,364,391,379,2025-05-27T11:32:31.368843
19005,-0.6490,-0.8779,1.1702,137.970,127.610,-33.110,417,400,379,380,359,2025-05-27T11:32:31.419062
19006,-0.7076,-0.6154,1.0277,156.485,152.075,-67.725,397,425,373,397,370,2025-05-27T11:32:31.419062
19007,-0.9135,-0.4631,1.0287,173.775,158.235,-83.825,382,411,363,382,358,2025-05-27T11:32:31.419062
19008,-1.0741,-0.3333,0.9604,195.440,136.780,-102.235,408,396,379,336,381,2025-05-27T11:32:31.419062
19009,-1.1922,-0.2923,0.8603,220.360,104.580,-116.305,410,408,344,374,408,2025-05-27T11:32:31.668751
19010,-1.2464,-0.1757,0.7764,251.545,69.825,-128.870,419,416,328,395,385,2025-05-27T11:32:31.668751
19011,-1.2439,-0.0756,0.7042,279.545,40.460,-137.725,420,409,360,386,408,2025-05-27T11:32:31.668751
19012,-1.1917,-0.0215,0.5993,308.175,15.715,-143.850,406,395,361,402,408,2025-05-27T11:32:31.668751
19013,-1.1761,0.0522,0.5202,333.935,0.280,-146.685,422,426,335,406,369,2025-05-27T11:32:31.668751
19014,-1.1444,0.1327,0.4324,356.440,-14.385,-147.560,427,422,355,413,342,2025-05-27T11:32:31.668751
19015,-1.1473,0.1391,0.3192,369.845,-29.155,-146.510,345,434,373,389,381,2025-05-27T11:32:31.668751
19016,-1.2098,0.1869,0.2279,385.945,-43.400,-142.555,383,424,385,400,389,2025-05-27T11:32:31.668751
19017,-1.2283,0.1703,0.2050,396.620,-67.620,-137.340,395,420,390,349,392,2025-05-27T11:32:31.668751
19018,-1.1893,0.2552,0.2225,399.665,-95.235,-131.040,341,399,374,394,393,2025-05-27T11:32:31.668751
19019,-1.1761,0.4563,0.2713,399.070,-119.280,-121.695,409,397,378,414,389,2025-05-27T11:32:31.668751
19020,-1.1976,0.6437,0.1874,395.955,-143.920,-110.285,426,367,371,392,347,2025-05-27T11:32:31.668751
19021,-1.2210,0.7432,0.0254,392.035,-163.310,-100.485,431,376,383,399,363,2025-05-27T11:32:31.668751
19022,-1.3127,0.7584,-0.0966,388.395,-183.225,-93.415,400,393,389,406,340,2025-05-27T11:32:31.668751
19023,-1.3044,0.8164,-0.1225,381.430,-201.775,-86.660,372,428,388,309,352,2025-05-27T11:32:31.668751
19024,-1.2395,0.9072,-0.0952,369.775,-216.230,-73.675,414,416,378,370,395,2025-05-27T11:32:31.668751
19025,-1.1322,1.0380,-0.0708,354.060,-220.850,-57.365,418,375,373,399,401,2025-05-27T11:32:31.668751
19026,-1.0463,1.1658,-0.1220,336.455,-212.240,-40.215,412,337,369,389,392,2025-05-27T11:32:31.668751
19027,-0.9023,1.2747,-0.1718,320.425,-194.425,-21.700,431,402,378,400,347,2025-05-27T11:32:31.668751
19028,-0.8911,1.3410,-0.2137,301.035,-170.415,-1.750,425,406,381,341,369,2025-05-27T11:32:31.885792
19029,-0.9213,1.3630,-0.3016,281.680,-169.995,18.655,424,400,342,399,389,2025-05-27T11:32:31.885792
19030,-0.9389,1.4235,-0.3182,261.520,-174.265,37.870,416,371,320,350,402,2025-05-27T11:32:31.885792
19031,-0.9550,1.4913,-0.3518,241.780,-183.890,50.645,377,416,351,383,407,2025-05-27T11:32:31.885792
19032,-0.9267,1.5128,-0.3870,220.465,-189.560,65.135,384,418,374,390,399,2025-05-27T11:32:31.885792
19033,-0.7925,1.5089,-0.4026,195.545,-187.915,79.835,384,427,385,403,396,2025-05-27T11:32:31.885792
19034,-0.6944,1.4747,-0.3850,169.295,-176.400,92.995,411,431,394,390,392,2025-05-27T11:32:31.885792
19035,-0.6159,1.3957,-0.3948,147.140,-156.065,103.530,393,422,401,389,388,2025-05-27T11:32:31.885792
19036,-0.5129,1.3283,-0.4080,123.760,-140.175,114.310,376,416,362,366,370,2025-05-27T11:32:31.885792
19037,-0.3841,1.2327,-0.3870,103.355,-130.760,123.375,291,406,384,404,404,2025-05-27T11:32:31.885792
19038,-0.2840,1.1434,-0.3392,84.350,-120.225,128.835,382,425,375,400,413,2025-05-27T11:32:31.885792
19039,-0.1732,1.0712,-0.3074,66.955,-109.795,132.440,386,425,381,400,423,2025-05-27T11:32:31.885792
19040,-0.0869,0.9726,-0.2621,50.925,-100.310,132.055,383,426,371,396,421,2025-05-27T11:32:31.885792
19041,-0.0029,0.8857,-0.2294,37.170,-94.500,128.800,422,431,386,404,361,2025-05-27T11:32:31.885792
19042,0.1074,0.7530,-0.2001,26.775,-91.280,120.995,421,429,382,416,299,2025-05-27T11:32:31.885792
19043,0.1928,0.6525,-0.1869,17.745,-86.905,107.345,427,398,378,414,373,2025-05-27T11:32:31.885792
19044,0.2338,0.5441,-0.1542,7.630,-80.780,86.660,404,404,389,403,394,2025-05-27T11:32:31.885792
19045,0.2933,0.4250,-0.1166,0.910,-72.415,64.995,302,429,344,398,388,2025-05-27T11:32:31.885792
19046,0.3338,0.3353,-0.1191,-1.680,-63.770,50.155,380,388,364,405,385,2025-05-27T11:32:31.885792
19047,0.4050,0.1928,-0.1503,-1.085,-55.230,31.640,418,424,384,398,415,2025-05-27T11:32:32.085655
19048,0.4070,0.0590,-0.1610,-0.525,-39.760,11.725,407,422,392,352,417,2025-05-27T11:32:32.085655
19049,0.4031,-0.0786,-0.1825,0.350,-22.925,-11.480,423,427,390,337,412,2025-05-27T11:32:32.085655
19050,0.3699,-0.2240,-0.1810,0.770,-4.760,-37.275,400,437,376,394,320,2025-05-27T11:32:32.085655
19051,0.2874,-0.3660,-0.1981,1.050,11.200,-64.505,412,417,384,386,365,2025-05-27T11:32:32.085655
19052,0.1986,-0.4763,-0.2279,2.415,18.865,-91.525,386,407,387,407,398,2025-05-27T11:32:32.085655
19053,0.1376,-0.5612,-0.2396,3.885,24.955,-112.595,366,426,382,418,353,2025-05-27T11:32:32.085655
19054,0.0273,-0.5856,-0.2372,4.900,28.840,-139.125,407,421,381,413,369,2025-05-27T11:32:32.085655
19055,-0.1225,-0.6027,-0.1776,5.425,25.270,-164.465,418,412,345,405,390,2025-05-27T11:32:32.085655
19056,-0.2323,-0.5241,-0.0942,7.350,13.650,-186.970,369,419,368,311,401,2025-05-27T11:32:32.085655
19057,-0.4026,-0.4651,0.0590,11.200,-1.785,-208.985,392,427,361,383,410,2025-05-27T11:32:32.085655
19058,-0.5524,-0.3235,0.1947,21.035,-20.860,-234.395,407,429,374,400,410,2025-05-27T11:32:32.085655
19059,-0.7471,-0.1527,0.2850,36.995,-38.675,-266.350,396,383,369,406,376,2025-05-27T11:32:32.085655
19060,-0.8028,-0.0361,0.3309,54.530,-60.970,-300.090,365,409,381,403,387,2025-05-27T11:32:32.085655
19061,-0.7979,0.0590,0.4685,71.190,-73.220,-314.195,397,401,382,410,353,2025-05-27T11:32:32.085655
19062,-0.9213,0.1503,0.6383,86.170,-68.670,-338.520,417,341,386,410,373,2025-05-27T11:32:32.085655
19063,-1.1795,0.1991,0.7549,95.760,-60.235,-364.035,414,396,362,400,399,2025-05-27T11:32:32.085655
19064,-1.5894,0.3035,0.9565,103.075,-69.755,-388.080,408,376,366,384,399,2025-05-27T11:32:32.085655
19065,-1.8939,0.6041,1.0848,109.795,-98.805,-401.205,390,424,371,404,412,2025-05-27T11:32:32.218947
19066,-2.1550,1.0799,1.1780,105.000,-124.215,-402.920,431,418,368,395,409,2025-05-27T11:32:32.218947
19067,-2.5864,1.3479,1.2927,95.620,-135.870,-392.770,417,418,382,358,415,2025-05-27T11:32:32.218947
19068,-3.1642,1.5640,1.4835,81.200,-146.370,-376.950,414,420,384,358,415,2025-05-27T11:32:32.218947
19069,-3.6385,1.8573,1.5470,71.645,-171.710,-352.625,393,409,375,393,416,2025-05-27T11:32:32.218947
19070,-3.9499,2.0291,1.4660,63.735,-204.785,-322.735,354,384,343,381,411,2025-05-27T11:32:32.218947
19071,-4.3398,2.3648,1.3454,52.290,-239.540,-270.795,399,396,363,403,386,2025-05-27T11:32:32.218947
19072,-4.5262,2.2599,1.3552,36.085,-293.405,-204.925,299,337,360,414,392,2025-05-27T11:32:32.218947
19073,-4.5184,2.4166,1.2473,22.260,-361.655,-139.930,393,418,373,398,349,2025-05-27T11:32:32.218947
19074,-4.1797,2.5410,1.0975,10.045,-412.720,-78.715,399,424,386,394,375,2025-05-27T11:32:32.768739
19075,-3.6278,2.8231,0.7066,2.520,-422.030,-21.665,413,407,376,347,371,2025-05-27T11:32:32.768739
19076,-3.2076,3.2696,0.1732,-0.980,-409.080,27.405,411,414,377,394,393,2025-05-27T11:32:32.768739
19077,-3.0505,3.5282,-0.3884,-6.755,-393.890,83.440,414,372,352,390,395,2025-05-27T11:32:32.768739
19078,-3.0041,3.5541,-0.5783,-23.450,-399.770,146.685,394,412,367,342,388,2025-05-27T11:32:32.768739
19079,-3.1095,3.3901,-0.7979,-49.035,-406.665,207.585,413,411,378,390,389,2025-05-27T11:32:32.768739
19080,-3.2428,3.3526,-1.3381,-80.255,-394.940,264.845,427,431,380,353,382,2025-05-27T11:32:32.768739
19081,-3.6161,3.1081,-1.9935,-116.585,-372.855,309.190,423,347,380,406,310,2025-05-27T11:32:32.768739
19082,-4.2017,2.8816,-2.3048,-154.735,-377.370,356.230,424,350,388,405,366,2025-05-27T11:32:32.768739
19083,-4.6262,2.6830,-2.9709,-185.780,-391.160,417.270,414,403,384,392,400,2025-05-27T11:32:32.768739
19084,-4.9659,2.2824,-3.2062,-214.550,-368.585,491.645,428,382,393,413,419,2025-05-27T11:32:32.768739
19085,-5.5154,1.6807,-3.0856,-226.275,-323.295,573.930,420,428,364,375,404,2025-05-27T11:32:32.768739
19086,-6.0619,0.9438,-2.8670,-224.945,-261.030,656.880,359,336,343,395,388,2025-05-27T11:32:32.768739
19087,-7.2824,-0.1074,-2.6152,-211.715,-239.050,716.450,371,382,361,401,410,2025-05-27T11:32:32.768739
19088,-7.6177,-0.8818,-2.3634,-190.085,-261.485,791.875,336,397,363,418,396,2025-05-27T11:32:32.768739
19089,-7.3917,-1.6846,-2.0764,-179.655,-254.660,846.125,410,402,375,413,397,2025-05-27T11:32:32.768739
19090,-7.2126,-2.2604,-1.9017,-184.065,-184.065,875.525,405,391,368,382,396,2025-05-27T11:32:32.768739
19091,-6.8710,-2.6996,-1.5255,-199.325,-136.535,885.220,404,376,369,383,382,2025-05-27T11:32:32.768739
19092,-6.6065,-3.1491,-1.4128,-209.510,-151.865,870.905,434,398,381,399,388,2025-05-27T11:32:32.768739
19093,-6.3508,-4.1046,-1.4298,-179.935,-198.835,836.710,383,342,394,415,400,2025-05-27T11:32:32.768739
19094,-5.3319,-4.7160,-1.3757,-111.055,-242.095,783.265,369,403,350,416,391,2025-05-27T11:32:32.768739
19095,-4.4159,-5.0044,-1.1936,-43.225,-226.590,750.050,396,379,367,406,404,2025-05-27T11:32:32.768739
19096,-3.3984,-4.9869,-0.8398,9.065,-121.765,729.365,400,403,383,402,356,2025-05-27T11:32:32.768739
19097,-2.9080,-4.8249,-0.6251,34.790,4.550,703.815,413,429,372,382,356,2025-05-27T11:32:32.768739
19098,-2.5308,-4.6658,-0.5309,44.030,59.815,667.730,362,303,378,396,373,2025-05-27T11:32:32.768739
19099,-1.9925,-4.4208,-0.3504,51.660,64.645,612.815,325,385,376,413,395,2025-05-27T11:32:32.768739
19100,-1.3132,-4.2256,-0.1713,67.900,65.065,547.750,384,410,371,405,386,2025-05-27T11:32:32.768739
19101,-0.7056,-3.6976,0.0952,79.625,93.415,468.965,373,415,370,412,351,2025-05-27T11:32:32.768739
19102,-0.3723,-3.1149,0.3235,97.265,158.760,383.390,394,381,372,401,377,2025-05-27T11:32:32.768739
19103,-0.4060,-2.9422,0.7535,100.450,206.605,292.705,388,404,381,414,345,2025-05-27T11:32:32.768739
19104,-0.5187,-2.6010,1.0292,99.400,243.250,232.890,411,416,348,399,369,2025-05-27T11:32:32.768739
19105,-0.8008,-2.5766,1.1927,114.590,240.065,161.105,420,379,370,368,393,2025-05-27T11:32:32.768739
19106,-0.8560,-2.1589,1.2259,143.815,214.900,94.885,343,388,335,372,362,2025-05-27T11:32:32.768739
19107,-0.8394,-1.7373,1.1805,180.495,197.505,37.870,411,391,362,403,394,2025-05-27T11:32:32.768739
19108,-0.8477,-1.3337,1.1165,217.840,191.695,-11.725,423,399,377,420,357,2025-05-27T11:32:32.768739
19109,-0.8320,-1.0170,1.0570,241.290,192.675,-50.400,418,427,375,396,337,2025-05-27T11:32:32.768739
19110,-0.9872,-0.8350,1.0116,271.880,190.750,-75.985,421,403,383,401,377,2025-05-27T11:32:32.768739
19111,-1.1043,-0.6549,0.9204,302.785,180.530,-91.630,413,384,381,397,393,2025-05-27T11:32:32.768739
19112,-1.2659,-0.5734,0.8135,333.130,166.600,-105.175,408,420,391,418,399,2025-05-27T11:32:32.768739
19113,-1.4167,-0.4534,0.6852,361.900,149.835,-120.085,394,408,382,419,391,2025-05-27T11:32:32.768739
19114,-1.4845,-0.3680,0.5017,389.935,121.695,-127.225,403,417,344,421,404,2025-05-27T11:32:32.768739
19115,-1.4972,-0.3357,0.3143,416.185,86.030,-128.695,423,407,353,407,386,2025-05-27T11:32:32.768739
19116,-1.4542,-0.2528,0.2718,430.745,55.650,-128.695,422,405,361,411,379,2025-05-27T11:32:32.768739
19117,-1.3815,-0.1508,0.3260,446.600,43.995,-125.790,405,342,369,398,407,2025-05-27T11:32:32.768739
19118,-1.3113,-0.0669,0.2645,456.155,37.030,-122.535,416,349,374,404,356,2025-05-27T11:32:32.985710
19119,-1.2908,0.0112,0.1928,461.580,34.650,-122.885,379,383,385,392,337,2025-05-27T11:32:32.985710
19120,-1.3196,0.1059,0.1352,467.320,33.145,-122.150,401,393,387,411,363,2025-05-27T11:32:32.985710
19121,-1.4572,0.1566,0.0293,474.705,17.675,-119.105,394,418,380,396,359,2025-05-27T11:32:32.985710
19122,-1.6519,0.2089,-0.0429,475.965,-23.590,-115.675,332,418,388,398,402,2025-05-27T11:32:32.985710
19123,-1.8105,0.3465,-0.0893,485.800,-69.965,-105.385,378,430,400,414,405,2025-05-27T11:32:32.985710
19124,-1.6987,0.5012,-0.0805,477.330,-111.300,-92.400,393,422,395,413,352,2025-05-27T11:32:32.985710
19125,-1.5479,0.5100,-0.0049,469.245,-125.545,-69.685,415,415,382,417,389,2025-05-27T11:32:32.985710
19126,-1.4913,0.6637,-0.0410,448.665,-116.620,-42.385,401,423,343,352,405,2025-05-27T11:32:32.985710
19127,-1.5782,0.7847,-0.0669,423.045,-125.685,-17.010,388,418,376,355,409,2025-05-27T11:32:32.985710
19128,-1.6324,0.9736,-0.1274,398.195,-137.340,2.765,407,409,384,378,396,2025-05-27T11:32:32.985710
19129,-1.7319,1.0385,-0.1859,373.835,-161.245,26.670,410,435,374,365,390,2025-05-27T11:32:32.985710
19130,-1.7314,1.0341,-0.2133,350.420,-186.270,45.955,344,383,386,400,408,2025-05-27T11:32:32.985710
19131,-1.6480,1.0043,-0.2211,327.670,-203.735,63.735,356,362,385,347,398,2025-05-27T11:32:32.985710
19132,-1.5162,0.9960,-0.2684,311.430,-212.275,84.070,336,399,376,394,410,2025-05-27T11:32:32.985710
19133,-1.4196,0.9833,-0.3123,291.550,-215.285,105.350,404,401,383,400,367,2025-05-27T11:32:32.985710
19134,-1.2141,1.0390,-0.2699,272.230,-212.345,127.225,410,412,389,406,359,2025-05-27T11:32:32.985710
19135,-1.1478,1.0521,-0.2977,250.460,-198.030,145.985,428,424,348,386,388,2025-05-27T11:32:32.985710
19136,-1.0463,1.0424,-0.3665,225.925,-180.075,157.115,429,401,324,388,402,2025-05-27T11:32:32.985710
19137,-0.9692,1.0468,-0.3636,201.845,-166.670,168.280,423,403,350,404,407,2025-05-27T11:32:33.218696
19138,-0.8950,1.0399,-0.3719,179.060,-163.415,177.520,415,392,336,356,395,2025-05-27T11:32:33.218696
19139,-0.8325,1.0253,-0.3816,159.110,-166.705,183.785,414,425,354,409,411,2025-05-27T11:32:33.218696
19140,-0.7808,0.9794,-0.3543,141.925,-172.935,184.520,401,413,370,407,403,2025-05-27T11:32:33.218696
19141,-0.6476,0.9077,-0.3416,128.975,-179.585,181.790,334,396,387,389,399,2025-05-27T11:32:33.218696
19142,-0.4421,0.8750,-0.3279,115.150,-178.500,176.610,370,410,383,383,348,2025-05-27T11:32:33.218696
19143,-0.2352,0.8198,-0.3040,99.540,-168.560,170.275,409,397,380,346,393,2025-05-27T11:32:33.218696
19144,-0.0747,0.7593,-0.3128,79.555,-144.760,162.330,393,425,385,381,392,2025-05-27T11:32:33.218696
19145,-0.0039,0.6998,-0.2987,56.560,-118.685,155.050,397,394,380,394,409,2025-05-27T11:32:33.218696
19146,0.0571,0.6349,-0.2835,37.135,-99.085,145.565,412,399,388,401,413,2025-05-27T11:32:33.218696
19147,0.0600,0.5305,-0.1264,23.030,-87.185,134.435,430,367,387,349,412,2025-05-27T11:32:33.218696
19148,0.0571,0.4451,-0.2338,13.825,-79.450,119.455,404,391,346,390,399,2025-05-27T11:32:33.218696
19149,0.0429,0.3680,-0.2396,7.910,-72.800,100.730,405,418,373,406,390,2025-05-27T11:32:33.218696
19150,0.0849,0.3231,-0.2303,1.785,-67.130,80.710,302,390,370,415,396,2025-05-27T11:32:33.218696
19151,0.1205,0.2606,-0.2181,-3.185,-58.205,55.580,375,424,390,420,374,2025-05-27T11:32:33.218696
19152,0.1474,0.2133,-0.1854,-6.615,-50.260,45.850,412,423,381,416,346,2025-05-27T11:32:33.218696
19153,0.1708,0.1469,-0.1757,-9.100,-41.860,28.700,424,378,372,410,344,2025-05-27T11:32:33.218696
19154,0.1903,0.0805,-0.1674,-9.730,-31.955,12.320,427,410,376,410,337,2025-05-27T11:32:33.218696
19155,0.2050,0.0034,-0.1742,-9.660,-20.055,-5.075,411,410,379,407,366,2025-05-27T11:32:33.218696
19156,0.2074,-0.1069,-0.1928,-8.330,-10.780,-24.360,422,416,380,398,398,2025-05-27T11:32:33.218696
19157,0.1718,-0.2235,-0.1547,-8.225,0.805,-42.665,428,387,381,400,389,2025-05-27T11:32:33.321816
19158,0.1381,-0.3211,-0.1391,-7.560,11.165,-74.410,404,374,357,384,351,2025-05-27T11:32:33.321816
19159,0.0693,-0.4143,-0.1113,-7.840,18.445,-97.335,400,423,371,395,387,2025-05-27T11:32:33.321816
19160,-0.0327,-0.4524,-0.0952,-7.840,20.580,-125.300,387,407,384,420,413,2025-05-27T11:32:33.321816
19161,-0.1074,-0.4968,-0.1098,-5.845,15.575,-151.865,411,423,372,383,407,2025-05-27T11:32:33.321816
19162,-0.1747,-0.4973,-0.0986,-2.695,11.480,-176.050,405,413,367,389,393,2025-05-27T11:32:33.321816
19163,-0.3294,-0.4773,0.0127,-2.275,10.675,-201.425,386,425,379,411,391,2025-05-27T11:32:33.321816
19164,-0.4670,-0.4046,0.0947,2.345,6.930,-229.495,419,406,371,410,404,2025-05-27T11:32:33.321816
19165,-0.6461,-0.3416,0.2630,7.245,-3.850,-253.855,403,417,373,394,361,2025-05-27T11:32:33.321816
19166,-0.8955,-0.2411,0.3392,20.125,-25.130,-287.980,418,416,336,343,367,2025-05-27T11:32:33.425479
19167,-1.0614,-0.1444,0.5324,37.590,-61.180,-317.100,395,342,320,396,396,2025-05-27T11:32:33.425479
19168,-1.2132,0.0171,0.6529,60.165,-95.900,-338.730,413,376,353,408,394,2025-05-27T11:32:33.425479
19169,-1.3479,0.1640,0.8808,74.830,-118.405,-357.630,433,337,374,365,385,2025-05-27T11:32:33.425479
19170,-1.5396,0.3694,1.2361,87.640,-126.105,-386.295,424,358,374,407,389,2025-05-27T11:32:33.425479
19171,-1.6411,0.6495,1.5250,95.970,-108.395,-396.130,400,372,338,309,379,2025-05-27T11:32:33.425479
19172,-1.9256,1.1317,1.7300,96.845,-99.610,-393.820,419,375,349,383,402,2025-05-27T11:32:33.425479
19173,-2.1389,1.5406,1.8398,83.335,-85.750,-386.015,399,401,371,401,410,2025-05-27T11:32:33.425479
19174,-2.8036,1.8827,2.0232,71.995,-89.705,-366.520,400,414,387,345,386,2025-05-27T11:32:33.529029
19175,-3.8186,2.2277,1.9857,68.075,-142.135,-346.815,427,408,386,392,349,2025-05-27T11:32:33.529029
19176,-4.4101,2.3863,1.8681,71.400,-239.960,-314.615,419,337,391,381,384,2025-05-27T11:32:33.529029
19177,-4.6340,2.8133,1.6387,72.520,-343.035,-250.460,424,375,386,410,401,2025-05-27T11:32:33.529029
19178,-4.7112,2.9631,1.4611,68.320,-390.740,-174.860,407,387,390,402,421,2025-05-27T11:32:33.529029
19179,-4.6721,3.1774,1.1004,59.325,-404.495,-92.225,425,415,372,414,424,2025-05-27T11:32:33.529029
19180,-4.5970,3.5019,0.5485,38.395,-411.495,-11.865,432,428,381,409,404,2025-05-27T11:32:33.529029
19181,-4.2598,4.0099,-0.1054,1.365,-409.045,52.220,415,416,386,403,391,2025-05-27T11:32:33.529029
19182,-3.7522,4.2280,-0.7247,-45.885,-391.300,144.200,421,403,378,414,354,2025-05-27T11:32:33.529029
19183,-3.6356,4.3437,-1.1463,-96.705,-349.020,223.055,382,367,378,406,371,2025-05-27T11:32:33.652059
19184,-3.9679,4.1436,-1.5016,-140.070,-352.310,297.745,395,396,338,415,398,2025-05-27T11:32:33.652059
19185,-4.3735,3.8284,-2.1897,-172.025,-404.705,366.380,360,378,368,427,394,2025-05-27T11:32:33.652059
19186,-4.3798,3.2701,-2.8021,-194.495,-454.615,434.385,411,395,382,416,310,2025-05-27T11:32:33.652059
19187,-4.1870,2.9563,-3.1944,-237.930,-413.210,510.720,435,423,388,423,362,2025-05-27T11:32:33.652059
19188,-4.8844,2.2409,-3.4175,-297.535,-332.115,588.280,384,427,375,414,395,2025-05-27T11:32:33.652059
19189,-5.7028,1.5826,-3.6141,-339.465,-268.170,665.105,412,408,386,381,413,2025-05-27T11:32:33.652059
19190,-6.5485,0.5827,-3.5273,-356.860,-277.970,740.460,412,378,345,400,396,2025-05-27T11:32:33.652059
19191,-6.7173,-0.1298,-3.4287,-350.595,-336.805,822.640,355,390,358,400,391,2025-05-27T11:32:33.835301
19192,-6.4709,-0.9506,-3.1505,-327.425,-338.520,876.330,379,412,330,365,401,2025-05-27T11:32:33.835301
19193,-6.0614,-1.6177,-2.8958,-285.845,-301.595,893.305,407,420,357,408,409,2025-05-27T11:32:33.835301
19194,-5.5378,-1.9476,-2.7465,-241.395,-251.510,883.365,414,407,363,420,373,2025-05-27T11:32:33.835301
19195,-5.2885,-2.4117,-2.2204,-206.080,-199.220,860.475,400,358,382,429,406,2025-05-27T11:32:33.835301
19196,-4.8971,-3.1349,-2.0964,-148.435,-144.025,815.850,421,415,378,383,351,2025-05-27T11:32:33.835301
19197,-4.4315,-3.3155,-1.7202,-87.255,-117.005,771.050,345,424,373,403,386,2025-05-27T11:32:33.835301
19198,-3.9743,-3.6634,-1.3791,-25.865,-86.905,727.650,345,427,382,401,398,2025-05-27T11:32:33.835301
19199,-3.6307,-4.0919,-0.9633,19.670,-51.275,684.740,410,431,381,348,351,2025-05-27T11:32:33.835301
19200,-2.7289,-3.9748,-0.5949,52.325,-6.055,637.035,387,416,343,385,332,2025-05-27T11:32:33.835301
19201,-2.1604,-3.6995,-0.1752,75.390,54.285,583.975,418,412,373,398,335,2025-05-27T11:32:33.835301
19202,-1.5953,-3.4048,0.0244,93.485,115.185,515.620,424,387,389,418,346,2025-05-27T11:32:33.835301
19203,-1.4396,-2.9685,0.4299,110.005,157.115,444.780,435,411,386,398,380,2025-05-27T11:32:33.835301
19204,-1.3352,-3.0710,0.7793,126.245,167.055,365.050,350,420,380,352,379,2025-05-27T11:32:33.835301
19205,-1.1732,-2.7709,1.1888,137.200,160.090,294.875,392,414,346,378,406,2025-05-27T11:32:33.835301
19206,-1.1283,-2.4068,1.4054,154.245,145.530,225.645,370,439,370,404,393,2025-05-27T11:32:33.835301
19207,-1.0429,-1.8461,1.4274,175.210,138.845,180.390,409,440,341,394,408,2025-05-27T11:32:33.835301
19208,-1.0038,-1.5162,1.4572,196.140,142.065,126.035,405,403,362,418,418,2025-05-27T11:32:33.835301
19209,-0.9331,-1.0804,1.3557,212.870,149.345,82.145,378,378,379,414,412,2025-05-27T11:32:34.035497
19210,-0.8960,-0.8340,1.2400,224.840,157.675,49.630,400,406,382,423,406,2025-05-27T11:32:34.035497
19211,-0.8940,-0.6739,1.0399,236.040,159.355,24.465,361,412,389,407,396,2025-05-27T11:32:34.035497
19212,-0.9682,-0.5553,0.8877,252.035,148.750,4.620,346,370,374,404,402,2025-05-27T11:32:34.035497
19213,-0.9687,-0.3587,0.8296,269.395,133.315,-15.470,343,392,347,409,354,2025-05-27T11:32:34.035497
19214,-0.9711,-0.1903,0.7374,285.390,110.845,-38.570,407,420,330,370,376,2025-05-27T11:32:34.035497
19215,-0.9848,-0.1152,0.7540,297.745,83.475,-57.505,347,413,347,402,360,2025-05-27T11:32:34.035497
19216,-0.9496,-0.0488,0.6964,308.175,50.785,-80.150,414,426,368,369,370,2025-05-27T11:32:34.035497
19217,-0.9111,-0.0537,0.5905,319.200,16.240,-100.030,360,401,370,403,373,2025-05-27T11:32:34.035497
19218,-0.8691,-0.0273,0.5280,330.120,-9.660,-117.460,400,413,366,396,340,2025-05-27T11:32:34.035497
19219,-0.8213,0.0146,0.4241,339.255,-19.180,-133.525,402,403,363,407,327,2025-05-27T11:32:34.035497
19220,-0.8662,0.0220,0.3523,343.315,-14.490,-149.135,417,401,333,385,320,2025-05-27T11:32:34.035497
19221,-0.8969,0.0825,0.3514,342.335,-4.900,-158.060,425,400,360,387,377,2025-05-27T11:32:34.035497
19222,-0.9335,0.0942,0.3958,337.155,9.940,-162.190,394,426,371,402,356,2025-05-27T11:32:34.035497
19223,-1.0175,0.1049,0.3753,337.050,17.990,-160.265,373,430,369,346,378,2025-05-27T11:32:34.035497
19224,-1.1170,0.1654,0.3714,341.495,11.865,-159.145,413,432,377,373,384,2025-05-27T11:32:34.831900
19225,-1.2483,0.2865,0.3045,349.405,-4.655,-161.420,415,413,378,413,380,2025-05-27T11:32:34.831900
19226,-1.3703,0.3177,0.2952,358.015,-31.360,-165.550,302,343,383,349,394,2025-05-27T11:32:34.831900
19227,-1.5265,0.3445,0.3470,365.820,-63.805,-167.020,391,404,391,390,419,2025-05-27T11:32:34.831900
19228,-1.5509,0.4958,0.4246,366.345,-95.025,-162.540,394,415,381,404,361,2025-05-27T11:32:34.831900
19229,-1.5255,0.6437,0.4656,361.725,-110.355,-153.965,392,379,383,412,399,2025-05-27T11:32:34.831900
19230,-1.4957,0.8111,0.4807,353.290,-110.775,-143.500,392,379,377,404,369,2025-05-27T11:32:34.831900
19231,-1.5396,0.8823,0.5075,343.595,-103.635,-133.700,415,389,381,405,395,2025-05-27T11:32:34.831900
19232,-1.5933,0.9653,0.6222,334.285,-101.115,-114.275,341,389,371,396,349,2025-05-27T11:32:34.831900
19233,-1.6885,0.9555,0.6910,322.875,-109.655,-87.360,379,399,379,407,377,2025-05-27T11:32:34.831900
19234,-1.8237,1.0038,0.6647,310.660,-132.790,-57.155,394,351,379,395,399,2025-05-27T11:32:34.831900
19235,-1.9105,1.0692,0.5534,300.195,-164.115,-28.350,394,346,351,391,405,2025-05-27T11:32:34.831900
19236,-1.8866,1.1800,0.3533,293.055,-191.765,-3.010,385,399,365,338,386,2025-05-27T11:32:34.831900
19237,-1.7729,1.3000,0.1557,284.725,-203.735,21.595,339,417,376,389,397,2025-05-27T11:32:34.831900
19238,-1.7246,1.3737,0.0137,273.700,-205.170,44.800,377,426,376,355,401,2025-05-27T11:32:34.831900
19239,-1.5889,1.2981,-0.0073,262.885,-202.230,64.925,399,398,343,327,406,2025-05-27T11:32:34.831900
19240,-1.3942,1.2664,-0.0249,250.320,-198.520,93.380,354,396,364,347,405,2025-05-27T11:32:34.831900
19241,-1.1570,1.1819,-0.0483,236.180,-189.420,121.835,327,390,371,372,421,2025-05-27T11:32:34.831900
19242,-0.9496,1.1385,-0.1571,223.195,-172.480,146.160,401,406,337,392,426,2025-05-27T11:32:34.831900
19243,-0.9111,1.0863,-0.3182,206.955,-153.580,162.890,428,296,349,390,408,2025-05-27T11:32:34.831900
19244,-0.8711,0.9955,-0.4368,190.225,-144.130,173.565,425,386,376,368,390,2025-05-27T11:32:34.831900
19245,-0.8135,0.8828,-0.4875,173.670,-143.710,180.740,424,348,373,391,343,2025-05-27T11:32:34.831900
19246,-0.7344,0.7720,-0.5051,155.890,-150.780,184.590,420,383,385,397,388,2025-05-27T11:32:34.831900
19247,-0.6144,0.6954,-0.4953,136.675,-155.155,185.325,430,419,386,363,343,2025-05-27T11:32:34.831900
19248,-0.4099,0.6476,-0.4729,115.920,-151.305,185.010,434,422,355,383,384,2025-05-27T11:32:34.831900
19249,-0.2333,0.6276,-0.4651,94.255,-138.915,183.855,429,423,376,391,382,2025-05-27T11:32:34.831900
19250,-0.0981,0.6002,-0.4646,74.515,-117.145,181.055,307,394,343,394,394,2025-05-27T11:32:34.831900
19251,0.0098,0.5539,-0.4470,59.780,-93.485,175.420,367,391,359,414,410,2025-05-27T11:32:34.831900
19252,0.0542,0.5046,-0.4333,43.610,-74.760,166.110,401,410,332,423,390,2025-05-27T11:32:34.831900
19253,0.0839,0.4343,-0.3958,28.700,-66.640,152.565,397,421,366,425,403,2025-05-27T11:32:34.831900
19254,0.1093,0.3762,-0.3484,15.610,-64.260,134.995,414,408,373,410,353,2025-05-27T11:32:34.831900
19255,0.1635,0.3309,-0.2694,4.515,-67.025,118.965,400,349,367,418,389,2025-05-27T11:32:34.831900
19256,0.2435,0.2899,-0.2274,-4.515,-68.845,97.160,388,288,345,402,409,2025-05-27T11:32:34.831900
19257,0.2889,0.2586,-0.2015,-11.025,-66.150,74.970,391,369,360,366,412,2025-05-27T11:32:34.831900
19258,0.3396,0.2245,-0.1820,-14.700,-56.980,53.795,420,413,376,297,388,2025-05-27T11:32:34.831900
19259,0.3465,0.2230,-0.1571,-18.270,-40.705,35.875,428,379,377,365,384,2025-05-27T11:32:34.831900
19260,0.3660,0.2035,-0.1142,-21.595,-26.040,21.280,370,405,381,401,403,2025-05-27T11:32:34.831900
19261,0.3572,0.2303,-0.0342,-24.465,-6.230,11.410,407,425,387,384,410,2025-05-27T11:32:34.831900
19262,0.2918,0.2386,0.0307,-26.495,12.740,-1.505,419,405,372,402,394,2025-05-27T11:32:34.831900
19263,0.2020,0.2284,0.0468,-26.740,26.740,-15.575,411,384,383,386,401,2025-05-27T11:32:34.831900
19264,0.1430,0.1991,0.0644,-25.375,32.795,-29.925,391,382,392,415,410,2025-05-27T11:32:34.831900
19265,0.0937,0.1776,0.0986,-21.140,32.830,-44.800,400,412,396,418,402,2025-05-27T11:32:34.831900
19266,0.0688,0.1620,0.1147,-16.275,31.325,-61.145,374,371,394,412,362,2025-05-27T11:32:34.831900
19267,0.0307,0.1200,0.1118,-10.220,31.430,-80.010,350,394,385,412,393,2025-05-27T11:32:34.831900
19268,-0.0107,0.0703,0.1527,-6.090,34.370,-100.975,404,411,371,398,400,2025-05-27T11:32:34.831900
19269,-0.0693,0.0415,0.1625,-1.715,37.835,-117.880,419,399,378,394,391,2025-05-27T11:32:34.831900
19270,-0.1059,-0.0293,0.1025,4.515,38.150,-136.885,400,412,387,404,397,2025-05-27T11:32:34.831900
19271,-0.1708,-0.0722,0.0825,13.090,38.535,-155.435,387,405,383,395,384,2025-05-27T11:32:34.831900
19272,-0.2928,-0.1635,0.0571,20.475,39.585,-176.610,340,357,381,408,360,2025-05-27T11:32:34.831900
19273,-0.4280,-0.1976,0.0776,29.365,39.620,-201.040,390,396,389,396,379,2025-05-27T11:32:34.831900
19274,-0.5197,-0.1898,0.1020,37.380,37.835,-225.225,420,399,384,420,387,2025-05-27T11:32:34.831900
19275,-0.6334,-0.1493,0.1464,45.815,33.075,-241.395,400,420,398,400,360,2025-05-27T11:32:34.831900
19276,-0.7027,-0.1240,0.1698,56.735,25.655,-256.340,434,410,380,349,384,2025-05-27T11:32:34.923197
19277,-0.7935,-0.0844,0.1976,66.500,21.875,-270.795,393,409,341,372,395,2025-05-27T11:32:34.923197
19278,-0.9301,-0.0215,0.1923,78.505,21.455,-289.205,398,417,353,397,408,2025-05-27T11:32:34.923197
19279,-1.1068,0.0464,0.3245,96.775,17.185,-310.765,357,389,371,397,353,2025-05-27T11:32:34.923197
19280,-1.3644,0.1249,0.4368,107.310,1.260,-329.770,392,383,371,378,295,2025-05-27T11:32:34.923197
19281,-1.5138,0.2669,0.5266,128.205,-16.975,-344.750,336,379,374,379,361,2025-05-27T11:32:34.923197
19282,-1.6128,0.3762,0.6388,145.075,-35.560,-352.905,381,407,386,393,398,2025-05-27T11:32:34.923197
19283,-1.7378,0.4377,0.7544,153.440,-41.825,-359.975,389,407,380,422,398,2025-05-27T11:32:34.923197
19284,-1.9437,0.5744,0.8969,155.540,-38.360,-362.250,406,407,387,412,394,2025-05-27T11:32:34.923197
19285,-2.2902,0.8686,0.9667,152.775,-36.435,-355.145,401,391,373,417,408,2025-05-27T11:32:34.923197
19286,-2.8202,1.1775,1.0111,144.375,-53.130,-335.615,341,420,375,399,398,2025-05-27T11:32:34.923197
19287,-3.4770,1.4962,1.1024,137.550,-105.700,-312.830,411,419,375,344,402,2025-05-27T11:32:34.923197
19288,-3.9040,1.8915,1.0019,125.580,-198.695,-282.905,395,413,384,352,408,2025-05-27T11:32:34.923197
19289,-3.9133,2.2165,0.9521,109.060,-264.670,-239.120,390,416,343,394,355,2025-05-27T11:32:34.923197
19290,-3.7976,2.5064,0.7403,88.060,-299.040,-186.060,337,414,321,406,398,2025-05-27T11:32:34.923197
19291,-3.7971,2.6581,0.6578,68.985,-298.830,-139.545,385,394,318,402,350,2025-05-27T11:32:34.923197
19292,-3.8801,2.8275,0.5353,56.595,-307.755,-80.010,341,416,346,406,371,2025-05-27T11:32:34.923197
19293,-3.8532,3.1925,0.2250,40.145,-329.945,-18.025,392,365,352,369,387,2025-05-27T11:32:34.923197
19294,-3.8820,3.4936,-0.1196,14.735,-347.165,40.180,386,421,376,393,406,2025-05-27T11:32:34.923197
19295,-3.9050,3.6688,-0.4846,-5.810,-383.110,107.030,416,378,387,393,394,2025-05-27T11:32:34.971769
19296,-4.1070,3.6405,-0.8696,-29.925,-425.845,178.710,344,428,394,396,393,2025-05-27T11:32:34.971769
19297,-4.0358,3.5248,-1.2659,-49.455,-442.995,249.375,324,426,385,394,346,2025-05-27T11:32:34.971769
19298,-4.0275,3.3677,-1.8227,-70.805,-419.300,319.410,330,427,382,368,330,2025-05-27T11:32:34.971769
19299,-4.2427,3.1466,-2.2907,-97.860,-360.640,390.005,385,406,349,380,375,2025-05-27T11:32:34.971769
19300,-4.6653,2.8119,-2.6435,-129.675,-295.820,443.065,404,429,375,411,406,2025-05-27T11:32:34.971769
19301,-5.2611,2.5108,-3.0515,-166.355,-250.285,522.760,431,417,385,350,408,2025-05-27T11:32:34.971769
19302,-6.3181,1.8256,-3.3672,-208.565,-218.680,591.010,431,418,382,338,355,2025-05-27T11:32:35.035521
19303,-7.3922,0.9623,-3.6068,-246.225,-230.265,672.490,397,405,375,370,381,2025-05-27T11:32:35.035521
19304,-8.4487,-0.3279,-3.9016,-281.960,-272.755,764.015,419,429,338,402,393,2025-05-27T11:32:35.035521
19305,-8.3477,-1.1448,-3.9601,-297.710,-318.850,871.080,403,415,369,415,394,2025-05-27T11:32:35.035521
19306,-7.9359,-1.6919,-3.6595,-306.005,-286.860,947.205,369,407,377,412,361,2025-05-27T11:32:35.268387
19307,-7.9593,-2.1745,-3.2408,-316.680,-227.710,977.060,404,435,366,415,391,2025-05-27T11:32:35.268387
19308,-8.1320,-2.9544,-2.9114,-323.155,-170.275,959.000,393,429,365,399,381,2025-05-27T11:32:35.268387
19309,-7.8910,-3.3077,-2.9480,-318.255,-166.915,905.520,401,398,382,389,392,2025-05-27T11:32:35.268387
19310,-7.5128,-4.0026,-2.7074,-305.270,-160.475,863.345,375,393,383,404,400,2025-05-27T11:32:35.268387
19311,-7.1624,-5.1957,-2.1794,-235.515,-165.550,862.470,414,383,386,414,394,2025-05-27T11:32:35.268387
19312,-6.1205,-6.4231,-1.9579,-142.975,-187.110,834.260,345,387,369,389,383,2025-05-27T11:32:35.268387
19313,-3.8664,-6.6622,-1.3825,-30.415,-190.960,811.720,380,420,376,392,388,2025-05-27T11:32:35.268387
19314,-1.9720,-6.2688,-0.8999,60.760,-91.000,762.055,293,415,372,369,306,2025-05-27T11:32:35.268387
19315,-0.8462,-5.4085,-0.5217,178.780,94.710,678.125,376,437,367,374,374,2025-05-27T11:32:35.268387
19316,-0.7886,-4.5701,0.0068,210.805,234.465,592.410,382,387,383,388,395,2025-05-27T11:32:35.268387
19317,-1.0228,-3.9591,0.2908,196.175,298.060,531.335,401,413,377,383,393,2025-05-27T11:32:35.268387
19318,-1.2346,-3.2608,0.6427,168.875,298.200,456.400,385,425,373,396,359,2025-05-27T11:32:35.268387
19319,-1.2522,-2.8611,0.8335,151.865,263.655,384.265,391,408,385,412,358,2025-05-27T11:32:35.268387
19320,-1.2546,-2.4712,1.0941,151.585,255.010,306.670,420,431,390,420,378,2025-05-27T11:32:35.268387
19321,-1.1429,-2.0354,1.2312,159.985,259.070,231.700,413,423,391,416,384,2025-05-27T11:32:35.385133
19322,-1.1727,-1.7456,1.3669,173.635,261.310,159.775,367,401,344,353,384,2025-05-27T11:32:35.385133
19323,-1.3220,-1.4381,1.4420,193.830,260.155,91.665,415,395,361,402,413,2025-05-27T11:32:35.385133
19324,-1.4167,-1.1058,1.3923,219.695,251.895,33.530,397,330,338,412,360,2025-05-27T11:32:35.385133
19325,-1.4874,-0.8579,1.1575,239.855,235.725,-13.125,357,407,362,393,383,2025-05-27T11:32:35.385133
19326,-1.5382,-0.7076,0.9526,264.985,222.950,-48.650,401,429,373,392,359,2025-05-27T11:32:35.385133
19327,-1.5880,-0.5880,0.8418,292.005,208.320,-70.245,406,428,342,409,380,2025-05-27T11:32:35.385133
19328,-1.6870,-0.4885,0.7945,321.615,186.830,-89.495,375,398,366,375,380,2025-05-27T11:32:35.385133
19329,-1.7778,-0.2679,0.7701,350.350,156.730,-87.430,411,416,371,402,393,2025-05-27T11:32:35.385133
19330,-1.8056,-0.2596,0.7144,375.340,120.855,-91.840,420,366,377,392,351,2025-05-27T11:32:35.385133
19331,-1.7226,-0.0932,0.6144,395.535,83.580,-97.615,415,383,389,393,390,2025-05-27T11:32:35.385133
19332,-1.7104,0.0586,0.4665,419.055,44.905,-105.735,397,410,390,399,382,2025-05-27T11:32:35.385133
19333,-1.6709,0.1693,0.2948,427.315,0.840,-112.245,418,349,378,398,387,2025-05-27T11:32:35.385133
19334,-1.5445,0.2601,0.1459,442.505,-35.070,-112.770,396,404,390,403,341,2025-05-27T11:32:35.385133
19335,-1.4538,0.2835,0.0644,443.415,-73.465,-112.000,411,397,388,396,370,2025-05-27T11:32:35.635072
19336,-1.4098,0.3587,0.0683,439.775,-96.250,-108.395,373,425,385,392,396,2025-05-27T11:32:35.635072
19337,-1.4269,0.4207,0.0752,431.235,-115.395,-104.405,389,416,390,415,388,2025-05-27T11:32:35.635072
19338,-1.4742,0.4934,0.0205,426.405,-139.965,-98.945,393,386,387,406,366,2025-05-27T11:32:35.635072
19339,-1.6236,0.6364,-0.0669,425.145,-172.970,-93.835,396,393,381,344,390,2025-05-27T11:32:35.635072
19340,-1.6148,0.7886,-0.1928,420.630,-210.280,-89.145,339,408,339,364,385,2025-05-27T11:32:35.635072
19341,-1.4347,0.9418,-0.2245,408.450,-240.765,-81.480,375,414,364,402,406,2025-05-27T11:32:35.635072
19342,-1.3147,0.9618,-0.1484,384.720,-258.405,-70.035,415,418,379,398,413,2025-05-27T11:32:35.635072
19343,-1.2000,0.9018,-0.0488,358.645,-249.375,-56.560,392,419,371,413,404,2025-05-27T11:32:35.635072
19344,-1.2107,0.9677,-0.0537,334.495,-242.270,-45.045,408,394,387,413,418,2025-05-27T11:32:35.635072
19345,-1.3142,1.0643,-0.1039,310.695,-240.870,-32.585,418,352,382,398,374,2025-05-27T11:32:35.635072
19346,-1.3318,1.1278,-0.0878,292.425,-249.130,-18.935,416,343,380,411,385,2025-05-27T11:32:35.635072
19347,-1.2922,1.1502,-0.0844,274.365,-256.480,-5.145,424,417,368,416,401,2025-05-27T11:32:35.635072
19348,-1.1795,1.0858,-0.0566,262.115,-252.175,7.035,421,431,373,416,397,2025-05-27T11:32:35.635072
19349,-1.0287,1.0658,-0.0937,246.995,-238.875,22.540,395,422,381,387,410,2025-05-27T11:32:35.635072
19350,-0.9472,1.1375,-0.1279,231.245,-212.205,42.175,390,417,380,384,415,2025-05-27T11:32:35.635072
19351,-0.9170,1.1858,-0.1191,212.240,-176.540,60.865,423,402,377,402,420,2025-05-27T11:32:35.635072
19352,-0.8647,1.2039,-0.0615,193.865,-142.590,87.500,410,434,340,372,400,2025-05-27T11:32:35.635072
19353,-0.9018,1.1522,-0.0688,178.430,-120.715,114.660,422,407,348,362,400,2025-05-27T11:32:35.635072
19354,-0.8384,1.1048,-0.1064,165.865,-110.425,138.775,347,414,358,296,406,2025-05-27T11:32:35.768322
19355,-0.8091,1.1141,-0.1205,153.545,-105.490,155.820,332,427,355,354,400,2025-05-27T11:32:35.768322
19356,-0.7413,1.0668,-0.1015,141.050,-108.430,165.585,375,414,361,376,415,2025-05-27T11:32:35.768322
19357,-0.6139,1.0731,-0.1708,129.745,-119.420,170.520,386,426,343,401,392,2025-05-27T11:32:35.768322
19358,-0.4914,1.0038,-0.2147,115.500,-126.980,169.995,409,398,374,373,383,2025-05-27T11:32:35.768322
19359,-0.3299,0.9023,-0.2206,99.960,-127.120,165.550,410,427,367,399,390,2025-05-27T11:32:35.768322
19360,-0.1630,0.8159,-0.1893,83.370,-119.945,160.195,408,432,383,399,394,2025-05-27T11:32:35.768322
19361,-0.0791,0.7247,-0.1893,64.715,-105.455,154.490,388,414,392,420,407,2025-05-27T11:32:35.768322
19362,-0.0029,0.6490,-0.2416,47.530,-89.285,145.810,388,412,353,413,407,2025-05-27T11:32:35.768322
19363,-0.0063,0.5251,-0.2899,33.530,-78.155,134.715,411,342,366,372,411,2025-05-27T11:32:35.768322
19364,0.0146,0.4387,-0.2708,21.350,-73.570,121.835,400,415,367,385,392,2025-05-27T11:32:35.768322
19365,0.0874,0.3767,-0.2367,12.985,-68.110,108.150,405,390,338,406,364,2025-05-27T11:32:35.768322
19366,0.1679,0.3084,-0.2264,2.310,-59.360,92.190,347,421,348,389,398,2025-05-27T11:32:35.768322
19367,0.1986,0.2577,-0.1801,-8.050,-51.415,73.360,406,429,362,357,376,2025-05-27T11:32:35.768322
19368,0.2357,0.2162,-0.1484,-15.890,-41.895,56.875,399,425,365,391,401,2025-05-27T11:32:35.910198
19369,0.2694,0.1571,-0.1093,-20.265,-32.655,30.590,415,411,376,410,412,2025-05-27T11:32:35.910198
19370,0.2708,0.1044,-0.1283,-24.360,-20.755,13.265,350,351,378,422,420,2025-05-27T11:32:35.910198
19371,0.2874,0.0717,-0.1318,-18.445,-11.690,-13.615,380,401,373,410,408,2025-05-27T11:32:35.910198
19372,0.3118,-0.0215,-0.1025,-23.205,1.330,-32.025,369,409,389,391,408,2025-05-27T11:32:35.910198
19373,0.2850,-0.0981,-0.0639,-21.070,14.700,-54.810,413,427,390,366,396,2025-05-27T11:32:35.910198
19374,0.2435,-0.1762,-0.0551,-17.850,25.060,-78.155,421,424,392,400,353,2025-05-27T11:32:36.451609
19375,0.2094,-0.2401,-0.0913,-13.475,30.450,-101.605,344,402,401,403,376,2025-05-27T11:32:36.451609
19376,0.1767,-0.2830,-0.1093,-9.485,38.675,-120.330,415,425,383,389,402,2025-05-27T11:32:36.451609
19377,0.1098,-0.3055,-0.1191,-6.720,48.020,-145.390,418,437,388,361,408,2025-05-27T11:32:36.451609
19378,-0.0015,-0.3855,-0.0917,-4.375,52.990,-171.010,345,413,371,390,411,2025-05-27T11:32:36.451609
19379,-0.1976,-0.4597,-0.0727,0.140,50.890,-196.665,403,397,378,394,408,2025-05-27T11:32:36.451609
19380,-0.3533,-0.5007,0.0132,7.000,39.410,-221.550,410,352,391,405,355,2025-05-27T11:32:36.451609
19381,-0.5007,-0.5202,0.1425,17.115,24.185,-244.685,335,380,391,404,351,2025-05-27T11:32:36.451609
19382,-0.6510,-0.4524,0.2601,29.120,7.945,-268.240,411,392,399,415,377,2025-05-27T11:32:36.451609
19383,-0.8477,-0.3928,0.3699,43.750,-6.020,-295.470,411,335,392,422,394,2025-05-27T11:32:36.451609
19384,-1.0033,-0.3270,0.5998,61.740,-24.885,-327.845,418,410,390,413,395,2025-05-27T11:32:36.451609
19385,-1.1936,-0.2977,0.8320,85.960,-48.895,-346.780,400,435,397,353,387,2025-05-27T11:32:36.451609
19386,-1.4030,-0.2904,1.0624,108.850,-81.550,-369.775,428,407,381,378,366,2025-05-27T11:32:36.451609
19387,-1.5421,-0.1337,1.2068,132.860,-104.615,-395.605,361,429,383,408,391,2025-05-27T11:32:36.451609
19388,-1.6099,0.1401,1.4533,140.350,-100.450,-417.130,387,409,388,400,360,2025-05-27T11:32:36.451609
19389,-1.9827,0.6032,1.8119,139.545,-86.100,-440.650,415,393,370,413,391,2025-05-27T11:32:36.451609
19390,-2.7391,0.9926,2.1257,131.705,-107.065,-456.260,412,408,362,311,382,2025-05-27T11:32:36.451609
19391,-3.4111,1.4084,2.2887,122.570,-138.075,-455.840,396,370,368,328,396,2025-05-27T11:32:36.451609
19392,-3.9235,2.0008,2.3922,105.210,-199.570,-441.560,361,394,341,382,399,2025-05-27T11:32:36.451609
19393,-4.6004,2.3927,2.3927,86.870,-242.340,-409.780,392,350,341,384,394,2025-05-27T11:32:36.451609
19394,-5.4417,2.6747,2.5576,81.655,-294.980,-351.120,370,401,370,409,404,2025-05-27T11:32:36.451609
19395,-6.1576,2.9114,2.4439,99.680,-395.850,-259.035,396,382,381,404,390,2025-05-27T11:32:36.451609
19396,-6.0605,3.2847,1.9862,101.955,-509.390,-162.190,414,376,383,404,408,2025-05-27T11:32:36.451609
19397,-5.5212,3.5151,1.5479,99.365,-524.405,-77.910,365,399,388,418,413,2025-05-27T11:32:36.451609
19398,-5.0376,3.9826,1.1161,91.560,-461.860,20.615,408,354,385,416,408,2025-05-27T11:32:36.451609
19399,-5.3509,3.9684,0.2601,94.325,-395.640,123.270,421,419,392,430,373,2025-05-27T11:32:36.451609
19400,-5.7159,4.0972,-0.9950,103.670,-378.770,222.460,394,368,386,381,392,2025-05-27T11:32:36.451609
19401,-5.9946,3.9182,-2.4019,110.670,-377.020,333.585,374,426,384,373,394,2025-05-27T11:32:36.451609
19402,-6.1771,3.3199,-3.5985,90.300,-354.830,455.070,425,426,354,393,389,2025-05-27T11:32:36.474231
19403,-7.0433,2.4473,-4.3120,29.995,-301.315,546.070,428,431,374,397,387,2025-05-27T11:32:36.474231
19404,-7.7446,1.7505,-4.8815,-65.940,-263.340,669.410,394,416,308,393,404,2025-05-27T11:32:36.474231
19405,-8.0549,0.8203,-5.0498,-173.145,-240.905,787.745,381,401,340,409,406,2025-05-27T11:32:36.474231
19406,-7.9734,-0.2074,-5.0567,-247.905,-226.835,887.530,383,410,352,404,362,2025-05-27T11:32:36.474231
19407,-7.8402,-1.3449,-4.5140,-291.165,-220.045,947.100,418,425,361,401,373,2025-05-27T11:32:36.474231
19408,-7.6065,-2.4127,-3.8557,-311.500,-186.270,979.160,341,399,369,416,300,2025-05-27T11:32:36.474231
19409,-7.6279,-3.1744,-3.3804,-317.625,-146.230,970.235,408,379,375,406,360,2025-05-27T11:32:36.474231
19410,-7.4049,-3.4585,-2.7733,-312.760,-135.345,929.915,423,409,382,359,368,2025-05-27T11:32:36.474231
19411,-7.3820,-4.0743,-2.4210,-300.440,-125.160,892.395,385,400,382,390,385,2025-05-27T11:32:36.474231
19412,-7.5045,-4.8341,-2.1452,-277.340,-120.610,856.905,398,349,340,407,340,2025-05-27T11:32:36.474231
19413,-7.0355,-5.1913,-1.7314,-224.140,-150.045,817.915,420,396,333,416,332,2025-05-27T11:32:36.474231
19414,-5.7535,-5.8052,-1.4596,-140.385,-175.350,789.110,425,406,366,419,377,2025-05-27T11:32:36.474231
19415,-3.6566,-5.8472,-1.1810,-40.250,-135.345,762.230,392,347,362,408,392,2025-05-27T11:32:36.474231
19416,-2.0418,-5.2060,-0.6642,36.820,9.905,722.575,413,386,378,354,404,2025-05-27T11:32:36.474231
19417,-1.5084,-4.5160,-0.3314,88.515,154.560,663.460,393,386,385,397,389,2025-05-27T11:32:36.474231
19418,-1.5660,-4.1256,-0.0966,103.320,245.630,600.180,337,410,386,402,410,2025-05-27T11:32:36.474231
19419,-1.9256,-3.9172,0.2586,107.520,235.340,521.990,419,402,392,401,393,2025-05-27T11:32:36.585245
19420,-1.8949,-3.6224,0.6949,110.530,160.930,462.105,405,427,393,408,388,2025-05-27T11:32:36.585245
19421,-1.4435,-3.2091,0.9628,116.340,140.595,389.480,421,427,383,410,398,2025-05-27T11:32:36.585245
19422,-1.1566,-2.7104,1.2039,119.700,176.890,322.665,436,427,373,397,394,2025-05-27T11:32:36.585245
19423,-0.9965,-2.5679,1.3596,121.730,217.840,260.260,412,425,384,411,396,2025-05-27T11:32:36.585245
19424,-1.1004,-2.3102,1.5631,125.580,234.850,205.765,427,415,390,416,418,2025-05-27T11:32:36.585245
19425,-1.1707,-2.0657,1.6167,138.110,227.675,154.595,425,416,378,409,401,2025-05-27T11:32:36.585245
19426,-1.1419,-1.6621,1.4889,160.965,206.815,104.020,421,394,372,352,307,2025-05-27T11:32:36.585245
19427,-1.1424,-1.3200,1.3030,188.160,203.175,56.280,414,410,340,403,321,2025-05-27T11:32:36.585245
19428,-1.2083,-1.0668,1.2098,216.720,185.010,21.420,397,435,359,343,379,2025-05-27T11:32:36.585245
19429,-1.2542,-0.9018,1.0995,245.280,156.485,-15.190,405,414,361,397,407,2025-05-27T11:32:36.585245
19430,-1.1951,-0.7544,0.9736,272.930,126.035,-42.385,390,432,378,413,392,2025-05-27T11:32:36.585245
19431,-1.1741,-0.6412,0.9345,298.515,115.430,-67.060,415,409,375,406,394,2025-05-27T11:32:36.585245
19432,-1.1356,-0.4836,0.8140,317.135,119.700,-88.620,415,418,353,418,401,2025-05-27T11:32:36.585245
19433,-1.2317,-0.3270,0.7183,337.085,125.090,-109.270,395,340,341,399,351,2025-05-27T11:32:36.585245
19434,-1.3571,-0.1674,0.5998,353.500,117.600,-125.405,410,417,349,405,381,2025-05-27T11:32:36.585245
19435,-1.5611,-0.0913,0.4987,373.905,95.795,-135.065,402,300,359,414,399,2025-05-27T11:32:36.585245
19436,-1.6729,-0.0127,0.4158,392.035,56.595,-137.550,379,400,333,415,406,2025-05-27T11:32:36.667612
19437,-1.7324,0.0366,0.3684,404.635,9.485,-138.460,408,354,321,388,403,2025-05-27T11:32:36.667612
19438,-1.6226,0.1498,0.4280,412.020,-28.665,-137.025,399,392,342,403,399,2025-05-27T11:32:36.667612
19439,-1.5431,0.2596,0.4343,412.020,-53.060,-135.485,412,344,326,410,414,2025-05-27T11:32:36.667612
19440,-1.4152,0.4172,0.3445,411.075,-66.045,-129.080,406,406,364,402,423,2025-05-27T11:32:36.901945
19441,-1.3806,0.5383,0.2250,412.755,-75.180,-121.275,414,361,333,395,413,2025-05-27T11:32:36.901945
19442,-1.4435,0.5636,0.0864,414.540,-87.220,-113.785,401,407,363,382,414,2025-05-27T11:32:36.901945
19443,-1.4816,0.6080,-0.0117,418.390,-110.705,-101.255,342,397,360,363,405,2025-05-27T11:32:36.901945
19444,-1.4211,0.6934,-0.0361,416.990,-127.260,-83.685,371,337,367,379,401,2025-05-27T11:32:36.901945
19445,-1.4289,0.8076,-0.0551,402.570,-136.850,-60.830,400,412,340,397,410,2025-05-27T11:32:36.901945
19446,-1.4259,0.8067,0.0185,381.535,-145.740,-36.680,419,422,361,397,392,2025-05-27T11:32:36.901945
19447,-1.4264,0.9277,-0.0049,360.745,-156.835,-14.420,428,431,363,401,388,2025-05-27T11:32:36.901945
19448,-1.4123,0.9355,-0.0752,341.390,-168.980,11.725,366,429,332,390,408,2025-05-27T11:32:36.901945
19449,-1.3708,0.9506,-0.1503,325.430,-179.550,32.305,401,422,363,415,401,2025-05-27T11:32:36.901945
19450,-1.3327,0.9794,-0.2308,311.010,-188.195,48.405,420,405,384,416,392,2025-05-27T11:32:36.901945
19451,-1.2010,0.9867,-0.2162,298.865,-193.795,63.035,378,418,342,418,417,2025-05-27T11:32:36.901945
19452,-1.0121,1.0004,-0.1093,278.180,-190.470,79.905,415,405,369,427,413,2025-05-27T11:32:36.901945
19453,-0.9867,1.0087,-0.0551,255.640,-177.485,98.560,398,352,341,421,405,2025-05-27T11:32:36.901945
19454,-0.9414,1.0019,-0.0356,228.340,-161.210,111.055,384,365,362,404,367,2025-05-27T11:32:36.901945
19455,-0.8969,1.0497,-0.0952,203.840,-145.810,124.635,378,358,344,407,369,2025-05-27T11:32:36.901945
19456,-0.8296,1.0590,-0.1508,183.680,-135.310,136.605,404,403,357,400,360,2025-05-27T11:32:36.901945
19457,-0.9165,1.0751,-0.2128,165.445,-131.880,145.775,405,397,359,396,391,2025-05-27T11:32:36.901945
19458,-0.8974,1.1102,-0.2172,151.305,-146.195,151.900,404,405,334,395,403,2025-05-27T11:32:36.901945
19459,-0.8218,1.0838,-0.1083,133.105,-163.940,154.070,406,344,285,404,401,2025-05-27T11:32:36.901945
19460,-0.7242,1.0316,-0.0356,115.990,-173.215,152.285,396,410,349,415,391,2025-05-27T11:32:36.999017
19461,-0.5402,1.0092,-0.0303,101.850,-179.130,150.640,407,414,338,414,409,2025-05-27T11:32:36.999017
19462,-0.3475,0.9804,-0.1142,100.205,-186.935,148.610,416,428,366,376,367,2025-05-27T11:32:36.999017
19463,-0.2420,0.9414,-0.1562,76.615,-168.385,144.830,395,415,366,410,353,2025-05-27T11:32:36.999017
19464,-0.0854,0.8701,-0.1859,63.910,-144.200,140.105,415,344,379,407,376,2025-05-27T11:32:36.999017
19465,-0.0078,0.8164,-0.1825,50.960,-115.115,132.020,390,419,342,418,402,2025-05-27T11:32:36.999017
19466,-0.0020,0.7100,-0.1430,38.010,-90.615,120.750,427,418,363,411,388,2025-05-27T11:32:37.207230
19467,-0.0493,0.5578,-0.1122,26.390,-74.795,109.200,431,429,369,415,399,2025-05-27T11:32:37.207230
19468,-0.0254,0.4314,-0.1015,17.465,-68.145,100.380,424,426,373,420,354,2025-05-27T11:32:37.207230
19469,0.0449,0.2904,-0.1137,9.205,-63.210,91.910,423,424,349,410,336,2025-05-27T11:32:37.207230
19470,0.1386,0.1708,-0.1396,3.605,-54.775,79.800,430,433,357,397,389,2025-05-27T11:32:37.207230
19471,0.2054,0.0342,-0.2084,11.865,-52.430,60.270,417,424,368,369,382,2025-05-27T11:32:37.207230
19472,0.2791,-0.1142,-0.1908,-5.425,-36.890,42.350,399,419,377,389,394,2025-05-27T11:32:37.207230
19473,0.3001,-0.2743,-0.2303,-8.050,-21.280,22.225,395,424,371,339,377,2025-05-27T11:32:37.207230
19474,0.3567,-0.4168,-0.3021,-6.615,-9.100,-7.175,388,399,372,381,391,2025-05-27T11:32:37.207230
19475,0.4060,-0.5588,-0.3309,-3.465,2.730,-39.935,329,421,365,340,363,2025-05-27T11:32:37.207230
19476,0.4060,-0.6578,-0.3211,-1.995,19.600,-76.160,393,407,378,332,352,2025-05-27T11:32:37.207230
19477,0.3323,-0.7242,-0.2884,-0.735,30.065,-111.230,356,404,345,382,390,2025-05-27T11:32:37.207230
19478,0.2298,-0.7935,-0.2572,1.925,31.675,-142.030,399,422,374,371,399,2025-05-27T11:32:37.207230
19479,0.0712,-0.8677,-0.2098,8.225,26.495,-164.990,387,420,384,398,395,2025-05-27T11:32:37.207230
19480,-0.0644,-0.8999,-0.0834,16.380,16.135,-191.590,406,413,376,405,410,2025-05-27T11:32:37.207230
19481,-0.1728,-0.8174,0.0224,26.600,3.150,-216.090,392,379,389,406,403,2025-05-27T11:32:37.207230
19482,-0.2406,-0.6900,0.0703,40.635,-4.795,-241.990,417,336,388,376,398,2025-05-27T11:32:37.207230
