SeqNum,AccX,AccY,AccZ,GyroX,GyroY,GyroZ,Flex,Force1,Force2,Force3,Force4,TimestampReception
1,-0.3035,0.0649,0.9862,-0.140,-3.675,-0.105,398,428,304,423,366,2025-05-27T22:29:37.591458
2,-0.3065,0.0717,0.9877,0.140,-3.080,-0.210,408,431,334,401,388,2025-05-27T22:29:37.592456
3,-0.3084,0.0712,0.9897,0.140,-3.010,-0.105,418,434,361,408,405,2025-05-27T22:29:37.592456
4,-0.3055,0.0732,0.9902,0.280,-2.940,0.070,343,425,366,372,413,2025-05-27T22:29:37.592638
5,-0.3040,0.0742,0.9911,0.280,-2.905,0.210,381,405,381,339,384,2025-05-27T22:29:37.592638
6,-0.3035,0.0795,0.9858,0.315,-2.730,0.315,413,409,383,375,397,2025-05-27T22:29:37.592638
7,-0.3011,0.0747,0.9848,0.210,-2.590,0.455,429,412,392,347,394,2025-05-27T22:29:37.592638
8,-0.3011,0.0800,0.9843,0.070,-2.415,0.560,373,409,378,330,405,2025-05-27T22:29:37.592638
9,-0.3040,0.0776,0.9833,-0.070,-2.240,0.490,387,417,377,371,410,2025-05-27T22:29:37.592638
10,-0.3084,0.0761,0.9843,-0.280,-2.205,0.455,431,425,385,389,406,2025-05-27T22:29:37.593247
11,-0.3094,0.0712,0.9828,-0.245,-2.485,0.560,397,407,377,387,382,2025-05-27T22:29:37.593247
12,-0.3138,0.0698,0.9848,-0.105,-2.380,0.385,394,400,375,403,402,2025-05-27T22:29:37.593247
13,-0.3133,0.0698,0.9858,0.070,-2.415,0.490,420,421,384,418,404,2025-05-27T22:29:37.593635
14,-0.3128,0.0693,0.9902,0.315,-2.555,0.525,402,403,373,417,386,2025-05-27T22:29:37.593635
15,-0.3118,0.0673,0.9916,0.525,-2.730,0.420,395,409,363,397,400,2025-05-27T22:29:37.906065
16,-0.3089,0.0693,0.9906,0.595,-2.730,0.385,432,395,363,394,406,2025-05-27T22:29:37.906065
17,-0.3065,0.0683,0.9887,0.630,-2.765,0.315,352,414,301,405,416,2025-05-27T22:29:37.906065
18,-0.3045,0.0693,0.9902,0.560,-2.765,0.210,403,402,353,407,399,2025-05-27T22:29:37.907048
19,-0.3035,0.0693,0.9892,0.490,-2.870,0.175,396,359,328,404,393,2025-05-27T22:29:37.907048
20,-0.3016,0.0717,0.9892,0.385,-2.730,0.140,398,413,366,420,388,2025-05-27T22:29:37.907048
21,-0.3026,0.0717,0.9897,0.315,-2.450,0.245,352,399,337,388,391,2025-05-27T22:29:37.907542
22,-0.3060,0.0708,0.9911,0.105,-2.380,0.175,404,349,356,390,407,2025-05-27T22:29:37.907542
23,-0.3079,0.0717,0.9892,0.070,-2.450,0.245,387,422,364,400,417,2025-05-27T22:29:37.907542
24,-0.3113,0.0703,0.9911,0.000,-2.415,0.175,416,426,351,394,409,2025-05-27T22:29:37.907542
25,-0.3138,0.0722,0.9902,0.070,-2.660,0.420,416,407,363,392,397,2025-05-27T22:29:37.907542
26,-0.3118,0.0737,0.9862,0.105,-2.905,0.385,420,417,379,410,411,2025-05-27T22:29:37.907542
27,-0.3113,0.0742,0.9892,-0.035,-2.905,0.455,409,410,385,352,347,2025-05-27T22:29:37.908456
28,-0.3099,0.0737,0.9902,-0.210,-3.150,0.455,402,409,385,390,357,2025-05-27T22:29:37.908456
29,-0.3084,0.0717,0.9911,-0.175,-3.395,0.385,387,415,396,413,373,2025-05-27T22:29:37.908456
30,-0.3050,0.0712,0.9892,0.035,-3.290,0.350,391,403,392,416,302,2025-05-27T22:29:38.063204
31,-0.3026,0.0698,0.9867,0.140,-2.835,0.210,425,337,381,387,371,2025-05-27T22:29:38.063204
32,-0.3055,0.0683,0.9867,0.315,-2.555,0.000,428,417,372,424,379,2025-05-27T22:29:38.063204
33,-0.3050,0.0698,0.9862,0.525,-2.555,-0.035,392,420,336,407,388,2025-05-27T22:29:38.063204
34,-0.3035,0.0727,0.9867,0.350,-2.625,-0.140,410,433,352,394,403,2025-05-27T22:29:38.063204
35,-0.3045,0.0708,0.9882,0.210,-2.590,-0.315,401,425,370,420,410,2025-05-27T22:29:38.063204
36,-0.3055,0.0708,0.9916,0.000,-2.485,-0.315,378,419,376,407,401,2025-05-27T22:29:38.063204
37,-0.3109,0.0712,0.9911,0.035,-2.625,-0.175,390,353,380,366,392,2025-05-27T22:29:38.063204
38,-0.3109,0.0708,0.9921,0.070,-2.765,0.035,422,378,394,403,385,2025-05-27T22:29:38.063204
39,-0.3113,0.0717,0.9892,0.070,-2.905,0.105,402,378,363,398,400,2025-05-27T22:29:38.063204
40,-0.3109,0.0722,0.9892,0.175,-2.905,0.035,417,331,378,412,406,2025-05-27T22:29:38.063204
41,-0.3118,0.0752,0.9916,-0.070,-2.940,0.105,422,388,373,416,411,2025-05-27T22:29:38.063204
42,-0.3099,0.0742,0.9931,-0.245,-3.150,0.140,389,395,381,420,376,2025-05-27T22:29:38.063204
43,-0.3065,0.0732,0.9931,-0.385,-3.360,0.210,407,401,373,391,383,2025-05-27T22:29:38.063204
44,-0.3035,0.0727,0.9921,-0.280,-3.220,0.420,413,422,386,352,391,2025-05-27T22:29:38.063204
45,-0.3045,0.0727,0.9843,-0.210,-2.870,0.420,420,306,386,401,408,2025-05-27T22:29:38.063204
46,-0.3050,0.0737,0.9819,-0.175,-2.765,0.630,431,390,363,394,395,2025-05-27T22:29:38.063204
47,-0.3055,0.0727,0.9814,0.070,-2.660,0.630,401,339,329,383,386,2025-05-27T22:29:38.063204
48,-0.3065,0.0756,0.9823,0.105,-2.660,0.490,400,415,313,403,391,2025-05-27T22:29:38.063204
49,-0.3065,0.0766,0.9858,0.210,-2.625,0.315,416,422,345,415,392,2025-05-27T22:29:38.063204
50,-0.3050,0.0742,0.9892,0.140,-2.660,0.245,346,413,365,350,403,2025-05-27T22:29:38.063204
51,-0.3089,0.0717,0.9877,0.035,-2.765,0.175,393,424,376,394,360,2025-05-27T22:29:38.237973
52,-0.3079,0.0727,0.9892,0.035,-2.695,0.140,363,404,308,401,385,2025-05-27T22:29:38.237973
53,-0.3055,0.0708,0.9867,0.140,-2.660,0.210,392,431,353,408,394,2025-05-27T22:29:38.237973
54,-0.3050,0.0678,0.9867,0.210,-2.520,0.280,427,355,370,403,392,2025-05-27T22:29:38.238505
55,-0.3035,0.0678,0.9858,0.245,-2.240,0.140,421,390,384,369,344,2025-05-27T22:29:38.238505
56,-0.3055,0.0678,0.9877,0.140,-2.065,0.140,381,421,382,383,333,2025-05-27T22:29:38.238505
57,-0.3070,0.0722,0.9872,-0.105,-1.995,-0.070,389,426,375,394,382,2025-05-27T22:29:38.238505
58,-0.3074,0.0708,0.9921,-0.315,-2.065,0.035,337,422,384,357,402,2025-05-27T22:29:38.238505
59,-0.3089,0.0717,0.9945,-0.420,-2.240,0.105,325,399,373,396,407,2025-05-27T22:29:38.238505
60,-0.3099,0.0703,0.9911,-0.315,-2.555,0.245,404,407,377,406,411,2025-05-27T22:29:38.239504
61,-0.3089,0.0722,0.9892,-0.105,-2.590,0.490,408,422,380,396,361,2025-05-27T22:29:38.239504
62,-0.3040,0.0737,0.9848,0.035,-2.520,0.385,394,410,382,369,378,2025-05-27T22:29:38.239504
63,-0.3035,0.0756,0.9867,0.070,-2.345,0.210,366,429,379,389,383,2025-05-27T22:29:38.239504
64,-0.3128,0.0717,0.9926,-0.210,-2.695,0.105,375,421,371,395,380,2025-05-27T22:29:38.471396
65,-0.3113,0.0727,0.9950,-0.350,-3.465,-0.070,413,404,381,398,399,2025-05-27T22:29:38.471396
66,-0.3099,0.0698,0.9955,-0.315,-3.640,-0.035,409,393,369,414,400,2025-05-27T22:29:38.471396
67,-0.3055,0.0664,0.9926,-0.035,-3.220,-0.035,426,403,382,417,397,2025-05-27T22:29:38.471396
68,-0.3094,0.0654,0.9950,-0.070,-3.080,-0.035,397,408,346,358,390,2025-05-27T22:29:38.472435
69,-0.3079,0.0664,0.9965,0.070,-3.290,-0.105,393,401,361,395,394,2025-05-27T22:29:38.472435
70,-0.3035,0.0688,0.9936,-0.035,-3.290,-0.105,416,379,374,411,403,2025-05-27T22:29:38.472435
71,-0.3001,0.0693,0.9911,-0.140,-3.115,-0.105,337,380,347,414,410,2025-05-27T22:29:38.472435
72,-0.3001,0.0722,0.9848,-0.280,-2.905,-0.210,385,417,355,402,420,2025-05-27T22:29:38.472435
73,-0.3006,0.0756,0.9814,-0.560,-2.695,-0.385,369,401,360,413,417,2025-05-27T22:29:38.473432
74,-0.3021,0.0756,0.9814,-0.700,-2.275,-0.455,408,428,364,418,320,2025-05-27T22:29:38.473432
75,-0.3084,0.0756,0.9843,-0.770,-2.135,-0.525,359,403,362,407,362,2025-05-27T22:29:38.473780
76,-0.3148,0.0761,0.9867,-0.805,-2.415,-0.420,388,420,380,377,368,2025-05-27T22:29:38.474017
77,-0.3172,0.0712,0.9897,-0.630,-2.695,-0.245,356,425,387,378,381,2025-05-27T22:29:38.474017
78,-0.3143,0.0717,0.9892,-0.385,-2.800,0.105,393,428,382,397,396,2025-05-27T22:29:38.474017
79,-0.3113,0.0717,0.9862,-0.035,-2.940,0.385,383,400,347,391,410,2025-05-27T22:29:38.474017
80,-0.3079,0.0708,0.9867,0.140,-3.045,0.455,418,437,359,384,370,2025-05-27T22:29:38.474970
81,-0.3026,0.0732,0.9843,0.315,-2.800,0.455,419,414,365,404,387,2025-05-27T22:29:38.474970
82,-0.2982,0.0717,0.9848,0.175,-2.625,0.315,394,427,363,400,357,2025-05-27T22:29:38.474970
83,-0.2987,0.0712,0.9867,-0.070,-2.170,0.070,414,426,370,392,378,2025-05-27T22:29:38.474970
84,-0.2987,0.0727,0.9862,-0.210,-1.645,-0.035,355,410,370,350,393,2025-05-27T22:29:38.474970
85,-0.3050,0.0693,0.9877,-0.210,-1.365,-0.035,404,421,376,293,381,2025-05-27T22:29:38.634903
86,-0.3094,0.0712,0.9843,-0.245,-1.330,0.000,426,374,345,379,408,2025-05-27T22:29:38.634903
87,-0.3133,0.0688,0.9867,-0.280,-1.645,0.070,430,415,358,406,421,2025-05-27T22:29:38.634903
88,-0.3172,0.0693,0.9872,-0.140,-2.030,0.245,405,422,372,415,418,2025-05-27T22:29:38.634903
89,-0.3162,0.0683,0.9877,-0.070,-2.450,0.420,384,360,371,407,403,2025-05-27T22:29:38.634903
90,-0.3148,0.0669,0.9887,0.035,-2.800,0.350,413,416,379,385,389,2025-05-27T22:29:38.634903
91,-0.3104,0.0649,0.9926,0.210,-3.010,0.350,340,402,389,390,408,2025-05-27T22:29:38.634903
92,-0.3079,0.0654,0.9921,0.210,-3.115,0.315,385,405,384,393,394,2025-05-27T22:29:38.634903
93,-0.3035,0.0669,0.9897,0.280,-2.905,0.140,350,345,386,399,391,2025-05-27T22:29:38.634903
94,-0.3016,0.0669,0.9897,0.315,-2.415,-0.035,409,389,378,352,307,2025-05-27T22:29:38.634903
95,-0.3011,0.0703,0.9892,0.245,-2.065,-0.210,387,416,373,384,317,2025-05-27T22:29:38.634903
96,-0.3035,0.0693,0.9887,0.175,-1.715,-0.315,393,413,383,385,369,2025-05-27T22:29:38.634903
97,-0.3070,0.0708,0.9887,0.035,-1.750,-0.315,410,393,386,392,384,2025-05-27T22:29:38.634903
98,-0.3089,0.0717,0.9858,-0.070,-1.750,-0.280,425,417,373,406,383,2025-05-27T22:29:38.634903
99,-0.3113,0.0727,0.9882,-0.210,-1.820,-0.245,402,424,390,407,381,2025-05-27T22:29:38.804352
100,-0.3148,0.0737,0.9853,-0.420,-2.205,0.000,390,405,387,387,380,2025-05-27T22:29:38.805216
101,-0.3143,0.0732,0.9892,-0.315,-2.485,0.140,395,394,374,401,375,2025-05-27T22:29:38.805352
102,-0.3143,0.0727,0.9897,-0.350,-2.660,0.280,393,407,381,340,385,2025-05-27T22:29:38.805352
103,-0.3118,0.0722,0.9892,-0.245,-2.835,0.455,412,362,387,390,413,2025-05-27T22:29:38.805352
104,-0.3084,0.0698,0.9877,-0.175,-2.835,0.420,416,389,395,382,408,2025-05-27T22:29:38.805352
105,-0.3074,0.0712,0.9848,-0.035,-2.555,0.280,428,420,383,390,417,2025-05-27T22:29:38.805352
106,-0.3040,0.0688,0.9848,0.000,-2.345,-0.070,433,407,375,340,392,2025-05-27T22:29:38.805352
107,-0.3065,0.0683,0.9867,-0.140,-2.170,-0.210,430,419,389,370,393,2025-05-27T22:29:38.805352
108,-0.3089,0.0678,0.9867,-0.035,-2.065,-0.280,419,415,372,404,403,2025-05-27T22:29:38.805352
109,-0.3109,0.0678,0.9853,0.035,-1.960,-0.315,422,400,372,412,355,2025-05-27T22:29:38.805352
110,-0.3128,0.0683,0.9877,0.210,-1.960,-0.245,412,381,376,358,379,2025-05-27T22:29:38.806320
111,-0.3143,0.0683,0.9892,0.070,-2.065,-0.420,411,392,374,360,397,2025-05-27T22:29:38.806320
112,-0.3157,0.0698,0.9887,0.070,-2.170,-0.280,342,394,385,391,392,2025-05-27T22:29:38.806320
113,-0.3148,0.0698,0.9872,0.175,-2.275,-0.210,383,342,354,391,395,2025-05-27T22:29:38.806320
114,-0.3133,0.0688,0.9858,0.175,-2.485,-0.035,383,385,355,408,393,2025-05-27T22:29:38.806320
115,-0.3118,0.0712,0.9867,0.070,-2.590,-0.035,393,420,378,366,393,2025-05-27T22:29:38.806320
116,-0.3070,0.0698,0.9867,0.105,-2.520,-0.105,341,404,387,393,409,2025-05-27T22:29:38.807321
117,-0.3079,0.0727,0.9882,0.000,-2.275,-0.140,408,413,381,396,395,2025-05-27T22:29:38.888292
118,-0.3060,0.0717,0.9877,-0.070,-2.100,-0.140,423,407,388,397,344,2025-05-27T22:29:38.888986
119,-0.3109,0.0712,0.9887,-0.105,-2.030,-0.140,360,393,391,395,329,2025-05-27T22:29:38.888986
120,-0.3123,0.0732,0.9887,-0.035,-1.855,-0.210,394,348,383,400,366,2025-05-27T22:29:38.888986
121,-0.3133,0.0717,0.9877,-0.035,-1.925,-0.035,415,375,380,403,388,2025-05-27T22:29:38.888986
122,-0.3157,0.0727,0.9877,0.000,-2.065,0.000,379,409,383,409,385,2025-05-27T22:29:38.888986
123,-0.3143,0.0717,0.9882,-0.070,-2.170,0.035,406,430,376,417,381,2025-05-27T22:29:38.888986
124,-0.3143,0.0712,0.9872,-0.035,-2.310,0.210,421,415,372,419,401,2025-05-27T22:29:38.991552
125,-0.3099,0.0727,0.9853,-0.105,-2.275,0.070,430,430,383,419,397,2025-05-27T22:29:38.991552
126,-0.3094,0.0688,0.9843,-0.070,-2.100,0.105,397,401,390,410,363,2025-05-27T22:29:38.991552
127,-0.3094,0.0688,0.9848,-0.140,-1.995,0.105,395,414,382,411,338,2025-05-27T22:29:38.991552
128,-0.3104,0.0688,0.9853,-0.140,-2.030,0.070,339,422,383,393,380,2025-05-27T22:29:38.991552
129,-0.3123,0.0678,0.9843,0.000,-2.065,0.000,369,431,371,408,392,2025-05-27T22:29:38.991552
130,-0.3089,0.0698,0.9862,0.070,-1.785,-0.035,404,412,354,399,392,2025-05-27T22:29:38.991552
131,-0.3099,0.0673,0.9877,0.070,-1.435,-0.175,401,404,366,394,406,2025-05-27T22:29:38.991552
132,-0.3148,0.0688,0.9877,0.070,-1.365,-0.280,355,395,366,409,405,2025-05-27T22:29:38.991552
133,-0.3187,0.0698,0.9862,0.175,-1.750,-0.210,326,426,349,348,361,2025-05-27T22:29:39.129509
134,-0.3152,0.0698,0.9853,0.210,-2.205,-0.105,410,427,366,378,398,2025-05-27T22:29:39.129509
135,-0.3143,0.0683,0.9843,0.210,-1.995,-0.070,416,428,374,404,370,2025-05-27T22:29:39.129509
136,-0.3133,0.0693,0.9848,0.175,-2.170,-0.140,424,424,339,395,393,2025-05-27T22:29:39.129509
137,-0.3133,0.0698,0.9833,0.245,-2.275,-0.140,431,416,364,410,395,2025-05-27T22:29:39.129509
138,-0.3123,0.0693,0.9897,0.175,-1.995,-0.140,421,415,377,407,383,2025-05-27T22:29:39.129509
139,-0.3148,0.0712,0.9897,0.035,-1.855,-0.420,427,407,387,389,346,2025-05-27T22:29:39.129509
140,-0.3167,0.0717,0.9902,-0.105,-2.135,-0.420,417,402,384,347,349,2025-05-27T22:29:39.129509
141,-0.3182,0.0693,0.9906,-0.280,-2.310,-0.245,401,423,340,326,392,2025-05-27T22:29:39.129509
142,-0.3177,0.0688,0.9882,-0.140,-2.520,-0.210,391,399,353,382,405,2025-05-27T22:29:39.129509
143,-0.3162,0.0678,0.9858,0.175,-2.800,0.000,399,420,330,404,371,2025-05-27T22:29:39.129509
144,-0.3143,0.0693,0.9833,0.175,-2.765,0.105,424,305,341,390,395,2025-05-27T22:29:39.454635
145,-0.3104,0.0708,0.9814,0.140,-2.520,0.210,412,338,370,364,397,2025-05-27T22:29:39.455194
146,-0.3138,0.0703,0.9794,0.105,-2.485,0.315,420,359,373,391,401,2025-05-27T22:29:39.455194
147,-0.3148,0.0708,0.9819,0.210,-2.485,0.315,424,402,353,403,399,2025-05-27T22:29:39.455194
148,-0.3157,0.0708,0.9838,0.175,-2.660,0.350,414,415,367,418,409,2025-05-27T22:29:39.455194
149,-0.3177,0.0703,0.9838,0.315,-2.940,0.385,399,419,371,411,408,2025-05-27T22:29:39.455194
150,-0.3182,0.0708,0.9858,0.210,-3.045,0.350,417,348,349,400,393,2025-05-27T22:29:39.456140
151,-0.3182,0.0688,0.9872,0.140,-3.220,0.420,418,336,328,345,379,2025-05-27T22:29:39.456140
152,-0.3192,0.0659,0.9867,0.210,-3.325,0.455,432,404,368,379,384,2025-05-27T22:29:39.456140
153,-0.3152,0.0649,0.9833,0.105,-3.255,0.350,425,341,378,391,393,2025-05-27T22:29:39.456140
154,-0.3182,0.0659,0.9833,0.140,-3.115,0.280,420,386,379,384,353,2025-05-27T22:29:39.456140
155,-0.3177,0.0639,0.9828,0.175,-3.150,0.210,416,384,350,410,380,2025-05-27T22:29:39.456140
156,-0.3187,0.0669,0.9838,0.070,-3.290,0.245,415,401,368,416,349,2025-05-27T22:29:39.456140
157,-0.3187,0.0649,0.9848,0.105,-3.290,0.210,393,401,364,352,369,2025-05-27T22:29:39.456140
158,-0.3148,0.0693,0.9853,0.105,-3.535,0.140,401,409,362,381,399,2025-05-27T22:29:39.456140
159,-0.3109,0.0708,0.9853,0.245,-3.430,0.175,414,347,376,359,383,2025-05-27T22:29:39.559080
160,-0.3074,0.0737,0.9843,0.280,-3.045,0.175,430,418,383,384,389,2025-05-27T22:29:39.559080
161,-0.3079,0.0756,0.9843,0.385,-2.765,0.140,415,420,389,388,356,2025-05-27T22:29:39.559080
162,-0.3113,0.0761,0.9843,0.245,-2.555,0.035,384,410,384,356,335,2025-05-27T22:29:39.559080
163,-0.3148,0.0766,0.9867,0.140,-2.870,0.175,409,430,383,382,387,2025-05-27T22:29:39.559080
164,-0.3216,0.0742,0.9916,0.105,-3.115,0.245,412,426,391,407,401,2025-05-27T22:29:39.559080
165,-0.3192,0.0732,0.9892,-0.070,-3.465,0.385,341,416,381,415,388,2025-05-27T22:29:39.559080
166,-0.3187,0.0698,0.9906,-0.245,-3.605,0.350,391,405,387,386,383,2025-05-27T22:29:39.559080
167,-0.3152,0.0698,0.9887,-0.070,-3.605,0.420,399,423,385,394,396,2025-05-27T22:29:39.559080
168,-0.3123,0.0693,0.9862,8.890,-3.570,0.525,399,417,389,389,382,2025-05-27T22:29:39.559080
169,-0.3099,0.0683,0.9862,-0.070,-3.535,0.455,425,425,373,341,395,2025-05-27T22:29:39.559080
170,-0.3104,0.0683,0.9872,-0.105,-3.500,0.350,419,412,379,373,397,2025-05-27T22:29:39.559080
171,-0.3123,0.0722,0.9877,-0.140,-3.430,0.315,415,395,366,397,392,2025-05-27T22:29:39.559080
172,-0.3079,0.0717,0.9858,-0.210,-3.395,0.315,406,380,349,393,384,2025-05-27T22:29:39.559080
173,-0.3123,0.0703,0.9867,-0.245,-3.255,0.280,370,400,328,358,343,2025-05-27T22:29:39.559080
174,-0.3133,0.0712,0.9867,-0.210,-3.220,0.245,332,373,356,394,375,2025-05-27T22:29:39.559080
175,-0.3133,0.0712,0.9858,-0.245,-3.255,0.245,389,418,344,360,362,2025-05-27T22:29:39.559080
176,-0.3157,0.0708,0.9833,-0.140,-3.255,0.245,339,362,374,383,386,2025-05-27T22:29:39.559080
177,-0.3133,0.0698,0.9833,-0.175,-3.220,0.350,405,331,375,410,369,2025-05-27T22:29:39.563405
178,-0.3113,0.0732,0.9867,-0.280,-3.360,0.175,399,383,370,412,382,2025-05-27T22:29:39.563405
179,-0.3113,0.0673,0.9872,-0.245,-3.220,0.140,394,427,369,404,347,2025-05-27T22:29:39.563405
180,-0.3138,0.0683,0.9872,-0.070,-3.150,0.280,401,402,384,412,392,2025-05-27T22:29:39.856382
181,-0.3128,0.0678,0.9897,-0.070,-3.010,0.245,423,388,347,391,398,2025-05-27T22:29:39.856382
182,-0.3162,0.0678,0.9902,0.035,-3.080,0.210,412,419,359,387,397,2025-05-27T22:29:39.856382
183,-0.3133,0.0688,0.9867,0.070,-3.325,0.245,393,420,337,404,371,2025-05-27T22:29:39.856382
184,-0.3118,0.0688,0.9867,0.070,-3.220,0.315,374,407,320,405,389,2025-05-27T22:29:39.856382
185,-0.3109,0.0708,0.9843,0.070,-3.115,0.350,392,407,350,420,366,2025-05-27T22:29:39.856382
186,-0.3109,0.0712,0.9862,0.140,-3.150,0.315,408,375,366,373,388,2025-05-27T22:29:39.856382
187,-0.3128,0.0708,0.9902,-0.105,-3.185,0.245,411,378,364,388,407,2025-05-27T22:29:39.856382
188,-0.3118,0.0703,0.9906,-0.070,-3.150,0.210,402,419,374,413,392,2025-05-27T22:29:39.856382
189,-0.3123,0.0683,0.9877,0.035,-3.185,0.245,424,377,363,413,409,2025-05-27T22:29:39.856382
190,-0.3123,0.0678,0.9882,0.070,-3.255,0.280,404,414,340,379,390,2025-05-27T22:29:39.856382
191,-0.3133,0.0703,0.9877,0.105,-3.325,0.315,403,431,366,403,406,2025-05-27T22:29:39.856382
192,-0.3109,0.0703,0.9872,0.140,-3.465,0.385,396,387,364,408,414,2025-05-27T22:29:39.856382
193,-0.3089,0.0708,0.9877,-0.035,-3.395,0.385,411,424,383,411,413,2025-05-27T22:29:39.856382
194,-0.3084,0.0708,0.9892,-0.140,-3.290,0.420,394,421,389,389,386,2025-05-27T22:29:39.975947
195,-0.3123,0.0712,0.9906,-0.140,-3.255,0.490,417,350,396,384,387,2025-05-27T22:29:39.975947
196,-0.3113,0.0688,0.9911,-0.175,-3.360,0.525,420,417,381,393,385,2025-05-27T22:29:39.975947
197,-0.3118,0.0703,0.9892,-0.105,-3.500,0.560,392,400,387,404,410,2025-05-27T22:29:39.975947
198,-0.3128,0.0708,0.9843,0.000,-3.430,0.665,413,339,386,400,373,2025-05-27T22:29:39.975947
199,-0.3113,0.0683,0.9858,-0.035,-3.465,0.665,409,390,343,405,389,2025-05-27T22:29:39.975947
200,-0.3113,0.0708,0.9862,-0.070,-3.535,0.595,424,406,361,399,387,2025-05-27T22:29:39.975947
201,-0.3099,0.0688,0.9858,0.035,-3.640,0.490,420,401,365,386,398,2025-05-27T22:29:40.311999
202,-0.3094,0.0698,0.9867,0.000,-3.500,0.455,418,354,367,387,379,2025-05-27T22:29:40.311999
203,-0.3094,0.0683,0.9887,0.000,-3.430,0.280,392,420,374,398,306,2025-05-27T22:29:40.311999
204,-0.3094,0.0688,0.9872,-0.070,-3.395,0.385,374,359,378,385,365,2025-05-27T22:29:40.311999
205,-0.3109,0.0698,0.9887,0.140,-3.360,0.350,329,400,370,409,391,2025-05-27T22:29:40.311999
206,-0.3104,0.0693,0.9872,0.175,-3.290,0.315,372,408,377,404,404,2025-05-27T22:29:40.311999
207,-0.3099,0.0698,0.9882,0.070,-3.220,0.245,407,403,367,413,401,2025-05-27T22:29:40.311999
208,-0.3109,0.0712,0.9887,0.140,-3.360,0.315,389,396,371,417,401,2025-05-27T22:29:40.311999
209,-0.3079,0.0708,0.9882,0.070,-3.465,0.385,397,420,372,403,350,2025-05-27T22:29:40.311999
210,-0.3084,0.0732,0.9897,-0.035,-3.325,0.315,408,377,382,416,399,2025-05-27T22:29:40.311999
211,-0.3109,0.0717,0.9892,-0.105,-3.325,0.385,424,417,384,396,394,2025-05-27T22:29:40.311999
212,-0.3084,0.0698,0.9872,-0.070,-3.500,0.385,434,406,382,363,396,2025-05-27T22:29:40.311999
213,-0.3065,0.0712,0.9872,-0.035,-3.430,0.420,368,416,340,404,389,2025-05-27T22:29:40.311999
214,-0.3065,0.0693,0.9877,0.000,-3.255,0.455,407,432,372,411,379,2025-05-27T22:29:40.311999
215,-0.3079,0.0722,0.9877,0.070,-3.255,0.385,403,413,368,394,390,2025-05-27T22:29:40.311999
216,-0.3050,0.0703,0.9867,0.035,-3.290,0.350,393,395,372,350,380,2025-05-27T22:29:40.311999
217,-0.3055,0.0708,0.9902,-0.070,-3.185,0.350,393,415,375,397,403,2025-05-27T22:29:40.311999
218,-0.3074,0.0722,0.9892,0.000,-3.010,0.280,401,398,381,412,352,2025-05-27T22:29:40.311999
219,-0.3104,0.0732,0.9902,-0.105,-3.010,0.280,393,401,374,416,395,2025-05-27T22:29:40.311999
220,-0.3084,0.0698,0.9867,-0.140,-3.080,0.245,393,391,342,414,398,2025-05-27T22:29:40.311999
221,-0.3084,0.0688,0.9872,-0.035,-3.185,0.315,408,417,355,413,393,2025-05-27T22:29:40.311999
222,-0.3079,0.0693,0.9877,0.000,-3.220,0.245,426,410,369,353,399,2025-05-27T22:29:40.311999
223,-0.3094,0.0708,0.9897,-0.035,-3.080,0.350,412,414,380,354,406,2025-05-27T22:29:40.311999
224,-0.3040,0.0669,0.9892,0.035,-2.975,0.280,409,410,389,390,405,2025-05-27T22:29:40.311999
225,-0.3050,0.0669,0.9862,0.175,-2.660,0.175,414,408,377,387,393,2025-05-27T22:29:40.311999
226,-0.3050,0.0703,0.9887,0.280,-2.730,0.140,422,342,348,365,403,2025-05-27T22:29:40.311999
227,-0.3070,0.0732,0.9872,0.210,-2.765,0.280,419,401,356,362,369,2025-05-27T22:29:40.311999
228,-0.3060,0.0703,0.9877,0.000,-2.625,0.210,405,418,373,376,351,2025-05-27T22:29:40.311999
229,-0.3089,0.0683,0.9887,8.925,-2.660,0.175,336,433,381,398,346,2025-05-27T22:29:40.311999
230,-0.3094,0.0698,0.9887,0.035,-2.940,0.210,407,410,345,393,365,2025-05-27T22:29:40.311999
231,-0.3104,0.0717,0.9906,0.175,-3.080,0.280,338,421,357,406,382,2025-05-27T22:29:40.311999
232,-0.3104,0.0712,0.9867,0.280,-3.010,0.245,345,405,375,392,397,2025-05-27T22:29:40.311999
233,-0.3060,0.0737,0.9848,0.175,-2.975,0.105,380,436,371,413,382,2025-05-27T22:29:40.311999
234,-0.3084,0.0722,0.9911,-0.105,-2.940,0.070,380,423,370,380,383,2025-05-27T22:29:40.311999
235,-0.3065,0.0703,0.9926,-0.175,-2.940,0.070,389,422,389,407,402,2025-05-27T22:29:40.311999
236,-0.3089,0.0683,0.9936,-0.105,-3.080,0.035,401,430,393,416,398,2025-05-27T22:29:40.311999
237,-0.3070,0.0688,0.9892,-0.210,-3.080,0.385,424,425,379,394,408,2025-05-27T22:29:40.421139
238,-0.3065,0.0693,0.9862,-0.140,-2.835,0.455,424,434,352,349,386,2025-05-27T22:29:40.421139
239,-0.3079,0.0732,0.9872,-0.070,-2.765,0.595,428,359,327,382,395,2025-05-27T22:29:40.421139
240,-0.3089,0.0722,0.9843,0.000,-2.975,0.665,405,391,357,403,346,2025-05-27T22:29:40.421139
241,-0.3065,0.0727,0.9853,0.280,-3.185,0.560,422,423,359,409,377,2025-05-27T22:29:40.421139
242,-0.3074,0.0732,0.9853,0.245,-3.360,0.630,343,391,328,419,379,2025-05-27T22:29:40.421139
243,-0.3079,0.0732,0.9867,0.210,-3.500,0.455,373,403,346,396,355,2025-05-27T22:29:40.421139
244,-0.3079,0.0722,0.9902,0.105,-3.430,0.455,405,416,375,411,369,2025-05-27T22:29:40.421139
245,-0.3084,0.0683,0.9926,0.070,-3.150,0.420,397,426,342,399,394,2025-05-27T22:29:40.421139
246,-0.3074,0.0669,0.9911,0.035,-3.290,0.280,393,394,372,398,343,2025-05-27T22:29:40.421139
247,-0.3055,0.0649,0.9882,0.175,-3.465,0.245,394,416,383,413,370,2025-05-27T22:29:40.421139
248,-0.3035,0.0678,0.9858,0.350,-3.255,0.140,415,418,388,352,333,2025-05-27T22:29:40.421139
249,-0.3040,0.0673,0.9877,0.210,-2.835,0.175,413,408,348,371,379,2025-05-27T22:29:40.421139
250,-0.3060,0.0708,0.9872,0.105,-2.905,-0.035,389,401,367,389,396,2025-05-27T22:29:40.421139
251,-0.3065,0.0688,0.9897,-0.035,-2.905,0.035,396,352,339,406,397,2025-05-27T22:29:40.421139
252,-0.3045,0.0708,0.9897,-0.175,-2.870,0.070,390,393,366,407,407,2025-05-27T22:29:40.421139
253,-0.3011,0.0717,0.9892,-0.140,-2.940,0.210,417,418,373,401,406,2025-05-27T22:29:40.421139
254,-0.3045,0.0732,0.9862,-0.035,-2.800,0.245,434,348,367,405,381,2025-05-27T22:29:40.527633
255,-0.3040,0.0756,0.9858,0.070,-2.485,0.105,395,403,363,400,404,2025-05-27T22:29:40.527633
256,-0.3065,0.0776,0.9862,0.035,-2.555,0.140,378,431,365,402,395,2025-05-27T22:29:40.527633
257,-0.3089,0.0786,0.9892,-0.070,-2.800,0.210,397,417,360,390,344,2025-05-27T22:29:40.527633
258,-0.3089,0.0766,0.9916,-0.245,-3.010,0.280,379,393,369,405,391,2025-05-27T22:29:40.527633
259,-0.3109,0.0732,0.9892,-0.245,-3.185,0.315,407,423,381,394,405,2025-05-27T22:29:40.527633
260,-0.3079,0.0708,0.9902,-0.245,-3.185,0.350,391,427,342,392,368,2025-05-27T22:29:40.527633
261,-0.3055,0.0693,0.9892,-0.210,-3.080,0.315,365,407,351,341,384,2025-05-27T22:29:40.527633
262,-0.3055,0.0664,0.9897,-0.140,-2.975,0.315,335,392,374,378,386,2025-05-27T22:29:40.527633
263,-0.3055,0.0654,0.9911,0.000,-2.975,0.140,407,341,366,406,414,2025-05-27T22:29:40.754543
264,-0.3021,0.0693,0.9902,0.035,-2.835,0.245,403,380,385,410,400,2025-05-27T22:29:40.754543
265,-0.3035,0.0708,0.9882,0.105,-2.800,0.140,387,391,375,407,395,2025-05-27T22:29:40.754543
266,-0.3030,0.0737,0.9862,0.070,-2.695,0.105,387,338,332,416,400,2025-05-27T22:29:40.770365
267,-0.3030,0.0732,0.9853,0.000,-2.660,0.105,418,390,365,415,410,2025-05-27T22:29:40.770365
268,-0.3060,0.0727,0.9858,-0.070,-2.695,0.035,432,365,370,409,396,2025-05-27T22:29:40.770558
269,-0.3045,0.0722,0.9926,-0.245,-2.625,0.105,398,404,370,415,405,2025-05-27T22:29:40.770684
270,-0.3070,0.0708,0.9906,-0.210,-2.555,0.105,393,432,383,413,406,2025-05-27T22:29:40.770684
271,-0.3089,0.0703,0.9892,-0.175,-2.660,0.175,411,433,344,408,400,2025-05-27T22:29:40.770684
272,-0.3099,0.0688,0.9892,-0.105,-2.730,0.140,401,416,370,402,312,2025-05-27T22:29:40.770684
273,-0.3099,0.0664,0.9897,-0.105,-2.905,0.105,400,429,384,349,357,2025-05-27T22:29:40.770684
274,-0.3070,0.0673,0.9897,0.000,-3.150,0.140,337,399,379,374,375,2025-05-27T22:29:40.770684
275,-0.3065,0.0688,0.9916,0.035,-3.115,0.175,384,354,378,407,380,2025-05-27T22:29:40.770684
276,-0.3045,0.0708,0.9902,0.035,-2.870,0.245,406,358,387,398,385,2025-05-27T22:29:40.770684
277,-0.3030,0.0712,0.9887,0.000,-2.905,0.175,388,385,385,401,402,2025-05-27T22:29:40.770684
278,-0.3045,0.0742,0.9877,-0.070,-2.940,0.140,422,403,383,407,347,2025-05-27T22:29:40.770684
279,-0.3050,0.0737,0.9862,-0.070,-2.835,0.210,390,374,373,397,391,2025-05-27T22:29:40.770684
280,-0.3055,0.0732,0.9862,-0.140,-2.765,0.175,412,426,340,398,394,2025-05-27T22:29:40.770684
281,-0.3055,0.0732,0.9906,-0.105,-2.870,0.245,373,417,324,397,378,2025-05-27T22:29:40.770684
282,-0.3089,0.0698,0.9926,-0.105,-2.835,0.245,411,416,353,386,393,2025-05-27T22:29:40.847244
283,-0.3060,0.0683,0.9892,-0.070,-3.115,0.210,418,428,326,346,406,2025-05-27T22:29:40.847244
284,-0.3070,0.0698,0.9892,-0.035,-2.975,0.245,400,438,360,352,355,2025-05-27T22:29:40.847244
285,-0.3050,0.0683,0.9892,-0.105,-2.940,0.245,422,427,370,379,371,2025-05-27T22:29:40.847244
286,-0.3050,0.0688,0.9892,0.140,-3.010,0.350,416,385,372,363,389,2025-05-27T22:29:40.847244
287,-0.3040,0.0698,0.9897,0.140,-3.115,0.280,421,413,374,386,414,2025-05-27T22:29:40.847244
288,-0.3016,0.0717,0.9906,-0.035,-2.765,0.175,436,426,386,399,394,2025-05-27T22:29:40.847244
289,-0.3074,0.0683,0.9921,-0.035,-2.870,0.105,377,391,367,395,406,2025-05-27T22:29:40.937971
290,-0.3050,0.0712,0.9882,-0.070,-3.010,0.140,390,354,338,392,411,2025-05-27T22:29:40.937971
291,-0.3035,0.0747,0.9892,0.070,-2.870,0.245,413,411,347,401,401,2025-05-27T22:29:40.937971
292,-0.3045,0.0722,0.9892,-0.035,-2.765,0.210,419,416,374,400,363,2025-05-27T22:29:40.937971
293,-0.3055,0.0703,0.9897,-0.140,-2.940,0.105,412,377,371,343,391,2025-05-27T22:29:40.937971
294,-0.3035,0.0722,0.9887,-0.140,-2.870,0.245,416,415,378,375,342,2025-05-27T22:29:40.937971
295,-0.3035,0.0722,0.9902,-0.140,-2.695,0.175,350,409,381,390,388,2025-05-27T22:29:40.937971
296,-0.3060,0.0703,0.9921,-0.105,-2.765,0.140,376,347,360,410,350,2025-05-27T22:29:40.937971
297,-0.3074,0.0693,0.9897,-0.035,-2.940,0.140,344,358,341,400,351,2025-05-27T22:29:41.238296
298,-0.3055,0.0693,0.9906,0.000,-2.975,0.105,400,412,375,408,377,2025-05-27T22:29:41.238296
299,-0.3055,0.0722,0.9887,0.070,-2.835,0.210,389,437,383,416,392,2025-05-27T22:29:41.238296
300,-0.3035,0.0737,0.9882,0.035,-3.010,0.175,392,433,371,423,399,2025-05-27T22:29:41.238296
301,-0.3060,0.0727,0.9911,-0.175,-3.010,0.175,415,415,369,420,313,2025-05-27T22:29:41.238296
302,-0.3079,0.0732,0.9877,-0.175,-3.080,0.245,336,423,369,348,360,2025-05-27T22:29:41.238296
303,-0.3050,0.0712,0.9892,-0.105,-3.150,0.350,417,406,367,391,377,2025-05-27T22:29:41.238296
304,-0.3030,0.0717,0.9872,-0.070,-3.150,0.280,339,400,372,392,344,2025-05-27T22:29:41.238296
305,-0.3006,0.0717,0.9877,-0.175,-2.835,0.280,328,298,371,394,373,2025-05-27T22:29:41.238296
306,-0.3006,0.0712,0.9862,-0.105,-2.660,0.245,378,390,348,377,384,2025-05-27T22:29:41.238296
307,-0.3050,0.0693,0.9877,-0.210,-2.485,0.105,371,403,364,389,400,2025-05-27T22:29:41.238296
308,-0.3065,0.0688,0.9882,-0.070,-2.380,0.105,329,396,377,388,374,2025-05-27T22:29:41.238296
309,-0.3079,0.0688,0.9872,0.070,-2.660,0.035,351,389,382,394,394,2025-05-27T22:29:41.238296
310,-0.3065,0.0683,0.9902,0.000,-2.625,0.105,402,383,393,416,408,2025-05-27T22:29:41.238296
311,-0.3074,0.0688,0.9906,0.035,-2.870,0.245,392,402,397,392,396,2025-05-27T22:29:41.238296
312,-0.3055,0.0717,0.9887,0.070,-2.975,0.210,334,434,402,397,391,2025-05-27T22:29:41.238296
313,-0.3050,0.0717,0.9892,0.035,-2.870,0.245,376,372,388,417,382,2025-05-27T22:29:41.238296
314,-0.3035,0.0708,0.9892,0.035,-2.695,0.140,366,425,377,385,401,2025-05-27T22:29:41.238296
315,-0.3026,0.0703,0.9902,0.035,-2.695,0.175,398,413,374,372,408,2025-05-27T22:29:41.238296
316,-0.3055,0.0717,0.9906,-0.175,-2.800,0.105,359,420,390,399,385,2025-05-27T22:29:41.488017
317,-0.3035,0.0712,0.9906,-0.175,-2.905,0.105,410,430,396,389,392,2025-05-27T22:29:41.488017
318,-0.3040,0.0703,0.9911,-0.035,-2.975,0.070,424,421,380,417,407,2025-05-27T22:29:41.488017
319,-0.3045,0.0703,0.9902,0.000,-2.660,0.140,428,408,375,395,392,2025-05-27T22:29:41.488017
320,-0.3040,0.0688,0.9877,0.140,-2.275,0.105,415,422,356,354,407,2025-05-27T22:29:41.488017
321,-0.3050,0.0703,0.9882,0.175,-2.380,0.035,397,419,327,382,413,2025-05-27T22:29:41.488017
322,-0.3074,0.0737,0.9867,0.105,-2.765,0.070,398,429,363,408,426,2025-05-27T22:29:41.488017
323,-0.3040,0.0722,0.9877,0.105,-3.045,0.245,379,420,368,404,412,2025-05-27T22:29:41.488017
324,-0.3040,0.0688,0.9838,0.105,-2.835,0.070,411,406,376,370,399,2025-05-27T22:29:41.488017
325,-0.3030,0.0703,0.9872,0.105,-2.835,0.210,420,400,382,364,396,2025-05-27T22:29:41.488017
326,-0.3060,0.0678,0.9911,0.070,-2.800,0.140,400,423,382,401,404,2025-05-27T22:29:41.488017
327,-0.3050,0.0678,0.9887,0.140,-2.695,0.140,422,361,391,409,393,2025-05-27T22:29:41.488017
328,-0.3065,0.0683,0.9916,0.280,-2.450,-0.105,404,347,375,406,396,2025-05-27T22:29:41.488017
329,-0.3074,0.0717,0.9906,0.175,-2.450,-0.035,413,407,374,419,407,2025-05-27T22:29:41.488017
330,-0.3065,0.0717,0.9906,0.070,-2.835,0.105,393,405,377,405,409,2025-05-27T22:29:41.488017
331,-0.3070,0.0698,0.9892,0.105,-3.080,0.140,411,421,375,397,390,2025-05-27T22:29:41.488017
332,-0.3035,0.0703,0.9892,0.070,-2.975,0.175,406,427,377,386,408,2025-05-27T22:29:41.488017
333,-0.3006,0.0708,0.9897,-0.035,-2.590,0.525,409,399,382,407,397,2025-05-27T22:29:41.488017
334,-0.3016,0.0708,0.9887,-0.070,-2.450,0.560,336,405,378,392,403,2025-05-27T22:29:41.488017
335,-0.3026,0.0722,0.9872,0.035,-2.415,0.525,375,421,374,409,394,2025-05-27T22:29:41.488017
336,-0.3074,0.0708,0.9867,0.245,-2.625,0.525,400,378,383,406,383,2025-05-27T22:29:41.488017
337,-0.3074,0.0742,0.9872,0.210,-3.045,0.595,402,412,349,412,408,2025-05-27T22:29:41.488017
338,-0.3079,0.0732,0.9858,0.245,-3.325,0.420,393,393,368,367,399,2025-05-27T22:29:41.661043
339,-0.3060,0.0717,0.9872,0.175,-3.395,0.315,381,415,371,387,390,2025-05-27T22:29:41.661043
340,-0.3070,0.0708,0.9906,0.140,-3.220,0.315,420,434,385,336,390,2025-05-27T22:29:41.662043
341,-0.3074,0.0678,0.9882,0.070,-3.255,0.175,401,423,391,324,388,2025-05-27T22:29:41.662043
342,-0.3060,0.0664,0.9911,0.175,-3.290,0.105,340,414,352,327,403,2025-05-27T22:29:41.662043
343,-0.3050,0.0644,0.9902,0.245,-3.045,0.105,377,420,382,388,407,2025-05-27T22:29:41.662043
344,-0.3026,0.0673,0.9897,0.105,-3.115,0.210,386,408,379,408,355,2025-05-27T22:29:41.662043
345,-0.3040,0.0693,0.9887,0.035,-3.080,0.140,408,406,379,404,296,2025-05-27T22:29:41.662043
346,-0.3021,0.0693,0.9887,0.000,-2.835,0.105,423,387,386,364,347,2025-05-27T22:29:41.662043
347,-0.3026,0.0712,0.9897,-0.175,-2.765,0.000,417,396,355,398,370,2025-05-27T22:29:41.662043
348,-0.3011,0.0717,0.9892,-0.140,-2.870,0.105,396,421,361,386,382,2025-05-27T22:29:41.662043
349,-0.3001,0.0747,0.9877,-0.035,-2.800,0.105,420,306,376,393,401,2025-05-27T22:29:41.662043
350,-0.2987,0.0766,0.9877,-0.035,-2.380,0.035,395,367,368,351,388,2025-05-27T22:29:41.662043
351,-0.3045,0.0771,0.9858,0.035,-2.310,-0.035,344,414,374,357,386,2025-05-27T22:29:41.954002
352,-0.3074,0.0761,0.9906,-0.070,-2.660,0.105,417,404,385,386,398,2025-05-27T22:29:41.954002
353,-0.3094,0.0752,0.9902,-0.105,-2.940,0.245,402,414,397,403,385,2025-05-27T22:29:41.954002
354,-0.3070,0.0708,0.9916,-0.315,-2.940,0.210,415,393,393,388,403,2025-05-27T22:29:41.954002
355,-0.3055,0.0703,0.9926,-0.245,-3.185,0.175,389,426,399,412,418,2025-05-27T22:29:41.954002
356,-0.3050,0.0673,0.9926,-0.315,-3.080,0.175,343,422,356,421,405,2025-05-27T22:29:41.954002
357,-0.3050,0.0673,0.9921,-0.210,-3.080,0.210,406,434,378,368,407,2025-05-27T22:29:41.954002
358,-0.3035,0.0654,0.9882,-0.035,-2.975,0.140,414,426,343,388,372,2025-05-27T22:29:41.954002
359,-0.3011,0.0664,0.9877,0.035,-2.800,0.140,376,424,322,391,394,2025-05-27T22:29:41.954002
360,-0.2996,0.0688,0.9853,0.070,-2.520,0.070,415,423,341,387,388,2025-05-27T22:29:41.954002
361,-0.2991,0.0737,0.9867,-0.035,-2.555,0.035,425,352,320,389,397,2025-05-27T22:29:41.954002
362,-0.3001,0.0756,0.9892,-0.175,-2.450,-0.070,388,368,356,408,393,2025-05-27T22:29:41.954002
363,-0.3021,0.0727,0.9887,-0.315,-2.240,-0.105,419,384,365,409,347,2025-05-27T22:29:41.954002
364,-0.3070,0.0712,0.9906,-0.315,-2.345,-0.035,420,403,374,410,376,2025-05-27T22:29:41.954002
365,-0.3099,0.0708,0.9902,-0.385,-2.415,-0.105,414,407,339,416,393,2025-05-27T22:29:41.954002
366,-0.3113,0.0664,0.9916,-0.140,-2.555,0.000,407,403,357,399,391,2025-05-27T22:29:41.954002
367,-0.3099,0.0688,0.9916,-0.035,-2.730,0.175,422,425,359,408,349,2025-05-27T22:29:41.954002
368,-0.3074,0.0703,0.9872,0.070,-2.870,0.140,425,397,365,419,367,2025-05-27T22:29:41.954002
369,-0.3040,0.0673,0.9862,0.210,-2.975,0.210,425,404,382,430,395,2025-05-27T22:29:41.954002
370,-0.3026,0.0712,0.9902,0.035,-2.730,0.105,410,410,349,410,386,2025-05-27T22:29:41.954002
371,-0.3035,0.0703,0.9906,0.035,-2.660,0.070,403,427,328,398,405,2025-05-27T22:29:41.954002
372,-0.3055,0.0717,0.9906,-0.035,-2.695,0.035,396,358,364,416,375,2025-05-27T22:29:41.954002
373,-0.3045,0.0737,0.9877,-0.035,-2.625,0.175,420,396,336,415,338,2025-05-27T22:29:41.954002
374,-0.3035,0.0717,0.9882,0.035,-2.520,0.245,425,409,364,421,360,2025-05-27T22:29:41.954002
375,-0.3055,0.0708,0.9877,0.035,-2.555,0.140,413,399,380,388,392,2025-05-27T22:29:41.954002
376,-0.3055,0.0722,0.9867,-0.035,-2.625,0.210,345,417,374,412,372,2025-05-27T22:29:41.954002
377,-0.3035,0.0698,0.9892,-0.070,-2.590,0.175,387,410,344,402,344,2025-05-27T22:29:41.954002
378,-0.3050,0.0683,0.9931,-0.105,-2.520,0.140,394,417,363,397,327,2025-05-27T22:29:42.071607
379,-0.3060,0.0688,0.9916,-0.035,-2.800,0.140,386,438,356,413,378,2025-05-27T22:29:42.071607
380,-0.3065,0.0688,0.9872,0.000,-2.800,0.245,338,406,362,424,400,2025-05-27T22:29:42.071607
381,-0.3055,0.0688,0.9887,0.070,-2.940,0.210,345,422,376,369,403,2025-05-27T22:29:42.071607
382,-0.3040,0.0683,0.9897,0.035,-2.870,0.245,392,427,340,384,405,2025-05-27T22:29:42.071607
383,-0.3006,0.0712,0.9911,-0.070,-2.835,0.210,416,404,359,405,412,2025-05-27T22:29:42.071607
384,-0.2996,0.0722,0.9911,-0.070,-2.730,0.105,408,347,329,388,410,2025-05-27T22:29:42.071607
385,-0.3026,0.0712,0.9897,-0.140,-2.555,0.105,302,407,315,344,409,2025-05-27T22:29:42.071607
386,-0.3050,0.0717,0.9887,-0.035,-2.415,-0.070,393,393,306,392,399,2025-05-27T22:29:42.071607
387,-0.3055,0.0722,0.9892,-0.035,-2.555,-0.035,412,404,356,403,406,2025-05-27T22:29:42.071607
388,-0.3089,0.0717,0.9877,-0.105,-2.590,0.070,406,409,368,414,395,2025-05-27T22:29:42.071607
389,-0.3084,0.0727,0.9902,-0.210,-2.695,0.140,410,422,384,407,401,2025-05-27T22:29:42.071607
390,-0.3060,0.0698,0.9906,-0.245,-2.870,0.245,414,409,382,422,409,2025-05-27T22:29:42.071607
391,-0.3045,0.0717,0.9906,-0.210,-3.010,0.315,422,302,386,423,400,2025-05-27T22:29:42.071607
392,-0.3050,0.0708,0.9897,-0.210,-2.975,0.280,429,379,390,409,400,2025-05-27T22:29:42.161250
393,-0.3045,0.0708,0.9882,-0.105,-2.800,0.315,429,417,345,405,385,2025-05-27T22:29:42.161250
394,-0.3011,0.0717,0.9862,-0.070,-2.590,0.105,416,409,372,405,401,2025-05-27T22:29:42.161250
395,-0.3001,0.0698,0.9872,-0.070,-2.345,0.035,341,404,351,415,413,2025-05-27T22:29:42.161250
396,-0.3011,0.0727,0.9877,-0.105,-2.135,-0.035,376,414,374,406,416,2025-05-27T22:29:42.161250
397,-0.3050,0.0698,0.9902,-0.105,-1.960,-0.140,416,415,377,406,359,2025-05-27T22:29:42.161250
398,-0.3089,0.0712,0.9916,-0.175,-2.170,-0.245,423,428,336,420,389,2025-05-27T22:29:42.161250
399,-0.3109,0.0693,0.9921,-0.105,-2.520,-0.035,416,397,347,401,394,2025-05-27T22:29:42.161250
400,-0.3133,0.0698,0.9931,0.000,-3.010,0.210,408,412,371,392,361,2025-05-27T22:29:42.161250
401,-0.3104,0.0717,0.9911,0.070,-3.570,0.385,402,400,350,405,383,2025-05-27T22:29:42.304656
402,-0.3079,0.0717,0.9911,0.070,-3.745,0.630,395,424,359,398,306,2025-05-27T22:29:42.304656
403,-0.3065,0.0717,0.9882,0.070,-3.535,0.560,426,425,328,399,364,2025-05-27T22:29:42.304656
404,-0.3021,0.0717,0.9862,0.000,-3.395,0.665,396,392,315,389,396,2025-05-27T22:29:42.304656
405,-0.2996,0.0722,0.9887,-0.140,-3.325,0.525,370,424,351,404,373,2025-05-27T22:29:42.304656
406,-0.2991,0.0722,0.9872,-0.280,-3.115,0.385,398,431,352,415,378,2025-05-27T22:29:42.304656
407,-0.3006,0.0698,0.9906,-0.350,-2.835,0.280,409,339,368,313,376,2025-05-27T22:29:42.304656
408,-0.3030,0.0678,0.9897,-0.280,-2.520,0.175,392,420,381,324,344,2025-05-27T22:29:42.304656
409,-0.3050,0.0654,0.9911,-0.210,-2.380,0.140,355,405,384,281,358,2025-05-27T22:29:42.304656
410,-0.3070,0.0688,0.9887,0.035,-2.380,0.140,408,396,385,367,390,2025-05-27T22:29:42.304656
411,-0.3074,0.0703,0.9892,0.105,-2.660,0.105,409,395,393,388,406,2025-05-27T22:29:42.304656
412,-0.3104,0.0703,0.9897,0.070,-3.045,0.315,410,375,345,405,406,2025-05-27T22:29:42.304656
413,-0.3128,0.0703,0.9892,0.070,-3.710,0.385,405,418,365,396,401,2025-05-27T22:29:42.470817
414,-0.3094,0.0698,0.9877,0.035,-3.990,0.525,411,396,368,359,398,2025-05-27T22:29:42.470817
415,-0.3060,0.0683,0.9887,0.140,-4.060,0.735,411,421,362,340,373,2025-05-27T22:29:42.470817
416,-0.2991,0.0688,0.9882,0.105,-3.640,0.665,404,405,378,370,342,2025-05-27T22:29:42.470817
417,-0.2957,0.0698,0.9902,0.140,-2.870,0.420,298,429,388,384,352,2025-05-27T22:29:42.470817
418,-0.2957,0.0703,0.9897,0.140,-2.345,0.070,391,438,382,347,385,2025-05-27T22:29:42.470817
419,-0.2987,0.0712,0.9892,0.280,-2.170,-0.035,399,427,382,399,393,2025-05-27T22:29:42.470817
420,-0.3030,0.0698,0.9892,0.175,-2.240,-0.070,401,399,383,401,399,2025-05-27T22:29:42.470817
421,-0.3050,0.0732,0.9858,0.000,-2.240,-0.070,394,402,391,383,406,2025-05-27T22:29:42.470817
422,-0.3074,0.0693,0.9862,0.070,-2.380,0.035,399,417,393,404,402,2025-05-27T22:29:42.470817
423,-0.3065,0.0683,0.9877,0.000,-2.730,0.175,404,352,345,402,400,2025-05-27T22:29:42.470817
424,-0.3060,0.0678,0.9892,0.105,-2.765,0.280,412,406,371,398,390,2025-05-27T22:29:42.470817
425,-0.3045,0.0688,0.9897,0.140,-2.590,0.175,400,422,370,400,362,2025-05-27T22:29:42.470817
426,-0.3035,0.0698,0.9897,0.140,-2.555,-0.035,388,362,376,351,378,2025-05-27T22:29:42.470817
427,-0.3050,0.0703,0.9931,0.000,-2.660,-0.070,360,417,372,396,343,2025-05-27T22:29:42.787772
428,-0.3065,0.0693,0.9936,-0.070,-2.625,0.035,388,423,376,368,391,2025-05-27T22:29:42.787772
429,-0.3055,0.0683,0.9941,-0.070,-2.800,0.140,414,366,373,401,393,2025-05-27T22:29:42.787772
430,-0.3050,0.0693,0.9936,-0.070,-2.870,0.175,396,358,385,405,401,2025-05-27T22:29:42.787772
431,-0.3011,0.0703,0.9887,0.000,-2.625,0.280,391,389,382,400,398,2025-05-27T22:29:42.787772
432,-0.3006,0.0708,0.9848,-0.070,-2.275,0.280,340,412,345,346,394,2025-05-27T22:29:42.787772
433,-0.3065,0.0737,0.9862,0.070,-2.170,0.350,379,395,322,333,390,2025-05-27T22:29:42.787772
434,-0.3060,0.0722,0.9882,0.140,-2.485,0.455,402,423,310,390,391,2025-05-27T22:29:42.787772
435,-0.3030,0.0727,0.9877,0.280,-2.695,0.350,392,349,337,342,403,2025-05-27T22:29:42.787772
436,-0.3026,0.0727,0.9892,0.245,-2.625,0.245,412,402,367,325,348,2025-05-27T22:29:42.787772
437,-0.3050,0.0727,0.9887,0.350,-2.485,0.245,377,388,342,385,385,2025-05-27T22:29:42.787772
438,-0.3045,0.0708,0.9911,0.210,-2.310,0.105,410,357,358,407,384,2025-05-27T22:29:42.787772
439,-0.3084,0.0654,0.9926,0.210,-2.310,0.105,379,402,375,388,355,2025-05-27T22:29:42.787772
440,-0.3109,0.0654,0.9882,0.315,-2.520,0.070,412,403,381,391,373,2025-05-27T22:29:42.787772
441,-0.3094,0.0639,0.9887,0.315,-2.415,0.035,408,381,376,409,388,2025-05-27T22:29:42.787772
442,-0.3099,0.0634,0.9877,0.210,-2.555,0.140,404,363,382,361,342,2025-05-27T22:29:42.787772
443,-0.3084,0.0669,0.9877,0.280,-2.800,0.070,372,361,384,388,386,2025-05-27T22:29:42.787772
444,-0.3040,0.0683,0.9892,0.175,-2.730,0.070,408,338,384,409,398,2025-05-27T22:29:42.787772
445,-0.2996,0.0708,0.9872,0.000,-2.450,0.035,404,365,376,356,397,2025-05-27T22:29:42.787772
446,-0.2982,0.0693,0.9887,0.140,-2.065,0.035,404,417,382,398,412,2025-05-27T22:29:42.787772
447,-0.3021,0.0722,0.9862,0.140,-1.820,-0.210,421,404,393,414,401,2025-05-27T22:29:42.971405
448,-0.3021,0.0747,0.9867,0.175,-1.680,-0.105,422,416,395,423,406,2025-05-27T22:29:42.971405
449,-0.3065,0.0737,0.9882,0.140,-1.750,-0.140,423,391,391,419,390,2025-05-27T22:29:42.971405
450,-0.3089,0.0756,0.9902,0.035,-1.890,-0.105,404,297,389,414,355,2025-05-27T22:29:42.971405
451,-0.3094,0.0737,0.9906,0.105,-2.205,0.035,394,394,385,411,390,2025-05-27T22:29:42.971405
452,-0.3089,0.0732,0.9911,-0.035,-2.240,-0.035,414,412,390,399,392,2025-05-27T22:29:42.971405
453,-0.3074,0.0703,0.9902,-0.140,-2.485,-0.105,358,407,372,350,401,2025-05-27T22:29:42.971405
454,-0.3050,0.0664,0.9911,-0.035,-2.485,-0.070,395,420,374,395,413,2025-05-27T22:29:42.971405
455,-0.3074,0.0683,0.9916,0.000,-2.205,0.000,384,402,391,413,408,2025-05-27T22:29:42.971405
456,-0.3035,0.0673,0.9902,0.140,-2.240,0.000,410,407,386,418,418,2025-05-27T22:29:42.971405
457,-0.3060,0.0708,0.9872,0.140,-2.135,-0.035,431,397,381,396,408,2025-05-27T22:29:42.971405
458,-0.3045,0.0722,0.9853,0.105,-2.135,-0.035,418,345,385,407,404,2025-05-27T22:29:42.971405
459,-0.3035,0.0708,0.9828,0.070,-1.925,-0.105,406,392,357,392,397,2025-05-27T22:29:42.971405
460,-0.3035,0.0737,0.9838,-0.070,-1.960,-0.245,402,421,375,383,398,2025-05-27T22:29:42.971405
461,-0.3079,0.0708,0.9843,-0.035,-1.960,-0.385,417,421,371,413,403,2025-05-27T22:29:42.971405
462,-0.3099,0.0698,0.9872,-0.105,-1.995,-0.315,402,358,383,412,398,2025-05-27T22:29:42.971405
463,-0.3138,0.0664,0.9877,-0.210,-2.065,-0.280,351,391,378,393,403,2025-05-27T22:29:42.971405
464,-0.3113,0.0664,0.9902,0.035,-2.380,-0.070,373,415,390,407,388,2025-05-27T22:29:42.971405
465,-0.3148,0.0664,0.9877,0.210,-2.660,0.000,367,349,383,400,409,2025-05-27T22:29:42.971405
466,-0.3128,0.0659,0.9858,0.280,-2.695,0.105,404,406,387,400,419,2025-05-27T22:29:42.971405
467,-0.3094,0.0688,0.9838,0.420,-2.835,0.105,415,405,388,413,409,2025-05-27T22:29:42.971405
468,-0.3055,0.0698,0.9838,0.490,-2.695,0.035,403,430,389,349,402,2025-05-27T22:29:43.128644
469,-0.3070,0.0703,0.9882,0.315,-2.485,-0.070,408,440,339,400,390,2025-05-27T22:29:43.129639
470,-0.3074,0.0703,0.9892,0.245,-2.555,-0.070,415,421,360,403,384,2025-05-27T22:29:43.129639
471,-0.3074,0.0673,0.9921,0.070,-2.485,-0.105,420,425,362,367,374,2025-05-27T22:29:43.129639
472,-0.3113,0.0708,0.9916,0.140,-2.485,0.035,371,417,360,412,397,2025-05-27T22:29:43.129639
473,-0.3104,0.0717,0.9916,0.175,-2.800,0.280,410,378,341,389,384,2025-05-27T22:29:43.129639
474,-0.3094,0.0717,0.9892,0.175,-2.905,0.315,360,366,364,414,403,2025-05-27T22:29:43.129639
475,-0.3089,0.0712,0.9887,0.140,-3.045,0.280,381,333,376,352,407,2025-05-27T22:29:43.129639
476,-0.3060,0.0698,0.9867,0.105,-3.080,0.245,407,397,386,388,414,2025-05-27T22:29:43.129639
477,-0.3030,0.0727,0.9877,0.035,-3.045,0.280,410,399,374,411,396,2025-05-27T22:29:43.129639
478,-0.3065,0.0712,0.9906,-0.035,-2.870,0.070,430,417,375,399,385,2025-05-27T22:29:43.129639
479,-0.3065,0.0717,0.9906,-0.070,-3.010,0.175,417,406,375,413,386,2025-05-27T22:29:43.129639
480,-0.3099,0.0717,0.9916,-0.035,-3.045,0.280,431,407,381,390,382,2025-05-27T22:29:43.129639
481,-0.3065,0.0727,0.9921,-0.140,-3.010,0.315,394,420,342,392,382,2025-05-27T22:29:43.130645
482,-0.3074,0.0732,0.9877,-0.070,-3.080,0.210,400,428,368,354,405,2025-05-27T22:29:43.288051
483,-0.3055,0.0722,0.9877,0.000,-3.150,0.350,414,431,379,394,359,2025-05-27T22:29:43.288051
484,-0.3060,0.0722,0.9862,8.890,-3.115,0.315,404,435,371,384,396,2025-05-27T22:29:43.288051
485,-0.3050,0.0717,0.9872,-0.035,-2.940,0.315,374,434,380,409,404,2025-05-27T22:29:43.288051
486,-0.3060,0.0732,0.9877,-0.070,-2.800,0.105,397,430,391,345,381,2025-05-27T22:29:43.288051
487,-0.3094,0.0717,0.9911,-0.070,-2.730,0.070,338,423,372,388,390,2025-05-27T22:29:43.288051
488,-0.3055,0.0717,0.9916,0.000,-2.905,0.105,355,398,368,404,395,2025-05-27T22:29:43.288051
489,-0.3079,0.0703,0.9877,-0.035,-2.835,0.105,390,349,362,416,397,2025-05-27T22:29:43.288051
490,-0.3074,0.0693,0.9887,0.035,-2.835,0.070,397,388,334,392,353,2025-05-27T22:29:43.288051
491,-0.3065,0.0683,0.9872,0.245,-2.835,0.070,415,413,359,398,374,2025-05-27T22:29:43.288051
492,-0.3026,0.0693,0.9882,0.140,-2.800,-0.070,380,431,360,422,381,2025-05-27T22:29:43.288051
493,-0.3045,0.0698,0.9867,0.210,-2.625,-0.175,383,429,372,427,394,2025-05-27T22:29:43.288051
494,-0.3074,0.0708,0.9882,0.175,-2.555,-0.245,391,353,374,379,385,2025-05-27T22:29:43.288051
495,-0.3070,0.0727,0.9892,0.140,-2.450,-0.175,400,293,381,384,359,2025-05-27T22:29:43.288051
496,-0.3094,0.0712,0.9887,0.210,-2.485,-0.175,394,395,345,384,361,2025-05-27T22:29:43.611450
497,-0.3084,0.0727,0.9897,0.175,-2.695,0.000,419,389,355,403,395,2025-05-27T22:29:43.612373
498,-0.3079,0.0722,0.9872,0.070,-2.800,0.070,421,399,357,390,406,2025-05-27T22:29:43.612373
499,-0.3065,0.0722,0.9887,0.035,-2.835,0.070,406,421,370,405,353,2025-05-27T22:29:43.612373
500,-0.3065,0.0732,0.9882,0.000,-2.800,0.105,415,404,382,351,362,2025-05-27T22:29:43.612373
501,-0.3026,0.0737,0.9872,-0.070,-2.590,0.000,410,430,358,386,392,2025-05-27T22:29:43.920188
502,-0.3021,0.0727,0.9858,-0.035,-2.415,-0.035,418,400,372,395,392,2025-05-27T22:29:43.920604
503,-0.3065,0.0722,0.9867,-0.070,-2.205,-0.105,403,407,364,411,349,2025-05-27T22:29:43.920604
504,-0.3099,0.0703,0.9902,-0.245,-2.205,-0.140,426,402,337,394,337,2025-05-27T22:29:43.920884
505,-0.3133,0.0678,0.9897,-0.245,-2.380,-0.035,341,384,365,402,370,2025-05-27T22:29:43.920943
506,-0.3157,0.0693,0.9887,-0.175,-2.730,0.245,380,414,382,395,397,2025-05-27T22:29:43.921093
507,-0.3143,0.0678,0.9902,0.000,-3.080,0.315,381,406,348,396,408,2025-05-27T22:29:43.921093
508,-0.3123,0.0678,0.9872,0.245,-3.290,0.385,395,402,375,398,393,2025-05-27T22:29:43.921093
509,-0.3070,0.0703,0.9862,0.385,-3.010,0.350,415,423,339,343,381,2025-05-27T22:29:43.921093
510,-0.3045,0.0708,0.9882,0.350,-2.695,0.280,401,428,364,349,346,2025-05-27T22:29:43.921093
511,-0.3060,0.0703,0.9897,0.315,-2.765,0.035,394,406,346,334,349,2025-05-27T22:29:43.921093
512,-0.3079,0.0722,0.9892,0.035,-2.905,0.105,399,420,373,387,370,2025-05-27T22:29:43.921093
513,-0.3089,0.0683,0.9906,0.000,-2.870,0.070,342,431,374,415,384,2025-05-27T22:29:43.921093
514,-0.3079,0.0698,0.9882,-0.035,-2.870,0.175,408,429,366,416,352,2025-05-27T22:29:43.921093
515,-0.3079,0.0703,0.9897,0.035,-3.290,0.385,430,432,383,396,388,2025-05-27T22:29:43.921093
516,-0.3050,0.0698,0.9872,0.140,-3.255,0.350,424,408,381,387,383,2025-05-27T22:29:43.921093
517,-0.3050,0.0703,0.9882,0.140,-2.835,0.210,429,409,372,393,399,2025-05-27T22:29:43.921093
518,-0.3089,0.0717,0.9867,0.105,-2.800,0.035,410,380,331,387,395,2025-05-27T22:29:43.921093
519,-0.3099,0.0712,0.9926,-0.105,-2.940,0.000,395,397,350,396,389,2025-05-27T22:29:43.921093
520,-0.3094,0.0678,0.9911,-0.140,-3.080,0.070,414,429,363,408,398,2025-05-27T22:29:43.921093
521,-0.3094,0.0693,0.9926,0.000,-3.185,0.070,402,430,333,389,387,2025-05-27T22:29:43.921093
522,-0.3055,0.0727,0.9897,0.070,-3.325,0.245,392,440,362,405,406,2025-05-27T22:29:43.921093
523,-0.3045,0.0703,0.9887,0.105,-3.325,0.490,390,414,336,372,363,2025-05-27T22:29:43.921093
524,-0.3040,0.0732,0.9882,0.070,-2.975,0.595,405,427,356,343,373,2025-05-27T22:29:43.921093
525,-0.3030,0.0727,0.9833,0.175,-2.940,0.595,406,410,366,334,358,2025-05-27T22:29:43.921093
526,-0.3074,0.0742,0.9833,0.280,-2.975,0.455,425,418,380,394,396,2025-05-27T22:29:43.921093
527,-0.3079,0.0742,0.9843,0.315,-3.045,0.455,380,352,389,419,411,2025-05-27T22:29:43.921093
528,-0.3089,0.0737,0.9882,0.315,-3.360,0.385,407,390,394,398,405,2025-05-27T22:29:43.921093
529,-0.3079,0.0717,0.9892,0.280,-3.395,0.350,339,406,386,407,407,2025-05-27T22:29:43.921093
530,-0.3074,0.0708,0.9911,0.175,-3.360,0.455,377,413,381,403,385,2025-05-27T22:29:43.921093
531,-0.3065,0.0708,0.9911,0.105,-3.220,0.385,405,396,373,409,390,2025-05-27T22:29:43.921093
532,-0.3089,0.0669,0.9911,0.000,-3.080,0.280,415,417,385,411,384,2025-05-27T22:29:43.921093
533,-0.3070,0.0673,0.9882,0.105,-3.045,0.280,434,418,383,412,348,2025-05-27T22:29:43.921093
534,-0.3089,0.0683,0.9867,0.105,-3.010,0.280,396,412,339,386,374,2025-05-27T22:29:43.921093
535,-0.3094,0.0673,0.9882,0.035,-3.150,0.280,410,421,365,392,365,2025-05-27T22:29:43.921093
536,-0.3079,0.0683,0.9872,0.000,-3.325,0.210,415,411,362,406,400,2025-05-27T22:29:43.921093
537,-0.3016,0.0698,0.9867,0.000,-3.325,0.245,358,396,379,402,398,2025-05-27T22:29:44.044766
538,-0.3006,0.0732,0.9848,0.000,-2.905,0.245,402,410,373,411,346,2025-05-27T22:29:44.044820
539,-0.3006,0.0737,0.9867,0.105,-2.590,0.140,392,387,379,386,393,2025-05-27T22:29:44.044820
540,-0.3045,0.0771,0.9872,0.070,-2.520,0.210,390,408,375,412,408,2025-05-27T22:29:44.044820
541,-0.3060,0.0771,0.9902,0.000,-2.800,0.245,401,396,380,412,369,2025-05-27T22:29:44.044820
542,-0.3089,0.0771,0.9897,-0.035,-3.080,0.420,336,398,382,417,374,2025-05-27T22:29:44.044820
543,-0.3084,0.0766,0.9892,-0.105,-3.185,0.385,392,421,392,356,383,2025-05-27T22:29:44.044820
544,-0.3070,0.0727,0.9906,-0.175,-3.290,0.385,414,413,378,397,398,2025-05-27T22:29:44.044820
545,-0.3050,0.0693,0.9911,-0.175,-3.360,0.350,413,347,367,410,397,2025-05-27T22:29:44.044820
546,-0.3030,0.0688,0.9902,-0.035,-3.115,0.350,418,399,381,413,395,2025-05-27T22:29:44.044820
547,-0.3030,0.0673,0.9916,0.000,-2.800,0.350,417,409,376,413,390,2025-05-27T22:29:44.044820
548,-0.3026,0.0678,0.9921,0.105,-2.800,0.315,417,409,378,403,401,2025-05-27T22:29:44.044820
549,-0.3040,0.0717,0.9892,0.210,-2.800,0.175,405,423,369,412,402,2025-05-27T22:29:44.044820
550,-0.3021,0.0732,0.9887,0.070,-2.835,0.245,388,407,367,411,393,2025-05-27T22:29:44.044820
551,-0.3045,0.0761,0.9872,8.855,-2.730,0.070,412,412,385,395,349,2025-05-27T22:29:44.045825
552,-0.3040,0.0742,0.9887,-0.175,-2.765,0.070,418,399,340,342,368,2025-05-27T22:29:44.045825
553,-0.3045,0.0727,0.9911,-0.280,-2.800,0.070,422,421,362,399,395,2025-05-27T22:29:44.045825
554,-0.3089,0.0717,0.9892,-0.280,-2.800,0.175,424,430,349,415,401,2025-05-27T22:29:44.045825
555,-0.3079,0.0698,0.9882,-0.210,-2.975,0.210,403,430,364,401,386,2025-05-27T22:29:44.045825
556,-0.3084,0.0698,0.9882,-0.105,-2.975,0.245,386,371,367,399,388,2025-05-27T22:29:44.045825
557,-0.3065,0.0683,0.9887,0.000,-3.010,0.280,403,393,370,392,360,2025-05-27T22:29:44.116012
558,-0.3055,0.0712,0.9882,-0.070,-3.045,0.210,377,419,386,391,367,2025-05-27T22:29:44.116012
559,-0.3035,0.0712,0.9887,0.000,-2.870,0.105,414,426,384,350,376,2025-05-27T22:29:44.116012
560,-0.3060,0.0722,0.9906,-0.140,-2.660,0.035,377,416,394,395,396,2025-05-27T22:29:44.116012
561,-0.3065,0.0703,0.9911,-0.210,-2.660,0.140,367,421,398,418,398,2025-05-27T22:29:44.116012
562,-0.3079,0.0712,0.9906,-0.035,-2.730,0.280,408,363,379,411,381,2025-05-27T22:29:44.116012
563,-0.3070,0.0717,0.9887,0.000,-2.765,0.280,422,427,384,400,404,2025-05-27T22:29:44.116012
564,-0.3074,0.0722,0.9887,0.035,-2.905,0.245,400,413,373,405,395,2025-05-27T22:29:44.116012
565,-0.3060,0.0742,0.9853,0.035,-3.010,0.175,413,405,338,412,348,2025-05-27T22:29:44.254828
566,-0.3065,0.0727,0.9897,0.070,-2.975,0.105,413,416,366,414,335,2025-05-27T22:29:44.254828
567,-0.3060,0.0698,0.9902,0.000,-2.835,0.175,416,434,379,407,377,2025-05-27T22:29:44.254828
568,-0.3060,0.0708,0.9902,-0.105,-2.940,0.070,393,417,372,350,395,2025-05-27T22:29:44.254828
569,-0.3035,0.0698,0.9887,-0.035,-3.045,0.280,390,387,379,385,396,2025-05-27T22:29:44.254828
570,-0.3040,0.0693,0.9902,0.140,-2.940,0.315,378,414,347,380,399,2025-05-27T22:29:44.254828
571,-0.3026,0.0683,0.9897,0.000,-2.765,0.280,406,387,369,405,399,2025-05-27T22:29:44.254828
572,-0.3035,0.0722,0.9897,-0.035,-2.975,0.175,404,373,365,392,387,2025-05-27T22:29:44.254828
573,-0.3040,0.0722,0.9906,-0.105,-2.870,0.245,398,416,351,407,397,2025-05-27T22:29:44.254828
574,-0.3035,0.0722,0.9892,-0.210,-2.835,0.245,399,412,358,401,387,2025-05-27T22:29:44.420798
575,-0.3079,0.0698,0.9887,-0.140,-2.940,0.210,396,421,358,416,346,2025-05-27T22:29:44.420798
576,-0.3060,0.0727,0.9882,-0.105,-2.975,0.245,342,419,363,389,366,2025-05-27T22:29:44.420798
577,-0.3050,0.0712,0.9867,-0.070,-2.905,0.315,414,421,333,406,394,2025-05-27T22:29:44.420798
578,-0.3060,0.0712,0.9906,0.000,-2.835,0.210,407,419,354,402,386,2025-05-27T22:29:44.420798
579,-0.3045,0.0708,0.9902,-0.070,-2.905,0.175,404,406,376,421,394,2025-05-27T22:29:44.420798
580,-0.3040,0.0712,0.9911,-0.175,-2.905,0.105,399,421,381,400,370,2025-05-27T22:29:44.420798
581,-0.3026,0.0727,0.9887,-0.035,-2.835,0.175,404,412,380,415,384,2025-05-27T22:29:44.420798
582,-0.3065,0.0703,0.9897,-0.070,-2.870,0.210,418,413,379,396,341,2025-05-27T22:29:44.420798
583,-0.3060,0.0703,0.9882,-0.070,-3.010,0.175,415,419,377,388,330,2025-05-27T22:29:44.436357
584,-0.3050,0.0712,0.9892,-0.105,-2.905,0.175,404,416,345,399,375,2025-05-27T22:29:44.436357
585,-0.3045,0.0708,0.9911,-0.070,-3.045,0.105,403,420,371,399,402,2025-05-27T22:29:44.436357
586,-0.3070,0.0703,0.9897,-0.070,-3.080,0.140,396,304,378,370,393,2025-05-27T22:29:44.436692
587,-0.3065,0.0678,0.9877,0.035,-2.905,0.175,417,395,367,405,396,2025-05-27T22:29:44.436692
588,-0.3030,0.0732,0.9892,0.035,-2.905,0.210,407,390,374,410,352,2025-05-27T22:29:44.436692
589,-0.3045,0.0742,0.9882,0.000,-2.905,0.280,378,339,374,371,371,2025-05-27T22:29:44.436692
590,-0.3021,0.0737,0.9887,-0.035,-2.905,0.280,377,391,376,393,397,2025-05-27T22:29:44.436692
591,-0.3050,0.0732,0.9897,-0.140,-2.905,0.350,334,360,379,387,411,2025-05-27T22:29:44.436692
592,-0.3026,0.0708,0.9897,-0.140,-3.045,0.210,391,382,376,364,414,2025-05-27T22:29:44.524996
593,-0.3030,0.0712,0.9887,-0.035,-2.730,0.210,418,406,389,406,400,2025-05-27T22:29:44.524996
594,-0.3030,0.0688,0.9892,-0.035,-2.730,0.245,382,381,375,419,405,2025-05-27T22:29:44.524996
595,-0.3050,0.0703,0.9887,0.035,-2.905,0.245,382,401,386,410,404,2025-05-27T22:29:44.524996
596,-0.3055,0.0698,0.9897,0.070,-2.940,0.315,394,350,396,405,414,2025-05-27T22:29:44.524996
597,-0.3026,0.0708,0.9867,0.175,-2.835,0.280,401,381,379,388,394,2025-05-27T22:29:44.524996
598,-0.3055,0.0717,0.9911,0.070,-2.765,0.245,422,388,391,383,386,2025-05-27T22:29:44.524996
599,-0.3040,0.0708,0.9906,0.105,-2.940,0.175,369,391,388,413,389,2025-05-27T22:29:44.674461
600,-0.3045,0.0703,0.9897,0.070,-3.045,0.175,406,392,379,397,396,2025-05-27T22:29:44.674461
601,-0.3026,0.0712,0.9892,0.105,-2.835,0.245,368,402,380,348,355,2025-05-27T22:29:44.674461
602,-0.3026,0.0722,0.9911,0.105,-2.905,0.210,397,413,369,388,387,2025-05-27T22:29:44.674461
603,-0.3021,0.0708,0.9902,-0.035,-2.905,0.210,399,395,374,394,395,2025-05-27T22:29:44.674461
604,-0.3030,0.0693,0.9887,-0.070,-2.905,0.105,402,407,368,413,390,2025-05-27T22:29:44.674461
605,-0.3035,0.0703,0.9911,-0.070,-2.765,0.070,416,371,335,348,381,2025-05-27T22:29:44.674461
606,-0.3060,0.0712,0.9867,-0.035,-2.905,0.035,343,397,360,396,404,2025-05-27T22:29:44.674461
607,-0.3035,0.0708,0.9872,0.070,-3.045,0.105,390,429,374,410,400,2025-05-27T22:29:44.674461
608,-0.3026,0.0708,0.9892,0.140,-2.625,0.175,367,392,335,408,393,2025-05-27T22:29:44.838081
609,-0.3035,0.0703,0.9897,0.245,-2.415,0.105,408,421,351,400,358,2025-05-27T22:29:44.838081
610,-0.3079,0.0727,0.9926,0.315,-2.800,0.105,359,343,365,386,389,2025-05-27T22:29:44.838081
611,-0.3026,0.0727,0.9877,0.245,-3.220,0.385,400,392,379,397,384,2025-05-27T22:29:44.838081
612,-0.3040,0.0712,0.9877,0.070,-2.870,0.315,343,395,382,409,384,2025-05-27T22:29:44.838081
613,-0.3016,0.0712,0.9882,0.035,-2.940,0.210,409,418,376,424,385,2025-05-27T22:29:44.838081
614,-0.3006,0.0708,0.9911,0.035,-3.115,0.210,395,423,370,416,408,2025-05-27T22:29:44.838081
615,-0.3006,0.0717,0.9887,0.175,-2.870,0.210,361,411,333,398,314,2025-05-27T22:29:44.838081
616,-0.3030,0.0712,0.9867,0.245,-2.450,0.035,401,424,365,403,375,2025-05-27T22:29:44.838081
617,-0.3055,0.0732,0.9867,0.210,-2.485,-0.175,415,405,384,397,384,2025-05-27T22:29:44.838081
618,-0.3070,0.0727,0.9911,0.105,-2.555,-0.070,410,424,380,414,397,2025-05-27T22:29:44.838081
619,-0.3045,0.0708,0.9931,-0.035,-2.695,-0.105,404,366,309,388,402,2025-05-27T22:29:44.838081
620,-0.3030,0.0703,0.9921,0.000,-2.905,0.035,408,422,356,371,384,2025-05-27T22:29:44.838081
621,-0.2987,0.0712,0.9916,0.000,-2.765,0.315,348,382,334,382,388,2025-05-27T22:29:44.838081
622,-0.3001,0.0717,0.9882,0.000,-2.555,0.420,394,345,348,413,389,2025-05-27T22:29:44.838081
623,-0.3016,0.0708,0.9848,-0.035,-2.450,0.560,391,382,359,353,394,2025-05-27T22:29:44.838081
624,-0.3050,0.0708,0.9877,0.035,-2.695,0.595,401,331,365,378,397,2025-05-27T22:29:44.838081
625,-0.3074,0.0732,0.9823,0.350,-3.045,0.630,403,381,364,360,414,2025-05-27T22:29:44.838081
626,-0.3070,0.0727,0.9867,0.385,-3.255,0.455,417,407,374,380,369,2025-05-27T22:29:44.937311
627,-0.3060,0.0722,0.9882,0.210,-3.360,0.385,397,425,365,406,401,2025-05-27T22:29:44.937311
628,-0.3026,0.0727,0.9906,0.140,-3.290,0.245,417,404,350,356,350,2025-05-27T22:29:44.937311
629,-0.3045,0.0654,0.9926,0.035,-3.080,0.140,421,410,358,333,370,2025-05-27T22:29:44.937311
630,-0.3021,0.0659,0.9902,0.035,-2.975,0.035,380,358,334,389,378,2025-05-27T22:29:44.937311
631,-0.3040,0.0644,0.9931,0.070,-2.905,0.035,405,417,365,402,367,2025-05-27T22:29:44.937311
632,-0.3026,0.0664,0.9911,0.105,-2.905,0.175,415,392,366,395,372,2025-05-27T22:29:44.937311
633,-0.3026,0.0703,0.9877,0.175,-3.150,0.070,419,399,363,411,375,2025-05-27T22:29:44.937311
634,-0.3016,0.0708,0.9872,0.140,-2.975,0.140,392,400,368,415,385,2025-05-27T22:29:45.078311
635,-0.3030,0.0712,0.9902,-0.105,-2.730,0.105,391,414,371,413,380,2025-05-27T22:29:45.078311
636,-0.3026,0.0722,0.9931,-0.140,-3.010,0.175,348,404,372,417,391,2025-05-27T22:29:45.078311
637,-0.2991,0.0752,0.9897,-0.140,-3.010,0.140,396,431,387,389,396,2025-05-27T22:29:45.078311
638,-0.3001,0.0752,0.9872,-0.070,-2.765,0.210,410,430,355,405,392,2025-05-27T22:29:45.078311
639,-0.2972,0.0781,0.9848,0.140,-2.625,0.175,343,389,371,404,402,2025-05-27T22:29:45.078311
640,-0.3074,0.0766,0.9897,0.000,-2.730,0.105,327,405,383,410,404,2025-05-27T22:29:45.078311
641,-0.3065,0.0766,0.9897,-0.105,-3.115,0.210,334,410,384,417,410,2025-05-27T22:29:45.078311
642,-0.3045,0.0727,0.9931,-0.175,-3.255,0.245,406,409,385,415,403,2025-05-27T22:29:45.078311
643,-0.3060,0.0688,0.9931,-0.280,-3.150,0.210,401,394,381,411,397,2025-05-27T22:29:45.252277
644,-0.3030,0.0693,0.9906,-0.210,-3.290,0.245,418,423,374,418,393,2025-05-27T22:29:45.252277
645,-0.3016,0.0688,0.9911,0.035,-3.115,0.210,423,413,386,411,397,2025-05-27T22:29:45.253280
646,-0.2996,0.0678,0.9897,0.000,-2.695,0.140,397,422,397,418,417,2025-05-27T22:29:45.253280
647,-0.3021,0.0703,0.9892,0.070,-2.730,0.140,412,410,400,418,419,2025-05-27T22:29:45.253587
648,-0.2987,0.0722,0.9906,0.035,-2.695,0.035,421,392,396,361,400,2025-05-27T22:29:45.253587
649,-0.3001,0.0737,0.9882,0.000,-2.660,-0.035,425,418,391,388,371,2025-05-27T22:29:45.253587
650,-0.2996,0.0756,0.9892,-0.035,-2.590,0.035,392,401,386,403,393,2025-05-27T22:29:45.253587
651,-0.3016,0.0752,0.9892,-0.175,-2.625,0.035,390,426,383,384,396,2025-05-27T22:29:45.538258
652,-0.3035,0.0732,0.9911,-0.280,-2.590,0.035,423,411,369,409,403,2025-05-27T22:29:45.538258
653,-0.3035,0.0732,0.9887,-0.175,-2.765,0.105,395,419,366,408,403,2025-05-27T22:29:45.538258
654,-0.3035,0.0712,0.9897,-0.105,-2.800,0.140,335,347,383,400,416,2025-05-27T22:29:45.538258
655,-0.3055,0.0703,0.9902,-0.140,-2.730,0.105,393,396,376,413,407,2025-05-27T22:29:45.538258
656,-0.3074,0.0678,0.9931,-0.105,-2.835,0.140,406,422,374,423,412,2025-05-27T22:29:45.538258
657,-0.3030,0.0693,0.9921,-0.105,-3.080,0.210,414,407,385,413,396,2025-05-27T22:29:45.538258
658,-0.3030,0.0688,0.9902,0.035,-2.905,0.210,424,411,377,412,395,2025-05-27T22:29:45.538258
659,-0.3026,0.0708,0.9921,-0.035,-2.765,0.210,402,399,383,390,385,2025-05-27T22:29:45.538258
660,-0.3016,0.0712,0.9902,-0.070,-2.800,0.210,422,398,351,379,404,2025-05-27T22:29:45.538258
661,-0.3030,0.0708,0.9892,-0.070,-2.765,0.210,348,426,326,413,412,2025-05-27T22:29:45.538258
662,-0.3021,0.0703,0.9872,-0.105,-2.870,0.315,388,427,352,404,358,2025-05-27T22:29:45.538258
663,-0.3030,0.0717,0.9892,-0.035,-2.940,0.210,408,413,374,396,358,2025-05-27T22:29:45.538258
664,-0.3030,0.0727,0.9877,8.890,-2.870,0.140,423,400,350,386,381,2025-05-27T22:29:45.538258
665,-0.3035,0.0703,0.9882,0.035,-2.905,0.245,420,423,367,398,403,2025-05-27T22:29:45.538258
666,-0.3026,0.0727,0.9862,0.070,-2.660,0.140,398,357,376,403,351,2025-05-27T22:29:45.538258
667,-0.3030,0.0727,0.9892,0.210,-2.660,0.140,409,390,387,408,372,2025-05-27T22:29:45.538258
668,-0.3035,0.0708,0.9911,0.070,-2.660,0.105,421,413,386,401,335,2025-05-27T22:29:45.538258
669,-0.2996,0.0703,0.9931,0.070,-2.695,0.070,397,416,379,403,364,2025-05-27T22:29:45.538258
670,-0.3026,0.0703,0.9926,0.140,-2.590,0.105,414,424,388,354,384,2025-05-27T22:29:45.538258
671,-0.3011,0.0717,0.9936,0.105,-2.625,0.140,415,414,395,400,350,2025-05-27T22:29:45.538258
672,-0.3035,0.0722,0.9921,0.105,-2.800,0.140,361,374,349,405,386,2025-05-27T22:29:45.538258
673,-0.3026,0.0712,0.9887,0.210,-2.800,0.175,347,399,371,417,387,2025-05-27T22:29:45.538258
674,-0.3006,0.0727,0.9887,0.105,-2.835,0.315,381,392,382,397,400,2025-05-27T22:29:45.538258
675,-0.3011,0.0742,0.9911,0.070,-2.730,0.350,412,409,377,408,354,2025-05-27T22:29:45.538258
676,-0.3006,0.0737,0.9902,0.035,-2.695,0.210,397,386,385,388,393,2025-05-27T22:29:45.538258
677,-0.3021,0.0708,0.9916,-0.035,-2.625,0.035,333,393,390,414,408,2025-05-27T22:29:45.749113
678,-0.3045,0.0708,0.9911,-0.035,-2.555,0.210,385,418,354,421,404,2025-05-27T22:29:45.749113
679,-0.3040,0.0708,0.9877,0.035,-2.625,0.140,395,422,379,401,383,2025-05-27T22:29:45.749113
680,-0.3055,0.0703,0.9882,0.140,-2.590,0.140,421,413,378,409,391,2025-05-27T22:29:45.749113
681,-0.3045,0.0698,0.9906,0.035,-2.520,0.035,404,356,342,416,309,2025-05-27T22:29:45.749113
682,-0.3055,0.0708,0.9902,0.140,-2.765,0.105,401,388,368,394,369,2025-05-27T22:29:45.749113
683,-0.3035,0.0712,0.9892,0.175,-2.800,0.105,415,414,377,412,383,2025-05-27T22:29:45.749113
684,-0.3006,0.0703,0.9887,0.280,-2.555,0.000,407,418,391,405,402,2025-05-27T22:29:45.749113
685,-0.3021,0.0717,0.9902,0.210,-2.380,0.070,423,408,388,370,409,2025-05-27T22:29:45.749113
686,-0.3045,0.0722,0.9892,0.175,-2.450,0.000,418,402,381,399,393,2025-05-27T22:29:45.749113
687,-0.3040,0.0722,0.9902,0.210,-2.625,0.035,408,395,382,400,397,2025-05-27T22:29:45.749113
688,-0.3035,0.0722,0.9892,0.175,-2.625,0.000,401,339,384,399,402,2025-05-27T22:29:45.749113
689,-0.3026,0.0727,0.9902,0.140,-2.520,0.105,398,350,379,386,411,2025-05-27T22:29:45.749113
690,-0.3040,0.0742,0.9902,0.140,-2.765,0.105,417,379,383,342,397,2025-05-27T22:29:45.750123
691,-0.3021,0.0742,0.9882,0.140,-2.835,0.175,414,408,386,391,385,2025-05-27T22:29:45.750123
692,-0.3021,0.0717,0.9916,0.035,-2.660,0.210,407,425,390,388,362,2025-05-27T22:29:45.750123
693,-0.3006,0.0737,0.9916,0.000,-2.380,0.210,401,428,391,391,388,2025-05-27T22:29:45.750123
694,-0.3011,0.0727,0.9911,-0.035,-2.485,0.105,407,417,396,363,374,2025-05-27T22:29:45.750123
695,-0.3040,0.0712,0.9921,-0.070,-2.415,0.105,372,404,344,393,374,2025-05-27T22:29:45.913961
696,-0.3045,0.0742,0.9906,0.000,-2.520,0.210,391,401,356,414,404,2025-05-27T22:29:45.913961
697,-0.3060,0.0717,0.9887,0.000,-2.625,0.210,374,367,372,413,399,2025-05-27T22:29:45.913961
698,-0.3045,0.0712,0.9897,0.000,-2.695,0.175,395,410,385,415,406,2025-05-27T22:29:45.913961
699,-0.3016,0.0737,0.9897,0.035,-2.590,0.210,418,420,391,402,368,2025-05-27T22:29:45.913961
700,-0.3030,0.0708,0.9892,-0.070,-2.415,0.000,395,398,388,404,396,2025-05-27T22:29:45.913961
701,-0.3035,0.0727,0.9877,-0.140,-2.485,0.035,399,388,392,412,353,2025-05-27T22:29:45.913961
702,-0.3079,0.0712,0.9916,-0.245,-2.450,0.000,422,379,384,395,386,2025-05-27T22:29:45.913961
703,-0.3070,0.0693,0.9916,-0.245,-2.520,-0.035,424,392,349,407,386,2025-05-27T22:29:45.913961
704,-0.3065,0.0698,0.9897,-0.070,-2.905,-0.035,409,418,371,397,394,2025-05-27T22:29:45.913961
705,-0.3045,0.0703,0.9906,0.000,-2.625,0.035,396,404,386,395,387,2025-05-27T22:29:45.913961
706,-0.3006,0.0693,0.9902,0.140,-2.170,0.105,412,426,378,393,382,2025-05-27T22:29:45.913961
707,-0.3050,0.0727,0.9911,0.175,-2.240,0.035,428,420,336,386,345,2025-05-27T22:29:45.913961
708,-0.3026,0.0742,0.9872,0.070,-2.415,-0.035,410,404,369,410,383,2025-05-27T22:29:45.913961
709,-0.3006,0.0747,0.9867,-0.105,-2.415,-0.035,408,431,381,413,395,2025-05-27T22:29:45.913961
710,-0.3030,0.0722,0.9887,-0.175,-2.240,-0.175,427,401,370,401,384,2025-05-27T22:29:45.913961
711,-0.3040,0.0727,0.9911,-0.140,-2.450,-0.105,424,359,364,396,344,2025-05-27T22:29:45.913961
712,-0.3074,0.0688,0.9941,-0.175,-2.555,0.035,351,386,377,395,384,2025-05-27T22:29:45.913961
713,-0.3065,0.0703,0.9897,0.105,-2.380,0.000,414,429,341,381,405,2025-05-27T22:29:45.913961
714,-0.3089,0.0737,0.9862,0.210,-2.240,-0.140,390,405,349,401,388,2025-05-27T22:29:45.913961
715,-0.3084,0.0742,0.9872,0.070,-2.485,-0.070,390,380,376,421,409,2025-05-27T22:29:45.913961
716,-0.3060,0.0732,0.9902,-0.175,-2.730,-0.070,415,413,369,425,403,2025-05-27T22:29:46.158847
717,-0.3030,0.0737,0.9945,-0.140,-2.765,-0.035,399,418,375,408,395,2025-05-27T22:29:46.158847
718,-0.3030,0.0712,0.9926,-0.245,-2.660,0.035,397,423,382,412,395,2025-05-27T22:29:46.158847
719,-0.3026,0.0703,0.9916,-0.280,-2.485,0.210,400,433,390,353,389,2025-05-27T22:29:46.158847
720,-0.3035,0.0693,0.9877,-0.210,-2.345,0.385,424,429,394,395,385,2025-05-27T22:29:46.158847
721,-0.3045,0.0703,0.9872,-0.105,-2.485,0.455,424,351,380,396,397,2025-05-27T22:29:46.158847
722,-0.3050,0.0717,0.9853,-0.070,-2.695,0.560,418,418,374,415,389,2025-05-27T22:29:46.158847
723,-0.3045,0.0727,0.9867,0.105,-2.800,0.455,402,409,370,400,389,2025-05-27T22:29:46.158847
724,-0.3026,0.0717,0.9877,0.105,-2.660,0.350,405,399,376,371,386,2025-05-27T22:29:46.158847
725,-0.3055,0.0698,0.9897,0.035,-2.625,0.140,301,418,345,335,376,2025-05-27T22:29:46.158847
726,-0.3074,0.0664,0.9911,0.105,-2.695,-0.035,405,424,370,382,360,2025-05-27T22:29:46.158847
727,-0.3055,0.0669,0.9887,0.035,-2.765,0.000,423,351,363,396,338,2025-05-27T22:29:46.158847
728,-0.3060,0.0654,0.9892,0.070,-2.660,0.035,379,384,374,411,384,2025-05-27T22:29:46.158847
729,-0.3050,0.0649,0.9882,0.140,-2.485,-0.140,386,343,383,410,390,2025-05-27T22:29:46.158847
730,-0.3055,0.0673,0.9882,0.105,-2.485,-0.070,346,398,387,415,397,2025-05-27T22:29:46.158847
731,-0.3065,0.0717,0.9887,0.000,-2.275,-0.140,408,373,386,429,395,2025-05-27T22:29:46.158847
732,-0.3035,0.0717,0.9897,-0.140,-2.415,-0.140,413,409,391,427,385,2025-05-27T22:29:46.158847
733,-0.3070,0.0727,0.9906,-0.105,-2.590,-0.070,412,424,363,394,395,2025-05-27T22:29:46.158847
734,-0.3006,0.0708,0.9897,-0.105,-2.625,0.000,396,414,365,399,386,2025-05-27T22:29:46.158847
735,-0.2987,0.0732,0.9872,0.035,-2.240,0.035,424,301,371,341,396,2025-05-27T22:29:46.158847
736,-0.2977,0.0742,0.9867,0.105,-1.820,0.000,426,350,369,370,364,2025-05-27T22:29:46.158847
737,-0.3011,0.0766,0.9867,0.000,-1.820,-0.070,436,359,365,396,406,2025-05-27T22:29:46.312757
738,-0.3079,0.0766,0.9897,-0.070,-1.855,-0.070,427,408,382,400,396,2025-05-27T22:29:46.312757
739,-0.3104,0.0756,0.9906,-0.245,-2.135,-0.070,388,407,369,393,411,2025-05-27T22:29:46.312757
740,-0.3104,0.0727,0.9906,-0.280,-2.485,0.070,405,418,383,397,413,2025-05-27T22:29:46.312757
741,-0.3089,0.0703,0.9916,-0.245,-2.520,0.140,387,412,394,404,398,2025-05-27T22:29:46.312757
742,-0.3079,0.0678,0.9911,-0.315,-2.415,0.140,421,417,384,415,387,2025-05-27T22:29:46.312757
743,-0.3021,0.0683,0.9887,-0.105,-2.450,0.070,402,305,373,411,399,2025-05-27T22:29:46.312757
744,-0.3030,0.0698,0.9882,0.035,-2.240,0.140,408,379,383,401,407,2025-05-27T22:29:46.312757
745,-0.2996,0.0708,0.9882,-0.070,-1.925,-0.035,409,400,387,405,385,2025-05-27T22:29:46.312757
746,-0.3011,0.0708,0.9877,-0.175,-1.785,-0.140,401,408,394,411,396,2025-05-27T22:29:46.312757
747,-0.3021,0.0737,0.9862,-0.070,-1.715,-0.210,363,395,396,418,403,2025-05-27T22:29:46.312757
748,-0.3021,0.0756,0.9882,-0.210,-1.470,-0.175,404,397,393,412,392,2025-05-27T22:29:46.312757
749,-0.3065,0.0737,0.9897,-0.385,-1.470,-0.210,396,420,386,382,351,2025-05-27T22:29:46.312757
750,-0.3109,0.0708,0.9872,-0.280,-1.750,-0.175,399,397,384,382,295,2025-05-27T22:29:46.474505
751,-0.3148,0.0708,0.9862,-0.210,-1.855,-0.210,413,419,371,386,308,2025-05-27T22:29:46.475637
752,-0.3113,0.0712,0.9843,-0.035,-1.890,-0.105,409,408,385,398,383,2025-05-27T22:29:46.475637
753,-0.3123,0.0703,0.9877,0.000,-2.065,-0.105,426,403,348,403,394,2025-05-27T22:29:46.475637
754,-0.3089,0.0693,0.9887,-0.070,-1.995,-0.105,426,423,327,349,397,2025-05-27T22:29:46.475637
755,-0.3109,0.0708,0.9892,-0.035,-1.785,0.000,411,409,357,403,393,2025-05-27T22:29:46.475637
756,-0.3104,0.0673,0.9877,0.035,-1.750,-0.035,404,428,378,391,388,2025-05-27T22:29:46.475637
757,-0.3094,0.0693,0.9867,0.105,-1.610,-0.070,393,430,344,365,384,2025-05-27T22:29:46.475637
758,-0.3099,0.0698,0.9882,-0.035,-1.470,-0.070,428,368,324,400,413,2025-05-27T22:29:46.475637
759,-0.3094,0.0669,0.9877,-0.070,-1.575,-0.140,391,407,363,399,402,2025-05-27T22:29:46.475637
760,-0.3104,0.0698,0.9897,-0.105,-1.645,-0.140,364,384,366,398,411,2025-05-27T22:29:46.475637
761,-0.3113,0.0703,0.9892,-0.105,-1.610,-0.140,398,350,381,421,397,2025-05-27T22:29:46.475637
762,-0.3123,0.0688,0.9867,0.000,-1.610,0.000,415,396,392,415,396,2025-05-27T22:29:46.475637
763,-0.3113,0.0688,0.9877,0.175,-1.785,0.000,375,337,388,373,406,2025-05-27T22:29:46.475637
764,-0.3084,0.0703,0.9848,0.245,-1.715,0.070,385,398,395,404,355,2025-05-27T22:29:46.574140
765,-0.3070,0.0708,0.9892,0.140,-1.505,-0.035,406,411,392,364,376,2025-05-27T22:29:46.574140
766,-0.3079,0.0664,0.9902,-0.140,-1.365,-0.105,382,405,376,402,382,2025-05-27T22:29:46.574140
767,-0.3118,0.0654,0.9945,-0.350,-1.470,-0.175,423,392,370,391,399,2025-05-27T22:29:46.574140
768,-0.3118,0.0654,0.9950,-0.315,-1.575,-0.175,408,376,332,343,387,2025-05-27T22:29:46.574140
769,-0.3148,0.0644,0.9916,-0.280,-1.680,-0.315,416,410,352,395,351,2025-05-27T22:29:46.574140
770,-0.3109,0.0649,0.9872,-0.175,-1.610,-0.315,413,422,364,388,385,2025-05-27T22:29:46.574140
771,-0.3099,0.0659,0.9853,-0.210,-1.155,-0.490,411,432,365,388,349,2025-05-27T22:29:46.574140
772,-0.3079,0.0688,0.9872,-0.350,-1.015,-0.700,421,397,333,378,381,2025-05-27T22:29:46.640170
773,-0.3118,0.0688,0.9887,-0.420,-0.875,-0.805,412,408,352,385,400,2025-05-27T22:29:46.640170
774,-0.3123,0.0717,0.9872,-0.630,-0.840,-0.945,364,425,370,392,399,2025-05-27T22:29:46.640170
775,-0.3162,0.0703,0.9882,-0.560,-1.015,-0.910,400,433,378,409,400,2025-05-27T22:29:46.640170
776,-0.3177,0.0698,0.9867,-0.490,-1.295,-0.875,408,365,384,415,407,2025-05-27T22:29:46.640170
777,-0.3152,0.0747,0.9828,-0.420,-1.540,-0.840,403,417,381,411,398,2025-05-27T22:29:46.804510
778,-0.3157,0.0752,0.9804,-0.210,-1.505,-0.840,364,375,381,398,401,2025-05-27T22:29:46.804510
779,-0.3157,0.0766,0.9794,-0.175,-1.155,-0.875,387,417,385,395,352,2025-05-27T22:29:46.804510
780,-0.3157,0.0781,0.9814,-0.315,-1.085,-0.945,407,343,379,385,381,2025-05-27T22:29:46.804510
781,-0.3152,0.0795,0.9780,-0.210,-0.910,-0.945,396,395,378,375,395,2025-05-27T22:29:46.804510
782,-0.3162,0.0800,0.9760,-0.140,-0.490,-0.805,392,302,374,392,400,2025-05-27T22:29:46.804510
783,-0.3201,0.0781,0.9799,-0.245,-0.315,-0.525,370,391,342,366,352,2025-05-27T22:29:46.804510
784,-0.3226,0.0776,0.9809,-0.210,-1.365,-0.280,338,419,354,394,394,2025-05-27T22:29:46.804510
785,-0.3196,0.0747,0.9833,-0.385,-1.715,-0.070,399,401,370,389,408,2025-05-27T22:29:46.804510
786,-0.3143,0.0708,0.9872,-0.350,-1.365,0.245,419,392,302,407,387,2025-05-27T22:29:46.804510
787,-0.3157,0.0669,0.9882,-0.315,-1.260,0.455,429,404,349,405,346,2025-05-27T22:29:46.804510
788,-0.3143,0.0649,0.9897,-0.280,-1.435,0.385,428,351,367,403,380,2025-05-27T22:29:46.804510
789,-0.3143,0.0600,0.9897,-0.280,-1.050,0.210,404,402,370,414,388,2025-05-27T22:29:46.804510
790,-0.3152,0.0581,0.9872,-0.210,-1.015,0.105,408,424,384,361,345,2025-05-27T22:29:46.804510
791,-0.3162,0.0590,0.9877,-0.105,-1.120,-0.245,341,428,374,338,337,2025-05-27T22:29:46.987338
792,-0.3192,0.0586,0.9906,-0.140,-1.085,-0.560,396,368,386,396,374,2025-05-27T22:29:46.987338
793,-0.3182,0.0581,0.9887,0.105,-1.050,-0.805,395,391,385,399,394,2025-05-27T22:29:46.987338
794,-0.3196,0.0600,0.9902,-0.070,-1.155,-0.980,420,400,360,395,403,2025-05-27T22:29:46.987338
795,-0.3206,0.0595,0.9902,-0.245,-1.050,-1.260,409,411,374,350,412,2025-05-27T22:29:46.987338
796,-0.3226,0.0595,0.9897,-0.210,-1.400,-1.435,377,402,352,391,388,2025-05-27T22:29:46.987338
797,-0.3255,0.0625,0.9867,-0.070,-1.890,-1.295,381,402,334,396,401,2025-05-27T22:29:46.987338
798,-0.3211,0.0615,0.9823,-0.035,-2.065,-1.400,379,392,355,396,395,2025-05-27T22:29:46.987338
799,-0.3226,0.0649,0.9794,-0.070,-1.785,-1.330,381,400,339,340,402,2025-05-27T22:29:46.987338
800,-0.3245,0.0649,0.9755,-0.070,-1.435,-1.505,419,420,363,391,398,2025-05-27T22:29:46.987338
801,-0.3294,0.0659,0.9770,-0.175,-1.645,-1.400,347,392,345,399,411,2025-05-27T22:29:47.355131
802,-0.3294,0.0664,0.9770,-0.245,-2.135,-1.260,384,367,367,408,404,2025-05-27T22:29:47.355131
803,-0.3338,0.0664,0.9784,-0.385,-2.590,-0.945,387,332,381,408,368,2025-05-27T22:29:47.355131
804,-0.3304,0.0659,0.9755,-0.420,-2.730,-0.770,363,403,390,401,383,2025-05-27T22:29:47.356175
805,-0.3314,0.0688,0.9740,-0.210,-2.835,-0.595,410,434,379,397,401,2025-05-27T22:29:47.356175
806,-0.3318,0.0673,0.9745,0.140,-2.870,-0.385,408,435,337,413,388,2025-05-27T22:29:47.356175
807,-0.3309,0.0712,0.9750,0.420,-2.660,-0.280,435,400,360,353,405,2025-05-27T22:29:47.356175
808,-0.3338,0.0698,0.9784,0.665,-2.940,-0.175,425,394,383,375,414,2025-05-27T22:29:47.356175
809,-0.3265,0.0708,0.9775,0.735,-3.255,-0.070,428,420,379,389,406,2025-05-27T22:29:47.356175
810,-0.3231,0.0698,0.9814,0.770,-3.570,0.035,359,418,343,341,400,2025-05-27T22:29:47.356175
811,-0.3192,0.0659,0.9853,0.875,-3.395,0.070,405,428,374,385,352,2025-05-27T22:29:47.356175
812,-0.3177,0.0649,0.9843,1.015,-3.465,0.420,379,424,378,391,368,2025-05-27T22:29:47.356175
813,-0.3157,0.0639,0.9853,1.155,-3.395,0.735,349,395,389,387,377,2025-05-27T22:29:47.356175
814,-0.3152,0.0688,0.9809,1.260,-3.010,1.015,378,401,389,400,389,2025-05-27T22:29:47.356175
815,-0.3182,0.0698,0.9789,1.295,-2.695,1.225,412,406,382,413,401,2025-05-27T22:29:47.356175
816,-0.3182,0.0752,0.9789,1.365,-2.765,1.365,405,396,361,405,404,2025-05-27T22:29:47.356175
817,-0.3206,0.0742,0.9838,1.295,-2.905,1.470,377,394,385,410,349,2025-05-27T22:29:47.356175
818,-0.3211,0.0742,0.9838,1.225,-3.080,1.610,392,416,387,408,378,2025-05-27T22:29:47.356175
819,-0.3196,0.0717,0.9862,0.980,-3.150,1.645,359,340,379,415,393,2025-05-27T22:29:47.356175
820,-0.3211,0.0727,0.9862,0.910,-2.975,1.645,414,339,384,402,391,2025-05-27T22:29:47.356175
821,-0.3201,0.0673,0.9916,0.805,-2.730,1.540,397,396,385,388,406,2025-05-27T22:29:47.356175
822,-0.3216,0.0649,0.9887,0.840,-2.905,1.470,420,366,378,386,408,2025-05-27T22:29:47.356175
823,-0.3221,0.0610,0.9877,0.770,-2.975,1.225,413,424,377,384,401,2025-05-27T22:29:47.356175
824,-0.3226,0.0615,0.9882,0.770,-2.835,0.945,402,412,385,335,402,2025-05-27T22:29:47.356175
825,-0.3201,0.0630,0.9872,0.805,-2.870,0.770,409,422,386,385,398,2025-05-27T22:29:47.356175
826,-0.3216,0.0644,0.9872,0.770,-2.870,0.525,426,440,351,340,411,2025-05-27T22:29:47.356175
827,-0.3162,0.0678,0.9853,0.735,-2.590,0.245,424,425,360,392,360,2025-05-27T22:29:47.356175
828,-0.3143,0.0717,0.9853,0.595,-2.380,0.000,304,379,374,417,392,2025-05-27T22:29:47.356175
829,-0.3167,0.0747,0.9858,0.420,-2.380,-0.280,377,421,369,400,388,2025-05-27T22:29:47.356175
830,-0.3206,0.0737,0.9872,0.280,-2.450,-0.350,420,387,363,396,393,2025-05-27T22:29:47.356175
831,-0.3255,0.0766,0.9853,0.140,-2.730,-0.385,420,375,367,402,355,2025-05-27T22:29:47.356175
832,-0.3260,0.0776,0.9858,0.000,-3.080,-0.245,412,412,379,416,380,2025-05-27T22:29:47.387008
833,-0.3279,0.0752,0.9858,-0.210,-3.465,-0.245,406,430,377,349,384,2025-05-27T22:29:47.387008
834,-0.3279,0.0708,0.9877,-0.455,-3.640,-0.315,377,344,368,346,402,2025-05-27T22:29:47.387008
835,-0.3231,0.0673,0.9867,-0.665,-3.885,-0.350,340,335,363,372,392,2025-05-27T22:29:47.387008
836,-0.3221,0.0673,0.9853,-0.630,-3.745,-0.455,407,396,344,387,391,2025-05-27T22:29:47.387008
837,-0.3235,0.0610,0.9858,-0.665,-3.815,-0.420,391,413,367,388,392,2025-05-27T22:29:47.387008
838,-0.3177,0.0649,0.9819,-0.350,-3.920,-0.420,421,429,385,405,389,2025-05-27T22:29:47.387008
839,-0.3167,0.0669,0.9843,-0.280,-3.710,-0.455,399,424,388,398,386,2025-05-27T22:29:47.387008
840,-0.3187,0.0664,0.9819,-0.315,-3.325,-0.630,391,345,387,396,404,2025-05-27T22:29:47.387008
841,-0.3187,0.0708,0.9853,-0.490,-3.500,-0.665,374,364,340,347,392,2025-05-27T22:29:47.541853
842,-0.3172,0.0717,0.9823,-0.560,-3.255,-0.560,343,412,358,403,385,2025-05-27T22:29:47.541853
843,-0.3192,0.0747,0.9823,-0.490,-3.045,-0.525,328,396,361,399,379,2025-05-27T22:29:47.541853
844,-0.3216,0.0756,0.9804,-0.490,-3.010,-0.385,323,417,364,348,399,2025-05-27T22:29:47.541853
845,-0.3206,0.0761,0.9799,-0.280,-3.080,-0.070,388,412,385,404,350,2025-05-27T22:29:47.541853
846,-0.3255,0.0752,0.9780,-0.035,-3.010,0.350,418,429,386,410,379,2025-05-27T22:29:47.541853
847,-0.3255,0.0766,0.9804,0.105,-3.045,0.665,414,405,388,424,398,2025-05-27T22:29:47.541853
848,-0.3274,0.0747,0.9828,0.210,-3.360,0.910,428,418,389,419,380,2025-05-27T22:29:47.541853
849,-0.3250,0.0742,0.9809,0.315,-3.745,1.155,351,423,378,421,407,2025-05-27T22:29:47.541853
850,-0.3221,0.0708,0.9828,0.525,-3.535,1.295,403,415,384,407,391,2025-05-27T22:29:47.541853
851,-0.3177,0.0678,0.9833,0.525,-3.255,1.330,398,426,393,417,397,2025-05-27T22:29:47.542866
852,-0.3113,0.0683,0.9833,0.805,-3.255,1.225,404,305,376,418,368,2025-05-27T22:29:47.542866
853,-0.3157,0.0678,0.9843,0.945,-2.905,1.050,368,339,383,398,384,2025-05-27T22:29:47.937485
854,-0.3157,0.0673,0.9862,1.085,-2.625,0.665,413,402,390,400,348,2025-05-27T22:29:47.937485
855,-0.3157,0.0698,0.9916,0.980,-2.870,0.525,425,400,388,396,376,2025-05-27T22:29:47.937485
856,-0.3172,0.0722,0.9955,0.700,-2.975,0.525,407,413,370,421,387,2025-05-27T22:29:47.937485
857,-0.3201,0.0727,0.9945,0.420,-3.010,0.735,421,423,365,416,403,2025-05-27T22:29:47.937485
858,-0.3201,0.0747,0.9936,0.140,-3.255,0.840,392,382,379,395,415,2025-05-27T22:29:47.937485
859,-0.3201,0.0732,0.9921,-0.105,-3.780,0.945,337,403,378,411,412,2025-05-27T22:29:47.937485
860,-0.3221,0.0727,0.9921,-0.280,-3.990,1.050,367,405,367,410,351,2025-05-27T22:29:47.937485
861,-0.3196,0.0703,0.9887,-0.455,-4.340,1.435,379,402,350,415,390,2025-05-27T22:29:47.937485
862,-0.3162,0.0708,0.9882,-0.560,-4.830,1.295,360,417,370,359,395,2025-05-27T22:29:47.937485
863,-0.3157,0.0693,0.9848,-0.700,-4.585,1.225,379,405,380,333,381,2025-05-27T22:29:47.937485
864,-0.3148,0.0683,0.9838,-0.910,-4.410,1.015,327,396,392,377,400,2025-05-27T22:29:47.937485
865,-0.3167,0.0620,0.9843,-0.945,-4.585,0.840,374,349,378,404,408,2025-05-27T22:29:47.937485
866,-0.3162,0.0634,0.9862,-0.735,-4.760,0.560,396,410,383,398,419,2025-05-27T22:29:47.937485
867,-0.3182,0.0610,0.9862,-0.455,-4.865,0.280,412,343,386,407,400,2025-05-27T22:29:47.937485
868,-0.3182,0.0605,0.9853,-0.105,-4.725,0.105,421,407,376,361,345,2025-05-27T22:29:47.937485
869,-0.3152,0.0630,0.9828,0.140,-4.165,-0.070,416,429,373,381,375,2025-05-27T22:29:47.937485
870,-0.3118,0.0664,0.9823,0.350,-3.710,-0.420,420,357,369,339,384,2025-05-27T22:29:47.937485
871,-0.3128,0.0688,0.9833,0.315,-3.605,-0.595,423,400,374,375,393,2025-05-27T22:29:47.937485
872,-0.3138,0.0683,0.9789,0.280,-3.640,-0.805,397,401,385,384,352,2025-05-27T22:29:47.937485
873,-0.3109,0.0683,0.9828,0.175,-3.675,-0.945,424,411,345,401,386,2025-05-27T22:29:47.937485
874,-0.3079,0.0712,0.9858,0.175,-3.465,-0.805,395,413,371,348,361,2025-05-27T22:29:48.104934
875,-0.3099,0.0717,0.9833,0.035,-3.115,-1.015,413,393,368,331,379,2025-05-27T22:29:48.104934
876,-0.3143,0.0752,0.9858,-0.140,-2.800,-1.120,405,397,372,376,349,2025-05-27T22:29:48.104934
877,-0.3148,0.0752,0.9877,-0.385,-3.010,-0.875,396,378,367,371,378,2025-05-27T22:29:48.104934
878,-0.3162,0.0805,0.9867,-0.490,-3.465,-0.735,429,412,375,377,392,2025-05-27T22:29:48.104934
879,-0.3128,0.0839,0.9858,-0.595,-3.570,-0.420,398,421,379,405,392,2025-05-27T22:29:48.108491
880,-0.3128,0.0844,0.9882,-0.770,-3.465,-0.280,411,410,384,414,370,2025-05-27T22:29:48.108491
881,-0.3133,0.0869,0.9911,-0.840,-3.570,0.070,420,371,366,415,388,2025-05-27T22:29:48.108491
882,-0.3138,0.0854,0.9887,-0.910,-3.360,0.700,398,412,379,421,405,2025-05-27T22:29:48.108491
883,-0.3162,0.0820,0.9833,-0.980,-3.710,1.400,395,418,340,355,402,2025-05-27T22:29:48.108491
884,-0.3123,0.0761,0.9755,-0.770,-3.990,1.890,416,434,367,405,410,2025-05-27T22:29:48.108491
885,-0.3099,0.0698,0.9687,-0.490,-3.990,1.995,307,420,332,351,408,2025-05-27T22:29:48.108491
886,-0.3079,0.0669,0.9667,0.175,-3.640,2.135,386,384,364,392,359,2025-05-27T22:29:48.109496
887,-0.3060,0.0610,0.9687,0.945,-3.010,1.750,377,417,374,409,380,2025-05-27T22:29:48.109496
888,-0.3079,0.0595,0.9721,1.225,-2.030,1.435,296,427,366,400,348,2025-05-27T22:29:48.109496
889,-0.3128,0.0566,0.9784,1.715,-1.470,1.085,337,411,375,383,372,2025-05-27T22:29:48.109496
890,-0.3172,0.0576,0.9848,2.170,-1.120,0.875,411,430,374,353,379,2025-05-27T22:29:48.109496
891,-0.3235,0.0634,0.9877,2.135,-1.225,0.910,400,308,365,379,407,2025-05-27T22:29:48.109496
892,-0.3216,0.0625,0.9897,1.855,-1.680,0.840,378,372,344,343,383,2025-05-27T22:29:48.109496
893,-0.3172,0.0654,0.9916,1.785,-2.205,0.770,383,401,354,382,349,2025-05-27T22:29:48.109496
894,-0.3123,0.0644,0.9950,1.330,-2.450,0.700,393,419,367,398,336,2025-05-27T22:29:48.109496
895,-0.3060,0.0664,0.9970,0.980,-2.415,0.665,294,414,376,414,382,2025-05-27T22:29:48.109496
896,-0.3074,0.0678,0.9970,0.665,-2.450,0.595,373,408,371,421,394,2025-05-27T22:29:48.203616
897,-0.3113,0.0683,1.0004,0.385,-2.275,0.315,396,366,373,420,398,2025-05-27T22:29:48.203616
898,-0.3162,0.0703,1.0009,0.210,-2.660,0.245,412,356,371,416,411,2025-05-27T22:29:48.203616
899,-0.3192,0.0727,1.0014,0.175,-3.185,0.315,406,352,341,416,357,2025-05-27T22:29:48.203616
900,-0.3201,0.0742,0.9989,0.315,-3.745,0.595,395,394,371,413,332,2025-05-27T22:29:48.203616
901,-0.3177,0.0771,0.9950,0.490,-4.305,0.945,339,381,378,404,391,2025-05-27T22:29:48.203616
902,-0.3133,0.0786,0.9897,0.455,-4.725,1.225,375,397,374,416,413,2025-05-27T22:29:48.203616
903,-0.3084,0.0820,0.9823,0.315,-4.795,1.330,383,414,387,415,388,2025-05-27T22:29:48.203616
904,-0.3030,0.0830,0.9784,0.350,-4.620,1.295,338,350,374,415,396,2025-05-27T22:29:48.203616
905,-0.3026,0.0800,0.9784,0.385,-4.305,1.155,401,402,387,396,394,2025-05-27T22:29:48.203616
906,-0.3040,0.0795,0.9780,0.420,-4.165,0.735,378,425,392,394,394,2025-05-27T22:29:48.203616
907,-0.3030,0.0732,0.9784,0.315,-4.060,0.210,403,415,384,369,380,2025-05-27T22:29:48.203616
908,-0.3079,0.0698,0.9828,0.210,-3.745,-0.070,419,398,384,399,339,2025-05-27T22:29:48.203616
909,-0.3099,0.0673,0.9877,0.140,-3.325,-0.140,404,403,388,391,383,2025-05-27T22:29:48.203616
910,-0.3143,0.0644,0.9877,0.280,-3.290,-0.280,395,420,358,403,341,2025-05-27T22:29:48.355974
911,-0.3133,0.0634,0.9872,0.280,-3.220,-0.245,385,433,378,413,386,2025-05-27T22:29:48.355974
912,-0.3152,0.0644,0.9843,0.245,-3.010,-0.245,411,426,349,401,388,2025-05-27T22:29:48.356301
913,-0.3196,0.0654,0.9867,0.175,-3.010,-0.210,369,422,372,395,381,2025-05-27T22:29:48.357285
914,-0.3177,0.0693,0.9872,0.035,-3.150,-0.175,398,433,369,404,348,2025-05-27T22:29:48.357285
915,-0.3133,0.0717,0.9853,-0.175,-3.290,-0.105,402,388,368,353,381,2025-05-27T22:29:48.357959
916,-0.3113,0.0732,0.9867,-0.280,-3.220,0.035,400,374,378,294,400,2025-05-27T22:29:48.357959
917,-0.3070,0.0737,0.9877,-0.210,-3.150,0.035,421,412,394,378,406,2025-05-27T22:29:48.357959
918,-0.3021,0.0771,0.9877,0.000,-3.185,0.070,411,345,387,379,404,2025-05-27T22:29:48.357959
919,-0.3070,0.0800,0.9902,0.070,-2.870,0.070,379,332,386,385,405,2025-05-27T22:29:48.357959
920,-0.3060,0.0815,0.9872,0.140,-3.220,-0.070,411,409,375,406,395,2025-05-27T22:29:48.357959
921,-0.3050,0.0830,0.9848,0.280,-3.430,0.070,424,353,382,352,396,2025-05-27T22:29:48.357959
922,-0.3084,0.0825,0.9858,0.350,-3.045,0.140,404,395,391,330,398,2025-05-27T22:29:48.438321
923,-0.3070,0.0849,0.9877,0.140,-2.975,0.175,363,406,384,378,396,2025-05-27T22:29:48.438321
924,-0.3055,0.0800,0.9877,-0.035,-3.185,0.175,358,372,348,385,395,2025-05-27T22:29:48.438321
925,-0.3060,0.0786,0.9882,-0.105,-2.800,0.280,328,289,369,385,385,2025-05-27T22:29:48.438321
926,-0.3065,0.0756,0.9862,0.000,-2.380,0.350,375,370,339,384,347,2025-05-27T22:29:48.438321
927,-0.3109,0.0756,0.9853,-0.035,-2.415,0.315,414,397,363,384,374,2025-05-27T22:29:48.438321
928,-0.3128,0.0761,0.9853,-0.210,-2.170,0.525,403,393,358,365,392,2025-05-27T22:29:48.527227
929,-0.3104,0.0791,0.9833,-0.105,-2.135,0.700,405,395,376,392,411,2025-05-27T22:29:48.527773
930,-0.3148,0.0766,0.9848,-0.175,-2.240,0.840,419,393,379,387,395,2025-05-27T22:29:48.528040
931,-0.3079,0.0756,0.9823,-0.210,-2.450,0.945,406,419,385,383,405,2025-05-27T22:29:48.528040
932,-0.3094,0.0761,0.9838,-0.245,-2.415,1.015,401,429,380,393,411,2025-05-27T22:29:48.528040
933,-0.3089,0.0752,0.9848,-0.385,-2.380,0.875,418,354,340,375,417,2025-05-27T22:29:48.528040
934,-0.3138,0.0703,0.9862,-0.420,-2.695,0.840,404,393,373,412,423,2025-05-27T22:29:48.528040
935,-0.3118,0.0654,0.9892,-0.140,-2.730,0.630,390,428,342,354,318,2025-05-27T22:29:48.528040
