SeqNum,AccX,AccY,AccZ,GyroX,GyroY,GyroZ,Flex,Force1,Force2,Force3,Force4,TimestampReception
11942,-0.3611,0.8667,0.2821,-1.190,-0.490,3.080,450,423,297,392,345,2025-05-27T22:42:27.639767
11943,-0.3509,0.8755,0.2747,1.190,2.135,1.785,419,437,270,350,372,2025-05-27T22:42:27.639767
11944,-0.3650,0.8794,0.2747,1.225,3.360,1.540,396,421,332,375,383,2025-05-27T22:42:27.639767
11945,-0.3719,0.8857,0.2757,1.225,2.940,1.155,413,407,357,391,404,2025-05-27T22:42:27.639767
11946,-0.3743,0.8891,0.2806,0.805,2.030,0.840,407,432,348,412,406,2025-05-27T22:42:27.639767
11947,-0.3762,0.8882,0.2821,0.420,1.155,0.665,379,408,341,392,396,2025-05-27T22:42:27.639767
11948,-0.3811,0.8906,0.2830,0.315,-0.280,0.770,394,407,366,423,408,2025-05-27T22:42:27.639767
11949,-0.3777,0.8960,0.2835,0.175,-1.890,0.875,417,394,336,413,410,2025-05-27T22:42:27.639767
11950,-0.3728,0.8974,0.2835,-0.140,-2.170,0.910,421,415,363,404,412,2025-05-27T22:42:27.639767
11951,-0.3714,0.8994,0.2806,-0.315,-2.100,1.120,307,342,365,411,408,2025-05-27T22:42:27.639767
11952,-0.3675,0.9033,0.2791,-0.630,-2.275,1.645,335,384,369,399,348,2025-05-27T22:42:27.639767
11953,-0.3699,0.9013,0.2811,-0.560,-2.135,2.030,346,353,377,395,329,2025-05-27T22:42:27.639767
11954,-0.3699,0.9048,0.2796,-0.805,-2.030,2.555,391,410,308,391,371,2025-05-27T22:42:27.639767
11955,-0.3689,0.9038,0.2747,-0.910,-2.380,3.115,401,426,305,395,381,2025-05-27T22:42:27.639767
11956,-0.3689,0.9023,0.2704,-0.910,-2.205,3.255,416,401,356,351,374,2025-05-27T22:42:27.639767
11957,-0.3684,0.8989,0.2718,-1.015,-1.680,3.500,397,427,358,374,359,2025-05-27T22:42:27.815909
11958,-0.3650,0.8965,0.2699,-1.470,-1.470,3.640,400,359,367,385,396,2025-05-27T22:42:27.815909
11959,-0.3738,0.8921,0.2728,-1.435,-1.715,3.885,413,402,338,409,404,2025-05-27T22:42:27.815909
11960,-0.3767,0.8872,0.2733,-1.260,-2.170,3.920,430,383,366,402,395,2025-05-27T22:42:27.815909
11961,-0.3738,0.8833,0.2743,-1.120,-3.045,3.885,420,396,338,414,402,2025-05-27T22:42:27.815909
11962,-0.3680,0.8813,0.2718,-1.085,-3.255,3.885,306,406,324,366,351,2025-05-27T22:42:27.815909
11963,-0.3640,0.8813,0.2752,-1.120,-2.765,3.815,393,403,351,391,378,2025-05-27T22:42:27.815909
11964,-0.3587,0.8799,0.2777,-1.295,-2.520,3.850,423,392,374,412,345,2025-05-27T22:42:27.815909
11965,-0.3606,0.8774,0.2777,-1.540,-2.205,3.850,408,420,386,398,336,2025-05-27T22:42:27.815909
11966,-0.3567,0.8789,0.2777,-1.470,-2.275,3.675,393,430,391,392,328,2025-05-27T22:42:27.815909
11967,-0.3582,0.8799,0.2767,-1.295,-2.485,3.185,422,438,391,402,365,2025-05-27T22:42:27.815909
11968,-0.3562,0.8789,0.2767,-1.260,-2.415,2.730,400,382,384,309,358,2025-05-27T22:42:27.815909
11969,-0.3518,0.8833,0.2733,-1.120,-1.925,2.450,300,407,379,360,386,2025-05-27T22:42:27.815909
11970,-0.3538,0.8838,0.2772,-0.840,-1.190,2.205,386,418,394,407,398,2025-05-27T22:42:27.815909
11971,-0.3597,0.8847,0.2806,-1.120,-1.015,2.030,409,411,384,353,407,2025-05-27T22:42:27.815909
11972,-0.3660,0.8833,0.2791,-1.295,-1.890,2.065,336,354,345,386,353,2025-05-27T22:42:27.815909
11973,-0.3699,0.8847,0.2806,-1.365,-3.220,2.135,380,355,372,413,377,2025-05-27T22:42:27.815909
11974,-0.3611,0.8843,0.2777,-1.295,-4.095,2.240,397,382,385,346,400,2025-05-27T22:42:27.818064
11975,-0.3597,0.8852,0.2777,-1.120,-4.865,2.345,356,396,384,391,402,2025-05-27T22:42:27.818064
11976,-0.3514,0.8872,0.2772,-0.945,-4.550,2.310,413,402,386,402,352,2025-05-27T22:42:28.003384
11977,-0.3499,0.8867,0.2777,-1.085,-3.640,2.275,429,418,393,348,371,2025-05-27T22:42:28.003384
11978,-0.3548,0.8872,0.2801,-1.050,-3.115,2.275,424,389,388,386,393,2025-05-27T22:42:28.003384
11979,-0.3528,0.8867,0.2757,-1.050,-3.045,2.275,423,407,381,388,395,2025-05-27T22:42:28.003384
11980,-0.3533,0.8857,0.2782,-0.840,-3.010,2.275,423,428,310,389,401,2025-05-27T22:42:28.003384
11981,-0.3523,0.8891,0.2782,-0.945,-2.870,2.205,391,425,355,404,369,2025-05-27T22:42:28.003384
11982,-0.3509,0.8901,0.2796,-1.260,-2.730,2.310,412,403,367,389,376,2025-05-27T22:42:28.003384
11983,-0.3567,0.8867,0.2782,-1.435,-2.695,2.275,353,391,381,386,380,2025-05-27T22:42:28.003384
11984,-0.3577,0.8867,0.2772,-1.540,-2.975,2.205,411,401,379,388,340,2025-05-27T22:42:28.003384
11985,-0.3533,0.8877,0.2811,-1.855,-3.185,2.310,408,420,356,355,365,2025-05-27T22:42:28.003384
11986,-0.3577,0.8847,0.2811,-2.205,-3.010,2.310,425,419,370,396,401,2025-05-27T22:42:28.003384
11987,-0.3528,0.8843,0.2830,-2.345,-3.255,2.205,412,401,379,418,411,2025-05-27T22:42:28.003384
11988,-0.3494,0.8838,0.2840,-2.555,-3.325,2.240,431,399,382,398,397,2025-05-27T22:42:28.003384
11989,-0.3484,0.8818,0.2860,-2.625,-3.045,2.100,418,361,385,389,405,2025-05-27T22:42:28.003384
11990,-0.3484,0.8799,0.2889,-2.555,-2.730,1.820,430,390,361,398,355,2025-05-27T22:42:28.003384
11991,-0.3440,0.8794,0.2933,-2.450,-2.800,1.435,395,412,333,403,367,2025-05-27T22:42:28.140655
11992,-0.3445,0.8774,0.2908,-2.170,-2.940,1.260,414,414,359,344,394,2025-05-27T22:42:28.140655
11993,-0.3431,0.8725,0.2904,-1.400,-3.290,0.980,349,422,373,386,399,2025-05-27T22:42:28.140655
11994,-0.3421,0.8725,0.2918,-0.805,-3.500,0.560,392,307,379,401,404,2025-05-27T22:42:28.140655
11995,-0.3406,0.8740,0.2908,-0.525,-3.220,0.525,341,392,309,385,404,2025-05-27T22:42:28.140655
11996,-0.3431,0.8716,0.2869,-0.175,-2.660,0.385,399,413,342,409,398,2025-05-27T22:42:28.141650
11997,-0.3445,0.8730,0.2904,0.280,-2.170,0.210,352,431,367,397,403,2025-05-27T22:42:28.141650
11998,-0.3499,0.8745,0.2908,0.385,-2.170,0.035,392,405,383,348,412,2025-05-27T22:42:28.141958
11999,-0.3523,0.8740,0.2894,0.245,-2.450,-0.105,388,346,385,375,395,2025-05-27T22:42:28.141958
12000,-0.3509,0.8686,0.2865,0.630,-3.185,-0.070,408,398,394,381,406,2025-05-27T22:42:28.141958
12001,-0.3470,0.8706,0.2821,0.875,-3.430,-0.105,414,396,386,346,372,2025-05-27T22:42:28.141958
12002,-0.3377,0.8735,0.2777,1.365,-2.870,-0.280,429,416,396,392,408,2025-05-27T22:42:28.141958
12003,-0.3348,0.8750,0.2782,1.575,-1.995,-0.770,371,422,381,386,393,2025-05-27T22:42:28.141958
12004,-0.3382,0.8774,0.2796,1.715,-1.295,-1.295,405,404,387,401,394,2025-05-27T22:42:28.303351
12005,-0.3421,0.8813,0.2821,1.925,-1.015,-1.540,401,401,392,351,385,2025-05-27T22:42:28.303351
12006,-0.3450,0.8804,0.2821,1.925,-1.435,-1.855,421,412,384,380,360,2025-05-27T22:42:28.303351
12007,-0.3494,0.8833,0.2869,1.750,-2.030,-2.065,423,423,379,395,389,2025-05-27T22:42:28.303351
12008,-0.3509,0.8833,0.2889,1.470,-2.520,-2.380,434,350,384,407,393,2025-05-27T22:42:28.303351
12009,-0.3465,0.8833,0.2855,1.470,-2.800,-2.310,421,382,392,423,400,2025-05-27T22:42:28.303351
12010,-0.3509,0.8843,0.2884,1.750,-2.905,-2.100,420,360,350,405,345,2025-05-27T22:42:28.303351
12011,-0.3475,0.8882,0.2874,1.680,-2.660,-1.995,417,395,370,358,382,2025-05-27T22:42:28.303351
12012,-0.3465,0.8930,0.2899,1.680,-1.925,-1.855,402,374,376,340,402,2025-05-27T22:42:28.303351
12013,-0.3514,0.8960,0.2904,1.610,-1.435,-1.645,429,418,376,381,395,2025-05-27T22:42:28.303351
12014,-0.3611,0.8940,0.2918,1.645,-1.750,-1.365,407,427,384,389,395,2025-05-27T22:42:28.303351
12015,-0.3640,0.8935,0.2957,1.855,-2.800,-1.085,399,392,381,406,399,2025-05-27T22:42:28.303351
12016,-0.3680,0.8950,0.2952,1.890,-3.675,-0.875,401,391,386,401,394,2025-05-27T22:42:28.303351
12017,-0.3601,0.8950,0.2928,1.890,-4.060,-0.420,340,346,380,399,412,2025-05-27T22:42:28.405112
12018,-0.3597,0.8916,0.2884,2.135,-3.955,-0.140,400,335,385,411,400,2025-05-27T22:42:28.405112
12019,-0.3631,0.8877,0.2899,2.415,-3.465,0.105,384,410,381,407,395,2025-05-27T22:42:28.405112
12020,-0.3592,0.8872,0.2923,2.520,-3.185,0.455,394,403,386,394,397,2025-05-27T22:42:28.405112
12021,-0.3582,0.8847,0.2908,2.485,-3.080,0.805,335,420,348,401,386,2025-05-27T22:42:28.405112
12022,-0.3567,0.8847,0.2874,2.555,-3.045,0.980,347,406,336,308,382,2025-05-27T22:42:28.405112
12023,-0.3509,0.8847,0.2855,2.695,-3.150,0.945,404,430,364,392,409,2025-05-27T22:42:28.405112
12024,-0.3499,0.8872,0.2821,2.765,-3.290,0.770,421,405,383,408,354,2025-05-27T22:42:28.405112
12025,-0.3479,0.8891,0.2762,2.555,-3.605,0.595,413,394,389,399,388,2025-05-27T22:42:28.405112
12026,-0.3240,0.8872,0.2708,2.380,-1.680,0.105,423,412,343,386,389,2025-05-27T22:42:28.554400
12027,-0.3440,0.8833,0.2708,2.520,-0.070,-0.070,426,429,362,396,351,2025-05-27T22:42:28.554400
12028,-0.3504,0.8833,0.2694,2.695,-0.455,-0.420,398,435,379,411,384,2025-05-27T22:42:28.554400
12029,-0.3597,0.8847,0.2718,2.730,-1.085,-0.560,346,429,387,411,397,2025-05-27T22:42:28.554400
12030,-0.3655,0.8838,0.2708,2.415,-1.400,-0.700,408,406,350,421,381,2025-05-27T22:42:28.554400
12031,-0.3636,0.8828,0.2674,2.450,-2.765,-0.665,384,419,355,416,405,2025-05-27T22:42:28.554400
12032,-0.3606,0.8828,0.2606,2.415,-3.640,-0.420,393,346,369,410,415,2025-05-27T22:42:28.554400
12033,-0.3538,0.8882,0.2630,2.310,-2.835,-0.210,416,388,380,405,391,2025-05-27T22:42:28.554400
12034,-0.3445,0.8906,0.2635,1.750,-2.205,-0.105,342,426,352,403,405,2025-05-27T22:42:28.555662
12035,-0.3455,0.8930,0.2640,1.400,-1.540,-0.140,405,403,369,397,385,2025-05-27T22:42:28.555662
12036,-0.3479,0.8940,0.2708,1.190,-1.015,-0.140,387,423,363,408,413,2025-05-27T22:42:28.555662
12037,-0.3543,0.8950,0.2713,1.155,-1.610,-0.245,416,436,352,419,416,2025-05-27T22:42:28.555662
12038,-0.3582,0.8940,0.2733,1.330,-2.170,-0.175,414,430,375,416,361,2025-05-27T22:42:28.811545
12039,-0.3577,0.8994,0.2733,1.400,-2.590,-0.175,401,413,372,423,401,2025-05-27T22:42:28.811545
12040,-0.3572,0.8989,0.2747,1.260,-2.520,-0.175,417,416,342,424,418,2025-05-27T22:42:28.811545
12041,-0.3597,0.8950,0.2704,1.295,-2.380,-0.070,413,397,372,406,374,2025-05-27T22:42:28.811545
12042,-0.3587,0.8999,0.2728,1.365,-2.310,0.175,393,391,363,403,377,2025-05-27T22:42:28.811545
12043,-0.3631,0.9013,0.2747,1.365,-2.310,0.700,419,417,365,406,380,2025-05-27T22:42:28.811545
12044,-0.3650,0.8994,0.2723,1.120,-2.485,1.050,422,369,373,404,400,2025-05-27T22:42:28.811545
12045,-0.3680,0.8999,0.2733,0.945,-2.555,1.190,381,415,372,413,411,2025-05-27T22:42:28.811545
12046,-0.3650,0.8989,0.2762,0.560,-2.660,1.470,381,395,376,412,411,2025-05-27T22:42:28.811545
12047,-0.3616,0.8965,0.2708,0.280,-2.485,1.785,410,343,384,361,397,2025-05-27T22:42:28.811545
12048,-0.3601,0.8955,0.2718,0.175,-2.345,1.995,414,418,397,396,359,2025-05-27T22:42:28.811545
12049,-0.3601,0.8935,0.2733,-0.175,-2.275,1.960,402,419,383,391,385,2025-05-27T22:42:28.811545
12050,-0.3597,0.8935,0.2747,-0.490,-2.730,2.030,390,376,387,405,386,2025-05-27T22:42:28.811545
12051,-0.3621,0.8921,0.2762,-0.560,-3.325,1.960,417,428,349,387,386,2025-05-27T22:42:28.811545
12052,-0.3606,0.8896,0.2762,-0.595,-3.745,1.855,347,391,361,398,370,2025-05-27T22:42:28.811545
12053,-0.3592,0.8891,0.2738,-0.595,-4.095,2.030,406,410,377,410,381,2025-05-27T22:42:28.811545
12054,-0.3553,0.8877,0.2718,-0.630,-3.640,2.205,429,430,383,399,391,2025-05-27T22:42:28.812540
12055,-0.3499,0.8872,0.2723,-0.665,-2.625,2.415,345,343,365,403,389,2025-05-27T22:42:28.812540
12056,-0.3553,0.8867,0.2738,-0.840,-2.100,2.625,378,352,345,390,382,2025-05-27T22:42:28.812540
12057,-0.3587,0.8852,0.2723,-0.980,-2.135,2.765,371,400,354,390,363,2025-05-27T22:42:28.812540
12058,-0.3616,0.8813,0.2743,-0.595,-2.415,2.905,328,350,373,397,389,2025-05-27T22:42:28.955009
12059,-0.3601,0.8794,0.2718,-0.560,-2.835,2.870,374,410,381,394,404,2025-05-27T22:42:28.955009
12060,-0.3528,0.8838,0.2738,-0.490,-2.905,2.765,393,413,370,393,413,2025-05-27T22:42:28.955009
12061,-0.3470,0.8833,0.2718,-0.490,-2.380,2.520,416,430,342,401,398,2025-05-27T22:42:28.955009
12062,-0.3494,0.8833,0.2718,-0.385,-1.925,2.100,421,412,325,404,391,2025-05-27T22:42:28.955009
12063,-0.3489,0.8847,0.2752,-0.175,-1.960,2.030,399,426,358,355,393,2025-05-27T22:42:28.955009
12064,-0.3475,0.8862,0.2801,-0.315,-1.855,1.890,408,418,379,373,391,2025-05-27T22:42:28.955009
12065,-0.3499,0.8891,0.2782,-0.455,-1.785,1.610,404,430,386,393,405,2025-05-27T22:42:28.955009
12066,-0.3528,0.8852,0.2767,-0.490,-2.415,1.365,424,434,395,342,354,2025-05-27T22:42:28.955009
12067,-0.3494,0.8828,0.2743,-0.420,-2.940,1.155,425,422,390,365,338,2025-05-27T22:42:28.955009
12068,-0.3489,0.8818,0.2767,-0.070,-3.255,0.875,419,426,389,393,376,2025-05-27T22:42:28.955009
12069,-0.3431,0.8838,0.2752,0.140,-3.115,0.595,405,346,391,398,380,2025-05-27T22:42:28.955009
12070,-0.3465,0.8823,0.2738,0.140,-2.625,0.175,357,407,382,413,382,2025-05-27T22:42:28.955009
12071,-0.3460,0.8823,0.2708,0.105,-2.275,-0.105,406,389,387,391,377,2025-05-27T22:42:28.955009
12072,-0.3514,0.8838,0.2728,0.350,-2.625,-0.490,340,346,375,388,357,2025-05-27T22:42:29.205833
12073,-0.3548,0.8843,0.2728,0.420,-3.185,-0.735,409,415,372,388,377,2025-05-27T22:42:29.205833
12074,-0.3567,0.8833,0.2713,0.805,-3.745,-0.980,403,395,380,366,360,2025-05-27T22:42:29.205833
12075,-0.3548,0.8843,0.2704,1.155,-4.060,-1.225,417,403,379,374,384,2025-05-27T22:42:29.205833
12076,-0.3523,0.8799,0.2699,1.330,-3.780,-1.505,408,379,386,410,392,2025-05-27T22:42:29.205833
12077,-0.3538,0.8823,0.2674,1.470,-3.325,-1.645,404,426,381,411,397,2025-05-27T22:42:29.205833
12078,-0.3523,0.8813,0.2679,1.505,-2.730,-1.610,422,405,368,408,389,2025-05-27T22:42:29.205833
12079,-0.3577,0.8784,0.2664,1.540,-2.695,-1.575,419,416,381,417,384,2025-05-27T22:42:29.205833
12080,-0.3567,0.8789,0.2674,1.750,-3.080,-1.540,403,432,394,413,401,2025-05-27T22:42:29.205833
12081,-0.3538,0.8799,0.2674,1.820,-3.535,-1.715,414,363,389,394,389,2025-05-27T22:42:29.205833
12082,-0.3479,0.8847,0.2645,1.750,-3.500,-1.960,393,399,376,407,383,2025-05-27T22:42:29.205833
12083,-0.3475,0.8852,0.2625,1.785,-3.430,-2.240,387,396,376,402,344,2025-05-27T22:42:29.205833
12084,-0.3416,0.8891,0.2635,1.715,-3.080,-2.555,403,406,342,414,350,2025-05-27T22:42:29.205833
12085,-0.3440,0.8901,0.2669,1.540,-2.660,-2.835,346,409,357,414,391,2025-05-27T22:42:29.205833
12086,-0.3533,0.8886,0.2699,1.400,-2.975,-3.045,403,428,368,426,397,2025-05-27T22:42:29.205833
12087,-0.3538,0.8906,0.2689,1.785,-4.130,-3.290,420,306,377,390,395,2025-05-27T22:42:29.205833
12088,-0.3509,0.8886,0.2689,2.240,-4.480,-3.080,418,384,382,387,408,2025-05-27T22:42:29.205833
12089,-0.3465,0.8926,0.2660,2.275,-3.535,-2.940,431,390,378,410,417,2025-05-27T22:42:29.205833
12090,-0.3460,0.8935,0.2655,2.135,-2.240,-2.940,425,396,340,407,392,2025-05-27T22:42:29.206873
12091,-0.3528,0.8926,0.2655,2.030,-1.470,-2.625,417,391,362,396,350,2025-05-27T22:42:29.206873
12092,-0.3616,0.8911,0.2640,2.100,-1.890,-2.520,400,390,301,396,381,2025-05-27T22:42:29.354900
12093,-0.3645,0.8930,0.2655,2.240,-3.045,-2.275,386,421,338,372,395,2025-05-27T22:42:29.354900
12094,-0.3597,0.8926,0.2640,1.960,-3.780,-2.065,403,409,349,405,407,2025-05-27T22:42:29.354900
12095,-0.3558,0.8921,0.2601,1.645,-3.640,-2.100,393,410,361,407,355,2025-05-27T22:42:29.354900
12096,-0.3509,0.8901,0.2591,1.435,-3.395,-2.170,414,426,380,412,392,2025-05-27T22:42:29.368299
12097,-0.3509,0.8921,0.2591,1.435,-2.940,-2.240,367,413,370,413,344,2025-05-27T22:42:29.368586
12098,-0.3484,0.8930,0.2577,1.365,-2.450,-2.240,367,340,337,394,379,2025-05-27T22:42:29.368768
12099,-0.3553,0.8930,0.2591,1.610,-2.240,-2.310,328,385,354,369,397,2025-05-27T22:42:29.368768
12100,-0.3558,0.8896,0.2601,1.505,-2.310,-2.520,406,432,370,340,408,2025-05-27T22:42:29.368768
12101,-0.3548,0.8916,0.2621,1.435,-2.450,-2.310,420,385,382,393,393,2025-05-27T22:42:29.368768
12102,-0.3528,0.8955,0.2591,1.225,-2.275,-2.310,408,349,370,416,394,2025-05-27T22:42:29.368768
12103,-0.3572,0.8926,0.2557,1.260,-2.170,-2.240,426,395,382,358,407,2025-05-27T22:42:29.369365
12104,-0.3553,0.8940,0.2533,1.400,-1.995,-2.135,425,336,385,372,350,2025-05-27T22:42:29.369585
12105,-0.3548,0.8969,0.2513,1.435,-1.505,-1.960,346,340,380,380,392,2025-05-27T22:42:29.369585
12106,-0.3518,0.8999,0.2528,1.085,-0.630,-1.890,355,402,383,410,410,2025-05-27T22:42:29.769203
12107,-0.3533,0.8999,0.2538,0.770,0.280,-1.925,395,411,384,413,396,2025-05-27T22:42:29.769203
12108,-0.3601,0.9033,0.2572,0.525,0.525,-1.820,401,422,388,353,391,2025-05-27T22:42:29.769203
12109,-0.3655,0.9033,0.2572,0.245,-0.385,-1.820,406,431,389,372,394,2025-05-27T22:42:29.769203
12110,-0.3680,0.9048,0.2582,0.035,-1.400,-1.750,421,418,360,392,399,2025-05-27T22:42:29.769203
12111,-0.3684,0.9043,0.2596,-0.350,-1.995,-1.295,418,424,378,420,388,2025-05-27T22:42:29.769203
12112,-0.3684,0.9067,0.2577,-0.595,-2.380,-1.120,422,419,381,398,393,2025-05-27T22:42:29.769203
12113,-0.3665,0.9067,0.2552,-0.735,-2.135,-0.665,424,371,372,413,385,2025-05-27T22:42:29.769203
12114,-0.3689,0.9077,0.2596,-0.910,-1.540,0.000,406,422,372,408,361,2025-05-27T22:42:29.769203
12115,-0.3704,0.9057,0.2591,-0.770,-1.120,0.595,411,399,375,400,338,2025-05-27T22:42:29.769203
12116,-0.3728,0.9057,0.2645,-0.945,-0.805,1.085,402,416,352,395,361,2025-05-27T22:42:29.769203
12117,-0.3728,0.9062,0.2694,-1.505,-0.525,1.540,342,384,297,387,377,2025-05-27T22:42:29.769203
12118,-0.3719,0.9038,0.2645,-1.750,-1.050,2.135,372,348,350,358,401,2025-05-27T22:42:29.769203
12119,-0.3689,0.8979,0.2650,-1.715,-1.680,2.450,399,395,363,383,408,2025-05-27T22:42:29.769203
12120,-0.3606,0.8960,0.2650,-1.610,-1.960,2.240,410,404,362,407,391,2025-05-27T22:42:29.769203
12121,-0.3626,0.8945,0.2664,-1.365,-1.995,1.995,385,339,374,369,380,2025-05-27T22:42:29.769203
12122,-0.3616,0.8906,0.2708,-1.645,-2.310,2.065,417,376,378,404,407,2025-05-27T22:42:29.769203
12123,-0.3645,0.8818,0.2660,-1.365,-2.975,1.995,419,420,390,352,399,2025-05-27T22:42:29.769203
12124,-0.3650,0.8730,0.2650,-0.875,-3.395,1.715,416,431,375,390,411,2025-05-27T22:42:29.769203
12125,-0.3601,0.8750,0.2708,-0.420,-3.220,1.295,407,425,341,402,416,2025-05-27T22:42:29.769203
12126,-0.3592,0.9980,0.2674,-0.280,-2.415,1.155,352,350,374,396,405,2025-05-27T22:42:29.769203
12127,-0.3606,0.8725,0.2640,-0.315,-1.750,0.945,376,365,375,401,405,2025-05-27T22:42:29.919242
12128,-0.3689,0.8760,0.2611,0.035,-1.960,0.665,391,401,373,399,389,2025-05-27T22:42:29.919242
12129,-0.3684,0.8799,0.2616,0.280,-2.520,0.630,395,423,377,420,372,2025-05-27T22:42:29.919242
12130,-0.3645,0.8833,0.2611,0.350,-2.975,0.630,427,347,381,399,399,2025-05-27T22:42:29.919242
12131,-0.3645,0.8847,0.2586,0.245,-2.870,0.490,421,408,390,411,406,2025-05-27T22:42:29.919242
12132,-0.3670,0.8833,0.2601,0.245,-2.590,0.280,413,425,388,374,419,2025-05-27T22:42:29.919242
12133,-0.3665,0.8886,0.2606,0.140,-2.450,0.210,422,405,393,380,403,2025-05-27T22:42:29.934427
12134,-0.3684,0.8891,0.2625,-0.210,-2.205,0.280,396,388,400,407,409,2025-05-27T22:42:29.934427
12135,-0.3645,0.8872,0.2616,-0.595,-2.170,0.315,387,413,386,354,396,2025-05-27T22:42:29.934427
12136,-0.3684,0.8852,0.2616,-0.700,-2.450,0.350,416,424,367,372,367,2025-05-27T22:42:29.934665
12137,-0.3709,0.8847,0.2684,-0.665,-3.185,0.595,412,430,366,405,394,2025-05-27T22:42:29.934824
12138,-0.3626,0.8857,0.2689,-0.875,-3.535,0.840,414,412,345,414,396,2025-05-27T22:42:29.934824
12139,-0.3572,0.8862,0.2640,-0.875,-3.185,0.770,421,427,365,392,399,2025-05-27T22:42:29.934824
12140,-0.3562,0.8872,0.2650,-0.595,-2.625,0.490,414,374,368,367,381,2025-05-27T22:42:29.934824
12141,-0.3548,0.8901,0.2660,-0.560,-2.240,0.280,421,422,383,380,404,2025-05-27T22:42:29.934824
12142,-0.3631,0.8857,0.2660,-0.560,-2.450,0.070,380,386,337,390,356,2025-05-27T22:42:30.203584
12143,-0.3660,0.8852,0.2630,-0.315,-3.185,-0.105,418,414,370,387,384,2025-05-27T22:42:30.203584
12144,-0.3640,0.8862,0.2621,0.035,-3.745,-0.035,425,341,377,388,361,2025-05-27T22:42:30.203584
12145,-0.3631,0.8838,0.2625,0.175,-3.815,0.175,410,342,374,416,382,2025-05-27T22:42:30.203584
12146,-0.3626,0.8857,0.2664,0.175,-3.185,0.210,406,403,383,422,347,2025-05-27T22:42:30.203584
12147,-0.3606,0.8877,0.2669,-0.070,-2.520,0.315,402,425,368,353,363,2025-05-27T22:42:30.203584
12148,-0.3670,0.8843,0.2635,-0.420,-2.555,0.245,407,427,376,395,374,2025-05-27T22:42:30.203584
12149,-0.3738,0.8852,0.2625,-0.245,-3.395,0.490,418,384,370,366,395,2025-05-27T22:42:30.203584
12150,-0.3680,0.8891,0.2664,-0.315,-4.060,0.805,412,409,380,381,385,2025-05-27T22:42:30.203584
12151,-0.3626,0.8877,0.2635,-0.595,-4.165,0.875,397,426,356,383,387,2025-05-27T22:42:30.203584
12152,-0.3577,0.8843,0.2586,-0.700,-3.885,0.980,407,344,328,390,398,2025-05-27T22:42:30.203584
12153,-0.3567,0.8867,0.2625,-0.595,-3.255,0.875,399,402,360,395,391,2025-05-27T22:42:30.203584
12154,-0.3567,0.8891,0.2674,-0.735,-2.555,0.805,426,391,374,417,397,2025-05-27T22:42:30.203584
12155,-0.3621,0.8862,0.2664,-0.910,-2.450,0.630,394,378,305,411,349,2025-05-27T22:42:30.203584
12156,-0.3660,0.8843,0.2664,-0.770,-2.905,0.455,334,381,345,398,336,2025-05-27T22:42:30.203584
12157,-0.3645,0.8847,0.2699,-0.560,-3.710,0.280,387,396,292,413,361,2025-05-27T22:42:30.203584
12158,-0.3616,0.8847,0.2728,-0.455,-4.305,0.245,395,396,269,355,385,2025-05-27T22:42:30.203584
12159,-0.3562,0.8828,0.2689,-0.245,-4.200,0.350,417,396,289,399,389,2025-05-27T22:42:30.203584
12160,-0.3533,0.8818,0.2708,0.035,-3.605,0.245,406,410,343,407,411,2025-05-27T22:42:30.203584
12161,-0.3523,0.8847,0.2718,0.210,-2.660,0.245,424,351,368,372,413,2025-05-27T22:42:30.203584
12162,-0.3528,0.8833,0.2699,0.490,-2.310,0.105,430,376,380,405,390,2025-05-27T22:42:30.203584
12163,-0.3577,0.8838,0.2713,0.945,-2.345,0.070,434,399,378,392,403,2025-05-27T22:42:30.251488
12164,-0.3611,0.8852,0.2704,1.085,-2.695,-0.035,426,400,352,367,349,2025-05-27T22:42:30.251488
12165,-0.3606,0.8896,0.2674,0.980,-3.045,0.035,415,396,372,351,383,2025-05-27T22:42:30.251488
12166,-0.3597,0.8867,0.2621,1.120,-3.150,-0.140,400,420,380,336,401,2025-05-27T22:42:30.251488
12167,-0.3577,0.8872,0.2586,1.190,-3.045,-0.315,398,409,381,368,369,2025-05-27T22:42:30.251488
12168,-0.3567,0.8911,0.2582,1.050,-2.310,-0.140,391,401,380,346,335,2025-05-27T22:42:30.251488
12169,-0.3572,0.8940,0.2552,0.805,-1.435,-0.175,394,360,388,397,371,2025-05-27T22:42:30.251488
12170,-0.3528,0.8896,0.2596,0.385,-0.385,-0.140,412,402,396,391,378,2025-05-27T22:42:30.251488
12171,-0.3592,0.8896,0.2567,-0.035,1.050,-0.140,408,353,387,407,343,2025-05-27T22:42:30.251488
12172,-0.3601,0.8852,0.2567,-0.035,1.750,-0.175,337,400,381,406,373,2025-05-27T22:42:30.251488
12173,-0.3719,0.8867,0.2674,0.420,0.420,0.035,378,348,377,403,381,2025-05-27T22:42:30.251488
12174,-0.3592,0.8891,0.2679,0.455,-0.105,0.035,422,338,385,393,388,2025-05-27T22:42:30.251488
12175,-0.3470,0.8857,0.2625,-0.140,1.540,-0.245,432,369,374,404,413,2025-05-27T22:42:30.251488
12176,-0.3509,0.8833,0.2655,0.210,3.150,-0.140,344,393,371,385,407,2025-05-27T22:42:30.251488
12177,-0.3606,0.8838,0.2635,0.245,2.625,-0.210,330,351,337,401,405,2025-05-27T22:42:30.251488
12178,-0.3460,0.8833,0.2621,0.315,2.415,-0.455,323,411,350,420,407,2025-05-27T22:42:30.251488
12179,-0.3640,0.8862,0.2596,0.630,3.255,-0.455,404,439,371,410,414,2025-05-27T22:42:30.251488
12180,-0.3704,0.8867,0.2645,1.015,2.345,-0.665,410,421,334,399,406,2025-05-27T22:42:30.251488
12181,-0.3826,0.8901,0.2694,0.875,-0.210,-0.945,397,426,353,392,412,2025-05-27T22:42:30.353095
12182,-0.3806,0.8911,0.2645,0.665,-1.785,-0.770,373,402,323,413,397,2025-05-27T22:42:30.353255
12183,-0.3777,0.8906,0.2630,0.560,-3.465,-0.560,386,424,359,410,356,2025-05-27T22:42:30.353255
12184,-0.3689,0.8911,0.2591,0.385,-4.305,-0.280,389,435,332,353,365,2025-05-27T22:42:30.353255
12185,-0.3665,0.8916,0.2562,-0.105,-3.710,-0.035,408,427,351,332,393,2025-05-27T22:42:30.353255
12186,-0.3660,0.8901,0.2513,0.035,-2.905,0.245,394,410,331,378,393,2025-05-27T22:42:30.353255
12187,-0.3655,0.8886,0.2538,0.455,-2.450,0.630,408,365,354,409,404,2025-05-27T22:42:30.353255
12188,-0.3665,0.8916,0.2542,0.525,-1.820,0.875,399,407,377,403,394,2025-05-27T22:42:30.353255
12189,-0.3704,0.8921,0.2552,0.420,-1.750,1.120,361,416,378,396,400,2025-05-27T22:42:30.454429
12190,-0.3738,0.8901,0.2572,0.245,-1.995,1.120,385,407,378,401,385,2025-05-27T22:42:30.454429
12191,-0.3748,0.8911,0.2567,0.175,-2.625,1.190,410,427,337,411,399,2025-05-27T22:42:30.454429
12192,-0.3719,0.8882,0.2572,0.420,-3.220,1.225,397,405,364,314,399,2025-05-27T22:42:30.454429
12193,-0.3675,0.8882,0.2542,0.455,-3.360,1.190,385,419,373,358,413,2025-05-27T22:42:30.454429
12194,-0.3611,0.8886,0.2552,0.350,-2.975,0.980,389,432,384,336,409,2025-05-27T22:42:30.454429
12195,-0.3626,0.8833,0.2562,0.175,-2.345,1.050,400,440,392,393,417,2025-05-27T22:42:30.454429
12196,-0.3597,0.8828,0.2538,0.315,-2.310,1.050,411,421,385,404,360,2025-05-27T22:42:30.454429
12197,-0.3567,0.8823,0.2557,0.385,-2.205,0.840,416,307,375,387,385,2025-05-27T22:42:30.585457
12198,-0.3509,0.8843,0.2596,0.280,-1.855,0.560,396,405,374,404,357,2025-05-27T22:42:30.585457
12199,-0.3548,0.8838,0.2586,0.175,-1.715,0.105,401,427,366,408,360,2025-05-27T22:42:30.585457
12200,-0.3567,0.8838,0.2611,0.210,-2.135,-0.420,428,432,372,405,386,2025-05-27T22:42:30.585457
12201,-0.3577,0.8862,0.2625,0.035,-2.765,-0.525,404,416,387,385,380,2025-05-27T22:42:30.585457
12202,-0.3587,0.8857,0.2577,0.000,-3.185,-0.875,377,395,387,388,391,2025-05-27T22:42:30.585457
12203,-0.3562,0.8857,0.2508,0.350,-3.360,-1.190,418,433,390,416,358,2025-05-27T22:42:30.585457
12204,-0.3558,0.8872,0.2523,0.560,-2.730,-1.470,413,401,346,413,373,2025-05-27T22:42:30.585457
12205,-0.3592,0.8896,0.2542,0.385,-1.960,-1.610,415,417,368,377,395,2025-05-27T22:42:30.585457
12206,-0.3621,0.8911,0.2513,0.210,-1.330,-1.505,428,396,368,418,406,2025-05-27T22:42:30.585457
12207,-0.3689,0.8916,0.2552,0.105,-1.365,-1.295,419,409,380,394,411,2025-05-27T22:42:30.585457
12208,-0.3719,0.8935,0.2552,-0.035,-1.610,-1.050,421,399,370,392,408,2025-05-27T22:42:30.585457
12209,-0.3709,0.8945,0.2523,-0.210,-1.820,-0.805,420,427,380,404,360,2025-05-27T22:42:30.669033
12210,-0.3733,0.8974,0.2552,-0.455,-1.855,-0.770,429,428,380,392,399,2025-05-27T22:42:30.669033
12211,-0.3680,0.8969,0.2523,-0.665,-1.715,-0.595,424,440,343,406,404,2025-05-27T22:42:30.669033
12212,-0.3675,0.8960,0.2552,-0.875,-1.785,-0.385,423,347,357,412,396,2025-05-27T22:42:30.669033
12213,-0.3680,0.8921,0.2562,-0.770,-1.820,-0.175,410,415,369,399,395,2025-05-27T22:42:30.669033
12214,-0.3723,0.8901,0.2596,-0.840,-1.890,-0.245,420,427,377,414,403,2025-05-27T22:42:30.669033
12215,-0.3709,0.8901,0.2596,-0.665,-2.100,-0.280,406,418,383,403,389,2025-05-27T22:42:30.669033
12216,-0.3723,0.8896,0.2582,-0.455,-2.310,-0.105,387,394,352,395,401,2025-05-27T22:42:30.759008
12217,-0.3719,0.8901,0.2596,-0.420,-2.065,0.070,424,423,371,391,394,2025-05-27T22:42:30.759008
12218,-0.3670,0.8921,0.2630,-0.455,-1.715,0.315,417,404,352,355,398,2025-05-27T22:42:30.759008
12219,-0.3694,0.8896,0.2625,-0.735,-1.715,0.525,407,405,351,397,407,2025-05-27T22:42:30.759008
12220,-0.3728,0.8896,0.2601,-0.805,-2.100,0.420,415,413,363,387,401,2025-05-27T22:42:30.759008
12221,-0.3704,0.8901,0.2625,-0.595,-2.730,0.490,421,427,375,399,384,2025-05-27T22:42:30.759008
12222,-0.3709,0.8891,0.2625,-0.490,-3.010,0.210,401,426,375,390,390,2025-05-27T22:42:30.759008
12223,-0.3675,0.8867,0.2606,-0.595,-3.220,0.175,427,405,386,346,363,2025-05-27T22:42:31.000477
12224,-0.3645,0.8843,0.2625,-0.420,-3.010,0.280,397,396,356,394,398,2025-05-27T22:42:31.000477
12225,-0.3694,0.8833,0.2660,-0.560,-2.415,0.385,432,426,380,418,408,2025-05-27T22:42:31.000477
12226,-0.3709,0.8818,0.2625,-0.735,-2.485,0.280,411,432,395,415,400,2025-05-27T22:42:31.000477
12227,-0.3733,0.8843,0.2611,-0.560,-2.940,0.315,374,386,399,408,367,2025-05-27T22:42:31.000477
12228,-0.3728,0.8862,0.2621,-0.280,-3.150,0.175,388,375,391,399,341,2025-05-27T22:42:31.000477
12229,-0.3699,0.8818,0.2596,-0.105,-3.325,0.210,391,412,361,345,359,2025-05-27T22:42:31.000477
12230,-0.3689,0.8823,0.2621,0.175,-3.360,0.210,397,401,363,386,397,2025-05-27T22:42:31.000477
12231,-0.3723,0.8833,0.2630,0.035,-3.115,0.210,416,413,376,402,409,2025-05-27T22:42:31.000477
12232,-0.3728,0.8808,0.2611,0.035,-3.255,0.175,424,417,383,411,350,2025-05-27T22:42:31.000477
12233,-0.3709,0.8804,0.2567,0.070,-3.500,-0.035,426,414,375,348,337,2025-05-27T22:42:31.000477
12234,-0.3680,0.8784,0.2582,0.245,-3.885,-0.070,406,405,386,406,332,2025-05-27T22:42:31.000477
12235,-0.3597,0.8774,0.2567,0.350,-3.850,-0.210,394,414,389,418,381,2025-05-27T22:42:31.000477
12236,-0.3558,0.8818,0.2586,0.210,-2.940,-0.490,413,412,350,413,396,2025-05-27T22:42:31.000477
12237,-0.3567,0.8828,0.2577,0.210,-2.415,-0.840,429,340,359,388,407,2025-05-27T22:42:31.000477
12238,-0.3577,0.8843,0.2582,0.070,-2.380,-1.085,398,407,366,350,394,2025-05-27T22:42:31.000477
12239,-0.3592,0.8843,0.2552,0.245,-2.660,-1.470,422,404,329,397,405,2025-05-27T22:42:31.000477
12240,-0.3582,0.8867,0.2567,0.420,-2.975,-1.785,417,395,318,398,390,2025-05-27T22:42:31.000477
12241,-0.3597,0.8896,0.2625,0.140,-3.290,-1.925,344,396,365,414,402,2025-05-27T22:42:31.000477
12242,-0.3655,0.8882,0.2630,0.070,-3.465,-2.205,400,347,366,405,413,2025-05-27T22:42:31.000477
12243,-0.3655,0.8823,0.2606,0.070,-3.710,-2.310,391,404,334,397,351,2025-05-27T22:42:31.169919
12244,-0.3645,0.8804,0.2611,0.210,-3.955,-2.205,355,422,361,398,387,2025-05-27T22:42:31.169919
12245,-0.3645,0.8813,0.2621,0.105,-3.465,-2.030,409,415,375,397,383,2025-05-27T22:42:31.169919
12246,-0.3660,0.8838,0.2601,0.140,-2.730,-1.680,415,422,351,396,361,2025-05-27T22:42:31.169919
12247,-0.3655,0.8872,0.2577,0.070,-2.625,-1.295,405,394,361,383,372,2025-05-27T22:42:31.169919
12248,-0.3689,0.8891,0.2611,0.280,-2.450,-1.120,398,429,336,390,387,2025-05-27T22:42:31.170983
12249,-0.3704,0.8882,0.2601,0.245,-2.555,-0.875,401,422,322,395,400,2025-05-27T22:42:31.170983
12250,-0.3743,0.8833,0.2621,0.315,-2.870,-1.015,407,419,355,392,394,2025-05-27T22:42:31.170983
12251,-0.3748,0.8833,0.2611,0.490,-3.150,-1.400,343,419,326,409,400,2025-05-27T22:42:31.171454
12252,-0.3748,0.8794,0.2630,0.665,-3.185,-1.540,411,431,361,390,408,2025-05-27T22:42:31.171454
12253,-0.3728,0.8774,0.2621,0.735,-3.220,-1.435,388,431,362,401,356,2025-05-27T22:42:31.171454
12254,-0.3684,0.8745,0.2625,0.665,-3.150,-1.295,341,423,361,339,384,2025-05-27T22:42:31.171454
12255,-0.3645,0.8691,0.2621,0.665,-2.835,-1.050,405,425,370,399,396,2025-05-27T22:42:31.171454
12256,-0.3592,0.8706,0.2650,0.560,-2.660,-0.945,396,440,333,384,350,2025-05-27T22:42:31.171454
12257,-0.3577,0.8711,0.2625,0.560,-2.275,-1.225,420,409,356,407,373,2025-05-27T22:42:31.172453
12258,-0.3597,0.8735,0.2596,0.700,-2.170,-1.820,426,410,376,405,383,2025-05-27T22:42:31.320311
12259,-0.3601,0.8735,0.2586,0.980,-2.975,-1.820,396,423,338,409,395,2025-05-27T22:42:31.320311
12260,-0.3636,0.8730,0.2567,1.295,-3.920,-1.925,400,427,355,396,407,2025-05-27T22:42:31.320311
12261,-0.3592,0.8760,0.2567,1.890,-4.025,-2.205,413,412,369,400,378,2025-05-27T22:42:31.320311
12262,-0.3592,0.8789,0.2601,2.485,-3.640,-2.240,423,392,371,392,350,2025-05-27T22:42:31.320311
12263,-0.3592,0.8804,0.2625,3.010,-2.940,-2.100,383,409,382,411,388,2025-05-27T22:42:31.320311
12264,-0.3640,0.8843,0.2640,3.605,-2.310,-1.820,399,402,360,395,395,2025-05-27T22:42:31.320311
12265,-0.3748,0.8877,0.2679,4.165,-2.310,-1.190,410,406,374,347,382,2025-05-27T22:42:31.320311
12266,-0.3831,0.8867,0.2684,4.445,-2.940,-0.385,395,423,333,373,400,2025-05-27T22:42:31.320311
12267,-0.3894,0.8886,0.2669,4.515,-3.710,0.000,423,404,353,392,406,2025-05-27T22:42:31.487350
12268,-0.3904,0.8867,0.2669,4.445,-4.165,0.455,427,420,341,390,414,2025-05-27T22:42:31.487350
12269,-0.3938,0.8833,0.2650,4.375,-4.900,0.875,437,396,359,393,407,2025-05-27T22:42:31.487350
12270,-0.3958,0.8784,0.2689,3.990,-5.460,1.050,414,298,378,389,388,2025-05-27T22:42:31.487350
12271,-0.3953,0.8711,0.2674,3.500,-6.230,1.015,418,402,382,395,386,2025-05-27T22:42:31.487350
12272,-0.3924,0.8613,0.2733,3.010,-7.455,0.455,427,407,379,384,396,2025-05-27T22:42:31.487350
12273,-0.3797,0.8501,0.2723,2.380,-8.855,-0.070,406,420,350,400,352,2025-05-27T22:42:31.487350
12274,-0.3655,0.8389,0.2752,2.100,-10.115,-0.980,348,305,366,404,395,2025-05-27T22:42:31.487350
12275,-0.3406,0.8296,0.2806,1.435,-10.850,-2.275,411,403,366,421,405,2025-05-27T22:42:31.487350
12276,-0.3211,0.8267,0.2923,0.210,-11.445,-3.605,399,393,363,349,400,2025-05-27T22:42:31.487350
12277,-0.3021,0.8169,0.3011,-1.015,-12.845,-6.300,403,422,335,379,389,2025-05-27T22:42:31.487350
12278,-0.2747,0.8081,0.2996,-1.120,-15.960,-8.645,414,442,367,393,391,2025-05-27T22:42:31.487350
12279,-0.2679,0.7950,0.3323,-3.045,-21.070,-9.625,389,433,374,398,390,2025-05-27T22:42:31.488353
12280,-0.2733,0.8130,0.3538,-5.075,-24.920,-10.080,404,405,377,410,345,2025-05-27T22:42:31.488353
12281,-0.2494,0.8345,0.3816,-10.150,-32.445,-10.745,417,428,343,389,388,2025-05-27T22:42:31.488353
12282,-0.2557,0.8760,0.4099,-15.470,-36.715,-12.075,401,426,354,362,346,2025-05-27T22:42:31.488353
12283,-0.2513,0.9126,0.3880,-24.885,-42.315,-13.440,403,403,354,399,392,2025-05-27T22:42:31.488730
12284,-0.2674,1.0380,0.4075,-36.645,-52.255,-16.030,425,401,370,414,407,2025-05-27T22:42:31.568947
12285,-0.2450,1.1839,0.3694,-48.860,-58.625,-14.630,424,416,334,405,383,2025-05-27T22:42:31.568947
12286,-0.2338,1.3591,0.3597,-66.675,-60.305,-12.950,424,411,360,375,388,2025-05-27T22:42:31.568947
12287,-0.2313,1.5299,0.3645,-86.450,-60.095,-14.315,432,418,373,389,394,2025-05-27T22:42:31.568947
12288,-0.2220,1.7856,0.3699,-110.390,-58.695,-15.680,436,424,350,414,405,2025-05-27T22:42:31.568947
12289,-0.2845,1.9242,0.4177,-137.305,-61.215,-20.020,423,417,361,350,396,2025-05-27T22:42:31.568947
12290,-0.3279,2.1038,0.4177,-167.090,-68.915,-22.855,406,399,374,393,403,2025-05-27T22:42:31.568947
12291,-0.3772,2.2526,0.4192,-195.720,-80.675,-20.580,417,409,379,341,405,2025-05-27T22:42:31.568947
12292,-0.4363,2.3600,0.4626,-221.795,-99.995,-12.250,405,395,381,328,412,2025-05-27T22:42:31.874174
12293,-0.4197,2.4439,0.4529,-240.030,-122.115,1.435,413,416,371,384,424,2025-05-27T22:42:31.874174
12294,-0.3953,2.5093,0.4246,-249.970,-137.725,22.820,382,403,366,406,423,2025-05-27T22:42:31.874174
12295,-0.3304,2.5430,0.3489,-255.430,-141.995,49.245,406,430,344,406,377,2025-05-27T22:42:31.874174
12296,-0.2684,2.4981,0.2059,-254.380,-134.715,78.260,397,410,373,404,353,2025-05-27T22:42:31.874174
12297,-0.2108,2.4200,0.0093,-244.685,-108.815,101.535,337,398,337,399,371,2025-05-27T22:42:31.874174
12298,-0.2069,2.3063,-0.2201,-228.305,-63.525,129.675,381,413,351,410,401,2025-05-27T22:42:31.874174
12299,-0.2669,2.1648,-0.4358,-210.805,-6.230,155.820,407,419,368,402,416,2025-05-27T22:42:31.874174
12300,-0.4451,1.9715,-0.7193,-195.965,49.665,178.780,356,352,367,400,393,2025-05-27T22:42:31.874174
12301,-0.7286,1.7641,-0.9921,-179.515,87.360,196.140,407,390,372,394,411,2025-05-27T22:42:31.874174
12302,-1.0141,1.5557,-1.2098,-187.110,96.285,206.570,394,376,385,402,359,2025-05-27T22:42:31.874174
12303,-1.2371,1.3152,-1.3879,-196.840,84.070,210.175,395,383,378,350,375,2025-05-27T22:42:31.874174
12304,-1.3903,0.9931,-1.4913,-212.030,52.885,211.995,413,416,352,356,393,2025-05-27T22:42:31.874174
12305,-1.5733,0.7320,-1.5050,-232.085,16.205,210.840,408,425,370,382,401,2025-05-27T22:42:31.874174
12306,-1.6636,0.3811,-1.4269,-253.645,-14.875,208.250,410,429,363,403,384,2025-05-27T22:42:31.874174
12307,-1.6294,-0.0122,-1.3327,-272.720,-27.335,207.200,419,418,370,409,404,2025-05-27T22:42:31.874174
12308,-1.5806,-0.4089,-1.1575,-285.005,-13.405,204.155,371,397,371,349,400,2025-05-27T22:42:31.874174
12309,-1.5782,-0.8486,-0.8452,-288.470,11.410,195.160,389,404,370,348,350,2025-05-27T22:42:31.874174
12310,-1.6094,-1.3215,-0.4602,-286.895,25.620,181.020,412,433,370,369,378,2025-05-27T22:42:31.874174
12311,-1.6206,-1.8851,-0.0239,-268.170,20.055,163.450,410,347,381,396,396,2025-05-27T22:42:31.897160
12312,-1.4791,-2.3600,0.4094,-239.190,-9.485,145.600,422,424,346,395,385,2025-05-27T22:42:31.897160
12313,-1.1361,-2.6982,0.8852,-208.040,-42.000,129.640,392,427,363,394,389,2025-05-27T22:42:31.897160
12314,-0.8623,-3.0476,1.1722,-171.360,-58.730,117.740,399,434,378,409,399,2025-05-27T22:42:31.897160
12315,-0.4787,-3.2350,1.5094,-124.845,-55.545,103.880,415,417,380,310,391,2025-05-27T22:42:31.897160
12316,-0.1659,-3.3696,1.7958,-75.075,-36.925,87.185,424,366,373,356,355,2025-05-27T22:42:31.897160
12317,0.0815,-3.3794,1.9945,-24.780,-9.695,69.020,403,419,377,390,379,2025-05-27T22:42:31.897160
12318,0.2489,-3.2023,2.0857,11.865,18.830,46.620,392,302,344,368,390,2025-05-27T22:42:32.139997
12319,0.3401,-2.8894,2.1511,49.735,39.900,22.225,411,381,373,411,392,2025-05-27T22:42:32.139997
12320,0.3802,-2.5347,2.0594,81.095,58.345,-6.160,374,346,371,393,401,2025-05-27T22:42:32.139997
12321,0.3684,-2.1750,1.9017,111.615,69.895,-31.255,414,404,304,387,392,2025-05-27T22:42:32.139997
12322,0.1562,-1.9037,1.7231,141.155,72.030,-62.720,357,383,333,387,391,2025-05-27T22:42:32.139997
12323,-0.0673,-1.5387,1.5826,166.320,57.365,-92.295,397,381,360,371,388,2025-05-27T22:42:32.139997
12324,-0.2972,-1.1995,1.3830,182.420,36.050,-117.950,380,401,365,388,406,2025-05-27T22:42:32.139997
12325,-0.4870,-0.8569,1.1746,196.595,18.445,-139.860,409,422,381,414,414,2025-05-27T22:42:32.139997
12326,-0.6486,-0.4973,0.9565,205.695,8.050,-153.160,410,305,371,414,354,2025-05-27T22:42:32.139997
12327,-0.7666,-0.1527,0.7852,208.915,-0.105,-156.135,396,386,383,385,385,2025-05-27T22:42:32.139997
12328,-0.8818,0.2030,0.6266,205.135,-3.640,-153.335,408,369,381,406,389,2025-05-27T22:42:32.139997
12329,-0.9828,0.2811,0.4851,204.435,-2.135,-145.075,389,337,376,415,405,2025-05-27T22:42:32.139997
12330,-0.9862,0.3967,0.4002,208.740,-0.385,-131.915,392,401,373,415,411,2025-05-27T22:42:32.139997
12331,-0.9701,0.5388,0.3323,212.975,5.705,-119.490,408,393,382,404,411,2025-05-27T22:42:32.139997
12332,-0.8779,0.7266,0.2762,217.175,12.110,-104.160,398,424,379,401,406,2025-05-27T22:42:32.139997
12333,-0.8096,0.7471,0.2430,221.690,18.410,-87.640,377,401,384,352,374,2025-05-27T22:42:32.139997
12334,-0.7105,0.8067,0.2503,223.860,22.890,-76.335,391,415,385,401,391,2025-05-27T22:42:32.302671
12335,-0.6295,0.7984,0.2757,225.365,23.450,-58.485,396,383,371,410,386,2025-05-27T22:42:32.302671
12336,-0.5876,0.7637,0.2821,226.905,17.675,-51.345,342,421,371,399,386,2025-05-27T22:42:32.302671
12337,-0.5568,0.8028,0.2718,230.335,8.050,-43.995,290,374,370,391,386,2025-05-27T22:42:32.302671
12338,-0.5031,0.8306,0.2308,234.745,-1.785,-38.325,358,378,346,408,360,2025-05-27T22:42:32.302671
12339,-0.4368,0.8979,0.2411,233.380,-9.135,-33.110,361,404,366,393,369,2025-05-27T22:42:32.302671
12340,-0.3704,0.9662,0.2855,227.920,-13.125,-27.685,399,427,376,402,343,2025-05-27T22:42:32.303673
12341,-0.3382,0.9955,0.3235,215.810,-16.975,-22.750,421,419,366,391,380,2025-05-27T22:42:32.303673
12342,-0.3196,0.9916,0.2899,201.635,-23.835,-20.405,416,440,380,399,392,2025-05-27T22:42:32.303673
12343,-0.3265,1.0043,0.2494,189.980,-34.440,-19.950,400,383,374,374,392,2025-05-27T22:42:32.303673
12344,-0.3250,1.0287,0.2489,180.320,-47.635,-19.845,353,393,368,384,352,2025-05-27T22:42:32.303673
12345,-0.2704,1.0795,0.2430,171.465,-59.255,-17.745,331,422,382,411,388,2025-05-27T22:42:32.303673
12346,-0.1967,1.1107,0.2196,164.465,-63.455,-15.330,395,422,380,420,398,2025-05-27T22:42:32.303673
12347,-0.1366,1.1448,0.2064,156.660,-59.605,-14.630,401,401,379,352,343,2025-05-27T22:42:32.303673
12348,-0.0410,1.1707,0.2147,145.845,-51.800,-13.370,420,420,351,373,371,2025-05-27T22:42:32.303673
12349,-0.0166,1.1766,0.2074,132.685,-37.940,-12.250,406,428,374,387,379,2025-05-27T22:42:32.303673
12350,-0.0371,1.1888,0.1801,119.350,-24.395,-11.515,386,362,373,386,384,2025-05-27T22:42:32.303673
12351,-0.0630,1.1912,0.1728,108.255,-17.605,-10.605,391,381,383,393,339,2025-05-27T22:42:32.554083
12352,-0.1225,1.1956,0.1776,98.350,-19.005,-8.120,387,395,340,366,385,2025-05-27T22:42:32.554083
12353,-0.1527,1.1893,0.1840,88.305,-25.760,-4.340,415,346,361,379,391,2025-05-27T22:42:32.554083
12354,-0.1791,1.1590,0.1952,79.870,-35.105,-2.905,412,414,339,394,406,2025-05-27T22:42:32.554083
12355,-0.1728,1.1346,0.2035,69.160,-43.190,-2.240,391,427,362,418,315,2025-05-27T22:42:32.554083
12356,-0.1571,1.1117,0.1859,59.185,-47.425,-1.470,414,403,368,409,377,2025-05-27T22:42:32.554083
12357,-0.1410,1.0790,0.1752,50.050,-47.915,-1.575,395,416,376,395,389,2025-05-27T22:42:32.554083
12358,-0.1010,1.0643,0.1542,42.805,-43.050,-1.505,401,400,377,410,390,2025-05-27T22:42:32.554083
12359,-0.0956,1.0272,0.1625,37.625,-34.370,-1.330,385,338,375,422,386,2025-05-27T22:42:32.554083
12360,-0.0952,1.0189,0.1288,34.020,-25.900,-1.085,422,413,336,425,379,2025-05-27T22:42:32.554083
12361,-0.1205,0.9745,0.1815,29.960,-18.935,-1.470,410,432,326,403,401,2025-05-27T22:42:32.554083
12362,-0.1293,0.9428,0.1874,26.950,-11.200,-1.575,406,429,347,393,403,2025-05-27T22:42:32.554083
12363,-0.1537,0.9311,0.1957,24.640,-7.455,-1.085,343,416,354,350,397,2025-05-27T22:42:32.554083
12364,-0.1859,0.9213,0.2035,22.750,-8.015,-0.875,395,426,369,335,406,2025-05-27T22:42:32.554083
12365,-0.2025,0.9199,0.2113,21.245,-11.585,-0.735,419,409,368,391,395,2025-05-27T22:42:32.554083
12366,-0.1864,0.9184,0.2118,19.600,-15.120,-0.735,397,393,371,391,391,2025-05-27T22:42:32.554083
12367,-0.1728,0.9135,0.2084,18.585,-19.040,-0.490,390,411,364,389,348,2025-05-27T22:42:32.554083
12368,-0.1547,0.9145,0.2162,16.905,-20.895,-1.225,396,429,377,403,387,2025-05-27T22:42:32.554083
12369,-0.1196,0.9209,0.2220,14.980,-20.580,-2.205,410,417,378,406,352,2025-05-27T22:42:32.554083
12370,-0.1069,0.9121,0.2176,14.560,-18.935,-3.360,396,427,364,413,369,2025-05-27T22:42:32.554083
12371,-0.0937,0.9257,0.2303,14.560,-16.765,-5.215,389,415,378,415,379,2025-05-27T22:42:32.554083
12372,-0.0859,0.9404,0.2435,14.000,-14.420,-6.720,415,413,384,417,392,2025-05-27T22:42:32.786708
12373,-0.0903,0.9555,0.2533,13.510,-11.795,-7.630,381,428,375,397,381,2025-05-27T22:42:32.786708
12374,-0.0844,0.9770,0.2650,12.810,-9.170,-17.815,411,395,377,347,400,2025-05-27T22:42:32.786708
12375,-0.0883,0.9867,0.2699,11.935,-6.650,-10.010,412,296,369,374,364,2025-05-27T22:42:32.786708
12376,-0.0966,1.0067,0.2845,11.095,-4.900,-10.920,403,388,368,339,368,2025-05-27T22:42:32.786708
12377,-0.1005,1.0258,0.2889,10.150,-4.340,-10.675,402,419,375,372,378,2025-05-27T22:42:32.786708
12378,-0.1171,1.0390,0.2938,9.485,-4.165,-9.450,422,306,372,392,380,2025-05-27T22:42:32.786708
12379,-0.1347,1.0565,0.2943,9.205,-4.515,-8.330,405,389,365,404,365,2025-05-27T22:42:32.786708
12380,-0.1332,1.0702,0.2918,8.435,-5.180,-6.930,397,415,376,390,379,2025-05-27T22:42:32.786708
12381,-0.1503,1.0707,0.2879,6.755,-4.690,-5.425,421,427,340,367,384,2025-05-27T22:42:32.786708
12382,-0.1635,1.0614,0.2811,5.530,-3.570,-3.920,303,402,369,386,405,2025-05-27T22:42:32.786708
12383,-0.1864,1.0560,0.2816,4.690,-3.325,-2.065,381,424,380,346,391,2025-05-27T22:42:32.786708
12384,-0.2059,1.0468,0.2767,2.695,-3.010,-0.350,406,432,380,353,385,2025-05-27T22:42:32.786708
12385,-0.2167,1.0321,0.2669,0.770,-2.835,1.015,417,411,384,389,394,2025-05-27T22:42:32.786708
12386,-0.2133,1.0141,0.2635,-0.315,-2.485,2.940,415,413,371,340,384,2025-05-27T22:42:32.786708
12387,-0.2196,0.9936,0.2582,-0.875,-1.085,4.620,383,397,358,331,401,2025-05-27T22:42:32.786708
12388,-0.2269,0.9736,0.2533,-1.505,-0.105,6.125,387,400,372,382,399,2025-05-27T22:42:32.786708
12389,-0.2308,0.9565,0.2528,-1.295,-0.245,6.860,337,396,343,379,392,2025-05-27T22:42:32.786708
12390,-0.2303,0.9428,0.2577,-1.225,-0.280,7.210,342,355,367,398,401,2025-05-27T22:42:32.786708
12391,-0.2230,0.9277,0.2577,-1.715,0.315,7.280,380,417,369,393,408,2025-05-27T22:42:32.786708
12392,-0.2201,0.9155,0.2635,-2.205,0.525,6.685,411,398,342,405,412,2025-05-27T22:42:33.041315
12393,-0.2142,0.9013,0.2611,-3.010,-0.560,5.915,416,392,354,407,392,2025-05-27T22:42:33.041315
12394,-0.2113,0.8818,0.2582,-2.275,-1.785,5.390,376,400,380,409,402,2025-05-27T22:42:33.041315
12395,-0.2030,0.8760,0.2601,-1.155,-2.765,4.620,403,348,370,403,398,2025-05-27T22:42:33.041315
12396,-0.1932,0.8833,0.2699,-1.190,-2.870,3.430,404,400,382,418,387,2025-05-27T22:42:33.041315
12397,-0.1835,0.8877,0.2704,-1.890,-1.715,2.660,402,419,375,346,408,2025-05-27T22:42:33.041315
12398,-0.1825,0.8877,0.2747,-1.925,-0.350,2.135,348,414,381,400,397,2025-05-27T22:42:33.041315
12399,-0.1893,0.8901,0.2865,-1.050,0.735,1.960,391,409,390,400,369,2025-05-27T22:42:33.041315
12400,-0.1947,0.8955,0.2923,-0.280,1.330,1.120,398,379,376,411,376,2025-05-27T22:42:33.041315
12401,-0.2050,0.9013,0.2967,0.980,1.435,0.665,423,389,373,403,381,2025-05-27T22:42:33.041315
12402,-0.2074,0.9160,0.3050,1.680,1.085,0.385,421,415,381,409,393,2025-05-27T22:42:33.041315
12403,-0.2064,0.9218,0.2991,1.750,1.155,0.455,422,434,392,413,394,2025-05-27T22:42:33.041315
12404,-0.2108,0.9287,0.3001,1.960,1.050,0.315,377,410,396,359,402,2025-05-27T22:42:33.041315
12405,-0.2059,0.9409,0.3035,1.435,0.840,0.210,415,397,393,379,411,2025-05-27T22:42:33.041315
12406,-0.2089,0.9492,0.3021,0.910,0.560,0.210,398,412,382,392,356,2025-05-27T22:42:33.041315
12407,-0.2035,0.9565,0.2957,0.560,0.350,0.665,403,424,377,397,377,2025-05-27T22:42:33.042312
12408,-0.2084,0.9667,0.2982,0.560,0.000,1.190,430,432,346,407,405,2025-05-27T22:42:33.042312
12409,-0.2098,0.9682,0.2933,0.595,-0.455,2.170,423,402,372,398,351,2025-05-27T22:42:33.042312
12410,-0.2196,0.9692,0.3001,0.875,-1.190,2.730,402,425,376,346,379,2025-05-27T22:42:33.042312
12411,-0.2201,0.9750,0.3099,0.805,-1.715,2.905,421,433,384,355,401,2025-05-27T22:42:33.042312
12412,-0.2220,0.9687,0.3070,-0.035,-1.855,3.605,340,421,370,390,355,2025-05-27T22:42:33.042574
12413,-0.2259,0.9648,0.3079,-0.595,-1.890,4.025,400,429,367,383,370,2025-05-27T22:42:33.138374
12414,-0.2250,0.9628,0.3065,-1.295,-2.590,4.305,394,430,366,399,377,2025-05-27T22:42:33.138374
12415,-0.2264,0.9506,0.2987,-1.855,-3.710,4.515,386,360,380,307,380,2025-05-27T22:42:33.138374
12416,-0.2186,0.9453,0.3006,-1.855,-4.865,4.760,349,389,384,389,385,2025-05-27T22:42:33.138374
12417,-0.2137,0.9360,0.2962,-1.925,-5.740,4.550,404,365,343,406,395,2025-05-27T22:42:33.138374
12418,-0.2020,0.9252,0.2933,-2.415,-5.635,5.040,416,410,366,421,399,2025-05-27T22:42:33.138374
12419,-0.2181,0.9199,0.2987,-3.115,-5.215,4.585,397,415,363,417,391,2025-05-27T22:42:33.138374
12420,-0.2206,0.9106,0.3050,-3.535,-6.615,3.640,393,423,374,419,407,2025-05-27T22:42:33.138374
12421,-0.2186,0.8999,0.3094,-3.815,-8.855,3.570,422,431,375,402,370,2025-05-27T22:42:33.138374
12422,-0.2167,0.8935,0.3123,-3.990,-10.710,2.870,412,383,366,401,394,2025-05-27T22:42:33.393327
12423,-0.1967,0.8882,0.3104,-4.235,-11.305,1.785,426,418,347,412,406,2025-05-27T22:42:33.393327
12424,-0.1850,0.8769,0.3089,-4.375,-11.025,1.120,434,436,367,409,402,2025-05-27T22:42:33.393327
12425,-0.1815,0.8696,0.3094,-4.025,-10.080,0.385,424,413,372,411,396,2025-05-27T22:42:33.393327
12426,-0.1864,0.8564,0.3177,-4.060,-9.520,-0.665,421,418,370,357,391,2025-05-27T22:42:33.393327
12427,-0.1937,0.8486,0.3255,-4.200,-9.975,-1.715,396,411,370,382,395,2025-05-27T22:42:33.393327
12428,-0.1947,0.8359,0.3206,-4.305,-11.200,-2.695,335,422,385,402,397,2025-05-27T22:42:33.393327
12429,-0.1967,0.8247,0.3255,-4.515,-13.055,-4.165,380,428,387,398,395,2025-05-27T22:42:33.393327
12430,-0.1874,0.8047,0.3240,-5.005,-15.365,-5.355,398,426,389,402,387,2025-05-27T22:42:33.393327
12431,-0.1791,0.7798,0.3240,-5.915,-17.255,-6.510,420,444,376,354,357,2025-05-27T22:42:33.393327
12432,-0.1649,0.7647,0.3348,-7.630,-18.410,-7.455,424,406,336,351,386,2025-05-27T22:42:33.393327
12433,-0.1557,0.7457,0.3274,-10.955,-19.390,-8.750,371,409,365,397,403,2025-05-27T22:42:33.393327
12434,-0.1464,0.7330,0.3089,-15.820,-20.055,-10.290,413,387,367,396,412,2025-05-27T22:42:33.393327
12435,-0.0966,0.7403,0.3006,-22.820,-17.990,-12.180,414,421,376,349,391,2025-05-27T22:42:33.393327
12436,-0.0669,0.7701,0.2894,-32.060,-12.600,-14.875,396,404,384,379,390,2025-05-27T22:42:33.393327
12437,-0.0498,0.8247,0.2957,-39.760,-7.420,-18.830,352,418,341,400,355,2025-05-27T22:42:33.393327
12438,-0.0488,0.9135,0.3255,-50.855,-5.845,-23.940,376,397,368,365,393,2025-05-27T22:42:33.393327
12439,-0.0576,1.0185,0.3601,-63.840,-6.685,-30.765,407,427,370,394,410,2025-05-27T22:42:33.393327
12440,-0.0752,1.1322,0.4241,-77.630,-12.390,-37.100,382,409,369,401,403,2025-05-27T22:42:33.393327
12441,-0.0961,1.2805,0.4817,-91.840,-24.500,-45.815,408,396,381,416,413,2025-05-27T22:42:33.393327
12442,-0.1049,1.4347,0.5353,-106.050,-41.055,-53.095,424,364,391,415,390,2025-05-27T22:42:34.018023
12443,-0.1020,1.6299,0.5758,-122.325,-59.920,-58.590,418,401,390,408,394,2025-05-27T22:42:34.018371
12444,-0.0503,1.8105,0.6183,-139.405,-75.110,-61.355,428,410,386,417,407,2025-05-27T22:42:34.018659
12445,-0.0288,2.0023,0.6510,-153.650,-83.195,-59.535,347,396,378,409,410,2025-05-27T22:42:34.018803
12446,0.0102,2.1828,0.6647,-170.590,-87.710,-53.900,388,401,368,414,397,2025-05-27T22:42:34.018803
12447,0.0200,2.3570,0.6139,-184.835,-94.080,-38.920,385,396,346,418,411,2025-05-27T22:42:34.018803
12448,0.0610,2.4927,0.5144,-196.770,-93.450,-24.990,404,425,358,422,390,2025-05-27T22:42:34.018803
12449,0.1166,2.6064,0.3455,-206.395,-81.200,-4.025,393,431,333,354,404,2025-05-27T22:42:34.019727
12450,0.1962,2.7709,0.1210,-209.405,-62.475,22.645,402,415,361,392,390,2025-05-27T22:42:34.019762
12451,0.2206,2.9036,-0.2269,-205.170,-30.940,58.135,399,349,377,386,361,2025-05-27T22:42:34.019762
12452,0.1161,2.9163,-0.5856,-197.505,7.735,99.295,414,416,344,361,375,2025-05-27T22:42:34.019762
12453,-0.0815,2.8626,-0.9287,-188.895,38.465,142.835,420,426,362,338,355,2025-05-27T22:42:34.019762
12454,-0.3260,2.6045,-1.1863,-184.975,62.615,189.945,426,415,375,370,392,2025-05-27T22:42:34.019762
12455,-0.6754,2.3239,-1.3601,-188.230,60.865,220.850,413,405,386,389,396,2025-05-27T22:42:34.019762
12456,-0.9350,2.0818,-1.4782,-199.115,49.665,243.880,408,372,388,411,386,2025-05-27T22:42:34.019762
12457,-1.2263,1.7441,-1.5035,-214.585,33.355,249.445,431,406,384,367,398,2025-05-27T22:42:34.019762
12458,-1.3932,1.4269,-1.4211,-232.680,10.045,243.635,411,407,379,394,367,2025-05-27T22:42:34.019762
12459,-1.5670,1.0887,-1.1912,-247.275,-19.215,232.365,387,404,381,410,397,2025-05-27T22:42:34.020751
12460,-1.7222,0.6573,-0.9360,-259.175,-58.310,211.120,409,413,378,417,406,2025-05-27T22:42:34.020751
12461,-1.5479,0.0493,-0.7120,-258.020,-87.255,184.625,380,370,390,421,347,2025-05-27T22:42:34.020751
12462,-1.3815,-0.6100,-0.4207,-248.220,-93.520,153.230,334,397,389,393,382,2025-05-27T22:42:34.020751
12463,-1.2029,-1.4533,0.0586,-237.755,-49.210,108.605,398,422,389,392,400,2025-05-27T22:42:34.020751
12464,-1.2000,-2.2267,0.5641,-235.515,-22.575,53.795,395,343,372,347,390,2025-05-27T22:42:34.020751
12465,-1.1409,-2.8611,0.9584,-223.160,-37.975,13.615,391,406,380,332,348,2025-05-27T22:42:34.020751
12466,-0.9701,-3.3472,1.1263,-191.450,-73.815,5.180,395,428,387,366,395,2025-05-27T22:42:34.020751
12467,-0.7130,-3.6668,1.3425,-143.885,-86.800,13.370,405,400,377,396,406,2025-05-27T22:42:34.020751
12468,-0.4499,-3.6161,1.6670,-104.160,-63.805,12.040,425,402,379,415,405,2025-05-27T22:42:34.020751
12469,-0.2420,-3.6517,1.8163,-66.745,-20.230,18.900,429,409,379,414,399,2025-05-27T22:42:34.021805
12470,-0.0517,-3.5107,1.9037,-26.670,22.190,26.320,419,418,385,399,392,2025-05-27T22:42:34.021805
12471,0.0693,-3.1281,2.0257,7.805,65.345,28.630,386,394,389,399,392,2025-05-27T22:42:34.021805
12472,0.0669,-2.6723,2.1423,43.225,90.895,24.045,407,399,377,391,381,2025-05-27T22:42:34.021805
12473,0.1161,-2.2023,2.1291,69.195,96.950,17.150,393,402,395,409,386,2025-05-27T22:42:34.021805
12474,0.1332,-1.8578,2.0774,95.095,82.005,1.680,420,423,391,392,407,2025-05-27T22:42:34.021805
12475,0.0547,-1.5226,1.8851,120.750,63.665,-17.325,421,404,348,365,392,2025-05-27T22:42:34.021805
12476,-0.0117,-1.2561,1.8456,145.950,42.385,-35.840,421,417,355,374,410,2025-05-27T22:42:34.021805
12477,-0.0576,-0.9589,1.6572,165.550,22.995,-54.320,411,398,368,353,409,2025-05-27T22:42:34.022849
12478,-0.0854,-0.6378,1.4611,186.550,22.750,-70.035,421,402,380,394,421,2025-05-27T22:42:34.022849
12479,-0.1508,-0.3201,1.2571,199.640,38.990,-81.410,401,391,385,412,377,2025-05-27T22:42:34.022849
12480,-0.2582,-0.0244,1.0141,211.155,54.670,-83.125,388,341,374,401,399,2025-05-27T22:42:34.022849
12481,-0.4319,0.0830,0.7798,223.055,64.750,-80.920,386,410,384,353,382,2025-05-27T22:42:34.022849
12482,-0.5973,0.3172,0.6295,227.710,72.695,-75.775,421,340,347,371,386,2025-05-27T22:42:34.122599
12483,-0.7110,0.4924,0.4372,226.800,72.205,-64.575,395,379,367,400,346,2025-05-27T22:42:34.122599
12484,-0.7876,0.6285,0.2499,223.755,54.985,-50.610,396,400,367,408,391,2025-05-27T22:42:34.122599
12485,-0.7764,0.7281,0.0903,220.780,31.185,-40.740,390,350,379,409,387,2025-05-27T22:42:34.122599
12486,-0.6969,0.8330,0.0063,214.060,15.085,-34.510,395,373,380,423,400,2025-05-27T22:42:34.122599
12487,-0.5783,0.9062,-0.0468,204.890,-1.330,-28.630,408,377,380,424,371,2025-05-27T22:42:34.122599
12488,-0.4514,0.9238,-0.1010,192.885,-14.770,-21.630,413,425,386,402,405,2025-05-27T22:42:34.122599
12489,-0.3216,0.9262,-0.0913,182.105,-22.890,-19.040,411,403,386,376,406,2025-05-27T22:42:34.122599
12490,-0.2367,0.9262,-0.0639,173.180,-23.555,-20.370,426,394,358,382,410,2025-05-27T22:42:34.122599
12491,-0.1728,0.9213,-0.0249,166.355,-24.640,-21.245,424,359,360,412,417,2025-05-27T22:42:34.122599
12492,-0.1181,0.9511,0.0517,158.655,-29.645,-22.855,419,415,359,409,387,2025-05-27T22:42:34.122599
12493,-0.0888,0.9428,0.1015,152.390,-33.600,-24.430,426,430,375,389,395,2025-05-27T22:42:34.122599
12494,-0.0478,0.9711,0.1147,147.735,-40.110,-24.570,423,404,373,408,409,2025-05-27T22:42:34.122599
12495,-0.0078,0.9984,0.1674,141.890,-45.115,-26.145,390,404,382,406,399,2025-05-27T22:42:34.122599
12496,0.0366,1.0341,0.1903,134.330,-46.200,-28.805,419,416,347,384,367,2025-05-27T22:42:34.122599
12497,0.0459,1.0438,0.2035,127.645,-46.445,-29.645,420,406,362,363,378,2025-05-27T22:42:34.122599
12498,0.0332,1.0565,0.1947,123.655,-46.970,-31.710,422,397,361,380,381,2025-05-27T22:42:34.123643
12499,0.0088,1.0497,0.1986,119.770,-48.895,-34.055,427,408,365,405,398,2025-05-27T22:42:34.123643
12500,-0.0512,1.0502,0.2040,116.305,-54.355,-36.400,411,385,337,415,348,2025-05-27T22:42:34.123643
12501,-0.0761,1.0838,0.2137,112.105,-65.135,-38.150,414,418,370,377,387,2025-05-27T22:42:34.123643
12502,-0.0849,1.1244,0.2386,104.405,-76.720,-38.045,341,393,364,399,348,2025-05-27T22:42:34.370239
12503,-0.0268,1.1326,0.2025,94.850,-79.730,-35.350,384,298,383,403,377,2025-05-27T22:42:34.370239
12504,0.0166,1.1253,0.1850,86.380,-71.540,-33.075,331,393,343,413,397,2025-05-27T22:42:34.370239
12505,0.0337,1.1356,0.1796,78.715,-55.475,-32.900,405,400,361,418,361,2025-05-27T22:42:34.370239
12506,0.0249,1.1619,0.1976,72.415,-38.955,-32.165,416,407,359,390,353,2025-05-27T22:42:34.370239
12507,-0.0307,1.1595,0.2157,65.310,-29.785,-29.120,417,428,379,383,330,2025-05-27T22:42:34.370239
12508,-0.0703,1.1741,0.2484,58.415,-24.395,-26.670,395,431,377,389,362,2025-05-27T22:42:34.370239
12509,-0.1127,1.1673,0.2708,52.360,-25.165,-22.890,432,371,381,411,337,2025-05-27T22:42:34.370239
12510,-0.1293,1.1458,0.2811,47.810,-31.045,-19.285,409,404,389,405,386,2025-05-27T22:42:34.370239
12511,-0.1196,1.1229,0.2835,44.275,-37.940,-16.730,405,424,384,419,396,2025-05-27T22:42:34.370239
12512,-0.0669,1.1287,0.2962,40.845,-40.285,-14.630,344,347,370,358,386,2025-05-27T22:42:34.370239
12513,-0.0268,1.1151,0.2782,36.155,-37.765,-12.705,388,348,378,387,407,2025-05-27T22:42:34.370239
12514,0.0054,1.1058,0.2650,32.725,-31.815,-10.885,423,387,371,403,407,2025-05-27T22:42:34.370239
12515,0.0142,1.0873,0.2606,29.715,-24.115,-8.960,413,342,372,398,396,2025-05-27T22:42:34.370239
12516,0.0088,1.0736,0.2606,26.670,-16.730,-6.825,356,349,382,414,408,2025-05-27T22:42:34.370239
12517,0.0063,1.0585,0.2669,24.010,-11.060,-4.830,402,339,385,408,414,2025-05-27T22:42:34.370239
12518,-0.0054,1.0453,0.2621,21.840,-6.650,-3.640,410,393,379,405,409,2025-05-27T22:42:34.370239
12519,-0.0049,1.0375,0.2479,19.495,-4.445,-2.485,415,394,355,395,405,2025-05-27T22:42:34.370239
12520,0.0293,1.0380,0.2445,17.430,-1.855,-2.030,395,396,377,386,369,2025-05-27T22:42:34.370239
12521,0.0498,1.0228,0.2416,14.875,2.310,-2.205,394,428,387,384,391,2025-05-27T22:42:34.370239
12522,0.0547,1.0063,0.2479,12.985,5.530,-3.220,419,411,382,404,410,2025-05-27T22:42:34.442167
12523,0.0054,0.9906,0.2699,12.460,2.450,-4.655,393,420,388,406,396,2025-05-27T22:42:34.442167
12524,-0.0063,0.9823,0.2777,11.655,-4.865,-5.355,390,352,388,389,382,2025-05-27T22:42:34.442167
12525,-0.0034,0.9819,0.2826,10.395,-10.010,-5.355,415,404,345,396,355,2025-05-27T22:42:34.442167
12526,0.0059,0.9858,0.2767,9.135,-11.130,-5.775,410,407,359,394,376,2025-05-27T22:42:34.442167
12527,0.0132,0.9941,0.2782,7.945,-7.315,-5.565,403,421,374,409,389,2025-05-27T22:42:34.442167
12528,0.0073,0.9955,0.2752,7.000,0.525,-4.830,403,404,388,418,364,2025-05-27T22:42:34.442167
12529,-0.0181,1.0014,0.2767,6.545,11.550,-3.535,364,407,389,406,333,2025-05-27T22:42:34.442167
12530,-0.0815,1.0126,0.2957,5.880,19.180,-1.925,395,393,385,385,360,2025-05-27T22:42:34.672729
12531,-0.1298,1.0224,0.3138,5.215,23.905,-0.630,375,391,374,394,403,2025-05-27T22:42:34.672729
12532,-0.1791,1.0180,0.3255,5.180,23.905,1.260,381,409,374,414,377,2025-05-27T22:42:34.672729
12533,-0.2025,1.0204,0.3328,5.040,21.840,3.360,408,301,363,391,340,2025-05-27T22:42:34.672729
12534,-0.2328,1.0097,0.3323,4.690,17.990,5.285,397,403,376,348,323,2025-05-27T22:42:34.672729
12535,-0.2479,0.9994,0.3343,4.480,12.250,7.630,390,401,371,396,381,2025-05-27T22:42:34.672729
12536,-0.2347,0.9970,0.3294,4.515,7.560,9.870,399,406,374,406,407,2025-05-27T22:42:34.672729
12537,-0.2157,0.9936,0.3250,3.955,4.480,10.745,388,383,379,413,399,2025-05-27T22:42:34.672729
12538,-0.1898,0.9814,0.3211,3.395,4.410,11.865,391,387,379,405,400,2025-05-27T22:42:34.674799
12539,-0.1737,0.9760,0.3211,3.045,7.035,12.145,382,356,389,395,404,2025-05-27T22:42:34.674799
12540,-0.1708,0.9687,0.3260,2.625,10.745,12.320,392,368,312,417,402,2025-05-27T22:42:34.674799
12541,-0.1820,0.9604,0.3314,2.240,12.285,12.320,389,378,358,356,397,2025-05-27T22:42:34.674799
12542,-0.1903,0.9501,0.3289,2.030,12.635,12.215,389,400,367,381,408,2025-05-27T22:42:34.674799
12543,-0.1913,0.9467,0.3406,1.855,12.005,12.110,371,392,381,400,411,2025-05-27T22:42:34.674799
12544,-0.1962,0.9462,0.3484,0.875,9.310,12.285,405,435,376,373,402,2025-05-27T22:42:34.674799
12545,-0.1957,0.9374,0.3494,0.280,3.780,12.075,369,397,379,380,357,2025-05-27T22:42:34.675794
12546,-0.1864,0.9199,0.3460,-0.035,-0.490,11.375,394,434,387,387,389,2025-05-27T22:42:34.675908
12547,-0.1620,0.9184,0.3377,-0.735,-3.780,10.640,429,413,392,409,380,2025-05-27T22:42:34.675908
12548,-0.1435,0.9038,0.3250,-0.910,-5.390,9.660,384,424,381,420,380,2025-05-27T22:42:34.675908
12549,-0.1259,0.9023,0.3182,-0.595,-5.250,8.750,406,410,389,416,362,2025-05-27T22:42:34.857217
12550,-0.1157,0.8960,0.3201,-0.525,-3.640,7.175,401,425,390,413,390,2025-05-27T22:42:34.857217
12551,-0.1059,0.9018,0.3221,-1.330,-1.925,5.915,423,413,390,428,407,2025-05-27T22:42:34.858212
12552,-0.1098,0.8989,0.3133,-2.485,0.210,4.620,427,420,381,421,412,2025-05-27T22:42:34.858212
12553,-0.1171,0.9096,0.3128,-3.290,2.380,3.255,407,403,367,418,417,2025-05-27T22:42:34.858212
12554,-0.1230,0.9106,0.3084,-4.340,2.835,1.890,416,376,385,396,317,2025-05-27T22:42:34.858212
12555,-0.1288,0.9130,0.3079,-4.795,2.275,0.840,387,395,388,348,360,2025-05-27T22:42:34.858212
12556,-0.1249,0.9150,0.3065,-5.040,1.995,0.560,409,407,371,388,381,2025-05-27T22:42:34.858212
12557,-0.1357,0.9121,0.3011,-3.990,1.330,0.455,397,423,337,405,385,2025-05-27T22:42:34.858212
12558,-0.1322,0.9233,0.3123,-3.080,0.700,-0.210,403,426,372,362,386,2025-05-27T22:42:34.858212
12559,-0.1425,0.9360,0.3201,-2.975,-0.140,-0.490,402,419,369,400,385,2025-05-27T22:42:34.858212
12560,-0.1625,0.9370,0.3299,-2.660,-1.575,-0.910,411,427,374,422,401,2025-05-27T22:42:34.858212
12561,-0.1547,0.9457,0.3299,-2.590,-4.130,-0.420,342,421,378,421,408,2025-05-27T22:42:34.858212
12562,-0.1430,0.9536,0.3289,-2.660,-3.920,-0.070,331,418,389,414,392,2025-05-27T22:42:34.858212
12563,-0.1269,0.9701,0.3309,-3.815,-1.575,0.525,400,368,397,411,393,2025-05-27T22:42:34.858212
12564,-0.1176,0.9740,0.3309,-4.830,1.295,1.225,390,347,395,391,396,2025-05-27T22:42:34.987135
12565,-0.1098,0.9755,0.3250,-5.600,3.780,2.170,297,392,359,399,407,2025-05-27T22:42:35.000280
12566,-0.1215,0.9784,0.3353,-5.285,6.055,3.710,390,416,340,371,404,2025-05-27T22:42:35.000280
12567,-0.1401,0.9804,0.3518,-5.040,4.970,5.530,423,416,363,379,401,2025-05-27T22:42:35.000280
12568,-0.1454,0.9858,0.3650,-6.265,2.205,6.685,415,413,336,403,397,2025-05-27T22:42:35.000280
12569,-0.1474,0.9828,0.3665,-7.665,-0.630,7.525,425,415,360,399,407,2025-05-27T22:42:35.000280
12570,-0.1391,0.9770,0.3675,-8.855,-3.325,7.945,340,346,362,370,312,2025-05-27T22:42:35.000280
12571,-0.1322,0.9579,0.3616,-9.625,-6.860,8.435,403,383,369,390,376,2025-05-27T22:42:35.000280
12572,-0.1230,0.9545,0.3606,-10.815,-8.925,8.470,371,407,379,390,378,2025-05-27T22:42:35.000280
12573,-0.0952,0.9443,0.3528,-11.830,-9.205,8.260,403,406,386,399,400,2025-05-27T22:42:35.000280
12574,-0.0898,0.9282,0.3479,-12.635,-7.525,7.665,357,417,383,399,390,2025-05-27T22:42:35.000280
12575,-0.0888,0.9067,0.3440,-13.055,-5.495,6.720,408,402,383,402,399,2025-05-27T22:42:35.000280
12576,-0.0971,0.8882,0.3494,-13.125,-3.955,6.090,427,427,340,362,388,2025-05-27T22:42:35.258251
12577,-0.1000,0.8735,0.3465,-12.950,-3.325,5.530,400,410,332,410,367,2025-05-27T22:42:35.258251
12578,-0.1074,0.8516,0.3514,-12.810,-3.255,5.215,407,410,369,402,404,2025-05-27T22:42:35.258251
12579,-0.1118,0.8311,0.3518,-13.405,-4.375,4.340,409,342,339,394,411,2025-05-27T22:42:35.258251
12580,-0.1020,0.8076,0.3509,-14.070,-6.860,3.150,390,370,369,404,419,2025-05-27T22:42:35.258251
12581,-0.0937,0.7793,0.3411,-14.525,-9.065,1.540,421,410,374,370,408,2025-05-27T22:42:35.258251
12582,-0.0688,0.7535,0.3401,-15.575,-11.480,-0.350,419,402,340,339,387,2025-05-27T22:42:35.258251
12583,-0.0493,0.7247,0.3304,-16.975,-13.720,-2.730,432,403,351,378,405,2025-05-27T22:42:35.258251
12584,-0.0337,0.6803,0.3323,-18.165,-16.100,-4.515,397,420,373,398,414,2025-05-27T22:42:35.258251
12585,-0.0205,0.6344,0.3294,-19.110,-19.530,-5.565,425,421,386,354,411,2025-05-27T22:42:35.258251
12586,-0.0010,0.6066,0.3265,-21.280,-23.275,-6.405,415,405,371,378,412,2025-05-27T22:42:35.258251
12587,0.0483,0.6032,0.3070,-24.675,-24.885,-7.700,426,358,382,397,354,2025-05-27T22:42:35.258251
12588,0.0874,0.6251,0.2791,-29.400,-23.660,-9.835,424,407,383,384,329,2025-05-27T22:42:35.258251
12589,0.1381,0.6788,0.2518,-35.105,-18.865,-14.525,392,410,391,400,346,2025-05-27T22:42:35.258251
12590,0.1972,0.7906,0.2401,-43.085,-11.865,-20.545,420,424,382,421,368,2025-05-27T22:42:35.258251
12591,0.2552,0.9536,0.2435,-51.065,-2.555,-28.315,362,355,383,420,384,2025-05-27T22:42:35.258251
12592,0.2767,1.1702,0.2577,-63.175,6.265,-37.345,406,407,385,418,385,2025-05-27T22:42:35.818776
12593,0.2835,1.3840,0.2874,-75.670,16.590,-47.775,394,410,376,423,383,2025-05-27T22:42:35.819771
12594,0.2762,1.6514,0.3235,-90.790,22.680,-55.965,396,401,371,395,394,2025-05-27T22:42:35.819771
12595,0.2567,1.8803,0.4226,-110.355,24.465,-62.160,407,397,367,389,384,2025-05-27T22:42:35.819771
12596,0.2181,2.1399,0.4948,-134.190,19.530,-62.650,413,397,377,401,342,2025-05-27T22:42:35.819771
12597,0.1810,2.3873,0.5641,-160.300,8.120,-59.325,420,301,333,401,380,2025-05-27T22:42:35.820297
12598,0.1762,2.6025,0.6027,-187.355,-3.115,-45.920,434,341,368,402,384,2025-05-27T22:42:35.820297
12599,0.1435,2.7709,0.5929,-209.335,-13.020,-23.100,428,374,368,414,390,2025-05-27T22:42:35.820297
12600,0.1386,2.8226,0.5348,-231.175,-17.955,7.140,408,397,375,351,376,2025-05-27T22:42:35.820297
12601,0.1806,2.8109,0.3723,-248.885,-13.615,41.405,420,378,374,375,389,2025-05-27T22:42:35.820297
12602,0.1640,2.7279,0.1688,-259.490,10.500,69.020,424,337,371,398,349,2025-05-27T22:42:35.820297
12603,0.0922,2.6401,-0.0605,-262.430,46.585,101.570,425,404,381,387,395,2025-05-27T22:42:35.820297
12604,-0.0342,2.5439,-0.2952,-254.765,82.005,131.390,403,391,389,402,353,2025-05-27T22:42:35.820297
12605,-0.2342,2.4005,-0.6310,-235.305,111.440,153.440,418,358,381,411,385,2025-05-27T22:42:35.820297
12606,-0.6076,2.1799,-0.8779,-230.335,124.810,168.910,396,395,376,350,400,2025-05-27T22:42:35.820297
12607,-1.0038,1.9554,-1.0682,-217.945,102.550,182.000,426,405,368,399,411,2025-05-27T22:42:35.820297
12608,-1.3381,1.7148,-1.2532,-209.265,69.125,192.780,407,420,384,309,382,2025-05-27T22:42:35.820297
12609,-1.5001,1.4645,-1.3776,-203.945,27.300,193.515,420,347,375,366,405,2025-05-27T22:42:35.820297
12610,-1.5245,1.2293,-1.4064,-202.300,4.690,190.750,395,383,384,356,397,2025-05-27T22:42:35.820297
12611,-1.5538,0.9091,-1.2610,-212.205,13.265,183.960,414,420,389,335,401,2025-05-27T22:42:35.820297
12612,-1.7021,0.4285,-1.1980,-223.580,42.140,175.805,396,424,385,388,399,2025-05-27T22:42:35.820297
12613,-1.9081,-0.1747,-0.9750,-234.500,56.560,158.270,423,424,363,341,381,2025-05-27T22:42:35.820297
12614,-1.8817,-0.8379,-0.6403,-239.015,52.290,138.775,401,421,375,325,395,2025-05-27T22:42:35.820297
12615,-1.7905,-1.7392,-0.3177,-233.100,48.860,100.800,422,434,343,379,391,2025-05-27T22:42:35.820297
12616,-1.6377,-2.3956,0.0927,-217.665,40.530,62.090,418,406,323,403,388,2025-05-27T22:42:35.820297
12617,-1.4708,-2.7489,0.3821,-195.650,8.995,48.790,422,398,365,348,400,2025-05-27T22:42:35.820297
12618,-1.0843,-2.8943,0.8023,-178.325,-35.735,42.700,348,418,368,392,410,2025-05-27T22:42:35.820297
12619,-0.6407,-3.0671,1.1019,-168.140,-48.790,36.505,397,415,374,395,401,2025-05-27T22:42:35.820297
12620,-0.3758,-3.2628,1.3025,-152.040,-34.020,25.130,336,424,339,396,351,2025-05-27T22:42:35.820297
12621,-0.2001,-3.1886,1.6270,-129.850,-17.255,13.545,387,424,356,346,394,2025-05-27T22:42:35.820297
12622,-0.1571,-3.1813,1.9520,-107.940,-18.935,5.810,387,421,368,399,400,2025-05-27T22:42:35.820297
12623,-0.1020,-3.0739,2.1360,-77.245,-30.870,-5.845,362,355,364,359,377,2025-05-27T22:42:35.820297
12624,0.0288,-2.7606,2.2150,-34.580,-47.145,-19.075,375,392,331,374,402,2025-05-27T22:42:35.820297
12625,0.2425,-2.3282,2.1975,7.630,-41.895,-35.945,412,395,316,389,409,2025-05-27T22:42:35.820297
12626,0.4490,-2.0940,2.0701,40.915,-16.450,-56.875,414,408,351,384,411,2025-05-27T22:42:35.820297
12627,0.4002,-1.7958,1.9344,78.085,20.020,-76.755,399,403,373,386,356,2025-05-27T22:42:35.820297
12628,0.1903,-1.5270,1.7529,110.845,54.775,-94.535,390,405,362,400,359,2025-05-27T22:42:35.820297
12629,-0.1401,-1.2688,1.5787,150.395,68.390,-108.535,385,403,369,415,385,2025-05-27T22:42:35.820297
12630,-0.5305,-1.0150,1.3810,184.100,74.375,-115.605,384,378,380,370,343,2025-05-27T22:42:35.820297
12631,-0.7964,-0.6651,1.2010,209.930,69.615,-116.025,413,406,350,391,331,2025-05-27T22:42:35.820297
12632,-1.0287,-0.4065,0.9921,224.070,58.240,-110.460,417,410,365,403,319,2025-05-27T22:42:35.820297
12633,-1.1229,-0.0659,0.8032,226.940,39.795,-96.460,397,414,369,410,377,2025-05-27T22:42:35.820297
12634,-1.1068,0.1327,0.6295,225.330,21.910,-81.865,410,428,382,420,385,2025-05-27T22:42:35.820297
12635,-1.0375,0.3226,0.4875,224.665,14.840,-69.860,422,430,391,415,399,2025-05-27T22:42:35.820297
12636,-0.9453,0.4534,0.3919,222.775,10.535,-57.295,406,429,377,350,388,2025-05-27T22:42:35.820297
12637,-0.8501,0.5270,0.2874,221.865,3.640,-46.270,350,439,370,356,366,2025-05-27T22:42:35.820297
12638,-0.7159,0.6300,0.2552,221.795,-1.575,-41.090,403,411,368,395,383,2025-05-27T22:42:35.820297
12639,-0.5680,0.6915,0.2167,219.205,1.505,-34.160,404,361,359,345,381,2025-05-27T22:42:35.820297
12640,-0.4782,0.7569,0.1991,215.635,6.790,-29.365,397,412,337,375,396,2025-05-27T22:42:35.820297
12641,-0.4226,0.7681,0.1684,211.400,7.980,-23.485,298,411,367,397,399,2025-05-27T22:42:35.820297
12642,-0.4133,0.8081,0.1645,206.955,7.455,-19.075,314,377,373,345,401,2025-05-27T22:42:35.820297
12643,-0.3919,0.8530,0.1796,199.080,3.675,-17.220,364,376,388,390,401,2025-05-27T22:42:35.820297
12644,-0.4055,0.9023,0.1976,190.680,-5.985,-15.890,404,387,392,364,349,2025-05-27T22:42:35.968508
12645,-0.3704,0.9082,0.1908,183.225,-16.415,-12.775,387,391,369,330,381,2025-05-27T22:42:35.968508
12646,-0.3392,0.9389,0.1859,174.510,-23.345,-9.975,334,411,379,378,405,2025-05-27T22:42:35.968508
12647,-0.3070,0.9770,0.1981,165.130,-27.090,-7.070,404,372,388,370,413,2025-05-27T22:42:35.968508
12648,-0.2669,0.9887,0.2050,157.395,-30.450,-5.075,388,401,375,384,372,2025-05-27T22:42:35.968508
12649,-0.2352,0.9809,0.1854,151.620,-32.095,-1.995,355,339,371,395,382,2025-05-27T22:42:35.968508
12650,-0.2137,0.9911,0.1688,146.755,-30.765,-0.070,412,394,382,361,399,2025-05-27T22:42:35.968508
12651,-0.2015,1.0063,0.1908,141.540,-28.245,0.840,409,385,375,377,407,2025-05-27T22:42:35.968508
12652,-0.1586,1.0394,0.2050,135.170,-25.760,3.465,338,415,383,400,413,2025-05-27T22:42:35.968508
12653,-0.1391,1.0438,0.2162,128.450,-22.890,4.375,385,432,348,400,369,2025-05-27T22:42:36.138032
12654,-0.1147,1.0658,0.2445,121.555,-20.545,5.250,388,422,372,394,397,2025-05-27T22:42:36.138032
12655,-0.1030,1.0487,0.2347,115.220,-19.250,5.530,405,415,364,391,346,2025-05-27T22:42:36.138032
12656,-0.1025,1.0307,0.2225,109.865,-18.795,5.355,376,398,344,406,329,2025-05-27T22:42:36.138032
12657,-0.1093,1.0263,0.2118,106.820,-19.950,5.005,392,408,329,413,368,2025-05-27T22:42:36.138032
12658,-0.1039,1.0453,0.2064,103.005,-24.920,5.285,414,386,350,415,392,2025-05-27T22:42:36.138032
12659,-0.1093,1.0677,0.1981,97.580,-30.975,4.340,361,417,359,392,411,2025-05-27T22:42:36.138032
12660,-0.0839,1.1000,0.2094,89.845,-37.135,2.940,417,416,372,360,398,2025-05-27T22:42:36.138032
12661,-0.0478,1.1082,0.2133,82.005,-40.880,1.820,366,430,383,388,311,2025-05-27T22:42:36.138032
12662,-0.0107,1.1043,0.1854,71.995,-40.215,-0.350,385,405,343,392,380,2025-05-27T22:42:36.138032
12663,-0.0059,1.0795,0.1674,64.295,-37.730,-1.785,390,405,356,405,396,2025-05-27T22:42:36.138032
12664,-0.0156,1.0741,0.1757,58.835,-37.940,-3.430,426,428,342,413,405,2025-05-27T22:42:36.138032
12665,-0.0244,1.0814,0.1825,52.920,-40.285,-4.340,421,390,371,406,350,2025-05-27T22:42:36.139036
12666,-0.0190,1.0858,0.2172,47.215,-40.635,-6.125,348,375,378,393,391,2025-05-27T22:42:36.302307
12667,-0.0161,1.0770,0.2230,40.985,-38.570,-7.560,387,395,338,397,402,2025-05-27T22:42:36.302307
12668,-0.0005,1.0780,0.2318,35.105,-35.280,-8.260,401,398,318,409,415,2025-05-27T22:42:36.302307
12669,0.0020,1.0648,0.2347,29.260,-28.875,-8.365,338,351,349,413,397,2025-05-27T22:42:36.302307
12670,-0.0146,1.0512,0.2552,24.465,-21.420,-8.645,400,406,376,411,390,2025-05-27T22:42:36.302307
12671,-0.0376,1.0287,0.2669,21.665,-16.555,-8.120,423,413,369,404,348,2025-05-27T22:42:36.302307
12672,-0.0654,1.0136,0.2889,19.950,-14.385,-7.490,366,378,371,413,364,2025-05-27T22:42:36.302307
12673,-0.0956,1.0048,0.3011,18.165,-14.315,-6.930,345,414,347,397,392,2025-05-27T22:42:36.302307
12674,-0.0854,1.0067,0.3011,17.115,-15.750,-5.705,289,410,362,364,399,2025-05-27T22:42:36.302307
12675,-0.0644,1.0175,0.2928,14.630,-15.610,-4.935,381,420,375,373,379,2025-05-27T22:42:36.302307
12676,-0.0298,1.0204,0.2723,10.605,-10.535,-4.410,405,350,374,406,367,2025-05-27T22:42:36.302307
12677,-0.0366,1.0219,0.2821,6.265,-4.165,-4.375,394,346,376,399,383,2025-05-27T22:42:36.302307
12678,-0.0703,1.0072,0.3055,2.660,-1.540,-5.215,383,394,383,416,405,2025-05-27T22:42:36.302307
12679,-0.1000,1.0004,0.3240,-0.630,-3.290,-5.985,410,352,310,367,400,2025-05-27T22:42:36.302307
12680,-0.1205,0.9955,0.3455,-2.170,-7.350,-6.160,390,397,352,408,404,2025-05-27T22:42:36.302307
12681,-0.1396,0.9960,0.3655,-2.660,-12.950,-5.040,348,415,359,395,410,2025-05-27T22:42:36.302307
12682,-0.1362,0.9945,0.3743,-2.765,-18.620,-3.500,372,363,370,386,416,2025-05-27T22:42:36.302307
12683,-0.1147,1.0058,0.3884,-3.360,-19.250,-2.800,400,372,370,401,395,2025-05-27T22:42:36.302307
12684,-0.0996,1.0019,0.3772,-3.920,-15.680,-1.855,413,385,336,347,405,2025-05-27T22:42:36.550416
12685,-0.0942,1.0141,0.3836,-3.080,-11.270,-0.770,420,406,358,337,386,2025-05-27T22:42:36.550416
12686,-0.1064,1.0189,0.3899,-2.765,-8.225,0.280,303,347,358,375,382,2025-05-27T22:42:36.550416
12687,-0.1176,1.0146,0.3919,-1.785,-7.315,1.645,276,347,375,384,360,2025-05-27T22:42:36.550416
12688,-0.1327,1.0077,0.3958,0.035,-8.890,3.675,386,383,384,355,375,2025-05-27T22:42:36.550416
12689,-0.1415,1.0077,0.4046,1.505,-11.270,5.215,407,416,390,400,358,2025-05-27T22:42:36.550416
12690,-0.1420,0.9989,0.3943,1.680,-14.770,6.650,397,416,345,409,379,2025-05-27T22:42:36.550416
12691,-0.1249,0.9872,0.3762,2.205,-18.235,8.330,386,401,369,397,391,2025-05-27T22:42:36.550416
12692,-0.0966,0.9809,0.3572,2.415,-19.110,10.220,415,405,367,410,311,2025-05-27T22:42:36.550416
12693,-0.0756,0.9638,0.3343,1.995,-16.695,11.235,395,385,336,409,352,2025-05-27T22:42:36.550416
12694,-0.0688,0.9467,0.3113,1.890,-13.685,11.410,392,402,329,408,375,2025-05-27T22:42:36.550416
12695,-0.0595,0.9496,0.3055,0.875,-9.555,11.585,424,404,329,412,303,2025-05-27T22:42:36.551954
12696,-0.0600,0.9345,0.2811,-0.350,-6.230,10.955,413,399,348,400,373,2025-05-27T22:42:36.551954
12697,-0.0551,0.9165,0.2786,-0.385,-3.675,9.415,397,414,293,387,395,2025-05-27T22:42:36.551954
12698,-0.0581,0.9052,0.2747,-0.035,-1.925,9.030,409,410,343,409,390,2025-05-27T22:42:36.551954
12699,-0.0683,0.8926,0.2782,0.210,-1.050,7.770,434,413,366,395,391,2025-05-27T22:42:36.551954
12700,-0.0717,0.8857,0.2913,-0.070,-0.315,5.810,401,399,332,386,394,2025-05-27T22:42:36.551954
12701,-0.0917,0.8794,0.3016,-0.350,-0.630,4.200,372,401,341,399,381,2025-05-27T22:42:36.552954
12702,-0.0966,0.8706,0.2987,0.140,-1.960,3.885,396,421,349,410,347,2025-05-27T22:42:36.552954
12703,-0.1020,0.8725,0.3045,1.225,-2.170,2.625,416,390,362,416,384,2025-05-27T22:42:36.552954
12704,-0.0898,0.8867,0.3148,0.630,-0.350,1.260,397,411,373,409,386,2025-05-27T22:42:36.708743
12705,-0.0893,0.8755,0.3221,-0.070,1.820,0.700,411,341,370,415,388,2025-05-27T22:42:36.708743
12706,-0.0888,0.8701,0.3216,1.715,2.345,0.735,425,375,379,387,399,2025-05-27T22:42:36.708743
12707,-0.0874,0.8994,0.3450,2.555,3.675,-1.120,414,393,375,386,394,2025-05-27T22:42:36.708743
12708,-0.0795,0.9170,0.3543,1.855,5.530,-2.660,426,426,339,391,380,2025-05-27T22:42:36.708743
12709,-0.0927,0.9189,0.3470,1.925,5.775,-3.535,399,345,352,413,392,2025-05-27T22:42:36.709739
12710,-0.1025,0.9262,0.3528,3.885,5.355,-3.535,337,376,377,397,347,2025-05-27T22:42:36.709739
12711,-0.1274,0.9457,0.3714,3.850,5.915,-3.955,393,420,389,399,391,2025-05-27T22:42:36.709739
12712,-0.1459,0.9575,0.3748,3.255,5.215,-3.780,414,430,391,401,386,2025-05-27T22:42:36.709739
12713,-0.1640,0.9677,0.3782,2.905,3.430,-3.395,377,396,387,399,343,2025-05-27T22:42:36.709739
12714,-0.1708,0.9745,0.3777,2.135,1.015,-2.940,380,362,392,400,387,2025-05-27T22:42:36.709739
12715,-0.1757,0.9760,0.3841,1.155,-1.085,-2.170,409,410,397,408,387,2025-05-27T22:42:36.709739
12716,-0.1630,0.9809,0.3811,-0.140,-2.275,-0.875,409,338,382,397,344,2025-05-27T22:42:36.709739
12717,-0.1615,0.9765,0.3767,-1.050,-2.485,0.350,420,402,361,410,374,2025-05-27T22:42:36.709739
12718,-0.1601,0.9697,0.3699,-1.155,-2.520,1.715,426,423,359,406,386,2025-05-27T22:42:36.950752
12719,-0.1581,0.9667,0.3704,-1.085,-2.485,2.450,364,420,371,400,404,2025-05-27T22:42:36.950752
12720,-0.1547,0.9604,0.3719,-1.960,-2.240,3.220,393,406,382,369,386,2025-05-27T22:42:36.950752
12721,-0.1566,0.9565,0.3699,-2.205,-2.870,4.725,415,431,379,401,409,2025-05-27T22:42:36.950752
12722,-0.1562,0.9472,0.3645,-2.345,-4.060,5.075,428,370,353,341,400,2025-05-27T22:42:36.950752
12723,-0.1444,0.9350,0.3538,-2.415,-4.830,5.005,364,361,365,390,349,2025-05-27T22:42:36.950752
12724,-0.1415,0.9296,0.3523,-2.205,-6.160,4.795,406,420,351,384,333,2025-05-27T22:42:36.950752
12725,-0.1303,0.9189,0.3455,-1.890,-8.400,4.375,395,408,378,352,326,2025-05-27T22:42:36.950752
12726,-0.1122,0.9111,0.3406,-1.540,-9.555,3.920,423,409,385,375,376,2025-05-27T22:42:36.951754
12727,-0.1049,0.9033,0.3294,-0.595,-9.240,3.185,366,408,397,386,408,2025-05-27T22:42:36.951754
12728,-0.1010,0.9057,0.3284,0.175,-7.980,2.135,368,407,377,408,410,2025-05-27T22:42:36.951754
12729,-0.1005,0.9038,0.3309,-0.140,-5.845,0.910,411,412,346,418,391,2025-05-27T22:42:36.951754
12730,-0.1098,0.8974,0.3226,-0.105,-4.550,0.315,402,418,370,400,395,2025-05-27T22:42:36.951754
12731,-0.1264,0.8926,0.3182,0.595,-5.110,-0.350,423,400,378,412,361,2025-05-27T22:42:36.951754
12732,-0.1313,0.8950,0.3250,0.700,-5.460,-0.700,403,404,374,406,381,2025-05-27T22:42:36.951754
12733,-0.1347,0.8930,0.3167,-0.315,-5.425,-0.805,421,415,378,397,379,2025-05-27T22:42:36.951754
12734,-0.1371,0.8877,0.3089,-0.525,-5.390,-1.085,404,401,381,403,383,2025-05-27T22:42:36.951754
12735,-0.1357,0.8901,0.3143,-0.700,-4.935,-1.260,395,396,382,403,390,2025-05-27T22:42:36.951754
12736,-0.1322,0.8911,0.3206,-1.295,-4.270,-1.085,410,429,380,399,388,2025-05-27T22:42:36.951754
12737,-0.1347,0.8833,0.3235,-1.750,-4.060,-1.155,427,409,378,353,407,2025-05-27T22:42:36.951754
12738,-0.1347,0.8804,0.3362,-1.820,-4.445,-1.645,399,394,375,375,397,2025-05-27T22:42:37.119224
12739,-0.1376,0.8691,0.3387,-2.135,-4.970,-2.135,382,377,371,399,391,2025-05-27T22:42:37.120213
12740,-0.1298,0.8618,0.3406,-2.310,-5.705,-2.450,412,355,368,349,394,2025-05-27T22:42:37.120213
12741,-0.1313,0.8447,0.3338,-1.995,-6.475,-2.730,413,418,387,381,407,2025-05-27T22:42:37.120213
12742,-0.1157,0.8267,0.3284,-1.680,-6.580,-2.940,420,349,391,381,406,2025-05-27T22:42:37.856852
12743,-0.0991,0.8072,0.3182,-2.275,-6.090,-2.940,345,415,391,380,352,2025-05-27T22:42:37.856852
12744,-0.0825,0.7886,0.3045,-2.940,-5.565,-2.240,409,403,377,384,374,2025-05-27T22:42:37.856852
12745,-0.0742,0.7725,0.2943,-4.515,-5.600,-1.785,422,403,366,389,375,2025-05-27T22:42:37.857452
12746,-0.0625,0.7530,0.2801,-5.705,-6.335,-1.890,420,353,372,416,400,2025-05-27T22:42:37.857533
12747,-0.0581,0.7330,0.2552,-6.125,-7.455,-2.800,396,332,382,399,389,2025-05-27T22:42:37.857659
12748,-0.0303,0.7305,0.2269,-6.160,-7.315,-3.745,411,419,390,401,393,2025-05-27T22:42:37.857779
12749,-0.0142,0.7418,0.2015,-7.490,-4.060,-5.320,414,349,344,391,377,2025-05-27T22:42:37.857870
12750,-0.0176,0.7754,0.1957,-10.465,1.715,-8.015,422,403,363,383,388,2025-05-27T22:42:37.857938
12751,-0.0273,0.8174,0.1932,-15.540,6.055,-11.375,437,417,367,403,402,2025-05-27T22:42:37.857938
12752,-0.0678,0.8745,0.2152,-20.230,7.000,-15.785,359,387,361,409,386,2025-05-27T22:42:37.857938
12753,-0.0976,0.9467,0.2318,-27.055,4.690,-21.735,406,433,379,351,379,2025-05-27T22:42:37.857938
12754,-0.1152,1.0209,0.2865,-34.545,0.910,-28.805,397,425,380,331,336,2025-05-27T22:42:37.857938
12755,-0.1225,1.1878,0.3465,-43.575,-0.350,-32.760,401,402,377,378,389,2025-05-27T22:42:37.857938
12756,-0.1527,1.2947,0.4265,-53.515,-7.455,-37.065,386,419,339,401,383,2025-05-27T22:42:37.857938
12757,-0.1464,1.4162,0.5261,-63.350,-17.920,-42.140,419,429,359,403,407,2025-05-27T22:42:37.857938
12758,-0.0961,1.5772,0.6217,-78.785,-27.370,-41.930,402,437,331,385,407,2025-05-27T22:42:37.858458
12759,-0.0732,1.7358,0.7159,-94.010,-34.160,-37.975,409,396,351,384,401,2025-05-27T22:42:37.858529
12760,0.0054,1.8749,0.7984,-116.235,-38.920,-31.780,388,431,359,387,402,2025-05-27T22:42:37.858529
12761,0.0820,2.0023,0.8291,-136.710,-41.895,-24.360,342,429,375,409,402,2025-05-27T22:42:37.858529
12762,0.1591,2.1179,0.7959,-154.315,-41.615,-16.485,386,420,389,412,403,2025-05-27T22:42:37.858529
12763,0.2054,2.1623,0.7559,-166.705,-38.885,-5.460,408,426,391,415,408,2025-05-27T22:42:37.858529
12764,0.2821,2.2028,0.6534,-176.295,-38.150,8.015,413,426,401,390,415,2025-05-27T22:42:37.858529
12765,0.3265,2.2141,0.5749,-182.735,-33.950,22.890,395,401,389,405,409,2025-05-27T22:42:37.858529
12766,0.3850,2.2502,0.3963,-186.760,-26.460,37.520,387,418,381,392,408,2025-05-27T22:42:37.858529
12767,0.4294,2.2707,0.1420,-189.560,-13.650,53.830,393,434,389,416,410,2025-05-27T22:42:37.858529
12768,0.5173,2.3531,-0.2342,-186.865,2.660,73.395,417,425,388,411,405,2025-05-27T22:42:37.859165
12769,0.5578,2.4161,-0.6256,-180.040,33.460,91.770,398,349,389,399,394,2025-05-27T22:42:37.859430
12770,0.4641,2.4268,-0.9701,-174.685,72.345,114.590,413,388,386,399,402,2025-05-27T22:42:37.859693
12771,0.2547,2.3770,-1.2058,-175.210,106.715,134.225,385,415,376,399,405,2025-05-27T22:42:37.859901
12772,-0.0366,2.2189,-1.4030,-181.790,118.195,149.205,418,408,348,414,418,2025-05-27T22:42:37.860060
12773,-0.3260,1.9993,-1.4879,-193.865,113.120,152.250,359,400,377,394,416,2025-05-27T22:42:37.860060
12774,-0.5661,1.7300,-1.5392,-201.460,102.515,143.115,415,423,371,346,394,2025-05-27T22:42:37.860060
12775,-0.7974,1.4264,-1.6192,-206.500,81.690,135.415,421,434,382,359,398,2025-05-27T22:42:37.860060
12776,-1.1185,1.0780,-1.4796,-197.400,61.845,119.595,412,370,346,389,406,2025-05-27T22:42:37.860060
12777,-1.7246,0.7081,-1.0712,-185.885,23.940,93.940,422,411,367,400,356,2025-05-27T22:42:37.860060
12778,-2.0647,0.2762,-0.6100,-187.250,-34.195,76.965,412,406,380,394,401,2025-05-27T22:42:37.860060
12779,-2.4122,-0.2411,-0.2777,-198.625,-88.060,61.705,417,347,385,406,364,2025-05-27T22:42:37.860060
12780,-2.3326,-1.0477,-0.0112,-211.715,-93.135,53.585,412,417,392,377,377,2025-05-27T22:42:37.860060
12781,-2.0032,-1.8754,0.1947,-216.545,-28.630,62.615,427,398,382,401,381,2025-05-27T22:42:37.861533
12782,-2.0013,-2.6879,0.4865,-209.860,54.530,73.080,421,394,380,413,378,2025-05-27T22:42:37.861585
12783,-2.0091,-2.9436,0.9706,-197.715,79.730,85.505,432,407,340,402,386,2025-05-27T22:42:37.861585
12784,-2.0784,-3.0890,1.5001,-185.150,40.460,98.070,432,411,345,344,361,2025-05-27T22:42:37.861585
12785,-1.8046,-2.9944,1.8607,-174.370,-57.085,98.210,427,399,351,373,368,2025-05-27T22:42:37.861585
12786,-0.9628,-2.9739,1.9466,-156.065,-144.970,97.650,379,415,354,402,364,2025-05-27T22:42:37.861585
12787,0.1279,-2.9831,1.7968,-118.195,-157.395,84.805,365,425,372,347,388,2025-05-27T22:42:37.861585
12788,0.9360,-2.7840,1.8076,-80.150,-95.445,66.115,399,390,383,396,402,2025-05-27T22:42:37.861585
12789,1.1888,-2.4683,1.8461,-41.510,1.785,41.825,350,421,383,412,371,2025-05-27T22:42:37.861585
12790,1.1200,-2.1409,1.8695,-4.480,59.465,9.205,405,403,378,405,384,2025-05-27T22:42:37.861585
12791,1.0092,-1.7695,1.8920,18.585,63.665,-21.070,418,415,380,415,394,2025-05-27T22:42:37.861585
12792,0.6666,-1.4703,1.8656,42.700,49.525,-50.400,417,419,387,399,389,2025-05-27T22:42:37.861585
12793,0.5168,-1.2429,1.8051,59.640,36.715,-71.365,424,411,393,398,347,2025-05-27T22:42:37.861585
12794,0.3016,-1.1107,1.6992,69.300,17.815,-94.745,433,418,400,385,390,2025-05-27T22:42:37.861585
12795,0.1391,-0.9282,1.5865,83.720,1.715,-111.615,439,430,392,370,386,2025-05-27T22:42:37.861585
12796,-0.0312,-0.7759,1.4616,90.055,0.665,-125.615,378,381,391,392,367,2025-05-27T22:42:37.861585
12797,-0.1762,-0.5744,1.3415,101.850,15.925,-129.780,394,348,356,409,398,2025-05-27T22:42:37.861585
12798,-0.3328,-0.3811,1.2078,113.995,26.915,-130.585,339,327,373,408,347,2025-05-27T22:42:37.861585
12799,-0.4368,-0.1898,1.1043,126.070,38.115,-127.750,406,354,386,423,377,2025-05-27T22:42:37.861585
12800,-0.5588,-0.0273,1.0233,136.990,45.885,-123.270,391,389,389,426,402,2025-05-27T22:42:37.861585
12801,-0.6217,0.0932,0.9170,146.580,47.285,-118.615,405,423,376,387,406,2025-05-27T22:42:37.861585
12802,-0.6759,0.1986,0.8184,157.115,45.185,-112.560,431,407,369,404,356,2025-05-27T22:42:37.861585
12803,-0.6939,0.3333,0.7159,165.725,43.540,-106.260,304,398,379,402,352,2025-05-27T22:42:37.861585
12804,-0.6759,0.4192,0.6207,172.760,47.810,-98.700,402,426,389,391,367,2025-05-27T22:42:37.861585
12805,-0.6944,0.5090,0.5632,180.670,53.865,-93.695,410,352,375,402,382,2025-05-27T22:42:37.861585
12806,-0.6944,0.5890,0.5431,187.005,58.030,-87.010,419,421,373,406,402,2025-05-27T22:42:37.861585
12807,-0.7632,0.6154,0.5065,192.430,54.390,-77.245,351,391,379,414,409,2025-05-27T22:42:37.861585
12808,-0.7691,0.6583,0.4612,193.830,41.825,-65.695,404,435,370,383,402,2025-05-27T22:42:38.169816
12809,-0.7291,0.7037,0.4372,194.460,27.755,-55.160,369,439,365,409,352,2025-05-27T22:42:38.169816
12810,-0.6564,0.7266,0.4075,194.635,20.615,-46.130,413,421,374,412,397,2025-05-27T22:42:38.169816
12811,-0.6080,0.7559,0.3816,194.355,14.035,-36.750,418,352,381,402,391,2025-05-27T22:42:38.169816
12812,-0.5788,0.7901,0.3445,193.760,6.055,-31.185,387,378,338,346,353,2025-05-27T22:42:38.169816
12813,-0.4865,0.7993,0.2948,191.870,1.330,-25.795,416,370,351,372,382,2025-05-27T22:42:38.169816
12814,-0.4734,0.8252,0.2523,191.030,-0.560,-20.825,379,413,357,387,384,2025-05-27T22:42:38.169816
12815,-0.4602,0.8501,0.2655,189.140,-3.745,-16.800,422,428,367,395,389,2025-05-27T22:42:38.169816
12816,-0.4031,0.9179,0.2294,182.140,-13.580,-10.780,424,409,374,416,410,2025-05-27T22:42:38.169816
12817,-0.3758,0.9887,0.2416,174.335,-20.965,-2.520,352,383,374,370,352,2025-05-27T22:42:38.169816
12818,-0.3445,0.9809,0.1932,161.525,-24.920,3.465,398,410,371,384,348,2025-05-27T22:42:38.169816
12819,-0.3133,0.9760,0.1923,151.060,-27.720,6.720,421,395,377,398,347,2025-05-27T22:42:38.169816
12820,-0.2830,0.9740,0.1830,140.595,-30.170,7.175,418,372,370,395,365,2025-05-27T22:42:38.169816
12821,-0.2752,0.9672,0.1635,132.685,-31.850,6.860,416,376,331,406,394,2025-05-27T22:42:38.169816
12822,-0.2606,0.9599,0.1610,127.470,-35.035,7.420,406,403,357,419,402,2025-05-27T22:42:38.169816
12823,-0.2250,0.9780,0.1571,121.030,-38.150,9.275,386,375,359,413,410,2025-05-27T22:42:38.169816
12824,-0.1889,1.0170,0.1420,113.715,-35.735,10.570,387,378,298,356,363,2025-05-27T22:42:38.169816
12825,-0.1620,1.0487,0.1410,102.375,-31.745,11.235,410,424,343,390,400,2025-05-27T22:42:38.169816
12826,-0.1684,1.0390,0.1508,91.735,-28.105,12.530,360,425,359,409,386,2025-05-27T22:42:38.169816
12827,-0.1664,1.0297,0.1503,83.160,-28.175,13.370,412,417,333,411,388,2025-05-27T22:42:38.169816
12828,-0.1625,1.0214,0.1713,76.545,-29.750,13.230,391,404,355,415,342,2025-05-27T22:42:38.336496
12829,-0.1244,1.0170,0.1830,70.280,-30.135,12.425,427,419,375,394,345,2025-05-27T22:42:38.336496
12830,-0.1074,1.0238,0.1796,64.820,-29.715,11.200,399,391,380,401,368,2025-05-27T22:42:38.336496
12831,-0.0981,1.0409,0.1742,60.970,-30.345,9.835,369,409,384,351,391,2025-05-27T22:42:38.336496
12832,-0.0791,1.0682,0.1830,54.880,-31.430,10.045,387,395,374,396,408,2025-05-27T22:42:38.336496
12833,-0.0512,1.0887,0.1932,46.900,-29.960,9.905,390,416,386,411,410,2025-05-27T22:42:38.336496
12834,-0.0229,1.0868,0.1947,39.445,-24.570,10.150,390,419,386,355,383,2025-05-27T22:42:38.336496
12835,-0.0346,1.0804,0.2157,32.900,-18.760,9.835,400,398,374,406,403,2025-05-27T22:42:38.336496
12836,-0.0644,1.0604,0.2357,27.440,-16.695,8.820,410,420,387,400,408,2025-05-27T22:42:38.336496
12837,-0.0898,1.0424,0.2596,24.010,-19.705,8.225,418,404,394,401,404,2025-05-27T22:42:38.336496
12838,-0.1088,1.0336,0.2850,20.440,-23.975,7.665,395,346,395,351,381,2025-05-27T22:42:38.336496
12839,-0.0961,1.0194,0.2982,18.375,-29.470,8.330,388,360,402,392,358,2025-05-27T22:42:38.336496
12840,-0.0576,1.0004,0.2821,18.130,-31.220,9.660,396,413,398,390,339,2025-05-27T22:42:38.336496
12841,-0.0454,0.9897,0.2948,17.220,-26.250,8.365,399,424,385,390,369,2025-05-27T22:42:38.336496
12842,-0.0439,0.9970,0.3079,15.015,-19.635,6.510,417,423,369,407,335,2025-05-27T22:42:38.336496
12843,-0.0200,0.9799,0.3070,14.210,-14.420,8.050,392,388,382,366,390,2025-05-27T22:42:38.336496
12844,-0.0205,0.9726,0.2904,13.545,-7.805,8.225,423,424,352,382,407,2025-05-27T22:42:38.336496
12845,-0.0327,0.9819,0.3138,11.585,2.625,6.545,428,428,343,415,402,2025-05-27T22:42:38.336496
12846,-0.0615,0.9994,0.3318,8.925,9.100,5.005,425,404,356,418,413,2025-05-27T22:42:38.336496
12847,-0.0844,0.9877,0.3343,7.210,9.345,5.600,422,433,373,420,362,2025-05-27T22:42:38.336496
12848,-0.1083,0.9853,0.3338,6.720,8.295,5.845,425,405,363,406,380,2025-05-27T22:42:38.336496
12849,-0.1044,0.9955,0.3426,5.740,6.335,4.795,359,332,378,358,402,2025-05-27T22:42:38.526241
12850,-0.1142,0.9931,0.3533,3.465,2.870,2.975,370,360,382,383,406,2025-05-27T22:42:38.526241
12851,-0.1064,0.9882,0.3504,2.065,-3.745,2.835,397,388,374,401,414,2025-05-27T22:42:38.526241
12852,-0.1010,0.9682,0.3455,3.255,-11.690,3.325,417,415,389,394,351,2025-05-27T22:42:38.526241
12853,-0.0864,0.9662,0.3362,5.845,-18.305,3.605,415,415,389,376,383,2025-05-27T22:42:38.526241
12854,-0.0410,0.9809,0.3235,7.245,-19.985,3.290,419,401,386,408,409,2025-05-27T22:42:38.526241
12855,-0.0337,0.9906,0.3196,6.055,-17.360,2.450,396,394,380,408,356,2025-05-27T22:42:38.526241
12856,-0.0127,0.9882,0.3026,4.690,-12.880,1.785,369,419,338,411,382,2025-05-27T22:42:38.526241
12857,-0.0083,0.9731,0.2928,3.430,-6.825,0.805,293,399,354,415,377,2025-05-27T22:42:38.526241
12858,-0.0220,0.9755,0.2982,2.975,0.735,-0.525,312,411,355,401,383,2025-05-27T22:42:38.526241
12859,-0.0351,0.9750,0.3074,2.275,5.110,-1.330,373,424,339,411,394,2025-05-27T22:42:38.526241
12860,-0.0551,0.9775,0.3079,2.030,7.875,-1.680,390,422,367,404,409,2025-05-27T22:42:38.526241
12861,-0.0742,0.9780,0.3065,1.855,9.765,-2.310,410,437,378,372,419,2025-05-27T22:42:38.526241
12862,-0.0986,0.9755,0.3118,1.575,9.450,-2.310,413,423,373,380,372,2025-05-27T22:42:38.526241
12863,-0.1181,0.9750,0.3143,1.435,7.560,-1.960,401,423,362,384,398,2025-05-27T22:42:38.526241
12864,-0.1342,0.9731,0.3192,0.665,4.655,-2.100,377,424,376,376,395,2025-05-27T22:42:38.526241
12865,-0.1484,0.9697,0.3177,-0.455,1.610,-2.135,380,418,385,402,409,2025-05-27T22:42:38.526241
12866,-0.1459,0.9711,0.3152,-1.400,-0.560,-1.995,409,421,372,367,406,2025-05-27T22:42:38.526241
12867,-0.1459,0.9687,0.3187,-2.835,-0.630,-1.890,412,354,379,392,353,2025-05-27T22:42:38.526241
12868,-0.1610,0.9667,0.3328,-4.375,-0.525,-1.225,407,390,339,406,394,2025-05-27T22:42:38.526241
12869,-0.1708,0.9633,0.3382,-5.390,-1.785,-0.245,348,367,366,426,394,2025-05-27T22:42:38.526241
12870,-0.1737,0.9526,0.3304,-5.635,-2.135,0.840,395,336,375,397,344,2025-05-27T22:42:38.742212
12871,-0.1688,0.9492,0.3382,-5.565,-0.280,1.505,394,394,384,396,351,2025-05-27T22:42:38.750090
12872,-0.1596,0.9462,0.3436,-5.845,1.925,2.485,395,404,377,409,391,2025-05-27T22:42:38.750090
12873,-0.1693,0.9316,0.3426,-5.845,3.010,3.045,403,428,357,409,388,2025-05-27T22:42:38.750090
12874,-0.1747,0.9292,0.3489,-5.110,2.835,3.535,407,409,372,402,394,2025-05-27T22:42:38.750090
12875,-0.1747,0.9252,0.3509,-4.725,1.120,4.200,393,415,385,402,368,2025-05-27T22:42:38.750748
12876,-0.1601,0.9170,0.3411,-4.410,-0.420,4.725,410,423,380,415,393,2025-05-27T22:42:38.750748
12877,-0.1537,0.9077,0.3314,-3.570,-0.280,4.760,420,425,367,413,397,2025-05-27T22:42:38.750748
12878,-0.1488,0.9038,0.3260,-2.170,0.070,4.760,421,418,373,412,346,2025-05-27T22:42:38.750748
12879,-0.1464,0.9038,0.3211,-1.120,1.400,4.095,406,415,385,399,384,2025-05-27T22:42:38.750748
12880,-0.1420,0.9057,0.3201,-1.050,3.500,3.045,422,401,377,416,347,2025-05-27T22:42:38.750748
12881,-0.1410,0.9077,0.3216,-1.225,5.180,2.835,425,404,392,414,375,2025-05-27T22:42:38.750748
12882,-0.1518,0.9077,0.3201,-1.645,5.600,1.855,415,419,378,401,384,2025-05-27T22:42:38.750748
12883,-0.1581,0.9135,0.3245,-1.225,5.145,1.295,393,405,381,396,402,2025-05-27T22:42:38.750748
12884,-0.1649,0.9174,0.3309,-1.015,3.710,0.770,412,378,388,388,352,2025-05-27T22:42:38.750748
12885,-0.1786,0.9184,0.3333,-0.980,1.400,0.455,349,398,375,387,364,2025-05-27T22:42:38.750748
12886,-0.1713,0.9189,0.3299,-0.595,-0.490,0.630,352,391,382,411,389,2025-05-27T22:42:38.750748
12887,-0.1845,0.9194,0.3265,0.070,-1.085,0.280,378,409,381,395,404,2025-05-27T22:42:38.752278
12888,-0.1718,0.9257,0.3279,0.140,-0.455,0.070,421,430,387,399,405,2025-05-27T22:42:38.850188
12889,-0.1708,0.9340,0.3372,-1.015,0.980,-0.105,410,417,388,360,397,2025-05-27T22:42:38.850188
12890,-0.1791,0.9292,0.3377,-2.485,1.750,0.245,396,414,381,399,404,2025-05-27T22:42:38.850663
12891,-0.1806,0.9262,0.3445,-3.185,2.030,0.490,386,305,383,402,367,2025-05-27T22:42:38.850663
12892,-0.1830,0.9184,0.3499,-3.920,2.625,0.525,410,379,376,411,388,2025-05-27T22:42:39.643995
12893,-0.1830,0.9140,0.3538,-4.270,2.940,0.280,424,399,381,391,385,2025-05-27T22:42:39.643995
12894,-0.1898,0.9067,0.3543,-3.920,0.770,0.630,430,438,389,404,350,2025-05-27T22:42:39.645004
12895,-0.2025,0.8989,0.3631,-3.465,-2.520,0.805,413,405,392,403,380,2025-05-27T22:42:39.645004
12896,-0.1986,0.8769,0.3587,-3.045,-5.740,1.015,300,397,384,412,340,2025-05-27T22:42:39.645004
12897,-0.1908,0.8560,0.3509,-1.470,-9.520,0.770,354,385,385,395,384,2025-05-27T22:42:39.645276
12898,-0.1713,0.8506,0.3484,-1.120,-10.990,0.210,337,417,391,407,386,2025-05-27T22:42:39.645276
12899,-0.1606,0.8286,0.3289,-2.100,-10.255,-0.385,396,367,371,411,391,2025-05-27T22:42:39.645276
12900,-0.1488,0.8081,0.3123,-2.940,-9.345,-1.225,419,382,368,424,392,2025-05-27T22:42:39.645276
12901,-0.1566,0.7862,0.3104,-3.150,-9.205,-2.100,381,418,337,414,364,2025-05-27T22:42:39.645276
12902,-0.1586,0.7579,0.3060,-3.500,-9.660,-2.800,409,349,362,373,396,2025-05-27T22:42:39.645276
12903,-0.1581,0.7330,0.3109,-4.235,-10.570,-3.010,341,372,366,352,345,2025-05-27T22:42:39.645276
12904,-0.1791,0.7125,0.3148,-5.110,-11.725,-2.975,381,380,378,390,391,2025-05-27T22:42:39.645276
12905,-0.1830,0.6798,0.3123,-6.020,-12.390,-2.835,402,401,369,405,405,2025-05-27T22:42:39.645276
12906,-0.2098,0.6495,0.3226,-6.265,-12.915,-1.995,392,410,385,406,392,2025-05-27T22:42:39.645276
12907,-0.2542,0.6373,0.3543,-6.615,-14.875,-2.870,409,423,378,355,404,2025-05-27T22:42:39.645276
12908,-0.2728,0.6183,0.3714,-8.470,-18.200,-4.760,407,409,340,398,377,2025-05-27T22:42:39.645276
12909,-0.2694,0.6368,0.3997,-12.180,-21.945,-7.105,415,344,362,416,361,2025-05-27T22:42:39.645276
12910,-0.2494,0.6603,0.4036,-17.080,-23.660,-11.515,409,410,380,399,372,2025-05-27T22:42:39.645276
12911,-0.2313,0.7042,0.4294,-23.100,-24.955,-18.025,424,422,393,383,388,2025-05-27T22:42:39.645276
12912,-0.2269,0.8125,0.4802,-30.660,-28.560,-26.775,414,429,392,345,395,2025-05-27T22:42:39.645276
12913,-0.2206,0.9379,0.5422,-38.115,-36.400,-36.680,425,425,391,375,348,2025-05-27T22:42:39.645276
12914,-0.2011,1.0936,0.6110,-48.265,-48.615,-47.600,376,425,394,340,395,2025-05-27T22:42:39.645276
12915,-0.1728,1.2708,0.6461,-56.770,-58.345,-58.555,420,423,379,328,402,2025-05-27T22:42:39.645276
12916,-0.1127,1.4635,0.6920,-65.380,-68.425,-65.975,405,398,376,350,411,2025-05-27T22:42:39.645276
12917,-0.0142,1.7109,0.7076,-78.015,-74.865,-72.205,410,417,367,372,421,2025-05-27T22:42:39.645276
12918,0.0898,1.9881,0.7296,-93.345,-76.930,-71.785,412,362,378,334,421,2025-05-27T22:42:39.646274
12919,0.2167,2.2941,0.6715,-114.485,-73.220,-65.975,389,390,339,394,365,2025-05-27T22:42:39.646274
12920,0.3392,2.6093,0.5729,-120.260,-63.280,-55.475,402,374,335,383,386,2025-05-27T22:42:39.646274
12921,0.4568,2.8763,0.4660,-133.210,-52.360,-34.300,402,421,356,407,402,2025-05-27T22:42:39.646274
12922,0.5129,3.0183,0.2943,-145.705,-36.190,-3.920,383,404,325,390,413,2025-05-27T22:42:39.646274
12923,0.5651,3.0724,0.0390,-154.210,-16.730,25.200,391,427,361,392,400,2025-05-27T22:42:39.646274
12924,0.5592,2.9924,-0.2245,-159.285,2.800,64.190,409,402,365,386,373,2025-05-27T22:42:39.646274
12925,0.5309,2.8563,-0.6046,-162.435,24.920,103.075,397,407,364,389,381,2025-05-27T22:42:39.646274
12926,0.4675,2.6811,-0.7471,-167.580,52.780,135.625,409,413,381,379,395,2025-05-27T22:42:39.646274
12927,0.3172,2.4444,-1.0336,-175.630,82.775,158.095,419,404,374,397,402,2025-05-27T22:42:39.646274
12928,0.0752,2.1994,-1.2517,-189.910,100.730,171.290,366,340,388,399,397,2025-05-27T22:42:39.646274
12929,-0.1723,1.9349,-1.4084,-207.795,108.220,180.355,332,407,380,362,388,2025-05-27T22:42:39.646274
12930,-0.3689,1.6768,-1.5557,-222.215,103.740,183.645,406,406,372,396,403,2025-05-27T22:42:39.646274
12931,-0.5270,1.4738,-1.6084,-232.855,103.425,174.545,393,419,378,394,373,2025-05-27T22:42:39.646274
12932,-0.6037,1.2732,-1.5689,-242.900,116.060,164.255,402,351,377,389,389,2025-05-27T22:42:39.646274
12933,-0.8481,1.0990,-1.4811,-256.340,134.610,152.460,386,333,365,403,349,2025-05-27T22:42:39.646274
12934,-1.2049,0.8359,-1.2366,-266.945,143.010,136.990,384,384,382,406,380,2025-05-27T22:42:39.646274
12935,-1.6246,0.4670,-0.9116,-273.140,132.020,115.290,424,373,381,387,397,2025-05-27T22:42:39.646274
12936,-1.9383,0.0239,-0.6495,-274.155,102.095,95.270,389,412,387,383,397,2025-05-27T22:42:39.646274
12937,-2.2131,-0.4860,-0.3694,-270.900,61.600,80.045,423,389,387,380,398,2025-05-27T22:42:39.646274
12938,-2.3912,-1.0463,-0.0483,-260.330,11.165,72.940,417,416,362,362,403,2025-05-27T22:42:39.646274
12939,-2.3595,-1.5723,0.2884,-243.880,-28.455,60.725,416,426,337,379,398,2025-05-27T22:42:39.646274
12940,-1.9823,-2.0403,0.5783,-225.960,-58.205,55.265,364,411,359,341,398,2025-05-27T22:42:39.646274
12941,-1.6241,-2.3985,0.8882,-202.580,-52.080,58.485,352,346,342,392,393,2025-05-27T22:42:39.646274
12942,-1.3835,-2.7235,1.3069,-179.270,-40.320,55.055,370,409,353,405,400,2025-05-27T22:42:39.646274
12943,-1.1405,-2.8441,1.6929,-160.685,-52.955,53.865,371,399,364,373,405,2025-05-27T22:42:39.649656
12944,-0.9672,-3.0080,1.9276,-137.690,-81.340,59.745,405,398,367,381,407,2025-05-27T22:42:39.649656
12945,-0.6061,-3.1198,1.9866,-100.485,-108.010,64.120,420,417,333,396,315,2025-05-27T22:42:39.649656
12946,-0.1152,-3.0012,2.1091,-57.400,-108.990,56.595,342,405,350,389,350,2025-05-27T22:42:39.649656
12947,0.3436,-2.7435,2.0354,-22.470,-79.380,42.945,395,422,359,408,389,2025-05-27T22:42:39.650829
12948,0.6715,-2.4107,1.9276,17.325,-38.535,24.500,390,430,335,392,387,2025-05-27T22:42:39.650890
12949,0.8242,-2.0257,1.8139,54.705,18.830,1.785,386,414,368,367,401,2025-05-27T22:42:39.651030
12950,0.6432,-1.7749,1.7080,86.275,65.450,-19.390,413,401,368,385,413,2025-05-27T22:42:39.651030
12951,0.3377,-1.4464,1.5816,109.060,79.065,-43.715,418,405,376,410,361,2025-05-27T22:42:39.651030
12952,0.0073,-1.1868,1.4157,130.830,65.485,-64.435,406,413,367,409,385,2025-05-27T22:42:39.651030
12953,-0.2796,-0.9272,1.1927,146.020,36.680,-81.690,415,429,384,402,404,2025-05-27T22:42:39.651407
12954,-0.4114,-0.6124,0.9999,157.535,14.525,-93.555,433,427,385,394,408,2025-05-27T22:42:39.651616
12955,-0.4680,-0.3240,0.7979,159.985,-5.845,-101.045,412,435,377,410,392,2025-05-27T22:42:39.651616
12956,-0.4904,-0.0625,0.6061,159.285,-14.595,-104.825,379,408,347,387,392,2025-05-27T22:42:39.651753
12957,-0.4768,0.1259,0.4514,158.970,-11.970,-106.505,361,406,363,401,386,2025-05-27T22:42:39.651753
12958,-0.4333,0.3343,0.3743,157.395,0.070,-101.780,399,429,372,415,402,2025-05-27T22:42:39.651753
12959,-0.4641,0.4431,0.3518,154.105,14.175,-93.345,397,400,374,425,387,2025-05-27T22:42:39.651753
12960,-0.4953,0.5314,0.3977,152.950,20.790,-85.505,413,389,365,395,383,2025-05-27T22:42:39.651753
12961,-0.5085,0.5607,0.3928,153.475,20.335,-77.700,400,389,372,390,395,2025-05-27T22:42:39.651753
12962,-0.4987,0.6076,0.4016,156.940,18.270,-68.670,393,417,374,404,397,2025-05-27T22:42:39.804229
12963,-0.4573,0.6637,0.4270,159.950,16.835,-61.390,389,405,379,389,400,2025-05-27T22:42:39.804229
12964,-0.4260,0.7032,0.4436,160.020,15.365,-56.315,421,421,385,389,402,2025-05-27T22:42:39.817395
12965,-0.3894,0.7354,0.4680,159.880,16.100,-50.295,432,385,342,415,396,2025-05-27T22:42:39.817593
12966,-0.3587,0.7540,0.4924,161.140,18.935,-45.465,380,404,371,392,356,2025-05-27T22:42:39.817813
12967,-0.3709,0.7652,0.5183,163.240,23.030,-41.685,356,403,370,346,388,2025-05-27T22:42:39.817889
12968,-0.3680,0.7925,0.5275,164.465,23.520,-36.155,374,402,380,339,397,2025-05-27T22:42:39.817889
12969,-0.3743,0.8379,0.5568,165.410,22.855,-29.645,403,390,377,388,393,2025-05-27T22:42:39.817889
12970,-0.3387,0.8413,0.5383,165.935,20.580,-23.100,396,417,378,408,312,2025-05-27T22:42:39.817889
12971,-0.3323,0.8638,0.5295,166.250,20.230,-21.245,428,359,365,408,359,2025-05-27T22:42:39.818329
12972,-0.3167,0.8833,0.5129,165.970,18.690,-19.075,398,294,366,414,391,2025-05-27T22:42:39.818329
12973,-0.3040,0.9267,0.4817,163.835,13.160,-15.960,405,380,351,412,406,2025-05-27T22:42:39.818528
12974,-0.2718,0.9867,0.4670,158.865,8.505,-14.805,393,390,368,412,371,2025-05-27T22:42:39.818600
12975,-0.2547,1.0111,0.4695,153.090,6.650,-13.195,396,425,364,365,373,2025-05-27T22:42:39.818600
12976,-0.2547,1.0219,0.4270,145.390,3.885,-12.215,397,399,379,395,388,2025-05-27T22:42:39.969099
12977,-0.2879,1.0292,0.4280,138.005,-5.180,-12.075,404,373,378,418,388,2025-05-27T22:42:39.969099
12978,-0.3035,1.0228,0.4260,130.165,-14.175,-11.795,418,419,385,404,399,2025-05-27T22:42:39.969099
12979,-0.2982,1.0043,0.4099,123.375,-26.355,-10.500,424,429,388,414,352,2025-05-27T22:42:39.969099
12980,-0.2840,1.0053,0.3972,116.830,-36.365,-9.100,379,427,394,354,394,2025-05-27T22:42:39.969099
12981,-0.2513,1.0194,0.3577,110.285,-40.565,-7.910,388,409,377,376,402,2025-05-27T22:42:39.969099
12982,-0.2196,1.0399,0.3284,103.285,-40.565,-4.865,413,416,342,391,401,2025-05-27T22:42:39.969099
12983,-0.2123,1.0433,0.3001,97.230,-37.695,-2.660,404,396,368,345,397,2025-05-27T22:42:39.969099
12984,-0.1840,1.0453,0.2772,89.670,-34.055,-1.470,392,370,375,391,406,2025-05-27T22:42:39.969099
12985,-0.1737,1.0302,0.2611,82.915,-27.160,-0.665,339,334,377,402,367,2025-05-27T22:42:39.969099
12986,-0.1815,1.0219,0.2582,76.825,-20.545,-0.770,382,398,395,344,392,2025-05-27T22:42:39.969099
12987,-0.1815,1.0272,0.2645,71.015,-16.730,-1.190,418,429,385,387,349,2025-05-27T22:42:39.969099
12988,-0.1908,1.0150,0.2518,66.535,-15.505,-1.155,428,434,380,301,363,2025-05-27T22:42:39.969099
12989,-0.1991,0.9999,0.2264,62.825,-16.100,-0.385,431,424,340,376,342,2025-05-27T22:42:39.969099
12990,-0.1864,1.0072,0.2167,58.625,-17.150,0.490,377,420,326,388,381,2025-05-27T22:42:40.072706
12991,-0.1747,1.0097,0.2142,52.955,-17.640,1.540,414,406,362,308,390,2025-05-27T22:42:40.072706
12992,-0.1791,1.0097,0.2269,46.935,-17.885,2.380,403,406,343,360,351,2025-05-27T22:42:40.072706
12993,-0.1801,1.0048,0.2289,41.230,-19.670,2.660,412,413,370,352,382,2025-05-27T22:42:40.072706
12994,-0.1752,0.9975,0.2250,37.275,-21.700,2.905,416,411,365,398,400,2025-05-27T22:42:40.072706
12995,-0.1635,0.9931,0.2289,33.110,-22.295,3.115,412,407,381,399,409,2025-05-27T22:42:40.072706
12996,-0.1571,0.9897,0.2460,29.225,-21.840,2.205,414,418,377,397,348,2025-05-27T22:42:40.072706
12997,-0.1557,0.9823,0.2645,25.620,-22.400,2.275,413,404,369,393,370,2025-05-27T22:42:40.072706
12998,-0.1728,0.9677,0.2845,24.220,-25.410,2.345,421,341,369,390,377,2025-05-27T22:42:40.072706
12999,-0.1635,0.9687,0.3006,23.520,-30.065,2.240,406,389,377,401,394,2025-05-27T22:42:40.301040
13000,-0.1249,0.9736,0.3050,22.820,-31.430,2.310,361,387,382,420,363,2025-05-27T22:42:40.301040
13001,-0.0956,0.9721,0.2933,22.015,-26.845,1.470,400,376,376,355,371,2025-05-27T22:42:40.301040
13002,-0.0747,0.9755,0.2923,21.350,-21.280,0.595,389,395,369,377,339,2025-05-27T22:42:40.301040
13003,-0.0664,0.9877,0.2948,19.915,-14.630,0.105,387,405,374,342,346,2025-05-27T22:42:40.301040
13004,-0.0727,0.9848,0.2889,19.040,-8.960,-0.490,397,413,368,381,371,2025-05-27T22:42:40.302040
13005,-0.0820,1.0009,0.2962,18.095,-4.655,-1.435,392,412,335,341,373,2025-05-27T22:42:40.302040
13006,-0.0971,1.0102,0.3099,16.205,-2.975,-2.310,335,418,350,338,399,2025-05-27T22:42:40.302040
13007,-0.1152,1.0150,0.3270,12.880,-2.975,-3.465,397,419,365,396,404,2025-05-27T22:42:40.302040
13008,-0.1235,1.0077,0.3284,9.940,-5.810,-3.780,358,404,381,411,394,2025-05-27T22:42:40.302040
13009,-0.1532,0.9980,0.3309,8.715,-11.550,-4.060,380,423,371,401,396,2025-05-27T22:42:40.302040
13010,-0.1508,0.9906,0.3299,8.260,-17.745,-4.725,415,401,367,342,399,2025-05-27T22:42:40.302614
13011,-0.1415,0.9945,0.3284,7.735,-20.580,-5.635,417,337,379,397,399,2025-05-27T22:42:40.302710
13012,-0.1225,0.9980,0.3206,6.230,-19.285,-6.195,391,398,386,386,397,2025-05-27T22:42:40.302710
13013,-0.1186,0.9984,0.3123,4.200,-14.840,-6.160,409,396,397,397,406,2025-05-27T22:42:40.302710
13014,-0.1322,0.9975,0.3094,2.310,-10.080,-5.950,360,377,393,417,406,2025-05-27T22:42:40.302710
13015,-0.1601,0.9965,0.3143,0.560,-7.525,-5.320,410,417,386,420,415,2025-05-27T22:42:40.302710
13016,-0.1796,0.9858,0.3104,-0.385,-7.910,-4.690,401,426,383,395,406,2025-05-27T22:42:40.303333
13017,-0.1952,0.9775,0.3148,-0.630,-8.750,-3.395,404,430,371,400,399,2025-05-27T22:42:40.557429
13018,-0.1991,0.9731,0.3118,-0.805,-10.080,-2.030,398,429,366,411,388,2025-05-27T22:42:40.557429
13019,-0.1986,0.9653,0.3099,-0.805,-10.360,-0.980,352,432,369,401,395,2025-05-27T22:42:40.557429
13020,-0.2020,0.9653,0.3279,-1.575,-9.730,-0.175,382,408,377,346,349,2025-05-27T22:42:40.557429
13021,-0.1845,0.9467,0.3201,-1.890,-9.205,1.260,396,357,382,392,372,2025-05-27T22:42:40.557429
13022,-0.1791,0.9321,0.3152,-1.330,-8.050,2.205,351,382,378,416,353,2025-05-27T22:42:40.557429
13023,-0.1830,0.9331,0.3304,-0.770,-5.845,2.240,383,421,370,417,388,2025-05-27T22:42:40.557429
13024,-0.1801,0.9316,0.3294,-0.910,-5.110,2.800,344,420,387,354,405,2025-05-27T22:42:40.557429
13025,-0.1806,0.9213,0.3274,-0.630,-5.040,3.325,395,405,374,397,407,2025-05-27T22:42:40.557429
13026,-0.1757,0.9155,0.3274,0.385,-4.235,3.325,383,404,382,404,372,2025-05-27T22:42:40.557429
13027,-0.1684,0.9130,0.3289,0.910,-3.885,3.325,392,432,378,399,376,2025-05-27T22:42:40.557429
13028,-0.1703,0.9106,0.3323,0.840,-3.815,3.115,354,411,371,405,406,2025-05-27T22:42:40.557429
13029,-0.1718,0.9057,0.3235,0.735,-3.570,2.415,389,341,382,411,415,2025-05-27T22:42:40.557429
13030,-0.1723,0.8945,0.3211,0.910,-3.850,1.890,409,323,391,410,359,2025-05-27T22:42:40.558471
13031,-0.1859,0.8882,0.3260,1.120,-4.585,1.470,358,412,397,393,385,2025-05-27T22:42:40.558471
13032,-0.1898,0.8926,0.3333,1.225,-5.810,1.085,409,394,388,413,394,2025-05-27T22:42:40.558471
13033,-0.1845,0.8916,0.3274,0.665,-6.475,0.350,373,410,384,404,407,2025-05-27T22:42:40.558471
13034,-0.1771,0.8872,0.3265,0.105,-5.530,-0.385,381,412,343,390,409,2025-05-27T22:42:40.558471
13035,-0.1728,0.8828,0.3270,0.210,-4.305,-0.910,403,418,354,405,416,2025-05-27T22:42:40.558471
13036,-0.1776,0.8769,0.3299,1.470,-4.130,-0.770,416,396,372,400,405,2025-05-27T22:42:40.558471
13037,-0.1835,0.8808,0.3416,3.255,-4.620,-1.015,402,404,382,399,385,2025-05-27T22:42:40.709346
13038,-0.1850,0.8916,0.3518,3.990,-4.270,-2.065,387,341,376,414,390,2025-05-27T22:42:40.709346
13039,-0.1820,0.9013,0.3543,4.340,-3.255,-2.730,416,380,372,412,358,2025-05-27T22:42:40.709346
13040,-0.1854,0.9145,0.3504,4.515,-2.520,-2.940,414,377,366,391,388,2025-05-27T22:42:40.709346
13041,-0.1820,0.9267,0.3440,4.165,-1.260,-3.290,397,413,365,390,414,2025-05-27T22:42:40.709346
13042,-0.1801,0.9316,0.3265,3.990,-0.455,-3.430,397,396,372,350,412,2025-05-27T22:42:41.359266
13043,-0.1757,0.9443,0.3196,3.850,1.050,-3.465,421,401,373,391,424,2025-05-27T22:42:41.359266
13044,-0.1845,0.9536,0.3113,2.940,2.870,-3.500,426,424,375,404,360,2025-05-27T22:42:41.359266
13045,-0.1923,0.9584,0.3118,2.065,4.445,-3.325,363,339,368,404,404,2025-05-27T22:42:41.359266
13046,-0.2108,0.9599,0.3157,1.190,3.955,-2.940,365,407,379,404,389,2025-05-27T22:42:41.359266
13047,-0.2191,0.9560,0.3084,0.595,1.995,-2.625,327,418,393,392,403,2025-05-27T22:42:41.359266
13048,-0.2201,0.9575,0.3094,0.105,-0.245,-2.030,380,305,344,364,364,2025-05-27T22:42:41.359266
13049,-0.2220,0.9604,0.3128,-1.575,-2.135,-1.610,398,397,353,368,381,2025-05-27T22:42:41.359266
13050,-0.2338,0.9516,0.3060,-2.380,-5.075,-0.560,399,335,366,410,370,2025-05-27T22:42:41.359266
13051,-0.2357,0.9540,0.3099,-2.310,-8.435,0.665,390,329,365,395,375,2025-05-27T22:42:41.360247
13052,-0.2250,0.9545,0.3094,-2.870,-10.850,0.805,417,372,380,416,406,2025-05-27T22:42:41.360247
13053,-0.1937,0.9506,0.2982,-3.990,-9.765,1.470,404,345,373,401,401,2025-05-27T22:42:41.360247
13054,-0.1854,0.9467,0.2996,-4.690,-6.580,2.030,394,401,371,391,394,2025-05-27T22:42:41.360247
13055,-0.1810,0.9394,0.3045,-5.180,-3.465,2.520,396,416,376,415,399,2025-05-27T22:42:41.360247
13056,-0.1957,0.9296,0.3172,-5.355,-1.470,3.185,418,427,363,411,395,2025-05-27T22:42:41.360247
13057,-0.2059,0.9252,0.3333,-5.285,-1.050,3.605,417,407,371,401,405,2025-05-27T22:42:41.360247
13058,-0.2201,0.9179,0.3416,-5.145,-3.150,3.640,390,399,364,373,389,2025-05-27T22:42:41.360247
13059,-0.2240,0.9048,0.3455,-4.445,-6.265,3.780,387,421,378,401,393,2025-05-27T22:42:41.360247
13060,-0.2113,0.8965,0.3528,-3.535,-9.730,3.360,388,431,379,410,410,2025-05-27T22:42:41.360247
13061,-0.1937,0.8843,0.3421,-2.450,-10.920,2.555,389,397,367,396,420,2025-05-27T22:42:41.360247
13062,-0.1767,0.8701,0.3328,-1.295,-9.800,1.750,408,419,378,405,407,2025-05-27T22:42:41.360247
13063,-0.1625,0.8642,0.3299,-0.105,-6.755,0.280,419,430,380,357,393,2025-05-27T22:42:41.360247
13064,-0.1542,0.8545,0.3221,0.665,-3.290,-0.910,422,424,386,396,368,2025-05-27T22:42:41.360247
13065,-0.1820,0.8408,0.3216,1.400,-1.190,-2.275,423,410,381,403,395,2025-05-27T22:42:41.360247
13066,-0.1928,0.8257,0.3250,2.275,-1.680,-3.360,395,411,343,417,387,2025-05-27T22:42:41.360247
13067,-0.2059,0.8057,0.3245,2.660,-3.675,-4.970,414,420,376,416,383,2025-05-27T22:42:41.360247
13068,-0.2079,0.7823,0.3104,2.975,-5.040,-6.020,400,428,386,418,397,2025-05-27T22:42:41.360247
13069,-0.2123,0.7525,0.3001,3.675,-5.180,-7.280,411,426,395,404,354,2025-05-27T22:42:41.360247
13070,-0.2147,0.7178,0.2889,4.060,-4.760,-8.225,414,405,394,410,377,2025-05-27T22:42:41.360247
13071,-0.2172,0.6852,0.2713,4.865,-3.815,-9.660,401,338,385,403,395,2025-05-27T22:42:41.360247
13072,-0.2255,0.6564,0.2572,5.670,-3.185,-10.570,399,378,388,392,347,2025-05-27T22:42:41.360247
13073,-0.2118,0.6573,0.2416,5.075,-1.260,-11.235,408,392,356,410,376,2025-05-27T22:42:41.361246
13074,-0.2035,0.6510,0.2220,3.115,3.430,-11.865,380,392,340,399,375,2025-05-27T22:42:41.361246
13075,-0.2294,0.6505,0.2089,2.345,7.945,-11.340,338,423,346,414,402,2025-05-27T22:42:41.361246
13076,-0.2567,0.6690,0.2142,2.065,8.190,-9.905,341,428,370,405,395,2025-05-27T22:42:41.361246
13077,-0.2772,0.7066,0.2328,1.295,4.795,-8.155,404,404,337,415,402,2025-05-27T22:42:41.361246
13078,-0.2933,0.7603,0.2562,-0.385,0.140,-6.125,397,399,353,405,411,2025-05-27T22:42:41.361246
13079,-0.2762,0.8433,0.2684,-2.240,-6.615,-4.130,407,417,367,392,416,2025-05-27T22:42:41.361246
13080,-0.2406,0.9755,0.2972,-4.165,-13.475,-2.975,421,392,380,360,415,2025-05-27T22:42:41.361246
13081,-0.1625,1.1448,0.3104,-7.630,-17.115,-3.955,341,384,388,401,408,2025-05-27T22:42:41.361246
13082,-0.0756,1.3596,0.3138,-12.390,-17.535,-5.705,384,393,378,369,393,2025-05-27T22:42:41.361246
13083,0.0356,1.5543,0.3138,-19.775,-13.125,-8.365,410,401,372,391,386,2025-05-27T22:42:41.361246
13084,0.1752,1.8198,0.3045,-31.430,-4.375,-9.625,380,377,336,363,399,2025-05-27T22:42:41.361246
13085,0.2664,2.0964,0.3113,-53.655,8.050,-8.715,395,409,353,405,388,2025-05-27T22:42:41.361246
13086,0.2884,2.3326,0.3338,-64.505,13.370,-7.945,370,359,365,387,376,2025-05-27T22:42:41.361246
13087,0.3040,2.5098,0.3440,-84.315,10.290,-3.815,387,332,370,388,386,2025-05-27T22:42:41.361246
13088,0.3518,2.6713,0.2850,-101.955,-0.105,2.450,418,387,335,385,396,2025-05-27T22:42:41.361246
13089,0.4548,2.7426,0.1625,-117.355,-6.545,14.455,423,412,332,413,401,2025-05-27T22:42:41.361246
13090,0.5534,2.7704,0.0381,-130.865,1.295,32.865,425,408,350,401,404,2025-05-27T22:42:41.361246
13091,0.5851,2.7513,-0.1303,-140.210,12.355,56.735,349,415,370,414,393,2025-05-27T22:42:41.361246
13092,0.6246,2.7064,-0.3450,-151.305,31.535,84.035,403,401,380,354,386,2025-05-27T22:42:41.361246
13093,0.6705,2.6137,-0.6237,-165.375,56.280,107.450,416,347,380,382,409,2025-05-27T22:42:41.361246
13094,0.6198,2.4810,-0.8569,-183.960,100.100,123.865,407,389,371,383,411,2025-05-27T22:42:41.361246
13095,0.4104,2.3190,-1.0477,-207.270,144.445,131.180,404,362,387,407,403,2025-05-27T22:42:41.361246
13096,0.0859,2.1535,-1.1956,-233.345,166.215,129.675,421,387,386,408,373,2025-05-27T22:42:41.361246
13097,-0.2162,1.9291,-1.3430,-256.480,162.260,117.215,428,402,355,381,395,2025-05-27T22:42:41.361246
13098,-0.5407,1.6631,-1.4928,-275.765,133.070,101.640,343,411,360,396,405,2025-05-27T22:42:41.361246
13099,-0.7959,1.4181,-1.5450,-296.940,89.670,78.365,393,418,335,412,367,2025-05-27T22:42:41.361246
13100,-0.9360,1.1283,-1.5801,-317.800,44.100,48.125,419,417,349,387,393,2025-05-27T22:42:41.361246
13101,-1.0692,0.6905,-1.6124,-344.645,16.940,23.940,412,302,370,375,388,2025-05-27T22:42:41.361246
13102,-1.3015,0.1752,-1.4869,-370.230,-2.940,-0.315,372,409,385,397,401,2025-05-27T22:42:41.361246
13103,-1.5338,-0.3338,-1.3361,-392.455,-26.670,-14.280,384,346,383,385,396,2025-05-27T22:42:41.361246
13104,-1.7309,-0.7340,-1.1863,-410.725,-53.655,-24.395,393,410,384,362,391,2025-05-27T22:42:41.519265
13105,-1.6880,-1.3400,-1.0331,-410.865,-77.000,-24.080,399,420,378,396,412,2025-05-27T22:42:41.519265
13106,-1.6704,-1.9252,-0.6959,-392.350,-82.040,-15.155,298,406,386,352,349,2025-05-27T22:42:41.519265
13107,-1.6504,-2.4722,-0.2118,-368.060,-82.775,-12.110,376,402,389,374,394,2025-05-27T22:42:41.519265
13108,-1.6143,-2.9729,0.2972,-337.715,-109.410,1.715,414,416,391,400,412,2025-05-27T22:42:41.519265
13109,-1.4254,-3.2159,0.9462,-298.410,-149.625,6.300,400,426,392,380,318,2025-05-27T22:42:41.519265
13110,-0.9418,-3.3740,1.2893,-251.790,-169.575,18.025,420,355,387,333,366,2025-05-27T22:42:41.519265
13111,-0.4665,-3.4721,1.4381,-189.350,-159.530,31.045,431,411,389,367,393,2025-05-27T22:42:41.519265
13112,0.1283,-3.3501,1.6021,-121.100,-125.475,38.290,402,365,382,405,346,2025-05-27T22:42:41.519265
13113,0.5778,-3.2208,1.6602,-49.280,-56.735,48.720,340,404,376,363,379,2025-05-27T22:42:41.519265
13114,0.8330,-2.8948,1.7241,11.900,22.435,43.400,386,415,383,391,399,2025-05-27T22:42:41.533493
13115,0.9482,-2.4668,1.7265,54.355,95.970,29.855,408,396,386,411,386,2025-05-27T22:42:41.533493
13116,0.7120,-2.1169,1.7387,79.030,140.735,15.680,406,430,393,351,387,2025-05-27T22:42:41.533493
13117,0.3274,-1.7993,1.6607,106.680,145.810,-2.030,427,426,394,389,347,2025-05-27T22:42:41.533493
13118,-0.0303,-1.5289,1.5474,129.500,124.985,-22.295,418,431,394,342,388,2025-05-27T22:42:41.534194
13119,-0.2508,-1.2693,1.3703,147.910,85.330,-35.560,376,433,393,328,346,2025-05-27T22:42:41.619282
13120,-0.3704,-1.0482,1.2107,163.870,45.150,-50.190,423,401,382,374,387,2025-05-27T22:42:41.619282
13121,-0.3704,-0.7886,1.0150,175.385,24.500,-60.165,390,420,390,346,392,2025-05-27T22:42:41.619282
13122,-0.3699,-0.5363,0.9013,183.015,27.615,-66.535,299,343,340,388,406,2025-05-27T22:42:41.619282
13123,-0.4368,-0.2923,0.8042,185.290,39.865,-68.845,320,417,370,409,416,2025-05-27T22:42:41.619282
13124,-0.4729,-0.0444,0.7305,187.005,46.095,-67.410,394,434,348,363,354,2025-05-27T22:42:41.619282
13125,-0.5173,0.1488,0.6734,184.940,50.680,-62.650,426,412,329,382,379,2025-05-27T22:42:41.619282
13126,-0.5505,0.2889,0.6232,183.295,52.465,-59.290,421,401,362,393,342,2025-05-27T22:42:41.619282
13127,-0.5758,0.3626,0.6080,184.520,45.360,-54.915,422,436,377,398,378,2025-05-27T22:42:41.851926
13128,-0.6271,0.4036,0.6046,188.860,27.685,-52.080,406,426,343,411,379,2025-05-27T22:42:41.851926
13129,-0.6002,0.4529,0.6037,193.725,7.210,-52.325,337,419,365,400,388,2025-05-27T22:42:41.851926
13130,-0.5334,0.5295,0.5734,196.525,-8.050,-50.470,352,382,378,410,348,2025-05-27T22:42:41.851926
13131,-0.4734,0.5846,0.5197,198.450,-14.805,-46.340,339,416,390,406,381,2025-05-27T22:42:41.851926
13132,-0.4207,0.6481,0.4895,197.015,-17.115,-41.405,393,393,387,351,397,2025-05-27T22:42:41.851926
13133,-0.3938,0.6788,0.4563,193.480,-15.890,-38.710,393,339,367,330,396,2025-05-27T22:42:41.851926
13134,-0.3967,0.7076,0.4451,189.070,-11.655,-34.895,413,378,381,374,416,2025-05-27T22:42:41.851926
13135,-0.3928,0.7315,0.4260,184.905,-9.765,-28.630,407,379,378,383,401,2025-05-27T22:42:41.851926
13136,-0.3714,0.8111,0.4514,179.970,-10.990,-25.165,424,406,378,392,396,2025-05-27T22:42:41.851926
13137,-0.3714,0.8394,0.4690,175.105,-11.235,-21.350,382,419,380,414,312,2025-05-27T22:42:41.851926
13138,-0.3758,0.8252,0.4612,170.100,-14.910,-16.695,337,422,387,390,375,2025-05-27T22:42:41.851926
13139,-0.2503,0.8179,0.4426,170.380,-24.185,-14.805,400,423,388,413,378,2025-05-27T22:42:41.851926
13140,-0.3216,0.8574,0.4499,171.920,-29.540,-13.685,419,425,374,418,384,2025-05-27T22:42:41.851926
13141,-0.2811,0.9135,0.4475,168.770,-25.200,-10.780,431,417,375,411,393,2025-05-27T22:42:41.851926
13142,-0.2274,0.9584,0.4207,163.765,-20.895,-5.950,421,408,344,354,388,2025-05-27T22:42:41.851926
13143,-0.1859,0.9941,0.3821,157.675,-15.470,-2.100,423,419,368,365,400,2025-05-27T22:42:41.851926
13144,-0.1542,1.0111,0.3489,152.880,-7.385,2.135,402,362,373,386,415,2025-05-27T22:42:41.851926
13145,-0.1649,1.0253,0.3226,146.685,-2.800,5.600,390,385,377,391,414,2025-05-27T22:42:41.851926
13146,-0.1708,1.0697,0.3387,139.195,-5.005,6.650,397,339,382,350,396,2025-05-27T22:42:42.122917
13147,-0.1835,1.0985,0.3338,130.410,-11.655,8.085,407,322,351,390,408,2025-05-27T22:42:42.123320
13148,-0.1620,1.1092,0.3011,120.995,-21.070,10.080,429,384,371,394,417,2025-05-27T22:42:42.123320
13149,-0.1313,1.1151,0.2782,111.405,-29.470,9.905,405,401,363,385,408,2025-05-27T22:42:42.123320
13150,-0.0864,1.1029,0.2586,101.220,-34.405,8.435,421,431,362,414,423,2025-05-27T22:42:42.123320
13151,-0.0356,1.0804,0.2298,92.750,-35.245,7.665,397,397,327,398,417,2025-05-27T22:42:42.123320
13152,-0.0366,1.0624,0.2225,83.265,-32.795,6.755,409,418,354,308,371,2025-05-27T22:42:42.123320
13153,-0.0312,1.0585,0.2225,72.100,-31.010,6.090,405,431,326,365,383,2025-05-27T22:42:42.123320
13154,-0.0512,1.0673,0.2347,61.740,-29.820,5.250,400,379,364,358,369,2025-05-27T22:42:42.123320
13155,-0.0805,1.0502,0.2586,50.925,-29.295,3.990,384,396,301,391,390,2025-05-27T22:42:42.123320
13156,-0.0996,1.0390,0.2830,42.385,-29.785,4.515,406,375,341,407,383,2025-05-27T22:42:42.123320
13157,-0.1069,1.0121,0.2918,37.205,-30.730,4.830,390,411,357,400,390,2025-05-27T22:42:42.123320
13158,-0.1122,0.9823,0.3128,33.145,-29.750,3.815,430,401,359,397,390,2025-05-27T22:42:42.123320
13159,-0.1118,0.9716,0.3357,30.380,-27.615,2.415,415,423,368,391,398,2025-05-27T22:42:42.123320
13160,-0.0976,0.9623,0.3445,28.840,-26.810,1.050,398,413,379,400,417,2025-05-27T22:42:42.123320
13161,-0.0956,0.9618,0.3577,28.525,-26.565,-0.420,400,417,387,403,415,2025-05-27T22:42:42.124361
13162,-0.0805,0.9692,0.3670,28.875,-27.230,-0.560,334,345,342,366,398,2025-05-27T22:42:42.124361
13163,-0.0805,0.9750,0.3631,28.910,-28.945,-0.280,337,399,372,394,414,2025-05-27T22:42:42.337513
13164,-0.0712,0.9765,0.3562,28.525,-30.660,0.105,407,422,386,391,407,2025-05-27T22:42:42.337513
13165,-0.0786,0.9784,0.3567,28.035,-33.075,0.105,402,408,353,400,402,2025-05-27T22:42:42.337513
13166,-0.0468,0.9692,0.3372,26.985,-35.455,-0.490,411,426,364,397,406,2025-05-27T22:42:42.337513
13167,-0.0127,0.9755,0.3362,25.375,-32.830,-1.820,422,350,342,415,353,2025-05-27T22:42:42.337513
13168,0.0200,0.9853,0.3187,24.465,-24.465,-3.220,414,361,364,404,372,2025-05-27T22:42:42.337513
13169,0.0156,0.9858,0.3260,22.750,-17.115,-5.005,351,377,366,426,398,2025-05-27T22:42:42.337513
13170,0.0088,0.9789,0.3231,21.840,-13.405,-5.845,329,408,301,395,397,2025-05-27T22:42:42.337513
13171,0.0044,0.9750,0.3201,21.455,-10.255,-6.265,398,396,350,412,411,2025-05-27T22:42:42.337513
13172,0.0093,0.9775,0.3289,20.790,-6.090,-7.140,395,392,329,416,356,2025-05-27T22:42:42.337513
13173,0.0059,0.9804,0.3343,19.285,-1.120,-7.105,426,346,347,351,380,2025-05-27T22:42:42.337513
13174,-0.0224,0.9804,0.3250,18.060,2.345,-6.650,401,390,289,397,399,2025-05-27T22:42:42.337513
13175,-0.0556,0.9911,0.3421,16.275,3.150,-6.545,417,417,342,415,391,2025-05-27T22:42:42.337513
13176,-0.0869,0.9980,0.3445,14.245,-0.420,-5.810,415,416,369,393,390,2025-05-27T22:42:42.337513
13177,-0.1191,0.9955,0.3411,12.390,-7.070,-4.935,421,406,383,392,391,2025-05-27T22:42:42.337513
13178,-0.1269,1.0072,0.3382,11.410,-14.070,-5.320,427,401,392,389,381,2025-05-27T22:42:42.337513
13179,-0.1039,1.0111,0.3348,9.835,-26.880,-5.390,395,418,390,411,397,2025-05-27T22:42:42.337513
13180,-0.0800,1.0111,0.3152,8.610,-18.165,-5.110,392,415,389,422,390,2025-05-27T22:42:42.337513
13181,-0.0561,1.0146,0.3099,7.700,-13.475,-4.900,423,397,380,402,412,2025-05-27T22:42:42.337513
13182,-0.0386,1.0224,0.3196,6.405,-5.740,-3.745,375,397,386,399,408,2025-05-27T22:42:42.337513
13183,-0.0615,1.0209,0.3216,5.285,2.030,-2.415,394,403,388,394,379,2025-05-27T22:42:42.575063
13184,-0.0893,1.0233,0.3318,3.955,6.580,-1.575,396,364,382,410,361,2025-05-27T22:42:42.575063
