SeqNum,AccX,AccY,AccZ,GyroX,GyroY,GyroZ,Flex,Force1,Force2,Force3,Force4,TimestampReception
940,-0.3118,0.8823,0.2664,0.140,-8.400,-2.345,489,1,205,362,309,2025-06-03T10:35:42.937975
941,-0.3172,0.8779,0.2689,0.315,-9.590,-3.080,461,2,231,344,351,2025-06-03T10:35:42.937975
942,-0.3128,0.8760,0.2689,0.490,-9.275,-3.535,431,2,270,392,385,2025-06-03T10:35:42.937975
943,-0.3177,0.8804,0.2723,0.805,-8.400,-3.710,423,2,279,390,395,2025-06-03T10:35:42.937975
944,-0.3245,0.8804,0.2752,0.910,-7.385,-3.955,405,2,302,410,404,2025-06-03T10:35:42.937975
945,-0.3343,0.8794,0.2699,1.015,-7.280,-3.955,410,2,323,406,407,2025-06-03T10:35:42.937975
946,-0.3372,0.8784,0.2723,1.365,-7.350,-3.745,400,1,334,397,397,2025-06-03T10:35:42.937975
947,-0.3401,0.8789,0.2752,1.400,-7.070,-3.500,370,1,338,389,398,2025-06-03T10:35:42.937975
948,-0.3436,0.8804,0.2708,1.365,-6.370,-3.290,390,1,339,393,398,2025-06-03T10:35:42.937975
949,-0.3445,0.8764,0.2738,1.050,-6.195,-3.045,400,1,348,405,392,2025-06-03T10:35:42.937975
950,-0.3475,0.8779,0.2821,0.805,-6.230,-2.800,395,1,350,410,390,2025-06-03T10:35:42.937975
951,-0.3445,0.8804,0.2855,0.735,-6.440,-2.380,404,2,353,401,381,2025-06-03T10:35:42.937975
952,-0.3489,0.8779,0.2786,0.455,-6.755,-1.995,398,1,359,406,345,2025-06-03T10:35:42.937975
953,-0.3436,0.8823,0.2752,0.210,-7.035,-1.925,405,1,357,387,360,2025-06-03T10:35:42.937975
954,-0.3377,0.8813,0.2786,-0.070,-6.895,-1.855,407,2,338,355,380,2025-06-03T10:35:42.937975
955,-0.3382,0.8794,0.2821,-0.350,-6.230,-1.995,406,1,338,388,381,2025-06-03T10:35:42.937975
956,-0.3416,0.8755,0.2855,-0.490,-5.985,-1.995,399,1,350,388,380,2025-06-03T10:35:42.937975
957,-0.3465,0.8745,0.2840,-0.560,-6.265,-1.855,363,1,350,363,382,2025-06-03T10:35:42.937975
958,-0.3538,0.8745,0.2821,-0.490,-6.965,-1.855,354,0,326,385,394,2025-06-03T10:35:42.937975
959,-0.3523,0.8730,0.2850,-0.455,-7.350,-2.205,370,1,345,383,394,2025-06-03T10:35:42.937975
960,-0.3392,0.8725,0.2830,-0.175,-7.700,-2.450,353,1,344,389,393,2025-06-03T10:35:42.937975
961,-0.3401,0.8716,0.2835,-0.070,-7.420,-2.905,375,2,351,392,359,2025-06-03T10:35:43.145278
962,-0.3392,0.8716,0.2821,0.105,-7.455,-3.325,378,2,351,377,377,2025-06-03T10:35:43.145278
963,-0.3431,0.8725,0.2782,0.280,-7.700,-3.570,387,2,359,394,389,2025-06-03T10:35:43.145278
964,-0.3401,0.8755,0.2791,0.595,-8.015,-3.605,392,1,357,399,393,2025-06-03T10:35:43.145278
965,-0.3382,0.8760,0.2791,0.875,-7.315,-3.780,393,2,360,403,402,2025-06-03T10:35:43.145278
966,-0.3411,0.8760,0.2762,1.085,-6.965,-3.780,396,2,363,402,390,2025-06-03T10:35:43.145278
967,-0.3470,0.8799,0.2738,1.050,-7.105,-3.850,397,1,355,393,400,2025-06-03T10:35:43.145278
968,-0.3465,0.8804,0.2747,1.225,-7.385,-3.675,366,2,361,353,394,2025-06-03T10:35:43.145278
969,-0.3494,0.8823,0.2718,1.155,-7.525,-3.500,375,1,337,330,388,2025-06-03T10:35:43.145278
970,-0.3499,0.8838,0.2684,1.260,-7.420,-3.150,354,1,341,360,384,2025-06-03T10:35:43.145278
971,-0.3470,0.8823,0.2689,0.910,-6.790,-2.800,378,2,349,372,399,2025-06-03T10:35:43.145278
972,-0.3494,0.8828,0.2723,0.805,-6.405,-2.520,392,1,356,354,390,2025-06-03T10:35:43.145278
973,-0.3499,0.8833,0.2757,0.490,-5.950,-2.345,401,1,352,337,347,2025-06-03T10:35:43.145278
974,-0.3553,0.8823,0.2733,0.245,-6.055,-2.065,369,1,348,328,377,2025-06-03T10:35:43.145278
975,-0.3601,0.8818,0.2743,-0.105,-6.965,-1.715,384,2,351,361,387,2025-06-03T10:35:43.145278
976,-0.3523,0.8828,0.2743,-0.245,-7.490,-1.400,396,1,362,355,390,2025-06-03T10:35:43.145278
977,-0.3543,0.8862,0.2743,-0.490,-7.350,-1.190,401,2,362,387,355,2025-06-03T10:35:43.145278
978,-0.3504,0.8828,0.2762,-0.945,-6.510,-1.120,394,2,365,383,375,2025-06-03T10:35:43.347393
979,-0.3509,0.8813,0.2743,-1.155,-5.810,-0.945,396,2,371,393,380,2025-06-03T10:35:43.347393
980,-0.3587,0.8789,0.2772,-1.085,-5.880,-0.805,376,2,370,398,397,2025-06-03T10:35:43.347393
981,-0.3621,0.8774,0.2826,-1.015,-6.300,-0.420,379,2,374,395,399,2025-06-03T10:35:43.347393
982,-0.3640,0.8750,0.2889,-0.875,-7.000,-0.245,387,2,369,402,399,2025-06-03T10:35:43.347393
983,-0.3582,0.8740,0.2850,-0.490,-7.455,-0.035,384,1,373,398,401,2025-06-03T10:35:43.347393
984,-0.3553,0.8691,0.2796,-0.315,-7.490,0.105,381,1,368,410,389,2025-06-03T10:35:43.347393
985,-0.3489,0.8711,0.2835,-0.280,-7.210,0.035,378,1,360,407,387,2025-06-03T10:35:43.347393
986,-0.3475,0.8716,0.2869,-0.140,-6.510,-0.140,382,0,340,403,390,2025-06-03T10:35:43.347393
987,-0.3479,0.8691,0.2894,-0.105,-6.265,-0.385,392,1,352,362,379,2025-06-03T10:35:43.347393
988,-0.3548,0.8677,0.2835,0.000,-6.790,-0.665,397,1,353,380,382,2025-06-03T10:35:43.347393
989,-0.3592,0.8672,0.2806,0.105,-7.910,-0.980,405,1,357,389,350,2025-06-03T10:35:43.347393
990,-0.3582,0.8706,0.2826,0.035,-8.925,-1.260,371,1,350,386,369,2025-06-03T10:35:43.347393
991,-0.3543,0.8677,0.2796,0.070,-8.820,-1.435,380,1,352,355,365,2025-06-03T10:35:43.347393
992,-0.3528,0.8682,0.2840,-0.280,-8.295,-1.750,379,1,355,383,374,2025-06-03T10:35:43.347393
993,-0.3489,0.8647,0.2860,-0.245,-7.630,-1.610,359,1,358,406,351,2025-06-03T10:35:43.347393
994,-0.3528,0.8657,0.2874,-0.490,-6.930,-1.540,380,1,361,391,368,2025-06-03T10:35:43.347393
995,-0.3582,0.8677,0.2850,-0.455,-7.315,-1.505,353,1,366,400,371,2025-06-03T10:35:43.554804
996,-0.3626,0.8696,0.2884,-0.490,-7.805,-1.540,360,1,369,396,381,2025-06-03T10:35:43.554804
997,-0.3611,0.8696,0.2879,-0.595,-8.120,-1.505,368,2,373,397,384,2025-06-03T10:35:43.554804
998,-0.3611,0.8721,0.2889,-0.525,-8.575,-1.680,349,2,364,390,395,2025-06-03T10:35:43.554804
999,-0.3548,0.8691,0.2879,-0.315,-8.785,-1.610,362,2,364,356,386,2025-06-03T10:35:43.554804
1000,-0.3562,0.8696,0.2860,-0.035,-8.715,-1.610,382,2,365,382,398,2025-06-03T10:35:43.554804
1001,-0.3543,0.8686,0.2874,0.175,-8.470,-1.645,388,1,366,382,401,2025-06-03T10:35:43.554804
1002,-0.3587,0.8716,0.2918,0.420,-8.435,-1.575,397,1,366,395,360,2025-06-03T10:35:43.554804
1003,-0.3577,0.8716,0.2894,0.630,-8.540,-1.505,361,1,365,385,375,2025-06-03T10:35:43.554804
1004,-0.3558,0.8628,0.2894,1.050,-8.190,-0.700,376,2,363,347,381,2025-06-03T10:35:43.554804
1005,-0.3645,0.8686,0.2879,1.400,-9.240,-0.980,382,2,358,367,382,2025-06-03T10:35:43.554804
1006,-0.3626,0.8740,0.2899,1.155,-9.275,-0.805,383,1,358,378,354,2025-06-03T10:35:43.554804
1007,-0.3592,0.8755,0.2860,1.365,-9.100,-0.385,357,1,357,372,372,2025-06-03T10:35:43.554804
1008,-0.3597,0.8711,0.2865,1.330,-9.520,-0.105,372,2,362,388,373,2025-06-03T10:35:43.554804
1009,-0.3606,0.8711,0.2899,1.470,-9.240,0.245,388,2,370,396,388,2025-06-03T10:35:43.554804
1010,-0.3587,0.8716,0.2865,1.575,-9.415,0.105,395,1,371,388,395,2025-06-03T10:35:43.554804
1011,-0.3523,0.8657,0.2928,1.680,-9.975,0.210,394,1,370,382,362,2025-06-03T10:35:43.554804
1012,-0.3489,0.8652,0.2855,1.995,-10.500,0.350,401,1,369,382,379,2025-06-03T10:35:43.769757
1013,-0.3440,0.8662,0.2811,2.135,-10.395,0.210,400,2,363,401,394,2025-06-03T10:35:43.769757
1014,-0.3450,0.8682,0.2791,2.240,-10.045,0.035,370,1,361,396,323,2025-06-03T10:35:43.769757
1015,-0.3484,0.8721,0.2772,2.100,-9.415,-0.245,384,1,358,392,364,2025-06-03T10:35:43.769757
1016,-0.3484,0.8638,0.2777,2.205,-9.170,-0.350,394,1,358,396,342,2025-06-03T10:35:43.769757
1017,-0.3504,0.8657,0.2796,2.170,-9.590,-0.385,394,2,365,387,364,2025-06-03T10:35:43.769757
1018,-0.3533,0.8652,0.2830,2.345,-9.905,-0.350,391,1,358,393,389,2025-06-03T10:35:43.769757
1019,-0.3514,0.8696,0.2855,2.205,-9.975,-0.420,385,1,354,393,395,2025-06-03T10:35:43.769757
1020,-0.3475,0.8686,0.2830,2.135,-9.975,-0.630,394,1,351,398,405,2025-06-03T10:35:43.769757
1021,-0.3465,0.8686,0.2869,1.925,-10.080,-0.595,397,2,335,381,395,2025-06-03T10:35:43.769757
1022,-0.3460,0.8672,0.2904,1.995,-9.730,-0.490,385,2,339,380,391,2025-06-03T10:35:43.769757
1023,-0.3494,0.8696,0.2865,1.890,-9.660,-0.490,392,1,343,391,392,2025-06-03T10:35:43.769757
1024,-0.3533,0.8691,0.2894,1.750,-9.800,-0.665,388,1,342,389,383,2025-06-03T10:35:43.769757
1025,-0.3499,0.8667,0.2918,1.715,-10.115,-0.875,358,1,327,393,373,2025-06-03T10:35:43.769757
1026,-0.3343,0.8555,0.2977,1.995,-9.800,-0.770,376,1,346,361,366,2025-06-03T10:35:43.769757
1027,-0.3558,0.8599,0.2855,2.205,-11.550,-1.435,379,1,343,379,374,2025-06-03T10:35:43.769757
1028,-0.3450,0.8657,0.2933,2.065,-11.410,-1.575,389,2,349,379,343,2025-06-03T10:35:43.769757
1029,-0.3387,0.8647,0.2869,2.520,-10.500,-1.715,386,2,357,374,377,2025-06-03T10:35:43.964076
1030,-0.3392,0.8657,0.2840,2.345,-9.765,-1.995,384,2,365,381,383,2025-06-03T10:35:43.964076
1031,-0.3421,0.8662,0.2855,2.695,-9.275,-2.345,392,1,367,394,398,2025-06-03T10:35:43.964076
1032,-0.3455,0.8623,0.2884,2.485,-9.135,-2.415,393,1,370,396,352,2025-06-03T10:35:43.964076
1033,-0.3479,0.8652,0.2894,2.590,-9.520,-2.345,391,1,371,378,329,2025-06-03T10:35:43.964076
1034,-0.3509,0.8682,0.2850,2.520,-10.290,-2.380,394,1,363,371,358,2025-06-03T10:35:43.964076
1035,-0.3523,0.8701,0.2850,2.590,-10.710,-2.485,391,2,362,349,365,2025-06-03T10:35:43.964076
1036,-0.3445,0.8711,0.2879,2.345,-10.780,-2.555,388,1,355,383,382,2025-06-03T10:35:43.964076
1037,-0.3411,0.8735,0.2860,2.380,-10.255,-2.625,388,1,357,378,351,2025-06-03T10:35:43.964076
1038,-0.3377,0.8721,0.2835,2.275,-9.380,-2.590,394,1,332,339,362,2025-06-03T10:35:43.964076
1039,-0.3411,0.8721,0.2816,2.345,-8.995,-2.660,393,1,335,368,382,2025-06-03T10:35:43.964076
1040,-0.3416,0.8706,0.2860,2.380,-8.400,-2.380,394,1,346,350,348,2025-06-03T10:35:43.964076
1041,-0.3396,0.8828,0.2928,1.890,-9.240,-2.660,404,1,352,378,366,2025-06-03T10:35:43.964076
1042,-0.3460,0.8799,0.2933,2.135,-8.435,-2.030,366,1,358,350,387,2025-06-03T10:35:43.964076
1043,-0.3514,0.8740,0.2855,2.240,-8.995,-2.030,380,1,355,373,381,2025-06-03T10:35:43.964076
1044,-0.3440,0.8779,0.2894,2.030,-9.415,-1.785,376,1,351,389,391,2025-06-03T10:35:43.964076
1045,-0.3479,0.8799,0.2899,1.960,-9.310,-1.960,383,1,359,395,400,2025-06-03T10:35:43.964076
1046,-0.3509,0.8818,0.2879,1.995,-8.785,-2.065,384,2,366,411,408,2025-06-03T10:35:43.964076
1047,-0.3558,0.8799,0.2855,1.785,-9.170,-2.415,395,2,370,411,392,2025-06-03T10:35:43.964076
1048,-0.3601,0.8799,0.2874,1.995,-9.835,-2.695,396,1,374,393,384,2025-06-03T10:35:43.964076
1049,-0.3631,0.8804,0.2889,2.135,-10.430,-2.940,390,2,373,401,390,2025-06-03T10:35:43.964076
1050,-0.3553,0.8779,0.2913,2.345,-10.885,-3.045,401,2,372,391,381,2025-06-03T10:35:44.046900
1051,-0.3523,0.8745,0.2918,2.380,-10.675,-2.870,402,2,372,398,388,2025-06-03T10:35:44.046900
1052,-0.3548,0.8725,0.2982,2.380,-10.220,-2.835,366,2,372,401,354,2025-06-03T10:35:44.046900
1053,-0.3543,0.8672,0.2977,2.310,-10.465,-2.485,376,1,347,397,379,2025-06-03T10:35:44.046900
1054,-0.3626,0.8672,0.2899,2.415,-11.060,-2.100,375,2,333,392,387,2025-06-03T10:35:44.046900
1055,-0.3601,0.8623,0.2908,2.590,-11.690,-1.995,392,1,349,385,384,2025-06-03T10:35:44.046900
1056,-0.3499,0.8652,0.2938,2.660,-11.690,-2.100,373,1,349,395,389,2025-06-03T10:35:44.046900
1057,-0.3484,0.8623,0.2865,2.800,-11.095,-2.415,350,1,354,377,379,2025-06-03T10:35:44.046900
1058,-0.3465,0.8633,0.2826,2.835,-11.305,-2.800,375,1,350,380,349,2025-06-03T10:35:44.046900
1059,-0.3426,0.8628,0.2826,2.975,-11.550,-3.080,388,1,349,389,378,2025-06-03T10:35:44.046900
1060,-0.3475,0.8652,0.2855,3.115,-11.480,-3.465,389,1,350,365,340,2025-06-03T10:35:44.046900
1061,-0.3445,0.8652,0.2855,3.080,-11.305,-3.955,396,2,351,374,366,2025-06-03T10:35:44.046900
1062,-0.3445,0.8677,0.2762,3.325,-11.410,-4.095,400,1,356,397,385,2025-06-03T10:35:44.046900
1063,-0.3455,0.8696,0.2752,3.255,-11.340,-4.095,395,2,360,410,389,2025-06-03T10:35:44.046900
1064,-0.3465,0.8701,0.2801,3.360,-11.130,-4.130,396,2,339,388,359,2025-06-03T10:35:44.252155
1065,-0.3445,0.8716,0.2821,3.290,-10.710,-4.165,391,2,349,382,353,2025-06-03T10:35:44.252155
1066,-0.3475,0.8691,0.2826,3.185,-10.360,-4.200,382,1,355,394,350,2025-06-03T10:35:44.252155
1067,-0.3465,0.8730,0.2821,3.360,-10.220,-4.025,381,1,361,391,369,2025-06-03T10:35:44.252155
1068,-0.3431,0.8779,0.2874,3.360,-10.395,-3.990,386,1,366,390,373,2025-06-03T10:35:44.252155
1069,-0.3406,0.8813,0.2850,3.220,-10.255,-3.955,378,2,366,385,376,2025-06-03T10:35:44.252155
1070,-0.3382,0.8784,0.2835,3.045,-9.730,-3.815,362,2,368,346,384,2025-06-03T10:35:44.252155
1071,-0.3416,0.8789,0.2884,2.625,-9.590,-3.780,377,2,366,338,393,2025-06-03T10:35:44.252155
1072,-0.3426,0.8799,0.2850,2.590,-9.625,-3.745,381,1,366,364,397,2025-06-03T10:35:44.252155
1073,-0.3484,0.8774,0.2830,2.345,-9.695,-3.780,394,2,373,384,409,2025-06-03T10:35:44.252155
1074,-0.3509,0.8794,0.2772,2.240,-9.695,-3.990,391,2,376,398,402,2025-06-03T10:35:44.252155
1075,-0.3499,0.8779,0.2713,2.170,-9.800,-4.060,362,1,375,377,397,2025-06-03T10:35:44.252155
1076,-0.3587,0.8784,0.2733,2.135,-9.660,-4.095,375,1,373,378,391,2025-06-03T10:35:44.252155
1077,-0.3616,0.8794,0.2752,1.890,-9.345,-4.060,379,1,370,383,383,2025-06-03T10:35:44.252155
1078,-0.3670,0.8672,0.2821,1.645,-8.890,-3.360,381,2,374,394,402,2025-06-03T10:35:44.252155
1079,-0.3587,0.8794,0.2821,1.400,-8.785,-3.920,389,1,367,385,384,2025-06-03T10:35:44.252155
1080,-0.3714,0.8735,0.2865,0.945,-8.540,-2.975,360,1,370,381,380,2025-06-03T10:35:44.252155
1081,-0.3704,0.8657,0.2855,0.805,-8.645,-2.800,382,1,368,395,395,2025-06-03T10:35:44.297395
1082,-0.3728,0.8721,0.2840,0.315,-8.995,-2.625,380,1,363,393,397,2025-06-03T10:35:44.297395
1083,-0.3650,0.8701,0.2869,0.070,-9.275,-2.590,387,1,342,384,396,2025-06-03T10:35:44.297395
1084,-0.3572,0.8647,0.2816,0.035,-9.485,-2.800,366,2,351,389,397,2025-06-03T10:35:44.297395
1085,-0.3558,0.8652,0.2850,-0.245,-9.345,-3.045,382,1,351,348,396,2025-06-03T10:35:44.349822
1086,-0.3543,0.8628,0.2879,-0.070,-9.100,-3.640,362,2,356,381,390,2025-06-03T10:35:44.349822
1087,-0.3426,0.8545,0.2928,-0.035,-9.240,-3.745,371,2,355,391,381,2025-06-03T10:35:44.349822
1088,-0.3460,0.8560,0.2879,0.315,-9.905,-4.865,385,2,357,392,362,2025-06-03T10:35:44.349822
1089,-0.3504,0.8599,0.2855,0.175,-9.730,-5.110,362,2,361,350,371,2025-06-03T10:35:44.464769
1090,-0.3460,0.8589,0.2801,1.015,-9.275,-5.810,371,1,359,377,394,2025-06-03T10:35:44.464769
1091,-0.3499,0.8628,0.2723,0.770,-8.750,-6.090,387,1,365,380,362,2025-06-03T10:35:44.464769
1092,-0.3626,0.8652,0.2708,0.875,-8.330,-6.370,390,2,342,340,375,2025-06-03T10:35:44.464769
1093,-0.3626,0.8706,0.2816,1.085,-8.015,-6.230,401,2,350,358,390,2025-06-03T10:35:44.464769
1094,-0.3694,0.8721,0.2801,1.400,-7.700,-5.670,342,1,354,339,377,2025-06-03T10:35:44.464769
1095,-0.3709,0.8774,0.2718,1.295,-7.315,-5.075,338,1,355,362,393,2025-06-03T10:35:44.464769
1096,-0.3636,0.8794,0.2621,1.400,-7.035,-4.340,330,1,358,380,358,2025-06-03T10:35:44.464769
1097,-0.3592,0.8818,0.2669,1.400,-6.545,-3.640,353,1,366,378,382,2025-06-03T10:35:44.464769
1098,-0.3611,0.8857,0.2733,1.505,-5.635,-2.800,314,2,367,381,391,2025-06-03T10:35:44.714078
1099,-0.3582,0.8828,0.2689,1.575,-4.865,-1.890,345,2,372,361,387,2025-06-03T10:35:44.714078
1100,-0.3572,0.8857,0.2679,1.540,-4.445,-1.225,372,1,368,380,365,2025-06-03T10:35:44.714078
1101,-0.3577,0.8838,0.2704,1.435,-4.165,-0.770,375,1,370,380,351,2025-06-03T10:35:44.714078
1102,-0.3606,0.8808,0.2747,1.085,-3.920,-0.455,353,1,373,385,371,2025-06-03T10:35:44.714078
1103,-0.3660,0.8784,0.2816,0.875,-4.095,-0.315,342,1,366,400,394,2025-06-03T10:35:44.714078
1104,-0.3728,0.8735,0.2855,0.595,-4.550,-0.035,360,1,366,404,322,2025-06-03T10:35:44.714078
1105,-0.3728,0.8706,0.2894,0.385,-5.075,-0.210,383,2,365,381,320,2025-06-03T10:35:44.714078
1106,-0.3738,0.8662,0.2948,0.140,-5.390,-0.385,387,1,363,346,342,2025-06-03T10:35:44.714078
1107,-0.3762,0.8623,0.2967,-0.140,-5.565,-0.490,393,1,363,384,336,2025-06-03T10:35:44.714078
1108,-0.3802,0.8618,0.3074,-0.315,-5.670,-0.840,387,1,368,382,362,2025-06-03T10:35:44.714078
1109,-0.3875,0.8560,0.3094,-0.595,-5.775,-1.050,387,1,371,405,370,2025-06-03T10:35:44.714078
1110,-0.3806,0.8408,0.3133,-0.280,-5.635,-0.595,363,1,370,397,388,2025-06-03T10:35:44.714078
1111,-0.3953,0.8511,0.3060,-0.385,-7.910,-1.085,382,1,368,394,385,2025-06-03T10:35:44.714078
1112,-0.3899,0.8696,0.3113,-0.525,-8.015,-1.120,385,1,368,396,402,2025-06-03T10:35:44.714078
1113,-0.3904,0.8706,0.3065,-0.035,-8.610,-1.190,397,2,365,400,361,2025-06-03T10:35:44.714078
1114,-0.3933,0.8760,0.3030,0.000,-10.080,-0.735,393,1,365,381,377,2025-06-03T10:35:44.714078
1115,-0.3997,0.8857,0.2987,0.560,-11.375,0.000,401,1,361,388,379,2025-06-03T10:35:44.714078
1116,-0.3972,0.8857,0.2967,1.015,-12.285,0.875,400,1,365,389,387,2025-06-03T10:35:44.717456
1117,-0.3933,0.8896,0.2933,1.715,-12.915,2.415,395,2,366,387,385,2025-06-03T10:35:44.717809
1118,-0.3860,0.8896,0.2918,1.925,-12.880,4.235,391,1,362,385,396,2025-06-03T10:35:44.717809
1119,-0.3826,0.8872,0.2869,2.380,-12.250,5.775,387,2,368,384,389,2025-06-03T10:35:44.867749
1120,-0.3665,0.8852,0.2816,2.660,-11.375,7.280,390,1,368,382,396,2025-06-03T10:35:44.867749
1121,-0.3636,0.8789,0.2840,2.940,-10.080,8.155,395,1,360,401,400,2025-06-03T10:35:44.867749
1122,-0.3572,0.8769,0.2884,3.010,-8.645,8.890,403,1,366,401,394,2025-06-03T10:35:44.867749
1123,-0.3533,0.8701,0.2860,2.975,-8.295,9.030,366,1,368,403,387,2025-06-03T10:35:44.867749
1124,-0.3499,0.8716,0.2860,2.765,-8.330,8.820,379,2,371,384,385,2025-06-03T10:35:44.867749
1125,-0.3411,0.8657,0.2889,2.345,-8.400,7.980,395,1,373,351,377,2025-06-03T10:35:44.867749
1126,-0.3357,0.8530,0.2904,1.575,-8.365,7.140,361,1,371,358,353,2025-06-03T10:35:44.867749
1127,-0.3382,0.8462,0.2948,0.805,-8.330,5.810,371,1,372,374,378,2025-06-03T10:35:44.867749
1128,-0.3567,0.8472,0.2889,-0.455,-9.065,4.025,358,1,368,391,381,2025-06-03T10:35:44.867749
1129,-0.3367,0.8203,0.2938,-0.595,-17.815,2.555,344,1,365,396,395,2025-06-03T10:35:44.867749
1130,-0.3440,0.8101,0.2957,-1.330,-9.730,0.595,358,1,364,391,393,2025-06-03T10:35:44.867749
1131,-0.3450,0.8086,0.2952,-1.225,-10.360,-0.945,376,1,355,401,383,2025-06-03T10:35:44.867749
1132,-0.3460,0.8047,0.2918,-0.910,-11.095,-2.870,373,2,356,363,385,2025-06-03T10:35:44.977058
1133,-0.3406,0.8096,0.2899,-0.035,-11.130,-4.585,350,2,351,379,390,2025-06-03T10:35:44.977058
1134,-0.3421,0.8169,0.2850,0.875,-10.430,-6.195,362,2,360,394,391,2025-06-03T10:35:44.977058
1135,-0.3401,0.8286,0.2816,2.310,-9.835,-7.490,376,1,340,398,398,2025-06-03T10:35:44.977058
1136,-0.3470,0.8486,0.2762,3.640,-8.680,-8.225,391,2,357,404,399,2025-06-03T10:35:44.977058
1137,-0.3523,0.8608,0.2747,5.250,-8.330,-8.750,389,1,360,372,395,2025-06-03T10:35:44.977058
1138,-0.3592,0.8745,0.2738,6.440,-8.365,-8.575,389,1,352,391,401,2025-06-03T10:35:44.977058
1139,-0.3616,0.9077,0.2674,6.825,-8.295,-8.050,390,1,351,398,400,2025-06-03T10:35:44.977058
1140,-0.3543,0.8999,0.2738,8.015,-7.735,-6.440,365,2,361,397,394,2025-06-03T10:35:45.115129
1141,-0.3645,0.9077,0.2679,7.735,-7.035,-5.390,346,1,365,400,387,2025-06-03T10:35:45.115129
1142,-0.3694,0.9140,0.2694,7.210,-6.370,-3.710,340,2,365,386,380,2025-06-03T10:35:45.115129
1143,-0.3821,0.9121,0.2694,6.300,-6.895,-1.820,338,1,360,385,388,2025-06-03T10:35:45.115129
1144,-0.3870,0.9101,0.2699,5.495,-7.875,0.175,363,2,361,395,386,2025-06-03T10:35:45.115129
1145,-0.3880,0.9018,0.2743,4.340,-8.855,1.680,352,1,362,396,362,2025-06-03T10:35:45.115129
1146,-0.3753,0.8911,0.2762,3.430,-9.800,2.835,361,1,362,391,377,2025-06-03T10:35:45.115129
1147,-0.3606,0.8838,0.2772,2.590,-9.415,3.850,380,1,366,401,370,2025-06-03T10:35:45.115129
1148,-0.3470,0.8721,0.2806,1.785,-8.330,4.305,385,1,368,402,390,2025-06-03T10:35:45.115129
1149,-0.3460,0.8662,0.2782,1.365,-7.630,4.130,392,2,366,370,355,2025-06-03T10:35:45.132945
1150,-0.3470,0.8584,0.2796,1.120,-7.525,3.360,362,1,358,385,375,2025-06-03T10:35:45.132945
1151,-0.3440,0.8584,0.2840,1.155,-7.945,2.415,369,1,361,398,385,2025-06-03T10:35:45.132945
1152,-0.3353,0.8555,0.2811,1.540,-8.435,0.945,388,1,365,398,390,2025-06-03T10:35:45.132945
1153,-0.3318,0.8555,0.2821,2.065,-8.190,-0.525,363,2,366,413,380,2025-06-03T10:35:45.132945
1154,-0.3479,0.8735,0.2728,2.030,-8.050,-2.275,380,1,340,409,378,2025-06-03T10:35:45.285829
1155,-0.3206,0.8589,0.2791,3.045,-6.860,-3.395,361,1,347,393,381,2025-06-03T10:35:45.285829
1156,-0.3362,0.8623,0.2767,3.010,-6.825,-4.305,378,0,330,354,386,2025-06-03T10:35:45.285829
1157,-0.3445,0.8696,0.2747,3.675,-6.825,-5.040,388,1,336,374,386,2025-06-03T10:35:45.285829
1158,-0.3528,0.8696,0.2718,3.745,-7.245,-5.390,386,1,345,381,388,2025-06-03T10:35:45.285829
1159,-0.3548,0.8691,0.2704,3.920,-7.455,-5.565,400,1,353,395,351,2025-06-03T10:35:45.285829
1160,-0.3548,0.8691,0.2699,3.710,-7.420,-5.460,402,1,338,360,359,2025-06-03T10:35:45.285829
1161,-0.3626,0.8725,0.2650,3.745,-7.350,-4.970,389,1,349,367,364,2025-06-03T10:35:45.285829
1162,-0.3709,0.8769,0.2635,3.325,-7.140,-4.515,396,0,338,381,384,2025-06-03T10:35:45.285829
1163,-0.3762,0.8804,0.2655,3.150,-7.245,-4.095,361,1,343,400,380,2025-06-03T10:35:45.285829
1164,-0.3797,0.8823,0.2625,2.695,-7.525,-3.535,370,1,353,399,371,2025-06-03T10:35:45.285829
1165,-0.4016,0.8969,0.2586,1.715,-8.015,-3.360,386,1,335,382,309,2025-06-03T10:35:45.285829
1166,-0.3714,0.9984,0.2708,1.505,-7.525,-2.975,388,2,349,378,361,2025-06-03T10:35:45.285829
1167,-0.3748,0.8774,0.2738,0.735,-7.525,-2.590,397,1,355,389,382,2025-06-03T10:35:45.338113
1168,-0.3719,0.8789,0.2723,0.070,-7.210,-2.345,399,1,357,401,393,2025-06-03T10:35:45.338113
1169,-0.3723,0.8769,0.2713,-0.350,-7.140,-2.240,401,1,362,402,386,2025-06-03T10:35:45.338113
1170,-0.3665,0.8779,0.2767,-0.630,-7.105,-1.995,370,2,362,351,377,2025-06-03T10:35:45.338113
1171,-0.3670,0.8769,0.2806,-0.805,-7.070,-1.855,350,1,363,380,349,2025-06-03T10:35:45.481749
1172,-0.3645,0.8725,0.2801,-0.805,-7.140,-1.855,372,2,370,347,371,2025-06-03T10:35:45.481749
1173,-0.3655,0.8686,0.2860,-0.700,-7.385,-1.960,386,2,373,365,369,2025-06-03T10:35:45.481749
1174,-0.3636,0.8672,0.2850,-0.245,-7.875,-1.995,399,2,369,388,354,2025-06-03T10:35:45.481749
1175,-0.3601,0.8682,0.2826,-0.035,-8.015,-2.135,395,1,373,390,381,2025-06-03T10:35:45.481749
1176,-0.3592,0.8662,0.2796,0.525,-8.155,-2.415,386,1,373,395,388,2025-06-03T10:35:45.481749
1177,-0.3597,0.8662,0.2782,0.875,-8.085,-2.625,372,1,364,392,391,2025-06-03T10:35:45.481749
1178,-0.3601,0.8672,0.2782,1.365,-7.630,-2.800,374,1,359,402,387,2025-06-03T10:35:45.481749
1179,-0.3636,0.8672,0.2772,1.645,-7.385,-2.870,387,1,358,392,389,2025-06-03T10:35:45.481749
1180,-0.3640,0.8564,0.2801,1.890,-7.245,-2.450,396,1,353,379,379,2025-06-03T10:35:45.481749
1181,-0.3806,0.8642,0.2728,2.030,-8.085,-2.905,388,1,333,375,341,2025-06-03T10:35:45.481749
1182,-0.3797,0.8706,0.2718,1.645,-7.980,-2.730,387,1,349,384,343,2025-06-03T10:35:45.481749
1183,-0.3777,0.8662,0.2704,1.575,-8.260,-2.555,380,2,352,398,332,2025-06-03T10:35:45.481749
1184,-0.3738,0.8691,0.2704,0.945,-8.260,-2.345,366,1,351,403,362,2025-06-03T10:35:45.696373
1185,-0.3723,0.8691,0.2728,0.805,-8.470,-2.310,387,1,358,414,391,2025-06-03T10:35:45.696373
1186,-0.3670,0.8662,0.2733,0.350,-8.365,-2.380,395,1,360,368,392,2025-06-03T10:35:45.696373
1187,-0.3645,0.8642,0.2777,0.315,-8.155,-2.450,392,2,366,392,388,2025-06-03T10:35:45.696373
1188,-0.3645,0.8603,0.2772,0.035,-8.155,-2.730,397,1,368,377,381,2025-06-03T10:35:45.696373
1189,-0.3645,0.8599,0.2767,0.210,-8.470,-2.975,369,1,344,393,392,2025-06-03T10:35:45.696373
1190,-0.3660,0.8506,0.2777,0.560,-7.945,-2.975,387,1,347,399,384,2025-06-03T10:35:45.696373
1191,-0.3719,0.8574,0.2762,0.840,-8.785,-3.395,401,1,351,390,395,2025-06-03T10:35:45.696373
1192,-0.3621,0.8623,0.2762,0.910,-8.050,-3.710,401,1,359,383,397,2025-06-03T10:35:45.696373
1193,-0.3606,0.8603,0.2728,1.505,-7.630,-3.710,394,1,356,397,397,2025-06-03T10:35:45.696373
1194,-0.3680,0.8642,0.2806,1.540,-7.805,-3.780,398,2,359,395,395,2025-06-03T10:35:45.696373
1195,-0.3753,0.8657,0.2811,2.065,-8.120,-3.990,390,1,353,397,397,2025-06-03T10:35:45.696373
1196,-0.3826,0.8686,0.2782,2.275,-8.610,-4.025,389,1,349,404,396,2025-06-03T10:35:45.696373
1197,-0.3787,0.8721,0.2821,2.380,-9.100,-4.060,373,1,357,404,360,2025-06-03T10:35:45.696373
1198,-0.3767,0.8755,0.2801,2.345,-9.100,-3.780,383,1,353,385,381,2025-06-03T10:35:45.696373
1199,-0.3831,0.8784,0.2865,2.170,-8.890,-3.640,394,1,356,349,385,2025-06-03T10:35:45.696373
1200,-0.3884,0.8764,0.2855,2.030,-9.205,-3.290,398,1,355,379,350,2025-06-03T10:35:45.696373
1201,-0.3919,0.8764,0.2772,1.925,-9.870,-2.660,401,1,356,368,333,2025-06-03T10:35:45.696373
1202,-0.3899,0.8764,0.2757,1.820,-10.745,-1.890,403,2,353,369,371,2025-06-03T10:35:45.898846
1203,-0.3850,0.8789,0.2816,1.785,-10.500,-1.120,368,2,354,378,372,2025-06-03T10:35:45.898846
1204,-0.3889,0.8774,0.2816,1.785,-10.255,-0.525,389,2,363,389,390,2025-06-03T10:35:45.899844
1205,-0.3948,0.8721,0.2821,1.715,-10.080,0.035,371,2,358,392,383,2025-06-03T10:35:45.899844
1206,-0.3943,0.8721,0.2796,1.785,-10.780,0.840,376,1,361,390,396,2025-06-03T10:35:45.899844
1207,-0.3904,0.8740,0.2752,1.575,-11.095,1.330,390,1,367,387,398,2025-06-03T10:35:45.899844
1208,-0.3855,0.8750,0.2777,1.365,-11.025,1.645,364,1,362,367,390,2025-06-03T10:35:45.899844
1209,-0.3777,0.8691,0.2738,1.155,-10.745,1.855,380,1,361,383,395,2025-06-03T10:35:45.899844
1210,-0.3797,0.8662,0.2674,0.945,-10.570,1.925,380,1,358,396,364,2025-06-03T10:35:45.899844
1211,-0.3806,0.8642,0.2704,0.665,-10.815,1.855,385,1,357,383,380,2025-06-03T10:35:45.899844
1212,-0.3802,0.8638,0.2816,0.700,-11.340,1.855,369,1,351,400,394,2025-06-03T10:35:45.899844
1213,-0.3704,0.8599,0.2860,0.595,-11.690,1.610,378,1,359,390,349,2025-06-03T10:35:45.899844
1214,-0.3758,0.8638,0.2801,0.630,-11.935,0.980,385,1,354,384,363,2025-06-03T10:35:45.899844
1215,-0.3787,0.8613,0.2718,0.280,-13.265,0.280,378,1,353,350,364,2025-06-03T10:35:45.899844
1216,-0.3626,0.8569,0.2889,0.455,-14.595,-0.035,386,0,333,384,391,2025-06-03T10:35:45.899844
1217,-0.3450,0.8599,0.2904,0.210,-13.125,-0.770,395,1,350,350,384,2025-06-03T10:35:45.899844
1218,-0.3470,0.8545,0.2855,0.700,-11.585,-1.260,398,1,347,364,384,2025-06-03T10:35:45.948086
1219,-0.3675,0.8613,0.2772,0.735,-11.515,-1.820,402,1,360,389,380,2025-06-03T10:35:45.948086
1220,-0.3753,0.8584,0.2860,1.225,-11.620,-1.995,394,2,369,389,370,2025-06-03T10:35:45.948086
1221,-0.3748,0.8613,0.2791,1.295,-11.550,-2.310,373,2,360,364,345,2025-06-03T10:35:45.948086
1222,-0.3728,0.8608,0.2738,1.925,-12.215,-2.205,376,2,358,374,380,2025-06-03T10:35:45.948086
1223,-0.3611,0.8623,0.2782,1.960,-11.515,-2.310,363,2,364,400,399,2025-06-03T10:35:46.113930
1224,-0.3577,0.8642,0.2855,2.275,-10.010,-2.485,375,1,360,406,404,2025-06-03T10:35:46.113930
1225,-0.3636,0.8642,0.2782,2.135,-8.575,-2.450,389,1,353,406,390,2025-06-03T10:35:46.113930
1226,-0.3728,0.8623,0.2728,2.065,-8.890,-2.450,401,1,334,393,383,2025-06-03T10:35:46.113930
1227,-0.3704,0.8599,0.2835,1.960,-8.575,-2.030,401,2,340,378,382,2025-06-03T10:35:46.113930
1228,-0.3723,0.8618,0.2899,2.065,-8.295,-1.750,387,1,322,342,379,2025-06-03T10:35:46.113930
1229,-0.3772,0.8608,0.2884,1.890,-8.295,-1.750,393,2,337,359,390,2025-06-03T10:35:46.113930
1230,-0.3728,0.8613,0.2845,1.785,-8.435,-1.715,373,1,346,375,384,2025-06-03T10:35:46.113930
1231,-0.3753,0.8642,0.2767,1.470,-8.645,-1.680,356,1,357,384,355,2025-06-03T10:35:46.113930
1232,-0.3753,0.8618,0.2718,1.330,-8.925,-1.540,375,2,365,381,383,2025-06-03T10:35:46.113930
1233,-0.3855,0.8628,0.2694,0.525,-9.345,-1.855,386,1,357,376,376,2025-06-03T10:35:46.113930
1234,-0.3758,0.8613,0.2694,0.315,-9.380,-2.100,389,1,358,395,383,2025-06-03T10:35:46.113930
1235,-0.3655,0.8569,0.2674,-0.070,-9.520,-1.960,392,1,361,393,371,2025-06-03T10:35:46.300132
1236,-0.3733,0.8608,0.2728,-0.105,-8.645,-1.960,395,2,360,392,378,2025-06-03T10:35:46.300132
1237,-0.3738,0.8603,0.2767,-0.140,-7.735,-2.240,407,1,358,399,387,2025-06-03T10:35:46.300132
1238,-0.3733,0.8603,0.2850,0.175,-7.000,-2.275,395,2,364,395,386,2025-06-03T10:35:46.300132
1239,-0.3723,0.8584,0.2889,0.245,-7.035,-2.065,392,1,363,398,345,2025-06-03T10:35:46.300132
1240,-0.3723,0.8589,0.2826,0.700,-7.315,-1.890,396,2,361,391,360,2025-06-03T10:35:46.300132
1241,-0.3767,0.8642,0.2811,0.595,-7.875,-1.960,392,1,359,353,361,2025-06-03T10:35:46.300132
1242,-0.3728,0.8628,0.2855,0.840,-8.470,-1.680,361,1,354,384,384,2025-06-03T10:35:46.300132
1243,-0.3684,0.8613,0.2894,0.980,-8.295,-1.505,374,1,360,347,383,2025-06-03T10:35:46.300132
1244,-0.3709,0.8638,0.2830,1.085,-7.980,-1.540,375,1,363,384,395,2025-06-03T10:35:46.300132
1245,-0.3753,0.8662,0.2913,1.120,-7.420,-1.505,382,1,359,379,384,2025-06-03T10:35:46.300132
1246,-0.3743,0.8652,0.2933,1.260,-7.210,-1.715,396,1,356,394,389,2025-06-03T10:35:46.300132
1247,-0.3811,0.8662,0.2865,1.470,-7.560,-1.470,396,1,360,356,392,2025-06-03T10:35:46.300132
1248,-0.3811,0.8662,0.2874,1.470,-8.050,-1.750,366,1,348,331,394,2025-06-03T10:35:46.300132
1249,-0.3792,0.8638,0.2874,1.540,-8.750,-1.890,357,1,354,367,406,2025-06-03T10:35:46.300132
1250,-0.3816,0.8672,0.2855,1.120,-8.855,-1.960,379,2,366,396,379,2025-06-03T10:35:46.300132
1251,-0.3782,0.8672,0.2840,0.910,-9.135,-2.205,385,1,363,381,388,2025-06-03T10:35:46.300132
1252,-0.3802,0.8647,0.2904,0.595,-9.170,-2.205,356,1,366,391,399,2025-06-03T10:35:46.350998
1253,-0.3762,0.8667,0.2933,0.700,-8.610,-2.030,374,2,370,390,407,2025-06-03T10:35:46.350998
1254,-0.3836,0.8638,0.2879,0.595,-8.680,-1.715,388,1,361,396,370,2025-06-03T10:35:46.350998
1255,-0.3870,0.8618,0.2879,0.420,-8.890,-1.610,384,1,364,401,380,2025-06-03T10:35:46.350998
1256,-0.3880,0.8608,0.2894,0.420,-8.995,-1.610,401,1,364,359,371,2025-06-03T10:35:46.350998
1257,-0.3797,0.8652,0.2923,0.665,-8.925,-1.540,391,2,357,384,349,2025-06-03T10:35:46.398321
1258,-0.3782,0.8667,0.2855,0.595,-8.960,-1.505,390,2,359,384,375,2025-06-03T10:35:46.398321
1259,-0.3797,0.8667,0.2840,0.770,-9.240,-1.330,394,1,358,349,374,2025-06-03T10:35:46.398321
1260,-0.3748,0.8691,0.2860,1.015,-9.310,-1.190,399,2,354,330,344,2025-06-03T10:35:46.398321
1261,-0.3753,0.8691,0.2913,1.190,-8.890,-0.840,374,1,331,364,375,2025-06-03T10:35:46.453066
1262,-0.3865,0.8642,0.2908,1.330,-8.540,-0.770,354,2,347,377,375,2025-06-03T10:35:46.453066
1263,-0.3792,0.8647,0.2830,1.260,-17.920,-0.735,371,1,351,383,383,2025-06-03T10:35:46.453066
1264,-0.3802,0.8647,0.2869,1.015,-9.695,-0.630,384,2,360,401,393,2025-06-03T10:35:46.453066
1265,-0.3782,0.8677,0.2884,0.770,-9.870,-0.735,385,2,365,404,389,2025-06-03T10:35:46.708557
1266,-0.3787,0.8696,0.2850,0.490,-10.010,-0.910,384,2,365,397,395,2025-06-03T10:35:46.708557
1267,-0.3728,0.8677,0.2777,0.245,-10.325,-1.015,380,2,364,399,403,2025-06-03T10:35:46.708557
1268,-0.3723,0.8682,0.2791,-0.140,-10.395,-1.085,386,1,356,392,399,2025-06-03T10:35:46.708557
1269,-0.3680,0.8677,0.2801,-0.350,-10.115,-1.085,391,2,354,357,390,2025-06-03T10:35:46.708557
1270,-0.3709,0.8642,0.2874,-0.595,-9.695,-1.120,368,1,330,381,356,2025-06-03T10:35:46.708557
1271,-0.3738,0.8613,0.2830,-0.700,-9.240,-1.050,351,1,343,386,385,2025-06-03T10:35:46.708557
1272,-0.3753,0.8579,0.2869,-0.630,-9.415,-1.155,338,1,352,350,377,2025-06-03T10:35:46.708557
1273,-0.3738,0.8545,0.2923,-0.630,-9.765,-1.225,356,1,357,331,383,2025-06-03T10:35:46.708557
1274,-0.3719,0.8545,0.2933,-0.175,-9.975,-1.155,374,1,357,375,396,2025-06-03T10:35:46.708557
1275,-0.3709,0.8555,0.2923,0.140,-9.765,-1.155,380,1,365,368,351,2025-06-03T10:35:46.708557
1276,-0.3655,0.8545,0.2899,0.665,-9.450,-1.085,385,1,358,371,380,2025-06-03T10:35:46.708557
1277,-0.3684,0.8555,0.2928,0.770,-8.890,-1.400,390,1,362,392,349,2025-06-03T10:35:46.708557
1278,-0.3684,0.8550,0.3006,0.945,-8.820,-1.785,394,1,366,398,372,2025-06-03T10:35:46.708557
1279,-0.3704,0.8584,0.3040,1.050,-8.995,-2.275,370,1,359,397,392,2025-06-03T10:35:46.708557
1280,-0.3806,0.8623,0.3065,0.875,-9.660,-2.975,370,2,366,413,386,2025-06-03T10:35:46.708557
1281,-0.3831,0.8642,0.3006,0.700,-11.375,-3.780,388,2,370,373,377,2025-06-03T10:35:46.708557
1282,-0.3748,0.8642,0.2982,0.420,-12.495,-4.340,382,1,366,387,370,2025-06-03T10:35:46.708557
1283,-0.3719,0.8662,0.3011,0.070,-13.090,-4.690,392,1,370,353,379,2025-06-03T10:35:46.708557
1284,-0.3626,0.8686,0.3035,-0.350,-12.810,-5.040,388,1,365,371,391,2025-06-03T10:35:46.708557
1285,-0.3631,0.8647,0.2987,-0.420,-12.600,-5.145,390,1,366,378,393,2025-06-03T10:35:46.708557
1286,-0.3719,0.8599,0.2987,-0.385,-12.810,-5.040,389,1,368,380,392,2025-06-03T10:35:46.757496
1287,-0.3782,0.8589,0.3074,-0.210,-12.775,-5.005,363,1,366,392,401,2025-06-03T10:35:46.757496
1288,-0.3841,0.8584,0.3065,0.385,-13.160,-4.760,385,1,363,400,384,2025-06-03T10:35:46.757496
1289,-0.3943,0.8535,0.3016,0.735,-13.790,-4.445,387,2,365,402,396,2025-06-03T10:35:46.757496
1290,-0.3963,0.8540,0.2962,1.120,-14.420,-3.920,385,2,362,368,388,2025-06-03T10:35:46.899268
1291,-0.3943,0.8564,0.2987,1.470,-14.210,-3.500,383,1,360,344,392,2025-06-03T10:35:46.899268
1292,-0.3943,0.8560,0.2972,1.680,-13.860,-2.940,391,1,364,326,382,2025-06-03T10:35:46.899268
1293,-0.3909,0.8579,0.2904,2.100,-13.545,-2.450,401,2,369,355,377,2025-06-03T10:35:46.899268
1294,-0.3875,0.8579,0.2908,2.240,-13.160,-2.030,397,1,368,369,378,2025-06-03T10:35:46.899268
1295,-0.3899,0.8579,0.2943,2.380,-12.985,-1.890,406,2,365,389,386,2025-06-03T10:35:47.068119
1296,-0.3811,0.8574,0.3021,2.555,-12.775,-1.365,403,1,369,383,378,2025-06-03T10:35:47.068119
1297,-0.3792,0.8564,0.2991,2.485,-12.810,-1.365,375,1,365,378,392,2025-06-03T10:35:47.068119
1298,-0.3811,0.8520,0.2908,2.345,-12.985,-1.365,385,2,368,389,352,2025-06-03T10:35:47.068119
1299,-0.3709,0.8540,0.2899,2.170,-13.370,-1.540,356,2,348,387,378,2025-06-03T10:35:47.068119
1300,-0.3670,0.8560,0.2972,2.240,-13.650,-1.645,346,1,357,352,385,2025-06-03T10:35:47.068119
1301,-0.3640,0.8550,0.2948,1.995,-13.335,-2.100,375,1,352,393,357,2025-06-03T10:35:47.068119
1302,-0.3640,0.8540,0.2938,2.170,-13.020,-2.450,376,1,359,395,366,2025-06-03T10:35:47.068119
1303,-0.3650,0.8560,0.2923,1.995,-12.600,-2.590,354,1,364,400,384,2025-06-03T10:35:47.068119
1304,-0.3675,0.8545,0.2977,2.170,-12.250,-2.660,366,2,343,397,383,2025-06-03T10:35:47.068119
1305,-0.3719,0.8535,0.3001,2.170,-12.075,-2.800,375,2,350,390,349,2025-06-03T10:35:47.068119
1306,-0.3723,0.8501,0.2948,2.520,-12.250,-2.695,387,2,354,388,382,2025-06-03T10:35:47.068119
1307,-0.3743,0.8506,0.2884,2.555,-12.040,-2.625,386,2,356,400,348,2025-06-03T10:35:47.068119
1308,-0.3719,0.8501,0.2957,2.625,-11.725,-2.555,399,2,365,397,377,2025-06-03T10:35:47.068119
1309,-0.3694,0.8535,0.2952,2.590,-11.095,-2.520,392,2,371,386,387,2025-06-03T10:35:47.068119
1310,-0.3777,0.8516,0.2928,2.450,-10.780,-2.520,388,1,369,385,388,2025-06-03T10:35:47.068119
1311,-0.3738,0.8560,0.2962,2.310,-10.955,-2.590,385,2,372,400,400,2025-06-03T10:35:47.068119
1312,-0.3743,0.8569,0.2982,2.310,-11.095,-2.800,394,2,377,401,391,2025-06-03T10:35:47.068119
1313,-0.3758,0.8594,0.3001,1.995,-11.095,-2.940,396,2,376,402,388,2025-06-03T10:35:47.068119
1314,-0.3748,0.8560,0.3021,1.820,-11.585,-3.045,394,2,371,391,376,2025-06-03T10:35:47.068119
1315,-0.3762,0.8564,0.3045,1.785,-12.040,-3.395,360,1,372,405,390,2025-06-03T10:35:47.068119
1316,-0.3738,0.8540,0.3040,1.785,-12.110,-3.605,346,2,375,406,366,2025-06-03T10:35:47.130057
1317,-0.3704,0.8564,0.3099,1.715,-11.690,-3.955,338,1,348,318,369,2025-06-03T10:35:47.130057
1318,-0.3689,0.8574,0.3016,1.890,-11.410,-4.130,366,2,331,365,344,2025-06-03T10:35:47.130057
1319,-0.3743,0.8560,0.3001,1.995,-11.410,-4.270,349,1,327,358,376,2025-06-03T10:35:47.130057
1320,-0.3772,0.8560,0.3001,1.995,-11.585,-4.270,365,1,341,373,386,2025-06-03T10:35:47.130057
1321,-0.3738,0.8540,0.2982,2.135,-11.795,-4.410,384,2,355,373,390,2025-06-03T10:35:47.181590
1322,-0.3733,0.8545,0.2972,2.205,-11.830,-4.410,388,1,362,398,404,2025-06-03T10:35:47.181590
1323,-0.3728,0.8569,0.2991,2.345,-11.340,-4.235,391,1,369,358,402,2025-06-03T10:35:47.181590
1324,-0.3758,0.8589,0.3016,2.310,-10.815,-4.305,398,1,367,337,399,2025-06-03T10:35:47.181590
1325,-0.3758,0.8579,0.2957,2.170,-10.430,-4.340,403,1,366,333,398,2025-06-03T10:35:47.181590
1326,-0.3831,0.8560,0.2913,2.100,-10.885,-4.270,403,2,369,356,364,2025-06-03T10:35:47.321983
1327,-0.3841,0.8550,0.2928,2.030,-11.620,-4.200,403,1,362,365,342,2025-06-03T10:35:47.321983
1328,-0.3802,0.8564,0.3006,2.065,-11.725,-3.815,409,1,366,374,367,2025-06-03T10:35:47.321983
1329,-0.3782,0.8550,0.2982,2.345,-10.990,-3.430,405,1,368,342,376,2025-06-03T10:35:47.321983
1330,-0.3772,0.8560,0.3001,2.380,-10.080,-3.115,401,2,368,370,396,2025-06-03T10:35:47.321983
1331,-0.3797,0.8555,0.3016,2.520,-9.205,-2.835,406,2,366,375,395,2025-06-03T10:35:47.321983
1332,-0.3816,0.8555,0.2991,2.555,-8.925,-2.555,406,1,362,387,400,2025-06-03T10:35:47.321983
1333,-0.3816,0.8569,0.2943,2.520,-9.135,-2.275,395,1,364,349,391,2025-06-03T10:35:47.321983
1334,-0.3821,0.8560,0.2967,2.415,-9.660,-2.135,392,1,365,376,402,2025-06-03T10:35:47.321983
1335,-0.3821,0.8545,0.3016,2.345,-9.660,-2.310,402,1,367,372,356,2025-06-03T10:35:47.321983
1336,-0.3743,0.8525,0.2972,2.170,-9.870,-2.415,407,2,369,368,385,2025-06-03T10:35:47.321983
1337,-0.3748,0.8520,0.2948,1.995,-10.045,-2.660,411,2,367,343,385,2025-06-03T10:35:47.321983
1338,-0.3738,0.8550,0.2996,1.960,-9.485,-3.010,410,1,343,322,388,2025-06-03T10:35:47.368897
1339,-0.3758,0.8540,0.3026,1.960,-8.960,-3.360,377,1,349,356,386,2025-06-03T10:35:47.368897
1340,-0.3826,0.8535,0.2987,1.855,-9.065,-3.570,394,2,363,362,395,2025-06-03T10:35:47.368897
1341,-0.3831,0.8511,0.3070,2.030,-9.380,-3.500,395,2,358,391,392,2025-06-03T10:35:47.368897
1342,-0.3845,0.8520,0.3123,1.960,-9.555,-3.605,389,1,338,374,396,2025-06-03T10:35:47.526829
1343,-0.3826,0.8530,0.3094,1.960,-9.660,-3.745,358,2,349,386,404,2025-06-03T10:35:47.526829
1344,-0.3802,0.8535,0.2996,1.610,-9.800,-3.990,348,1,350,402,391,2025-06-03T10:35:47.527155
1345,-0.3845,0.8520,0.3011,1.330,-9.975,-4.025,361,1,360,392,392,2025-06-03T10:35:47.527155
1346,-0.3865,0.8496,0.3065,1.050,-10.045,-4.200,343,1,363,399,397,2025-06-03T10:35:47.527155
1347,-0.3909,0.8511,0.3074,1.085,-10.290,-4.375,355,2,368,395,390,2025-06-03T10:35:47.527155
1348,-0.3958,0.8516,0.3089,1.155,-10.500,-4.515,371,1,364,400,397,2025-06-03T10:35:47.527155
1349,-0.3943,0.8491,0.3065,1.575,-10.640,-4.620,375,1,366,392,388,2025-06-03T10:35:47.527155
1350,-0.3938,0.8481,0.3045,2.030,-10.780,-4.655,382,1,361,383,379,2025-06-03T10:35:47.527155
1351,-0.3963,0.8477,0.3040,2.310,-10.500,-4.375,381,1,338,361,379,2025-06-03T10:35:47.527155
1352,-0.3963,0.8486,0.3050,2.380,-10.150,-4.305,388,1,339,369,372,2025-06-03T10:35:47.527155
1353,-0.4021,0.8467,0.3011,2.450,-10.640,-4.340,390,1,349,383,377,2025-06-03T10:35:47.527155
1354,-0.4041,0.8462,0.3016,2.520,-11.305,-4.025,396,1,350,401,395,2025-06-03T10:35:47.527155
1355,-0.3958,0.8408,0.3035,2.730,-11.550,-3.885,388,2,363,404,395,2025-06-03T10:35:47.778389
1356,-0.3899,0.8413,0.3040,2.730,-11.165,-3.675,397,1,362,410,397,2025-06-03T10:35:47.778389
1357,-0.3943,0.8452,0.3094,2.520,-10.850,-3.955,401,2,343,387,382,2025-06-03T10:35:47.778389
1358,-0.3967,0.8433,0.3148,2.485,-11.025,-4.410,398,1,349,393,380,2025-06-03T10:35:47.778389
1359,-0.4089,0.8457,0.3079,2.310,-12.460,-5.075,363,1,349,387,388,2025-06-03T10:35:47.778389
1360,-0.4128,0.8472,0.3157,2.310,-14.350,-5.775,376,1,351,392,356,2025-06-03T10:35:47.778389
1361,-0.4026,0.8418,0.3104,2.205,-15.925,-6.335,390,1,352,399,375,2025-06-03T10:35:47.778389
1362,-0.3919,0.8389,0.3128,1.960,-15.855,-7.070,391,2,360,364,379,2025-06-03T10:35:47.778389
1363,-0.3977,0.8384,0.3152,1.715,-14.910,-7.875,387,1,356,340,355,2025-06-03T10:35:47.778389
1364,-0.4202,0.8384,0.3216,1.295,-15.120,-8.750,384,1,354,357,372,2025-06-03T10:35:47.778389
1365,-0.4236,0.8301,0.3221,1.400,-16.695,-9.275,357,1,360,387,388,2025-06-03T10:35:47.778389
1366,-0.4192,0.8316,0.3333,1.680,-18.620,-9.520,372,2,369,380,388,2025-06-03T10:35:47.778389
1367,-0.4197,0.8379,0.3396,1.400,-18.900,-10.115,359,2,369,389,396,2025-06-03T10:35:47.778389
1368,-0.4207,0.8384,0.3377,1.120,-19.355,-11.200,380,2,374,403,390,2025-06-03T10:35:47.778389
1369,-0.4255,0.8369,0.3416,1.015,-20.685,-11.690,359,2,374,355,348,2025-06-03T10:35:47.778389
1370,-0.4358,0.8379,0.3421,1.225,-21.560,-12.285,377,1,372,332,359,2025-06-03T10:35:47.778389
1371,-0.4348,0.8379,0.3411,0.665,-22.190,-12.740,388,1,363,364,337,2025-06-03T10:35:47.778389
1372,-0.4372,0.8423,0.3426,-0.035,-23.065,-13.475,395,2,368,344,329,2025-06-03T10:35:47.778389
1373,-0.4465,0.8316,0.3392,-1.260,-24.395,-14.245,390,2,365,361,322,2025-06-03T10:35:47.778389
1374,-0.4499,0.8330,0.3455,-2.065,-26.180,-14.910,386,1,342,366,364,2025-06-03T10:35:47.778389
1375,-0.4543,0.8340,0.3494,-2.940,-27.125,-15.365,393,2,348,355,374,2025-06-03T10:35:47.936640
1376,-0.4514,0.8272,0.3367,-3.780,-27.020,-15.995,387,1,348,392,393,2025-06-03T10:35:47.936640
1377,-0.4446,0.8252,0.3299,-4.830,-26.320,-16.660,383,2,335,385,393,2025-06-03T10:35:47.936640
1378,-0.4441,0.8179,0.3274,-6.020,-25.340,-17.745,391,2,353,386,391,2025-06-03T10:35:47.936640
1379,-0.4397,0.8125,0.3328,-7.210,-24.500,-19.075,398,2,353,388,398,2025-06-03T10:35:47.936640
1380,-0.4509,0.8267,0.3245,-8.050,-24.395,-20.860,408,2,362,359,390,2025-06-03T10:35:47.936640
1381,-0.4612,0.8189,0.3138,-8.295,-25.515,-22.260,402,2,364,373,397,2025-06-03T10:35:47.936640
1382,-0.4621,0.8062,0.3040,-8.225,-28.420,-23.310,402,1,360,383,398,2025-06-03T10:35:47.936640
1383,-0.4656,0.8037,0.3201,-7.000,-32.095,-24.080,396,1,359,401,408,2025-06-03T10:35:47.936640
1384,-0.4641,0.7901,0.3211,-5.810,-35.385,-24.955,363,1,357,404,401,2025-06-03T10:35:47.936640
1385,-0.4455,0.7910,0.3084,-5.005,-37.765,-26.005,382,1,364,403,389,2025-06-03T10:35:47.936640
1386,-0.4197,0.7891,0.2972,-4.375,-38.150,-27.055,384,2,365,353,375,2025-06-03T10:35:47.936640
1387,-0.4046,0.7842,0.2962,-4.270,-36.645,-28.630,359,1,360,330,390,2025-06-03T10:35:47.936640
1388,-0.3880,0.7798,0.3035,-3.535,-33.145,-29.855,376,1,362,294,352,2025-06-03T10:35:47.936640
1389,-0.3894,0.7852,0.3026,-2.275,-29.015,-30.975,356,2,358,314,376,2025-06-03T10:35:48.144149
1390,-0.4060,0.7910,0.2830,-1.190,-25.480,-32.200,383,1,357,355,383,2025-06-03T10:35:48.144149
1391,-0.4221,0.7993,0.2923,-0.175,-24.150,-33.705,356,1,361,360,355,2025-06-03T10:35:48.144149
1392,-0.4475,0.8042,0.2913,0.980,-24.325,-34.930,340,1,364,386,374,2025-06-03T10:35:48.144149
1393,-0.4709,0.8086,0.2884,1.505,-25.970,-35.455,340,1,371,390,376,2025-06-03T10:35:48.144149
1394,-0.4890,0.8106,0.2830,2.205,-27.510,-35.105,363,1,372,401,376,2025-06-03T10:35:48.144149
1395,-0.5139,0.8086,0.2733,2.625,-28.910,-34.265,349,1,374,399,373,2025-06-03T10:35:48.144149
1396,-0.5285,0.8072,0.2616,3.080,-29.435,-32.690,339,1,366,401,345,2025-06-03T10:35:48.144149
1397,-0.5427,0.8057,0.2328,3.220,-27.825,-31.290,359,1,359,388,330,2025-06-03T10:35:48.144149
1398,-0.5436,0.8067,0.1884,3.150,-22.680,-30.345,378,1,361,386,327,2025-06-03T10:35:48.144149
1399,-0.5915,0.7906,0.1669,2.905,-19.670,-28.980,383,1,366,399,364,2025-06-03T10:35:48.144149
1400,-0.6320,0.7793,0.1601,3.255,-18.165,-27.405,357,2,366,403,372,2025-06-03T10:35:48.144149
1401,-0.6808,0.7579,0.1596,3.465,-18.620,-25.305,344,1,360,408,388,2025-06-03T10:35:48.144149
1402,-0.7222,0.7447,0.1732,3.535,-20.090,-22.470,366,1,365,395,378,2025-06-03T10:35:48.144149
1403,-0.7403,0.7198,0.1889,4.165,-23.660,-18.865,385,1,359,389,394,2025-06-03T10:35:48.144149
1404,-0.7662,0.6978,0.1972,4.970,-27.545,-14.910,387,1,363,389,388,2025-06-03T10:35:48.144149
1405,-0.7720,0.6925,0.2303,6.090,-33.985,-12.005,396,1,367,392,381,2025-06-03T10:35:48.144149
1406,-0.7608,0.6905,0.2577,7.630,-41.055,-9.380,402,2,371,352,380,2025-06-03T10:35:48.195083
1407,-0.7183,0.6905,0.2733,8.995,-46.970,-7.805,372,1,358,371,391,2025-06-03T10:35:48.195083
1408,-0.6656,0.6900,0.2957,10.605,-49.840,-7.735,389,1,363,383,389,2025-06-03T10:35:48.195083
1409,-0.6163,0.6891,0.3221,11.515,-49.105,-8.505,393,1,368,388,368,2025-06-03T10:35:48.195083
1410,-0.5734,0.6812,0.3362,12.775,-46.375,-10.115,388,1,367,389,370,2025-06-03T10:35:48.195083
1411,-0.5549,0.6788,0.3558,13.860,-44.555,-12.355,386,1,364,387,383,2025-06-03T10:35:48.244893
1412,-0.5622,0.6930,0.3904,15.785,-42.070,-15.330,395,2,344,394,391,2025-06-03T10:35:48.244893
1413,-0.5583,0.6969,0.4050,18.060,-39.970,-18.235,391,1,349,390,392,2025-06-03T10:35:48.244893
1414,-0.5256,0.7013,0.4016,19.775,-38.500,-21.455,393,1,344,346,392,2025-06-03T10:35:48.244893
1415,-0.4929,0.7144,0.4207,20.860,-36.120,-24.010,389,1,349,378,368,2025-06-03T10:35:48.348255
1416,-0.4626,0.7266,0.4543,20.930,-32.445,-26.285,359,1,350,398,388,2025-06-03T10:35:48.348255
1417,-0.4372,0.7447,0.4821,20.230,-29.435,-27.580,368,2,360,408,403,2025-06-03T10:35:48.348255
1418,-0.4319,0.7618,0.4973,18.830,-27.370,-27.790,349,1,361,410,392,2025-06-03T10:35:48.348255
1419,-0.4494,0.7764,0.5222,16.800,-28.210,-27.790,366,2,362,398,383,2025-06-03T10:35:48.348255
1420,-0.4670,0.7969,0.5441,14.245,-32.620,-27.685,382,1,358,391,383,2025-06-03T10:35:48.348255
1421,-0.4665,0.8218,0.5592,10.990,-38.570,-28.000,383,1,362,399,396,2025-06-03T10:35:48.348255
1422,-0.4704,0.8198,0.6110,7.350,-44.730,-29.225,393,1,365,405,388,2025-06-03T10:35:48.348255
1423,-0.4773,0.8047,0.7076,2.240,-51.975,-31.325,401,2,363,404,379,2025-06-03T10:35:48.348255
1424,-0.4821,0.8218,0.8491,-3.430,-65.555,-34.055,405,1,357,390,385,2025-06-03T10:35:48.551243
1425,-0.4490,0.8481,1.0019,-11.270,-80.815,-36.365,396,2,355,392,393,2025-06-03T10:35:48.551243
1426,-0.3860,0.9248,1.1863,-19.985,-99.260,-38.815,405,1,362,401,398,2025-06-03T10:35:48.551243
1427,-0.2718,1.0692,1.3742,-25.725,-119.105,-39.620,414,2,344,408,395,2025-06-03T10:35:48.551243
1428,-0.1557,1.3806,1.4142,-31.710,-136.010,-37.450,411,1,351,396,403,2025-06-03T10:35:48.551243
1429,0.1293,1.9691,1.2810,-39.340,-143.185,-29.505,413,1,356,400,397,2025-06-03T10:35:48.551243
1430,0.5636,2.8280,0.7379,-47.040,-128.520,-21.245,378,1,354,366,393,2025-06-03T10:35:48.551243
1431,1.1517,4.1348,-0.4168,-46.060,-83.055,-13.650,388,2,356,355,396,2025-06-03T10:35:48.551243
1432,1.4089,5.3002,-1.5216,-31.080,7.735,6.440,362,1,335,368,354,2025-06-03T10:35:48.551243
1433,0.8525,5.1538,-2.2443,-34.020,79.940,31.885,384,1,351,382,373,2025-06-03T10:35:48.551243
1434,-0.1493,4.7458,-2.6728,-105.630,77.595,78.785,387,2,362,359,368,2025-06-03T10:35:48.551243
1435,-0.7135,4.3447,-2.8284,-163.625,31.325,120.155,387,2,355,371,379,2025-06-03T10:35:48.551243
1436,-1.6641,4.0606,-2.8577,-233.520,25.165,123.655,373,1,352,352,340,2025-06-03T10:35:48.551243
1437,-2.8343,3.3184,-2.8997,-354.795,65.625,144.655,375,1,354,369,370,2025-06-03T10:35:48.551243
1438,-4.3969,2.1506,-2.9085,-455.840,78.085,211.295,386,1,361,391,370,2025-06-03T10:35:48.551243
1439,-5.5251,0.3270,-2.8182,-514.570,54.285,257.565,384,1,339,380,367,2025-06-03T10:35:48.551243
1440,-5.8848,-1.2337,-2.2141,-537.670,16.275,297.710,392,2,325,394,377,2025-06-03T10:35:48.907433
1441,-5.2333,-2.0145,-1.7617,-515.970,-3.710,344.155,400,1,343,413,393,2025-06-03T10:35:48.907433
1442,-4.4037,-3.3867,-1.1200,-449.365,3.780,369.740,392,2,351,408,392,2025-06-03T10:35:48.907433
1443,-3.6039,-4.3876,-0.3709,-329.595,-18.725,372.575,394,2,364,398,398,2025-06-03T10:35:48.907433
1444,-2.1433,-4.4306,0.5592,-267.295,-28.350,371.035,400,1,362,411,405,2025-06-03T10:35:48.907433
1445,-0.6051,-4.4193,0.8384,-195.965,1.820,341.495,405,1,368,397,360,2025-06-03T10:35:48.907433
1446,0.2826,-4.4266,1.0702,-122.185,50.190,288.960,396,1,363,397,383,2025-06-03T10:35:48.907433
1447,0.6983,-4.3115,1.4118,-63.910,75.250,233.485,390,2,373,399,350,2025-06-03T10:35:48.907433
1448,0.8672,-4.1563,1.6148,3.360,76.510,188.160,363,2,372,389,377,2025-06-03T10:35:48.907433
1449,1.1439,-3.7600,1.6987,56.455,81.270,131.985,376,2,373,399,377,2025-06-03T10:35:48.907433
1450,1.2586,-3.1847,1.7026,90.370,110.320,79.450,387,2,366,408,354,2025-06-03T10:35:48.907433
1451,0.9350,-2.5722,1.6924,109.410,130.515,27.685,360,1,371,399,361,2025-06-03T10:35:48.907433
1452,0.5666,-2.0681,1.6163,115.255,126.910,-14.490,374,1,372,366,339,2025-06-03T10:35:48.907433
1453,0.1498,-1.6890,1.5055,122.290,106.540,-49.490,379,2,372,375,364,2025-06-03T10:35:48.907433
1454,-0.2420,-1.3708,1.3025,130.340,78.295,-78.750,364,1,367,392,384,2025-06-03T10:35:48.907433
1455,-0.5622,-1.0243,1.0834,146.440,44.905,-107.240,339,1,370,393,387,2025-06-03T10:35:48.907433
1456,-0.6622,-0.7340,0.8818,156.310,21.700,-115.010,355,2,363,394,355,2025-06-03T10:35:48.907433
1457,-0.8072,-0.4187,0.8257,165.305,12.705,-125.195,362,1,365,385,366,2025-06-03T10:35:48.907433
1458,-0.8740,-0.1688,0.6598,168.385,19.460,-123.130,376,0,345,388,382,2025-06-03T10:35:48.907433
1459,-0.9648,0.0298,0.5192,171.290,26.110,-112.875,385,2,359,399,386,2025-06-03T10:35:48.907433
1460,-0.9911,0.2216,0.4207,169.295,38.010,-100.520,386,2,362,387,390,2025-06-03T10:35:48.907433
1461,-1.2166,0.3538,0.3084,165.970,41.790,-86.975,397,1,360,390,384,2025-06-03T10:35:48.907433
1462,-1.3952,0.4485,0.2318,163.730,21.175,-73.255,394,2,363,375,379,2025-06-03T10:35:48.907433
1463,-1.3786,0.5680,0.2464,160.300,-6.755,-62.790,398,1,362,343,371,2025-06-03T10:35:48.907433
1464,-1.2820,0.6305,0.3396,155.330,-34.055,-54.915,404,1,358,366,388,2025-06-03T10:35:48.907433
1465,-1.0892,0.6861,0.4490,156.625,-50.890,-49.455,402,2,359,381,391,2025-06-03T10:35:48.907433
1466,-1.0297,0.8535,0.3919,159.250,-57.925,-41.825,403,2,361,385,389,2025-06-03T10:35:48.907433
1467,-1.0272,0.9121,0.2767,160.195,-62.335,-35.385,403,1,366,382,389,2025-06-03T10:35:48.907433
1468,-0.9604,0.9623,0.1928,160.055,-68.915,-29.050,391,2,369,383,396,2025-06-03T10:35:48.907433
1469,-0.9043,0.9467,0.1488,160.475,-77.595,-22.085,401,1,368,399,403,2025-06-03T10:35:48.907433
1470,-0.8335,0.9599,0.1952,160.300,-81.970,-14.525,399,1,373,383,400,2025-06-03T10:35:49.167508
1471,-0.6627,1.0180,0.3167,160.055,-76.055,-7.105,399,2,374,400,367,2025-06-03T10:35:49.167508
1472,-0.5251,1.0643,0.3958,159.075,-65.065,-0.700,399,1,369,398,388,2025-06-03T10:35:49.167508
1473,-0.4773,1.1004,0.3636,157.710,-49.105,5.040,406,2,371,404,382,2025-06-03T10:35:49.167508
1474,-0.4817,1.1024,0.2694,154.910,-35.350,10.920,405,1,367,405,390,2025-06-03T10:35:49.167508
1475,-0.4924,1.0487,0.2011,150.150,-28.105,13.965,404,2,363,392,380,2025-06-03T10:35:49.167508
1476,-0.4846,0.9916,0.1669,146.475,-25.830,14.210,398,1,366,392,377,2025-06-03T10:35:49.167508
1477,-0.4568,0.9950,0.1440,142.170,-27.895,13.090,398,1,366,383,345,2025-06-03T10:35:49.167508
1478,-0.4402,1.0116,0.1474,137.830,-30.695,10.745,391,1,339,340,334,2025-06-03T10:35:49.167508
1479,-0.3972,1.0346,0.1688,131.565,-31.920,8.050,399,2,344,378,375,2025-06-03T10:35:49.167508
1480,-0.3157,1.0526,0.2001,123.480,-28.350,4.690,389,1,349,384,314,2025-06-03T10:35:49.167508
1481,-0.2738,1.0463,0.1918,113.855,-22.785,2.345,396,2,358,398,363,2025-06-03T10:35:49.167508
1482,-0.2952,1.0302,0.1591,105.735,-19.635,1.505,403,1,365,396,365,2025-06-03T10:35:49.167508
1483,-0.3035,1.0604,0.1435,95.305,-19.075,0.980,401,1,369,382,333,2025-06-03T10:35:49.167508
1484,-0.2782,1.0760,0.1230,84.455,-18.795,0.175,408,1,370,380,373,2025-06-03T10:35:49.167508
1485,-0.2884,1.0648,0.1396,75.040,-20.895,0.525,407,1,343,377,367,2025-06-03T10:35:49.167508
1486,-0.3182,1.0477,0.1640,65.730,-23.450,0.980,406,1,342,395,381,2025-06-03T10:35:49.167508
1487,-0.3304,1.0238,0.2040,59.360,-26.215,1.435,405,1,353,397,381,2025-06-03T10:35:49.167508
1488,-0.3177,1.0043,0.2308,52.920,-28.350,3.080,403,1,350,352,374,2025-06-03T10:35:49.167508
1489,-0.3070,0.9975,0.1947,48.860,-30.450,4.760,409,1,348,386,389,2025-06-03T10:35:49.167508
1490,-0.3338,1.0106,0.1566,45.080,-32.830,6.825,407,1,354,402,384,2025-06-03T10:35:49.167508
1491,-0.3504,1.0189,0.1210,40.285,-34.125,7.000,400,2,337,398,379,2025-06-03T10:35:49.213358
1492,-0.3377,1.0024,0.0947,36.505,-35.525,6.895,392,1,347,398,351,2025-06-03T10:35:49.213358
1493,-0.3353,0.9970,0.0908,33.565,-35.140,6.685,398,1,356,389,367,2025-06-03T10:35:49.213358
1494,-0.3558,0.9828,0.0947,30.975,-32.830,6.265,392,2,363,401,372,2025-06-03T10:35:49.213358
1495,-0.3475,1.0048,0.0888,29.610,-28.770,5.950,385,2,365,402,379,2025-06-03T10:35:49.268455
1496,-0.3382,1.0150,0.0600,28.700,-21.875,5.880,389,2,364,360,389,2025-06-03T10:35:49.268455
1497,-0.3460,1.0160,0.0669,28.175,-15.085,6.160,389,1,353,390,403,2025-06-03T10:35:49.268455
1498,-0.3655,1.0150,0.0576,26.600,-9.905,6.265,386,2,357,380,407,2025-06-03T10:35:49.268455
1499,-0.4026,1.0097,0.0571,25.235,-9.660,5.985,386,1,360,400,362,2025-06-03T10:35:49.369620
1500,-0.4143,1.0048,0.0537,24.150,-13.965,5.355,354,1,359,398,375,2025-06-03T10:35:49.369620
1501,-0.4231,0.9989,0.0659,23.450,-19.075,4.165,363,1,365,395,376,2025-06-03T10:35:49.369620
1502,-0.3963,0.9921,0.0766,21.910,-20.860,2.415,368,2,361,404,316,2025-06-03T10:35:49.369620
1503,-0.3753,0.9721,0.1010,20.055,-20.510,1.190,379,1,358,391,352,2025-06-03T10:35:49.369620
1504,-0.3504,0.9638,0.1118,17.675,-18.970,-0.070,382,2,366,406,366,2025-06-03T10:35:49.369620
1505,-0.3401,0.9594,0.1230,15.085,-16.975,-1.015,389,1,368,356,336,2025-06-03T10:35:49.369620
1506,-0.3421,0.9457,0.1327,13.440,-15.470,-1.715,390,1,354,368,335,2025-06-03T10:35:49.369620
1507,-0.3558,0.9467,0.1283,10.990,-15.750,-2.205,389,2,354,385,369,2025-06-03T10:35:49.369620
1508,-0.3621,0.9472,0.1347,8.995,-15.820,-2.940,390,1,354,358,366,2025-06-03T10:35:49.418377
1509,-0.3709,0.9335,0.1371,6.790,-16.415,-3.430,393,1,359,370,377,2025-06-03T10:35:49.418377
1510,-0.3650,0.9238,0.1508,4.655,-16.730,-4.095,382,1,359,375,386,2025-06-03T10:35:49.418377
1511,-0.3675,0.9096,0.1654,2.450,-17.920,-4.900,393,1,361,383,393,2025-06-03T10:35:49.418377
1512,-0.3797,0.9033,0.1679,1.540,-20.195,-4.970,366,2,359,350,393,2025-06-03T10:35:49.469114
1513,-0.3938,0.9018,0.1635,0.595,-22.330,-4.970,378,1,359,367,394,2025-06-03T10:35:49.469114
1514,-0.3924,0.8974,0.1488,-0.070,-24.500,-5.005,395,1,364,345,387,2025-06-03T10:35:49.469114
1515,-0.3772,0.8974,0.1498,-0.455,-25.690,-5.110,383,2,363,373,392,2025-06-03T10:35:49.469114
1516,-0.3660,0.8730,0.1537,-0.035,-25.515,-4.130,387,2,360,378,401,2025-06-03T10:35:49.593584
1517,-0.3758,0.8745,0.1566,0.700,-26.040,-3.150,383,1,357,374,398,2025-06-03T10:35:49.593584
1518,-0.3831,0.8774,0.1693,1.505,-26.565,-2.065,360,1,357,340,367,2025-06-03T10:35:49.593584
1519,-0.3699,0.8877,0.1591,2.660,-27.125,-1.715,372,2,360,360,389,2025-06-03T10:35:49.593584
1520,-0.3645,0.8867,0.1552,4.375,-26.880,-1.435,382,2,367,372,404,2025-06-03T10:35:49.593584
1521,-0.3582,0.8867,0.1415,5.845,-27.405,-1.050,396,1,363,383,409,2025-06-03T10:35:49.593584
1522,-0.3494,0.8891,0.1327,7.000,-27.825,-0.665,400,1,367,376,394,2025-06-03T10:35:49.593584
1523,-0.3504,0.8847,0.1157,7.735,-28.805,0.210,400,1,369,376,393,2025-06-03T10:35:49.593584
1524,-0.3382,0.8808,0.1230,8.890,-28.910,1.050,407,1,362,371,380,2025-06-03T10:35:49.593584
1525,-0.3235,0.8852,0.1430,10.185,-27.650,1.610,372,1,353,384,361,2025-06-03T10:35:49.641752
1526,-0.3226,0.8847,0.1386,10.990,-25.305,1.645,372,1,358,390,385,2025-06-03T10:35:49.641752
1527,-0.3279,0.8862,0.1318,11.865,-24.360,1.925,376,2,366,404,352,2025-06-03T10:35:49.641752
1528,-0.3367,0.8886,0.1288,12.950,-24.990,2.275,359,2,362,351,328,2025-06-03T10:35:49.641752
1529,-0.3284,0.8916,0.1371,13.580,-24.745,2.135,379,1,360,356,333,2025-06-03T10:35:49.641752
1530,-0.3231,0.8930,0.1513,14.280,-23.415,1.435,388,2,345,372,374,2025-06-03T10:35:49.641752
1531,-0.3201,0.8911,0.1576,14.700,-21.105,0.525,401,2,352,365,376,2025-06-03T10:35:49.692773
1532,-0.3377,0.8852,0.1664,15.050,-19.915,-0.385,379,1,358,376,392,2025-06-03T10:35:49.692773
1533,-0.3504,0.8857,0.1791,15.260,-19.705,-1.400,379,1,360,386,389,2025-06-03T10:35:49.692773
1534,-0.3601,0.8916,0.1874,15.330,-19.985,-2.310,360,1,364,353,374,2025-06-03T10:35:49.692773
1535,-0.3694,0.8862,0.1967,15.575,-20.475,-2.870,368,2,365,364,360,2025-06-03T10:35:49.785162
1536,-0.3699,0.8833,0.1976,15.575,-21.210,-3.010,376,1,366,373,366,2025-06-03T10:35:49.785162
1537,-0.3723,0.8799,0.2074,15.015,-21.175,-3.045,365,1,362,375,381,2025-06-03T10:35:49.785162
1538,-0.3670,0.8794,0.2186,14.560,-20.055,-3.045,374,1,360,380,361,2025-06-03T10:35:49.785162
1539,-0.3655,0.8818,0.2230,14.000,-19.145,-2.940,389,2,362,396,380,2025-06-03T10:35:49.785162
1540,-0.3733,0.8823,0.2230,13.370,-18.970,-3.465,387,1,368,391,388,2025-06-03T10:35:49.785162
1541,-0.3806,0.8818,0.2181,12.810,-19.425,-4.165,396,1,361,387,388,2025-06-03T10:35:49.785162
1542,-0.3806,0.8847,0.2196,11.900,-20.510,-5.250,394,1,356,390,387,2025-06-03T10:35:49.987590
1543,-0.3733,0.8984,0.2250,11.375,-21.490,-6.790,397,2,361,385,382,2025-06-03T10:35:49.987590
1544,-0.3723,0.8950,0.2206,11.200,-21.630,-7.840,392,1,363,402,395,2025-06-03T10:35:49.987590
1545,-0.3738,0.8911,0.2220,10.570,-22.050,-8.855,389,1,362,400,397,2025-06-03T10:35:49.987590
1546,-0.3821,0.8882,0.2245,9.905,-22.225,-9.660,398,2,360,391,401,2025-06-03T10:35:49.987590
1547,-0.3850,0.8852,0.2216,9.415,-22.680,-10.185,398,1,359,382,403,2025-06-03T10:35:49.987590
1548,-0.3772,0.8979,0.2225,8.890,-22.680,-10.535,386,1,357,384,405,2025-06-03T10:35:49.987590
1549,-0.3699,0.9062,0.2176,8.470,-21.700,-10.920,389,1,354,362,378,2025-06-03T10:35:49.987590
1550,-0.3592,0.9067,0.2118,8.190,-19.880,-11.060,368,2,351,383,388,2025-06-03T10:35:49.987590
1551,-0.3616,0.9067,0.2128,7.350,-18.305,-11.165,375,2,354,350,371,2025-06-03T10:35:49.987590
1552,-0.3714,0.9028,0.2259,6.510,-17.920,-10.990,381,1,357,379,392,2025-06-03T10:35:49.987590
1553,-0.3811,0.9023,0.2323,5.600,-18.620,-10.640,390,1,361,394,392,2025-06-03T10:35:49.987590
1554,-0.3841,0.9018,0.2342,4.270,-19.845,-10.430,364,1,364,360,346,2025-06-03T10:35:49.987590
1555,-0.3806,0.9008,0.2416,2.695,-21.665,-10.185,383,1,356,347,369,2025-06-03T10:35:49.987590
1556,-0.3758,0.8960,0.2494,1.330,-22.225,-10.430,389,2,363,371,372,2025-06-03T10:35:49.987590
1557,-0.3762,0.8945,0.2596,-0.140,-22.155,-11.130,400,1,370,384,343,2025-06-03T10:35:49.987590
1558,-0.3772,0.8921,0.2699,-1.155,-22.365,-12.215,390,1,362,392,371,2025-06-03T10:35:49.987590
1559,-0.3914,0.8852,0.2884,-2.240,-23.520,-13.790,387,2,359,385,373,2025-06-03T10:35:50.086694
1560,-0.4031,0.8672,0.3094,-3.045,-26.320,-15.645,394,2,367,391,370,2025-06-03T10:35:50.086694
1561,-0.4192,0.8486,0.3304,-4.165,-29.925,-17.920,397,1,362,384,340,2025-06-03T10:35:50.086694
1562,-0.4221,0.8325,0.3460,-5.145,-35.210,-20.230,390,2,341,382,363,2025-06-03T10:35:50.086694
1563,-0.4002,0.8159,0.3704,-6.720,-40.145,-23.520,396,2,328,355,335,2025-06-03T10:35:50.086694
1564,-0.3850,0.8145,0.3919,-8.925,-44.730,-28.420,401,1,343,336,333,2025-06-03T10:35:50.086694
1565,-0.3684,0.8023,0.4460,-11.830,-48.895,-34.265,398,2,346,344,371,2025-06-03T10:35:50.086694
1566,-0.3611,0.8003,0.5085,-16.450,-62.685,-41.650,402,1,356,350,387,2025-06-03T10:35:50.086694
1567,-0.3611,0.7847,0.6007,-21.875,-61.810,-50.365,404,1,364,332,397,2025-06-03T10:35:50.086694
1568,-0.3699,0.7793,0.6681,-27.930,-74.865,-58.100,393,1,341,352,403,2025-06-03T10:35:50.188980
1569,-0.3631,0.7686,0.7379,-35.735,-91.840,-68.600,389,1,357,379,407,2025-06-03T10:35:50.188980
1570,-0.3518,0.7749,0.8262,-43.575,-109.970,-80.605,401,1,367,384,413,2025-06-03T10:35:50.188980
1571,-0.3592,0.8028,0.8847,-52.325,-129.045,-93.625,389,2,369,396,402,2025-06-03T10:35:50.188980
1572,-0.2796,0.8403,0.9711,-60.130,-147.665,-108.780,388,1,366,406,395,2025-06-03T10:35:50.188980
1573,-0.1972,0.9823,1.0643,-68.110,-161.910,-122.710,395,1,360,407,389,2025-06-03T10:35:50.188980
1574,-0.1352,1.2293,1.1151,-77.175,-167.965,-132.615,401,1,366,404,387,2025-06-03T10:35:50.188980
1575,-0.0630,1.4337,1.0746,-86.940,-172.375,-140.245,392,1,364,405,386,2025-06-03T10:35:50.188980
1576,0.0137,1.7519,0.8252,-95.760,-173.915,-149.835,400,2,362,407,392,2025-06-03T10:35:50.236870
1577,0.2006,2.2897,0.2801,-101.570,-164.290,-155.750,405,1,360,399,377,2025-06-03T10:35:50.236870
1578,0.5226,2.9016,-0.5514,-102.480,-133.245,-163.905,396,2,362,400,392,2025-06-03T10:35:50.236870
1579,0.5026,3.5746,-1.1190,-114.275,-81.340,-164.675,385,2,367,398,356,2025-06-03T10:35:50.236870
1580,-0.2152,4.1036,-1.8017,-120.785,-59.290,-135.555,394,2,361,389,371,2025-06-03T10:35:50.291841
1581,-1.1107,4.8058,-2.7060,-139.265,-87.115,-80.535,383,2,355,395,387,2025-06-03T10:35:50.291841
1582,-1.8656,4.8907,-3.3950,-134.190,-114.625,-14.910,385,2,352,351,376,2025-06-03T10:35:50.291841
1583,-2.8489,4.2768,-3.4424,-226.485,-105.665,66.570,381,1,336,376,389,2025-06-03T10:35:50.291841
1584,-3.6171,3.4223,-2.9670,-308.980,-59.780,154.350,387,1,342,397,383,2025-06-03T10:35:50.395867
1585,-4.5457,2.5966,-2.6494,-372.435,31.500,292.775,394,2,342,387,391,2025-06-03T10:35:50.395867
1586,-5.4451,1.5474,-2.6069,-444.780,130.060,378.560,384,1,349,381,389,2025-06-03T10:35:50.395867
1587,-6.7949,0.3011,-2.3058,-492.415,130.375,460.775,380,1,355,389,388,2025-06-03T10:35:50.395867
1588,-7.5752,-1.2615,-1.7422,-529.515,27.440,510.300,394,1,359,392,350,2025-06-03T10:35:50.395867
1589,-6.3879,-2.2546,-1.5528,-471.835,-98.665,559.160,408,2,346,395,340,2025-06-03T10:35:50.395867
1590,-4.5716,-3.2467,-1.0321,-423.325,-121.730,567.595,409,1,345,402,377,2025-06-03T10:35:50.770252
1591,-2.7216,-4.2524,-0.4621,-318.325,-68.145,553.140,405,2,347,385,390,2025-06-03T10:35:50.770252
1592,-1.3293,-4.5789,-0.0112,-237.755,8.575,514.010,406,2,350,394,396,2025-06-03T10:35:50.770252
1593,-0.6559,-4.6828,0.4504,-171.290,108.150,458.290,407,2,358,357,394,2025-06-03T10:35:50.770252
1594,-0.6002,-4.7136,0.7442,-85.120,150.710,406.840,409,1,359,376,387,2025-06-03T10:35:50.770252
1595,-0.4914,-4.5277,1.0180,-29.750,145.810,342.965,399,2,344,348,388,2025-06-03T10:35:50.770252
1596,-0.1557,-4.1617,1.2839,26.215,120.820,280.420,393,2,353,374,396,2025-06-03T10:35:50.770252
1597,0.1352,-3.7356,1.4054,67.165,119.350,220.010,404,1,356,394,365,2025-06-03T10:35:50.770252
1598,0.2113,-3.2745,1.4884,90.615,127.995,164.885,401,2,355,348,334,2025-06-03T10:35:50.770252
1599,0.1118,-2.7875,1.5338,114.590,130.760,117.355,405,1,346,383,368,2025-06-03T10:35:50.770252
1600,-0.0405,-2.2633,1.5387,129.395,130.095,77.070,376,2,354,404,352,2025-06-03T10:35:50.770252
1601,-0.1703,-1.7373,1.5016,140.035,124.110,43.820,356,2,353,400,337,2025-06-03T10:35:50.770252
1602,-0.3518,-1.2756,1.4411,143.955,111.930,22.190,378,1,357,387,324,2025-06-03T10:35:50.770252
1603,-0.5778,-1.0394,1.3215,145.390,88.340,-1.225,388,1,361,391,350,2025-06-03T10:35:50.770252
1604,-0.8350,-0.7135,1.2146,146.020,58.905,-19.810,401,1,355,401,374,2025-06-03T10:35:50.770252
1605,-0.8540,-0.3445,1.1331,147.665,28.035,-34.125,366,2,353,409,389,2025-06-03T10:35:50.770252
1606,-0.8023,-0.0522,1.1136,150.360,4.900,-46.060,374,1,357,392,361,2025-06-03T10:35:50.770252
1607,-0.6964,0.1327,1.0326,150.045,-3.745,-51.590,389,1,358,354,361,2025-06-03T10:35:50.770252
1608,-0.6578,0.2708,0.9165,147.945,-1.400,-53.515,384,1,355,364,378,2025-06-03T10:35:50.770252
1609,-0.6300,0.3899,0.7784,143.500,14.035,-56.140,397,1,362,345,377,2025-06-03T10:35:50.770252
1610,-0.7032,0.4934,0.6637,138.880,27.335,-56.455,396,1,339,362,391,2025-06-03T10:35:50.821116
1611,-0.8672,0.5207,0.5275,134.470,23.380,-53.270,389,2,350,390,385,2025-06-03T10:35:50.821116
1612,-1.0121,0.5417,0.4719,130.970,3.955,-48.895,398,1,352,399,391,2025-06-03T10:35:50.821116
1613,-1.0472,0.6041,0.4982,129.360,-13.895,-44.240,398,1,356,392,354,2025-06-03T10:35:50.821116
1614,-0.9989,0.7105,0.5231,132.580,-33.740,-41.160,366,1,360,378,347,2025-06-03T10:35:50.821116
1615,-0.9160,0.7564,0.4856,135.450,-44.730,-37.450,375,1,364,360,365,2025-06-03T10:35:50.821116
1616,-0.8555,0.8062,0.4226,135.135,-49.665,-34.125,388,1,368,396,381,2025-06-03T10:35:50.821116
1617,-0.7549,0.8345,0.4119,130.060,-49.700,-30.555,386,1,350,402,381,2025-06-03T10:35:50.821116
1618,-0.7120,0.8438,0.3865,124.285,-47.985,-26.705,394,2,358,395,347,2025-06-03T10:35:50.821116
1619,-0.6959,0.8413,0.3977,115.710,-49.630,-22.120,401,1,361,381,362,2025-06-03T10:35:50.821116
1620,-0.6486,0.8872,0.4553,110.145,-50.890,-18.550,406,2,366,360,384,2025-06-03T10:35:50.821116
1621,-0.6202,0.9316,0.4919,106.855,-51.765,-16.485,399,1,361,383,383,2025-06-03T10:35:50.821116
1622,-0.6022,0.9321,0.4597,105.980,-54.005,-15.120,404,1,367,383,391,2025-06-03T10:35:50.821116
1623,-0.5851,0.9101,0.4021,104.825,-59.990,-13.790,395,1,364,393,401,2025-06-03T10:35:50.821116
1624,-0.5558,0.8921,0.3538,103.985,-67.095,-13.405,395,1,359,380,398,2025-06-03T10:35:50.821116
1625,-0.5290,0.8623,0.3392,102.340,-73.290,-13.545,402,2,358,400,389,2025-06-03T10:35:50.821116
1626,-0.4470,0.8638,0.3323,100.415,-76.650,-14.560,389,2,358,350,381,2025-06-03T10:35:50.821116
1627,-0.4270,0.8989,0.3123,98.980,-78.645,-15.225,393,2,355,376,380,2025-06-03T10:35:50.821116
1628,-0.4163,0.9033,0.2987,98.000,-79.205,-16.170,399,2,356,394,387,2025-06-03T10:35:50.890931
1629,-0.4163,0.9013,0.2669,95.760,-79.800,-17.220,399,1,336,384,390,2025-06-03T10:35:50.890931
1630,-0.3938,0.8950,0.2440,92.540,-79.975,-18.060,401,1,345,397,396,2025-06-03T10:35:50.890931
1631,-0.3680,0.8940,0.2172,89.425,-78.575,-19.180,391,2,352,403,388,2025-06-03T10:35:50.890931
1632,-0.3450,0.8926,0.2133,84.910,-75.215,-20.405,401,2,361,393,385,2025-06-03T10:35:51.010879
1633,-0.3792,0.8682,0.2098,80.535,-73.080,-21.385,402,1,365,382,387,2025-06-03T10:35:51.010879
1634,-0.4172,0.8760,0.2157,76.405,-73.290,-21.980,402,1,357,392,383,2025-06-03T10:35:51.010879
1635,-0.4280,0.8921,0.2098,73.325,-73.640,-22.295,406,1,363,384,384,2025-06-03T10:35:51.010879
1636,-0.4192,0.9170,0.2118,70.840,-73.325,-22.505,368,1,353,346,353,2025-06-03T10:35:51.010879
1637,-0.4138,0.9321,0.2006,68.215,-71.540,-22.330,379,1,352,333,369,2025-06-03T10:35:51.010879
1638,-0.3806,0.9350,0.1874,65.625,-67.830,-21.700,387,1,364,370,378,2025-06-03T10:35:51.010879
1639,-0.3738,0.9355,0.1762,63.630,-63.875,-19.950,396,2,364,375,381,2025-06-03T10:35:51.010879
1640,-0.3802,0.9448,0.1893,61.040,-60.305,-18.165,400,1,367,391,390,2025-06-03T10:35:51.010879
1641,-0.3802,0.9565,0.2040,59.115,-55.230,-17.045,402,2,368,354,393,2025-06-03T10:35:51.010879
1642,-0.3650,0.9740,0.2079,58.380,-50.785,-15.190,396,1,368,387,401,2025-06-03T10:35:51.010879
1643,-0.3616,0.9980,0.1913,57.225,-47.530,-12.775,402,2,364,395,403,2025-06-03T10:35:51.010879
1644,-0.3792,0.9911,0.1879,56.280,-45.010,-10.045,404,2,367,394,388,2025-06-03T10:35:51.228625
1645,-0.3675,0.9916,0.2045,54.565,-43.400,-7.875,413,1,370,358,398,2025-06-03T10:35:51.228625
1646,-0.3728,0.9897,0.2186,52.780,-42.735,-5.390,412,1,368,390,407,2025-06-03T10:35:51.228625
1647,-0.3577,0.9980,0.2255,50.330,-43.260,-3.080,407,1,373,388,408,2025-06-03T10:35:51.228625
1648,-0.3533,1.0053,0.2245,46.970,-43.610,-0.700,405,1,376,401,397,2025-06-03T10:35:51.228625
1649,-0.3182,0.9945,0.2206,43.330,-43.820,1.540,390,1,376,367,378,2025-06-03T10:35:51.228625
1650,-0.2957,0.9960,0.2313,39.760,-43.120,3.500,339,2,349,377,388,2025-06-03T10:35:51.228625
1651,-0.2830,0.9862,0.2435,36.015,-40.250,4.270,350,2,356,378,388,2025-06-03T10:35:51.228625
1652,-0.2747,0.9814,0.2489,31.780,-36.155,4.165,366,2,366,380,376,2025-06-03T10:35:51.228625
1653,-0.2918,0.9750,0.2572,28.035,-32.865,3.500,382,2,363,342,344,2025-06-03T10:35:51.228625
1654,-0.3148,0.9501,0.2528,25.130,-32.830,2.695,353,1,361,360,369,2025-06-03T10:35:51.228625
1655,-0.3299,0.9272,0.2464,22.715,-34.650,1.925,368,1,371,336,377,2025-06-03T10:35:51.228625
1656,-0.3445,0.9121,0.2450,21.175,-36.540,1.085,364,1,367,353,393,2025-06-03T10:35:51.228625
1657,-0.3382,0.9013,0.2538,19.425,-37.240,0.245,346,1,344,379,400,2025-06-03T10:35:51.228625
1658,-0.3123,0.8950,0.2542,18.515,-35.875,-0.560,370,1,354,401,387,2025-06-03T10:35:51.228625
1659,-0.3006,0.8886,0.2455,17.815,-32.025,-1.085,380,1,350,346,352,2025-06-03T10:35:51.228625
1660,-0.3104,0.8721,0.2420,17.430,-27.230,-1.050,379,1,349,357,374,2025-06-03T10:35:51.228625
1661,-0.3211,0.8721,0.2435,16.870,-22.925,-0.700,386,1,360,370,313,2025-06-03T10:35:51.228625
1662,-0.3148,0.8579,0.2513,16.975,-20.055,0.105,382,2,358,369,344,2025-06-03T10:35:51.406433
1663,-0.3309,0.8525,0.2567,16.870,-17.430,0.700,382,2,359,345,365,2025-06-03T10:35:51.406433
1664,-0.3518,0.8477,0.2616,16.905,-16.590,0.805,379,1,360,365,387,2025-06-03T10:35:51.406433
1665,-0.3548,0.8506,0.2684,16.870,-18.130,0.910,393,1,357,374,385,2025-06-03T10:35:51.406433
1666,-0.3411,0.8496,0.2645,17.465,-20.090,0.875,383,2,353,378,356,2025-06-03T10:35:51.406433
1667,-0.3279,0.8555,0.2582,18.235,-20.650,0.735,391,1,351,377,380,2025-06-03T10:35:51.406433
1668,-0.3265,0.8623,0.2664,18.690,-19.635,0.175,392,1,361,402,390,2025-06-03T10:35:51.406433
1669,-0.3206,0.8725,0.2777,18.690,-19.110,-0.420,389,2,360,406,385,2025-06-03T10:35:51.406433
1670,-0.3187,0.8779,0.2806,19.530,-18.445,-0.385,398,2,362,413,377,2025-06-03T10:35:51.406433
1671,-0.3065,0.8940,0.2704,19.670,-17.045,-0.420,398,1,357,396,352,2025-06-03T10:35:51.406433
1672,-0.3001,0.9121,0.2674,19.565,-14.630,-0.700,401,1,354,362,364,2025-06-03T10:35:51.406433
1673,-0.3016,0.9238,0.2728,18.690,-13.055,-1.050,372,1,349,367,383,2025-06-03T10:35:51.406433
1674,-0.3123,0.9326,0.2674,18.060,-12.250,-1.190,381,1,348,385,380,2025-06-03T10:35:51.406433
1675,-0.3226,0.9316,0.2596,16.975,-12.775,-1.015,393,2,359,347,377,2025-06-03T10:35:51.406433
1676,-0.3245,0.9389,0.2586,15.645,-13.055,-1.085,384,1,356,335,379,2025-06-03T10:35:51.406433
1677,-0.3250,0.9365,0.2596,14.000,-13.020,-1.260,393,1,358,359,387,2025-06-03T10:35:51.406433
1678,-0.3274,0.9311,0.2528,12.110,-13.265,-1.015,390,2,364,383,385,2025-06-03T10:35:51.622702
1679,-0.3328,0.9248,0.2499,9.940,-13.720,-0.875,392,2,341,383,347,2025-06-03T10:35:51.622702
1680,-0.3431,0.9145,0.2401,7.910,-14.665,-0.630,393,1,351,384,338,2025-06-03T10:35:51.622702
1681,-0.3465,0.9096,0.2416,6.160,-15.120,-0.420,387,2,352,387,364,2025-06-03T10:35:51.622702
1682,-0.3436,0.9052,0.2440,4.655,-14.980,-0.385,370,2,356,389,379,2025-06-03T10:35:51.622702
1683,-0.3396,0.9013,0.2479,3.360,-13.615,-0.385,385,2,361,399,381,2025-06-03T10:35:51.622702
1684,-0.3431,0.8930,0.2406,2.590,-12.390,-0.455,390,1,356,349,386,2025-06-03T10:35:51.622702
1685,-0.3509,0.8833,0.2347,1.750,-12.845,-0.315,392,1,357,384,349,2025-06-03T10:35:51.622702
1686,-0.3572,0.8804,0.2450,1.295,-13.335,-0.245,389,1,361,392,343,2025-06-03T10:35:51.622702
1687,-0.3528,0.8818,0.2494,1.365,-12.950,-0.420,396,1,366,405,368,2025-06-03T10:35:51.622702
1688,-0.3460,0.8735,0.2464,1.610,-12.180,-0.490,395,1,362,410,384,2025-06-03T10:35:51.622702
1689,-0.3392,0.8721,0.2425,1.855,-11.200,-0.945,400,1,363,392,349,2025-06-03T10:35:51.622702
1690,-0.3392,0.8760,0.2494,1.960,-10.115,-1.645,401,1,366,395,368,2025-06-03T10:35:51.622702
1691,-0.3396,0.8721,0.2523,2.135,-9.030,-2.380,392,1,358,403,384,2025-06-03T10:35:51.622702
1692,-0.3504,0.8735,0.2538,2.345,-9.135,-2.975,400,1,355,385,389,2025-06-03T10:35:51.622702
1693,-0.3572,0.8750,0.2542,2.485,-9.765,-3.675,404,2,354,400,388,2025-06-03T10:35:51.622702
1694,-0.3611,0.8760,0.2582,2.765,-10.605,-4.130,376,2,360,353,371,2025-06-03T10:35:51.622702
1695,-0.3636,0.8769,0.2542,3.150,-11.585,-4.480,387,1,360,373,381,2025-06-03T10:35:51.830296
1696,-0.3621,0.8730,0.2533,3.115,-12.075,-4.795,390,1,363,390,384,2025-06-03T10:35:51.830296
1697,-0.3587,0.8716,0.2508,3.290,-11.795,-5.005,394,1,362,395,391,2025-06-03T10:35:51.830296
1698,-0.3592,0.8735,0.2538,3.150,-11.340,-5.215,385,2,364,406,397,2025-06-03T10:35:51.830296
1699,-0.3650,0.8721,0.2513,3.115,-10.815,-5.250,381,2,361,400,393,2025-06-03T10:35:51.830296
1700,-0.3684,0.8686,0.2406,3.150,-10.535,-5.495,393,1,340,360,393,2025-06-03T10:35:51.830296
1701,-0.3792,0.8740,0.2381,2.765,-10.675,-5.460,385,1,301,369,388,2025-06-03T10:35:51.830296
1702,-0.3889,0.8784,0.2347,2.520,-10.955,-5.425,362,1,319,381,387,2025-06-03T10:35:51.830296
1703,-0.3792,0.8725,0.2377,2.730,-11.060,-4.830,371,0,311,386,385,2025-06-03T10:35:51.830296
1704,-0.3899,0.8755,0.2367,2.345,-11.060,-4.235,386,1,321,392,394,2025-06-03T10:35:51.830296
1705,-0.3914,0.8794,0.2396,2.345,-11.025,-3.255,392,2,317,394,395,2025-06-03T10:35:51.830296
1706,-0.3894,0.8789,0.2411,1.855,-11.095,-2.520,394,1,327,354,396,2025-06-03T10:35:51.830296
1707,-0.3904,0.8838,0.2372,1.890,-10.885,-1.925,369,1,328,390,363,2025-06-03T10:35:51.830296
1708,-0.3797,0.8847,0.2372,1.610,-10.220,-1.120,371,2,336,397,372,2025-06-03T10:35:51.830296
1709,-0.3738,0.8833,0.2391,1.470,-9.205,-0.350,357,1,350,389,382,2025-06-03T10:35:51.830296
1710,-0.3723,0.8901,0.2474,1.015,-8.400,0.035,372,1,347,383,388,2025-06-03T10:35:51.830296
1711,-0.3694,0.8828,0.2538,1.225,-8.155,0.490,385,2,331,390,403,2025-06-03T10:35:51.830296
1712,-0.3782,0.8843,0.2538,1.260,-9.135,0.805,390,2,347,356,403,2025-06-03T10:35:51.830296
1713,-0.3694,0.8823,0.2499,1.330,-10.150,0.980,390,2,347,379,402,2025-06-03T10:35:51.881190
1714,-0.3577,0.8813,0.2562,1.225,-10.465,0.840,396,1,354,396,371,2025-06-03T10:35:51.881190
1715,-0.3499,0.8838,0.2533,1.330,-9.975,0.630,396,1,335,377,382,2025-06-03T10:35:51.881190
1716,-0.3494,0.8828,0.2533,1.260,-9.170,0.385,362,2,339,393,395,2025-06-03T10:35:51.881190
1717,-0.3548,0.8838,0.2523,1.225,-8.785,0.000,373,2,354,409,395,2025-06-03T10:35:51.927747
1718,-0.3611,0.8862,0.2577,1.470,-8.960,-0.420,386,1,357,409,394,2025-06-03T10:35:51.927747
1719,-0.3592,0.8877,0.2547,1.610,-9.065,-0.735,333,2,360,416,397,2025-06-03T10:35:51.927747
1720,-0.3636,0.8823,0.2542,1.715,-9.310,-1.015,357,1,357,409,394,2025-06-03T10:35:51.927747
1721,-0.3597,0.8799,0.2572,1.715,-9.415,-1.225,365,1,360,362,390,2025-06-03T10:35:51.977607
1722,-0.3655,0.8764,0.2523,1.750,-9.415,-1.400,346,1,359,375,394,2025-06-03T10:35:51.977607
1723,-0.3714,0.8764,0.2494,1.610,-9.625,-1.575,344,1,356,362,387,2025-06-03T10:35:51.977607
1724,-0.3719,0.8764,0.2523,1.505,-9.695,-1.435,366,1,359,365,387,2025-06-03T10:35:51.977607
1725,-0.3753,0.8779,0.2572,1.085,-9.520,-1.435,384,2,358,392,358,2025-06-03T10:35:52.233837
1726,-0.3816,0.8813,0.2513,0.840,-9.660,-1.400,382,2,340,384,375,2025-06-03T10:35:52.233837
1727,-0.3880,0.8774,0.2464,0.560,-10.360,-1.050,390,1,351,399,388,2025-06-03T10:35:52.233837
1728,-0.3836,0.8706,0.2464,0.630,-10.360,-0.595,384,2,362,393,385,2025-06-03T10:35:52.233837
1729,-0.3870,0.8760,0.2494,0.140,-9.905,-0.315,390,2,365,402,395,2025-06-03T10:35:52.233837
1730,-0.3777,0.8623,0.2557,0.385,-9.065,0.070,387,1,322,377,394,2025-06-03T10:35:52.233837
1731,-0.3855,0.8672,0.2499,0.000,-8.645,0.210,391,1,335,376,399,2025-06-03T10:35:52.233837
1732,-0.3845,0.8608,0.2523,0.105,-8.645,0.140,393,1,341,372,405,2025-06-03T10:35:52.233837
1733,-0.3865,0.8574,0.2533,-0.175,-9.100,-0.140,387,2,350,392,393,2025-06-03T10:35:52.233837
1734,-0.3772,0.8603,0.2577,0.000,-9.800,-0.385,389,1,351,379,380,2025-06-03T10:35:52.233837
1735,-0.3743,0.8623,0.2582,-0.210,-10.395,-0.735,389,1,356,399,397,2025-06-03T10:35:52.233837
1736,-0.3689,0.8618,0.2567,0.280,-10.955,-1.190,398,1,356,394,402,2025-06-03T10:35:52.233837
1737,-0.3675,0.8633,0.2572,0.245,-10.675,-1.505,375,1,354,402,392,2025-06-03T10:35:52.233837
1738,-0.3631,0.8603,0.2621,0.420,-10.045,-2.240,390,0,330,402,400,2025-06-03T10:35:52.233837
1739,-0.3684,0.8633,0.2689,0.560,-9.345,-2.695,394,1,344,406,357,2025-06-03T10:35:52.233837
1740,-0.3748,0.8618,0.2708,0.945,-9.660,-3.010,389,1,342,396,368,2025-06-03T10:35:52.403881
1741,-0.3811,0.8603,0.2650,1.295,-10.955,-3.045,400,2,355,380,307,2025-06-03T10:35:52.403881
1742,-0.3826,0.8603,0.2655,1.715,-12.215,-3.185,388,1,358,382,356,2025-06-03T10:35:52.403881
1743,-0.4978,0.8623,0.2655,2.170,-12.460,-3.290,360,1,357,400,339,2025-06-03T10:35:52.403881
1744,-0.3694,0.8613,0.2674,2.485,-11.900,-3.395,379,1,359,400,324,2025-06-03T10:35:52.403881
1745,-0.3621,0.8642,0.2704,2.450,-10.920,-3.745,393,1,360,408,348,2025-06-03T10:35:52.403881
1746,-0.3670,0.8672,0.2713,2.765,-10.430,-3.990,394,1,367,412,337,2025-06-03T10:35:52.403881
1747,-0.3802,0.8701,0.2601,2.870,-11.235,-4.235,398,2,373,405,355,2025-06-03T10:35:52.403881
1748,-0.3831,0.8725,0.2562,2.905,-12.460,-4.445,390,2,374,415,363,2025-06-03T10:35:52.403881
1749,-0.3753,0.8686,0.2660,2.730,-13.335,-4.830,389,1,365,408,376,2025-06-03T10:35:52.403881
1750,-0.3631,0.8711,0.2669,2.415,-12.915,-5.320,395,2,369,396,346,2025-06-03T10:35:52.403881
1751,-0.3670,0.8677,0.2655,1.995,-12.390,-5.915,400,1,363,392,377,2025-06-03T10:35:52.403881
1752,-0.3699,0.8647,0.2674,1.225,-12.390,-6.300,397,2,368,405,391,2025-06-03T10:35:52.403881
1753,-0.3777,0.8672,0.2728,0.665,-12.985,-7.350,392,2,363,401,378,2025-06-03T10:35:52.403881
1754,-0.3894,0.8691,0.2865,-0.770,-13.685,-8.610,403,2,368,391,383,2025-06-03T10:35:52.403881
1755,-0.3958,0.8662,0.3045,-2.485,-15.540,-9.590,393,2,373,350,386,2025-06-03T10:35:52.587266
1756,-0.4021,0.8735,0.3392,-4.620,-18.025,-11.060,393,1,346,382,389,2025-06-03T10:35:52.587266
1757,-0.4324,0.8716,0.3806,-8.050,-22.085,-13.335,399,1,357,393,391,2025-06-03T10:35:52.587266
1758,-0.4709,0.8838,0.4524,-12.285,-29.645,-16.905,388,2,362,403,392,2025-06-03T10:35:52.587266
1759,-0.5139,0.8896,0.5412,-19.810,-39.025,-21.385,393,1,363,403,388,2025-06-03T10:35:52.587266
1760,-0.5270,0.9145,0.6427,-28.700,-57.540,-26.180,366,1,362,400,388,2025-06-03T10:35:52.587266
1761,-0.5090,0.9438,0.7330,-39.585,-79.905,-31.045,380,1,359,396,394,2025-06-03T10:35:52.587266
1762,-0.4836,0.9667,0.8228,-52.605,-86.800,-36.995,394,2,365,385,388,2025-06-03T10:35:52.587266
1763,-0.4329,0.9848,0.9194,-67.095,-100.170,-43.330,382,1,342,397,388,2025-06-03T10:35:52.587266
1764,-0.3802,1.0111,0.9765,-81.305,-112.350,-52.430,385,1,348,403,397,2025-06-03T10:35:52.587266
1765,-0.3318,1.0458,1.0302,-95.935,-124.985,-62.475,398,2,362,406,391,2025-06-03T10:35:52.587266
1766,-0.2586,1.0829,1.0995,-108.150,-139.685,-73.640,400,1,343,387,397,2025-06-03T10:35:52.587266
1767,-0.1376,1.2161,1.1551,-117.565,-151.620,-84.840,404,1,347,394,397,2025-06-03T10:35:52.587266
1768,-0.1142,1.3898,1.1644,-130.585,-169.155,-96.950,403,1,356,392,356,2025-06-03T10:35:52.587266
1769,-0.0869,1.5499,1.1702,-144.235,-168.630,-108.710,400,2,355,395,379,2025-06-03T10:35:52.587266
1770,-0.0566,1.8017,1.1170,-157.220,-183.785,-114.660,395,2,368,391,381,2025-06-03T10:35:52.587266
1771,-0.0439,2.0262,0.9438,-170.100,-199.745,-118.545,367,2,371,385,382,2025-06-03T10:35:52.587266
1772,0.1210,2.4512,0.4202,-180.950,-203.735,-117.355,382,2,370,392,391,2025-06-03T10:35:52.587266
1773,0.4548,3.1866,-0.1332,-184.625,-175.910,-116.760,389,2,363,395,380,2025-06-03T10:35:52.587266
1774,0.4499,3.7683,-0.7613,-185.360,-121.660,-111.300,400,1,358,397,384,2025-06-03T10:35:52.587266
1775,-0.1137,4.1695,-1.3752,-169.015,-89.565,-88.620,364,1,358,405,374,2025-06-03T10:35:52.646587
1776,-1.1536,4.2388,-1.9310,-199.710,-100.905,-45.990,368,1,351,393,368,2025-06-03T10:35:52.646587
1777,-1.9510,3.9679,-1.9178,-198.310,-128.450,9.835,381,1,355,383,370,2025-06-03T10:35:52.646587
1778,-2.3307,3.3277,-1.7529,-225.155,-136.290,73.640,388,1,357,392,384,2025-06-03T10:35:52.646587
1779,-3.0154,2.6918,-1.7466,-246.330,-81.025,138.950,387,1,356,368,341,2025-06-03T10:35:52.646587
1780,-3.7366,1.8920,-1.7304,-278.390,-8.680,226.625,389,1,356,376,374,2025-06-03T10:35:52.749055
1781,-4.7848,1.0097,-1.5123,-273.560,38.710,310.800,390,1,361,343,371,2025-06-03T10:35:52.749055
1782,-5.4144,-0.1732,-1.5714,-335.090,44.765,383.145,388,2,363,365,374,2025-06-03T10:35:52.749055
1783,-5.3499,-1.3771,-1.3293,-328.265,-31.430,445.795,392,2,373,372,391,2025-06-03T10:35:52.749055
1784,-4.2607,-2.4664,-0.9165,-285.635,-82.740,496.650,400,1,362,393,383,2025-06-03T10:35:52.749055
1785,-2.6708,-3.6136,-0.3304,-223.860,-86.205,524.930,388,1,364,392,389,2025-06-03T10:35:52.749055
1786,-1.3498,-3.8557,0.0249,-155.400,-39.935,523.285,386,1,368,358,346,2025-06-03T10:35:52.749055
1787,-0.2699,-3.7747,0.5144,-112.350,31.990,489.720,377,1,366,369,360,2025-06-03T10:35:52.749055
1788,0.2191,-3.6415,0.9013,-61.145,86.030,430.080,395,2,363,374,378,2025-06-03T10:35:52.749055
1789,0.3050,-3.4072,1.1190,-17.360,110.355,360.710,363,2,366,384,392,2025-06-03T10:35:52.853751
1790,0.2752,-3.0934,1.4030,22.470,108.080,293.720,377,2,367,401,399,2025-06-03T10:35:52.853751
1791,0.2328,-2.7743,1.4811,47.845,97.895,236.915,386,1,368,358,385,2025-06-03T10:35:52.853751
1792,0.2401,-2.4019,1.4372,71.295,98.385,189.490,396,2,371,375,393,2025-06-03T10:35:52.853751
1793,0.1923,-2.0540,1.2961,82.215,102.130,159.215,391,1,367,393,389,2025-06-03T10:35:52.853751
1794,0.0639,-1.6568,1.2117,80.675,97.790,124.040,400,1,370,406,389,2025-06-03T10:35:52.853751
1795,-0.0322,-1.4294,1.2063,75.600,92.330,93.730,406,1,375,406,398,2025-06-03T10:35:52.853751
1796,-0.1576,-1.1214,1.2176,68.985,83.825,69.510,394,2,369,401,394,2025-06-03T10:35:52.853751
1797,-0.2484,-0.8369,1.2610,62.790,77.630,47.740,400,1,364,407,397,2025-06-03T10:35:52.853751
1798,-0.3089,-0.5939,1.3849,61.285,71.120,28.385,393,1,368,354,355,2025-06-03T10:35:52.907970
1799,-0.4002,-0.4958,1.4015,69.405,63.175,11.550,390,2,340,326,375,2025-06-03T10:35:52.907970
1800,-0.4670,-0.3650,1.2722,81.830,49.665,1.470,397,2,353,351,390,2025-06-03T10:35:52.907970
1801,-0.5529,-0.2747,1.0873,91.980,33.040,-9.485,373,2,357,361,377,2025-06-03T10:35:52.907970
1802,-0.5778,-0.1781,0.9584,99.330,15.715,-19.425,386,2,356,389,380,2025-06-03T10:35:53.067564
1803,-0.5290,-0.0581,0.8799,101.885,2.310,-27.160,397,2,360,391,384,2025-06-03T10:35:53.067564
1804,-0.4831,0.0273,0.8779,101.325,-3.290,-32.480,404,2,340,396,360,2025-06-03T10:35:53.067564
1805,-0.4592,0.0698,0.9443,102.830,-0.105,-34.825,375,2,355,398,377,2025-06-03T10:35:53.067564
1806,-0.4563,0.0795,1.0019,109.970,11.060,-37.520,383,2,360,398,388,2025-06-03T10:35:53.067564
1807,-0.4909,0.1118,0.9360,117.915,20.405,-41.790,397,1,354,369,388,2025-06-03T10:35:53.067564
1808,-0.5675,0.1474,0.8120,123.480,18.305,-44.625,387,2,359,389,383,2025-06-03T10:35:53.224687
1809,-0.6647,0.1762,0.6847,125.650,6.265,-46.165,396,1,359,389,395,2025-06-03T10:35:53.224687
1810,-0.6861,0.2377,0.6476,127.120,-8.120,-49.525,402,1,356,401,398,2025-06-03T10:35:53.224687
1811,-0.6720,0.2894,0.6666,128.975,-19.740,-51.415,397,2,353,381,393,2025-06-03T10:35:53.224687
1812,-0.6461,0.3675,0.6876,132.825,-31.500,-52.290,404,2,354,386,391,2025-06-03T10:35:53.224687
1813,-0.6090,0.4133,0.7013,136.500,-37.415,-53.445,399,1,355,392,361,2025-06-03T10:35:53.224687
1814,-0.5744,0.4538,0.6520,139.545,-39.445,-54.740,405,1,359,377,375,2025-06-03T10:35:53.224687
1815,-0.5358,0.5100,0.5949,140.420,-39.865,-56.420,407,1,361,394,386,2025-06-03T10:35:53.224687
1816,-0.5680,0.5827,0.5129,136.115,-40.320,-58.555,404,1,361,394,381,2025-06-03T10:35:53.224687
1817,-0.5436,0.5963,0.5988,136.850,-32.340,-59.185,409,1,362,408,347,2025-06-03T10:35:53.224687
1818,-0.3963,0.6881,0.5817,135.450,-31.535,-59.360,399,2,344,390,359,2025-06-03T10:35:53.224687
1819,-0.4958,0.7588,0.6202,132.510,-30.415,-61.075,394,2,354,360,366,2025-06-03T10:35:53.224687
1820,-0.4734,0.7730,0.6388,134.785,-27.265,-57.960,374,2,355,386,378,2025-06-03T10:35:53.224687
1821,-0.5436,0.7818,0.5876,135.870,-35.420,-56.000,378,1,360,403,378,2025-06-03T10:35:53.224687
1822,-0.5544,0.7891,0.5197,137.690,-44.835,-55.265,355,1,358,387,374,2025-06-03T10:35:53.224687
1823,-0.5427,0.7984,0.4455,136.500,-49.735,-55.720,366,1,355,390,394,2025-06-03T10:35:53.224687
1824,-0.5085,0.8545,0.4070,134.435,-53.130,-55.440,375,2,357,398,406,2025-06-03T10:35:53.224687
1825,-0.4904,0.8994,0.4021,129.605,-55.125,-53.270,382,1,353,402,392,2025-06-03T10:35:53.224687
1826,-0.4504,0.9365,0.4011,124.110,-52.815,-51.100,388,1,353,392,398,2025-06-03T10:35:53.224687
1827,-0.4192,0.9467,0.3987,118.825,-46.515,-48.300,398,1,355,403,390,2025-06-03T10:35:53.224687
1828,-0.4114,0.9296,0.3997,114.625,-39.865,-45.780,405,2,358,401,384,2025-06-03T10:35:53.275339
1829,-0.4387,0.9194,0.3870,110.320,-35.770,-43.750,402,1,353,387,344,2025-06-03T10:35:53.275339
1830,-0.4904,0.9282,0.3553,106.190,-36.610,-41.755,381,1,352,363,364,2025-06-03T10:35:53.275339
1831,-0.5261,0.9414,0.3240,102.725,-42.175,-39.865,383,1,349,383,377,2025-06-03T10:35:53.275339
1832,-0.5173,0.9467,0.2923,98.595,-48.300,-38.150,358,2,357,382,350,2025-06-03T10:35:53.275339
1833,-0.5163,0.9492,0.2762,95.550,-55.650,-36.785,376,1,365,389,370,2025-06-03T10:35:53.327356
1834,-0.4939,0.9653,0.2791,91.105,-60.970,-35.700,351,2,357,394,338,2025-06-03T10:35:53.327356
1835,-0.4387,0.9809,0.2938,85.470,-61.950,-34.370,380,2,360,386,331,2025-06-03T10:35:53.327356
1836,-0.3958,0.9892,0.2860,79.905,-60.375,-32.760,379,2,357,386,369,2025-06-03T10:35:53.327356
1837,-0.3802,0.9975,0.2752,76.020,-56.770,-30.555,388,1,364,367,362,2025-06-03T10:35:53.575668
1838,-0.3904,0.9989,0.2616,70.945,-53.655,-28.280,394,2,367,379,383,2025-06-03T10:35:53.575668
1839,-0.3987,1.0024,0.2542,66.430,-52.255,-26.775,398,2,369,394,354,2025-06-03T10:35:53.575668
1840,-0.4055,1.0126,0.2455,61.600,-50.960,-24.920,392,1,370,387,362,2025-06-03T10:35:53.575668
1841,-0.3967,1.0180,0.2538,57.155,-50.890,-22.645,397,2,362,398,381,2025-06-03T10:35:53.575668
1842,-0.3792,1.0350,0.2601,53.375,-51.275,-20.090,401,2,368,406,394,2025-06-03T10:35:53.575668
1843,-0.3616,1.0268,0.2591,48.895,-50.155,-17.220,398,1,366,363,346,2025-06-03T10:35:53.575668
1844,-0.3528,1.0141,0.2523,44.590,-48.615,-15.015,392,1,355,377,380,2025-06-03T10:35:53.575668
1845,-0.3450,0.9984,0.2533,40.845,-46.095,-13.265,376,1,360,389,387,2025-06-03T10:35:53.575668
1846,-0.3426,0.9960,0.2557,37.170,-43.925,-11.725,385,1,362,384,354,2025-06-03T10:35:53.575668
1847,-0.3353,0.9799,0.2552,34.160,-41.545,-10.080,387,1,363,381,378,2025-06-03T10:35:53.575668
1848,-0.3362,0.9677,0.2503,32.060,-39.445,-8.540,387,2,347,381,374,2025-06-03T10:35:53.575668
1849,-0.3299,0.9453,0.2494,29.680,-37.135,-7.700,377,1,349,375,345,2025-06-03T10:35:53.575668
1850,-0.3353,0.9174,0.2552,27.615,-34.930,-7.630,389,1,350,378,377,2025-06-03T10:35:53.575668
1851,-0.3348,0.8989,0.2606,26.250,-32.025,-7.735,397,1,356,395,391,2025-06-03T10:35:53.575668
1852,-0.3299,0.8921,0.2679,25.025,-29.820,-8.050,393,1,356,392,396,2025-06-03T10:35:53.575668
1853,-0.3357,0.8852,0.2791,24.535,-27.405,-8.330,405,1,365,403,396,2025-06-03T10:35:53.575668
1854,-0.3367,0.8755,0.2713,24.080,-25.585,-8.575,402,2,362,391,380,2025-06-03T10:35:53.575668
1855,-0.3489,0.8677,0.2718,23.590,-25.305,-8.225,365,2,358,393,392,2025-06-03T10:35:53.575668
1856,-0.3465,0.8691,0.2938,22.610,-24.710,-7.805,344,1,352,362,391,2025-06-03T10:35:53.575668
1857,-0.3528,0.8750,0.3055,22.085,-23.695,-7.280,372,1,358,377,394,2025-06-03T10:35:53.622534
1858,-0.3631,0.8735,0.3079,21.455,-22.505,-6.440,390,2,360,386,384,2025-06-03T10:35:53.622534
1859,-0.3670,0.8750,0.3055,21.035,-21.490,-5.880,393,2,362,399,350,2025-06-03T10:35:53.622534
1860,-0.3626,0.8804,0.2952,20.510,-20.545,-5.565,400,1,367,348,379,2025-06-03T10:35:53.622534
1861,-0.3655,0.8828,0.2884,19.950,-19.355,-4.935,399,2,370,379,392,2025-06-03T10:35:53.622534
1862,-0.3621,0.8847,0.2899,19.250,-18.060,-4.550,399,1,372,391,395,2025-06-03T10:35:53.669437
1863,-0.3709,0.8916,0.2952,18.375,-16.905,-3.710,403,2,373,398,399,2025-06-03T10:35:53.669437
1864,-0.3733,0.8930,0.3055,18.060,-15.225,-3.080,399,1,368,357,388,2025-06-03T10:35:53.669437
1865,-0.3860,0.8882,0.3045,17.430,-14.805,-2.380,399,1,360,380,392,2025-06-03T10:35:53.669437
1866,-0.3787,0.8911,0.2908,17.080,-15.085,-1.470,398,1,363,374,387,2025-06-03T10:35:53.781302
1867,-0.3826,0.8930,0.2889,16.275,-14.910,-0.840,393,1,359,371,350,2025-06-03T10:35:53.781302
1868,-0.3782,0.8950,0.2938,15.295,-14.035,-0.525,403,2,364,353,376,2025-06-03T10:35:53.781302
1869,-0.3743,0.8911,0.2928,14.315,-13.440,-0.140,391,2,366,369,376,2025-06-03T10:35:53.781302
1870,-0.3748,0.8906,0.2943,13.335,-12.845,0.000,371,2,369,381,390,2025-06-03T10:35:53.781302
1871,-0.3738,0.8843,0.2884,12.495,-12.845,0.140,360,1,360,377,397,2025-06-03T10:35:53.781302
1872,-0.3714,0.8774,0.2835,11.585,-12.950,0.175,368,2,367,391,402,2025-06-03T10:35:53.781302
1873,-0.3709,0.8691,0.2762,11.200,-12.810,0.280,388,2,370,392,402,2025-06-03T10:35:53.781302
1874,-0.3719,0.8657,0.2806,10.150,-11.725,0.140,397,1,344,400,393,2025-06-03T10:35:53.781302
1875,-0.3694,0.8564,0.2879,9.625,-10.395,-0.070,397,1,349,350,386,2025-06-03T10:35:53.884971
1876,-0.3680,0.8540,0.2889,9.030,-8.925,-0.245,395,1,345,376,399,2025-06-03T10:35:53.884971
1877,-0.3645,0.8560,0.2962,8.330,-7.175,-0.350,397,2,357,389,387,2025-06-03T10:35:53.884971
1878,-0.3733,0.8555,0.2948,7.805,-6.300,-0.630,370,1,362,360,396,2025-06-03T10:35:53.884971
1879,-0.3836,0.8545,0.2830,7.035,-6.090,-0.945,356,1,354,350,398,2025-06-03T10:35:53.884971
1880,-0.3806,0.8564,0.2767,6.195,-6.475,-1.330,368,1,361,384,403,2025-06-03T10:35:53.884971
1881,-0.3836,0.8550,0.2757,5.320,-6.580,-1.645,370,1,359,389,408,2025-06-03T10:35:53.884971
1882,-0.3899,0.8462,0.2782,5.285,-6.790,-1.435,391,1,363,399,399,2025-06-03T10:35:53.884971
1883,-0.3889,0.8579,0.2840,5.005,-6.055,-1.120,388,1,366,402,356,2025-06-03T10:35:54.080465
1884,-0.3836,0.8662,0.2904,4.760,-4.795,-1.435,390,1,340,378,333,2025-06-03T10:35:54.080465
1885,-0.3782,0.8706,0.2918,4.515,-2.975,-1.575,392,1,351,344,354,2025-06-03T10:35:54.080465
1886,-0.3826,0.8760,0.2899,4.200,-2.730,-1.680,371,1,348,358,379,2025-06-03T10:35:54.080465
1887,-0.3914,0.8706,0.2904,4.095,-3.535,-1.925,378,2,352,373,387,2025-06-03T10:35:54.080465
1888,-0.3958,0.8740,0.2879,3.535,-4.725,-1.750,386,1,361,375,350,2025-06-03T10:35:54.080465
1889,-0.3963,0.8755,0.2908,3.185,-5.775,-1.855,358,1,353,377,370,2025-06-03T10:35:54.080465
1890,-0.3948,0.8755,0.2933,2.695,-5.775,-1.680,380,1,355,391,382,2025-06-03T10:35:54.484401
1891,-0.3953,0.8794,0.2884,2.415,-5.180,-1.225,388,2,354,395,387,2025-06-03T10:35:54.484401
1892,-0.3943,0.8774,0.2879,2.065,-4.340,-0.805,388,1,352,401,382,2025-06-03T10:35:54.484401
1893,-0.3958,0.8711,0.2855,1.715,-3.780,-0.350,389,1,355,396,386,2025-06-03T10:35:54.484401
1894,-0.4050,0.8706,0.2889,1.225,-3.360,0.175,396,2,359,399,395,2025-06-03T10:35:54.484401
1895,-0.4119,0.8618,0.2884,0.980,-3.850,0.350,388,1,359,398,399,2025-06-03T10:35:54.484401
1896,-0.4138,0.8599,0.2933,0.665,-4.585,0.560,388,1,343,352,386,2025-06-03T10:35:54.484401
1897,-0.4099,0.8564,0.2894,0.525,-5.250,0.490,395,2,349,365,389,2025-06-03T10:35:54.484401
1898,-0.4026,0.8486,0.2791,0.350,-5.810,0.385,363,1,354,395,388,2025-06-03T10:35:54.484401
1899,-0.3967,0.8467,0.2791,0.280,-5.670,0.245,385,1,361,397,392,2025-06-03T10:35:54.484401
1900,-0.3943,0.8433,0.2845,0.070,-4.865,-0.070,369,1,364,410,400,2025-06-03T10:35:54.484401
1901,-0.4006,0.8447,0.2826,0.105,-3.990,-0.455,322,1,363,390,349,2025-06-03T10:35:54.484401
1902,-0.4104,0.8394,0.2786,0.245,-3.815,-0.665,351,2,366,378,369,2025-06-03T10:35:54.484401
1903,-0.4163,0.8384,0.2782,0.210,-4.305,-0.770,362,1,361,396,394,2025-06-03T10:35:54.484401
1904,-0.4163,0.8398,0.2723,0.315,-4.655,-0.770,348,1,361,386,388,2025-06-03T10:35:54.484401
1905,-0.4192,0.8384,0.2743,0.140,-4.585,-0.700,371,1,359,396,350,2025-06-03T10:35:54.484401
1906,-0.4133,0.8394,0.2830,0.140,-4.025,-0.735,379,2,361,377,376,2025-06-03T10:35:54.484401
1907,-0.4138,0.8355,0.2850,0.210,-3.570,-0.630,359,1,355,395,389,2025-06-03T10:35:54.484401
1908,-0.4250,0.8408,0.2826,0.210,-2.975,-0.735,378,1,359,389,392,2025-06-03T10:35:54.484401
1909,-0.4255,0.8379,0.2860,0.280,-3.465,-0.910,385,1,363,389,380,2025-06-03T10:35:54.484401
1910,-0.4168,0.8433,0.2908,0.525,-4.165,-0.910,398,1,366,349,384,2025-06-03T10:35:54.484401
1911,-0.4124,0.8452,0.2879,0.840,-4.515,-1.120,368,1,364,366,362,2025-06-03T10:35:54.484401
1912,-0.4065,0.8428,0.2889,0.875,-4.410,-1.435,387,2,345,369,382,2025-06-03T10:35:54.484401
1913,-0.4085,0.8511,0.2933,0.910,-4.410,-1.680,379,1,357,394,392,2025-06-03T10:35:54.484401
1914,-0.4168,0.8501,0.2918,1.015,-4.760,-1.820,389,2,362,396,350,2025-06-03T10:35:54.484401
1915,-0.4246,0.8506,0.2928,1.050,-5.565,-1.785,365,1,355,384,350,2025-06-03T10:35:54.484401
1916,-0.4221,0.8481,0.2933,0.945,-6.125,-1.435,385,1,356,383,376,2025-06-03T10:35:54.484401
1917,-0.4226,0.8520,0.2923,1.120,-6.195,-1.295,382,1,355,395,388,2025-06-03T10:35:54.484401
1918,-0.4231,0.8511,0.2845,1.225,-6.230,-1.120,388,1,334,402,389,2025-06-03T10:35:54.484401
1919,-0.4260,0.8569,0.2826,1.085,-6.195,-1.085,389,2,344,404,359,2025-06-03T10:35:54.484401
1920,-0.4250,0.8569,0.2811,1.155,-6.545,-0.910,386,2,355,396,348,2025-06-03T10:35:54.484401
1921,-0.4241,0.8550,0.2782,1.365,-7.000,-0.490,355,1,354,350,294,2025-06-03T10:35:54.484401
1922,-0.4231,0.8516,0.2772,1.540,-7.245,-0.280,384,1,355,361,352,2025-06-03T10:35:54.484401
1923,-0.4163,0.8530,0.2796,1.505,-6.300,-0.035,387,1,359,386,373,2025-06-03T10:35:54.484401
1924,-0.4207,0.8520,0.2879,1.435,-5.495,0.070,381,2,341,387,390,2025-06-03T10:35:54.484401
1925,-0.4280,0.8574,0.2908,1.225,-5.740,0.245,362,1,347,388,401,2025-06-03T10:35:54.484401
1926,-0.4319,0.8555,0.3011,0.735,-7.140,0.315,378,2,347,376,367,2025-06-03T10:35:54.489367
1927,-0.4304,0.8564,0.2982,-0.070,-9.450,0.315,378,1,346,383,340,2025-06-03T10:35:54.489367
1928,-0.4216,0.8594,0.2928,-1.120,-11.095,0.175,365,2,346,378,362,2025-06-03T10:35:54.489367
1929,-0.4099,0.8603,0.2943,-1.750,-11.480,-0.455,383,1,357,389,384,2025-06-03T10:35:54.489367
1930,-0.4021,0.8555,0.2948,-2.590,-11.270,-1.050,395,1,356,390,387,2025-06-03T10:35:54.489367
1931,-0.4011,0.8481,0.3021,-2.905,-10.710,-1.645,401,1,335,387,378,2025-06-03T10:35:54.489367
1932,-0.4026,0.8501,0.3138,-3.255,-10.640,-2.555,396,1,347,384,356,2025-06-03T10:35:54.489367
1933,-0.4089,0.8584,0.3123,-4.200,-11.445,-3.500,360,2,348,395,377,2025-06-03T10:35:54.489367
1934,-0.4187,0.8584,0.3152,-5.250,-14.070,-4.585,373,2,359,380,358,2025-06-03T10:35:54.733397
1935,-0.4153,0.8550,0.3245,-6.790,-16.345,-5.600,381,1,358,377,363,2025-06-03T10:35:54.733397
1936,-0.4207,0.8491,0.3289,-8.260,-26.740,-6.755,377,1,361,372,384,2025-06-03T10:35:54.733397
1937,-0.4187,0.8433,0.3367,-9.800,-19.005,-7.525,364,2,363,395,392,2025-06-03T10:35:54.733397
1938,-0.4216,0.8501,0.3611,-12.040,-20.475,-8.890,375,2,368,398,380,2025-06-03T10:35:54.733397
1939,-0.4363,0.8599,0.3855,-15.400,-22.610,-10.360,362,1,363,386,382,2025-06-03T10:35:54.733397
1940,-0.4636,0.8628,0.4207,-19.390,-27.125,-12.705,381,2,370,404,398,2025-06-03T10:35:54.733397
1941,-0.4875,0.8472,0.4553,-22.855,-34.230,-15.995,384,1,366,373,391,2025-06-03T10:35:54.733397
1942,-0.4914,0.8169,0.4973,-26.600,-40.950,-19.880,384,1,342,377,394,2025-06-03T10:35:54.733397
1943,-0.4914,0.7842,0.5627,-30.730,-50.120,-23.695,361,1,345,391,386,2025-06-03T10:35:54.733397
1944,-0.4914,0.7584,0.6407,-36.050,-60.760,-30.345,374,1,351,385,350,2025-06-03T10:35:54.733397
1945,-0.5031,0.7559,0.8530,-44.905,-73.605,-39.760,390,1,362,384,345,2025-06-03T10:35:54.733397
1946,-0.5056,0.7208,0.8442,-53.725,-91.455,-51.135,396,1,359,377,376,2025-06-03T10:35:54.733397
1947,-0.4651,0.6900,0.9701,-59.220,-113.750,-63.490,365,1,363,391,380,2025-06-03T10:35:54.733397
1948,-0.4241,0.7149,1.0653,-63.805,-133.140,-76.615,373,1,358,362,378,2025-06-03T10:35:54.733397
1949,-0.3636,0.8335,1.1483,-67.690,-158.725,-96.215,385,1,359,390,397,2025-06-03T10:35:54.733397
1950,-0.2440,1.0009,1.2220,-74.060,-184.485,-99.925,389,1,363,391,383,2025-06-03T10:35:54.733397
1951,-0.1098,1.2395,1.2137,-81.865,-204.575,-109.235,397,1,340,386,385,2025-06-03T10:35:54.733397
1952,0.0337,1.5509,1.2229,-91.070,-219.170,-119.035,406,1,351,394,356,2025-06-03T10:35:54.733397
1953,0.2206,2.0091,1.0814,-99.085,-226.205,-126.420,406,1,350,403,336,2025-06-03T10:35:54.733397
1954,0.4851,2.6430,0.5334,-101.885,-212.380,-130.970,368,1,348,388,334,2025-06-03T10:35:54.901883
1955,0.7857,3.4082,-0.3416,-103.110,-166.320,-136.185,372,1,349,376,314,2025-06-03T10:35:54.901883
1956,0.8140,4.0411,-1.0116,-99.330,-86.380,-132.930,371,2,350,381,348,2025-06-03T10:35:54.901883
1957,0.1771,4.2920,-1.5230,-107.205,-25.200,-107.100,384,1,356,385,373,2025-06-03T10:35:54.901883
1958,-0.9213,4.1753,-1.9457,-144.620,11.795,-72.345,387,2,359,378,387,2025-06-03T10:35:54.901883
1959,-2.0969,3.9894,-1.9139,-159.215,-5.740,-13.510,386,1,350,394,389,2025-06-03T10:35:54.901883
1960,-2.9153,3.5492,-2.1526,-205.380,-27.370,48.965,378,2,356,394,397,2025-06-03T10:35:54.901883
1961,-4.0782,2.7528,-2.2463,-268.485,-20.160,122.115,386,1,355,402,352,2025-06-03T10:35:54.901883
1962,-4.7429,1.9032,-2.1560,-318.570,-20.160,212.065,333,1,351,381,377,2025-06-03T10:35:54.901883
1963,-5.0933,0.8169,-2.3195,-366.625,-22.400,305.620,362,1,339,393,391,2025-06-03T10:35:54.901883
1964,-5.0874,-0.6378,-2.1692,-393.015,-28.140,374.885,368,1,340,350,394,2025-06-03T10:35:54.901883
1965,-4.7980,-1.5387,-1.5382,-415.135,-27.300,423.115,379,2,343,367,391,2025-06-03T10:35:54.901883
1966,-3.9879,-2.1931,-1.1278,-371.735,-38.080,447.580,409,1,358,363,402,2025-06-03T10:35:54.901883
1967,-2.7909,-3.2667,-0.4958,-314.370,-29.855,463.715,386,1,338,388,417,2025-06-03T10:35:54.901883
1968,-1.6973,-3.8454,0.1005,-224.700,-10.045,463.855,395,2,346,363,406,2025-06-03T10:35:55.001555
1969,-0.7710,-3.8801,0.6549,-172.305,29.610,440.405,397,1,328,337,402,2025-06-03T10:35:55.001555
1970,-0.1069,-3.6576,0.9423,-107.065,65.135,401.870,393,1,343,368,409,2025-06-03T10:35:55.001555
1971,0.0610,-3.4902,1.2732,-59.640,86.240,350.350,387,2,358,388,380,2025-06-03T10:35:55.001555
1972,-0.0142,-3.4872,1.4894,-24.080,74.935,300.300,393,2,355,376,382,2025-06-03T10:35:55.001555
1973,0.1767,-3.3194,1.5592,21.175,52.570,253.260,397,1,363,376,381,2025-06-03T10:35:55.001555
1974,0.4031,-2.9666,1.6402,58.065,43.540,216.545,386,1,365,377,376,2025-06-03T10:35:55.001555
1975,0.5466,-2.6650,1.6494,86.695,56.735,173.495,394,1,357,389,380,2025-06-03T10:35:55.001555
1976,0.5544,-2.2023,1.6460,103.775,74.690,132.895,363,2,356,393,383,2025-06-03T10:35:55.001555
1977,0.3328,-1.8163,1.5826,111.930,84.210,94.885,379,1,362,390,354,2025-06-03T10:35:55.054507
1978,0.0927,-1.3703,1.5255,125.370,86.205,61.250,376,2,365,385,379,2025-06-03T10:35:55.054507
1979,-0.1147,-1.0238,1.4464,121.485,81.025,31.745,372,1,367,394,388,2025-06-03T10:35:55.054507
1980,-0.2967,-0.7891,1.3552,125.895,69.790,9.100,388,2,371,401,384,2025-06-03T10:35:55.054507
1981,-0.4163,-0.5788,1.2605,132.720,50.715,-5.495,362,2,367,405,377,2025-06-03T10:35:55.101184
1982,-0.4626,-0.4207,1.1785,139.300,29.995,-19.600,384,1,368,390,348,2025-06-03T10:35:55.101184
1983,-0.5124,-0.2225,1.0858,144.095,18.655,-26.845,386,2,372,386,377,2025-06-03T10:35:55.101184
1984,-0.4885,-0.1132,0.9170,144.900,15.610,-34.580,390,2,363,392,388,2025-06-03T10:35:55.101184
1985,-0.5065,-0.0361,0.7403,145.110,18.235,-42.910,359,1,362,401,398,2025-06-03T10:35:55.152758
1986,-0.5070,0.0542,0.5802,145.810,27.125,-50.365,369,1,363,398,359,2025-06-03T10:35:55.152758
1987,-0.5807,0.1083,0.4939,146.300,33.950,-55.055,369,2,360,363,366,2025-06-03T10:35:55.152758
1988,-0.6700,0.1898,0.5392,149.065,37.660,-56.980,383,1,365,385,380,2025-06-03T10:35:55.152758
1989,-0.7291,0.2601,0.5973,152.040,33.985,-56.735,381,2,369,395,380,2025-06-03T10:35:55.309101
1990,-0.7432,0.3792,0.5656,155.155,23.170,-53.445,396,1,371,353,378,2025-06-03T10:35:55.309101
1991,-0.8008,0.4880,0.4787,155.750,6.125,-50.575,362,2,362,362,397,2025-06-03T10:35:55.309101
1992,-0.8481,0.5231,0.3870,154.315,-14.420,-50.295,377,2,368,391,384,2025-06-03T10:35:55.309101
1993,-0.8520,0.5539,0.3245,152.880,-31.710,-52.815,366,2,373,392,395,2025-06-03T10:35:55.309101
1994,-0.8194,0.6632,0.3084,153.580,-52.430,-56.630,377,1,365,399,398,2025-06-03T10:35:55.309101
1995,-0.7867,0.7935,0.3226,152.810,-68.320,-57.925,390,2,369,394,400,2025-06-03T10:35:55.309101
1996,-0.6832,0.8682,0.3201,150.710,-76.825,-58.835,395,1,344,400,398,2025-06-03T10:35:55.309101
1997,-0.5797,0.9379,0.3030,144.760,-76.405,-57.715,392,2,353,398,402,2025-06-03T10:35:55.309101
1998,-0.5309,0.9228,0.2972,138.775,-68.880,-55.545,391,1,334,402,404,2025-06-03T10:35:55.309101
1999,-0.4929,0.9145,0.3157,131.390,-60.935,-54.810,394,1,345,388,393,2025-06-03T10:35:55.309101
2000,-0.5139,0.9106,0.3333,125.195,-56.140,-54.810,397,2,322,399,393,2025-06-03T10:35:55.309101
2001,-0.5485,0.9453,0.3065,120.540,-58.555,-54.670,393,1,338,395,378,2025-06-03T10:35:55.309101
2002,-0.6032,0.9682,0.2655,116.095,-68.005,-52.885,400,2,348,401,380,2025-06-03T10:35:55.514552
2003,-0.6124,0.9765,0.2528,112.385,-79.415,-51.065,379,1,357,404,318,2025-06-03T10:35:55.514552
2004,-0.5563,0.9736,0.2430,109.515,-86.450,-49.840,393,2,360,362,352,2025-06-03T10:35:55.514552
2005,-0.4836,0.9658,0.2416,98.630,-88.025,-48.895,390,1,364,354,339,2025-06-03T10:35:55.514552
2006,-0.4158,0.9784,0.2386,104.895,-84.595,-48.650,394,1,363,380,326,2025-06-03T10:35:55.514552
2007,-0.4085,0.9882,0.2338,100.485,-80.150,-48.160,399,1,367,383,360,2025-06-03T10:35:55.514552
2008,-0.3831,1.0175,0.2489,96.880,-74.375,-46.970,407,1,371,404,380,2025-06-03T10:35:55.514552
2009,-0.3640,1.0414,0.2567,94.185,-66.640,-45.395,397,2,364,373,341,2025-06-03T10:35:55.514552
2010,-0.3514,1.0394,0.2450,91.945,-59.360,-43.365,399,1,357,376,378,2025-06-03T10:35:55.514552
2011,-0.3455,1.0175,0.2220,89.950,-52.675,-41.160,372,1,361,390,345,2025-06-03T10:35:55.514552
2012,-0.3758,0.9872,0.2030,88.550,-49.350,-38.290,373,1,357,392,369,2025-06-03T10:35:55.514552
2013,-0.4207,0.9794,0.2059,87.150,-49.700,-35.210,378,1,355,383,382,2025-06-03T10:35:55.514552
2014,-0.4621,0.9941,0.2142,84.595,-52.640,-32.795,392,1,359,383,383,2025-06-03T10:35:55.514552
2015,-0.4446,1.0199,0.2289,82.040,-55.895,-29.785,397,1,351,393,378,2025-06-03T10:35:55.514552
2016,-0.3992,1.0448,0.2152,78.575,-56.350,-26.040,402,1,353,400,387,2025-06-03T10:35:55.514552
2017,-0.3636,1.0424,0.2006,75.355,-53.340,-22.400,408,1,350,406,399,2025-06-03T10:35:55.514552
2018,-0.3670,1.0326,0.1850,71.890,-48.580,-19.460,408,2,361,404,403,2025-06-03T10:35:55.514552
2019,-0.3728,1.0106,0.1879,67.165,-44.870,-17.535,403,2,367,389,384,2025-06-03T10:35:55.616280
2020,-0.3748,1.0028,0.1840,62.650,-41.300,-16.345,401,1,362,389,382,2025-06-03T10:35:55.616280
2021,-0.3811,0.9872,0.1820,59.570,-39.830,-15.260,373,1,362,394,396,2025-06-03T10:35:55.616280
2022,-0.4002,0.9882,0.1791,55.930,-38.745,-14.525,355,1,363,353,378,2025-06-03T10:35:55.616280
2023,-0.4046,0.9838,0.1801,52.675,-38.465,-14.455,341,2,355,371,372,2025-06-03T10:35:55.616280
2024,-0.3875,0.9711,0.1728,50.715,-38.010,-14.070,366,1,353,378,380,2025-06-03T10:35:55.616280
2025,-0.3743,0.9623,0.1825,48.020,-37.065,-13.755,354,1,352,391,382,2025-06-03T10:35:55.616280
2026,-0.3523,0.9755,0.1854,44.870,-35.035,-13.895,368,1,335,388,382,2025-06-03T10:35:55.616280
2027,-0.3216,0.9848,0.1874,41.020,-32.200,-13.685,383,1,345,392,395,2025-06-03T10:35:55.616280
2028,-0.3235,0.9819,0.1791,37.555,-29.470,-13.265,392,2,354,407,399,2025-06-03T10:35:55.664360
2029,-0.3348,0.9780,0.1830,33.040,-27.335,-13.440,385,2,362,392,403,2025-06-03T10:35:55.664360
2030,-0.3357,0.9828,0.1981,30.030,-25.795,-13.755,384,2,357,388,363,2025-06-03T10:35:55.664360
2031,-0.3470,0.9697,0.1937,27.300,-25.620,-13.300,384,1,359,395,365,2025-06-03T10:35:55.664360
2032,-0.3655,0.9511,0.1845,25.445,-24.920,-12.775,393,1,361,385,379,2025-06-03T10:35:55.922862
2033,-0.3880,0.9501,0.1962,23.240,-24.150,-12.355,398,2,358,387,388,2025-06-03T10:35:55.922862
2034,-0.3928,0.9467,0.1972,21.140,-22.295,-11.900,403,1,354,379,381,2025-06-03T10:35:55.922862
2035,-0.4021,0.9404,0.1981,19.250,-20.685,-10.185,392,1,359,393,376,2025-06-03T10:35:55.922862
2036,-0.4055,0.9389,0.1981,17.745,-19.845,-8.120,373,2,359,379,377,2025-06-03T10:35:55.922862
2037,-0.4211,0.9418,0.1942,16.485,-18.480,-6.055,381,1,356,399,386,2025-06-03T10:35:55.922862
2038,-0.4368,0.9467,0.1923,15.925,-17.010,-4.200,383,1,353,392,365,2025-06-03T10:35:55.922862
2039,-0.4421,0.9521,0.1884,14.875,-15.750,-2.450,388,1,351,392,349,2025-06-03T10:35:55.922862
2040,-0.4426,0.9492,0.1957,13.860,-13.790,-1.155,396,1,347,401,381,2025-06-03T10:35:56.365282
2041,-0.4490,0.9370,0.2030,12.810,-11.795,0.175,388,2,359,407,376,2025-06-03T10:35:56.365282
2042,-0.4602,0.9301,0.2108,11.585,-11.445,1.505,387,1,363,391,343,2025-06-03T10:35:56.365282
2043,-0.4587,0.9296,0.2259,10.710,-12.180,2.695,388,1,356,395,374,2025-06-03T10:35:56.365282
2044,-0.4499,0.9340,0.2318,8.960,-12.880,3.745,387,1,363,406,380,2025-06-03T10:35:56.365282
2045,-0.4387,0.9223,0.2294,7.140,-14.105,4.690,387,1,357,405,387,2025-06-03T10:35:56.365282
2046,-0.4290,0.9170,0.2435,4.970,-15.155,5.740,388,2,356,391,384,2025-06-03T10:35:56.365282
2047,-0.4128,0.9130,0.2606,2.625,-15.225,6.545,394,2,360,407,382,2025-06-03T10:35:56.365282
2048,-0.4124,0.9038,0.2694,0.805,-15.750,6.790,395,1,360,401,386,2025-06-03T10:35:56.365282
2049,-0.4114,0.8965,0.2621,-1.260,-17.395,6.825,388,1,365,404,383,2025-06-03T10:35:56.365282
2050,-0.3875,0.8882,0.2499,-3.395,-18.725,6.475,384,1,367,402,352,2025-06-03T10:35:56.365282
2051,-0.3802,0.8828,0.2479,-5.390,-18.655,5.565,391,2,362,394,376,2025-06-03T10:35:56.365282
2052,-0.3850,0.8706,0.2430,-6.335,-17.955,4.445,396,1,359,392,385,2025-06-03T10:35:56.365282
2053,-0.3831,0.8633,0.2386,-6.825,-17.465,3.185,391,2,359,384,383,2025-06-03T10:35:56.365282
2054,-0.3924,0.8555,0.2289,-6.825,-16.520,1.820,395,2,364,402,398,2025-06-03T10:35:56.365282
2055,-0.3963,0.8457,0.2235,-6.510,-14.840,0.385,392,1,360,394,361,2025-06-03T10:35:56.365282
2056,-0.4046,0.8398,0.2157,-5.565,-13.300,-1.120,392,1,357,399,371,2025-06-03T10:35:56.365282
2057,-0.4260,0.8379,0.2084,-4.760,-12.355,-2.100,393,1,355,396,380,2025-06-03T10:35:56.365282
2058,-0.4250,0.8286,0.2094,-3.535,-12.250,-2.695,340,2,357,388,387,2025-06-03T10:35:56.365282
2059,-0.4202,0.8276,0.2137,-2.380,-11.270,-3.010,355,2,356,399,389,2025-06-03T10:35:56.365282
2060,-0.4080,0.8262,0.2196,-1.330,-9.520,-2.975,370,2,367,404,386,2025-06-03T10:35:56.365282
2061,-0.3977,0.8286,0.2259,0.070,-7.735,-2.555,389,1,369,398,354,2025-06-03T10:35:56.365282
2062,-0.4055,0.8267,0.2176,0.945,-5.530,-1.715,391,2,361,380,370,2025-06-03T10:35:56.365282
2063,-0.4089,0.8320,0.2201,1.715,-3.710,-1.190,392,1,366,389,379,2025-06-03T10:35:56.365282
2064,-0.4026,0.8350,0.2269,2.170,-2.695,-0.525,384,2,361,390,378,2025-06-03T10:35:56.365282
2065,-0.3987,0.8384,0.2250,2.450,-2.205,0.140,401,1,365,384,356,2025-06-03T10:35:56.365282
2066,-0.3958,0.8452,0.2279,2.100,-1.575,0.175,374,1,360,360,371,2025-06-03T10:35:56.365282
2067,-0.3972,0.8477,0.2338,1.750,-1.190,0.350,376,2,359,368,389,2025-06-03T10:35:56.365282
2068,-0.4163,0.8462,0.2352,1.015,-1.260,0.245,390,2,357,384,389,2025-06-03T10:35:56.365282
2069,-0.4221,0.8438,0.2303,0.490,-1.750,0.175,389,1,337,376,385,2025-06-03T10:35:56.365282
2070,-0.4221,0.8491,0.2303,-0.175,-2.345,-0.140,394,2,351,388,355,2025-06-03T10:35:56.365282
2071,-0.4177,0.8394,0.2425,-0.560,-1.750,-0.840,390,2,352,395,381,2025-06-03T10:35:56.365282
2072,-0.4197,0.8369,0.2420,-1.330,-0.490,-1.575,395,2,359,355,384,2025-06-03T10:35:56.365282
2073,-0.4343,0.8316,0.2381,-1.435,0.350,-2.450,404,1,336,373,390,2025-06-03T10:35:56.365282
2074,-0.4407,0.8218,0.2372,-1.470,0.105,-2.940,396,1,350,398,400,2025-06-03T10:35:56.365282
2075,-0.4485,0.8189,0.2455,-1.365,-0.315,-3.430,403,1,351,357,393,2025-06-03T10:35:56.365282
2076,-0.4455,0.8169,0.2586,-1.190,0.350,-3.745,368,2,348,386,405,2025-06-03T10:35:56.365282
2077,-0.4382,0.8179,0.2625,-0.560,1.120,-3.850,379,2,353,386,408,2025-06-03T10:35:56.365282
2078,-0.4436,0.8301,0.2684,-0.105,1.015,-3.745,394,1,353,394,368,2025-06-03T10:35:56.365282
2079,-0.4490,0.8374,0.2645,0.175,0.910,-3.605,390,1,355,390,383,2025-06-03T10:35:56.365282
2080,-0.4524,0.8486,0.2635,0.595,-0.035,-3.220,395,1,354,389,391,2025-06-03T10:35:56.365282
2081,-0.4490,0.8618,0.2694,0.945,-1.610,-2.590,398,1,358,394,400,2025-06-03T10:35:56.365282
2082,-0.4485,0.8740,0.2708,1.225,-2.310,-1.960,397,2,364,403,396,2025-06-03T10:35:56.365282
2083,-0.4372,0.8823,0.2669,1.540,-1.960,-1.330,396,2,372,406,366,2025-06-03T10:35:56.365282
2084,-0.4436,0.8877,0.2606,1.400,-2.135,-0.805,371,2,370,392,381,2025-06-03T10:35:56.365282
2085,-0.4534,0.8891,0.2523,1.400,-2.660,-0.245,378,1,363,401,377,2025-06-03T10:35:56.365282
2086,-0.4519,0.8877,0.2508,1.190,-3.290,0.105,380,1,359,385,382,2025-06-03T10:35:56.365282
2087,-0.4504,0.8833,0.1249,0.980,-3.360,0.420,377,1,337,386,385,2025-06-03T10:35:56.365282
2088,-0.4543,0.8755,0.2464,0.560,-3.430,0.875,382,2,319,391,387,2025-06-03T10:35:56.407293
2089,-0.4636,0.8682,0.2425,0.000,-3.710,1.190,386,2,335,387,391,2025-06-03T10:35:56.407293
2090,-0.4646,0.8481,0.2455,-0.560,-4.130,1.470,393,2,343,389,397,2025-06-03T10:35:56.407293
2091,-0.4724,0.8369,0.2450,-0.980,-4.935,1.995,399,1,353,394,391,2025-06-03T10:35:56.407293
2092,-0.4651,0.8281,0.2445,-1.330,-5.810,2.555,394,2,353,405,387,2025-06-03T10:35:56.639861
2093,-0.4548,0.8218,0.2489,-1.295,-5.775,2.905,388,1,355,358,341,2025-06-03T10:35:56.639861
2094,-0.4499,0.8233,0.2489,-1.225,-4.900,3.360,361,2,357,371,362,2025-06-03T10:35:56.639861
2095,-0.4494,0.8174,0.2503,-1.050,-3.780,3.535,358,1,360,392,345,2025-06-03T10:35:56.639861
2096,-0.4543,0.8208,0.2562,-0.595,-4.095,3.920,372,1,356,356,364,2025-06-03T10:35:56.639861
2097,-0.4563,0.8194,0.2582,-0.210,-4.515,3.920,377,1,362,390,388,2025-06-03T10:35:56.639861
2098,-0.4519,0.8203,0.2591,0.105,-5.320,3.710,394,1,371,403,379,2025-06-03T10:35:56.639861
2099,-0.4416,0.8198,0.2601,0.805,-5.705,3.395,401,2,364,394,382,2025-06-03T10:35:56.639861
2100,-0.4377,0.8233,0.2562,1.155,-6.020,2.695,400,1,362,400,392,2025-06-03T10:35:56.639861
2101,-0.4314,0.8276,0.2586,1.330,-5.285,1.750,405,1,357,387,393,2025-06-03T10:35:56.639861
2102,-0.4290,0.8276,0.2533,1.575,-4.760,0.735,402,1,336,383,390,2025-06-03T10:35:56.639861
2103,-0.4333,0.8291,0.2577,1.610,-4.830,-0.525,406,2,346,380,357,2025-06-03T10:35:56.639861
2104,-0.4368,0.8257,0.2601,1.820,-5.285,-1.505,402,2,353,373,374,2025-06-03T10:35:56.639861
2105,-0.4387,0.8311,0.2572,1.960,-6.090,-2.660,409,2,355,391,380,2025-06-03T10:35:56.639861
2106,-0.4348,0.8252,0.2591,2.170,-7.000,-3.710,397,2,362,396,384,2025-06-03T10:35:56.639861
2107,-0.4387,0.8262,0.2625,2.205,-7.525,-4.515,402,1,361,388,352,2025-06-03T10:35:56.639861
2108,-0.4397,0.8281,0.2601,2.485,-7.945,-5.145,369,1,354,350,334,2025-06-03T10:35:56.639861
2109,-0.4436,0.8320,0.2567,2.695,-8.855,-5.320,383,2,358,368,321,2025-06-03T10:35:56.639861
2110,-0.4455,0.8369,0.2533,2.940,-9.240,-5.285,393,2,357,371,349,2025-06-03T10:35:56.639861
2111,-0.4455,0.8428,0.2494,2.940,-8.995,-5.040,388,1,351,343,353,2025-06-03T10:35:56.639861
2112,-0.4441,0.8516,0.2474,3.080,-8.820,-4.865,394,2,356,380,381,2025-06-03T10:35:56.639861
2113,-0.4475,0.8540,0.2435,2.835,-8.330,-4.445,395,1,360,351,384,2025-06-03T10:35:56.752387
2114,-0.4602,0.8525,0.2445,2.590,-8.505,-3.920,372,1,356,378,389,2025-06-03T10:35:56.752387
2115,-0.4646,0.8569,0.2411,2.345,-9.100,-3.395,379,2,365,396,392,2025-06-03T10:35:56.752387
2116,-0.4656,0.8530,0.2455,2.065,-10.255,-2.870,353,2,366,407,379,2025-06-03T10:35:56.752387
2117,-0.4631,0.8608,0.2440,1.855,-10.745,-2.450,365,1,364,361,385,2025-06-03T10:35:56.752387
2118,-0.4592,0.8618,0.2425,1.575,-10.675,-2.205,379,1,364,384,359,2025-06-03T10:35:56.752387
2119,-0.4548,0.8599,0.2430,1.505,-10.430,-2.030,380,1,359,383,366,2025-06-03T10:35:56.752387
2120,-0.4529,0.8574,0.2372,1.260,-10.395,-1.610,384,2,360,348,348,2025-06-03T10:35:56.752387
2121,-0.4485,0.8555,0.2425,1.015,-10.360,-1.120,354,1,362,363,358,2025-06-03T10:35:56.752387
2122,-0.4446,0.8511,0.2474,0.945,-10.675,-0.875,370,2,370,379,378,2025-06-03T10:35:56.947635
2123,-0.4441,0.8555,0.2474,0.875,-10.850,-0.700,377,1,364,383,380,2025-06-03T10:35:56.947635
2124,-0.4397,0.8535,0.2469,0.980,-10.990,-0.560,350,2,362,393,388,2025-06-03T10:35:56.947635
2125,-0.4412,0.8589,0.2420,0.525,-11.095,-0.420,371,1,362,405,400,2025-06-03T10:35:56.947635
2126,-0.4397,0.8550,0.2455,0.280,-11.130,-0.455,386,2,361,406,388,2025-06-03T10:35:56.947635
2127,-0.4368,0.8530,0.2474,0.105,-11.235,-0.315,388,1,364,356,389,2025-06-03T10:35:56.947635
2128,-0.4368,0.8501,0.2484,-0.035,-11.165,-0.035,381,1,361,375,385,2025-06-03T10:35:56.947635
2129,-0.4397,0.8462,0.2445,-0.245,-11.410,-0.140,379,1,356,393,386,2025-06-03T10:35:56.947635
2130,-0.4397,0.8413,0.2464,-0.385,-11.410,-0.280,385,1,357,388,356,2025-06-03T10:35:56.947635
2131,-0.4377,0.8447,0.2416,-0.420,-11.375,-0.490,381,1,352,360,363,2025-06-03T10:35:56.947635
2132,-0.4329,0.8462,0.2406,-0.595,-10.955,-0.490,390,2,354,370,384,2025-06-03T10:35:56.947635
2133,-0.4387,0.8467,0.2450,-0.560,-10.465,-0.560,388,1,359,387,388,2025-06-03T10:35:56.947635
2134,-0.4372,0.8452,0.2484,-0.455,-9.940,-0.840,392,2,358,385,379,2025-06-03T10:35:56.947635
2135,-0.4392,0.8462,0.2445,-0.490,-10.010,-0.770,389,1,362,402,387,2025-06-03T10:35:56.947635
2136,-0.4358,0.8428,0.2416,-0.525,-10.080,-0.735,390,1,361,405,379,2025-06-03T10:35:56.947635
2137,-0.4319,0.8423,0.2489,-0.665,-10.115,-0.840,388,1,361,392,378,2025-06-03T10:35:56.947635
2138,-0.4290,0.8403,0.2552,-0.665,-9.800,-0.910,394,1,354,384,390,2025-06-03T10:35:56.947635
2139,-0.4275,0.8472,0.2542,-0.805,-9.380,-0.910,398,2,361,398,386,2025-06-03T10:35:57.153466
2140,-0.4246,0.8438,0.2533,-0.665,-9.310,-1.050,402,1,367,353,380,2025-06-03T10:35:57.153466
2141,-0.4280,0.8452,0.2489,-0.805,-9.520,-1.190,375,2,363,380,351,2025-06-03T10:35:57.153466
2142,-0.4285,0.8418,0.2489,-0.875,-9.590,-1.190,375,1,371,383,359,2025-06-03T10:35:57.153466
2143,-0.4275,0.8428,0.2557,-0.805,-9.555,-1.225,384,1,371,391,336,2025-06-03T10:35:57.153466
2144,-0.4275,0.8423,0.2523,-0.805,-9.275,-1.260,361,1,371,381,364,2025-06-03T10:35:57.153466
2145,-0.4265,0.8408,0.2479,-0.700,-8.820,-1.435,356,1,347,380,349,2025-06-03T10:35:57.153466
2146,-0.4338,0.8398,0.2479,-0.805,-8.575,-1.610,367,1,354,349,368,2025-06-03T10:35:57.153466
2147,-0.4353,0.8374,0.2503,-0.630,-8.330,-1.785,358,1,358,385,383,2025-06-03T10:35:57.153466
2148,-0.4397,0.8389,0.2499,-0.665,-8.085,-2.170,377,1,364,383,394,2025-06-03T10:35:57.153466
2149,-0.4421,0.8350,0.2474,-0.630,-8.330,-2.205,381,0,343,385,381,2025-06-03T10:35:57.153466
2150,-0.4416,0.8345,0.2508,-1.015,-8.120,-2.310,358,1,346,393,394,2025-06-03T10:35:57.153466
2151,-0.4353,0.8345,0.2562,-1.120,-7.840,-2.345,370,2,346,366,393,2025-06-03T10:35:57.153466
2152,-0.4338,0.8369,0.2572,-1.365,-7.315,-2.590,378,0,325,384,403,2025-06-03T10:35:57.153466
2153,-0.4324,0.8389,0.2601,-1.505,-6.755,-2.835,388,1,344,362,401,2025-06-03T10:35:57.153466
2154,-0.4333,0.8418,0.2616,-1.750,-6.685,-3.115,395,1,346,347,395,2025-06-03T10:35:57.153466
2155,-0.4372,0.8428,0.2664,-1.750,-6.860,-3.430,397,1,347,374,366,2025-06-03T10:35:57.153466
2156,-0.4421,0.8428,0.2704,-1.960,-7.525,-3.640,391,2,347,383,370,2025-06-03T10:35:57.357070
2157,-0.4421,0.8428,0.2733,-1.680,-8.120,-3.675,367,2,353,350,309,2025-06-03T10:35:57.357070
2158,-0.4426,0.8433,0.2655,-1.680,-8.715,-3.745,381,2,349,369,313,2025-06-03T10:35:57.357070
2159,-0.4343,0.8438,0.2596,-1.680,-8.610,-3.745,388,2,351,386,363,2025-06-03T10:35:57.357070
2160,-0.4285,0.8472,0.2601,-1.785,-7.770,-3.850,390,2,354,406,383,2025-06-03T10:35:57.357070
2161,-0.4353,0.8452,0.2674,-1.960,-7.035,-4.165,385,1,361,394,396,2025-06-03T10:35:57.357070
2162,-0.4499,0.8447,0.2723,-1.750,-6.755,-4.270,386,2,361,404,327,2025-06-03T10:35:57.357070
2163,-0.4616,0.8433,0.2694,-1.190,-7.735,-3.885,380,1,361,349,340,2025-06-03T10:35:57.357070
2164,-0.4641,0.8457,0.2674,-0.735,-8.925,-3.185,357,1,362,378,376,2025-06-03T10:35:57.357070
2165,-0.4597,0.8462,0.2630,-0.595,-9.205,-2.625,373,1,363,380,386,2025-06-03T10:35:57.357070
2166,-0.4524,0.8472,0.2704,-0.455,-8.680,-1.855,387,1,367,387,391,2025-06-03T10:35:57.357070
2167,-0.4485,0.8447,0.2684,-0.175,-8.085,-1.085,399,1,347,384,396,2025-06-03T10:35:57.357070
2168,-0.4543,0.8452,0.2660,-0.035,-7.910,-0.420,392,2,356,362,321,2025-06-03T10:35:57.357070
2169,-0.4592,0.8438,0.2616,0.210,-7.980,0.385,366,1,331,361,366,2025-06-03T10:35:57.357070
2170,-0.4568,0.8442,0.2635,0.315,-8.050,1.155,349,1,339,371,377,2025-06-03T10:35:57.357070
2171,-0.4543,0.8394,0.2645,0.490,-8.050,1.715,369,2,350,311,379,2025-06-03T10:35:57.357070
2172,-0.4538,0.8389,0.2625,0.490,-7.735,1.925,383,1,330,363,378,2025-06-03T10:35:57.357070
2173,-0.4558,0.8374,0.2596,0.490,-7.910,2.310,330,2,338,370,398,2025-06-03T10:35:57.621223
2174,-0.4573,0.8369,0.2601,0.315,-8.645,2.660,354,1,351,390,406,2025-06-03T10:35:57.621223
2175,-0.4504,0.8320,0.2601,0.245,-8.715,2.520,381,2,359,393,405,2025-06-03T10:35:57.621223
2176,-0.4412,0.8281,0.2611,0.035,-8.330,2.380,382,1,363,386,397,2025-06-03T10:35:57.621223
2177,-0.4426,0.8247,0.2640,-0.280,-8.330,2.065,385,1,363,395,389,2025-06-03T10:35:57.621223
2178,-0.4416,0.8223,0.2699,-0.490,-8.260,1.645,384,1,356,392,381,2025-06-03T10:35:57.621223
2179,-0.4426,0.8233,0.2708,-0.665,-8.365,1.155,383,1,362,357,373,2025-06-03T10:35:57.621223
2180,-0.4412,0.8194,0.2694,-0.735,-8.890,0.665,357,1,360,352,341,2025-06-03T10:35:57.621223
2181,-0.4363,0.8179,0.2713,-0.805,-9.170,0.000,373,1,363,366,375,2025-06-03T10:35:57.621223
2182,-0.4338,0.8208,0.2713,-0.770,-9.205,-0.630,375,2,372,353,376,2025-06-03T10:35:57.621223
2183,-0.4299,0.8218,0.2752,-0.805,-8.715,-1.540,382,1,369,383,392,2025-06-03T10:35:57.621223
2184,-0.4285,0.8237,0.2728,-0.490,-8.085,-2.345,396,2,368,367,384,2025-06-03T10:35:57.621223
2185,-0.4329,0.8262,0.2728,-0.490,-7.770,-3.115,398,1,368,382,384,2025-06-03T10:35:57.621223
2186,-0.4363,0.8247,0.2777,-0.525,-7.770,-3.675,401,1,364,395,377,2025-06-03T10:35:57.621223
2187,-0.4392,0.8233,0.2865,-0.490,-7.875,-4.165,403,1,369,400,347,2025-06-03T10:35:57.621223
2188,-0.4465,0.8281,0.2855,-0.070,-8.435,-4.515,390,1,359,379,372,2025-06-03T10:35:57.621223
2189,-0.4441,0.8286,0.2816,-0.175,-9.275,-4.725,362,1,360,405,380,2025-06-03T10:35:57.621223
2190,-0.4446,0.8311,0.2806,-0.035,-9.765,-4.550,372,2,369,399,380,2025-06-03T10:35:57.781208
2191,-0.4416,0.8325,0.2806,-0.140,-9.625,-4.445,349,1,360,384,377,2025-06-03T10:35:57.781208
2192,-0.4402,0.8369,0.2806,-0.070,-8.960,-4.410,373,2,359,395,392,2025-06-03T10:35:57.781208
2193,-0.4436,0.8359,0.2821,0.070,-8.505,-4.200,386,1,366,393,379,2025-06-03T10:35:57.781208
2194,-0.4558,0.8335,0.2777,0.210,-8.715,-3.955,395,2,366,401,383,2025-06-03T10:35:57.781208
2195,-0.4616,0.8350,0.2777,0.420,-9.310,-3.605,398,2,371,400,386,2025-06-03T10:35:57.781208
2196,-0.4592,0.8389,0.2772,0.595,-10.150,-3.220,399,2,371,354,314,2025-06-03T10:35:57.781208
2197,-0.4553,0.8398,0.2718,0.665,-10.045,-2.695,403,2,371,366,361,2025-06-03T10:35:57.781208
2198,-0.4480,0.8364,0.2704,0.735,-9.205,-2.310,400,1,373,391,370,2025-06-03T10:35:57.781208
2199,-0.4436,0.8335,0.2762,0.455,-8.155,-1.855,366,2,370,363,380,2025-06-03T10:35:57.781208
2200,-0.4494,0.8340,0.2767,0.350,-7.280,-1.855,350,1,367,380,352,2025-06-03T10:35:57.781208
2201,-0.4499,0.8320,0.2816,0.175,-7.105,-1.890,373,1,369,381,372,2025-06-03T10:35:57.781208
2202,-0.4553,0.8325,0.2811,0.245,-7.735,-1.960,376,1,373,401,393,2025-06-03T10:35:57.781208
2203,-0.4529,0.8325,0.2777,0.140,-8.750,-2.030,385,2,372,354,397,2025-06-03T10:35:57.781208
2204,-0.4470,0.8257,0.2743,0.035,-9.345,-2.310,382,2,368,356,399,2025-06-03T10:35:57.781208
2205,-0.4416,0.8306,0.2767,0.175,-9.730,-2.415,374,1,366,372,371,2025-06-03T10:35:57.781208
2206,-0.4426,0.8286,0.2806,0.210,-9.695,-2.625,378,1,361,378,381,2025-06-03T10:35:57.781208
2207,-0.4426,0.8272,0.2777,0.385,-9.695,-2.800,377,1,365,349,384,2025-06-03T10:35:57.781208
2208,-0.4451,0.8262,0.2752,0.630,-9.765,-2.660,379,2,363,363,380,2025-06-03T10:35:57.972826
2209,-0.4499,0.8272,0.2786,0.805,-10.010,-2.695,388,2,368,387,393,2025-06-03T10:35:57.972826
2210,-0.4485,0.8311,0.2777,1.155,-9.975,-2.590,384,2,372,402,366,2025-06-03T10:35:57.972826
2211,-0.4470,0.8335,0.2728,1.575,-9.695,-2.450,363,2,374,356,379,2025-06-03T10:35:57.972826
2212,-0.4475,0.8345,0.2684,1.925,-9.380,-2.205,345,1,363,386,363,2025-06-03T10:35:57.972826
2213,-0.4509,0.8320,0.2689,2.170,-8.925,-1.925,362,1,367,386,344,2025-06-03T10:35:57.972826
2214,-0.4475,0.8330,0.2733,2.275,-8.715,-1.505,374,1,360,399,373,2025-06-03T10:35:57.972826
2215,-0.4465,0.8320,0.2733,2.135,-8.470,-1.330,374,2,369,397,388,2025-06-03T10:35:57.972826
2216,-0.4455,0.8306,0.2738,2.100,-8.085,-1.120,376,1,360,385,387,2025-06-03T10:35:57.972826
2217,-0.4519,0.8320,0.2743,1.820,-8.015,-1.015,375,1,364,347,381,2025-06-03T10:35:57.972826
2218,-0.4494,0.8340,0.2757,1.715,-8.190,-1.050,387,1,355,354,385,2025-06-03T10:35:57.972826
2219,-0.4499,0.8369,0.2767,1.645,-8.015,-1.015,398,1,361,387,396,2025-06-03T10:35:57.972826
2220,-0.4480,0.8355,0.2777,1.540,-8.120,-1.050,398,2,369,399,384,2025-06-03T10:35:57.972826
2221,-0.4529,0.8345,0.2772,1.400,-8.610,-0.980,402,1,373,397,388,2025-06-03T10:35:57.972826
