SeqNum,AccX,AccY,AccZ,GyroX,GyroY,GyroZ,Flex,Force1,Force2,Force3,Force4,TimestampReception
28365,0.3211,-1.0546,0.4685,17.255,50.750,-40.075,0.00,22.8498,51.8904,16.5929,4.3941,2025-06-12T14:20:24.713957
28366,-0.1064,-1.2512,0.4104,-31.255,46.130,-51.450,0.01,19.4317,56.7857,16.5929,4.3941,2025-06-12T14:20:24.714646
28367,-0.1142,-1.2644,0.4280,-30.485,47.565,-56.035,0.00,19.4317,56.7857,18.0810,4.3941,2025-06-12T14:20:24.714646
28368,-0.1171,-1.2464,0.4504,-28.980,48.160,-59.745,0.00,22.8498,56.7857,18.0810,4.3941,2025-06-12T14:20:24.714957
28369,-0.1093,-1.1917,0.4441,-18.165,48.160,-62.370,0.00,19.4317,56.7857,16.5929,4.3941,2025-06-12T14:20:24.714957
28370,-0.0942,-1.1097,0.4309,-23.450,47.775,-62.510,0.01,19.4317,56.7857,16.5929,4.3941,2025-06-12T14:20:24.714957
28371,-0.0688,-1.0233,0.4202,-17.640,47.635,-59.780,0.00,19.4317,56.7857,16.5929,4.3941,2025-06-12T14:20:24.714957
28372,-0.0361,-0.9130,0.4070,-10.990,48.510,-54.285,0.00,19.4317,56.7857,19.5678,4.3941,2025-06-12T14:20:24.714957
28373,-0.0112,-0.8398,0.3860,-2.800,51.870,-48.475,0.01,19.4317,51.8904,18.0810,4.3941,2025-06-12T14:20:24.714957
28374,0.0000,-0.7828,0.3748,3.990,56.315,-40.775,0.00,19.4317,56.7857,19.5678,4.3941,2025-06-12T14:20:24.714957
28375,-0.0122,-0.7745,0.3748,11.620,61.810,-34.860,0.00,19.4317,56.7857,18.0810,4.3941,2025-06-12T14:20:24.714957
28376,-0.0420,-0.8028,0.3894,17.220,64.960,-29.155,0.00,19.4317,56.7857,19.5678,3.3647,2025-06-12T14:20:24.714957
28377,-0.0742,-0.8398,0.4124,23.170,66.115,-26.005,0.00,19.4317,51.8904,19.5678,3.3647,2025-06-12T14:20:24.716044
28378,0.0127,-0.9282,0.4085,26.950,71.295,-26.075,0.01,19.4317,51.8904,19.5678,3.3647,2025-06-12T14:20:24.716044
28379,0.1835,-1.0756,0.5466,39.480,97.230,-28.980,0.01,19.4317,51.8904,18.0810,3.3647,2025-06-12T14:20:24.716044
28380,0.0874,-1.0970,0.5832,48.440,119.630,-31.535,0.00,22.8498,56.7857,16.5929,3.3647,2025-06-12T14:20:24.716044
28381,0.0390,-1.1366,0.5588,57.470,132.125,-33.285,0.00,19.4317,51.8904,18.0810,4.3941,2025-06-12T14:20:24.716044
28382,-0.0673,-1.1136,0.5256,61.040,138.705,-33.460,0.01,19.4317,51.8904,18.0810,4.3941,2025-06-12T14:20:24.891217
28383,-0.1484,-1.0721,0.4558,60.620,137.970,-31.010,0.00,19.4317,56.7857,19.5678,4.3941,2025-06-12T14:20:24.891217
28384,-0.1898,-1.0263,0.3933,57.295,131.670,-26.915,0.01,22.8498,51.8904,18.0810,4.3941,2025-06-12T14:20:24.891217
28385,-0.2289,-0.9526,0.3694,45.220,119.490,-19.740,0.01,19.4317,51.8904,18.0810,3.3647,2025-06-12T14:20:24.891217
28386,-0.2728,-0.8682,0.3494,48.825,105.315,-12.040,0.00,22.8498,51.8904,18.0810,4.3941,2025-06-12T14:20:24.891217
28387,-0.3040,-0.7974,0.3382,43.365,83.615,-6.195,0.00,22.8498,51.8904,18.0810,4.3941,2025-06-12T14:20:24.891217
28388,-0.3021,-0.7364,0.3235,38.920,62.965,0.665,0.00,22.8498,51.8904,18.0810,4.3941,2025-06-12T14:20:24.891217
28389,-0.2821,-0.6783,0.3152,34.125,39.165,6.335,0.00,22.8498,56.7857,18.0810,4.3941,2025-06-12T14:20:24.891217
28390,-0.2645,-0.6349,0.3231,30.555,17.255,12.705,0.00,22.8498,51.8904,18.0810,4.3941,2025-06-12T14:20:24.891217
28391,-0.2425,-0.6027,0.3333,26.985,1.295,16.835,0.00,22.8498,46.9713,16.5929,4.3941,2025-06-12T14:20:24.891217
28392,-0.2211,-0.5905,0.3353,24.010,-14.595,19.845,0.00,22.8498,51.8904,18.0810,4.3941,2025-06-12T14:20:24.891217
28393,-0.1996,-0.5890,0.3357,20.195,-24.430,20.650,0.00,22.8498,56.7857,18.0810,3.3647,2025-06-12T14:20:24.891217
28394,-0.1679,-0.6007,0.3411,15.855,-31.500,20.055,0.00,19.4317,51.8904,16.5929,3.3647,2025-06-12T14:20:24.891217
28395,-0.1459,-0.6261,0.3450,11.690,-34.125,17.815,0.00,22.8498,51.8904,18.0810,3.3647,2025-06-12T14:20:24.891217
28396,-0.1210,-0.6651,0.3562,6.230,-33.005,14.945,0.00,22.8498,51.8904,18.0810,4.3941,2025-06-12T14:20:24.891217
28397,-0.1000,-0.7178,0.3748,0.700,-28.595,9.835,0.00,22.8498,51.8904,18.0810,3.3647,2025-06-12T14:20:24.938909
28398,-0.0913,-0.7623,0.3972,-6.755,-20.090,4.620,0.01,19.4317,51.8904,18.0810,4.3941,2025-06-12T14:20:24.938909
28399,-0.0732,-0.7920,0.4192,-13.020,-9.310,-1.540,0.01,19.4317,51.8904,18.0810,4.3941,2025-06-12T14:20:24.938909
28400,-0.0683,-0.8086,0.4407,-20.650,-0.140,-5.565,0.01,22.8498,51.8904,18.0810,4.3941,2025-06-12T14:20:24.938909
28401,-0.0913,-0.8164,0.4563,-26.460,8.925,-8.575,0.00,19.4317,51.8904,18.0810,3.3647,2025-06-12T14:20:24.986301
28402,-0.1078,-0.8291,0.4856,-32.200,12.950,-9.275,0.00,22.8498,51.8904,19.5678,4.3941,2025-06-12T14:20:24.986301
28403,-0.1264,-0.8316,0.5163,-36.190,13.860,-7.455,0.00,19.4317,51.8904,18.0810,3.3647,2025-06-12T14:20:24.986301
28404,-0.1503,-0.8379,0.5461,-38.745,12.040,-4.515,0.01,22.8498,51.8904,19.5678,4.3941,2025-06-12T14:20:25.070050
28405,-0.1840,-0.8506,0.5783,-40.635,7.070,-2.415,0.00,22.8498,56.7857,18.0810,4.3941,2025-06-12T14:20:25.070050
28406,-0.2157,-0.8974,0.6090,-40.355,0.595,-0.315,0.00,19.4317,51.8904,18.0810,4.3941,2025-06-12T14:20:25.070050
28407,-0.2503,-0.9355,0.6407,-37.905,-9.695,0.665,0.01,22.8498,51.8904,18.0810,3.3647,2025-06-12T14:20:25.070050
28408,-0.2684,-0.9726,0.6471,-34.055,-21.525,0.770,0.00,19.4317,51.8904,18.0810,4.3941,2025-06-12T14:20:25.370904
28409,-0.2625,-0.9916,0.6315,-28.000,-30.835,1.295,0.00,19.4317,51.8904,16.5929,4.3941,2025-06-12T14:20:25.370904
28410,-0.2259,-0.9941,0.6202,-21.000,-38.465,2.520,0.00,22.8498,51.8904,19.5678,4.3941,2025-06-12T14:20:25.370904
28411,-0.1645,-0.9633,0.6120,-15.820,-39.795,5.145,0.00,19.4317,51.8904,18.0810,4.3941,2025-06-12T14:20:25.370904
28412,-0.1205,-0.9565,0.5973,-12.355,-32.970,7.385,0.00,19.4317,51.8904,19.5678,3.3647,2025-06-12T14:20:25.370904
28413,-0.0825,-0.9780,0.6076,-11.970,-10.955,8.085,0.00,22.8498,51.8904,18.0810,4.3941,2025-06-12T14:20:25.370904
28414,-0.0854,-1.0121,0.6251,-14.420,-0.595,6.755,0.00,19.4317,51.8904,18.0810,3.3647,2025-06-12T14:20:25.370904
28415,-0.0834,-1.0902,0.6446,-17.570,22.960,2.030,0.00,19.4317,51.8904,16.5929,3.3647,2025-06-12T14:20:25.370904
28416,-0.1059,-1.1385,0.6681,-20.545,40.355,-3.990,0.01,19.4317,46.9713,18.0810,3.3647,2025-06-12T14:20:25.371971
28417,-0.2318,-1.1385,0.6505,-21.315,49.560,-9.310,0.00,22.8498,51.8904,18.0810,4.3941,2025-06-12T14:20:25.371971
28418,-0.3309,-1.1170,0.6080,-20.685,45.290,-11.375,0.00,22.8498,51.8904,18.0810,4.3941,2025-06-12T14:20:25.371971
28419,-0.4109,-1.0917,0.5729,-18.025,28.525,-10.325,0.01,22.8498,51.8904,18.0810,3.3647,2025-06-12T14:20:25.371971
28420,-0.4524,-1.0302,0.5358,-13.720,6.300,-4.585,0.01,22.8498,46.9713,18.0810,4.3941,2025-06-12T14:20:25.371971
28421,-0.4241,-0.9677,0.5070,-7.910,-22.750,3.115,0.00,19.4317,51.8904,18.0810,3.3647,2025-06-12T14:20:25.371971
28422,-0.3440,-0.8833,0.4738,-4.305,-42.175,14.700,0.01,19.4317,51.8904,16.5929,3.3647,2025-06-12T14:20:25.371971
28423,-0.2938,-0.8311,0.4348,-1.540,-55.965,25.060,0.00,19.4317,51.8904,18.0810,4.3941,2025-06-12T14:20:25.371971
28424,-0.2586,-0.7935,0.4104,-1.540,-61.040,36.505,0.00,22.8498,51.8904,18.0810,3.3647,2025-06-12T14:20:25.523711
28425,-0.2674,-0.8018,0.4011,-3.395,-62.965,45.045,0.00,19.4317,51.8904,16.5929,4.3941,2025-06-12T14:20:25.523711
28426,-0.2957,-0.8306,0.4070,-6.230,-64.400,49.000,0.01,19.4317,51.8904,15.1036,4.3941,2025-06-12T14:20:25.523711
28427,-0.3470,-0.8813,0.4094,-8.190,-69.720,50.855,0.00,22.8498,51.8904,18.0810,4.3941,2025-06-12T14:20:25.523711
28428,-0.3948,-0.9350,0.3958,-9.660,-77.980,50.260,0.00,22.8498,46.9713,16.5929,3.3647,2025-06-12T14:20:25.523711
28429,-0.4397,-0.9970,0.3865,-9.905,-91.945,47.530,0.00,22.8498,51.8904,16.5929,3.3647,2025-06-12T14:20:25.523711
28430,-0.4499,-1.0360,0.3767,-8.855,-105.700,44.660,0.00,22.8498,46.9713,16.5929,3.3647,2025-06-12T14:20:25.523711
28431,-0.4309,-1.0468,0.3543,-6.370,-121.870,42.035,0.00,19.4317,46.9713,16.5929,4.3941,2025-06-12T14:20:25.523711
28432,-0.3821,-1.0228,0.3143,-3.815,-131.880,41.265,0.00,16.0028,46.9713,16.5929,4.3941,2025-06-12T14:20:25.523711
28433,-0.3030,-1.0024,0.2918,-1.505,-136.955,41.720,0.00,22.8498,51.8904,15.1036,3.3647,2025-06-12T14:20:25.523711
28434,-0.2284,-0.9658,0.2830,-0.245,-134.540,43.225,0.00,19.4317,51.8904,16.5929,3.3647,2025-06-12T14:20:25.523711
28435,-0.1767,-0.9394,0.2757,0.105,-125.125,44.765,0.00,19.4317,46.9713,15.1036,4.3941,2025-06-12T14:20:25.523711
28436,-0.1376,-0.9033,0.2699,-0.910,-113.400,46.550,0.01,19.4317,51.8904,15.1036,3.3647,2025-06-12T14:20:25.523711
28437,-0.1191,-0.8789,0.2738,-2.695,-97.265,47.845,0.00,19.4317,51.8904,18.0810,3.3647,2025-06-12T14:20:25.523711
28438,-0.1332,-0.8496,0.2762,-4.690,-82.775,48.965,0.00,19.4317,46.9713,16.5929,3.3647,2025-06-12T14:20:25.523711
28439,-0.1640,-0.8320,0.2747,-6.895,-74.410,49.385,0.01,22.8498,51.8904,16.5929,3.3647,2025-06-12T14:20:25.523711
28440,-0.2050,-0.8218,0.2791,-8.715,-70.140,49.420,0.00,19.4317,51.8904,15.1036,4.3941,2025-06-12T14:20:25.788497
28441,-0.2308,-0.8091,0.2918,-9.975,-70.595,48.790,0.01,19.4317,51.8904,16.5929,3.3647,2025-06-12T14:20:25.788497
28442,-0.2547,-0.8135,0.2860,-11.410,-74.340,48.335,0.01,19.4317,46.9713,15.1036,3.3647,2025-06-12T14:20:25.788497
28443,-0.2752,-0.8267,0.2811,-12.180,-81.235,46.585,0.01,19.4317,46.9713,16.5929,3.3647,2025-06-12T14:20:25.788497
28444,-0.2811,-0.8418,0.2860,-12.775,-87.710,44.415,0.00,19.4317,46.9713,15.1036,3.3647,2025-06-12T14:20:25.788497
28445,-0.2728,-0.8506,0.2913,-13.475,-94.185,40.915,0.01,19.4317,46.9713,16.5929,4.3941,2025-06-12T14:20:25.788497
28446,-0.2616,-0.8657,0.2982,-14.140,-98.280,36.330,0.00,22.8498,46.9713,16.5929,3.3647,2025-06-12T14:20:25.788497
28447,-0.2538,-0.8921,0.3070,-14.595,-101.430,32.095,0.00,19.4317,51.8904,16.5929,3.3647,2025-06-12T14:20:25.788497
28448,-0.2416,-0.9340,0.3148,-14.595,-102.865,26.670,0.00,19.4317,51.8904,16.5929,4.3941,2025-06-12T14:20:25.788497
28449,-0.2333,-0.9862,0.3255,-13.615,-103.635,22.330,0.00,19.4317,51.8904,16.5929,4.3941,2025-06-12T14:20:25.789563
28450,-0.2294,-1.0551,0.3431,-11.410,-103.915,17.290,0.01,19.4317,46.9713,15.1036,4.3941,2025-06-12T14:20:25.789563
28451,-0.2103,-1.1107,0.3533,-7.210,-103.110,13.790,0.00,19.4317,51.8904,15.1036,4.3941,2025-06-12T14:20:25.789563
28452,-0.1879,-1.1439,0.3426,-1.680,-100.625,10.465,0.01,22.8498,46.9713,15.1036,4.3941,2025-06-12T14:20:25.789563
28453,-0.1576,-1.1717,0.3377,3.640,-95.760,7.735,0.00,19.4317,51.8904,16.5929,4.3941,2025-06-12T14:20:25.789563
28454,-0.1108,-1.1912,0.3357,8.890,-84.735,5.845,0.01,19.4317,51.8904,16.5929,4.3941,2025-06-12T14:20:25.789563
28455,-0.0595,-1.2317,0.3499,11.340,-69.615,3.325,0.00,19.4317,51.8904,16.5929,4.3941,2025-06-12T14:20:25.789563
28456,-0.0312,-1.2420,0.3865,10.920,-45.290,0.035,0.00,19.4317,46.9713,16.5929,4.3941,2025-06-12T14:20:25.966642
28457,-0.0190,-1.2800,0.4070,7.945,-17.115,-4.270,0.01,16.0028,46.9713,15.1036,3.3647,2025-06-12T14:20:25.966642
28458,-0.0268,-1.3176,0.4494,3.045,6.405,-8.400,0.00,22.8498,51.8904,15.1036,3.3647,2025-06-12T14:20:25.966642
28459,-0.0795,-1.3200,0.4646,-1.715,29.260,-12.810,0.00,19.4317,51.8904,18.0810,4.3941,2025-06-12T14:20:25.966642
28460,-0.1410,-1.2844,0.4592,-5.250,40.565,-14.805,0.01,19.4317,42.0284,18.0810,3.3647,2025-06-12T14:20:25.966642
28461,-0.1947,-1.2019,0.4499,-6.650,43.820,-13.300,0.00,22.8498,51.8904,18.0810,3.3647,2025-06-12T14:20:25.966642
28462,-0.2245,-1.0594,0.4563,-5.635,38.290,-6.020,0.00,19.4317,46.9713,16.5929,3.3647,2025-06-12T14:20:25.967658
28463,-0.2474,-0.9340,0.4621,-2.205,23.100,3.920,0.00,19.4317,51.8904,15.1036,3.3647,2025-06-12T14:20:25.967658
28464,-0.2596,-0.7945,0.4704,2.800,5.075,19.180,0.00,19.4317,46.9713,16.5929,4.3941,2025-06-12T14:20:25.967658
28465,-0.2528,-0.7154,0.4680,11.480,-19.705,32.830,0.00,16.0028,46.9713,16.5929,3.3647,2025-06-12T14:20:25.967658
28466,-0.2279,-0.6749,0.4377,20.160,-39.585,47.775,0.00,19.4317,46.9713,16.5929,3.3647,2025-06-12T14:20:25.967658
28467,-0.2035,-0.6730,0.4124,30.590,-58.100,56.805,0.00,19.4317,46.9713,16.5929,4.3941,2025-06-12T14:20:25.967658
28468,-0.1688,-0.6920,0.4207,37.065,-67.445,61.775,0.00,19.4317,51.8904,15.1036,3.3647,2025-06-12T14:20:25.967658
28469,-0.1386,-0.7042,0.4475,41.510,-67.375,60.585,0.00,19.4317,51.8904,16.5929,3.3647,2025-06-12T14:20:25.967658
28470,-0.1235,-0.7183,0.4568,40.635,-59.115,55.055,0.00,19.4317,51.8904,15.1036,3.3647,2025-06-12T14:20:25.967658
28471,-0.1327,-0.7432,0.4490,36.610,-48.440,47.145,0.00,16.0028,51.8904,15.1036,3.3647,2025-06-12T14:20:25.967658
28472,-0.1615,-0.7637,0.4451,29.925,-34.650,39.830,0.00,19.4317,51.8904,15.1036,3.3647,2025-06-12T14:20:25.967658
28473,-0.1981,-0.7725,0.4426,23.100,-24.465,31.745,0.00,19.4317,46.9713,16.5929,3.3647,2025-06-12T14:20:26.060674
28474,-0.2338,-0.7974,0.4558,14.560,-15.645,26.110,0.01,19.4317,51.8904,16.5929,4.3941,2025-06-12T14:20:26.060674
28475,-0.2840,-0.8233,0.4714,6.790,-12.915,21.035,0.01,19.4317,46.9713,16.5929,3.3647,2025-06-12T14:20:26.060674
28476,-0.3382,-0.8682,0.4963,1.820,-17.325,17.780,0.00,19.4317,51.8904,16.5929,3.3647,2025-06-12T14:20:26.060674
28477,-0.3260,-0.9018,0.5144,-3.640,-22.540,17.885,0.01,22.8498,51.8904,16.5929,3.3647,2025-06-12T14:20:26.060674
28478,-0.3562,-0.9267,0.5300,-5.670,-30.660,21.175,0.01,19.4317,51.8904,15.1036,4.3941,2025-06-12T14:20:26.060674
28479,-0.3748,-0.9462,0.5490,-7.595,-42.350,26.005,0.00,19.4317,51.8904,16.5929,4.3941,2025-06-12T14:20:26.289753
28480,-0.3826,-0.9579,0.5490,-7.910,-60.340,33.670,0.01,22.8498,46.9713,16.5929,4.3941,2025-06-12T14:20:26.289753
28481,-0.3884,-0.9609,0.5334,-7.665,-77.315,42.630,0.01,19.4317,46.9713,16.5929,4.3941,2025-06-12T14:20:26.289753
28482,-0.3777,-0.9565,0.5163,-6.615,-98.210,49.035,0.00,19.4317,46.9713,16.5929,4.3941,2025-06-12T14:20:26.289753
28483,-0.3299,-0.9438,0.4802,-5.040,-114.065,56.105,0.01,19.4317,51.8904,16.5929,3.3647,2025-06-12T14:20:26.289753
28484,-0.2767,-0.9248,0.4441,-1.995,-128.345,61.320,0.01,19.4317,46.9713,16.5929,3.3647,2025-06-12T14:20:26.289753
28485,-0.2147,-0.9008,0.4187,0.140,-136.325,65.835,0.00,19.4317,46.9713,18.0810,3.3647,2025-06-12T14:20:26.289753
28486,-0.1669,-0.8828,0.3967,3.115,-138.425,67.165,0.00,19.4317,46.9713,16.5929,4.3941,2025-06-12T14:20:26.289753
28487,-0.0981,-0.8716,0.3967,5.775,-133.070,66.955,0.01,19.4317,46.9713,16.5929,4.3941,2025-06-12T14:20:26.289753
28488,-0.0512,-0.8506,0.3992,8.540,-123.970,65.730,0.00,19.4317,46.9713,16.5929,3.3647,2025-06-12T14:20:26.289753
28489,-0.0200,-0.8423,0.3982,10.465,-108.885,63.175,0.01,19.4317,46.9713,16.5929,3.3647,2025-06-12T14:20:26.289753
28490,-0.0029,-0.8491,0.4075,11.305,-94.500,59.990,0.00,19.4317,46.9713,16.5929,3.3647,2025-06-12T14:20:26.289753
28491,0.0020,-0.8501,0.4250,11.165,-76.230,57.155,0.00,19.4317,46.9713,16.5929,4.3941,2025-06-12T14:20:26.289753
28492,-0.0093,-0.8516,0.4499,10.290,-62.125,54.215,0.00,19.4317,46.9713,16.5929,3.3647,2025-06-12T14:20:26.289753
28493,-0.0400,-0.8603,0.4577,8.820,-49.210,52.115,0.00,19.4317,51.8904,15.1036,3.3647,2025-06-12T14:20:26.290819
28494,-0.0781,-0.8813,0.4680,8.470,-42.000,49.875,0.00,19.4317,46.9713,16.5929,3.3647,2025-06-12T14:20:26.290819
28495,-0.0874,-0.8906,0.4787,9.170,-39.900,48.335,0.00,19.4317,51.8904,16.5929,3.3647,2025-06-12T14:20:26.507113
28496,-0.1298,-0.9028,0.4821,11.305,-41.650,45.885,0.00,19.4317,46.9713,16.5929,4.3941,2025-06-12T14:20:26.507113
28497,-0.1444,-0.9038,0.4939,13.195,-44.135,43.645,0.01,19.4317,51.8904,18.0810,4.3941,2025-06-12T14:20:26.507113
28498,-0.1391,-0.8926,0.4939,16.135,-47.740,41.685,0.00,19.4317,46.9713,16.5929,4.3941,2025-06-12T14:20:26.507113
28499,-0.1283,-0.8823,0.4856,18.445,-50.225,39.725,0.01,19.4317,46.9713,18.0810,4.3941,2025-06-12T14:20:26.507113
28500,-0.1088,-0.8857,0.4812,20.230,-49.560,37.905,0.00,19.4317,51.8904,16.5929,3.3647,2025-06-12T14:20:26.507113
28501,-0.0947,-0.9023,0.4880,20.195,-45.115,34.545,0.00,19.4317,46.9713,16.5929,4.3941,2025-06-12T14:20:26.507113
28502,-0.0922,-0.9277,0.5124,17.955,-37.975,28.280,0.00,19.4317,46.9713,18.0810,3.3647,2025-06-12T14:20:26.507113
28503,-0.1069,-0.9550,0.5300,13.370,-26.530,21.245,0.00,19.4317,42.0284,16.5929,3.3647,2025-06-12T14:20:26.508181
28504,-0.1210,-0.9794,0.5373,8.575,-16.835,12.355,0.00,19.4317,46.9713,16.5929,3.3647,2025-06-12T14:20:26.508181
28505,-0.1454,-0.9994,0.5348,3.885,-7.945,5.915,0.00,19.4317,46.9713,16.5929,3.3647,2025-06-12T14:20:26.508181
28506,-0.1581,-0.9882,0.5348,1.225,-4.655,1.015,0.00,19.4317,46.9713,16.5929,3.3647,2025-06-12T14:20:26.508181
28507,-0.1620,-0.9623,0.5344,0.945,-4.375,0.245,0.00,19.4317,51.8904,16.5929,3.3647,2025-06-12T14:20:26.508181
28508,-0.1493,-0.9204,0.5280,1.855,-6.055,2.765,0.00,19.4317,51.8904,18.0810,3.3647,2025-06-12T14:20:26.509185
28509,-0.1357,-0.8911,0.5251,3.605,-9.065,6.685,0.00,19.4317,46.9713,16.5929,2.3358,2025-06-12T14:20:26.509185
28510,-0.1098,-0.8584,0.5266,5.355,-11.550,12.985,0.00,19.4317,46.9713,16.5929,3.3647,2025-06-12T14:20:26.509185
28511,-0.1025,-0.8462,0.5295,7.735,-13.930,18.970,0.00,19.4317,51.8904,18.0810,3.3647,2025-06-12T14:20:26.801955
28512,-0.0996,-0.8184,0.5197,10.115,-16.240,25.620,0.01,19.4317,51.8904,18.0810,3.3647,2025-06-12T14:20:26.801955
28513,-0.0966,-0.7935,0.5095,13.475,-17.850,30.485,0.00,19.4317,46.9713,16.5929,3.3647,2025-06-12T14:20:26.801955
28514,-0.0859,-0.7730,0.4973,17.465,-18.200,35.035,0.00,16.0028,46.9713,18.0810,3.3647,2025-06-12T14:20:26.801955
28515,-0.0805,-0.7564,0.4846,21.490,-16.800,37.310,0.00,19.4317,51.8904,18.0810,3.3647,2025-06-12T14:20:26.801955
28516,-0.0825,-0.7437,0.4675,26.635,-12.810,37.100,0.01,19.4317,51.8904,16.5929,4.3941,2025-06-12T14:20:26.801955
28517,-0.0805,-0.7427,0.4577,30.660,-5.075,34.755,0.01,19.4317,51.8904,18.0810,3.3647,2025-06-12T14:20:26.801955
28518,-0.0839,-0.7574,0.4602,34.265,4.375,30.765,0.00,16.0028,46.9713,15.1036,3.3647,2025-06-12T14:20:26.801955
28519,-0.0976,-0.7901,0.4695,36.365,18.655,24.010,0.01,19.4317,46.9713,18.0810,3.3647,2025-06-12T14:20:26.801955
28520,-0.1244,-0.8281,0.4807,37.065,32.235,16.835,0.00,19.4317,46.9713,16.5929,4.3941,2025-06-12T14:20:26.801955
28521,-0.1649,-0.8701,0.4963,36.050,48.720,7.210,0.00,16.0028,46.9713,16.5929,3.3647,2025-06-12T14:20:26.803028
28522,-0.2025,-0.9257,0.5017,34.510,61.845,-1.995,0.01,19.4317,46.9713,15.1036,2.3358,2025-06-12T14:20:26.803028
28523,-0.2567,-0.9697,0.5031,32.235,75.915,-13.160,0.00,16.0028,46.9713,15.1036,3.3647,2025-06-12T14:20:26.803028
28524,-0.2913,-1.0024,0.5085,31.045,84.840,-21.665,0.00,19.4317,46.9713,16.5929,3.3647,2025-06-12T14:20:26.803028
28525,-0.3250,-1.0175,0.5056,31.220,91.245,-29.400,0.00,19.4317,46.9713,16.5929,3.3647,2025-06-12T14:20:26.803028
28526,-0.3279,-1.0038,0.4929,32.515,94.220,-33.145,0.00,19.4317,46.9713,16.5929,3.3647,2025-06-12T14:20:26.803028
28527,-0.3187,-0.9745,0.4929,33.740,97.930,-33.565,0.00,19.4317,46.9713,16.5929,3.3647,2025-06-12T14:20:26.803028
28528,-0.2918,-0.9096,0.5017,33.880,103.075,-32.760,0.00,19.4317,46.9713,16.5929,4.3941,2025-06-12T14:20:26.989953
28529,-0.2782,-0.8325,0.5090,32.830,108.465,-31.570,0.01,22.8498,46.9713,16.5929,3.3647,2025-06-12T14:20:26.989953
28530,-0.2791,-0.7774,0.5002,31.290,114.415,-30.555,0.01,16.0028,46.9713,16.5929,4.3941,2025-06-12T14:20:26.989953
28531,-0.3011,-0.7237,0.4914,30.870,116.865,-29.155,0.01,22.8498,46.9713,18.0810,3.3647,2025-06-12T14:20:26.989953
28532,-0.3260,-0.6920,0.4763,31.780,116.340,-28.665,0.00,19.4317,51.8904,18.0810,4.3941,2025-06-12T14:20:26.989953
28533,-0.3479,-0.6495,0.4714,33.705,113.680,-29.190,0.00,19.4317,46.9713,18.0810,3.3647,2025-06-12T14:20:26.989953
28534,-0.3772,-0.6344,0.4680,36.155,110.880,-32.585,0.00,19.4317,51.8904,18.0810,3.3647,2025-06-12T14:20:26.989953
28535,-0.4089,-0.6276,0.4763,38.640,107.415,-39.270,0.00,22.8498,51.8904,18.0810,3.3647,2025-06-12T14:20:26.989953
28536,-0.4387,-0.6246,0.4841,40.670,105.175,-48.965,0.00,19.4317,46.9713,18.0810,2.3358,2025-06-12T14:20:26.989953
28537,-0.4543,-0.6403,0.4792,43.155,103.145,-57.995,0.00,16.0028,46.9713,16.5929,3.3647,2025-06-12T14:20:26.989953
28538,-0.4665,-0.6603,0.4773,45.745,101.955,-69.405,0.00,16.0028,42.0284,16.5929,4.3941,2025-06-12T14:20:26.989953
28539,-0.4748,-0.6891,0.4758,49.175,101.780,-78.505,0.00,16.0028,46.9713,16.5929,3.3647,2025-06-12T14:20:26.989953
28540,-0.4836,-0.7257,0.4768,52.605,103.635,-88.585,0.00,19.4317,46.9713,16.5929,4.3941,2025-06-12T14:20:26.989953
28541,-0.4856,-0.7627,0.4826,57.015,106.960,-95.865,0.01,19.4317,51.8904,16.5929,3.3647,2025-06-12T14:20:26.989953
28542,-0.4841,-0.7920,0.4812,61.670,113.225,-102.655,0.00,19.4317,46.9713,16.5929,3.3647,2025-06-12T14:20:26.989953
28543,-0.4836,-0.8242,0.4748,65.555,120.050,-106.890,0.01,19.4317,46.9713,16.5929,4.3941,2025-06-12T14:20:26.989953
28544,-0.4880,-0.8477,0.4685,68.565,129.850,-109.305,0.00,19.4317,46.9713,16.5929,4.3941,2025-06-12T14:20:27.165982
28545,-0.5002,-0.8843,0.4660,70.945,140.665,-110.950,0.00,19.4317,46.9713,15.1036,4.3941,2025-06-12T14:20:27.165982
28546,-0.5222,-0.9257,0.4675,72.625,149.310,-113.260,0.00,19.4317,46.9713,16.5929,4.3941,2025-06-12T14:20:27.165982
28547,-0.5622,-0.9628,0.4714,74.025,157.220,-115.780,0.00,19.4317,46.9713,16.5929,4.3941,2025-06-12T14:20:27.165982
28548,-0.5900,-0.9775,0.4646,75.180,160.790,-118.055,0.01,19.4317,51.8904,15.1036,4.3941,2025-06-12T14:20:27.165982
28549,-0.6134,-1.0058,0.4426,75.880,160.615,-119.385,0.01,19.4317,51.8904,16.5929,4.3941,2025-06-12T14:20:27.165982
28550,-0.6290,-1.0790,0.4407,75.495,159.705,-121.975,0.00,19.4317,46.9713,16.5929,2.3358,2025-06-12T14:20:27.165982
28551,-0.6481,-1.1087,0.4612,74.445,158.200,-127.190,0.01,16.0028,46.9713,16.5929,3.3647,2025-06-12T14:20:27.165982
28552,-0.6520,-1.0760,0.4582,74.270,153.020,-129.850,0.01,19.4317,46.9713,18.0810,3.3647,2025-06-12T14:20:27.165982
28553,-0.6007,-1.0297,0.4172,74.305,147.000,-127.715,0.00,19.4317,51.8904,16.5929,3.3647,2025-06-12T14:20:27.165982
28554,-0.5285,-0.9970,0.4011,72.625,143.640,-121.905,0.00,19.4317,46.9713,16.5929,3.3647,2025-06-12T14:20:27.165982
28555,-0.4680,-0.9428,0.4221,69.195,145.530,-113.680,0.01,16.0028,46.9713,16.5929,3.3647,2025-06-12T14:20:27.167049
28556,-0.4475,-0.8799,0.4553,62.405,148.785,-106.645,0.00,19.4317,46.9713,16.5929,3.3647,2025-06-12T14:20:27.167049
28557,-0.4519,-0.8345,0.4748,54.285,149.835,-96.250,0.00,22.8498,46.9713,18.0810,3.3647,2025-06-12T14:20:27.167049
28558,-0.4738,-0.7910,0.4836,48.125,144.970,-83.370,0.01,19.4317,46.9713,18.0810,4.3941,2025-06-12T14:20:27.167049
28559,-0.5026,-0.7593,0.5051,42.140,131.460,-72.100,0.00,19.4317,46.9713,18.0810,3.3647,2025-06-12T14:20:27.167049
28560,-0.5256,-0.7335,0.5353,38.360,111.685,-59.850,0.01,19.4317,46.9713,16.5929,4.3941,2025-06-12T14:20:27.324069
28561,-0.5417,-0.7281,0.5744,36.435,92.995,-50.015,0.01,22.8498,46.9713,16.5929,4.3941,2025-06-12T14:20:27.324069
28562,-0.5563,-0.7481,0.6007,37.520,70.700,-46.445,0.01,19.4317,46.9713,18.0810,4.3941,2025-06-12T14:20:27.324069
28563,-0.5436,-0.7686,0.6149,40.390,51.870,-46.620,0.00,22.8498,46.9713,18.0810,4.3941,2025-06-12T14:20:27.324069
28564,-0.5075,-0.7676,0.6271,46.620,41.160,-49.315,0.01,19.4317,46.9713,18.0810,4.3941,2025-06-12T14:20:27.324069
28565,-0.4368,-0.7476,0.6212,53.200,37.310,-53.410,0.01,22.8498,46.9713,18.0810,4.3941,2025-06-12T14:20:27.571396
28566,-0.3665,-0.7159,0.6154,58.240,42.840,-56.945,0.00,16.0028,46.9713,18.0810,3.3647,2025-06-12T14:20:27.571396
28567,-0.2996,-0.6730,0.6163,62.335,58.905,-58.975,0.01,19.4317,46.9713,18.0810,3.3647,2025-06-12T14:20:27.571396
28568,-0.2757,-0.6256,0.6300,63.560,77.875,-59.535,0.00,16.0028,51.8904,18.0810,3.3647,2025-06-12T14:20:27.571396
28569,-0.2913,-0.5954,0.6315,63.560,101.815,-58.485,0.00,19.4317,42.0284,18.0810,3.3647,2025-06-12T14:20:27.571396
28570,-0.3514,-0.5754,0.6246,63.175,120.925,-55.405,0.00,19.4317,46.9713,18.0810,4.3941,2025-06-12T14:20:27.571396
28571,-0.4177,-0.5607,0.6105,62.475,131.005,-52.115,0.00,16.0028,46.9713,18.0810,2.3358,2025-06-12T14:20:27.571396
28572,-0.5007,-0.5553,0.5983,61.110,136.220,-47.950,0.00,19.4317,46.9713,19.5678,3.3647,2025-06-12T14:20:27.571396
28573,-0.5436,-0.5622,0.5919,60.725,135.345,-44.380,0.01,19.4317,46.9713,19.5678,3.3647,2025-06-12T14:20:27.571396
28574,-0.6120,-0.5783,0.5817,59.010,126.875,-40.285,0.00,16.0028,46.9713,19.5678,3.3647,2025-06-12T14:20:27.571396
28575,-0.6798,-0.5939,0.5758,59.710,115.500,-37.660,0.01,19.4317,46.9713,18.0810,3.3647,2025-06-12T14:20:27.571396
28576,-0.7091,-0.6285,0.5607,59.045,96.145,-35.910,0.01,19.4317,42.0284,18.0810,3.3647,2025-06-12T14:20:27.571396
28577,-0.7388,-0.6622,0.5578,58.555,75.670,-34.300,0.01,16.0028,42.0284,18.0810,3.3647,2025-06-12T14:20:27.571396
28578,-0.7393,-0.7003,0.5534,59.220,58.660,-33.775,0.00,16.0028,46.9713,18.0810,3.3647,2025-06-12T14:20:27.572393
28579,-0.7159,-0.7105,0.5397,60.305,39.585,-32.795,0.00,19.4317,46.9713,19.5678,4.3941,2025-06-12T14:20:27.572393
28580,-0.6583,-0.7086,0.5065,61.600,25.515,-29.995,0.01,19.4317,46.9713,18.0810,4.3941,2025-06-12T14:20:27.572393
28581,-0.5988,-0.7061,0.4797,62.510,18.200,-26.390,0.00,19.4317,46.9713,19.5678,3.3647,2025-06-12T14:20:27.572393
28582,-0.5314,-0.6998,0.4729,63.000,16.380,-22.330,0.00,19.4317,46.9713,19.5678,4.3941,2025-06-12T14:20:27.572393
28583,-0.4851,-0.7003,0.4670,61.950,21.770,-19.915,0.00,19.4317,46.9713,19.5678,3.3647,2025-06-12T14:20:27.572393
28584,-0.4377,-0.7076,0.4573,59.395,34.685,-18.795,0.01,19.4317,42.0284,19.5678,3.3647,2025-06-12T14:20:27.572393
28585,-0.4265,-0.7125,0.4490,56.770,48.230,-18.830,0.01,19.4317,46.9713,19.5678,3.3647,2025-06-12T14:20:27.572393
28586,-0.4441,-0.7022,0.4382,54.215,62.790,-19.320,0.00,16.0028,42.0284,18.0810,3.3647,2025-06-12T14:20:27.572393
28587,-0.4729,-0.6856,0.4050,53.165,71.365,-19.145,0.00,19.4317,46.9713,19.5678,3.3647,2025-06-12T14:20:27.865858
28588,-0.4919,-0.6642,0.3811,53.165,73.780,-18.060,0.00,19.4317,46.9713,18.0810,3.3647,2025-06-12T14:20:27.865858
28589,-0.4939,-0.6427,0.3723,53.165,73.255,-16.765,0.00,19.4317,46.9713,19.5678,3.3647,2025-06-12T14:20:27.865858
28590,-0.4904,-0.6207,0.3748,52.605,72.240,-16.590,0.01,19.4317,42.0284,19.5678,3.3647,2025-06-12T14:20:27.865858
28591,-0.4875,-0.6105,0.3743,50.540,72.135,-17.780,0.00,16.0028,46.9713,19.5678,3.3647,2025-06-12T14:20:27.865858
28592,-0.4787,-0.6012,0.3645,48.335,73.290,-20.510,0.00,16.0028,46.9713,19.5678,3.3647,2025-06-12T14:20:27.865858
28593,-0.4821,-0.6364,0.3792,43.855,75.775,-24.045,0.00,19.4317,46.9713,19.5678,3.3647,2025-06-12T14:20:27.865858
28594,-0.5275,-0.6608,0.3782,38.710,78.015,-29.750,0.00,19.4317,42.0284,18.0810,3.3647,2025-06-12T14:20:27.865858
28595,-0.5578,-0.7091,0.3943,34.510,78.890,-35.630,0.01,19.4317,46.9713,18.0810,2.3358,2025-06-12T14:20:27.865858
28596,-0.5885,-0.7213,0.3870,30.695,78.785,-42.105,0.00,19.4317,46.9713,15.1036,3.3647,2025-06-12T14:20:27.865858
28597,-0.6061,-0.7427,0.3792,29.015,77.945,-46.445,0.00,19.4317,46.9713,18.0810,3.3647,2025-06-12T14:20:27.865858
28598,-0.6105,-0.7491,0.4075,27.685,77.875,-47.985,0.01,16.0028,46.9713,19.5678,3.3647,2025-06-12T14:20:27.865858
28599,-0.6076,-0.7584,0.4080,28.280,78.925,-46.900,0.01,19.4317,46.9713,21.0533,3.3647,2025-06-12T14:20:27.865858
28600,-0.6071,-0.7213,0.4402,27.615,85.820,-44.275,0.00,16.0028,46.9713,19.5678,3.3647,2025-06-12T14:20:27.865858
28601,-0.6368,-0.7066,0.4548,27.160,97.405,-41.860,0.01,16.0028,42.0284,21.0533,3.3647,2025-06-12T14:20:27.865858
28602,-0.6720,-0.6861,0.4978,26.775,108.850,-41.265,0.00,19.4317,46.9713,21.0533,3.3647,2025-06-12T14:20:27.955575
28603,-0.7442,-0.6764,0.5085,28.525,119.525,-41.335,0.00,19.4317,42.0284,22.5376,3.3647,2025-06-12T14:20:27.955575
28604,-0.8198,-0.6676,0.5241,33.215,123.130,-40.425,0.01,19.4317,42.0284,19.5678,3.3647,2025-06-12T14:20:27.955575
28605,-0.8877,-0.6817,0.5031,42.525,123.970,-37.030,0.01,22.8498,42.0284,22.5376,4.3941,2025-06-12T14:20:27.955575
28606,-0.9438,-0.6598,0.5026,51.065,123.270,-32.515,0.00,19.4317,37.0617,21.0533,3.3647,2025-06-12T14:20:27.955575
28607,-1.0180,-0.6144,0.5231,61.075,126.910,-28.350,0.00,16.0028,37.0617,19.5678,3.3647,2025-06-12T14:20:27.955575
28608,-0.9867,-0.5827,0.5144,70.000,136.010,-21.700,0.00,29.6540,27.0568,21.0533,4.3941,2025-06-12T14:20:27.956612
28609,-0.9521,-0.5334,0.5104,78.400,145.285,-13.790,0.00,33.0399,32.0711,24.0207,4.3941,2025-06-12T14:20:27.956612
28610,-0.9160,-0.4543,0.4636,84.245,163.485,1.540,0.00,22.8498,27.0568,24.0207,3.3647,2025-06-12T14:20:27.956612
28611,-0.9438,-0.4421,0.4221,88.375,179.410,13.020,0.00,16.0028,32.0711,22.5376,3.3647,2025-06-12T14:20:27.956612
28612,-1.0487,-0.4060,0.3460,89.040,191.275,29.890,0.00,16.0028,32.0711,22.5376,3.3647,2025-06-12T14:20:27.956612
28613,-1.1351,-0.4260,0.3104,94.605,193.025,45.885,0.00,12.5632,27.0568,24.0207,3.3647,2025-06-12T14:20:27.956612
28614,-1.1819,-0.4172,0.2445,95.445,185.955,59.255,0.00,12.5632,32.0711,25.5025,3.3647,2025-06-12T14:20:27.956612
28615,-1.2034,-0.4319,0.2020,101.990,172.410,75.040,0.00,16.0028,27.0568,25.5025,3.3647,2025-06-12T14:20:27.956612
28616,-1.2122,-0.4260,0.1713,103.495,158.025,86.765,0.01,16.0028,32.0711,25.5025,4.3941,2025-06-12T14:20:27.956612
28617,-1.1595,-0.4172,0.1508,104.160,144.200,99.190,0.01,19.4317,32.0711,25.5025,3.3647,2025-06-12T14:20:27.956612
28618,-1.1258,-0.4280,0.1259,103.460,135.310,116.095,0.00,16.0028,32.0711,24.0207,5.4240,2025-06-12T14:20:28.232648
28619,-1.1122,-0.4329,0.1078,100.765,129.675,113.960,0.00,19.4317,32.0711,24.0207,3.3647,2025-06-12T14:20:28.232648
28620,-1.1229,-0.4646,0.0791,97.370,116.690,120.540,0.01,16.0028,27.0568,25.5025,4.3941,2025-06-12T14:20:28.232648
28621,-1.1000,-0.4660,0.0566,92.820,123.830,127.925,0.01,16.0028,32.0711,26.9831,4.3941,2025-06-12T14:20:28.232648
28622,-1.0565,-0.4324,0.0683,88.725,126.665,137.550,0.01,16.0028,27.0568,24.0207,3.3647,2025-06-12T14:20:28.232648
28623,-1.0341,-0.3323,0.0956,80.990,133.245,145.950,0.00,16.0028,32.0711,22.5376,3.3647,2025-06-12T14:20:28.232648
28624,-0.9877,-0.2601,0.0795,68.845,146.230,153.860,0.00,16.0028,27.0568,21.0533,3.3647,2025-06-12T14:20:28.232648
28625,-0.9789,-0.2250,0.0322,57.785,158.515,156.310,0.00,16.0028,27.0568,25.5025,3.3647,2025-06-12T14:20:28.232648
28626,-1.0024,-0.1923,-0.1225,43.470,170.100,153.650,0.00,16.0028,27.0568,22.5376,3.3647,2025-06-12T14:20:28.232648
28627,-1.0180,-0.1566,-0.0288,34.090,176.050,151.060,0.01,12.5632,27.0568,19.5678,3.3647,2025-06-12T14:20:28.232648
28628,-0.9560,-0.1249,-0.0425,19.460,179.690,152.635,0.00,12.5632,32.0711,21.0533,3.3647,2025-06-12T14:20:28.232648
28629,-0.8340,-0.0961,-0.0566,8.540,180.985,159.005,0.01,16.0028,27.0568,18.0810,3.3647,2025-06-12T14:20:28.233718
28630,-0.8296,-0.0381,-0.0664,-2.870,177.345,158.830,0.00,12.5632,27.0568,18.0810,3.3647,2025-06-12T14:20:28.233718
28631,-0.7091,-0.0098,-0.0673,-10.710,169.470,157.885,0.00,16.0028,27.0568,18.0810,3.3647,2025-06-12T14:20:28.349933
28632,-0.6041,0.0029,-0.0781,-16.905,168.525,151.515,0.01,19.4317,27.0568,18.0810,3.3647,2025-06-12T14:20:28.349933
28633,-0.5270,-0.0107,-0.1147,-29.015,167.265,143.500,0.01,12.5632,27.0568,18.0810,3.3647,2025-06-12T14:20:28.349933
28634,-0.4612,-0.0434,-0.1523,-29.855,163.940,128.975,0.00,16.0028,32.0711,16.5929,3.3647,2025-06-12T14:20:28.350363
28635,-0.4621,-0.0771,-0.1664,-32.095,159.005,115.605,0.01,16.0028,27.0568,15.1036,4.3941,2025-06-12T14:20:28.350363
28636,-0.4465,-0.1240,-0.1742,-32.585,149.800,99.715,0.00,16.0028,27.0568,15.1036,3.3647,2025-06-12T14:20:28.350363
28637,-0.4080,-0.1352,-0.1488,-28.945,137.340,85.365,0.00,19.4317,32.0711,16.5929,3.3647,2025-06-12T14:20:28.350363
28638,-0.3709,-0.1474,-0.1523,-25.515,125.265,71.925,0.00,19.4317,27.0568,21.0533,3.3647,2025-06-12T14:20:28.350363
28639,-0.3255,-0.1615,-0.1562,-20.650,122.500,55.020,0.00,29.6540,37.0617,15.1036,4.3941,2025-06-12T14:20:28.350363
28640,-0.2762,-0.1484,-0.1698,-18.375,121.380,42.945,0.01,46.4766,32.0711,16.5929,4.3941,2025-06-12T14:20:28.350363
28641,-0.3870,-0.1835,-0.2089,-8.575,118.090,22.015,0.01,39.7797,27.0568,16.5929,3.3647,2025-06-12T14:20:28.350363
28642,-0.4377,-0.2137,-0.2391,-1.505,111.860,5.740,0.01,49.8090,32.0711,16.5929,4.3941,2025-06-12T14:20:28.351359
28643,-0.4343,-0.1889,-0.2411,7.280,108.220,-13.860,0.01,49.8090,32.0711,16.5929,3.3647,2025-06-12T14:20:28.351359
28644,-0.4504,-0.1859,-0.2669,14.770,111.895,-33.600,0.01,43.1335,32.0711,18.0810,3.3647,2025-06-12T14:20:28.351359
28645,-0.4538,-0.2045,-0.3123,20.335,117.250,-46.690,0.01,39.7797,37.0617,22.5376,3.3647,2025-06-12T14:20:28.351359
28646,-0.4997,-0.2347,-0.3645,28.910,123.410,-59.535,0.01,29.6540,42.0284,21.0533,3.3647,2025-06-12T14:20:28.617935
28647,-0.6071,-0.2474,-0.4104,35.630,124.355,-68.565,0.01,22.8498,42.0284,22.5376,3.3647,2025-06-12T14:20:28.617935
28648,-0.6715,-0.2850,-0.4787,44.485,123.795,-78.575,0.00,19.4317,37.0617,21.0533,4.3941,2025-06-12T14:20:28.617935
28649,-0.6974,-0.3035,-0.5344,50.680,123.130,-85.960,0.00,19.4317,42.0284,22.5376,4.3941,2025-06-12T14:20:28.617935
28650,-0.6651,-0.3240,-0.6041,60.655,128.695,-89.670,0.00,22.8498,42.0284,25.5025,3.3647,2025-06-12T14:20:28.617935
28651,-0.7320,-0.3250,-0.6378,62.055,132.195,-91.315,0.00,19.4317,42.0284,25.5025,3.3647,2025-06-12T14:20:28.617935
28652,-0.8579,-0.3479,-0.7476,65.765,132.475,-93.065,0.00,19.4317,37.0617,24.0207,2.3358,2025-06-12T14:20:28.617935
28653,-0.9545,-0.3362,-0.8340,69.475,124.180,-91.945,0.00,19.4317,37.0617,28.4624,3.3647,2025-06-12T14:20:28.617935
28654,-0.9023,-0.2855,-0.9130,78.085,119.630,-87.430,0.01,19.4317,37.0617,29.9405,4.3941,2025-06-12T14:20:28.617935
28655,-0.8833,-0.2342,-1.0048,80.115,120.365,-82.110,0.00,19.4317,32.0711,32.8929,3.3647,2025-06-12T14:20:28.617935
28656,-0.8491,-0.1049,-0.9867,77.665,124.040,-72.905,0.00,19.4317,37.0617,31.4173,2.3358,2025-06-12T14:20:28.617935
28657,-0.6666,-0.0454,-1.1336,77.175,127.400,-62.650,0.01,19.4317,37.0617,32.8929,3.3647,2025-06-12T14:20:28.618900
28658,-0.7779,0.0473,-1.1419,72.450,123.165,-56.805,0.00,19.4317,42.0284,32.8929,3.3647,2025-06-12T14:20:28.618900
28659,-0.8808,0.1362,-1.2981,65.205,107.345,-51.205,0.00,19.4317,37.0617,28.4624,3.3647,2025-06-12T14:20:28.618900
28660,-0.9604,0.1923,-1.3903,64.050,86.065,-44.450,0.00,19.4317,37.0617,28.4624,4.3941,2025-06-12T14:20:28.618900
28661,-0.9687,0.2528,-1.5128,65.765,68.565,-40.985,0.00,16.0028,42.0284,29.9405,3.3647,2025-06-12T14:20:28.618900
28662,-0.8955,0.2752,-1.6509,62.475,55.475,-38.535,0.00,22.8498,32.0711,29.9405,5.4240,2025-06-12T14:20:28.759554
28663,-0.8150,0.3206,-1.8412,55.475,57.890,-34.125,0.00,19.4317,37.0617,31.4173,3.3647,2025-06-12T14:20:28.759554
28664,-0.6627,0.3967,-1.9296,41.440,74.235,-25.515,0.00,22.8498,37.0617,31.4173,4.3941,2025-06-12T14:20:28.759554
28665,-0.7027,0.5924,-1.9442,22.435,91.735,-19.635,0.01,22.8498,42.0284,28.4624,3.3647,2025-06-12T14:20:28.759554
28666,-0.7213,0.7120,-1.8988,-4.165,103.740,-10.605,0.01,19.4317,42.0284,31.4173,4.3941,2025-06-12T14:20:28.759554
28667,-0.9360,0.8979,-1.7412,-33.145,104.475,-0.700,0.01,19.4317,42.0284,31.4173,3.3647,2025-06-12T14:20:28.759554
28668,-0.9072,0.9697,-1.7514,-58.100,84.105,8.785,0.00,22.8498,37.0617,44.6525,3.3647,2025-06-12T14:20:28.759554
28669,-1.0331,1.0873,-1.6992,-83.685,41.965,17.745,0.01,22.8498,37.0617,46.1168,3.3647,2025-06-12T14:20:28.759554
28670,-1.0438,1.1126,-1.6821,-109.270,8.645,22.470,0.00,19.4317,32.0711,43.1869,3.3647,2025-06-12T14:20:28.759554
28671,-0.9296,1.1122,-1.6372,-132.895,-21.490,30.940,0.00,19.4317,32.0711,43.1869,3.3647,2025-06-12T14:20:28.759554
28672,-0.8242,1.0736,-1.6026,-153.755,-44.660,44.625,0.00,19.4317,42.0284,43.1869,3.3647,2025-06-12T14:20:28.759554
28673,-0.7720,1.0072,-1.5758,-177.240,-39.725,56.070,0.00,19.4317,42.0284,38.7827,3.3647,2025-06-12T14:20:28.759554
28674,-0.7715,0.8877,-1.5714,-194.565,-35.770,69.545,0.00,22.8498,37.0617,43.1869,3.3647,2025-06-12T14:20:28.759554
28675,-0.7706,0.6964,-1.5880,-211.050,-34.685,80.045,0.01,22.8498,37.0617,44.6525,3.3647,2025-06-12T14:20:28.759554
28676,-0.7515,0.5285,-1.5728,-219.380,-35.700,94.885,0.00,22.8498,37.0617,37.3121,3.3647,2025-06-12T14:20:28.965364
28677,-0.7388,0.3113,-1.5108,-223.370,-37.835,110.180,0.00,22.8498,42.0284,35.8403,4.3941,2025-06-12T14:20:28.965364
28678,-0.6847,0.0937,-1.4538,-222.915,-40.600,121.520,0.01,19.4317,42.0284,26.9831,4.3941,2025-06-12T14:20:28.965364
28679,-0.6046,-0.2357,-1.3971,-216.160,-42.000,130.865,0.01,22.8498,37.0617,31.4173,4.3941,2025-06-12T14:20:28.965364
28680,-0.4006,-0.5612,-1.4064,-200.305,-38.920,135.695,0.00,22.8498,42.0284,32.8929,3.3647,2025-06-12T14:20:28.965364
28681,-0.2352,-0.8862,-1.3649,-185.955,-27.440,136.500,0.00,19.4317,32.0711,37.3121,3.3647,2025-06-12T14:20:28.965364
28682,-0.1157,-1.1097,-1.1131,-164.745,-12.705,134.750,0.00,19.4317,32.0711,37.3121,4.3941,2025-06-12T14:20:28.965364
28683,-1.0038,-4.2227,-0.8647,-131.390,-20.580,128.730,0.01,22.8498,46.9713,51.9617,3.3647,2025-06-12T14:20:28.965364
28684,0.7852,-4.5350,4.6131,105.770,-162.610,94.850,0.00,22.8498,32.0711,59.2398,3.3647,2025-06-12T14:20:28.965364
28685,1.9032,-2.2321,1.7500,126.210,-60.060,55.160,0.01,22.8498,42.0284,51.9617,3.3647,2025-06-12T14:20:28.965364
28686,1.6050,-2.1091,-3.1759,81.935,-18.620,25.830,0.00,19.4317,22.0186,24.0207,3.3647,2025-06-12T14:20:28.965364
28687,0.0752,-0.8394,-1.8071,39.060,160.370,-48.825,0.00,22.8498,42.0284,28.4624,2.3358,2025-06-12T14:20:28.965364
28688,-0.2206,0.2655,-1.0926,29.155,271.005,-83.475,0.00,19.4317,37.0617,35.8403,3.3647,2025-06-12T14:20:28.965364
28689,-0.7447,-0.0015,-1.1214,43.925,148.715,-45.745,0.00,22.8498,37.0617,40.2520,3.3647,2025-06-12T14:20:28.965364
28690,-1.5211,0.0756,-1.4201,59.990,-38.920,-22.260,0.01,22.8498,37.0617,35.8403,5.4240,2025-06-12T14:20:28.965364
28691,-0.5905,0.3699,-1.5089,56.840,-97.930,-33.390,0.00,22.8498,42.0284,37.3121,6.4545,2025-06-12T14:20:29.050783
28692,-0.0244,0.5002,-1.3191,37.275,-85.925,-29.015,0.00,22.8498,42.0284,37.3121,5.4240,2025-06-12T14:20:29.050783
28693,-0.0224,0.4900,-1.2268,19.005,-32.200,-27.055,0.01,22.8498,37.0617,35.8403,6.4545,2025-06-12T14:20:29.050783
28694,-0.2611,0.3909,-1.2083,8.400,2.240,-31.780,0.01,22.8498,37.0617,35.8403,5.4240,2025-06-12T14:20:29.050783
28695,-0.5324,0.3660,-1.0824,5.355,-0.700,-33.810,0.01,22.8498,37.0617,38.7827,4.3941,2025-06-12T14:20:29.050783
28696,-0.6681,0.3060,-0.9111,5.495,-23.765,-36.645,0.00,22.8498,42.0284,38.7827,4.3941,2025-06-12T14:20:29.050783
28697,-0.6798,0.2494,-0.8779,7.035,-54.565,-38.290,0.00,19.4317,37.0617,37.3121,4.3941,2025-06-12T14:20:29.050783
28698,-0.5744,0.2137,-0.8657,9.310,-71.435,-40.110,0.00,19.4317,37.0617,35.8403,3.3647,2025-06-12T14:20:29.297178
28699,-0.5109,0.1962,-0.8403,10.360,-71.960,-42.140,0.00,19.4317,37.0617,32.8929,3.3647,2025-06-12T14:20:29.297178
28700,-0.5017,0.1728,-0.8223,12.285,-66.955,-44.800,0.00,22.8498,37.0617,32.8929,3.3647,2025-06-12T14:20:29.297178
28701,-0.5427,0.1552,-0.7920,15.365,-66.010,-47.740,0.00,19.4317,37.0617,32.8929,4.3941,2025-06-12T14:20:29.297178
28702,-0.5553,0.1083,-0.7959,19.670,-68.880,-50.435,0.00,19.4317,37.0617,31.4173,3.3647,2025-06-12T14:20:29.298211
28703,-0.5783,0.0654,-0.7993,24.710,-71.750,-53.445,0.00,19.4317,37.0617,29.9405,3.3647,2025-06-12T14:20:29.298211
28704,-0.5954,0.0249,-0.7993,31.010,-77.875,-56.560,0.00,19.4317,37.0617,29.9405,3.3647,2025-06-12T14:20:29.298211
28705,-0.6168,-0.0264,-0.8067,37.275,-87.780,-59.990,0.00,19.4317,37.0617,29.9405,3.3647,2025-06-12T14:20:29.298211
28706,-0.6329,-0.0644,-0.7959,45.010,-97.230,-63.035,0.01,22.8498,42.0284,28.4624,3.3647,2025-06-12T14:20:29.298211
28707,-0.6276,-0.0859,-0.7906,51.135,-108.570,-66.010,0.00,19.4317,42.0284,29.9405,3.3647,2025-06-12T14:20:29.298211
28708,-0.6046,-0.0981,-0.8042,57.260,-114.520,-67.725,0.00,22.8498,42.0284,26.9831,4.3941,2025-06-12T14:20:29.298211
28709,-0.5568,-0.1230,-0.8306,63.350,-119.455,-69.265,0.01,22.8498,37.0617,26.9831,3.3647,2025-06-12T14:20:29.298211
28710,-0.5104,-0.1269,-0.8374,66.500,-117.285,-71.435,0.00,22.8498,37.0617,25.5025,3.3647,2025-06-12T14:20:29.298211
28711,-0.4821,-0.1318,-0.8555,70.000,-106.015,-71.855,0.00,22.8498,37.0617,22.5376,3.3647,2025-06-12T14:20:29.298211
28712,-0.5095,-0.1352,-0.8560,73.745,-99.085,-73.010,0.00,22.8498,37.0617,26.9831,3.3647,2025-06-12T14:20:29.391167
28713,-0.5134,-0.1337,-0.8540,80.045,-95.305,-74.270,0.00,19.4317,37.0617,26.9831,4.3941,2025-06-12T14:20:29.391167
28714,-0.5041,-0.1405,-0.8486,84.735,-91.490,-74.515,0.01,22.8498,37.0617,25.5025,3.3647,2025-06-12T14:20:29.391167
28715,-0.5109,-0.1274,-0.8145,88.025,-88.585,-75.145,0.01,22.8498,37.0617,24.0207,3.3647,2025-06-12T14:20:29.676544
28716,-0.5236,-0.1230,-0.7998,92.925,-85.610,-75.075,0.01,22.8498,37.0617,25.5025,3.3647,2025-06-12T14:20:29.676544
28717,-0.5002,-0.1498,-0.8408,97.790,-85.680,-74.830,0.00,19.4317,32.0711,24.0207,3.3647,2025-06-12T14:20:29.676544
28718,-0.5475,-0.1459,-0.8208,101.815,-84.700,-75.495,0.00,22.8498,37.0617,24.0207,2.3358,2025-06-12T14:20:29.676544
28719,-0.5158,-0.1288,-0.8359,104.895,-76.055,-74.865,0.00,19.4317,37.0617,25.5025,4.3941,2025-06-12T14:20:29.676544
28720,-0.4895,-0.1279,-0.8618,106.400,-62.160,-73.885,0.00,22.8498,37.0617,24.0207,4.3941,2025-06-12T14:20:29.676544
28721,-0.5017,-0.1327,-0.8682,106.890,-40.600,-72.415,0.00,22.8498,32.0711,34.3672,3.3647,2025-06-12T14:20:29.676544
28722,-0.5339,-0.1420,-0.8691,107.415,-22.925,-69.055,0.00,22.8498,32.0711,34.3672,3.3647,2025-06-12T14:20:29.676544
28723,-0.5661,-0.1454,-0.8662,108.255,-4.935,-65.100,0.00,22.8498,32.0711,34.3672,3.3647,2025-06-12T14:20:29.676544
28724,-0.6188,-0.1537,-0.8545,109.760,6.405,-58.590,0.01,26.2573,37.0617,32.8929,3.3647,2025-06-12T14:20:29.676544
28725,-0.6529,-0.1542,-0.8428,111.615,11.620,-52.395,0.00,22.8498,37.0617,35.8403,4.3941,2025-06-12T14:20:29.676544
28726,-0.6695,-0.1635,-0.8677,112.735,16.590,-44.205,0.00,22.8498,32.0711,37.3121,4.3941,2025-06-12T14:20:29.676544
28727,-0.6559,-0.1620,-0.8555,111.685,22.540,-35.840,0.00,19.4317,32.0711,35.8403,3.3647,2025-06-12T14:20:29.676544
28728,-0.6598,-0.1654,-0.8369,109.025,30.205,-28.490,0.00,19.4317,32.0711,38.7827,3.3647,2025-06-12T14:20:29.676544
28729,-0.6647,-0.1718,-0.7935,107.030,36.365,-19.880,0.00,19.4317,32.0711,38.7827,3.3647,2025-06-12T14:20:29.676544
28730,-0.6969,-0.1932,-0.7462,104.580,38.710,-13.965,0.00,19.4317,32.0711,40.2520,3.3647,2025-06-12T14:20:29.676544
28731,-0.7218,-0.2069,-0.7437,104.195,37.275,-7.105,0.01,22.8498,32.0711,41.7201,3.3647,2025-06-12T14:20:29.676544
28732,-0.6866,-0.2269,-0.7335,101.990,33.775,-1.925,0.01,22.8498,32.0711,44.6525,3.3647,2025-06-12T14:20:29.676544
28733,-0.6608,-0.2347,-0.7003,98.840,34.475,3.115,0.00,22.8498,37.0617,44.6525,3.3647,2025-06-12T14:20:29.676544
28734,-0.6471,-0.2450,-0.6788,94.745,38.325,6.790,0.01,22.8498,32.0711,41.7201,4.3941,2025-06-12T14:20:29.676544
28735,-0.6520,-0.2499,-0.6525,90.230,44.590,8.995,0.00,19.4317,37.0617,43.1869,4.3941,2025-06-12T14:20:29.676544
28736,-0.6690,-0.2645,-0.6295,87.465,46.865,10.010,0.00,22.8498,32.0711,43.1869,4.3941,2025-06-12T14:20:29.676544
28737,-0.7022,-0.2796,-0.6037,84.595,45.430,10.150,0.01,22.8498,37.0617,41.7201,3.3647,2025-06-12T14:20:29.676544
28738,-0.7452,-0.2962,-0.5876,82.425,39.340,8.890,0.00,19.4317,32.0711,41.7201,3.3647,2025-06-12T14:20:29.676544
28739,-0.7906,-0.2948,-0.5729,80.080,31.675,6.825,0.00,19.4317,37.0617,41.7201,3.3647,2025-06-12T14:20:29.676544
28740,-0.7832,-0.3021,-0.5685,80.150,23.485,5.180,0.00,19.4317,37.0617,40.2520,4.3941,2025-06-12T14:20:29.676544
28741,-0.7710,-0.3148,-0.5710,76.965,15.925,2.275,0.00,19.4317,32.0711,40.2520,3.3647,2025-06-12T14:20:29.676544
28742,-0.7237,-0.3367,-0.6129,72.625,14.910,-0.910,0.00,22.8498,32.0711,41.7201,3.3647,2025-06-12T14:20:29.938919
28743,-0.6700,-0.3289,-0.6046,64.295,24.115,-3.920,0.00,19.4317,32.0711,43.1869,4.3941,2025-06-12T14:20:29.938919
28744,-0.6656,-0.3250,-0.5885,53.235,40.285,-5.530,0.00,19.4317,32.0711,43.1869,3.3647,2025-06-12T14:20:29.938919
28745,-0.7315,-0.3323,-0.5773,44.520,61.110,-6.895,0.00,19.4317,32.0711,44.6525,3.3647,2025-06-12T14:20:29.938919
28746,-0.8398,-0.3431,-0.5836,35.350,55.790,-7.525,0.00,19.4317,37.0617,41.7201,3.3647,2025-06-12T14:20:29.938919
28747,-0.9936,-0.3177,-0.5719,29.085,43.680,-7.420,0.00,19.4317,32.0711,41.7201,3.3647,2025-06-12T14:20:29.939936
28748,-1.0965,-0.3118,-0.5905,23.765,25.130,-6.860,0.00,22.8498,32.0711,41.7201,3.3647,2025-06-12T14:20:29.939936
28749,-1.1029,-0.3026,-0.6022,18.865,0.245,-3.115,0.00,16.0028,32.0711,44.6525,4.3941,2025-06-12T14:20:29.939936
28750,-1.1195,-0.3206,-0.5807,10.850,-20.405,1.295,0.01,19.4317,37.0617,41.7201,3.3647,2025-06-12T14:20:29.939936
28751,-0.9609,-0.2957,-0.5890,8.365,-30.135,9.905,0.01,19.4317,32.0711,40.2520,3.3647,2025-06-12T14:20:29.939936
28752,-0.8467,-0.3109,-0.5978,0.315,-35.385,17.220,0.01,19.4317,32.0711,41.7201,3.3647,2025-06-12T14:20:29.939936
28753,-0.8184,-0.3421,-0.5983,-5.320,-37.975,21.770,0.00,19.4317,32.0711,38.7827,4.3941,2025-06-12T14:20:29.939936
28754,-0.7945,-0.3709,-0.5880,-10.325,-39.130,25.935,0.01,22.8498,32.0711,38.7827,3.3647,2025-06-12T14:20:29.939936
28755,-0.7774,-0.3836,-0.5793,-14.700,-42.525,28.175,0.01,19.4317,37.0617,40.2520,3.3647,2025-06-12T14:20:29.939936
28756,-0.7569,-0.3865,-0.5700,-16.450,-47.880,29.505,0.01,19.4317,37.0617,38.7827,4.3941,2025-06-12T14:20:29.939936
28757,-0.7657,-0.3845,-0.5646,-19.355,-52.710,30.030,0.00,19.4317,37.0617,38.7827,3.3647,2025-06-12T14:20:29.939936
28758,-0.7218,-0.3836,-0.5617,-19.425,-55.930,31.010,0.01,19.4317,32.0711,38.7827,4.3941,2025-06-12T14:20:30.118008
28759,-0.6983,-0.3845,-0.5510,-20.895,-58.975,30.590,0.00,19.4317,37.0617,35.8403,4.3941,2025-06-12T14:20:30.118008
28760,-0.6842,-0.3894,-0.5505,-20.545,-60.760,30.240,0.00,19.4317,37.0617,38.7827,4.3941,2025-06-12T14:20:30.118008
28761,-0.6559,-0.3806,-0.5495,-21.980,-59.150,29.890,0.00,19.4317,37.0617,38.7827,4.3941,2025-06-12T14:20:30.118008
28762,-0.6510,-0.3865,-0.5436,-23.520,-58.275,28.945,0.00,19.4317,32.0711,38.7827,3.3647,2025-06-12T14:20:30.118008
28763,-0.6446,-0.3992,-0.5397,-23.905,-56.490,27.685,0.01,22.8498,37.0617,40.2520,4.3941,2025-06-12T14:20:30.118008
28764,-0.6456,-0.4016,-0.5392,-25.725,-53.900,26.635,0.01,19.4317,37.0617,38.7827,4.3941,2025-06-12T14:20:30.118008
28765,-0.6427,-0.4021,-0.5368,-27.265,-49.210,24.815,0.01,19.4317,37.0617,38.7827,3.3647,2025-06-12T14:20:30.118008
28766,-0.6471,-0.4138,-0.5583,-28.385,-43.925,21.420,0.00,19.4317,32.0711,38.7827,3.3647,2025-06-12T14:20:30.118008
28767,-0.6490,-0.4236,-0.5817,-29.470,-36.715,17.675,0.01,19.4317,37.0617,40.2520,4.3941,2025-06-12T14:20:30.118008
28768,-0.6925,-0.4641,-0.6095,-28.560,-34.125,11.025,0.00,19.4317,32.0711,38.7827,3.3647,2025-06-12T14:20:30.118008
28769,-0.7491,-0.4943,-0.6461,-27.895,-32.935,5.670,0.00,19.4317,32.0711,37.3121,4.3941,2025-06-12T14:20:30.119078
28770,-0.7906,-0.5231,-0.6622,-27.685,-32.900,0.700,0.01,19.4317,37.0617,38.7827,3.3647,2025-06-12T14:20:30.119078
28771,-0.8174,-0.5475,-0.6656,-27.370,-34.475,-1.820,0.00,19.4317,32.0711,38.7827,3.3647,2025-06-12T14:20:30.119078
28772,-0.8301,-0.5505,-0.6481,-27.895,-38.150,-2.905,0.01,19.4317,32.0711,38.7827,3.3647,2025-06-12T14:20:30.119078
28773,-0.8403,-0.5470,-0.6349,-28.770,-41.545,-2.870,0.00,19.4317,37.0617,40.2520,4.3941,2025-06-12T14:20:30.119078
28774,-0.8452,-0.5402,-0.6237,-30.695,-46.165,-2.625,0.00,16.0028,37.0617,40.2520,4.3941,2025-06-12T14:20:30.200283
28775,-0.8340,-0.5148,-0.6124,-31.710,-49.490,-2.380,0.00,16.0028,37.0617,38.7827,4.3941,2025-06-12T14:20:30.200283
28776,-0.8316,-0.4943,-0.5817,-34.440,-52.850,-2.100,0.01,19.4317,32.0711,40.2520,4.3941,2025-06-12T14:20:30.200283
28777,-0.8047,-0.4699,-0.5695,-35.140,-56.630,-1.680,0.00,16.0028,32.0711,37.3121,3.3647,2025-06-12T14:20:30.200283
28778,-0.7871,-0.4592,-0.5388,-35.980,-60.060,-1.400,0.00,19.4317,37.0617,37.3121,3.3647,2025-06-12T14:20:30.200283
28779,-0.7940,-0.4333,-0.5144,-36.680,-64.575,-1.995,0.00,16.0028,37.0617,35.8403,3.3647,2025-06-12T14:20:30.200283
28780,-0.7686,-0.4172,-0.5100,-35.525,-68.845,-2.590,0.00,19.4317,37.0617,38.7827,4.3941,2025-06-12T14:20:30.394704
28781,-0.7749,-0.4050,-0.4904,-36.435,-74.025,-2.835,0.00,19.4317,32.0711,38.7827,4.3941,2025-06-12T14:20:30.394704
28782,-0.7945,-0.3904,-0.4695,-35.350,-78.330,-3.710,0.00,22.8498,32.0711,38.7827,3.3647,2025-06-12T14:20:30.394704
28783,-0.7784,-0.3782,-0.4563,-33.005,-83.790,-3.675,0.00,19.4317,32.0711,35.8403,3.3647,2025-06-12T14:20:30.394704
28784,-0.7569,-0.3782,-0.4470,-32.095,-88.655,-2.695,0.01,16.0028,32.0711,35.8403,3.3647,2025-06-12T14:20:30.394704
28785,-0.8008,-0.3806,-0.4241,-29.015,-94.045,-3.290,0.00,19.4317,32.0711,34.3672,4.3941,2025-06-12T14:20:30.394704
28786,-0.7930,-0.3806,-0.4133,-26.250,-96.250,-3.465,0.01,19.4317,32.0711,34.3672,3.3647,2025-06-12T14:20:30.394704
28787,-0.7691,-0.3733,-0.3963,-21.945,-98.070,-3.465,0.00,16.0028,32.0711,37.3121,3.3647,2025-06-12T14:20:30.394704
28788,-0.7847,-0.3767,-0.3821,-19.915,-99.575,-4.445,0.00,16.0028,32.0711,37.3121,4.3941,2025-06-12T14:20:30.395734
28789,-0.7886,-0.3958,-0.3816,-14.840,-100.030,-5.530,0.00,19.4317,32.0711,38.7827,3.3647,2025-06-12T14:20:30.395734
28790,-0.8120,-0.3865,-0.3484,-11.585,-99.155,-6.475,0.01,16.0028,37.0617,43.1869,3.3647,2025-06-12T14:20:30.395734
28791,-0.7852,-0.3987,-0.3221,-7.140,-97.405,-7.875,0.00,16.0028,32.0711,41.7201,3.3647,2025-06-12T14:20:30.395734
28792,-0.7832,-0.4094,-0.3109,-2.765,-94.640,-10.150,0.00,19.4317,32.0711,44.6525,4.3941,2025-06-12T14:20:30.395734
28793,-0.8076,-0.4128,-0.2879,-0.280,-91.945,-12.635,0.00,19.4317,37.0617,47.5799,4.3941,2025-06-12T14:20:30.395734
28794,-0.8194,-0.4177,-0.2713,4.060,-87.465,-15.435,0.01,19.4317,32.0711,46.1168,3.3647,2025-06-12T14:20:30.593733
28795,-0.8233,-0.4202,-0.2523,6.615,-82.250,-17.675,0.00,19.4317,37.0617,43.1869,5.4240,2025-06-12T14:20:30.593733
28796,-0.8316,-0.4324,-0.2342,10.255,-74.445,-20.055,0.01,19.4317,37.0617,43.1869,3.3647,2025-06-12T14:20:30.593733
28797,-0.8647,-0.4660,-0.2308,12.635,-65.800,-24.080,0.01,19.4317,32.0711,41.7201,3.3647,2025-06-12T14:20:30.593733
28798,-0.8750,-0.4651,-0.2230,16.625,-58.730,-27.335,0.00,16.0028,32.0711,44.6525,4.3941,2025-06-12T14:20:30.593733
28799,-0.8999,-0.4675,-0.2084,18.480,-51.870,-30.100,0.01,19.4317,32.0711,44.6525,8.5170,2025-06-12T14:20:30.593733
28800,-0.8989,-0.4621,-0.1747,20.755,-47.880,-30.485,0.00,16.0028,32.0711,43.1869,9.5491,2025-06-12T14:20:30.593733
28801,-0.8911,-0.4519,-0.1401,22.015,-41.965,-28.840,0.00,16.0028,32.0711,43.1869,9.5491,2025-06-12T14:20:30.593733
28802,-0.8926,-0.4646,-0.1147,22.470,-38.010,-27.195,0.00,19.4317,37.0617,43.1869,9.5491,2025-06-12T14:20:30.593733
28803,-0.8960,-0.4290,-0.0776,23.450,-32.165,-25.830,0.00,16.0028,27.0568,41.7201,8.5170,2025-06-12T14:20:30.593733
28804,-0.8852,-0.4197,-0.0737,22.155,-27.405,-24.815,0.00,19.4317,32.0711,40.2520,8.5170,2025-06-12T14:20:30.593733
28805,-0.9033,-0.4026,-0.0586,22.190,-26.705,-24.535,0.01,19.4317,32.0711,38.7827,8.5170,2025-06-12T14:20:30.593733
28806,-0.9492,-0.4006,-0.0459,20.125,-29.960,-24.850,0.01,16.0028,32.0711,40.2520,7.4855,2025-06-12T14:20:30.593733
28807,-0.8808,-0.3889,-0.0366,20.965,-33.880,-24.080,0.00,16.0028,32.0711,40.2520,8.5170,2025-06-12T14:20:30.593733
28808,-0.8940,-0.3919,-0.0073,20.720,-39.060,-22.260,0.00,16.0028,32.0711,37.3121,7.4855,2025-06-12T14:20:30.593733
28809,-0.8901,-0.3982,0.0185,19.670,-42.210,-21.945,0.01,16.0028,32.0711,35.8403,8.5170,2025-06-12T14:20:30.829455
28810,-0.9130,-0.4168,0.0195,19.845,-42.875,-22.540,0.01,19.4317,27.0568,28.4624,5.4240,2025-06-12T14:20:30.829455
28811,-0.8764,-0.4246,0.0117,19.670,-38.395,-22.925,0.00,19.4317,32.0711,24.0207,4.3941,2025-06-12T14:20:30.829455
28812,-0.8906,-0.4602,-0.0005,19.460,-34.615,-23.135,0.00,19.4317,32.0711,19.5678,4.3941,2025-06-12T14:20:30.829455
28813,-0.9018,-0.4856,-0.0020,20.580,-25.725,-23.345,0.01,19.4317,32.0711,16.5929,3.3647,2025-06-12T14:20:30.829455
28814,-0.9277,-0.5139,0.0068,21.420,-18.305,-23.345,0.00,16.0028,27.0568,21.0533,3.3647,2025-06-12T14:20:30.829455
28815,-0.9204,-0.5422,0.0205,24.640,-9.345,-22.435,0.00,19.4317,27.0568,21.0533,3.3647,2025-06-12T14:20:30.829455
28816,-0.9472,-0.5739,0.0337,28.385,-3.570,-19.775,0.00,19.4317,32.0711,22.5376,3.3647,2025-06-12T14:20:30.829455
28817,-0.9536,-0.5978,0.0429,33.950,0.070,-17.675,0.00,16.0028,27.0568,22.5376,3.3647,2025-06-12T14:20:30.829455
28818,-0.9648,-0.6300,0.0488,38.500,0.420,-15.120,0.00,16.0028,27.0568,21.0533,3.3647,2025-06-12T14:20:30.829455
28819,-0.9550,-0.6388,0.0756,44.975,-2.975,-14.350,0.00,19.4317,27.0568,22.5376,3.3647,2025-06-12T14:20:30.829455
28820,-0.9233,-0.6398,0.0776,49.595,-6.895,-14.245,0.00,16.0028,32.0711,24.0207,3.3647,2025-06-12T14:20:30.830226
28821,-0.8799,-0.6364,0.0947,53.480,-6.475,-14.560,0.00,12.5632,27.0568,24.0207,3.3647,2025-06-12T14:20:30.830226
28822,-0.8472,-0.6281,0.0727,55.230,-2.975,-16.065,0.01,16.0028,27.0568,21.0533,4.3941,2025-06-12T14:20:30.830226
28823,-0.8272,-0.6246,0.0405,55.720,2.940,-17.255,0.00,19.4317,32.0711,22.5376,3.3647,2025-06-12T14:20:30.830226
28824,-0.8140,-0.6159,0.0371,54.425,13.510,-17.955,0.00,19.4317,32.0711,21.0533,4.3941,2025-06-12T14:20:30.830226
28825,-0.8081,-0.6173,0.0376,53.200,22.365,-18.375,0.00,19.4317,32.0711,22.5376,4.3941,2025-06-12T14:20:31.010933
28826,-0.8276,-0.6159,0.0303,51.345,29.715,-17.605,0.01,19.4317,32.0711,21.0533,4.3941,2025-06-12T14:20:31.010933
28827,-0.8545,-0.6183,0.0259,49.735,31.675,-15.680,0.00,22.8498,32.0711,22.5376,4.3941,2025-06-12T14:20:31.010933
28828,-0.8725,-0.6046,0.0303,47.880,29.085,-14.910,0.01,19.4317,27.0568,22.5376,3.3647,2025-06-12T14:20:31.010933
28829,-0.8696,-0.5885,0.0332,46.305,20.930,-14.595,0.01,19.4317,32.0711,24.0207,4.3941,2025-06-12T14:20:31.010933
28830,-0.8501,-0.5817,0.0298,45.045,11.060,-14.315,0.00,19.4317,27.0568,24.0207,3.3647,2025-06-12T14:20:31.010933
28831,-0.8130,-0.5617,0.0517,43.715,-0.665,-14.980,0.00,19.4317,27.0568,25.5025,3.3647,2025-06-12T14:20:31.010933
28832,-0.7447,-0.5505,0.0605,42.840,-7.595,-14.665,0.00,19.4317,27.0568,22.5376,2.3358,2025-06-12T14:20:31.010933
28833,-0.7183,-0.5397,0.0703,38.605,-10.780,-15.925,0.00,19.4317,32.0711,29.9405,3.3647,2025-06-12T14:20:31.010933
28834,-0.5998,-0.5524,0.0615,34.265,-6.300,-21.805,0.00,19.4317,27.0568,26.9831,3.3647,2025-06-12T14:20:31.010933
28835,-0.5168,-0.5524,0.1357,31.780,8.470,-26.285,0.00,19.4317,32.0711,29.9405,3.3647,2025-06-12T14:20:31.010933
28836,-0.5324,-0.5519,0.1674,29.435,28.560,-28.735,0.01,16.0028,32.0711,28.4624,3.3647,2025-06-12T14:20:31.010933
28837,-0.6066,-0.5675,0.1396,26.390,43.960,-30.625,0.01,19.4317,27.0568,31.4173,2.3358,2025-06-12T14:20:31.010933
28838,-0.6978,-0.5797,0.1044,21.630,54.600,-33.250,0.00,19.4317,32.0711,29.9405,3.3647,2025-06-12T14:20:31.010933
28839,-0.7515,-0.5754,0.0927,18.060,58.835,-33.425,0.00,16.0028,32.0711,34.3672,3.3647,2025-06-12T14:20:31.056211
28840,-0.7657,-0.5724,0.0966,12.460,61.145,-32.270,0.00,16.0028,32.0711,32.8929,3.3647,2025-06-12T14:20:31.056211
28841,-0.7910,-0.5690,0.0864,8.540,61.460,-31.010,0.00,22.8498,32.0711,32.8929,4.3941,2025-06-12T14:20:31.056211
28842,-0.7979,-0.5578,0.0971,3.290,62.020,-30.135,0.00,19.4317,32.0711,37.3121,5.4240,2025-06-12T14:20:31.103637
28843,-0.8203,-0.5446,0.1152,-0.735,61.215,-28.770,0.01,16.0028,32.0711,35.8403,6.4545,2025-06-12T14:20:31.103637
28844,-0.8657,-0.5334,0.1698,-5.005,56.945,-27.160,0.00,19.4317,32.0711,35.8403,5.4240,2025-06-12T14:20:31.103637
28845,-0.9584,-0.4978,0.2630,-6.405,43.155,-23.695,0.00,16.0028,32.0711,34.3672,6.4545,2025-06-12T14:20:31.208026
28846,-1.0619,-0.4548,0.3850,-6.090,24.150,-20.335,0.00,16.0028,32.0711,32.8929,5.4240,2025-06-12T14:20:31.208026
28847,-1.1463,-0.4480,0.4402,-4.480,4.480,-17.570,0.00,16.0028,32.0711,34.3672,5.4240,2025-06-12T14:20:31.208026
28848,-1.1883,-0.4514,0.4270,-5.740,-20.055,-12.915,0.01,16.0028,37.0617,31.4173,5.4240,2025-06-12T14:20:31.208026
28849,-1.1536,-0.4494,0.3509,-5.600,-33.600,-7.980,0.00,19.4317,32.0711,31.4173,6.4545,2025-06-12T14:20:31.208026
28850,-1.0414,-0.4504,0.2801,-9.975,-44.730,-0.455,0.01,16.0028,32.0711,34.3672,6.4545,2025-06-12T14:20:31.208026
28851,-0.9721,-0.4704,0.2245,-15.225,-47.775,6.265,0.00,16.0028,32.0711,34.3672,6.4545,2025-06-12T14:20:31.208026
28852,-0.8852,-0.4934,0.1786,-22.330,-45.885,13.405,0.00,16.0028,32.0711,34.3672,5.4240,2025-06-12T14:20:31.208026
28853,-0.8682,-0.5353,0.1318,-27.195,-45.710,18.480,0.00,19.4317,32.0711,32.8929,6.4545,2025-06-12T14:20:31.414239
28854,-0.8599,-0.5846,0.1005,-31.395,-50.260,20.825,0.00,16.0028,32.0711,32.8929,6.4545,2025-06-12T14:20:31.414239
28855,-0.8442,-0.6290,0.0859,-33.705,-55.825,23.170,0.01,19.4317,32.0711,34.3672,7.4855,2025-06-12T14:20:31.414239
28856,-0.8316,-0.6705,0.0771,-34.790,-61.950,23.625,0.00,19.4317,32.0711,34.3672,6.4545,2025-06-12T14:20:31.414239
28857,-0.8233,-0.7086,0.0698,-34.545,-66.500,23.870,0.00,16.0028,32.0711,32.8929,6.4545,2025-06-12T14:20:31.414239
28858,-0.8150,-0.7388,0.0791,-32.620,-68.635,24.360,0.00,16.0028,32.0711,32.8929,7.4855,2025-06-12T14:20:31.414239
28859,-0.8091,-0.7603,0.0834,-29.995,-69.510,24.990,0.00,16.0028,32.0711,32.8929,6.4545,2025-06-12T14:20:31.414239
28860,-0.8120,-0.7910,0.0708,-25.760,-69.790,26.005,0.00,19.4317,32.0711,32.8929,7.4855,2025-06-12T14:20:31.415310
28861,-0.8164,-0.8028,0.0747,-21.210,-70.735,28.455,0.01,19.4317,32.0711,32.8929,5.4240,2025-06-12T14:20:31.415310
28862,-0.8135,-0.7950,0.1054,-13.125,-70.455,31.535,0.01,19.4317,27.0568,31.4173,6.4545,2025-06-12T14:20:31.415310
28863,-0.7754,-0.7818,0.1127,-7.070,-66.850,32.795,0.00,16.0028,27.0568,31.4173,7.4855,2025-06-12T14:20:31.415310
28864,-0.7520,-0.7715,0.0917,-1.925,-62.545,34.125,0.00,19.4317,32.0711,34.3672,6.4545,2025-06-12T14:20:31.415310
28865,-0.7383,-0.7462,0.1049,3.640,-56.490,34.370,0.00,19.4317,27.0568,31.4173,6.4545,2025-06-12T14:20:31.655710
28866,-0.7071,-0.7135,0.1200,7.490,-50.225,34.160,0.01,16.0028,27.0568,31.4173,6.4545,2025-06-12T14:20:31.655710
28867,-0.6847,-0.6910,0.1127,11.130,-41.965,33.740,0.00,16.0028,32.0711,22.5376,4.3941,2025-06-12T14:20:31.655710
28868,-0.6734,-0.6564,0.1122,13.335,-33.775,32.900,0.00,19.4317,27.0568,22.5376,3.3647,2025-06-12T14:20:31.655710
28869,-0.6647,-0.6266,0.1196,15.085,-26.565,31.255,0.00,19.4317,32.0711,22.5376,3.3647,2025-06-12T14:20:31.655710
28870,-0.6568,-0.6139,0.1161,15.855,-18.235,29.085,0.00,16.0028,32.0711,22.5376,4.3941,2025-06-12T14:20:31.655710
28871,-0.6510,-0.5890,0.1176,16.415,-11.865,26.950,0.00,19.4317,27.0568,22.5376,4.3941,2025-06-12T14:20:31.655710
28872,-0.6466,-0.5778,0.1225,16.695,-3.395,24.815,0.00,19.4317,27.0568,21.0533,3.3647,2025-06-12T14:20:31.655710
28873,-0.6432,-0.5602,0.1269,16.625,6.300,21.665,0.00,19.4317,27.0568,21.0533,3.3647,2025-06-12T14:20:31.655710
28874,-0.6515,-0.5558,0.1274,16.205,14.420,19.215,0.00,16.0028,27.0568,21.0533,3.3647,2025-06-12T14:20:31.655710
28875,-0.6822,-0.5510,0.1401,16.695,21.455,15.050,0.00,19.4317,27.0568,21.0533,3.3647,2025-06-12T14:20:31.655710
28876,-0.7037,-0.5588,0.1303,17.815,24.920,13.195,0.00,16.0028,27.0568,21.0533,2.3358,2025-06-12T14:20:31.655710
28877,-0.7374,-0.5544,0.1396,19.040,27.475,9.380,0.00,19.4317,27.0568,22.5376,3.3647,2025-06-12T14:20:31.655710
28878,-0.7569,-0.5578,0.1274,20.755,28.980,7.175,0.00,16.0028,32.0711,24.0207,3.3647,2025-06-12T14:20:31.655710
28879,-0.7969,-0.5602,0.1157,22.225,29.750,5.705,0.00,16.0028,32.0711,24.0207,3.3647,2025-06-12T14:20:31.655710
28880,-0.8179,-0.5685,0.0996,24.255,29.715,5.075,0.01,16.0028,27.0568,24.0207,3.3647,2025-06-12T14:20:31.655710
28881,-0.8428,-0.5661,0.0756,26.180,28.840,5.110,0.00,16.0028,27.0568,24.0207,4.3941,2025-06-12T14:20:31.655710
28882,-0.8530,-0.5607,0.0708,28.315,28.245,5.600,0.01,19.4317,32.0711,25.5025,4.3941,2025-06-12T14:20:31.655710
28883,-0.8457,-0.5641,0.0610,30.870,27.440,6.405,0.01,16.0028,32.0711,25.5025,4.3941,2025-06-12T14:20:31.655710
28884,-0.8320,-0.5597,0.0249,31.955,32.935,9.485,0.00,19.4317,32.0711,26.9831,3.3647,2025-06-12T14:20:31.722500
28885,-0.8369,-0.5710,0.0068,33.705,37.975,10.045,0.01,19.4317,32.0711,25.5025,3.3647,2025-06-12T14:20:31.722500
28886,-0.8272,-0.5993,-0.0112,36.260,42.735,10.920,0.00,16.0028,32.0711,24.0207,3.3647,2025-06-12T14:20:31.722500
28887,-0.8638,-0.6129,-0.0298,40.985,45.570,11.025,0.01,19.4317,32.0711,24.0207,4.3941,2025-06-12T14:20:31.722500
28888,-0.8779,-0.6364,-0.0429,46.935,49.245,9.905,0.00,19.4317,32.0711,24.0207,3.3647,2025-06-12T14:20:31.722500
28889,-0.8906,-0.6676,-0.0834,53.585,49.490,8.190,0.00,19.4317,27.0568,21.0533,4.3941,2025-06-12T14:20:31.722500
28890,-0.8965,-0.6993,-0.1078,63.525,48.300,6.685,0.01,19.4317,27.0568,19.5678,4.3941,2025-06-12T14:20:31.722500
28891,-0.8725,-0.7105,-0.1357,72.205,47.880,3.640,0.01,22.8498,27.0568,21.0533,3.3647,2025-06-12T14:20:32.023011
28892,-0.8413,-0.7096,-0.1635,82.530,51.450,-0.140,0.00,19.4317,32.0711,25.5025,3.3647,2025-06-12T14:20:32.023011
28893,-0.8076,-0.7115,-0.1928,90.335,60.130,-6.300,0.00,22.8498,27.0568,22.5376,4.3941,2025-06-12T14:20:32.023011
28894,-0.8096,-0.7227,-0.2357,98.665,70.105,-12.460,0.00,19.4317,32.0711,22.5376,3.3647,2025-06-12T14:20:32.023011
28895,-0.8316,-0.7344,-0.2616,106.855,81.655,-20.615,0.00,19.4317,27.0568,21.0533,3.3647,2025-06-12T14:20:32.023011
28896,-0.8540,-0.7383,-0.2733,113.890,87.745,-27.860,0.01,19.4317,27.0568,21.0533,3.3647,2025-06-12T14:20:32.023011
28897,-0.8379,-0.7237,-0.2879,122.045,90.895,-31.745,0.00,16.0028,27.0568,21.0533,3.3647,2025-06-12T14:20:32.023011
28898,-0.8023,-0.6934,-0.2762,128.170,94.290,-34.405,0.00,19.4317,32.0711,21.0533,3.3647,2025-06-12T14:20:32.023011
28899,-0.7657,-0.6730,-0.2625,134.330,97.440,-35.490,0.00,19.4317,32.0711,22.5376,4.3941,2025-06-12T14:20:32.023537
28900,-0.7559,-0.6642,-0.2542,139.335,99.645,-37.065,0.00,19.4317,27.0568,22.5376,3.3647,2025-06-12T14:20:32.023537
28901,-0.7457,-0.6598,-0.2411,145.320,100.135,-37.975,0.00,19.4317,32.0711,21.0533,3.3647,2025-06-12T14:20:32.023537
28902,-0.7466,-0.6666,-0.2259,151.480,98.210,-38.990,0.00,19.4317,27.0568,22.5376,3.3647,2025-06-12T14:20:32.023537
28903,-0.7501,-0.6905,-0.2054,157.185,96.075,-41.510,0.01,19.4317,32.0711,22.5376,3.3647,2025-06-12T14:20:32.023537
28904,-0.7623,-0.7135,-0.2133,164.185,94.570,-46.375,0.00,19.4317,32.0711,22.5376,4.3941,2025-06-12T14:20:32.023537
28905,-0.7803,-0.7486,-0.2147,170.870,96.565,-55.965,0.00,19.4317,32.0711,19.5678,3.3647,2025-06-12T14:20:32.182831
28906,-0.8203,-0.7842,-0.2230,178.360,99.960,-65.940,0.00,19.4317,32.0711,21.0533,3.3647,2025-06-12T14:20:32.182831
28907,-0.8594,-0.8194,-0.2259,184.940,104.545,-76.965,0.01,19.4317,27.0568,24.0207,3.3647,2025-06-12T14:20:32.182831
28908,-0.9209,-0.8286,-0.1908,190.295,106.470,-84.245,0.00,19.4317,32.0711,22.5376,3.3647,2025-06-12T14:20:32.182831
28909,-0.9067,-0.8101,-0.1557,192.745,111.895,-87.185,0.01,22.8498,27.0568,21.0533,4.3941,2025-06-12T14:20:32.183350
28910,-0.8467,-0.7579,-0.1366,192.465,124.180,-85.190,0.01,19.4317,32.0711,31.4173,6.4545,2025-06-12T14:20:32.183450
28911,-0.8057,-0.6964,-0.0849,187.985,140.210,-78.400,0.00,16.0028,32.0711,32.8929,6.4545,2025-06-12T14:20:32.183450
28912,-0.8672,-0.6403,-0.0346,182.805,161.420,-68.250,0.01,19.4317,32.0711,34.3672,7.4855,2025-06-12T14:20:32.183450
28913,-0.9701,-0.5983,0.0073,176.890,174.965,-60.060,0.00,16.0028,32.0711,34.3672,7.4855,2025-06-12T14:20:32.183450
28914,-1.0887,-0.5617,0.0205,170.310,182.315,-49.735,0.00,19.4317,27.0568,34.3672,7.4855,2025-06-12T14:20:32.183450
28915,-1.1668,-0.5085,0.0185,166.285,179.305,-35.350,0.00,16.0028,32.0711,34.3672,7.4855,2025-06-12T14:20:32.183450
28916,-1.1873,-0.4953,0.0317,160.160,167.335,-21.350,0.00,19.4317,32.0711,34.3672,6.4545,2025-06-12T14:20:32.183450
28917,-1.1409,-0.4441,0.0181,154.805,152.635,-4.305,0.00,19.4317,32.0711,34.3672,7.4855,2025-06-12T14:20:32.183450
28918,-1.1053,-0.4163,0.0503,147.420,138.705,11.270,0.00,16.0028,32.0711,31.4173,7.4855,2025-06-12T14:20:32.183973
28919,-1.0795,-0.3884,0.0781,140.735,122.745,27.300,0.00,19.4317,32.0711,31.4173,7.4855,2025-06-12T14:20:32.184066
28920,-1.0580,-0.3855,0.1064,136.220,108.220,41.790,0.00,19.4317,32.0711,32.8929,7.4855,2025-06-12T14:20:32.267798
28921,-1.0321,-0.3860,0.1142,132.405,88.585,52.290,0.00,16.0028,32.0711,29.9405,7.4855,2025-06-12T14:20:32.267798
28922,-0.9994,-0.3884,0.1074,130.445,68.950,62.195,0.01,19.4317,32.0711,29.9405,7.4855,2025-06-12T14:20:32.267798
28923,-0.9579,-0.3845,0.1171,129.150,53.900,68.215,0.01,19.4317,32.0711,29.9405,7.4855,2025-06-12T14:20:32.267798
28924,-0.8296,-0.3997,0.1283,128.765,43.225,72.800,0.00,19.4317,32.0711,28.4624,7.4855,2025-06-12T14:20:32.267798
28925,-0.7906,-0.3972,0.1557,129.115,36.260,76.510,0.01,19.4317,32.0711,28.4624,7.4855,2025-06-12T14:20:32.267798
28926,-0.7710,-0.3909,0.1552,127.995,33.005,78.540,0.00,22.8498,32.0711,29.9405,7.4855,2025-06-12T14:20:32.267798
28927,-0.6969,-0.3841,0.1591,127.155,31.955,79.870,0.01,16.0028,37.0617,29.9405,8.5170,2025-06-12T14:20:32.539842
28928,-0.6593,-0.3738,0.1527,126.070,33.215,79.135,0.01,16.0028,32.0711,31.4173,7.4855,2025-06-12T14:20:32.539842
28929,-0.6373,-0.3592,0.1420,124.320,35.630,76.790,0.01,19.4317,32.0711,31.4173,8.5170,2025-06-12T14:20:32.539842
28930,-0.5924,-0.3562,0.1591,122.465,41.615,73.045,0.00,16.0028,32.0711,29.9405,7.4855,2025-06-12T14:20:32.539842
28931,-0.5758,-0.3387,0.1552,119.315,49.630,68.110,0.00,19.4317,37.0617,26.9831,7.4855,2025-06-12T14:20:32.540915
28932,-0.5680,-0.3265,0.1386,116.270,61.215,60.515,0.00,19.4317,32.0711,28.4624,7.4855,2025-06-12T14:20:32.540915
28933,-0.5744,-0.3206,0.1327,112.350,71.015,53.235,0.01,19.4317,32.0711,28.4624,8.5170,2025-06-12T14:20:32.540915
28934,-0.5988,-0.3245,0.1205,107.870,83.020,43.330,0.00,19.4317,37.0617,29.9405,7.4855,2025-06-12T14:20:32.540915
28935,-0.6407,-0.3421,0.0991,103.495,92.505,32.060,0.01,19.4317,32.0711,29.9405,8.5170,2025-06-12T14:20:32.540915
28936,-0.6817,-0.3523,0.0844,97.755,102.025,22.365,0.00,19.4317,32.0711,29.9405,7.4855,2025-06-12T14:20:32.540915
28937,-0.7144,-0.3762,0.0551,92.365,107.765,12.810,0.00,19.4317,32.0711,26.9831,7.4855,2025-06-12T14:20:32.540915
28938,-0.7466,-0.3928,0.0268,85.925,110.180,6.895,0.01,19.4317,32.0711,28.4624,8.5170,2025-06-12T14:20:32.540915
28939,-0.7920,-0.4055,0.0117,79.030,110.250,1.120,0.00,19.4317,32.0711,29.9405,8.5170,2025-06-12T14:20:32.540915
28940,-0.8233,-0.4168,-0.0039,72.485,108.080,-1.820,0.01,19.4317,32.0711,28.4624,7.4855,2025-06-12T14:20:32.540915
28941,-0.8886,-0.4382,-0.0229,64.540,103.670,-5.530,0.00,22.8498,32.0711,28.4624,7.4855,2025-06-12T14:20:32.540915
28942,-0.9536,-0.4636,-0.0581,59.430,101.150,-10.920,0.01,22.8498,32.0711,26.9831,7.4855,2025-06-12T14:20:32.673734
28943,-1.0536,-0.4929,-0.1171,54.600,100.065,-18.620,0.00,19.4317,32.0711,28.4624,7.4855,2025-06-12T14:20:32.673734
28944,-1.1912,-0.5222,-0.1479,51.485,96.565,-28.525,0.00,19.4317,32.0711,28.4624,8.5170,2025-06-12T14:20:32.673734
28945,-1.2981,-0.5417,-0.1757,50.435,90.300,-35.490,0.00,19.4317,32.0711,29.9405,7.4855,2025-06-12T14:20:32.673734
28946,-1.3620,-0.5407,-0.1732,49.665,77.770,-36.540,0.00,19.4317,37.0617,32.8929,7.4855,2025-06-12T14:20:32.673734
28947,-1.3713,-0.5344,-0.1562,49.210,66.080,-31.045,0.01,16.0028,32.0711,29.9405,7.4855,2025-06-12T14:20:32.673734
28948,-1.3425,-0.5212,-0.1366,47.950,53.970,-19.530,0.00,16.0028,32.0711,29.9405,7.4855,2025-06-12T14:20:32.673734
28949,-1.3005,-0.5017,-0.0991,48.650,47.460,-4.970,0.00,19.4317,27.0568,31.4173,8.5170,2025-06-12T14:20:32.673734
28950,-1.2678,-0.4812,-0.0615,51.695,42.455,8.120,0.00,19.4317,32.0711,31.4173,7.4855,2025-06-12T14:20:32.673734
28951,-1.2029,-0.4499,-0.0581,56.665,39.480,22.890,0.00,16.0028,32.0711,29.9405,7.4855,2025-06-12T14:20:32.673734
28952,-1.1561,-0.4021,-0.0791,61.880,35.245,32.760,0.00,19.4317,32.0711,29.9405,7.4855,2025-06-12T14:20:32.673734
28953,-1.1419,-0.3475,-0.1215,64.820,31.290,38.815,0.01,19.4317,32.0711,29.9405,7.4855,2025-06-12T14:20:32.674807
28954,-1.0716,-0.3270,-0.1962,65.520,28.630,41.265,0.00,16.0028,32.0711,29.9405,7.4855,2025-06-12T14:20:32.674807
28955,-1.0033,-0.2889,-0.1274,68.180,39.900,45.115,0.00,19.4317,32.0711,28.4624,8.5170,2025-06-12T14:20:32.674807
28956,-0.9389,-0.2518,-0.1566,66.010,50.400,50.400,0.00,19.4317,37.0617,29.9405,7.4855,2025-06-12T14:20:32.674807
28957,-0.9160,-0.2557,-0.1884,68.635,55.685,55.930,0.00,22.8498,32.0711,29.9405,7.4855,2025-06-12T14:20:32.674807
28958,-0.9350,-0.2596,-0.2103,70.525,59.185,61.565,0.01,19.4317,32.0711,29.9405,7.4855,2025-06-12T14:20:32.721148
28959,-0.9135,-0.2552,-0.2474,71.540,61.635,66.185,0.01,16.0028,32.0711,29.9405,7.4855,2025-06-12T14:20:32.721148
28960,-0.9096,-0.2655,-0.2869,72.485,64.050,70.105,0.01,19.4317,32.0711,31.4173,6.4545,2025-06-12T14:20:32.721148
28961,-0.9106,-0.2752,-0.3094,72.520,63.630,71.855,0.01,19.4317,32.0711,29.9405,7.4855,2025-06-12T14:20:32.721148
28962,-0.9013,-0.2860,-0.3274,72.660,61.320,72.100,0.00,19.4317,32.0711,29.9405,8.5170,2025-06-12T14:20:32.767312
28963,-0.8852,-0.2967,-0.3504,72.730,54.215,71.645,0.00,19.4317,32.0711,29.9405,7.4855,2025-06-12T14:20:32.767312
28964,-0.8633,-0.3065,-0.3684,73.150,45.920,70.000,0.00,19.4317,37.0617,29.9405,8.5170,2025-06-12T14:20:32.767312
28965,-0.8501,-0.3089,-0.3753,73.150,34.965,66.115,0.01,19.4317,32.0711,28.4624,7.4855,2025-06-12T14:20:32.816235
28966,-0.8228,-0.3152,-0.3743,72.905,26.460,60.445,0.01,19.4317,32.0711,29.9405,8.5170,2025-06-12T14:20:32.816235
28967,-0.7950,-0.3279,-0.3733,71.610,16.275,54.600,0.00,19.4317,32.0711,28.4624,7.4855,2025-06-12T14:20:32.816235
28968,-0.7696,-0.3314,-0.3616,71.015,7.560,46.025,0.00,16.0028,32.0711,28.4624,8.5170,2025-06-12T14:20:32.816235
28969,-0.7486,-0.3255,-0.3348,69.160,3.465,38.500,0.00,19.4317,32.0711,28.4624,8.5170,2025-06-12T14:20:33.256199
28970,-0.7218,-0.3387,-0.3245,65.975,1.400,30.030,0.00,19.4317,32.0711,28.4624,7.4855,2025-06-12T14:20:33.256199
28971,-0.7340,-0.3636,-0.3353,64.085,-1.190,21.945,0.01,19.4317,32.0711,28.4624,7.4855,2025-06-12T14:20:33.256199
28972,-0.7315,-0.3811,-0.3265,62.930,-2.415,14.385,0.01,19.4317,32.0711,28.4624,7.4855,2025-06-12T14:20:33.256199
28973,-0.7296,-0.3914,-0.2952,62.510,-0.945,4.830,0.01,16.0028,37.0617,28.4624,7.4855,2025-06-12T14:20:33.256199
28974,-0.7281,-0.3977,-0.2596,63.175,2.765,-2.380,0.00,19.4317,32.0711,29.9405,7.4855,2025-06-12T14:20:33.256199
28975,-0.7374,-0.3909,-0.2430,64.260,7.315,-9.135,0.00,19.4317,32.0711,28.4624,8.5170,2025-06-12T14:20:33.256199
28976,-0.7637,-0.3958,-0.2362,65.345,11.970,-13.650,0.00,19.4317,32.0711,28.4624,8.5170,2025-06-12T14:20:33.256199
28977,-0.7998,-0.3953,-0.2362,65.590,17.220,-18.270,0.00,16.0028,32.0711,28.4624,8.5170,2025-06-12T14:20:33.256199
28978,-0.8262,-0.3963,-0.2308,66.640,20.895,-20.755,0.00,19.4317,32.0711,28.4624,7.4855,2025-06-12T14:20:33.257200
28979,-0.8638,-0.4055,-0.2323,68.355,23.555,-22.365,0.01,16.0028,37.0617,25.5025,8.5170,2025-06-12T14:20:33.257200
28980,-0.8940,-0.4221,-0.2547,70.665,25.060,-23.345,0.01,16.0028,27.0568,28.4624,7.4855,2025-06-12T14:20:33.257200
28981,-0.9316,-0.4314,-0.2830,73.430,27.930,-23.555,0.00,19.4317,32.0711,28.4624,7.4855,2025-06-12T14:20:33.257200
28982,-0.9277,-0.4070,-0.2957,76.055,32.760,-22.820,0.00,19.4317,37.0617,28.4624,7.4855,2025-06-12T14:20:33.257200
28983,-0.8999,-0.3845,-0.3094,78.365,40.810,-20.930,0.01,19.4317,32.0711,26.9831,8.5170,2025-06-12T14:20:33.257200
28984,-0.8916,-0.3343,-0.3255,79.975,53.725,-18.655,0.01,16.0028,32.0711,29.9405,8.5170,2025-06-12T14:20:33.257200
28985,-0.9209,-0.3099,-0.3577,80.325,66.780,-17.010,0.00,16.0028,32.0711,28.4624,8.5170,2025-06-12T14:20:33.272846
28986,-0.9648,-0.2762,-0.3943,81.410,82.565,-14.840,0.00,19.4317,32.0711,28.4624,8.5170,2025-06-12T14:20:33.272846
28987,-1.0024,-0.2386,-0.4153,81.235,93.870,-13.195,0.01,19.4317,37.0617,28.4624,8.5170,2025-06-12T14:20:33.272846
28988,-1.0502,-0.1718,-0.4085,78.505,106.575,-10.535,0.01,19.4317,37.0617,28.4624,8.5170,2025-06-12T14:20:33.272846
28989,-1.1370,-0.0781,-0.3558,73.745,108.640,-2.765,0.01,19.4317,37.0617,31.4173,8.5170,2025-06-12T14:20:33.272846
28990,-1.2586,0.0010,-0.2845,66.465,100.730,7.770,0.00,19.4317,32.0711,34.3672,8.5170,2025-06-12T14:20:33.272846
28991,-1.4416,0.0283,-0.2274,57.365,80.185,22.470,0.01,19.4317,37.0617,35.8403,8.5170,2025-06-12T14:20:33.272846
28992,-1.5577,0.0171,-0.2303,50.680,60.690,36.890,0.00,16.0028,32.0711,34.3672,7.4855,2025-06-12T14:20:33.273514
28993,-1.6616,-0.0059,-0.2811,41.615,42.105,50.085,0.00,19.4317,32.0711,34.3672,8.5170,2025-06-12T14:20:33.273514
28994,-1.6831,-0.0307,-0.3675,33.810,33.565,70.350,0.00,19.4317,32.0711,32.8929,7.4855,2025-06-12T14:20:33.273514
28995,-1.6729,-0.0464,-0.3694,22.400,29.260,90.825,0.01,19.4317,32.0711,32.8929,7.4855,2025-06-12T14:20:33.273514
28996,-1.6655,-0.0425,-0.3377,13.020,24.605,116.235,0.01,19.4317,32.0711,31.4173,8.5170,2025-06-12T14:20:33.273514
28997,-1.6592,-0.0439,-0.3192,1.960,20.930,137.305,0.00,16.0028,37.0617,32.8929,8.5170,2025-06-12T14:20:33.273514
28998,-1.6260,-0.0620,-0.3304,-4.935,21.140,161.210,0.00,19.4317,32.0711,34.3672,7.4855,2025-06-12T14:20:33.273514
28999,-1.6616,-0.0986,-0.3816,-13.090,18.760,179.165,0.00,19.4317,32.0711,34.3672,7.4855,2025-06-12T14:20:33.273514
29000,-1.6158,-0.1298,-0.4568,-20.545,11.270,194.005,0.01,19.4317,32.0711,35.8403,8.5170,2025-06-12T14:20:33.273911
29001,-1.5226,-0.1474,-0.5109,-26.635,2.135,208.845,0.00,19.4317,32.0711,34.3672,8.5170,2025-06-12T14:20:33.279114
29002,-1.4523,-0.1708,-0.5017,-32.375,-6.895,220.080,0.00,19.4317,32.0711,35.8403,8.5170,2025-06-12T14:20:33.624720
29003,-1.3430,-0.1825,-0.4992,-39.725,-7.490,229.390,0.01,19.4317,37.0617,34.3672,8.5170,2025-06-12T14:20:33.624720
29004,-1.2293,-0.1703,-0.5207,-47.005,0.070,234.990,0.01,19.4317,37.0617,32.8929,7.4855,2025-06-12T14:20:33.624720
29005,-1.2185,-0.2030,-0.4939,-57.225,2.310,238.980,0.00,19.4317,32.0711,32.8929,7.4855,2025-06-12T14:20:33.624720
29006,-1.2078,-0.2089,-0.4343,-62.720,-2.205,238.385,0.01,22.8498,32.0711,34.3672,8.5170,2025-06-12T14:20:33.624720
29007,-1.0712,-0.2089,-0.3899,-66.710,-14.245,232.680,0.00,19.4317,37.0617,31.4173,7.4855,2025-06-12T14:20:33.624720
29008,-0.9833,-0.2172,-0.3357,-70.140,-21.035,225.890,0.00,19.4317,37.0617,31.4173,8.5170,2025-06-12T14:20:33.624720
29009,-0.8623,-0.2011,-0.3016,-71.645,-33.145,219.065,0.00,19.4317,37.0617,32.8929,7.4855,2025-06-12T14:20:33.624720
29010,-0.7710,-0.1884,-0.2874,-70.875,-41.020,207.760,0.00,19.4317,32.0711,29.9405,8.5170,2025-06-12T14:20:33.624720
29011,-0.7169,-0.2035,-0.3016,-70.770,-49.280,195.055,0.00,16.0028,32.0711,28.4624,7.4855,2025-06-12T14:20:33.624720
29012,-0.6144,-0.2103,-0.2923,-69.510,-57.785,179.655,0.01,16.0028,27.0568,31.4173,8.5170,2025-06-12T14:20:33.624720
29013,-0.5319,-0.1991,-0.2567,-67.165,-63.560,167.020,0.01,19.4317,32.0711,29.9405,7.4855,2025-06-12T14:20:33.625790
29014,-0.4460,-0.1903,-0.2162,-63.525,-68.040,151.340,0.00,19.4317,32.0711,31.4173,7.4855,2025-06-12T14:20:33.625790
29015,-0.3533,-0.1845,-0.2020,-60.795,-67.865,134.680,0.00,19.4317,32.0711,29.9405,8.5170,2025-06-12T14:20:33.823383
29016,-0.2723,-0.1708,-0.1850,-57.575,-61.005,117.075,0.00,19.4317,32.0711,29.9405,7.4855,2025-06-12T14:20:33.823383
29017,-0.1981,-0.1464,-0.1737,-53.550,-46.760,101.885,0.00,19.4317,32.0711,31.4173,7.4855,2025-06-12T14:20:33.823383
29018,-0.1947,-0.1244,-0.1654,-50.050,-32.200,81.760,0.01,19.4317,32.0711,32.8929,8.5170,2025-06-12T14:20:33.823383
29019,-0.1981,-0.0976,-0.1669,-46.165,-15.365,64.750,0.00,16.0028,32.0711,31.4173,7.4855,2025-06-12T14:20:33.823383
29020,-0.2289,-0.0566,-0.1718,-42.280,-0.105,45.325,0.00,19.4317,32.0711,31.4173,7.4855,2025-06-12T14:20:33.823383
29021,-0.2723,-0.0107,-0.1664,-37.975,10.815,29.470,0.00,19.4317,27.0568,29.9405,7.4855,2025-06-12T14:20:33.823383
29022,-0.3304,0.0400,-0.1566,-34.615,20.475,11.690,0.00,19.4317,27.0568,31.4173,7.4855,2025-06-12T14:20:33.823383
29023,-0.3606,0.1283,-0.1337,-31.815,26.355,-4.270,0.00,19.4317,32.0711,32.8929,7.4855,2025-06-12T14:20:33.823383
29024,-0.4348,0.2089,-0.1347,-25.830,33.425,-17.150,0.00,19.4317,32.0711,34.3672,7.4855,2025-06-12T14:20:33.823383
29025,-0.5334,0.2923,-0.1967,-17.920,40.145,-32.725,0.00,19.4317,32.0711,34.3672,8.5170,2025-06-12T14:20:33.823383
29026,-0.6198,0.3650,-0.2611,-6.720,47.495,-45.850,0.00,19.4317,32.0711,32.8929,7.4855,2025-06-12T14:20:33.823383
29027,-0.7232,0.4656,-0.2904,1.995,54.390,-59.465,0.00,16.0028,32.0711,35.8403,7.4855,2025-06-12T14:20:33.823383
29028,-0.7940,0.5505,-0.2899,10.815,57.015,-67.095,0.00,16.0028,32.0711,34.3672,7.4855,2025-06-12T14:20:33.823383
29029,-0.8774,0.6451,-0.2855,17.605,58.135,-71.225,0.00,16.0028,32.0711,35.8403,7.4855,2025-06-12T14:20:33.823383
29030,-0.9360,0.7286,-0.2747,27.335,57.330,-72.135,0.01,16.0028,32.0711,34.3672,7.4855,2025-06-12T14:20:33.824380
29031,-0.9994,0.7998,-0.2899,34.405,57.120,-69.965,0.00,19.4317,32.0711,34.3672,7.4855,2025-06-12T14:20:33.898724
29032,-1.0268,0.8691,-0.3143,36.505,57.400,-66.640,0.00,19.4317,37.0617,37.3121,7.4855,2025-06-12T14:20:33.898724
29033,-1.0053,0.9472,-0.3221,35.700,60.970,-62.580,0.00,19.4317,32.0711,37.3121,7.4855,2025-06-12T14:20:33.898724
29034,-1.0106,1.0380,-0.3016,31.220,69.440,-55.055,0.01,19.4317,37.0617,38.7827,7.4855,2025-06-12T14:20:33.898724
29035,-1.0253,1.1004,-0.3113,25.585,76.300,-47.810,0.01,19.4317,37.0617,38.7827,6.4545,2025-06-12T14:20:33.898724
29036,-1.0882,1.1341,-0.3211,17.675,81.060,-36.225,0.01,22.8498,32.0711,40.2520,7.4855,2025-06-12T14:20:33.898724
29037,-1.1478,1.1517,-0.3274,8.610,82.110,-21.315,0.00,19.4317,32.0711,44.6525,7.4855,2025-06-12T14:20:33.898724
29038,-1.1985,1.1283,-0.3123,-4.480,75.495,-6.475,0.00,19.4317,32.0711,44.6525,6.4545,2025-06-12T14:20:33.898724
29039,-1.2132,1.0975,-0.3318,-13.335,65.730,13.020,0.00,19.4317,32.0711,44.6525,6.4545,2025-06-12T14:20:33.898724
29040,-1.2429,1.0516,-0.3558,-23.520,46.340,29.365,0.00,19.4317,32.0711,47.5799,8.5170,2025-06-12T14:20:33.898724
29041,-1.2058,0.9804,-0.3933,-27.790,25.865,47.145,0.01,22.8498,32.0711,47.5799,7.4855,2025-06-12T14:20:33.898724
29042,-1.1405,0.8965,-0.4250,-36.190,10.430,60.270,0.00,19.4317,32.0711,49.0418,7.4855,2025-06-12T14:20:33.899795
29043,-1.0663,0.8272,-0.4529,-42.770,-1.470,72.730,0.00,19.4317,32.0711,44.6525,7.4855,2025-06-12T14:20:33.899795
29044,-0.9902,0.7735,-0.5187,-45.080,-9.170,81.830,0.00,19.4317,32.0711,44.6525,7.4855,2025-06-12T14:20:33.899795
29045,-0.9365,0.7169,-0.5500,-46.690,-14.035,86.660,0.01,19.4317,32.0711,46.1168,8.5170,2025-06-12T14:20:33.899795
29046,-0.8579,0.6476,-0.5144,-48.545,-17.710,89.915,0.01,19.4317,32.0711,46.1168,7.4855,2025-06-12T14:20:33.899795
29047,-0.8140,0.5924,-0.4265,-49.105,-23.065,91.140,0.01,19.4317,37.0617,46.1168,8.5170,2025-06-12T14:20:33.984205
29048,-0.7515,0.5095,-0.3948,-46.795,-32.795,90.125,0.00,19.4317,32.0711,44.6525,7.4855,2025-06-12T14:20:33.984205
29049,-0.7232,0.4368,-0.3387,-43.960,-42.700,87.535,0.00,19.4317,32.0711,41.7201,7.4855,2025-06-12T14:20:33.984205
29050,-0.6134,0.3816,-0.2708,-42.280,-50.085,83.580,0.01,19.4317,32.0711,38.7827,6.4545,2025-06-12T14:20:33.984205
29051,-0.4690,0.3289,-0.2518,-39.900,-48.265,79.310,0.00,16.0028,32.0711,38.7827,7.4855,2025-06-12T14:20:33.984205
29052,-0.3753,0.2796,-0.2782,-37.065,-33.775,73.640,0.01,19.4317,32.0711,40.2520,6.4545,2025-06-12T14:20:33.984205
29053,-0.3479,0.1942,-0.2889,-35.700,-9.625,63.770,0.01,19.4317,32.0711,40.2520,6.4545,2025-06-12T14:20:34.070841
29054,-0.2469,0.1337,-0.2318,-33.460,9.870,52.675,0.00,19.4317,37.0617,43.1869,6.4545,2025-06-12T14:20:34.070841
29055,-0.3099,0.0644,-0.1757,-31.710,27.300,38.045,0.00,19.4317,37.0617,44.6525,6.4545,2025-06-12T14:20:34.070841
29056,-0.2420,-0.0146,-0.1161,-29.050,34.055,24.535,0.01,19.4317,37.0617,44.6525,7.4855,2025-06-12T14:20:34.070841
29057,-0.2542,-0.0898,-0.1015,-22.645,31.990,9.765,0.01,19.4317,32.0711,44.6525,7.4855,2025-06-12T14:20:34.255958
29058,-0.3035,-0.2372,-0.0908,-16.450,29.715,-6.755,0.00,19.4317,37.0617,41.7201,7.4855,2025-06-12T14:20:34.255958
29059,-0.2786,-0.3475,-0.0864,-6.195,29.225,-22.505,0.00,19.4317,32.0711,41.7201,8.5170,2025-06-12T14:20:34.255958
29060,-0.2094,-0.5022,-0.1181,3.850,32.340,-40.285,0.01,19.4317,37.0617,43.1869,8.5170,2025-06-12T14:20:34.255958
29061,-0.1786,-0.6207,-0.1322,17.850,40.425,-54.110,0.01,19.4317,37.0617,38.7827,8.5170,2025-06-12T14:20:34.255958
29062,-0.1444,-0.7686,-0.1454,33.530,50.295,-70.105,0.00,22.8498,37.0617,40.2520,8.5170,2025-06-12T14:20:34.255958
29063,-0.1513,-0.8511,-0.1864,53.340,58.870,-84.350,0.00,19.4317,37.0617,40.2520,7.4855,2025-06-12T14:20:34.255958
29064,-0.1488,-0.8847,-0.2606,74.095,69.160,-101.395,0.01,22.8498,32.0711,40.2520,6.4545,2025-06-12T14:20:34.255958
29065,-0.1430,-0.9228,-0.3972,92.225,78.085,-120.190,0.00,22.8498,37.0617,38.7827,4.3941,2025-06-12T14:20:34.255958
29066,-0.1030,-0.9077,-0.4529,117.355,99.540,-138.075,0.00,16.0028,37.0617,41.7201,3.3647,2025-06-12T14:20:34.255958
29067,-0.1010,-0.9453,-0.5734,134.505,117.635,-159.635,0.00,19.4317,32.0711,41.7201,4.3941,2025-06-12T14:20:34.255958
29068,-0.1698,-0.9614,-0.7261,158.060,142.205,-176.855,0.00,22.8498,32.0711,43.1869,3.3647,2025-06-12T14:20:34.257028
29069,-0.2821,-1.0024,-0.8672,179.445,159.565,-196.140,0.00,19.4317,32.0711,41.7201,3.3647,2025-06-12T14:20:34.257028
29070,-0.4143,-1.0219,-1.0321,209.755,167.230,-211.260,0.00,19.4317,37.0617,47.5799,3.3647,2025-06-12T14:20:34.257028
29071,-0.6661,-1.0946,-1.3083,247.730,164.885,-231.280,0.00,19.4317,32.0711,47.5799,3.3647,2025-06-12T14:20:34.257028
29072,-0.8008,-1.2132,-1.7895,282.520,165.340,-249.305,0.00,22.8498,37.0617,44.6525,3.3647,2025-06-12T14:20:34.794963
29073,-0.9555,-1.2898,-2.1135,316.575,177.275,-257.565,0.00,22.8498,37.0617,51.9617,4.3941,2025-06-12T14:20:34.794963
29074,-1.0931,-1.2220,-2.2302,349.370,196.315,-254.310,0.01,22.8498,37.0617,54.8767,3.3647,2025-06-12T14:20:34.794963
29075,-1.1688,-1.1854,-2.4644,356.790,206.535,-226.170,0.00,22.8498,32.0711,60.6916,3.3647,2025-06-12T14:20:34.794963
29076,-1.1517,-1.1209,-2.6801,371.770,214.025,-199.570,0.01,22.8498,42.0284,56.3323,4.3941,2025-06-12T14:20:34.794963
29077,-1.2708,-0.8603,-2.8299,378.280,214.410,-156.765,0.01,22.8498,37.0617,57.7867,3.3647,2025-06-12T14:20:34.794963
29078,-1.3518,-0.6983,-3.1208,393.505,202.300,-123.165,0.01,22.8498,46.9713,53.4198,3.3647,2025-06-12T14:20:34.794963
29079,-1.3635,-0.5553,-3.0598,394.975,182.140,-89.635,0.01,22.8498,42.0284,59.2398,3.3647,2025-06-12T14:20:34.796076
29080,-1.1971,-0.4055,-2.8821,385.000,169.575,-66.395,0.00,22.8498,46.9713,53.4198,3.3647,2025-06-12T14:20:34.796076
29081,-0.9926,-0.2494,-2.7245,361.935,163.520,-41.160,0.01,22.8498,42.0284,69.3766,4.3941,2025-06-12T14:20:34.796076
29082,-0.9794,-0.0224,-2.6542,336.140,160.895,-24.780,0.01,22.8498,46.9713,69.3766,3.3647,2025-06-12T14:20:34.796076
29083,-0.9692,0.1620,-2.3956,302.470,154.105,-22.365,0.01,22.8498,42.0284,73.7022,7.4855,2025-06-12T14:20:34.796076
29084,-1.0160,0.3797,-2.2804,274.295,133.560,-21.420,0.01,22.8498,42.0284,73.7022,9.5491,2025-06-12T14:20:34.796076
29085,-1.1448,0.5280,-2.1248,244.335,109.410,-24.850,0.00,26.2573,42.0284,70.8197,9.5491,2025-06-12T14:20:34.796076
29086,-1.1639,0.8267,-2.0467,209.895,92.505,-30.835,0.01,26.2573,42.0284,82.3198,10.5817,2025-06-12T14:20:34.796076
29087,-1.1673,1.2415,-1.8559,166.845,91.805,-28.105,0.00,29.6540,42.0284,80.8867,10.5817,2025-06-12T14:20:34.796076
29088,-1.4538,1.4596,-1.8080,113.085,77.490,-17.045,0.00,26.2573,37.0617,85.1823,11.6148,2025-06-12T14:20:34.796076
29089,-1.6856,1.7026,-1.5836,66.395,49.735,-1.855,0.01,29.6540,46.9713,86.6117,14.7173,2025-06-12T14:20:34.796076
29090,-1.6402,1.9012,-1.3874,8.400,18.935,8.435,0.01,26.2573,42.0284,83.7517,17.8245,2025-06-12T14:20:34.796076
29091,-1.4782,2.0813,-1.5621,-54.565,-9.730,15.365,0.00,26.2573,42.0284,79.4523,15.7525,2025-06-12T14:20:34.796076
29092,-1.4811,2.2902,-1.7339,-108.640,-21.140,12.845,0.00,26.2573,42.0284,83.7517,17.8245,2025-06-12T14:20:34.796076
29093,-1.5240,2.6820,-1.7407,-182.210,-25.760,-0.245,0.00,29.6540,42.0284,79.4523,17.8245,2025-06-12T14:20:34.796076
29094,-1.7417,3.2886,-1.9788,-247.800,-43.785,-21.070,0.00,29.6540,37.0617,82.3198,16.7882,2025-06-12T14:20:34.796076
29095,-2.0023,3.7108,-2.8119,-324.485,-82.810,-38.325,0.00,29.6540,32.0711,82.3198,18.8613,2025-06-12T14:20:34.796076
29096,-1.7095,3.8376,-3.6141,-391.650,-132.405,-42.735,0.00,29.6540,32.0711,92.3168,16.7882,2025-06-12T14:20:34.796076
29097,-1.4064,3.6293,-4.3988,-439.950,-179.585,-22.050,0.00,26.2573,37.0617,95.1619,18.8613,2025-06-12T14:20:34.797020
29098,-1.1966,3.0305,-5.3119,-484.960,-257.495,9.660,0.00,26.2573,32.0711,86.6117,20.9365,2025-06-12T14:20:34.797020
29099,-0.8818,1.7475,-5.9980,-510.300,-336.245,36.645,0.00,29.6540,32.0711,82.3198,20.9365,2025-06-12T14:20:34.797020
29100,-0.4709,-0.9921,-6.8510,-493.990,-401.485,68.390,0.00,29.6540,42.0284,89.4668,20.9365,2025-06-12T14:20:34.797020
29101,1.2058,-3.6829,-7.5337,-413.210,-410.655,164.010,0.01,46.4766,32.0711,116.3408,25.0932,2025-06-12T14:20:34.797020
29102,15.9781,-15.9888,-0.0839,11.305,15.995,-363.650,0.00,120.4084,149.6920,225.8550,7.4855,2025-06-12T14:20:34.797020
29103,-9.5604,-15.6668,5.7203,344.680,109.130,95.410,0.00,46.4766,85.6576,138.6222,17.8245,2025-06-12T14:20:34.797020
29104,0.3533,4.0699,-1.6675,1117.760,7.980,-21.000,0.01,29.6540,32.0711,112.1275,16.7882,2025-06-12T14:20:34.993952
29105,1.9237,2.0735,-3.7147,-82.040,127.225,-10.850,0.00,26.2573,37.0617,123.3381,18.8613,2025-06-12T14:20:34.993952
29106,-1.1658,0.4094,-1.2439,-32.410,250.740,-64.680,0.00,29.6540,32.0711,116.3408,14.7173,2025-06-12T14:20:34.993952
29107,-0.4514,1.3669,-2.4649,313.565,151.340,-9.870,0.01,26.2573,32.0711,110.7206,14.7173,2025-06-12T14:20:34.993952
29108,-1.8754,1.0126,-1.5352,62.615,67.900,53.235,0.01,26.2573,32.0711,112.1275,15.7525,2025-06-12T14:20:34.993952
29109,-1.5104,0.6671,-1.6592,23.625,48.510,83.230,0.00,26.2573,32.0711,110.7206,14.7173,2025-06-12T14:20:34.993952
29110,-1.0146,0.6456,-1.6582,12.250,9.520,77.490,0.01,22.8498,32.0711,107.9030,14.7173,2025-06-12T14:20:34.993952
29111,-0.7320,0.4421,-1.3864,-61.355,-85.050,74.340,0.01,22.8498,32.0711,103.6672,13.6826,2025-06-12T14:20:34.993952
29112,-0.5578,0.1810,-1.3156,-49.455,-65.730,76.755,0.00,22.8498,27.0568,96.5826,14.7173,2025-06-12T14:20:34.993952
29113,-0.7325,0.0683,-1.1165,-83.475,-12.005,84.490,0.00,22.8498,32.0711,92.3168,13.6826,2025-06-12T14:20:34.993952
29114,-0.8467,-0.0395,-1.0477,-80.185,-17.850,97.580,0.00,22.8498,32.0711,90.8924,13.6826,2025-06-12T14:20:34.993952
29115,-0.9394,-0.0488,-0.9755,-84.420,-58.765,108.045,0.00,22.8498,27.0568,80.8867,12.6484,2025-06-12T14:20:34.995026
29116,-0.9565,-0.0288,-1.0111,-78.785,-90.125,119.455,0.00,26.2573,32.0711,85.1823,11.6148,2025-06-12T14:20:34.995026
29117,-0.9418,-0.0498,-1.0136,-82.670,-99.190,131.740,0.00,22.8498,32.0711,73.7022,11.6148,2025-06-12T14:20:34.995026
29118,-0.7686,-0.0459,-0.9438,-82.040,-99.890,138.600,0.00,22.8498,32.0711,73.7022,11.6148,2025-06-12T14:20:35.104309
29119,-0.6466,-0.0063,-0.8730,-80.290,-88.865,141.225,0.01,19.4317,32.0711,65.0397,9.5491,2025-06-12T14:20:35.104309
29120,-0.5568,0.0678,-0.8174,-81.130,-52.080,137.795,0.00,22.8498,32.0711,53.4198,9.5491,2025-06-12T14:20:35.104309
29121,-0.6988,0.1078,-0.7188,-89.285,-29.610,132.650,0.00,19.4317,32.0711,59.2398,9.5491,2025-06-12T14:20:35.104309
29122,-0.8862,0.1444,-0.7379,-90.650,-35.350,124.460,0.01,22.8498,37.0617,56.3323,9.5491,2025-06-12T14:20:35.104309
29123,-1.0282,0.1113,-0.6842,-89.180,-59.395,116.375,0.00,22.8498,37.0617,57.7867,9.5491,2025-06-12T14:20:35.104309
29124,-0.9018,0.1181,-0.6364,-84.910,-80.745,110.215,0.00,19.4317,32.0711,53.4198,9.5491,2025-06-12T14:20:35.104309
29125,-0.7906,0.1083,-0.6534,-81.620,-93.415,103.810,0.01,19.4317,32.0711,53.4198,9.5491,2025-06-12T14:20:35.104309
29126,-0.6978,0.0830,-0.6505,-76.195,-101.220,96.635,0.00,19.4317,27.0568,53.4198,9.5491,2025-06-12T14:20:35.104309
29127,-0.5461,0.0639,-0.6642,-71.750,-97.895,86.835,0.00,19.4317,32.0711,51.9617,9.5491,2025-06-12T14:20:35.104309
29128,-0.4934,0.0566,-0.5827,-69.545,-87.885,78.470,0.00,19.4317,32.0711,49.0418,9.5491,2025-06-12T14:20:35.104309
29129,-0.5075,0.0615,-0.5744,-68.600,-78.435,70.280,0.00,19.4317,32.0711,49.0418,9.5491,2025-06-12T14:20:35.105379
29130,-0.5636,0.0468,-0.6115,-66.185,-79.030,64.225,0.00,19.4317,32.0711,54.8767,9.5491,2025-06-12T14:20:35.105379
29131,-0.6329,0.0327,-0.6090,-61.425,-88.655,57.610,0.01,19.4317,32.0711,49.0418,9.5491,2025-06-12T14:20:35.105379
29132,-0.6037,0.0346,-0.6193,-56.280,-100.100,53.095,0.01,19.4317,32.0711,50.5024,9.5491,2025-06-12T14:20:35.105379
29133,-0.5480,0.0605,-0.6159,-51.625,-108.430,49.980,0.01,19.4317,37.0617,49.0418,8.5170,2025-06-12T14:20:35.232918
29134,-0.5056,0.0903,-0.6271,-49.805,-106.820,46.900,0.00,19.4317,32.0711,47.5799,8.5170,2025-06-12T14:20:35.232918
29135,-0.4929,0.0898,-0.6251,-48.300,-101.500,43.925,0.01,19.4317,32.0711,49.0418,8.5170,2025-06-12T14:20:35.232918
29136,-0.4616,0.1088,-0.6207,-45.850,-96.145,41.860,0.00,19.4317,32.0711,47.5799,8.5170,2025-06-12T14:20:35.232918
29137,-0.4480,0.1391,-0.5900,-43.015,-91.490,41.370,0.01,22.8498,32.0711,47.5799,9.5491,2025-06-12T14:20:35.232918
29138,-0.4085,0.1576,-0.5510,-38.535,-84.210,40.180,0.01,22.8498,32.0711,50.5024,9.5491,2025-06-12T14:20:35.232918
29139,-0.3880,0.1776,-0.5270,-33.880,-75.635,38.255,0.00,19.4317,32.0711,46.1168,8.5170,2025-06-12T14:20:35.232918
29140,-0.4089,0.2030,-0.5090,-30.100,-66.570,35.385,0.01,19.4317,32.0711,51.9617,9.5491,2025-06-12T14:20:35.332192
29141,-0.4490,0.2255,-0.4963,-25.515,-59.885,31.570,0.00,19.4317,32.0711,50.5024,9.5491,2025-06-12T14:20:35.332192
29142,-0.4929,0.2391,-0.4924,-21.455,-57.610,28.770,0.00,19.4317,37.0617,53.4198,8.5170,2025-06-12T14:20:35.333138
29143,-0.5148,0.2621,-0.4914,-15.960,-56.770,26.880,0.01,19.4317,32.0711,47.5799,8.5170,2025-06-12T14:20:35.333138
29144,-0.5061,0.2850,-0.4656,-12.530,-52.990,24.885,0.00,22.8498,32.0711,49.0418,7.4855,2025-06-12T14:20:35.333138
29145,-0.5197,0.3055,-0.4626,-9.905,-49.700,22.750,0.00,19.4317,32.0711,44.6525,8.5170,2025-06-12T14:20:35.333138
29146,-0.5632,0.3314,-0.4543,-7.595,-47.845,20.580,0.00,19.4317,32.0711,44.6525,8.5170,2025-06-12T14:20:35.333138
29147,-0.6232,0.3582,-0.4538,-4.095,-49.035,19.075,0.00,19.4317,27.0568,44.6525,8.5170,2025-06-12T14:20:35.333138
29148,-0.6900,0.3904,-0.4558,0.385,-54.670,18.515,0.01,19.4317,32.0711,40.2520,7.4855,2025-06-12T14:20:35.333138
29149,-0.7344,0.4377,-0.4451,3.710,-61.530,19.600,0.01,19.4317,27.0568,41.7201,7.4855,2025-06-12T14:20:35.333138
29150,-0.7569,0.4782,-0.4626,6.475,-70.280,20.335,0.00,19.4317,32.0711,44.6525,8.5170,2025-06-12T14:20:35.516008
29151,-0.7725,0.5197,-0.4631,8.050,-74.795,20.965,0.00,19.4317,32.0711,41.7201,8.5170,2025-06-12T14:20:35.516008
29152,-0.8086,0.5500,-0.4436,8.645,-78.190,21.560,0.01,22.8498,32.0711,41.7201,9.5491,2025-06-12T14:20:35.516008
29153,-0.8379,0.5705,-0.4104,8.225,-89.565,23.835,0.00,22.8498,32.0711,44.6525,8.5170,2025-06-12T14:20:35.516008
29154,-0.8818,0.6281,-0.3533,7.105,-86.240,26.810,0.00,22.8498,32.0711,43.1869,9.5491,2025-06-12T14:20:35.516008
29155,-0.8891,0.6617,-0.3714,6.230,-89.530,31.990,0.00,19.4317,27.0568,40.2520,8.5170,2025-06-12T14:20:35.516008
29156,-0.9243,0.6866,-0.3558,5.180,-91.945,35.105,0.00,19.4317,32.0711,40.2520,9.5491,2025-06-12T14:20:35.516008
29157,-0.9457,0.6808,-0.3362,3.500,-94.605,38.395,0.00,19.4317,46.9713,40.2520,9.5491,2025-06-12T14:20:35.516008
29158,-0.9418,0.6793,-0.3167,0.525,-99.505,40.320,0.00,19.4317,51.8904,40.2520,8.5170,2025-06-12T14:20:35.516008
29159,-0.9628,0.6886,-0.2874,-0.315,-109.375,42.210,0.00,19.4317,51.8904,40.2520,9.5491,2025-06-12T14:20:35.516008
29160,-0.9316,0.6715,-0.2513,-1.645,-117.250,43.330,0.00,19.4317,51.8904,41.7201,8.5170,2025-06-12T14:20:35.516008
29161,-0.8662,0.6515,-0.2625,-2.975,-124.530,43.610,0.00,16.0028,51.8904,38.7827,8.5170,2025-06-12T14:20:35.517078
29162,-0.8267,0.6412,-0.2494,-4.095,-126.595,42.875,0.00,19.4317,61.6572,41.7201,9.5491,2025-06-12T14:20:35.517078
29163,-0.8438,0.6451,-0.2211,-5.355,-127.750,41.160,0.01,19.4317,66.5049,38.7827,10.5817,2025-06-12T14:20:35.609432
29164,-0.8486,0.6227,-0.1991,-6.475,-133.070,37.730,0.01,19.4317,66.5049,41.7201,10.5817,2025-06-12T14:20:35.610427
29165,-0.8330,0.6139,-0.1728,-5.845,-140.945,35.035,0.01,22.8498,71.3288,35.8403,9.5491,2025-06-12T14:20:36.266689
29166,-0.7969,0.6154,-0.1586,-4.410,-151.935,31.220,0.00,16.0028,76.1289,38.7827,10.5817,2025-06-12T14:20:36.266689
29167,-0.7906,0.6227,-0.1259,-3.010,-160.265,27.685,0.00,19.4317,85.6576,40.2520,11.6148,2025-06-12T14:20:36.266689
29168,-0.7091,0.6183,-0.0820,-3.430,-163.275,22.575,0.00,19.4317,85.6576,35.8403,11.6148,2025-06-12T14:20:36.266689
29169,-0.6525,0.6012,-0.0669,-5.250,-162.295,18.235,0.00,16.0028,80.9051,31.4173,10.5817,2025-06-12T14:20:36.266689
29170,-0.6407,0.5778,-0.0561,-7.210,-158.445,13.790,0.00,19.4317,85.6576,32.8929,11.6148,2025-06-12T14:20:36.266689
29171,-0.6315,0.6032,-0.0239,-8.645,-152.880,7.280,0.00,19.4317,85.6576,31.4173,10.5817,2025-06-12T14:20:36.266689
29172,-0.6066,0.5929,0.0146,-10.920,-146.405,2.240,0.00,19.4317,90.3862,29.9405,9.5491,2025-06-12T14:20:36.266689
29173,-0.5915,0.5685,0.0244,-12.740,-136.780,-3.150,0.01,19.4317,90.3862,29.9405,9.5491,2025-06-12T14:20:36.266689
29174,-0.5880,0.5675,0.0771,-14.420,-128.380,-6.720,0.00,22.8498,90.3862,31.4173,11.6148,2025-06-12T14:20:36.266689
29175,-0.5836,0.5514,0.0986,-16.170,-117.145,-9.835,0.00,19.4317,95.0911,31.4173,11.6148,2025-06-12T14:20:36.266689
29176,-0.6178,0.5144,0.1137,-16.940,-107.975,-11.900,0.00,22.8498,95.0911,31.4173,12.6484,2025-06-12T14:20:36.266689
29177,-0.6061,0.4900,0.1635,-15.050,-98.735,-12.390,0.00,19.4317,99.7721,35.8403,12.6484,2025-06-12T14:20:36.266689
29178,-0.6427,0.4826,0.1898,-12.040,-91.770,-11.130,0.01,19.4317,99.7721,34.3672,13.6826,2025-06-12T14:20:36.266689
29179,-0.6271,0.4787,0.1986,-8.295,-86.135,-8.575,0.00,19.4317,104.4293,37.3121,12.6484,2025-06-12T14:20:36.266689
29180,-0.6320,0.4812,0.2206,-3.325,-76.755,-6.650,0.00,19.4317,104.4293,35.8403,12.6484,2025-06-12T14:20:36.266689
29181,-0.6217,0.4787,0.2420,0.630,-65.065,-5.005,0.00,19.4317,104.4293,31.4173,13.6826,2025-06-12T14:20:36.266689
29182,-0.5846,0.4748,0.2625,4.725,-53.795,-3.605,0.00,19.4317,99.7721,31.4173,13.6826,2025-06-12T14:20:36.266689
29183,-0.5724,0.4729,0.2694,8.610,-40.285,-2.205,0.00,16.0028,99.7721,29.9405,13.6826,2025-06-12T14:20:36.266689
29184,-0.5861,0.4665,0.2869,12.285,-30.310,-1.050,0.00,19.4317,99.7721,28.4624,12.6484,2025-06-12T14:20:36.266689
29185,-0.5983,0.4631,0.3011,16.240,-21.840,-0.175,0.00,22.8498,104.4293,28.4624,13.6826,2025-06-12T14:20:36.266689
29186,-0.6051,0.4626,0.3070,19.390,-16.520,0.035,0.01,19.4317,104.4293,31.4173,13.6826,2025-06-12T14:20:36.266689
29187,-0.6305,0.4612,0.3152,22.890,-12.565,-0.875,0.00,16.0028,104.4293,32.8929,13.6826,2025-06-12T14:20:36.266689
29188,-0.6510,0.4592,0.3187,25.760,-11.690,-2.625,0.00,19.4317,99.7721,29.9405,13.6826,2025-06-12T14:20:36.266689
29189,-0.6559,0.4519,0.3196,29.890,-12.285,-4.760,0.00,19.4317,104.4293,32.8929,13.6826,2025-06-12T14:20:36.266689
29190,-0.6651,0.4597,0.3250,33.250,-13.055,-8.155,0.00,16.0028,109.0627,34.3672,13.6826,2025-06-12T14:20:36.266689
29191,-0.6554,0.4675,0.3562,38.570,-11.725,-11.445,0.00,19.4317,104.4293,32.8929,12.6484,2025-06-12T14:20:36.266689
29192,-0.6349,0.4675,0.3836,53.515,-6.650,-14.875,0.01,19.4317,104.4293,31.4173,13.6826,2025-06-12T14:20:36.266689
29193,-0.5983,0.4875,0.4011,52.150,2.660,-17.570,0.01,19.4317,99.7721,31.4173,13.6826,2025-06-12T14:20:36.266689
29194,-0.6178,0.4958,0.3938,57.470,18.235,-18.760,0.00,19.4317,99.7721,31.4173,13.6826,2025-06-12T14:20:36.266689
29195,-0.7076,0.4943,0.3660,61.285,28.980,-19.530,0.00,19.4317,99.7721,32.8929,13.6826,2025-06-12T14:20:36.266689
29196,-0.8003,0.4773,0.3260,65.170,25.515,-19.320,0.01,19.4317,99.7721,29.9405,13.6826,2025-06-12T14:20:36.266689
29197,-0.8618,0.4685,0.2913,67.900,13.790,-19.040,0.01,19.4317,99.7721,31.4173,13.6826,2025-06-12T14:20:36.266689
29198,-0.8804,0.4616,0.2669,69.370,2.730,-18.865,0.01,16.0028,104.4293,34.3672,13.6826,2025-06-12T14:20:36.266689
29199,-0.8613,0.4675,0.2406,69.860,-7.175,-19.005,0.00,19.4317,99.7721,32.8929,12.6484,2025-06-12T14:20:36.266689
29200,-0.8281,0.4685,0.2455,69.475,-10.640,-19.740,0.00,19.4317,99.7721,31.4173,13.6826,2025-06-12T14:20:36.266689
29201,-0.8203,0.4548,0.2547,69.615,-10.080,-20.825,0.01,16.0028,104.4293,32.8929,12.6484,2025-06-12T14:20:36.266689
29202,-0.8267,0.4407,0.2557,71.400,-9.065,-22.155,0.00,19.4317,99.7721,32.8929,14.7173,2025-06-12T14:20:36.266689
29203,-0.8286,0.4499,0.2464,76.090,-9.100,-23.485,0.00,19.4317,104.4293,31.4173,13.6826,2025-06-12T14:20:36.266689
29204,-0.8311,0.4641,0.2303,89.495,-10.045,-26.390,0.00,19.4317,99.7721,28.4624,12.6484,2025-06-12T14:20:36.267622
29205,-0.8213,0.4787,0.2137,87.080,-11.410,-29.750,0.01,19.4317,95.0911,35.8403,12.6484,2025-06-12T14:20:36.267622
29206,-0.8433,0.4592,0.1879,89.845,-11.270,-33.355,0.00,19.4317,99.7721,28.4624,11.6148,2025-06-12T14:20:36.267622
29207,-0.8413,0.4582,0.1586,93.520,-17.115,-37.450,0.00,19.4317,104.4293,34.3672,13.6826,2025-06-12T14:20:36.267622
29208,-0.8154,0.4250,0.1581,97.475,-5.950,-40.250,0.00,19.4317,99.7721,32.8929,13.6826,2025-06-12T14:20:36.267622
29209,-0.8159,0.4397,0.1410,101.570,-5.705,-43.960,0.00,19.4317,109.0627,28.4624,14.7173,2025-06-12T14:20:36.267622
29210,-0.8301,0.4846,0.1196,105.455,-4.235,-45.850,0.00,19.4317,109.0627,29.9405,15.7525,2025-06-12T14:20:36.267622
29211,-0.8457,0.4709,0.1035,106.890,-2.380,-45.535,0.00,19.4317,113.6723,31.4173,14.7173,2025-06-12T14:20:36.267622
29212,-0.8525,0.4558,0.0996,110.355,-2.415,-45.220,0.01,22.8498,113.6723,32.8929,14.7173,2025-06-12T14:20:36.267622
29213,-0.8999,0.3904,0.0473,113.470,-5.180,-44.485,0.00,22.8498,109.0627,37.3121,15.7525,2025-06-12T14:20:36.267622
29214,-0.8652,0.3850,0.0512,116.060,-7.070,-43.715,0.00,22.8498,109.0627,34.3672,14.7173,2025-06-12T14:20:36.267622
29215,-0.9150,0.4124,0.0200,117.635,-8.505,-42.210,0.00,19.4317,109.0627,38.7827,15.7525,2025-06-12T14:20:36.326819
29216,-0.9126,0.4163,-0.0088,117.250,-7.140,-40.320,0.01,22.8498,113.6723,35.8403,14.7173,2025-06-12T14:20:36.326819
29217,-0.8984,0.4660,-0.0161,116.830,-5.810,-38.780,0.01,19.4317,113.6723,35.8403,15.7525,2025-06-12T14:20:36.326819
29218,-0.8999,0.4631,-0.0268,117.145,-5.110,-37.695,0.00,19.4317,109.0627,37.3121,15.7525,2025-06-12T14:20:36.326819
29219,-0.9091,0.4807,-0.0669,118.230,-5.670,-36.680,0.01,19.4317,109.0627,37.3121,15.7525,2025-06-12T14:20:36.326819
29220,-0.9160,0.4651,-0.1157,117.110,-6.685,-34.790,0.00,22.8498,109.0627,35.8403,15.7525,2025-06-12T14:20:36.326819
29221,-0.9228,0.4724,-0.1362,116.480,-8.750,-33.530,0.01,19.4317,109.0627,35.8403,15.7525,2025-06-12T14:20:36.326819
29222,-0.9160,0.4709,-0.1601,115.430,-10.150,-30.625,0.00,19.4317,113.6723,35.8403,16.7882,2025-06-12T14:20:36.764158
29223,-0.8969,0.4743,-0.1547,114.065,-11.620,-28.455,0.00,19.4317,109.0627,35.8403,15.7525,2025-06-12T14:20:36.764158
29224,-0.8823,0.4607,-0.1713,112.805,-10.430,-26.390,0.01,19.4317,109.0627,35.8403,16.7882,2025-06-12T14:20:36.765154
29225,-0.8828,0.4778,-0.1645,110.285,-5.810,-25.410,0.00,22.8498,109.0627,29.9405,16.7882,2025-06-12T14:20:36.765154
29226,-0.8901,0.4865,-0.1630,106.330,0.770,-25.060,0.00,19.4317,109.0627,26.9831,15.7525,2025-06-12T14:20:36.765154
29227,-0.8984,0.4997,-0.1845,102.585,7.455,-24.500,0.00,19.4317,109.0627,31.4173,16.7882,2025-06-12T14:20:36.765154
29228,-0.8955,0.4968,-0.1923,97.580,11.760,-23.765,0.00,22.8498,109.0627,24.0207,15.7525,2025-06-12T14:20:36.765154
29229,-0.9062,0.4904,-0.2020,92.085,15.015,-23.135,0.00,22.8498,109.0627,25.5025,16.7882,2025-06-12T14:20:36.765648
29230,-0.9008,0.4753,-0.2089,87.850,16.590,-23.555,0.00,22.8498,109.0627,24.0207,15.7525,2025-06-12T14:20:36.765648
29231,-0.8823,0.4695,-0.2045,82.950,17.045,-24.465,0.00,19.4317,109.0627,25.5025,16.7882,2025-06-12T14:20:36.765648
29232,-0.8989,0.4821,-0.2167,79.345,15.540,-26.250,0.01,22.8498,109.0627,22.5376,16.7882,2025-06-12T14:20:36.765648
29233,-0.9233,0.4856,-0.2440,74.025,12.250,-27.580,0.00,16.0028,109.0627,18.0810,16.7882,2025-06-12T14:20:36.765648
29234,-0.9345,0.4709,-0.2445,70.840,7.735,-29.365,0.00,19.4317,109.0627,18.0810,16.7882,2025-06-12T14:20:36.765648
29235,-0.9091,0.4460,-0.2503,66.920,5.180,-30.485,0.01,19.4317,113.6723,21.0533,16.7882,2025-06-12T14:20:36.765648
29236,-0.8901,0.4387,-0.2586,62.965,4.235,-32.340,0.01,19.4317,113.6723,19.5678,16.7882,2025-06-12T14:20:36.765648
29237,-0.8672,0.4372,-0.2791,58.835,7.280,-34.300,0.01,19.4317,113.6723,18.0810,16.7882,2025-06-12T14:20:36.765648
29238,-0.8574,0.4299,-0.2957,53.445,11.655,-35.805,0.01,19.4317,109.0627,21.0533,16.7882,2025-06-12T14:20:36.766147
29239,-0.8462,0.4192,-0.2913,47.215,19.215,-38.045,0.01,19.4317,113.6723,21.0533,15.7525,2025-06-12T14:20:36.766147
29240,-0.8560,0.3948,-0.2996,42.455,25.410,-40.530,0.01,19.4317,113.6723,19.5678,16.7882,2025-06-12T14:20:36.766147
29241,-0.8691,0.3675,-0.3099,37.415,30.170,-42.140,0.01,16.0028,109.0627,19.5678,15.7525,2025-06-12T14:20:36.766147
29242,-0.8921,0.3348,-0.3177,34.230,30.905,-43.645,0.01,16.0028,113.6723,19.5678,15.7525,2025-06-12T14:20:36.766147
29243,-0.8960,0.3123,-0.3270,31.115,29.750,-44.800,0.00,19.4317,113.6723,19.5678,16.7882,2025-06-12T14:20:36.766147
29244,-0.9013,0.3011,-0.3367,29.260,28.245,-46.480,0.00,19.4317,109.0627,16.5929,15.7525,2025-06-12T14:20:36.766147
29245,-0.8847,0.3079,-0.3514,28.210,28.000,-48.930,0.00,19.4317,113.6723,19.5678,16.7882,2025-06-12T14:20:36.766147
29246,-0.8804,0.3099,-0.3587,24.570,30.310,-50.960,0.00,16.0028,109.0627,18.0810,15.7525,2025-06-12T14:20:36.766147
29247,-0.9028,0.3055,-0.3289,21.840,33.425,-53.200,0.01,19.4317,113.6723,18.0810,16.7882,2025-06-12T14:20:36.766147
29248,-0.9160,0.2933,-0.2957,20.335,35.315,-54.285,0.00,19.4317,109.0627,21.0533,15.7525,2025-06-12T14:20:36.766147
29249,-0.9672,0.2879,-0.2582,20.650,33.915,-52.500,0.00,19.4317,109.0627,19.5678,15.7525,2025-06-12T14:20:36.766147
29250,-0.9882,0.2865,-0.2367,19.985,33.705,-49.665,0.01,19.4317,109.0627,18.0810,15.7525,2025-06-12T14:20:36.766147
29251,-1.0043,0.2889,-0.1962,19.915,32.655,-45.185,0.00,19.4317,109.0627,19.5678,15.7525,2025-06-12T14:20:36.770192
29252,-1.0009,0.3152,-0.1649,18.900,33.425,-39.375,0.01,22.8498,109.0627,21.0533,16.7882,2025-06-12T14:20:36.770192
29253,-0.9921,0.3343,-0.1347,16.730,38.290,-33.740,0.00,19.4317,109.0627,19.5678,15.7525,2025-06-12T14:20:36.858128
29254,-1.0033,0.3436,-0.0786,12.390,47.425,-29.470,0.00,19.4317,109.0627,21.0533,15.7525,2025-06-12T14:20:36.858128
29255,-1.0492,0.3396,-0.0669,7.595,52.185,-23.450,0.00,19.4317,109.0627,21.0533,15.7525,2025-06-12T14:20:36.858128
29256,-1.0741,0.3245,-0.0566,4.060,49.315,-16.765,0.00,22.8498,109.0627,21.0533,15.7525,2025-06-12T14:20:36.858128
29257,-1.0721,0.3235,-0.0351,0.070,42.735,-11.585,0.00,19.4317,109.0627,19.5678,15.7525,2025-06-12T14:20:36.858128
29258,-1.0580,0.3060,-0.0434,-3.290,35.350,-5.285,0.00,19.4317,109.0627,19.5678,15.7525,2025-06-12T14:20:36.858128
29259,-1.0404,0.2835,-0.0527,-5.740,26.005,-1.050,0.00,22.8498,104.4293,21.0533,15.7525,2025-06-12T14:20:36.858128
29260,-1.0038,0.2640,-0.0722,-7.595,18.760,2.975,0.01,19.4317,109.0627,21.0533,15.7525,2025-06-12T14:20:37.122671
29261,-0.9701,0.2435,-0.0917,-9.380,15.435,5.740,0.00,19.4317,109.0627,21.0533,16.7882,2025-06-12T14:20:37.122671
29262,-0.9453,0.2342,-0.1000,-10.360,14.105,8.330,0.00,19.4317,109.0627,21.0533,15.7525,2025-06-12T14:20:37.122671
29263,-0.9370,0.2094,-0.1225,-10.535,14.140,10.255,0.01,19.4317,109.0627,21.0533,15.7525,2025-06-12T14:20:37.122671
29264,-0.9492,0.1835,-0.1542,-9.765,13.510,13.265,0.01,19.4317,104.4293,21.0533,15.7525,2025-06-12T14:20:37.122671
29265,-0.9633,0.1566,-0.1889,-8.260,12.215,16.345,0.00,19.4317,109.0627,22.5376,15.7525,2025-06-12T14:20:37.122671
29266,-0.9755,0.1396,-0.2147,-5.530,10.395,18.515,0.01,16.0028,104.4293,21.0533,15.7525,2025-06-12T14:20:37.122671
29267,-0.9770,0.1181,-0.2440,-2.415,9.030,20.720,0.00,19.4317,99.7721,19.5678,14.7173,2025-06-12T14:20:37.122671
29268,-0.9775,0.0986,-0.2908,2.275,8.505,21.875,0.01,16.0028,104.4293,21.0533,14.7173,2025-06-12T14:20:37.122671
29269,-0.9794,0.0669,-0.3411,7.035,9.345,22.785,0.01,16.0028,104.4293,18.0810,15.7525,2025-06-12T14:20:37.122671
29270,-0.9897,0.0410,-0.4070,13.685,11.900,23.100,0.01,19.4317,104.4293,18.0810,15.7525,2025-06-12T14:20:37.122671
29271,-0.9936,0.0083,-0.4602,19.215,17.675,23.030,0.00,16.0028,99.7721,18.0810,13.6826,2025-06-12T14:20:37.122671
29272,-1.0004,-0.0088,-0.5090,25.130,24.395,22.050,0.00,19.4317,99.7721,19.5678,13.6826,2025-06-12T14:20:37.122671
29273,-1.0146,-0.0224,-0.5573,31.465,32.480,19.810,0.01,19.4317,95.0911,19.5678,13.6826,2025-06-12T14:20:37.122671
29274,-1.0394,-0.0434,-0.5900,36.540,37.450,17.010,0.00,19.4317,95.0911,18.0810,13.6826,2025-06-12T14:20:37.122671
29275,-1.0575,-0.0639,-0.6115,41.965,39.970,15.365,0.01,22.8498,95.0911,21.0533,14.7173,2025-06-12T14:20:37.122671
29276,-1.0673,-0.0854,-0.6251,46.025,38.990,15.190,0.01,22.8498,99.7721,21.0533,14.7173,2025-06-12T14:20:37.169555
29277,-1.0643,-0.1039,-0.6320,51.835,36.680,15.470,0.01,19.4317,99.7721,21.0533,13.6826,2025-06-12T14:20:37.169555
29278,-1.0487,-0.1142,-0.6676,56.735,32.375,15.505,0.00,19.4317,95.0911,21.0533,14.7173,2025-06-12T14:20:37.169555
29279,-1.0185,-0.1166,-0.6866,60.760,27.825,14.805,0.01,19.4317,99.7721,18.0810,13.6826,2025-06-12T14:20:37.169555
29280,-0.9867,-0.1122,-0.6959,64.085,24.850,14.035,0.01,19.4317,99.7721,18.0810,13.6826,2025-06-12T14:20:37.169555
29281,-0.9506,-0.1020,-0.6852,66.885,21.385,12.985,0.00,22.8498,95.0911,19.5678,13.6826,2025-06-12T14:20:37.169555
29282,-0.9335,-0.1020,-0.6876,69.195,17.745,11.970,0.01,19.4317,95.0911,18.0810,14.7173,2025-06-12T14:20:37.217611
29283,-0.9121,-0.1054,-0.6764,72.135,11.690,11.620,0.01,19.4317,99.7721,18.0810,14.7173,2025-06-12T14:20:37.217611
29284,-0.8696,-0.1064,-0.6695,74.620,5.495,11.970,0.00,19.4317,99.7721,18.0810,14.7173,2025-06-12T14:20:37.217611
29285,-0.8335,-0.0966,-0.6393,76.825,1.295,12.320,0.01,19.4317,95.0911,19.5678,13.6826,2025-06-12T14:20:37.217611
29286,-0.7842,-0.0908,-0.6354,78.295,-0.175,13.615,0.00,22.8498,99.7721,16.5929,13.6826,2025-06-12T14:20:37.664391
29287,-0.7354,-0.0815,-0.6129,79.380,-1.365,14.245,0.01,22.8498,99.7721,18.0810,13.6826,2025-06-12T14:20:37.664391
29288,-0.7247,-0.0732,-0.5958,80.290,-3.045,14.945,0.01,19.4317,99.7721,21.0533,13.6826,2025-06-12T14:20:37.664391
29289,-0.7188,-0.0659,-0.5817,80.850,-5.915,15.120,0.00,22.8498,95.0911,16.5929,13.6826,2025-06-12T14:20:37.664391
29290,-0.7130,-0.0551,-0.5680,81.165,-9.590,14.980,0.01,19.4317,95.0911,18.0810,13.6826,2025-06-12T14:20:37.664391
29291,-0.7081,-0.0468,-0.5539,81.865,-14.945,14.875,0.00,22.8498,95.0911,18.0810,12.6484,2025-06-12T14:20:37.664391
29292,-0.7183,-0.0337,-0.5480,81.760,-20.790,14.560,0.01,19.4317,95.0911,19.5678,13.6826,2025-06-12T14:20:37.664391
29293,-0.7218,-0.0239,-0.5597,81.550,-26.250,14.140,0.00,19.4317,95.0911,18.0810,13.6826,2025-06-12T14:20:37.664391
29294,-0.7330,-0.0234,-0.5729,81.025,-32.515,13.615,0.00,19.4317,95.0911,19.5678,13.6826,2025-06-12T14:20:37.664391
29295,-0.7462,-0.0156,-0.5924,80.465,-36.435,13.335,0.00,19.4317,99.7721,19.5678,12.6484,2025-06-12T14:20:37.664391
29296,-0.7598,-0.0127,-0.6149,80.220,-39.795,12.460,0.00,19.4317,99.7721,21.0533,12.6484,2025-06-12T14:20:37.664391
29297,-0.7891,-0.0112,-0.6451,80.570,-41.370,11.725,0.00,19.4317,95.0911,19.5678,12.6484,2025-06-12T14:20:37.664391
29298,-0.8189,-0.0151,-0.6754,80.955,-42.805,11.900,0.00,19.4317,95.0911,19.5678,12.6484,2025-06-12T14:20:37.664391
29299,-0.8555,-0.0146,-0.6749,81.340,-43.680,13.020,0.00,19.4317,99.7721,19.5678,13.6826,2025-06-12T14:20:37.664391
29300,-0.8760,-0.0181,-0.6934,80.885,-43.925,15.225,0.00,22.8498,95.0911,19.5678,12.6484,2025-06-12T14:20:37.664391
29301,-0.8994,-0.0220,-0.7052,79.800,-43.960,19.425,0.00,19.4317,95.0911,19.5678,12.6484,2025-06-12T14:20:37.664391
29302,-0.9057,-0.0181,-0.6930,78.330,-43.050,23.345,0.01,22.8498,90.3862,18.0810,12.6484,2025-06-12T14:20:37.678233
29303,-0.9087,-0.0083,-0.6861,76.475,-40.985,27.930,0.01,19.4317,95.0911,18.0810,12.6484,2025-06-12T14:20:37.678505
29304,-0.9194,-0.0015,-0.6822,74.305,-38.745,32.165,0.01,22.8498,90.3862,19.5678,12.6484,2025-06-12T14:20:37.678505
29305,-0.9116,0.0063,-0.6554,71.645,-36.435,34.545,0.01,19.4317,95.0911,19.5678,12.6484,2025-06-12T14:20:37.678505
29306,-0.9121,0.0088,-0.6349,68.495,-33.495,36.820,0.00,22.8498,95.0911,21.0533,12.6484,2025-06-12T14:20:37.678505
29307,-0.9194,0.0024,-0.6515,65.415,-32.480,39.340,0.00,22.8498,95.0911,21.0533,12.6484,2025-06-12T14:20:37.678505
29308,-0.9272,0.0029,-0.6368,61.600,-33.495,41.090,0.01,22.8498,95.0911,21.0533,12.6484,2025-06-12T14:20:37.678505
29309,-0.9301,0.0098,-0.6022,58.730,-34.510,42.525,0.00,22.8498,90.3862,19.5678,11.6148,2025-06-12T14:20:37.678505
29310,-0.9228,0.0093,-0.5866,55.195,-35.595,43.820,0.01,22.8498,95.0911,19.5678,12.6484,2025-06-12T14:20:37.678505
29311,-0.9228,0.0078,-0.5846,52.325,-37.660,45.780,0.01,22.8498,95.0911,19.5678,12.6484,2025-06-12T14:20:37.678505
29312,-0.9184,0.0112,-0.5510,49.665,-38.325,46.235,0.00,19.4317,95.0911,21.0533,11.6148,2025-06-12T14:20:37.678505
29313,-0.9150,0.0107,-0.5358,46.935,-38.290,46.480,0.00,19.4317,95.0911,21.0533,12.6484,2025-06-12T14:20:37.678505
29314,-0.9199,0.0068,-0.5529,44.590,-39.165,47.110,0.00,22.8498,95.0911,19.5678,12.6484,2025-06-12T14:20:37.678505
29315,-0.9179,0.0083,-0.5456,41.510,-39.620,47.530,0.00,22.8498,95.0911,19.5678,11.6148,2025-06-12T14:20:37.984409
29316,-0.9155,0.0161,-0.5236,38.675,-38.500,47.250,0.00,22.8498,90.3862,19.5678,11.6148,2025-06-12T14:20:37.984409
29317,-0.9194,0.0273,-0.4880,34.510,-36.750,46.445,0.00,19.4317,95.0911,19.5678,12.6484,2025-06-12T14:20:37.984409
29318,-0.9560,0.0298,-0.4982,28.595,-36.470,45.745,0.00,22.8498,95.0911,19.5678,12.6484,2025-06-12T14:20:37.984409
29319,-0.9970,0.0278,-0.5144,23.275,-38.815,44.275,0.01,22.8498,95.0911,19.5678,12.6484,2025-06-12T14:20:37.984409
29320,-1.0350,0.0273,-0.4978,17.150,-42.280,42.350,0.01,22.8498,90.3862,19.5678,12.6484,2025-06-12T14:20:37.984409
29321,-1.0804,0.0171,-0.4943,11.725,-48.615,40.390,0.01,22.8498,95.0911,21.0533,11.6148,2025-06-12T14:20:37.984409
29322,-1.1292,-0.0059,-0.4919,8.855,-56.980,39.375,0.01,19.4317,95.0911,19.5678,12.6484,2025-06-12T14:20:37.984409
29323,-1.1531,-0.0249,-0.4841,8.855,-67.760,38.185,0.00,22.8498,99.7721,21.0533,12.6484,2025-06-12T14:20:37.984409
29324,-1.1366,-0.0527,-0.4773,9.240,-77.420,37.625,0.00,19.4317,95.0911,21.0533,12.6484,2025-06-12T14:20:37.984409
29325,-1.0931,-0.0576,-0.4070,9.765,-83.615,38.850,0.00,19.4317,95.0911,21.0533,12.6484,2025-06-12T14:20:37.984409
29326,-1.0067,-0.0410,-0.3333,9.800,-87.535,42.140,0.00,19.4317,95.0911,22.5376,11.6148,2025-06-12T14:20:37.984409
29327,-0.9462,-0.0229,-0.2557,8.715,-88.550,44.940,0.01,22.8498,95.0911,22.5376,12.6484,2025-06-12T14:20:37.984409
29328,-0.8628,-0.0137,-0.2089,6.685,-88.445,47.950,0.01,22.8498,95.0911,21.0533,11.6148,2025-06-12T14:20:37.984409
29329,-0.8052,-0.0117,-0.1757,6.195,-84.910,48.965,0.01,19.4317,95.0911,19.5678,12.6484,2025-06-12T14:20:37.985406
29330,-0.7671,-0.0195,-0.1669,5.985,-80.850,47.600,0.00,19.4317,90.3862,19.5678,11.6148,2025-06-12T14:20:37.985406
29331,-0.7383,-0.0210,-0.1493,7.665,-76.020,43.050,0.00,22.8498,95.0911,19.5678,11.6148,2025-06-12T14:20:37.985406
29332,-0.7247,-0.0288,-0.1449,9.275,-67.655,37.625,0.00,22.8498,95.0911,19.5678,12.6484,2025-06-12T14:20:38.294156
29333,-0.7017,-0.0434,-0.1410,10.990,-58.205,30.765,0.01,19.4317,95.0911,19.5678,11.6148,2025-06-12T14:20:38.294156
29334,-0.6969,-0.0498,-0.1132,13.265,-49.945,25.165,0.00,22.8498,95.0911,21.0533,11.6148,2025-06-12T14:20:38.294156
29335,-0.7100,-0.0610,-0.0742,15.260,-40.775,19.775,0.01,22.8498,95.0911,19.5678,12.6484,2025-06-12T14:20:38.294156
29336,-0.7466,-0.0703,-0.0698,16.310,-37.170,15.960,0.01,19.4317,95.0911,19.5678,12.6484,2025-06-12T14:20:38.294156
29337,-0.7862,-0.0717,-0.0664,19.320,-37.800,12.530,0.00,19.4317,95.0911,18.0810,11.6148,2025-06-12T14:20:38.294156
29338,-0.8023,-0.0615,-0.0566,22.785,-40.145,7.245,0.00,19.4317,95.0911,16.5929,12.6484,2025-06-12T14:20:38.294156
29339,-0.7935,-0.0537,-0.0625,27.265,-40.880,2.275,0.00,19.4317,95.0911,18.0810,11.6148,2025-06-12T14:20:38.294156
29340,-0.7901,-0.0503,-0.0722,31.150,-39.165,-4.340,0.00,19.4317,95.0911,18.0810,12.6484,2025-06-12T14:20:38.294156
29341,-0.7847,-0.0459,-0.0654,35.350,-34.790,-9.975,0.00,22.8498,90.3862,19.5678,12.6484,2025-06-12T14:20:38.295176
29342,-0.7862,-0.0444,-0.0600,38.290,-27.055,-15.890,0.00,16.0028,95.0911,21.0533,12.6484,2025-06-12T14:20:38.295176
29343,-0.7886,-0.0508,-0.0429,40.600,-19.005,-20.545,0.00,16.0028,95.0911,19.5678,12.6484,2025-06-12T14:20:38.295176
29344,-0.8072,-0.0488,-0.0356,42.665,-8.155,-22.960,0.00,19.4317,90.3862,19.5678,12.6484,2025-06-12T14:20:38.295176
29345,-0.8408,-0.0429,-0.0278,43.890,1.610,-24.920,0.01,19.4317,95.0911,19.5678,12.6484,2025-06-12T14:20:38.295176
29346,-0.8618,-0.0327,-0.0224,45.465,8.050,-25.970,0.00,16.0028,95.0911,21.0533,12.6484,2025-06-12T14:20:38.296167
29347,-0.8965,-0.0239,-0.0190,46.515,13.965,-27.055,0.00,19.4317,99.7721,19.5678,12.6484,2025-06-12T14:20:38.296167
29348,-0.9023,-0.0195,-0.0068,47.565,17.640,-28.140,0.01,22.8498,95.0911,19.5678,12.6484,2025-06-12T14:20:38.296167
29349,-0.8979,-0.0195,-0.0151,48.650,21.175,-28.700,0.00,19.4317,95.0911,21.0533,12.6484,2025-06-12T14:20:38.296167
29350,-0.9004,-0.0220,-0.0195,49.245,23.695,-29.365,0.00,19.4317,95.0911,21.0533,13.6826,2025-06-12T14:20:38.296167
29351,-0.8994,-0.0171,0.0054,50.190,26.005,-29.750,0.00,16.0028,95.0911,21.0533,11.6148,2025-06-12T14:20:38.296167
29352,-0.9018,-0.0146,0.0049,51.170,26.320,-29.400,0.00,16.0028,90.3862,19.5678,12.6484,2025-06-12T14:20:38.296167
29353,-0.9257,-0.0161,-0.0059,52.885,24.465,-29.225,0.00,16.0028,95.0911,21.0533,11.6148,2025-06-12T14:20:38.297163
29354,-0.9228,-0.0195,-0.0107,54.705,21.490,-30.170,0.00,19.4317,95.0911,21.0533,12.6484,2025-06-12T14:20:38.297163
29355,-0.9106,-0.0137,-0.0034,56.840,19.950,-31.325,0.00,19.4317,90.3862,21.0533,13.6826,2025-06-12T14:20:38.297163
29356,-0.9023,-0.0156,-0.0190,58.625,19.670,-32.200,0.00,19.4317,95.0911,21.0533,12.6484,2025-06-12T14:20:38.297163
29357,-0.8896,-0.0112,-0.0346,59.710,21.070,-32.690,0.00,19.4317,95.0911,19.5678,12.6484,2025-06-12T14:20:38.297163
29358,-0.8818,-0.0132,-0.0522,60.410,26.250,-33.075,0.00,19.4317,95.0911,21.0533,11.6148,2025-06-12T14:20:38.297936
29359,-0.8862,-0.0098,-0.0478,60.725,34.055,-33.355,0.00,19.4317,95.0911,21.0533,12.6484,2025-06-12T14:20:38.297936
29360,-0.9194,-0.0093,-0.0727,61.180,38.780,-32.900,0.00,19.4317,95.0911,21.0533,11.6148,2025-06-12T14:20:38.297936
29361,-0.9716,-0.0117,-0.0927,60.830,41.230,-31.675,0.01,19.4317,99.7721,22.5376,12.6484,2025-06-12T14:20:38.298183
29362,-1.0111,-0.0107,-0.1049,60.025,40.355,-30.450,0.00,19.4317,90.3862,19.5678,11.6148,2025-06-12T14:20:38.300156
29363,-1.0365,-0.0054,-0.1113,58.835,37.380,-28.945,0.01,19.4317,99.7721,19.5678,12.6484,2025-06-12T14:20:38.575382
29364,-1.0424,-0.0020,-0.1186,56.805,35.315,-26.740,0.00,19.4317,95.0911,21.0533,12.6484,2025-06-12T14:20:38.575382
29365,-1.0590,0.0010,-0.1362,55.125,33.880,-24.255,0.01,22.8498,95.0911,21.0533,12.6484,2025-06-12T14:20:38.575382
29366,-1.0653,0.0137,-0.1327,52.780,33.075,-22.995,0.00,19.4317,95.0911,19.5678,12.6484,2025-06-12T14:20:38.575382
29367,-1.0843,0.0268,-0.1381,49.875,32.375,-21.735,0.00,19.4317,90.3862,21.0533,12.6484,2025-06-12T14:20:38.575382
29368,-1.1039,0.0278,-0.1576,45.150,30.205,-19.880,0.00,19.4317,95.0911,21.0533,12.6484,2025-06-12T14:20:38.575382
29369,-1.1395,0.0303,-0.1591,40.600,25.235,-18.340,0.01,19.4317,99.7721,21.0533,12.6484,2025-06-12T14:20:38.575382
29370,-1.1639,0.0220,-0.1635,37.520,19.880,-16.660,0.01,19.4317,95.0911,21.0533,13.6826,2025-06-12T14:20:38.575382
29371,-1.1800,0.0112,-0.1649,34.790,12.635,-15.085,0.01,19.4317,95.0911,21.0533,12.6484,2025-06-12T14:20:38.576379
29372,-1.1863,0.0000,-0.1698,33.005,5.705,-13.160,0.00,19.4317,95.0911,21.0533,13.6826,2025-06-12T14:20:38.576379
29373,-1.1692,-0.0083,-0.2108,31.570,1.645,-11.025,0.01,19.4317,99.7721,21.0533,12.6484,2025-06-12T14:20:38.576379
29374,-1.1653,-0.0220,-0.2206,30.345,-0.245,-8.610,0.01,19.4317,90.3862,21.0533,12.6484,2025-06-12T14:20:38.576825
29375,-1.1517,-0.0307,-0.2235,29.715,0.035,-6.895,0.01,19.4317,95.0911,22.5376,12.6484,2025-06-12T14:20:38.576825
29376,-1.1370,-0.0473,-0.2455,28.840,1.995,-3.430,0.01,19.4317,95.0911,21.0533,12.6484,2025-06-12T14:20:38.746322
29377,-1.1214,-0.0576,-0.2606,28.035,5.880,0.105,0.00,19.4317,99.7721,21.0533,12.6484,2025-06-12T14:20:38.746322
29378,-1.1204,-0.0747,-0.2762,27.510,9.555,2.765,0.00,19.4317,99.7721,21.0533,12.6484,2025-06-12T14:20:38.746322
29379,-1.1214,-0.0849,-0.2879,27.160,12.425,6.370,0.01,22.8498,95.0911,21.0533,12.6484,2025-06-12T14:20:38.746322
29380,-1.1141,-0.0947,-0.2747,27.195,12.880,10.920,0.01,19.4317,99.7721,21.0533,11.6148,2025-06-12T14:20:38.746322
29381,-1.0863,-0.0971,-0.2591,27.265,12.915,14.770,0.00,19.4317,95.0911,22.5376,12.6484,2025-06-12T14:20:38.746322
29382,-1.0619,-0.1030,-0.2723,26.950,12.425,19.950,0.00,19.4317,99.7721,21.0533,11.6148,2025-06-12T14:20:38.746322
29383,-1.0355,-0.1044,-0.2786,26.600,11.830,23.870,0.01,19.4317,95.0911,24.0207,12.6484,2025-06-12T14:20:38.746322
29384,-0.9975,-0.0976,-0.2655,26.110,12.600,27.580,0.00,16.0028,95.0911,21.0533,11.6148,2025-06-12T14:20:38.746322
29385,-0.9604,-0.0927,-0.2557,25.445,14.700,30.135,0.00,19.4317,95.0911,21.0533,11.6148,2025-06-12T14:20:38.746322
29386,-0.9326,-0.0874,-0.2601,24.395,17.640,33.005,0.00,19.4317,95.0911,19.5678,11.6148,2025-06-12T14:20:38.746322
29387,-0.9248,-0.0898,-0.2669,23.940,20.125,34.545,0.00,16.0028,95.0911,21.0533,12.6484,2025-06-12T14:20:38.747387
29388,-0.9135,-0.0834,-0.2552,22.575,23.100,34.965,0.00,16.0028,99.7721,21.0533,12.6484,2025-06-12T14:20:38.747387
29389,-0.9043,-0.0834,-0.2455,22.015,24.990,35.035,0.00,19.4317,95.0911,21.0533,11.6148,2025-06-12T14:20:38.747387
29390,-0.9140,-0.0869,-0.2420,21.560,24.605,34.755,0.00,19.4317,95.0911,21.0533,12.6484,2025-06-12T14:20:38.747387
29391,-0.9350,-0.0986,-0.2616,20.860,20.930,34.300,0.00,22.8498,99.7721,22.5376,12.6484,2025-06-12T14:20:38.747387
29392,-0.9540,-0.1020,-0.2630,20.895,15.785,33.355,0.01,19.4317,99.7721,22.5376,12.6484,2025-06-12T14:20:38.928180
29393,-0.9448,-0.1088,-0.2630,20.440,10.360,31.990,0.01,19.4317,99.7721,22.5376,12.6484,2025-06-12T14:20:38.928180
29394,-0.9379,-0.1142,-0.2762,20.020,4.410,30.730,0.00,19.4317,99.7721,22.5376,12.6484,2025-06-12T14:20:38.928180
29395,-0.9374,-0.1186,-0.2806,20.055,-0.280,29.015,0.01,16.0028,99.7721,21.0533,13.6826,2025-06-12T14:20:38.928180
29396,-0.9267,-0.1205,-0.2967,19.775,-4.375,26.810,0.01,19.4317,99.7721,21.0533,13.6826,2025-06-12T14:20:38.928180
29397,-0.9394,-0.1274,-0.3099,19.985,-8.155,24.115,0.00,19.4317,99.7721,21.0533,13.6826,2025-06-12T14:20:38.928180
29398,-0.9477,-0.1313,-0.3133,21.245,-12.705,21.455,0.00,16.0028,99.7721,21.0533,12.6484,2025-06-12T14:20:38.928180
29399,-0.9570,-0.1352,-0.3343,22.295,-16.275,18.305,0.00,19.4317,99.7721,21.0533,12.6484,2025-06-12T14:20:38.928180
29400,-0.9662,-0.1430,-0.3465,24.290,-19.810,15.470,0.01,19.4317,95.0911,18.0810,12.6484,2025-06-12T14:20:38.928180
29401,-0.9770,-0.1449,-0.3665,25.795,-22.295,12.075,0.00,16.0028,99.7721,19.5678,12.6484,2025-06-12T14:20:38.928180
29402,-0.9858,-0.1537,-0.3909,27.650,-23.590,9.555,0.01,19.4317,99.7721,19.5678,12.6484,2025-06-12T14:20:38.928180
29403,-0.9950,-0.1562,-0.3982,29.540,-23.415,6.650,0.00,19.4317,99.7721,19.5678,12.6484,2025-06-12T14:20:38.928180
29404,-0.9916,-0.1537,-0.4050,30.800,-21.665,4.410,0.00,19.4317,95.0911,19.5678,12.6484,2025-06-12T14:20:38.928180
29405,-0.9750,-0.1527,-0.4026,31.745,-17.570,3.430,0.00,16.0028,99.7721,19.5678,13.6826,2025-06-12T14:20:38.928180
29406,-0.9492,-0.1415,-0.3860,31.920,-12.320,3.115,0.01,19.4317,95.0911,21.0533,12.6484,2025-06-12T14:20:38.928180
29407,-0.9360,-0.1313,-0.3811,31.640,-5.425,2.975,0.00,19.4317,99.7721,18.0810,12.6484,2025-06-12T14:20:38.928180
