SeqNum,AccX,AccY,AccZ,GyroX,GyroY,GyroZ,Flex,Force1,Force2,Force3,Force4,TimestampReception
1020,0.0708,0.3152,0.9682,0.385,-5.215,-0.280,3.00,0.00,0.71,0.01,0.00,2025-06-06T10:32:22.430103
1021,-1.1068,0.3660,0.3636,21.945,7.875,-34.930,2.00,0.01,0.01,0.00,0.01,2025-06-06T10:32:22.430103
1022,-1.1405,0.3626,0.4016,7.490,12.705,-45.080,4.00,0.00,0.01,0.01,0.01,2025-06-06T10:32:22.430103
1023,-1.1756,0.3572,0.5602,-24.920,7.175,-44.835,0.00,0.00,0.01,0.01,0.00,2025-06-06T10:32:22.430103
1024,-1.0878,0.1840,0.6925,-66.220,7.735,-53.515,1.00,0.01,0.00,0.01,0.00,2025-06-06T10:32:22.676345
1025,-1.0072,0.3055,0.4446,-100.940,-7.385,-52.325,4.00,0.00,0.00,0.01,0.00,2025-06-06T10:32:22.676345
1026,-0.8262,0.1176,0.3743,-117.285,7.035,-45.185,0.00,0.00,0.01,0.01,0.00,2025-06-06T10:32:22.676345
1027,-0.6456,-0.0346,0.3597,-78.155,-3.290,-33.320,3.00,0.00,0.01,0.01,0.01,2025-06-06T10:32:22.676345
1028,-0.6529,-0.0063,0.2557,-40.600,-18.585,-22.015,0.00,0.01,0.01,0.01,0.00,2025-06-06T10:32:22.676345
1029,-0.4168,0.2606,0.0351,6.895,-31.010,11.235,3.00,0.00,0.00,0.00,0.00,2025-06-06T10:32:22.676345
1030,-0.6949,0.3919,-0.0049,27.930,-21.665,25.025,2.00,0.00,0.00,0.01,0.00,2025-06-06T10:32:22.676345
1031,-0.8257,0.3489,0.0415,-9.730,-13.895,11.550,5.00,0.00,0.00,0.00,0.00,2025-06-06T10:32:22.676345
1032,-0.7906,0.2303,0.0712,-29.050,-6.930,18.200,1.00,0.01,0.00,0.00,0.00,2025-06-06T10:32:22.676345
1033,-0.8896,0.1932,0.0634,-21.525,-2.660,22.610,2.00,0.00,0.00,0.00,0.00,2025-06-06T10:32:22.676345
1034,-0.9589,0.1854,0.1318,14.945,-4.130,18.200,1.00,0.01,0.01,0.01,0.00,2025-06-06T10:32:22.676345
1035,-1.0282,0.1728,0.2186,36.015,-7.455,10.570,0.00,0.00,0.00,0.01,0.00,2025-06-06T10:32:22.676345
1036,-1.0770,0.1640,0.3684,42.000,0.840,3.465,1.00,0.00,0.00,0.00,0.00,2025-06-06T10:32:22.676345
1037,-1.0067,0.1742,0.4494,29.645,11.970,1.820,2.00,0.00,0.01,0.01,0.01,2025-06-06T10:32:22.676345
1038,-1.0375,0.1889,0.4782,12.285,13.860,-2.275,1.00,0.00,0.01,0.01,0.00,2025-06-06T10:32:22.676345
1039,-1.0682,0.2284,0.4685,4.200,10.010,-7.525,2.00,0.00,0.01,0.01,0.01,2025-06-06T10:32:22.676345
1040,-0.9716,0.2250,0.4260,2.765,2.555,-10.745,2.00,0.00,0.01,0.01,0.00,2025-06-06T10:32:22.676345
1041,-0.9516,0.2147,0.3792,-1.365,0.840,-12.075,1.00,0.00,0.00,0.01,0.00,2025-06-06T10:32:22.676345
1042,-0.9277,0.2211,0.3382,-7.805,-0.455,-11.130,2.00,0.00,0.02,0.01,0.00,2025-06-06T10:32:22.776234
1043,-0.9389,0.2255,0.2499,-13.125,-2.800,-11.725,0.00,0.01,0.01,0.01,0.01,2025-06-06T10:32:22.776234
1044,-0.8935,0.2401,0.2279,-10.185,-4.445,-11.165,1.00,0.00,0.01,0.01,0.01,2025-06-06T10:32:22.776234
1045,-0.9184,0.2269,0.2069,-7.420,-5.250,-9.835,2.00,0.01,0.01,0.01,0.00,2025-06-06T10:32:22.776234
1046,-0.8642,0.2113,0.2040,-6.755,-6.580,-8.925,2.00,0.00,0.00,0.01,0.01,2025-06-06T10:32:22.776595
1047,-0.8774,0.2152,0.2011,-5.460,-4.270,-5.915,7.00,0.00,0.00,0.00,0.01,2025-06-06T10:32:22.776595
1048,-0.8799,0.2455,0.2342,-5.145,-7.630,-3.430,2.00,0.00,0.01,0.00,0.00,2025-06-06T10:32:22.776595
1049,-0.9101,0.2547,0.2362,-5.320,-7.595,0.595,0.00,0.01,0.01,0.00,0.00,2025-06-06T10:32:22.776595
1050,-0.8691,0.2591,0.2401,-5.565,-11.410,3.745,2.00,0.01,0.00,0.01,0.01,2025-06-06T10:32:22.826766
1051,-0.8706,0.2499,0.2562,-5.145,-12.635,8.190,0.00,0.00,0.01,0.01,0.00,2025-06-06T10:32:22.826766
1052,-0.8994,0.2430,0.2235,-6.825,-14.035,11.550,4.00,0.00,0.02,0.00,0.01,2025-06-06T10:32:22.826766
1053,-0.9316,0.2499,0.2186,-5.705,-11.725,12.005,0.00,0.01,0.01,0.01,0.00,2025-06-06T10:32:22.826766
1054,-0.9614,0.2699,0.2240,-6.685,-9.065,10.535,0.00,0.01,0.01,0.01,0.00,2025-06-06T10:32:22.947985
1055,-0.9775,0.2499,0.2089,-7.700,-5.810,7.420,7.00,0.00,0.01,0.00,0.00,2025-06-06T10:32:22.947985
1056,-0.9828,0.2562,0.2362,-8.505,-2.660,4.235,0.00,0.01,0.00,0.01,0.00,2025-06-06T10:32:22.947985
1057,-0.9379,0.2664,0.2377,-8.365,-0.770,1.995,0.00,0.01,0.00,0.00,0.00,2025-06-06T10:32:22.947985
1058,-0.9433,0.2816,0.2528,-8.050,-1.085,1.540,1.00,0.00,0.01,0.01,0.01,2025-06-06T10:32:22.947985
1059,-0.9292,0.2874,0.2752,-10.255,-3.045,1.855,1.00,0.00,0.00,0.01,0.00,2025-06-06T10:32:22.947985
1060,-0.9335,0.2743,0.2743,-12.250,-6.020,2.520,17.00,0.01,0.01,0.00,0.00,2025-06-06T10:32:22.947985
1061,-0.9589,0.2733,0.2743,-13.265,-9.310,2.660,2.00,0.00,0.01,0.01,0.01,2025-06-06T10:32:22.947985
1062,-0.9487,0.2645,0.2357,-13.125,-10.150,1.820,0.00,0.00,0.00,0.00,0.00,2025-06-06T10:32:22.947985
1063,-0.9096,0.2723,0.2338,-13.440,-10.080,1.645,11.00,0.00,0.01,0.01,0.00,2025-06-06T10:32:22.947985
1064,-0.9531,0.2542,0.2167,-14.245,-8.260,-0.140,1.00,0.00,0.00,0.01,0.01,2025-06-06T10:32:23.053272
1065,-0.9531,0.2601,0.2152,-14.000,-5.775,-3.115,2.00,0.01,0.01,0.01,0.00,2025-06-06T10:32:23.053272
1066,-0.9184,0.2513,0.2035,-12.320,-3.290,-4.760,2.00,0.00,0.01,0.01,0.00,2025-06-06T10:32:23.053272
1067,-0.9257,0.2596,0.2420,-11.235,-1.785,-5.635,2.00,0.00,0.00,0.01,0.00,2025-06-06T10:32:23.053272
1068,-0.9257,0.2664,0.2523,-12.810,-1.365,-5.740,1.00,0.01,0.01,0.00,0.00,2025-06-06T10:32:23.053272
1069,-0.8989,0.2699,0.2567,-15.295,-2.240,-4.970,3.00,0.00,0.00,0.01,0.00,2025-06-06T10:32:23.053272
1070,-0.9077,0.2484,0.2586,-15.365,-1.750,-3.710,0.00,0.00,0.00,0.00,0.00,2025-06-06T10:32:23.053272
1071,-0.9121,0.2635,0.2664,-15.575,-3.780,-2.100,3.00,0.00,0.01,0.01,0.00,2025-06-06T10:32:23.143183
1072,-0.9165,0.2567,0.2552,-14.840,-4.130,-0.245,3.00,0.00,0.00,0.00,0.00,2025-06-06T10:32:23.143183
1073,-0.9360,0.2513,0.2694,-14.700,-5.005,0.420,1.00,0.01,0.00,0.01,0.00,2025-06-06T10:32:23.143183
1074,-0.9277,0.2508,0.2655,-14.245,-5.565,1.085,1.00,0.00,0.01,0.01,0.00,2025-06-06T10:32:23.143183
1075,-0.9418,0.2430,0.2704,-12.775,-5.355,0.980,0.00,0.01,0.00,0.01,0.00,2025-06-06T10:32:23.143183
1076,-0.9540,0.2474,0.2899,-12.530,-5.075,0.770,1.00,0.00,0.00,0.00,0.01,2025-06-06T10:32:23.143183
1077,-0.9492,0.2489,0.2860,-12.985,-6.825,0.280,1.00,0.01,0.01,0.01,0.00,2025-06-06T10:32:23.143183
1078,-0.9335,0.2406,0.2830,-12.355,-7.245,0.280,7.00,0.00,0.00,0.01,0.00,2025-06-06T10:32:23.143183
1079,-0.9648,0.2464,0.2869,-11.725,-8.785,-0.770,1.00,0.00,0.01,0.01,0.00,2025-06-06T10:32:23.263612
1080,-0.9584,0.2450,0.2699,-11.795,-7.490,-1.610,0.00,0.00,0.01,0.01,0.00,2025-06-06T10:32:23.263612
1081,-0.9340,0.2450,0.2689,-10.325,-7.525,-1.715,5.00,0.00,0.00,0.01,0.00,2025-06-06T10:32:23.263612
1082,-0.9048,0.2411,0.2547,-8.050,-7.035,-0.735,0.00,0.00,0.00,0.01,0.00,2025-06-06T10:32:23.263612
1083,-0.9126,0.2455,0.2660,-5.285,-6.580,0.315,0.00,0.01,0.00,0.01,0.00,2025-06-06T10:32:23.263612
1084,-0.9272,0.2523,0.2777,-4.795,-6.755,0.420,2.00,0.00,0.00,0.01,0.00,2025-06-06T10:32:23.263612
1085,-0.9301,0.2479,0.2669,-5.040,-6.370,0.280,3.00,0.00,0.00,0.02,0.01,2025-06-06T10:32:23.263612
1086,-0.9467,0.2357,0.2830,-3.220,-5.355,-0.875,5.00,0.01,0.00,0.01,0.00,2025-06-06T10:32:23.263612
1087,-0.9399,0.2416,0.2904,-1.295,-5.600,-1.890,0.00,0.00,0.00,0.01,0.00,2025-06-06T10:32:23.361990
1088,-0.9130,0.2381,0.2801,-0.280,-5.390,-1.820,2.00,0.00,0.01,0.01,0.00,2025-06-06T10:32:23.361990
1089,-0.9287,0.2352,0.2967,0.035,-5.005,-1.820,1.00,0.01,0.01,0.01,0.00,2025-06-06T10:32:23.361990
1090,-0.9252,0.2357,0.2821,-0.595,-5.145,-1.470,4.00,0.00,0.02,0.01,0.01,2025-06-06T10:32:23.361990
1091,-0.9184,0.2303,0.2835,1.365,-4.375,-1.400,2.00,0.00,0.00,0.01,0.01,2025-06-06T10:32:23.361990
1092,-0.9443,0.2298,0.3016,2.520,-3.815,-1.540,0.00,0.00,0.00,0.00,0.00,2025-06-06T10:32:23.361990
1093,-0.9550,0.2386,0.3021,3.570,-3.955,-2.205,3.00,0.01,0.01,0.00,0.00,2025-06-06T10:32:23.361990
1094,-0.9467,0.2460,0.3270,3.605,-4.690,-1.820,2.00,0.00,0.00,0.01,0.01,2025-06-06T10:32:23.361990
1095,-0.9418,0.2401,0.3250,1.995,-6.440,-1.435,0.00,0.01,0.01,0.00,0.01,2025-06-06T10:32:23.580418
1096,-0.9414,0.2352,0.3211,1.575,-7.000,-1.120,4.00,0.01,0.00,0.01,0.00,2025-06-06T10:32:23.580418
1097,-0.9511,0.2298,0.3079,1.015,-7.700,-1.260,1.00,0.01,0.01,0.00,0.00,2025-06-06T10:32:23.580418
1098,-0.9404,0.2284,0.2918,1.855,-7.035,-1.750,0.00,0.00,0.00,0.00,0.00,2025-06-06T10:32:23.580418
1099,-0.9223,0.2289,0.2957,3.255,-6.370,-1.645,0.00,0.00,0.00,0.00,0.00,2025-06-06T10:32:23.580418
1100,-0.9267,0.2298,0.2952,4.130,-6.405,-1.085,0.00,0.00,0.01,0.01,0.00,2025-06-06T10:32:23.580418
1101,-0.9340,0.2338,0.2894,4.515,-6.755,-0.805,0.00,0.00,0.02,0.01,0.00,2025-06-06T10:32:23.580418
1102,-0.9350,0.2308,0.2982,4.900,-6.860,-0.665,2.00,0.00,0.00,0.01,0.00,2025-06-06T10:32:23.580418
1103,-0.9399,0.2328,0.2991,4.655,-5.985,-0.910,2.00,0.00,0.01,0.00,0.00,2025-06-06T10:32:23.580418
1104,-0.9257,0.2352,0.3006,5.285,-6.020,-0.420,2.00,0.00,0.01,0.01,0.01,2025-06-06T10:32:23.580418
1105,-0.9126,0.2425,0.2982,4.550,-6.650,0.210,4.00,0.00,0.01,0.00,0.00,2025-06-06T10:32:23.580418
1106,-0.9443,0.2342,0.3006,3.815,-6.440,0.945,2.00,0.01,0.00,0.00,0.00,2025-06-06T10:32:23.580418
1107,-0.9370,0.2298,0.2889,3.325,-6.860,0.700,0.00,0.01,0.01,0.00,0.00,2025-06-06T10:32:23.580418
1108,-0.9223,0.2269,0.2865,4.900,-6.020,1.225,1.00,0.01,0.02,0.01,0.01,2025-06-06T10:32:23.580418
1109,-0.9335,0.2279,0.3011,5.530,-6.475,1.400,0.00,0.01,0.00,0.01,0.00,2025-06-06T10:32:23.580418
1110,-0.9389,0.2294,0.2816,4.585,-6.685,1.400,0.00,0.01,0.01,0.01,0.01,2025-06-06T10:32:23.678439
1111,-0.9218,0.2274,0.2879,4.060,-5.670,1.365,7.00,0.00,0.00,0.01,0.01,2025-06-06T10:32:23.678439
1112,-0.9350,0.2240,0.2962,3.325,-5.320,0.910,3.00,0.01,0.00,0.00,0.00,2025-06-06T10:32:23.678439
1113,-0.9404,0.2240,0.2874,3.640,-5.250,0.245,1.00,0.00,0.00,0.01,0.01,2025-06-06T10:32:23.678439
1114,-0.9335,0.2279,0.2996,4.620,-5.320,-0.105,2.00,0.01,0.01,0.00,0.00,2025-06-06T10:32:23.678439
1115,-0.9018,0.2294,0.2991,4.445,-6.685,0.175,0.00,0.00,0.01,0.01,0.01,2025-06-06T10:32:23.678439
1116,-0.9228,0.2206,0.2943,3.745,-6.825,0.595,1.00,0.00,0.00,0.00,0.00,2025-06-06T10:32:23.678439
1117,-0.9282,0.2298,0.2874,3.010,-8.155,0.630,2.00,0.00,0.00,0.01,0.00,2025-06-06T10:32:23.678439
1118,-0.9233,0.2255,0.2869,3.710,-8.330,0.770,3.00,0.00,0.00,0.01,0.01,2025-06-06T10:32:23.678439
1119,-0.9272,0.2216,0.2943,4.410,-8.610,0.700,1.00,0.01,0.01,0.01,0.01,2025-06-06T10:32:23.817286
1120,-0.9204,0.2240,0.2869,4.515,-8.260,0.455,3.00,0.00,0.00,0.01,0.00,2025-06-06T10:32:23.817286
1121,-0.9374,0.2186,0.2899,3.920,-7.700,-0.280,3.00,0.01,0.01,0.01,0.00,2025-06-06T10:32:23.817286
1122,-0.9516,0.2162,0.2913,3.115,-7.420,-1.785,1.00,0.00,0.00,0.01,0.00,2025-06-06T10:32:23.817286
1123,-0.9462,0.2225,0.2923,3.535,-8.050,-2.555,2.00,0.01,0.00,0.01,0.00,2025-06-06T10:32:23.817286
1124,-0.9243,0.2362,0.2913,4.480,-8.785,-1.925,0.00,0.00,0.00,0.00,0.01,2025-06-06T10:32:23.817286
1125,-0.8955,0.2357,0.2869,4.690,-9.030,-0.385,7.00,0.01,0.00,0.01,0.00,2025-06-06T10:32:23.817286
1126,-0.9023,0.2386,0.2782,3.395,-8.540,0.945,3.00,0.01,0.00,0.00,0.00,2025-06-06T10:32:23.817286
1127,-0.9184,0.2303,0.2728,1.785,-7.000,1.295,5.00,0.00,0.00,0.00,0.01,2025-06-06T10:32:23.975122
1128,-0.9418,0.2284,0.2821,1.505,-6.510,0.595,0.00,0.01,0.00,0.01,0.01,2025-06-06T10:32:23.975122
1129,-0.9536,0.2289,0.3011,1.995,-5.985,-0.700,0.00,0.00,0.00,0.00,0.00,2025-06-06T10:32:23.975122
1130,-0.9511,0.2347,0.3040,1.365,-7.455,-1.505,6.00,0.00,0.00,0.00,0.00,2025-06-06T10:32:23.975122
1131,-0.9287,0.2230,0.3035,0.385,-8.085,-1.155,1.00,0.00,0.00,0.01,0.00,2025-06-06T10:32:23.975122
1132,-0.9160,0.2186,0.3006,-0.315,-8.225,-1.260,4.00,0.00,0.00,0.00,0.00,2025-06-06T10:32:23.975122
1133,-0.9096,0.2191,0.2967,0.280,-7.000,-1.120,1.00,0.00,0.00,0.02,0.00,2025-06-06T10:32:23.975122
1134,-0.9296,0.2181,0.2908,0.770,-7.105,-1.120,0.00,0.00,0.01,0.03,0.00,2025-06-06T10:32:23.975122
1135,-0.9311,0.2186,0.2777,0.245,-6.965,-1.715,0.00,0.00,0.02,0.01,0.00,2025-06-06T10:32:23.975122
1136,-0.9257,0.2201,0.2791,0.630,-6.440,-2.555,1.00,0.00,0.01,0.00,0.00,2025-06-06T10:32:23.975122
1137,-0.9321,0.2240,0.2801,1.505,-5.145,-3.500,2.00,0.01,0.00,0.01,0.00,2025-06-06T10:32:23.975122
1138,-0.9262,0.2255,0.2723,1.540,-4.200,-4.445,0.00,0.00,0.01,0.03,0.00,2025-06-06T10:32:23.975122
1139,-0.9233,0.2255,0.2894,0.910,-3.430,-5.005,0.00,0.00,0.00,0.01,0.00,2025-06-06T10:32:23.975122
1140,-0.9360,0.2235,0.2991,-0.700,-3.745,-5.110,1.00,0.00,0.00,0.01,0.01,2025-06-06T10:32:23.975122
1141,-0.9326,0.2142,0.2767,-0.350,-2.940,-5.425,0.00,0.00,0.03,0.00,0.00,2025-06-06T10:32:23.975122
1142,-0.9101,0.2220,0.2962,2.485,-2.030,-4.795,0.00,0.00,0.01,0.00,0.01,2025-06-06T10:32:24.123293
1143,-0.9277,0.2303,0.3006,1.960,-1.715,-3.955,1.00,0.01,0.00,0.01,0.00,2025-06-06T10:32:24.123293
1144,-0.9404,0.2274,0.2938,-0.105,-0.945,-3.080,1.00,0.01,0.00,0.00,0.00,2025-06-06T10:32:24.123293
1145,-0.9414,0.2245,0.3084,-1.050,-0.630,-2.485,0.00,0.01,0.00,0.01,0.00,2025-06-06T10:32:24.123293
1146,-0.9301,0.2255,0.3255,0.840,-2.765,-1.540,0.00,0.00,0.02,0.01,0.00,2025-06-06T10:32:24.123293
1147,-0.9282,0.2274,0.3206,0.245,-4.445,-0.175,0.00,0.00,0.01,0.03,0.00,2025-06-06T10:32:24.123293
1148,-0.9218,0.2250,0.3104,-2.205,-5.670,0.595,4.00,0.00,0.00,0.01,0.00,2025-06-06T10:32:24.123293
1149,-0.9204,0.2176,0.3084,-3.150,-5.600,0.595,1.00,0.00,0.00,0.02,0.00,2025-06-06T10:32:24.123293
1150,-0.9457,0.2137,0.3016,-2.905,-5.985,-0.595,2.00,0.01,0.01,0.02,0.01,2025-06-06T10:32:24.372895
1151,-0.9457,0.2064,0.2913,-2.485,-5.845,-2.205,3.00,0.01,0.01,0.01,0.00,2025-06-06T10:32:24.372895
1152,-0.9409,0.2123,0.2913,-1.960,-4.550,-3.780,2.00,0.01,0.02,0.01,0.01,2025-06-06T10:32:24.372895
1153,-0.9106,0.2176,0.2840,-1.890,-3.605,-4.095,1.00,0.01,0.01,0.00,0.00,2025-06-06T10:32:24.372895
1154,-0.9262,0.2157,0.2894,-1.645,-2.520,-3.745,1.00,0.00,0.01,0.01,0.00,2025-06-06T10:32:24.372895
1155,-0.9311,0.2269,0.2982,-1.400,-2.940,-3.185,6.00,0.01,0.00,0.01,0.00,2025-06-06T10:32:24.372895
1156,-0.9287,0.2338,0.3128,-1.085,-4.200,-1.505,1.00,0.00,0.00,0.00,0.00,2025-06-06T10:32:24.372895
1157,-0.9370,0.2357,0.3240,-3.255,-6.020,-0.350,2.00,0.00,0.00,0.01,0.00,2025-06-06T10:32:24.372895
1158,-0.9306,0.2294,0.3104,-5.355,-6.825,1.050,1.00,0.00,0.00,0.01,0.00,2025-06-06T10:32:24.372895
1159,-0.9457,0.2172,0.3026,-5.040,-6.860,1.470,0.00,0.00,0.00,0.01,0.00,2025-06-06T10:32:24.372895
1160,-0.9340,0.2230,0.2830,-4.690,-6.860,1.715,2.00,0.00,0.02,0.02,0.01,2025-06-06T10:32:24.372895
1161,-0.9399,0.2108,0.2582,-3.290,-3.815,1.470,0.00,0.01,0.02,0.01,0.00,2025-06-06T10:32:24.372895
1162,-0.9316,0.2196,0.2826,-2.590,-2.030,0.980,0.00,0.01,0.01,0.01,0.00,2025-06-06T10:32:24.372895
1163,-0.9257,0.2259,0.2826,-3.395,-0.910,1.505,3.00,0.01,0.00,0.02,0.00,2025-06-06T10:32:24.372895
1164,-0.9599,0.2196,0.2889,-4.060,-0.735,1.120,1.00,0.00,0.01,0.01,0.00,2025-06-06T10:32:24.372895
1165,-0.9633,0.2259,0.3182,-4.025,-2.660,0.910,0.00,0.01,0.00,0.01,0.00,2025-06-06T10:32:24.372895
1166,-0.9623,0.2255,0.3157,-3.745,-4.200,0.910,1.00,0.00,0.01,0.01,0.01,2025-06-06T10:32:24.372895
1167,-0.9453,0.2294,0.3109,-3.150,-3.990,1.470,7.00,0.00,0.03,0.00,0.00,2025-06-06T10:32:24.372895
1168,-0.9213,0.2274,0.3001,-3.360,-4.305,2.205,0.00,0.00,0.01,0.01,0.00,2025-06-06T10:32:24.372895
1169,-0.9331,0.2191,0.2845,-2.450,-3.255,2.450,0.00,0.00,0.00,0.01,0.00,2025-06-06T10:32:24.487914
1170,-0.9423,0.2250,0.2738,-1.505,-2.765,2.065,2.00,0.01,0.02,0.00,0.00,2025-06-06T10:32:24.487914
1171,-0.9360,0.2284,0.2689,-1.155,-2.135,1.820,6.00,0.01,0.01,0.00,0.01,2025-06-06T10:32:24.487914
1172,-0.9311,0.2230,0.2704,-0.735,-1.610,1.925,2.00,0.01,0.00,0.00,0.00,2025-06-06T10:32:24.487914
1173,-0.9292,0.2220,0.2684,-1.085,-0.980,1.890,6.00,0.00,0.00,0.00,0.00,2025-06-06T10:32:24.487914
1174,-0.9335,0.2250,0.2762,-0.525,-0.560,2.100,4.00,0.00,0.01,0.01,0.00,2025-06-06T10:32:24.487914
1175,-0.9292,0.2250,0.2879,-0.280,-0.455,2.415,0.00,0.01,0.01,0.01,0.00,2025-06-06T10:32:24.487914
1176,-0.9394,0.2220,0.2943,-0.560,-0.070,2.765,0.00,0.00,0.00,0.01,0.00,2025-06-06T10:32:24.487914
1177,-0.9511,0.2274,0.3055,-1.295,-0.595,2.205,7.00,0.00,0.01,0.00,0.01,2025-06-06T10:32:24.487914
1178,-0.9365,0.2216,0.3006,-1.715,-0.420,1.785,0.00,0.00,0.01,0.00,0.01,2025-06-06T10:32:24.487914
1179,-0.9414,0.2230,0.3070,-1.575,-0.840,1.260,0.00,0.00,0.00,0.00,0.00,2025-06-06T10:32:24.487914
1180,-0.9453,0.2279,0.2933,-1.505,-0.910,0.770,4.00,0.00,0.00,0.00,0.01,2025-06-06T10:32:24.487914
1181,-0.9126,0.2250,0.2796,-1.715,-1.015,1.050,6.00,0.00,0.00,0.01,0.01,2025-06-06T10:32:24.595626
1182,-0.8989,0.2225,0.2801,-1.715,-1.470,1.785,0.00,0.01,0.02,0.00,0.01,2025-06-06T10:32:24.598633
1183,-0.9072,0.2206,0.2723,-2.310,-1.890,2.065,1.00,0.01,0.01,0.01,0.01,2025-06-06T10:32:24.598633
1184,-0.9096,0.2235,0.2723,-3.080,-2.590,2.100,3.00,0.00,0.00,0.02,0.01,2025-06-06T10:32:24.598633
1185,-0.9311,0.2191,0.2850,-3.290,-2.520,1.400,8.00,0.00,0.01,0.02,0.00,2025-06-06T10:32:24.598633
1186,-0.9404,0.2147,0.2850,-4.375,-2.170,0.105,0.00,0.01,0.01,0.01,0.01,2025-06-06T10:32:24.598633
1187,-0.9374,0.2142,0.2904,-3.850,-1.365,-0.770,0.00,0.00,0.00,0.01,0.01,2025-06-06T10:32:24.598633
1188,-0.9189,0.2201,0.3060,-4.585,-2.660,-0.525,0.00,0.00,0.01,0.00,0.00,2025-06-06T10:32:24.598633
1189,-0.9272,0.2147,0.2923,-4.970,-3.395,-0.315,3.00,0.01,0.00,0.02,0.01,2025-06-06T10:32:24.783262
1190,-0.9448,0.2162,0.3040,-5.460,-3.220,-0.595,0.00,0.00,0.01,0.02,0.01,2025-06-06T10:32:24.783262
1191,-0.9292,0.2191,0.3060,-5.775,-3.150,-0.595,6.00,0.00,0.01,0.00,0.00,2025-06-06T10:32:24.783262
1192,-0.9257,0.2216,0.3006,-6.195,-3.570,-0.245,3.00,0.00,0.01,0.01,0.01,2025-06-06T10:32:24.783262
1193,-0.9360,0.2103,0.3026,-6.335,-4.200,0.070,4.00,0.00,0.01,0.02,0.01,2025-06-06T10:32:24.783262
1194,-0.9365,0.2133,0.3089,-6.475,-5.705,0.245,3.00,0.00,0.01,0.01,0.00,2025-06-06T10:32:24.783262
1195,-0.9335,0.2098,0.2957,-5.215,-5.985,0.175,0.00,0.00,0.00,0.02,0.01,2025-06-06T10:32:24.783262
1196,-0.9404,0.2118,0.2948,-4.060,-5.425,-0.175,3.00,0.00,0.00,0.03,0.00,2025-06-06T10:32:24.783262
1197,-0.9238,0.2206,0.2948,-4.340,-5.985,-0.175,6.00,0.00,0.01,0.01,0.00,2025-06-06T10:32:24.783262
1198,-0.9233,0.2128,0.2908,-4.830,-5.740,-0.105,0.00,0.00,0.00,0.01,0.00,2025-06-06T10:32:24.783262
1199,-0.9189,0.2133,0.2948,-5.250,-6.300,0.000,0.00,0.00,0.00,0.02,0.00,2025-06-06T10:32:24.783262
1200,-0.9248,0.2128,0.2928,-5.110,-6.300,0.105,1.00,0.01,0.01,0.01,0.00,2025-06-06T10:32:24.783262
1201,-0.9384,0.2094,0.2933,-4.375,-6.405,-0.455,3.00,0.00,0.02,0.01,0.00,2025-06-06T10:32:24.783262
1202,-0.9365,0.2089,0.2918,-3.745,-6.160,-1.260,0.00,0.00,0.00,0.02,0.00,2025-06-06T10:32:24.783262
1203,-0.9360,0.2084,0.2918,-2.625,-5.740,-1.645,2.00,0.00,0.01,0.02,0.00,2025-06-06T10:32:24.783262
1204,-0.9340,0.2147,0.2938,-1.925,-5.985,-1.750,1.00,0.00,0.00,0.03,0.01,2025-06-06T10:32:24.783262
1205,-0.9345,0.2133,0.2884,-1.855,-5.950,-1.505,0.00,0.01,0.01,0.01,0.00,2025-06-06T10:32:24.897350
1206,-0.9292,0.2240,0.2943,-1.365,-5.845,-1.190,1.00,0.01,0.00,0.02,0.01,2025-06-06T10:32:24.897350
1207,-0.9184,0.2440,0.3021,-1.190,-6.300,-0.455,3.00,0.00,0.01,0.01,0.00,2025-06-06T10:32:24.897350
1208,-0.9130,0.2259,0.2894,-1.120,-5.985,0.560,1.00,0.00,0.00,0.01,0.00,2025-06-06T10:32:24.897350
1209,-0.9179,0.2230,0.3006,-0.945,-6.685,1.190,2.00,0.00,0.01,0.02,0.00,2025-06-06T10:32:24.897350
1210,-0.9277,0.2269,0.2791,0.105,-6.440,1.400,0.00,0.00,0.02,0.01,0.00,2025-06-06T10:32:24.897350
1211,-0.9257,0.2240,0.2733,1.330,-5.390,1.505,0.00,0.00,0.00,0.01,0.00,2025-06-06T10:32:24.897350
1212,-0.9487,0.2216,0.2796,1.470,-5.285,0.980,1.00,0.01,0.00,0.01,0.00,2025-06-06T10:32:24.947884
1213,-0.9438,0.2269,0.2708,1.610,-4.620,0.595,2.00,0.01,0.00,0.02,0.00,2025-06-06T10:32:24.947884
1214,-0.9277,0.2294,0.2767,2.555,-4.130,0.420,0.00,0.01,0.00,0.01,0.01,2025-06-06T10:32:24.947884
1215,-0.9457,0.2386,0.2943,3.150,-3.325,0.455,2.00,0.01,0.01,0.01,0.00,2025-06-06T10:32:24.947884
1216,-0.9321,0.2367,0.2869,2.520,-3.640,0.770,3.00,0.01,0.00,0.01,0.00,2025-06-06T10:32:25.101712
1217,-0.9506,0.2342,0.2889,2.590,-3.290,0.840,4.00,0.00,0.01,0.01,0.00,2025-06-06T10:32:25.101712
1218,-0.9409,0.2352,0.2835,1.855,-3.570,1.015,1.00,0.00,0.00,0.00,0.01,2025-06-06T10:32:25.101712
1219,-0.9428,0.2269,0.2611,1.855,-3.080,0.980,0.00,0.01,0.00,0.01,0.00,2025-06-06T10:32:25.101712
1220,-0.9306,0.2323,0.2718,2.065,-2.415,1.575,1.00,0.01,0.00,0.02,0.01,2025-06-06T10:32:25.270982
1221,-0.9296,0.2367,0.2757,1.575,-2.905,2.730,1.00,0.00,0.00,0.01,0.00,2025-06-06T10:32:25.270982
1222,-0.9228,0.2381,0.2728,0.245,-3.640,3.675,0.00,0.00,0.01,0.00,0.01,2025-06-06T10:32:25.270982
1223,-0.9335,0.2391,0.2918,-0.980,-4.690,4.340,0.00,0.00,0.00,0.01,0.00,2025-06-06T10:32:25.270982
1224,-0.9482,0.2269,0.2933,-2.240,-5.600,4.305,3.00,0.00,0.01,0.01,0.00,2025-06-06T10:32:25.270982
1225,-0.9721,0.2235,0.2840,-3.045,-5.670,2.660,1.00,0.00,0.01,0.01,0.00,2025-06-06T10:32:25.270982
1226,-0.9682,0.2313,0.2879,-3.220,-6.125,0.805,1.00,0.00,0.01,0.00,0.00,2025-06-06T10:32:25.270982
1227,-0.9394,0.2303,0.2786,-4.410,-6.195,-0.035,0.00,0.00,0.01,0.02,0.01,2025-06-06T10:32:25.270982
1228,-0.9360,0.2294,0.2796,-5.670,-5.880,-0.455,3.00,0.01,0.01,0.02,0.01,2025-06-06T10:32:25.270982
1229,-0.9140,0.2298,0.2806,-6.265,-5.775,-0.140,1.00,0.00,0.01,0.00,0.01,2025-06-06T10:32:25.270982
1230,-0.9130,0.2279,0.2733,-6.685,-5.915,0.490,2.00,0.00,0.01,0.01,0.01,2025-06-06T10:32:25.270982
1231,-0.9238,0.2211,0.2689,-6.825,-5.915,0.875,4.00,0.00,0.01,0.01,0.01,2025-06-06T10:32:25.270982
1232,-0.9238,0.2128,0.2655,-7.315,-6.370,0.735,4.00,0.01,0.01,0.01,0.00,2025-06-06T10:32:25.270982
1233,-0.9555,0.2054,0.2650,-6.650,-4.690,-0.245,0.00,0.01,0.00,0.02,0.00,2025-06-06T10:32:25.270982
1234,-0.9233,0.2079,0.2835,-5.215,-5.075,-0.560,2.00,0.01,0.00,0.01,0.01,2025-06-06T10:32:25.270982
1235,-0.9292,0.2108,0.2928,-3.920,-4.270,-0.350,4.00,0.01,0.01,0.00,0.00,2025-06-06T10:32:25.270982
1236,-0.9443,0.2225,0.3094,-3.955,-4.445,-0.210,2.00,0.01,0.01,0.01,0.01,2025-06-06T10:32:25.270982
1237,-0.9487,0.2216,0.3026,-5.600,-5.075,-0.105,2.00,0.00,0.01,0.01,0.01,2025-06-06T10:32:25.270982
1238,-0.9453,0.2103,0.3070,-5.285,-4.725,-0.210,1.00,0.00,0.00,0.02,0.00,2025-06-06T10:32:25.270982
1239,-0.9379,0.2128,0.3026,-4.655,-5.005,-0.175,2.00,0.01,0.00,0.00,0.00,2025-06-06T10:32:25.270982
1240,-0.9287,0.2162,0.3055,-3.290,-4.060,0.105,0.00,0.01,0.01,0.01,0.00,2025-06-06T10:32:25.411299
1241,-0.9536,0.2220,0.3099,-4.515,-4.865,0.315,1.00,0.01,0.01,0.02,0.00,2025-06-06T10:32:25.411299
1242,-0.9321,0.2176,0.3026,-4.620,-5.250,0.805,0.00,0.01,0.01,0.01,0.01,2025-06-06T10:32:25.411299
1243,-0.9189,0.2176,0.3079,-4.620,-5.390,1.715,4.00,0.00,0.01,0.01,0.00,2025-06-06T10:32:25.411299
1244,-0.9418,0.2172,0.3006,-3.920,-4.550,1.785,1.00,0.00,0.00,0.01,0.00,2025-06-06T10:32:25.411299
1245,-0.9409,0.2186,0.2962,-3.570,-3.255,1.470,0.00,0.00,0.02,0.01,0.00,2025-06-06T10:32:25.411299
1246,-0.9399,0.2113,0.3001,-3.535,-3.010,1.190,1.00,0.01,0.00,0.01,0.00,2025-06-06T10:32:25.411299
1247,-0.9492,0.2157,0.3089,-2.380,-2.380,0.560,1.00,0.01,0.01,0.00,0.00,2025-06-06T10:32:25.411299
1248,-0.9389,0.2284,0.3211,-1.750,-4.095,1.050,0.00,0.00,0.01,0.00,0.01,2025-06-06T10:32:25.411299
1249,-0.9399,0.2274,0.3299,-1.155,-6.650,1.890,4.00,0.00,0.00,0.01,0.00,2025-06-06T10:32:25.411299
1250,-0.9184,0.2289,0.3118,-2.520,-8.295,2.905,2.00,0.00,0.00,0.01,0.00,2025-06-06T10:32:25.411299
1251,-0.9194,0.2211,0.2962,-3.465,-8.610,3.360,0.00,0.00,0.00,0.01,0.01,2025-06-06T10:32:25.411299
1252,-0.9233,0.2098,0.2796,-3.185,-6.720,2.800,0.00,0.00,0.02,0.00,0.01,2025-06-06T10:32:25.462694
1253,-0.9252,0.2089,0.2777,-1.470,-4.795,1.820,0.00,0.01,0.01,0.01,0.00,2025-06-06T10:32:25.462694
1254,-0.9399,0.2123,0.2713,0.525,-3.185,0.630,8.00,0.00,0.00,0.01,0.01,2025-06-06T10:32:25.462694
1255,-0.9301,0.2181,0.2972,1.645,-2.170,0.140,2.00,0.00,0.00,0.00,0.00,2025-06-06T10:32:25.462694
1256,-0.9282,0.2259,0.3099,1.260,-3.745,0.770,5.00,0.01,0.00,0.00,0.01,2025-06-06T10:32:25.514046
1257,-0.9335,0.2235,0.2987,0.665,-5.320,1.330,0.00,0.00,0.00,0.02,0.01,2025-06-06T10:32:25.514046
1258,-0.9296,0.2220,0.2948,1.295,-5.775,1.400,3.00,0.01,0.02,0.01,0.01,2025-06-06T10:32:25.514046
1259,-0.9296,0.2191,0.2913,1.645,-5.600,0.945,0.00,0.01,0.01,0.01,0.01,2025-06-06T10:32:25.624492
1260,-0.9292,0.2157,0.2796,1.960,-3.745,0.070,3.00,0.01,0.00,0.00,0.00,2025-06-06T10:32:25.624492
1261,-0.9296,0.2162,0.2904,2.135,-2.485,-0.560,1.00,0.01,0.01,0.00,0.01,2025-06-06T10:32:25.624492
1262,-0.9301,0.2186,0.2952,2.275,-1.890,-0.875,0.00,0.00,0.00,0.00,0.01,2025-06-06T10:32:25.624492
1263,-0.9248,0.2264,0.2996,2.800,-2.520,-0.595,1.00,0.01,0.00,0.00,0.00,2025-06-06T10:32:25.624492
1264,-0.9438,0.2220,0.3030,1.820,-4.725,-0.315,1.00,0.00,0.01,0.01,0.00,2025-06-06T10:32:25.624492
1265,-0.9399,0.2255,0.2952,2.345,-6.195,-0.455,1.00,0.00,0.01,0.00,0.00,2025-06-06T10:32:25.624492
1266,-0.9199,0.2259,0.2816,2.660,-6.545,-0.420,0.00,0.00,0.01,0.00,0.01,2025-06-06T10:32:25.624492
1267,-0.9126,0.2259,0.2679,1.925,-5.740,-0.315,2.00,0.00,0.00,0.01,0.01,2025-06-06T10:32:25.624492
1268,-0.9057,0.2196,0.2728,2.065,-3.850,0.245,6.00,0.01,0.01,0.01,0.00,2025-06-06T10:32:25.624492
1269,-0.9145,0.2225,0.2816,2.100,-3.290,0.945,1.00,0.00,0.00,0.01,0.00,2025-06-06T10:32:25.819248
1270,-0.9370,0.2328,0.2850,1.820,-3.185,1.015,3.00,0.00,0.01,0.01,0.00,2025-06-06T10:32:25.819248
1271,-0.9428,0.2328,0.2991,1.190,-3.325,1.190,4.00,0.00,0.01,0.01,0.00,2025-06-06T10:32:25.819248
1272,-0.9350,0.2333,0.3143,0.035,-5.005,1.120,0.00,0.01,0.01,0.01,0.00,2025-06-06T10:32:25.819248
1273,-0.9448,0.2323,0.3143,-0.560,-6.020,1.050,0.00,0.00,0.01,0.01,0.00,2025-06-06T10:32:25.819248
1274,-0.9448,0.2323,0.3026,-1.890,-6.160,-0.140,0.00,0.00,0.00,0.01,0.00,2025-06-06T10:32:25.819248
1275,-0.9462,0.2269,0.3045,-1.295,-4.585,-0.875,8.00,0.00,0.00,0.01,0.00,2025-06-06T10:32:25.819248
1276,-0.9204,0.2328,0.2991,-1.015,-5.495,-1.015,4.00,0.01,0.00,0.01,0.00,2025-06-06T10:32:25.819248
1277,-0.9257,0.2396,0.2806,-1.400,-5.740,0.035,2.00,0.00,0.01,0.01,0.00,2025-06-06T10:32:25.819248
1278,-0.9213,0.2425,0.2752,-2.240,-6.755,1.120,0.00,0.00,0.00,0.01,0.00,2025-06-06T10:32:25.819248
1279,-0.9028,0.2318,0.2782,-2.205,-7.000,2.765,0.00,0.00,0.01,0.01,0.00,2025-06-06T10:32:25.819248
1280,-0.9126,0.2240,0.2757,-1.155,-7.385,3.395,0.00,0.00,0.00,0.00,0.00,2025-06-06T10:32:25.819248
1281,-0.9467,0.2250,0.2791,-0.280,-5.915,2.905,2.00,0.00,0.00,0.01,0.00,2025-06-06T10:32:25.819248
1282,-0.9545,0.2357,0.2894,0.455,-5.460,1.295,2.00,0.00,0.01,0.01,0.00,2025-06-06T10:32:25.819248
1283,-0.9355,0.2259,0.2826,0.105,-4.830,0.525,1.00,0.00,0.02,0.01,0.00,2025-06-06T10:32:25.941515
1284,-0.9492,0.2250,0.2894,0.315,-3.605,-0.280,3.00,0.01,0.01,0.01,0.00,2025-06-06T10:32:25.941515
1285,-0.9252,0.2362,0.3016,1.295,-3.850,0.000,1.00,0.00,0.01,0.00,0.00,2025-06-06T10:32:25.941515
1286,-0.9252,0.2318,0.3089,1.645,-4.690,0.840,1.00,0.00,0.02,0.02,0.01,2025-06-06T10:32:25.941515
1287,-0.9394,0.2303,0.3001,0.490,-5.495,1.470,2.00,0.00,0.00,0.01,0.00,2025-06-06T10:32:25.941515
1288,-0.9184,0.2338,0.2899,0.700,-5.425,2.485,4.00,0.00,0.00,0.02,0.00,2025-06-06T10:32:25.941515
1289,-0.9111,0.2289,0.2826,0.945,-5.985,3.955,1.00,0.00,0.00,0.02,0.00,2025-06-06T10:32:25.941515
1290,-0.9155,0.2323,0.2801,2.520,-5.320,4.795,1.00,0.00,0.00,0.03,0.00,2025-06-06T10:32:25.941515
1291,-0.9199,0.2357,0.2786,2.520,-5.425,5.320,2.00,0.00,0.00,0.02,0.01,2025-06-06T10:32:25.941515
1292,-0.9248,0.2264,0.2718,2.520,-3.780,5.145,0.00,0.01,0.00,0.02,0.01,2025-06-06T10:32:26.123856
1293,-0.9233,0.2157,0.2674,1.575,-2.485,4.515,5.00,0.00,0.01,0.03,0.00,2025-06-06T10:32:26.123856
1294,-0.9267,0.2137,0.2567,2.590,0.840,3.255,3.00,0.01,0.00,0.02,0.01,2025-06-06T10:32:26.123856
1295,-0.9008,0.2196,0.2611,5.460,1.820,3.255,2.00,0.01,0.00,0.02,0.00,2025-06-06T10:32:26.123856
1296,-0.8579,0.2298,0.2630,8.470,-0.245,6.475,0.00,0.01,0.00,0.02,0.01,2025-06-06T10:32:26.123856
1297,-0.8208,0.2298,0.2621,14.070,-4.340,12.320,4.00,0.00,0.01,0.02,0.00,2025-06-06T10:32:26.123856
1298,-0.8589,0.2484,0.2860,11.340,-17.885,18.655,0.00,0.00,0.01,0.03,0.00,2025-06-06T10:32:26.123856
1299,-0.7505,0.3479,0.2274,17.710,-30.275,23.730,4.00,0.01,0.01,0.02,0.00,2025-06-06T10:32:26.123856
1300,-0.9311,0.2752,0.1088,13.930,-20.545,29.855,1.00,0.00,0.01,0.02,0.00,2025-06-06T10:32:26.123856
1301,-0.9048,0.1054,0.0542,15.015,-7.245,22.295,3.00,0.00,0.01,0.02,0.00,2025-06-06T10:32:26.123856
1302,-1.2073,0.5475,0.7496,59.500,30.835,-12.180,0.00,0.00,0.01,0.02,0.00,2025-06-06T10:32:26.332195
1303,-0.9321,-0.0264,0.1708,15.785,26.215,-9.415,0.00,0.01,0.01,0.02,0.01,2025-06-06T10:32:26.332195
1304,-0.9545,-0.0059,-0.0634,42.805,59.185,-20.020,6.00,0.00,0.01,0.02,0.00,2025-06-06T10:32:26.332195
1305,-1.0131,0.3333,0.4421,66.920,39.970,-26.040,0.00,0.01,0.01,0.02,0.01,2025-06-06T10:32:26.332195
1306,-0.9921,0.3440,0.4890,70.665,18.375,-19.495,3.00,0.00,0.01,0.02,0.01,2025-06-06T10:32:26.332195
1307,-0.9814,0.3523,0.3680,53.480,5.460,-13.125,0.00,0.00,0.01,0.03,0.00,2025-06-06T10:32:26.332195
1308,-0.9043,0.3314,0.3899,25.445,10.710,-4.445,3.00,0.00,0.01,0.04,0.00,2025-06-06T10:32:26.332195
1309,-0.9272,0.3050,0.3733,7.840,13.580,2.170,0.00,0.00,0.01,0.05,0.01,2025-06-06T10:32:26.332195
1310,-0.9467,0.3255,0.2869,16.100,14.280,5.250,0.00,0.00,0.01,0.08,0.01,2025-06-06T10:32:26.332195
1311,-0.9482,0.3367,0.2464,21.210,12.005,6.965,0.00,0.00,0.02,0.10,0.00,2025-06-06T10:32:26.332195
1312,-0.9697,0.3182,0.1942,17.535,13.370,8.295,0.00,0.01,0.01,0.12,0.00,2025-06-06T10:32:26.332195
1313,-0.9994,0.2948,0.1986,13.965,12.320,5.915,6.00,0.00,0.00,0.13,0.00,2025-06-06T10:32:26.332195
1314,-1.0058,0.2918,0.2045,7.735,14.735,3.010,5.00,0.01,0.04,0.15,0.01,2025-06-06T10:32:26.332195
1315,-1.0063,0.2943,0.2147,9.415,10.010,0.105,0.00,0.01,0.03,0.17,0.00,2025-06-06T10:32:26.332195
1316,-0.9584,0.3016,0.2411,12.005,5.635,0.175,2.00,0.00,0.03,0.21,0.00,2025-06-06T10:32:26.332195
1317,-0.9116,0.3338,0.2479,10.675,-0.455,4.130,2.00,0.01,0.04,0.25,0.00,2025-06-06T10:32:26.332195
1318,-0.8979,0.3743,0.2840,7.245,-7.140,12.005,1.00,0.01,0.04,0.28,0.00,2025-06-06T10:32:26.332195
1319,-0.8384,0.3309,0.2391,4.970,-16.065,23.555,3.00,0.00,0.05,0.32,0.01,2025-06-06T10:32:26.332195
1320,-0.8950,0.3177,0.1986,9.835,-23.275,31.115,9.00,0.00,0.04,0.36,0.00,2025-06-06T10:32:26.332195
1321,-0.9267,0.2957,0.2137,13.615,-22.155,31.290,1.00,0.00,0.06,0.36,0.00,2025-06-06T10:32:26.421110
1322,-1.0043,0.2918,0.2064,17.150,-23.310,28.140,7.00,0.00,0.05,0.42,0.00,2025-06-06T10:32:26.421110
1323,-0.9755,0.3070,0.2103,12.845,-23.380,25.130,1.00,0.00,0.07,0.46,0.00,2025-06-06T10:32:26.421110
1324,-0.9101,0.2967,0.2572,4.235,-19.985,23.205,1.00,0.00,0.08,0.51,0.00,2025-06-06T10:32:26.421110
1325,-0.9843,0.2884,0.2401,-6.615,-19.460,20.720,2.00,0.00,0.09,0.54,0.01,2025-06-06T10:32:26.421110
1326,-0.8965,0.2582,0.2059,-7.910,-15.050,16.100,2.00,0.00,0.09,0.57,0.00,2025-06-06T10:32:26.421110
1327,-0.9687,0.2020,0.1713,-0.980,-10.605,6.440,0.00,0.01,0.11,0.61,0.01,2025-06-06T10:32:26.421110
1328,-0.9980,0.3030,0.1537,6.895,-6.265,-5.845,2.00,0.00,0.13,0.62,0.00,2025-06-06T10:32:26.421110
1329,-1.0131,0.2982,0.1850,9.135,-2.660,-16.380,2.00,0.00,0.11,0.63,0.00,2025-06-06T10:32:26.536919
1330,-0.9540,0.1118,0.2240,-5.530,0.875,-21.140,1.00,0.01,0.12,0.62,0.01,2025-06-06T10:32:26.536919
1331,-0.8316,0.5363,0.4089,2.975,-8.995,-17.325,2.00,0.00,0.12,0.66,0.00,2025-06-06T10:32:26.536919
1332,-0.9087,0.2908,0.1059,-15.715,-15.925,-18.550,3.00,0.01,0.15,0.64,0.00,2025-06-06T10:32:26.536919
1333,-0.8721,0.2538,0.2015,-20.510,-3.500,-11.060,1.00,0.01,0.15,0.66,0.00,2025-06-06T10:32:26.536919
1334,-0.8789,0.3035,0.1527,-7.945,-7.560,-8.855,2.00,0.00,0.15,0.67,0.01,2025-06-06T10:32:26.536919
1335,-0.9038,0.2708,0.1298,4.025,-2.380,-7.910,6.00,0.00,0.17,0.68,0.00,2025-06-06T10:32:26.536919
1336,-0.7666,0.2855,0.1435,16.205,-7.105,-6.720,1.00,0.00,0.18,0.69,0.00,2025-06-06T10:32:26.536919
1337,-0.8725,0.3030,0.1801,18.515,-6.720,-2.625,1.00,0.01,0.18,0.68,0.00,2025-06-06T10:32:26.644809
1338,-0.9223,0.2987,0.1869,16.695,-6.055,-1.785,0.00,0.00,0.18,0.68,0.00,2025-06-06T10:32:26.644809
1339,-0.9301,0.3182,0.1791,13.125,-1.225,-1.260,1.00,0.00,0.16,0.70,0.00,2025-06-06T10:32:26.644809
1340,-0.9482,0.3026,0.1854,12.285,-0.315,-1.050,3.00,0.00,0.21,0.71,0.01,2025-06-06T10:32:26.644809
1341,-0.9370,0.2743,0.2074,13.335,3.115,-1.645,2.00,0.01,0.22,0.71,0.00,2025-06-06T10:32:26.644809
1342,-0.9345,0.2562,0.2303,14.385,3.360,-1.680,20.00,0.00,0.23,0.73,0.00,2025-06-06T10:32:26.644809
1343,-0.9872,0.2440,0.2523,14.525,7.070,-6.020,2.00,0.00,0.20,0.72,0.00,2025-06-06T10:32:26.644809
1344,-0.9628,0.2913,0.2621,7.035,5.880,-7.525,1.00,0.01,0.18,0.69,0.00,2025-06-06T10:32:26.644809
1345,-0.9740,0.2752,0.2108,-0.245,12.285,-8.120,2.00,0.00,0.17,0.68,0.00,2025-06-06T10:32:26.745839
1346,-0.8745,0.2791,0.1425,8.505,26.460,-5.845,2.00,0.01,0.17,0.68,0.00,2025-06-06T10:32:26.745839
1347,-0.8091,0.3572,0.1625,5.215,23.940,3.325,2.00,0.01,0.16,0.68,0.00,2025-06-06T10:32:26.745839
1348,-0.8418,0.4114,0.1415,15.120,22.260,12.495,2.00,0.00,0.15,0.68,0.01,2025-06-06T10:32:26.745839
1349,-0.8750,0.4104,0.1640,24.430,21.105,22.330,2.00,0.00,0.15,0.67,0.00,2025-06-06T10:32:26.745839
1350,-0.9145,0.4309,0.2416,23.520,14.595,29.575,1.00,0.00,0.14,0.68,0.01,2025-06-06T10:32:26.745839
1351,-1.0155,0.4153,0.4211,9.590,6.685,35.805,8.00,0.00,0.16,0.67,0.01,2025-06-06T10:32:26.745839
1352,-1.2176,0.2860,0.0259,-14.350,35.595,25.095,3.00,0.00,0.16,0.67,0.00,2025-06-06T10:32:26.843180
1353,-1.0687,0.3523,0.1923,-6.895,51.450,16.660,3.00,0.00,0.15,0.66,0.01,2025-06-06T10:32:26.843180
1354,-0.7305,0.4031,0.4250,13.370,12.390,22.610,0.00,0.00,0.15,0.64,0.00,2025-06-06T10:32:26.843180
1355,-1.0555,0.3099,0.2294,-5.740,-13.230,29.645,4.00,0.00,0.15,0.65,0.01,2025-06-06T10:32:26.843180
1356,-1.1131,0.2655,0.2664,-28.105,4.270,18.130,0.00,0.00,0.15,0.66,0.01,2025-06-06T10:32:26.843180
1357,-1.0092,0.2791,0.2835,-48.055,16.135,7.455,2.00,0.01,0.14,0.66,0.01,2025-06-06T10:32:26.843180
1358,-0.9565,0.2479,0.0346,-47.635,29.540,-1.120,4.00,0.00,0.15,0.67,0.00,2025-06-06T10:32:26.843180
1359,-0.9867,0.2557,-0.0405,-37.135,48.545,-18.130,1.00,0.01,0.13,0.67,0.00,2025-06-06T10:32:26.843180
1360,-0.9306,0.3260,0.0410,-16.800,57.610,-27.545,0.00,0.00,0.13,0.66,0.01,2025-06-06T10:32:27.049745
1361,-0.9360,0.2391,0.0508,-11.235,59.045,-35.105,4.00,0.01,0.14,0.67,0.00,2025-06-06T10:32:27.049745
1362,-0.8481,0.3392,0.2040,-7.035,51.975,-26.565,3.00,0.01,0.14,0.67,0.00,2025-06-06T10:32:27.049745
1363,-0.9545,0.2918,0.0556,-20.265,34.265,-22.680,0.00,0.00,0.14,0.67,0.00,2025-06-06T10:32:27.049745
1364,-0.7993,0.3070,0.1508,-23.135,32.375,-12.495,1.00,0.00,0.15,0.69,0.00,2025-06-06T10:32:27.049745
1365,-0.8843,0.3128,0.0620,-15.435,21.070,-2.765,0.00,0.00,0.14,0.69,0.00,2025-06-06T10:32:27.049745
1366,-0.9887,0.2908,0.0215,-7.105,24.675,-4.130,1.00,0.00,0.15,0.70,0.00,2025-06-06T10:32:27.049745
1367,-0.9194,0.2499,-0.0634,3.570,36.225,-3.150,1.00,0.00,0.15,0.70,0.00,2025-06-06T10:32:27.049745
1368,-0.9838,0.2757,-0.0166,14.385,43.015,-6.510,0.00,0.00,0.15,0.69,0.00,2025-06-06T10:32:27.049745
1369,-1.0155,0.2796,0.0063,21.560,53.375,-9.730,1.00,0.00,0.15,0.71,0.01,2025-06-06T10:32:27.049745
1370,-1.0136,0.3650,0.0600,27.685,54.530,-9.870,1.00,0.00,0.15,0.71,0.00,2025-06-06T10:32:27.205045
1371,-0.8960,0.3167,0.0805,23.345,50.855,-1.365,0.00,0.00,0.15,0.71,0.00,2025-06-06T10:32:27.205045
1372,-0.9062,0.2987,0.1469,19.075,45.080,7.560,1.00,0.00,0.16,0.72,0.00,2025-06-06T10:32:27.205045
1373,-0.9531,0.3377,0.1503,19.110,37.415,17.395,1.00,0.00,0.17,0.72,0.00,2025-06-06T10:32:27.205045
1374,-0.4631,0.5749,-0.4006,9.905,18.690,30.835,3.00,0.00,0.17,0.73,0.00,2025-06-06T10:32:27.205045
1375,-0.8135,0.1410,-0.3494,48.475,63.700,12.600,1.00,0.00,0.17,0.73,0.00,2025-06-06T10:32:27.205045
1376,-0.3733,0.5588,-0.2250,95.340,72.065,27.545,1.00,0.01,0.17,0.73,0.01,2025-06-06T10:32:27.205045
1377,-1.0829,0.2606,-0.1435,145.775,66.815,15.855,5.00,0.00,0.18,0.72,0.01,2025-06-06T10:32:27.205045
1378,-1.0570,0.2089,0.0732,132.475,86.170,9.730,2.00,0.00,0.17,0.72,0.00,2025-06-06T10:32:27.205045
1379,-1.0609,0.3772,0.1820,100.030,90.475,4.620,2.00,0.00,0.17,0.72,0.00,2025-06-06T10:32:27.205045
1380,-1.2390,0.4392,0.2128,40.810,82.530,1.785,1.00,0.00,0.18,0.72,0.00,2025-06-06T10:32:27.205045
1381,-1.3908,0.3621,0.2191,-12.215,82.565,-7.945,2.00,0.01,0.18,0.73,0.01,2025-06-06T10:32:27.205045
1382,-1.1317,0.2279,-0.1396,-70.070,67.025,-7.665,1.00,0.00,0.17,0.72,0.01,2025-06-06T10:32:27.205045
1383,-1.3605,0.1703,-0.2411,-88.620,67.550,-22.785,0.00,0.00,0.18,0.72,0.00,2025-06-06T10:32:27.205045
1384,-1.2771,0.1972,-0.5266,-74.795,51.030,-41.160,0.00,0.01,0.17,0.72,0.00,2025-06-06T10:32:27.205045
1385,-1.0033,0.4021,-0.2757,-44.100,24.570,-49.210,1.00,0.01,0.18,0.71,0.01,2025-06-06T10:32:27.205045
1386,-0.8594,0.4168,-0.1108,-29.680,14.945,-47.425,0.00,0.01,0.17,0.71,0.00,2025-06-06T10:32:27.205045
1387,-0.7178,0.5022,-0.0303,-44.380,0.140,-37.625,1.00,0.01,0.19,0.71,0.00,2025-06-06T10:32:27.354529
1388,-0.4992,0.5397,-0.0102,-69.580,11.830,-22.785,2.00,0.00,0.17,0.71,0.00,2025-06-06T10:32:27.354529
1389,-0.6388,0.3353,-0.2015,-112.525,13.825,-11.340,0.00,0.00,0.18,0.72,0.01,2025-06-06T10:32:27.354529
1390,-0.6583,0.1781,-0.5734,-119.630,46.165,-5.740,2.00,0.01,0.18,0.72,0.01,2025-06-06T10:32:27.354529
1391,-0.6407,0.4143,-0.8852,-77.245,74.620,-2.100,0.00,0.00,0.19,0.73,0.00,2025-06-06T10:32:27.354529
1392,-0.7579,0.0386,-0.8291,14.210,95.130,-12.285,4.00,0.00,0.17,0.73,0.00,2025-06-06T10:32:27.354529
1393,-0.7657,0.3245,-0.2298,73.185,96.845,-18.830,1.00,0.00,0.17,0.74,0.00,2025-06-06T10:32:27.354529
1394,-0.7969,0.6251,-0.0181,78.785,62.720,-6.510,1.00,0.00,0.17,0.74,0.00,2025-06-06T10:32:27.354529
1395,-0.6627,0.3001,-0.3816,64.295,57.995,6.475,0.00,0.00,0.18,0.75,0.00,2025-06-06T10:32:27.354529
1396,-0.9506,0.1737,-0.6534,-3.465,32.445,21.175,15.00,0.00,0.19,0.75,0.00,2025-06-06T10:32:27.354529
1397,-1.0507,0.1957,-0.5470,-43.260,11.585,18.830,1.00,0.00,0.19,0.75,0.01,2025-06-06T10:32:27.354529
1398,-0.9267,0.2338,-0.0468,16.730,17.255,15.890,0.00,0.00,0.19,0.75,0.00,2025-06-06T10:32:27.354529
1399,-0.8457,0.3875,0.0781,51.520,7.385,21.665,2.00,0.00,0.19,0.77,0.00,2025-06-06T10:32:27.471667
1400,-0.8867,0.4138,0.0298,54.705,-1.575,20.265,2.00,0.01,0.20,0.78,0.01,2025-06-06T10:32:27.471667
1401,-0.9540,0.3455,-0.2069,18.445,-17.395,21.280,3.00,0.00,0.20,0.78,0.01,2025-06-06T10:32:27.471667
1402,-0.9833,0.3128,-0.4192,-43.260,-34.370,16.765,1.00,0.00,0.21,0.77,0.00,2025-06-06T10:32:27.471667
1403,-0.9609,0.2279,-0.5261,-81.305,-51.800,14.910,2.00,0.00,0.20,0.78,0.00,2025-06-06T10:32:27.471667
1404,-1.0375,0.3802,-0.3953,-41.580,-46.305,0.175,2.00,0.01,0.19,0.77,0.00,2025-06-06T10:32:27.471667
1405,-1.4308,0.5871,0.3880,40.915,40.670,-54.040,2.00,0.01,0.18,0.75,0.00,2025-06-06T10:32:27.471667
1406,-0.9282,0.6188,-0.0415,59.325,55.475,-49.140,2.00,0.01,0.20,0.75,0.00,2025-06-06T10:32:27.471667
1407,-1.0087,0.2840,-0.3753,1.715,74.760,-52.675,0.00,0.01,0.19,0.75,0.00,2025-06-06T10:32:27.561452
1408,-0.9243,0.0229,-0.7203,-74.970,29.645,-47.810,3.00,0.01,0.19,0.75,0.00,2025-06-06T10:32:27.561452
1409,-0.7837,0.1708,-0.8330,-101.745,47.565,-34.125,1.00,0.00,0.19,0.74,0.00,2025-06-06T10:32:27.561452
1410,-0.4660,0.1405,-0.7662,-14.700,18.130,-24.220,0.00,0.01,0.19,0.74,0.00,2025-06-06T10:32:27.561452
1411,-0.5783,0.1952,-0.5944,63.245,10.430,-15.225,1.00,0.01,0.19,0.73,0.00,2025-06-06T10:32:27.561452
1412,-0.6144,0.2152,-0.3748,105.000,7.035,-7.700,0.00,0.01,0.19,0.72,0.00,2025-06-06T10:32:27.561452
1413,-0.7940,0.2547,-0.2289,102.515,17.605,-3.675,0.00,0.00,0.18,0.71,0.00,2025-06-06T10:32:27.561452
1414,-0.9462,0.2406,-0.2879,44.520,19.215,-2.030,2.00,0.00,0.18,0.72,0.00,2025-06-06T10:32:27.646707
1415,-0.8965,0.1415,-0.4216,-1.225,-5.880,3.395,2.00,0.00,0.18,0.72,0.01,2025-06-06T10:32:27.646707
1416,-0.7159,0.1884,-0.4656,-37.695,-33.495,17.780,2.00,0.00,0.17,0.71,0.00,2025-06-06T10:32:27.646707
1417,-0.8847,0.1879,-0.5500,-37.905,-51.590,22.435,8.00,0.00,0.18,0.72,0.01,2025-06-06T10:32:27.646707
1418,-0.7457,0.0024,-0.6085,-13.790,-41.755,26.075,2.00,0.01,0.18,0.72,0.00,2025-06-06T10:32:27.759585
1419,-0.8745,0.0927,-0.4812,24.150,-36.540,20.265,0.00,0.01,0.18,0.72,0.00,2025-06-06T10:32:27.759585
1420,-0.8852,0.3704,-0.2982,38.010,-26.705,23.520,1.00,0.01,0.18,0.72,0.00,2025-06-06T10:32:27.759585
1421,-0.8886,0.3392,-0.2669,32.690,-18.480,22.715,1.00,0.00,0.18,0.72,0.00,2025-06-06T10:32:27.759585
1422,-0.8750,0.2284,-0.2699,3.430,1.190,-65.660,0.00,0.01,0.18,0.70,0.00,2025-06-06T10:32:27.759585
1423,-0.9687,0.2816,-0.2577,-19.320,-1.435,23.240,0.00,0.00,0.17,0.71,0.00,2025-06-06T10:32:27.759585
1424,-1.0102,0.2508,-0.3753,-27.580,-15.295,24.885,1.00,0.00,0.17,0.71,0.01,2025-06-06T10:32:27.759585
1425,-0.9292,0.2469,-0.5041,-24.920,-11.165,23.870,5.00,0.00,0.17,0.71,0.00,2025-06-06T10:32:27.759585
1426,-0.9604,0.1884,-0.4792,-8.120,-9.940,14.875,2.00,0.00,0.17,0.72,0.00,2025-06-06T10:32:27.759585
1427,-0.8379,0.4324,-0.2826,22.435,-21.000,17.990,2.00,0.00,0.18,0.72,0.00,2025-06-06T10:32:27.759585
1428,-0.8467,0.5104,-0.2372,17.780,-35.770,27.125,1.00,0.01,0.19,0.73,0.00,2025-06-06T10:32:27.759585
1429,-0.9087,0.3777,-0.2894,7.105,-32.865,23.485,2.00,0.00,0.18,0.73,0.01,2025-06-06T10:32:27.863062
1430,-0.9589,0.3494,-0.4138,-7.805,-39.235,21.105,3.00,0.01,0.19,0.73,0.01,2025-06-06T10:32:27.863062
1431,-1.0331,0.1298,-0.4787,-5.565,-44.660,14.385,9.00,0.01,0.17,0.71,0.01,2025-06-06T10:32:27.863062
1432,-0.9867,0.2362,-0.4743,15.750,-39.865,7.595,0.00,0.00,0.17,0.72,0.01,2025-06-06T10:32:27.863062
1433,-1.0614,0.1781,-0.3670,47.285,-34.440,-4.725,2.00,0.01,0.17,0.73,0.01,2025-06-06T10:32:27.863062
1434,-1.0878,0.1757,-0.2274,46.305,-19.425,-19.460,9.00,0.00,0.17,0.73,0.00,2025-06-06T10:32:27.863062
1435,-0.7676,0.3470,-0.1435,40.950,-3.815,-21.280,8.00,0.00,0.19,0.73,0.00,2025-06-06T10:32:27.863062
1436,-0.4890,0.5553,-0.0454,50.470,2.030,-12.740,1.00,0.00,0.18,0.73,0.00,2025-06-06T10:32:27.863062
1437,-0.6676,0.6144,-0.2054,53.235,-9.520,7.980,0.00,0.01,0.19,0.73,0.00,2025-06-06T10:32:27.911602
1438,-0.7520,0.4372,-0.4641,29.330,-3.710,21.175,14.00,0.00,0.19,0.74,0.00,2025-06-06T10:32:27.911602
1439,-0.7017,0.2664,-0.5719,50.540,-4.760,28.735,1.00,0.00,0.19,0.73,0.01,2025-06-06T10:32:27.911602
1440,-0.8291,0.2064,-0.6554,84.315,-3.430,38.885,6.00,0.00,0.18,0.73,0.01,2025-06-06T10:32:27.911602
1441,-0.8638,0.2943,-0.3426,94.220,1.505,41.580,1.00,0.01,0.19,0.74,0.01,2025-06-06T10:32:27.958469
1442,-0.9755,0.3543,-0.1357,85.575,12.005,45.290,1.00,0.01,0.19,0.73,0.00,2025-06-06T10:32:27.958469
1443,-1.0385,0.2786,-0.2035,45.745,10.045,46.130,2.00,0.00,0.19,0.74,0.00,2025-06-06T10:32:27.958469
1444,-1.0873,0.1893,-0.3338,30.975,-1.505,43.470,2.00,0.00,0.19,0.75,0.00,2025-06-06T10:32:28.073258
1445,-0.9897,0.2513,-0.3753,30.765,-20.825,41.020,1.00,0.01,0.21,0.75,0.00,2025-06-06T10:32:28.073258
1446,-1.0390,0.2050,-0.2308,17.500,-40.355,39.130,6.00,0.01,0.21,0.76,0.00,2025-06-06T10:32:28.073258
1447,-0.8764,0.2035,-0.2777,-3.815,-59.150,41.720,1.00,0.00,0.22,0.77,0.00,2025-06-06T10:32:28.073258
1448,-1.1122,0.2674,-0.3621,-5.355,-54.145,21.560,2.00,0.00,0.22,0.78,0.00,2025-06-06T10:32:28.073258
1449,-1.3742,0.1039,-0.3440,-28.770,-22.120,4.270,2.00,0.00,0.21,0.78,0.01,2025-06-06T10:32:28.073258
1450,-0.9306,0.3226,-0.5578,-42.455,-59.115,7.245,0.00,0.01,0.20,0.77,0.00,2025-06-06T10:32:28.073258
1451,-0.8159,0.4148,-0.3972,-42.350,-51.135,10.710,2.00,0.00,0.21,0.78,0.01,2025-06-06T10:32:28.073258
1452,-0.8164,0.3611,-0.0429,0.770,-3.850,-14.035,4.00,0.00,0.22,0.78,0.00,2025-06-06T10:32:28.123064
1453,-0.7715,0.6773,-0.0444,-5.215,-0.105,-10.605,2.00,0.01,0.22,0.78,0.00,2025-06-06T10:32:28.123064
1454,-0.3884,0.6852,-0.3411,-14.735,7.175,8.015,2.00,0.00,0.21,0.78,0.01,2025-06-06T10:32:28.123064
1455,-0.3562,0.6271,-0.2547,5.670,0.630,36.085,3.00,0.00,0.22,0.79,0.00,2025-06-06T10:32:28.123064
1456,-1.0385,0.4734,-0.3226,4.025,-4.445,46.340,2.00,0.00,0.22,0.80,0.00,2025-06-06T10:32:28.309345
1457,-1.0141,0.2289,-0.6359,-6.125,-9.695,47.775,3.00,0.00,0.23,0.80,0.00,2025-06-06T10:32:28.309345
1458,-1.1775,0.2430,-0.5671,-0.840,20.790,15.225,2.00,0.01,0.23,0.80,0.00,2025-06-06T10:32:28.309345
1459,-0.9701,0.2816,-0.4787,6.825,22.645,9.835,0.00,0.01,0.23,0.79,0.01,2025-06-06T10:32:28.309345
1460,-0.7266,0.2723,-0.4958,22.890,19.075,16.520,0.00,0.01,0.22,0.80,0.00,2025-06-06T10:32:28.309345
1461,-0.7052,0.1630,-0.4363,41.650,29.645,21.245,0.00,0.00,0.23,0.80,0.00,2025-06-06T10:32:28.309345
1462,-0.8433,0.2362,-0.3148,56.315,40.005,27.580,0.00,0.00,0.23,0.80,0.00,2025-06-06T10:32:28.309345
1463,-0.7462,0.3680,-0.3723,63.105,31.535,38.430,2.00,0.00,0.23,0.81,0.00,2025-06-06T10:32:28.309345
1464,-0.8330,0.5056,-0.2045,79.660,31.150,40.950,1.00,0.00,0.23,0.80,0.00,2025-06-06T10:32:28.309345
1465,-0.9511,0.5163,-0.0390,75.530,21.630,41.125,1.00,0.00,0.22,0.79,0.01,2025-06-06T10:32:28.309345
1466,-1.0268,0.4748,-0.0737,46.445,10.850,37.345,1.00,0.00,0.21,0.79,0.00,2025-06-06T10:32:28.309345
1467,-1.0014,0.4255,-0.3362,18.165,-2.065,32.060,3.00,0.01,0.19,0.78,0.01,2025-06-06T10:32:28.309345
1468,-1.0707,0.3104,-0.4314,0.280,-13.510,13.860,3.00,0.00,0.21,0.78,0.00,2025-06-06T10:32:28.379479
1469,-0.9540,0.3157,-0.4968,-13.860,-29.505,7.350,0.00,0.01,0.22,0.78,0.00,2025-06-06T10:32:28.379479
1470,-1.1248,0.3138,-0.3889,-24.500,-49.035,-0.525,2.00,0.00,0.22,0.78,0.00,2025-06-06T10:32:28.379479
1471,-1.0048,0.4124,-0.2142,-46.340,-76.790,-7.840,2.00,0.01,0.22,0.78,0.00,2025-06-06T10:32:28.379479
1472,-0.7832,0.4665,-0.0176,-78.015,-101.535,-1.400,1.00,0.01,0.21,0.79,0.00,2025-06-06T10:32:28.379479
1473,-0.6071,0.3748,-0.1313,-117.775,-116.270,7.000,0.00,0.00,0.21,0.78,0.01,2025-06-06T10:32:28.379479
1474,-0.6920,0.4358,-0.2011,-142.520,-116.340,9.380,0.00,0.00,0.21,0.78,0.00,2025-06-06T10:32:28.379479
1475,-0.4895,0.3479,-0.1703,-147.700,-105.560,8.995,2.00,0.01,0.21,0.79,0.00,2025-06-06T10:32:28.486370
1476,-0.5183,0.2996,-0.2777,-103.285,-85.470,3.430,0.00,0.00,0.20,0.79,0.01,2025-06-06T10:32:28.486370
1477,-0.9658,0.2943,-0.3221,-45.500,-76.300,-6.755,3.00,0.00,0.23,0.79,0.00,2025-06-06T10:32:28.486370
1478,-1.0604,0.3104,-0.5710,-17.885,-57.890,-21.280,2.00,0.00,0.23,0.80,0.00,2025-06-06T10:32:28.486370
1479,-0.7691,0.4831,-0.3118,-5.985,-74.200,-23.310,0.00,0.01,0.23,0.81,0.01,2025-06-06T10:32:28.486370
1480,-0.9101,0.3440,-0.2967,-2.555,-27.195,-25.900,0.00,0.00,0.23,0.81,0.00,2025-06-06T10:32:28.486370
1481,-1.0204,0.3401,-0.0849,-1.855,-19.985,-21.665,2.00,0.00,0.23,0.81,0.00,2025-06-06T10:32:28.486370
1482,-1.0726,0.4338,-0.1962,-19.915,-5.250,-12.250,0.00,0.00,0.23,0.82,0.00,2025-06-06T10:32:28.486370
1483,-1.0780,0.3870,-0.1835,-20.755,14.105,-4.165,1.00,0.01,0.24,0.82,0.01,2025-06-06T10:32:28.536972
1484,-0.8789,0.5280,-0.1230,-9.555,6.055,-7.455,2.00,0.01,0.24,0.83,0.01,2025-06-06T10:32:28.536972
1485,-0.6032,0.5373,-0.0381,4.165,-7.700,-2.275,0.00,0.00,0.25,0.84,0.00,2025-06-06T10:32:28.536972
1486,-0.4943,0.5441,-0.0976,10.430,-25.830,9.520,0.00,0.00,0.25,0.83,0.00,2025-06-06T10:32:28.536972
1487,-0.6393,0.5632,-0.0830,-2.695,-30.100,23.555,1.00,0.00,0.25,0.84,0.00,2025-06-06T10:32:28.614775
1488,-0.8477,0.4943,-0.1298,-11.830,-27.195,32.935,0.00,0.00,0.25,0.84,0.00,2025-06-06T10:32:28.614775
1489,-0.7037,0.4119,-0.2142,-6.125,-28.525,37.065,2.00,0.00,0.25,0.85,0.00,2025-06-06T10:32:28.614775
1490,-0.9160,0.3553,-0.1576,15.015,-28.700,36.505,5.00,0.01,0.25,0.84,0.01,2025-06-06T10:32:28.614775
1491,-0.9531,0.5261,-0.1166,21.945,-40.495,30.870,1.00,0.00,0.25,0.83,0.01,2025-06-06T10:32:28.790519
1492,-1.0277,0.6017,-0.1376,9.100,-38.780,23.730,1.00,0.01,0.25,0.84,0.00,2025-06-06T10:32:28.790519
1493,-0.9121,0.4494,-0.1776,-17.640,-24.395,14.805,1.00,0.01,0.25,0.85,0.00,2025-06-06T10:32:28.790519
1494,-0.9233,0.4553,-0.1401,-36.260,-12.005,8.085,0.00,0.01,0.25,0.85,0.00,2025-06-06T10:32:28.790519
1495,-0.9848,0.5041,-0.0683,-40.565,-18.620,6.615,3.00,0.01,0.25,0.85,0.01,2025-06-06T10:32:28.790519
1496,-0.8916,0.4841,-0.0864,-45.990,-30.065,15.365,1.00,0.01,0.25,0.85,0.01,2025-06-06T10:32:28.790519
1497,-0.8320,0.4275,-0.1430,-49.420,-34.055,18.970,0.00,0.00,0.25,0.85,0.00,2025-06-06T10:32:28.790519
1498,-0.7115,0.5134,-0.1659,-51.415,-31.010,22.505,2.00,0.01,0.25,0.83,0.00,2025-06-06T10:32:28.790519
1499,-0.8433,0.5344,-0.2391,-41.755,-22.295,22.085,1.00,0.01,0.24,0.82,0.00,2025-06-06T10:32:28.790519
1500,-0.8769,0.4821,-0.2030,-31.045,-21.385,18.760,0.00,0.00,0.23,0.82,0.00,2025-06-06T10:32:28.790519
1501,-0.9862,0.4963,-0.1586,-25.515,-18.480,15.610,0.00,0.00,0.24,0.82,0.01,2025-06-06T10:32:28.790519
1502,-0.9238,0.4612,-0.1557,-25.655,-10.395,10.360,3.00,0.00,0.24,0.83,0.01,2025-06-06T10:32:28.790519
1503,-0.8159,0.4704,-0.2206,-18.515,-1.925,10.745,16.00,0.01,0.24,0.83,0.00,2025-06-06T10:32:28.790519
1504,-0.8789,0.4787,-0.1303,-5.740,0.875,9.380,1.00,0.01,0.24,0.84,0.00,2025-06-06T10:32:28.790519
1505,-0.8486,0.4709,-0.0532,7.910,-4.865,13.720,4.00,0.00,0.23,0.83,0.00,2025-06-06T10:32:28.790519
1506,-0.8774,0.4099,0.1059,20.405,-9.100,14.805,0.00,0.01,0.23,0.83,0.00,2025-06-06T10:32:28.926140
1507,-0.9731,0.4348,0.0298,17.920,-9.940,10.010,1.00,0.01,0.23,0.83,0.01,2025-06-06T10:32:28.926140
1508,-0.9960,0.5051,0.0483,9.905,-11.410,3.395,3.00,0.00,0.23,0.84,0.00,2025-06-06T10:32:28.926140
1509,-0.8784,0.4446,0.0551,-1.470,-10.325,2.100,5.00,0.00,0.24,0.84,0.00,2025-06-06T10:32:28.926140
1510,-0.8955,0.4221,0.0522,-9.275,-6.510,0.280,0.00,0.00,0.23,0.83,0.00,2025-06-06T10:32:28.926140
1511,-0.8418,0.5173,0.0259,-6.510,-16.730,3.430,3.00,0.00,0.23,0.83,0.00,2025-06-06T10:32:28.926140
1512,-0.8208,0.4782,0.0181,2.310,-13.195,9.240,0.00,0.00,0.23,0.83,0.00,2025-06-06T10:32:28.926140
1513,-0.8150,0.4377,-0.0698,0.560,-14.875,10.325,0.00,0.00,0.23,0.83,0.00,2025-06-06T10:32:28.926140
1514,-0.7266,0.4011,-0.1850,3.920,-7.070,9.135,1.00,0.00,0.24,0.84,0.00,2025-06-06T10:32:28.926140
1515,-0.7657,0.5051,-0.1244,14.245,-2.520,8.960,0.00,0.00,0.24,0.84,0.00,2025-06-06T10:32:28.926140
1516,-0.8194,0.5714,-0.0146,20.265,-8.085,10.815,2.00,0.01,0.24,0.85,0.00,2025-06-06T10:32:29.095945
1517,-0.7969,0.5378,0.0249,13.895,-17.955,15.960,1.00,0.00,0.24,0.85,0.00,2025-06-06T10:32:29.095945
1518,-0.7862,0.5695,-0.0146,4.130,-22.260,21.910,2.00,0.01,0.24,0.85,0.00,2025-06-06T10:32:29.095945
1519,-0.7164,0.5549,-0.0805,0.140,-23.100,26.495,1.00,0.00,0.23,0.85,0.00,2025-06-06T10:32:29.095945
1520,-0.6749,0.4787,-0.0956,8.680,-20.930,28.805,3.00,0.00,0.26,0.86,0.00,2025-06-06T10:32:29.345402
1521,-0.7027,0.4490,-0.0600,19.565,-12.110,25.130,0.00,0.00,0.25,0.86,0.00,2025-06-06T10:32:29.345402
1522,-1.0253,0.5246,0.2030,16.135,23.590,3.360,0.00,0.00,0.25,0.86,0.00,2025-06-06T10:32:29.345402
1523,-0.8872,0.4934,-0.0254,-7.175,0.630,-7.805,0.00,0.00,0.25,0.85,0.01,2025-06-06T10:32:29.345402
1524,-0.8018,0.3782,-0.1030,-15.155,-5.005,-17.430,0.00,0.00,0.25,0.85,0.00,2025-06-06T10:32:29.345402
1525,-0.8711,0.3572,0.0678,3.360,-15.225,-29.890,1.00,0.00,0.25,0.85,0.00,2025-06-06T10:32:29.345402
1526,-0.9135,0.4353,0.0122,9.940,-23.625,-47.740,3.00,0.01,0.25,0.85,0.00,2025-06-06T10:32:29.345402
1527,-0.9955,0.4914,-0.1835,1.505,-7.070,-64.330,5.00,0.00,0.26,0.85,0.00,2025-06-06T10:32:29.345402
1528,-1.0126,0.5656,-0.2123,-12.425,7.980,-64.400,3.00,0.01,0.26,0.85,0.00,2025-06-06T10:32:29.345402
1529,-0.7008,0.6207,-0.0317,-4.970,3.535,-61.985,1.00,0.01,0.26,0.84,0.00,2025-06-06T10:32:29.345402
1530,-0.5305,0.6803,-0.0117,9.065,-9.695,-37.520,1.00,0.00,0.25,0.85,0.00,2025-06-06T10:32:29.345402
1531,-0.6734,0.5915,0.0239,17.220,-12.985,-17.430,8.00,0.00,0.26,0.85,0.00,2025-06-06T10:32:29.345402
1532,-0.6476,0.5905,-0.0171,13.685,-12.285,3.325,0.00,0.01,0.26,0.85,0.01,2025-06-06T10:32:29.345402
1533,-0.7774,0.6178,-0.0571,16.345,-9.030,22.575,0.00,0.01,0.25,0.85,0.01,2025-06-06T10:32:29.345402
1534,-0.8584,0.6134,0.0498,24.045,-5.215,32.025,0.00,0.00,0.25,0.86,0.00,2025-06-06T10:32:29.345402
1535,-0.8140,0.6383,0.1044,19.285,-18.060,36.610,0.00,0.00,0.26,0.85,0.00,2025-06-06T10:32:29.345402
1536,-0.7891,0.5334,-0.0024,15.085,-23.905,41.195,0.00,0.00,0.26,0.85,0.00,2025-06-06T10:32:29.345402
1537,-0.9257,0.4865,0.0439,20.755,-20.090,41.930,1.00,0.01,0.26,0.85,0.01,2025-06-06T10:32:29.345402
1538,-1.0126,0.5470,0.2425,26.985,-24.920,35.805,0.00,0.00,0.26,0.85,0.00,2025-06-06T10:32:29.345402
1539,-1.1927,0.5031,0.5056,16.135,-41.790,20.755,14.00,0.01,0.27,0.85,0.00,2025-06-06T10:32:29.345402
1540,-1.2376,0.4675,0.3884,-33.740,-43.505,5.390,0.00,0.01,0.26,0.85,0.00,2025-06-06T10:32:29.345402
1541,-1.2010,0.4202,0.2157,-87.360,-59.255,-11.200,1.00,0.01,0.26,0.85,0.00,2025-06-06T10:32:29.345402
1542,-1.0790,0.3714,-0.1698,-86.520,-19.215,-29.995,0.00,0.00,0.25,0.85,0.00,2025-06-06T10:32:29.345402
1543,-0.5417,0.5456,-0.0805,-42.665,-39.725,-36.925,2.00,0.01,0.26,0.85,0.01,2025-06-06T10:32:29.345402
1544,-0.7730,0.3924,-0.1620,-13.335,-30.905,-36.680,0.00,0.01,0.26,0.85,0.01,2025-06-06T10:32:29.345402
1545,-0.6349,0.3767,-0.2147,-5.145,-23.590,-32.655,1.00,0.00,0.26,0.85,0.01,2025-06-06T10:32:29.345402
1546,-0.6754,0.5602,0.0264,-7.805,-30.450,-17.465,0.00,0.01,0.26,0.83,0.00,2025-06-06T10:32:29.345402
1547,-0.8662,0.4924,-0.0434,-6.195,-34.195,-9.695,0.00,0.00,0.26,0.83,0.00,2025-06-06T10:32:29.519331
1548,-0.8818,0.4558,-0.0639,-0.945,-26.180,-12.600,0.00,0.01,0.25,0.82,0.01,2025-06-06T10:32:29.519331
1549,-0.9692,0.5290,0.1049,2.205,-22.295,-16.275,6.00,0.01,0.24,0.81,0.00,2025-06-06T10:32:29.519331
1550,-0.9218,0.5646,0.1298,-3.885,-23.555,-14.630,10.00,0.00,0.22,0.79,0.01,2025-06-06T10:32:29.519331
1551,-0.9106,0.5646,0.1078,-14.840,-19.425,-14.525,4.00,0.00,0.21,0.76,0.00,2025-06-06T10:32:29.519331
1552,-0.7759,0.4895,-0.0571,-20.230,-5.530,-10.920,1.00,0.00,0.17,0.74,0.00,2025-06-06T10:32:29.519331
1553,-0.7579,0.5022,0.1039,-7.385,-0.245,0.840,0.00,0.00,0.15,0.67,0.00,2025-06-06T10:32:29.519331
1554,-0.7091,0.5392,0.0893,4.900,-8.120,13.650,0.00,0.00,0.15,0.60,0.00,2025-06-06T10:32:29.519331
1555,-0.8101,0.5022,0.0742,10.290,-5.810,23.555,3.00,0.00,0.14,0.55,0.00,2025-06-06T10:32:29.519331
1556,-0.8335,0.4909,0.1454,6.020,-9.485,27.405,0.00,0.00,0.10,0.49,0.00,2025-06-06T10:32:29.519331
1557,-0.9355,0.4270,0.1542,10.465,-8.155,24.885,0.00,0.01,0.08,0.42,0.00,2025-06-06T10:32:29.519331
1558,-0.8921,0.4455,0.2338,18.235,-15.855,21.945,0.00,0.00,0.06,0.34,0.00,2025-06-06T10:32:29.519331
1559,-0.8359,0.4909,0.1410,19.320,-15.645,20.300,1.00,0.01,0.05,0.28,0.00,2025-06-06T10:32:29.519331
1560,-0.7276,0.5353,0.1688,14.140,-14.035,23.170,3.00,0.01,0.03,0.21,0.00,2025-06-06T10:32:29.519331
1561,-0.6871,0.4895,0.1215,6.825,-11.760,24.955,2.00,0.01,0.03,0.16,0.00,2025-06-06T10:32:29.606812
1562,-0.9658,0.1547,-0.2098,1.330,-2.030,24.220,2.00,0.00,0.01,0.15,0.00,2025-06-06T10:32:29.606812
1563,-0.7032,0.3372,-0.2216,28.420,-4.375,16.940,1.00,0.00,0.02,0.14,0.00,2025-06-06T10:32:29.606812
1564,-0.8428,0.4924,0.1074,47.880,-24.255,13.580,2.00,0.00,0.02,0.12,0.00,2025-06-06T10:32:29.606812
1565,-0.8189,0.2884,-0.1083,36.225,-28.070,1.330,2.00,0.01,0.01,0.10,0.00,2025-06-06T10:32:29.606812
1566,-0.7559,0.5100,-0.1879,22.750,-0.525,-15.260,1.00,0.00,0.01,0.08,0.00,2025-06-06T10:32:29.606812
1567,-0.4914,0.6188,-0.0273,38.570,0.000,-10.465,1.00,0.00,0.01,0.06,0.00,2025-06-06T10:32:29.606812
1568,-0.6622,0.3826,-0.0259,44.870,-4.935,-8.575,5.00,0.01,0.01,0.05,0.00,2025-06-06T10:32:29.655182
1569,-0.9448,0.3362,0.0278,54.215,4.480,-11.445,0.00,0.00,0.01,0.06,0.00,2025-06-06T10:32:29.655182
1570,-0.9623,0.5129,0.1093,72.380,-3.815,-14.490,2.00,0.00,0.02,0.06,0.00,2025-06-06T10:32:29.655182
1571,-1.0687,0.6202,0.3553,66.955,-18.235,-19.635,4.00,0.00,0.01,0.05,0.01,2025-06-06T10:32:29.834909
1572,-1.1307,0.6212,0.2713,29.750,-30.660,-21.630,4.00,0.00,0.01,0.05,0.00,2025-06-06T10:32:29.834909
1573,-1.0716,0.6056,0.1659,-7.560,-23.135,-27.195,2.00,0.00,0.01,0.05,0.01,2025-06-06T10:32:29.834909
1574,-1.2839,0.5724,0.3318,-45.780,-18.760,-29.645,2.00,0.01,0.01,0.05,0.00,2025-06-06T10:32:29.834909
1575,-0.9331,0.5290,0.2264,-50.400,-9.590,-28.280,4.00,0.00,0.02,0.06,0.00,2025-06-06T10:32:29.834909
1576,-0.8384,0.6642,0.0771,-23.520,-10.220,-15.575,1.00,0.01,0.02,0.07,0.01,2025-06-06T10:32:29.834909
1577,-0.8574,0.8032,0.0634,-14.700,-22.120,4.900,0.00,0.00,0.01,0.08,0.00,2025-06-06T10:32:29.834909
1578,-0.8672,0.5451,-0.1078,-26.495,-8.890,7.490,2.00,0.00,0.02,0.10,0.00,2025-06-06T10:32:29.834909
1579,-0.8955,0.4953,0.0195,-27.650,-4.620,5.495,1.00,0.00,0.01,0.11,0.00,2025-06-06T10:32:29.834909
1580,-0.6407,0.6617,0.0049,-12.915,-21.105,13.265,0.00,0.00,0.02,0.13,0.00,2025-06-06T10:32:29.834909
1581,-0.5168,0.4982,-0.1654,-6.230,-25.165,20.300,2.00,0.00,0.00,0.13,0.00,2025-06-06T10:32:29.834909
1582,-0.6442,0.2494,-0.0210,-5.670,-22.610,16.590,0.00,0.00,0.02,0.14,0.01,2025-06-06T10:32:29.834909
1583,-0.8379,0.3338,-0.0112,6.825,-25.305,2.170,2.00,0.01,0.02,0.15,0.01,2025-06-06T10:32:29.834909
1584,-1.0092,0.3304,0.0273,15.155,-32.375,-23.695,3.00,0.01,0.02,0.14,0.00,2025-06-06T10:32:29.834909
1585,-1.0521,0.3079,0.1127,-3.185,-17.010,-43.680,2.00,0.00,0.02,0.14,0.00,2025-06-06T10:32:29.910380
1586,-1.0331,0.4426,0.1869,-17.745,-9.170,-53.375,0.00,0.01,0.01,0.14,0.00,2025-06-06T10:32:29.910380
1587,-0.8808,0.5041,0.0942,-21.140,2.555,-41.650,2.00,0.00,0.02,0.13,0.01,2025-06-06T10:32:29.910380
1588,-0.8560,0.4856,0.1444,-2.905,8.400,-21.245,4.00,0.01,0.02,0.13,0.00,2025-06-06T10:32:29.910380
1589,-0.8320,0.5729,0.0595,7.770,12.355,3.325,6.00,0.00,0.02,0.12,0.00,2025-06-06T10:32:29.910380
1590,-0.8891,0.6144,-0.0259,22.295,14.140,20.090,1.00,0.00,0.02,0.13,0.00,2025-06-06T10:32:29.910380
1591,-0.9897,0.5578,0.0351,33.635,11.900,25.795,3.00,0.01,0.02,0.14,0.00,2025-06-06T10:32:30.007507
1592,-1.0878,0.5319,-0.0029,28.315,17.885,18.480,7.00,0.00,0.03,0.17,0.00,2025-06-06T10:32:30.007507
1593,-1.1888,0.4065,0.0664,14.665,26.250,2.800,1.00,0.01,0.03,0.22,0.00,2025-06-06T10:32:30.007507
1594,-1.2068,0.3875,0.0361,3.920,36.190,-16.835,1.00,0.00,0.04,0.26,0.01,2025-06-06T10:32:30.007507
1595,-0.8813,0.6149,0.1937,6.090,29.960,-21.770,1.00,0.00,0.05,0.32,0.01,2025-06-06T10:32:30.007507
1596,-0.8945,0.5856,0.2704,-16.765,19.565,-12.460,2.00,0.00,0.05,0.39,0.00,2025-06-06T10:32:30.007507
1597,-0.6437,0.5641,0.0942,-24.500,10.115,14.840,1.00,0.00,0.08,0.48,0.00,2025-06-06T10:32:30.007507
1598,-0.7193,0.6837,0.2460,-30.485,-23.275,37.695,1.00,0.00,0.09,0.54,0.00,2025-06-06T10:32:30.007507
1599,-0.7149,0.6012,0.2689,-17.290,-45.465,62.615,2.00,0.01,0.11,0.56,0.00,2025-06-06T10:32:30.123200
1600,-0.7788,0.6964,0.2713,-13.720,-56.770,79.870,2.00,0.00,0.13,0.60,0.00,2025-06-06T10:32:30.123200
1601,-1.0760,0.6076,0.3377,-22.400,-63.910,84.560,0.00,0.00,0.13,0.64,0.00,2025-06-06T10:32:30.123200
1602,-1.1170,0.5012,0.1728,-32.585,-25.445,69.790,1.00,0.00,0.13,0.65,0.01,2025-06-06T10:32:30.123200
1603,-0.7335,0.5729,-0.0322,-42.735,-10.710,61.040,0.00,0.01,0.15,0.69,0.00,2025-06-06T10:32:30.123200
1604,-0.7608,0.4290,-0.3265,-25.235,32.165,50.190,0.00,0.01,0.17,0.73,0.00,2025-06-06T10:32:30.123200
1605,-1.0677,0.5026,0.0356,-6.755,42.525,42.210,4.00,0.00,0.17,0.74,0.00,2025-06-06T10:32:30.123200
1606,-0.8452,0.5402,-0.0195,16.065,38.010,48.615,2.00,0.01,0.19,0.75,0.00,2025-06-06T10:32:30.123200
1607,-0.7569,0.6290,0.0283,20.545,27.930,64.470,0.00,0.01,0.20,0.76,0.01,2025-06-06T10:32:30.323726
1608,-0.6505,0.6349,0.0991,19.110,30.415,78.085,11.00,0.00,0.23,0.77,0.00,2025-06-06T10:32:30.323726
1609,-0.8320,0.6139,0.1684,20.685,38.430,83.755,7.00,0.00,0.22,0.77,0.01,2025-06-06T10:32:30.323726
1610,-0.7520,0.5890,0.1332,31.850,42.840,83.650,4.00,0.00,0.21,0.76,0.01,2025-06-06T10:32:30.323726
1611,-0.8969,0.5993,0.1649,41.580,48.370,77.945,1.00,0.00,0.20,0.77,0.00,2025-06-06T10:32:30.323726
1612,-0.8350,0.6612,0.1547,43.925,44.975,73.990,0.00,0.00,0.21,0.76,0.00,2025-06-06T10:32:30.323726
1613,-0.9658,0.6759,0.2572,28.875,39.620,66.395,1.00,0.00,0.21,0.78,0.00,2025-06-06T10:32:30.323726
1614,-0.8711,0.7486,0.1157,10.850,37.415,54.565,0.00,0.00,0.20,0.78,0.00,2025-06-06T10:32:30.323726
1615,-0.2401,0.9379,0.2450,-18.690,-38.150,71.680,1.00,0.00,0.22,0.80,0.00,2025-06-06T10:32:30.323726
1616,-0.5783,0.6290,-0.2572,-17.220,10.395,62.475,5.00,0.00,0.22,0.81,0.00,2025-06-06T10:32:30.323726
1617,-0.4265,0.7598,-0.1303,-14.210,-11.060,66.045,0.00,0.00,0.23,0.81,0.01,2025-06-06T10:32:30.323726
1618,-0.5485,0.6046,-0.2826,-3.640,7.420,59.325,1.00,0.00,0.24,0.81,0.00,2025-06-06T10:32:30.323726
1619,-0.6471,0.6032,-0.2830,12.110,24.465,49.105,0.00,0.00,0.24,0.83,0.00,2025-06-06T10:32:30.323726
1620,-0.7954,0.7984,-0.1054,32.655,28.315,43.260,1.00,0.00,0.24,0.81,0.00,2025-06-06T10:32:30.323726
1621,-0.9716,0.8930,-0.0215,51.275,20.370,47.985,0.00,0.00,0.24,0.81,0.00,2025-06-06T10:32:30.323726
1622,-0.7857,0.9399,-0.0786,74.725,19.075,59.430,2.00,0.01,0.24,0.80,0.00,2025-06-06T10:32:30.437282
1623,-0.2542,1.0131,-0.1484,107.100,-4.235,85.855,3.00,0.01,0.24,0.81,0.00,2025-06-06T10:32:30.437282
1624,0.5695,0.9575,-0.4382,147.910,-32.725,120.610,1.00,0.00,0.25,0.79,0.00,2025-06-06T10:32:30.437282
1625,1.2424,0.5031,-0.5485,112.035,-68.495,117.635,4.00,0.01,0.25,0.82,0.00,2025-06-06T10:32:30.437282
1626,2.0291,-1.0858,-0.3289,-82.950,-73.920,50.715,2.00,0.00,0.25,0.82,0.00,2025-06-06T10:32:30.437282
1627,1.3074,-1.7173,0.9643,-98.385,48.755,8.960,4.00,0.00,0.26,0.82,0.00,2025-06-06T10:32:30.437282
1628,0.2294,-1.7588,1.2717,-220.325,-43.540,-172.235,0.00,0.00,0.25,0.81,0.00,2025-06-06T10:32:30.437282
1629,-3.0417,-1.4211,0.9950,-510.615,-31.325,-443.975,1.00,0.01,0.24,0.81,0.01,2025-06-06T10:32:30.437282
1630,-6.0497,-0.1142,0.7671,-416.920,-47.075,-803.390,1.00,0.00,0.25,0.81,0.00,2025-06-06T10:32:30.528550
1631,-3.8001,2.7191,1.4533,-57.225,-286.230,-1019.585,0.00,0.01,0.25,0.82,0.00,2025-06-06T10:32:30.528550
1632,-2.0486,3.8703,2.6498,137.900,-295.015,-647.955,3.00,0.00,0.24,0.82,0.00,2025-06-06T10:32:30.528550
1633,-0.8862,1.3044,0.5895,135.275,-348.355,-440.720,1.00,0.00,0.24,0.83,0.01,2025-06-06T10:32:30.528550
1634,0.8535,1.1361,-1.9979,-392.490,-248.185,-149.345,0.00,0.01,0.24,0.82,0.01,2025-06-06T10:32:30.528550
1635,-0.0854,-0.3240,-2.3526,-154.035,-5.425,16.135,2.00,0.00,0.24,0.82,0.00,2025-06-06T10:32:30.528550
1636,-2.4415,-0.3919,-0.5373,5.075,133.035,53.900,1.00,0.00,0.25,0.83,0.01,2025-06-06T10:32:30.528550
1637,-2.4766,0.4309,0.4304,184.100,53.830,94.605,2.00,0.01,0.25,0.83,0.00,2025-06-06T10:32:30.734768
1638,-2.0418,0.1845,0.9150,234.325,2.380,118.545,1.00,0.01,0.25,0.83,0.00,2025-06-06T10:32:30.734768
1639,-1.1312,0.3348,0.8281,93.590,34.405,141.085,2.00,0.00,0.25,0.85,0.00,2025-06-06T10:32:30.734768
1640,-0.5998,0.0044,0.0800,107.800,88.970,131.705,0.00,0.01,0.27,0.84,0.00,2025-06-06T10:32:30.734768
1641,-0.3914,0.2845,-0.1928,115.255,123.620,132.615,2.00,0.00,0.25,0.84,0.01,2025-06-06T10:32:30.734768
1642,-0.7808,0.3353,-0.0288,165.340,99.960,127.330,2.00,0.01,0.25,0.84,0.00,2025-06-06T10:32:30.734768
1643,-1.0189,0.2113,0.3226,144.060,80.535,108.710,0.00,0.01,0.26,0.84,0.00,2025-06-06T10:32:30.734768
1644,-1.2781,-0.1913,0.2347,107.975,57.155,62.230,1.00,0.01,0.26,0.84,0.00,2025-06-06T10:32:30.734768
1645,-1.5470,-0.2830,0.1679,70.945,45.500,-23.030,1.00,0.01,0.27,0.84,0.00,2025-06-06T10:32:30.734768
1646,-1.4196,-0.2274,0.4124,71.015,26.530,-93.660,0.00,0.00,0.27,0.85,0.00,2025-06-06T10:32:30.734768
1647,-1.1156,0.1688,0.8535,54.250,39.305,-124.635,0.00,0.00,0.26,0.85,0.00,2025-06-06T10:32:30.734768
1648,-0.8921,0.2987,0.7305,-9.065,6.615,-119.595,1.00,0.00,0.26,0.85,0.01,2025-06-06T10:32:30.734768
1649,-0.7832,0.3567,0.5202,-59.640,-3.185,-91.525,0.00,0.00,0.26,0.85,0.00,2025-06-06T10:32:30.734768
1650,-0.6822,0.4797,0.1937,-71.120,-25.620,-56.070,0.00,0.00,0.26,0.85,0.01,2025-06-06T10:32:30.734768
1651,-0.8072,0.3826,0.0122,-58.380,-21.980,-16.275,0.00,0.01,0.26,0.85,0.00,2025-06-06T10:32:30.734768
1652,-0.9209,0.3523,-0.0517,-59.325,-8.085,6.895,6.00,0.01,0.26,0.85,0.01,2025-06-06T10:32:30.734768
1653,-1.1600,0.2625,-0.0464,-49.035,2.100,19.950,1.00,0.00,0.26,0.84,0.00,2025-06-06T10:32:30.834863
1654,-1.1922,0.2708,0.0112,-29.015,3.255,24.850,2.00,0.00,0.26,0.84,0.01,2025-06-06T10:32:30.834863
1655,-1.0809,0.2865,0.0425,-18.445,4.025,31.745,0.00,0.00,0.25,0.83,0.01,2025-06-06T10:32:30.834863
1656,-1.0146,0.2928,0.0678,-23.310,12.670,37.695,1.00,0.00,0.25,0.83,0.00,2025-06-06T10:32:30.834863
1657,-0.9760,0.3070,0.0708,-24.990,25.060,41.930,2.00,0.00,0.25,0.82,0.00,2025-06-06T10:32:30.834863
1658,-0.9648,0.3333,0.1127,-17.920,28.595,45.535,0.00,0.00,0.25,0.83,0.01,2025-06-06T10:32:30.834863
1659,-0.8594,0.3416,0.1449,-14.385,30.380,51.835,3.00,0.00,0.26,0.83,0.00,2025-06-06T10:32:30.834863
1660,-0.9204,0.4065,0.1322,-12.425,26.250,57.715,0.00,0.01,0.27,0.84,0.01,2025-06-06T10:32:30.885426
1661,-0.9321,0.3611,0.1142,-11.480,29.400,60.410,0.00,0.01,0.27,0.84,0.00,2025-06-06T10:32:30.885426
1662,-0.9326,0.3304,0.1269,-13.230,31.500,60.970,0.00,0.01,0.27,0.84,0.01,2025-06-06T10:32:30.885426
1663,-0.9882,0.3548,0.1366,-15.750,33.670,57.995,3.00,0.01,0.26,0.84,0.00,2025-06-06T10:32:30.885426
1664,-0.9414,0.3665,0.1615,-14.140,32.760,54.320,6.00,0.00,0.27,0.85,0.01,2025-06-06T10:32:30.932062
1665,-0.9340,0.3518,0.2176,-15.505,29.330,52.080,4.00,0.00,0.26,0.84,0.01,2025-06-06T10:32:30.932062
1666,-0.9980,0.3670,0.3304,-20.160,22.120,47.810,2.00,0.00,0.27,0.85,0.00,2025-06-06T10:32:30.932062
1667,-1.0219,0.4006,0.3572,-35.980,12.670,47.775,2.00,0.01,0.26,0.86,0.01,2025-06-06T10:32:30.932062
1668,-0.9789,0.4382,0.2855,-59.780,5.355,45.745,3.00,0.00,0.27,0.86,0.00,2025-06-06T10:32:30.979186
1669,-0.9453,0.4006,0.2425,-74.865,4.410,47.425,2.00,0.01,0.27,0.86,0.00,2025-06-06T10:32:30.979186
1670,-0.8281,0.3587,0.1435,-82.915,9.240,42.770,0.00,0.00,0.27,0.85,0.01,2025-06-06T10:32:31.152576
1671,-0.8003,0.3558,0.0849,-73.115,13.720,43.470,0.00,0.01,0.26,0.86,0.00,2025-06-06T10:32:31.152576
1672,-0.7813,0.3841,0.0434,-51.765,10.045,42.770,2.00,0.01,0.27,0.86,0.01,2025-06-06T10:32:31.152576
1673,-0.6588,0.4236,-0.0415,-25.375,2.240,41.965,7.00,0.00,0.26,0.86,0.00,2025-06-06T10:32:31.152576
1674,-0.6725,0.4270,-0.1000,-12.250,-0.945,44.625,2.00,0.00,0.27,0.86,0.01,2025-06-06T10:32:31.152576
1675,-0.7525,0.3675,-0.1152,-5.075,7.455,44.695,2.00,0.00,0.27,0.87,0.01,2025-06-06T10:32:31.152576
1676,-0.7535,0.3728,0.0161,2.905,11.830,44.695,1.00,0.00,0.28,0.87,0.01,2025-06-06T10:32:31.152576
1677,-0.8628,0.4026,0.0625,13.090,8.400,46.235,0.00,0.00,0.27,0.87,0.01,2025-06-06T10:32:31.152576
1678,-0.7823,0.4348,0.0732,27.685,-0.070,47.355,3.00,0.01,0.26,0.86,0.01,2025-06-06T10:32:31.152576
1679,-0.7696,0.4704,0.1464,38.395,-10.395,51.590,0.00,0.01,0.27,0.86,0.01,2025-06-06T10:32:31.152576
1680,-0.9536,0.4582,0.0317,29.120,-4.130,45.395,2.00,0.00,0.26,0.86,0.01,2025-06-06T10:32:31.152576
1681,-1.0385,0.4558,0.1337,20.300,11.130,34.685,1.00,0.00,0.26,0.86,0.00,2025-06-06T10:32:31.152576
1682,-1.0878,0.5148,0.2255,8.610,15.400,23.170,3.00,0.00,0.26,0.86,0.00,2025-06-06T10:32:31.152576
1683,-1.2908,0.5300,0.2782,-4.025,26.355,9.415,0.00,0.00,0.26,0.86,0.01,2025-06-06T10:32:31.193400
1684,-1.2381,0.6085,0.3562,-22.365,30.695,4.200,2.00,0.00,0.26,0.85,0.00,2025-06-06T10:32:31.193400
1685,-1.1766,0.6978,0.3309,-36.680,39.375,23.870,1.00,0.01,0.27,0.88,0.00,2025-06-06T10:32:31.193400
1686,-1.1610,0.6734,0.2913,-44.625,64.470,29.435,2.00,0.01,0.27,0.87,0.01,2025-06-06T10:32:31.193400
1687,-1.0297,0.6886,0.1874,-33.425,75.285,38.535,1.00,0.00,0.27,0.86,0.01,2025-06-06T10:32:31.242754
1688,-0.8467,0.6783,0.0054,-4.375,50.925,46.830,2.00,0.00,0.28,0.87,0.00,2025-06-06T10:32:31.242754
1689,-0.7945,0.6227,-0.0517,32.935,51.450,62.860,3.00,0.00,0.28,0.86,0.00,2025-06-06T10:32:31.242754
1690,-0.7784,0.5827,-0.1684,75.565,65.065,66.920,1.00,0.00,0.28,0.86,0.01,2025-06-06T10:32:31.242754
1691,-0.8389,0.5217,-0.2025,82.880,77.350,58.695,2.00,0.00,0.27,0.86,0.00,2025-06-06T10:32:31.337451
1692,-0.7793,0.4929,-0.1459,78.610,74.165,49.560,12.00,0.01,0.27,0.87,0.01,2025-06-06T10:32:31.337451
1693,-0.6939,0.5173,-0.0752,67.865,53.025,48.230,2.00,0.00,0.27,0.86,0.01,2025-06-06T10:32:31.337451
1694,-0.6320,0.5280,-0.0049,60.550,48.125,54.635,4.00,0.00,0.27,0.87,0.01,2025-06-06T10:32:31.337451
1695,-0.6900,0.4963,-0.0351,47.005,47.180,59.360,1.00,0.00,0.28,0.86,0.01,2025-06-06T10:32:31.337451
1696,-0.7296,0.4426,-0.0288,36.575,43.470,56.945,2.00,0.01,0.27,0.86,0.00,2025-06-06T10:32:31.337451
1697,-0.7442,0.4768,0.0039,41.125,39.900,52.955,2.00,0.00,0.28,0.87,0.01,2025-06-06T10:32:31.337451
1698,-0.7798,0.4865,-0.0415,38.045,33.845,49.350,1.00,0.01,0.28,0.87,0.00,2025-06-06T10:32:31.452944
1699,-0.7652,0.4895,-0.0327,35.665,26.145,43.260,3.00,0.00,0.29,0.88,0.00,2025-06-06T10:32:31.452944
1700,-0.6656,0.5266,-0.0605,30.625,11.900,42.140,2.00,0.01,0.28,0.90,0.00,2025-06-06T10:32:31.452944
1701,-0.6515,0.5246,-0.1640,22.225,2.555,40.145,1.00,0.00,0.28,0.88,0.01,2025-06-06T10:32:31.452944
1702,-0.6002,0.5139,-0.2079,27.265,1.190,38.220,1.00,0.00,0.28,0.87,0.00,2025-06-06T10:32:31.452944
1703,-0.6188,0.5290,-0.2513,27.685,6.895,34.825,3.00,0.00,0.28,0.87,0.01,2025-06-06T10:32:31.452944
1704,-0.5627,0.5353,-0.2499,20.965,16.800,28.385,11.00,0.00,0.28,0.87,0.00,2025-06-06T10:32:31.452944
1705,-0.5675,0.5514,-0.2147,18.200,21.630,28.280,1.00,0.00,0.27,0.87,0.00,2025-06-06T10:32:31.452944
1706,-0.5602,0.5978,-0.2118,17.640,22.925,30.170,0.00,0.00,0.28,0.87,0.01,2025-06-06T10:32:31.554956
1707,-0.5534,0.6193,-0.1820,19.285,16.240,34.405,0.00,0.01,0.29,0.87,0.00,2025-06-06T10:32:31.554956
1708,-0.5090,0.6432,-0.1825,20.160,10.080,39.725,1.00,0.00,0.28,0.87,0.01,2025-06-06T10:32:31.554956
1709,-0.5773,0.6773,-0.1932,15.505,6.685,39.725,0.00,0.01,0.29,0.87,0.00,2025-06-06T10:32:31.554956
1710,-0.6080,0.6510,-0.2162,13.370,7.280,36.435,1.00,0.01,0.28,0.87,0.00,2025-06-06T10:32:31.554956
1711,-0.6954,0.6564,-0.2518,14.000,8.890,29.435,0.00,0.00,0.27,0.86,0.00,2025-06-06T10:32:31.554956
1712,-0.7281,0.7027,-0.2879,14.700,11.620,22.540,2.00,0.00,0.27,0.86,0.01,2025-06-06T10:32:31.554956
1713,-0.6671,0.7730,-0.2338,18.060,5.635,20.405,0.00,0.00,0.27,0.86,0.00,2025-06-06T10:32:31.554956
1714,-0.5549,0.7720,-0.2460,17.710,-2.625,24.780,3.00,0.00,0.27,0.85,0.00,2025-06-06T10:32:31.658598
1715,-0.5036,0.7647,-0.2586,14.805,-9.170,30.065,3.00,0.00,0.27,0.85,0.00,2025-06-06T10:32:31.658598
1716,-0.4387,0.6983,-0.2894,14.910,-7.945,31.710,1.00,0.00,0.26,0.84,0.01,2025-06-06T10:32:31.658598
1717,-0.5036,0.6817,-0.2962,12.145,-5.600,28.455,2.00,0.01,0.26,0.83,0.01,2025-06-06T10:32:31.658598
1718,-0.6856,0.6827,-0.3533,6.160,3.745,16.730,2.00,0.01,0.26,0.83,0.00,2025-06-06T10:32:31.658598
1719,-0.7144,0.6603,-0.3104,4.620,13.405,7.805,0.00,0.01,0.26,0.83,0.00,2025-06-06T10:32:31.658598
1720,-0.6461,0.7008,-0.1537,10.675,8.855,7.035,1.00,0.00,0.26,0.84,0.00,2025-06-06T10:32:31.658598
1721,-0.6183,0.6832,-0.0776,4.095,-3.185,11.620,2.00,0.01,0.27,0.83,0.00,2025-06-06T10:32:31.772196
1722,-0.6486,0.6715,-0.1625,-8.400,-19.320,21.560,0.00,0.00,0.27,0.84,0.00,2025-06-06T10:32:31.772196
1723,-0.7481,0.6539,-0.1923,-12.880,-17.640,18.305,1.00,0.00,0.28,0.85,0.00,2025-06-06T10:32:31.772196
1724,-0.7110,0.6041,-0.2420,-10.675,-9.065,13.405,2.00,0.00,0.27,0.83,0.00,2025-06-06T10:32:31.772196
1725,-0.6178,0.6237,-0.2918,-16.730,-1.540,12.460,2.00,0.01,0.27,0.83,0.01,2025-06-06T10:32:31.772196
1726,-0.5427,0.6115,-0.2664,-23.520,6.510,15.750,1.00,0.00,0.27,0.83,0.00,2025-06-06T10:32:31.772196
1727,-0.5539,0.6617,-0.2289,-23.485,9.170,19.005,3.00,0.01,0.27,0.83,0.01,2025-06-06T10:32:31.772196
1728,-0.5539,0.7066,-0.2450,-24.115,6.790,21.770,1.00,0.00,0.27,0.83,0.00,2025-06-06T10:32:31.772196
1729,-0.6603,0.7505,-0.2157,-23.135,-2.100,23.940,2.00,0.01,0.26,0.83,0.00,2025-06-06T10:32:31.867316
1730,-0.6202,0.7925,-0.2006,-16.170,-11.165,26.005,0.00,0.01,0.28,0.84,0.00,2025-06-06T10:32:31.867316
1731,-0.6437,0.7779,-0.2962,-9.100,-17.570,23.275,1.00,0.00,0.27,0.84,0.01,2025-06-06T10:32:31.867316
1732,-0.5485,0.7471,-0.3138,-11.795,-14.525,16.730,3.00,0.01,0.27,0.84,0.00,2025-06-06T10:32:31.867316
1733,-0.5353,0.7335,-0.3026,-16.275,-6.300,12.145,2.00,0.01,0.26,0.84,0.00,2025-06-06T10:32:31.867316
1734,-0.6422,0.8164,-0.2723,-23.415,2.765,4.655,2.00,0.01,0.27,0.81,0.00,2025-06-06T10:32:31.867316
1735,-0.6368,0.8818,-0.2240,-18.060,8.470,-1.540,2.00,0.00,0.27,0.83,0.00,2025-06-06T10:32:31.867316
1736,-0.6964,0.9218,-0.1493,-2.100,1.995,-0.525,2.00,0.00,0.27,0.83,0.00,2025-06-06T10:32:31.867316
1737,-0.6080,0.9204,-0.1571,12.880,-10.815,7.840,1.00,0.00,0.27,0.83,0.00,2025-06-06T10:32:31.966755
1738,-0.5817,0.8359,-0.1967,28.315,-21.350,15.120,3.00,0.01,0.26,0.84,0.00,2025-06-06T10:32:31.966755
1739,-0.5876,0.7701,-0.2723,26.670,-16.345,16.030,1.00,0.00,0.27,0.84,0.00,2025-06-06T10:32:31.966755
1740,-0.5754,0.7432,-0.3382,12.180,-3.430,14.595,1.00,0.00,0.26,0.84,0.00,2025-06-06T10:32:31.966755
1741,-0.5397,0.7720,-0.3245,-2.415,11.830,16.730,1.00,0.01,0.27,0.85,0.01,2025-06-06T10:32:31.966755
1742,-0.5183,0.7774,-0.2523,5.495,13.300,23.065,3.00,0.00,0.27,0.85,0.00,2025-06-06T10:32:31.966755
1743,-0.6398,0.7427,-0.2220,12.110,11.935,30.660,1.00,0.00,0.26,0.85,0.01,2025-06-06T10:32:31.966755
1744,-0.5900,0.6949,-0.2089,4.375,14.315,35.350,2.00,0.00,0.26,0.84,0.00,2025-06-06T10:32:32.062731
1745,-0.5885,0.6686,-0.1840,0.140,13.020,37.590,1.00,0.00,0.25,0.84,0.01,2025-06-06T10:32:32.062731
1746,-0.6227,0.6315,-0.2455,1.995,13.615,36.190,1.00,0.01,0.24,0.83,0.00,2025-06-06T10:32:32.062731
1747,-0.6076,0.6324,-0.2318,3.010,14.560,34.895,3.00,0.01,0.23,0.83,0.00,2025-06-06T10:32:32.062731
1748,-0.5871,0.6808,-0.1601,-2.415,15.120,30.660,0.00,0.00,0.23,0.81,0.01,2025-06-06T10:32:32.062731
1749,-0.4817,0.6959,-0.1786,-11.900,17.290,28.000,0.00,0.00,0.22,0.82,0.01,2025-06-06T10:32:32.062731
1750,-0.4709,0.7081,-0.2294,-9.555,16.660,28.035,2.00,0.00,0.22,0.81,0.00,2025-06-06T10:32:32.062731
1751,-0.5163,0.7398,-0.2377,-5.460,12.845,28.350,0.00,0.00,0.23,0.81,0.01,2025-06-06T10:32:32.062731
1752,-0.5144,0.7784,-0.1840,-5.215,6.440,29.015,1.00,0.00,0.24,0.81,0.01,2025-06-06T10:32:32.109869
1753,-0.3831,0.7906,-0.2220,-8.400,-3.360,33.075,2.00,0.00,0.24,0.82,0.00,2025-06-06T10:32:32.109869
1754,-0.3050,0.7862,-0.2455,-10.185,-4.865,34.405,4.00,0.00,0.24,0.81,0.00,2025-06-06T10:32:32.109869
1755,-0.3138,0.8115,-0.2333,-7.350,-4.060,31.255,2.00,0.00,0.24,0.83,0.00,2025-06-06T10:32:32.109869
1756,-0.4412,0.8569,-0.2367,-14.490,-1.610,23.800,1.00,0.00,0.23,0.83,0.00,2025-06-06T10:32:32.274126
1757,-0.6393,0.8794,-0.3099,-23.415,-1.645,14.070,2.00,0.00,0.24,0.83,0.00,2025-06-06T10:32:32.274126
1758,-0.6403,0.9550,-0.2508,-11.235,-11.130,10.395,5.00,0.01,0.24,0.84,0.00,2025-06-06T10:32:32.274126
1759,-0.2879,1.0092,-0.1210,10.710,-25.480,18.095,3.00,0.00,0.25,0.84,0.00,2025-06-06T10:32:32.274126
1760,-0.1093,1.0438,-0.2103,-3.465,-34.895,26.565,5.00,0.00,0.25,0.85,0.00,2025-06-06T10:32:32.274126
1761,-0.1513,1.0887,-0.3514,-20.020,-23.170,30.415,0.00,0.01,0.25,0.85,0.00,2025-06-06T10:32:32.274126
1762,-0.1923,1.0409,-0.3377,-4.795,-28.175,29.715,0.00,0.01,0.25,0.85,0.00,2025-06-06T10:32:32.274126
1763,-0.2240,1.0751,-0.2957,15.960,-41.510,26.670,0.00,0.00,0.24,0.85,0.00,2025-06-06T10:32:32.274126
1764,-0.2684,1.1707,-0.2103,28.035,-44.240,15.295,1.00,0.00,0.25,0.85,0.00,2025-06-06T10:32:32.274126
1765,-0.0981,0.9955,-0.4597,28.315,-64.925,15.575,2.00,0.00,0.25,0.86,0.00,2025-06-06T10:32:32.274126
1766,0.5675,1.1366,-0.3650,53.410,-125.790,18.445,4.00,0.00,0.22,0.86,0.01,2025-06-06T10:32:32.274126
1767,1.1561,1.4557,-0.6388,73.395,-220.045,18.550,1.00,0.01,0.24,0.85,0.00,2025-06-06T10:32:32.274126
1768,1.6729,1.6943,-0.8682,5.950,-267.610,-18.480,2.00,0.00,0.24,0.87,0.00,2025-06-06T10:32:32.419104
1769,2.5659,0.6920,-1.6602,-175.700,-154.140,-200.480,0.00,0.00,0.24,0.86,0.01,2025-06-06T10:32:32.419104
1770,3.1696,0.3558,-2.1696,-299.670,-20.195,-26.705,0.00,0.01,0.24,0.86,0.01,2025-06-06T10:32:32.419104
1771,2.7562,-0.1498,-0.6490,-48.370,135.625,-61.145,0.00,0.01,0.23,0.85,0.00,2025-06-06T10:32:32.419104
1772,1.2415,-0.2225,1.1409,-78.015,145.495,-154.665,0.00,0.00,0.21,0.85,0.01,2025-06-06T10:32:32.419104
1773,-1.4874,-0.6681,2.4668,-158.620,133.910,-307.860,0.00,0.00,0.20,0.84,0.00,2025-06-06T10:32:32.419104
1774,-5.0044,-0.4534,2.5352,-38.255,-92.715,-540.190,3.00,0.00,0.21,0.84,0.00,2025-06-06T10:32:32.419104
1775,-7.8270,0.4148,3.0505,88.480,-378.805,-750.190,1.00,0.00,0.20,0.84,0.00,2025-06-06T10:32:32.419104
1776,-3.8191,1.2512,2.8655,340.340,-419.825,-616.665,2.00,0.01,0.21,0.85,0.00,2025-06-06T10:32:32.419104
1777,-1.4298,-0.8047,-0.9858,-117.215,-377.545,-393.540,2.00,0.00,0.22,0.86,0.01,2025-06-06T10:32:32.419104
1778,0.5666,-1.9134,-3.2838,72.765,-218.260,-260.750,1.00,0.00,0.22,0.86,0.00,2025-06-06T10:32:32.419104
1779,-0.2757,-3.0017,-2.8206,-78.610,53.130,-259.560,1.00,0.01,0.22,0.85,0.00,2025-06-06T10:32:32.692119
1780,-0.7315,-1.1566,-1.5777,12.740,214.060,-202.440,1.00,0.01,0.23,0.85,0.00,2025-06-06T10:32:32.692119
1781,-1.3527,-0.4080,-0.6520,-43.155,118.405,-71.155,1.00,0.01,0.22,0.86,0.01,2025-06-06T10:32:32.692119
1782,-1.9866,-0.6466,-0.1322,-75.040,82.040,18.445,1.00,0.01,0.23,0.85,0.00,2025-06-06T10:32:32.692119
1783,-2.0218,-0.7052,0.3831,-98.245,227.325,-7.910,2.00,0.00,0.23,0.85,0.01,2025-06-06T10:32:32.692119
1784,-2.0174,-0.0024,0.7013,31.465,255.465,-14.630,1.00,0.00,0.23,0.85,0.00,2025-06-06T10:32:32.692119
1785,-2.0023,0.5461,1.4655,-68.810,217.385,-1.820,0.00,0.01,0.21,0.82,0.00,2025-06-06T10:32:32.692119
1786,-1.4738,0.7418,1.1488,-55.650,49.140,32.165,2.00,0.00,0.19,0.81,0.00,2025-06-06T10:32:32.692119
1787,-1.1258,0.5949,0.2694,-72.485,-41.475,53.060,0.00,0.00,0.18,0.80,0.00,2025-06-06T10:32:32.692119
1788,-0.9799,0.5573,-0.1518,-43.015,-63.070,57.050,2.00,0.00,0.18,0.80,0.00,2025-06-06T10:32:32.692119
1789,-0.9111,0.5397,-0.4451,-53.515,-6.475,54.845,1.00,0.01,0.18,0.80,0.01,2025-06-06T10:32:32.692119
1790,-1.2268,0.4543,-0.1952,-65.590,47.390,41.790,4.00,0.00,0.17,0.79,0.00,2025-06-06T10:32:32.692119
1791,-1.3278,0.6803,0.0747,-52.535,31.045,33.705,4.00,0.01,0.17,0.78,0.01,2025-06-06T10:32:32.692119
1792,-1.0882,0.7657,0.1039,-19.110,-18.970,49.980,2.00,0.01,0.17,0.78,0.00,2025-06-06T10:32:32.692119
1793,-1.3552,0.5217,0.0224,-12.985,-44.835,66.990,0.00,0.00,0.17,0.77,0.00,2025-06-06T10:32:32.692119
1794,-1.3376,0.3597,-0.0830,-12.390,-35.280,74.060,1.00,0.00,0.17,0.78,0.00,2025-06-06T10:32:32.692119
1795,-1.3113,0.2181,-0.0620,2.835,-22.190,77.105,2.00,0.01,0.18,0.79,0.00,2025-06-06T10:32:32.692119
1796,-1.1893,0.2357,0.0605,11.515,-22.365,83.545,0.00,0.00,0.18,0.80,0.00,2025-06-06T10:32:32.692119
1797,-1.0770,0.2108,0.0264,13.545,-15.855,92.400,1.00,0.00,0.20,0.80,0.01,2025-06-06T10:32:32.747547
1798,-1.0756,0.1976,-0.0488,10.850,-13.650,98.210,1.00,0.01,0.20,0.81,0.01,2025-06-06T10:32:32.747547
1799,-1.1775,0.1957,-0.0996,12.180,-17.115,95.865,0.00,0.00,0.20,0.81,0.00,2025-06-06T10:32:32.747547
1800,-1.1912,0.1649,-0.1932,16.345,-22.960,88.410,1.00,0.01,0.20,0.81,0.00,2025-06-06T10:32:32.747547
1801,-1.2176,0.0849,-0.2211,18.340,-18.690,75.320,2.00,0.00,0.20,0.81,0.01,2025-06-06T10:32:32.747547
1802,-1.1224,0.0820,-0.1332,20.510,-10.150,67.305,3.00,0.00,0.19,0.81,0.00,2025-06-06T10:32:32.747547
1803,-0.8520,0.1835,-0.0303,25.620,-13.860,68.740,1.00,0.00,0.20,0.80,0.00,2025-06-06T10:32:33.003504
1804,-0.7437,0.2030,-0.0068,22.435,-5.075,76.685,2.00,0.01,0.20,0.80,0.00,2025-06-06T10:32:33.003504
1805,-0.7896,0.1859,0.0976,-3.570,3.955,82.110,2.00,0.00,0.18,0.79,0.00,2025-06-06T10:32:33.003504
1806,-0.8730,0.1752,0.1381,-8.960,2.905,81.305,0.00,0.01,0.20,0.80,0.00,2025-06-06T10:32:33.003504
1807,-0.9721,0.1957,0.0996,-15.260,-5.040,78.260,1.00,0.01,0.20,0.81,0.01,2025-06-06T10:32:33.003504
1808,-0.9892,0.2294,0.0595,-11.095,-19.985,72.765,3.00,0.00,0.20,0.81,0.00,2025-06-06T10:32:33.003504
1809,-0.9228,0.3177,0.0015,-2.520,-30.275,69.545,1.00,0.00,0.20,0.81,0.00,2025-06-06T10:32:33.003504
1810,-0.8364,0.3704,-0.0659,1.015,-31.430,66.430,2.00,0.00,0.20,0.80,0.00,2025-06-06T10:32:33.003504
1811,-0.6076,0.3953,-0.1118,9.975,-28.210,68.740,0.00,0.00,0.20,0.80,0.00,2025-06-06T10:32:33.003504
1812,-0.4724,0.4490,-0.0571,6.335,-20.510,72.415,2.00,0.01,0.18,0.79,0.00,2025-06-06T10:32:33.003504
1813,-0.5871,0.4021,-0.0478,-12.530,6.475,72.975,2.00,0.00,0.19,0.78,0.00,2025-06-06T10:32:33.003504
1814,-0.7447,0.3777,-0.0512,-40.390,22.785,70.105,2.00,0.01,0.18,0.78,0.00,2025-06-06T10:32:33.003504
1815,-0.7139,0.4290,-0.0386,-52.255,38.605,66.220,1.00,0.01,0.19,0.78,0.00,2025-06-06T10:32:33.003504
1816,-0.5949,0.4685,-0.0434,-43.995,34.405,64.260,1.00,0.00,0.19,0.79,0.00,2025-06-06T10:32:33.003504
1817,-0.4036,0.4085,-0.0190,-25.235,16.275,63.035,3.00,0.00,0.18,0.78,0.00,2025-06-06T10:32:33.003504
1818,-0.3162,0.2972,0.1523,-15.085,2.520,68.495,4.00,0.00,0.19,0.79,0.01,2025-06-06T10:32:33.003504
1819,-0.1903,0.3699,0.1269,-20.615,-0.420,80.710,2.00,0.00,0.19,0.79,0.00,2025-06-06T10:32:33.003504
1820,-0.5851,0.3645,-0.0903,-52.605,26.250,80.640,4.00,0.00,0.20,0.79,0.00,2025-06-06T10:32:33.198190
1821,-0.9692,0.4221,0.0527,-66.220,63.385,62.860,2.00,0.00,0.19,0.79,0.01,2025-06-06T10:32:33.198190
1822,-1.1253,0.5856,0.4324,-44.940,66.745,49.805,2.00,0.00,0.20,0.79,0.00,2025-06-06T10:32:33.198190
1823,-0.5480,0.8242,0.4236,-12.775,33.250,50.995,0.00,0.00,0.19,0.78,0.00,2025-06-06T10:32:33.198190
1824,-0.4685,0.9135,0.3201,-8.260,-0.875,62.440,1.00,0.00,0.18,0.78,0.00,2025-06-06T10:32:33.198190
1825,-0.6549,0.8535,0.1615,-35.385,10.150,84.700,2.00,0.00,0.19,0.77,0.00,2025-06-06T10:32:33.198190
1826,-0.7471,0.8535,0.0220,-64.365,39.620,81.620,7.00,0.00,0.18,0.77,0.00,2025-06-06T10:32:33.198190
1827,-0.5466,0.9565,-0.0166,-44.310,37.870,78.505,2.00,0.00,0.19,0.77,0.00,2025-06-06T10:32:33.198190
1828,-0.5187,1.0536,0.0063,-7.105,26.600,76.755,2.00,0.00,0.19,0.77,0.00,2025-06-06T10:32:33.198190
1829,-0.5358,1.2224,0.0844,18.655,19.215,65.450,3.00,0.00,0.19,0.76,0.00,2025-06-06T10:32:33.198190
1830,-0.4807,1.2132,0.1322,18.620,22.470,70.875,0.00,0.01,0.18,0.76,0.00,2025-06-06T10:32:33.198190
1831,-0.5793,1.1722,0.1791,5.180,25.550,91.420,2.00,0.00,0.18,0.76,0.00,2025-06-06T10:32:33.198190
1832,-0.7398,1.4479,0.1186,49.070,16.380,227.955,5.00,0.00,0.19,0.76,0.01,2025-06-06T10:32:33.198190
1833,-0.5563,1.1673,-0.0395,45.990,26.915,89.565,0.00,0.00,0.20,0.77,0.01,2025-06-06T10:32:33.198190
1834,-0.4187,1.0268,-0.1415,73.290,20.860,78.610,2.00,0.01,0.19,0.76,0.00,2025-06-06T10:32:33.198190
1835,-0.2352,0.9560,-0.3235,79.730,17.815,84.560,0.00,0.00,0.18,0.75,0.00,2025-06-06T10:32:33.198190
1836,-0.0673,0.8891,-0.2904,56.560,15.925,63.315,0.00,0.00,0.19,0.75,0.00,2025-06-06T10:32:33.198190
1837,-0.1825,0.9340,-0.1874,39.130,27.125,55.755,2.00,0.00,0.19,0.76,0.00,2025-06-06T10:32:33.240619
1838,-0.3245,0.8516,-0.1405,15.330,34.020,48.020,2.00,0.00,0.19,0.79,0.00,2025-06-06T10:32:33.240619
1839,-0.4787,0.8355,0.0220,17.500,24.220,39.865,0.00,0.00,0.20,0.79,0.00,2025-06-06T10:32:33.240619
1840,-0.4641,0.9243,0.1030,37.205,5.600,39.130,3.00,0.00,0.20,0.78,0.00,2025-06-06T10:32:33.290689
1841,-0.3216,0.9213,-0.0542,27.440,-14.420,36.365,0.00,0.01,0.20,0.79,0.01,2025-06-06T10:32:33.290689
1842,-0.2255,0.8184,-0.2713,0.245,-19.530,22.995,1.00,0.00,0.20,0.81,0.01,2025-06-06T10:32:33.290689
1843,-0.2006,0.7935,-0.3836,-7.700,-4.620,11.900,2.00,0.01,0.22,0.80,0.00,2025-06-06T10:32:33.290689
1844,-0.3919,0.8560,-0.3753,12.250,4.900,-1.995,0.00,0.01,0.21,0.81,0.01,2025-06-06T10:32:33.406318
1845,-0.6163,0.9311,-0.2699,20.195,10.920,-14.525,1.00,0.00,0.22,0.82,0.01,2025-06-06T10:32:33.406318
1846,-0.3928,1.0268,-0.1098,23.275,-1.365,-17.570,1.00,0.01,0.22,0.82,0.00,2025-06-06T10:32:33.406318
1847,-0.2899,1.1004,-0.0913,19.915,-17.990,-14.000,0.00,0.01,0.23,0.83,0.00,2025-06-06T10:32:33.406318
1848,-0.2782,1.0682,-0.2196,9.100,-28.420,-9.975,0.00,0.00,0.22,0.83,0.01,2025-06-06T10:32:33.406318
1849,-0.0083,1.0502,-0.2601,10.500,-32.340,-4.795,2.00,0.00,0.22,0.84,0.00,2025-06-06T10:32:33.406318
1850,0.3850,1.1014,-0.1157,17.325,-43.225,3.640,1.00,0.00,0.23,0.84,0.00,2025-06-06T10:32:33.406318
1851,0.9545,1.3591,-0.0581,4.200,-81.620,12.530,2.00,0.00,0.23,0.86,0.00,2025-06-06T10:32:33.406318
1852,2.1945,1.5826,-0.2860,-85.120,-207.235,12.250,2.00,0.01,0.24,0.88,0.00,2025-06-06T10:32:33.593034
1853,3.4853,1.4113,-1.3659,-136.465,-394.135,-41.440,3.00,0.00,0.24,0.89,0.00,2025-06-06T10:32:33.593034
1854,2.5352,0.3836,-1.4782,83.195,-163.275,-63.385,2.00,0.00,0.24,0.89,0.00,2025-06-06T10:32:33.593034
1855,1.7139,-0.3650,-0.8272,53.550,-91.805,-186.165,2.00,0.01,0.25,0.89,0.00,2025-06-06T10:32:33.593034
1856,1.3039,-0.5768,0.7364,132.230,-100.660,-323.295,1.00,0.01,0.24,0.89,0.00,2025-06-06T10:32:33.593034
1857,-0.3314,0.0015,2.3512,-26.950,-34.685,-484.750,0.00,0.00,0.25,0.90,0.00,2025-06-06T10:32:33.593034
1858,-2.8992,0.5441,3.9782,-454.510,-96.845,-646.275,2.00,0.00,0.26,0.91,0.00,2025-06-06T10:32:33.593034
1859,-5.2821,0.9487,3.3638,-875.385,72.590,-737.730,0.00,0.00,0.25,0.92,0.01,2025-06-06T10:32:33.593034
1860,-3.9679,-0.1420,1.0536,-182.875,-24.570,-706.650,1.00,0.01,0.26,0.94,0.00,2025-06-06T10:32:33.593034
1861,-1.5279,-1.2503,-1.9305,147.910,-315.910,-545.510,2.00,0.00,0.27,0.95,0.00,2025-06-06T10:32:33.593034
1862,-0.5153,-0.3709,-0.4802,380.695,-429.205,-291.270,3.00,0.00,0.27,0.96,0.00,2025-06-06T10:32:33.593034
1863,-0.7730,-0.9482,-1.2054,120.715,-79.800,-26.950,1.00,0.00,0.29,0.96,0.01,2025-06-06T10:32:33.593034
1864,-1.4113,-0.5651,-1.0355,-168.105,42.945,93.170,1.00,0.00,0.28,0.96,0.01,2025-06-06T10:32:33.593034
1865,-2.5605,-0.9428,-1.1517,-108.850,299.180,114.940,5.00,0.01,0.29,0.96,0.00,2025-06-06T10:32:33.593034
1866,-1.6743,-0.1991,-0.9091,43.365,273.070,109.130,1.00,0.01,0.28,0.96,0.00,2025-06-06T10:32:33.593034
1867,-1.2122,-0.0176,-0.1371,135.275,198.065,90.895,4.00,0.00,0.29,0.98,0.00,2025-06-06T10:32:33.646624
1868,-1.0858,-0.1508,1.1868,69.160,229.880,69.475,0.00,0.01,0.28,0.98,0.01,2025-06-06T10:32:33.646624
1869,-1.8158,-0.2323,2.0999,-54.670,244.825,41.265,1.00,0.01,0.29,0.98,0.01,2025-06-06T10:32:33.646624
1870,-1.1190,0.0146,1.5977,-40.635,48.335,22.540,0.00,0.00,0.29,1.00,0.01,2025-06-06T10:32:33.646624
1871,-0.6910,0.0932,0.2669,53.375,-102.830,10.745,0.00,0.01,0.28,1.01,0.00,2025-06-06T10:32:33.807949
1872,-0.6822,0.2596,-0.2040,41.615,-81.550,13.020,1.00,0.01,0.30,1.03,0.01,2025-06-06T10:32:33.807949
1873,-0.8374,0.2674,-0.4431,-25.025,20.055,10.465,2.00,0.01,0.30,1.02,0.00,2025-06-06T10:32:33.807949
1874,-1.0477,0.3367,-0.4817,-36.155,70.595,-0.140,6.00,0.00,0.31,1.01,0.00,2025-06-06T10:32:33.807949
1875,-1.2732,0.3558,-0.1630,-9.695,67.865,-11.585,0.00,0.01,0.31,1.01,0.01,2025-06-06T10:32:33.807949
1876,-1.7563,0.3152,0.3767,-31.675,48.860,-16.905,1.00,0.00,0.32,1.00,0.01,2025-06-06T10:32:33.807949
1877,-1.2005,0.3660,0.4036,-23.905,-1.890,7.035,0.00,0.00,0.31,1.01,0.00,2025-06-06T10:32:33.807949
1878,-1.0228,0.1732,0.1923,-16.590,-51.310,33.810,0.00,0.01,0.32,1.01,0.00,2025-06-06T10:32:33.807949
1879,-1.0321,0.1279,0.1044,-7.910,-62.860,60.025,2.00,0.00,0.31,1.00,0.00,2025-06-06T10:32:33.807949
1880,-0.9526,0.1928,-0.0464,-19.145,-43.820,85.855,2.00,0.00,0.31,1.00,0.00,2025-06-06T10:32:33.807949
1881,-1.1468,0.1376,-0.1157,-24.430,-14.315,95.585,1.00,0.01,0.31,1.00,0.00,2025-06-06T10:32:33.807949
1882,-1.2278,0.1845,-0.2499,-27.685,1.225,90.825,2.00,0.00,0.31,1.00,0.00,2025-06-06T10:32:33.807949
1883,-1.2883,0.2386,-0.1088,-23.590,1.120,77.245,0.00,0.01,0.31,1.00,0.00,2025-06-06T10:32:34.022367
1884,-1.4303,0.2279,-0.1357,-16.100,-11.655,65.415,1.00,0.00,0.30,1.00,0.01,2025-06-06T10:32:34.022367
1885,-1.2566,0.2533,-0.1220,-0.805,-24.710,56.525,2.00,0.01,0.32,0.99,0.01,2025-06-06T10:32:34.022367
1886,-0.9360,0.3172,-0.1210,12.880,-35.735,63.140,5.00,0.01,0.32,1.00,0.01,2025-06-06T10:32:34.022367
1887,-0.8032,0.3035,-0.1000,13.825,-23.135,75.320,2.00,0.00,0.33,1.00,0.00,2025-06-06T10:32:34.022367
1888,-0.7906,0.2840,0.0551,12.425,-9.415,85.715,1.00,0.00,0.33,1.00,0.00,2025-06-06T10:32:34.022367
1889,-0.9067,0.2982,0.1396,6.230,-3.605,89.425,5.00,0.01,0.32,0.99,0.00,2025-06-06T10:32:34.022367
1890,-1.0848,0.3436,0.0771,18.375,-10.710,81.235,0.00,0.01,0.32,0.97,0.00,2025-06-06T10:32:34.022367
1891,-1.3039,0.4094,0.0522,27.300,-17.885,65.345,2.00,0.00,0.31,0.98,0.00,2025-06-06T10:32:34.022367
1892,-1.0155,0.3743,0.0605,18.340,-24.360,60.480,4.00,0.00,0.32,0.97,0.00,2025-06-06T10:32:34.022367
1893,-0.8535,0.3714,0.0356,21.035,-29.995,57.820,1.00,0.00,0.32,0.98,0.01,2025-06-06T10:32:34.022367
1894,-0.7422,0.4050,0.1083,20.615,-23.870,61.110,2.00,0.01,0.32,0.97,0.00,2025-06-06T10:32:34.022367
1895,-0.7013,0.4255,0.1728,21.070,-19.530,64.995,3.00,0.01,0.32,0.95,0.01,2025-06-06T10:32:34.022367
1896,-0.7252,0.4597,0.2030,20.230,-15.995,70.000,1.00,0.00,0.31,0.95,0.01,2025-06-06T10:32:34.022367
1897,-0.8506,0.4924,0.1444,21.665,-14.875,70.910,2.00,0.01,0.31,0.94,0.00,2025-06-06T10:32:34.022367
1898,-0.7984,0.5119,0.0542,22.260,-9.520,76.195,3.00,0.00,0.30,0.94,0.00,2025-06-06T10:32:34.215976
1899,-0.7369,0.5246,-0.0151,18.340,0.630,76.510,0.00,0.00,0.30,0.92,0.00,2025-06-06T10:32:34.215976
1900,-0.6437,0.5319,-0.0688,-2.800,8.890,81.830,2.00,0.00,0.31,0.91,0.01,2025-06-06T10:32:34.215976
1901,-0.5495,0.4768,-0.0459,-12.705,21.945,86.590,0.00,0.01,0.30,0.91,0.00,2025-06-06T10:32:34.215976
1902,-0.5656,0.4690,0.0830,-11.970,32.445,91.350,1.00,0.00,0.29,0.91,0.00,2025-06-06T10:32:34.215976
1903,-0.5407,0.5036,0.1152,-12.810,32.340,93.065,2.00,0.01,0.30,0.91,0.00,2025-06-06T10:32:34.215976
1904,-0.5661,0.4743,0.0327,-14.070,35.910,94.780,2.00,0.01,0.29,0.90,0.00,2025-06-06T10:32:34.215976
1905,-0.6769,0.5885,0.0698,-18.060,42.035,84.560,1.00,0.00,0.29,0.89,0.00,2025-06-06T10:32:34.215976
1906,-0.7052,0.5661,0.1293,-16.135,42.070,81.480,2.00,0.00,0.29,0.90,0.00,2025-06-06T10:32:34.215976
1907,-0.7008,0.6559,0.2176,-1.085,35.140,75.355,0.00,0.00,0.28,0.90,0.00,2025-06-06T10:32:34.215976
1908,-0.7091,0.7335,0.2943,11.515,24.780,75.250,0.00,0.00,0.29,0.89,0.00,2025-06-06T10:32:34.215976
1909,-0.7501,0.8179,0.2913,19.145,21.595,94.990,1.00,0.01,0.29,0.89,0.00,2025-06-06T10:32:34.215976
1910,-0.5368,1.1351,0.0956,56.000,23.170,210.420,1.00,0.00,0.29,0.89,0.00,2025-06-06T10:32:34.215976
1911,-0.4480,0.7115,0.0312,0.245,23.520,66.570,1.00,0.00,0.29,0.90,0.00,2025-06-06T10:32:34.215976
1912,-0.5324,0.7193,0.0117,-0.210,42.140,61.530,2.00,0.00,0.29,0.90,0.01,2025-06-06T10:32:34.215976
1913,-0.5807,0.7647,0.0410,-3.605,45.780,49.875,0.00,0.01,0.28,0.89,0.00,2025-06-06T10:32:34.215976
1914,-0.5880,0.7993,0.0605,6.930,44.590,46.585,1.00,0.01,0.29,0.90,0.00,2025-06-06T10:32:34.322249
1915,-0.5270,0.8784,0.0483,11.830,29.120,41.510,2.00,0.00,0.29,0.89,0.01,2025-06-06T10:32:34.322249
1916,-0.4006,0.8633,-0.0693,6.685,29.785,39.550,2.00,0.01,0.29,0.90,0.01,2025-06-06T10:32:34.322249
1917,-0.2938,0.7964,-0.1357,2.345,31.780,33.390,1.00,0.01,0.29,0.90,0.00,2025-06-06T10:32:34.322249
1918,-0.4089,0.7476,-0.1454,-6.825,39.480,28.210,2.00,0.01,0.30,0.90,0.00,2025-06-06T10:32:34.322249
1919,-0.5344,0.7969,-0.0615,-0.980,49.105,20.160,0.00,0.00,0.30,0.89,0.00,2025-06-06T10:32:34.322249
1920,-0.7013,0.9145,0.0039,3.290,52.430,13.160,2.00,0.00,0.30,0.90,0.00,2025-06-06T10:32:34.322249
1921,-0.6446,0.9853,0.0449,-0.105,43.645,9.870,2.00,0.00,0.28,0.90,0.01,2025-06-06T10:32:34.371575
1922,-0.5007,0.9379,0.0415,-13.300,56.315,25.935,0.00,0.00,0.31,0.90,0.00,2025-06-06T10:32:34.371575
1923,-0.3523,0.8965,0.0185,-2.975,53.340,22.680,1.00,0.01,0.30,0.91,0.00,2025-06-06T10:32:34.371575
1924,-0.2811,0.9004,0.0254,-7.105,49.875,27.685,1.00,0.01,0.30,0.91,0.01,2025-06-06T10:32:34.371575
1925,-0.4089,0.9126,-0.0078,-16.660,39.795,34.510,0.00,0.00,0.30,0.90,0.00,2025-06-06T10:32:34.520482
1926,-0.5954,0.9389,0.0371,-6.090,37.240,42.140,1.00,0.01,0.30,0.89,0.00,2025-06-06T10:32:34.520482
1927,-0.5261,1.0004,0.1215,6.300,32.690,49.665,2.00,0.00,0.30,0.89,0.00,2025-06-06T10:32:34.520482
1928,-0.4065,0.9672,0.0244,-14.350,29.820,49.105,3.00,0.01,0.30,0.90,0.01,2025-06-06T10:32:34.520482
1929,-0.2098,0.8394,-0.0620,-17.605,30.240,51.660,1.00,0.00,0.29,0.89,0.00,2025-06-06T10:32:34.520482
1930,-0.2743,0.8350,-0.0854,2.730,20.650,57.190,2.00,0.00,0.29,0.89,0.00,2025-06-06T10:32:34.520482
1931,-0.3426,0.9170,-0.0083,8.190,0.700,60.375,2.00,0.00,0.29,0.90,0.00,2025-06-06T10:32:34.520482
1932,-0.3045,0.8999,0.0834,9.835,-18.445,59.290,1.00,0.00,0.30,0.89,0.00,2025-06-06T10:32:34.520482
1933,-0.4143,0.9672,-0.0649,-1.645,-29.610,51.450,3.00,0.00,0.30,0.89,0.00,2025-06-06T10:32:34.520482
1934,-0.4002,0.9545,-0.3694,-5.075,-21.070,38.710,2.00,0.00,0.29,0.88,0.00,2025-06-06T10:32:34.520482
1935,-0.1454,0.8965,-0.4412,18.165,-20.405,27.755,0.00,0.00,0.29,0.88,0.01,2025-06-06T10:32:34.520482
1936,0.0517,0.9916,-0.1981,30.975,-28.525,22.855,2.00,0.00,0.29,0.88,0.01,2025-06-06T10:32:34.520482
1937,-0.2416,1.1087,-0.0044,24.115,-42.630,12.915,2.00,0.00,0.30,0.87,0.00,2025-06-06T10:32:34.619415
1938,-0.5017,1.1761,-0.0595,3.150,-37.415,-5.565,0.00,0.01,0.30,0.88,0.00,2025-06-06T10:32:34.619415
1939,-0.4792,1.1156,-0.1010,3.430,-27.440,-23.380,1.00,0.01,0.30,0.89,0.01,2025-06-06T10:32:34.619415
1940,-0.2938,1.2029,0.0337,20.615,-27.685,-32.620,0.00,0.00,0.30,0.89,0.00,2025-06-06T10:32:34.619415
1941,-0.0464,1.3801,0.2904,23.625,-49.035,-33.495,0.00,0.00,0.30,0.89,0.01,2025-06-06T10:32:34.831197
1942,0.8686,1.4923,0.2801,14.595,-104.405,-15.015,2.00,0.00,0.30,0.90,0.00,2025-06-06T10:32:34.831197
1943,1.7753,1.7256,0.1469,39.900,-228.970,15.015,2.00,0.00,0.30,0.90,0.01,2025-06-06T10:32:34.831197
1944,2.8236,1.9134,-0.3460,60.060,-450.800,29.050,2.00,0.00,0.32,0.91,0.00,2025-06-06T10:32:34.831197
1945,3.6585,1.4298,-2.3287,-80.815,-571.410,-10.955,1.00,0.01,0.31,0.93,0.01,2025-06-06T10:32:34.831197
1946,3.7981,-0.0561,-2.6650,-27.405,-92.680,-17.220,2.00,0.00,0.32,0.95,0.01,2025-06-06T10:32:34.831197
1947,3.5707,-1.4030,-0.8564,45.990,-46.340,-87.605,2.00,0.00,0.32,0.95,0.00,2025-06-06T10:32:34.831197
1948,1.1502,-1.3225,0.8150,-122.535,127.995,-304.710,3.00,0.00,0.32,0.95,0.01,2025-06-06T10:32:34.831197
1949,-2.9797,-0.8799,2.4649,-663.915,345.730,-568.925,2.00,0.00,0.31,0.95,0.00,2025-06-06T10:32:34.831197
1950,-5.3119,-1.1361,2.2965,-237.650,370.720,-846.790,0.00,0.01,0.32,0.96,0.00,2025-06-06T10:32:34.831197
1951,-6.4109,0.1371,4.2705,189.770,-127.960,-941.850,0.00,0.01,0.32,0.96,0.00,2025-06-06T10:32:34.831197
1952,-4.5657,0.4953,3.0105,199.115,-558.845,-706.370,0.00,0.00,0.30,0.96,0.00,2025-06-06T10:32:34.831197
1953,-3.7225,-2.2443,-2.1716,99.995,-332.570,-405.930,0.00,0.00,0.33,0.96,0.00,2025-06-06T10:32:34.831197
1954,-1.1068,-1.7021,-1.5099,-101.255,-219.800,-129.850,2.00,0.00,0.33,0.97,0.00,2025-06-06T10:32:34.831197
1955,-1.5621,-2.2741,-2.9651,40.635,17.430,-17.535,4.00,0.00,0.32,0.97,0.01,2025-06-06T10:32:34.831197
1956,-2.0203,-1.2961,-1.7495,105.280,177.485,39.900,2.00,0.00,0.33,0.97,0.00,2025-06-06T10:32:34.831197
1957,-3.4267,0.7540,0.8106,145.390,183.085,41.160,2.00,0.00,0.34,0.98,0.00,2025-06-06T10:32:34.831197
1958,-1.8315,-1.1361,-0.5993,-6.440,167.265,90.860,0.00,0.01,0.34,0.99,0.01,2025-06-06T10:32:34.831197
1959,-1.1087,-0.6032,0.9887,145.810,28.175,56.805,0.00,0.00,0.34,1.00,0.00,2025-06-06T10:32:34.936272
1960,-0.9540,-0.4499,0.8306,-44.240,14.630,1.400,3.00,0.01,0.35,1.01,0.00,2025-06-06T10:32:34.936272
1961,-0.3304,-1.1283,-1.7978,130.515,222.005,-60.340,0.00,0.01,0.35,1.01,0.01,2025-06-06T10:32:34.936272
1962,-0.1288,1.0365,-0.1484,103.250,184.450,-13.790,0.00,0.01,0.35,1.00,0.01,2025-06-06T10:32:34.936272
1963,-0.7261,0.5817,-0.1103,24.535,152.180,4.550,3.00,0.00,0.35,1.01,0.00,2025-06-06T10:32:34.936272
1964,-1.1605,0.4372,0.3221,-6.230,108.080,5.180,0.00,0.00,0.35,1.01,0.01,2025-06-06T10:32:34.936272
1965,-1.5792,0.7735,1.3059,-40.880,22.085,4.480,0.00,0.00,0.36,1.02,0.00,2025-06-06T10:32:34.936272
1966,-1.5416,-0.0195,-0.0376,-67.340,3.640,-13.930,1.00,0.00,0.37,1.03,0.00,2025-06-06T10:32:34.936272
1967,-1.2898,0.0844,0.1571,-36.470,19.425,-30.275,1.00,0.00,0.37,1.03,0.01,2025-06-06T10:32:34.936272
1968,-1.0487,0.2596,0.2547,-21.315,35.945,-16.940,1.00,0.00,0.37,1.03,0.00,2025-06-06T10:32:35.038568
1969,-0.7881,0.3689,-0.0639,-14.700,31.885,9.870,0.00,0.01,0.38,1.03,0.00,2025-06-06T10:32:35.038568
1970,-0.7535,0.3748,-0.0869,-12.775,15.155,48.090,0.00,0.01,0.38,1.05,0.01,2025-06-06T10:32:35.173020
1971,-1.0087,0.3860,0.0205,-38.675,-18.865,72.695,1.00,0.01,0.38,1.04,0.01,2025-06-06T10:32:35.173020
1972,-1.1868,0.1469,-0.0659,-52.290,-27.125,75.810,1.00,0.00,0.38,1.03,0.00,2025-06-06T10:32:35.173020
1973,-1.3210,-0.0039,-0.0512,-47.740,-32.200,59.360,4.00,0.00,0.37,1.03,0.01,2025-06-06T10:32:35.173020
1974,-1.2698,-0.0356,-0.0791,-40.005,-15.995,43.085,3.00,0.01,0.38,1.03,0.00,2025-06-06T10:32:35.173020
1975,-1.1980,-0.0425,-0.0205,-31.360,7.630,29.715,3.00,0.00,0.38,1.04,0.00,2025-06-06T10:32:35.173020
1976,-1.0809,0.0327,0.0605,-28.455,19.950,20.860,0.00,0.00,0.38,1.03,0.00,2025-06-06T10:32:35.173020
1977,-1.0419,0.1191,0.0605,-14.840,11.655,20.300,0.00,0.00,0.39,1.04,0.01,2025-06-06T10:32:35.173020
1978,-0.9843,0.2460,0.0756,-10.045,-12.915,24.955,1.00,0.00,0.38,1.04,0.01,2025-06-06T10:32:35.173020
1979,-0.9272,0.2874,0.0273,-13.930,-37.625,34.685,1.00,0.01,0.38,1.03,0.01,2025-06-06T10:32:35.173020
1980,-0.8125,0.3113,0.0034,-19.040,-43.890,42.385,2.00,0.00,0.39,1.03,0.00,2025-06-06T10:32:35.173020
1981,-0.7891,0.2538,-0.0005,-27.825,-36.890,48.615,2.00,0.01,0.39,1.04,0.00,2025-06-06T10:32:35.173020
1982,-0.8862,0.1713,0.0127,-23.905,-16.380,46.375,0.00,0.01,0.39,1.04,0.01,2025-06-06T10:32:35.173020
1983,-0.9028,0.1464,0.0766,-12.145,-4.200,40.670,1.00,0.00,0.39,1.04,0.00,2025-06-06T10:32:35.239018
1984,-1.0316,0.1806,0.0727,-7.105,-0.245,33.670,2.00,0.00,0.40,1.03,0.00,2025-06-06T10:32:35.239018
1985,-1.0614,0.2518,0.0576,-1.820,-11.655,25.480,0.00,0.01,0.38,1.04,0.01,2025-06-06T10:32:35.239018
1986,-1.0472,0.2977,0.0161,8.085,-31.220,20.790,0.00,0.00,0.39,1.03,0.00,2025-06-06T10:32:35.239018
1987,-0.9087,0.3899,0.0454,14.280,-44.380,20.055,2.00,0.00,0.38,1.03,0.00,2025-06-06T10:32:35.239018
1988,-0.8296,0.4104,0.0991,12.880,-45.290,25.900,0.00,0.01,0.38,1.02,0.00,2025-06-06T10:32:35.239018
1989,-0.8608,0.3138,0.0874,-0.385,-28.560,27.895,2.00,0.00,0.37,1.02,0.00,2025-06-06T10:32:35.239018
1990,-0.8916,0.2704,0.1288,-6.195,-17.815,30.100,2.00,0.01,0.37,1.01,0.01,2025-06-06T10:32:35.329300
1991,-0.9745,0.2889,0.1532,-5.670,-12.915,33.145,4.00,0.00,0.37,1.00,0.00,2025-06-06T10:32:35.329300
1992,-1.0014,0.3265,0.1523,-3.780,-16.940,36.260,0.00,0.00,0.37,0.99,0.00,2025-06-06T10:32:35.329300
1993,-0.9965,0.3606,0.1649,-2.555,-18.585,38.850,2.00,0.01,0.37,0.99,0.01,2025-06-06T10:32:35.329300
1994,-0.9189,0.3802,0.1967,-6.125,-20.615,42.805,6.00,0.00,0.37,0.99,0.01,2025-06-06T10:32:35.329300
1995,-0.9521,0.3645,0.2298,-10.710,-20.405,46.900,2.00,0.01,0.35,0.98,0.00,2025-06-06T10:32:35.329300
1996,-0.9194,0.3850,0.1771,-20.195,-22.050,49.350,0.00,0.00,0.35,0.96,0.00,2025-06-06T10:32:35.329300
1997,-0.8316,0.3865,0.1825,-17.990,-15.575,54.110,2.00,0.00,0.34,0.96,0.00,2025-06-06T10:32:35.329300
1998,-0.8799,0.3811,0.0908,-22.855,-7.280,59.430,1.00,0.00,0.34,0.97,0.01,2025-06-06T10:32:35.443249
1999,-0.8696,0.4094,0.0337,-25.410,5.775,64.295,1.00,0.00,0.34,0.97,0.00,2025-06-06T10:32:35.443249
2000,-0.8599,0.4338,0.0107,-25.620,16.415,68.075,3.00,0.01,0.33,0.97,0.00,2025-06-06T10:32:35.443249
2001,-0.8052,0.4763,0.0195,-26.495,17.675,66.570,1.00,0.01,0.34,0.97,0.00,2025-06-06T10:32:35.443249
2002,-0.7252,0.4802,0.0527,-19.915,18.445,70.035,2.00,0.00,0.34,0.96,0.00,2025-06-06T10:32:35.443249
2003,-0.7232,0.4377,0.1069,-16.730,23.905,71.505,3.00,0.00,0.33,0.96,0.00,2025-06-06T10:32:35.443249
2004,-0.8208,0.4324,0.0752,-22.960,27.545,68.880,1.00,0.00,0.33,0.96,0.00,2025-06-06T10:32:35.443249
2005,-0.9043,0.4080,0.1728,-22.120,41.370,87.325,3.00,0.00,0.33,0.95,0.01,2025-06-06T10:32:35.443249
2006,-0.9980,0.4724,0.2050,-29.015,50.575,65.205,5.00,0.01,0.32,0.95,0.00,2025-06-06T10:32:35.550735
2007,-0.9467,0.5422,0.2684,-28.840,44.345,64.750,1.00,0.01,0.33,0.95,0.00,2025-06-06T10:32:35.550735
2008,-0.7515,0.6276,0.2430,-19.915,24.920,63.140,2.00,0.00,0.33,0.95,0.00,2025-06-06T10:32:35.550735
2009,-0.6886,0.6285,0.1903,-0.980,16.450,99.225,0.00,0.00,0.34,0.95,0.00,2025-06-06T10:32:35.550735
2010,-0.6344,0.6427,0.0810,3.185,21.665,86.240,1.00,0.00,0.34,0.95,0.00,2025-06-06T10:32:35.550735
2011,-0.6900,0.6334,0.0556,1.225,25.970,87.360,1.00,0.01,0.34,0.95,0.01,2025-06-06T10:32:35.550735
2012,-0.5178,0.0810,0.1440,6.160,40.005,93.415,3.00,0.01,0.34,0.95,0.00,2025-06-06T10:32:35.550735
2013,-0.8276,0.5641,0.1113,4.620,35.175,74.725,0.00,0.00,0.34,0.95,0.00,2025-06-06T10:32:35.550735
2014,-0.8716,0.6881,0.1850,15.680,44.905,77.945,2.00,0.00,0.34,0.96,0.00,2025-06-06T10:32:35.605590
2015,-0.7574,0.6886,0.0664,22.365,33.460,71.120,4.00,0.01,0.35,0.97,0.00,2025-06-06T10:32:35.605590
2016,-0.5148,0.7125,0.0244,24.990,28.980,73.010,0.00,0.00,0.33,0.97,0.00,2025-06-06T10:32:35.605590
2017,-0.5719,0.7418,0.0151,29.400,14.700,73.465,2.00,0.01,0.34,0.98,0.00,2025-06-06T10:32:35.755630
2018,-0.5031,0.7359,-0.0342,42.105,18.620,75.740,1.00,0.01,0.34,0.98,0.00,2025-06-06T10:32:35.755630
2019,-0.5388,0.7393,-0.0234,41.440,30.065,75.005,3.00,0.01,0.34,0.97,0.00,2025-06-06T10:32:35.755630
2020,-0.5929,0.8169,0.0034,32.060,35.455,71.085,2.00,0.00,0.35,0.98,0.00,2025-06-06T10:32:35.755630
2021,-0.5431,0.8203,-0.0146,23.205,36.855,64.470,3.00,0.00,0.35,0.98,0.00,2025-06-06T10:32:35.755630
2022,-0.5558,0.7832,-0.0156,30.380,38.605,63.350,0.00,0.00,0.35,0.98,0.00,2025-06-06T10:32:35.755630
2023,-0.4943,0.8335,-0.0307,38.780,35.000,62.370,3.00,0.00,0.35,0.98,0.00,2025-06-06T10:32:35.755630
2024,-0.3777,0.8638,-0.0239,25.025,25.970,58.695,2.00,0.00,0.35,0.98,0.00,2025-06-06T10:32:35.755630
2025,-0.3953,0.8730,-0.0356,19.950,24.220,56.105,2.00,0.00,0.34,0.97,0.00,2025-06-06T10:32:35.755630
2026,-0.5007,0.8760,-0.0791,18.375,24.360,53.830,1.00,0.00,0.35,0.97,0.01,2025-06-06T10:32:35.755630
2027,-0.4085,0.8974,-0.0268,17.150,10.430,49.665,2.00,0.00,0.35,0.97,0.00,2025-06-06T10:32:35.755630
2028,-0.3128,0.8877,-0.0283,13.965,12.845,49.315,0.00,0.01,0.35,0.97,0.00,2025-06-06T10:32:35.755630
2029,-0.3328,0.8296,-0.1122,10.255,11.445,46.550,2.00,0.01,0.35,0.97,0.00,2025-06-06T10:32:35.818668
2030,-0.4734,0.7920,-0.1503,9.415,14.700,40.005,2.00,0.01,0.34,0.97,0.00,2025-06-06T10:32:35.818668
2031,-0.6007,0.8037,-0.1049,12.810,14.595,31.220,1.00,0.00,0.34,0.96,0.01,2025-06-06T10:32:35.818668
2032,-0.5661,0.8413,-0.0283,13.930,6.195,24.850,3.00,0.00,0.34,0.96,0.01,2025-06-06T10:32:35.818668
2033,-0.5280,0.8555,-0.0137,11.760,-0.665,22.260,0.00,0.00,0.34,0.95,0.00,2025-06-06T10:32:35.818668
2034,-0.4904,0.8642,-0.0098,15.680,-6.825,23.625,2.00,0.00,0.32,0.95,0.00,2025-06-06T10:32:35.818668
2035,-0.4817,0.8662,-0.0395,12.215,-8.645,23.555,2.00,0.00,0.32,0.94,0.00,2025-06-06T10:32:35.878336
2036,-0.4128,0.8311,-0.0752,8.960,-7.000,20.720,2.00,0.01,0.32,0.93,0.00,2025-06-06T10:32:35.878336
2037,-0.3904,0.7974,-0.1518,6.510,-8.540,19.705,1.00,0.01,0.32,0.94,0.00,2025-06-06T10:32:35.878336
2038,-0.4621,0.7554,-0.2206,4.340,-9.065,18.200,2.00,0.00,0.33,0.94,0.00,2025-06-06T10:32:35.878336
2039,-0.5348,0.7115,-0.2391,11.550,-8.190,16.100,7.00,0.00,0.33,0.94,0.00,2025-06-06T10:32:35.926832
2040,-0.3406,0.7471,-0.1537,19.495,-16.030,18.830,2.00,0.00,0.33,0.94,0.00,2025-06-06T10:32:35.926832
2041,-0.3372,0.8164,-0.1264,11.970,-24.360,18.970,1.00,0.00,0.33,0.94,0.00,2025-06-06T10:32:35.926832
2042,-0.3963,0.7725,-0.1723,5.635,-21.385,13.125,0.00,0.01,0.32,0.92,0.01,2025-06-06T10:32:35.973970
2043,-0.5671,0.7813,-0.2094,8.050,-13.370,4.725,1.00,0.00,0.33,0.92,0.01,2025-06-06T10:32:35.973970
2044,-0.7730,0.8335,-0.1586,14.315,7.910,-10.255,3.00,0.00,0.32,0.91,0.00,2025-06-06T10:32:35.973970
2045,-0.7003,0.8930,-0.0200,20.790,3.325,-18.865,2.00,0.00,0.31,0.90,0.00,2025-06-06T10:32:35.973970
2046,-0.5314,0.9145,0.0239,9.730,-4.130,-19.950,0.00,0.00,0.30,0.90,0.00,2025-06-06T10:32:36.046212
2047,-0.4231,0.8784,-0.0107,0.875,-15.645,-15.435,1.00,0.01,0.31,0.90,0.00,2025-06-06T10:32:36.046212
2048,-0.4348,0.8447,-0.0410,3.780,-24.115,-11.025,2.00,0.00,0.30,0.90,0.00,2025-06-06T10:32:36.046212
2049,-0.4626,0.9101,-0.0571,0.665,-27.230,-11.165,1.00,0.00,0.30,0.89,0.00,2025-06-06T10:32:36.046212
2050,-0.5266,0.9374,-0.1157,-3.045,-23.345,-14.980,2.00,0.00,0.30,0.89,0.00,2025-06-06T10:32:36.292377
2051,-0.6393,0.9370,-0.1196,1.680,-19.425,-20.510,2.00,0.01,0.29,0.88,0.01,2025-06-06T10:32:36.292377
2052,-0.5534,0.9443,-0.0693,10.815,-19.635,-23.240,3.00,0.00,0.29,0.87,0.01,2025-06-06T10:32:36.292377
2053,-0.4026,0.9384,-0.0595,10.395,-29.330,-19.600,2.00,0.00,0.29,0.87,0.00,2025-06-06T10:32:36.292377
2054,-0.3113,0.8647,-0.1005,6.195,-35.595,-15.120,6.00,0.01,0.29,0.87,0.00,2025-06-06T10:32:36.292377
2055,-0.3382,0.7881,-0.1342,6.335,-42.630,-13.755,3.00,0.01,0.28,0.87,0.00,2025-06-06T10:32:36.292377
2056,-0.3553,0.7857,-0.1283,2.310,-50.540,-16.415,1.00,0.00,0.29,0.87,0.00,2025-06-06T10:32:36.292377
2057,-0.5456,0.7881,-0.1327,5.390,-41.125,-19.215,2.00,0.00,0.29,0.88,0.00,2025-06-06T10:32:36.292377
2058,-0.5388,0.7442,-0.1249,3.990,-35.175,-24.500,2.00,0.00,0.29,0.88,0.00,2025-06-06T10:32:36.292377
2059,-0.4607,0.6886,-0.0937,0.490,-35.840,-29.260,1.00,0.00,0.29,0.87,0.00,2025-06-06T10:32:36.292377
2060,-0.5285,0.7110,-0.1854,-53.340,-57.050,-40.320,1.00,0.01,0.29,0.88,0.00,2025-06-06T10:32:36.292377
2061,-0.5939,0.6959,-0.1864,-43.540,-52.780,-48.440,1.00,0.01,0.29,0.88,0.00,2025-06-06T10:32:36.292377
2062,-0.7340,0.7130,-0.0195,-8.680,-24.430,-49.280,1.00,0.01,0.30,0.89,0.00,2025-06-06T10:32:36.292377
2063,-0.7510,0.7437,0.0410,-1.400,-39.515,-47.810,2.00,0.00,0.29,0.89,0.00,2025-06-06T10:32:36.292377
2064,-0.7422,0.7574,0.0322,-9.135,-43.925,-40.530,0.00,0.01,0.30,0.89,0.00,2025-06-06T10:32:36.292377
2065,-0.7037,0.7925,-0.0415,-8.260,-54.145,-33.425,2.00,0.00,0.29,0.89,0.00,2025-06-06T10:32:36.292377
2066,-0.6486,0.7447,-0.1118,-9.555,-46.445,-24.115,0.00,0.00,0.29,0.88,0.00,2025-06-06T10:32:36.292377
2067,-0.5636,0.7164,-0.1186,-11.620,-36.785,-16.695,2.00,0.01,0.29,0.88,0.00,2025-06-06T10:32:36.292377
2068,-0.5158,0.7281,-0.1264,-10.535,-26.495,-10.500,2.00,0.00,0.29,0.88,0.01,2025-06-06T10:32:36.458481
2069,-0.6988,0.7696,-0.1039,-14.840,-16.870,-5.635,1.00,0.00,0.29,0.87,0.00,2025-06-06T10:32:36.458481
2070,-0.7466,0.8486,-0.0112,-11.795,-11.060,-3.815,2.00,0.00,0.28,0.87,0.00,2025-06-06T10:32:36.458481
2071,-0.7408,0.8818,0.0015,-1.855,-9.835,-0.805,2.00,0.00,0.29,0.87,0.01,2025-06-06T10:32:36.458481
2072,-0.6671,0.8696,0.0059,5.215,-10.045,2.555,1.00,0.00,0.28,0.87,0.00,2025-06-06T10:32:36.458481
2073,-0.6090,0.8330,-0.0078,3.500,-10.675,4.690,2.00,0.01,0.29,0.86,0.00,2025-06-06T10:32:36.458481
2074,-0.5588,0.7974,-0.0142,0.210,-10.640,3.920,6.00,0.01,0.28,0.87,0.00,2025-06-06T10:32:36.458481
2075,-0.6212,0.7818,-0.0098,-2.170,-7.490,0.665,0.00,0.01,0.28,0.85,0.00,2025-06-06T10:32:36.458481
2076,-0.6920,0.7925,0.0146,1.400,-6.265,-4.585,2.00,0.00,0.28,0.86,0.00,2025-06-06T10:32:36.458481
2077,-0.6983,0.8086,0.0434,6.405,-7.770,-8.820,1.00,0.00,0.28,0.86,0.01,2025-06-06T10:32:36.458481
2078,-0.6105,0.8267,0.0649,8.050,-18.690,-9.275,0.00,0.00,0.27,0.85,0.00,2025-06-06T10:32:36.458481
2079,-0.5441,0.7745,-0.0083,2.345,-27.300,-7.910,1.00,0.00,0.26,0.85,0.01,2025-06-06T10:32:36.458481
2080,-0.5226,0.7159,-0.0712,-5.460,-30.975,-8.540,1.00,0.00,0.27,0.84,0.01,2025-06-06T10:32:36.458481
2081,-0.4011,0.6886,-0.1215,-8.225,-27.790,-9.590,5.00,0.00,0.28,0.85,0.00,2025-06-06T10:32:36.458481
2082,-0.3792,0.6852,-0.1152,-15.610,-37.800,-14.665,1.00,0.01,0.27,0.85,0.01,2025-06-06T10:32:36.621859
2083,-0.5768,0.6715,-0.0766,-34.055,-47.600,-20.930,4.00,0.01,0.27,0.84,0.00,2025-06-06T10:32:36.621859
2084,-0.6129,0.6939,0.0249,-35.175,-47.320,-23.450,2.00,0.00,0.27,0.82,0.00,2025-06-06T10:32:36.621859
2085,-0.6910,0.7125,0.0815,-25.970,-59.990,-25.655,0.00,0.01,0.25,0.83,0.00,2025-06-06T10:32:36.621859
2086,-0.7818,0.6934,0.0508,-15.120,-52.430,-27.965,2.00,0.00,0.25,0.83,0.00,2025-06-06T10:32:36.621859
2087,-0.7627,0.6554,-0.0210,-8.365,-45.430,-33.775,6.00,0.01,0.25,0.83,0.00,2025-06-06T10:32:36.621859
2088,-0.6490,0.6593,-0.0181,-6.440,-43.785,-37.415,1.00,0.00,0.25,0.83,0.01,2025-06-06T10:32:36.621859
2089,-0.6608,0.6622,-0.0224,-4.340,-42.385,-36.645,2.00,0.00,0.26,0.82,0.01,2025-06-06T10:32:36.621859
2090,-0.7183,0.6471,0.0268,-5.285,-39.340,-32.690,0.00,0.00,0.25,0.81,0.01,2025-06-06T10:32:36.621859
2091,-0.7340,0.6471,0.0561,-3.290,-37.625,-27.755,2.00,0.01,0.25,0.81,0.00,2025-06-06T10:32:36.621859
2092,-0.7623,0.6368,0.0874,-0.630,-34.300,-23.765,3.00,0.01,0.26,0.82,0.01,2025-06-06T10:32:36.621859
2093,-0.7588,0.6334,0.1142,0.665,-32.445,-21.315,1.00,0.00,0.26,0.83,0.00,2025-06-06T10:32:36.874080
2094,-0.8886,0.6110,0.1220,0.875,-18.515,-20.090,1.00,0.00,0.26,0.83,0.00,2025-06-06T10:32:36.874080
2095,-0.7930,0.6754,0.1503,1.785,-15.680,-17.150,1.00,0.01,0.26,0.83,0.00,2025-06-06T10:32:36.874080
2096,-0.7686,0.6783,0.0839,-0.385,-12.425,-12.005,4.00,0.00,0.27,0.82,0.00,2025-06-06T10:32:36.874080
2097,-0.7501,0.6661,0.1196,-2.660,-6.650,-7.560,1.00,0.01,0.26,0.83,0.00,2025-06-06T10:32:36.874080
2098,-0.7491,0.6705,0.0503,-8.085,-19.320,-5.635,7.00,0.00,0.25,0.83,0.01,2025-06-06T10:32:36.874080
2099,-0.6583,0.7076,0.1161,-49.595,39.270,5.145,3.00,0.01,0.26,0.83,0.01,2025-06-06T10:32:36.874080
2100,-0.7291,0.6886,0.1820,2.695,-9.835,4.865,0.00,0.00,0.25,0.83,0.00,2025-06-06T10:32:36.874080
2101,-0.7481,0.6939,0.1684,7.175,-12.215,7.455,1.00,0.01,0.26,0.83,0.00,2025-06-06T10:32:36.874080
2102,-0.7364,0.6886,0.2035,-5.915,-2.520,9.415,1.00,0.00,0.26,0.84,0.01,2025-06-06T10:32:36.874080
2103,-0.7364,0.6778,0.1606,-13.265,-6.160,8.120,1.00,0.00,0.26,0.84,0.00,2025-06-06T10:32:36.874080
2104,-0.7159,0.6695,0.1347,-9.660,-6.580,5.705,2.00,0.01,0.26,0.83,0.00,2025-06-06T10:32:36.874080
2105,-0.6725,0.6647,0.1240,-7.665,-6.895,3.745,5.00,0.00,0.25,0.81,0.00,2025-06-06T10:32:36.874080
2106,-0.6734,0.6627,0.0229,-3.500,-49.280,-3.360,2.00,0.00,0.25,0.80,0.00,2025-06-06T10:32:36.874080
2107,-0.6783,0.6817,0.1015,-11.690,-6.055,0.665,2.00,0.00,0.25,0.80,0.00,2025-06-06T10:32:36.874080
2108,-0.6876,0.6754,0.1893,-6.545,-1.085,1.120,2.00,0.00,0.25,0.79,0.00,2025-06-06T10:32:36.874080
2109,-0.7676,0.6876,0.1830,-13.195,-1.155,-0.245,0.00,0.00,0.25,0.79,0.00,2025-06-06T10:32:36.874080
2110,-0.7730,0.6925,0.1942,-16.065,-6.405,-1.225,2.00,0.01,0.24,0.79,0.00,2025-06-06T10:32:36.874080
2111,-0.7174,0.6974,0.1752,-15.190,-13.020,-0.035,0.00,0.00,0.24,0.79,0.01,2025-06-06T10:32:36.874080
2112,-0.7037,0.6905,0.1669,-15.470,-16.240,2.870,7.00,0.00,0.24,0.78,0.00,2025-06-06T10:32:37.089534
2113,-0.6417,0.7003,0.1669,-27.020,-28.035,2.905,2.00,0.00,0.24,0.78,0.00,2025-06-06T10:32:37.089534
2114,-0.6173,0.6881,0.0942,-11.410,-56.525,-1.050,0.00,0.01,0.23,0.78,0.01,2025-06-06T10:32:37.089534
2115,-0.6803,0.6500,0.0908,34.475,-72.520,-1.190,0.00,0.00,0.23,0.77,0.01,2025-06-06T10:32:37.089534
2116,-0.7027,0.6793,0.1620,27.755,-48.230,2.625,2.00,0.01,0.23,0.77,0.00,2025-06-06T10:32:37.089534
2117,-0.7374,0.7222,0.2094,-27.160,-8.120,3.640,2.00,0.01,0.23,0.77,0.00,2025-06-06T10:32:37.089534
2118,-0.6793,0.7130,0.2225,-36.365,3.255,7.770,1.00,0.01,0.22,0.76,0.00,2025-06-06T10:32:37.089534
2119,-0.6520,0.6949,0.2386,-111.020,70.140,14.175,3.00,0.01,0.22,0.76,0.00,2025-06-06T10:32:37.089534
2120,-0.6827,0.6788,0.0976,-113.645,76.405,17.920,4.00,0.01,0.22,0.76,0.00,2025-06-06T10:32:37.258609
2121,-0.7325,0.6354,0.0459,-7.560,-0.525,5.145,6.00,0.00,0.23,0.76,0.00,2025-06-06T10:32:37.258609
2122,-0.6978,0.6681,0.1161,23.240,-24.220,1.050,2.00,0.00,0.23,0.76,0.00,2025-06-06T10:32:37.258609
2123,-0.6705,0.6944,0.1776,-14.560,-8.785,0.560,0.00,0.00,0.23,0.76,0.00,2025-06-06T10:32:37.258609
2124,-0.6612,0.6783,0.1615,-21.000,0.000,1.715,0.00,0.00,0.23,0.76,0.00,2025-06-06T10:32:37.258609
2125,-0.6891,0.6539,0.1791,-10.605,-6.125,0.455,1.00,0.00,0.23,0.76,0.00,2025-06-06T10:32:37.258609
2126,-0.7164,0.6583,0.2269,-8.015,-8.610,-0.280,2.00,0.00,0.23,0.78,0.00,2025-06-06T10:32:37.258609
2127,-0.6959,0.6642,0.2157,3.850,-9.275,0.770,2.00,0.00,0.23,0.80,0.00,2025-06-06T10:32:37.258609
2128,-0.6900,0.6632,0.2079,-0.140,-7.560,1.750,0.00,0.00,0.23,0.80,0.00,2025-06-06T10:32:37.258609
2129,-0.6881,0.6573,0.1635,-2.275,3.290,2.135,0.00,0.00,0.24,0.81,0.00,2025-06-06T10:32:37.321968
2130,-0.6651,0.6568,0.1352,12.600,-5.495,-1.505,0.00,0.01,0.24,0.81,0.00,2025-06-06T10:32:37.321968
2131,-0.6612,0.6534,0.1552,6.195,-6.580,-4.445,0.00,0.01,0.24,0.83,0.00,2025-06-06T10:32:37.321968
2132,-0.7120,0.6544,0.1742,-3.570,-4.060,-6.370,1.00,0.00,0.25,0.83,0.00,2025-06-06T10:32:37.321968
2133,-0.7091,0.6661,0.1947,-7.175,-1.365,-6.510,3.00,0.00,0.25,0.84,0.01,2025-06-06T10:32:37.321968
2134,-0.6861,0.6793,0.1708,-12.915,-2.975,-5.950,7.00,0.00,0.27,0.85,0.00,2025-06-06T10:32:37.321968
2135,-0.6783,0.6627,0.1674,-0.105,-3.885,-5.600,0.00,0.01,0.26,0.86,0.00,2025-06-06T10:32:37.321968
2136,-0.6739,0.6676,0.1820,3.465,-4.025,-5.040,2.00,0.00,0.27,0.86,0.00,2025-06-06T10:32:37.321968
2137,-0.7144,0.6690,0.1869,9.065,-6.790,-5.495,2.00,0.00,0.26,0.86,0.00,2025-06-06T10:32:37.321968
2138,-0.7340,0.6876,0.2162,8.155,-4.515,-5.705,0.00,0.01,0.27,0.87,0.00,2025-06-06T10:32:37.321968
2139,-0.7340,0.7086,0.2318,2.695,-7.105,-6.475,2.00,0.00,0.27,0.87,0.00,2025-06-06T10:32:37.321968
2140,-0.7130,0.7178,0.2001,-0.315,-17.220,-7.140,2.00,0.00,0.27,0.88,0.00,2025-06-06T10:32:37.321968
2141,-0.6949,0.7047,0.1654,-1.085,-13.650,-6.195,1.00,0.00,0.27,0.88,0.00,2025-06-06T10:32:37.321968
2142,-0.7013,0.6964,0.1796,-3.745,-8.785,-5.950,1.00,0.01,0.27,0.88,0.00,2025-06-06T10:32:37.321968
2143,-0.6944,0.6925,0.1981,-1.540,-9.345,-5.950,0.00,0.01,0.26,0.89,0.00,2025-06-06T10:32:37.321968
2144,-0.6925,0.6808,0.2367,-3.710,-0.735,-3.885,2.00,0.00,0.27,0.89,0.01,2025-06-06T10:32:37.321968
2145,-0.7169,0.6759,0.2045,3.955,1.820,-2.870,0.00,0.00,0.28,0.88,0.01,2025-06-06T10:32:37.321968
2146,-0.6847,0.6676,0.1976,2.240,6.755,-1.680,1.00,0.00,0.28,0.88,0.00,2025-06-06T10:32:37.321968
2147,-0.6949,0.6817,0.1850,14.525,-0.770,-0.945,0.00,0.01,0.28,0.89,0.01,2025-06-06T10:32:37.367399
2148,-0.6637,0.6920,0.1903,3.465,7.280,1.820,2.00,0.00,0.28,0.89,0.00,2025-06-06T10:32:37.367399
2149,-0.6647,0.6808,0.1776,18.340,6.125,3.010,5.00,0.01,0.29,0.88,0.01,2025-06-06T10:32:37.367399
2150,-0.6495,0.6798,0.1806,1.750,2.030,1.470,1.00,0.00,0.28,0.88,0.00,2025-06-06T10:32:37.415477
2151,-0.6866,0.6564,0.1879,1.260,3.255,1.190,1.00,0.00,0.30,0.88,0.00,2025-06-06T10:32:37.415477
2152,-0.7247,0.6568,0.1752,1.470,10.535,-0.105,5.00,0.01,0.28,0.88,0.01,2025-06-06T10:32:37.415477
2153,-0.7310,0.6798,0.2011,-0.210,20.300,-0.035,2.00,0.00,0.27,0.88,0.00,2025-06-06T10:32:37.415477
2154,-0.7100,0.6764,0.1854,15.575,16.520,0.700,1.00,0.01,0.27,0.88,0.00,2025-06-06T10:32:37.495626
2155,-0.7105,0.6788,0.1967,15.715,7.875,-1.610,5.00,0.00,0.26,0.88,0.00,2025-06-06T10:32:37.495626
2156,-0.7105,0.6764,0.1996,10.780,3.150,-3.045,1.00,0.00,0.27,0.87,0.01,2025-06-06T10:32:37.495626
2157,-0.7052,0.6749,0.1869,13.300,-4.410,-4.550,2.00,0.00,0.26,0.86,0.00,2025-06-06T10:32:37.495626
2158,-0.7135,0.6773,0.1854,1.085,0.175,-5.775,0.00,0.01,0.26,0.85,0.00,2025-06-06T10:32:37.495626
2159,-0.6817,0.7013,0.1845,-10.325,2.100,-5.285,1.00,0.00,0.28,0.84,0.00,2025-06-06T10:32:37.495626
2160,-0.6578,0.7027,0.1649,-6.545,-0.945,-4.130,3.00,0.00,0.26,0.85,0.01,2025-06-06T10:32:37.622224
2161,-0.7125,0.6783,0.1527,-7.560,-3.430,-3.500,1.00,0.00,0.26,0.85,0.00,2025-06-06T10:32:37.622224
2162,-0.7022,0.6734,0.1771,-10.955,1.715,-2.940,1.00,0.00,0.26,0.84,0.01,2025-06-06T10:32:37.622224
2163,-0.7198,0.6608,0.1693,1.435,-6.755,-2.870,5.00,0.00,0.25,0.82,0.00,2025-06-06T10:32:37.622224
2164,-0.7481,0.6759,0.1703,-3.115,-6.405,-4.235,1.00,0.01,0.24,0.81,0.00,2025-06-06T10:32:37.622224
2165,-0.7383,0.6793,0.1737,-4.025,-7.525,-4.445,1.00,0.00,0.24,0.82,0.00,2025-06-06T10:32:37.622224
2166,-0.7379,0.6744,0.1747,-2.625,7.420,-3.185,2.00,0.00,0.24,0.81,0.00,2025-06-06T10:32:37.622224
2167,-0.7213,0.6803,0.1444,-16.555,9.135,-1.505,2.00,0.01,0.24,0.79,0.00,2025-06-06T10:32:37.622224
2168,-0.7081,0.6783,0.1215,-7.105,8.260,-1.120,0.00,0.01,0.23,0.79,0.00,2025-06-06T10:32:37.622224
2169,-0.7003,0.6759,0.1118,1.995,6.230,-0.455,2.00,0.01,0.23,0.79,0.00,2025-06-06T10:32:37.697746
2170,-0.6847,0.6832,0.1044,20.335,-2.030,0.420,0.00,0.00,0.22,0.78,0.01,2025-06-06T10:32:37.697746
2171,-0.6690,0.7169,0.1220,17.185,-4.620,2.310,4.00,0.00,0.22,0.78,0.00,2025-06-06T10:32:37.697746
2172,-0.6744,0.7061,0.1181,5.880,-4.760,3.850,4.00,0.01,0.22,0.75,0.00,2025-06-06T10:32:37.697746
2173,-0.7232,0.6934,0.1459,4.690,-0.700,2.975,0.00,0.00,0.21,0.74,0.00,2025-06-06T10:32:37.697746
2174,-0.7139,0.6954,0.1581,7.315,-0.770,1.050,0.00,0.00,0.21,0.74,0.01,2025-06-06T10:32:37.697746
2175,-0.7047,0.6954,0.1659,0.875,-1.190,-0.945,0.00,0.01,0.21,0.73,0.00,2025-06-06T10:32:37.795970
2176,-0.7159,0.6710,0.1493,4.410,-4.025,-3.710,0.00,0.01,0.20,0.71,0.00,2025-06-06T10:32:37.795970
2177,-0.7257,0.6769,0.1244,3.640,-2.065,-6.020,2.00,0.01,0.19,0.71,0.00,2025-06-06T10:32:37.795970
2178,-0.6978,0.6895,0.1059,4.585,-0.490,-7.035,2.00,0.01,0.20,0.70,0.01,2025-06-06T10:32:37.795970
2179,-0.6637,0.7110,0.0903,6.545,0.035,-7.070,2.00,0.00,0.19,0.70,0.01,2025-06-06T10:32:37.795970
2180,-0.6647,0.7056,0.1103,12.180,-3.255,-6.580,2.00,0.00,0.19,0.70,0.00,2025-06-06T10:32:37.795970
2181,-0.6730,0.7042,0.1552,-0.805,-5.600,-5.705,4.00,0.00,0.19,0.69,0.00,2025-06-06T10:32:37.795970
2182,-0.7369,0.6651,0.1640,0.980,-7.630,-5.880,6.00,0.00,0.19,0.69,0.00,2025-06-06T10:32:37.795970
2183,-0.7330,0.6681,0.1503,11.060,-14.000,-6.860,0.00,0.01,0.19,0.68,0.01,2025-06-06T10:32:37.843110
2184,-0.7096,0.6754,0.1571,10.080,-15.365,-6.195,5.00,0.01,0.19,0.68,0.01,2025-06-06T10:32:37.843110
2185,-0.7632,0.6568,0.1420,14.700,-17.885,-5.705,3.00,0.01,0.19,0.67,0.00,2025-06-06T10:32:37.843110
2186,-0.7471,0.6466,0.1200,28.105,-21.385,-5.145,0.00,0.01,0.19,0.68,0.00,2025-06-06T10:32:37.843110
2187,-0.7657,0.6690,0.1391,36.505,-20.825,-3.780,1.00,0.01,0.19,0.69,0.00,2025-06-06T10:32:38.115502
2188,-0.6954,0.6759,0.1054,26.880,-0.035,3.115,3.00,0.00,0.20,0.69,0.01,2025-06-06T10:32:38.115502
2189,-0.7096,0.6651,0.0942,21.490,2.415,9.275,2.00,0.00,0.19,0.67,0.01,2025-06-06T10:32:38.115502
2190,-0.6964,0.6974,0.1093,30.800,3.640,17.500,0.00,0.00,0.20,0.70,0.00,2025-06-06T10:32:38.115502
2191,-0.7818,0.7169,0.1332,20.265,12.110,30.380,3.00,0.01,0.19,0.70,0.00,2025-06-06T10:32:38.115502
2192,-0.7954,0.7369,0.1396,21.875,22.855,41.825,2.00,0.01,0.20,0.71,0.00,2025-06-06T10:32:38.115502
2193,-0.7359,0.7325,0.1376,34.300,17.080,52.710,0.00,0.01,0.20,0.71,0.00,2025-06-06T10:32:38.115502
2194,-0.7891,0.7388,0.1337,34.440,26.600,66.290,2.00,0.00,0.21,0.71,0.00,2025-06-06T10:32:38.115502
2195,-0.8969,0.7105,0.0200,30.170,35.665,74.165,2.00,0.01,0.20,0.71,0.00,2025-06-06T10:32:38.115502
2196,-0.8194,0.8052,0.0059,27.125,52.605,83.615,2.00,0.00,0.20,0.71,0.00,2025-06-06T10:32:38.115502
2197,-0.5924,0.8843,0.0551,39.200,51.800,104.790,0.00,0.00,0.22,0.71,0.00,2025-06-06T10:32:38.115502
2198,-0.6695,0.9116,0.1113,38.150,49.525,124.425,8.00,0.00,0.20,0.71,0.00,2025-06-06T10:32:38.115502
2199,-0.7657,0.8560,0.0781,43.330,52.640,140.105,1.00,0.01,0.20,0.72,0.00,2025-06-06T10:32:38.115502
2200,-0.8462,0.7779,0.0615,111.125,50.155,143.080,1.00,0.01,0.20,0.71,0.01,2025-06-06T10:32:38.115502
2201,-0.7725,0.7510,-0.0781,285.810,60.865,138.355,3.00,0.00,0.20,0.70,0.00,2025-06-06T10:32:38.115502
2202,-0.7227,0.7906,-0.1215,323.820,73.675,120.540,3.00,0.00,0.22,0.70,0.00,2025-06-06T10:32:38.115502
2203,-0.6622,0.8906,-0.1025,196.560,121.590,103.705,0.00,0.00,0.21,0.70,0.00,2025-06-06T10:32:38.115502
2204,-0.6032,0.8672,0.0127,93.800,144.725,90.370,0.00,0.01,0.22,0.71,0.01,2025-06-06T10:32:38.115502
2205,-0.5397,0.9257,-0.2176,97.405,153.475,78.575,3.00,0.01,0.22,0.71,0.00,2025-06-06T10:32:38.115502
2206,-0.7706,0.6310,-0.5056,10.115,180.110,56.665,4.00,0.01,0.22,0.71,0.01,2025-06-06T10:32:38.223136
2207,-0.3255,0.8413,-0.1635,-37.730,199.150,51.625,0.00,0.01,0.21,0.72,0.00,2025-06-06T10:32:38.223136
2208,-0.3841,0.8555,-0.2201,-16.100,180.250,61.320,7.00,0.00,0.22,0.73,0.00,2025-06-06T10:32:38.223136
