SeqNum,AccX,AccY,AccZ,GyroX,GyroY,GyroZ,Flex,Force1,Force2,Force3,Force4,TimestampReception
27809,-0.5680,0.4480,0.4738,57.365,91.350,35.805,464,422,306,368,335,2025-05-28T17:30:04.390357
27810,-0.8789,0.2625,0.5222,10.255,-10.395,-1.785,467,419,286,401,385,2025-05-28T17:30:04.391354
27811,-0.8828,0.2425,0.5231,9.975,-7.840,0.000,424,362,334,406,399,2025-05-28T17:30:04.391354
27812,-0.8330,0.2430,0.5495,8.365,-4.760,2.205,416,391,357,385,388,2025-05-28T17:30:04.391354
27813,-0.8555,0.2450,0.5363,3.605,1.155,6.370,410,397,359,387,392,2025-05-28T17:30:04.391354
27814,-0.8516,0.2689,0.4856,1.120,7.665,8.890,371,425,378,353,399,2025-05-28T17:30:04.391354
27815,-0.8847,0.2489,0.4631,2.415,11.340,9.870,406,416,374,403,402,2025-05-28T17:30:04.391605
27816,-0.8984,0.2586,0.4338,2.240,14.070,10.465,424,407,339,386,415,2025-05-28T17:30:04.391605
27817,-0.9433,0.2489,0.4890,4.550,9.800,13.265,422,427,368,409,415,2025-05-28T17:30:04.594247
27818,-0.8794,0.2699,0.4778,1.295,11.445,14.385,420,355,374,418,318,2025-05-28T17:30:04.594247
27819,-1.0224,0.1571,0.3880,0.735,3.080,14.770,439,394,342,418,376,2025-05-28T17:30:04.594247
27820,-1.0551,0.1698,0.5109,14.770,-18.690,10.325,424,413,322,357,391,2025-05-28T17:30:04.594247
27821,-0.9687,0.2518,0.5456,20.510,-35.805,8.715,413,400,360,400,353,2025-05-28T17:30:04.594247
27822,-0.9326,0.2562,0.5022,19.740,-48.160,8.225,399,422,372,399,375,2025-05-28T17:30:04.594247
27823,-0.8686,0.2669,0.4597,23.730,-52.745,6.125,434,407,383,408,361,2025-05-28T17:30:04.594247
27824,-0.8052,0.3021,0.4475,24.255,-49.945,4.690,426,397,386,424,340,2025-05-28T17:30:04.594247
27825,-0.7593,0.3338,0.4387,21.140,-43.750,4.725,431,414,353,394,393,2025-05-28T17:30:04.594247
27826,-0.7305,0.3518,0.4211,17.675,-34.300,5.075,442,428,327,403,408,2025-05-28T17:30:04.594247
27827,-0.7144,0.3621,0.4124,12.040,-22.995,5.880,414,428,368,415,405,2025-05-28T17:30:04.594247
27828,-0.7130,0.3660,0.4192,5.810,-8.645,6.475,422,424,369,389,404,2025-05-28T17:30:04.594247
27829,-0.7315,0.3645,0.4241,-0.665,2.485,6.930,416,406,303,402,412,2025-05-28T17:30:04.594247
27830,-0.7749,0.3450,0.4241,-5.425,9.310,7.665,408,397,333,346,400,2025-05-28T17:30:04.594247
27831,-0.8125,0.3250,0.4324,-8.295,11.130,7.840,417,388,367,373,350,2025-05-28T17:30:04.594247
27832,-0.8496,0.3060,0.4534,-9.275,8.715,7.560,309,381,384,340,367,2025-05-28T17:30:04.594247
27833,-0.8745,0.2952,0.4685,-10.255,1.785,7.385,390,427,367,390,364,2025-05-28T17:30:04.594247
27834,-0.8882,0.2869,0.4782,-9.450,-7.490,6.790,354,383,368,403,397,2025-05-28T17:30:04.934529
27835,-0.8794,0.2743,0.4836,-8.225,-15.890,6.125,412,343,368,412,417,2025-05-28T17:30:04.934529
27836,-0.8740,0.2625,0.4895,-6.510,-23.730,5.600,420,411,380,374,355,2025-05-28T17:30:04.934529
27837,-0.8594,0.2635,0.5090,-5.425,-29.960,4.795,399,405,367,381,371,2025-05-28T17:30:04.934529
27838,-0.8457,0.2640,0.5134,-5.285,-33.600,4.095,414,416,387,399,401,2025-05-28T17:30:04.934529
27839,-0.8330,0.2635,0.5153,-4.865,-36.610,3.360,404,386,348,355,409,2025-05-28T17:30:04.934529
27840,-0.8145,0.2596,0.5153,-4.585,-37.660,2.625,408,397,366,386,357,2025-05-28T17:30:04.934529
27841,-0.7950,0.2591,0.5124,-4.515,-36.820,1.680,410,398,371,395,335,2025-05-28T17:30:04.934529
27842,-0.6881,0.1537,0.5119,-1.750,-30.135,-0.525,420,357,376,413,373,2025-05-28T17:30:04.934529
27843,-0.6622,0.2362,0.5680,-1.750,-17.395,2.100,429,401,340,423,390,2025-05-28T17:30:04.934529
27844,-0.7340,0.2606,0.5719,-6.335,-3.010,0.420,433,421,351,427,404,2025-05-28T17:30:04.934529
27845,-0.7164,0.2391,0.5666,-6.790,9.100,-0.455,381,423,370,363,382,2025-05-28T17:30:04.934529
27846,-0.9731,0.0556,0.5958,-4.410,4.760,-1.295,438,352,373,390,413,2025-05-28T17:30:04.934529
27847,-0.8335,0.1815,0.6061,0.000,-7.770,-5.635,412,427,380,420,393,2025-05-28T17:30:04.934529
27848,-0.7369,0.2752,0.5348,-3.290,-7.280,-5.320,431,422,379,405,378,2025-05-28T17:30:04.934529
27849,-0.7740,0.2362,0.4875,-5.915,-0.630,-3.780,382,406,384,367,398,2025-05-28T17:30:04.934529
27850,-0.7993,0.2586,0.4939,-6.685,7.210,-6.265,403,402,354,402,397,2025-05-28T17:30:04.934529
27851,-0.8364,0.2689,0.5031,-8.505,7.350,-6.510,406,421,362,396,401,2025-05-28T17:30:04.934529
27852,-0.8398,0.2777,0.5373,-9.485,-0.875,-10.465,403,420,367,401,406,2025-05-28T17:30:04.934529
27853,-0.8394,0.2933,0.5202,-8.190,-11.655,-9.415,405,411,374,371,407,2025-05-28T17:30:04.934529
27854,-0.8237,0.2796,0.5134,-8.820,-14.735,-9.380,424,435,382,397,355,2025-05-28T17:30:05.109446
27855,-0.8403,0.2708,0.5402,-6.755,-18.025,-11.025,427,402,378,404,384,2025-05-28T17:30:05.109446
27856,-0.8272,0.2752,0.5622,-4.480,-21.770,-10.500,357,340,392,353,388,2025-05-28T17:30:05.109446
27857,-0.8072,0.2723,0.5758,-4.130,-20.405,-9.030,370,389,392,292,344,2025-05-28T17:30:05.109446
27858,-0.7954,0.2762,0.5754,-2.940,-13.545,-8.225,345,419,386,365,336,2025-05-28T17:30:05.109446
27859,-0.7886,0.2723,0.5915,-1.575,-8.365,-7.770,385,395,379,377,374,2025-05-28T17:30:05.109446
27860,-0.7730,0.2806,0.6100,-1.575,-3.150,-7.175,365,422,392,345,395,2025-05-28T17:30:05.109446
27861,-0.7554,0.2826,0.5919,-2.660,1.330,-6.545,409,421,393,382,416,2025-05-28T17:30:05.110373
27862,-0.7052,0.2821,0.5529,-5.285,10.255,-6.370,385,403,389,401,416,2025-05-28T17:30:05.110373
27863,-0.6900,0.2679,0.5158,-7.280,23.135,-6.615,383,422,379,408,371,2025-05-28T17:30:05.110373
27864,-0.7086,0.2494,0.5119,-8.785,31.955,-7.140,422,374,385,412,394,2025-05-28T17:30:05.110373
27865,-0.7462,0.2386,0.5285,-9.905,39.340,-6.440,431,417,344,404,363,2025-05-28T17:30:05.110373
27866,-0.8296,0.2284,0.5305,-11.340,40.215,-5.040,428,413,370,395,388,2025-05-28T17:30:05.110373
27867,-0.8696,0.2137,0.5246,-11.900,37.800,-4.795,412,304,372,349,401,2025-05-28T17:30:05.110373
27868,-0.8774,0.2020,0.5222,-11.795,36.540,-3.990,402,400,345,377,385,2025-05-28T17:30:05.110373
27869,-0.9340,0.1918,0.5285,-10.080,30.380,-2.835,424,370,367,400,416,2025-05-28T17:30:05.110373
27870,-0.9496,0.2279,0.5373,-8.435,20.860,-1.050,425,416,367,390,398,2025-05-28T17:30:05.110373
27871,-0.9750,0.2186,0.4948,-7.140,11.480,-1.505,399,413,377,344,384,2025-05-28T17:30:05.110373
27872,-0.9360,0.2460,0.5085,-4.235,3.570,-2.695,423,427,384,387,396,2025-05-28T17:30:05.110373
27873,-0.9008,0.2596,0.5300,-2.135,-2.345,-2.940,405,395,388,348,368,2025-05-28T17:30:05.110373
27874,-0.8145,0.2655,0.5275,-2.905,-1.820,-2.450,353,338,375,383,385,2025-05-28T17:30:05.405313
27875,-0.8145,0.2611,0.5412,-3.115,-0.245,-1.890,417,405,366,384,346,2025-05-28T17:30:05.405313
27876,-0.8062,0.2508,0.5417,-2.905,2.660,-1.890,410,421,365,391,382,2025-05-28T17:30:05.405313
27877,-0.8242,0.2455,0.5300,-2.975,2.905,-1.645,399,399,378,395,398,2025-05-28T17:30:05.405883
27878,-0.8359,0.2460,0.5270,-2.625,2.485,-1.505,430,357,376,359,398,2025-05-28T17:30:05.405883
27879,-0.8569,0.2401,0.5266,-2.380,1.540,-1.190,406,384,350,399,391,2025-05-28T17:30:05.405883
27880,-0.8462,0.2411,0.5168,-2.415,2.275,-1.155,401,413,363,387,386,2025-05-28T17:30:05.405883
27881,-0.8516,0.2323,0.5241,-2.275,3.430,-1.505,423,413,334,370,363,2025-05-28T17:30:05.405883
27882,-0.8652,0.2323,0.5256,-1.855,2.870,-0.910,424,350,320,339,380,2025-05-28T17:30:05.405883
27883,-0.8769,0.2298,0.5241,-0.700,0.630,-0.490,433,404,351,372,352,2025-05-28T17:30:05.405883
27884,-0.8779,0.2372,0.5187,-8.925,0.175,0.770,431,417,331,377,372,2025-05-28T17:30:05.405883
27885,-0.8945,0.2406,0.5158,0.070,0.420,2.310,434,422,361,338,395,2025-05-28T17:30:05.405883
27886,-0.9174,0.2294,0.5212,1.190,-1.400,3.220,417,411,378,380,394,2025-05-28T17:30:05.405883
27887,-0.9213,0.2284,0.5222,2.555,-6.965,4.095,424,429,383,401,384,2025-05-28T17:30:05.405883
27888,-0.9116,0.2347,0.5202,3.500,-12.320,5.355,395,421,385,392,341,2025-05-28T17:30:05.405883
27889,-0.8935,0.2401,0.5309,3.605,-13.755,6.265,307,340,310,406,377,2025-05-28T17:30:05.405883
27890,-0.8838,0.2318,0.5334,3.780,-14.385,6.440,327,377,357,418,392,2025-05-28T17:30:05.405883
27891,-0.8647,0.2269,0.5329,4.060,-16.380,6.650,421,410,349,395,402,2025-05-28T17:30:05.405883
27892,-0.8506,0.2230,0.5212,3.745,-18.060,6.685,425,426,361,413,402,2025-05-28T17:30:05.405883
27893,-0.8389,0.2191,0.5119,3.850,-18.270,6.405,427,422,382,424,373,2025-05-28T17:30:05.405883
27894,-0.8599,0.2094,0.5134,4.515,-20.825,5.075,430,423,373,417,374,2025-05-28T17:30:05.405883
27895,-0.8423,0.2186,0.5163,5.320,-24.745,3.990,433,422,368,409,393,2025-05-28T17:30:05.828939
27896,-0.8408,0.2206,0.5158,5.740,-28.910,3.535,425,418,374,426,394,2025-05-28T17:30:05.828939
27897,-0.8350,0.2372,0.5256,6.405,-30.240,2.310,356,434,384,366,389,2025-05-28T17:30:05.828939
27898,-0.9004,0.2377,0.5680,7.070,-36.610,0.665,410,417,376,396,390,2025-05-28T17:30:05.828939
27899,-0.7749,0.2469,0.4997,7.350,-39.585,-0.910,380,347,385,400,409,2025-05-28T17:30:05.829935
27900,-0.7374,0.2460,0.5222,6.615,-30.730,-1.260,397,412,383,389,401,2025-05-28T17:30:05.829935
27901,-0.7042,0.2577,0.5490,5.250,-15.225,-1.330,430,407,384,377,412,2025-05-28T17:30:05.829935
27902,-0.6910,0.2503,0.5602,3.185,-5.005,-1.540,440,421,373,339,397,2025-05-28T17:30:05.829935
27903,-0.7222,0.2420,0.5705,0.805,3.815,-0.280,432,347,384,393,410,2025-05-28T17:30:05.830541
27904,-0.7832,0.2294,0.5612,0.315,5.810,0.805,420,421,387,386,397,2025-05-28T17:30:05.830541
27905,-0.8647,0.2162,0.5475,1.785,4.130,1.960,413,433,389,397,410,2025-05-28T17:30:05.830541
27906,-0.9228,0.2079,0.5666,2.345,-8.015,0.980,442,411,392,348,413,2025-05-28T17:30:05.830541
27907,-0.8823,0.2513,0.5065,0.910,-13.545,2.800,425,422,376,351,390,2025-05-28T17:30:05.830541
27908,-0.8945,0.2484,0.4978,-0.455,-17.220,4.060,418,404,383,377,405,2025-05-28T17:30:05.830541
27909,-0.8994,0.2435,0.5305,0.700,-20.300,3.605,419,412,339,385,354,2025-05-28T17:30:05.830541
27910,-0.8467,0.2577,0.5422,0.245,-25.340,3.535,422,417,370,411,400,2025-05-28T17:30:05.830541
27911,-0.8135,0.2562,0.5427,-1.225,-29.960,4.200,424,417,384,423,394,2025-05-28T17:30:05.830541
27912,-0.8106,0.2259,0.5539,-0.315,-30.625,3.675,429,398,388,420,413,2025-05-28T17:30:05.830541
27913,-0.7300,0.2660,0.5070,-3.815,-25.935,2.555,355,414,382,422,421,2025-05-28T17:30:05.830541
27914,-0.7242,0.2557,0.4982,-9.205,-14.105,4.620,413,402,341,407,416,2025-05-28T17:30:05.830541
27915,-0.7237,0.2420,0.5104,-10.150,-5.600,5.250,387,392,358,411,396,2025-05-28T17:30:05.830541
27916,-0.7501,0.2411,0.5475,-9.905,0.385,4.900,424,407,368,373,407,2025-05-28T17:30:05.839759
27917,-0.7740,0.2425,0.5675,-10.675,2.100,4.200,404,406,375,380,420,2025-05-28T17:30:05.841782
27918,-0.7915,0.2391,0.5749,-8.960,0.245,2.030,406,395,387,402,406,2025-05-28T17:30:05.841853
27919,-0.8052,0.2479,0.5817,-6.230,-2.905,0.525,418,423,385,408,368,2025-05-28T17:30:05.841853
27920,-0.7920,0.2577,0.5866,-3.990,-6.580,-0.665,405,423,386,407,389,2025-05-28T17:30:05.841853
27921,-0.7842,0.2611,0.5841,-1.890,-9.275,-1.715,407,406,394,421,401,2025-05-28T17:30:05.841853
27922,-0.7740,0.2728,0.5856,-0.525,-8.995,-2.100,347,380,345,398,363,2025-05-28T17:30:05.841853
27923,-0.7808,0.2977,0.5949,-0.805,-7.735,0.245,418,417,371,394,390,2025-05-28T17:30:05.841853
27924,-0.8535,0.2591,0.5368,-1.925,-15.155,-0.805,436,370,382,400,392,2025-05-28T17:30:05.841853
27925,-0.8311,0.2796,0.5270,-0.735,-17.605,-1.470,441,405,387,408,369,2025-05-28T17:30:05.841853
27926,-0.7823,0.2786,0.5495,-1.750,-15.890,-0.665,415,415,389,391,374,2025-05-28T17:30:05.841853
27927,-0.7788,0.2850,0.5641,-3.780,-10.675,1.540,429,413,391,402,365,2025-05-28T17:30:05.841853
27928,-0.7788,0.2830,0.5549,-5.600,-7.245,3.150,422,406,396,392,352,2025-05-28T17:30:05.841853
27929,-0.7818,0.2733,0.5617,-6.860,-2.905,3.885,384,384,386,408,389,2025-05-28T17:30:05.842853
27930,-0.8945,0.0820,0.6383,-2.730,-4.165,0.980,404,422,355,418,347,2025-05-28T17:30:05.842853
27931,-0.7369,0.1508,0.6876,4.025,-10.920,-4.900,401,397,360,364,339,2025-05-28T17:30:05.842853
27932,-0.6725,0.2586,0.6754,2.800,-5.180,-1.365,431,335,373,387,380,2025-05-28T17:30:05.842853
27933,-0.6798,0.2830,0.5973,-2.380,7.035,8.260,432,395,339,409,381,2025-05-28T17:30:05.842853
27934,-0.8359,0.2303,0.5256,-2.450,9.275,0.805,413,411,361,409,395,2025-05-28T17:30:05.842853
27935,-0.8491,0.2220,0.5407,-1.295,9.030,-1.715,413,402,368,366,403,2025-05-28T17:30:05.842853
27936,-0.8540,0.2445,0.5827,-2.310,5.040,-0.210,423,420,346,341,406,2025-05-28T17:30:05.842853
27937,-0.9028,0.2342,0.5900,-2.450,0.210,1.750,424,409,354,334,409,2025-05-28T17:30:05.845749
27938,-0.8930,0.2347,0.5802,-1.715,-7.105,1.750,428,440,372,383,411,2025-05-28T17:30:05.845749
27939,-0.8779,0.2245,0.6002,-0.665,-13.580,2.100,428,440,383,408,412,2025-05-28T17:30:06.028028
27940,-0.8062,0.2552,0.5602,-0.630,-16.380,4.375,368,385,379,400,411,2025-05-28T17:30:06.028028
27941,-0.7852,0.2801,0.5627,-3.080,-6.020,5.180,342,349,370,421,356,2025-05-28T17:30:06.028830
27942,-0.7637,0.2606,0.5724,-4.270,-2.940,4.550,404,418,371,414,379,2025-05-28T17:30:06.028830
27943,-0.7652,0.2557,0.5778,-4.095,-3.150,4.060,405,436,348,426,399,2025-05-28T17:30:06.028830
27944,-0.7637,0.2508,0.5734,-5.145,-5.040,2.940,417,405,322,317,400,2025-05-28T17:30:06.028830
27945,-0.7427,0.2094,0.5705,-4.095,-7.840,-0.875,410,370,317,380,399,2025-05-28T17:30:06.028830
27946,-0.6822,0.2367,0.5788,-2.240,-7.770,-4.060,422,421,347,385,396,2025-05-28T17:30:06.028830
27947,-0.6764,0.2352,0.5929,-3.325,-2.940,-2.310,441,398,337,381,411,2025-05-28T17:30:06.028830
27948,-0.7076,0.2181,0.5929,-4.165,4.095,-3.640,429,409,367,402,413,2025-05-28T17:30:06.028830
27949,-0.7213,0.2294,0.5968,-4.655,12.985,-5.250,428,415,368,396,404,2025-05-28T17:30:06.028830
27950,-0.7505,0.2313,0.5890,-5.845,18.830,-5.110,417,349,373,414,409,2025-05-28T17:30:06.028830
27951,-0.7906,0.2338,0.5724,-6.055,20.895,-5.810,410,336,347,411,387,2025-05-28T17:30:06.028830
27952,-0.8081,0.2508,0.5568,-5.460,19.530,-7.245,392,400,356,411,395,2025-05-28T17:30:06.028830
27953,-0.8276,0.2513,0.5358,-5.005,16.555,-7.840,399,338,374,365,347,2025-05-28T17:30:06.274292
27954,-0.8325,0.2411,0.5256,-3.920,12.110,-7.665,419,393,366,379,391,2025-05-28T17:30:06.274292
27955,-0.8755,0.2328,0.5378,-2.870,6.930,-7.490,424,389,378,386,349,2025-05-28T17:30:06.274292
27956,-0.9038,0.2230,0.5563,-2.170,1.050,-6.510,406,427,337,402,336,2025-05-28T17:30:06.274292
27957,-0.9184,0.2137,0.5836,-1.645,-5.775,-5.460,427,401,360,413,379,2025-05-28T17:30:06.274292
27958,-0.9228,0.2059,0.5919,-1.225,-12.320,-3.535,428,361,375,418,393,2025-05-28T17:30:06.274292
27959,-0.9130,0.2098,0.5841,-1.085,-18.270,-2.065,436,398,373,413,401,2025-05-28T17:30:06.274292
27960,-0.8930,0.2094,0.5739,-0.350,-22.995,-0.875,435,407,372,368,408,2025-05-28T17:30:06.274292
27961,-0.8574,0.2191,0.5827,0.385,-25.305,0.175,438,356,348,401,410,2025-05-28T17:30:06.274292
27962,-0.8145,0.2269,0.5900,0.105,-24.045,0.805,434,372,371,407,396,2025-05-28T17:30:06.274292
27963,-0.7554,0.2357,0.5885,-1.050,-18.480,1.190,378,416,339,347,379,2025-05-28T17:30:06.274292
27964,-0.7203,0.2318,0.6027,-2.135,-9.800,0.910,397,422,358,383,399,2025-05-28T17:30:06.274292
27965,-0.6925,0.2357,0.6193,-2.870,0.035,0.980,424,350,382,402,399,2025-05-28T17:30:06.274292
27966,-0.7252,0.2294,0.6271,-3.395,5.845,2.485,415,405,386,390,404,2025-05-28T17:30:06.274292
27967,-0.7735,0.2328,0.6188,-3.710,8.785,3.255,411,413,394,398,418,2025-05-28T17:30:06.274292
27968,-0.8140,0.2225,0.6129,-2.520,7.875,1.855,430,406,384,409,412,2025-05-28T17:30:06.274292
27969,-0.8140,0.2357,0.6193,-0.770,5.390,1.610,396,412,354,375,408,2025-05-28T17:30:06.274292
27970,-0.8013,0.2372,0.6183,0.140,2.660,0.560,430,366,340,384,389,2025-05-28T17:30:06.456541
27971,-0.7588,0.2547,0.6193,0.070,3.920,0.140,427,395,354,385,403,2025-05-28T17:30:06.456541
27972,-0.7549,0.2499,0.6178,-0.420,8.015,0.070,398,425,370,415,412,2025-05-28T17:30:06.456541
27973,-0.7574,0.2586,0.5988,-1.575,12.845,-0.280,386,413,384,423,396,2025-05-28T17:30:06.456541
27974,-0.7701,0.2655,0.5710,-3.360,15.225,-0.805,418,357,377,416,395,2025-05-28T17:30:06.456541
27975,-0.7793,0.2655,0.5519,-4.760,16.380,-1.435,417,389,380,409,381,2025-05-28T17:30:06.456541
27976,-0.7803,0.2630,0.5397,-5.775,17.815,-1.785,394,396,359,397,381,2025-05-28T17:30:06.456541
27977,-0.8184,0.2450,0.5422,-6.090,17.465,-2.380,394,404,368,388,396,2025-05-28T17:30:06.456541
27978,-0.8345,0.2352,0.5534,-5.845,14.280,-3.220,429,414,373,410,390,2025-05-28T17:30:06.456541
27979,-0.8330,0.2308,0.5646,-6.370,11.305,-3.710,423,421,387,390,402,2025-05-28T17:30:06.456541
27980,-0.8325,0.2230,0.5636,-7.315,8.295,-3.255,413,401,390,391,404,2025-05-28T17:30:06.456541
27981,-0.8316,0.2128,0.5524,-7.525,8.505,-3.080,433,413,383,406,409,2025-05-28T17:30:06.456541
27982,-0.8306,0.2137,0.5480,-8.015,9.835,-3.360,434,429,367,395,400,2025-05-28T17:30:06.456541
27983,-0.8550,0.2074,0.5431,-7.735,8.610,-2.975,425,410,370,394,408,2025-05-28T17:30:06.456541
27984,-0.8755,0.1884,0.5358,-6.055,5.635,-2.520,422,425,375,403,389,2025-05-28T17:30:06.456541
27985,-0.8750,0.1850,0.5353,-5.110,0.945,-2.520,431,430,345,406,358,2025-05-28T17:30:06.456541
27986,-0.8682,0.1918,0.5241,-5.390,-0.455,-2.205,423,429,369,401,374,2025-05-28T17:30:06.456541
27987,-0.8921,0.2015,0.5251,-5.390,-1.365,-1.960,433,430,367,383,387,2025-05-28T17:30:06.456541
27988,-0.9057,0.2279,0.5314,-5.320,-4.830,-2.485,409,415,382,407,379,2025-05-28T17:30:06.456541
27989,-0.7530,0.2367,0.5275,-4.900,-8.575,-2.065,410,376,376,355,384,2025-05-28T17:30:06.456541
27990,-0.8428,0.2064,0.5417,-3.220,-11.725,-0.910,381,386,307,390,406,2025-05-28T17:30:06.846509
27991,-0.8257,0.1884,0.5573,-1.715,-11.515,1.155,432,390,346,411,389,2025-05-28T17:30:06.846509
27992,-0.8447,0.1747,0.5470,-1.400,-11.865,2.485,416,374,359,401,376,2025-05-28T17:30:06.846509
27993,-0.8682,0.1249,0.5373,-0.770,-14.035,1.785,402,398,368,405,395,2025-05-28T17:30:06.846509
27994,-0.8677,0.1781,0.5456,-0.420,-13.790,1.330,394,407,378,394,397,2025-05-28T17:30:06.846509
27995,-0.8716,0.1815,0.5500,0.980,-18.270,1.155,411,414,392,388,351,2025-05-28T17:30:06.846509
27996,-0.9218,0.1547,0.6100,2.625,-23.275,0.665,425,430,381,405,387,2025-05-28T17:30:06.846509
27997,-0.8135,0.2025,0.5700,1.960,-26.110,0.560,421,400,385,400,388,2025-05-28T17:30:06.846509
27998,-0.7984,0.2074,0.5514,0.280,-21.490,1.715,434,423,383,412,362,2025-05-28T17:30:06.846509
27999,-0.7871,0.2006,0.5607,-0.665,-16.310,0.735,390,428,381,347,371,2025-05-28T17:30:06.846509
28000,-0.7603,0.2220,0.5714,-3.570,-6.160,1.960,423,420,378,375,399,2025-05-28T17:30:06.846509
28001,-0.7354,0.2386,0.5968,-7.945,3.780,-0.700,422,426,344,378,412,2025-05-28T17:30:06.846509
28002,-0.8076,0.1981,0.5729,-10.815,4.620,2.905,389,414,358,348,365,2025-05-28T17:30:06.846509
28003,-0.8594,0.1889,0.5480,-13.230,-0.070,3.465,423,389,373,387,392,2025-05-28T17:30:06.846509
28004,-0.8891,0.1893,0.5602,-12.950,-6.545,1.540,429,403,365,401,409,2025-05-28T17:30:06.846509
28005,-0.8711,0.2220,0.5880,-12.565,-16.065,1.540,423,410,382,408,414,2025-05-28T17:30:06.898678
28006,-0.8623,0.2294,0.5744,-14.035,-22.785,4.585,431,420,388,399,388,2025-05-28T17:30:06.898678
28007,-0.8452,0.2357,0.5719,-15.680,-24.640,6.160,365,389,376,363,385,2025-05-28T17:30:06.898678
28008,-0.8394,0.2557,0.5827,-18.655,-23.065,8.645,399,420,386,365,399,2025-05-28T17:30:06.898678
28009,-0.8423,0.2499,0.5778,-21.455,-19.600,12.005,390,424,351,386,349,2025-05-28T17:30:07.094835
28010,-0.8223,0.1830,0.5046,-19.740,-14.840,9.765,405,412,376,413,374,2025-05-28T17:30:07.094835
28011,-0.7061,0.2699,0.6124,-21.280,-2.730,11.655,407,428,385,404,382,2025-05-28T17:30:07.094835
28012,-0.7779,0.2523,0.5885,-24.570,2.800,17.640,401,398,387,387,396,2025-05-28T17:30:07.094835
28013,-0.8257,0.2128,0.5846,-23.870,5.880,17.500,397,422,381,399,381,2025-05-28T17:30:07.094835
28014,-0.8306,0.2162,0.6046,-23.170,2.975,16.730,390,387,341,384,388,2025-05-28T17:30:07.094835
28015,-0.8423,0.2162,0.6144,-22.365,-0.595,17.115,406,400,375,406,403,2025-05-28T17:30:07.094835
28016,-0.8447,0.2186,0.6115,-20.405,-4.725,16.450,396,375,383,406,403,2025-05-28T17:30:07.094835
28017,-0.8379,0.2250,0.6051,-18.340,-10.150,15.680,422,390,392,399,389,2025-05-28T17:30:07.094835
28018,-0.8150,0.2313,0.5900,-17.290,-14.665,15.785,430,412,390,392,408,2025-05-28T17:30:07.094835
28019,-0.7959,0.2381,0.5915,-15.680,-17.640,15.225,428,435,377,386,406,2025-05-28T17:30:07.094835
28020,-0.7647,0.2489,0.5910,-15.715,-18.550,14.700,444,418,390,348,406,2025-05-28T17:30:07.094835
28021,-0.7300,0.2474,0.5812,-16.555,-17.850,13.790,432,417,379,379,355,2025-05-28T17:30:07.094835
28022,-0.6490,0.2025,0.5895,-15.960,-11.725,14.455,431,420,380,360,343,2025-05-28T17:30:07.094835
28023,-0.6002,0.0937,0.6837,-12.320,6.195,15.365,408,378,373,393,371,2025-05-28T17:30:07.094835
28024,-0.6505,0.0156,0.8272,-4.585,26.740,15.960,426,390,384,395,383,2025-05-28T17:30:07.094835
28025,-0.7213,0.1147,0.8247,-3.850,36.890,14.420,436,428,358,390,357,2025-05-28T17:30:07.094835
28026,-0.7857,0.2416,0.5983,-7.980,36.925,9.660,424,363,365,341,372,2025-05-28T17:30:07.094835
28027,-0.8081,0.2767,0.4963,-7.840,29.855,6.125,431,411,370,371,379,2025-05-28T17:30:07.094835
28028,-0.8208,0.2494,0.4909,-7.105,21.595,5.040,421,412,340,382,402,2025-05-28T17:30:07.094835
28029,-0.8252,0.1976,0.5070,-8.330,14.980,3.920,401,419,361,404,396,2025-05-28T17:30:07.094835
28030,-0.8398,0.2250,0.5129,-9.905,5.145,-8.435,430,433,357,398,410,2025-05-28T17:30:07.094835
28031,-0.7886,0.2611,0.4909,-15.260,3.220,-3.290,379,423,367,384,415,2025-05-28T17:30:07.094835
28032,-0.7745,0.2669,0.5012,-17.465,5.775,-6.580,393,409,373,409,413,2025-05-28T17:30:07.094835
28033,-0.7862,0.2357,0.5544,-15.225,5.530,-8.575,412,410,389,392,396,2025-05-28T17:30:07.094835
28034,-0.8130,0.2484,0.6168,-14.490,0.280,-8.505,311,423,375,405,386,2025-05-28T17:30:07.094835
28035,-0.9023,0.1679,0.6744,-9.450,-15.540,-8.820,424,372,368,391,402,2025-05-28T17:30:07.094835
28036,-0.8164,0.1830,0.6705,-4.760,-24.745,-9.345,406,399,384,406,402,2025-05-28T17:30:07.094835
28037,-0.7466,0.1703,0.6534,-6.125,-21.945,-7.770,390,340,393,392,351,2025-05-28T17:30:07.094835
28038,-0.7149,0.1625,0.5056,-9.660,-8.085,-5.180,392,411,382,419,377,2025-05-28T17:30:07.094835
28039,-0.7398,0.1401,0.5900,-12.005,3.500,-3.430,397,417,378,407,374,2025-05-28T17:30:07.094835
28040,-0.7832,0.1249,0.5895,-13.335,8.505,-1.610,424,383,379,352,378,2025-05-28T17:30:07.094835
28041,-0.8316,0.0971,0.5876,-13.055,8.050,0.245,401,418,393,393,402,2025-05-28T17:30:07.094835
28042,-0.8599,0.0947,0.5607,-12.180,4.795,0.840,427,396,378,395,386,2025-05-28T17:30:07.260992
28043,-0.8735,0.1059,0.5446,-10.920,0.945,1.470,408,395,387,415,397,2025-05-28T17:30:07.260992
28044,-0.8847,0.1230,0.5534,-9.310,-4.900,2.870,423,409,377,347,337,2025-05-28T17:30:07.260992
28045,-0.8764,0.1249,0.5822,-7.840,-9.345,4.515,428,435,383,369,389,2025-05-28T17:30:07.260992
28046,-0.8413,0.1371,0.5993,-6.755,-9.975,5.250,404,385,381,396,405,2025-05-28T17:30:07.260992
28047,-0.8154,0.1557,0.6129,-6.125,-7.350,5.285,421,411,385,388,355,2025-05-28T17:30:07.260992
28048,-0.7823,0.1596,0.6134,-5.985,-2.310,5.530,428,368,348,406,340,2025-05-28T17:30:07.260992
28049,-0.7920,0.1566,0.6154,-6.090,0.315,5.740,377,383,351,347,381,2025-05-28T17:30:07.260992
28050,-0.7964,0.1571,0.5934,-5.740,-1.575,5.180,421,393,360,341,393,2025-05-28T17:30:07.260992
28051,-0.8164,0.1518,0.5788,-4.095,-5.075,5.320,410,428,327,386,395,2025-05-28T17:30:07.260992
28052,-0.8106,0.1547,0.5763,-2.205,-7.805,4.690,417,429,360,407,405,2025-05-28T17:30:07.260992
28053,-0.7950,0.1537,0.5768,-1.330,-8.050,3.570,399,402,376,418,416,2025-05-28T17:30:07.260992
28054,-0.7715,0.1625,0.5827,-1.400,-5.740,2.695,347,386,379,403,405,2025-05-28T17:30:07.260992
28055,-0.7598,0.1698,0.5934,-1.680,-2.800,2.415,395,332,338,402,398,2025-05-28T17:30:07.260992
28056,-0.7632,0.1762,0.6051,-1.925,0.805,2.940,393,384,371,388,387,2025-05-28T17:30:07.260992
28057,-0.7925,0.1615,0.6110,-2.100,1.785,3.255,423,391,365,386,390,2025-05-28T17:30:07.456536
28058,-0.8174,0.1630,0.6090,-1.890,-0.490,3.570,428,368,386,348,384,2025-05-28T17:30:07.456536
28059,-0.8072,0.1659,0.5949,-2.275,-1.925,3.430,410,353,383,330,346,2025-05-28T17:30:07.456536
28060,-0.7979,0.1615,0.5724,-2.030,-0.945,2.485,413,392,352,346,381,2025-05-28T17:30:07.456536
28061,-0.7803,0.1728,0.5705,-1.680,1.260,1.820,411,394,375,378,410,2025-05-28T17:30:07.456536
28062,-0.7901,0.1742,0.5778,-1.610,2.800,1.610,432,378,390,387,407,2025-05-28T17:30:07.456536
28063,-0.8003,0.1791,0.5675,-1.750,2.870,0.910,419,395,377,380,407,2025-05-28T17:30:07.456536
28064,-0.8047,0.1835,0.5632,-1.715,3.500,-0.035,431,389,369,390,394,2025-05-28T17:30:07.456536
28065,-0.8169,0.1845,0.5656,-1.610,3.780,-0.490,441,416,342,391,404,2025-05-28T17:30:07.456536
28066,-0.8233,0.1762,0.5724,-0.875,2.100,-0.805,406,361,358,400,406,2025-05-28T17:30:07.456536
28067,-0.8184,0.1762,0.5900,0.210,-0.280,-1.085,400,345,372,419,410,2025-05-28T17:30:07.456536
28068,-0.8101,0.1806,0.6051,0.490,-2.135,-0.840,439,385,370,427,414,2025-05-28T17:30:07.456536
28069,-0.7876,0.1815,0.6007,0.735,-2.030,-0.980,392,398,339,416,357,2025-05-28T17:30:07.456536
28070,-0.7774,0.1869,0.6037,0.490,1.365,-1.470,418,420,352,403,395,2025-05-28T17:30:07.456536
28071,-0.7662,0.1791,0.5978,0.140,5.915,-1.820,411,395,365,415,378,2025-05-28T17:30:07.456536
28072,-0.7579,0.1732,0.5905,-0.175,10.885,-2.380,368,376,381,395,397,2025-05-28T17:30:07.456536
28073,-0.7603,0.1679,0.5939,-0.245,15.015,-2.800,392,410,392,418,410,2025-05-28T17:30:07.456536
28074,-0.7686,0.1649,0.6100,-0.210,17.185,-2.625,432,412,356,399,347,2025-05-28T17:30:07.706801
28075,-0.7803,0.1474,0.6207,1.680,19.285,-3.080,431,343,360,398,344,2025-05-28T17:30:07.706801
28076,-0.7979,0.1606,0.6115,4.200,21.560,-3.325,358,390,384,420,349,2025-05-28T17:30:07.706801
28077,-0.8213,0.1796,0.5861,4.900,21.525,-3.780,387,393,382,360,387,2025-05-28T17:30:07.706801
28078,-0.8623,0.1923,0.5500,4.620,18.340,-7.000,401,426,379,396,390,2025-05-28T17:30:07.706801
28079,-0.8779,0.1791,0.4953,4.935,13.895,-4.305,400,304,370,417,384,2025-05-28T17:30:07.706801
28080,-0.8940,0.1825,0.4704,6.090,7.805,-2.100,372,336,374,421,400,2025-05-28T17:30:07.706801
28081,-0.9072,0.1737,0.4773,6.580,1.855,-1.190,400,405,385,420,394,2025-05-28T17:30:07.706801
28082,-0.9057,0.1718,0.4948,6.335,-4.165,-0.595,383,424,345,414,414,2025-05-28T17:30:07.706801
28083,-0.9145,0.1669,0.5266,6.265,-10.780,0.840,419,428,336,421,386,2025-05-28T17:30:07.706801
28084,-0.9311,0.1571,0.5568,7.105,-17.395,2.415,415,418,367,415,399,2025-05-28T17:30:07.706801
28085,-0.9252,0.1454,0.5685,8.785,-26.040,3.395,411,426,385,415,390,2025-05-28T17:30:07.706801
28086,-0.8852,0.1410,0.5758,10.185,-31.850,3.640,395,423,379,388,399,2025-05-28T17:30:07.706801
28087,-0.8208,0.1488,0.5714,11.725,-32.410,4.130,428,429,374,394,351,2025-05-28T17:30:07.706801
28088,-0.7774,0.1454,0.5768,13.300,-27.265,4.445,404,301,373,401,382,2025-05-28T17:30:07.706801
28089,-0.7515,0.1469,0.5758,13.405,-20.825,4.130,368,397,383,405,400,2025-05-28T17:30:07.706801
28090,-0.7808,0.1410,0.5641,13.125,-16.800,4.305,358,385,345,389,347,2025-05-28T17:30:07.901713
28091,-0.7159,0.1249,0.5461,14.560,-8.400,2.450,411,418,374,408,380,2025-05-28T17:30:07.901713
28092,-0.7559,0.1898,0.5885,17.080,-2.940,2.100,416,436,372,410,383,2025-05-28T17:30:07.901713
28093,-0.7340,0.1244,0.5768,17.360,4.200,3.990,417,415,375,411,401,2025-05-28T17:30:07.901713
28094,-0.8037,0.1088,0.5583,19.425,5.040,5.495,393,345,372,424,408,2025-05-28T17:30:07.901713
28095,-0.9511,-0.0181,0.5558,32.585,-2.275,2.450,424,385,375,415,395,2025-05-28T17:30:07.901713
28096,-0.9521,0.1537,0.7335,41.860,-10.185,-2.835,425,396,371,415,345,2025-05-28T17:30:07.901713
28097,-0.8257,0.1972,0.7154,41.510,-21.910,-2.380,415,398,345,415,387,2025-05-28T17:30:07.901713
28098,-0.9667,0.1147,0.7149,44.520,-38.640,-4.515,425,399,369,403,403,2025-05-28T17:30:07.901713
28099,-0.8301,0.1796,0.6446,53.060,-51.870,-9.415,426,404,372,417,402,2025-05-28T17:30:07.901713
28100,-0.8013,0.2328,0.6359,44.800,-58.730,-13.090,415,340,389,409,411,2025-05-28T17:30:07.901713
28101,-0.7476,0.2640,0.6183,52.045,-58.555,-16.485,424,363,379,386,408,2025-05-28T17:30:07.901713
28102,-0.7061,0.2826,0.6105,51.800,-56.000,-19.740,414,412,387,383,391,2025-05-28T17:30:07.901713
28103,-0.6769,0.3021,0.6173,47.565,-46.235,-21.560,349,401,380,391,396,2025-05-28T17:30:07.901713
28104,-0.6510,0.3045,0.6246,44.415,-35.840,-22.715,365,427,379,395,388,2025-05-28T17:30:07.901713
28105,-0.6437,0.2835,0.6237,42.560,-23.485,-22.820,413,428,342,347,379,2025-05-28T17:30:07.901713
28106,-0.6427,0.2869,0.6354,40.880,-4.620,-20.930,412,416,374,381,396,2025-05-28T17:30:07.901713
28107,-0.6720,0.2855,0.6549,38.290,12.075,-19.320,415,348,342,403,396,2025-05-28T17:30:07.901713
28108,-0.7188,0.2957,0.6466,34.335,22.505,-16.730,428,358,365,400,368,2025-05-28T17:30:07.901713
28109,-0.7681,0.2811,0.6290,30.590,30.240,-14.700,436,415,368,389,373,2025-05-28T17:30:07.901713
28110,-0.8125,0.2835,0.6329,28.945,32.445,-11.900,421,414,376,396,359,2025-05-28T17:30:08.078411
28111,-0.8520,0.2708,0.6183,26.425,30.310,-8.960,416,428,374,348,393,2025-05-28T17:30:08.078411
28112,-0.8906,0.2674,0.6105,25.305,23.660,-6.755,349,423,378,388,344,2025-05-28T17:30:08.078411
28113,-0.9145,0.2611,0.6066,24.675,14.315,-5.390,407,409,376,407,383,2025-05-28T17:30:08.078411
28114,-0.9174,0.2635,0.5827,24.010,6.160,-4.130,395,418,387,386,385,2025-05-28T17:30:08.078411
28115,-0.9096,0.2664,0.5641,24.430,-4.270,-3.395,396,362,390,417,377,2025-05-28T17:30:08.078411
28116,-0.8921,0.2694,0.5475,24.535,-13.090,-3.255,415,408,385,396,387,2025-05-28T17:30:08.078411
28117,-0.8555,0.2743,0.5305,24.150,-18.725,-2.940,401,422,379,408,388,2025-05-28T17:30:08.078411
28118,-0.8262,0.2791,0.5275,22.855,-20.230,-3.115,385,428,394,399,384,2025-05-28T17:30:08.078411
28119,-0.7969,0.2826,0.5178,20.790,-18.620,-3.325,399,400,389,413,404,2025-05-28T17:30:08.078411
28120,-0.7725,0.2796,0.5075,18.305,-15.995,-2.975,383,411,377,409,394,2025-05-28T17:30:08.078411
28121,-0.7613,0.2728,0.4973,15.890,-11.550,-2.590,425,416,383,419,396,2025-05-28T17:30:08.078411
28122,-0.7564,0.2708,0.4904,13.545,-6.650,-1.995,437,406,389,406,383,2025-05-28T17:30:08.079426
28123,-0.7598,0.2718,0.4890,11.305,-2.660,-2.065,415,421,388,378,385,2025-05-28T17:30:08.079426
28124,-0.7618,0.2650,0.4792,9.765,0.035,-2.485,427,421,345,400,389,2025-05-28T17:30:08.079426
28125,-0.7657,0.2630,0.4714,8.715,1.190,-2.625,436,430,338,356,354,2025-05-28T17:30:08.279646
28126,-0.7652,0.2635,0.4743,7.735,2.415,-3.395,431,400,348,356,384,2025-05-28T17:30:08.279646
28127,-0.7647,0.2635,0.4719,5.705,3.640,-4.165,440,414,344,397,401,2025-05-28T17:30:08.279646
28128,-0.7593,0.2625,0.4714,3.920,4.725,-5.320,425,342,355,406,399,2025-05-28T17:30:08.279646
28129,-0.7662,0.2630,0.4651,2.555,6.125,-6.545,406,386,367,405,391,2025-05-28T17:30:08.279646
28130,-0.7662,0.2606,0.4680,0.770,7.665,-8.190,424,403,366,391,406,2025-05-28T17:30:08.279646
28131,-0.7681,0.2586,0.4680,-0.945,8.645,-9.485,311,416,372,373,408,2025-05-28T17:30:08.279646
28132,-0.7715,0.2586,0.4724,-3.010,9.660,-10.220,412,398,380,353,410,2025-05-28T17:30:08.279646
28133,-0.7754,0.2528,0.4719,-4.900,10.465,-10.955,367,410,372,405,417,2025-05-28T17:30:08.279646
28134,-0.7862,0.2484,0.4714,-5.740,11.025,-12.040,415,420,349,418,407,2025-05-28T17:30:08.279646
28135,-0.7920,0.2464,0.4826,-6.510,11.515,-13.090,436,377,376,423,392,2025-05-28T17:30:08.279646
28136,-0.7969,0.2489,0.4919,-7.245,11.935,-13.860,429,406,385,403,385,2025-05-28T17:30:08.280656
28137,-0.8047,0.2479,0.4982,-7.455,12.495,-14.525,411,342,378,396,401,2025-05-28T17:30:08.280656
28138,-0.8037,0.2499,0.5129,-7.875,13.125,-15.085,419,415,381,385,386,2025-05-28T17:30:08.280656
28139,-0.8164,0.2479,0.5109,-8.155,14.385,-15.260,417,388,372,386,394,2025-05-28T17:30:08.280656
28140,-0.8159,0.2430,0.5153,-8.295,15.610,-15.785,405,428,380,420,404,2025-05-28T17:30:08.280656
