SeqNum,AccX,AccY,AccZ,GyroX,GyroY,GyroZ,Flex,Force1,Force2,Force3,Force4,TimestampReception
17227,-0.0659,-0.3884,1.0370,-10.780,-17.500,24.395,394,425,371,388,394,2025-05-28T17:21:44.169743
17228,-0.3772,0.5514,0.7608,-1.400,-4.130,-0.490,462,413,310,375,382,2025-05-28T17:21:44.169743
17229,-0.3772,0.5573,0.7584,-1.400,-3.080,-0.875,429,414,357,408,361,2025-05-28T17:21:44.169743
17230,-0.3870,0.5553,0.7549,-1.750,-1.855,-1.330,445,414,372,356,371,2025-05-28T17:21:44.169743
17231,-0.3880,0.5534,0.7540,-1.575,-1.610,-1.365,418,404,382,402,346,2025-05-28T17:21:44.169743
17232,-0.3919,0.5573,0.7637,-1.575,-1.960,-1.225,434,426,394,404,352,2025-05-28T17:21:44.169743
17233,-0.3953,0.5549,0.7676,-1.890,-2.555,-0.840,423,408,381,414,384,2025-05-28T17:21:44.169743
17234,-0.3943,0.5544,0.7730,-2.275,-4.130,-0.630,426,439,388,387,392,2025-05-28T17:21:44.169743
17235,-0.3880,0.5514,0.7706,-2.345,-5.740,0.105,441,421,390,362,406,2025-05-28T17:21:44.169743
17236,-0.3831,0.5534,0.7691,-2.135,-6.020,0.420,380,426,390,401,397,2025-05-28T17:21:44.170667
17237,-0.3855,0.5461,0.7657,-1.925,-5.670,0.035,417,425,381,347,382,2025-05-28T17:21:44.170667
17238,-0.3821,0.5529,0.7608,-1.575,-5.180,-0.490,438,407,339,368,342,2025-05-28T17:21:44.170667
17239,-0.3748,0.5558,0.7603,-1.575,-4.095,-0.280,420,420,322,355,369,2025-05-28T17:21:44.170667
17240,-0.3816,0.5563,0.7588,-1.610,-2.695,-0.105,418,431,344,383,375,2025-05-28T17:21:44.170667
17241,-0.3884,0.5568,0.7642,-1.645,-2.555,0.140,441,346,356,385,382,2025-05-28T17:21:44.170667
17242,-0.3919,0.5578,0.7657,-1.925,-2.975,0.280,438,422,367,383,386,2025-05-28T17:21:44.170667
17243,-0.3924,0.5553,0.7666,-2.100,-3.710,0.700,366,419,368,390,385,2025-05-28T17:21:44.170667
17244,-0.3943,0.5500,0.7657,-1.890,-4.865,0.980,352,431,380,393,402,2025-05-28T17:21:44.170667
17245,-0.3880,0.5466,0.7662,-1.610,-6.230,1.155,363,424,380,393,385,2025-05-28T17:21:44.170667
17246,-0.3845,0.5373,0.7647,-1.330,-7.525,1.400,416,425,376,392,398,2025-05-28T17:21:44.170667
17247,-0.3767,0.5431,0.7627,-0.735,-7.945,1.470,380,407,368,394,354,2025-05-28T17:21:44.170667
17248,-0.3733,0.5422,0.7603,-0.630,-7.595,1.295,379,404,338,391,389,2025-05-28T17:21:44.517779
17249,-0.3636,0.5456,0.7618,-0.840,-6.405,0.840,427,387,367,396,348,2025-05-28T17:21:44.517779
17250,-0.3597,0.5470,0.7637,-1.575,-4.830,0.280,426,403,367,388,384,2025-05-28T17:21:44.517779
17251,-0.3611,0.5431,0.7652,-2.135,-3.080,0.175,392,417,363,397,382,2025-05-28T17:21:44.517779
17252,-0.3680,0.5378,0.7691,-2.660,-2.520,-0.140,424,420,384,401,398,2025-05-28T17:21:44.517779
17253,-0.3777,0.5295,0.7735,-2.695,-3.115,-0.385,437,398,390,414,392,2025-05-28T17:21:44.517779
17254,-0.3870,0.5266,0.7720,-2.275,-4.410,-0.665,431,415,346,412,363,2025-05-28T17:21:44.517779
17255,-0.3884,0.5178,0.7735,-1.505,-5.635,-1.120,425,424,335,406,381,2025-05-28T17:21:44.517779
17256,-0.3802,0.5226,0.7745,-0.735,-6.475,-1.400,436,367,364,379,394,2025-05-28T17:21:44.517779
17257,-0.3772,0.5207,0.7769,-0.140,-6.615,-1.435,419,401,376,354,388,2025-05-28T17:21:44.517779
17258,-0.3709,0.5266,0.7798,-0.175,-6.125,-1.295,417,412,387,380,393,2025-05-28T17:21:44.517779
17259,-0.3665,0.5314,0.7779,-0.245,-5.215,-1.435,429,402,400,392,415,2025-05-28T17:21:44.517779
17260,-0.3675,0.5324,0.7749,-0.490,-3.955,-1.610,424,367,393,402,402,2025-05-28T17:21:44.517779
17261,-0.3675,0.5344,0.7764,-0.490,-3.500,-1.995,415,405,384,414,366,2025-05-28T17:21:44.517779
17262,-0.3719,0.5344,0.7730,-0.035,-3.255,-2.415,379,416,345,402,400,2025-05-28T17:21:44.517779
17263,-0.3792,0.5305,0.7696,0.630,-3.395,-2.940,431,399,363,409,390,2025-05-28T17:21:44.517779
17264,-0.3758,0.5378,0.7730,1.470,-3.955,-3.500,415,412,378,415,405,2025-05-28T17:21:44.517779
17265,-0.3792,0.5363,0.7720,1.960,-4.690,-3.640,424,426,394,383,406,2025-05-28T17:21:44.517779
17266,-0.3787,0.5368,0.7759,2.310,-5.425,-3.570,407,349,387,406,410,2025-05-28T17:21:44.517779
17267,-0.3738,0.5407,0.7769,2.450,-5.985,-3.395,441,412,352,361,392,2025-05-28T17:21:44.620439
17268,-0.3738,0.5431,0.7720,2.100,-5.740,-3.395,425,396,332,380,389,2025-05-28T17:21:44.620439
17269,-0.3723,0.5451,0.7715,1.715,-5.145,-3.325,437,386,354,364,404,2025-05-28T17:21:44.620439
17270,-0.3738,0.5485,0.7759,1.470,-4.865,-3.290,438,427,368,408,399,2025-05-28T17:21:44.620439
17271,-0.3699,0.5495,0.7759,1.050,-4.760,-3.185,437,404,367,393,406,2025-05-28T17:21:44.620439
17272,-0.3738,0.5451,0.7779,0.735,-4.760,-2.905,428,401,374,410,407,2025-05-28T17:21:44.620439
17273,-0.3753,0.5441,0.7749,0.945,-4.970,-2.905,420,428,372,400,356,2025-05-28T17:21:44.620439
17274,-0.3753,0.5446,0.7798,1.050,-5.355,-3.010,415,405,389,383,375,2025-05-28T17:21:44.620439
17275,-0.3753,0.5490,0.7837,0.945,-5.845,-3.115,420,306,353,397,401,2025-05-28T17:21:44.620439
17276,-0.3743,0.5441,0.7867,0.665,-6.755,-3.045,356,405,369,412,349,2025-05-28T17:21:44.620439
17277,-0.3748,0.5397,0.7871,0.525,-7.805,-3.500,409,422,340,344,331,2025-05-28T17:21:44.620439
17278,-0.3738,0.5392,0.7862,0.665,-8.295,-3.745,420,369,357,399,375,2025-05-28T17:21:44.620439
17279,-0.3616,0.5422,0.7842,0.875,-8.155,-3.815,426,395,364,414,393,2025-05-28T17:21:44.621437
17280,-0.3562,0.5461,0.7823,1.120,-7.245,-3.885,441,386,370,422,415,2025-05-28T17:21:44.621437
17281,-0.3572,0.5475,0.7793,1.015,-5.985,-3.885,430,426,373,403,397,2025-05-28T17:21:44.621437
17282,-0.3597,0.5470,0.7847,0.910,-4.830,-3.780,414,415,383,402,392,2025-05-28T17:21:44.621437
17283,-0.3719,0.5466,0.7867,0.630,-4.550,-3.710,316,372,387,410,389,2025-05-28T17:21:44.621437
17284,-0.3802,0.5422,0.7871,0.455,-5.040,-3.640,422,395,377,391,396,2025-05-28T17:21:44.621437
17285,-0.3821,0.5417,0.7823,0.665,-6.055,-3.360,398,368,348,346,402,2025-05-28T17:21:44.621437
17286,-0.3772,0.5407,0.7779,1.015,-6.650,-3.010,405,392,374,336,399,2025-05-28T17:21:44.621437
17287,-0.3743,0.5422,0.7745,1.645,-6.860,-2.765,426,418,371,367,382,2025-05-28T17:21:44.796718
17288,-0.3748,0.5446,0.7720,2.135,-6.685,-2.625,412,389,373,398,394,2025-05-28T17:21:44.796718
17289,-0.3738,0.5490,0.7764,2.100,-6.160,-2.660,432,392,343,389,393,2025-05-28T17:21:44.796718
17290,-0.3699,0.5529,0.7725,1.890,-5.320,-2.765,424,348,367,399,396,2025-05-28T17:21:44.796718
17291,-0.3714,0.5510,0.7715,1.575,-4.340,-2.765,391,388,382,352,351,2025-05-28T17:21:44.796718
17292,-0.3728,0.5456,0.7725,1.470,-3.570,-2.485,419,420,381,377,383,2025-05-28T17:21:44.796718
17293,-0.3733,0.5427,0.7779,1.400,-3.360,-1.995,417,402,393,395,380,2025-05-28T17:21:44.796718
17294,-0.3738,0.5397,0.7730,1.435,-3.500,-1.505,391,421,348,397,388,2025-05-28T17:21:44.796718
17295,-0.3728,0.5451,0.7715,1.610,-3.780,-1.155,437,421,359,415,384,2025-05-28T17:21:44.796718
17296,-0.3699,0.5451,0.7730,1.575,-4.095,-0.805,430,367,363,412,343,2025-05-28T17:21:44.796718
17297,-0.3684,0.5480,0.7749,1.295,-4.585,-0.840,436,399,375,415,371,2025-05-28T17:21:44.796718
17298,-0.3655,0.5485,0.7740,0.805,-5.320,-1.260,425,385,386,402,341,2025-05-28T17:21:44.796718
17299,-0.3636,0.5475,0.7696,0.350,-5.705,-1.610,360,339,380,396,380,2025-05-28T17:21:44.796718
17300,-0.3660,0.5456,0.7710,-0.175,-5.845,-1.785,407,389,385,390,384,2025-05-28T17:21:44.796718
17301,-0.3587,0.5412,0.7657,-0.665,-5.845,-2.345,421,419,390,396,388,2025-05-28T17:21:44.796718
17302,-0.3543,0.5427,0.7657,-0.805,-5.495,-2.660,423,412,382,307,392,2025-05-28T17:21:45.186210
17303,-0.3562,0.5392,0.7686,-1.365,-4.970,-3.115,439,416,350,277,402,2025-05-28T17:21:45.186210
17304,-0.3587,0.5363,0.7740,-1.785,-4.655,-3.710,396,426,363,361,409,2025-05-28T17:21:45.186210
17305,-0.3650,0.5314,0.7754,-2.170,-4.970,-4.025,429,400,371,397,357,2025-05-28T17:21:45.200253
17306,-0.3660,0.5270,0.7788,-2.485,-5.180,-4.200,359,417,380,392,373,2025-05-28T17:21:45.200557
17307,-0.3675,0.5280,0.7798,-2.555,-5.075,-4.095,413,403,372,415,387,2025-05-28T17:21:45.200557
17308,-0.3670,0.5329,0.7818,-2.765,-5.005,-4.340,413,406,385,397,393,2025-05-28T17:21:45.200557
17309,-0.3709,0.5339,0.7832,-2.660,-5.005,-4.375,352,299,381,342,396,2025-05-28T17:21:45.200557
17310,-0.3762,0.5309,0.7828,-2.275,-5.075,-4.340,421,385,377,375,410,2025-05-28T17:21:45.200557
17311,-0.3767,0.5324,0.7828,-1.575,-5.425,-4.550,426,418,389,411,405,2025-05-28T17:21:45.200557
17312,-0.3738,0.5348,0.7828,-0.980,-5.565,-4.585,441,394,394,420,403,2025-05-28T17:21:45.201538
17313,-0.3728,0.5383,0.7842,-0.595,-5.215,-4.550,409,393,378,416,365,2025-05-28T17:21:45.201538
17314,-0.3719,0.5373,0.7857,-0.420,-4.655,-4.410,421,418,378,377,371,2025-05-28T17:21:45.201538
17315,-0.3762,0.5373,0.7852,-0.105,-4.235,-3.955,429,408,369,392,342,2025-05-28T17:21:45.201538
17316,-0.3787,0.5407,0.7871,0.070,-3.815,-3.605,431,419,371,398,369,2025-05-28T17:21:45.201538
17317,-0.3797,0.5422,0.7818,0.455,-3.535,-3.115,424,404,373,406,393,2025-05-28T17:21:45.201538
17318,-0.3806,0.5490,0.7774,0.805,-3.115,-2.380,408,395,373,405,381,2025-05-28T17:21:45.201538
17319,-0.3802,0.5524,0.7759,0.840,-2.765,-1.820,415,409,336,410,401,2025-05-28T17:21:45.201538
17320,-0.3880,0.5519,0.7769,0.770,-2.590,-1.365,423,349,360,313,402,2025-05-28T17:21:45.254222
17321,-0.3899,0.5519,0.7798,0.665,-2.730,-1.190,434,386,367,373,401,2025-05-28T17:21:45.254222
17322,-0.3914,0.5480,0.7798,0.455,-3.255,-1.120,431,420,384,339,389,2025-05-28T17:21:45.254222
17323,-0.3943,0.5451,0.7749,0.350,-3.815,-1.015,436,304,392,372,358,2025-05-28T17:21:45.254222
17324,-0.3894,0.5402,0.7730,0.350,-4.340,-0.525,418,386,365,334,378,2025-05-28T17:21:45.254222
17325,-0.3831,0.5392,0.7769,0.280,-4.480,0.140,424,425,372,400,405,2025-05-28T17:21:45.254222
17326,-0.3782,0.5378,0.7759,0.070,-4.235,0.875,407,399,375,401,409,2025-05-28T17:21:45.254222
17327,-0.3777,0.5353,0.7779,-0.210,-3.920,0.945,416,430,376,395,391,2025-05-28T17:21:45.254222
17328,-0.3753,0.5353,0.7798,-0.805,-3.360,1.015,425,425,377,400,394,2025-05-28T17:21:45.254222
17329,-0.3772,0.5314,0.7803,-1.470,-3.010,0.840,444,404,374,396,384,2025-05-28T17:21:45.254222
17330,-0.3777,0.5339,0.7788,-1.890,-2.870,0.910,364,421,372,412,362,2025-05-28T17:21:45.254222
17331,-0.3792,0.5319,0.7823,-2.240,-3.185,1.015,428,424,347,408,389,2025-05-28T17:21:45.254222
17332,-0.3772,0.5309,0.7862,-2.450,-3.780,1.330,406,434,372,356,404,2025-05-28T17:21:45.254222
17333,-0.3772,0.5275,0.7832,-2.275,-4.130,1.470,433,412,353,375,406,2025-05-28T17:21:45.254222
17334,-0.3772,0.5270,0.7828,-1.855,-3.815,1.085,393,406,374,363,388,2025-05-28T17:21:45.254222
17335,-0.3758,0.5280,0.7862,-1.400,-3.710,0.315,427,429,380,396,352,2025-05-28T17:21:45.254222
17336,-0.3758,0.5290,0.7906,-0.910,-3.675,0.070,411,425,383,396,330,2025-05-28T17:21:45.254222
17337,-0.3748,0.5295,0.7940,-0.735,-3.675,0.000,401,424,375,384,347,2025-05-28T17:21:45.254222
17338,-0.3728,0.5266,0.7920,-0.490,-3.535,0.420,404,413,381,402,379,2025-05-28T17:21:45.254222
17339,-0.3762,0.5251,0.7906,0.000,-3.290,0.595,427,421,374,424,404,2025-05-28T17:21:45.254222
17340,-0.3782,0.5226,0.7945,0.420,-2.765,0.560,374,418,354,406,387,2025-05-28T17:21:45.805718
17341,-0.3806,0.5192,0.7881,0.665,-2.800,0.455,396,425,372,391,383,2025-05-28T17:21:45.805718
17342,-0.3767,0.5231,0.7837,1.330,-2.730,0.525,428,390,381,400,404,2025-05-28T17:21:45.805718
17343,-0.3762,0.5256,0.7779,1.540,-2.345,0.525,423,411,376,420,403,2025-05-28T17:21:45.805718
17344,-0.3748,0.5305,0.7769,1.645,-1.855,0.385,431,423,371,398,409,2025-05-28T17:21:45.805718
17345,-0.3719,0.5363,0.7725,1.610,-1.435,0.420,416,431,373,348,359,2025-05-28T17:21:45.805718
17346,-0.3714,0.5436,0.7706,0.875,-0.560,0.385,435,404,391,387,335,2025-05-28T17:21:45.805718
17347,-0.3767,0.5436,0.7676,-0.105,0.070,0.245,415,396,398,401,394,2025-05-28T17:21:45.805718
17348,-0.3797,0.5441,0.7706,-0.875,-0.035,-0.105,434,424,350,355,342,2025-05-28T17:21:45.805718
17349,-0.3924,0.5417,0.7764,-1.855,-0.910,-0.315,382,405,358,375,381,2025-05-28T17:21:45.806715
17350,-0.3919,0.5373,0.7754,-2.485,-2.380,-0.560,415,424,302,397,398,2025-05-28T17:21:45.806715
17351,-0.3875,0.5339,0.7730,-2.555,-4.130,-0.490,423,416,356,354,389,2025-05-28T17:21:45.806715
17352,-0.3816,0.5309,0.7745,-2.135,-5.285,0.105,408,402,338,387,402,2025-05-28T17:21:45.806715
17353,-0.3787,0.5275,0.7793,-1.680,-5.425,0.840,422,426,360,407,401,2025-05-28T17:21:45.806715
17354,-0.4997,0.5363,0.7823,-1.575,-5.075,1.190,435,437,363,387,406,2025-05-28T17:21:45.806715
17355,-0.3758,0.5397,0.7881,-1.925,-4.200,1.190,422,429,376,394,396,2025-05-28T17:21:45.806715
17356,-0.3743,0.5368,0.7881,-2.485,-3.045,1.225,424,384,385,400,391,2025-05-28T17:21:45.806715
17357,-0.3821,0.5353,0.7867,-2.625,-2.205,0.980,425,389,376,404,354,2025-05-28T17:21:45.806715
17358,-0.3850,0.5305,0.7852,-2.625,-2.030,0.735,422,421,380,416,395,2025-05-28T17:21:45.806715
17359,-0.3865,0.5256,0.7852,-2.100,-2.555,0.805,416,402,382,432,369,2025-05-28T17:21:45.806715
17360,-0.3860,0.5295,0.7813,-1.680,-3.325,0.630,431,410,383,415,332,2025-05-28T17:21:45.806715
17361,-0.3865,0.5251,0.7803,-1.085,-3.850,0.700,416,428,395,405,378,2025-05-28T17:21:45.806715
17362,-0.3836,0.5251,0.7793,-0.525,-3.710,0.875,424,352,384,373,396,2025-05-28T17:21:45.806715
17363,-0.3728,0.5309,0.7852,-0.175,-3.430,1.225,447,393,389,400,394,2025-05-28T17:21:45.806715
17364,-0.3728,0.5305,0.7823,-0.350,-2.485,1.505,438,409,386,416,360,2025-05-28T17:21:45.806715
17365,-0.3709,0.5305,0.7808,-0.525,-1.680,1.645,420,379,374,374,390,2025-05-28T17:21:45.806715
17366,-0.3728,0.5314,0.7803,-0.735,-1.190,1.715,396,370,349,376,401,2025-05-28T17:21:45.806715
17367,-0.3762,0.5270,0.7798,-0.805,-1.155,1.820,414,416,364,409,403,2025-05-28T17:21:45.806715
17368,-0.3806,0.5266,0.7745,-0.840,-1.470,1.715,443,418,374,411,408,2025-05-28T17:21:45.806715
17369,-0.3884,0.5256,0.7754,-0.805,-2.310,1.330,422,424,342,420,352,2025-05-28T17:21:45.806715
17370,-0.3841,0.5226,0.7745,-0.595,-3.185,0.665,438,423,362,401,386,2025-05-28T17:21:45.807710
17371,-0.3826,0.5261,0.7769,-0.560,-3.885,0.560,445,424,341,404,369,2025-05-28T17:21:45.807710
17372,-0.3762,0.5266,0.7764,-0.770,-4.235,0.455,430,424,370,397,372,2025-05-28T17:21:45.807902
17373,-0.3699,0.5275,0.7793,-0.945,-4.095,1.050,393,424,387,388,398,2025-05-28T17:21:45.807902
17374,-0.3670,0.5285,0.7808,-1.225,-3.430,1.505,407,409,376,377,392,2025-05-28T17:21:45.807902
17375,-0.3728,0.5226,0.7828,-1.470,-2.765,1.680,433,411,374,349,403,2025-05-28T17:21:45.807902
17376,-0.3694,0.5217,0.7832,-1.575,-2.345,1.995,431,416,344,398,414,2025-05-28T17:21:45.807902
17377,-0.3748,0.5197,0.7876,-1.715,-2.030,1.820,418,397,322,365,410,2025-05-28T17:21:45.807902
17378,-0.3728,0.5202,0.7867,-1.855,-1.645,1.575,442,428,357,392,396,2025-05-28T17:21:45.807902
17379,-0.3758,0.5168,0.7930,-1.540,-1.925,1.330,415,416,345,377,394,2025-05-28T17:21:45.807902
17380,-0.3831,0.5163,0.7920,-1.400,-2.345,0.770,418,404,367,388,391,2025-05-28T17:21:45.807902
17381,-0.3816,0.5144,0.7954,-1.190,-2.765,0.350,401,401,373,381,397,2025-05-28T17:21:45.807902
17382,-0.3870,0.5139,0.7959,-0.735,-3.220,0.175,406,392,383,344,399,2025-05-28T17:21:46.054547
17383,-0.3762,0.5168,0.7959,-0.315,-3.780,0.210,422,402,381,389,403,2025-05-28T17:21:46.054547
17384,-0.3762,0.5158,0.7925,0.035,-3.850,0.245,410,415,382,371,390,2025-05-28T17:21:46.054547
17385,-0.3714,0.5187,0.7915,0.315,-3.255,0.245,434,429,393,407,397,2025-05-28T17:21:46.054547
17386,-0.3709,0.5231,0.7915,0.315,-2.485,0.175,433,349,374,403,402,2025-05-28T17:21:46.054547
17387,-0.3772,0.5231,0.7935,0.035,-2.065,-0.035,424,384,368,351,396,2025-05-28T17:21:46.054547
17388,-0.3782,0.5231,0.7901,-0.315,-2.240,0.035,427,383,371,384,391,2025-05-28T17:21:46.054547
17389,-0.3836,0.5217,0.7891,-0.315,-2.870,0.175,355,418,338,388,346,2025-05-28T17:21:46.054547
17390,-0.3816,0.5197,0.7891,0.035,-3.850,0.420,370,409,361,403,382,2025-05-28T17:21:46.054547
17391,-0.3806,0.5236,0.7842,0.490,-4.515,0.420,396,379,375,407,393,2025-05-28T17:21:46.054547
17392,-0.3723,0.5261,0.7837,0.875,-4.480,0.175,349,399,365,396,392,2025-05-28T17:21:46.054547
17393,-0.3660,0.5305,0.7837,1.120,-3.885,0.070,429,409,368,414,355,2025-05-28T17:21:46.054547
17394,-0.3660,0.5339,0.7852,0.805,-3.080,-0.140,432,410,340,409,384,2025-05-28T17:21:46.054547
17395,-0.3665,0.5300,0.7842,0.595,-2.485,-0.280,411,384,366,421,387,2025-05-28T17:21:46.054547
17396,-0.3719,0.5280,0.7823,0.350,-2.240,-0.490,405,409,378,413,399,2025-05-28T17:21:46.054547
17397,-0.3762,0.5251,0.7818,0.455,-2.625,-0.595,434,424,388,413,399,2025-05-28T17:21:46.169324
17398,-0.3767,0.5256,0.7828,0.525,-3.395,-0.735,428,369,386,356,410,2025-05-28T17:21:46.169324
17399,-0.3728,0.5226,0.7793,0.595,-4.235,-0.700,435,406,310,381,397,2025-05-28T17:21:46.169324
17400,-0.3714,0.5280,0.7793,0.595,-4.550,-0.735,437,386,318,383,409,2025-05-28T17:21:46.169324
17401,-0.3655,0.5266,0.7808,0.490,-4.270,-0.945,428,404,280,385,389,2025-05-28T17:21:46.169324
17402,-0.3714,0.5275,0.7803,0.035,-3.710,-1.190,429,384,312,399,381,2025-05-28T17:21:46.169324
17403,-0.3670,0.5231,0.7793,-0.140,-3.360,-1.330,413,421,354,408,307,2025-05-28T17:21:46.169324
17404,-0.3665,0.5231,0.7798,-0.175,-3.010,-1.155,432,401,373,404,337,2025-05-28T17:21:46.169324
17405,-0.3753,0.5207,0.7774,-0.105,-2.800,-1.015,408,381,366,421,367,2025-05-28T17:21:46.169324
17406,-0.3782,0.5222,0.7832,0.070,-2.730,-1.155,409,419,375,399,391,2025-05-28T17:21:46.169324
17407,-0.3797,0.5222,0.7881,0.000,-2.660,-1.610,405,418,386,400,388,2025-05-28T17:21:46.169324
17408,-0.3806,0.5236,0.7906,-0.140,-2.380,-1.890,426,403,388,357,362,2025-05-28T17:21:46.169324
17409,-0.3802,0.5236,0.7901,-0.210,-2.170,-1.715,427,396,312,390,383,2025-05-28T17:21:46.169324
17410,-0.3782,0.5246,0.7915,-0.070,-2.065,-1.330,418,392,351,405,408,2025-05-28T17:21:46.169324
17411,-0.3797,0.5300,0.7979,-0.140,-2.065,-0.665,428,345,372,407,411,2025-05-28T17:21:46.169324
17412,-0.3806,0.5275,0.7954,-0.070,-2.240,-0.105,405,418,381,413,355,2025-05-28T17:21:46.169324
17413,-0.3806,0.5275,0.7950,0.245,-2.625,0.245,426,429,376,421,390,2025-05-28T17:21:46.169324
17414,-0.3826,0.5300,0.7940,0.630,-3.115,0.350,413,392,380,358,380,2025-05-28T17:21:46.169324
17415,-0.3792,0.5334,0.7935,0.910,-3.430,0.280,419,407,370,393,384,2025-05-28T17:21:46.169324
17416,-0.3772,0.5334,0.7891,1.155,-3.325,0.105,431,391,376,419,388,2025-05-28T17:21:46.169324
17417,-0.3762,0.5358,0.7886,1.260,-2.940,0.105,400,372,387,397,406,2025-05-28T17:21:46.420691
17418,-0.3753,0.5348,0.7891,1.295,-2.415,0.175,414,405,376,409,407,2025-05-28T17:21:46.420691
17419,-0.3758,0.5353,0.7886,1.190,-2.030,0.665,413,399,368,348,396,2025-05-28T17:21:46.420691
17420,-0.3777,0.5324,0.7862,1.260,-1.855,0.840,383,420,378,336,401,2025-05-28T17:21:46.420691
17421,-0.3806,0.5295,0.7832,1.540,-1.750,0.980,427,396,347,396,394,2025-05-28T17:21:46.420691
17422,-0.3811,0.5251,0.7788,1.890,-1.995,1.015,437,398,369,403,408,2025-05-28T17:21:46.420691
17423,-0.3889,0.5236,0.7837,2.170,-2.660,0.910,412,404,350,414,417,2025-05-28T17:21:46.420691
17424,-0.3855,0.5241,0.7852,2.380,-3.115,0.875,422,395,372,404,398,2025-05-28T17:21:46.420691
17425,-0.3875,0.5261,0.7837,2.450,-3.535,0.700,367,384,376,415,400,2025-05-28T17:21:46.420691
17426,-0.3802,0.5295,0.7779,2.625,-3.570,0.700,401,422,309,390,354,2025-05-28T17:21:46.420691
17427,-0.3782,0.5348,0.7769,2.485,-2.765,0.490,433,402,319,403,395,2025-05-28T17:21:46.577857
17428,-0.3821,0.5363,0.7793,2.205,-2.170,0.315,405,388,346,418,418,2025-05-28T17:21:46.577857
17429,-0.3811,0.5358,0.7788,1.645,-1.715,0.245,412,334,368,414,413,2025-05-28T17:21:46.577857
17430,-0.3811,0.5412,0.7779,1.050,-1.470,0.560,406,391,370,372,361,2025-05-28T17:21:46.577857
17431,-0.3836,0.5431,0.7784,0.420,-1.260,0.770,414,402,385,401,372,2025-05-28T17:21:46.577857
17432,-0.3850,0.5422,0.7808,0.140,-1.785,1.050,424,427,384,368,340,2025-05-28T17:21:46.577857
17433,-0.3845,0.5407,0.7798,0.385,-2.485,0.875,440,397,371,395,363,2025-05-28T17:21:46.577857
17434,-0.3875,0.5402,0.7788,0.630,-3.535,0.455,412,361,373,404,352,2025-05-28T17:21:46.577857
17435,-0.3855,0.5451,0.7774,1.225,-4.305,-0.210,411,386,378,401,379,2025-05-28T17:21:46.577857
17436,-0.3826,0.5470,0.7788,1.575,-4.865,-0.665,427,390,379,417,387,2025-05-28T17:21:46.577857
17437,-0.3753,0.5539,0.7793,1.610,-4.970,-0.875,409,416,353,397,400,2025-05-28T17:21:46.577857
17438,-0.3767,0.5485,0.7774,1.750,-4.760,-0.910,425,344,378,389,348,2025-05-28T17:21:46.667825
17439,-0.3855,0.5431,0.7769,1.890,-4.410,-1.120,419,386,375,381,390,2025-05-28T17:21:46.667825
17440,-0.3831,0.5397,0.7740,2.170,-4.270,-1.330,438,373,386,422,417,2025-05-28T17:21:46.667825
17441,-0.3875,0.5388,0.7666,2.450,-3.745,-1.365,429,414,355,396,410,2025-05-28T17:21:46.667825
17442,-0.3855,0.5368,0.7603,2.520,-3.290,-1.365,441,429,371,414,358,2025-05-28T17:21:46.667825
17443,-0.3841,0.5363,0.7535,2.345,-2.870,-1.435,438,434,378,408,403,2025-05-28T17:21:46.667825
17444,-0.3855,0.5353,0.7544,1.855,-2.380,-1.750,432,405,383,391,406,2025-05-28T17:21:46.667825
17445,-0.3884,0.5407,0.7569,1.330,-1.995,-2.030,434,410,384,397,399,2025-05-28T17:21:46.667825
17446,-0.3904,0.5412,0.7486,1.190,-2.030,-2.135,434,425,376,404,357,2025-05-28T17:21:46.667825
17447,-0.3894,0.5422,0.7315,1.715,-1.750,-2.380,409,404,383,418,371,2025-05-28T17:21:46.667825
17448,-0.3884,0.5451,0.7237,3.080,-0.595,-2.870,401,405,389,403,391,2025-05-28T17:21:46.667825
17449,-0.3928,0.5466,0.7300,4.340,0.980,-3.570,355,420,391,418,406,2025-05-28T17:21:46.667825
17450,-0.3919,0.5480,0.7359,4.865,1.330,-3.675,366,411,392,405,416,2025-05-28T17:21:46.667825
17451,-0.3958,0.5510,0.7462,4.550,1.295,-3.535,421,398,393,420,398,2025-05-28T17:21:46.667825
17452,-0.3938,0.5470,0.7535,3.430,1.435,-3.255,430,427,384,395,388,2025-05-28T17:21:46.667825
17453,-0.3972,0.5417,0.7501,2.135,1.610,-3.220,435,416,347,389,380,2025-05-28T17:21:46.667825
17454,-0.3894,0.5436,0.7476,0.840,2.170,-3.255,441,416,360,393,379,2025-05-28T17:21:46.667825
17455,-0.3870,0.5495,0.7549,-0.350,3.255,-3.430,416,422,379,391,394,2025-05-28T17:21:46.667825
17456,-0.3821,0.5514,0.7623,-2.100,4.200,-3.640,416,416,376,388,397,2025-05-28T17:21:46.885964
17457,-0.3782,0.5568,0.7740,-4.165,4.760,-3.815,404,378,386,389,403,2025-05-28T17:21:46.885964
17458,-0.3841,0.5573,0.7862,-6.615,5.180,-4.095,413,420,388,392,417,2025-05-28T17:21:46.885964
17459,-0.3919,0.5529,0.7906,-8.785,4.795,-4.690,414,438,313,388,317,2025-05-28T17:21:46.885964
17460,-0.3963,0.5505,0.7984,-9.765,3.465,-5.215,420,431,341,377,367,2025-05-28T17:21:46.885964
17461,-0.3958,0.5402,0.8028,-10.675,1.715,-4.970,431,396,290,384,389,2025-05-28T17:21:46.885964
17462,-0.3904,0.5368,0.8106,-10.640,-0.805,-4.270,403,408,344,413,406,2025-05-28T17:21:46.885964
17463,-0.3875,0.5280,0.8154,-10.500,-3.640,-3.360,420,404,371,399,411,2025-05-28T17:21:46.885964
17464,-0.3758,0.5256,0.8233,-10.115,-5.845,-2.380,421,397,363,415,405,2025-05-28T17:21:46.885964
17465,-0.3684,0.5226,0.8276,-9.590,-7.245,-1.715,404,419,377,418,420,2025-05-28T17:21:46.885964
17466,-0.3592,0.5290,0.8281,-8.890,-7.385,-1.365,390,413,381,405,356,2025-05-28T17:21:46.885964
17467,-0.3553,0.5285,0.8301,-8.295,-6.510,-1.330,402,428,346,401,383,2025-05-28T17:21:46.885964
17468,-0.3475,0.5280,0.8281,-7.945,-4.690,-1.820,423,391,355,392,397,2025-05-28T17:21:46.885964
17469,-0.3523,0.5241,0.8320,-7.525,-2.905,-2.240,428,393,363,396,391,2025-05-28T17:21:46.885964
17470,-0.3562,0.5202,0.8320,-7.245,-1.960,-2.205,405,417,370,396,410,2025-05-28T17:21:46.885964
17471,-0.3611,0.5153,0.8301,-6.965,-1.715,-1.855,391,341,377,413,414,2025-05-28T17:21:46.885964
17472,-0.3640,0.5070,0.8306,-6.615,-2.240,-0.700,424,391,389,408,364,2025-05-28T17:21:46.885964
17473,-0.3636,0.5041,0.8316,-6.090,-3.185,1.085,383,400,394,413,372,2025-05-28T17:21:46.885964
17474,-0.3645,0.5022,0.8272,-5.670,-4.585,2.765,412,351,377,416,349,2025-05-28T17:21:46.885964
17475,-0.3684,0.4987,0.8208,-5.215,-5.355,3.745,419,402,382,393,372,2025-05-28T17:21:46.885964
17476,-0.3645,0.5036,0.8106,-4.760,-6.020,4.375,417,414,389,390,402,2025-05-28T17:21:47.085775
17477,-0.3572,0.5051,0.8096,-4.235,-6.055,5.425,422,410,315,403,407,2025-05-28T17:21:47.085775
17478,-0.3523,0.5065,0.8032,-3.990,-5.600,6.510,409,403,359,403,401,2025-05-28T17:21:47.085775
17479,-0.3504,0.5100,0.7969,-3.675,-4.900,7.560,414,399,360,376,413,2025-05-28T17:21:47.085775
17480,-0.3533,0.5061,0.7891,-3.325,-4.270,8.400,434,415,373,398,418,2025-05-28T17:21:47.085775
17481,-0.3553,0.5031,0.7823,-2.940,-3.605,8.995,411,412,389,410,419,2025-05-28T17:21:47.085775
17482,-0.3553,0.5031,0.7808,-2.485,-3.535,9.975,355,399,388,407,412,2025-05-28T17:21:47.086770
17483,-0.3543,0.5036,0.7759,-2.170,-3.815,10.920,424,380,383,409,411,2025-05-28T17:21:47.086770
17484,-0.3518,0.5148,0.7710,-1.960,-3.990,11.620,404,347,386,358,413,2025-05-28T17:21:47.086770
17485,-0.3499,0.5392,0.7715,-1.890,-3.325,11.340,396,392,376,364,358,2025-05-28T17:21:47.086770
17486,-0.3611,0.5612,0.7774,-2.905,-1.050,9.240,408,404,380,401,391,2025-05-28T17:21:47.086770
17487,-0.3836,0.5592,0.7940,-4.865,1.540,4.305,428,360,357,395,380,2025-05-28T17:21:47.086770
17488,-0.4016,0.5256,0.8023,-6.230,2.345,-1.785,431,415,356,349,387,2025-05-28T17:21:47.086770
17489,-0.4187,0.4807,0.8125,-6.755,0.350,-6.020,427,407,377,383,406,2025-05-28T17:21:47.086770
17490,-0.4143,0.4490,0.8106,-5.845,-4.935,-6.965,361,389,392,393,392,2025-05-28T17:21:47.086770
17491,-0.3997,0.4304,0.8062,-3.920,-10.780,-5.565,425,420,394,365,407,2025-05-28T17:21:47.086770
17492,-0.3767,0.4255,0.7959,-1.680,-14.735,-2.380,426,407,393,385,394,2025-05-28T17:21:47.250515
17493,-0.3538,0.4397,0.7891,0.140,-15.540,0.455,416,412,385,389,343,2025-05-28T17:21:47.250515
17494,-0.3436,0.4631,0.7779,0.805,-13.300,1.295,438,411,391,388,352,2025-05-28T17:21:47.250515
17495,-0.3357,0.4909,0.7701,0.490,-10.150,-0.140,410,427,378,395,376,2025-05-28T17:21:47.250515
17496,-0.3353,0.5070,0.7647,-0.630,-5.425,-1.820,395,399,386,414,405,2025-05-28T17:21:47.251660
17497,-0.3343,0.5065,0.7579,-1.960,-0.175,-4.025,410,421,390,398,354,2025-05-28T17:21:47.251660
17498,-0.3387,0.5080,0.7544,-2.590,4.165,-4.900,358,363,390,386,377,2025-05-28T17:21:47.251660
17499,-0.3484,0.5119,0.7564,-2.800,7.035,-4.340,396,299,382,388,400,2025-05-28T17:21:47.251660
17500,-0.3562,0.5192,0.7657,-3.255,8.365,-2.975,430,406,391,393,387,2025-05-28T17:21:47.251660
17501,-0.3684,0.5339,0.7793,-3.815,8.190,-1.925,442,407,393,382,388,2025-05-28T17:21:47.251660
17502,-0.3836,0.5441,0.7910,-4.725,6.545,-0.910,430,422,393,390,408,2025-05-28T17:21:47.251660
17503,-0.3836,0.5524,0.7998,-5.705,4.060,-0.315,417,408,381,388,399,2025-05-28T17:21:47.251660
17504,-0.3743,0.5529,0.8115,-7.070,1.995,0.525,427,425,385,405,405,2025-05-28T17:21:47.251660
17505,-0.3582,0.5500,0.8237,-8.260,0.000,1.645,422,426,390,392,371,2025-05-28T17:21:47.251660
17506,-0.3421,0.5451,0.8335,-8.960,-1.470,3.570,417,426,384,408,349,2025-05-28T17:21:47.252704
17507,-0.3318,0.5339,0.8379,-9.240,-2.835,5.495,419,408,348,412,345,2025-05-28T17:21:47.252704
17508,-0.3323,0.5236,0.8472,-8.645,-4.340,7.035,354,392,366,414,398,2025-05-28T17:21:47.352669
17509,-0.3274,0.5168,0.8467,-7.560,-5.565,7.560,402,419,367,404,392,2025-05-28T17:21:47.352669
17510,-0.3343,0.5095,0.8530,-5.740,-6.510,7.420,356,426,371,418,396,2025-05-28T17:21:47.352669
17511,-0.3470,0.4953,0.8501,-3.535,-7.805,6.650,428,436,344,356,392,2025-05-28T17:21:47.352669
17512,-0.3470,0.4831,0.8477,-2.135,-9.030,6.125,405,430,365,379,392,2025-05-28T17:21:47.352669
17513,-0.3548,0.4743,0.8452,-0.490,-8.820,5.565,381,407,378,355,384,2025-05-28T17:21:47.352669
17514,-0.3538,0.4768,0.8442,0.665,-7.315,5.915,397,428,345,382,399,2025-05-28T17:21:47.352669
17515,-0.3489,0.4870,0.8369,1.155,-4.550,7.490,424,407,354,344,393,2025-05-28T17:21:47.352669
17516,-0.3538,0.5070,0.8286,0.700,0.000,9.870,434,417,362,398,393,2025-05-28T17:21:47.485921
17517,-0.3728,0.5280,0.8164,-0.385,5.705,11.935,420,368,383,399,348,2025-05-28T17:21:47.485921
17518,-0.3992,0.5412,0.8198,-1.645,10.675,12.915,396,394,393,404,392,2025-05-28T17:21:47.485921
17519,-0.4358,0.5466,0.8374,-3.990,12.985,13.230,415,403,383,400,357,2025-05-28T17:21:47.485921
17520,-0.4656,0.5378,0.8525,-6.475,12.985,13.230,408,379,384,349,379,2025-05-28T17:21:47.485921
17521,-0.4948,0.5192,0.8642,-8.225,9.345,12.845,435,414,392,353,393,2025-05-28T17:21:47.485921
17522,-0.5012,0.4919,0.8647,-8.855,3.045,12.950,359,419,384,359,406,2025-05-28T17:21:47.485921
17523,-0.4851,0.4685,0.8686,-8.505,-4.830,14.000,415,348,379,400,358,2025-05-28T17:21:47.485921
17524,-0.4602,0.4577,0.8589,-7.105,-10.885,15.575,429,385,383,340,354,2025-05-28T17:21:47.485921
17525,-0.4304,0.4568,0.8481,-5.740,-17.010,16.905,385,404,309,360,351,2025-05-28T17:21:47.757672
17526,-0.3836,0.4680,0.8237,-4.480,-20.370,18.060,425,403,338,399,368,2025-05-28T17:21:47.757672
17527,-0.3426,0.4812,0.7998,-4.235,-19.845,18.480,413,416,355,388,350,2025-05-28T17:21:47.757672
17528,-0.3211,0.4924,0.7808,-4.620,-16.345,17.430,410,409,329,408,393,2025-05-28T17:21:47.757672
17529,-0.3255,0.4982,0.7608,-5.180,-11.690,15.190,431,344,359,411,403,2025-05-28T17:21:47.757672
17530,-0.3406,0.4890,0.7574,-6.020,-8.645,12.040,433,408,376,358,395,2025-05-28T17:21:47.757672
17531,-0.3670,0.4782,0.7525,-6.300,-6.405,0.245,440,401,366,399,406,2025-05-28T17:21:47.757672
17532,-0.3914,0.4724,0.7501,-5.600,-6.475,5.950,433,416,340,411,413,2025-05-28T17:21:47.757672
17533,-0.4041,0.4685,0.7569,-4.200,-8.540,3.675,433,424,377,405,394,2025-05-28T17:21:47.757672
17534,-0.4016,0.4651,0.7671,-2.905,-10.570,2.380,411,409,385,395,404,2025-05-28T17:21:47.757672
17535,-0.3938,0.4690,0.7730,-1.225,-11.585,1.750,413,413,373,407,392,2025-05-28T17:21:47.757672
17536,-0.3836,0.4709,0.7813,0.175,-12.250,1.505,372,366,382,393,382,2025-05-28T17:21:47.757672
17537,-0.3728,0.4753,0.7867,1.400,-12.460,1.015,419,339,370,412,407,2025-05-28T17:21:47.757672
17538,-0.3587,0.4763,0.7906,2.380,-12.390,0.665,415,372,341,391,389,2025-05-28T17:21:47.757672
17539,-0.3406,0.4743,0.7920,3.150,-11.690,0.035,436,403,373,410,358,2025-05-28T17:21:47.757672
17540,-0.3221,0.4724,0.7910,3.990,-10.465,-0.910,371,408,384,411,337,2025-05-28T17:21:47.757672
17541,-0.3094,0.4699,0.7871,4.725,-7.630,-2.030,409,394,345,401,365,2025-05-28T17:21:47.757672
17542,-0.2948,0.4792,0.7857,4.935,-3.605,-3.360,415,428,376,426,377,2025-05-28T17:21:47.757672
17543,-0.2889,0.4909,0.7871,4.305,0.735,-4.690,430,428,387,420,356,2025-05-28T17:21:47.757672
17544,-0.2991,0.5017,0.7945,3.220,4.025,-5.180,418,408,344,413,388,2025-05-28T17:21:47.943369
17545,-0.3084,0.5124,0.7979,1.855,5.530,-5.145,428,388,333,396,342,2025-05-28T17:21:47.943369
17546,-0.3270,0.5183,0.7998,0.560,5.915,-5.110,414,399,360,419,384,2025-05-28T17:21:47.943369
17547,-0.3421,0.5187,0.7979,-0.455,5.180,-5.250,404,350,337,424,397,2025-05-28T17:21:47.943369
17548,-0.3655,0.5119,0.7959,-0.805,3.150,-5.985,399,381,361,420,413,2025-05-28T17:21:47.943369
17549,-0.3855,0.5104,0.7901,-0.630,1.050,-7.140,415,410,378,410,399,2025-05-28T17:21:47.943369
17550,-0.3948,0.5070,0.8008,-0.490,-2.205,-7.875,440,423,380,419,348,2025-05-28T17:21:47.943369
17551,-0.3982,0.5046,0.8067,-0.350,-5.425,-8.120,369,406,351,404,369,2025-05-28T17:21:47.943369
17552,-0.3977,0.4939,0.8067,-0.245,-7.700,-8.015,424,304,333,401,389,2025-05-28T17:21:47.943369
17553,-0.3889,0.4831,0.8072,-0.210,-8.610,-6.860,418,383,368,350,404,2025-05-28T17:21:47.943369
17554,-0.3728,0.4758,0.8047,0.315,-8.260,-5.495,321,406,383,401,416,2025-05-28T17:21:47.943369
17555,-0.3606,0.4714,0.8081,1.015,-6.825,-4.095,419,415,373,413,420,2025-05-28T17:21:47.943369
17556,-0.3528,0.4631,0.8067,1.890,-4.585,-2.660,363,408,373,419,413,2025-05-28T17:21:47.943369
17557,-0.3426,0.4660,0.8052,2.730,-1.890,-1.890,399,400,373,403,395,2025-05-28T17:21:47.943369
17558,-0.3372,0.4782,0.7989,3.815,0.945,-1.435,431,411,383,410,369,2025-05-28T17:21:47.944366
17559,-0.3348,0.4919,0.7989,4.410,3.150,-1.820,424,417,390,308,296,2025-05-28T17:21:47.944366
17560,-0.3382,0.5065,0.8013,4.655,5.285,-2.170,378,350,382,368,319,2025-05-28T17:21:47.944366
17561,-0.3348,0.5187,0.7993,4.445,6.825,-2.730,403,393,385,374,336,2025-05-28T17:21:47.944366
17562,-0.3426,0.5285,0.8062,3.990,7.560,-2.870,431,401,389,389,383,2025-05-28T17:21:47.944366
17563,-0.3475,0.5314,0.8018,3.605,7.315,-2.835,404,424,399,406,391,2025-05-28T17:21:47.944366
17564,-0.3558,0.5309,0.8023,3.535,6.055,-2.870,413,403,400,425,391,2025-05-28T17:21:48.153442
17565,-0.3689,0.5295,0.8081,3.430,3.675,-3.150,405,421,384,417,403,2025-05-28T17:21:48.153442
17566,-0.3753,0.5290,0.8111,3.500,0.525,-3.990,411,425,376,358,411,2025-05-28T17:21:48.153442
17567,-0.3792,0.5222,0.8115,3.570,-2.765,-5.390,406,423,379,377,351,2025-05-28T17:21:48.153442
17568,-0.3855,0.5148,0.8101,3.640,-5.705,-7.140,417,422,385,387,380,2025-05-28T17:21:48.153442
17569,-0.3777,0.5119,0.8101,3.675,-7.420,-8.575,421,393,389,415,389,2025-05-28T17:21:48.153442
17570,-0.3723,0.5080,0.8072,3.465,-7.840,-9.100,410,375,384,356,345,2025-05-28T17:21:48.153442
17571,-0.3636,0.5129,0.8067,2.905,-6.895,-8.960,409,397,373,383,362,2025-05-28T17:21:48.153442
17572,-0.3665,0.5144,0.8091,2.240,-5.425,-8.540,388,400,376,404,383,2025-05-28T17:21:48.153442
17573,-0.3753,0.5168,0.8111,1.155,-4.410,-7.770,423,434,393,403,398,2025-05-28T17:21:48.153442
17574,-0.3831,0.5134,0.8125,0.035,-3.780,-7.000,363,389,374,365,405,2025-05-28T17:21:48.153442
17575,-0.3919,0.5124,0.8067,-0.350,-3.815,-6.055,426,427,371,336,410,2025-05-28T17:21:48.153442
17576,-0.4031,0.5100,0.8052,-0.315,-4.865,-5.250,362,402,369,378,413,2025-05-28T17:21:48.153442
17577,-0.4041,0.5061,0.8067,-0.210,-6.160,-4.130,429,401,382,364,373,2025-05-28T17:21:48.320040
17578,-0.3977,0.5022,0.8072,0.070,-7.595,-3.150,428,369,371,328,398,2025-05-28T17:21:48.320040
17579,-0.3860,0.5012,0.8052,0.560,-7.980,-2.030,387,415,383,389,391,2025-05-28T17:21:48.320040
17580,-0.3767,0.4973,0.8037,0.945,-7.140,-1.435,406,399,373,380,409,2025-05-28T17:21:48.320040
17581,-0.3640,0.5007,0.8037,1.540,-6.055,-0.665,409,411,384,365,416,2025-05-28T17:21:48.320040
17582,-0.3548,0.5051,0.8067,1.890,-4.655,0.105,413,419,379,388,410,2025-05-28T17:21:48.320040
17583,-0.3475,0.5109,0.8101,2.135,-2.555,0.840,410,423,380,406,381,2025-05-28T17:21:48.320040
17584,-0.3445,0.5197,0.8076,2.275,0.070,1.085,428,416,380,420,406,2025-05-28T17:21:48.320040
17585,-0.3528,0.5207,0.8037,2.520,2.765,0.945,431,423,391,416,405,2025-05-28T17:21:48.320040
17586,-0.3626,0.5261,0.8047,2.730,4.270,0.630,430,408,396,362,409,2025-05-28T17:21:48.320040
17587,-0.4997,0.5197,0.8140,2.905,4.235,0.525,433,407,392,403,397,2025-05-28T17:21:48.320040
17588,-0.3894,0.5153,0.8242,3.185,2.520,0.665,420,401,394,351,377,2025-05-28T17:21:48.320040
17589,-0.3967,0.5080,0.8291,3.500,-0.210,0.805,407,396,360,402,355,2025-05-28T17:21:48.320040
17590,-0.4060,0.4870,0.8296,3.815,-2.870,0.315,423,402,364,364,333,2025-05-28T17:21:48.320040
17591,-0.3958,0.4792,0.8286,4.550,-4.655,-0.280,406,404,334,400,333,2025-05-28T17:21:48.320040
17592,-0.3841,0.4704,0.8213,5.285,-5.425,-0.350,354,391,350,410,384,2025-05-28T17:21:48.320040
17593,-0.3636,0.4714,0.8169,5.705,-4.200,0.035,383,388,331,399,392,2025-05-28T17:21:48.320040
17594,-0.3558,0.4743,0.8150,5.530,-1.505,0.665,437,410,322,419,409,2025-05-28T17:21:48.320040
17595,-0.3518,0.4846,0.8111,5.040,1.225,1.435,442,346,359,402,396,2025-05-28T17:21:48.320040
17596,-0.3479,0.4968,0.8037,3.850,2.905,2.345,411,382,347,403,386,2025-05-28T17:21:48.320040
17597,-0.3543,0.5070,0.7950,2.835,4.655,3.045,420,416,365,401,383,2025-05-28T17:21:48.569253
17598,-0.3601,0.5217,0.7920,1.855,5.145,3.605,437,398,374,414,364,2025-05-28T17:21:48.569253
17599,-0.3665,0.5397,0.7891,1.190,5.250,3.290,439,412,347,401,386,2025-05-28T17:21:48.569253
17600,-0.3762,0.5544,0.7896,0.070,4.760,2.380,433,423,370,396,354,2025-05-28T17:21:48.569253
17601,-0.3806,0.5573,0.7940,-0.700,4.025,2.135,429,342,377,397,380,2025-05-28T17:21:48.569253
17602,-0.3845,0.5573,0.7945,-1.190,2.520,2.065,400,342,376,401,384,2025-05-28T17:21:48.569253
17603,-0.3845,0.5480,0.7940,-1.400,0.385,2.870,429,404,353,346,343,2025-05-28T17:21:48.569253
17604,-0.3792,0.5407,0.7984,-1.295,-1.645,4.095,429,388,340,384,392,2025-05-28T17:21:48.569253
17605,-0.3787,0.5202,0.8028,-1.260,-3.290,5.145,436,414,330,408,401,2025-05-28T17:21:48.569253
17606,-0.3723,0.5041,0.8008,-1.015,-5.145,5.635,425,413,321,410,410,2025-05-28T17:21:48.569253
17607,-0.3655,0.4909,0.7940,-0.525,-6.265,5.250,394,420,353,401,400,2025-05-28T17:21:48.569253
17608,-0.3475,0.4821,0.7891,0.105,-5.705,4.655,427,394,358,411,391,2025-05-28T17:21:48.569253
17609,-0.3382,0.4802,0.7832,0.210,-4.480,4.165,354,359,363,391,398,2025-05-28T17:21:48.569253
17610,-0.3255,0.4846,0.7788,0.245,-2.835,3.920,351,384,366,348,388,2025-05-28T17:21:48.569253
17611,-0.3187,0.4919,0.7774,-0.210,0.420,3.780,396,415,362,393,405,2025-05-28T17:21:48.569253
17612,-0.3187,0.5007,0.7701,-0.770,4.270,3.675,428,304,376,398,366,2025-05-28T17:21:48.869543
17613,-0.3328,0.5090,0.7725,-1.295,6.965,3.395,417,388,384,344,386,2025-05-28T17:21:48.869543
17614,-0.3411,0.5153,0.7681,-1.540,7.735,3.395,414,373,381,384,310,2025-05-28T17:21:48.869543
17615,-0.3553,0.5241,0.7686,-1.610,7.735,3.640,412,355,383,397,378,2025-05-28T17:21:48.869543
17616,-0.3714,0.5246,0.7764,-1.715,6.895,3.640,405,386,389,401,384,2025-05-28T17:21:48.869543
17617,-0.3782,0.5319,0.7837,-1.855,5.110,3.115,414,423,389,407,387,2025-05-28T17:21:48.869543
17618,-0.3870,0.5266,0.7891,-2.135,2.905,2.415,407,399,391,416,386,2025-05-28T17:21:48.869543
17619,-0.3870,0.5222,0.7881,-2.240,1.610,1.645,406,402,379,395,389,2025-05-28T17:21:48.869543
17620,-0.3806,0.5212,0.7832,-1.785,0.735,1.190,438,423,390,362,386,2025-05-28T17:21:48.869543
17621,-0.3714,0.5168,0.7847,-1.330,1.050,1.225,448,385,344,397,405,2025-05-28T17:21:48.869543
17622,-0.3636,0.5153,0.7886,-1.155,2.695,2.065,360,360,369,346,406,2025-05-28T17:21:48.869543
17623,-0.3684,0.5129,0.7989,-1.260,4.725,2.730,428,291,373,390,373,2025-05-28T17:21:48.869543
17624,-0.3723,0.5119,0.8037,-1.820,7.175,3.325,426,396,352,345,374,2025-05-28T17:21:48.869543
17625,-0.3845,0.5075,0.8106,-2.415,9.100,4.200,432,416,368,343,403,2025-05-28T17:21:48.869543
17626,-0.3958,0.5012,0.8106,-2.800,9.765,5.075,424,372,377,396,399,2025-05-28T17:21:48.869543
17627,-0.4065,0.4982,0.8106,-2.905,9.450,5.775,405,384,386,374,389,2025-05-28T17:21:48.869543
17628,-0.4207,0.4953,0.8150,-2.695,8.645,6.090,408,431,389,400,406,2025-05-28T17:21:48.869543
17629,-0.4226,0.4939,0.8101,-2.485,7.140,6.405,422,382,361,389,403,2025-05-28T17:21:48.869543
17630,-0.4177,0.4987,0.8140,-2.170,4.760,6.790,439,414,348,402,415,2025-05-28T17:21:48.869543
17631,-0.4080,0.5051,0.8164,-1.995,3.010,7.560,411,401,371,396,380,2025-05-28T17:21:48.869543
17632,-0.4011,0.5080,0.8135,-2.170,2.030,8.190,396,422,386,406,347,2025-05-28T17:21:48.869543
17633,-0.3958,0.5036,0.8169,-2.100,1.820,8.610,404,355,378,352,395,2025-05-28T17:21:49.021922
17634,-0.3855,0.5061,0.8194,-2.415,2.065,8.855,415,417,376,399,406,2025-05-28T17:21:49.021922
17635,-0.3821,0.5056,0.8276,-2.835,2.730,9.345,420,428,375,418,419,2025-05-28T17:21:49.021922
17636,-0.3816,0.5022,0.8252,-2.975,3.010,9.590,413,428,390,417,410,2025-05-28T17:21:49.021922
17637,-0.3758,0.4992,0.8150,-2.660,3.080,9.800,417,398,390,422,354,2025-05-28T17:21:49.021922
17638,-0.2513,0.4992,0.8111,-2.170,3.220,9.520,367,412,393,388,345,2025-05-28T17:21:49.021922
17639,-0.3709,0.5007,0.8076,-1.295,3.955,9.310,426,405,389,406,293,2025-05-28T17:21:49.022920
17640,-0.3670,0.5075,0.8086,-0.945,4.620,9.030,436,405,373,345,348,2025-05-28T17:21:49.022920
17641,-0.3680,0.5124,0.8076,-0.980,5.670,8.750,416,355,378,376,397,2025-05-28T17:21:49.022920
17642,-0.3689,0.5153,0.8062,-1.050,6.020,8.610,412,399,386,409,386,2025-05-28T17:21:49.022920
17643,-0.3680,0.5173,0.8013,-1.015,5.810,8.645,361,417,379,405,384,2025-05-28T17:21:49.022920
17644,-0.3723,0.5173,0.7945,-0.980,5.320,8.505,427,423,381,408,359,2025-05-28T17:21:49.022920
17645,-0.3655,0.5183,0.7857,-0.735,4.690,8.365,432,431,344,402,374,2025-05-28T17:21:49.022920
17646,-0.3684,0.5226,0.7813,-0.525,4.445,7.945,426,373,351,394,339,2025-05-28T17:21:49.022920
17647,-0.3655,0.5261,0.7808,-0.455,4.375,7.770,422,417,326,399,378,2025-05-28T17:21:49.022920
17648,-0.3636,0.5309,0.7769,-0.735,4.690,7.665,436,404,321,391,392,2025-05-28T17:21:49.022920
17649,-0.3636,0.5363,0.7730,-1.155,5.215,7.455,382,416,365,406,385,2025-05-28T17:21:49.022920
17650,-0.3616,0.5363,0.7691,-1.575,6.195,7.420,429,424,382,420,394,2025-05-28T17:21:49.023915
17651,-0.3660,0.5348,0.7671,-1.890,6.825,7.210,424,429,382,374,363,2025-05-28T17:21:49.023915
17652,-0.3709,0.5309,0.7691,-2.135,7.315,7.000,418,430,343,387,393,2025-05-28T17:21:49.023915
17653,-0.3841,0.5305,0.7696,-2.310,7.140,6.615,404,414,361,408,414,2025-05-28T17:21:49.023915
17654,-0.3855,0.5305,0.7662,-2.345,6.825,6.265,414,404,327,410,414,2025-05-28T17:21:49.389148
17655,-0.3894,0.5319,0.7652,-2.450,6.230,6.020,399,392,321,415,400,2025-05-28T17:21:49.389148
17656,-0.3963,0.5290,0.7662,-2.415,6.020,5.950,433,417,337,391,397,2025-05-28T17:21:49.389148
17657,-0.4006,0.5231,0.7676,-2.450,5.530,5.845,433,401,344,350,384,2025-05-28T17:21:49.389148
17658,-0.4041,0.5222,0.7681,-2.765,4.970,5.670,445,401,362,397,394,2025-05-28T17:21:49.389148
17659,-0.4031,0.5197,0.7691,-3.185,4.830,5.775,427,399,366,355,401,2025-05-28T17:21:49.390147
17660,-0.4055,0.5192,0.7701,-3.640,5.180,5.845,357,386,373,383,396,2025-05-28T17:21:49.390147
17661,-0.4060,0.5173,0.7725,-4.200,5.810,5.880,374,352,341,396,408,2025-05-28T17:21:49.390147
17662,-0.4075,0.5168,0.7701,-4.760,6.335,6.265,407,389,366,414,420,2025-05-28T17:21:49.390147
17663,-0.4119,0.5153,0.7691,-5.075,7.105,6.440,372,428,340,378,416,2025-05-28T17:21:49.390147
17664,-0.4104,0.5187,0.7696,-5.425,7.770,7.175,405,403,363,392,367,2025-05-28T17:21:49.390147
17665,-0.4153,0.5183,0.7725,-5.600,8.050,7.700,420,410,350,389,390,2025-05-28T17:21:49.390147
17666,-0.4226,0.5095,0.7725,-5.810,7.490,8.015,405,345,359,398,347,2025-05-28T17:21:49.390147
17667,-0.4255,0.5109,0.7691,-5.915,6.685,7.875,416,410,374,408,339,2025-05-28T17:21:49.390147
17668,-0.4290,0.5119,0.7691,-5.985,5.775,7.315,421,416,352,414,382,2025-05-28T17:21:49.390147
17669,-0.4231,0.5158,0.7618,-6.020,5.425,6.650,402,373,371,396,405,2025-05-28T17:21:49.390147
17670,-0.4202,0.5251,0.7588,-6.090,5.705,6.055,403,396,377,393,395,2025-05-28T17:21:49.390147
17671,-0.4207,0.5261,0.7618,-6.405,5.915,5.390,432,422,386,390,352,2025-05-28T17:21:49.390147
17672,-0.4280,0.5187,0.7598,-6.580,5.810,5.215,426,397,381,396,380,2025-05-28T17:21:49.502916
17673,-0.4319,0.5168,0.7559,-6.335,5.110,5.320,429,417,387,417,378,2025-05-28T17:21:49.502916
17674,-0.4226,0.5124,0.7618,-6.090,4.375,6.370,416,350,379,404,403,2025-05-28T17:21:49.502916
17675,-0.4290,0.5090,0.7584,-5.985,3.710,7.455,399,416,373,420,353,2025-05-28T17:21:49.502916
17676,-0.4216,0.5036,0.7515,-5.495,3.395,8.120,425,404,384,418,394,2025-05-28T17:21:49.502916
17677,-0.4163,0.5056,0.7354,-4.830,4.200,8.260,413,407,386,420,413,2025-05-28T17:21:49.503914
17678,-0.4089,0.5119,0.7315,-4.410,6.510,8.295,440,434,384,414,392,2025-05-28T17:21:49.503914
17679,-0.4070,0.5280,0.7252,-4.515,9.380,8.400,371,423,372,353,390,2025-05-28T17:21:49.504130
17680,-0.4119,0.5392,0.7218,-5.005,11.445,8.470,420,437,371,393,400,2025-05-28T17:21:49.504130
17681,-0.4265,0.5495,0.7120,-5.740,12.880,8.435,427,394,338,390,397,2025-05-28T17:21:49.504130
17682,-0.4343,0.5485,0.7120,-6.300,13.685,8.190,436,417,350,367,397,2025-05-28T17:21:49.504130
17683,-0.4465,0.5500,0.7135,-6.440,13.090,7.840,427,416,364,401,403,2025-05-28T17:21:49.504130
17684,-0.4573,0.5505,0.7159,-6.545,11.200,7.105,419,416,333,417,398,2025-05-28T17:21:49.504130
17685,-0.4538,0.5529,0.7174,-6.475,9.205,6.195,426,412,373,357,402,2025-05-28T17:21:49.504130
17686,-0.4514,0.5456,0.7149,-6.510,8.365,5.215,417,395,369,375,387,2025-05-28T17:21:49.504130
17687,-0.4465,0.5490,0.7159,-6.545,8.260,4.410,427,410,348,346,407,2025-05-28T17:21:49.504130
17688,-0.4499,0.5480,0.7208,-7.140,9.135,3.815,431,401,366,392,416,2025-05-28T17:21:49.504130
17689,-0.4499,0.5505,0.7315,-8.085,9.905,4.305,386,414,368,395,403,2025-05-28T17:21:49.504130
17690,-0.4636,0.5461,0.7452,-9.065,10.255,5.215,419,401,337,384,406,2025-05-28T17:21:49.504130
17691,-0.4792,0.5334,0.7471,-9.940,10.115,5.915,429,405,365,400,394,2025-05-28T17:21:49.504130
17692,-0.4870,0.5222,0.7535,-10.080,9.415,6.160,386,405,380,398,398,2025-05-28T17:21:49.504130
17693,-0.4934,0.5134,0.7549,-9.800,8.680,6.510,423,345,392,406,357,2025-05-28T17:21:49.819287
17694,-0.4919,0.5119,0.7530,-9.275,7.875,7.035,405,402,390,407,372,2025-05-28T17:21:49.819287
17695,-0.5022,0.5129,0.7623,-9.065,6.965,7.665,406,401,388,406,406,2025-05-28T17:21:49.819287
17696,-0.5022,0.5095,0.7657,-8.610,5.810,8.855,428,420,375,396,402,2025-05-28T17:21:49.819287
17697,-0.4973,0.5192,0.7613,-8.015,4.970,9.870,447,420,387,413,407,2025-05-28T17:21:49.819287
17698,-0.4900,0.5236,0.7530,-7.140,5.285,10.570,430,417,381,402,418,2025-05-28T17:21:49.819287
17699,-0.4870,0.5266,0.7476,-6.440,6.370,10.850,354,408,377,409,411,2025-05-28T17:21:49.819287
17700,-0.4885,0.5290,0.7447,-5.740,7.840,10.710,421,429,372,352,396,2025-05-28T17:21:49.819287
17701,-0.4943,0.5319,0.7413,-5.285,9.380,10.045,416,412,372,376,409,2025-05-28T17:21:49.819287
17702,-0.4982,0.5402,0.7393,-4.725,10.535,9.660,414,412,384,341,391,2025-05-28T17:21:49.819287
17703,-0.5022,0.5412,0.7403,-4.270,11.130,9.660,425,420,380,327,390,2025-05-28T17:21:49.819287
17704,-0.5051,0.5495,0.7437,-4.305,11.305,9.870,427,419,385,366,344,2025-05-28T17:21:49.819287
17705,-0.5051,0.5539,0.7471,-4.340,10.500,10.360,401,425,391,379,385,2025-05-28T17:21:49.819287
17706,-0.5104,0.5505,0.7501,-4.270,8.925,10.990,425,429,387,385,383,2025-05-28T17:21:49.819287
17707,-0.5036,0.5510,0.7486,-4.095,7.630,11.340,409,405,379,403,348,2025-05-28T17:21:49.819287
17708,-0.4948,0.5500,0.7432,-3.955,6.650,11.410,429,409,377,385,371,2025-05-28T17:21:49.819287
17709,-0.4841,0.5490,0.7462,-3.920,7.070,11.270,431,408,386,389,389,2025-05-28T17:21:49.819287
17710,-0.4734,0.5490,0.7481,-4.585,7.630,11.375,438,397,380,412,404,2025-05-28T17:21:49.819287
17711,-0.4714,0.5510,0.7481,-5.145,8.015,12.110,402,417,373,405,400,2025-05-28T17:21:49.819287
17712,-0.4709,0.5388,0.7457,-5.565,7.770,13.720,374,422,383,414,396,2025-05-28T17:21:49.819287
17713,-0.4729,0.5295,0.7427,-5.110,6.510,15.050,401,414,382,403,396,2025-05-28T17:21:49.950366
17714,-0.4812,0.5226,0.7388,-3.920,4.760,16.310,432,306,370,399,406,2025-05-28T17:21:49.950366
17715,-0.4797,0.5163,0.7344,-2.765,3.115,16.905,362,382,338,391,404,2025-05-28T17:21:49.950366
17716,-0.4768,0.5109,0.7310,-1.435,1.855,16.905,409,398,331,402,404,2025-05-28T17:21:49.950366
17717,-0.4758,0.5114,0.7222,-0.700,1.400,16.625,384,407,347,389,387,2025-05-28T17:21:49.950366
17718,-0.4817,0.5041,0.7198,0.315,1.575,15.295,426,426,359,396,403,2025-05-28T17:21:49.951093
17719,-0.4860,0.5007,0.7178,1.330,2.100,13.930,415,411,366,398,408,2025-05-28T17:21:49.951093
17720,-0.4929,0.5046,0.7237,1.995,2.450,12.285,435,415,363,411,409,2025-05-28T17:21:49.951093
17721,-0.4987,0.5139,0.7310,1.890,2.590,10.500,417,394,367,386,371,2025-05-28T17:21:49.951093
17722,-0.5100,0.5173,0.7335,1.680,2.275,8.610,418,429,383,401,391,2025-05-28T17:21:49.951093
17723,-0.5207,0.5139,0.7422,1.155,1.680,6.370,415,407,387,347,401,2025-05-28T17:21:49.951093
17724,-0.5246,0.5065,0.7462,0.700,0.175,4.620,433,421,377,381,408,2025-05-28T17:21:49.951093
17725,-0.5139,0.5002,0.7530,0.525,-1.575,2.940,412,360,351,380,404,2025-05-28T17:21:49.951093
17726,-0.5065,0.4992,0.7603,0.035,-2.905,1.575,432,411,325,390,408,2025-05-28T17:21:49.951093
17727,-0.4890,0.5031,0.7647,-0.560,-3.325,1.225,406,421,347,406,399,2025-05-28T17:21:50.072766
17728,-0.4763,0.5095,0.7681,-1.610,-4.025,1.890,427,418,359,390,312,2025-05-28T17:21:50.072766
17729,-0.4509,0.5144,0.7696,-3.045,-3.605,3.990,425,422,372,341,371,2025-05-28T17:21:50.072766
17730,-0.4402,0.5197,0.7666,-4.620,-2.100,6.545,361,419,385,381,341,2025-05-28T17:21:50.072766
17731,-0.4333,0.5222,0.7666,-5.880,-0.385,8.925,427,402,376,361,381,2025-05-28T17:21:50.072766
17732,-0.4333,0.5183,0.7720,-7.350,0.420,10.780,406,401,379,379,385,2025-05-28T17:21:50.072766
17733,-0.4377,0.5139,0.7745,-8.610,0.560,11.795,351,409,365,380,345,2025-05-28T17:21:50.072766
17734,-0.4446,0.5026,0.7769,-9.030,-0.980,12.495,406,389,369,390,390,2025-05-28T17:21:50.118425
17735,-0.4377,0.4939,0.7788,-8.820,-3.710,12.985,414,394,375,412,392,2025-05-28T17:21:50.118425
17736,-0.4275,0.4860,0.7784,-7.665,-6.825,13.300,384,407,378,409,378,2025-05-28T17:21:50.118425
17737,-0.4187,0.4846,0.7720,-6.545,-8.470,12.985,429,419,372,375,382,2025-05-28T17:21:50.118425
17738,-0.4104,0.4851,0.7623,-5.110,-8.330,11.060,447,394,342,346,384,2025-05-28T17:21:50.118425
17739,-0.4011,0.4914,0.7515,-3.745,-6.510,8.785,418,420,368,388,347,2025-05-28T17:21:50.118425
17740,-0.4011,0.4968,0.7496,-2.660,-4.060,5.950,432,367,380,404,392,2025-05-28T17:21:50.118425
17741,-0.3967,0.5041,0.7525,-1.925,-1.435,4.270,442,419,382,400,384,2025-05-28T17:21:50.118425
17742,-0.4031,0.5124,0.7569,-1.575,8.785,3.570,437,405,371,396,400,2025-05-28T17:21:50.118425
17743,-0.4119,0.5129,0.7564,-1.050,0.420,3.220,380,377,380,396,402,2025-05-28T17:21:50.118425
17744,-0.4148,0.5139,0.7535,-0.455,0.140,2.975,435,400,379,403,385,2025-05-28T17:21:50.118425
17745,-0.4226,0.5124,0.7544,0.140,-0.560,2.450,414,423,377,410,401,2025-05-28T17:21:50.118425
17746,-0.4270,0.5119,0.7564,0.560,-1.960,2.135,431,419,369,390,408,2025-05-28T17:21:50.118425
17747,-0.4255,0.5104,0.7579,0.910,-3.535,1.960,451,428,379,339,392,2025-05-28T17:21:50.118425
17748,-0.4246,0.5080,0.7598,0.910,-5.285,1.855,378,385,381,370,392,2025-05-28T17:21:50.119429
17749,-0.4192,0.5080,0.7593,0.770,-6.335,1.960,428,411,369,387,386,2025-05-28T17:21:50.220193
17750,-0.4128,0.5104,0.7613,0.560,-6.125,1.995,411,421,369,378,403,2025-05-28T17:21:50.220193
17751,-0.4036,0.5119,0.7681,-0.105,-5.075,2.380,438,350,340,395,388,2025-05-28T17:21:50.220193
17752,-0.3948,0.5183,0.7701,-1.260,-3.920,3.115,410,386,357,393,397,2025-05-28T17:21:50.220193
17753,-0.3987,0.5183,0.7813,-2.625,-2.555,3.535,430,426,379,413,405,2025-05-28T17:21:50.220193
17754,-0.4094,0.5148,0.7847,-3.850,-2.170,3.815,427,396,389,425,391,2025-05-28T17:21:50.220193
17755,-0.4099,0.5109,0.7862,-4.445,-2.590,3.780,431,422,382,402,396,2025-05-28T17:21:50.220193
17756,-0.4085,0.5036,0.7871,-4.620,-3.325,3.780,397,419,379,400,396,2025-05-28T17:21:50.220193
17757,-0.4114,0.5031,0.7881,-4.620,-3.850,3.605,412,371,382,411,402,2025-05-28T17:21:50.370121
17758,-0.4099,0.5017,0.7906,-4.585,-4.795,3.465,405,403,389,414,418,2025-05-28T17:21:50.370121
17759,-0.4055,0.5017,0.7940,-4.375,-6.125,3.465,427,423,388,404,397,2025-05-28T17:21:50.370121
17760,-0.3953,0.5036,0.7940,-4.410,-7.280,4.410,409,425,379,414,411,2025-05-28T17:21:50.370121
17761,-0.3899,0.5051,0.7920,-4.270,-8.155,5.355,430,418,384,313,360,2025-05-28T17:21:50.370121
17762,-0.3845,0.5036,0.7906,-4.200,-8.295,5.810,437,416,372,388,379,2025-05-28T17:21:50.370121
17763,-0.3787,0.5104,0.7886,-4.235,-7.525,5.915,404,425,390,391,401,2025-05-28T17:21:50.370121
17764,-0.3689,0.5183,0.7876,-4.130,-5.740,5.740,434,412,397,390,405,2025-05-28T17:21:50.370121
17765,-0.3631,0.5309,0.7828,-4.305,-3.325,5.635,422,379,393,399,405,2025-05-28T17:21:50.370121
17766,-0.3626,0.5373,0.7828,-4.480,-1.540,5.145,416,352,383,392,411,2025-05-28T17:21:50.587417
17767,-0.3636,0.5363,0.7910,-4.655,0.175,4.725,421,395,372,362,413,2025-05-28T17:21:50.587417
17768,-0.3753,0.5368,0.7969,-4.725,0.665,3.850,402,422,346,402,418,2025-05-28T17:21:50.587417
17769,-0.3855,0.5383,0.7964,-4.550,0.315,2.905,431,414,359,394,418,2025-05-28T17:21:50.587417
17770,-0.3894,0.5344,0.7935,-4.200,-0.490,1.960,411,426,370,356,408,2025-05-28T17:21:50.587417
17771,-0.3933,0.5388,0.7930,-3.920,-0.595,0.980,408,412,379,387,391,2025-05-28T17:21:50.587417
17772,-0.3904,0.5402,0.7959,-3.745,-0.665,0.280,409,414,350,408,394,2025-05-28T17:21:50.587417
17773,-0.3884,0.5431,0.8023,-3.955,-0.560,0.140,410,432,369,418,409,2025-05-28T17:21:50.587417
17774,-0.3777,0.5422,0.8052,-4.620,-0.630,0.910,425,404,371,398,401,2025-05-28T17:21:50.587417
17775,-0.3777,0.5470,0.8091,-4.865,-0.805,2.765,409,402,388,401,388,2025-05-28T17:21:50.587417
17776,-0.3797,0.5470,0.8091,-5.110,-1.540,4.025,407,420,395,399,384,2025-05-28T17:21:50.587417
17777,-0.3821,0.5461,0.8067,-5.040,-2.625,5.215,429,426,345,341,393,2025-05-28T17:21:50.587417
17778,-0.3850,0.5446,0.8042,-4.935,-3.360,6.195,435,426,328,396,391,2025-05-28T17:21:50.587417
17779,-0.3743,0.5514,0.7959,-4.725,-3.500,7.280,440,373,317,387,381,2025-05-28T17:21:50.587417
17780,-0.3675,0.5563,0.7857,-4.795,-3.080,8.785,416,400,354,395,339,2025-05-28T17:21:50.588331
17781,-0.3645,0.5607,0.7808,-5.320,-2.170,10.185,429,407,358,390,390,2025-05-28T17:21:50.588331
17782,-0.3665,0.5651,0.7779,-6.090,-0.805,11.865,422,423,371,407,400,2025-05-28T17:21:50.588331
17783,-0.3719,0.5661,0.7793,-7.245,0.035,13.440,423,404,370,355,402,2025-05-28T17:21:50.588331
17784,-0.3787,0.5666,0.7793,-8.225,0.000,15.050,412,428,373,384,413,2025-05-28T17:21:50.588331
17785,-0.3806,0.5568,0.7749,-8.750,-0.630,15.715,399,341,382,396,396,2025-05-28T17:21:50.588331
17786,-0.3865,0.5573,0.7715,-9.065,-1.645,16.030,417,386,353,408,393,2025-05-28T17:21:50.835977
17787,-0.3889,0.5588,0.7706,-9.450,-2.520,15.470,418,392,375,408,399,2025-05-28T17:21:50.835977
17788,-0.3963,0.5519,0.7759,-10.430,-2.975,13.790,436,427,385,405,407,2025-05-28T17:21:50.835977
17789,-0.3997,0.5353,0.7847,-11.655,-3.815,11.935,412,365,387,418,401,2025-05-28T17:21:50.835977
17790,-0.3992,0.5129,0.7930,-13.090,-4.900,10.675,426,391,378,412,393,2025-05-28T17:21:50.835977
17791,-0.3865,0.4968,0.7906,-14.210,-7.210,10.430,405,411,379,413,395,2025-05-28T17:21:50.835977
17792,-0.3616,0.4958,0.7867,-14.350,-8.820,11.690,355,390,371,398,394,2025-05-28T17:21:50.835977
17793,-0.3411,0.4929,0.7886,-14.210,-9.205,14.140,424,414,348,404,397,2025-05-28T17:21:50.835977
17794,-0.3255,0.4953,0.7867,-13.860,-7.840,16.030,425,405,362,426,391,2025-05-28T17:21:50.835977
17795,-0.3099,0.4992,0.7876,-13.580,-5.950,16.870,411,392,376,413,395,2025-05-28T17:21:50.835977
17796,-0.3055,0.5036,0.7896,-13.545,-4.025,16.940,406,370,381,404,371,2025-05-28T17:21:50.835977
17797,-0.3074,0.4968,0.7940,-13.755,-1.785,16.030,429,413,390,348,400,2025-05-28T17:21:50.835977
17798,-0.3045,0.4929,0.8028,-13.755,-0.560,15.435,415,398,384,402,404,2025-05-28T17:21:50.835977
17799,-0.3099,0.4831,0.8028,-13.440,0.175,14.420,431,407,376,351,406,2025-05-28T17:21:50.835977
17800,-0.3104,0.4738,0.8081,-12.775,0.735,13.615,438,415,378,381,410,2025-05-28T17:21:50.835977
17801,-0.3109,0.4651,0.8115,-11.935,0.280,12.810,442,426,387,401,412,2025-05-28T17:21:50.937505
17802,-0.3089,0.4626,0.8179,-11.025,-0.490,12.320,442,423,387,413,387,2025-05-28T17:21:50.937505
17803,-0.3026,0.4651,0.8213,-10.150,-0.910,11.900,430,406,376,398,387,2025-05-28T17:21:50.937505
17804,-0.3016,0.4670,0.8262,-9.695,-0.350,11.375,359,407,383,388,348,2025-05-28T17:21:50.937505
17805,-0.3099,0.4646,0.8286,-9.660,0.420,10.500,405,400,383,397,381,2025-05-28T17:21:50.937505
17806,-0.2967,0.4699,0.8325,-9.765,0.910,9.730,412,420,380,412,407,2025-05-28T17:21:50.937505
17807,-0.2904,0.4753,0.8359,-9.800,1.610,9.590,435,410,390,394,357,2025-05-28T17:21:50.937505
17808,-0.2821,0.4719,0.8403,-9.730,2.030,9.940,415,422,385,392,346,2025-05-28T17:21:50.937505
17809,-0.2811,0.4709,0.8403,-9.030,2.345,10.360,447,417,385,338,371,2025-05-28T17:21:50.937505
17810,-0.2733,0.4734,0.8340,-7.945,3.010,10.570,434,406,345,366,351,2025-05-28T17:21:50.937505
17811,-0.2752,0.4812,0.8330,-6.895,4.795,10.780,419,412,329,380,374,2025-05-28T17:21:50.937505
17812,-0.2738,0.4880,0.8267,-5.985,7.035,10.780,409,344,348,395,383,2025-05-28T17:21:50.937505
17813,-0.2796,0.4963,0.8247,-5.110,8.645,10.850,432,339,353,406,400,2025-05-28T17:21:50.937505
17814,-0.2933,0.4982,0.8276,-4.375,10.430,11.165,373,379,369,416,410,2025-05-28T17:21:50.937505
17815,-0.3099,0.4934,0.8281,-3.430,10.920,11.235,423,396,387,413,392,2025-05-28T17:21:50.937505
17816,-0.3172,0.4885,0.8237,-2.135,10.185,11.445,320,388,388,408,360,2025-05-28T17:21:50.937505
17817,-0.3323,0.4826,0.8242,-1.050,9.065,11.515,368,424,381,420,406,2025-05-28T17:21:51.037380
17818,-0.3387,0.4797,0.8296,0.385,7.735,11.130,412,410,378,415,387,2025-05-28T17:21:51.037380
17819,-0.3377,0.4802,0.8316,1.715,6.510,11.095,402,396,383,408,357,2025-05-28T17:21:51.037380
17820,-0.3265,0.4807,0.8291,2.730,5.705,11.620,434,427,372,397,390,2025-05-28T17:21:51.037380
17821,-0.3226,0.4782,0.8262,3.535,6.405,12.110,436,400,384,355,345,2025-05-28T17:21:51.037380
17822,-0.3177,0.4797,0.8228,4.130,8.155,12.495,419,414,386,389,394,2025-05-28T17:21:51.037380
17823,-0.3167,0.4807,0.8272,4.025,10.255,12.845,369,404,349,386,405,2025-05-28T17:21:51.037380
17824,-0.3167,0.4826,0.8355,3.500,11.795,13.440,420,301,365,346,394,2025-05-28T17:21:51.038380
17825,-0.3167,0.4865,0.8364,2.590,13.125,14.245,315,380,331,372,414,2025-05-28T17:21:51.167276
17826,-0.3206,0.4880,0.8359,1.680,13.895,15.435,428,379,353,381,421,2025-05-28T17:21:51.167276
17827,-0.3265,0.4904,0.8374,0.875,14.210,16.485,429,404,378,388,421,2025-05-28T17:21:51.182906
17828,-0.3235,0.4939,0.8355,0.350,13.790,17.605,421,412,390,404,421,2025-05-28T17:21:51.183289
17829,-0.3270,0.4997,0.8330,0.000,13.615,18.340,441,398,316,411,407,2025-05-28T17:21:51.183289
17830,-0.3260,0.5051,0.8355,-0.700,13.755,18.725,419,391,348,419,395,2025-05-28T17:21:51.183289
17831,-0.3265,0.4997,0.8438,-1.435,13.545,18.830,421,413,367,399,397,2025-05-28T17:21:51.183289
17832,-0.3274,0.5090,0.8398,-2.310,13.475,18.550,355,409,375,404,312,2025-05-28T17:21:51.183289
17833,-0.3314,0.5148,0.8330,-3.325,13.825,18.130,427,415,375,408,375,2025-05-28T17:21:51.183289
17834,-0.3382,0.5285,0.8189,-4.095,15.190,17.010,411,415,370,428,390,2025-05-28T17:21:51.369307
17835,-0.3523,0.5388,0.8037,-5.390,16.870,16.030,437,419,383,412,343,2025-05-28T17:21:51.369307
17836,-0.3689,0.5441,0.8179,-7.245,18.305,15.400,446,430,384,395,374,2025-05-28T17:21:51.369307
17837,-0.3855,0.5495,0.8486,-9.415,16.800,16.380,450,407,383,405,339,2025-05-28T17:21:51.369307
17838,-0.4138,0.5329,0.8579,-11.620,12.600,17.325,435,344,381,413,368,2025-05-28T17:21:51.369307
17839,-0.4319,0.5158,0.8457,-12.005,7.420,17.325,427,380,394,371,385,2025-05-28T17:21:51.369307
17840,-0.4265,0.5139,0.8096,-11.095,3.570,16.695,430,425,393,401,376,2025-05-28T17:21:51.369307
17841,-0.4075,0.5183,0.7828,-9.800,3.010,16.135,406,433,381,406,360,2025-05-28T17:21:51.369307
17842,-0.4036,0.5192,0.7613,-9.205,4.830,15.820,389,409,371,386,353,2025-05-28T17:21:51.369307
17843,-0.3831,0.5226,0.7584,-10.115,8.260,17.115,412,427,379,398,338,2025-05-28T17:21:51.369307
17844,-0.3723,0.5178,0.7759,-12.040,11.235,20.405,411,423,372,388,385,2025-05-28T17:21:51.369307
17845,-0.3587,0.5187,0.7710,-13.475,13.860,24.920,423,404,386,405,399,2025-05-28T17:21:51.370735
17846,-0.3558,0.5231,0.7413,-13.720,15.015,28.630,418,412,353,415,349,2025-05-28T17:21:51.370735
17847,-0.3665,0.5275,0.7022,-12.355,18.480,29.785,416,427,357,392,351,2025-05-28T17:21:51.370735
17848,-0.3748,0.5436,0.6739,-9.870,22.295,28.840,401,429,367,389,374,2025-05-28T17:21:51.370735
17849,-0.3806,0.5544,0.6812,-7.875,25.025,26.600,435,418,382,405,404,2025-05-28T17:21:51.370735
17850,-0.3967,0.5739,0.6886,-7.525,25.410,24.675,375,422,391,405,399,2025-05-28T17:21:51.370735
17851,-0.4016,0.5758,0.7091,-7.875,23.380,23.975,401,429,381,397,382,2025-05-28T17:21:51.370735
17852,-0.4070,0.5783,0.7144,-8.260,20.790,23.975,376,371,384,348,393,2025-05-28T17:21:51.370735
17853,-0.4002,0.5724,0.7188,-8.540,17.675,23.975,422,415,387,366,408,2025-05-28T17:21:51.452837
17854,-0.3806,0.5758,0.7120,-8.575,16.170,24.325,445,401,376,365,396,2025-05-28T17:21:51.452837
17855,-0.3660,0.5719,0.7198,-8.575,17.010,24.430,423,413,380,378,395,2025-05-28T17:21:51.452837
17856,-0.3636,0.5690,0.7232,-9.135,19.635,24.745,431,424,338,406,418,2025-05-28T17:21:51.452837
17857,-0.3645,0.5700,0.7213,-10.430,22.925,24.745,446,427,354,404,399,2025-05-28T17:21:51.452837
17858,-0.3650,0.5607,0.7320,-11.620,26.530,24.710,420,384,377,409,386,2025-05-28T17:21:51.452837
17859,-0.3704,0.5539,0.7315,-13.195,29.785,24.745,440,364,388,401,396,2025-05-28T17:21:51.452837
17860,-0.3836,0.5407,0.7340,-14.665,33.145,24.535,392,367,383,389,392,2025-05-28T17:21:51.452837
17861,-0.3909,0.5309,0.7344,-15.855,35.875,23.905,405,331,371,392,396,2025-05-28T17:21:51.553313
17862,-0.4026,0.5236,0.7325,-16.415,38.290,23.310,413,408,390,401,407,2025-05-28T17:21:51.553313
17863,-0.4236,0.5261,0.7286,-16.450,39.620,22.470,409,405,375,380,367,2025-05-28T17:21:51.553313
17864,-0.4480,0.5275,0.7325,-16.275,39.445,21.665,429,423,386,399,376,2025-05-28T17:21:51.553313
17865,-0.4680,0.5305,0.7286,-15.890,37.415,20.790,401,403,340,368,407,2025-05-28T17:21:51.553313
17866,-0.4768,0.5305,0.7266,-15.365,35.105,20.160,424,402,358,407,400,2025-05-28T17:21:51.553313
17867,-0.4831,0.5236,0.7203,-14.560,32.095,19.635,438,402,377,395,389,2025-05-28T17:21:51.553313
17868,-0.4763,0.5241,0.7159,-13.755,29.750,19.495,361,398,372,348,408,2025-05-28T17:21:51.852387
17869,-0.4656,0.5295,0.7047,-13.230,28.910,19.425,424,355,379,384,400,2025-05-28T17:21:51.852387
17870,-0.4548,0.5334,0.7003,-12.950,30.310,19.215,438,419,369,402,407,2025-05-28T17:21:51.852387
17871,-0.4568,0.5402,0.6881,-12.880,33.040,18.585,435,406,347,346,405,2025-05-28T17:21:51.852387
17872,-0.4680,0.5431,0.6793,-13.055,35.490,17.360,425,409,371,399,392,2025-05-28T17:21:51.852387
17873,-0.4812,0.5417,0.6754,-13.230,37.835,16.485,423,403,380,352,368,2025-05-28T17:21:51.852387
17874,-0.5026,0.5461,0.6793,-13.160,38.325,16.030,434,367,365,379,374,2025-05-28T17:21:51.852387
17875,-0.5212,0.5451,0.6803,-13.160,36.680,15.785,445,387,376,358,386,2025-05-28T17:21:51.852387
17876,-0.5422,0.5436,0.6778,-12.950,33.530,15.820,364,416,376,386,412,2025-05-28T17:21:51.852387
17877,-0.5495,0.5417,0.6808,-12.250,29.505,15.925,425,408,374,412,396,2025-05-28T17:21:52.020554
17878,-0.5436,0.5456,0.6822,-11.865,26.880,15.855,429,394,384,354,403,2025-05-28T17:21:52.020554
17879,-0.5344,0.5524,0.6822,-11.935,25.095,15.785,422,425,375,384,395,2025-05-28T17:21:52.020554
17880,-0.5329,0.5480,0.6754,-12.390,24.955,15.400,431,400,382,345,402,2025-05-28T17:21:52.020554
17881,-0.5266,0.5602,0.6778,-12.530,25.585,14.840,422,409,383,372,400,2025-05-28T17:21:52.020554
17882,-0.5197,0.5622,0.6705,-12.635,27.265,14.525,358,366,392,396,391,2025-05-28T17:21:52.020554
17883,-0.5246,0.5666,0.6769,-12.985,29.540,14.630,402,298,379,397,398,2025-05-28T17:21:52.020554
17884,-0.5431,0.5661,0.6852,-13.790,30.660,14.455,436,379,370,407,384,2025-05-28T17:21:52.020554
17885,-0.5558,0.5544,0.6934,-14.140,31.080,14.210,399,413,364,351,373,2025-05-28T17:21:52.020554
17886,-0.5627,0.5461,0.6969,-13.965,30.205,14.280,432,395,362,346,396,2025-05-28T17:21:52.020554
17887,-0.5763,0.5378,0.6998,-13.440,29.085,14.245,371,337,375,394,407,2025-05-28T17:21:52.020554
17888,-0.5949,0.5300,0.7003,-12.635,26.985,14.035,400,390,344,362,365,2025-05-28T17:21:52.020554
17889,-0.6090,0.5231,0.7100,-11.760,23.135,13.650,412,421,357,381,398,2025-05-28T17:21:52.020554
17890,-0.6139,0.5241,0.7169,-10.815,19.600,13.370,411,424,378,402,397,2025-05-28T17:21:52.020554
17891,-0.6037,0.5241,0.7193,-10.220,15.575,13.020,440,399,378,414,365,2025-05-28T17:21:52.020554
17892,-0.5924,0.5251,0.7222,-9.835,12.810,12.600,412,374,388,422,390,2025-05-28T17:21:52.020554
17893,-0.5724,0.5285,0.7242,-9.730,11.130,12.320,443,386,395,413,411,2025-05-28T17:21:52.020554
17894,-0.5568,0.5270,0.7252,-9.905,10.430,12.215,359,334,390,403,392,2025-05-28T17:21:52.020554
17895,-0.5461,0.5202,0.7222,-9.940,10.535,12.040,362,403,390,411,398,2025-05-28T17:21:52.020554
17896,-0.5422,0.5251,0.7276,-9.765,10.920,11.515,430,427,381,409,379,2025-05-28T17:21:52.020554
17897,-0.5441,0.5192,0.7310,-9.905,11.130,10.745,360,379,378,360,382,2025-05-28T17:21:52.020554
17898,-0.5592,0.5104,0.7300,-9.450,10.045,8.995,410,422,352,385,380,2025-05-28T17:21:52.020554
17899,-0.5675,0.5007,0.7310,-8.120,7.980,7.210,317,414,296,398,386,2025-05-28T17:21:52.020554
17900,-0.5734,0.5007,0.7330,-6.720,5.215,5.810,395,413,345,409,392,2025-05-28T17:21:52.020554
17901,-0.5778,0.4987,0.7315,-5.110,3.045,4.900,406,364,369,407,387,2025-05-28T17:21:52.020554
17902,-0.5793,0.4992,0.7310,-3.430,-0.070,4.200,428,396,374,368,404,2025-05-28T17:21:52.020554
17903,-0.5710,0.4987,0.7266,-1.820,-2.065,3.920,425,336,381,390,401,2025-05-28T17:21:52.020554
17904,-0.5719,0.5002,0.7242,-0.735,-3.150,3.010,417,331,391,403,388,2025-05-28T17:21:52.020554
17905,-0.5797,0.4982,0.7247,-0.245,-4.165,1.785,433,395,380,351,388,2025-05-28T17:21:52.168727
17906,-0.5754,0.4973,0.7237,0.070,-5.775,0.665,426,418,347,395,396,2025-05-28T17:21:52.168727
17907,-0.5690,0.4904,0.7291,-0.035,-7.490,0.035,439,432,331,405,400,2025-05-28T17:21:52.168727
17908,-0.5597,0.4885,0.7320,-0.035,-8.750,-0.490,376,306,362,414,351,2025-05-28T17:21:52.168727
17909,-0.5539,0.4943,0.7261,0.210,-9.870,-1.260,422,408,364,403,327,2025-05-28T17:21:52.168727
17910,-0.5446,0.5075,0.7183,0.490,-10.185,-2.450,440,414,373,389,322,2025-05-28T17:21:52.168727
17911,-0.5344,0.5222,0.7115,0.735,-9.380,-4.270,446,416,379,405,368,2025-05-28T17:21:52.168727
17912,-0.5256,0.5344,0.7105,1.015,-8.610,-6.020,446,422,375,409,379,2025-05-28T17:21:52.168727
17913,-0.5275,0.5378,0.7071,0.700,-7.490,-7.245,435,346,337,415,338,2025-05-28T17:21:52.168727
17914,-0.5192,0.5353,0.7139,0.175,-6.405,-8.435,423,409,361,401,324,2025-05-28T17:21:52.168727
17915,-0.5114,0.5314,0.7174,-0.280,-5.285,-8.645,390,341,370,418,386,2025-05-28T17:21:52.168727
17916,-0.4997,0.5275,0.7188,-0.595,-4.725,-7.490,429,399,374,421,382,2025-05-28T17:21:52.168727
17917,-0.4924,0.5192,0.7208,-0.490,-4.935,-5.075,443,420,378,423,375,2025-05-28T17:21:52.168727
17918,-0.4904,0.5148,0.7178,0.000,-5.985,-2.870,408,385,375,411,387,2025-05-28T17:21:52.168727
17919,-0.4875,0.5070,0.7178,1.120,-7.490,-0.525,422,353,378,355,408,2025-05-28T17:21:52.168727
17920,-0.4880,0.5026,0.7174,2.065,-8.645,0.910,425,416,338,343,350,2025-05-28T17:21:52.271434
17921,-0.4924,0.4924,0.7188,3.220,-9.485,0.980,413,396,288,341,383,2025-05-28T17:21:52.271434
17922,-0.4900,0.4934,0.7169,4.060,-10.360,-0.210,417,413,338,403,394,2025-05-28T17:21:52.271434
17923,-0.4924,0.4900,0.7149,4.655,-10.850,-1.260,409,430,325,394,396,2025-05-28T17:21:52.271434
17924,-0.4948,0.4900,0.7183,5.040,-11.235,-2.905,399,422,369,406,413,2025-05-28T17:21:52.271434
17925,-0.5017,0.4846,0.7139,5.565,-11.515,-5.320,428,304,337,404,376,2025-05-28T17:21:52.271434
17926,-0.5129,0.4792,0.7183,5.740,-12.040,-8.120,434,354,336,413,400,2025-05-28T17:21:52.271434
17927,-0.5187,0.4748,0.7281,6.160,-13.090,-11.060,423,401,353,416,392,2025-05-28T17:21:52.271434
17928,-0.5207,0.4709,0.7315,6.370,-14.315,-13.300,413,340,322,408,355,2025-05-28T17:21:52.271434
17929,-0.5222,0.4675,0.7340,6.475,-15.715,-14.910,418,334,366,352,376,2025-05-28T17:21:52.521326
17930,-0.5183,0.4709,0.7403,6.650,-16.870,-15.190,316,411,372,395,393,2025-05-28T17:21:52.521326
17931,-0.5148,0.4758,0.7462,6.265,-17.465,-14.910,397,411,386,405,410,2025-05-28T17:21:52.521326
17932,-0.5075,0.4782,0.7544,5.320,-17.535,-14.035,414,426,382,374,355,2025-05-28T17:21:52.521326
17933,-0.5036,0.4802,0.7588,4.305,-17.290,-12.810,355,415,382,342,399,2025-05-28T17:21:52.521326
17934,-0.4987,0.4817,0.7549,3.465,-17.010,-11.585,410,428,358,383,412,2025-05-28T17:21:52.521326
17935,-0.4992,0.4802,0.7549,2.870,-16.625,-10.465,424,429,376,397,409,2025-05-28T17:21:52.521326
17936,-0.4953,0.4782,0.7584,2.590,-16.590,-9.765,415,394,388,371,348,2025-05-28T17:21:52.521326
17937,-0.4895,0.4782,0.7618,2.555,-17.255,-9.205,434,419,382,388,347,2025-05-28T17:21:52.521326
17938,-0.4860,0.4821,0.7613,2.660,-17.920,-9.065,431,416,391,379,331,2025-05-28T17:21:52.521326
17939,-0.4807,0.4860,0.7647,2.800,-18.585,-9.485,433,429,393,395,386,2025-05-28T17:21:52.531883
17940,-0.4851,0.4919,0.7637,2.870,-19.110,-10.710,375,420,399,388,309,2025-05-28T17:21:52.531883
17941,-0.4885,0.4934,0.7676,3.045,-19.950,-12.285,427,412,399,384,331,2025-05-28T17:21:52.531883
17942,-0.4909,0.4939,0.7720,3.430,-21.595,-13.335,357,399,374,366,326,2025-05-28T17:21:52.531883
17943,-0.4958,0.4831,0.7759,4.165,-24.430,-14.245,426,371,339,403,363,2025-05-28T17:21:52.532556
17944,-0.4885,0.4724,0.7813,5.460,-28.245,-14.175,433,413,356,414,386,2025-05-28T17:21:52.532556
17945,-0.4763,0.4660,0.7881,6.580,-31.570,-13.790,440,420,344,401,401,2025-05-28T17:21:52.532918
17946,-0.4670,0.4621,0.7920,8.295,-32.970,-13.965,416,393,366,407,413,2025-05-28T17:21:52.533025
17947,-0.4529,0.4743,0.7886,9.800,-33.215,-14.210,406,404,383,421,421,2025-05-28T17:21:52.533025
17948,-0.4426,0.4831,0.7823,11.025,-31.325,-15.085,354,416,348,415,409,2025-05-28T17:21:52.533395
17949,-0.4368,0.4973,0.7735,11.830,-27.755,-16.065,400,423,375,404,362,2025-05-28T17:21:52.718946
17950,-0.4431,0.4997,0.7686,12.495,-24.150,-17.080,433,413,366,387,387,2025-05-28T17:21:52.718946
17951,-0.4514,0.5012,0.7608,12.600,-22.015,-17.150,427,413,377,386,409,2025-05-28T17:21:52.718946
17952,-0.4519,0.5031,0.7588,12.635,-21.245,-16.065,437,430,378,408,401,2025-05-28T17:21:52.718946
17953,-0.4538,0.5007,0.7579,12.635,-21.315,-13.930,418,429,381,387,401,2025-05-28T17:21:52.718946
17954,-0.4592,0.4973,0.7603,12.950,-21.805,-11.795,357,396,391,397,394,2025-05-28T17:21:52.719856
17955,-0.4524,0.5012,0.7510,13.370,-22.505,-10.220,354,422,356,372,408,2025-05-28T17:21:52.719856
17956,-0.4470,0.5090,0.7383,14.035,-22.190,-8.890,425,416,365,406,413,2025-05-28T17:21:52.719856
17957,-0.4407,0.5241,0.7281,14.350,-21.070,-7.840,416,412,334,419,417,2025-05-28T17:21:52.719856
17958,-0.4353,0.5402,0.7296,13.895,-19.390,-6.930,436,432,289,424,414,2025-05-28T17:21:52.719856
17959,-0.4353,0.5446,0.7344,13.055,-17.990,-5.600,436,384,336,415,416,2025-05-28T17:21:52.719856
17960,-0.4455,0.5417,0.7403,12.075,-17.465,-4.585,367,409,366,404,400,2025-05-28T17:21:52.719856
17961,-0.4602,0.5295,0.7432,11.305,-17.675,-4.025,382,411,365,409,402,2025-05-28T17:21:52.719856
17962,-0.4758,0.5202,0.7452,10.780,-19.285,-3.780,426,416,380,409,400,2025-05-28T17:21:52.719856
17963,-0.4631,0.5109,0.7437,10.815,-21.035,-2.975,378,394,345,393,406,2025-05-28T17:21:52.719856
17964,-0.4455,0.5144,0.7442,10.815,-21.140,-2.030,413,407,366,352,412,2025-05-28T17:21:52.719856
17965,-0.4314,0.5183,0.7442,10.710,-20.055,-1.400,382,344,346,375,409,2025-05-28T17:21:52.985395
17966,-0.4153,0.5246,0.7374,10.255,-18.445,-1.225,404,390,360,385,397,2025-05-28T17:21:52.985395
17967,-0.4046,0.5373,0.7374,9.870,-15.995,-1.400,437,405,376,391,416,2025-05-28T17:21:52.985395
17968,-0.4036,0.5363,0.7437,9.100,-14.070,-1.610,410,434,372,414,405,2025-05-28T17:21:52.985395
17969,-0.4060,0.5329,0.7510,8.085,-12.845,-1.715,418,428,372,420,418,2025-05-28T17:21:52.985395
17970,-0.4026,0.5305,0.7564,7.455,-12.705,-1.680,413,414,335,419,394,2025-05-28T17:21:52.985395
17971,-0.4041,0.5270,0.7515,7.035,-12.495,-1.540,430,427,360,365,403,2025-05-28T17:21:52.985395
17972,-0.3992,0.5270,0.7462,7.105,-12.005,-1.715,413,398,377,380,397,2025-05-28T17:21:52.985395
17973,-0.3928,0.5290,0.7442,6.965,-11.620,-1.820,428,346,306,385,386,2025-05-28T17:21:52.985395
17974,-0.3841,0.5344,0.7462,6.755,-10.430,-2.100,416,377,340,350,406,2025-05-28T17:21:52.985395
17975,-0.3953,0.5275,0.7535,6.055,-9.380,-2.415,434,373,348,395,399,2025-05-28T17:21:52.985395
17976,-0.3963,0.5241,0.7598,5.425,-9.765,-3.010,431,413,364,409,399,2025-05-28T17:21:52.985395
17977,-0.3972,0.5187,0.7647,4.935,-10.500,-3.220,434,426,368,308,356,2025-05-28T17:21:52.985395
17978,-0.3924,0.5134,0.7657,4.725,-11.795,-3.325,425,426,372,378,339,2025-05-28T17:21:52.985395
17979,-0.3841,0.5070,0.7642,5.110,-12.775,-3.430,413,393,380,359,367,2025-05-28T17:21:52.985395
17980,-0.3694,0.5056,0.7593,5.845,-12.950,-3.745,402,399,381,405,379,2025-05-28T17:21:52.985395
17981,-0.3611,0.5158,0.7574,6.300,-11.585,-4.585,420,426,386,412,356,2025-05-28T17:21:52.985395
17982,-0.3626,0.5246,0.7584,6.405,-9.625,-6.195,378,414,384,353,376,2025-05-28T17:21:52.985395
17983,-0.3699,0.5305,0.7623,5.985,-7.805,-7.770,353,420,339,376,360,2025-05-28T17:21:52.985395
17984,-0.3772,0.5270,0.7647,5.635,-7.455,-9.345,377,406,362,409,375,2025-05-28T17:21:52.985395
17985,-0.3826,0.5187,0.7662,5.635,-8.225,-10.290,413,424,384,353,385,2025-05-28T17:21:53.085882
17986,-0.3889,0.5129,0.7632,6.160,-9.520,-10.780,416,438,360,396,382,2025-05-28T17:21:53.085882
17987,-0.3826,0.5178,0.7569,6.755,-10.815,-10.955,425,404,334,415,379,2025-05-28T17:21:53.086852
17988,-0.3767,0.5285,0.7540,7.490,-11.025,-11.305,402,396,324,396,397,2025-05-28T17:21:53.086852
17989,-0.3699,0.5373,0.7510,7.840,-10.150,-11.655,421,391,348,363,392,2025-05-28T17:21:53.086852
17990,-0.3719,0.5456,0.7501,7.805,-8.855,-12.075,426,427,369,378,313,2025-05-28T17:21:53.086852
17991,-0.3797,0.5480,0.7510,7.490,-7.560,-12.530,408,368,329,331,315,2025-05-28T17:21:53.086852
17992,-0.3836,0.5588,0.7481,7.000,-6.335,-12.740,418,358,320,329,321,2025-05-28T17:21:53.086852
17993,-0.3924,0.5632,0.7388,6.650,-4.865,-12.635,437,401,349,325,359,2025-05-28T17:21:53.086852
17994,-0.4006,0.5714,0.7422,5.880,-4.375,-11.900,356,418,375,382,379,2025-05-28T17:21:53.086852
17995,-0.4060,0.5666,0.7457,4.795,-4.200,-10.955,346,426,307,402,400,2025-05-28T17:21:53.086852
17996,-0.4133,0.5622,0.7486,3.360,-4.900,-9.660,405,410,354,427,352,2025-05-28T17:21:53.186536
17997,-0.4192,0.5592,0.7452,2.205,-5.705,-8.715,431,419,377,393,383,2025-05-28T17:21:53.186536
17998,-0.4163,0.5568,0.7403,1.295,-6.230,-8.190,431,416,375,405,387,2025-05-28T17:21:53.186536
17999,-0.4148,0.5646,0.7369,0.140,-6.265,-8.015,434,358,378,354,401,2025-05-28T17:21:53.186536
18000,-0.4099,0.5671,0.7393,-1.015,-5.320,-7.980,433,409,369,392,413,2025-05-28T17:21:53.186536
18001,-0.4128,0.5661,0.7413,-2.205,-4.235,-7.840,416,423,371,408,367,2025-05-28T17:21:53.186536
18002,-0.4187,0.5680,0.7432,-3.535,-3.815,-7.525,414,418,376,414,365,2025-05-28T17:21:53.186536
18003,-0.4265,0.5607,0.7408,-4.165,-4.305,-6.895,407,398,351,409,391,2025-05-28T17:21:53.186536
18004,-0.4402,0.5534,0.7437,-4.480,-5.215,-6.265,434,416,373,416,405,2025-05-28T17:21:53.186536
18005,-0.4382,0.5436,0.7491,-4.130,-6.825,-5.285,355,405,340,401,349,2025-05-28T17:21:53.436906
18006,-0.4329,0.5383,0.7549,-3.710,-7.700,-4.445,416,428,365,344,383,2025-05-28T17:21:53.436906
18007,-0.4290,0.5319,0.7613,-3.535,-7.525,-4.235,433,411,362,379,406,2025-05-28T17:21:53.436906
18008,-0.4260,0.5256,0.7593,-3.220,-6.580,-4.690,435,408,366,391,394,2025-05-28T17:21:53.436906
18009,-0.4192,0.5241,0.7535,-3.045,-5.355,-5.075,386,408,375,396,412,2025-05-28T17:21:53.436906
18010,-0.4119,0.5251,0.7496,-2.975,-4.025,-5.355,393,405,363,393,410,2025-05-28T17:21:53.436906
18011,-0.4080,0.5324,0.7457,-3.045,-1.995,-5.215,402,432,376,350,393,2025-05-28T17:21:53.436906
18012,-0.4094,0.5334,0.7457,-3.290,-0.280,-4.585,431,395,365,398,398,2025-05-28T17:21:53.436906
18013,-0.4172,0.5285,0.7481,-3.465,0.805,-3.535,361,429,378,400,354,2025-05-28T17:21:53.436906
18014,-0.4285,0.5187,0.7525,-3.465,0.840,-2.660,415,404,388,412,333,2025-05-28T17:21:53.436906
18015,-0.4392,0.5178,0.7588,-3.080,-0.105,-2.275,427,416,352,397,323,2025-05-28T17:21:53.437907
18016,-0.4426,0.5158,0.7608,-2.905,-1.505,-2.555,410,413,370,391,321,2025-05-28T17:21:53.437907
18017,-0.4451,0.5129,0.7593,-2.765,-3.010,-3.500,418,433,381,388,320,2025-05-28T17:21:53.437907
18018,-0.4426,0.5056,0.7623,-2.695,-3.850,-4.515,391,432,387,387,358,2025-05-28T17:21:53.437907
18019,-0.4412,0.4948,0.7559,-2.520,-4.095,-5.250,428,373,376,396,350,2025-05-28T17:21:53.437907
18020,-0.4348,0.4948,0.7569,-2.485,-3.920,-5.495,422,389,382,373,367,2025-05-28T17:21:53.437907
18021,-0.4241,0.4963,0.7613,-2.835,-2.590,-5.040,430,391,377,405,379,2025-05-28T17:21:53.437907
18022,-0.4158,0.4992,0.7618,-3.675,-0.490,-4.200,413,399,378,356,402,2025-05-28T17:21:53.652568
18023,-0.4221,0.5026,0.7681,-4.550,1.470,-3.570,358,404,371,384,388,2025-05-28T17:21:53.652568
18024,-0.4319,0.5026,0.7662,-5.390,2.415,-3.570,366,397,381,406,393,2025-05-28T17:21:53.652568
18025,-0.4490,0.4997,0.7642,-5.845,2.800,-4.130,345,343,376,406,396,2025-05-28T17:21:53.652568
18026,-0.4656,0.4900,0.7676,-5.600,1.505,-5.075,348,413,374,372,407,2025-05-28T17:21:53.652568
18027,-0.4704,0.4831,0.7749,-5.110,-1.155,-5.845,421,423,369,380,407,2025-05-28T17:21:53.772463
18028,-0.4699,0.4826,0.7813,-4.865,-3.430,-6.755,431,410,371,388,410,2025-05-28T17:21:53.772463
18029,-0.4734,0.4851,0.7818,-4.830,-4.340,-7.910,446,376,382,394,414,2025-05-28T17:21:53.772463
18030,-0.4685,0.4846,0.7798,-4.760,-4.865,-8.680,433,400,374,413,408,2025-05-28T17:21:53.772463
18031,-0.4577,0.4851,0.7832,-4.725,-4.760,-8.680,432,356,385,411,394,2025-05-28T17:21:53.772463
18032,-0.4573,0.4778,0.7876,-4.830,-4.200,-8.155,439,385,384,402,400,2025-05-28T17:21:53.772463
18033,-0.4553,0.4719,0.7910,-4.655,-3.955,-7.630,440,348,356,392,410,2025-05-28T17:21:53.772463
18034,-0.4519,0.4651,0.7930,-4.375,-4.025,-7.140,381,376,367,400,416,2025-05-28T17:21:53.772463
18035,-0.4524,0.4597,0.7984,-3.885,-4.235,-7.070,372,411,376,417,408,2025-05-28T17:21:53.772463
18036,-0.4534,0.4582,0.7974,-3.080,-5.285,-6.965,389,415,380,416,412,2025-05-28T17:21:53.772463
18037,-0.4568,0.4553,0.7974,-2.205,-6.825,-7.560,430,426,395,404,413,2025-05-28T17:21:53.772463
18038,-0.4494,0.4538,0.7906,-0.910,-8.155,-8.365,427,406,387,408,372,2025-05-28T17:21:53.772463
18039,-0.4460,0.4534,0.7828,0.420,-8.750,-9.240,390,426,377,387,397,2025-05-28T17:21:53.772463
18040,-0.4319,0.4587,0.7784,1.365,-7.805,-9.765,427,396,336,403,345,2025-05-28T17:21:53.772463
18041,-0.4221,0.4690,0.7706,1.855,-5.950,-9.905,427,401,345,406,391,2025-05-28T17:21:53.772463
18042,-0.4216,0.4753,0.7593,1.855,-3.115,-9.870,414,407,360,404,370,2025-05-28T17:21:53.772463
18043,-0.4377,0.4826,0.7544,1.575,-1.015,-9.940,421,396,339,385,374,2025-05-28T17:21:53.772463
18044,-0.4529,0.4812,0.7496,1.470,0.280,-9.975,434,400,370,346,388,2025-05-28T17:21:53.772463
18045,-0.4685,0.4856,0.7476,1.540,0.000,-9.800,411,415,367,382,406,2025-05-28T17:21:53.772463
18046,-0.4792,0.4890,0.7496,1.505,-1.120,-9.065,361,392,341,386,377,2025-05-28T17:21:53.772463
18047,-0.4851,0.4846,0.7505,1.925,-2.450,-8.505,424,375,365,338,302,2025-05-28T17:21:53.772463
18048,-0.4890,0.4831,0.7540,2.310,-3.920,-8.120,445,414,381,392,379,2025-05-28T17:21:53.772463
18049,-0.4802,0.4812,0.7544,2.660,-4.655,-7.665,408,397,382,415,381,2025-05-28T17:21:53.918540
18050,-0.4651,0.4826,0.7574,3.150,-3.780,-7.175,425,389,383,416,345,2025-05-28T17:21:53.918540
18051,-0.4563,0.4831,0.7618,3.395,-1.645,-6.720,442,426,378,417,382,2025-05-28T17:21:53.918540
18052,-0.4577,0.4807,0.7623,3.465,0.210,-6.230,419,391,387,418,385,2025-05-28T17:21:53.918540
18053,-0.4631,0.4821,0.7647,3.395,2.590,-5.985,408,432,379,390,398,2025-05-28T17:21:53.918540
18054,-0.4690,0.4812,0.7671,3.535,4.620,-5.635,427,428,393,405,413,2025-05-28T17:21:53.918540
18055,-0.4787,0.4787,0.7730,3.535,5.285,-5.495,420,392,352,413,353,2025-05-28T17:21:53.918540
18056,-0.4929,0.4748,0.7754,3.605,4.760,-5.040,356,358,383,396,379,2025-05-28T17:21:53.918540
18057,-0.5075,0.4714,0.7862,3.465,2.625,-4.970,395,397,376,400,383,2025-05-28T17:21:53.918540
18058,-0.5202,0.4665,0.7945,3.500,-0.350,-5.005,430,435,385,408,391,2025-05-28T17:21:53.918540
18059,-0.5158,0.4621,0.7993,3.360,-3.430,-4.830,412,392,346,413,383,2025-05-28T17:21:53.918540
18060,-0.5031,0.4592,0.7950,3.220,-5.355,-4.270,414,412,337,395,402,2025-05-28T17:21:53.918540
18061,-0.4919,0.4509,0.7940,3.360,-5.705,-3.360,435,419,350,392,412,2025-05-28T17:21:53.918540
18062,-0.4900,0.4460,0.7920,3.430,-4.725,-3.010,407,418,356,338,405,2025-05-28T17:21:53.918540
18063,-0.4851,0.4392,0.7920,3.360,-3.500,-2.870,413,422,375,381,397,2025-05-28T17:21:53.918540
18064,-0.4821,0.4368,0.7945,3.220,-2.660,-2.625,412,413,378,384,414,2025-05-28T17:21:53.918540
18065,-0.4900,0.4358,0.7950,3.080,-2.485,-2.625,439,404,382,348,411,2025-05-28T17:21:54.001846
18066,-0.4919,0.4382,0.7930,2.940,-3.325,-3.080,414,415,371,387,394,2025-05-28T17:21:54.001846
18067,-0.4890,0.4412,0.7871,3.325,-4.830,-3.430,429,397,368,361,400,2025-05-28T17:21:54.001846
18068,-0.4875,0.4480,0.7832,3.605,-6.580,-4.165,384,392,301,394,313,2025-05-28T17:21:54.001846
18069,-0.4807,0.4524,0.7823,4.095,-8.400,-4.690,423,423,336,406,358,2025-05-28T17:21:54.001846
18070,-0.4787,0.4621,0.7837,4.550,-9.800,-5.530,399,393,357,412,395,2025-05-28T17:21:54.001846
18071,-0.4729,0.4709,0.7852,4.725,-10.955,-6.125,405,386,384,373,391,2025-05-28T17:21:54.001846
18072,-0.4685,0.4724,0.7842,4.725,-11.200,-6.790,418,393,387,371,391,2025-05-28T17:21:54.001846
18073,-0.4592,0.4787,0.7823,4.935,-11.025,-7.280,436,365,392,409,392,2025-05-28T17:21:54.420098
18074,-0.4592,0.4768,0.7730,5.530,-10.675,-7.700,424,413,391,394,349,2025-05-28T17:21:54.420098
18075,-0.4646,0.4782,0.7715,6.055,-10.115,-8.330,410,402,341,391,383,2025-05-28T17:21:54.421095
18076,-0.4724,0.4807,0.7701,6.790,-10.185,-9.065,425,403,357,389,385,2025-05-28T17:21:54.421095
18077,-0.4748,0.4870,0.7647,7.595,-10.465,-9.520,419,414,335,402,364,2025-05-28T17:21:54.421095
18078,-0.4753,0.4904,0.7627,8.085,-10.885,-9.625,445,402,331,398,379,2025-05-28T17:21:54.421095
18079,-0.4709,0.4875,0.7637,8.435,-11.270,-9.485,408,417,357,409,393,2025-05-28T17:21:54.421095
18080,-0.4631,0.4978,0.7598,8.750,-11.480,-8.995,401,390,381,414,388,2025-05-28T17:21:54.421095
18081,-0.4543,0.4987,0.7525,8.960,-11.095,-8.750,406,420,378,417,399,2025-05-28T17:21:54.421095
18082,-0.4538,0.5070,0.7447,9.450,-10.010,-8.995,407,418,341,390,385,2025-05-28T17:21:54.421095
18083,-0.4509,0.5144,0.7413,9.765,-8.855,-9.170,437,432,372,405,397,2025-05-28T17:21:54.421095
18084,-0.4504,0.5207,0.7408,9.660,-7.770,-9.065,441,426,369,406,416,2025-05-28T17:21:54.421095
18085,-0.4538,0.5217,0.7408,9.450,-6.825,-9.135,410,429,373,405,414,2025-05-28T17:21:54.421095
18086,-0.4577,0.5217,0.7418,9.100,-6.755,-9.065,438,356,376,310,392,2025-05-28T17:21:54.421095
18087,-0.4534,0.5222,0.7457,8.505,-7.070,-8.610,380,410,385,362,400,2025-05-28T17:21:54.421095
18088,-0.4534,0.5246,0.7413,7.945,-7.420,-8.085,413,397,393,377,394,2025-05-28T17:21:54.421095
18089,-0.4592,0.5261,0.7388,7.490,-7.630,-7.805,432,419,377,377,404,2025-05-28T17:21:54.421095
18090,-0.4714,0.5187,0.7398,6.895,-7.980,-7.945,385,422,388,349,400,2025-05-28T17:21:54.421095
18091,-0.4714,0.5168,0.7408,6.230,-8.610,-7.910,387,416,395,389,409,2025-05-28T17:21:54.421095
18092,-0.4738,0.5124,0.7383,5.810,-8.960,-7.770,417,402,383,379,351,2025-05-28T17:21:54.421095
18093,-0.4758,0.5095,0.7359,5.285,-8.645,-7.560,391,390,380,341,325,2025-05-28T17:21:54.566207
18094,-0.4773,0.5022,0.7369,4.970,-8.155,-7.245,396,414,379,373,371,2025-05-28T17:21:54.566785
18095,-0.4821,0.5026,0.7379,4.550,-7.385,-6.755,415,423,376,381,381,2025-05-28T17:21:54.566785
18096,-0.4792,0.5051,0.7354,3.955,-6.370,-5.880,437,402,374,364,355,2025-05-28T17:21:54.566785
18097,-0.4802,0.5061,0.7393,3.395,-5.390,-5.180,403,398,379,380,389,2025-05-28T17:21:54.566785
18098,-0.4807,0.5036,0.7418,2.800,-4.760,-4.095,399,400,384,342,405,2025-05-28T17:21:54.566785
18099,-0.4778,0.4978,0.7427,2.555,-4.690,-3.395,425,410,388,384,398,2025-05-28T17:21:54.566785
18100,-0.4743,0.4963,0.7432,2.660,-4.655,-3.045,363,394,394,414,347,2025-05-28T17:21:54.567787
18101,-0.4802,0.4919,0.7418,2.870,-4.795,-3.185,416,424,392,413,386,2025-05-28T17:21:54.567787
18102,-0.4719,0.4909,0.7383,3.220,-5.005,-3.185,433,403,383,395,395,2025-05-28T17:21:54.567787
18103,-0.4675,0.4982,0.7369,3.325,-4.235,-3.255,416,407,395,405,351,2025-05-28T17:21:54.568239
18104,-0.4616,0.4992,0.7379,3.150,-2.625,-3.325,414,344,396,396,337,2025-05-28T17:21:54.568239
18105,-0.4602,0.5022,0.7388,2.625,-1.190,-3.535,403,382,383,407,358,2025-05-28T17:21:54.568239
18106,-0.4626,0.5022,0.7388,1.995,0.280,-3.780,407,412,394,395,390,2025-05-28T17:21:54.568239
18107,-0.4719,0.4987,0.7403,1.400,0.805,-3.815,384,399,346,346,348,2025-05-28T17:21:54.568239
18108,-0.4826,0.4875,0.7462,1.190,-0.245,-3.675,379,412,360,394,380,2025-05-28T17:21:54.568239
18109,-0.4802,0.4895,0.7476,1.295,-2.135,-3.290,407,400,349,397,401,2025-05-28T17:21:54.568239
18110,-0.4782,0.5007,0.7462,1.260,-2.730,-3.360,426,425,367,400,376,2025-05-28T17:21:54.569235
18111,-0.4787,0.5007,0.7437,1.505,-2.835,-3.570,391,409,336,408,380,2025-05-28T17:21:54.569235
18112,-0.4778,0.5022,0.7476,1.575,-3.115,-4.095,375,412,357,398,382,2025-05-28T17:21:54.569235
18113,-0.4778,0.5022,0.7515,1.540,-3.080,-4.480,436,400,362,418,384,2025-05-28T17:21:54.569235
18114,-0.4778,0.4982,0.7510,1.225,-3.185,-4.515,398,357,363,415,388,2025-05-28T17:21:54.622381
18115,-0.4714,0.4982,0.7476,1.015,-2.835,-4.550,434,391,365,417,381,2025-05-28T17:21:54.622381
18116,-0.4724,0.4963,0.7452,0.700,-2.240,-4.480,414,414,388,419,377,2025-05-28T17:21:54.622381
18117,-0.4729,0.4948,0.7447,0.525,-1.540,-4.340,425,412,375,418,387,2025-05-28T17:21:54.622381
18118,-0.4743,0.4953,0.7447,0.490,-1.015,-4.200,433,399,371,414,363,2025-05-28T17:21:54.623381
18119,-0.4821,0.4958,0.7466,0.420,-0.630,-4.270,418,347,335,386,386,2025-05-28T17:21:54.623381
18120,-0.4875,0.5007,0.7505,0.280,-0.595,-4.340,435,331,354,412,404,2025-05-28T17:21:54.623381
18121,-0.4963,0.4992,0.7510,0.105,-1.470,-4.445,423,383,374,423,412,2025-05-28T17:21:54.623381
18122,-0.5007,0.4963,0.7491,0.140,-2.870,-4.095,418,421,390,412,395,2025-05-28T17:21:54.623381
18123,-0.4982,0.4924,0.7452,0.175,-4.130,-3.780,359,432,384,349,404,2025-05-28T17:21:54.623381
18124,-0.4904,0.4919,0.7398,0.315,-4.620,-3.220,411,429,392,386,417,2025-05-28T17:21:54.623381
18125,-0.4870,0.4890,0.7379,0.035,-4.165,-3.010,432,413,388,391,411,2025-05-28T17:21:54.723585
18126,-0.4895,0.4934,0.7349,-0.350,-2.975,-2.975,433,434,391,396,397,2025-05-28T17:21:54.723585
18127,-0.4880,0.4948,0.7364,-0.770,-1.960,-2.730,443,421,388,405,398,2025-05-28T17:21:54.723585
18128,-0.4875,0.5026,0.7330,-1.225,-1.050,-2.065,442,426,385,410,392,2025-05-28T17:21:54.723585
18129,-0.4895,0.5022,0.7393,-1.890,-0.525,-0.945,381,430,396,353,389,2025-05-28T17:21:54.723585
18130,-0.4924,0.5002,0.7398,-2.380,-0.490,-0.280,415,418,397,402,415,2025-05-28T17:21:54.723585
18131,-0.4978,0.4978,0.7462,-2.695,-1.435,0.420,423,431,379,393,412,2025-05-28T17:21:54.723585
18132,-0.5056,0.4968,0.7515,-2.835,-3.045,0.595,414,435,387,411,357,2025-05-28T17:21:54.723585
18133,-0.5051,0.4900,0.7540,-2.695,-5.005,0.385,413,430,390,369,369,2025-05-28T17:21:54.823536
18134,-0.4958,0.4860,0.7549,-2.135,-5.950,0.280,438,402,390,399,397,2025-05-28T17:21:54.823536
18135,-0.4909,0.4860,0.7588,-1.645,-5.950,0.070,428,421,379,406,370,2025-05-28T17:21:54.823536
18136,-0.4812,0.4895,0.7598,-1.505,-4.690,-0.105,435,426,350,399,341,2025-05-28T17:21:54.823536
18137,-0.4719,0.4934,0.7632,-1.575,-3.080,0.245,443,406,365,414,393,2025-05-28T17:21:54.823536
18138,-0.4753,0.4904,0.7642,-1.505,-1.540,0.805,424,422,371,402,389,2025-05-28T17:21:54.823536
18139,-0.4841,0.4904,0.7588,-1.155,-0.805,1.155,406,381,337,396,405,2025-05-28T17:21:54.823536
18140,-0.4953,0.4865,0.7598,-0.665,-0.875,1.155,425,412,367,415,392,2025-05-28T17:21:54.823536
18141,-0.5090,0.4836,0.7613,-0.070,-1.925,0.875,436,414,380,418,405,2025-05-28T17:21:54.823536
18142,-0.5114,0.4821,0.7598,0.420,-3.290,0.805,364,416,349,413,393,2025-05-28T17:21:54.969434
18143,-0.5075,0.4870,0.7579,0.735,-4.375,1.120,350,414,340,364,357,2025-05-28T17:21:54.969434
18144,-0.4982,0.4890,0.7574,0.630,-4.830,1.820,420,378,374,358,393,2025-05-28T17:21:54.969434
18145,-0.4948,0.4885,0.7496,0.455,-4.620,2.310,410,395,366,391,394,2025-05-28T17:21:54.969434
18146,-0.4860,0.4821,0.7432,0.490,-4.165,3.010,429,342,364,400,366,2025-05-28T17:21:54.969434
18147,-0.4768,0.4846,0.7422,0.385,-3.360,3.815,394,401,365,345,382,2025-05-28T17:21:54.969434
18148,-0.4743,0.4904,0.7418,0.175,-2.485,4.305,437,388,349,381,375,2025-05-28T17:21:54.969434
18149,-0.4758,0.4934,0.7408,-0.210,-1.190,4.060,417,414,337,385,397,2025-05-28T17:21:54.969434
18150,-0.4870,0.4924,0.7413,-0.455,-0.595,3.360,356,362,368,418,405,2025-05-28T17:21:54.969434
18151,-0.4875,0.4948,0.7379,-0.665,-0.700,2.940,408,369,361,386,416,2025-05-28T17:21:54.969434
18152,-0.4890,0.4875,0.7447,-0.630,-1.190,2.695,439,405,362,404,355,2025-05-28T17:21:54.969434
18153,-0.4890,0.4924,0.7398,-0.595,-2.065,2.625,413,406,371,388,383,2025-05-28T17:21:54.969434
18154,-0.4870,0.4924,0.7393,-0.595,-3.080,2.625,441,422,374,412,404,2025-05-28T17:21:55.135262
18155,-0.4841,0.4939,0.7422,-0.525,-3.430,2.765,395,419,376,400,410,2025-05-28T17:21:55.135262
18156,-0.4763,0.4948,0.7442,-0.735,-3.150,2.975,419,426,381,413,393,2025-05-28T17:21:55.135262
18157,-0.4714,0.4968,0.7427,-1.085,-2.485,3.745,405,422,358,420,412,2025-05-28T17:21:55.135262
18158,-0.4714,0.4958,0.7383,-1.330,-0.875,4.235,406,427,362,405,399,2025-05-28T17:21:55.135262
18159,-0.4753,0.4963,0.7320,-1.260,0.665,4.760,425,425,369,416,354,2025-05-28T17:21:55.135262
18160,-0.4812,0.5022,0.7315,-1.155,2.100,5.250,437,423,362,420,383,2025-05-28T17:21:55.135262
18161,-0.4865,0.5036,0.7325,-1.365,2.485,5.985,409,410,368,420,408,2025-05-28T17:21:55.135262
18162,-0.4909,0.5095,0.7354,-1.575,2.310,6.475,408,427,337,396,411,2025-05-28T17:21:55.135262
18163,-0.4895,0.5124,0.7383,-1.890,1.645,7.280,429,430,323,402,405,2025-05-28T17:21:55.135262
18164,-0.4865,0.5139,0.7398,-1.960,0.910,7.595,426,442,318,354,409,2025-05-28T17:21:55.135262
18165,-0.4831,0.5187,0.7349,-1.960,0.525,7.595,423,409,310,405,399,2025-05-28T17:21:55.135262
18166,-0.4758,0.5226,0.7305,-1.925,0.840,6.755,415,423,349,401,398,2025-05-28T17:21:55.135262
18167,-0.4734,0.5275,0.7310,-1.995,1.575,5.810,439,346,363,404,312,2025-05-28T17:21:55.135262
18168,-0.4758,0.5266,0.7320,-2.170,1.925,4.200,436,367,377,402,376,2025-05-28T17:21:55.349232
18169,-0.4807,0.5173,0.7374,-2.765,0.910,2.555,365,405,368,415,390,2025-05-28T17:21:55.349466
18170,-0.4909,0.5124,0.7432,-3.045,-0.980,2.135,355,395,365,418,366,2025-05-28T17:21:55.349466
18171,-0.4831,0.5114,0.7413,-3.185,-3.640,1.715,382,393,372,316,387,2025-05-28T17:21:55.349466
18172,-0.4763,0.5129,0.7379,-3.220,-5.110,1.120,418,414,345,365,407,2025-05-28T17:21:55.349466
18173,-0.4787,0.5187,0.7383,-3.325,-5.215,0.280,411,414,379,398,363,2025-05-28T17:21:55.349466
18174,-0.4690,0.5100,0.7457,-3.255,-4.340,-0.140,421,425,381,400,343,2025-05-28T17:21:55.349466
18175,-0.4646,0.5241,0.7393,-3.885,-2.450,0.140,411,426,387,388,355,2025-05-28T17:21:55.349466
18176,-0.4665,0.4875,0.7354,-4.760,-0.525,2.345,429,421,342,386,377,2025-05-28T17:21:55.350347
18177,-0.4958,0.5153,0.7374,-3.850,-1.785,0.595,360,386,334,354,359,2025-05-28T17:21:55.500252
18178,-0.5226,0.4924,0.7632,-1.925,-3.395,0.525,392,390,329,383,384,2025-05-28T17:21:55.500252
18179,-0.5285,0.4846,0.7681,-0.840,-5.180,0.910,373,419,364,355,392,2025-05-28T17:21:55.500252
18180,-0.5285,0.4860,0.7774,1.015,-6.790,1.610,387,435,362,403,382,2025-05-28T17:21:55.500252
18181,-0.5309,0.4807,0.7842,2.310,-9.135,2.135,311,424,378,396,402,2025-05-28T17:21:55.500252
18182,-0.5270,0.4734,0.7891,3.885,-10.185,2.905,421,410,381,409,390,2025-05-28T17:21:55.500252
18183,-0.5241,0.4685,0.7823,5.530,-10.850,2.835,382,359,375,388,385,2025-05-28T17:21:55.500252
18184,-0.5178,0.4587,0.7808,7.420,-10.045,1.820,421,410,373,401,390,2025-05-28T17:21:55.500252
18185,-0.5109,0.4636,0.7808,8.925,-8.435,1.225,411,416,382,402,392,2025-05-28T17:21:55.587666
18186,-0.5070,0.4616,0.7793,9.905,-6.790,1.190,438,430,387,385,382,2025-05-28T17:21:55.587666
18187,-0.5095,0.4660,0.7793,10.675,-5.250,0.840,390,349,383,336,341,2025-05-28T17:21:55.587666
18188,-0.5212,0.4675,0.7759,10.885,-4.760,0.455,406,412,387,377,384,2025-05-28T17:21:55.587666
18189,-0.5363,0.4660,0.7798,11.375,-5.845,-0.105,429,397,389,402,386,2025-05-28T17:21:55.587666
18190,-0.5373,0.4695,0.7735,12.110,-8.925,-0.140,427,405,371,402,346,2025-05-28T17:21:55.587666
18191,-0.5339,0.4773,0.7740,13.090,-13.230,-0.070,442,414,340,349,388,2025-05-28T17:21:55.587666
18192,-0.5222,0.4851,0.7706,13.755,-16.205,0.105,395,410,333,374,397,2025-05-28T17:21:55.587666
18193,-0.4992,0.5002,0.7725,14.070,-17.255,0.525,422,364,355,389,413,2025-05-28T17:21:55.587666
18194,-0.4987,0.5109,0.7774,13.790,-16.870,1.645,408,393,362,369,396,2025-05-28T17:21:55.587666
18195,-0.4821,0.5348,0.7706,13.580,-15.260,0.910,415,400,374,395,409,2025-05-28T17:21:55.587666
18196,-0.4792,0.5353,0.7652,13.685,-13.125,1.470,430,404,370,349,404,2025-05-28T17:21:55.587666
18197,-0.4934,0.5431,0.7588,13.790,-11.795,2.660,406,423,366,356,408,2025-05-28T17:21:55.587666
18198,-0.5061,0.5495,0.7559,14.105,-12.565,3.990,412,425,382,349,397,2025-05-28T17:21:55.587666
18199,-0.5075,0.5495,0.7554,14.280,-14.525,5.565,412,406,385,327,397,2025-05-28T17:21:55.587666
18200,-0.5036,0.5514,0.7549,13.965,-17.150,7.945,425,418,379,380,368,2025-05-28T17:21:55.587666
18201,-0.4846,0.5617,0.7530,13.720,-20.090,10.220,435,417,388,340,395,2025-05-28T17:21:55.587666
18202,-0.4548,0.5661,0.7383,13.160,-21.525,13.230,435,430,395,396,411,2025-05-28T17:21:55.775447
18203,-0.4250,0.5758,0.7276,12.635,-20.440,15.155,425,416,396,408,397,2025-05-28T17:21:55.775447
18204,-0.3987,0.5797,0.7198,12.005,-17.640,16.135,408,351,345,400,409,2025-05-28T17:21:55.775447
18205,-0.3967,0.5856,0.7300,10.675,-14.630,16.205,411,395,361,397,407,2025-05-28T17:21:55.775447
18206,-0.3953,0.5822,0.7379,8.960,-13.440,16.450,430,418,337,384,413,2025-05-28T17:21:55.775447
18207,-0.3880,0.5719,0.7388,7.945,-14.350,16.660,431,404,369,401,387,2025-05-28T17:21:55.775447
18208,-0.3733,0.5568,0.7330,7.175,-15.225,16.730,426,360,367,411,386,2025-05-28T17:21:55.775447
18209,-0.3553,0.5510,0.7271,6.685,-16.065,16.660,433,404,371,418,391,2025-05-28T17:21:55.775447
18210,-0.3353,0.5510,0.7247,6.720,-15.680,15.610,436,376,370,406,351,2025-05-28T17:21:55.775447
18211,-0.3162,0.5524,0.7222,6.055,-14.175,13.790,429,388,376,405,377,2025-05-28T17:21:55.775447
18212,-0.2908,0.5685,0.7227,5.320,-11.340,12.775,411,411,376,367,380,2025-05-28T17:21:55.775447
18213,-0.2791,0.5885,0.7266,3.815,-7.805,11.865,423,398,376,398,362,2025-05-28T17:21:55.775447
18214,-0.2801,0.5939,0.7369,1.890,-4.655,10.990,416,368,371,381,378,2025-05-28T17:21:55.775447
18215,-0.2816,0.5998,0.7549,0.280,-2.730,10.255,430,419,379,407,377,2025-05-28T17:21:55.775447
18216,-0.2816,0.6217,0.7657,-0.455,-2.765,10.010,437,420,377,389,382,2025-05-28T17:21:55.782089
18217,-0.2782,0.6310,0.7764,-0.875,-4.095,10.500,411,420,344,302,381,2025-05-28T17:21:55.782089
18218,-0.2694,0.6539,0.7857,-0.490,-7.070,10.885,397,402,355,381,405,2025-05-28T17:21:55.782089
18219,-0.2616,0.6681,0.7959,0.315,-10.080,11.235,401,420,339,399,407,2025-05-28T17:21:55.782581
18220,-0.2435,0.6876,0.7974,1.155,-13.685,11.410,419,421,361,411,405,2025-05-28T17:21:55.782581
18221,-0.2235,0.7027,0.7818,2.240,-15.890,11.270,399,412,364,369,399,2025-05-28T17:21:55.783323
18222,-0.2074,0.7232,0.7784,3.430,-16.625,10.500,436,389,373,388,413,2025-05-28T17:21:55.954375
18223,-0.1952,0.7447,0.7740,4.235,-16.590,9.765,410,424,379,391,413,2025-05-28T17:21:55.954375
18224,-0.1874,0.7818,0.7779,4.410,-17.045,9.380,429,425,377,398,417,2025-05-28T17:21:55.954375
18225,-0.1747,0.8198,0.7735,3.745,-17.885,9.485,434,354,339,389,417,2025-05-28T17:21:55.954375
18226,-0.1713,0.8569,0.7701,2.100,-18.935,9.170,414,399,363,398,412,2025-05-28T17:21:55.954375
18227,-0.1830,0.9350,0.7862,0.315,-21.420,6.475,420,366,348,409,411,2025-05-28T17:21:55.954375
18228,-0.1713,1.0433,0.8316,-1.190,-28.560,-0.315,406,422,295,414,396,2025-05-28T17:21:55.954375
18229,-0.1103,1.1732,0.9096,-2.590,-38.465,-9.660,384,382,352,394,404,2025-05-28T17:21:55.954375
18230,-0.0527,1.3898,0.9257,4.725,-53.130,-18.935,406,358,339,382,392,2025-05-28T17:21:55.954375
18231,0.1493,1.6338,0.8906,7.245,-76.335,-29.015,414,296,367,399,398,2025-05-28T17:21:55.954375
18232,0.2704,2.0813,0.9033,10.185,-100.695,-36.470,422,362,374,398,412,2025-05-28T17:21:55.954375
18233,0.3689,2.5844,0.8945,10.395,-132.300,-45.675,374,341,380,399,413,2025-05-28T17:21:55.954375
18234,0.4636,3.0568,0.7213,1.750,-174.055,-61.670,418,393,386,353,409,2025-05-28T17:21:55.954375
18235,0.6520,3.2452,0.4265,-16.310,-209.090,-80.815,431,423,381,381,387,2025-05-28T17:21:55.954375
18236,0.6320,3.2281,0.1845,-47.600,-242.025,-115.850,414,408,385,386,365,2025-05-28T17:21:55.954375
18237,0.3792,2.8099,0.1069,-83.685,-266.980,-153.230,424,300,388,350,333,2025-05-28T17:21:56.221723
18238,0.1645,2.4512,0.1366,-125.965,-309.155,-206.710,417,372,399,385,371,2025-05-28T17:21:56.221723
18239,-0.0395,1.8690,0.1430,-176.505,-359.905,-251.265,426,396,390,404,381,2025-05-28T17:21:56.221723
18240,-0.0146,1.1302,-0.0259,-232.365,-406.805,-276.325,432,403,385,397,378,2025-05-28T17:21:56.221723
18241,0.1688,0.2308,-0.2523,-263.760,-428.890,-270.970,368,393,369,394,348,2025-05-28T17:21:56.221723
18242,0.5817,-0.6442,-0.4597,-300.090,-400.365,-254.555,426,404,339,389,381,2025-05-28T17:21:56.221723
18243,1.2015,-1.3054,-0.3719,-340.060,-329.805,-229.810,439,392,325,408,384,2025-05-28T17:21:56.221723
18244,1.5460,-2.0677,-0.0688,-389.270,-188.300,-198.415,448,430,333,397,385,2025-05-28T17:21:56.222723
18245,1.4215,-2.9461,0.3201,-418.355,-29.960,-198.975,434,439,371,411,401,2025-05-28T17:21:56.222723
18246,0.9970,-3.7273,0.6315,-403.410,55.720,-202.300,444,425,377,408,394,2025-05-28T17:21:56.222723
18247,0.3104,-3.8518,1.2664,-330.575,68.705,-200.970,417,420,345,409,383,2025-05-28T17:21:56.222723
18248,-1.0790,-4.1226,0.6432,-315.245,68.705,-226.975,430,405,365,399,404,2025-05-28T17:21:56.222723
18249,-0.8916,-2.9880,0.2269,-100.765,-74.270,-216.895,412,378,367,414,366,2025-05-28T17:21:56.222723
18250,-0.2040,-1.8476,0.1288,103.880,-157.990,-135.415,396,404,382,415,375,2025-05-28T17:21:56.222723
18251,0.5671,-1.1629,0.4011,159.530,-163.765,25.795,416,356,349,404,401,2025-05-28T17:21:56.222723
18252,0.9004,-1.1336,0.5519,137.305,-48.405,173.565,423,383,356,374,351,2025-05-28T17:21:56.222723
18253,1.0326,-1.2615,0.6573,115.815,136.080,236.915,408,368,333,373,375,2025-05-28T17:21:56.406874
18254,0.6925,-1.5123,0.6778,132.650,214.445,238.245,412,396,362,404,392,2025-05-28T17:21:56.406874
18255,0.1806,-1.6241,0.6310,156.380,218.785,220.500,385,391,362,414,364,2025-05-28T17:21:56.406874
18256,-0.0947,-1.7046,0.5329,167.230,149.345,215.425,408,397,373,394,392,2025-05-28T17:21:56.406874
18257,0.0156,-1.6328,0.5812,174.580,78.540,217.210,367,401,377,392,406,2025-05-28T17:21:56.406874
18258,0.1752,-1.4669,0.6212,186.795,67.725,222.460,440,432,389,387,400,2025-05-28T17:21:56.406874
18259,0.3479,-1.2834,0.6725,189.735,86.940,223.055,439,342,379,381,398,2025-05-28T17:21:56.406874
18260,0.5510,-0.9262,0.6593,167.720,171.640,239.540,399,379,381,378,401,2025-05-28T17:21:56.406874
18261,0.4646,-0.7637,0.5841,139.440,273.595,275.275,425,417,342,362,416,2025-05-28T17:21:56.407404
18262,0.0571,-0.3187,0.6188,97.510,326.655,299.110,369,346,371,386,413,2025-05-28T17:21:56.407404
18263,-0.2450,-0.0376,0.6251,71.645,327.670,318.605,417,410,389,413,396,2025-05-28T17:21:56.407404
18264,-0.5207,0.2391,0.6310,51.625,295.050,319.865,417,419,377,392,346,2025-05-28T17:21:56.407404
18265,-0.5944,0.4509,0.6041,32.410,264.880,301.735,439,396,389,412,371,2025-05-28T17:21:56.407404
18266,-0.5549,0.5558,0.5544,18.095,237.930,278.460,439,398,382,415,394,2025-05-28T17:21:56.407404
18267,-0.5300,0.6329,0.5022,12.495,230.860,263.970,408,345,387,405,385,2025-05-28T17:21:56.407404
18268,-0.5173,0.8242,0.6734,10.220,228.200,227.640,432,396,350,415,387,2025-05-28T17:21:56.407404
18269,-0.4455,1.1122,0.9262,3.045,212.030,184.450,411,415,358,423,407,2025-05-28T17:21:56.407404
18270,-0.3899,1.2127,1.0795,-6.860,186.830,147.560,413,429,374,422,403,2025-05-28T17:21:56.407404
18271,-0.3157,1.1439,1.1161,-11.375,155.330,118.160,408,355,375,409,406,2025-05-28T17:21:56.581974
18272,-0.1771,1.1585,1.0507,-5.670,117.075,96.880,434,335,370,391,394,2025-05-28T17:21:56.581974
18273,-0.0825,1.1312,0.8525,2.065,97.650,82.565,415,391,378,356,365,2025-05-28T17:21:56.581974
18274,0.0322,1.1888,0.8101,6.930,90.370,69.860,438,402,336,395,383,2025-05-28T17:21:56.581974
18275,0.1205,1.3322,0.9033,7.385,95.970,51.205,438,424,368,410,402,2025-05-28T17:21:56.581974
18276,0.1220,1.3640,1.0375,-7.525,109.935,35.980,439,350,373,414,402,2025-05-28T17:21:56.581974
18277,0.0590,1.3156,1.2205,-12.005,112.490,20.685,360,380,340,355,381,2025-05-28T17:21:56.581974
18278,-0.0464,1.1805,1.2878,-25.935,105.840,5.530,409,423,369,406,410,2025-05-28T17:21:56.581974
18279,-0.1254,1.0497,1.2927,-36.680,92.085,-7.700,428,372,382,405,403,2025-05-28T17:21:56.581974
18280,-0.2264,0.9506,1.2385,-43.120,78.645,-22.400,434,419,376,399,390,2025-05-28T17:21:56.581974
18281,-0.3577,0.8257,1.1551,-43.890,62.440,-35.280,441,410,373,412,407,2025-05-28T17:21:56.581974
18282,-0.4865,0.6876,1.1097,-40.880,41.195,-46.375,440,423,367,399,388,2025-05-28T17:21:56.581974
18283,-0.5714,0.5680,1.0673,-31.850,17.150,-53.025,405,408,369,405,391,2025-05-28T17:21:56.581974
18284,-0.6027,0.5012,1.0214,-20.370,-2.380,-56.875,407,403,378,410,396,2025-05-28T17:21:56.581974
18285,-0.5988,0.4699,0.9511,-9.800,-20.825,-57.050,431,412,351,388,307,2025-05-28T17:21:56.581974
18286,-0.6217,0.4451,0.8755,-3.325,-31.465,-56.490,405,401,358,390,358,2025-05-28T17:21:56.581974
18287,-0.6354,0.4114,0.8252,1.015,-37.800,-55.160,428,436,330,412,372,2025-05-28T17:21:56.581974
18288,-0.6832,0.3845,0.8164,5.180,-42.315,-54.565,421,434,327,406,399,2025-05-28T17:21:56.581974
18289,-0.7047,0.3616,0.8398,8.330,-46.690,-53.445,435,424,352,416,416,2025-05-28T17:21:56.677803
18290,-0.7120,0.3411,0.8198,10.535,-49.175,-50.190,434,420,336,364,412,2025-05-28T17:21:56.677803
18291,-0.6925,0.3270,0.7969,12.250,-52.500,-45.360,442,384,354,403,358,2025-05-28T17:21:56.677803
18292,-0.6734,0.3206,0.7471,14.945,-52.325,-40.670,394,425,373,387,390,2025-05-28T17:21:56.677803
18293,-0.6320,0.3221,0.6881,17.605,-48.265,-35.070,432,422,387,395,397,2025-05-28T17:21:56.677803
18294,-0.6256,0.3104,0.6490,21.455,-41.615,-30.835,430,408,358,349,383,2025-05-28T17:21:56.677803
18295,-0.6407,0.3055,0.6290,24.675,-33.915,-28.455,426,430,380,294,391,2025-05-28T17:21:56.677803
18296,-0.6725,0.2904,0.6334,28.560,-29.785,-28.070,416,375,368,363,385,2025-05-28T17:21:56.886195
18297,-0.6856,0.3001,0.6637,30.940,-27.790,-28.455,439,403,371,378,348,2025-05-28T17:21:56.886195
18298,-0.6856,0.3128,0.6915,32.515,-28.280,-29.050,387,411,376,407,397,2025-05-28T17:21:56.886195
18299,-0.6695,0.3304,0.7003,33.810,-28.000,-29.330,431,404,345,419,384,2025-05-28T17:21:56.886195
18300,-0.6412,0.3577,0.6881,35.140,-26.950,-29.925,452,425,370,355,388,2025-05-28T17:21:56.886195
18301,-0.6163,0.3772,0.6627,35.980,-24.325,-31.290,439,416,303,367,407,2025-05-28T17:21:56.886195
18302,-0.6076,0.3894,0.6451,36.925,-22.225,-33.915,428,419,350,398,401,2025-05-28T17:21:56.886195
18303,-0.6027,0.3909,0.6568,37.800,-20.580,-36.785,424,362,357,401,407,2025-05-28T17:21:56.886195
18304,-0.6071,0.4046,0.7022,37.240,-20.160,-39.095,407,383,373,394,403,2025-05-28T17:21:56.886195
18305,-0.5876,0.4192,0.7442,34.720,-21.000,-41.125,427,411,364,367,389,2025-05-28T17:21:56.886195
18306,-0.5607,0.4324,0.7623,31.255,-20.825,-42.420,419,345,359,376,406,2025-05-28T17:21:56.886195
18307,-0.5197,0.4416,0.7623,28.210,-17.465,-42.840,435,403,370,408,372,2025-05-28T17:21:56.886195
18308,-0.4831,0.4372,0.7671,24.605,-13.195,-41.930,405,421,385,394,398,2025-05-28T17:21:56.886195
18309,-0.4621,0.4275,0.7803,21.700,-6.615,-39.235,365,420,392,347,394,2025-05-28T17:21:56.886195
18310,-0.4538,0.4163,0.7998,19.180,-0.910,-36.085,413,412,352,400,396,2025-05-28T17:21:56.886195
18311,-0.4402,0.4177,0.8267,17.115,2.555,-30.205,407,407,373,401,386,2025-05-28T17:21:56.886195
18312,-0.4431,0.4270,0.8394,14.805,3.675,-23.205,433,420,383,389,382,2025-05-28T17:21:56.982399
18313,-0.4519,0.4421,0.8603,12.530,3.430,-16.485,364,355,383,384,409,2025-05-28T17:21:56.982399
18314,-0.4719,0.4524,0.8647,10.430,1.890,-11.585,414,384,391,410,408,2025-05-28T17:21:56.982399
18315,-0.4982,0.4563,0.8691,8.855,-0.175,-9.170,371,389,378,423,389,2025-05-28T17:21:56.982399
18316,-0.5261,0.4577,0.8696,7.385,-1.855,-9.520,410,432,341,413,404,2025-05-28T17:21:56.982399
18317,-0.5412,0.4636,0.8711,6.125,-3.605,-11.410,431,343,351,416,394,2025-05-28T17:21:56.982399
18318,-0.5807,0.4494,0.8779,4.480,-4.585,-16.030,436,409,372,368,363,2025-05-28T17:21:56.982399
18319,-0.6051,0.4177,0.8857,3.290,-6.125,-22.610,410,435,365,397,340,2025-05-28T17:21:56.982399
18320,-0.6232,0.3806,0.9121,2.765,-9.695,-29.330,439,346,370,386,331,2025-05-28T17:21:56.982399
18321,-0.6105,0.3572,0.9316,2.415,-13.965,-32.795,427,386,340,418,391,2025-05-28T17:21:57.119183
18322,-0.5900,0.3416,0.9292,2.520,-20.370,-33.005,416,345,358,316,398,2025-05-28T17:21:57.119183
18323,-0.5358,0.3392,0.9243,3.220,-25.515,-30.730,413,404,376,387,411,2025-05-28T17:21:57.119183
18324,-0.4807,0.3396,0.9199,3.640,-26.040,-26.180,419,396,338,395,410,2025-05-28T17:21:57.119183
18325,-0.4577,0.3382,0.9223,3.710,-21.980,-21.910,437,416,361,381,411,2025-05-28T17:21:57.119183
18326,-0.4446,0.3348,0.9233,3.535,-17.290,-18.830,423,417,374,402,394,2025-05-28T17:21:57.119183
18327,-0.4314,0.3416,0.9145,2.975,-13.650,-15.750,420,420,388,412,383,2025-05-28T17:21:57.218551
18328,-0.4285,0.3401,0.9013,2.345,-9.450,-13.300,434,432,390,403,402,2025-05-28T17:21:57.218551
18329,-0.4407,0.3357,0.8838,2.695,-7.665,-10.675,433,425,385,388,348,2025-05-28T17:21:57.300642
18330,-0.4573,0.3279,0.8711,3.815,-10.010,-8.470,431,422,311,394,339,2025-05-28T17:21:57.300642
18331,-0.4641,0.3279,0.8594,5.320,-14.875,-6.685,427,423,353,402,390,2025-05-28T17:21:57.300642
18332,-0.4695,0.3260,0.8467,6.895,-20.370,-5.845,447,406,344,394,347,2025-05-28T17:21:57.300642
18333,-0.4607,0.3274,0.8267,9.030,-24.640,-5.390,428,425,364,416,377,2025-05-28T17:21:57.300642
18334,-0.4426,0.3265,0.8096,10.640,-28.840,-5.355,430,419,365,418,403,2025-05-28T17:21:57.300642
18335,-0.4294,0.3328,0.7998,11.095,-30.520,-5.670,437,426,378,422,404,2025-05-28T17:21:57.300642
18336,-0.4138,0.3265,0.7915,11.060,-30.100,-6.090,408,440,377,409,404,2025-05-28T17:21:57.300642
18337,-0.3982,0.3294,0.7925,10.150,-27.965,-5.950,408,356,333,406,409,2025-05-28T17:21:57.300642
18338,-0.3831,0.3318,0.7925,8.890,-24.325,-5.145,435,397,367,402,372,2025-05-28T17:21:57.300642
18339,-0.3870,0.3279,0.7920,7.245,-20.790,-4.305,390,429,370,404,406,2025-05-28T17:21:57.300642
18340,-0.3875,0.3265,0.7940,5.880,-17.115,-3.780,410,438,335,395,407,2025-05-28T17:21:57.300642
18341,-0.3948,0.3260,0.7989,4.655,-13.965,-3.255,431,432,354,417,398,2025-05-28T17:21:57.300642
18342,-0.3938,0.3333,0.8023,3.640,-11.760,-2.380,417,437,359,352,348,2025-05-28T17:21:57.300642
18343,-0.4006,0.3538,0.8032,3.010,-8.960,-1.785,377,410,364,350,392,2025-05-28T17:21:57.300642
18344,-0.4128,0.3719,0.8115,2.205,-6.405,-2.485,411,405,372,331,385,2025-05-28T17:21:57.300642
18345,-0.4372,0.3782,0.8325,1.435,-3.780,-4.165,434,414,388,379,383,2025-05-28T17:21:57.300642
18346,-0.4597,0.3753,0.8472,0.945,-3.220,-7.105,439,340,388,356,401,2025-05-28T17:21:57.300642
18347,-0.4836,0.3484,0.8535,0.980,-1.890,-10.465,424,366,381,393,395,2025-05-28T17:21:57.300642
18348,-0.5056,0.3109,0.8501,1.960,-1.295,-14.735,430,417,373,403,406,2025-05-28T17:21:57.300642
18349,-0.4924,0.2728,0.8389,3.710,-1.155,-17.990,413,390,335,404,396,2025-05-28T17:21:57.386207
18350,-0.4900,0.2391,0.8301,6.510,-0.665,-20.895,429,391,347,397,396,2025-05-28T17:21:57.386207
18351,-0.4778,0.2225,0.8140,9.870,-0.770,-22.365,436,345,365,408,370,2025-05-28T17:21:57.386207
18352,-0.4631,0.2289,0.8047,12.635,-1.925,-21.525,441,408,370,406,341,2025-05-28T17:21:57.386207
18353,-0.4680,0.2430,0.8042,15.155,-3.605,-18.865,431,418,336,398,379,2025-05-28T17:21:57.386207
18354,-0.6183,0.2645,0.8086,17.045,-5.180,-16.940,406,414,326,420,348,2025-05-28T17:21:57.399031
18355,-0.5290,0.2713,0.8184,18.095,-8.225,-16.450,407,414,352,427,372,2025-05-28T17:21:57.399031
18356,-0.5412,0.2821,0.8247,18.620,-10.955,-17.535,412,430,332,378,388,2025-05-28T17:21:57.670285
18357,-0.5651,0.2874,0.8276,19.285,-11.410,-20.475,442,356,353,402,405,2025-05-28T17:21:57.670285
18358,-0.5797,0.2991,0.8306,19.845,-11.480,-23.555,445,404,360,372,397,2025-05-28T17:21:57.670285
18359,-0.5597,0.3216,0.8301,19.775,-11.620,-24.920,430,399,366,391,405,2025-05-28T17:21:57.670285
18360,-0.5378,0.3396,0.8452,19.635,-9.765,-22.750,439,396,377,402,415,2025-05-28T17:21:57.670285
18361,-0.5280,0.3465,0.8574,19.635,-6.965,-18.970,418,407,375,411,353,2025-05-28T17:21:57.670285
18362,-0.5007,0.3655,0.8706,19.390,-3.570,-14.070,436,427,373,404,334,2025-05-28T17:21:57.670285
18363,-0.4812,0.3811,0.8755,18.025,1.330,-10.465,442,418,381,381,377,2025-05-28T17:21:57.670285
18364,-0.4577,0.4002,0.8745,16.485,7.350,-6.580,425,400,376,304,387,2025-05-28T17:21:57.670285
18365,-0.4465,0.4168,0.8745,15.050,12.635,-3.430,410,414,383,373,405,2025-05-28T17:21:57.670285
18366,-0.4431,0.4270,0.8682,13.930,15.295,-0.910,415,415,378,382,395,2025-05-28T17:21:57.670285
18367,-0.4494,0.4368,0.8579,12.670,14.875,1.120,429,410,377,381,381,2025-05-28T17:21:57.670285
18368,-0.4602,0.4436,0.8477,12.425,11.865,2.520,432,379,378,396,388,2025-05-28T17:21:57.670285
18369,-0.4621,0.4475,0.8335,12.390,6.965,3.500,375,420,350,356,382,2025-05-28T17:21:57.670285
18370,-0.4670,0.4451,0.8286,12.775,1.855,3.570,429,427,357,391,398,2025-05-28T17:21:57.671323
18371,-0.4860,0.4299,0.8145,13.510,-3.815,2.380,399,344,363,391,391,2025-05-28T17:21:57.671323
18372,-0.4973,0.4172,0.8028,14.980,-8.330,0.805,407,399,375,412,399,2025-05-28T17:21:57.936346
18373,-0.4904,0.4182,0.7920,16.415,-13.615,-0.140,355,415,383,390,388,2025-05-28T17:21:57.936346
18374,-0.4738,0.4226,0.7818,17.290,-15.995,0.175,398,420,383,343,396,2025-05-28T17:21:57.936346
18375,-0.4597,0.4280,0.7730,17.640,-15.050,1.435,397,406,386,390,390,2025-05-28T17:21:57.936346
18376,-0.4558,0.4304,0.7701,16.695,-11.235,2.940,425,409,385,388,347,2025-05-28T17:21:57.936346
18377,-0.4534,0.4211,0.7657,15.505,-5.775,4.760,437,400,379,339,386,2025-05-28T17:21:57.936346
18378,-0.4538,0.4187,0.7691,13.615,-0.385,6.965,420,345,373,394,402,2025-05-28T17:21:57.936346
18379,-0.4485,0.4070,0.7720,11.550,6.755,9.205,433,388,372,412,411,2025-05-28T17:21:57.936346
18380,-0.4631,0.3919,0.7710,9.485,13.720,12.635,434,342,347,395,408,2025-05-28T17:21:57.936346
18381,-0.4821,0.3836,0.7740,8.120,17.885,16.380,443,393,370,351,396,2025-05-28T17:21:57.936346
18382,-0.5041,0.3831,0.7784,7.490,18.165,20.580,383,416,383,381,403,2025-05-28T17:21:57.936346
18383,-0.5251,0.3816,0.7793,7.210,15.295,24.605,444,402,392,402,396,2025-05-28T17:21:57.936346
18384,-0.5192,0.4031,0.7828,7.315,9.205,27.965,421,408,314,406,399,2025-05-28T17:21:57.936346
18385,-0.5051,0.4324,0.7891,7.245,4.200,30.695,432,378,350,423,385,2025-05-28T17:21:57.936346
18386,-0.5002,0.4787,0.7954,6.370,3.150,31.325,433,335,351,355,405,2025-05-28T17:21:57.936346
18387,-0.5095,0.5344,0.8018,4.970,5.180,27.930,432,366,341,386,405,2025-05-28T17:21:57.936346
18388,-0.5300,0.5329,0.8130,2.100,8.575,21.000,422,340,339,397,393,2025-05-28T17:21:57.936346
18389,-0.5714,0.4690,0.8252,0.105,13.160,13.195,415,389,362,415,399,2025-05-28T17:21:58.034692
18390,-0.6095,0.4065,0.8403,0.805,14.875,3.150,410,420,379,391,385,2025-05-28T17:21:58.034692
18391,-0.6285,0.3494,0.8520,3.605,11.830,-4.130,358,401,389,341,350,2025-05-28T17:21:58.034692
18392,-0.6173,0.3182,0.8618,7.735,5.005,-5.915,420,409,391,386,379,2025-05-28T17:21:58.034692
18393,-0.5719,0.3187,0.8584,11.795,-3.780,-1.960,358,436,392,390,398,2025-05-28T17:21:58.036986
18394,-0.5300,0.3489,0.8340,17.115,-9.100,5.565,428,441,382,393,386,2025-05-28T17:21:58.036986
18395,-0.4831,0.3914,0.8120,20.965,-12.040,12.040,428,435,373,415,386,2025-05-28T17:21:58.036986
18396,-0.4524,0.4534,0.8032,22.260,-10.045,17.780,423,417,376,353,372,2025-05-28T17:21:58.036986
18397,-0.4490,0.5095,0.8052,21.140,-3.920,20.195,450,439,386,347,376,2025-05-28T17:21:58.036986
18398,-0.4465,0.5583,0.8076,19.005,3.885,20.195,448,437,376,354,304,2025-05-28T17:21:58.036986
18399,-0.4836,0.5856,0.8150,15.995,8.365,17.675,446,357,372,331,348,2025-05-28T17:21:58.036986
18400,-0.5109,0.6037,0.8345,14.105,8.610,15.260,438,406,373,364,382,2025-05-28T17:21:58.036986
18401,-0.5378,0.6261,0.8438,13.475,1.155,12.075,421,394,378,388,398,2025-05-28T17:21:58.037981
18402,-0.5514,0.6505,0.8452,13.930,-11.690,9.870,440,401,380,376,390,2025-05-28T17:21:58.037981
18403,-0.5241,0.6983,0.8603,14.665,-28.070,9.380,447,415,386,299,392,2025-05-28T17:21:58.037981
18404,-0.4778,0.7383,0.8638,14.805,-40.810,10.500,443,402,381,361,350,2025-05-28T17:21:58.037981
18405,-0.4465,0.7696,0.8647,13.650,-52.815,11.095,415,339,380,363,377,2025-05-28T17:21:58.037981
18406,-0.3836,0.8115,0.8891,11.550,-61.425,11.340,404,388,355,374,386,2025-05-28T17:21:58.037981
18407,-0.3240,0.8389,0.9213,8.155,-65.835,10.500,424,432,368,360,391,2025-05-28T17:21:58.037981
18408,-0.2684,0.8506,0.9784,5.180,-69.580,8.540,432,403,376,335,403,2025-05-28T17:21:58.037981
18409,-0.0952,0.9379,1.0594,3.745,-76.265,7.280,431,411,364,339,403,2025-05-28T17:21:58.221257
18410,0.2401,1.1556,1.1063,2.940,-79.905,6.685,411,416,346,354,390,2025-05-28T17:21:58.221257
18411,0.6939,1.5660,1.1390,4.060,-79.835,-0.875,427,347,368,378,388,2025-05-28T17:21:58.221257
18412,0.9618,2.1643,1.2620,19.180,-71.890,-23.800,319,388,367,402,405,2025-05-28T17:21:58.221257
18413,0.8374,2.7596,1.3508,11.480,-87.780,-63.105,421,416,345,416,395,2025-05-28T17:21:58.221257
18414,0.6705,3.1427,1.2058,-7.035,-156.520,-134.995,414,422,355,406,412,2025-05-28T17:21:58.221257
18415,0.2425,3.2384,0.7881,-35.210,-281.925,-238.665,392,437,372,415,417,2025-05-28T17:21:58.221257
18416,-0.3162,3.0500,0.2542,-43.925,-450.135,-354.340,428,359,341,400,399,2025-05-28T17:21:58.221257
18417,-0.4602,3.0207,-0.2499,-70.735,-601.300,-438.690,405,415,321,404,412,2025-05-28T17:21:58.221257
18418,-0.4128,2.8299,-0.6315,-143.185,-779.730,-474.355,438,396,326,415,410,2025-05-28T17:21:58.221257
18419,-0.1396,2.0720,-1.0219,-252.595,-893.480,-466.025,413,422,319,414,419,2025-05-28T17:21:58.221257
18420,0.5539,0.6285,-1.2088,-382.690,-931.000,-425.565,442,404,316,418,405,2025-05-28T17:21:58.221257
18421,1.9500,-0.7149,-1.3205,-486.325,-864.010,-343.000,414,422,356,423,415,2025-05-28T17:21:58.221257
18422,3.5570,-2.3663,-1.1863,-579.390,-633.115,-226.905,343,413,369,409,388,2025-05-28T17:21:58.221257
18423,4.1909,-4.5823,-0.6305,-694.820,-281.120,-144.970,331,405,378,407,403,2025-05-28T17:21:58.399873
18424,3.3579,-7.0604,0.8145,-668.745,201.950,-84.280,392,430,396,353,401,2025-05-28T17:21:58.399873
18425,0.5314,-6.7046,2.4786,-637.665,448.980,-186.900,415,408,378,374,404,2025-05-28T17:21:58.399873
18426,-1.4943,-5.3807,-1.1009,-387.870,572.810,-229.600,413,407,385,394,356,2025-05-28T17:21:58.399873
18427,-1.5733,-2.6718,-2.0691,168.805,168.805,-219.310,425,417,385,402,378,2025-05-28T17:21:58.399873
18428,-0.4997,-1.8524,-0.5734,592.725,-179.900,-116.655,415,432,374,354,388,2025-05-28T17:21:58.399873
18429,0.9384,-1.6080,1.0941,514.080,-142.275,122.955,415,419,360,403,387,2025-05-28T17:21:58.399873
18430,1.4250,-1.5177,0.2782,259.490,121.765,317.310,417,421,380,400,403,2025-05-28T17:21:58.399873
18431,1.2600,-1.4498,0.5485,156.485,386.155,395.850,408,424,395,401,399,2025-05-28T17:21:58.399873
18432,0.2796,-1.9091,0.2225,153.965,512.680,352.485,404,392,385,388,405,2025-05-28T17:21:58.399873
18433,-0.0425,-1.7968,-0.1654,243.320,445.130,292.005,354,425,387,404,411,2025-05-28T17:21:58.399873
18434,-0.0132,-1.4528,-0.1747,264.635,277.900,289.975,417,419,387,407,412,2025-05-28T17:21:58.399873
18435,0.0298,-1.1639,0.0683,218.855,155.715,287.805,432,428,393,389,404,2025-05-28T17:21:58.399873
18436,0.2396,-0.9033,0.0459,198.555,181.125,291.760,444,425,392,413,410,2025-05-28T17:21:58.399873
18437,0.3631,-0.5671,0.0644,197.015,238.350,278.390,427,395,370,412,375,2025-05-28T17:21:58.399873
18438,0.4006,-0.1688,0.0991,177.135,306.425,273.490,413,411,378,415,343,2025-05-28T17:21:58.399873
18439,0.3509,0.1908,0.2952,133.630,358.470,290.570,432,389,381,412,339,2025-05-28T17:21:58.399873
18440,0.2508,0.4836,0.2621,74.725,369.915,308.805,413,417,369,406,372,2025-05-28T17:21:58.567614
18441,0.2035,0.6739,0.2782,37.590,369.320,321.720,386,355,361,419,377,2025-05-28T17:21:58.567614
18442,0.1025,0.8403,0.3309,15.575,386.575,322.525,425,391,380,354,381,2025-05-28T17:21:58.567614
18443,-0.0508,0.9809,0.3836,-10.325,421.855,313.600,429,415,378,340,386,2025-05-28T17:21:58.568225
18444,-0.2713,1.0970,0.4895,-30.730,435.085,293.440,422,407,380,342,398,2025-05-28T17:21:58.568225
18445,-0.4631,1.1131,0.3172,-39.480,423.640,255.220,438,431,388,397,403,2025-05-28T17:21:58.568225
18446,-0.6329,1.1575,0.4534,-35.980,392.315,213.500,441,395,388,397,405,2025-05-28T17:21:58.568225
18447,-0.7169,1.0902,0.6930,-29.925,353.465,179.830,433,395,393,404,389,2025-05-28T17:21:58.568225
18448,-0.7725,1.0668,0.9496,-14.735,290.325,158.830,450,427,389,397,383,2025-05-28T17:21:58.749595
18449,-0.7950,1.0097,1.1117,4.060,215.950,128.240,449,410,392,348,398,2025-05-28T17:21:58.749595
18450,-0.7706,0.9443,1.0887,24.815,143.745,99.785,444,417,387,389,411,2025-05-28T17:21:58.749595
18451,-0.6856,1.0150,1.0336,47.425,95.760,83.370,451,413,389,390,392,2025-05-28T17:21:58.749595
18452,-0.5739,1.1551,0.9443,61.460,70.805,56.000,430,421,378,413,392,2025-05-28T17:21:58.749595
18453,-0.4821,1.1585,0.9004,64.785,61.950,28.735,444,428,379,351,382,2025-05-28T17:21:58.749595
18454,-0.4709,1.1790,0.9467,62.230,57.680,5.985,432,416,334,374,408,2025-05-28T17:21:58.749595
18455,-0.5329,1.1165,1.0321,58.415,53.130,-13.440,436,377,316,403,393,2025-05-28T17:21:58.750831
18456,-0.6027,1.0590,1.0921,50.540,42.875,-27.860,441,415,362,416,352,2025-05-28T17:21:58.750831
18457,-0.6466,0.9599,1.0414,41.755,24.395,-37.870,431,435,381,399,389,2025-05-28T17:21:58.750831
18458,-0.6539,0.8818,0.9516,34.580,2.870,-44.275,439,423,373,415,386,2025-05-28T17:21:58.750831
18459,-0.6422,0.8164,0.8711,32.130,-12.915,-43.015,391,406,371,411,375,2025-05-28T17:21:58.750831
18460,-0.6339,0.7642,0.7891,29.470,-21.945,-36.995,435,395,374,396,385,2025-05-28T17:21:58.750831
18461,-0.6549,0.7042,0.7374,26.880,-28.490,-30.135,441,400,385,404,395,2025-05-28T17:21:58.750831
18462,-0.6856,0.6671,0.7061,25.655,-31.815,-25.935,436,398,382,357,403,2025-05-28T17:21:58.750831
18463,-0.6978,0.6403,0.6725,25.410,-32.970,-24.745,435,417,377,396,391,2025-05-28T17:21:58.750831
18464,-0.7110,0.6266,0.6285,23.975,-29.610,-23.485,435,402,375,409,407,2025-05-28T17:21:58.751817
18465,-0.6939,0.6139,0.5993,22.750,-24.710,-22.260,420,358,385,403,393,2025-05-28T17:21:58.751817
18466,-0.6900,0.6129,0.5900,22.295,-20.090,-18.760,363,394,358,408,404,2025-05-28T17:21:58.751817
18467,-0.6827,0.6051,0.5695,21.665,-15.645,-13.265,426,427,360,362,369,2025-05-28T17:21:58.751817
18468,-0.6812,0.5812,0.5602,19.215,-12.565,-6.755,442,412,376,361,375,2025-05-28T17:21:58.918703
18469,-0.6647,0.5871,0.5578,17.080,-9.800,-0.490,435,417,381,339,382,2025-05-28T17:21:58.918703
18470,-0.6608,0.5788,0.5583,14.700,-6.615,5.565,433,424,374,332,383,2025-05-28T17:21:58.918703
18471,-0.6456,0.5915,0.5695,11.830,-3.045,8.855,413,428,383,381,401,2025-05-28T17:21:58.918703
18472,-0.6320,0.6027,0.5793,9.415,0.245,11.760,404,367,385,399,350,2025-05-28T17:21:58.918703
18473,-0.6559,0.6041,0.5758,7.035,2.835,12.390,400,381,383,401,389,2025-05-28T17:21:58.918703
18474,-0.7110,0.5915,0.5495,6.475,3.255,10.640,404,375,395,410,394,2025-05-28T17:21:58.918703
18475,-0.7315,0.5968,0.5363,8.015,-0.280,6.440,431,419,375,411,403,2025-05-28T17:21:58.918703
18476,-0.7344,0.6139,0.5334,10.745,-5.390,2.800,427,423,374,393,412,2025-05-28T17:21:58.918703
18477,-0.7344,0.6149,0.5485,12.250,-9.450,-1.750,385,396,340,411,390,2025-05-28T17:21:59.194404
18478,-0.7330,0.6061,0.5651,13.195,-14.000,-6.685,428,427,364,417,382,2025-05-28T17:21:59.195402
18479,-0.7310,0.5954,0.5841,13.825,-19.705,-11.725,439,435,332,417,398,2025-05-28T17:21:59.195402
