SeqNum,AccX,AccY,AccZ,GyroX,GyroY,GyroZ,Flex,Force1,Force2,Force3,Force4,TimestampReception
13251,-0.8115,0.2172,0.5627,0.140,-3.850,-0.035,1.02,0.0368,0.0254,0.0200,0.0087,2025-06-06T11:07:49.120451
13252,-1.5533,0.1830,2.7006,-60.865,272.195,-126.665,0.91,0.0184,0.0508,0.0100,0.0087,2025-06-06T11:07:49.120451
13253,-0.9457,0.9233,2.5083,105.560,-117.320,-12.845,0.90,0.0184,0.0508,0.0000,0.0174,2025-06-06T11:07:49.120451
13254,-0.7759,0.5597,0.4597,-94.885,-124.670,-94.570,0.89,0.0000,0.0000,0.0100,0.0000,2025-06-06T11:07:49.120451
13255,-0.7652,0.0888,0.0625,-236.110,-235.025,-105.525,0.90,0.0184,0.0254,0.0200,0.0174,2025-06-06T11:07:49.120451
13256,-0.6817,0.0454,-0.1054,-105.980,-119.350,-56.910,0.91,0.0184,0.0508,0.0100,0.0174,2025-06-06T11:07:49.120451
13257,-0.7735,0.0234,-0.3450,-105.000,-3.325,-25.270,0.94,0.0184,0.0254,0.0000,0.0000,2025-06-06T11:07:49.120451
13258,-0.7706,0.1469,-0.0112,-69.300,95.060,-10.220,0.92,0.0184,0.0254,0.0100,0.0087,2025-06-06T11:07:49.120451
13259,-0.6978,0.6246,1.8861,85.855,58.240,60.025,0.91,0.0368,0.0508,0.0200,0.0087,2025-06-06T11:07:49.120451
13260,-0.8511,0.3050,0.9140,-0.105,-44.415,35.700,0.90,0.0368,0.0508,0.0200,0.0000,2025-06-06T11:07:49.120451
13261,-0.6705,0.5558,0.3328,-96.775,-84.665,13.965,0.92,0.0184,0.0508,0.0100,0.0087,2025-06-06T11:07:49.120451
13262,-0.7930,0.3802,0.7042,-95.935,-112.105,8.435,0.91,0.0184,0.0254,0.0200,0.0087,2025-06-06T11:07:49.120451
13263,-0.7813,0.5305,0.5714,-24.605,-45.710,22.995,0.92,0.0368,0.0508,0.0300,0.0087,2025-06-06T11:07:49.172753
13264,-0.7608,0.3723,0.8276,24.220,35.070,22.995,0.92,0.0368,0.0508,0.0100,0.0087,2025-06-06T11:07:49.172753
13265,-0.7940,0.3538,0.5983,28.315,64.225,12.390,0.92,0.0368,0.0508,0.0100,0.0087,2025-06-06T11:07:49.172753
13266,-0.7730,0.3621,0.4982,-0.175,49.105,9.205,0.90,0.0368,0.0254,0.0100,0.0087,2025-06-06T11:07:49.222830
13267,-0.7515,0.3367,0.5651,-22.015,21.245,6.160,0.91,0.0368,0.0508,0.0200,0.0087,2025-06-06T11:07:49.222830
13268,-0.5402,0.3553,0.5119,-15.890,9.240,20.510,0.91,0.0368,0.0508,0.0200,0.0174,2025-06-06T11:07:49.222830
13269,-0.6700,0.4392,0.5026,11.305,5.320,27.580,0.91,0.0368,0.0508,0.0100,0.0087,2025-06-06T11:07:49.222830
13270,-0.7715,0.4226,0.4499,22.085,-13.545,32.970,0.90,0.0184,0.0254,0.0401,0.0174,2025-06-06T11:07:49.349799
13271,-0.6861,0.4382,0.4250,-10.675,-37.905,28.315,0.91,0.0368,0.0508,0.0200,0.0087,2025-06-06T11:07:49.349799
13272,-0.6852,0.4529,0.5192,-39.060,-39.305,18.760,0.90,0.0368,0.0254,0.0200,0.0087,2025-06-06T11:07:49.349799
13273,-0.7403,0.3431,0.7998,-22.225,-46.900,22.120,0.91,0.0368,0.0508,0.0200,0.0087,2025-06-06T11:07:49.349799
13274,-0.6037,0.4499,0.2845,-21.210,-38.850,29.190,0.91,0.0000,0.0508,0.0300,0.0087,2025-06-06T11:07:49.349799
13275,-0.7139,0.4519,0.6730,10.920,-44.975,37.730,0.90,0.0184,0.0254,0.0200,0.0087,2025-06-06T11:07:49.349799
13276,-0.7881,0.4397,0.9213,16.450,-0.385,28.560,0.91,0.0368,0.0000,0.0100,0.0087,2025-06-06T11:07:49.349799
13277,-0.7266,0.4490,0.8198,5.425,38.745,12.285,0.91,0.0000,0.0254,0.0100,0.0174,2025-06-06T11:07:49.349799
13278,-0.7227,0.4563,0.6910,11.935,25.935,8.330,0.91,0.0184,0.0508,0.0200,0.0087,2025-06-06T11:07:49.349799
13279,-0.7686,0.4085,0.7349,34.020,-21.910,9.555,0.91,0.0184,0.0508,0.0100,0.0087,2025-06-06T11:07:49.535538
13280,-0.7110,0.5592,0.7330,53.445,-45.360,22.995,0.91,0.0184,0.0508,0.0200,0.0087,2025-06-06T11:07:49.535538
13281,-0.6905,0.5583,0.6403,35.770,-34.825,35.175,0.90,0.0184,0.0254,0.0100,0.0087,2025-06-06T11:07:49.535538
13282,-0.7110,0.5802,0.7188,49.105,0.665,51.170,0.91,0.0368,0.0508,0.0300,0.0087,2025-06-06T11:07:49.535538
13283,-0.8647,0.6964,0.9257,99.785,26.985,79.205,0.92,0.0184,0.0000,0.0200,0.0087,2025-06-06T11:07:49.535538
13284,-0.9750,0.8847,0.7115,159.355,46.445,113.540,0.91,0.0184,0.0508,0.0100,0.0087,2025-06-06T11:07:49.535538
13285,-1.1522,0.9711,1.1805,212.065,78.505,112.140,0.91,0.0184,0.0508,0.0100,0.0087,2025-06-06T11:07:49.535538
13286,-1.2576,0.8740,1.2664,231.805,72.205,103.670,0.91,0.0184,0.0254,0.0200,0.0087,2025-06-06T11:07:49.535538
13287,-1.3332,0.8418,1.0355,240.100,-96.180,98.350,0.91,0.0184,0.0508,0.0200,0.0087,2025-06-06T11:07:49.535538
13288,-1.3810,0.9462,0.9462,137.375,-287.735,121.765,0.92,0.0184,0.0508,0.0100,0.0087,2025-06-06T11:07:49.535538
13289,-1.3664,0.9365,0.7383,11.655,-447.440,134.820,0.91,0.0184,0.0254,0.0300,0.0087,2025-06-06T11:07:49.535538
13290,-1.3552,0.8940,0.4329,-26.880,-498.365,132.335,0.90,0.0184,0.0254,0.0100,0.0087,2025-06-06T11:07:49.535538
13291,-1.1805,0.7779,0.2967,42.700,-498.365,141.050,0.92,0.0368,0.0254,0.0200,0.0087,2025-06-06T11:07:49.535538
13292,-0.9770,0.6617,0.0415,97.930,-495.705,189.560,0.92,0.0184,0.0254,0.0200,0.0087,2025-06-06T11:07:49.535967
13293,-0.5446,0.5588,-0.3933,131.880,-490.385,211.190,0.91,0.0368,0.0508,0.0300,0.0087,2025-06-06T11:07:49.576510
13294,-0.0708,0.1410,-0.6144,63.455,-479.675,206.710,0.91,0.0368,0.0508,0.0300,0.0174,2025-06-06T11:07:49.576510
13295,0.3084,-0.3670,-0.6539,-21.630,-417.235,192.535,0.90,0.0184,0.0254,0.0100,0.0087,2025-06-06T11:07:49.576510
13296,0.6378,-0.9365,-0.6730,-102.795,-330.785,136.605,0.93,0.0368,0.0508,0.0200,0.0174,2025-06-06T11:07:49.753123
13297,0.6969,-1.1883,-1.2517,-221.795,-237.160,68.530,0.92,0.0184,0.0254,0.0200,0.0087,2025-06-06T11:07:49.753123
13298,0.6983,-1.2107,-1.6597,-421.155,-99.645,-8.085,0.91,0.0184,0.0254,0.0200,0.0087,2025-06-06T11:07:49.753123
13299,0.0708,-0.9043,-1.9652,-646.205,217.000,-84.980,0.91,0.0368,0.0254,0.0300,0.0174,2025-06-06T11:07:49.753123
13300,-0.5588,-0.5871,-1.0087,-740.110,319.585,-163.660,0.92,0.0184,0.0000,0.0200,0.0087,2025-06-06T11:07:49.753123
13301,-0.9433,-0.0878,-0.9814,-754.180,740.495,-246.750,0.90,0.0184,0.0254,0.0100,0.0087,2025-06-06T11:07:49.753123
13302,-1.0165,1.8032,0.2567,-575.225,820.960,49.805,0.92,0.0368,0.0254,0.0100,0.0087,2025-06-06T11:07:49.753123
13303,-2.2468,2.5132,2.5278,142.590,841.960,322.770,0.91,0.0184,0.0254,0.0200,0.0087,2025-06-06T11:07:49.753123
13304,-4.1421,-1.4767,6.1610,98.455,1146.740,587.230,0.90,0.0184,0.0508,0.0200,0.0174,2025-06-06T11:07:49.753123
13305,-3.3857,-4.1900,10.6740,836.430,185.325,289.380,0.92,0.0368,0.0000,0.0200,0.0087,2025-06-06T11:07:49.753123
13306,-0.1884,1.5972,-1.1990,527.030,-67.690,88.305,0.92,0.0184,0.0000,0.0100,0.0174,2025-06-06T11:07:49.753123
13307,-0.4685,1.3044,0.1078,-334.565,-195.195,87.150,0.92,0.0000,0.0000,0.0200,0.0087,2025-06-06T11:07:49.753123
13308,-0.8433,0.3548,0.1230,-557.655,-328.615,-65.170,0.90,0.0368,0.0762,0.0100,0.0174,2025-06-06T11:07:49.799798
13309,-0.8891,-0.2269,-0.0815,-453.460,-292.985,-183.750,0.95,0.0184,0.0508,0.0200,0.0087,2025-06-06T11:07:49.799798
13310,-0.4382,-0.2928,1.0043,24.500,-2.170,-58.345,0.95,0.0368,0.0508,0.0100,0.0087,2025-06-06T11:07:49.799798
13311,-0.3235,0.2845,0.8169,223.335,183.540,41.265,0.83,0.0184,0.0508,0.0100,0.0174,2025-06-06T11:07:49.799798
13312,-0.5114,0.2035,0.7374,366.345,275.520,62.860,0.91,0.0184,0.0508,0.0200,0.0087,2025-06-06T11:07:49.846307
13313,-0.6046,0.3440,0.1430,277.375,252.945,1.120,0.91,0.0552,0.0254,0.0300,0.0087,2025-06-06T11:07:49.846307
13314,-0.6627,0.3465,0.5490,71.050,15.925,-30.590,0.93,0.0184,0.0508,0.0200,0.0087,2025-06-06T11:07:49.846307
13315,-0.5627,0.3001,0.4021,-59.850,-117.880,-67.550,0.91,0.0368,0.0508,0.0300,0.0087,2025-06-06T11:07:49.846307
13316,-0.5890,0.1874,0.5070,-138.285,-165.795,-100.590,0.89,0.0184,0.0000,0.0200,0.0087,2025-06-06T11:07:49.893360
13317,-0.7725,0.3582,0.4128,-69.615,-110.320,-106.260,0.91,0.0184,0.0508,0.0200,0.0087,2025-06-06T11:07:49.893360
13318,-0.5446,0.3006,0.3001,-56.350,-53.200,-104.895,0.91,0.0184,0.0254,0.0100,0.0087,2025-06-06T11:07:49.893360
13319,-0.6486,0.3889,0.4221,-64.645,-33.355,-85.400,0.93,0.0368,0.0508,0.0200,0.0174,2025-06-06T11:07:50.119951
13320,-0.6998,0.2728,0.3616,-81.200,17.325,-69.965,0.90,0.0184,0.0508,0.0200,0.0087,2025-06-06T11:07:50.119951
13321,-0.9174,0.2474,0.6393,-56.420,90.790,-56.070,0.92,0.0184,0.0762,0.0200,0.0087,2025-06-06T11:07:50.119951
13322,-1.0492,0.4138,0.8316,-0.105,169.435,-37.975,0.92,0.0184,0.0508,0.0300,0.0087,2025-06-06T11:07:50.119951
13323,-1.2952,0.5100,1.1097,27.370,203.490,-0.910,0.91,0.0184,0.0254,0.0000,0.0000,2025-06-06T11:07:50.119951
13324,-1.5338,0.8979,1.3318,79.450,148.645,54.915,0.91,0.0000,0.0254,0.0100,0.0000,2025-06-06T11:07:50.119951
13325,-1.3947,1.0228,1.3156,108.535,23.170,79.485,0.90,0.0184,0.0508,0.0100,0.0174,2025-06-06T11:07:50.119951
13326,-1.1995,1.0570,1.4313,133.315,-141.890,108.115,0.91,0.0184,0.0254,0.0200,0.0087,2025-06-06T11:07:50.119951
13327,-1.2122,1.0150,1.2986,210.980,-327.600,130.725,0.91,0.0184,0.0508,0.0100,0.0174,2025-06-06T11:07:50.119951
13328,-1.3737,0.8589,0.8813,281.925,-441.840,167.965,0.91,0.0184,0.0254,0.0100,0.0087,2025-06-06T11:07:50.119951
13329,-1.1302,0.5300,0.4211,335.860,-519.995,212.555,0.91,0.0368,0.0508,0.0100,0.0087,2025-06-06T11:07:50.119951
13330,-0.7193,-0.1035,0.1381,278.285,-515.130,246.155,0.90,0.0368,0.0254,0.0100,0.0087,2025-06-06T11:07:50.119951
13331,-0.2225,-0.5368,0.2943,196.840,-538.160,271.705,0.89,0.0184,0.0254,0.0200,0.0174,2025-06-06T11:07:50.119951
13332,0.0776,-1.1312,-0.3650,101.605,-541.310,229.950,0.91,0.0368,0.0508,0.0200,0.0087,2025-06-06T11:07:50.119951
13333,0.3680,-1.4557,-0.7222,-217.210,-592.655,134.645,0.92,0.0184,0.0254,0.0100,0.0087,2025-06-06T11:07:50.119951
13334,0.2211,-1.3937,-1.8363,-529.305,-535.745,-23.730,0.92,0.0184,0.0254,0.0100,0.0087,2025-06-06T11:07:50.119951
13335,-0.2621,-0.7774,-2.4868,-870.730,-197.750,-151.830,0.90,0.0368,0.0508,0.0200,0.0087,2025-06-06T11:07:50.254894
13336,-0.2542,0.1552,-0.6461,-1010.800,214.445,-260.435,0.90,0.0184,0.0254,0.0100,0.0087,2025-06-06T11:07:50.254894
13337,0.0049,0.2118,-1.6309,-1043.245,449.925,-144.655,0.91,0.0184,0.0508,0.0300,0.0174,2025-06-06T11:07:50.254894
13338,0.0322,1.6631,1.6865,-633.465,635.040,264.810,0.91,0.0184,0.0254,0.0100,0.0087,2025-06-06T11:07:50.254894
13339,-3.2701,2.0115,1.1834,106.225,1105.720,487.270,0.91,0.0368,0.0254,0.0300,0.0087,2025-06-06T11:07:50.254894
13340,-7.5333,-0.7242,8.2814,933.380,1132.845,570.290,0.91,0.0184,0.0508,0.0100,0.0000,2025-06-06T11:07:50.254894
13341,-4.6433,-0.5978,11.8218,403.410,432.880,482.300,0.93,0.0184,0.0508,0.0000,0.0087,2025-06-06T11:07:50.254894
13342,-2.4576,0.2645,2.4019,958.790,-409.395,133.980,0.91,0.0184,0.0254,0.0000,0.0000,2025-06-06T11:07:50.254894
13343,-0.2874,0.5553,-0.8804,-748.160,-269.640,-23.135,0.91,0.0000,0.0508,0.0100,0.0087,2025-06-06T11:07:50.254894
13344,-0.3250,0.6920,-0.9755,-969.255,-826.315,-122.710,0.92,0.0184,0.0762,0.0100,0.0087,2025-06-06T11:07:50.254894
13345,-0.1615,-0.6193,-0.2786,-211.645,-361.760,-242.060,0.91,0.0368,0.0508,0.0200,0.0000,2025-06-06T11:07:50.303409
13346,-0.3357,-0.3577,-0.0229,0.525,84.665,47.460,0.91,0.0368,0.0508,0.0200,0.0087,2025-06-06T11:07:50.303409
13347,-0.6383,0.4904,1.2859,239.015,318.465,191.730,0.91,0.0184,0.0254,0.0100,0.0087,2025-06-06T11:07:50.303409
13348,-0.2484,-0.2987,1.6343,550.585,743.330,251.370,0.91,0.0368,0.0254,0.0100,0.0174,2025-06-06T11:07:50.303409
13349,-0.8403,0.5226,0.6544,404.565,262.710,75.180,0.91,0.0184,0.0508,0.0100,0.0087,2025-06-06T11:07:50.352048
13350,-0.7603,0.5778,0.6046,132.720,17.920,18.900,0.92,0.0368,0.0254,0.0100,0.0087,2025-06-06T11:07:50.352048
13351,-0.7681,0.5373,0.3611,-154.595,-106.365,-26.705,0.90,0.0368,0.1018,0.0200,0.0087,2025-06-06T11:07:50.352048
13352,-0.7432,0.5168,0.3113,-239.400,-169.400,-68.040,0.93,0.0368,0.0508,0.0200,0.0087,2025-06-06T11:07:50.352048
13353,-0.6817,0.2108,0.3972,-102.095,-82.390,-22.960,0.91,0.0368,0.0508,0.0200,0.0087,2025-06-06T11:07:50.464264
13354,-0.7847,0.0961,0.9135,38.605,58.100,17.395,0.91,0.0184,0.0508,0.0100,0.0174,2025-06-06T11:07:50.464264
13355,-0.9243,0.2108,0.9658,149.450,128.835,27.055,0.93,0.0184,0.0508,0.0100,0.0087,2025-06-06T11:07:50.464264
13356,-1.0214,0.3460,0.8545,125.195,102.830,37.870,0.91,0.0368,0.0508,0.0200,0.0087,2025-06-06T11:07:50.464264
13357,-1.0175,0.4817,0.7271,57.750,68.950,52.290,0.91,0.0184,0.0000,0.0100,0.0087,2025-06-06T11:07:50.464264
13358,-1.1000,0.6227,0.8213,45.710,48.055,77.035,0.91,0.0184,0.0254,0.0100,0.0087,2025-06-06T11:07:50.464264
13359,-1.2400,0.6754,1.0238,103.495,100.905,115.920,0.91,0.0184,0.0254,0.0100,0.0087,2025-06-06T11:07:50.464264
13360,-1.5196,0.7623,1.3122,221.620,125.405,142.065,0.91,0.0184,0.0254,0.0200,0.0087,2025-06-06T11:07:50.561362
13361,-1.4845,1.0155,0.9872,202.335,7.210,136.395,0.90,0.0368,0.0254,0.0100,0.0000,2025-06-06T11:07:50.561362
13362,-1.2468,1.0048,1.0775,114.870,-174.930,110.740,0.91,0.0368,0.0508,0.0100,0.0087,2025-06-06T11:07:50.561362
13363,-1.2410,0.9311,1.0585,81.830,-409.290,102.760,0.89,0.0552,0.0254,0.0200,0.0087,2025-06-06T11:07:50.561362
13364,-1.1048,0.6339,0.6759,115.710,-570.290,130.515,0.91,0.0368,0.0254,0.0200,0.0174,2025-06-06T11:07:50.561362
13365,-0.8999,0.3665,0.3762,192.430,-629.615,178.080,0.91,0.0184,0.0254,0.0100,0.0087,2025-06-06T11:07:50.561362
13366,-0.5173,-0.0956,-0.0659,201.565,-588.105,230.475,0.93,0.0184,0.0508,0.0100,0.0000,2025-06-06T11:07:50.561362
13367,-0.0283,-0.6442,-0.2250,161.980,-541.870,258.510,0.91,0.0184,0.0254,0.0200,0.0174,2025-06-06T11:07:50.561362
13368,0.1235,-1.2054,-0.6212,6.755,-556.535,218.085,0.92,0.0000,0.0508,0.0200,0.0087,2025-06-06T11:07:50.664701
13369,0.3509,-1.5050,-1.1409,-317.555,-488.460,75.075,0.90,0.0368,0.0508,0.0100,0.0174,2025-06-06T11:07:50.664701
13370,0.1347,-1.4391,-2.1657,-606.200,-327.950,-79.765,0.91,0.0552,0.0508,0.0100,0.0087,2025-06-06T11:07:50.664701
13371,-0.3704,-0.8457,-2.2365,-928.865,14.805,-222.740,0.90,0.0184,0.0254,0.0200,0.0087,2025-06-06T11:07:50.664701
13372,-0.8667,0.4485,-0.2406,-967.365,378.350,-327.495,0.91,0.0184,0.0508,0.0200,0.0087,2025-06-06T11:07:50.664701
13373,0.1254,1.6411,-1.0131,-959.035,713.405,-88.340,0.90,0.0184,0.0254,0.0200,0.0087,2025-06-06T11:07:50.664701
13374,-0.3245,1.6504,0.7613,-675.570,544.705,287.385,0.89,0.0184,0.0254,0.0000,0.0087,2025-06-06T11:07:50.664701
13375,-2.9778,2.2951,1.1775,355.425,786.940,586.075,0.90,0.0368,0.0254,0.0200,0.0087,2025-06-06T11:07:50.705740
13376,-5.6754,-4.6331,13.1370,667.905,999.005,548.905,0.90,0.0184,0.0508,0.0100,0.0087,2025-06-06T11:07:50.705740
13377,-0.8696,-0.4748,3.7366,976.920,176.225,302.575,0.91,0.0368,0.0508,0.0200,0.0174,2025-06-06T11:07:50.705740
13378,-1.2112,1.3103,1.3449,501.655,-293.020,105.805,0.90,0.0368,0.0508,0.0200,0.0087,2025-06-06T11:07:50.705740
13379,-0.8613,0.5207,0.6076,-375.900,-354.725,92.995,0.91,0.0368,0.0254,0.0200,0.0087,2025-06-06T11:07:50.870817
13380,-0.4197,0.3196,-1.1522,-632.695,-564.795,-141.050,0.91,0.0184,0.0762,0.0100,0.0087,2025-06-06T11:07:50.870817
13381,-0.3328,-0.5295,0.3465,-213.710,-261.100,-149.975,0.91,0.0184,0.1018,0.0200,0.0087,2025-06-06T11:07:50.870817
13382,-0.7388,-0.2357,0.8340,8.400,97.510,79.310,0.93,0.0184,0.0508,0.0100,0.0174,2025-06-06T11:07:50.870817
13383,-0.4407,-0.8262,1.2629,265.055,385.245,158.760,0.91,0.0184,0.0508,0.0100,0.0174,2025-06-06T11:07:50.870817
13384,-0.4904,0.1845,1.0414,480.165,329.070,106.680,0.91,0.0184,0.0254,0.0200,0.0087,2025-06-06T11:07:50.870817
13385,-0.6749,0.4065,0.6842,304.745,197.540,68.145,0.91,0.0184,0.0254,0.0000,0.0087,2025-06-06T11:07:50.870817
13386,-0.6886,0.5466,0.1815,91.455,-25.410,20.895,0.90,0.0184,0.0254,0.0200,0.0087,2025-06-06T11:07:50.870817
13387,-0.6866,0.5241,0.2962,-113.610,-72.065,-22.225,0.92,0.0184,0.0762,0.0100,0.0174,2025-06-06T11:07:50.870817
13388,-0.7710,0.6939,0.5363,-130.200,-94.010,-30.100,0.92,0.0184,0.0000,0.0200,0.0087,2025-06-06T11:07:50.870817
13389,-0.6656,0.2640,0.7027,-55.545,-42.245,-22.330,0.90,0.0368,0.0254,0.0200,0.0087,2025-06-06T11:07:50.870817
13390,-0.6803,0.2220,0.8686,61.985,21.525,7.140,0.90,0.0368,0.0254,0.0200,0.0087,2025-06-06T11:07:50.927668
13391,-0.6905,0.3128,0.7281,92.715,27.160,15.085,0.92,0.0184,0.0508,0.0200,0.0174,2025-06-06T11:07:50.927668
13392,-0.6881,0.3616,0.6271,38.850,-1.295,12.390,0.91,0.0368,0.0254,0.0200,0.0087,2025-06-06T11:07:50.927668
13393,-0.6998,0.3758,0.6085,-2.555,-28.140,4.725,0.90,0.0184,0.0254,0.0200,0.0087,2025-06-06T11:07:50.927668
13394,-0.6734,0.3797,0.6149,-17.255,-27.125,2.450,0.91,0.0368,0.0762,0.0200,0.0174,2025-06-06T11:07:50.927668
13395,-0.7013,0.3987,0.6168,14.175,-7.490,4.900,0.90,0.0184,0.0508,0.0100,0.0087,2025-06-06T11:07:51.174078
13396,-0.7091,0.4372,0.6173,26.600,11.165,4.620,0.92,0.0184,0.0508,0.0100,0.0087,2025-06-06T11:07:51.177077
13397,-0.6788,0.4143,0.5763,8.365,4.585,0.175,0.91,0.0000,0.0254,0.0200,0.0174,2025-06-06T11:07:51.177077
13398,-0.6671,0.3733,0.6378,-19.705,-9.205,-2.415,0.90,0.0368,0.0000,0.0200,0.0174,2025-06-06T11:07:51.177077
13399,-0.6490,0.3460,0.6427,-19.775,-11.620,-2.380,0.91,0.0368,0.0254,0.0100,0.0087,2025-06-06T11:07:51.177077
13400,-0.6568,0.3436,0.6495,-5.005,-4.760,1.540,0.91,0.0368,0.0508,0.0200,0.0087,2025-06-06T11:07:51.177077
13401,-0.6822,0.3650,0.6866,8.330,1.260,2.940,0.93,0.0368,0.0000,0.0100,0.0087,2025-06-06T11:07:51.177077
13402,-0.6783,0.3772,0.6529,0.105,-3.815,2.240,0.90,0.0184,0.0254,0.0000,0.0087,2025-06-06T11:07:51.177077
13403,-0.6793,0.3792,0.6593,-11.130,-11.550,0.595,0.91,0.0184,0.0508,0.0100,0.0087,2025-06-06T11:07:51.177077
13404,-0.6700,0.3821,0.6271,-12.145,-11.130,0.105,0.90,0.0184,0.0508,0.0100,0.0087,2025-06-06T11:07:51.177077
13405,-0.6637,0.3704,0.6559,-6.090,-5.040,1.260,0.91,0.0184,0.0254,0.0000,0.0087,2025-06-06T11:07:51.177077
13406,-0.6564,0.3514,0.6710,-2.170,-1.610,2.170,0.90,0.0184,0.0254,0.0200,0.0087,2025-06-06T11:07:51.177077
13407,-0.6895,0.2821,0.6290,-1.575,-12.285,5.390,0.90,0.0184,0.0254,0.0100,0.0087,2025-06-06T11:07:51.177077
13408,-0.6598,0.2957,0.8481,-5.320,-4.550,8.120,0.91,0.0184,0.0254,0.0100,0.0087,2025-06-06T11:07:51.177077
13409,-0.4665,0.3465,0.7061,8.505,-5.845,5.845,0.90,0.0184,0.0508,0.0200,0.0087,2025-06-06T11:07:51.177077
13410,-0.6730,0.3714,0.6451,12.285,-12.320,10.080,0.91,0.0184,0.0254,0.0200,0.0087,2025-06-06T11:07:51.177077
13411,-0.6900,0.5358,0.2582,8.820,-36.925,8.295,0.91,0.0184,0.0254,0.0200,0.0087,2025-06-06T11:07:51.177077
13412,-0.6974,0.4851,0.6895,-31.780,-12.810,-2.660,0.91,0.0184,0.0508,0.0200,0.0087,2025-06-06T11:07:51.379075
13413,-0.6773,0.3733,0.7257,-33.530,-7.805,-18.025,0.91,0.0368,0.0254,0.0200,0.0087,2025-06-06T11:07:51.379075
13414,-0.6056,0.4060,0.4748,-49.840,-9.800,-19.985,0.90,0.0368,0.0508,0.0200,0.0174,2025-06-06T11:07:51.379075
13415,-0.6422,0.3006,0.6549,-50.190,-15.260,-17.920,0.91,0.0184,0.0508,0.0100,0.0174,2025-06-06T11:07:51.379075
13416,-0.6632,0.2904,0.7691,-37.660,0.490,-11.270,0.90,0.0368,0.0508,0.0300,0.0087,2025-06-06T11:07:51.379075
13417,-0.7037,0.2704,0.9126,-22.120,17.675,-9.310,0.90,0.0184,0.0254,0.0100,0.0087,2025-06-06T11:07:51.379075
13418,-0.7369,0.3074,0.9384,0.875,16.030,-9.520,0.91,0.0368,0.0254,0.0100,0.0087,2025-06-06T11:07:51.379075
13419,-0.7320,0.3211,0.8999,-21.455,6.090,-13.300,0.88,0.0184,0.0508,0.0100,0.0087,2025-06-06T11:07:51.379075
13420,-0.6905,0.3226,0.7042,0.420,0.210,-14.770,0.91,0.0368,0.0508,0.0200,0.0087,2025-06-06T11:07:51.379075
13421,-0.6461,0.3226,0.5549,-9.100,-5.320,-19.425,0.90,0.0184,0.0254,0.0100,0.0000,2025-06-06T11:07:51.379075
13422,-0.6651,0.3689,0.2020,-19.810,-24.255,-26.565,0.92,0.0368,0.0254,0.0200,0.0174,2025-06-06T11:07:51.379075
13423,-0.6944,0.3050,0.6681,-64.365,-4.935,-21.560,0.91,0.0184,0.0508,0.0100,0.0087,2025-06-06T11:07:51.379075
13424,-0.6769,0.1127,1.0990,-29.365,-24.920,-19.250,0.92,0.0184,0.0508,0.0200,0.0087,2025-06-06T11:07:51.379075
13425,-0.5939,0.3314,0.5212,-4.725,-15.470,-8.085,0.89,0.0184,0.0000,0.0200,0.0087,2025-06-06T11:07:51.379075
13426,-0.6339,0.2508,0.6417,-29.400,-24.745,2.520,0.91,0.0184,0.0254,0.0200,0.0000,2025-06-06T11:07:51.379075
13427,-0.7340,0.2006,1.1253,5.740,1.085,1.330,0.92,0.0184,0.0254,0.0100,0.0087,2025-06-06T11:07:51.379075
13428,-0.6495,0.2674,0.6573,-2.800,-3.220,3.535,0.91,0.0184,0.0508,0.0100,0.0174,2025-06-06T11:07:51.480642
13429,-0.7091,0.2830,0.7369,3.430,-4.480,2.660,0.90,0.0184,0.0508,0.0100,0.0087,2025-06-06T11:07:51.480642
13430,-0.6442,0.3172,0.6115,-10.780,-8.330,3.220,0.91,0.0184,0.0762,0.0200,0.0174,2025-06-06T11:07:51.480642
13431,-0.6798,0.2801,0.7662,-6.090,-6.685,2.695,0.91,0.0368,0.0254,0.0100,0.0087,2025-06-06T11:07:51.480642
13432,-0.6588,0.2743,0.6773,-1.225,-1.785,4.760,0.90,0.0368,0.0254,0.0300,0.0087,2025-06-06T11:07:51.480642
13433,-0.6554,0.2752,0.7071,0.875,4.830,7.700,0.91,0.0368,0.0254,0.0200,0.0087,2025-06-06T11:07:51.480642
13434,-0.6354,0.3187,0.6881,3.920,6.265,5.320,0.90,0.0184,0.0508,0.0200,0.0087,2025-06-06T11:07:51.480642
13435,-0.6622,0.3050,0.6920,2.100,3.640,1.925,0.90,0.0184,0.0000,0.0100,0.0087,2025-06-06T11:07:51.480642
13436,-0.6730,0.3079,0.7203,-1.015,-3.500,-4.410,0.92,0.0184,0.0508,0.0100,0.0174,2025-06-06T11:07:51.520533
13437,-0.6461,0.2821,0.6944,-13.545,-12.005,-10.500,0.93,0.0184,0.0762,0.0100,0.0087,2025-06-06T11:07:51.520533
13438,-0.6793,0.2660,0.7393,-11.830,-23.030,-17.150,0.90,0.0368,0.0508,0.0100,0.0087,2025-06-06T11:07:51.520533
13439,-0.6690,0.2855,0.6285,-18.725,-23.100,-17.220,0.92,0.0184,0.0254,0.0200,0.0174,2025-06-06T11:07:51.673714
13440,-0.6588,0.2401,0.7588,-16.835,-22.155,-21.175,0.91,0.0368,0.0254,0.0100,0.0000,2025-06-06T11:07:51.673714
13441,-0.6549,0.2869,0.7096,-16.765,-18.515,-29.505,0.90,0.0184,0.0254,0.0200,0.0087,2025-06-06T11:07:51.673714
13442,-0.6866,0.2181,0.6134,-40.635,-25.025,-39.515,0.91,0.0184,0.0508,0.0100,0.0087,2025-06-06T11:07:51.673714
13443,-0.5646,0.2952,0.7901,-33.110,-30.520,-31.605,0.91,0.0000,0.0508,0.0200,0.0087,2025-06-06T11:07:51.673714
13444,-0.6525,0.2357,0.7979,-32.480,-21.175,-21.630,0.92,0.0184,0.0000,0.0200,0.0087,2025-06-06T11:07:51.673714
13445,-0.6012,0.1757,0.7130,-1.295,-8.750,-18.060,0.91,0.0184,0.0000,0.0200,0.0087,2025-06-06T11:07:51.673714
13446,-0.6207,0.2445,0.7242,3.745,-7.000,-9.590,0.91,0.0184,0.0508,0.0100,0.0087,2025-06-06T11:07:51.673714
13447,-0.7252,0.2352,0.7491,7.910,-4.550,-5.705,0.91,0.0184,0.0508,0.0100,0.0087,2025-06-06T11:07:51.673714
13448,-0.6778,0.2250,0.7247,3.850,-4.095,-3.150,0.91,0.0184,0.0762,0.0200,0.0087,2025-06-06T11:07:51.673714
13449,-0.6793,0.2211,0.7398,4.760,-2.625,1.225,0.90,0.0368,0.0508,0.0100,0.0087,2025-06-06T11:07:51.673714
13450,-0.6725,0.2133,0.7505,13.440,2.170,4.830,0.91,0.0184,0.0254,0.0200,0.0174,2025-06-06T11:07:51.673714
13451,-0.6612,0.2220,0.7496,21.140,0.980,8.680,0.89,0.0368,0.0508,0.0100,0.0174,2025-06-06T11:07:51.823698
13452,-0.6827,0.2176,0.6969,13.370,-0.175,6.720,0.91,0.0184,0.0508,0.0100,0.0087,2025-06-06T11:07:51.823698
13453,-0.7247,0.2547,0.7505,11.165,-5.145,1.295,0.91,0.0184,0.0508,0.0100,0.0087,2025-06-06T11:07:51.823698
13454,-0.7466,0.2220,0.8233,11.830,-15.820,-0.665,0.91,0.0184,0.0254,0.0401,0.0174,2025-06-06T11:07:51.823698
13455,-0.6534,0.2015,0.6154,10.535,-26.600,-0.700,0.92,0.0184,0.1018,0.0100,0.0087,2025-06-06T11:07:51.823698
13456,-0.6564,0.2523,0.6720,-10.465,-24.640,-4.095,0.91,0.0184,0.0254,0.0200,0.0174,2025-06-06T11:07:51.823698
13457,-0.6661,0.2191,0.8057,-7.070,-24.115,-5.880,0.90,0.0184,0.0254,0.0200,0.0000,2025-06-06T11:07:51.823698
13458,-0.7325,0.1113,0.8642,6.860,-26.460,-12.985,0.91,0.0184,0.0508,0.0200,0.0087,2025-06-06T11:07:51.823698
13459,-0.6788,0.1479,0.7213,16.905,-25.935,-14.840,0.89,0.0368,0.0508,0.0200,0.0262,2025-06-06T11:07:51.890582
13460,-0.6388,0.2503,0.6842,7.980,-21.735,-18.725,0.90,0.0368,0.0254,0.0000,0.0087,2025-06-06T11:07:51.890582
13461,-0.6198,0.3362,0.7218,3.745,-20.965,-12.915,0.88,0.0368,0.0508,0.0200,0.0174,2025-06-06T11:07:51.890582
13462,-0.6432,0.3001,0.7686,3.605,-21.000,-2.030,0.91,0.0368,0.0254,0.0100,0.0087,2025-06-06T11:07:51.890582
13463,-0.6442,0.2479,0.8145,17.395,-20.475,7.455,0.89,0.0184,0.0254,0.0200,0.0087,2025-06-06T11:07:51.890582
13464,-0.6690,0.3133,0.8389,35.035,-19.985,17.395,0.99,0.0184,0.0508,0.0200,0.0087,2025-06-06T11:07:51.890582
13465,-0.6803,0.2860,0.8940,34.440,-32.760,17.955,0.92,0.0184,0.0508,0.0100,0.0000,2025-06-06T11:07:51.890582
13466,-0.6632,0.1854,0.8296,21.105,-57.715,11.690,0.84,0.0184,0.0508,0.0100,0.0174,2025-06-06T11:07:51.992711
13467,-0.5851,0.0844,0.7867,3.605,-71.435,-2.800,0.91,0.0368,0.0254,0.0200,0.0174,2025-06-06T11:07:51.992711
13468,-0.5783,0.1303,0.8760,-9.275,-63.175,-16.625,0.91,0.0184,0.0254,0.0200,0.0087,2025-06-06T11:07:51.992711
13469,-0.6744,0.2616,0.9228,6.720,-59.535,-23.695,0.90,0.0184,0.0508,0.0200,0.0087,2025-06-06T11:07:51.992711
13470,-0.7169,0.3875,0.8882,21.455,-71.925,-15.715,0.90,0.0184,0.0508,0.0100,0.0087,2025-06-06T11:07:51.992711
13471,-0.6407,0.4826,0.8257,8.400,-87.010,-4.550,0.91,0.0184,0.0254,0.0200,0.0087,2025-06-06T11:07:51.992711
13472,-0.5505,0.4704,0.8516,-9.170,-94.045,10.535,0.90,0.0184,0.0254,0.0100,0.0087,2025-06-06T11:07:51.992711
13473,-0.6417,0.2884,0.8974,5.075,-83.195,20.230,0.91,0.0184,0.0508,0.0200,0.0174,2025-06-06T11:07:51.992711
13474,-0.5539,0.1737,0.9609,30.030,-58.870,18.865,0.91,0.0184,0.0000,0.0100,0.0174,2025-06-06T11:07:52.061874
13475,-0.5222,0.1444,1.1287,59.360,-56.105,13.055,0.90,0.0368,0.0508,0.0100,0.0087,2025-06-06T11:07:52.061874
13476,-0.5549,0.1752,1.2644,64.785,-83.825,8.645,0.91,0.0368,0.0254,0.0200,0.0174,2025-06-06T11:07:52.061874
13477,-0.6246,0.3060,1.4015,75.495,-124.950,11.550,0.91,0.0184,0.0762,0.0200,0.0087,2025-06-06T11:07:52.193462
13478,-0.6891,0.5895,1.4518,98.315,-167.930,34.370,0.91,0.0184,0.0254,0.0300,0.0087,2025-06-06T11:07:52.193462
13479,-0.9135,0.7276,1.4562,135.555,-203.140,67.305,0.92,0.0184,0.0508,0.0300,0.0087,2025-06-06T11:07:52.193462
13480,-1.0106,0.8969,1.3981,211.715,-226.450,107.345,0.90,0.0737,0.0254,0.0300,0.0087,2025-06-06T11:07:52.193462
13481,-1.0507,0.8584,0.9365,247.240,-267.820,140.280,0.89,0.0368,0.0508,0.0200,0.0174,2025-06-06T11:07:52.193462
13482,-0.8638,0.4943,0.7100,224.455,-288.295,147.315,0.91,0.0184,0.0254,0.0300,0.0087,2025-06-06T11:07:52.193462
13483,-0.4773,0.1957,0.2738,176.190,-284.060,126.175,0.91,0.0184,0.0254,0.0200,0.0087,2025-06-06T11:07:52.193462
13484,-0.0205,-0.3733,-0.0586,102.410,-255.185,79.415,0.91,0.0184,0.0254,0.0200,0.0087,2025-06-06T11:07:52.193462
13485,0.3972,-0.9565,-0.5915,-68.390,-264.565,8.645,0.91,0.0184,0.0254,0.0200,0.0174,2025-06-06T11:07:52.193462
13486,0.6071,-1.6938,-1.2220,-298.305,-195.300,-153.160,0.89,0.0184,0.0254,0.0401,0.0087,2025-06-06T11:07:52.193462
13487,0.6749,-1.2166,-2.0520,-561.365,-89.635,-281.260,0.90,0.0184,0.0254,0.0100,0.0087,2025-06-06T11:07:52.193462
13488,0.1566,-0.2391,-2.2687,-795.655,177.450,-321.405,0.92,0.0000,0.0508,0.0200,0.0087,2025-06-06T11:07:52.193462
13489,-0.3587,0.7671,-2.2067,-945.945,373.450,-120.505,0.90,0.0368,0.0762,0.0200,0.0174,2025-06-06T11:07:52.300080
13490,-1.4562,0.5651,-1.4498,-935.900,624.470,315.805,0.91,0.0368,0.0508,0.0100,0.0087,2025-06-06T11:07:52.300080
13491,-2.6503,0.5422,2.4844,-362.075,1091.335,438.690,0.92,0.0184,0.0508,0.0200,0.0174,2025-06-06T11:07:52.300080
13492,-6.5270,-9.8356,15.9678,735.455,746.760,198.730,0.90,0.0368,0.0254,0.0200,0.0174,2025-06-06T11:07:52.300080
13493,0.2562,0.0610,-3.0988,600.740,-180.915,-55.160,0.91,0.0368,0.0254,0.0200,0.0087,2025-06-06T11:07:52.300080
13494,-0.3401,2.2194,0.1571,51.835,-410.970,87.815,0.91,0.0368,0.0508,0.0200,0.0087,2025-06-06T11:07:52.300080
13495,-0.2694,1.1541,0.1552,-683.585,-237.370,42.000,0.91,0.0184,0.0254,0.0200,0.0087,2025-06-06T11:07:52.300080
13496,-0.2655,0.3758,-0.9560,-392.840,-312.480,-110.530,0.91,0.0368,0.0508,0.0200,0.0087,2025-06-06T11:07:52.409465
13497,-1.2820,-0.6681,2.9158,259.105,18.935,116.130,0.91,0.0184,0.0508,0.0200,0.0087,2025-06-06T11:07:52.409465
13498,-0.0239,-0.7149,1.3771,320.110,418.320,286.090,0.90,0.0184,0.0254,0.0200,0.0087,2025-06-06T11:07:52.409465
13499,-0.6398,-0.5549,0.8730,544.600,369.005,206.710,0.91,0.0368,0.0254,0.0200,0.0174,2025-06-06T11:07:52.409465
13500,-0.5734,0.5119,-0.1928,480.760,253.750,124.425,0.91,0.0368,0.0254,0.0300,0.0087,2025-06-06T11:07:52.409465
13501,-0.8550,0.3821,0.4851,77.280,149.100,67.165,0.91,0.0184,0.0254,0.0100,0.0087,2025-06-06T11:07:52.409465
13502,-0.9048,0.3606,0.5139,43.015,19.985,44.485,0.91,0.0368,0.0254,0.0200,0.0087,2025-06-06T11:07:52.409465
13503,-1.0424,0.4197,1.0282,-21.455,-18.305,18.620,0.90,0.0184,0.0254,0.0200,0.0174,2025-06-06T11:07:52.409465
13504,-0.9496,0.6554,0.7042,100.695,21.875,61.705,0.91,0.0368,0.0762,0.0100,0.0174,2025-06-06T11:07:52.504826
13505,-1.2234,0.7647,1.2088,158.060,73.850,76.790,0.93,0.0368,0.0508,0.0200,0.0174,2025-06-06T11:07:52.504826
13506,-1.2317,0.6129,1.1307,189.525,11.445,84.595,0.90,0.0000,0.0254,0.0200,0.0087,2025-06-06T11:07:52.504826
13507,-1.4069,0.8179,1.0765,118.475,-105.770,78.120,0.91,0.0368,0.0508,0.0300,0.0174,2025-06-06T11:07:52.504826
13508,-1.4601,0.9345,1.1995,63.910,-231.210,89.530,0.91,0.0368,0.0254,0.0100,0.0087,2025-06-06T11:07:52.504826
13509,-1.2781,0.8662,1.1258,100.695,-390.110,114.695,0.92,0.0184,0.0508,0.0100,0.0087,2025-06-06T11:07:52.504826
13510,-1.0643,0.8003,0.8023,160.545,-498.435,172.270,0.91,0.0184,0.0254,0.0200,0.0087,2025-06-06T11:07:52.504826
13511,-0.9740,0.5329,0.3113,209.335,-552.125,225.575,0.90,0.0368,0.0000,0.0100,0.0087,2025-06-06T11:07:52.625593
13512,-0.3655,-0.3333,0.1054,174.335,-536.060,240.870,0.90,0.0184,0.0508,0.0200,0.0174,2025-06-06T11:07:52.625593
13513,0.1791,-1.3191,-0.2342,34.475,-569.030,207.655,0.91,0.0368,0.0254,0.0200,0.0087,2025-06-06T11:07:52.625593
13514,0.3894,-2.3346,-1.1502,-266.455,-660.940,50.505,0.91,0.0184,0.0254,0.0200,0.0087,2025-06-06T11:07:52.625593
13515,0.1674,-1.8456,-2.3190,-690.725,-528.290,-100.065,0.91,0.0184,0.0254,0.0200,0.0087,2025-06-06T11:07:52.625593
13516,-0.2045,-0.7896,-1.5357,-999.145,-140.350,-325.535,0.91,0.0184,0.0254,0.0200,0.0087,2025-06-06T11:07:52.625593
13517,-0.1767,2.2643,-2.8812,-907.095,181.895,-167.230,0.91,0.0184,0.0254,0.0200,0.0087,2025-06-06T11:07:52.625593
13518,-1.1244,0.9462,-2.6464,-1138.935,513.975,261.205,0.91,0.0368,0.0508,0.0300,0.0174,2025-06-06T11:07:52.625593
13519,-2.1487,-0.5710,0.5568,-800.625,1007.125,403.585,0.90,0.0184,0.0508,0.0300,0.0174,2025-06-06T11:07:52.708781
13520,-6.5011,-0.6027,7.3917,762.440,1146.740,968.905,0.91,0.0184,0.0508,0.0200,0.0087,2025-06-06T11:07:52.708781
13521,-6.2864,-3.3487,5.2538,937.265,967.435,885.605,0.91,0.0184,0.0254,0.0401,0.0087,2025-06-06T11:07:52.708781
13522,0.0210,1.3908,-2.5737,396.060,-354.060,40.495,0.90,0.0184,0.0254,0.0300,0.0087,2025-06-06T11:07:52.708781
13523,-0.6446,1.5601,0.7281,-735.070,-458.535,6.615,0.91,0.0368,0.0254,0.0200,0.0174,2025-06-06T11:07:52.708781
13524,-0.5153,0.3421,-0.1293,-901.775,-614.845,-283.675,0.91,0.0184,0.0508,0.0200,0.0087,2025-06-06T11:07:52.708781
13525,-0.7793,-0.1288,-0.2826,134.610,22.260,31.395,0.91,0.0184,0.0254,0.0300,0.0087,2025-06-06T11:07:52.708781
13526,-0.8145,-1.4528,3.0637,113.295,233.135,147.315,0.91,0.0368,0.0254,0.0200,0.0174,2025-06-06T11:07:52.763206
13527,-0.7764,-0.3411,1.2878,681.870,819.910,257.845,0.91,0.0368,0.0508,0.0300,0.0087,2025-06-06T11:07:52.763206
13528,-0.7379,1.2180,-0.6198,654.745,560.560,133.105,0.91,0.0184,0.0508,0.0200,0.0087,2025-06-06T11:07:52.763206
13529,-1.5826,0.6661,3.0851,186.025,-110.880,82.915,0.91,0.0184,0.0254,0.0300,0.0174,2025-06-06T11:07:52.763206
13530,-1.3020,0.8911,0.6744,-104.300,-303.135,46.900,0.91,0.0368,0.0000,0.0200,0.0087,2025-06-06T11:07:52.944683
13531,-1.7412,0.5602,1.5655,73.045,-615.650,47.600,0.90,0.0368,0.0508,0.0200,0.0174,2025-06-06T11:07:52.944683
13532,-1.4411,0.6110,0.9267,267.890,-617.995,106.645,0.91,0.0184,0.0254,0.0200,0.0087,2025-06-06T11:07:52.944683
13533,-1.1556,0.6066,0.1845,412.510,-621.040,203.980,0.91,0.0000,0.0508,0.0200,0.0087,2025-06-06T11:07:52.944683
13534,-0.8081,0.2484,-0.0142,338.345,-604.415,283.815,0.91,0.0184,0.0254,0.0100,0.0087,2025-06-06T11:07:52.944683
13535,-0.1723,-0.5617,-0.0024,216.580,-671.615,317.730,0.92,0.0184,0.0000,0.0100,0.0087,2025-06-06T11:07:52.944683
13536,0.2879,-1.9339,-0.6124,-7.105,-700.000,241.395,0.91,0.0184,0.0254,0.0100,0.0087,2025-06-06T11:07:52.944683
13537,0.4680,-2.3346,-1.5909,-351.960,-723.695,129.045,0.91,0.0552,0.0000,0.0100,0.0087,2025-06-06T11:07:52.944683
13538,-0.0293,-2.3717,-2.5552,-721.490,-536.935,44.450,0.91,0.0184,0.0254,0.0100,0.0087,2025-06-06T11:07:52.944683
13539,-0.0093,0.4875,-3.1496,-858.130,-39.760,-55.055,0.91,0.0184,0.0254,0.0200,0.0087,2025-06-06T11:07:52.944683
13540,-1.4669,0.1391,-2.8709,-1146.740,549.115,19.495,0.91,0.0184,0.0254,0.0200,0.0087,2025-06-06T11:07:52.944683
13541,-2.0037,-0.3167,-0.0781,-1146.740,1145.480,269.710,0.91,0.0184,0.0508,0.0200,0.0087,2025-06-06T11:07:52.944683
13542,-2.6313,-0.8535,0.0996,-430.850,1146.740,380.065,0.90,0.0368,0.0762,0.0100,0.0174,2025-06-06T11:07:53.127861
13543,-7.1663,2.2873,11.2352,1055.110,1011.080,459.725,0.91,0.0368,0.0508,0.0200,0.0174,2025-06-06T11:07:53.127861
13544,1.1390,0.6642,0.5563,1145.060,660.625,283.745,0.91,0.0368,0.0254,0.0300,0.0087,2025-06-06T11:07:53.127861
13545,0.7183,1.1302,-5.0005,-316.015,-49.350,7.000,0.91,0.0184,0.0254,0.0200,0.0087,2025-06-06T11:07:53.127861
13546,-1.6226,0.0283,1.7812,-884.380,-409.080,-53.690,0.90,0.0184,0.0508,0.0200,0.0174,2025-06-06T11:07:53.127861
13547,-0.4021,-0.1893,0.6207,-662.305,-722.505,-509.145,0.90,0.0184,0.0508,0.0300,0.0087,2025-06-06T11:07:53.127861
13548,0.0273,-1.1746,1.0077,-19.180,-149.940,-100.415,0.90,0.0368,0.0254,0.0300,0.0174,2025-06-06T11:07:53.127861
13549,0.1947,-0.4656,0.1283,166.495,248.290,155.470,0.89,0.0184,0.0254,0.0200,0.0087,2025-06-06T11:07:53.127861
13550,-0.3723,-0.1747,0.5622,312.095,370.545,270.445,0.91,0.0184,0.0254,0.0200,0.0174,2025-06-06T11:07:53.127861
13551,-0.6012,0.1059,0.0825,342.510,420.560,198.310,0.90,0.0184,0.0254,0.0300,0.0087,2025-06-06T11:07:53.127861
13552,-0.8252,-0.0171,1.1102,192.885,257.390,69.545,0.90,0.0184,0.0254,0.0200,0.0087,2025-06-06T11:07:53.127861
13553,-0.9170,0.2523,0.5797,-21.280,-15.295,1.120,0.91,0.0184,0.0254,0.0200,0.0087,2025-06-06T11:07:53.127861
13554,-0.9257,0.1240,0.9614,-158.620,-129.115,-28.455,0.92,0.0184,0.0000,0.0100,0.0087,2025-06-06T11:07:53.127861
13555,-0.7515,-0.0093,0.7706,-133.770,-144.480,-46.340,0.91,0.0184,0.0508,0.0100,0.0174,2025-06-06T11:07:53.127861
13556,-0.6856,-0.0586,0.6285,-41.930,-82.075,-23.940,0.91,0.0368,0.0254,0.0200,0.0087,2025-06-06T11:07:53.257513
13557,-0.6895,-0.1044,0.8111,30.275,0.280,9.275,0.90,0.0184,0.0000,0.0100,0.0087,2025-06-06T11:07:53.257513
13558,-0.6974,-0.0405,0.6974,51.765,14.490,16.205,0.90,0.0368,0.0254,0.0300,0.0174,2025-06-06T11:07:53.257513
13559,-0.7193,0.0468,0.6695,7.000,-25.375,6.020,0.91,0.0368,0.0508,0.0300,0.0087,2025-06-06T11:07:53.257513
13560,-0.7505,0.0254,0.7730,-33.145,-43.890,-0.805,0.90,0.0184,0.0508,0.0200,0.0087,2025-06-06T11:07:53.257513
13561,-0.7613,0.0195,0.7910,-19.600,-37.065,-0.455,0.91,0.0000,0.0254,0.0100,0.0087,2025-06-06T11:07:53.257513
13562,-0.7369,0.0659,0.7266,11.655,-10.150,6.545,0.91,0.0184,0.0254,0.0200,0.0087,2025-06-06T11:07:53.257513
13563,-0.7344,0.0434,0.7993,16.310,-3.045,8.785,0.90,0.0184,0.0508,0.0200,0.0087,2025-06-06T11:07:53.257513
13564,-0.7559,0.0059,0.8847,12.320,-12.880,4.060,0.91,0.0184,0.0000,0.0200,0.0174,2025-06-06T11:07:53.257513
13565,-0.7354,0.0127,0.7247,-0.315,-17.710,-1.190,0.91,0.0368,0.0254,0.0100,0.0174,2025-06-06T11:07:53.257513
13566,-0.6593,0.0537,0.6608,-6.860,-4.795,-2.065,0.91,0.0368,0.0000,0.0200,0.0087,2025-06-06T11:07:53.257513
13567,-0.6612,0.0107,0.7462,-3.430,7.945,2.625,0.88,0.0184,0.0508,0.0200,0.0174,2025-06-06T11:07:53.425341
13568,-0.6871,-0.0127,0.8076,15.540,9.800,5.530,0.91,0.0368,0.0762,0.0300,0.0087,2025-06-06T11:07:53.425341
13569,-0.6881,0.0322,0.7418,8.190,6.090,1.925,0.89,0.0368,0.0508,0.0300,0.0087,2025-06-06T11:07:53.425341
13570,-0.6520,0.0415,0.7139,-3.430,-0.840,0.280,0.91,0.0184,0.0000,0.0100,0.0174,2025-06-06T11:07:53.425341
13571,-0.6564,0.0117,0.7510,2.765,-3.465,1.505,0.91,0.0184,0.0508,0.0200,0.0087,2025-06-06T11:07:53.425341
13572,-0.7120,0.0010,0.7569,14.315,7.070,5.530,0.92,0.0184,0.0508,0.0100,0.0087,2025-06-06T11:07:53.425341
13573,-0.7056,0.0405,0.7432,11.970,5.985,4.620,0.90,0.0184,0.0254,0.0200,0.0174,2025-06-06T11:07:53.425341
13574,-0.7071,0.0420,0.7105,6.790,-0.315,1.680,0.91,0.0184,0.0000,0.0100,0.0087,2025-06-06T11:07:53.425341
13575,-0.7110,0.0366,0.7300,0.350,-3.290,1.190,0.93,0.0184,0.0254,0.0200,0.0087,2025-06-06T11:07:53.425341
13576,-0.6144,-0.0493,0.7300,7.280,-2.660,3.080,0.92,0.0184,0.0254,0.0200,0.0000,2025-06-06T11:07:53.425341
13577,-0.6617,0.0756,0.5475,7.525,-7.945,4.900,0.91,0.0368,0.0254,0.0100,0.0087,2025-06-06T11:07:53.425341
13578,-0.7110,0.0386,0.7266,-7.945,-5.985,5.215,0.91,0.0184,0.0254,0.0300,0.0087,2025-06-06T11:07:53.425341
13579,-0.7188,-0.0132,0.8198,-8.925,-10.710,0.210,0.91,0.0184,0.0254,0.0300,0.0174,2025-06-06T11:07:53.555806
13580,-0.7178,-0.0537,0.8013,0.245,-22.750,-7.665,0.91,0.0000,0.0254,0.0300,0.0087,2025-06-06T11:07:53.555806
13581,-0.7305,-0.0273,0.7418,-3.360,-16.975,-13.615,0.90,0.0184,0.0254,0.0200,0.0087,2025-06-06T11:07:53.555806
13582,-0.7261,0.0190,0.7261,-4.305,-4.970,-14.700,0.90,0.0184,0.0508,0.0300,0.0174,2025-06-06T11:07:53.555806
13583,-0.7047,0.0278,0.7442,-2.450,-1.575,-13.195,0.91,0.0184,0.0254,0.0200,0.0087,2025-06-06T11:07:53.555806
13584,-0.7266,0.0210,0.7666,-4.690,-1.120,-12.880,0.89,0.0184,0.0254,0.0200,0.0087,2025-06-06T11:07:53.555806
13585,-0.7188,0.0259,0.7559,-7.140,-1.295,-13.160,0.93,0.0368,0.0000,0.0200,0.0174,2025-06-06T11:07:53.555806
13586,-0.7056,0.0434,0.7784,-5.460,0.490,-12.425,0.90,0.0368,0.0508,0.0300,0.0087,2025-06-06T11:07:53.555806
13587,-0.6773,0.0508,0.7803,-1.505,0.770,-9.555,0.91,0.0184,0.0508,0.0200,0.0087,2025-06-06T11:07:53.555806
13588,-0.6525,0.0961,0.7418,5.950,-0.875,-4.970,0.91,0.0368,0.0254,0.0300,0.0087,2025-06-06T11:07:53.602666
13589,-0.6603,0.0991,0.7159,8.505,-4.690,-0.490,0.92,0.0184,0.0254,0.0100,0.0087,2025-06-06T11:07:53.602666
13590,-0.6895,0.0161,0.7340,6.825,-2.940,-0.455,0.91,0.0368,0.0254,0.0200,0.0087,2025-06-06T11:07:53.602666
13591,-0.7286,-0.0210,0.7749,7.000,1.085,2.625,0.90,0.0368,0.0762,0.0100,0.0174,2025-06-06T11:07:53.602666
13592,-0.7149,0.0063,0.7637,15.085,-1.680,4.760,0.92,0.0184,0.0254,0.0100,0.0174,2025-06-06T11:07:53.866904
13593,-0.6847,0.0166,0.7593,19.460,-7.280,4.970,0.91,0.0184,0.0508,0.0300,0.0174,2025-06-06T11:07:53.866904
13594,-0.7008,0.0356,0.7232,18.410,-9.380,3.255,0.91,0.0184,0.0508,0.0200,0.0174,2025-06-06T11:07:53.866904
13595,-0.6944,0.0468,0.7081,15.015,-7.525,2.730,0.91,0.0368,0.0508,0.0200,0.0087,2025-06-06T11:07:53.866904
13596,-0.6910,0.0449,0.7208,12.215,-6.265,1.995,0.88,0.0368,0.0254,0.0200,0.0174,2025-06-06T11:07:53.866904
13597,-0.7066,0.0332,0.7388,13.825,-8.120,1.330,0.91,0.0184,0.0254,0.0200,0.0087,2025-06-06T11:07:53.866904
13598,-0.6939,0.0488,0.7320,11.970,-7.385,-0.245,0.91,0.0184,0.0508,0.0200,0.0087,2025-06-06T11:07:53.866904
13599,-0.6739,0.0420,0.7096,5.005,-7.805,-1.015,0.91,0.0184,0.0508,0.0200,0.0087,2025-06-06T11:07:53.866904
13600,-0.6808,0.0488,0.7056,3.115,-7.315,-1.960,0.90,0.0184,0.0254,0.0200,0.0087,2025-06-06T11:07:53.866904
13601,-0.6920,0.0498,0.7149,-0.210,-6.440,-3.465,0.91,0.0368,0.0508,0.0100,0.0087,2025-06-06T11:07:54.023353
13602,-0.7178,0.0415,0.7335,-4.375,-3.220,-4.025,0.90,0.0184,0.0254,0.0401,0.0174,2025-06-06T11:07:54.023353
13603,-0.7105,0.0190,0.7701,-3.955,-6.125,-3.010,0.91,0.0184,0.0508,0.0300,0.0174,2025-06-06T11:07:54.023353
13604,-0.7008,0.0185,0.7637,0.385,-8.190,-2.205,0.95,0.0368,0.0254,0.0200,0.0087,2025-06-06T11:07:54.023353
13605,-0.6837,0.0468,0.6939,-1.295,-8.190,-3.010,0.90,0.0368,0.0254,0.0200,0.0087,2025-06-06T11:07:54.023353
13606,-0.6895,0.0571,0.7076,-5.810,-7.490,-4.375,0.90,0.0184,0.0508,0.0200,0.0174,2025-06-06T11:07:54.023353
13607,-0.6944,0.0600,0.6730,-13.370,-9.450,-7.770,0.90,0.0184,0.0508,0.0200,0.0000,2025-06-06T11:07:54.023353
13608,-0.7091,0.0098,0.8179,-18.200,-2.975,-9.625,0.91,0.0184,0.0508,0.0300,0.0087,2025-06-06T11:07:54.023353
13609,-0.6803,-0.0063,0.7920,-21.280,-2.975,-10.360,0.90,0.0184,0.0508,0.0000,0.0087,2025-06-06T11:07:54.023353
13610,-0.6915,0.0122,0.7242,-11.760,-5.390,-6.405,0.91,0.0552,0.0508,0.0200,0.0087,2025-06-06T11:07:54.042542
13611,-0.6910,-0.0039,0.7588,-8.295,-6.615,-3.010,0.91,0.0368,0.0508,0.0100,0.0174,2025-06-06T11:07:54.042542
13612,-0.7403,-0.0068,0.8047,-2.765,-1.645,2.730,0.90,0.0368,0.0254,0.0200,0.0087,2025-06-06T11:07:54.042542
13613,-0.6393,-0.0278,0.6359,9.415,-7.175,3.150,0.91,0.0184,0.0508,0.0100,0.0087,2025-06-06T11:07:54.042542
13614,-0.6656,0.0512,0.6690,1.925,-9.940,1.645,0.91,0.0184,0.0508,0.0200,0.0174,2025-06-06T11:07:54.042542
13615,-0.6969,0.0229,0.7291,-12.705,-2.240,-0.525,0.93,0.0184,0.0254,0.0300,0.0087,2025-06-06T11:07:54.042542
13616,-0.6900,0.0200,0.7408,-7.280,-3.850,-0.525,0.86,0.0368,0.0254,0.0200,0.0087,2025-06-06T11:07:54.042542
13617,-0.6983,0.0015,0.7491,-4.760,-7.420,0.175,0.91,0.0184,0.0254,0.0200,0.0087,2025-06-06T11:07:54.042542
13618,-0.7042,-0.0054,0.7798,-4.340,-6.195,1.750,0.91,0.0184,0.0762,0.0200,0.0087,2025-06-06T11:07:54.042542
13619,-0.7052,-0.0107,0.7969,0.525,-5.075,4.970,0.91,0.0184,0.0508,0.0100,0.0087,2025-06-06T11:07:54.042542
13620,-0.7183,0.0020,0.8028,8.050,-3.570,5.670,0.90,0.0184,0.0254,0.0200,0.0087,2025-06-06T11:07:54.042542
13621,-0.6954,0.0146,0.7462,8.995,-5.565,5.460,0.90,0.0184,0.0254,0.0300,0.0262,2025-06-06T11:07:54.042542
13622,-0.6949,0.0210,0.7510,8.260,-5.915,4.760,0.90,0.0184,0.0254,0.0200,0.0087,2025-06-06T11:07:54.042542
13623,-0.6832,0.0293,0.7178,5.845,-6.825,3.430,0.90,0.0184,0.0254,0.0200,0.0087,2025-06-06T11:07:54.042542
13624,-0.6759,0.0381,0.6949,4.900,-7.805,2.345,0.91,0.0184,0.0508,0.0200,0.0087,2025-06-06T11:07:54.042542
13625,-0.6788,0.0322,0.7125,-0.140,-9.765,1.365,0.91,0.0368,0.0000,0.0300,0.0174,2025-06-06T11:07:54.149585
13626,-0.6852,0.0195,0.7247,-0.805,-11.095,2.135,0.92,0.0184,0.0508,0.0200,0.0087,2025-06-06T11:07:54.149585
13627,-0.7022,0.0054,0.7837,0.315,-10.220,4.515,0.90,0.0368,0.0508,0.0200,0.0087,2025-06-06T11:07:54.149585
13628,-0.7149,0.0020,0.8311,4.025,-8.190,5.915,0.91,0.0184,0.0508,0.0200,0.0174,2025-06-06T11:07:54.149585
13629,-0.7076,0.0098,0.8096,8.750,-7.420,5.950,0.91,0.0184,0.0508,0.0200,0.0087,2025-06-06T11:07:54.149585
13630,-0.6934,0.0298,0.7564,10.360,-7.175,6.020,0.91,0.0184,0.0508,0.0200,0.0087,2025-06-06T11:07:54.149585
13631,-0.6871,0.0425,0.7349,9.310,-8.015,4.935,0.90,0.0184,0.0254,0.0200,0.0174,2025-06-06T11:07:54.149585
13632,-0.6559,0.0464,0.6930,8.435,-10.605,2.975,0.89,0.0184,0.0508,0.0300,0.0087,2025-06-06T11:07:54.149585
13633,-0.6559,0.0722,0.6778,2.695,-11.900,0.210,0.91,0.0368,0.0254,0.0200,0.0174,2025-06-06T11:07:54.246090
13634,-0.6554,0.0810,0.6573,-3.395,-16.555,-2.800,0.90,0.0368,0.0254,0.0200,0.0087,2025-06-06T11:07:54.246090
13635,-0.6505,0.0527,0.6959,-3.605,-26.075,-5.740,0.91,0.0184,0.0508,0.0200,0.0174,2025-06-06T11:07:54.246090
13636,-0.6442,0.0293,0.7198,-5.355,-31.430,-5.040,0.91,0.0368,0.0508,0.0300,0.0087,2025-06-06T11:07:54.246090
13637,-0.6554,0.0181,0.7554,-6.370,-37.275,-3.745,0.91,0.0184,0.0762,0.0100,0.0087,2025-06-06T11:07:54.246090
13638,-0.6837,0.0088,0.7754,0.350,-33.495,-0.980,0.90,0.0184,0.0254,0.0200,0.0087,2025-06-06T11:07:54.246090
13639,-0.6710,-0.0420,0.8847,-12.565,-21.140,1.820,0.91,0.0368,0.0762,0.0300,0.0087,2025-06-06T11:07:54.246090
13640,-0.7510,-0.1039,1.0087,-10.990,0.000,5.705,0.92,0.0368,0.0254,0.0200,0.0174,2025-06-06T11:07:54.303629
13641,-0.8091,-0.1591,1.2478,35.665,8.435,11.865,0.91,0.0000,0.0508,0.0200,0.0174,2025-06-06T11:07:54.303629
13642,-0.8833,-0.2186,1.5982,100.415,25.410,32.025,0.90,0.0368,0.0254,0.0300,0.0087,2025-06-06T11:07:54.303629
13643,-1.2283,-0.2113,1.5211,233.940,26.635,31.815,0.91,0.0184,0.0508,0.0200,0.0087,2025-06-06T11:07:54.303629
13644,-1.2961,0.2518,1.3625,209.195,66.885,45.850,0.91,0.0368,0.0254,0.0300,0.0087,2025-06-06T11:07:54.471339
13645,-1.1814,1.1009,1.1283,222.880,90.895,131.145,0.91,0.0184,0.0254,0.0200,0.0087,2025-06-06T11:07:54.471339
13646,-1.8568,1.2498,2.0974,257.740,42.175,228.830,0.91,0.0184,0.0000,0.0200,0.0174,2025-06-06T11:07:54.471339
13647,-2.1516,1.0965,1.8246,389.410,-45.465,246.610,0.90,0.0184,0.0508,0.0401,0.0174,2025-06-06T11:07:54.471339
13648,-2.0359,0.9487,1.5416,475.720,-317.275,245.455,0.91,0.0368,0.0508,0.0300,0.0000,2025-06-06T11:07:54.471339
13649,-2.1370,0.7408,0.9638,289.310,-665.000,266.735,0.91,0.0368,0.0762,0.0100,0.0087,2025-06-06T11:07:54.471339
13650,-1.9993,-0.0493,0.5871,364.665,-960.155,338.345,0.90,0.0184,0.0508,0.0300,0.0087,2025-06-06T11:07:54.471339
13651,-1.8110,-0.8242,-0.2347,307.650,-1146.600,407.085,0.92,0.0184,0.0508,0.0200,0.0087,2025-06-06T11:07:54.471339
13652,-1.0838,-1.9110,-1.8603,208.915,-1146.740,394.345,0.90,0.0368,0.0508,0.0200,0.0087,2025-06-06T11:07:54.471339
13653,-0.7188,-2.3297,-3.3555,-483.000,-1146.740,493.255,0.90,0.0184,0.0508,0.0200,0.0087,2025-06-06T11:07:54.471339
13654,-1.6909,-1.4684,-4.0816,-603.295,-991.060,485.730,0.95,0.0368,0.0508,0.0300,0.0174,2025-06-06T11:07:54.471339
13655,-2.5112,-0.3626,-6.4128,-962.185,-445.445,508.935,0.91,0.0184,0.0508,0.0200,0.0087,2025-06-06T11:07:54.471339
13656,-1.6407,-0.7647,-3.7234,-1084.755,645.890,372.820,0.91,0.0184,0.0508,0.0100,0.0174,2025-06-06T11:07:54.645094
13657,-0.5285,-2.2531,-1.3274,-1146.740,1146.740,348.950,0.89,0.0368,0.0508,0.0100,0.0087,2025-06-06T11:07:54.645094
13658,-2.9173,-2.9256,0.1732,-1146.740,1146.740,601.965,0.96,0.0368,0.0508,0.0300,0.0174,2025-06-06T11:07:54.645094
13659,-10.7765,3.0729,11.4695,1072.855,1146.740,1085.665,0.90,0.0368,0.0508,0.0200,0.0087,2025-06-06T11:07:54.645094
13660,-12.3137,-11.0195,15.9888,764.225,332.780,412.475,0.91,0.0184,0.0508,0.0100,0.0087,2025-06-06T11:07:54.645094
13661,1.5221,0.8638,-3.5209,614.600,-128.870,103.565,0.91,0.0184,0.0508,0.0100,0.0000,2025-06-06T11:07:54.645094
13662,-1.8012,-0.3762,3.0451,-754.740,-128.100,-52.710,0.91,0.0184,0.0254,0.0300,0.0087,2025-06-06T11:07:54.645094
13663,-0.3065,-0.0683,-0.3172,-997.045,-541.240,-389.900,0.91,0.0184,0.0254,0.0200,0.0087,2025-06-06T11:07:54.645094
13664,0.0586,0.6749,-0.0712,-99.540,-206.640,-140.280,0.91,0.0184,0.0508,0.0200,0.0087,2025-06-06T11:07:54.645094
13665,-0.1791,-0.2616,-0.0590,201.565,-39.340,9.800,0.90,0.0184,0.0254,0.0000,0.0087,2025-06-06T11:07:54.645094
13666,-0.2435,-0.6573,0.8472,44.520,469.595,417.935,0.90,0.0184,0.0254,0.0200,0.0087,2025-06-06T11:07:54.645094
13667,-0.4494,-0.7779,1.3644,429.695,475.370,310.660,0.91,0.0368,0.0254,0.0300,0.0174,2025-06-06T11:07:54.645094
13668,-0.6334,0.1142,0.7691,334.215,256.970,112.245,0.93,0.0184,0.0254,0.0200,0.0087,2025-06-06T11:07:54.645094
13669,-0.9277,0.1405,0.9789,-177.870,-137.165,-44.940,0.89,0.0368,0.0508,0.0401,0.0087,2025-06-06T11:07:54.645094
13670,-0.6861,-0.0986,0.7730,-209.440,-246.085,-113.365,0.91,0.0368,0.0508,0.0300,0.0087,2025-06-06T11:07:54.859614
13671,-0.6432,-0.1728,0.6612,-131.250,-190.715,-110.250,0.91,0.0368,0.0254,0.0200,0.0087,2025-06-06T11:07:54.859614
13672,-0.6329,-0.2391,0.7906,-18.550,-9.345,-9.730,0.92,0.0368,0.0254,0.0200,0.0174,2025-06-06T11:07:54.859614
13673,-0.6847,-0.1791,0.8423,60.410,46.410,25.935,0.92,0.0184,0.0254,0.0100,0.0174,2025-06-06T11:07:54.859614
13674,-0.7286,-0.0005,0.6852,55.545,45.220,26.740,0.91,0.0368,0.0508,0.0300,0.0174,2025-06-06T11:07:54.859614
13675,-0.7462,-0.0166,0.8301,-9.170,-4.585,5.075,0.88,0.0184,0.0000,0.0200,0.0174,2025-06-06T11:07:54.859614
13676,-0.7681,-0.1161,0.9033,-37.835,-27.545,-7.280,0.91,0.0184,0.0508,0.0200,0.0087,2025-06-06T11:07:54.859614
13677,-0.6700,-0.1264,0.8530,-15.820,-5.145,1.190,0.91,0.0368,0.0254,0.0200,0.0087,2025-06-06T11:07:54.859614
13678,-0.6588,-0.0971,0.7803,16.205,11.935,9.555,0.91,0.0368,0.0508,0.0200,0.0174,2025-06-06T11:07:54.859614
13679,-0.7159,-0.0395,0.6627,17.465,16.555,1.050,0.91,0.0184,0.0254,0.0200,0.0087,2025-06-06T11:07:54.859614
13680,-0.5788,-0.0649,0.8111,-15.225,-0.840,-5.250,0.91,0.0184,0.0254,0.0200,0.0087,2025-06-06T11:07:54.859614
13681,-0.5739,-0.1191,0.7886,-14.525,-15.610,-6.860,0.94,0.0184,0.0508,0.0200,0.0087,2025-06-06T11:07:54.859614
13682,-0.6085,-0.0849,0.7188,2.135,-6.790,-1.505,0.91,0.0184,0.0254,0.0200,0.0087,2025-06-06T11:07:54.859614
13683,-0.6500,-0.1357,0.8286,8.540,1.470,2.590,0.91,0.0368,0.0254,0.0200,0.0087,2025-06-06T11:07:54.859614
13684,-0.6734,-0.1161,0.8247,5.775,0.350,0.945,0.90,0.0184,0.0508,0.0200,0.0000,2025-06-06T11:07:54.859614
13685,-0.6681,-0.1210,0.8037,-8.435,-4.340,-1.540,0.91,0.0184,0.0508,0.0401,0.0174,2025-06-06T11:07:54.958297
13686,-0.6769,-0.1283,0.8272,-6.055,1.540,0.735,0.91,0.0184,0.0508,0.0200,0.0087,2025-06-06T11:07:54.958297
13687,-0.6593,-0.0917,0.7593,1.295,6.020,3.570,0.91,0.0184,0.0000,0.0100,0.0174,2025-06-06T11:07:54.958297
13688,-0.6608,-0.1093,0.7935,1.680,4.760,3.115,0.91,0.0184,0.0508,0.0100,0.0174,2025-06-06T11:07:54.958297
13689,-0.6554,-0.1064,0.7754,-2.240,-1.085,0.805,0.91,0.0184,0.0254,0.0300,0.0000,2025-06-06T11:07:54.958297
13690,-0.6476,-0.0820,0.7364,-1.085,-6.125,-1.505,0.94,0.0368,0.0508,0.0200,0.0087,2025-06-06T11:07:54.958297
13691,-0.6290,-0.0883,0.7276,4.165,-7.315,-1.680,0.91,0.0000,0.0254,0.0200,0.0087,2025-06-06T11:07:54.958297
13692,-0.6427,-0.0956,0.7544,4.235,-7.980,-2.450,0.90,0.0184,0.0254,0.0200,0.0087,2025-06-06T11:07:55.112637
13693,-0.6637,-0.1200,0.7935,3.360,-9.485,-2.905,0.92,0.0368,0.1018,0.0300,0.0174,2025-06-06T11:07:55.112637
13694,-0.6700,-0.1230,0.8111,1.645,-9.940,-3.185,0.91,0.0368,0.0508,0.0300,0.0174,2025-06-06T11:07:55.112637
13695,-0.6583,-0.1127,0.7823,2.660,-9.485,-2.485,0.91,0.0184,0.0508,0.0200,0.0087,2025-06-06T11:07:55.112637
13696,-0.6578,-0.1137,0.7852,4.375,-8.890,-0.910,0.91,0.0368,0.0254,0.0200,0.0087,2025-06-06T11:07:55.112637
13697,-0.6559,-0.1132,0.7920,3.885,-7.770,-0.245,0.91,0.0184,0.0254,0.0200,0.0087,2025-06-06T11:07:55.112637
13698,-0.6715,-0.1064,0.7915,4.655,-8.085,0.175,0.90,0.0368,0.0254,0.0200,0.0087,2025-06-06T11:07:55.112637
13699,-0.6739,-0.1074,0.7842,4.900,-10.570,-0.490,0.92,0.0552,0.0000,0.0300,0.0087,2025-06-06T11:07:55.112637
13700,-0.6398,-0.1039,0.7515,1.925,-9.240,-0.490,0.91,0.0368,0.0254,0.0200,0.0087,2025-06-06T11:07:55.112637
13701,-0.6364,-0.1078,0.7769,4.130,-10.395,-0.315,0.92,0.0368,0.0508,0.0200,0.0174,2025-06-06T11:07:55.112637
13702,-0.6354,-0.1069,0.7832,4.550,-7.105,0.805,0.90,0.0368,0.0254,0.0200,0.0087,2025-06-06T11:07:55.112637
13703,-0.6520,-0.1064,0.8008,5.145,-7.630,0.875,0.91,0.0368,0.0508,0.0300,0.0174,2025-06-06T11:07:55.268124
13704,-0.6481,-0.1059,0.7979,4.760,-8.155,0.420,0.91,0.0184,0.0254,0.0200,0.0174,2025-06-06T11:07:55.268124
13705,-0.6417,-0.1015,0.7876,2.660,-7.665,0.875,0.92,0.0184,0.0508,0.0200,0.0087,2025-06-06T11:07:55.268124
13706,-0.6417,-0.1054,0.7823,3.395,-5.425,2.030,0.91,0.0368,0.0508,0.0200,0.0087,2025-06-06T11:07:55.268124
13707,-0.6461,-0.0981,0.7969,-0.315,-3.185,3.010,0.91,0.0184,0.0508,0.0300,0.0174,2025-06-06T11:07:55.268124
13708,-0.6481,-0.0942,0.8008,1.050,-5.670,1.015,0.90,0.0184,0.0762,0.0300,0.0087,2025-06-06T11:07:55.268124
13709,-0.6412,-0.0976,0.7891,0.700,-6.440,0.490,0.92,0.0184,0.0508,0.0200,0.0087,2025-06-06T11:07:55.268124
13710,-0.6359,-0.0991,0.7784,-1.785,-5.320,0.875,0.93,0.0368,0.0254,0.0200,0.0087,2025-06-06T11:07:55.268124
13711,-0.6456,-0.1015,0.7896,1.120,-3.360,2.170,0.93,0.0184,0.0254,0.0200,0.0174,2025-06-06T11:07:55.268124
13712,-0.6476,-0.1020,0.7959,0.595,-3.605,2.135,0.90,0.0368,0.0000,0.0200,0.0087,2025-06-06T11:07:55.268124
13713,-0.6403,-0.0937,0.7837,-0.875,-4.235,1.680,0.90,0.0368,0.0508,0.0200,0.0087,2025-06-06T11:07:55.268124
13714,-0.6403,-0.0991,0.7842,-1.575,-4.690,1.715,0.90,0.0368,0.0508,0.0200,0.0087,2025-06-06T11:07:55.268124
13715,-0.6456,-0.0981,0.7945,-0.315,-3.290,2.555,0.90,0.0000,0.0762,0.0200,0.0087,2025-06-06T11:07:55.268124
13716,-0.6539,-0.1005,0.8115,1.785,-4.200,1.785,0.90,0.0184,0.0508,0.0300,0.0087,2025-06-06T11:07:55.475608
13717,-0.6456,-0.0961,0.7993,0.910,-5.705,0.770,0.89,0.0184,0.0508,0.0200,0.0174,2025-06-06T11:07:55.475608
13718,-0.6388,-0.0893,0.7876,-0.105,-6.405,0.140,0.91,0.0184,0.0254,0.0100,0.0174,2025-06-06T11:07:55.475608
13719,-0.6427,-0.1005,0.7920,1.995,-5.530,0.210,0.92,0.0368,0.0508,0.0200,0.0087,2025-06-06T11:07:55.475608
13720,-0.6403,-0.0952,0.7876,1.960,-4.935,0.455,0.90,0.0368,0.0508,0.0300,0.0087,2025-06-06T11:07:55.475608
13721,-0.6407,-0.0927,0.7896,0.595,-4.935,0.000,0.91,0.0184,0.0000,0.0300,0.0000,2025-06-06T11:07:55.475608
13722,-0.6442,-0.0991,0.7959,-0.560,-5.285,-0.245,0.91,0.0368,0.0254,0.0200,0.0174,2025-06-06T11:07:55.475608
13723,-0.6456,-0.0971,0.7935,1.120,-5.110,0.315,0.89,0.0184,0.0254,0.0300,0.0087,2025-06-06T11:07:55.475608
13724,-0.6403,-0.0947,0.7915,0.945,-4.515,0.210,0.90,0.0368,0.0000,0.0200,0.0087,2025-06-06T11:07:55.475608
13725,-0.6398,-0.0947,0.7925,0.665,-4.550,0.105,0.91,0.0368,0.0254,0.0100,0.0087,2025-06-06T11:07:55.475608
13726,-0.6432,-0.0932,0.7945,0.210,-4.480,-0.210,0.93,0.0368,0.0254,0.0200,0.0087,2025-06-06T11:07:55.475608
13727,-0.6383,-0.0956,0.7930,0.210,-3.570,-0.210,0.91,0.0184,0.0508,0.0200,0.0087,2025-06-06T11:07:55.475608
13728,-0.6344,-0.0903,0.7852,-0.210,-2.660,-0.070,0.91,0.0184,0.0254,0.0200,0.0087,2025-06-06T11:07:55.475608
13729,-0.6344,-0.0898,0.7823,-0.945,-2.380,-0.315,0.91,0.0184,0.0254,0.0200,0.0087,2025-06-06T11:07:55.475608
13730,-0.6412,-0.0947,0.7837,-1.015,-2.765,-0.525,0.92,0.0184,0.0508,0.0200,0.0174,2025-06-06T11:07:55.575882
13731,-0.6456,-0.0961,0.7906,-0.735,-3.185,-0.280,0.92,0.0184,0.0254,0.0200,0.0174,2025-06-06T11:07:55.575882
13732,-0.6525,-0.1039,0.8032,0.560,-4.130,-0.280,0.91,0.0184,0.0254,0.0300,0.0087,2025-06-06T11:07:55.575882
13733,-0.6451,-0.0795,0.7998,0.385,-5.950,-2.765,0.91,0.0184,0.0508,0.0300,0.0174,2025-06-06T11:07:55.575882
13734,-0.6310,-0.0932,0.7701,-1.050,-10.885,-5.110,0.90,0.0368,0.0508,0.0200,0.0087,2025-06-06T11:07:55.575882
13735,-0.6320,-0.1205,0.8194,0.770,-10.325,-4.480,0.91,0.0368,0.0254,0.0300,0.0087,2025-06-06T11:07:55.575882
13736,-0.6495,-0.1240,0.8428,0.140,-9.240,-5.040,0.93,0.0184,0.0254,0.0501,0.0087,2025-06-06T11:07:55.575882
13737,-0.6564,-0.0732,0.7710,4.200,-7.840,-4.480,0.91,0.0184,0.0254,0.0300,0.0087,2025-06-06T11:07:55.575882
13738,-0.6568,-0.0991,0.8096,-1.645,-6.265,-2.940,0.91,0.0184,0.0254,0.0200,0.0087,2025-06-06T11:07:55.817351
13739,-0.6510,-0.1035,0.8013,1.925,-6.370,-1.645,0.92,0.0368,0.0762,0.0200,0.0174,2025-06-06T11:07:55.817351
13740,-0.6446,-0.1010,0.7950,1.435,-4.865,0.105,0.90,0.0368,0.0508,0.0200,0.0000,2025-06-06T11:07:55.817351
13741,-0.6437,-0.1025,0.8047,3.500,-4.340,0.805,0.91,0.0368,0.0254,0.0100,0.0087,2025-06-06T11:07:55.817351
13742,-0.6295,-0.0981,0.7808,2.380,-4.095,1.260,0.91,0.0184,0.0254,0.0100,0.0087,2025-06-06T11:07:55.817351
13743,-0.6324,-0.1035,0.7945,2.730,-4.515,1.610,0.91,0.0184,0.0508,0.0200,0.0087,2025-06-06T11:07:55.817351
13744,-0.6354,-0.0991,0.7974,6.195,-4.795,1.960,0.91,0.0184,0.0508,0.0300,0.0087,2025-06-06T11:07:55.817351
13745,-0.6305,-0.0869,0.7876,4.515,-3.570,2.205,0.90,0.0368,0.0000,0.0300,0.0087,2025-06-06T11:07:55.817351
13746,-0.6324,-0.0976,0.7959,3.990,-4.725,1.785,0.91,0.0184,0.0254,0.0200,0.0087,2025-06-06T11:07:55.817351
13747,-0.6442,-0.0913,0.8086,4.130,-5.250,1.190,0.90,0.0368,0.0000,0.0300,0.0174,2025-06-06T11:07:55.817351
13748,-0.6505,-0.0917,0.8067,4.760,-4.165,1.295,0.90,0.0184,0.0254,0.0200,0.0174,2025-06-06T11:07:55.817351
13749,-0.6403,-0.0956,0.8120,3.885,-3.465,1.295,0.91,0.0368,0.0508,0.0200,0.0087,2025-06-06T11:07:55.817351
13750,-0.6495,-0.0830,0.7984,4.060,-3.850,1.330,0.91,0.0184,0.0254,0.0100,0.0087,2025-06-06T11:07:55.817351
13751,-0.6954,-0.0727,0.7549,4.970,-2.065,1.365,0.90,0.0368,0.0508,0.0200,0.0000,2025-06-06T11:07:56.273492
13752,-0.6510,-0.0756,0.8042,1.820,1.715,1.540,0.90,0.0368,0.0254,0.0100,0.0087,2025-06-06T11:07:56.273492
13753,-0.6212,-0.1108,0.8125,6.230,-3.640,2.065,0.91,0.0184,0.0508,0.0200,0.0174,2025-06-06T11:07:56.273492
13754,-0.6544,-0.0893,0.8106,10.360,-2.660,3.885,0.90,0.0184,0.0254,0.0200,0.0087,2025-06-06T11:07:56.273492
13755,-0.6202,-0.0956,0.7964,8.855,-2.520,5.285,0.90,0.0368,0.0254,0.0300,0.0087,2025-06-06T11:07:56.273492
13756,-0.6661,-0.0839,0.8403,16.730,-1.680,4.305,0.91,0.0184,0.0508,0.0000,0.0174,2025-06-06T11:07:56.273492
13757,-0.6637,-0.1376,0.9418,46.270,-11.760,8.330,0.90,0.0368,0.0508,0.0200,0.0174,2025-06-06T11:07:56.273492
13758,-0.7076,-0.1015,0.9028,46.655,-2.660,9.835,0.91,0.0184,0.0762,0.0200,0.0087,2025-06-06T11:07:56.273492
13759,-0.6891,0.0093,0.9238,47.775,5.670,14.630,0.90,0.0368,0.0762,0.0200,0.0000,2025-06-06T11:07:56.273492
13760,-0.7086,-0.0795,1.1004,87.220,8.155,27.650,0.92,0.0184,0.0000,0.0200,0.0174,2025-06-06T11:07:56.273492
13761,-0.6832,-0.0571,0.9965,83.020,9.590,33.705,0.91,0.0184,0.0254,0.0200,0.0174,2025-06-06T11:07:56.273492
13762,-0.6534,0.0839,0.9965,116.830,-5.390,51.170,0.91,0.0368,0.0508,0.0300,0.0087,2025-06-06T11:07:56.273492
13763,-0.6744,0.2103,1.0512,163.800,-16.345,76.335,0.92,0.0184,0.0254,0.0200,0.0087,2025-06-06T11:07:56.273492
13764,-0.5866,0.5407,1.1702,264.915,-23.695,160.475,0.90,0.0368,0.0508,0.0200,0.0087,2025-06-06T11:07:56.273492
13765,-0.9775,0.6954,1.4943,174.790,83.755,218.260,0.90,0.0184,0.0508,0.0200,0.0087,2025-06-06T11:07:56.273492
13766,-1.2244,0.3587,1.5343,192.080,54.880,218.505,0.90,0.0184,0.0762,0.0100,0.0087,2025-06-06T11:07:56.273492
13767,-1.3156,0.5876,1.5270,279.720,8.610,219.380,0.91,0.0184,0.0254,0.0200,0.0087,2025-06-06T11:07:56.273492
13768,-1.3654,0.8008,1.7807,294.210,-78.820,188.440,0.91,0.0184,0.0508,0.0200,0.0174,2025-06-06T11:07:56.273492
13769,-1.5636,1.0009,1.5309,354.655,-223.580,178.990,0.93,0.0184,0.0508,0.0200,0.0087,2025-06-06T11:07:56.273492
13770,-1.7758,1.0892,1.4904,308.000,-447.195,233.170,0.89,0.0000,0.0762,0.0200,0.0087,2025-06-06T11:07:56.273492
13771,-1.8812,1.0990,0.8394,323.785,-653.905,341.425,0.91,0.0368,0.0762,0.0200,0.0087,2025-06-06T11:07:56.273492
13772,-1.7656,0.2025,0.0229,307.790,-782.495,411.110,0.91,0.0184,0.0508,0.0100,0.0087,2025-06-06T11:07:56.273492
13773,-1.0424,-0.7823,-0.2147,240.205,-744.135,397.810,0.90,0.0184,0.0254,0.0200,0.0000,2025-06-06T11:07:56.273492
13774,-0.4138,-1.5299,-0.7139,91.105,-862.645,374.465,0.90,0.0184,0.0254,0.0300,0.0174,2025-06-06T11:07:56.273492
13775,0.2089,-2.0994,-1.4381,-369.985,-826.595,313.285,0.92,0.0184,0.1018,0.0200,0.0087,2025-06-06T11:07:56.273492
13776,0.2987,-2.6049,-1.7675,-559.020,-715.785,165.340,0.90,0.0184,0.0254,0.0300,0.0174,2025-06-06T11:07:56.273492
13777,-0.3626,-1.7070,-4.2344,-844.865,-415.485,2.835,0.91,0.0368,0.0508,0.0100,0.0087,2025-06-06T11:07:56.273492
13778,0.2220,-0.0630,-2.5030,-1097.110,213.465,-67.200,0.91,0.0368,0.0508,0.0200,0.0174,2025-06-06T11:07:56.273492
13779,-0.9243,-0.7344,-3.1705,-1146.740,795.235,84.385,0.92,0.0184,0.0508,0.0200,0.0087,2025-06-06T11:07:56.273492
13780,-2.8177,-1.5562,-0.7383,-1146.740,1146.740,300.405,0.91,0.0368,0.0508,0.0100,0.0174,2025-06-06T11:07:56.273492
13781,-3.3960,-1.1522,-1.0917,-298.480,1146.740,488.320,0.91,0.0184,0.0762,0.0200,0.0087,2025-06-06T11:07:56.273492
13782,-9.7185,-4.6477,14.9787,1132.180,1146.740,1131.585,0.93,0.0184,0.0254,0.0200,0.0087,2025-06-06T11:07:56.273492
13783,-2.2790,-0.4724,-2.2560,1110.830,194.775,416.570,0.93,0.0368,0.0762,0.0200,0.0174,2025-06-06T11:07:56.293627
13784,-0.7666,0.8886,-0.5051,-37.625,-197.610,83.195,0.91,0.0184,0.0508,0.0200,0.0087,2025-06-06T11:07:56.293627
13785,-0.7749,0.7691,-0.4089,-958.825,-426.825,-154.700,0.92,0.0368,0.0508,0.0300,0.0087,2025-06-06T11:07:56.293627
13786,-1.4108,1.3898,-1.0580,-346.605,-673.225,-524.335,0.91,0.0184,0.0254,0.0200,0.0262,2025-06-06T11:07:56.293627
13787,0.2020,-0.5695,0.4250,178.500,-14.595,58.450,0.92,0.0184,0.0508,0.0100,0.0087,2025-06-06T11:07:56.293627
13788,0.1757,-0.3504,0.5070,134.190,325.640,304.815,0.91,0.0368,0.0254,0.0200,0.0087,2025-06-06T11:07:56.293627
13789,-0.3333,-0.1850,-0.1854,252.840,463.820,390.005,0.91,0.0184,0.0000,0.0300,0.0087,2025-06-06T11:07:56.293627
13790,-0.7218,0.1064,0.1674,279.160,249.410,145.985,0.91,0.0184,0.0000,0.0200,0.0087,2025-06-06T11:07:56.293627
13791,-0.7525,0.0917,0.9189,6.930,17.045,12.145,0.90,0.0184,0.0508,0.0300,0.0087,2025-06-06T11:07:56.403208
13792,-0.7959,-0.0181,0.8081,-153.650,-153.615,-71.715,0.90,0.0368,0.0508,0.0200,0.0087,2025-06-06T11:07:56.403208
13793,-0.7598,0.0273,0.5007,-113.435,-191.520,-106.750,0.91,0.0368,0.0508,0.0100,0.0087,2025-06-06T11:07:56.403208
13794,-0.6676,0.0112,0.7457,-66.010,-72.345,-56.105,0.91,0.0368,0.0254,0.0200,0.0087,2025-06-06T11:07:56.403208
13795,-0.7164,-0.0522,1.0077,33.810,-21.910,-16.555,0.91,0.0184,0.0254,0.0100,0.0087,2025-06-06T11:07:56.403208
13796,-0.7818,-0.0478,0.9492,63.560,-4.900,-3.430,0.91,0.0368,0.0254,0.0200,0.0087,2025-06-06T11:07:56.403208
13797,-0.7749,0.0273,0.8223,-4.375,-24.220,-12.985,0.91,0.0184,0.0508,0.0100,0.0087,2025-06-06T11:07:56.403208
13798,-0.6939,-0.0220,0.7832,-28.315,-27.510,-9.870,0.90,0.0552,0.0508,0.0200,0.0087,2025-06-06T11:07:56.451757
13799,-0.6686,-0.0854,0.8579,-9.100,-8.505,0.980,0.91,0.0184,0.0254,0.0200,0.0087,2025-06-06T11:07:56.451757
13800,-0.6324,-0.0883,0.8335,20.370,8.785,12.495,0.89,0.0184,0.0508,0.0300,0.0087,2025-06-06T11:07:56.451757
13801,-0.6407,-0.0532,0.8013,10.955,6.195,9.940,0.91,0.0368,0.0762,0.0200,0.0174,2025-06-06T11:07:56.451757
13802,-0.6281,-0.0210,0.7852,-5.285,-7.735,2.100,0.92,0.0184,0.0508,0.0200,0.0087,2025-06-06T11:07:56.493097
13803,-0.6163,-0.0459,0.8003,5.285,-13.160,-2.135,0.90,0.0184,0.0254,0.0200,0.0087,2025-06-06T11:07:56.493097
13804,-0.5768,-0.0220,0.7598,17.080,-8.015,-2.905,0.85,0.0368,0.0254,0.0200,0.0087,2025-06-06T11:07:56.493097
13805,-0.5305,-0.0020,0.6959,15.505,-11.235,-7.700,0.91,0.0184,0.0508,0.0100,0.0087,2025-06-06T11:07:56.493097
13806,-0.5431,-0.1093,0.8857,10.500,-25.340,-15.435,0.91,0.0368,0.0508,0.0200,0.0087,2025-06-06T11:07:56.549422
13807,-0.6573,-0.1391,1.0004,12.145,-21.385,-18.305,0.90,0.0184,0.0254,0.0100,0.0087,2025-06-06T11:07:56.549422
13808,-0.7344,-0.0171,1.0058,-2.695,7.840,-14.665,0.90,0.0184,0.0508,0.0300,0.0087,2025-06-06T11:07:56.549422
13809,-0.6788,-0.1186,0.9672,-28.000,34.475,-9.205,0.90,0.0368,0.0254,0.0200,0.0087,2025-06-06T11:07:56.722828
13810,-0.7413,-0.0869,1.1336,1.960,55.580,-11.550,0.91,0.0184,0.0508,0.0200,0.0174,2025-06-06T11:07:56.722828
13811,-1.1605,-0.1430,1.1844,27.160,131.775,26.425,0.91,0.0368,0.0762,0.0200,0.0174,2025-06-06T11:07:56.722828
13812,-1.3152,0.2850,0.6661,42.735,174.160,74.060,0.91,0.0184,0.0000,0.0300,0.0087,2025-06-06T11:07:56.722828
13813,-0.6329,0.1459,0.2377,64.785,126.315,98.455,0.91,0.0368,0.0508,0.0200,0.0174,2025-06-06T11:07:56.722828
13814,-0.4680,-0.0146,0.6188,64.365,85.295,119.315,0.92,0.0184,0.0508,0.0100,0.0087,2025-06-06T11:07:56.722828
13815,-0.2089,-0.2391,0.9228,50.540,63.175,83.125,0.91,0.0184,0.0254,0.0200,0.0087,2025-06-06T11:07:56.722828
13816,-0.2513,-0.1859,0.7310,32.620,48.055,29.960,0.91,0.0184,0.0254,0.0200,0.0087,2025-06-06T11:07:56.722828
13817,-0.4138,-0.1864,0.5739,29.155,32.550,-25.795,0.91,0.0368,0.0508,0.0200,0.0000,2025-06-06T11:07:56.722828
13818,-0.8921,0.0586,0.5666,31.815,17.885,-23.905,0.91,0.0184,0.0254,0.0300,0.0000,2025-06-06T11:07:56.722828
13819,-0.7774,0.0151,0.4953,-10.710,18.935,-15.225,0.91,0.0368,0.0508,0.0200,0.0087,2025-06-06T11:07:56.722828
13820,-0.8135,-0.0356,0.6515,-13.825,6.300,-6.265,0.91,0.0184,0.0254,0.0100,0.0000,2025-06-06T11:07:56.722828
13821,-0.7969,-0.0381,0.6446,-5.950,-5.845,3.185,0.91,0.0368,0.0508,0.0200,0.0087,2025-06-06T11:07:56.722828
13822,-0.7915,-0.0142,0.6407,-14.455,-14.455,11.830,0.90,0.0368,0.0508,0.0200,0.0174,2025-06-06T11:07:56.822280
13823,-0.7681,0.0195,0.6647,-12.040,-22.120,16.555,0.92,0.0184,0.0254,0.0200,0.0174,2025-06-06T11:07:56.822280
13824,-0.7515,0.0673,0.7174,-4.305,-20.510,13.825,0.91,0.0368,0.0254,0.0100,0.0087,2025-06-06T11:07:56.822280
13825,-0.7325,0.1000,0.7174,7.875,-11.060,9.065,0.91,0.0368,0.0508,0.0200,0.0174,2025-06-06T11:07:56.822280
13826,-0.7252,0.1254,0.6930,0.175,-2.485,1.470,0.92,0.0368,0.0762,0.0200,0.0174,2025-06-06T11:07:56.822280
13827,-0.7300,0.1035,0.6812,-4.550,2.695,-7.140,0.92,0.0184,0.0000,0.0200,0.0087,2025-06-06T11:07:56.822280
13828,-0.7476,0.0649,0.6808,-10.115,4.235,-10.500,0.91,0.0368,0.0508,0.0200,0.0174,2025-06-06T11:07:56.822280
13829,-0.7647,0.0146,0.6925,-7.210,6.020,-8.435,0.91,0.0368,0.0508,0.0200,0.0087,2025-06-06T11:07:56.822280
13830,-0.7784,0.0005,0.6988,2.835,6.230,-3.815,0.91,0.0368,0.0254,0.0200,0.0174,2025-06-06T11:07:57.082565
13831,-0.7823,-0.0054,0.7144,6.510,5.180,0.665,0.91,0.0368,0.0254,0.0200,0.0087,2025-06-06T11:07:57.082565
13832,-0.7784,0.0093,0.7042,10.885,2.240,4.095,0.92,0.0184,0.0254,0.0200,0.0087,2025-06-06T11:07:57.082565
13833,-0.7657,0.0390,0.6549,12.075,0.875,5.250,0.91,0.0368,0.0254,0.0300,0.0087,2025-06-06T11:07:57.082565
13834,-0.7540,0.0659,0.6271,9.870,0.385,4.410,0.91,0.0000,0.0254,0.0300,0.0087,2025-06-06T11:07:57.082565
13835,-0.7505,0.0810,0.6168,4.900,-1.050,2.135,0.93,0.0184,0.0508,0.0200,0.0087,2025-06-06T11:07:57.082565
13836,-0.7520,0.0820,0.6198,-2.240,-3.430,-0.945,0.91,0.0184,0.0762,0.0300,0.0087,2025-06-06T11:07:57.082565
13837,-0.7574,0.0654,0.6344,-8.050,-6.125,-3.745,0.90,0.0184,0.0762,0.0200,0.0087,2025-06-06T11:07:57.082565
13838,-0.7652,0.0488,0.6564,-11.375,-6.860,-3.640,0.91,0.0368,0.0508,0.0200,0.0087,2025-06-06T11:07:57.082565
13839,-0.7725,0.0224,0.6812,-9.765,-7.035,-1.575,0.91,0.0184,0.0508,0.0000,0.0087,2025-06-06T11:07:57.082565
13840,-0.7745,0.0166,0.7003,-5.320,-7.315,0.735,0.91,0.0184,0.0000,0.0300,0.0087,2025-06-06T11:07:57.082565
13841,-0.7740,0.0215,0.7115,-1.190,-7.280,2.590,0.91,0.0368,0.0508,0.0100,0.0087,2025-06-06T11:07:57.082565
13842,-0.7632,0.0390,0.7037,3.185,-5.740,3.325,0.90,0.0184,0.0254,0.0100,0.0087,2025-06-06T11:07:57.082565
13843,-0.7559,0.0547,0.6915,6.125,-2.275,2.660,0.90,0.0184,0.0508,0.0200,0.0000,2025-06-06T11:07:57.082565
13844,-0.7549,0.0693,0.6754,5.355,0.490,0.735,0.92,0.0368,0.0254,0.0200,0.0174,2025-06-06T11:07:57.082565
13845,-0.7540,0.0669,0.6681,2.765,2.240,-1.995,0.91,0.0184,0.0254,0.0200,0.0087,2025-06-06T11:07:57.082565
13846,-0.7613,0.0556,0.6603,1.085,2.380,-3.360,0.91,0.0184,0.0000,0.0200,0.0087,2025-06-06T11:07:57.082565
13847,-0.7657,0.0415,0.6573,0.840,2.100,-3.255,0.91,0.0184,0.0508,0.0200,0.0087,2025-06-06T11:07:57.222382
13848,-0.7725,0.0327,0.6583,0.875,0.945,-1.855,0.92,0.0184,0.0254,0.0200,0.0087,2025-06-06T11:07:57.222382
13849,-0.7725,0.0342,0.6573,0.945,-1.295,-0.245,0.91,0.0184,0.0508,0.0100,0.0087,2025-06-06T11:07:57.222382
13850,-0.7710,0.0356,0.6544,0.560,-4.340,1.260,0.91,0.0368,0.0254,0.0200,0.0087,2025-06-06T11:07:57.222382
13851,-0.7676,0.0454,0.6510,-0.035,-6.055,1.925,0.90,0.0368,0.0254,0.0300,0.0087,2025-06-06T11:07:57.222382
13852,-0.7632,0.0512,0.6568,-0.945,-6.755,1.785,0.92,0.0184,0.0254,0.0602,0.0174,2025-06-06T11:07:57.222382
13853,-0.7642,0.0581,0.6617,-2.135,-6.405,0.770,0.91,0.0368,0.0254,0.0300,0.0087,2025-06-06T11:07:57.222382
13854,-0.7637,0.0571,0.6705,-3.185,-5.810,-0.490,0.90,0.0184,0.0254,0.0200,0.0087,2025-06-06T11:07:57.222382
13855,-0.7608,0.0478,0.6744,-3.185,-4.655,-1.295,0.91,0.0184,0.0508,0.0100,0.0087,2025-06-06T11:07:57.222382
13856,-0.7662,0.0415,0.6812,-2.380,-3.465,-1.120,0.91,0.0184,0.0254,0.0200,0.0174,2025-06-06T11:07:57.222382
13857,-0.7676,0.0351,0.6822,-0.455,-2.555,-0.490,0.89,0.0368,0.0508,0.0200,0.0087,2025-06-06T11:07:57.223384
13858,-0.7710,0.0366,0.6827,1.750,-2.065,0.175,0.90,0.0000,0.0508,0.0100,0.0087,2025-06-06T11:07:57.223384
13859,-0.7671,0.0420,0.6769,3.325,-1.540,0.700,0.91,0.0184,0.0254,0.0300,0.0087,2025-06-06T11:07:57.264474
13860,-0.7662,0.0459,0.6676,3.815,-1.155,0.560,0.93,0.0368,0.0508,0.0200,0.0174,2025-06-06T11:07:57.264474
13861,-0.7647,0.0517,0.6588,3.045,-0.735,0.070,0.90,0.0368,0.0508,0.0200,0.0174,2025-06-06T11:07:57.264474
13862,-0.7647,0.0522,0.6510,1.715,-1.330,-0.630,0.90,0.0368,0.0508,0.0200,0.0087,2025-06-06T11:07:57.264474
13863,-0.7666,0.0498,0.6515,0.105,-2.135,-0.910,0.92,0.0184,0.0254,0.0200,0.0087,2025-06-06T11:07:57.455606
13864,-0.7696,0.0464,0.6534,-0.910,-3.150,-0.910,0.91,0.0368,0.0508,0.0200,0.0087,2025-06-06T11:07:57.455606
13865,-0.7691,0.0410,0.6559,-1.575,-4.095,-0.560,0.91,0.0184,0.0762,0.0300,0.0174,2025-06-06T11:07:57.455606
13866,-0.7715,0.0405,0.6627,-1.610,-4.830,0.210,0.90,0.0368,0.0508,0.0200,0.0174,2025-06-06T11:07:57.455606
13867,-0.7701,0.0415,0.6647,-1.260,-5.460,0.665,0.91,0.0184,0.0508,0.0200,0.0087,2025-06-06T11:07:57.455606
13868,-0.7701,0.0464,0.6700,-0.385,-5.565,0.770,0.91,0.0368,0.0254,0.0200,0.0087,2025-06-06T11:07:57.455606
13869,-0.7671,0.0473,0.6705,-0.070,-4.655,0.665,0.91,0.0184,0.0254,0.0200,0.0174,2025-06-06T11:07:57.455606
13870,-0.7642,0.0488,0.6715,0.350,-3.885,0.245,0.91,0.0368,0.0508,0.0100,0.0087,2025-06-06T11:07:57.455606
13871,-0.7662,0.0503,0.6710,0.420,-3.010,-0.315,0.91,0.0184,0.0508,0.0300,0.0087,2025-06-06T11:07:57.455606
13872,-0.7710,0.0488,0.6671,0.385,-2.100,-0.595,0.90,0.0184,0.0508,0.0200,0.0087,2025-06-06T11:07:57.455606
13873,-0.7681,0.0439,0.6671,0.700,-1.995,-0.770,0.90,0.0184,0.0254,0.0200,0.0174,2025-06-06T11:07:57.455606
13874,-0.7686,0.0454,0.6661,0.840,-1.820,-0.595,0.91,0.0368,0.0508,0.0000,0.0087,2025-06-06T11:07:57.455606
13875,-0.7706,0.0434,0.6622,1.190,-2.135,-0.280,0.90,0.0184,0.0508,0.0200,0.0087,2025-06-06T11:07:57.455606
13876,-0.7715,0.0425,0.6593,1.015,-2.590,-0.140,0.90,0.0184,0.0508,0.0200,0.0087,2025-06-06T11:07:57.703743
13877,-0.7696,0.0454,0.6573,0.665,-3.220,0.175,0.91,0.0368,0.0508,0.0300,0.0087,2025-06-06T11:07:57.703743
13878,-0.7691,0.0459,0.6554,0.175,-3.780,0.175,0.90,0.0184,0.0254,0.0200,0.0087,2025-06-06T11:07:57.703743
13879,-0.7681,0.0478,0.6568,-0.105,-4.270,0.175,0.91,0.0184,0.0762,0.0200,0.0087,2025-06-06T11:07:57.703743
13880,-0.7671,0.0464,0.6608,-0.665,-4.515,-0.035,0.92,0.0184,0.0508,0.0300,0.0087,2025-06-06T11:07:57.703743
13881,-0.7696,0.0459,0.6608,-0.875,-4.620,-0.070,0.91,0.0184,0.0508,0.0200,0.0174,2025-06-06T11:07:57.703743
13882,-0.7706,0.0478,0.6666,-0.735,-4.270,-0.140,0.91,0.0184,0.1018,0.0300,0.0174,2025-06-06T11:07:57.703743
13883,-0.7666,0.0454,0.6676,-0.315,-4.060,-0.105,0.91,0.0368,0.0000,0.0000,0.0087,2025-06-06T11:07:57.703743
13884,-0.7701,0.0434,0.6676,0.000,-3.535,-0.035,0.91,0.0184,0.0254,0.0100,0.0174,2025-06-06T11:07:57.703743
13885,-0.7710,0.0439,0.6681,0.560,-3.185,-0.035,0.91,0.0184,0.0508,0.0300,0.0087,2025-06-06T11:07:57.703743
13886,-0.7691,0.0459,0.6632,0.770,-3.115,-0.105,0.92,0.0368,0.0508,0.0000,0.0000,2025-06-06T11:07:57.703743
13887,-0.7725,0.0454,0.6627,0.910,-2.765,-0.140,0.91,0.0184,0.0508,0.0100,0.0087,2025-06-06T11:07:57.703743
13888,-0.7681,0.0444,0.6617,0.840,-2.765,-0.140,0.90,0.0368,0.0254,0.0200,0.0087,2025-06-06T11:07:57.703743
13889,-0.7696,0.0444,0.6593,0.560,-2.730,-0.140,0.91,0.0184,0.0254,0.0100,0.0000,2025-06-06T11:07:57.703743
13890,-0.7701,0.0459,0.6593,0.280,-3.185,-0.245,0.90,0.0184,0.0254,0.0100,0.0087,2025-06-06T11:07:57.703743
13891,-0.7701,0.0439,0.6568,0.140,-3.605,-0.175,0.90,0.0184,0.0508,0.0200,0.0087,2025-06-06T11:07:57.703743
13892,-0.7706,0.0478,0.6583,-0.035,-3.885,-0.035,0.90,0.0000,0.0508,0.0100,0.0087,2025-06-06T11:07:57.703743
13893,-0.7725,0.0464,0.6603,0.000,-4.130,-0.035,0.87,0.0368,0.0254,0.0200,0.0087,2025-06-06T11:07:57.914749
13894,-0.7706,0.0464,0.6612,-0.175,-4.095,0.035,0.91,0.0184,0.0508,0.0300,0.0174,2025-06-06T11:07:57.914749
13895,-0.7691,0.0478,0.6627,-0.350,-4.165,0.035,0.90,0.0368,0.0254,0.0200,0.0174,2025-06-06T11:07:57.914749
13896,-0.7710,0.0444,0.6637,-0.175,-4.060,8.855,0.92,0.0368,0.0508,0.0200,0.0087,2025-06-06T11:07:57.914749
13897,-0.7701,0.0449,0.6647,-0.035,-3.780,-0.105,0.91,0.0368,0.0000,0.0200,0.0087,2025-06-06T11:07:57.914749
13898,-0.7706,0.0464,0.6647,0.245,-3.535,-0.105,0.91,0.0184,0.0254,0.0300,0.0087,2025-06-06T11:07:57.914749
13899,-0.7730,0.0429,0.6651,0.490,-3.220,-0.035,0.91,0.0184,0.0508,0.0200,0.0174,2025-06-06T11:07:57.914749
13900,-0.7710,0.0459,0.6627,0.525,-3.115,-0.070,0.91,0.0368,0.0254,0.0200,0.0174,2025-06-06T11:07:57.914749
13901,-0.7710,0.0464,0.6608,0.525,-3.220,-0.070,0.91,0.0368,0.0508,0.0200,0.0087,2025-06-06T11:07:58.048963
13902,-0.7701,0.0468,0.6598,0.490,-3.220,-0.210,0.92,0.0368,0.0254,0.0200,0.0087,2025-06-06T11:07:58.048963
13903,-0.7715,0.0468,0.6588,0.455,-3.290,-0.070,0.91,0.0184,0.0508,0.0100,0.0087,2025-06-06T11:07:58.048963
13904,-0.7720,0.0439,0.6568,0.385,-3.535,-0.035,0.93,0.0184,0.0254,0.0200,0.0087,2025-06-06T11:07:58.048963
13905,-0.7740,0.0459,0.6588,0.175,-3.745,0.035,0.89,0.0368,0.0254,0.0200,0.0087,2025-06-06T11:07:58.048963
13906,-0.7730,0.0454,0.6588,-0.070,-3.955,-0.035,0.91,0.0184,0.0254,0.0200,0.0087,2025-06-06T11:07:58.048963
13907,-0.7715,0.0454,0.6608,-0.175,-4.025,-0.140,0.90,0.0184,0.0508,0.0100,0.0174,2025-06-06T11:07:58.048963
13908,-0.7701,0.0464,0.6612,-0.315,-3.990,-0.105,0.91,0.0184,0.0254,0.0100,0.0087,2025-06-06T11:07:58.048963
13909,-0.7710,0.0429,0.6617,0.210,-3.990,-0.140,0.91,0.0368,0.0508,0.0300,0.0000,2025-06-06T11:07:58.048963
13910,-0.7745,0.0473,0.6612,0.070,-3.815,0.070,0.91,0.0368,0.0508,0.0200,0.0087,2025-06-06T11:07:58.081788
13911,-0.7735,0.0449,0.6603,0.455,-3.640,-0.035,0.91,0.0184,0.0254,0.0200,0.0087,2025-06-06T11:07:58.081788
13912,-0.7720,0.0434,0.6617,0.070,-3.640,0.035,0.90,0.0184,0.0254,0.0200,0.0174,2025-06-06T11:07:58.081788
13913,-0.7696,0.0444,0.6647,0.350,-3.465,0.000,0.90,0.0184,0.0254,0.0100,0.0087,2025-06-06T11:07:58.081788
13914,-0.7735,0.0444,0.6608,0.455,-3.465,-0.035,0.91,0.0184,0.0762,0.0200,0.0174,2025-06-06T11:07:58.081788
13915,-0.7735,0.0444,0.6603,0.525,-3.360,-0.105,0.90,0.0184,0.0254,0.0200,0.0087,2025-06-06T11:07:58.081788
13916,-0.7725,0.0459,0.6568,0.385,-3.465,-0.105,0.92,0.0184,0.0508,0.0200,0.0087,2025-06-06T11:07:58.081788
13917,-0.7701,0.0434,0.6593,0.140,-3.605,-0.140,0.91,0.0368,0.0254,0.0200,0.0087,2025-06-06T11:07:58.081788
13918,-0.7715,0.0449,0.6608,0.140,-3.675,-0.105,0.90,0.0184,0.0254,0.0000,0.0087,2025-06-06T11:07:58.082246
13919,-0.7715,0.0464,0.6573,0.105,-3.885,0.000,0.90,0.0184,0.0254,0.0300,0.0087,2025-06-06T11:07:58.082246
13920,-0.7725,0.0444,0.6598,0.070,-4.025,0.000,0.90,0.0368,0.0508,0.0200,0.0174,2025-06-06T11:07:58.082246
13921,-0.7710,0.0434,0.6598,0.105,-4.025,0.070,0.90,0.0552,0.2043,0.0200,0.0000,2025-06-06T11:07:58.082246
13922,-0.7735,0.0444,0.6603,0.245,-3.850,0.035,0.90,0.0368,0.0508,0.0200,0.0087,2025-06-06T11:07:58.082246
13923,-0.7735,0.0478,0.6603,0.245,-3.710,-0.035,0.92,0.0368,0.0508,0.0100,0.0087,2025-06-06T11:07:58.253143
13924,-0.7740,0.0454,0.6612,0.280,-3.745,-0.035,0.91,0.0368,0.0254,0.0200,0.0174,2025-06-06T11:07:58.253143
13925,-0.7720,0.0444,0.6612,0.140,-3.675,-0.140,0.91,0.0184,0.0000,0.0200,0.0174,2025-06-06T11:07:58.253143
13926,-0.7701,0.0434,0.6637,0.175,-3.675,-0.105,0.89,0.0368,0.0254,0.0300,0.0087,2025-06-06T11:07:58.253143
13927,-0.7725,0.0434,0.6593,0.315,-3.535,-0.105,0.90,0.0368,0.0254,0.0000,0.0174,2025-06-06T11:07:58.253143
13928,-0.7749,0.0454,0.6608,0.455,-3.500,0.070,0.91,0.0184,0.0508,0.0100,0.0087,2025-06-06T11:07:58.253143
13929,-0.7735,0.0434,0.6588,0.490,-3.640,-0.105,0.91,0.0184,0.0508,0.0200,0.0087,2025-06-06T11:07:58.253143
13930,-0.7720,0.0459,0.6588,0.280,-3.675,0.000,0.91,0.0184,0.0254,0.0200,0.0087,2025-06-06T11:07:58.253143
13931,-0.7735,0.0459,0.6573,0.280,-3.850,-0.070,0.91,0.0184,0.0000,0.0200,0.0087,2025-06-06T11:07:58.253143
13932,-0.7730,0.0449,0.6588,0.140,-3.815,-0.035,0.91,0.0184,0.0254,0.0200,0.0087,2025-06-06T11:07:58.253143
13933,-0.7735,0.0464,0.6603,0.245,-3.745,-0.105,0.91,0.0368,0.0508,0.0200,0.0174,2025-06-06T11:07:58.253143
13934,-0.7735,0.0444,0.6578,0.175,-3.850,-0.140,0.93,0.0368,0.0762,0.0200,0.0087,2025-06-06T11:07:58.253143
13935,-0.7710,0.0439,0.6588,0.035,-3.815,-0.105,0.91,0.0368,0.0254,0.0200,0.0174,2025-06-06T11:07:58.253143
13936,-0.7745,0.0464,0.6588,0.140,-3.745,0.000,0.91,0.0184,0.0508,0.0200,0.0262,2025-06-06T11:07:58.518530
13937,-0.7749,0.0459,0.6598,0.245,-3.850,-0.070,0.91,0.0184,0.0508,0.0200,0.0087,2025-06-06T11:07:58.518530
13938,-0.7735,0.0454,0.6617,0.315,-3.780,0.000,0.91,0.0368,0.0254,0.0200,0.0087,2025-06-06T11:07:58.518530
13939,-0.7715,0.0449,0.6603,0.525,-3.745,-0.105,0.92,0.0368,0.0508,0.0100,0.0087,2025-06-06T11:07:58.518530
13940,-0.7725,0.0468,0.6588,0.420,-3.535,-0.035,0.90,0.0184,0.0762,0.0100,0.0087,2025-06-06T11:07:58.518530
13941,-0.7706,0.0468,0.6573,0.280,-3.535,0.035,0.91,0.0184,0.0254,0.0200,0.0087,2025-06-06T11:07:58.518530
13942,-0.7740,0.0459,0.6568,0.280,-3.640,-0.035,0.92,0.0184,0.0508,0.0100,0.0000,2025-06-06T11:07:58.518530
13943,-0.7730,0.0473,0.6568,0.280,-3.780,-0.245,0.91,0.0184,0.0000,0.0100,0.0087,2025-06-06T11:07:58.518530
13944,-0.7740,0.0454,0.6568,0.245,-3.745,-0.210,0.91,0.0184,0.0508,0.0100,0.0087,2025-06-06T11:07:58.518530
13945,-0.7735,0.0429,0.6578,0.105,-3.675,-0.105,0.91,0.0000,0.0508,0.0100,0.0087,2025-06-06T11:07:58.518530
13946,-0.7730,0.0459,0.6578,0.035,-3.745,0.000,0.90,0.0184,0.0508,0.0100,0.0174,2025-06-06T11:07:58.518530
13947,-0.7745,0.0454,0.6588,0.000,-3.955,0.035,0.92,0.0368,0.0508,0.0200,0.0087,2025-06-06T11:07:58.518530
13948,-0.7745,0.0449,0.6588,0.210,-3.885,0.070,0.92,0.0000,0.0508,0.0100,0.0087,2025-06-06T11:07:58.518530
13949,-0.7749,0.0459,0.6598,0.420,-3.780,0.105,0.90,0.0184,0.0508,0.0200,0.0087,2025-06-06T11:07:58.518530
13950,-0.7740,0.0478,0.6578,0.315,-3.745,0.105,0.91,0.0184,0.0508,0.0200,0.0000,2025-06-06T11:07:58.518530
13951,-0.7715,0.0493,0.6588,0.385,-3.570,0.000,0.91,0.0184,0.1273,0.0200,0.0087,2025-06-06T11:07:58.518530
13952,-0.7754,0.0473,0.6568,0.385,-3.535,0.000,0.90,0.0184,0.0254,0.0200,0.0174,2025-06-06T11:07:58.518530
13953,-0.7735,0.0488,0.6588,0.105,-3.395,-0.070,0.90,0.0184,0.0254,0.0200,0.0087,2025-06-06T11:07:58.650957
13954,-0.7754,0.0464,0.6598,0.315,-3.465,-0.140,0.91,0.0184,0.0508,0.0100,0.0087,2025-06-06T11:07:58.650957
13955,-0.7774,0.0454,0.6578,0.280,-3.605,-0.105,0.91,0.0184,0.0254,0.0100,0.0174,2025-06-06T11:07:58.650957
13956,-0.7754,0.0478,0.6554,0.140,-3.710,0.035,0.91,0.0368,0.0508,0.0200,0.0087,2025-06-06T11:07:58.650957
13957,-0.7735,0.0454,0.6568,0.315,-3.815,0.035,0.91,0.0184,0.0000,0.0100,0.0087,2025-06-06T11:07:58.650957
13958,-0.7759,0.0464,0.6568,0.105,-3.885,-0.070,0.91,0.0368,0.0508,0.0200,0.0087,2025-06-06T11:07:58.650957
13959,-0.7725,0.0478,0.6578,0.035,-3.955,-0.210,0.92,0.0184,0.0508,0.0100,0.0174,2025-06-06T11:07:58.650957
13960,-0.7749,0.0454,0.6588,0.105,-3.780,-0.245,0.91,0.0368,0.0000,0.0100,0.0174,2025-06-06T11:07:58.650957
13961,-0.7740,0.0459,0.6578,-0.035,-3.500,-0.280,0.91,0.0184,0.0508,0.0200,0.0087,2025-06-06T11:07:58.650957
13962,-0.7745,0.0425,0.6564,0.140,-3.710,-0.210,0.91,0.0000,0.0508,0.0200,0.0174,2025-06-06T11:07:58.650957
13963,-0.7774,0.0449,0.6588,0.350,-3.815,0.035,0.91,0.0184,0.0508,0.0200,0.0000,2025-06-06T11:07:58.650957
13964,-0.7730,0.0449,0.6573,0.245,-3.850,0.245,0.90,0.0184,0.0508,0.0100,0.0087,2025-06-06T11:07:58.650957
13965,-0.7754,0.0459,0.6559,0.525,-3.885,0.245,0.91,0.0184,0.0254,0.0200,0.0087,2025-06-06T11:07:58.650957
13966,-0.7754,0.0488,0.6603,0.595,-3.675,0.175,0.91,0.0368,0.1273,0.0100,0.0174,2025-06-06T11:07:58.705330
13967,-0.7740,0.0488,0.6559,0.700,-3.640,0.070,0.91,0.0184,0.0254,0.0200,0.0174,2025-06-06T11:07:58.705330
13968,-0.7759,0.0473,0.6564,0.490,-3.605,-0.035,0.91,0.0184,0.0254,0.0200,0.0087,2025-06-06T11:07:58.705330
13969,-0.7725,0.0473,0.6544,0.035,-3.675,-0.315,0.91,0.0184,0.0254,0.0200,0.0087,2025-06-06T11:07:58.705330
13970,-0.7769,0.0468,0.6525,0.070,-3.605,-0.245,0.91,0.0368,0.0508,0.0200,0.0087,2025-06-06T11:07:58.885977
13971,-0.7749,0.0425,0.6568,-0.350,-3.955,-0.175,0.93,0.0184,0.0254,0.0401,0.0087,2025-06-06T11:07:58.885977
13972,-0.7730,0.0459,0.6598,-0.140,-4.340,-0.350,0.91,0.0184,0.0762,0.0200,0.0174,2025-06-06T11:07:58.885977
13973,-0.7740,0.0425,0.6593,0.105,-3.815,-0.280,0.91,0.0368,0.0508,0.0100,0.0087,2025-06-06T11:07:58.885977
13974,-0.7735,0.0439,0.6568,0.315,-3.430,0.140,0.91,0.0184,0.0508,0.0200,0.0087,2025-06-06T11:07:58.885977
13975,-0.7764,0.0449,0.6578,0.105,-3.990,0.105,0.91,0.0368,0.0254,0.0100,0.0000,2025-06-06T11:07:58.885977
13976,-0.7749,0.0434,0.6598,0.210,-4.130,0.070,0.91,0.0184,0.0508,0.0100,0.0087,2025-06-06T11:07:58.885977
13977,-0.7754,0.0473,0.6568,0.735,-3.745,0.245,0.91,0.0368,0.0254,0.0100,0.0087,2025-06-06T11:07:58.885977
13978,-0.7749,0.0478,0.6559,0.945,-3.640,0.350,0.91,0.0184,0.0254,0.0200,0.0174,2025-06-06T11:07:58.885977
13979,-0.7745,0.0512,0.6564,0.805,-3.605,0.140,0.91,0.0184,0.0508,0.0200,0.0174,2025-06-06T11:07:58.885977
13980,-0.7730,0.0498,0.6559,0.245,-3.815,-0.175,0.91,0.0184,0.0508,0.0200,0.0087,2025-06-06T11:07:58.885977
13981,-0.7706,0.0459,0.6568,-0.105,-3.710,-0.490,0.90,0.0184,0.0254,0.0100,0.0087,2025-06-06T11:07:58.885977
13982,-0.7749,0.0468,0.6559,-0.035,-3.430,-0.490,0.91,0.0368,0.0254,0.0100,0.0087,2025-06-06T11:07:58.885977
13983,-0.7745,0.0459,0.6568,-0.420,-3.780,-0.595,0.91,0.0184,0.0762,0.0200,0.0087,2025-06-06T11:07:58.971420
13984,-0.7769,0.0449,0.6578,-0.350,-4.025,-0.385,0.92,0.0368,0.0254,0.0401,0.0174,2025-06-06T11:07:58.971420
13985,-0.7769,0.0405,0.6583,-0.035,-4.060,-0.035,0.91,0.0184,0.0254,0.0200,0.0174,2025-06-06T11:07:58.971420
13986,-0.7749,0.0439,0.6568,0.245,-4.235,0.490,0.91,0.0184,0.0254,0.0100,0.0087,2025-06-06T11:07:58.971420
13987,-0.7754,0.0464,0.6583,0.770,-4.270,0.665,0.91,0.0184,0.0254,0.0200,0.0087,2025-06-06T11:07:58.971420
13988,-0.7740,0.0498,0.6588,0.945,-4.165,0.560,0.91,0.0368,0.0508,0.0200,0.0174,2025-06-06T11:07:58.971420
13989,-0.7740,0.0527,0.6568,0.770,-3.850,0.210,0.91,0.0368,0.0254,0.0200,0.0087,2025-06-06T11:07:58.971420
