SeqNum,AccX,AccY,AccZ,GyroX,GyroY,GyroZ,Flex,Force1,Force2,Force3,Force4,TimestampReception
4602,-0.5680,0.5510,0.6076,2.275,-21.525,-6.370,457,420,275,428,433,2025-06-04T19:54:53.785335
4603,-0.5685,0.5900,0.5783,-0.630,-7.175,-3.955,454,423,278,450,441,2025-06-04T19:54:53.785335
4604,-0.5705,0.5836,0.5793,-1.015,-6.580,-2.835,437,396,304,419,410,2025-06-04T19:54:53.785335
4605,-0.5646,0.5783,0.5817,-1.120,-5.950,-1.365,413,394,355,419,423,2025-06-04T19:54:53.786333
4606,-0.5671,0.5729,0.5915,-1.470,-4.865,0.000,414,355,371,408,360,2025-06-04T19:54:53.786333
4607,-0.5651,0.5700,0.5944,-1.890,-3.955,1.750,419,407,371,418,396,2025-06-04T19:54:53.786333
4608,-0.5685,0.5597,0.5968,-2.170,-3.080,3.780,418,365,379,420,390,2025-06-04T19:54:53.786333
4609,-0.5641,0.5549,0.5998,-2.590,-2.485,5.670,433,419,377,430,419,2025-06-04T19:54:53.786333
4610,-0.5671,0.5524,0.6027,-2.905,-1.575,7.000,391,394,335,412,361,2025-06-04T19:54:53.786333
4611,-0.5719,0.5466,0.6041,-3.150,-0.840,8.295,403,395,372,428,349,2025-06-04T19:54:53.786333
4612,-0.5812,0.5470,0.6027,-3.500,0.000,8.890,414,417,377,419,383,2025-06-04T19:54:53.786333
4613,-0.5876,0.5427,0.6012,-3.255,-0.210,9.240,426,431,371,423,410,2025-06-04T19:54:53.786333
4614,-0.5949,0.5378,0.6007,-3.290,-0.315,9.275,403,428,391,407,396,2025-06-04T19:54:53.786333
4615,-0.5915,0.5324,0.5988,-3.220,-0.350,8.820,411,406,399,351,400,2025-06-04T19:54:53.786333
4616,-0.5954,0.5344,0.6007,-3.185,0.070,8.225,380,428,363,381,409,2025-06-04T19:54:53.786333
4617,-0.5944,0.5305,0.5983,-3.080,0.630,7.595,403,404,377,398,404,2025-06-04T19:54:53.786333
4618,-0.5968,0.5309,0.5983,-3.325,1.400,6.720,352,422,386,402,393,2025-06-04T19:54:53.786333
4619,-0.6007,0.5285,0.6046,-3.465,2.310,5.915,416,392,395,420,415,2025-06-04T19:54:53.786333
4620,-0.6002,0.5270,0.6066,-3.745,2.940,5.215,411,424,354,406,411,2025-06-04T19:54:54.094094
4621,-0.5934,0.5207,0.6066,-4.340,3.605,4.865,426,374,343,421,414,2025-06-04T19:54:54.094094
4622,-0.5944,0.5187,0.6051,-4.655,3.955,5.040,422,423,353,358,415,2025-06-04T19:54:54.094094
4623,-0.5958,0.5173,0.6124,-4.865,4.130,5.215,414,409,369,386,379,2025-06-04T19:54:54.094094
4624,-0.5958,0.5217,0.6202,-5.250,4.375,5.250,424,419,364,396,408,2025-06-04T19:54:54.094094
4625,-0.5890,0.5197,0.6256,-5.740,4.165,5.355,425,395,363,402,409,2025-06-04T19:54:54.094094
4626,-0.5866,0.5178,0.6271,-6.265,3.115,5.775,395,402,366,369,403,2025-06-04T19:54:54.094094
4627,-0.5895,0.5168,0.6295,-6.125,1.610,6.230,407,408,379,400,374,2025-06-04T19:54:54.094094
4628,-0.5836,0.5134,0.6339,-5.810,-0.035,6.370,410,378,377,406,412,2025-06-04T19:54:54.094094
4629,-0.5797,0.5134,0.6364,-5.740,-2.135,6.475,425,395,387,418,405,2025-06-04T19:54:54.094094
4630,-0.5827,0.5168,0.6364,-5.285,-4.130,5.845,407,419,386,406,409,2025-06-04T19:54:54.094732
4631,-0.5793,0.5153,0.6324,-4.620,-5.705,4.830,416,432,380,380,376,2025-06-04T19:54:54.094732
4632,-0.5812,0.5173,0.6295,-3.885,-6.475,3.290,405,400,390,403,390,2025-06-04T19:54:54.094732
4633,-0.5802,0.5158,0.6256,-3.080,-7.175,1.960,373,411,392,377,383,2025-06-04T19:54:54.094732
4634,-0.5827,0.5144,0.6202,-2.100,-7.455,0.175,410,417,387,395,385,2025-06-04T19:54:54.094732
4635,-0.5890,0.5148,0.6202,-1.260,-7.140,-1.575,422,408,390,354,410,2025-06-04T19:54:54.094732
4636,-0.5832,0.5148,0.6173,-0.735,-6.475,-3.080,428,372,352,400,375,2025-06-04T19:54:54.094732
4637,-0.5915,0.5168,0.6154,-0.490,-5.495,-4.480,345,332,369,345,384,2025-06-04T19:54:54.094732
4638,-0.5968,0.5168,0.6139,0.035,-5.145,-5.425,389,383,385,387,383,2025-06-04T19:54:54.094732
4639,-0.6061,0.5187,0.6227,0.280,-5.355,-5.915,410,419,349,410,406,2025-06-04T19:54:54.094732
4640,-0.6159,0.5183,0.6227,-0.035,-6.475,-5.950,402,416,373,405,392,2025-06-04T19:54:54.094732
4641,-0.6129,0.5163,0.6237,-0.175,-7.875,-5.425,343,398,391,416,410,2025-06-04T19:54:54.198361
4642,-0.6041,0.5212,0.6222,-0.315,-8.610,-4.445,346,396,394,405,412,2025-06-04T19:54:54.198361
4643,-0.5915,0.5187,0.6222,-0.315,-8.960,-3.220,374,425,382,403,400,2025-06-04T19:54:54.199364
4644,-0.5793,0.5187,0.6207,-0.280,-8.680,-2.170,361,424,374,424,364,2025-06-04T19:54:54.199364
4645,-0.5690,0.5197,0.6159,-0.385,-7.980,-1.155,402,366,336,354,390,2025-06-04T19:54:54.199364
4646,-0.5656,0.5236,0.6149,-0.105,-7.420,-0.385,419,384,333,400,420,2025-06-04T19:54:54.199364
4647,-0.5632,0.5285,0.6134,0.105,-7.140,0.210,357,413,357,410,400,2025-06-04T19:54:54.199364
4648,-0.5714,0.5319,0.6115,0.140,-7.455,0.035,377,347,359,414,408,2025-06-04T19:54:54.200361
4649,-0.5739,0.5329,0.6056,0.665,-8.225,-0.525,401,394,331,355,392,2025-06-04T19:54:54.201357
4650,-0.5802,0.5334,0.5954,0.945,-9.310,-1.260,423,412,351,393,406,2025-06-04T19:54:54.204345
4651,-0.5758,0.5334,0.5924,1.715,-9.800,-2.555,385,425,374,411,401,2025-06-04T19:54:54.204345
4652,-0.5690,0.5309,0.5900,2.310,-9.170,-3.640,403,422,386,419,409,2025-06-04T19:54:54.204345
4653,-0.5666,0.5324,0.5866,2.800,-7.280,-4.515,388,359,391,409,399,2025-06-04T19:54:54.205071
4654,-0.5719,0.5363,0.5919,3.290,-5.215,-5.390,381,405,400,382,403,2025-06-04T19:54:54.205071
4655,-0.5807,0.5392,0.5900,3.500,-3.465,-5.495,388,353,387,387,399,2025-06-04T19:54:54.205356
4656,-0.5919,0.5422,0.5900,3.115,-1.750,-5.215,383,416,361,352,366,2025-06-04T19:54:54.205356
4657,-0.6037,0.5422,0.5910,3.150,-0.735,-4.060,339,417,361,378,346,2025-06-04T19:54:54.205356
4658,-0.6115,0.5466,0.5983,2.940,-0.700,-2.345,336,426,367,400,379,2025-06-04T19:54:54.205356
4659,-0.6115,0.5534,0.6007,2.660,-1.400,-0.385,377,430,368,422,409,2025-06-04T19:54:54.206344
4660,-0.6134,0.5573,0.6071,2.345,-2.625,2.240,335,411,382,402,359,2025-06-04T19:54:54.206344
4661,-0.6076,0.5612,0.6066,2.135,-4.025,5.075,393,429,392,400,408,2025-06-04T19:54:54.206344
4662,-0.5973,0.5671,0.6110,2.030,-4.830,7.910,412,422,388,417,411,2025-06-04T19:54:54.576633
4663,-0.5797,0.5744,0.6154,2.380,-5.285,11.060,419,430,388,435,413,2025-06-04T19:54:54.576633
4664,-0.5700,0.5802,0.6159,2.590,-5.495,14.140,425,429,382,389,403,2025-06-04T19:54:54.576633
4665,-0.5739,0.5827,0.6217,3.185,-5.705,16.170,419,423,381,347,405,2025-06-04T19:54:54.576633
4666,-0.5768,0.5871,0.6354,4.375,-6.405,18.305,409,407,390,354,414,2025-06-04T19:54:54.576633
4667,-0.5817,0.5944,0.6403,5.530,-7.105,19.810,397,401,388,397,413,2025-06-04T19:54:54.576633
4668,-0.5861,0.5988,0.6539,6.965,-8.540,21.420,402,424,347,394,418,2025-06-04T19:54:54.576633
4669,-0.5866,0.5900,0.6486,8.785,-10.255,23.135,354,440,358,419,413,2025-06-04T19:54:54.576633
4670,-0.5885,0.5949,0.6500,11.935,-12.285,24.745,418,437,376,385,415,2025-06-04T19:54:54.576633
4671,-0.5802,0.5700,0.6251,15.295,-14.175,27.825,392,405,367,409,406,2025-06-04T19:54:54.576633
4672,-0.5832,0.5646,0.6329,20.300,-15.190,31.535,413,395,365,397,393,2025-06-04T19:54:54.576633
4673,-0.5890,0.5763,0.6573,25.375,-13.580,34.755,401,393,375,407,410,2025-06-04T19:54:54.576633
4674,-0.5807,0.5871,0.7218,29.505,-7.560,36.295,362,422,345,355,399,2025-06-04T19:54:54.577634
4675,-0.5563,0.6178,0.7422,33.460,-0.910,37.835,381,422,373,404,397,2025-06-04T19:54:54.577634
4676,-0.5573,0.6324,0.7120,35.210,7.245,40.250,411,408,350,402,425,2025-06-04T19:54:54.577634
4677,-0.5675,0.5983,0.6739,37.485,12.495,42.070,387,416,373,357,397,2025-06-04T19:54:54.577634
4678,-0.5646,0.6193,0.6451,40.145,16.660,43.470,423,414,375,401,407,2025-06-04T19:54:54.577634
4679,-0.5705,0.6159,0.6276,42.455,19.880,44.450,412,356,383,386,422,2025-06-04T19:54:54.577634
4680,-0.5671,0.6183,0.6134,43.960,20.230,45.290,418,395,345,404,403,2025-06-04T19:54:54.577634
4681,-0.5588,0.6095,0.5671,43.995,18.270,46.095,406,348,327,406,422,2025-06-04T19:54:54.577634
4682,-0.5773,0.6071,0.5597,44.450,15.855,46.305,424,394,371,403,416,2025-06-04T19:54:54.577634
4683,-0.5817,0.6144,0.5383,43.855,11.480,45.640,403,416,335,415,363,2025-06-04T19:54:54.680560
4684,-0.5514,0.6076,0.5061,42.315,8.330,44.345,340,344,358,413,405,2025-06-04T19:54:54.681415
4685,-0.5490,0.6022,0.4807,40.530,6.545,42.630,383,406,365,428,419,2025-06-04T19:54:54.681571
4686,-0.5514,0.6012,0.4582,38.395,3.885,40.460,387,423,335,411,413,2025-06-04T19:54:54.681571
4687,-0.5519,0.6037,0.4470,36.225,2.030,38.360,411,424,366,424,428,2025-06-04T19:54:54.681571
4688,-0.5446,0.6100,0.4402,34.580,1.120,36.400,351,420,336,413,416,2025-06-04T19:54:54.681571
4689,-0.5226,0.5934,0.4441,31.710,1.470,34.510,386,382,343,428,433,2025-06-04T19:54:54.681571
4690,-0.5466,0.6300,0.4299,28.665,1.645,32.445,415,399,370,440,384,2025-06-04T19:54:54.681571
4691,-0.5719,0.6495,0.4158,24.045,2.450,29.960,363,398,389,430,407,2025-06-04T19:54:54.681571
4692,-0.5602,0.6451,0.4280,20.440,4.410,28.385,330,418,394,434,421,2025-06-04T19:54:54.681571
4693,-0.5119,0.6344,0.4407,19.565,2.975,27.230,391,424,403,410,418,2025-06-04T19:54:54.681571
4694,-0.5056,0.6495,0.4163,14.595,0.805,25.900,419,435,394,432,435,2025-06-04T19:54:54.681571
4695,-0.4904,0.6534,0.4031,13.230,0.070,24.325,426,353,375,403,422,2025-06-04T19:54:54.681571
4696,-0.4499,0.6661,0.3792,10.010,-1.225,22.785,399,337,355,422,400,2025-06-04T19:54:54.681571
4697,-0.4021,0.6700,0.3699,7.700,0.175,20.545,338,403,330,426,374,2025-06-04T19:54:54.681571
4698,-0.3621,0.6769,0.3611,5.810,3.500,18.095,389,402,376,411,394,2025-06-04T19:54:54.681571
4699,-0.3460,0.6964,0.3909,5.810,9.205,15.295,415,406,378,406,409,2025-06-04T19:54:54.681571
4700,-0.3328,0.7349,0.3982,6.160,13.685,12.355,425,394,390,411,403,2025-06-04T19:54:54.681571
4701,-0.3401,0.7579,0.4128,4.830,19.705,10.080,409,413,387,421,413,2025-06-04T19:54:54.682564
4702,-0.3655,0.7627,0.4021,4.865,20.930,7.210,396,387,387,398,408,2025-06-04T19:54:54.682564
4703,-0.3943,0.7779,0.4002,3.675,19.810,4.900,397,389,390,424,403,2025-06-04T19:54:54.682564
4704,-0.4211,0.7832,0.4075,4.410,15.190,2.905,414,418,366,426,373,2025-06-04T19:54:54.729434
4705,-0.4387,0.7901,0.4246,5.390,7.910,1.925,425,423,361,421,342,2025-06-04T19:54:54.729434
4706,-0.4690,0.7969,0.4402,5.355,-1.890,1.295,443,400,383,417,393,2025-06-04T19:54:54.729434
4707,-0.4758,0.8023,0.4626,6.860,-10.325,0.875,423,407,377,417,402,2025-06-04T19:54:54.729434
4708,-0.4690,0.8067,0.4738,7.140,-18.760,0.560,416,407,377,421,399,2025-06-04T19:54:54.729434
4709,-0.4455,0.8072,0.4900,8.120,-23.520,0.070,396,426,310,423,418,2025-06-04T19:54:54.977241
4710,-0.4172,0.8081,0.4924,9.135,-23.765,0.140,397,423,346,415,412,2025-06-04T19:54:54.977241
4711,-0.4016,0.8042,0.4939,10.395,-20.335,0.315,387,424,325,432,430,2025-06-04T19:54:54.977241
4712,-0.3914,0.8028,0.4943,11.690,-16.450,1.120,340,377,351,422,429,2025-06-04T19:54:54.977241
4713,-0.4002,0.8135,0.4982,12.985,-12.040,2.485,395,387,369,427,409,2025-06-04T19:54:54.977241
4714,-0.4094,0.8272,0.4973,13.965,-8.855,4.340,412,353,386,412,384,2025-06-04T19:54:54.977241
4715,-0.4041,0.8438,0.4885,13.965,-5.705,6.230,425,410,389,400,359,2025-06-04T19:54:54.977241
4716,-0.3914,0.8599,0.4792,14.175,-2.485,8.365,414,421,387,403,407,2025-06-04T19:54:54.977241
4717,-0.3958,0.8691,0.4695,14.140,-0.210,11.060,394,430,393,399,405,2025-06-04T19:54:54.977241
4718,-0.4006,0.8823,0.4607,14.140,0.245,13.685,417,392,382,378,362,2025-06-04T19:54:54.977241
4719,-0.4119,0.8955,0.4646,13.440,-0.455,15.960,402,421,386,415,351,2025-06-04T19:54:54.977241
4720,-0.4168,0.9082,0.4504,13.195,-2.730,19.180,393,415,389,412,344,2025-06-04T19:54:54.977241
4721,-0.4202,0.9243,0.4529,12.565,-5.985,23.100,417,422,399,365,342,2025-06-04T19:54:54.977241
4722,-0.4299,0.9277,0.4529,12.425,-9.450,26.635,420,345,374,382,400,2025-06-04T19:54:55.090419
4723,-0.4353,0.9296,0.4465,11.970,-13.125,29.925,378,410,386,359,357,2025-06-04T19:54:55.090419
4724,-0.4426,0.9384,0.4490,11.725,-15.995,33.040,334,414,374,366,397,2025-06-04T19:54:55.090419
4725,-0.4514,0.9345,0.4353,12.495,-20.090,36.505,381,412,381,385,392,2025-06-04T19:54:55.090419
4726,-0.4612,0.9331,0.4260,12.915,-24.605,38.920,343,409,386,319,406,2025-06-04T19:54:55.090419
4727,-0.4490,0.9228,0.4197,13.160,-26.985,42.105,340,353,384,387,399,2025-06-04T19:54:55.090419
4728,-0.4265,0.9257,0.4177,13.615,-26.810,45.465,392,295,372,409,421,2025-06-04T19:54:55.090419
4729,-0.4207,0.9170,0.4119,13.580,-24.850,48.720,332,350,382,428,427,2025-06-04T19:54:55.090419
4730,-0.4075,0.9096,0.3967,14.175,-22.155,51.590,404,426,378,410,407,2025-06-04T19:54:55.090419
4731,-0.3924,0.9033,0.3821,13.580,-19.355,54.285,422,412,340,409,412,2025-06-04T19:54:55.091506
4732,-0.3845,0.8926,0.3782,13.335,-15.540,56.455,387,405,364,379,408,2025-06-04T19:54:55.091506
4733,-0.3762,0.8843,0.3636,13.230,-11.935,58.870,404,300,327,372,363,2025-06-04T19:54:55.091506
4734,-0.3704,0.8691,0.3484,12.495,-10.780,61.075,416,329,364,356,312,2025-06-04T19:54:55.091506
4735,-0.3694,0.8477,0.3201,11.585,-9.975,62.510,346,403,375,382,383,2025-06-04T19:54:55.091506
4736,-0.3406,0.8286,0.2972,11.130,-7.840,63.630,378,427,372,424,408,2025-06-04T19:54:55.091506
4737,-0.3216,0.8047,0.2733,9.415,-5.845,63.595,420,419,377,356,358,2025-06-04T19:54:55.091506
4738,-0.3123,0.7808,0.2572,7.560,-3.500,62.720,348,394,388,400,414,2025-06-04T19:54:55.091506
4739,-0.3074,0.7647,0.2494,5.250,-2.485,61.005,334,404,395,420,419,2025-06-04T19:54:55.185359
4740,-0.3040,0.7398,0.2416,3.465,-3.500,58.065,319,396,346,428,417,2025-06-04T19:54:55.185359
4741,-0.3182,0.7149,0.2367,1.785,-7.315,53.655,378,402,382,426,415,2025-06-04T19:54:55.185359
4742,-0.3079,0.6944,0.2445,0.840,-11.830,48.335,387,397,370,435,421,2025-06-04T19:54:55.186354
4743,-0.3055,0.6773,0.2582,-0.630,-17.570,43.820,389,416,373,417,406,2025-06-04T19:54:55.186354
4744,-0.2611,0.6695,0.2664,-1.610,-20.020,37.485,409,429,377,397,421,2025-06-04T19:54:55.186354
4745,-0.2206,0.6593,0.2728,-2.275,-17.185,31.080,391,421,372,382,420,2025-06-04T19:54:55.186354
4746,-0.1918,0.6642,0.2786,-2.275,-10.430,24.360,358,361,377,412,420,2025-06-04T19:54:55.186354
4747,-0.1786,0.6632,0.2884,-2.240,-2.345,17.710,403,392,343,399,417,2025-06-04T19:54:55.289849
4748,-0.1835,0.6832,0.3133,-1.715,3.290,11.620,416,417,369,427,413,2025-06-04T19:54:55.289849
4749,-0.1952,0.7096,0.3318,-1.470,7.560,7.210,404,361,376,375,411,2025-06-04T19:54:55.289849
4750,-0.2045,0.7335,0.3572,-1.050,8.225,2.555,384,333,367,401,393,2025-06-04T19:54:55.289849
4751,-0.2147,0.7696,0.3826,-0.700,5.845,-1.330,390,390,371,418,405,2025-06-04T19:54:55.289849
4752,-0.2152,0.8076,0.4104,-1.050,0.700,-3.675,417,407,378,366,416,2025-06-04T19:54:55.290878
4753,-0.2103,0.8428,0.4231,-1.400,-4.795,-5.040,406,392,352,406,369,2025-06-04T19:54:55.290878
4754,-0.2030,0.9945,0.4260,-1.925,-11.655,-5.670,360,418,360,407,383,2025-06-04T19:54:55.290878
4755,-0.1918,0.8994,0.4324,-2.100,-18.095,-5.635,402,406,362,406,350,2025-06-04T19:54:55.290878
4756,-0.1728,0.9243,0.4402,-1.680,-22.785,-5.250,401,401,377,422,415,2025-06-04T19:54:55.400713
4757,-0.1586,0.9423,0.4377,-1.855,-25.025,-5.110,416,406,390,404,360,2025-06-04T19:54:55.400713
4758,-0.1444,0.9570,0.4392,-2.135,-24.675,-4.760,423,408,392,426,389,2025-06-04T19:54:55.400713
4759,-0.1401,0.9614,0.4412,-2.310,-22.330,-4.480,399,404,353,431,409,2025-06-04T19:54:55.400713
4760,-0.1513,0.9565,0.4412,-2.415,-18.725,-4.130,422,377,374,411,389,2025-06-04T19:54:55.400713
4761,-0.1688,0.9462,0.4333,-2.450,-15.855,-3.745,409,412,342,430,386,2025-06-04T19:54:55.400713
4762,-0.1854,0.9379,0.4290,-1.925,-14.105,-3.185,403,401,351,405,400,2025-06-04T19:54:55.401377
4763,-0.1976,0.9223,0.4138,-1.785,-12.845,-2.520,397,411,360,409,404,2025-06-04T19:54:55.401377
4764,-0.2020,0.9087,0.4153,-1.015,-11.970,-1.575,401,428,340,319,396,2025-06-04T19:54:55.492140
4765,-0.2113,0.8989,0.4211,-0.350,-11.095,-0.455,366,428,331,371,388,2025-06-04T19:54:55.492140
4766,-0.2118,0.8882,0.4153,-0.350,-10.745,0.875,347,402,368,392,386,2025-06-04T19:54:55.492140
4767,-0.2172,0.8784,0.3987,-0.245,-11.900,1.890,393,405,373,407,410,2025-06-04T19:54:55.492140
4768,-0.2142,0.8691,0.3924,-0.035,-13.510,2.905,386,408,384,421,415,2025-06-04T19:54:55.492140
4769,-0.2045,0.8540,0.3909,-0.105,-14.945,3.360,419,394,378,428,429,2025-06-04T19:54:55.492140
4770,-0.1884,0.8530,0.3836,0.385,-15.925,3.850,418,414,344,391,406,2025-06-04T19:54:55.492140
4771,-0.1840,0.8408,0.3680,0.105,-16.065,4.165,421,421,356,359,403,2025-06-04T19:54:55.798232
4772,-0.1723,0.8418,0.3714,0.490,-16.275,4.165,413,413,372,405,420,2025-06-04T19:54:55.798232
4773,-0.1635,0.8447,0.3758,0.770,-15.260,4.305,406,426,373,422,384,2025-06-04T19:54:55.798658
4774,-0.1606,0.8481,0.3694,0.490,-14.420,4.060,405,424,335,424,392,2025-06-04T19:54:55.802787
4775,-0.1635,0.8477,0.3748,0.700,-13.825,3.290,380,357,353,420,400,2025-06-04T19:54:55.802787
4776,-0.1679,0.8501,0.3762,1.050,-14.105,2.275,402,420,381,405,400,2025-06-04T19:54:55.802787
4777,-0.1771,0.8520,0.3806,1.295,-14.455,1.295,397,388,336,311,398,2025-06-04T19:54:55.802787
4778,-0.1771,0.8574,0.3943,1.225,-14.980,-0.280,426,347,355,390,418,2025-06-04T19:54:55.802787
4779,-0.1684,0.8574,0.4002,0.910,-14.910,-1.750,348,401,362,421,410,2025-06-04T19:54:55.802787
4780,-0.1684,0.8550,0.4046,0.875,-14.665,-3.080,333,338,376,362,319,2025-06-04T19:54:55.802787
4781,-0.1713,0.8594,0.4085,0.735,-14.175,-4.340,373,408,340,390,396,2025-06-04T19:54:55.802787
4782,-0.1762,0.8613,0.4114,0.245,-13.510,-5.530,419,398,370,421,411,2025-06-04T19:54:55.802787
4783,-0.1708,0.8618,0.4124,-0.070,-12.705,-6.930,416,401,377,412,364,2025-06-04T19:54:55.802787
4784,-0.1674,0.8603,0.4128,-0.945,-11.550,-7.910,409,405,380,410,402,2025-06-04T19:54:55.802787
4785,-0.1728,0.8594,0.4099,-0.595,-10.115,-8.680,420,423,383,410,409,2025-06-04T19:54:55.803813
4786,-0.1728,0.8594,0.4041,-0.665,-8.470,-9.520,417,413,374,411,424,2025-06-04T19:54:55.803813
4787,-0.1693,0.8608,0.4055,-1.400,-5.705,-10.150,384,364,354,357,374,2025-06-04T19:54:55.803813
4788,-0.1698,0.8584,0.3958,-1.400,-3.080,-10.150,403,408,339,379,397,2025-06-04T19:54:55.903550
4789,-0.1874,0.8530,0.3899,-1.470,-1.925,-9.660,417,403,354,412,365,2025-06-04T19:54:55.903550
4790,-0.2011,0.8560,0.3841,-1.435,-1.960,-9.380,394,399,372,398,402,2025-06-04T19:54:55.903550
4791,-0.2011,0.8628,0.3792,-1.400,-2.100,-9.100,409,406,339,422,408,2025-06-04T19:54:55.903550
4792,-0.2001,0.8677,0.3767,-1.680,-2.625,-8.505,407,413,348,426,419,2025-06-04T19:54:55.903550
4793,-0.2040,0.8735,0.3738,-1.225,-3.325,-7.560,419,399,360,414,430,2025-06-04T19:54:55.903550
4794,-0.2108,0.8921,0.3802,-0.840,-3.780,-7.175,356,372,376,371,369,2025-06-04T19:54:55.903550
4795,-0.2074,0.8989,0.3826,-0.840,-3.780,-6.755,399,411,337,391,405,2025-06-04T19:54:55.903550
4796,-0.2137,0.9048,0.3919,-0.455,-4.200,-6.090,391,396,370,399,403,2025-06-04T19:54:55.903550
4797,-0.2147,0.9082,0.3924,0.245,-4.795,-5.110,413,398,372,371,408,2025-06-04T19:54:55.903550
4798,-0.2181,0.9048,0.4026,1.155,-4.795,-4.095,303,385,369,405,400,2025-06-04T19:54:55.903550
4799,-0.2147,0.9062,0.4099,1.820,-4.305,-2.870,401,405,376,380,408,2025-06-04T19:54:55.903550
4800,-0.2172,0.9033,0.4138,2.135,-3.990,-1.610,298,405,378,410,405,2025-06-04T19:54:55.904616
4801,-0.2250,0.8989,0.4226,2.695,-3.885,-0.420,396,420,354,426,386,2025-06-04T19:54:55.904616
4802,-0.2264,0.8974,0.4290,3.360,-4.060,0.560,399,396,342,381,400,2025-06-04T19:54:56.208450
4803,-0.2284,0.8930,0.4329,3.465,-5.040,1.750,354,374,371,401,415,2025-06-04T19:54:56.208450
4804,-0.2367,0.8823,0.4324,3.675,-6.510,2.450,322,395,378,409,401,2025-06-04T19:54:56.208450
4805,-0.2328,0.8750,0.4250,3.675,-7.700,2.975,381,415,367,355,397,2025-06-04T19:54:56.208450
4806,-0.2196,0.8711,0.4265,3.885,-7.630,3.500,425,419,374,414,419,2025-06-04T19:54:56.208450
4807,-0.2108,0.8599,0.4153,3.325,-6.860,3.885,417,416,377,410,405,2025-06-04T19:54:56.208450
4808,-0.2133,0.8545,0.4070,3.010,-5.460,4.095,420,413,376,386,428,2025-06-04T19:54:56.208450
4809,-0.2128,0.8481,0.4002,2.905,-4.970,4.200,402,424,353,393,420,2025-06-04T19:54:56.208450
4810,-0.2103,0.8481,0.3855,2.275,-4.550,4.515,432,376,367,384,379,2025-06-04T19:54:56.208450
4811,-0.2235,0.8481,0.3831,1.785,-4.375,4.375,403,418,376,398,424,2025-06-04T19:54:56.208450
4812,-0.2289,0.8511,0.3836,1.750,-4.305,3.850,384,430,375,384,413,2025-06-04T19:54:56.208450
4813,-0.2347,0.8472,0.3826,1.155,-4.865,2.905,414,417,379,400,434,2025-06-04T19:54:56.209447
4814,-0.2411,0.8408,0.3836,0.910,-5.215,1.890,413,422,353,394,380,2025-06-04T19:54:56.209447
4815,-0.2347,0.8340,0.3845,1.120,-5.145,1.295,432,387,328,411,399,2025-06-04T19:54:56.209447
4816,-0.2357,0.8335,0.3875,1.085,-4.760,0.420,420,357,356,404,400,2025-06-04T19:54:56.209447
4817,-0.2377,0.8281,0.3914,1.295,-4.305,-0.735,421,410,331,409,418,2025-06-04T19:54:56.209447
4818,-0.2425,0.8267,0.3992,1.540,-5.075,-1.785,427,397,323,354,381,2025-06-04T19:54:56.209447
4819,-0.2377,0.8286,0.4050,1.680,-5.880,-2.660,418,416,357,388,404,2025-06-04T19:54:56.209447
4820,-0.2313,0.8350,0.4124,2.030,-7.000,-3.500,387,417,376,368,374,2025-06-04T19:54:56.209447
4821,-0.2186,0.8457,0.4182,2.065,-7.560,-4.550,372,405,383,405,393,2025-06-04T19:54:56.361921
4822,-0.2074,0.8560,0.4197,1.855,-7.455,-5.390,407,412,397,403,408,2025-06-04T19:54:56.362351
4823,-0.2025,0.8706,0.4177,1.820,-7.595,-6.300,384,420,393,415,424,2025-06-04T19:54:56.362351
4824,-0.2035,0.8794,0.4231,1.225,-7.700,-6.860,401,405,381,409,421,2025-06-04T19:54:56.362351
4825,-0.2011,0.8921,0.4255,1.120,-7.980,-6.720,426,425,376,404,385,2025-06-04T19:54:56.362351
4826,-0.1976,0.8989,0.4236,1.190,-8.645,-6.160,412,391,393,400,400,2025-06-04T19:54:56.362351
4827,-0.1972,0.9121,0.4338,0.770,-9.205,-5.145,355,404,351,412,413,2025-06-04T19:54:56.362351
4828,-0.1942,0.9189,0.4319,0.805,-9.835,-3.500,409,428,379,416,331,2025-06-04T19:54:56.362351
4829,-0.1898,0.9262,0.4241,0.490,-10.500,-2.170,418,431,379,406,380,2025-06-04T19:54:56.362351
4830,-0.1957,0.9301,0.4207,0.420,-11.095,-0.315,425,422,386,392,411,2025-06-04T19:54:56.362351
4831,-0.1976,0.9326,0.4168,0.490,-11.375,1.330,420,420,382,363,405,2025-06-04T19:54:56.362351
4832,-0.2064,0.9252,0.4128,0.245,-11.515,3.010,399,399,337,377,396,2025-06-04T19:54:56.362351
4833,-0.2186,0.9174,0.4031,0.455,-11.445,4.375,371,413,368,376,413,2025-06-04T19:54:56.608452
4834,-0.2230,0.9077,0.3963,0.560,-11.375,5.530,384,366,378,339,412,2025-06-04T19:54:56.608452
4835,-0.2269,0.8896,0.3904,0.735,-11.200,6.335,415,415,383,399,421,2025-06-04T19:54:56.608452
4836,-0.2328,0.8818,0.3889,1.120,-10.920,7.070,401,340,355,390,427,2025-06-04T19:54:56.608452
4837,-0.2284,0.8682,0.3870,1.400,-10.010,7.840,411,403,366,402,427,2025-06-04T19:54:56.608452
4838,-0.2357,0.8535,0.3802,1.715,-9.590,8.330,414,420,384,431,422,2025-06-04T19:54:56.608452
4839,-0.2313,0.8486,0.3777,2.415,-9.310,8.820,363,376,388,424,367,2025-06-04T19:54:56.608452
4840,-0.2279,0.8472,0.3743,2.835,-9.275,8.785,409,385,379,430,404,2025-06-04T19:54:56.608452
4841,-0.2162,0.8457,0.3792,3.220,-8.750,8.260,419,389,376,427,417,2025-06-04T19:54:56.608452
4842,-0.2011,0.8438,0.3792,3.220,-8.295,7.805,398,299,382,410,422,2025-06-04T19:54:56.608452
4843,-0.1957,0.8398,0.3802,3.465,-8.085,7.245,404,402,382,435,424,2025-06-04T19:54:56.608452
4844,-0.1928,0.8398,0.3782,3.535,-8.365,6.160,368,374,387,415,404,2025-06-04T19:54:56.608452
4845,-0.1830,0.8398,0.3787,3.920,-8.960,4.900,419,391,395,419,421,2025-06-04T19:54:56.608452
4846,-0.1708,0.8403,0.3860,4.095,-9.555,3.780,412,362,388,423,421,2025-06-04T19:54:56.609516
4847,-0.1562,0.8438,0.3880,4.270,-9.625,2.555,420,413,376,366,425,2025-06-04T19:54:56.609516
4848,-0.1410,0.8511,0.3850,4.445,-9.135,1.435,421,406,346,408,432,2025-06-04T19:54:56.609516
4849,-0.1366,0.8628,0.3889,4.515,-8.540,0.385,395,416,371,393,406,2025-06-04T19:54:56.609516
4850,-0.1318,0.8584,0.3850,4.620,-8.085,-0.245,396,406,372,398,363,2025-06-04T19:54:56.609516
4851,-0.1352,0.8730,0.3826,4.410,-8.505,-0.945,415,426,386,364,371,2025-06-04T19:54:56.609516
4852,-0.1464,0.8833,0.3792,4.410,-8.680,-2.205,428,408,396,388,392,2025-06-04T19:54:56.609516
4853,-0.1474,0.8882,0.3802,4.060,-8.750,-3.815,402,396,349,388,407,2025-06-04T19:54:56.609516
4854,-0.1440,0.8945,0.3889,3.780,-7.805,-4.830,404,375,355,409,409,2025-06-04T19:54:56.694222
4855,-0.1435,0.8945,0.3865,3.780,-6.405,-5.845,396,404,344,411,399,2025-06-04T19:54:56.694222
4856,-0.1503,0.8862,0.3772,4.235,-6.335,-7.210,402,360,336,419,391,2025-06-04T19:54:56.694222
4857,-0.1484,0.8784,0.3845,6.160,-8.400,-8.505,389,396,325,421,400,2025-06-04T19:54:56.694222
4858,-0.1259,0.8560,0.3972,8.435,-13.335,-9.135,373,369,346,429,404,2025-06-04T19:54:56.694222
4859,-0.1981,0.8930,0.4026,9.170,-21.140,-12.285,395,419,373,419,415,2025-06-04T19:54:56.694222
4860,-0.1879,0.9101,0.3953,7.945,-35.175,-16.765,415,401,374,424,419,2025-06-04T19:54:56.695296
4861,-0.2235,0.9448,0.3963,1.365,-59.920,-25.305,388,361,369,402,406,2025-06-04T19:54:56.695296
4862,-0.1396,0.9740,0.3558,-10.990,-82.705,-33.635,409,384,384,403,409,2025-06-04T19:54:56.695296
4863,-0.1157,1.0507,0.3157,-18.270,-106.785,-48.825,426,379,378,407,414,2025-06-04T19:54:56.695296
4864,0.0488,1.1248,0.2982,-29.085,-125.895,-61.635,402,419,371,404,402,2025-06-04T19:54:56.695296
4865,0.2577,1.2356,0.2308,-45.080,-137.305,-73.045,382,361,368,416,401,2025-06-04T19:54:56.695296
4866,0.4280,1.4079,0.2011,-63.175,-136.115,-80.920,385,413,379,407,402,2025-06-04T19:54:56.695296
4867,0.6120,1.6348,0.1674,-82.425,-124.950,-81.725,397,415,386,366,350,2025-06-04T19:54:56.695296
4868,0.7564,1.8534,0.0810,-102.025,-112.735,-73.500,392,397,373,391,338,2025-06-04T19:54:56.695296
4869,0.8340,2.2580,-0.0122,-119.630,-96.880,-58.730,423,408,391,398,381,2025-06-04T19:54:56.695296
4870,0.8603,2.6864,-0.2869,-138.880,-72.625,-43.050,413,420,395,415,374,2025-06-04T19:54:56.695296
4871,0.7623,3.0358,-0.5246,-144.410,-49.910,-34.720,387,417,386,396,395,2025-06-04T19:54:56.695296
4872,0.5324,3.2413,-0.7159,-161.245,-26.705,-36.680,330,298,393,415,401,2025-06-04T19:54:56.695296
4873,0.3470,3.0866,-0.9501,-180.985,-19.075,-35.105,404,404,349,415,391,2025-06-04T19:54:56.741210
4874,0.0283,2.7362,-1.1219,-210.070,-56.140,-26.530,395,399,359,387,390,2025-06-04T19:54:56.741210
4875,-0.2460,2.4615,-0.9716,-244.195,-100.800,-28.910,359,414,364,366,406,2025-06-04T19:54:56.741210
4876,-0.4577,2.0071,-0.7310,-290.220,-138.600,-65.730,407,345,374,409,391,2025-06-04T19:54:56.741210
4877,-0.3367,1.5182,-0.4929,-337.995,-151.830,-106.085,408,355,336,415,381,2025-06-04T19:54:56.921798
4878,-0.2133,0.7764,-0.5500,-382.620,-152.530,-162.470,344,398,328,382,389,2025-06-04T19:54:56.921798
4879,0.0434,-0.5588,-0.4187,-408.800,-163.905,-195.440,402,421,358,301,396,2025-06-04T19:54:56.921798
4880,-0.5622,-1.6133,-0.0717,-471.450,-173.530,-239.365,425,438,380,350,372,2025-06-04T19:54:56.921798
4881,-0.8613,-3.5673,1.0302,-478.975,-187.495,-274.120,431,421,386,411,409,2025-06-04T19:54:56.921798
4882,-2.1711,-5.5188,1.7251,-368.305,-270.200,-265.580,418,403,384,414,407,2025-06-04T19:54:56.922838
4883,-1.8359,-6.1590,1.3928,-332.430,-365.855,-193.515,351,406,400,371,434,2025-06-04T19:54:56.922838
4884,-0.2747,-5.6335,0.8198,-101.815,-392.315,-47.845,380,364,339,397,406,2025-06-04T19:54:56.922838
4885,1.6768,-4.5496,0.7623,22.890,-220.885,91.910,349,412,346,403,400,2025-06-04T19:54:56.922838
4886,2.6381,-3.7171,0.9296,208.705,46.025,181.300,415,358,380,436,443,2025-06-04T19:54:56.922838
4887,1.3923,-2.6903,0.9897,279.195,277.725,205.100,424,399,339,389,358,2025-06-04T19:54:56.922838
4888,-0.0898,-2.0794,1.0614,321.160,332.990,181.685,426,442,381,410,422,2025-06-04T19:54:56.922838
4889,-0.3143,-1.6328,1.0580,314.125,248.325,174.825,445,354,377,399,423,2025-06-04T19:54:56.922838
4890,-0.5231,-1.0594,1.0292,301.945,109.200,165.375,435,403,345,399,422,2025-06-04T19:54:56.923834
4891,-0.2957,-0.5275,0.9867,263.690,30.310,139.440,413,404,350,410,441,2025-06-04T19:54:57.253972
4892,0.3094,0.0386,0.7691,256.900,8.330,108.885,397,389,361,392,403,2025-06-04T19:54:57.253972
4893,0.6769,0.4104,0.6124,252.105,30.100,95.375,408,440,388,409,372,2025-06-04T19:54:57.253972
4894,0.6993,0.6793,0.5934,234.430,80.990,76.580,387,420,358,364,350,2025-06-04T19:54:57.253972
4895,0.5456,0.8828,0.5417,224.770,126.805,55.020,391,403,361,407,390,2025-06-04T19:54:57.253972
4896,0.3723,1.0019,0.4211,206.360,151.305,43.680,374,422,341,415,405,2025-06-04T19:54:57.253972
4897,-0.0078,1.2161,0.3997,202.790,154.945,31.185,384,416,367,387,396,2025-06-04T19:54:57.253972
4898,-0.2455,1.3181,0.3709,196.700,137.760,16.380,424,413,364,352,360,2025-06-04T19:54:57.253972
4899,-0.2386,1.3303,0.2464,188.685,108.185,13.055,303,416,327,391,399,2025-06-04T19:54:57.253972
4900,-0.2806,1.3527,0.1474,174.125,76.755,13.090,395,341,354,348,347,2025-06-04T19:54:57.255043
4901,-0.2767,1.4572,0.0874,160.300,50.015,11.935,400,411,372,335,373,2025-06-04T19:54:57.255043
4902,-0.1893,1.4786,0.0410,148.505,28.665,8.715,386,409,364,366,343,2025-06-04T19:54:57.255043
4903,-0.0698,1.4391,0.0122,126.770,14.525,11.375,417,419,370,395,381,2025-06-04T19:54:57.255043
4904,-0.0068,1.3888,0.0254,116.970,4.550,14.140,399,397,365,409,397,2025-06-04T19:54:57.255043
4905,0.0556,1.2883,0.0361,100.310,-0.840,15.120,413,395,378,407,402,2025-06-04T19:54:57.255043
4906,0.0815,1.2478,0.0800,85.260,0.490,14.805,386,300,389,402,408,2025-06-04T19:54:57.255043
4907,0.0566,1.2166,0.1235,75.810,3.850,10.535,342,399,389,397,404,2025-06-04T19:54:57.255043
4908,0.0527,1.1810,0.1488,71.260,4.865,6.230,414,393,394,411,395,2025-06-04T19:54:57.255043
4909,0.0444,1.1326,0.1767,67.305,2.030,2.835,394,431,394,397,389,2025-06-04T19:54:57.255043
4910,0.0351,1.1107,0.2147,64.610,-0.245,-0.035,415,416,348,368,364,2025-06-04T19:54:57.400317
4911,0.0386,1.0873,0.2425,60.900,-0.350,-2.870,419,394,374,386,359,2025-06-04T19:54:57.400616
4912,0.0498,1.0712,0.2513,57.050,1.050,-4.410,405,409,377,340,370,2025-06-04T19:54:57.400616
4913,0.0605,1.0560,0.2621,52.045,5.040,-4.620,427,395,380,378,393,2025-06-04T19:54:57.400616
4914,0.0278,1.0658,0.2879,48.895,11.305,-5.075,418,411,375,399,403,2025-06-04T19:54:57.400616
4915,0.0015,1.0658,0.2904,44.975,17.325,-6.230,419,396,385,404,409,2025-06-04T19:54:57.400616
4916,-0.0307,1.0487,0.2845,41.160,21.735,-6.895,426,408,396,356,410,2025-06-04T19:54:57.400616
4917,-0.0542,1.0385,0.2747,36.960,18.865,-5.320,400,389,345,371,402,2025-06-04T19:54:57.400616
4918,-0.1142,1.0404,0.2899,32.165,11.095,-3.640,423,387,373,405,386,2025-06-04T19:54:57.400616
4919,-0.1283,1.0248,0.3192,29.995,3.045,-4.165,405,417,383,408,392,2025-06-04T19:54:57.400616
4920,-0.0742,1.0263,0.3192,26.635,-1.365,-2.730,425,422,385,345,378,2025-06-04T19:54:57.401672
4921,-0.0781,1.0082,0.3182,24.220,-3.430,-2.135,403,351,385,387,343,2025-06-04T19:54:57.401672
4922,-0.0361,1.0043,0.3206,21.770,-0.630,-1.610,405,403,385,383,381,2025-06-04T19:54:57.401672
4923,-0.0254,1.0063,0.3206,18.480,6.545,-1.540,414,411,393,406,389,2025-06-04T19:54:57.401672
4924,-0.0195,0.9965,0.3109,16.485,13.650,-1.085,402,414,360,352,347,2025-06-04T19:54:57.401672
4925,-0.0405,0.9867,0.3030,14.140,17.325,-0.280,389,401,375,370,372,2025-06-04T19:54:57.401672
4926,-0.0883,0.9784,0.3035,12.950,17.150,0.035,416,409,383,399,399,2025-06-04T19:54:57.401672
4927,-0.1274,0.9755,0.3157,11.060,12.810,-0.175,397,411,370,403,408,2025-06-04T19:54:57.401672
4928,-0.1371,0.9755,0.3206,9.240,8.400,-0.805,383,396,373,410,364,2025-06-04T19:54:57.401672
4929,-0.1176,0.9731,0.3133,6.965,6.755,-1.190,383,417,383,407,370,2025-06-04T19:54:57.401672
4930,-0.0956,0.9667,0.3079,4.935,9.205,-1.505,396,349,373,393,376,2025-06-04T19:54:57.401672
4931,-0.1220,0.9536,0.3040,2.555,12.565,-2.870,349,381,380,417,396,2025-06-04T19:54:57.539551
4932,-0.1215,0.9443,0.3094,1.120,15.715,-4.060,418,392,310,402,395,2025-06-04T19:54:57.539551
4933,-0.1488,0.9409,0.3187,-0.560,18.410,-4.795,342,352,310,413,409,2025-06-04T19:54:57.539551
4934,-0.1362,0.9301,0.3118,-1.330,21.980,-5.180,392,419,349,419,395,2025-06-04T19:54:57.539551
4935,-0.1381,0.9292,0.3240,-2.380,27.930,-5.075,341,392,361,396,357,2025-06-04T19:54:57.539551
4936,-0.1337,0.9292,0.3206,-2.415,33.845,-3.045,403,419,362,396,398,2025-06-04T19:54:57.539551
4937,-0.1937,0.9087,0.3187,-2.765,37.450,-1.470,380,347,360,417,393,2025-06-04T19:54:57.539551
4938,-0.2157,0.9018,0.3152,-1.960,37.835,0.595,384,399,368,363,395,2025-06-04T19:54:57.539551
4939,-0.2806,0.9028,0.3250,-2.345,33.775,3.185,408,418,335,380,392,2025-06-04T19:54:57.539551
4940,-0.3245,0.8950,0.3231,-1.400,25.340,4.585,402,371,362,370,403,2025-06-04T19:54:57.539551
4941,-0.3240,0.8808,0.3182,-0.875,15.470,6.335,404,423,361,387,409,2025-06-04T19:54:57.539551
4942,-0.3109,0.8804,0.3152,0.490,0.455,7.315,394,411,372,409,402,2025-06-04T19:54:57.539551
4943,-0.2894,0.8769,0.3187,1.085,7.000,7.280,406,407,369,387,409,2025-06-04T19:54:57.539551
4944,-0.2538,0.8735,0.3065,2.240,7.735,7.630,412,399,373,406,418,2025-06-04T19:54:57.640124
4945,-0.2435,0.8599,0.2923,2.940,11.865,7.770,429,416,339,389,351,2025-06-04T19:54:57.640124
4946,-0.2430,0.8564,0.2923,3.465,18.305,7.455,410,417,367,386,347,2025-06-04T19:54:57.640124
4947,-0.2669,0.8633,0.2996,4.200,22.365,6.755,403,422,382,344,374,2025-06-04T19:54:57.640124
4948,-0.2865,0.8599,0.3026,5.110,24.290,5.915,427,414,391,331,393,2025-06-04T19:54:57.640124
4949,-0.3133,0.8555,0.2977,5.670,22.610,5.810,426,405,386,376,391,2025-06-04T19:54:57.640124
4950,-0.3250,0.8589,0.3060,6.370,18.865,6.055,409,411,393,387,382,2025-06-04T19:54:57.640124
4951,-0.3411,0.8652,0.3099,6.650,15.540,6.055,430,352,382,412,354,2025-06-04T19:54:57.641275
4952,-0.3353,0.8760,0.3201,6.825,12.810,4.970,415,327,390,406,401,2025-06-04T19:54:57.887541
4953,-0.3294,0.8769,0.3270,5.880,9.345,3.850,401,404,394,412,412,2025-06-04T19:54:57.887541
4954,-0.3216,0.8721,0.3274,4.970,5.110,3.465,404,433,381,398,409,2025-06-04T19:54:57.887541
4955,-0.3055,0.8735,0.3294,4.445,1.750,2.380,344,405,381,390,396,2025-06-04T19:54:57.887541
4956,-0.2943,0.8745,0.3314,4.200,0.525,1.260,404,426,387,397,398,2025-06-04T19:54:57.887541
4957,-0.2679,0.8677,0.3235,3.780,2.135,0.455,405,407,381,414,417,2025-06-04T19:54:57.887541
4958,-0.2533,0.8701,0.3260,3.815,4.970,0.455,344,402,351,390,412,2025-06-04T19:54:57.887541
4959,-0.2655,0.8804,0.3436,3.430,9.870,0.140,405,412,374,403,400,2025-06-04T19:54:57.887541
4960,-0.2830,0.8804,0.3489,3.010,12.320,0.245,416,422,383,385,400,2025-06-04T19:54:57.887541
4961,-0.3123,0.8764,0.3509,2.590,10.675,0.420,414,408,393,407,402,2025-06-04T19:54:57.887541
4962,-0.3411,0.8823,0.3548,2.135,6.475,0.000,405,416,385,405,411,2025-06-04T19:54:57.887541
4963,-0.3558,0.8862,0.3572,1.925,1.715,-0.490,404,425,388,415,417,2025-06-04T19:54:57.887541
4964,-0.3450,0.8960,0.3567,1.925,-4.165,-0.805,415,423,343,408,397,2025-06-04T19:54:57.887541
4965,-0.3138,0.9013,0.3621,1.190,-7.315,-1.015,417,351,348,399,379,2025-06-04T19:54:57.887541
4966,-0.2801,0.9023,0.3533,0.000,-7.945,-0.665,418,416,332,390,402,2025-06-04T19:54:57.887541
4967,-0.2708,0.8994,0.3440,-0.280,-7.805,0.140,431,417,317,402,409,2025-06-04T19:54:57.887541
4968,-0.2645,0.8955,0.3426,-0.105,-8.155,0.315,401,407,343,394,413,2025-06-04T19:54:57.887541
4969,-0.2557,0.8916,0.3440,-0.315,-8.645,0.700,419,418,292,392,359,2025-06-04T19:54:57.887541
4970,-0.2528,0.8886,0.3455,-0.070,-9.170,0.910,420,424,348,388,388,2025-06-04T19:54:57.949790
4971,-0.2372,0.8882,0.3372,0.175,-8.925,0.910,429,431,372,388,345,2025-06-04T19:54:57.949790
4972,-0.2386,0.8882,0.3406,0.315,-7.700,0.385,413,345,376,415,380,2025-06-04T19:54:57.949790
4973,-0.2367,0.8852,0.3318,0.805,-6.510,0.105,405,376,374,416,385,2025-06-04T19:54:57.949790
4974,-0.2547,0.8838,0.3279,1.225,-6.720,0.105,420,422,386,419,393,2025-06-04T19:54:57.949790
4975,-0.2586,0.8799,0.3284,1.365,-7.840,0.035,343,415,390,372,365,2025-06-04T19:54:57.949790
4976,-0.2694,0.8716,0.3143,1.820,-9.590,-0.490,385,417,387,382,383,2025-06-04T19:54:57.949790
4977,-0.2694,0.8696,0.3162,2.765,-11.305,-0.840,420,396,350,403,381,2025-06-04T19:54:57.949790
4978,-0.2664,0.8691,0.3157,3.360,-13.510,-1.120,413,394,365,392,386,2025-06-04T19:54:58.157484
4979,-0.2577,0.8716,0.3192,3.430,-14.385,-1.750,390,424,378,399,377,2025-06-04T19:54:58.157484
4980,-0.2416,0.8721,0.3152,3.290,-12.460,-2.555,393,412,342,401,400,2025-06-04T19:54:58.157484
4981,-0.2391,0.8784,0.3084,3.115,-9.135,-3.255,393,398,360,396,357,2025-06-04T19:54:58.157484
4982,-0.2445,0.8804,0.3016,2.870,-7.280,-4.060,422,400,367,406,398,2025-06-04T19:54:58.157484
4983,-0.2455,0.8882,0.2996,2.625,-6.510,-4.620,401,417,373,421,391,2025-06-04T19:54:58.157484
4984,-0.2474,0.8896,0.2996,2.205,-6.230,-5.180,409,421,382,399,404,2025-06-04T19:54:58.157484
4985,-0.2542,0.8916,0.3065,1.925,-7.630,-5.180,418,393,390,420,419,2025-06-04T19:54:58.157484
4986,-0.2728,0.9004,0.3138,1.295,-10.325,-5.705,405,400,379,416,359,2025-06-04T19:54:58.157484
4987,-0.2606,0.8965,0.3050,1.190,-13.720,-5.845,393,423,375,389,391,2025-06-04T19:54:58.157484
4988,-0.2547,0.8994,0.3099,0.280,-15.155,-5.810,418,419,379,399,351,2025-06-04T19:54:58.157484
4989,-0.2396,0.9052,0.3104,-0.315,-14.315,-6.020,405,403,372,305,373,2025-06-04T19:54:58.157484
4990,-0.2196,0.9033,0.3040,-0.875,-11.410,-5.635,372,347,377,368,362,2025-06-04T19:54:58.157484
4991,-0.2206,0.8974,0.2987,-1.540,-8.365,-5.180,364,390,392,367,386,2025-06-04T19:54:58.157484
4992,-0.2323,0.8930,0.2943,-1.820,-7.315,-4.375,413,397,392,375,394,2025-06-04T19:54:58.157484
4993,-0.2435,0.8921,0.2991,-1.540,-7.350,-3.780,423,399,374,347,397,2025-06-04T19:54:58.157484
4994,-0.2440,0.8911,0.2967,-1.190,-7.630,-3.325,417,423,384,360,354,2025-06-04T19:54:58.157484
4995,-0.2542,0.8955,0.3094,-1.225,-7.455,-3.080,415,398,349,402,380,2025-06-04T19:54:58.206672
4996,-0.2425,0.8965,0.3079,-1.295,-7.035,-2.485,347,382,370,415,379,2025-06-04T19:54:58.206672
4997,-0.2572,0.8886,0.3030,-1.400,-6.335,-2.135,382,418,378,410,407,2025-06-04T19:54:58.206672
4998,-0.2577,0.8847,0.3065,-1.155,-5.880,-2.065,403,412,371,419,395,2025-06-04T19:54:58.206672
4999,-0.2606,0.8799,0.3084,-0.910,-5.635,-1.890,408,400,343,396,408,2025-06-04T19:54:58.361435
5000,-0.2679,0.8794,0.3113,-0.735,-5.600,-2.030,375,414,369,386,416,2025-06-04T19:54:58.361435
5001,-0.2616,0.8789,0.3104,-0.385,-5.705,-1.890,354,397,337,387,399,2025-06-04T19:54:58.361435
5002,-0.2582,0.8696,0.3079,0.000,-5.145,-1.750,397,404,353,398,414,2025-06-04T19:54:58.361435
5003,-0.2611,0.8774,0.3138,0.665,-3.710,-1.785,404,426,359,403,356,2025-06-04T19:54:58.361435
5004,-0.2547,0.8843,0.3192,1.085,-1.190,-1.890,380,408,369,406,385,2025-06-04T19:54:58.361435
5005,-0.2621,0.8813,0.3196,0.665,1.190,-1.680,410,434,373,402,387,2025-06-04T19:54:58.361435
5006,-0.2713,0.8813,0.3192,0.560,2.345,-1.330,395,406,387,417,384,2025-06-04T19:54:58.361435
5007,-0.2791,0.8833,0.3260,0.525,2.240,-0.630,423,399,383,416,360,2025-06-04T19:54:58.362293
5008,-0.2996,0.8745,0.3216,0.350,0.700,-0.070,396,415,383,352,377,2025-06-04T19:54:58.362430
5009,-0.3104,0.8725,0.3211,0.490,-2.555,0.175,406,300,389,380,349,2025-06-04T19:54:58.362430
5010,-0.3070,0.8696,0.3260,0.560,-5.075,0.210,409,395,385,382,384,2025-06-04T19:54:58.362430
5011,-0.2840,0.8682,0.3304,0.665,-5.215,0.210,423,400,396,408,402,2025-06-04T19:54:58.362430
5012,-0.2801,0.8623,0.3270,1.365,-4.025,0.630,427,405,385,412,364,2025-06-04T19:54:58.465916
5013,-0.2899,0.8613,0.3343,2.030,-1.365,0.000,395,421,389,406,394,2025-06-04T19:54:58.465916
5014,-0.2972,0.8569,0.3362,2.555,0.105,-0.420,350,423,393,411,395,2025-06-04T19:54:58.465916
5015,-0.3045,0.8516,0.3284,2.905,1.225,-0.525,399,435,389,400,365,2025-06-04T19:54:58.465916
5016,-0.3123,0.8452,0.3250,3.535,1.540,-0.105,340,362,353,412,391,2025-06-04T19:54:58.465916
5017,-0.3172,0.8486,0.3328,3.920,1.365,0.210,393,419,373,419,408,2025-06-04T19:54:58.465916
5018,-0.3167,0.8442,0.3294,3.850,0.980,0.140,393,410,390,417,398,2025-06-04T19:54:58.465916
5019,-0.3089,0.8403,0.3216,3.395,-0.490,-0.245,419,401,385,404,363,2025-06-04T19:54:58.465916
5020,-0.2894,0.8413,0.3104,3.010,-2.520,-1.610,389,419,385,395,387,2025-06-04T19:54:58.465916
5021,-0.2606,0.8516,0.3148,2.275,-4.095,-4.375,338,410,379,403,406,2025-06-04T19:54:58.565749
5022,-0.2420,0.8750,0.3089,1.085,-6.020,-9.065,338,300,387,399,410,2025-06-04T19:54:58.565749
5023,-0.2152,0.9062,0.3074,-0.910,-8.715,-16.765,398,406,403,407,351,2025-06-04T19:54:58.565749
5024,-0.1718,0.9506,0.2894,-5.145,-14.035,-23.905,400,373,392,374,393,2025-06-04T19:54:58.565749
5025,-0.1049,1.0214,0.2655,-10.885,-22.610,-34.580,419,410,385,382,397,2025-06-04T19:54:58.580750
5026,-0.0366,1.1585,0.2201,-20.335,-36.085,-48.475,343,419,339,387,407,2025-06-04T19:54:58.580750
5027,0.0586,1.3659,0.1747,-32.550,-53.935,-63.875,402,415,368,399,417,2025-06-04T19:54:58.580750
5028,0.2123,1.6553,0.1337,-47.880,-70.420,-76.860,400,378,375,389,405,2025-06-04T19:54:58.580750
5029,0.3782,1.9705,0.0049,-61.600,-84.665,-84.700,416,398,373,380,402,2025-06-04T19:54:58.580750
5030,0.5451,2.3770,-0.1176,-88.165,-93.870,-85.470,405,400,389,415,351,2025-06-04T19:54:58.772517
5031,0.7984,2.8099,-0.3367,-116.305,-102.620,-74.270,404,385,368,361,383,2025-06-04T19:54:58.772517
5032,0.9096,3.1905,-0.7618,-147.420,-104.440,-59.290,425,390,344,354,399,2025-06-04T19:54:58.772517
5033,0.8516,3.4765,-1.1595,-172.095,-95.690,-46.340,391,398,375,379,411,2025-06-04T19:54:58.772517
5034,0.7408,3.5634,-1.4416,-189.595,-91.490,-45.010,406,413,380,386,370,2025-06-04T19:54:58.772517
5035,0.4670,3.5248,-1.6109,-215.915,-83.860,-20.405,405,407,371,400,392,2025-06-04T19:54:58.772517
5036,0.0551,3.3355,-1.6206,-243.775,-106.085,-19.880,347,418,383,415,398,2025-06-04T19:54:58.772517
5037,-0.3045,2.8582,-1.5850,-287.700,-148.085,-39.620,335,412,352,410,396,2025-06-04T19:54:58.772517
5038,-0.4080,2.1438,-1.5138,-344.785,-189.560,-76.965,400,392,360,419,415,2025-06-04T19:54:58.772517
5039,-0.1747,1.2488,-1.4411,-396.900,-227.605,-119.105,388,358,363,403,354,2025-06-04T19:54:58.773100
5040,-0.0107,0.3572,-1.2366,-450.030,-237.790,-184.975,418,422,345,384,299,2025-06-04T19:54:58.773100
5041,0.1176,-0.8028,-0.4880,-493.745,-238.175,-252.910,342,398,369,404,324,2025-06-04T19:54:58.773100
5042,-0.4143,-2.6308,0.2357,-630.665,-241.570,-323.540,398,398,345,406,378,2025-06-04T19:54:58.773100
5043,-0.7193,-6.3606,0.9892,-610.925,-254.835,-381.010,408,443,384,389,412,2025-06-04T19:54:58.773100
5044,-1.3444,-8.3453,1.0233,-382.585,-362.005,-376.880,385,407,373,337,384,2025-06-04T19:54:58.773100
5045,-0.2289,-7.0838,0.6486,-314.790,-352.065,-242.095,406,392,403,408,421,2025-06-04T19:54:58.773100
5046,2.8572,-5.7320,0.4992,17.780,-264.285,-0.560,391,392,394,429,431,2025-06-04T19:54:58.878404
5047,2.8938,-4.4179,0.9955,118.475,104.615,176.645,421,392,352,362,403,2025-06-04T19:54:58.879398
5048,1.3415,-3.3848,1.1692,236.355,273.770,211.995,412,437,390,432,426,2025-06-04T19:54:58.879398
5049,-0.3528,-2.5532,1.4469,342.160,294.070,207.165,417,397,373,397,409,2025-06-04T19:54:58.879398
5050,-0.7803,-2.2560,1.3054,312.340,164.535,208.320,412,440,376,422,401,2025-06-04T19:54:58.879398
5051,-0.7286,-1.6358,1.3225,318.185,11.025,189.420,341,412,391,402,416,2025-06-04T19:54:58.879398
5052,0.0381,-1.2215,1.1346,294.210,-9.485,169.120,408,371,381,409,393,2025-06-04T19:54:58.879398
5053,0.5456,-0.3836,1.0219,253.610,32.410,145.530,388,397,394,439,403,2025-06-04T19:54:58.879398
5054,0.6481,0.2542,0.8994,276.290,125.300,139.895,384,423,398,409,352,2025-06-04T19:54:58.879398
5055,0.2508,0.6056,0.6930,256.655,178.885,124.530,418,355,385,421,396,2025-06-04T19:54:58.935977
5056,-0.0644,0.6910,0.4577,236.355,186.760,109.725,390,395,377,409,405,2025-06-04T19:54:58.935977
5057,-0.2567,0.8438,0.2713,237.090,157.535,94.290,412,424,347,401,346,2025-06-04T19:54:58.935977
5058,-0.4626,0.9731,0.2294,225.435,127.995,79.380,423,430,360,404,341,2025-06-04T19:54:58.935977
5059,-0.5524,1.1819,0.1318,213.010,84.490,58.345,406,436,332,405,371,2025-06-04T19:54:58.935977
5060,-0.3689,1.3366,0.0142,211.330,53.515,44.030,341,399,357,407,390,2025-06-04T19:54:59.064435
5061,-0.1552,1.4435,-0.0586,199.290,31.955,36.820,409,399,372,418,368,2025-06-04T19:54:59.064435
5062,-0.0254,1.4518,-0.1015,182.630,20.510,29.785,418,426,367,351,392,2025-06-04T19:54:59.064435
5063,0.0312,1.4323,-0.1078,170.625,21.595,24.325,393,433,358,398,390,2025-06-04T19:54:59.065005
5064,0.1152,1.4225,-0.1035,153.895,27.300,22.925,399,421,369,347,394,2025-06-04T19:54:59.065037
5065,0.0825,1.4186,-0.0351,133.945,36.890,20.090,303,413,362,404,353,2025-06-04T19:54:59.065037
5066,0.1405,1.3952,-0.0254,118.265,43.820,19.530,391,395,377,387,373,2025-06-04T19:54:59.065037
5067,0.0551,1.3391,0.0078,103.915,45.920,18.760,396,375,337,406,399,2025-06-04T19:54:59.065037
5068,-0.0405,1.2873,0.0498,98.315,36.540,17.780,421,407,324,360,360,2025-06-04T19:54:59.065037
5069,-0.0703,1.2376,0.0859,92.435,19.880,16.275,387,412,356,394,385,2025-06-04T19:54:59.065037
5070,0.0029,1.2000,0.0961,87.640,3.815,16.345,395,344,343,380,389,2025-06-04T19:54:59.180911
5071,0.0459,1.1824,0.1401,80.080,-2.240,14.140,404,410,369,400,391,2025-06-04T19:54:59.180911
5072,0.0893,1.1893,0.1503,73.850,0.910,12.600,424,410,351,392,405,2025-06-04T19:54:59.180911
5073,0.0625,1.1517,0.1728,66.465,11.340,7.245,414,421,328,359,394,2025-06-04T19:54:59.180911
5074,0.1005,1.1292,0.1913,59.430,20.895,4.690,376,346,367,391,398,2025-06-04T19:54:59.180911
5075,0.0771,1.0902,0.2128,51.625,29.190,3.605,422,415,383,401,385,2025-06-04T19:54:59.180911
5076,-0.0034,1.0673,0.2338,47.425,33.740,2.590,402,350,379,415,398,2025-06-04T19:54:59.180911
5077,-0.0493,1.0585,0.2708,43.435,34.335,1.085,401,380,377,353,400,2025-06-04T19:54:59.180911
5078,-0.0537,1.0414,0.2889,38.325,31.010,1.995,424,367,363,378,409,2025-06-04T19:54:59.180911
5079,-0.0742,1.0350,0.3060,32.410,25.620,2.905,415,390,346,391,404,2025-06-04T19:54:59.180911
5080,-0.0981,1.0092,0.3026,27.650,19.880,3.360,421,421,354,404,356,2025-06-04T19:54:59.234466
5081,-0.1113,1.0097,0.3172,25.305,14.910,2.170,432,352,340,369,331,2025-06-04T19:54:59.234466
5082,-0.0415,1.0028,0.3099,24.185,13.440,2.415,421,376,325,379,325,2025-06-04T19:54:59.234466
5083,-0.0288,1.0072,0.3138,21.805,14.910,3.605,424,421,363,392,375,2025-06-04T19:54:59.234466
5084,-0.0210,0.9984,0.3089,19.425,17.745,5.390,411,420,338,393,384,2025-06-04T19:54:59.234466
5085,-0.0659,1.0019,0.2860,16.520,17.745,8.295,348,414,362,405,385,2025-06-04T19:54:59.385859
5086,-0.1196,0.9897,0.2904,15.015,14.735,8.015,324,370,367,411,397,2025-06-04T19:54:59.385859
5087,-0.0878,1.0009,0.2762,13.860,10.710,9.310,370,411,378,358,400,2025-06-04T19:54:59.385859
5088,-0.0776,0.9999,0.2738,12.565,10.115,9.660,409,400,388,298,404,2025-06-04T19:54:59.385859
5089,-0.0673,0.9902,0.2513,11.200,12.845,9.660,384,419,369,313,404,2025-06-04T19:54:59.385859
5090,-0.1274,0.9809,0.2430,9.520,15.155,7.595,425,401,385,378,415,2025-06-04T19:54:59.385859
5091,-0.1357,0.9667,0.2396,9.310,13.475,6.650,404,372,391,392,412,2025-06-04T19:54:59.385859
5092,-0.1288,0.9477,0.2216,8.680,10.395,7.350,410,420,381,383,410,2025-06-04T19:54:59.385859
5093,-0.1415,0.9545,0.2235,7.525,9.520,7.385,418,349,391,402,418,2025-06-04T19:54:59.385859
5094,-0.1484,0.9379,0.2123,6.195,9.485,7.770,402,405,386,392,369,2025-06-04T19:54:59.385859
5095,-0.1820,0.9350,0.2040,5.285,6.230,8.190,415,396,345,391,389,2025-06-04T19:54:59.385859
5096,-0.1952,0.9540,0.2499,4.270,4.935,6.440,418,421,363,404,412,2025-06-04T19:54:59.386855
5097,-0.1132,0.9453,0.2333,2.590,8.400,6.405,389,424,375,417,409,2025-06-04T19:54:59.434128
5098,-0.1122,0.9335,0.2250,0.840,14.315,7.105,339,419,365,413,396,2025-06-04T19:54:59.434367
5099,-0.1532,0.9243,0.2367,0.140,19.425,5.950,397,419,380,372,392,2025-06-04T19:54:59.434367
5100,-0.1820,0.9296,0.2474,0.175,21.000,4.445,341,397,373,406,374,2025-06-04T19:54:59.434367
5101,-0.1976,0.9165,0.2372,1.015,20.720,3.850,403,407,378,417,383,2025-06-04T19:54:59.483443
5102,-0.2074,0.9106,0.2347,0.455,19.635,4.165,338,378,390,426,389,2025-06-04T19:55:00.045897
5103,-0.2425,0.9140,0.2411,0.560,17.780,4.480,323,387,389,410,346,2025-06-04T19:55:00.045897
5104,-0.2557,0.9052,0.2455,0.665,15.015,3.990,370,415,387,343,328,2025-06-04T19:55:00.045897
5105,-0.2430,0.9082,0.2596,0.350,13.755,3.885,369,348,393,390,379,2025-06-04T19:55:00.046894
5106,-0.2289,0.9062,0.2645,0.035,14.525,3.885,398,386,393,383,395,2025-06-04T19:55:00.046894
5107,-0.2357,0.8960,0.2601,0.000,15.225,3.885,411,339,388,401,407,2025-06-04T19:55:00.046894
5108,-0.2489,0.8935,0.2669,0.840,15.855,3.290,388,411,383,397,393,2025-06-04T19:55:00.046894
5109,-0.2460,0.8965,0.2747,1.435,18.060,2.065,416,384,380,401,400,2025-06-04T19:55:00.046894
5110,-0.2440,0.8940,0.2733,1.155,21.385,1.050,421,415,378,412,407,2025-06-04T19:55:00.046894
5111,-0.2777,0.8940,0.2743,1.330,21.630,0.735,401,413,387,354,400,2025-06-04T19:55:00.046894
5112,-0.2879,0.8950,0.2796,1.505,19.180,0.385,413,404,383,374,363,2025-06-04T19:55:00.046894
5113,-0.3074,0.8960,0.2865,1.435,14.140,0.140,424,375,384,403,337,2025-06-04T19:55:00.046894
5114,-0.3323,0.9008,0.2913,0.840,8.190,-0.525,393,384,376,406,378,2025-06-04T19:55:00.047894
5115,-0.3016,0.8896,0.2987,0.630,3.465,-0.945,350,339,377,415,398,2025-06-04T19:55:00.047894
5116,-0.2908,0.9077,0.3118,-0.630,1.890,-0.595,412,337,351,398,409,2025-06-04T19:55:00.047894
5117,-0.2967,0.8989,0.2962,-0.490,0.595,-0.910,414,379,368,406,395,2025-06-04T19:55:00.047894
5118,-0.2865,0.9013,0.3099,-0.910,1.435,-1.890,342,366,337,399,344,2025-06-04T19:55:00.048891
5119,-0.2845,0.9038,0.3128,-1.610,3.010,-2.450,368,400,356,387,389,2025-06-04T19:55:00.048891
5120,-0.2972,0.8896,0.3109,-1.820,4.375,-2.870,406,412,378,415,380,2025-06-04T19:55:00.048891
5121,-0.3070,0.8965,0.3157,-2.310,4.445,-2.975,386,414,387,391,407,2025-06-04T19:55:00.048891
5122,-0.3226,0.8906,0.3113,-2.310,1.225,-2.450,393,421,386,377,391,2025-06-04T19:55:00.048891
5123,-0.3392,0.8930,0.3148,-1.890,-2.765,-2.415,412,415,370,416,416,2025-06-04T19:55:00.048891
5124,-0.3338,0.8911,0.3152,-1.610,-8.225,-2.485,413,390,333,391,386,2025-06-04T19:55:00.048891
5125,-0.3074,0.8921,0.3172,-1.925,-10.535,-2.695,399,390,354,408,351,2025-06-04T19:55:00.048891
5126,-0.2533,0.9023,0.3128,-1.925,-7.980,-2.660,407,387,375,413,331,2025-06-04T19:55:00.048891
5127,-0.2611,0.8916,0.3113,-2.555,-4.480,-3.150,393,422,374,403,376,2025-06-04T19:55:00.048891
5128,-0.2450,0.8877,0.3016,-2.275,-2.450,-2.590,421,416,377,407,343,2025-06-04T19:55:00.049886
5129,-0.2782,0.8960,0.3104,-2.590,-2.310,-2.135,417,403,373,402,392,2025-06-04T19:55:00.049886
5130,-0.2943,0.8960,0.3016,-2.205,-3.570,-2.450,424,364,378,408,345,2025-06-04T19:55:00.049886
5131,-0.2743,0.8916,0.2928,-2.310,-4.340,-2.380,433,381,375,387,377,2025-06-04T19:55:00.049886
5132,-0.2713,0.8979,0.2904,-2.030,-5.005,-1.680,428,404,336,347,333,2025-06-04T19:55:00.049886
5133,-0.2860,0.8945,0.2879,-1.890,-5.845,-1.750,424,360,359,399,362,2025-06-04T19:55:00.049886
5134,-0.2894,0.8965,0.2889,-1.540,-8.890,-1.785,423,327,370,399,374,2025-06-04T19:55:00.049886
5135,-0.2884,0.9028,0.3016,-1.820,-12.215,-2.380,414,291,365,389,385,2025-06-04T19:55:00.049886
5136,-0.2625,0.8974,0.2948,-1.610,-14.455,-2.380,419,379,385,410,399,2025-06-04T19:55:00.049886
5137,-0.2420,0.8945,0.2889,-1.225,-14.035,-1.680,396,405,379,398,396,2025-06-04T19:55:00.049886
5138,-0.2377,0.8945,0.2972,-0.875,-11.620,-1.995,421,411,386,352,397,2025-06-04T19:55:00.049886
5139,-0.2352,0.8872,0.2884,-0.385,-8.750,-1.960,415,393,384,335,405,2025-06-04T19:55:00.050883
5140,-0.2479,0.8886,0.2962,0.315,-6.860,-2.310,392,415,377,383,389,2025-06-04T19:55:00.050883
5141,-0.2591,0.8896,0.2904,0.910,-6.615,-2.135,400,426,378,419,403,2025-06-04T19:55:00.050883
5142,-0.2596,0.8823,0.2860,1.750,-8.260,-2.065,396,388,385,406,408,2025-06-04T19:55:00.050883
5143,-0.2684,0.8960,0.2928,2.275,-8.960,-2.380,414,400,390,424,414,2025-06-04T19:55:00.050883
5144,-0.2596,0.8965,0.2908,2.415,-9.940,-2.870,403,418,316,415,400,2025-06-04T19:55:00.050883
5145,-0.2464,0.8896,0.2752,2.170,-11.095,-2.695,300,344,355,396,399,2025-06-04T19:55:00.050883
5146,-0.2386,0.8955,0.2796,1.715,-11.515,-2.835,369,327,371,398,354,2025-06-04T19:55:00.050883
5147,-0.2328,0.8965,0.2699,1.190,-11.305,-3.325,395,400,350,394,338,2025-06-04T19:55:00.191594
5148,-0.2225,0.8779,0.2655,0.980,-11.305,-3.780,421,407,356,414,330,2025-06-04T19:55:00.191594
5149,-0.1991,0.8960,0.2777,1.190,-8.680,-3.115,404,401,365,399,363,2025-06-04T19:55:00.191594
5150,-0.2259,0.8940,0.2772,1.155,-4.025,-3.675,397,419,365,386,383,2025-06-04T19:55:00.191594
5151,-0.2264,0.8979,0.2801,0.630,0.035,-4.095,417,426,367,406,369,2025-06-04T19:55:00.191594
5152,-0.2577,0.8994,0.2889,0.420,1.120,-4.060,422,416,377,395,396,2025-06-04T19:55:00.191594
5153,-0.2782,0.8930,0.2811,0.490,-0.805,-3.535,308,403,379,389,346,2025-06-04T19:55:00.191594
5154,-0.2894,0.8843,0.2762,0.840,-5.250,-2.835,376,419,370,356,387,2025-06-04T19:55:00.191594
5155,-0.2830,0.8945,0.2938,1.365,-9.730,-1.820,423,413,380,362,385,2025-06-04T19:55:00.192590
5156,-0.2674,0.8965,0.2923,1.120,-11.795,-1.960,408,381,372,380,400,2025-06-04T19:55:00.192590
5157,-0.2508,0.8930,0.2845,1.190,-11.480,-2.205,421,397,375,401,407,2025-06-04T19:55:00.192590
5158,-0.2333,0.8896,0.2830,1.085,-9.660,-2.415,417,423,375,387,411,2025-06-04T19:55:00.192590
5159,-0.2279,0.8940,0.2874,1.295,-6.265,-2.625,415,415,381,400,366,2025-06-04T19:55:00.192590
5160,-0.2367,0.8921,0.2845,1.155,-2.835,-3.220,401,410,376,396,384,2025-06-04T19:55:00.192590
5161,-0.2542,0.8901,0.2826,1.295,-1.540,-3.465,412,404,382,403,383,2025-06-04T19:55:00.192590
5162,-0.2821,0.8989,0.2972,1.470,-1.925,-4.060,397,427,389,387,395,2025-06-04T19:55:00.192590
5163,-0.3021,0.9018,0.2991,1.260,-3.570,-4.620,412,309,384,397,394,2025-06-04T19:55:00.192590
5164,-0.3045,0.8994,0.2987,1.155,-6.125,-4.690,391,406,380,391,345,2025-06-04T19:55:00.247314
5165,-0.2957,0.8935,0.3016,0.910,-7.735,-4.200,395,408,384,412,386,2025-06-04T19:55:00.247314
5166,-0.2957,0.8955,0.3050,0.770,-7.770,-3.920,422,417,370,408,389,2025-06-04T19:55:00.247314
5167,-0.2938,0.8960,0.3016,0.770,-7.385,-3.255,406,358,374,413,404,2025-06-04T19:55:00.247314
5168,-0.2889,0.8979,0.3055,0.910,-6.930,-2.625,430,409,381,410,358,2025-06-04T19:55:00.247721
5169,-0.2967,0.8945,0.3045,0.595,-6.895,-2.135,422,424,308,388,336,2025-06-04T19:55:00.401487
5170,-0.2884,0.8945,0.2977,0.630,-7.840,-1.680,423,424,345,396,364,2025-06-04T19:55:00.401487
5171,-0.2830,0.8935,0.2943,0.630,-8.715,-1.540,437,415,366,369,385,2025-06-04T19:55:00.401487
5172,-0.2718,0.8994,0.2865,0.735,-9.100,-1.750,403,338,338,402,360,2025-06-04T19:55:00.401487
5173,-0.2777,0.8969,0.2908,0.735,-9.065,-2.380,402,407,367,388,346,2025-06-04T19:55:00.401487
5174,-0.2728,0.9077,0.2972,0.630,-9.205,-2.765,402,409,378,353,381,2025-06-04T19:55:00.401487
5175,-0.2704,0.9067,0.2928,0.175,-9.450,-2.975,396,406,352,348,404,2025-06-04T19:55:00.401487
5176,-0.2621,0.9048,0.2899,-0.105,-9.555,-2.800,420,418,363,387,395,2025-06-04T19:55:00.401487
5177,-0.2679,0.9028,0.2855,-0.315,-9.205,-2.240,390,410,384,347,385,2025-06-04T19:55:00.401487
5178,-0.2684,0.9033,0.2928,-0.070,-9.345,-2.030,408,426,348,356,413,2025-06-04T19:55:00.401487
5179,-0.2689,0.9013,0.2948,-0.385,-9.415,-2.030,421,423,356,355,395,2025-06-04T19:55:00.401487
5180,-0.2616,0.8979,0.2865,-0.490,-9.590,-1.820,429,422,379,395,393,2025-06-04T19:55:00.401487
5181,-0.2645,0.8935,0.2830,-0.665,-9.240,-1.715,398,428,356,363,408,2025-06-04T19:55:00.401487
5182,-0.2650,0.8945,0.2840,-0.595,-8.960,-2.065,411,420,359,396,400,2025-06-04T19:55:00.609389
5183,-0.2630,0.8911,0.2826,-0.560,-8.785,-2.520,373,421,365,393,405,2025-06-04T19:55:00.609389
5184,-0.2635,0.8872,0.2816,-0.525,-8.785,-2.345,402,369,362,356,414,2025-06-04T19:55:00.609389
5185,-0.2723,0.8838,0.2821,-0.595,-8.085,-2.695,422,345,362,400,424,2025-06-04T19:55:00.609389
5186,-0.2669,0.8886,0.2830,-0.315,-7.000,-2.940,419,384,376,359,415,2025-06-04T19:55:00.609389
5187,-0.2752,0.8847,0.2821,-0.455,-5.530,-3.010,400,419,383,394,361,2025-06-04T19:55:00.609389
5188,-0.2743,0.8882,0.2826,-0.455,-4.270,-2.765,424,409,395,403,371,2025-06-04T19:55:00.609389
5189,-0.2796,0.8872,0.2826,-0.735,-3.500,-2.205,423,397,390,408,376,2025-06-04T19:55:00.609389
5190,-0.2938,0.8886,0.2835,-0.770,-4.165,-1.505,367,383,374,400,392,2025-06-04T19:55:00.609389
5191,-0.3045,0.8886,0.2899,-0.700,-4.865,-1.120,402,425,386,413,407,2025-06-04T19:55:00.609979
5192,-0.2972,0.8901,0.2972,-0.595,-5.460,-0.210,423,425,386,356,403,2025-06-04T19:55:00.609979
5193,-0.3055,0.8857,0.3006,-0.805,-5.670,0.280,425,416,385,385,405,2025-06-04T19:55:00.609979
5194,-0.2879,0.8901,0.2996,-0.910,-5.635,0.630,393,419,390,383,407,2025-06-04T19:55:00.609979
5195,-0.2821,0.8847,0.2996,-0.735,-4.900,1.050,415,414,395,407,410,2025-06-04T19:55:00.609979
5196,-0.2767,0.8877,0.3001,-0.490,-3.850,1.085,398,409,389,400,374,2025-06-04T19:55:00.609979
5197,-0.2733,0.8891,0.3016,-0.350,-3.150,1.645,395,416,342,413,407,2025-06-04T19:55:00.609979
5198,-0.2840,0.8901,0.3040,-0.140,-3.255,1.680,404,397,368,408,355,2025-06-04T19:55:00.954877
5199,-0.2845,0.8891,0.3040,0.070,-4.585,1.645,399,397,371,383,329,2025-06-04T19:55:00.954877
5200,-0.2757,0.8843,0.3030,0.420,-5.915,1.855,420,405,380,391,378,2025-06-04T19:55:00.955866
5201,-0.2757,0.8877,0.3070,0.840,-6.125,1.470,355,417,383,395,405,2025-06-04T19:55:00.955866
5202,-0.2679,0.8838,0.3016,1.225,-6.160,1.225,414,431,370,413,409,2025-06-04T19:55:00.955866
5203,-0.2791,0.8779,0.2928,1.295,-5.565,0.630,409,417,367,409,402,2025-06-04T19:55:00.955866
5204,-0.2679,0.8833,0.2889,1.400,-4.655,0.035,359,304,377,411,394,2025-06-04T19:55:00.955866
5205,-0.2772,0.8760,0.2923,1.190,-3.360,-0.455,408,359,382,425,402,2025-06-04T19:55:00.955866
5206,-0.2835,0.8740,0.2904,1.295,-2.975,-0.980,426,410,346,419,389,2025-06-04T19:55:00.955866
5207,-0.2869,0.8691,0.2772,1.050,-3.815,-1.365,416,301,326,373,388,2025-06-04T19:55:00.955866
5208,-0.2894,0.8682,0.2806,0.525,-5.705,-1.715,396,404,364,401,402,2025-06-04T19:55:00.955866
5209,-0.2928,0.8725,0.2913,-0.910,-7.140,-2.520,404,352,348,409,385,2025-06-04T19:55:00.955866
5210,-0.2694,0.8691,0.2879,-1.785,-8.470,-3.290,395,396,344,409,393,2025-06-04T19:55:00.955866
5211,-0.2674,0.8594,0.2908,-3.115,-8.855,-4.410,395,425,369,392,407,2025-06-04T19:55:00.955866
5212,-0.2586,0.8594,0.2972,-4.060,-10.150,-5.950,418,421,380,419,400,2025-06-04T19:55:00.955866
5213,-0.2484,0.8594,0.2987,-4.795,-12.075,-8.855,404,386,378,363,390,2025-06-04T19:55:00.955866
5214,-0.2284,0.8721,0.3113,-5.145,-15.470,-12.915,409,397,379,333,400,2025-06-04T19:55:00.955866
5215,-0.2059,0.8877,0.3016,-5.390,-19.285,-19.215,419,412,384,374,406,2025-06-04T19:55:00.955866
5216,-0.1674,0.9414,0.3074,-5.740,-23.695,-27.965,432,429,380,394,353,2025-06-04T19:55:01.044285
5217,-0.0913,1.0224,0.3113,-8.715,-23.100,-39.200,405,418,375,400,384,2025-06-04T19:55:01.044285
5218,-0.0356,1.0965,0.3504,-16.310,-15.575,-51.135,394,421,385,416,401,2025-06-04T19:55:01.044285
5219,0.0249,1.0658,0.3460,-28.455,-7.140,-56.350,395,429,387,407,387,2025-06-04T19:55:01.044285
5220,-0.0395,1.1751,0.4465,-46.515,1.435,-58.730,419,344,352,418,389,2025-06-04T19:55:01.044285
5221,-0.1318,1.2385,0.4743,-61.775,3.010,-62.510,388,414,368,382,403,2025-06-04T19:55:01.044285
5222,-0.1918,1.3522,0.5583,-80.500,-6.755,-60.935,408,358,336,406,351,2025-06-04T19:55:01.044285
5223,-0.2513,1.4972,0.6759,-104.440,-31.185,-50.295,413,393,352,397,377,2025-06-04T19:55:01.044863
5224,-0.2484,1.7470,0.7730,-127.785,-45.780,-33.040,416,338,364,399,384,2025-06-04T19:55:01.044863
5225,-0.2586,2.0613,0.8198,-158.690,-65.555,-18.095,379,385,364,372,364,2025-06-04T19:55:01.044863
5226,-0.2201,2.3546,0.7940,-181.720,-79.275,2.870,344,376,381,387,385,2025-06-04T19:55:01.044863
5227,-0.0205,2.7972,0.6764,-206.990,-78.085,30.975,373,388,374,368,343,2025-06-04T19:55:01.044863
5228,0.1440,3.2310,0.3113,-218.085,-53.935,62.790,380,418,357,398,379,2025-06-04T19:55:01.044863
5229,0.2020,3.4297,-0.2396,-227.990,-6.580,93.065,334,347,372,414,343,2025-06-04T19:55:01.044863
5230,0.2508,3.4999,-0.8233,-218.225,43.260,131.985,366,413,339,396,341,2025-06-04T19:55:01.044863
5231,0.2240,3.5297,-1.4962,-216.475,89.845,181.965,374,402,358,410,384,2025-06-04T19:55:01.044863
5232,-0.1357,3.3252,-2.3370,-217.175,113.855,239.715,397,429,371,397,392,2025-06-04T19:55:01.044863
5233,-0.7130,3.0881,-2.8836,-202.440,85.085,292.810,389,429,373,394,404,2025-06-04T19:55:01.044863
5234,-1.1058,2.8148,-2.8885,-210.665,54.495,322.770,407,397,384,393,388,2025-06-04T19:55:01.044863
5235,-1.2166,2.4205,-2.8924,-236.285,55.825,330.470,421,429,371,389,383,2025-06-04T19:55:01.044863
5236,-1.3025,1.9666,-2.7655,-278.460,103.355,313.705,406,366,382,405,402,2025-06-04T19:55:01.299950
5237,-1.7060,1.3864,-2.6513,-318.080,164.745,280.805,399,406,394,422,390,2025-06-04T19:55:01.299950
5238,-2.7552,0.5461,-2.1272,-335.335,183.190,245.525,421,434,365,418,355,2025-06-04T19:55:01.299950
5239,-3.7698,-0.6163,-1.3840,-356.965,150.850,199.255,418,430,376,349,382,2025-06-04T19:55:01.299950
5240,-4.3574,-2.2638,-0.7237,-377.790,62.615,167.615,399,428,343,404,393,2025-06-04T19:55:01.299950
5241,-4.3671,-3.0061,-0.0927,-469.175,-34.755,163.100,409,422,365,349,391,2025-06-04T19:55:01.299950
5242,-3.7449,-4.0943,0.5324,-436.240,22.085,197.155,432,394,396,385,402,2025-06-04T19:55:01.299950
5243,-2.6903,-4.3290,0.7315,6.055,-274.365,132.160,437,417,397,421,415,2025-06-04T19:55:01.299950
5244,-0.9209,-4.1119,1.4650,-219.520,-55.545,169.645,409,422,352,351,397,2025-06-04T19:55:01.299950
5245,-0.3089,-4.1514,1.8754,-109.130,-5.565,154.980,418,413,377,394,427,2025-06-04T19:55:01.299950
5246,-0.1020,-3.9386,2.2433,-36.680,15.190,122.675,385,401,368,346,422,2025-06-04T19:55:01.299950
5247,0.0844,-3.6107,2.4673,-3.395,74.235,87.955,435,420,352,347,395,2025-06-04T19:55:01.299950
5248,0.2723,-3.2271,2.5659,76.510,54.250,54.705,436,366,388,388,429,2025-06-04T19:55:01.299950
5249,0.3436,-2.6557,2.5942,105.560,36.855,10.500,416,375,375,377,413,2025-06-04T19:55:01.299950
5250,0.1508,-2.1789,2.5532,132.090,3.990,-42.980,437,428,358,427,406,2025-06-04T19:55:01.299950
5251,0.0966,-1.7866,2.2707,167.125,-34.405,-89.915,367,421,365,415,422,2025-06-04T19:55:01.456897
5252,-0.0815,-1.3196,2.1208,176.680,-55.930,-134.435,402,392,339,390,397,2025-06-04T19:55:01.942979
5253,-0.2094,-0.9536,1.8398,200.655,-62.160,-173.845,348,413,367,407,429,2025-06-04T19:55:01.942979
5254,-0.3909,-0.5876,1.5211,216.160,-54.635,-201.425,400,410,383,381,404,2025-06-04T19:55:01.942979
5255,-0.6744,-0.3187,1.1336,222.635,-46.725,-213.675,361,418,390,417,420,2025-06-04T19:55:01.942979
5256,-1.0551,-0.0683,0.8652,223.055,-49.000,-221.025,374,379,378,412,403,2025-06-04T19:55:01.942979
5257,-1.3957,0.2616,0.5309,216.545,-71.400,-217.735,407,424,405,383,398,2025-06-04T19:55:01.942979
5258,-1.6368,0.5617,0.3450,207.900,-109.445,-205.065,435,359,400,412,415,2025-06-04T19:55:01.942979
5259,-1.7856,0.7832,0.2020,200.200,-153.650,-198.520,388,343,390,366,388,2025-06-04T19:55:01.942979
5260,-1.5621,1.1356,0.1776,188.090,-171.465,-173.880,425,388,400,341,392,2025-06-04T19:55:01.942979
5261,-1.1658,1.1600,-0.1005,164.535,-175.490,-150.710,393,390,399,393,396,2025-06-04T19:55:01.942979
5262,-0.9492,1.0902,-0.1630,158.585,-161.245,-133.315,370,428,392,403,394,2025-06-04T19:55:01.942979
5263,-0.7281,1.1136,-0.1757,131.145,-126.840,-118.790,415,423,383,395,391,2025-06-04T19:55:01.942979
5264,-0.5749,1.0731,-0.2284,133.385,-96.110,-104.230,408,435,368,406,308,2025-06-04T19:55:01.942979
5265,-0.5602,1.0087,-0.2503,130.585,-78.155,-89.565,425,349,379,402,335,2025-06-04T19:55:01.942979
5266,-0.5226,1.0350,-0.2137,132.090,-73.500,-78.225,407,410,381,407,386,2025-06-04T19:55:01.942979
5267,-0.4992,1.0350,-0.1615,126.280,-76.335,-70.735,403,404,370,400,387,2025-06-04T19:55:01.942979
5268,-0.2904,1.0643,-0.1303,129.500,-80.675,-63.210,399,409,382,414,413,2025-06-04T19:55:01.944018
5269,-0.1347,1.0590,-0.1225,136.850,-75.845,-58.135,391,416,385,402,422,2025-06-04T19:55:01.944018
5270,-0.0483,1.0121,-0.1327,141.190,-63.175,-54.355,408,361,389,392,368,2025-06-04T19:55:01.944018
5271,0.0015,0.9848,-0.1147,150.885,-53.375,-50.015,388,406,352,360,299,2025-06-04T19:55:01.944018
5272,0.0522,1.0028,-0.0825,154.630,-40.600,-46.480,388,423,355,391,361,2025-06-04T19:55:01.944018
5273,0.0737,0.9980,-0.0537,155.225,-31.850,-42.070,421,433,335,396,382,2025-06-04T19:55:01.944018
5274,0.0908,1.0175,-0.0527,155.295,-29.260,-37.940,430,418,322,410,379,2025-06-04T19:55:01.944018
5275,0.0961,1.1034,-0.0044,150.255,-26.460,-36.085,433,426,360,371,402,2025-06-04T19:55:01.944018
5276,0.1059,1.1541,0.0395,142.905,-24.920,-35.910,405,425,364,397,350,2025-06-04T19:55:01.944018
5277,0.2015,1.2268,0.0508,137.445,-24.955,-33.600,419,342,380,349,375,2025-06-04T19:55:01.944018
5278,0.1825,1.2717,0.0395,128.415,-26.250,-31.010,405,381,386,380,398,2025-06-04T19:55:01.944018
5279,0.2211,1.2805,0.0220,123.515,-34.055,-28.000,415,409,393,388,352,2025-06-04T19:55:01.944018
5280,0.2089,1.3327,0.0483,111.580,-38.430,-27.755,400,376,392,370,348,2025-06-04T19:55:01.944018
5281,0.2606,1.3483,0.0834,99.435,-40.600,-29.085,395,418,397,382,377,2025-06-04T19:55:01.944018
5282,0.3026,1.3322,0.0839,84.630,-38.465,-29.505,388,411,385,382,405,2025-06-04T19:55:01.944018
5283,0.2869,1.3288,0.1244,71.890,-32.130,-31.185,413,404,392,346,389,2025-06-04T19:55:01.944018
5284,0.2977,1.3132,0.1527,60.480,-22.610,-32.445,391,398,400,354,351,2025-06-04T19:55:01.944018
5285,0.2342,1.2771,0.1864,50.225,-12.880,-34.020,405,411,392,342,391,2025-06-04T19:55:01.944018
5286,0.1571,1.2395,0.2245,43.925,-5.530,-35.035,392,387,381,393,389,2025-06-04T19:55:01.944018
5287,0.0708,1.2078,0.2542,36.435,-2.590,-34.440,394,372,390,405,397,2025-06-04T19:55:01.944018
5288,-0.0029,1.1673,0.2728,29.645,-3.290,-32.900,416,411,381,394,402,2025-06-04T19:55:01.944018
5289,-0.0673,1.1341,0.2796,23.730,-6.440,-30.730,422,354,377,396,397,2025-06-04T19:55:01.944018
5290,-0.1166,1.1092,0.2850,18.725,-9.590,-27.055,422,392,356,409,389,2025-06-04T19:55:01.944018
5291,-0.1703,1.1014,0.3030,14.945,-12.390,-23.625,393,392,380,373,384,2025-06-04T19:55:01.944018
5292,-0.1615,1.0809,0.3065,12.530,-12.880,-19.845,427,423,379,394,399,2025-06-04T19:55:01.944018
5293,-0.1615,1.0673,0.3133,8.610,-10.675,-15.575,409,422,395,408,356,2025-06-04T19:55:01.944018
5294,-0.1401,1.0438,0.2821,7.070,-8.015,-11.095,415,405,390,398,372,2025-06-04T19:55:01.944018
5295,-0.1420,1.0375,0.2796,5.460,-2.835,-7.805,424,379,394,411,392,2025-06-04T19:55:01.944018
5296,-0.1230,1.0336,0.2752,5.250,1.645,-3.290,394,372,395,410,398,2025-06-04T19:55:01.949429
5297,-0.1464,1.0282,0.2782,3.850,4.375,0.350,425,407,382,419,391,2025-06-04T19:55:01.949429
5298,-0.1688,1.0175,0.2762,2.800,3.150,3.815,397,431,392,415,391,2025-06-04T19:55:01.949429
5299,-0.1732,1.0136,0.2660,1.960,1.225,6.895,419,343,373,410,392,2025-06-04T19:55:01.949429
5300,-0.1664,0.9936,0.2479,0.770,-1.925,9.100,373,412,372,423,405,2025-06-04T19:55:01.949429
5301,-0.1542,0.9853,0.2274,0.175,-4.585,9.975,395,393,379,400,358,2025-06-04T19:55:01.949429
5302,-0.1235,0.9648,0.2152,0.035,-5.845,10.850,416,399,367,405,392,2025-06-04T19:55:01.950522
5303,-0.0878,0.9526,0.1967,0.245,-3.430,11.515,428,429,387,395,392,2025-06-04T19:55:01.950522
5304,-0.0639,0.9360,0.1752,0.350,0.840,10.780,370,399,383,389,406,2025-06-04T19:55:01.950522
5305,-0.0825,0.9238,0.1742,0.735,7.070,10.115,377,401,386,406,393,2025-06-04T19:55:01.950522
5306,-0.1025,0.9199,0.1850,1.260,10.850,8.890,389,406,315,389,348,2025-06-04T19:55:01.950522
5307,-0.1269,0.9082,0.1767,0.455,12.320,6.930,376,375,354,402,385,2025-06-04T19:55:01.950522
5308,-0.1420,0.8969,0.1801,0.525,12.425,5.075,336,394,330,410,412,2025-06-04T19:55:01.950522
5309,-0.1415,0.9101,0.1869,0.945,13.265,4.165,383,412,366,416,357,2025-06-04T19:55:01.951435
5310,-0.1630,0.8950,0.1757,0.560,13.125,2.905,421,437,372,393,374,2025-06-04T19:55:01.951653
5311,-0.1732,0.8969,0.1884,0.945,11.340,2.135,412,410,377,391,397,2025-06-04T19:55:02.014556
5312,-0.1654,0.8940,0.1942,-0.105,11.200,1.260,416,376,374,365,382,2025-06-04T19:55:02.015596
5313,-0.1791,0.9008,0.2113,-0.315,11.375,0.175,397,414,374,400,400,2025-06-04T19:55:02.015596
5314,-0.1684,0.8974,0.2259,-0.315,12.845,-0.735,374,420,386,411,392,2025-06-04T19:55:02.015596
5315,-0.1713,0.9096,0.2430,-0.210,14.035,-1.260,385,342,397,410,355,2025-06-04T19:55:02.015596
5316,-0.1893,0.9213,0.2518,-0.035,14.455,-1.995,396,413,355,402,393,2025-06-04T19:55:02.072460
5317,-0.2079,0.9111,0.2503,0.280,14.105,-2.835,407,429,378,418,398,2025-06-04T19:55:02.072460
5318,-0.2172,0.9223,0.2743,1.435,11.585,-3.255,408,404,373,408,366,2025-06-04T19:55:02.072460
5319,-0.2118,0.9321,0.2850,1.155,8.785,-3.045,399,420,387,406,395,2025-06-04T19:55:02.072460
5320,-0.2201,0.9331,0.2899,1.330,5.635,-3.290,386,407,386,413,400,2025-06-04T19:55:02.072460
5321,-0.2220,0.9423,0.2957,1.540,3.570,-3.780,408,426,390,423,407,2025-06-04T19:55:02.301334
5322,-0.2035,0.9350,0.2830,2.030,1.120,-3.395,427,402,399,404,398,2025-06-04T19:55:02.301334
5323,-0.2059,0.9394,0.2908,2.205,0.490,-2.975,418,415,379,406,399,2025-06-04T19:55:02.301334
5324,-0.1967,0.9394,0.2913,2.800,0.875,-2.660,392,409,380,361,400,2025-06-04T19:55:02.301334
5325,-0.1932,0.9438,0.2840,2.590,1.820,-2.170,397,433,370,403,413,2025-06-04T19:55:02.301334
5326,-0.1981,0.9423,0.2879,2.835,2.170,-2.170,416,401,371,401,400,2025-06-04T19:55:02.301334
5327,-0.1976,0.9477,0.2913,2.030,2.030,-1.505,427,400,377,410,361,2025-06-04T19:55:02.301334
5328,-0.2294,0.9438,0.2967,1.820,-0.490,-1.120,413,417,384,413,379,2025-06-04T19:55:02.301334
5329,-0.2342,0.9423,0.2869,0.700,-3.780,-0.980,391,416,387,413,380,2025-06-04T19:55:02.301334
5330,-0.2255,0.9360,0.2708,0.840,-6.440,-0.455,350,374,397,407,383,2025-06-04T19:55:02.302395
5331,-0.2230,0.9340,0.2704,0.280,-7.000,-0.350,396,352,385,400,404,2025-06-04T19:55:02.302395
5332,-0.2084,0.9301,0.2655,0.140,-6.965,0.105,340,381,383,385,398,2025-06-04T19:55:02.302395
5333,-0.2045,0.9238,0.2655,-0.560,-6.580,0.840,398,341,387,404,371,2025-06-04T19:55:02.302395
5334,-0.2167,0.9209,0.2718,-0.665,-6.580,0.910,385,392,348,372,397,2025-06-04T19:55:02.433557
5335,-0.1903,0.9243,0.2738,-0.560,-5.915,1.435,389,411,367,404,409,2025-06-04T19:55:02.433557
5336,-0.2059,0.9150,0.2645,-0.560,-6.090,1.610,412,404,381,408,399,2025-06-04T19:55:02.433557
5337,-0.2162,0.9174,0.2645,-0.175,-7.280,1.365,343,413,372,419,404,2025-06-04T19:55:02.433557
5338,-0.2137,0.9111,0.2601,-0.070,-9.940,1.120,371,402,384,420,398,2025-06-04T19:55:02.433557
5339,-0.2020,0.9199,0.2577,-0.455,-12.145,0.595,391,424,355,393,406,2025-06-04T19:55:02.433557
5340,-0.1845,0.9150,0.2538,-0.140,-13.230,-0.245,361,420,365,420,412,2025-06-04T19:55:02.433557
5341,-0.1654,0.9116,0.2484,-0.245,-12.320,-0.945,410,403,379,394,404,2025-06-04T19:55:02.433557
5342,-0.1576,0.9116,0.2440,0.070,-9.870,-1.785,302,402,389,385,383,2025-06-04T19:55:02.434491
5343,-0.1562,0.9160,0.2484,0.525,-6.020,-2.380,316,421,380,404,389,2025-06-04T19:55:02.434491
5344,-0.1737,0.9096,0.2513,0.735,-3.885,-2.625,381,405,379,394,402,2025-06-04T19:55:02.434491
5345,-0.1967,0.9194,0.2557,0.420,-4.690,-2.485,419,396,347,386,410,2025-06-04T19:55:02.434491
5346,-0.2128,0.9213,0.2577,-0.245,-7.105,-2.240,406,399,367,384,400,2025-06-04T19:55:02.434922
5347,-0.2128,0.9189,0.2538,-0.735,-10.850,-2.310,371,418,375,400,395,2025-06-04T19:55:02.434922
5348,-0.1962,0.9228,0.2469,-1.015,-12.950,-2.415,399,428,376,350,395,2025-06-04T19:55:02.434922
5349,-0.1796,0.9126,0.2474,-0.560,-12.600,-2.555,390,304,383,399,402,2025-06-04T19:55:02.434922
5350,-0.1703,0.9238,0.2577,-0.630,-10.290,-2.275,418,406,386,401,392,2025-06-04T19:55:02.435487
5351,-0.1684,0.9248,0.2635,-0.490,-7.490,-2.450,387,391,385,387,395,2025-06-04T19:55:02.640607
5352,-0.1737,0.9238,0.2606,-0.630,-5.670,-2.345,397,336,393,386,410,2025-06-04T19:55:02.640607
5353,-0.1845,0.9316,0.2694,-0.140,-4.480,-2.275,378,392,359,402,366,2025-06-04T19:55:02.640607
5354,-0.1898,0.9326,0.2650,-0.210,-4.655,-2.100,414,344,338,345,385,2025-06-04T19:55:02.640607
5355,-0.2157,0.9326,0.2655,0.105,-7.210,-2.415,400,393,349,396,409,2025-06-04T19:55:02.640607
5356,-0.2167,0.9404,0.2723,-0.385,-10.360,-2.590,395,409,366,400,362,2025-06-04T19:55:02.640607
5357,-0.2006,0.9394,0.2684,-0.980,-12.355,-2.905,372,373,366,349,396,2025-06-04T19:55:02.640607
5358,-0.1815,0.9335,0.2586,-1.855,-12.705,-3.150,392,423,381,385,408,2025-06-04T19:55:02.640607
5359,-0.1732,0.9321,0.2611,-1.995,-11.235,-3.290,424,427,366,344,390,2025-06-04T19:55:02.640607
5360,-0.1640,0.9287,0.2630,-2.205,-9.065,-3.395,362,421,335,390,399,2025-06-04T19:55:02.641669
5361,-0.1649,0.9301,0.2694,-2.380,-7.315,-3.115,378,437,319,391,392,2025-06-04T19:55:02.641669
5362,-0.1810,0.9326,0.2699,-2.870,-6.720,-2.485,386,403,347,407,409,2025-06-04T19:55:02.641669
5363,-0.1947,0.9306,0.2689,-2.870,-6.720,-1.960,410,406,362,368,370,2025-06-04T19:55:02.641669
5364,-0.1918,0.9321,0.2596,-3.430,-7.875,-0.980,426,424,329,395,389,2025-06-04T19:55:02.641669
5365,-0.2113,0.9248,0.2582,-3.745,-9.520,-0.105,395,420,350,406,407,2025-06-04T19:55:02.641669
5366,-0.1952,0.9243,0.2601,-3.675,-10.605,0.770,418,409,367,391,389,2025-06-04T19:55:02.641669
5367,-0.1898,0.9179,0.2552,-4.445,-10.500,1.505,397,410,371,403,406,2025-06-04T19:55:02.641669
5368,-0.1801,0.9072,0.2445,-4.025,-9.590,1.645,411,416,384,417,411,2025-06-04T19:55:02.641669
5369,-0.1640,0.9121,0.2503,-4.025,-7.385,1.960,417,424,377,416,370,2025-06-04T19:55:02.844693
5370,-0.1698,0.9023,0.2425,-3.745,-5.320,1.785,421,432,390,381,390,2025-06-04T19:55:02.844693
5371,-0.1679,0.8926,0.2391,-3.745,-3.885,1.400,399,414,397,416,396,2025-06-04T19:55:02.844693
5372,-0.1718,0.8891,0.2372,-3.850,-3.570,0.700,434,401,383,425,388,2025-06-04T19:55:02.844693
5373,-0.1649,0.8901,0.2367,-4.060,-3.675,-0.105,366,394,382,420,404,2025-06-04T19:55:02.844693
5374,-0.1606,0.8755,0.2230,-4.340,-5.460,-1.505,356,408,390,400,399,2025-06-04T19:55:02.844693
5375,-0.2196,0.8784,0.2235,-4.970,-14.245,-4.095,384,406,400,312,404,2025-06-04T19:55:02.844693
5376,-0.2616,0.8877,0.2137,-6.895,-27.335,-7.980,351,417,386,378,411,2025-06-04T19:55:02.844693
5377,-0.2674,0.9048,0.2025,-10.990,-49.350,-13.510,406,406,352,391,405,2025-06-04T19:55:02.845779
5378,-0.2352,0.9145,0.1405,-18.165,-71.785,-19.950,415,407,361,409,388,2025-06-04T19:55:02.845779
5379,-0.1254,0.9311,0.1015,-25.340,-90.055,-30.310,413,408,375,390,410,2025-06-04T19:55:02.845779
5380,0.0254,0.9975,0.1444,-35.910,-101.325,-40.110,401,422,386,375,393,2025-06-04T19:55:02.845779
5381,0.1049,1.0960,0.1752,-47.810,-111.055,-49.665,389,412,377,395,343,2025-06-04T19:55:02.845779
5382,0.2708,1.2254,0.1581,-61.915,-112.070,-60.305,415,420,375,386,384,2025-06-04T19:55:02.845779
5383,0.4690,1.4191,0.1401,-76.965,-97.685,-69.685,399,416,343,389,400,2025-06-04T19:55:02.845779
5384,0.5783,1.6002,0.1103,-88.410,-70.000,-73.815,429,409,372,393,404,2025-06-04T19:55:02.845779
5385,0.6222,1.7407,0.0483,-96.495,-43.855,-72.170,424,347,365,395,406,2025-06-04T19:55:02.845779
5386,0.5353,1.9510,-0.0249,-105.910,-34.020,-63.665,431,403,381,401,407,2025-06-04T19:55:03.073575
5387,0.4490,2.1618,-0.0922,-116.550,-43.085,-48.895,437,392,349,406,363,2025-06-04T19:55:03.073575
5388,0.4348,2.3668,-0.2196,-133.805,-54.740,-32.130,344,401,327,405,396,2025-06-04T19:55:03.073575
5389,0.4353,2.5469,-0.4124,-138.215,-61.530,-17.220,409,418,350,415,389,2025-06-04T19:55:03.073575
5390,0.3353,2.6781,-0.6071,-146.195,-62.720,-7.455,406,430,369,400,410,2025-06-04T19:55:03.073575
5391,0.2801,2.6684,-0.8120,-153.685,-69.580,5.075,417,406,374,401,388,2025-06-04T19:55:03.073575
5392,0.2440,2.6689,-0.9780,-162.365,-84.455,20.300,421,405,372,416,407,2025-06-04T19:55:03.073575
5393,-0.0127,2.6259,-1.0697,-181.335,-95.725,22.120,418,404,391,396,391,2025-06-04T19:55:03.073575
5394,-0.0971,2.5776,-1.0326,-209.055,-98.175,5.740,339,400,347,402,397,2025-06-04T19:55:03.073575
5395,-0.0332,2.3444,-1.0136,-245.210,-106.680,-13.335,384,410,375,404,407,2025-06-04T19:55:03.073575
5396,-0.2455,1.7505,-1.0414,-281.785,-148.855,-28.385,386,355,379,398,395,2025-06-04T19:55:03.074661
5397,-0.3343,1.0433,-0.9799,-321.720,-205.135,-54.285,415,411,383,387,404,2025-06-04T19:55:03.074661
5398,-0.3762,0.4900,-0.4475,-383.495,-221.900,-108.535,423,422,381,407,407,2025-06-04T19:55:03.074661
5399,-0.1186,-0.4626,-0.2030,-441.140,-224.315,-158.165,420,433,372,350,414,2025-06-04T19:55:03.074661
5400,-0.2869,-1.6992,0.6012,-517.090,-228.025,-171.255,405,418,356,349,425,2025-06-04T19:55:03.074661
5401,-0.7120,-3.8059,1.3776,-616.385,-179.410,-221.270,396,420,363,395,431,2025-06-04T19:55:03.074661
5402,-1.1292,-6.0453,1.3771,-482.615,-242.550,-230.860,383,429,336,385,410,2025-06-04T19:55:03.337783
5403,-1.3957,-6.8540,1.1692,-402.290,-281.785,-190.995,424,427,374,429,436,2025-06-04T19:55:03.337783
5404,-0.2913,-5.6520,0.7174,-130.340,-332.430,-103.425,397,410,366,417,350,2025-06-04T19:55:03.337783
5405,2.2502,-4.5569,0.5397,44.065,-151.935,20.965,417,420,387,415,388,2025-06-04T19:55:03.337783
5406,3.0837,-3.6019,0.6515,180.460,119.875,151.200,424,407,393,426,396,2025-06-04T19:55:03.337783
5407,1.3000,-2.6562,0.5519,243.880,323.330,186.830,367,405,387,405,397,2025-06-04T19:55:03.337783
5408,-0.3182,-1.9022,0.9287,302.400,343.385,185.220,427,430,407,414,440,2025-06-04T19:55:03.337783
5409,-0.9101,-1.6924,0.9443,267.225,219.625,195.930,377,346,354,412,372,2025-06-04T19:55:03.337783
5410,-1.3010,-1.2659,0.9828,264.670,22.120,172.620,416,394,344,408,369,2025-06-04T19:55:03.337783
5411,-0.2664,-0.9599,0.9345,244.440,-70.000,143.500,345,407,328,389,413,2025-06-04T19:55:03.337783
5412,0.6983,-0.4934,0.9160,215.845,-37.450,113.260,377,424,356,409,394,2025-06-04T19:55:03.337783
5413,1.0019,-0.2323,0.8935,239.575,90.860,97.510,427,416,388,374,408,2025-06-04T19:55:03.337783
5414,0.7178,0.0756,0.9126,246.225,197.785,83.930,396,423,393,394,421,2025-06-04T19:55:03.337783
5415,0.1669,0.3118,0.8477,245.980,239.610,69.755,421,356,402,419,420,2025-06-04T19:55:03.337783
5416,-0.1762,0.4963,0.7237,249.025,236.355,59.430,424,375,409,427,367,2025-06-04T19:55:03.337783
5417,-0.5534,0.8028,0.6368,225.435,179.760,43.505,418,400,406,381,397,2025-06-04T19:55:03.337783
5418,-0.6578,0.9906,0.5222,228.305,112.210,29.225,399,417,380,395,407,2025-06-04T19:55:03.337783
5419,-0.5187,1.2185,0.3514,221.410,49.035,12.845,413,415,384,387,415,2025-06-04T19:55:03.337783
5420,-0.1645,1.2961,0.1835,220.430,11.235,0.945,420,425,374,398,359,2025-06-04T19:55:03.508127
5421,0.0898,1.4396,0.0947,213.080,10.150,-12.355,418,386,388,418,405,2025-06-04T19:55:03.508127
5422,0.2186,1.4567,-0.0229,199.675,25.480,-24.605,413,391,392,397,384,2025-06-04T19:55:03.508127
5423,0.2137,1.5128,-0.0966,188.720,44.415,-31.780,411,398,351,397,380,2025-06-04T19:55:03.508127
5424,0.1435,1.3742,-0.1596,184.485,45.920,-37.450,415,390,373,412,385,2025-06-04T19:55:03.508127
5425,0.0615,1.5040,-0.1698,154.595,46.060,-39.130,422,414,384,375,381,2025-06-04T19:55:03.508127
5426,-0.0210,1.5065,-0.1391,129.290,37.380,-41.790,423,343,377,404,394,2025-06-04T19:55:03.508127
5427,-0.0185,1.4513,-0.1342,117.950,14.945,-40.705,413,379,378,411,399,2025-06-04T19:55:03.508127
5428,0.0005,1.4391,-0.0932,98.490,-1.470,-35.350,398,361,377,411,399,2025-06-04T19:55:03.508127
5429,0.0039,1.3820,-0.0630,88.935,-11.935,-32.830,397,405,373,398,391,2025-06-04T19:55:03.508127
5430,0.0107,1.3459,-0.0332,81.340,-15.050,-32.130,414,426,352,394,350,2025-06-04T19:55:03.508127
5431,0.0542,1.3196,0.0073,72.415,-8.295,-29.295,408,382,365,392,380,2025-06-04T19:55:03.508127
5432,0.0317,1.2820,0.0327,65.555,1.050,-25.655,398,389,365,410,400,2025-06-04T19:55:03.508127
5433,-0.0122,1.2434,0.0952,58.030,12.460,-23.415,403,409,368,407,415,2025-06-04T19:55:03.508127
5434,-0.0356,1.2083,0.1493,50.890,21.210,-20.580,397,417,374,392,410,2025-06-04T19:55:03.508127
5435,-0.0634,1.1644,0.1654,45.955,29.995,-16.695,402,430,366,393,415,2025-06-04T19:55:03.508127
5436,-0.1435,1.0004,0.1869,43.400,34.510,-14.070,416,414,388,372,414,2025-06-04T19:55:03.508127
5437,-0.1532,1.0736,0.1840,41.650,31.430,-9.275,418,419,388,361,397,2025-06-04T19:55:03.656834
5438,-0.2181,1.0590,0.2181,39.305,24.535,-5.285,394,352,381,398,415,2025-06-04T19:55:03.656834
5439,-0.2054,1.0414,0.2401,37.590,15.400,-1.505,382,387,387,409,410,2025-06-04T19:55:03.656834
5440,-0.1957,1.0682,0.2689,33.250,10.780,2.065,419,415,346,363,407,2025-06-04T19:55:03.656834
5441,-0.1854,1.0516,0.2743,31.115,7.665,4.130,431,399,370,399,413,2025-06-04T19:55:03.656834
5442,-0.1430,1.0194,0.2489,26.495,7.875,6.860,418,412,338,420,404,2025-06-04T19:55:03.656834
5443,-0.1615,1.0326,0.2713,23.345,12.215,7.245,422,353,360,420,361,2025-06-04T19:55:03.665055
5444,-0.1415,1.0199,0.2826,21.315,18.130,7.420,392,289,361,400,336,2025-06-04T19:55:03.665055
5445,-0.1386,0.9902,0.2591,18.410,23.555,8.610,357,384,383,405,365,2025-06-04T19:55:03.665055
5446,-0.2025,0.9931,0.2962,16.205,26.670,8.295,408,422,381,422,393,2025-06-04T19:55:03.665055
5447,-0.2201,0.9701,0.2811,13.615,24.430,9.275,410,407,382,376,387,2025-06-04T19:55:03.665055
5448,-0.2660,0.9545,0.2884,11.620,16.205,10.045,400,406,377,403,396,2025-06-04T19:55:03.665055
5449,-0.2679,0.9565,0.3079,10.185,7.910,10.465,415,346,373,387,396,2025-06-04T19:55:03.665055
5450,-0.2386,0.9477,0.3045,8.960,3.850,10.500,426,390,392,348,349,2025-06-04T19:55:03.666157
5451,-0.1879,0.9584,0.3089,7.490,5.705,11.130,419,411,394,392,383,2025-06-04T19:55:03.666157
5452,-0.1664,0.9531,0.2938,5.425,10.255,11.130,410,415,388,368,392,2025-06-04T19:55:03.666157
5453,-0.1615,0.9433,0.2830,3.500,16.835,10.500,364,351,376,342,394,2025-06-04T19:55:03.666619
5454,-0.1542,0.9306,0.2635,1.820,22.645,10.290,402,418,377,374,368,2025-06-04T19:55:03.728172
5455,-0.1913,0.9301,0.2679,1.085,25.760,9.975,375,398,391,378,399,2025-06-04T19:55:03.728172
5456,-0.2216,0.9292,0.2674,0.525,24.920,9.100,334,414,384,366,409,2025-06-04T19:55:03.728172
5457,-0.2357,0.9189,0.2669,0.175,19.810,8.890,379,422,378,381,413,2025-06-04T19:55:03.729186
5458,-0.2674,0.9267,0.2811,-0.805,15.190,7.420,423,428,340,385,406,2025-06-04T19:55:03.867680
5459,-0.2845,0.9272,0.2948,-1.400,9.555,4.970,425,412,322,390,405,2025-06-04T19:55:03.867680
5460,-0.2523,0.9150,0.2845,-1.995,5.495,3.780,427,418,364,344,408,2025-06-04T19:55:03.867680
5461,-0.2635,0.8994,0.2684,-2.765,3.360,2.170,437,421,375,374,409,2025-06-04T19:55:03.867680
5462,-0.2445,0.8994,0.2713,-2.625,3.885,1.400,427,400,336,385,411,2025-06-04T19:55:03.867680
5463,-0.2367,0.8926,0.2889,-3.150,5.355,0.980,348,410,325,398,399,2025-06-04T19:55:03.867680
5464,-0.2464,0.8916,0.2928,-3.360,7.630,0.910,328,360,350,396,353,2025-06-04T19:55:03.867680
5465,-0.2577,0.8784,0.2899,-3.045,9.625,1.330,373,406,376,373,388,2025-06-04T19:55:03.867680
5466,-0.2723,0.8716,0.2904,-2.625,10.325,2.555,365,421,368,366,406,2025-06-04T19:55:03.867680
5467,-0.3016,0.8808,0.3094,-1.645,10.535,2.450,411,414,377,391,406,2025-06-04T19:55:03.867680
5468,-0.3157,0.8760,0.3089,-0.595,9.940,1.225,401,412,377,393,397,2025-06-04T19:55:03.867680
5469,-0.3084,0.8813,0.3138,0.175,8.610,1.085,401,342,386,416,369,2025-06-04T19:55:03.867680
5470,-0.3270,0.8886,0.3196,0.910,6.545,0.875,412,410,391,390,381,2025-06-04T19:55:03.867680
5471,-0.3255,0.8886,0.3006,0.805,3.710,0.210,403,412,383,381,376,2025-06-04T19:55:03.916379
5472,-0.3255,0.8862,0.2948,0.805,1.190,-0.315,366,409,372,405,397,2025-06-04T19:55:03.916379
5473,-0.3089,0.8823,0.2894,0.980,-0.070,0.070,387,422,377,400,390,2025-06-04T19:55:03.916379
5474,-0.3035,0.8965,0.2943,1.330,-0.070,0.525,422,360,350,408,351,2025-06-04T19:55:03.916379
5475,-0.2908,0.8974,0.2865,1.785,0.945,1.050,421,411,373,393,380,2025-06-04T19:55:04.096309
5476,-0.2908,0.8994,0.2908,1.330,2.345,1.505,413,343,371,384,380,2025-06-04T19:55:04.096309
5477,-0.2962,0.9038,0.2869,0.910,1.680,2.590,404,410,379,378,342,2025-06-04T19:55:04.097326
5478,-0.3123,0.8945,0.2840,0.140,-0.070,2.975,404,406,388,343,368,2025-06-04T19:55:04.097326
5479,-0.3035,0.9023,0.2889,0.245,-2.310,3.185,388,421,369,395,385,2025-06-04T19:55:04.097326
5480,-0.2894,0.8955,0.2791,0.000,-3.780,3.500,405,399,372,369,402,2025-06-04T19:55:04.097326
5481,-0.2694,0.8945,0.2874,-0.245,-3.395,3.535,397,418,339,381,391,2025-06-04T19:55:04.097326
5482,-0.2596,0.8935,0.2821,-1.085,-1.995,3.395,395,394,367,400,401,2025-06-04T19:55:04.097326
5483,-0.2660,0.8838,0.2796,-1.050,-0.070,2.450,418,428,374,402,411,2025-06-04T19:55:04.097326
5484,-0.2533,0.8794,0.2811,-1.015,2.030,1.715,408,407,367,345,406,2025-06-04T19:55:04.097326
5485,-0.2621,0.8750,0.2855,-0.525,2.730,1.505,415,404,339,397,409,2025-06-04T19:55:04.097326
5486,-0.2918,0.8696,0.2791,-0.315,1.470,1.610,416,380,365,415,406,2025-06-04T19:55:04.097326
5487,-0.3138,0.8706,0.2840,-0.105,-1.995,0.735,404,348,384,395,350,2025-06-04T19:55:04.097326
5488,-0.3138,0.8638,0.2830,-0.700,-6.720,-0.280,405,403,372,348,378,2025-06-04T19:55:04.097326
5489,-0.2855,0.8682,0.2845,-0.490,-9.380,-1.365,407,385,380,355,393,2025-06-04T19:55:04.097326
5490,-0.2772,0.8574,0.2806,-0.980,-9.275,-2.660,395,342,394,402,410,2025-06-04T19:55:04.203648
5491,-0.2567,0.8633,0.2738,-0.420,-6.545,-3.570,425,407,396,394,400,2025-06-04T19:55:04.203648
5492,-0.2621,0.8686,0.2845,-0.560,-3.045,-4.655,414,405,391,399,400,2025-06-04T19:55:04.203648
5493,-0.2547,0.8711,0.2830,-0.840,1.085,-4.830,358,350,392,405,412,2025-06-04T19:55:04.204542
5494,-0.2733,0.8711,0.2747,-1.190,3.535,-4.480,352,408,388,399,402,2025-06-04T19:55:04.204542
5495,-0.2972,0.8818,0.2845,-1.365,3.290,-5.075,389,394,378,355,380,2025-06-04T19:55:04.204542
5496,-0.3148,0.8750,0.2894,-1.680,0.665,-5.460,410,406,385,397,388,2025-06-04T19:55:04.204542
5497,-0.3216,0.8867,0.3006,-0.805,-3.430,-4.655,391,343,383,346,347,2025-06-04T19:55:04.204542
5498,-0.3353,0.8818,0.2987,-0.945,-7.630,-4.900,395,386,390,385,396,2025-06-04T19:55:04.204542
5499,-0.2948,0.8862,0.2962,-0.805,-8.085,-5.670,424,405,378,406,352,2025-06-04T19:55:04.302538
5500,-0.2533,0.8799,0.2874,-0.455,-5.460,-4.585,369,390,347,380,341,2025-06-04T19:55:04.302538
5501,-0.2757,0.8857,0.2928,-0.210,-1.050,-4.550,402,402,375,392,370,2025-06-04T19:55:04.302538
5502,-0.2757,0.8911,0.2894,0.735,2.485,-4.445,418,422,381,402,397,2025-06-04T19:55:04.302538
5503,-0.2869,0.8935,0.2874,0.525,3.850,-4.095,412,439,383,395,385,2025-06-04T19:55:04.302538
5504,-0.2987,0.8950,0.2987,0.770,2.940,-3.570,340,398,351,411,394,2025-06-04T19:55:04.302538
5505,-0.3074,0.8979,0.3030,1.085,-0.210,-2.765,402,423,364,357,390,2025-06-04T19:55:04.302538
5506,-0.3240,0.8960,0.2811,1.365,-5.390,-2.275,415,415,357,390,367,2025-06-04T19:55:04.302538
5507,-0.3148,0.8921,0.2845,1.540,-9.065,-3.080,422,428,300,344,338,2025-06-04T19:55:04.411717
5508,-0.2669,0.9008,0.2918,0.980,-9.065,-3.150,432,430,345,389,391,2025-06-04T19:55:04.411717
5509,-0.2630,0.8945,0.2801,0.280,-7.315,-3.080,407,395,366,419,389,2025-06-04T19:55:04.411717
5510,-0.2660,0.8911,0.2757,0.350,-4.900,-3.605,417,400,378,415,390,2025-06-04T19:55:04.411717
5511,-0.2704,0.8828,0.2821,0.455,-3.185,-3.640,418,394,342,418,351,2025-06-04T19:55:04.411717
5512,-0.2830,0.8877,0.2855,0.525,-2.450,-3.430,388,373,349,420,396,2025-06-04T19:55:04.411717
5513,-0.2996,0.8872,0.2821,0.140,-2.205,-3.710,351,409,370,423,350,2025-06-04T19:55:04.412169
5514,-0.2908,0.8862,0.2782,0.315,-2.100,-3.430,386,432,337,408,399,2025-06-04T19:55:04.412169
5515,-0.2952,0.8935,0.2777,0.315,-1.610,-2.870,414,420,333,388,405,2025-06-04T19:55:04.412169
5516,-0.3065,0.8872,0.2767,0.560,-1.680,-3.010,398,352,349,380,352,2025-06-04T19:55:04.611202
5517,-0.2987,0.8935,0.2855,0.630,-2.170,-2.485,397,388,327,332,341,2025-06-04T19:55:04.611202
5518,-0.3089,0.8921,0.2743,0.420,-3.045,-2.415,406,425,346,372,381,2025-06-04T19:55:04.611202
5519,-0.3109,0.8784,0.2669,0.840,-3.815,-2.310,426,427,356,406,347,2025-06-04T19:55:04.611202
5520,-0.3070,0.8852,0.2718,0.910,-3.885,-2.100,419,403,377,411,368,2025-06-04T19:55:04.611202
5521,-0.3133,0.8886,0.2767,1.330,-3.500,-2.345,421,408,377,404,376,2025-06-04T19:55:04.611202
5522,-0.3001,0.8916,0.2884,1.470,-3.150,-2.170,403,397,383,414,399,2025-06-04T19:55:04.611202
5523,-0.2972,0.8896,0.2762,1.085,-2.380,-1.960,392,421,389,424,403,2025-06-04T19:55:04.611202
5524,-0.3123,0.8852,0.2679,1.260,-2.065,-2.170,413,425,386,404,395,2025-06-04T19:55:04.611202
5525,-0.3099,0.8843,0.2738,1.400,-2.275,-1.645,343,396,381,409,402,2025-06-04T19:55:04.611202
5526,-0.3196,0.8926,0.2889,1.400,-3.115,-1.260,418,438,392,396,408,2025-06-04T19:55:04.611202
5527,-0.3289,0.8930,0.2767,1.470,-4.025,-1.050,407,352,348,351,405,2025-06-04T19:55:04.611202
5528,-0.3138,0.8965,0.2777,1.470,-4.340,-0.875,395,397,361,369,406,2025-06-04T19:55:04.611202
5529,-0.3172,0.9043,0.2830,1.295,-4.025,-0.245,347,408,331,396,414,2025-06-04T19:55:04.611202
5530,-0.3211,0.9091,0.2835,1.470,-4.410,0.490,398,429,357,385,417,2025-06-04T19:55:04.612267
5531,-0.3216,0.9101,0.2826,1.295,-4.900,1.155,411,409,369,400,363,2025-06-04T19:55:04.612267
5532,-0.3113,0.9130,0.2830,1.505,-5.460,1.925,420,430,371,409,384,2025-06-04T19:55:04.612267
5533,-0.3104,0.9155,0.2826,1.225,-5.460,2.625,403,347,374,422,400,2025-06-04T19:55:04.707915
5534,-0.3162,0.9184,0.2874,1.225,-6.020,3.185,381,407,388,423,387,2025-06-04T19:55:04.707915
5535,-0.3152,0.9170,0.2777,0.630,-7.315,3.780,339,410,397,398,382,2025-06-04T19:55:04.707915
5536,-0.3187,0.9072,0.2679,0.735,-8.960,4.270,390,419,393,392,350,2025-06-04T19:55:04.708913
5537,-0.3099,0.9072,0.2738,0.350,-8.960,4.690,352,433,383,404,380,2025-06-04T19:55:04.708913
5538,-0.3099,0.9057,0.2723,0.210,-7.980,4.655,353,397,393,413,401,2025-06-04T19:55:04.708913
5539,-0.3050,0.8940,0.2694,0.245,-6.965,4.935,398,426,360,356,414,2025-06-04T19:55:04.708913
5540,-0.3152,0.8955,0.2801,-0.070,-6.475,5.040,393,423,362,383,410,2025-06-04T19:55:04.708913
5541,-0.3177,0.8833,0.2684,-0.595,-6.685,5.425,417,399,378,385,390,2025-06-04T19:55:04.810639
5542,-0.3216,0.8818,0.2747,-0.840,-7.280,5.565,364,427,340,354,354,2025-06-04T19:55:04.810639
5543,-0.3255,0.8823,0.2816,-1.085,-8.610,5.285,416,385,351,377,397,2025-06-04T19:55:04.810639
5544,-0.3182,0.8652,0.2660,-0.945,-10.675,5.145,423,411,356,387,381,2025-06-04T19:55:04.810639
5545,-0.3089,0.8638,0.2694,-1.120,-11.620,4.795,427,414,339,404,308,2025-06-04T19:55:04.810639
5546,-0.2913,0.8584,0.2723,-0.980,-10.605,3.815,402,385,360,412,360,2025-06-04T19:55:04.810639
5547,-0.2806,0.8569,0.2674,-0.910,-8.995,2.800,430,406,338,410,371,2025-06-04T19:55:04.810639
5548,-0.2791,0.8506,0.2733,-0.700,-6.755,1.890,343,424,365,400,402,2025-06-04T19:55:04.810639
5549,-0.2855,0.8569,0.2806,-0.175,-4.620,0.980,396,401,373,393,391,2025-06-04T19:55:04.810639
5550,-0.2850,0.8560,0.2743,-0.280,-4.235,0.420,412,403,341,388,398,2025-06-04T19:55:04.914148
5551,-0.3089,0.8555,0.2704,-0.280,-5.320,-0.035,402,400,361,399,406,2025-06-04T19:55:04.914148
5552,-0.3050,0.8584,0.2728,0.280,-6.440,-0.665,356,416,366,354,349,2025-06-04T19:55:05.535602
5553,-0.3011,0.8696,0.2811,0.280,-7.175,-1.225,376,364,378,389,373,2025-06-04T19:55:05.535602
5554,-0.3026,0.8716,0.2806,1.120,-7.735,-2.205,411,414,348,392,379,2025-06-04T19:55:05.535602
5555,-0.2918,0.8706,0.2743,1.260,-7.840,-2.940,409,404,333,409,398,2025-06-04T19:55:05.535602
5556,-0.3006,0.8760,0.2796,1.400,-8.190,-3.500,367,413,364,357,406,2025-06-04T19:55:05.535602
5557,-0.3030,0.8794,0.2874,1.540,-8.610,-3.920,388,382,374,403,416,2025-06-04T19:55:05.535602
5558,-0.2933,0.8862,0.2874,1.995,-8.680,-3.815,391,338,389,389,405,2025-06-04T19:55:05.535602
5559,-0.2948,0.8921,0.2874,2.100,-7.700,-3.640,398,336,356,410,355,2025-06-04T19:55:05.535602
5560,-0.2869,0.8930,0.2835,2.240,-6.860,-3.045,417,389,330,405,383,2025-06-04T19:55:05.535602
5561,-0.3026,0.8989,0.2894,2.275,-7.070,-2.345,423,408,364,401,398,2025-06-04T19:55:05.535602
5562,-0.3113,0.9023,0.2962,2.345,-7.910,-1.960,423,403,371,392,363,2025-06-04T19:55:05.535602
5563,-0.3035,0.9048,0.2879,2.415,-8.575,-1.435,420,393,373,405,380,2025-06-04T19:55:05.535602
5564,-0.2972,0.9062,0.2904,2.520,-8.225,-0.420,405,404,345,400,343,2025-06-04T19:55:05.535602
5565,-0.2943,0.9057,0.2894,2.555,-7.385,0.140,398,423,362,402,396,2025-06-04T19:55:05.535602
5566,-0.3030,0.9072,0.2865,2.555,-7.245,0.980,416,404,364,353,393,2025-06-04T19:55:05.535602
5567,-0.3104,0.9121,0.2869,2.800,-8.085,1.610,420,402,365,375,402,2025-06-04T19:55:05.535602
5568,-0.3123,0.9096,0.2865,2.940,-9.380,1.890,408,362,377,338,400,2025-06-04T19:55:05.535602
5569,-0.3006,0.9126,0.2845,2.765,-10.045,2.485,423,393,370,393,400,2025-06-04T19:55:05.535602
5570,-0.2908,0.9106,0.2816,2.380,-9.835,3.010,421,401,369,411,407,2025-06-04T19:55:05.535602
5571,-0.2962,0.9008,0.2708,1.960,-9.765,3.395,402,425,369,346,406,2025-06-04T19:55:05.535602
5572,-0.2855,0.9004,0.2708,1.855,-9.275,3.570,422,407,381,382,410,2025-06-04T19:55:05.535602
5573,-0.2894,0.8945,0.2684,1.400,-9.100,3.675,428,432,380,356,417,2025-06-04T19:55:05.535602
5574,-0.2918,0.8955,0.2708,1.435,-9.695,3.570,418,402,377,379,406,2025-06-04T19:55:05.535602
5575,-0.2879,0.8940,0.2699,0.980,-10.885,3.395,428,424,377,342,414,2025-06-04T19:55:05.536604
5576,-0.2996,0.8818,0.2601,0.840,-11.830,3.080,425,403,383,387,409,2025-06-04T19:55:05.536604
5577,-0.2791,0.8916,0.2694,1.225,-11.900,2.695,411,418,388,399,407,2025-06-04T19:55:05.536604
5578,-0.2801,0.8838,0.2664,0.805,-10.745,1.820,407,425,378,414,362,2025-06-04T19:55:05.536604
5579,-0.2621,0.8813,0.2567,1.155,-9.905,1.715,401,401,370,413,373,2025-06-04T19:55:05.536604
5580,-0.2694,0.8843,0.2655,0.980,-8.540,1.610,390,428,371,419,377,2025-06-04T19:55:05.536604
5581,-0.2733,0.8862,0.2708,1.050,-7.980,1.015,414,405,375,415,378,2025-06-04T19:55:05.536604
5582,-0.2791,0.8852,0.2718,1.540,-8.155,0.840,422,425,370,422,382,2025-06-04T19:55:05.536604
5583,-0.2845,0.8867,0.2689,1.785,-8.470,0.840,403,427,368,313,379,2025-06-04T19:55:05.536604
5584,-0.2850,0.8882,0.2733,2.030,-8.260,0.805,420,385,360,280,397,2025-06-04T19:55:05.536604
5585,-0.2889,0.8945,0.2718,2.030,-8.365,0.875,345,389,374,343,400,2025-06-04T19:55:05.536604
5586,-0.2899,0.8940,0.2694,2.170,-8.855,0.980,380,426,387,394,359,2025-06-04T19:55:05.536604
5587,-0.2889,0.8994,0.2718,2.345,-9.660,1.190,387,433,380,411,383,2025-06-04T19:55:05.536604
5588,-0.2869,0.8955,0.2718,2.275,-10.150,1.330,408,386,380,397,340,2025-06-04T19:55:05.536604
5589,-0.2728,0.8979,0.2679,2.695,-9.905,1.960,361,338,388,372,392,2025-06-04T19:55:05.536604
5590,-0.2791,0.9004,0.2694,2.870,-8.610,2.240,289,417,392,348,389,2025-06-04T19:55:05.536604
5591,-0.2733,0.9111,0.2747,3.080,-7.035,2.205,363,419,376,396,387,2025-06-04T19:55:05.536604
5592,-0.2782,0.9077,0.2699,2.695,-6.195,2.380,386,355,385,392,350,2025-06-04T19:55:05.536604
5593,-0.2767,0.9048,0.2679,2.380,-6.055,3.010,390,382,348,345,380,2025-06-04T19:55:05.536604
5594,-0.2786,0.9023,0.2640,1.820,-6.615,3.465,414,374,332,336,354,2025-06-04T19:55:05.536604
5595,-0.2913,0.8965,0.2591,1.995,-7.980,3.815,402,371,316,346,390,2025-06-04T19:55:05.536604
5596,-0.2889,0.9043,0.2689,1.925,-9.835,3.500,410,425,356,398,403,2025-06-04T19:55:05.536604
5597,-0.2752,0.9008,0.2664,1.505,-10.850,3.010,428,417,378,408,354,2025-06-04T19:55:05.536604
5598,-0.2562,0.8984,0.2625,0.910,-11.025,3.220,422,339,384,402,334,2025-06-04T19:55:05.536604
5599,-0.2582,0.8921,0.2640,0.595,-10.010,2.975,347,284,390,413,378,2025-06-04T19:55:05.536604
5600,-0.2542,0.8882,0.2640,0.840,-9.065,2.100,406,376,397,418,361,2025-06-04T19:55:05.536604
5601,-0.2494,0.8891,0.2645,0.700,-8.295,1.365,394,399,394,379,382,2025-06-04T19:55:05.536604
5602,-0.2503,0.8886,0.2591,0.595,-7.420,0.525,403,415,389,399,403,2025-06-04T19:55:05.536604
5603,-0.2552,0.8930,0.2552,0.315,-7.210,-0.350,403,406,390,404,396,2025-06-04T19:55:05.536604
5604,-0.2552,0.8960,0.2577,0.280,-7.490,-0.945,399,424,400,407,406,2025-06-04T19:55:05.536604
5605,-0.2557,0.8960,0.2616,0.385,-8.120,-1.610,395,422,402,396,410,2025-06-04T19:55:05.647141
5606,-0.2645,0.8965,0.2645,0.420,-8.610,-2.555,416,353,378,387,416,2025-06-04T19:55:05.647141
5607,-0.2503,0.8974,0.2650,0.280,-8.330,-3.150,347,382,394,393,405,2025-06-04T19:55:05.647141
5608,-0.2503,0.8911,0.2660,-0.035,-7.735,-3.325,377,392,391,344,413,2025-06-04T19:55:05.647141
5609,-0.2542,0.8906,0.2669,0.000,-7.280,-3.605,402,417,385,391,397,2025-06-04T19:55:05.647141
5610,-0.2582,0.8930,0.2669,0.035,-6.685,-3.990,393,408,388,380,410,2025-06-04T19:55:05.648142
5611,-0.2562,0.8940,0.2635,0.210,-6.475,-4.200,418,387,385,393,389,2025-06-04T19:55:05.648142
5612,-0.2645,0.8999,0.2684,0.140,-6.545,-4.445,416,395,389,346,346,2025-06-04T19:55:05.648142
5613,-0.2704,0.8989,0.2630,-0.385,-6.860,-4.620,399,398,393,367,381,2025-06-04T19:55:05.648142
5614,-0.2762,0.8994,0.2679,0.070,-7.805,-4.935,401,340,393,381,394,2025-06-04T19:55:05.648142
5615,-0.2743,0.9004,0.2601,-0.350,-8.645,-4.865,424,385,382,410,402,2025-06-04T19:55:05.648142
5616,-0.2762,0.9038,0.2674,-0.770,-9.065,-4.725,427,389,346,418,371,2025-06-04T19:55:05.648142
5617,-0.2767,0.9048,0.2679,-0.875,-9.065,-4.620,432,366,327,399,381,2025-06-04T19:55:05.649150
5618,-0.2743,0.9038,0.2674,-1.260,-8.750,-4.515,403,407,363,402,344,2025-06-04T19:55:05.649150
5619,-0.2679,0.9052,0.2679,-1.540,-7.420,-4.130,379,387,330,389,383,2025-06-04T19:55:05.939851
5620,-0.2713,0.9043,0.2689,-1.680,-5.355,-3.570,400,422,352,367,380,2025-06-04T19:55:05.939851
5621,-0.2826,0.9013,0.2747,-2.100,-4.340,-2.625,420,405,357,399,382,2025-06-04T19:55:05.939851
5622,-0.2855,0.8989,0.2733,-1.890,-4.585,-1.995,367,422,369,412,405,2025-06-04T19:55:05.939851
5623,-0.2879,0.8965,0.2757,-1.925,-5.110,-1.470,381,421,369,407,405,2025-06-04T19:55:05.940918
5624,-0.2845,0.9013,0.2791,-1.645,-4.865,-1.435,389,350,369,420,370,2025-06-04T19:55:05.940918
5625,-0.2796,0.9043,0.2747,-1.575,-3.920,-1.295,418,352,337,410,384,2025-06-04T19:55:05.940918
5626,-0.2791,0.9018,0.2747,-1.645,-3.290,-1.015,350,419,364,358,386,2025-06-04T19:55:05.940918
5627,-0.2845,0.9033,0.2830,-1.750,-3.325,-0.665,400,434,381,398,406,2025-06-04T19:55:05.940918
5628,-0.2889,0.8989,0.2855,-1.715,-3.675,-0.700,393,421,385,391,415,2025-06-04T19:55:05.940918
5629,-0.2923,0.8999,0.2869,-1.505,-4.480,-0.525,397,392,357,399,412,2025-06-04T19:55:05.940918
5630,-0.2938,0.8911,0.2801,-1.575,-5.355,-0.245,363,337,363,405,404,2025-06-04T19:55:05.940918
5631,-0.2884,0.8921,0.2830,-1.610,-5.880,0.035,411,393,370,361,407,2025-06-04T19:55:05.940918
5632,-0.2874,0.8886,0.2889,-1.750,-6.265,0.210,395,391,375,374,400,2025-06-04T19:55:05.940918
5633,-0.2899,0.8843,0.2777,-1.925,-6.720,-0.105,348,422,376,404,411,2025-06-04T19:55:05.940918
5634,-0.2826,0.8857,0.2826,-1.505,-7.525,-0.455,417,433,386,414,397,2025-06-04T19:55:05.940918
5635,-0.2777,0.8843,0.2767,-1.645,-7.560,-0.770,399,417,346,414,411,2025-06-04T19:55:05.940918
5636,-0.2728,0.8847,0.2660,-1.750,-7.315,-1.645,419,422,377,413,420,2025-06-04T19:55:05.940918
5637,-0.2645,0.8857,0.2660,-2.310,-6.125,-2.520,417,349,367,403,396,2025-06-04T19:55:05.940918
5638,-0.2616,0.8867,0.2650,-2.730,-4.270,-3.360,414,364,376,402,407,2025-06-04T19:55:05.940918
5639,-0.2713,0.8857,0.2625,-3.150,-3.430,-4.445,416,412,381,392,396,2025-06-04T19:55:06.032865
5640,-0.2801,0.8847,0.2669,-3.465,-4.025,-5.250,427,398,350,417,407,2025-06-04T19:55:06.032865
5641,-0.2865,0.8872,0.2728,-3.640,-5.390,-5.635,412,432,375,415,404,2025-06-04T19:55:06.032865
5642,-0.2952,0.8872,0.2728,-3.815,-7.140,-6.615,426,438,392,400,356,2025-06-04T19:55:06.032865
5643,-0.2845,0.8921,0.2728,-3.885,-8.015,-7.210,401,428,381,383,373,2025-06-04T19:55:06.032865
5644,-0.2850,0.8950,0.2708,-3.850,-7.735,-7.805,404,377,374,347,394,2025-06-04T19:55:06.032865
5645,-0.2835,0.8926,0.2718,-3.780,-6.300,-8.470,422,388,350,350,369,2025-06-04T19:55:06.032865
5646,-0.2850,0.8979,0.2772,-3.710,-4.935,-8.190,427,397,361,378,386,2025-06-04T19:55:06.032865
5647,-0.2962,0.9013,0.2840,-3.710,-4.515,-7.700,431,408,341,335,391,2025-06-04T19:55:06.032865
5648,-0.3118,0.8926,0.2767,-3.780,-5.110,-7.315,404,397,353,388,408,2025-06-04T19:55:06.032865
5649,-0.3089,0.8984,0.2796,-3.535,-6.475,-6.615,377,417,375,394,368,2025-06-04T19:55:06.032865
5650,-0.3016,0.8974,0.2840,-3.430,-7.035,-5.810,416,390,333,380,347,2025-06-04T19:55:06.121398
5651,-0.2874,0.8979,0.2840,-3.605,-6.195,-5.075,416,397,361,343,368,2025-06-04T19:55:06.121398
5652,-0.2855,0.8955,0.2830,-3.605,-4.795,-4.445,415,418,367,333,383,2025-06-04T19:55:06.121398
5653,-0.2982,0.8926,0.2806,-3.675,-4.130,-4.025,395,414,373,386,402,2025-06-04T19:55:06.121398
5654,-0.2957,0.8916,0.2821,-3.605,-4.760,-3.850,352,355,382,391,397,2025-06-04T19:55:06.121398
5655,-0.3021,0.8872,0.2826,-3.675,-5.740,-3.710,329,411,369,411,412,2025-06-04T19:55:06.121398
5656,-0.2991,0.8838,0.2791,-3.570,-6.720,-3.955,382,411,366,420,358,2025-06-04T19:55:06.121398
5657,-0.2957,0.8804,0.2850,-3.535,-6.790,-4.445,410,404,386,423,333,2025-06-04T19:55:06.121398
5658,-0.2996,0.8779,0.2850,-3.675,-6.580,-4.795,419,428,396,419,363,2025-06-04T19:55:06.121398
5659,-0.2957,0.8764,0.2869,-3.605,-6.020,-5.110,345,422,382,422,402,2025-06-04T19:55:06.347162
5660,-0.3006,0.8740,0.2923,-3.710,-5.145,-5.530,366,404,383,395,405,2025-06-04T19:55:06.347162
5661,-0.2948,0.8725,0.2938,-4.165,-3.955,-5.810,388,426,382,349,384,2025-06-04T19:55:06.347162
5662,-0.3006,0.8696,0.2952,-4.095,-3.325,-5.985,429,423,381,394,409,2025-06-04T19:55:06.347162
5663,-0.3070,0.8725,0.2957,-4.165,-3.360,-6.300,419,402,393,404,413,2025-06-04T19:55:06.347162
5664,-0.3128,0.8706,0.3065,-4.270,-3.605,-6.790,404,420,351,407,397,2025-06-04T19:55:06.347162
5665,-0.3055,0.8672,0.3016,-4.690,-4.410,-6.825,411,422,364,374,405,2025-06-04T19:55:06.347162
5666,-0.3201,0.8647,0.3045,-5.075,-5.320,-7.280,423,430,383,402,359,2025-06-04T19:55:06.348163
5667,-0.3172,0.8599,0.3055,-5.110,-6.265,-8.050,415,399,377,393,368,2025-06-04T19:55:06.348163
5668,-0.3177,0.8633,0.3094,-5.145,-7.525,-8.645,365,422,371,388,337,2025-06-04T19:55:06.348163
5669,-0.3099,0.8599,0.3089,-4.795,-8.225,-8.995,332,377,371,339,371,2025-06-04T19:55:06.348163
5670,-0.3104,0.8652,0.3133,-5.040,-7.910,-9.555,323,416,341,398,388,2025-06-04T19:55:06.348163
5671,-0.3177,0.8657,0.3192,-5.145,-7.315,-10.185,334,397,366,372,367,2025-06-04T19:55:06.348163
5672,-0.3026,0.8706,0.3216,-5.285,-5.460,-10.535,401,420,385,373,380,2025-06-04T19:55:06.348163
5673,-0.3148,0.8569,0.3094,-5.635,-4.200,-10.815,399,427,381,398,383,2025-06-04T19:55:06.348163
5674,-0.3270,0.8560,0.3143,-5.320,-3.990,-10.885,420,364,357,384,395,2025-06-04T19:55:06.349162
5675,-0.3318,0.8599,0.3231,-4.900,-5.005,-10.920,420,368,338,406,351,2025-06-04T19:55:06.349162
5676,-0.3372,0.8662,0.3265,-4.900,-6.090,-11.165,429,339,348,369,329,2025-06-04T19:55:06.349162
5677,-0.3392,0.8662,0.3265,-4.550,-6.930,-11.480,420,359,360,397,376,2025-06-04T19:55:06.349162
5678,-0.3270,0.8638,0.3250,-4.165,-7.630,-10.780,432,397,378,404,346,2025-06-04T19:55:06.532352
5679,-0.3528,0.8760,0.3274,-4.305,-7.070,-10.990,429,392,388,406,387,2025-06-04T19:55:06.532352
5680,-0.3411,0.8740,0.3226,-3.780,-6.755,-10.920,420,411,376,352,395,2025-06-04T19:55:06.532352
5681,-0.3445,0.8764,0.3299,-4.095,-6.300,-10.220,396,362,391,378,396,2025-06-04T19:55:06.532352
5682,-0.3518,0.8799,0.3294,-3.640,-6.510,-9.345,395,388,360,402,371,2025-06-04T19:55:06.532352
5683,-0.3587,0.8735,0.3270,-3.360,-7.070,-8.365,414,410,372,401,396,2025-06-04T19:55:06.532352
5684,-0.3655,0.8755,0.3250,-3.115,-8.365,-7.210,353,420,370,400,362,2025-06-04T19:55:06.532352
5685,-0.3631,0.8745,0.3270,-2.695,-8.820,-6.265,381,422,349,400,377,2025-06-04T19:55:06.532352
5686,-0.3616,0.8750,0.3284,-2.275,-9.170,-5.565,332,372,375,394,396,2025-06-04T19:55:06.532352
5687,-0.3553,0.8711,0.3235,-2.310,-9.205,-4.900,343,391,342,398,398,2025-06-04T19:55:06.532352
5688,-0.3538,0.8686,0.3240,-2.100,-8.505,-4.375,334,348,366,390,405,2025-06-04T19:55:06.532352
5689,-0.3509,0.8647,0.3274,-2.135,-7.245,-3.780,399,393,371,408,362,2025-06-04T19:55:06.532352
5690,-0.3572,0.8564,0.3294,-2.065,-6.650,-3.080,398,432,373,387,392,2025-06-04T19:55:06.532352
5691,-0.3645,0.8535,0.3314,-1.925,-6.720,-2.625,419,402,377,398,403,2025-06-04T19:55:06.532352
5692,-0.3699,0.8472,0.3338,-2.065,-7.665,-2.240,414,423,385,411,391,2025-06-04T19:55:06.532352
5693,-0.3665,0.8447,0.3406,-1.715,-8.155,-1.995,404,400,376,404,310,2025-06-04T19:55:06.532352
5694,-0.3616,0.8379,0.3357,-1.960,-8.015,-1.925,421,399,342,376,321,2025-06-04T19:55:06.532352
5695,-0.3587,0.8335,0.3343,-1.715,-7.315,-2.030,399,412,359,407,377,2025-06-04T19:55:06.766609
5696,-0.3538,0.8340,0.3343,-1.435,-6.265,-2.205,397,432,341,412,348,2025-06-04T19:55:06.766609
5697,-0.3543,0.8320,0.3304,-1.330,-5.320,-2.590,413,406,366,415,375,2025-06-04T19:55:06.766609
5698,-0.3597,0.8306,0.3289,-1.155,-4.830,-2.905,403,399,363,406,391,2025-06-04T19:55:06.766609
5699,-0.3680,0.8316,0.3289,-0.735,-5.285,-3.605,393,413,370,393,405,2025-06-04T19:55:06.766609
5700,-0.3631,0.8340,0.3343,-0.560,-6.615,-3.815,404,426,379,402,402,2025-06-04T19:55:06.767506
5701,-0.3611,0.8286,0.3304,-0.210,-7.875,-4.340,362,417,377,407,392,2025-06-04T19:55:06.767506
5702,-0.3518,0.8272,0.3265,-0.035,-7.980,-5.215,414,399,340,374,405,2025-06-04T19:55:07.049955
5703,-0.3509,0.8267,0.3328,0.175,-7.175,-6.370,417,418,358,409,400,2025-06-04T19:55:07.049955
5704,-0.3499,0.8306,0.3348,0.455,-6.230,-7.140,373,349,378,413,387,2025-06-04T19:55:07.049955
5705,-0.3504,0.8301,0.3294,0.210,-4.795,-7.700,407,416,382,404,388,2025-06-04T19:55:07.049955
5706,-0.3543,0.8316,0.3240,-0.455,-2.940,-7.840,411,413,373,398,396,2025-06-04T19:55:07.049955
5707,-0.3714,0.8423,0.3294,-1.015,-1.890,-7.945,417,411,365,398,415,2025-06-04T19:55:07.049955
5708,-0.3792,0.8389,0.3211,-1.470,-2.030,-7.875,425,340,366,412,370,2025-06-04T19:55:07.049955
5709,-0.3880,0.8428,0.3255,-1.645,-2.625,-7.490,360,412,380,366,343,2025-06-04T19:55:07.050951
5710,-0.3924,0.8442,0.3270,-1.785,-3.570,-7.315,330,402,376,296,361,2025-06-04T19:55:07.050951
5711,-0.3889,0.8413,0.3274,-2.345,-4.095,-6.965,397,407,386,380,379,2025-06-04T19:55:07.050951
5712,-0.3841,0.8452,0.3309,-2.730,-3.605,-6.300,388,413,346,390,384,2025-06-04T19:55:07.050951
5713,-0.3889,0.8462,0.3279,-2.310,-2.520,-5.915,372,432,367,389,400,2025-06-04T19:55:07.050951
5714,-0.3987,0.8491,0.3353,-2.100,-2.485,-5.565,417,409,380,409,418,2025-06-04T19:55:07.050951
5715,-0.4016,0.8472,0.3348,-2.170,-2.975,-5.110,421,408,385,410,402,2025-06-04T19:55:07.050951
5716,-0.4075,0.8462,0.3343,-1.680,-4.095,-4.585,412,421,378,397,349,2025-06-04T19:55:07.050951
5717,-0.3982,0.8477,0.3421,-1.645,-4.270,-4.025,417,422,382,391,377,2025-06-04T19:55:07.050951
5718,-0.4036,0.8433,0.3396,-1.435,-4.095,-3.710,425,423,384,377,390,2025-06-04T19:55:07.050951
5719,-0.3924,0.8398,0.3431,-1.225,-3.570,-3.080,403,424,345,384,411,2025-06-04T19:55:07.050951
5720,-0.4002,0.8428,0.3436,-1.155,-3.220,-2.590,390,359,349,339,395,2025-06-04T19:55:07.050951
5721,-0.3977,0.8374,0.3372,-0.945,-3.185,-2.135,406,384,325,371,389,2025-06-04T19:55:07.050951
5722,-0.3967,0.8408,0.3387,-0.805,-2.660,-1.855,391,420,368,402,394,2025-06-04T19:55:07.050951
5723,-0.4031,0.8452,0.3426,-0.770,-1.960,-1.715,367,348,304,387,403,2025-06-04T19:55:07.050951
5724,-0.4002,0.8418,0.3396,-0.595,-2.240,-1.470,404,369,350,388,402,2025-06-04T19:55:07.050951
5725,-0.4075,0.8389,0.3343,-0.980,-3.500,-0.980,407,396,376,396,356,2025-06-04T19:55:07.050951
5726,-0.4119,0.8355,0.3309,-0.840,-5.110,-0.805,404,405,389,382,398,2025-06-04T19:55:07.050951
5727,-0.4006,0.8355,0.3294,-0.805,-6.475,-0.875,390,413,385,392,403,2025-06-04T19:55:07.050951
5728,-0.3953,0.8296,0.3265,-0.980,-6.580,-1.190,398,433,386,393,405,2025-06-04T19:55:07.050951
5729,-0.3870,0.8296,0.3265,-0.700,-5.775,-1.400,410,411,382,402,398,2025-06-04T19:55:07.050951
5730,-0.3845,0.8281,0.3299,-0.805,-4.480,-1.365,403,392,394,418,407,2025-06-04T19:55:07.057773
5731,-0.3880,0.8281,0.3299,-0.770,-3.150,-1.715,418,414,320,407,404,2025-06-04T19:55:07.057773
5732,-0.3938,0.8242,0.3187,-1.120,-2.135,-1.855,382,406,313,401,400,2025-06-04T19:55:07.057773
5733,-0.4080,0.8189,0.3123,-1.260,-1.645,-1.890,419,412,341,391,404,2025-06-04T19:55:07.057773
5734,-0.4099,0.8213,0.3201,-1.365,-2.205,-1.890,420,407,359,388,412,2025-06-04T19:55:07.057773
5735,-0.4099,0.8184,0.3206,-1.610,-3.360,-1.960,363,406,377,414,405,2025-06-04T19:55:07.057773
5736,-0.4041,0.8189,0.3221,-1.960,-3.780,-2.345,394,425,368,353,391,2025-06-04T19:55:07.057773
5737,-0.3967,0.8194,0.3260,-2.135,-3.430,-3.080,338,421,370,337,403,2025-06-04T19:55:07.057773
5738,-0.3987,0.8159,0.3265,-2.380,-3.150,-3.675,378,434,382,334,410,2025-06-04T19:55:07.185772
5739,-0.4011,0.8159,0.3255,-2.520,-2.940,-4.410,407,405,391,389,405,2025-06-04T19:55:07.186140
5740,-0.4094,0.8189,0.3328,-2.555,-2.765,-4.760,398,406,382,407,399,2025-06-04T19:55:07.186140
5741,-0.4202,0.8272,0.3421,-2.660,-3.080,-5.460,431,430,376,360,312,2025-06-04T19:55:07.186140
5742,-0.4241,0.8252,0.3431,-2.730,-4.130,-5.740,375,430,371,381,376,2025-06-04T19:55:07.186140
5743,-0.4290,0.8286,0.3431,-2.695,-6.090,-5.600,385,350,343,402,402,2025-06-04T19:55:07.186140
5744,-0.4299,0.8325,0.3499,-2.310,-7.875,-5.600,398,413,351,409,404,2025-06-04T19:55:07.186140
5745,-0.4211,0.8369,0.3538,-2.240,-9.100,-5.705,400,423,360,417,403,2025-06-04T19:55:07.186140
5746,-0.4270,0.8296,0.3553,-1.995,-10.045,-5.705,417,402,381,406,415,2025-06-04T19:55:07.186140
5747,-0.4202,0.8384,0.3597,-1.575,-10.885,-5.215,417,409,371,396,370,2025-06-04T19:55:07.382720
5748,-0.4216,0.8374,0.3601,-1.925,-10.640,-5.425,402,429,383,391,394,2025-06-04T19:55:07.382720
5749,-0.4114,0.8398,0.3562,-2.030,-9.520,-5.320,427,400,393,405,349,2025-06-04T19:55:07.382720
5750,-0.4172,0.8320,0.3509,-1.925,-9.030,-5.110,395,401,386,396,329,2025-06-04T19:55:07.382720
5751,-0.4275,0.8398,0.3518,-2.170,-9.275,-4.900,422,411,372,359,362,2025-06-04T19:55:07.382720
5752,-0.4324,0.8491,0.3582,-2.030,-9.765,-4.795,406,411,364,400,338,2025-06-04T19:55:07.382720
5753,-0.4304,0.8442,0.3577,-2.590,-11.515,-4.620,347,393,383,411,377,2025-06-04T19:55:07.382720
5754,-0.4285,0.8438,0.3543,-3.185,-13.405,-4.480,402,420,352,402,406,2025-06-04T19:55:07.382720
5755,-0.4158,0.8403,0.3509,-3.290,-14.875,-4.550,414,428,331,372,390,2025-06-04T19:55:07.382720
5756,-0.4124,0.8316,0.3470,-3.290,-15.995,-4.550,418,426,366,386,368,2025-06-04T19:55:07.382720
5757,-0.4094,0.8301,0.3401,-3.360,-16.975,-4.410,419,417,362,405,396,2025-06-04T19:55:07.382720
5758,-0.4055,0.8325,0.3401,-3.290,-17.850,-4.620,411,399,361,353,395,2025-06-04T19:55:07.382720
5759,-0.3909,0.8301,0.3357,-3.430,-17.150,-5.005,409,343,378,376,354,2025-06-04T19:55:07.382720
5760,-0.3797,0.8276,0.3255,-3.675,-14.735,-4.935,403,378,389,375,386,2025-06-04T19:55:07.382720
5761,-0.3821,0.8252,0.3221,-3.745,-11.585,-4.830,381,404,395,386,390,2025-06-04T19:55:07.382720
5762,-0.3958,0.8252,0.3231,-3.710,-9.170,-4.690,361,344,384,396,356,2025-06-04T19:55:07.382720
5763,-0.4124,0.8242,0.3299,-3.850,-8.925,-4.165,414,404,395,405,332,2025-06-04T19:55:07.382720
5764,-0.4192,0.8189,0.3289,-4.375,-9.660,-3.640,301,419,387,405,370,2025-06-04T19:55:07.557701
5765,-0.4241,0.8228,0.3284,-4.725,-11.060,-2.905,343,405,388,358,380,2025-06-04T19:55:07.557701
5766,-0.4197,0.8189,0.3284,-4.655,-11.480,-2.590,380,394,343,383,401,2025-06-04T19:55:07.557701
5767,-0.4036,0.8198,0.3353,-4.585,-10.220,-2.415,404,388,334,409,404,2025-06-04T19:55:07.557701
5768,-0.4138,0.8662,0.3231,-4.095,-8.680,-2.660,379,404,320,370,359,2025-06-04T19:55:07.557701
5769,-0.4358,0.8286,0.3221,-5.320,-6.720,-1.155,396,385,339,404,382,2025-06-04T19:55:07.557701
5770,-0.4046,0.8086,0.3421,-3.535,-5.250,-1.645,414,294,328,352,357,2025-06-04T19:55:07.557701
5771,-0.4006,0.8115,0.3479,-4.690,-5.180,-1.750,400,371,349,367,398,2025-06-04T19:55:07.558284
5772,-0.4026,0.8223,0.3538,-4.795,-5.075,-1.750,354,388,343,402,408,2025-06-04T19:55:07.558284
5773,-0.4006,0.8237,0.3509,-3.990,-4.305,-1.400,368,376,362,368,407,2025-06-04T19:55:07.558284
5774,-0.4031,0.8203,0.3499,-4.620,-3.955,-1.260,393,426,369,396,418,2025-06-04T19:55:07.558284
5775,-0.4031,0.8228,0.3572,-4.795,-3.640,-1.225,410,439,376,351,408,2025-06-04T19:55:07.558284
5776,-0.4065,0.8237,0.3616,-4.620,-3.185,-0.735,402,431,388,385,398,2025-06-04T19:55:07.558284
5777,-0.4172,0.8179,0.3631,-4.725,-3.570,-0.315,396,367,377,379,389,2025-06-04T19:55:07.558284
5778,-0.4324,0.8179,0.3689,-5.145,-5.075,0.105,407,383,374,412,374,2025-06-04T19:55:07.558284
5779,-0.4470,0.8164,0.3792,-5.250,-8.540,0.525,430,379,367,390,400,2025-06-04T19:55:07.558284
5780,-0.4412,0.8145,0.3836,-5.145,-12.285,1.085,351,407,336,355,386,2025-06-04T19:55:07.677672
5781,-0.4285,0.8062,0.3811,-4.690,-15.085,1.960,408,379,352,401,387,2025-06-04T19:55:07.677672
5782,-0.4211,0.8023,0.3870,-4.970,-16.275,2.730,411,388,370,354,380,2025-06-04T19:55:07.677672
5783,-0.4016,0.8047,0.3958,-4.410,-15.925,3.150,420,372,383,397,402,2025-06-04T19:55:07.677672
5784,-0.3967,0.7974,0.3919,-4.305,-14.385,3.290,415,422,395,406,399,2025-06-04T19:55:07.677672
5785,-0.3831,0.7998,0.3943,-3.675,-11.550,3.290,348,422,316,387,390,2025-06-04T19:55:07.677672
5786,-0.3719,0.7945,0.3894,-3.220,-7.105,2.835,408,433,348,396,410,2025-06-04T19:55:07.677672
5787,-0.3811,0.7915,0.3855,-2.660,-2.940,2.520,399,407,357,405,402,2025-06-04T19:55:07.677672
5788,-0.3933,0.7925,0.3919,-1.925,-1.050,2.520,375,413,369,390,401,2025-06-04T19:55:07.678724
5789,-0.4124,0.7910,0.3919,-1.260,-1.400,2.485,408,430,382,378,416,2025-06-04T19:55:07.678724
5790,-0.4202,0.7974,0.3943,-0.770,-3.465,2.310,346,429,379,384,396,2025-06-04T19:55:07.761374
5791,-0.4241,0.7925,0.3870,-0.350,-5.845,1.995,414,418,387,392,355,2025-06-04T19:55:07.761374
5792,-0.4124,0.7969,0.3806,0.070,-7.455,1.820,341,402,377,387,382,2025-06-04T19:55:07.761720
5793,-0.4060,0.7920,0.3787,0.350,-7.315,1.400,400,403,391,393,406,2025-06-04T19:55:07.761720
5794,-0.3884,0.7950,0.3797,0.875,-6.055,1.260,430,407,391,410,401,2025-06-04T19:55:07.761720
5795,-0.3938,0.7925,0.3884,0.665,-3.955,1.155,406,424,359,388,359,2025-06-04T19:55:07.761720
5796,-0.4046,0.7964,0.3899,0.805,-3.185,1.050,414,430,383,404,387,2025-06-04T19:55:07.761720
5797,-0.4148,0.7993,0.3889,0.805,-3.465,1.050,422,420,374,405,396,2025-06-04T19:55:07.811207
5798,-0.4216,0.7969,0.3865,0.630,-4.830,0.945,418,424,336,412,415,2025-06-04T19:55:07.811207
5799,-0.4197,0.7998,0.3850,0.560,-6.125,0.805,395,402,327,408,374,2025-06-04T19:55:07.811207
5800,-0.4085,0.7950,0.3870,0.700,-6.370,0.490,412,424,356,415,380,2025-06-04T19:55:07.811207
5801,-0.4002,0.8023,0.3909,0.525,-5.425,0.420,390,426,367,417,397,2025-06-04T19:55:08.085112
5802,-0.4094,0.8037,0.3914,0.560,-4.970,0.525,382,430,382,421,403,2025-06-04T19:55:08.085668
5803,-0.4153,0.8018,0.3919,0.665,-5.635,0.455,396,421,377,397,400,2025-06-04T19:55:08.085668
5804,-0.4221,0.8023,0.3963,1.015,-7.210,0.420,366,419,375,393,398,2025-06-04T19:55:08.085668
5805,-0.4270,0.8067,0.3987,1.470,-8.960,0.385,375,419,373,390,399,2025-06-04T19:55:08.085668
5806,-0.4085,0.8037,0.3992,1.680,-9.450,0.665,409,406,343,346,388,2025-06-04T19:55:08.085668
5807,-0.4055,0.8062,0.3938,1.995,-9.135,0.945,348,394,368,401,406,2025-06-04T19:55:08.085668
5808,-0.4016,0.8067,0.3899,1.960,-8.085,0.875,410,408,390,417,405,2025-06-04T19:55:08.085668
5809,-0.3997,0.8081,0.3914,2.135,-6.545,1.155,406,403,389,408,394,2025-06-04T19:55:08.085668
5810,-0.4094,0.8115,0.3884,2.310,-5.600,1.365,402,405,391,413,389,2025-06-04T19:55:08.085668
5811,-0.4138,0.8096,0.3845,2.520,-5.530,1.225,414,419,396,371,405,2025-06-04T19:55:08.085668
5812,-0.4163,0.8150,0.3850,2.240,-5.985,1.470,413,416,385,402,400,2025-06-04T19:55:08.085668
5813,-0.4221,0.8164,0.3797,1.890,-6.825,1.750,430,434,383,395,388,2025-06-04T19:55:08.085668
5814,-0.4207,0.8159,0.3816,1.540,-7.875,1.680,306,365,378,405,385,2025-06-04T19:55:08.085668
5815,-0.4158,0.8145,0.3802,1.155,-8.750,1.925,375,338,387,349,386,2025-06-04T19:55:08.085668
5816,-0.4109,0.8140,0.3777,1.260,-8.680,2.030,413,400,392,397,404,2025-06-04T19:55:08.196319
5817,-0.4002,0.8145,0.3802,1.365,-8.050,2.135,427,419,392,414,399,2025-06-04T19:55:08.197338
5818,-0.4006,0.8154,0.3875,1.540,-6.965,2.345,410,402,388,415,385,2025-06-04T19:55:08.197338
5819,-0.4109,0.8135,0.3841,1.225,-6.685,2.485,412,412,388,415,398,2025-06-04T19:55:08.197338
5820,-0.4094,0.8111,0.3762,1.400,-7.595,2.870,429,401,376,397,405,2025-06-04T19:55:08.197338
5821,-0.4055,0.8330,0.3636,1.960,-8.155,3.570,418,348,391,399,395,2025-06-04T19:55:08.197338
5822,-0.4226,0.8198,0.3762,0.770,-8.820,3.535,398,406,404,416,351,2025-06-04T19:55:08.197338
5823,-0.3967,0.8072,0.3762,0.595,-7.700,2.905,411,430,398,373,386,2025-06-04T19:55:08.197338
5824,-0.3938,0.8111,0.3738,1.085,-6.790,3.080,413,398,357,385,397,2025-06-04T19:55:08.197338
5825,-0.3914,0.8096,0.3762,0.595,-6.650,3.465,413,391,368,397,397,2025-06-04T19:55:08.197338
5826,-0.3953,0.8115,0.3738,0.980,-6.615,3.745,341,404,374,411,388,2025-06-04T19:55:08.197338
5827,-0.4085,0.8101,0.3728,1.015,-6.895,3.115,335,405,383,421,396,2025-06-04T19:55:08.197338
5828,-0.4036,0.8198,0.3753,1.085,-7.560,2.660,415,412,375,418,408,2025-06-04T19:55:08.197338
5829,-0.4119,0.8208,0.3782,0.980,-8.050,2.345,374,422,377,395,404,2025-06-04T19:55:08.197338
5830,-0.4114,0.8194,0.3772,1.190,-8.785,2.310,359,420,389,397,395,2025-06-04T19:55:08.197338
5831,-0.4089,0.8169,0.3797,0.910,-9.590,2.415,407,401,390,418,371,2025-06-04T19:55:08.197338
5832,-0.4065,0.8208,0.3860,1.155,-10.220,2.835,411,401,391,390,384,2025-06-04T19:55:08.197338
5833,-0.3972,0.8194,0.3831,1.610,-10.185,3.185,402,399,387,403,406,2025-06-04T19:55:08.245154
5834,-0.3943,0.8189,0.3836,2.170,-9.730,3.500,403,424,380,412,392,2025-06-04T19:55:08.245154
5835,-0.3880,0.8198,0.3811,2.625,-9.275,3.955,426,305,387,410,418,2025-06-04T19:55:08.245154
5836,-0.3894,0.8223,0.3831,3.115,-8.645,4.060,395,370,387,406,411,2025-06-04T19:55:08.245154
5837,-0.3958,0.8252,0.3826,3.395,-8.470,4.025,406,406,394,416,415,2025-06-04T19:55:08.495752
5838,-0.3889,0.8247,0.3870,3.570,-8.995,4.200,342,429,397,408,378,2025-06-04T19:55:08.495752
5839,-0.3919,0.8252,0.3831,3.325,-9.660,4.585,385,417,388,403,340,2025-06-04T19:55:08.495752
5840,-0.3997,0.8237,0.3743,3.325,-10.430,4.305,367,415,391,413,363,2025-06-04T19:55:08.495752
5841,-0.3909,0.8257,0.3699,3.010,-10.605,4.480,406,398,352,411,338,2025-06-04T19:55:08.495752
5842,-0.3836,0.8306,0.3684,2.730,-10.290,4.760,418,425,362,415,329,2025-06-04T19:55:08.495752
5843,-0.3870,0.8252,0.3655,2.275,-9.625,4.900,396,429,368,356,381,2025-06-04T19:55:08.495752
5844,-0.3836,0.8247,0.3714,2.065,-9.205,5.040,403,421,363,402,395,2025-06-04T19:55:08.495752
5845,-0.3855,0.8223,0.3733,1.470,-9.065,5.355,426,403,374,411,405,2025-06-04T19:55:08.495752
5846,-0.3909,0.8194,0.3694,1.575,-9.345,5.425,345,395,378,357,404,2025-06-04T19:55:08.495752
5847,-0.3826,0.8194,0.3777,1.435,-9.380,5.565,401,417,380,404,353,2025-06-04T19:55:08.495752
5848,-0.3797,0.8198,0.3782,1.085,-9.415,5.565,383,422,391,405,375,2025-06-04T19:55:08.495752
5849,-0.3826,0.8154,0.3709,1.015,-9.800,5.250,396,368,340,412,395,2025-06-04T19:55:08.495752
5850,-0.3811,0.8159,0.3699,1.225,-10.465,4.795,396,403,357,415,381,2025-06-04T19:55:08.595828
5851,-0.3719,0.8145,0.3772,1.365,-10.570,4.515,390,361,371,406,382,2025-06-04T19:55:08.596425
5852,-0.3621,0.8194,0.3767,1.960,-9.625,4.410,419,418,369,389,388,2025-06-04T19:55:08.857652
5853,-0.3611,0.8335,0.3689,2.520,-7.980,4.235,428,382,388,357,405,2025-06-04T19:55:08.857652
5854,-0.3611,0.8164,0.3787,2.205,-6.440,4.900,421,396,392,405,409,2025-06-04T19:55:08.857652
5855,-0.3601,0.8208,0.3860,2.520,-6.195,4.760,407,404,363,406,414,2025-06-04T19:55:08.857652
5856,-0.3704,0.8203,0.3743,2.310,-7.630,4.690,418,413,375,408,414,2025-06-04T19:55:08.857652
5857,-0.3631,0.8154,0.3826,2.590,-9.835,4.550,377,421,382,416,395,2025-06-04T19:55:08.857652
5858,-0.3436,0.8233,0.3777,2.555,-10.185,3.955,333,396,376,394,404,2025-06-04T19:55:08.857652
5859,-0.3338,0.8189,0.3753,3.290,-9.170,3.500,380,404,344,407,411,2025-06-04T19:55:08.857652
5860,-0.3250,0.8262,0.3792,3.045,-7.350,3.150,405,429,352,353,410,2025-06-04T19:55:08.857652
5861,-0.3411,0.8272,0.3782,3.430,-6.335,2.765,426,409,366,403,411,2025-06-04T19:55:08.857652
5862,-0.3455,0.8320,0.3699,3.465,-5.845,2.555,412,415,363,345,354,2025-06-04T19:55:08.857652
5863,-0.3645,0.8257,0.3670,3.360,-6.755,2.450,387,349,331,385,375,2025-06-04T19:55:08.857652
5864,-0.3611,0.8301,0.3704,3.395,-8.295,2.590,388,356,331,387,397,2025-06-04T19:55:08.857652
