SeqNum,AccX,AccY,AccZ,GyroX,GyroY,GyroZ,Flex,Force1,Force2,Force3,Force4,TimestampReception
30039,0.0000,0.0000,0.0000,0.000,0.000,0.000,451,417,282,416,332,2025-05-23T21:57:55.756480
30040,0.0000,0.0000,0.0000,0.000,0.000,0.000,502,468,342,532,419,2025-05-23T21:57:55.756570
30041,0.0000,0.0000,0.0000,0.000,0.000,0.000,465,419,362,583,426,2025-05-23T21:57:55.756589
30042,0.0000,0.0000,0.0000,0.000,0.000,0.000,417,414,387,596,405,2025-05-23T21:57:55.756602
30043,0.0000,0.0000,0.0000,0.000,0.000,0.000,408,426,386,578,400,2025-05-23T21:57:55.756619
30044,0.0000,0.0000,0.0000,0.000,0.000,0.000,426,407,395,578,409,2025-05-23T21:57:55.806088
30045,0.0000,0.0000,0.0000,0.000,0.000,0.000,422,396,396,578,399,2025-05-23T21:57:55.806132
30046,0.0000,0.0000,0.0000,0.000,0.000,0.000,401,419,396,581,396,2025-05-23T21:57:55.806144
30047,0.0000,0.0000,0.0000,0.000,0.000,0.000,371,409,385,550,389,2025-05-23T21:57:55.806153
30048,0.0000,0.0000,0.0000,0.000,0.000,0.000,420,416,355,540,409,2025-05-23T21:57:55.916595
30049,0.0000,0.0000,0.0000,0.000,0.000,0.000,403,430,371,553,395,2025-05-23T21:57:55.916648
30050,0.0000,0.0000,0.0000,0.000,0.000,0.000,402,358,344,528,394,2025-05-23T21:57:55.916681
30051,0.0000,0.0000,0.0000,0.000,0.000,0.000,422,411,368,525,382,2025-05-23T21:57:55.916694
30052,0.0000,0.0000,0.0000,0.000,0.000,0.000,405,403,383,518,355,2025-05-23T21:57:55.916706
30053,0.0000,0.0000,0.0000,0.000,0.000,0.000,425,339,391,514,331,2025-05-23T21:57:55.916717
30054,0.0000,0.0000,0.0000,0.000,0.000,0.000,417,397,399,505,371,2025-05-23T21:57:55.916728
30055,0.0000,0.0000,0.0000,0.000,0.000,0.000,408,363,388,534,346,2025-05-23T21:57:55.916739
30056,0.0000,0.0000,0.0000,0.000,0.000,0.000,423,410,393,526,397,2025-05-23T21:57:55.916750
30057,0.0000,0.0000,0.0000,0.000,0.000,0.000,352,416,399,529,409,2025-05-23T21:57:55.916768
30058,0.0000,0.0000,0.0000,0.000,0.000,0.000,410,372,389,519,396,2025-05-23T21:57:55.916779
30059,0.0000,0.0000,0.0000,0.000,0.000,0.000,428,423,393,521,404,2025-05-23T21:57:56.128815
30060,0.0000,0.0000,0.0000,0.000,0.000,0.000,415,395,381,505,399,2025-05-23T21:57:56.128858
30061,0.0000,0.0000,0.0000,0.000,0.000,0.000,404,423,378,522,412,2025-05-23T21:57:56.128868
30062,0.0000,0.0000,0.0000,0.000,0.000,0.000,423,425,375,516,365,2025-05-23T21:57:56.128876
30063,0.0000,0.0000,0.0000,0.000,0.000,0.000,360,373,383,515,391,2025-05-23T21:57:56.128884
30064,0.0000,0.0000,0.0000,0.000,0.000,0.000,328,396,388,500,406,2025-05-23T21:57:56.128902
30065,0.0000,0.0000,0.0000,0.000,0.000,0.000,343,420,394,524,365,2025-05-23T21:57:56.128912
30066,0.0000,0.0000,0.0000,0.000,0.000,0.000,383,392,398,423,393,2025-05-23T21:57:56.128920
30067,0.0000,0.0000,0.0000,0.000,0.000,0.000,384,378,401,481,414,2025-05-23T21:57:56.128927
30068,0.0000,0.0000,0.0000,0.000,0.000,0.000,412,374,402,495,404,2025-05-23T21:57:56.128934
30069,0.0000,0.0000,0.0000,0.000,0.000,0.000,366,395,388,472,317,2025-05-23T21:57:56.128941
30070,0.0000,0.0000,0.0000,0.000,0.000,0.000,401,423,379,484,384,2025-05-23T21:57:56.128948
30071,0.0000,0.0000,0.0000,0.000,0.000,0.000,383,392,388,499,386,2025-05-23T21:57:56.128959
30072,0.0000,0.0000,0.0000,0.000,0.000,0.000,411,399,392,513,388,2025-05-23T21:57:56.128967
30073,0.0000,0.0000,0.0000,0.000,0.000,0.000,360,398,384,447,403,2025-05-23T21:57:56.128974
30074,0.0000,0.0000,0.0000,0.000,0.000,0.000,394,374,382,510,352,2025-05-23T21:57:56.129007
30075,0.0000,0.0000,0.0000,0.000,0.000,0.000,354,399,393,483,385,2025-05-23T21:57:56.129015
30076,0.0000,0.0000,0.0000,0.000,0.000,0.000,390,422,401,490,405,2025-05-23T21:57:56.129021
30077,0.0000,0.0000,0.0000,0.000,0.000,0.000,410,418,396,504,371,2025-05-23T21:57:56.129028
30078,0.0000,0.0000,0.0000,0.000,0.000,0.000,415,398,392,506,397,2025-05-23T21:57:56.326803
30079,0.0000,0.0000,0.0000,0.000,0.000,0.000,393,419,394,501,402,2025-05-23T21:57:56.326870
30080,0.0000,0.0000,0.0000,0.000,0.000,0.000,423,428,394,454,406,2025-05-23T21:57:56.326883
30081,0.0000,0.0000,0.0000,0.000,0.000,0.000,408,429,392,486,419,2025-05-23T21:57:56.326894
30082,0.0000,0.0000,0.0000,0.000,0.000,0.000,415,422,399,487,416,2025-05-23T21:57:56.326905
30083,0.0000,0.0000,0.0000,0.000,0.000,0.000,410,414,402,513,403,2025-05-23T21:57:56.326914
30084,0.0000,0.0000,0.0000,0.000,0.000,0.000,419,420,386,511,398,2025-05-23T21:57:56.326923
30085,0.0000,0.0000,0.0000,0.000,0.000,0.000,360,308,374,510,396,2025-05-23T21:57:56.326940
30086,0.0000,0.0000,0.0000,0.000,0.000,0.000,386,346,349,491,385,2025-05-23T21:57:56.326949
30087,0.0000,0.0000,0.0000,0.000,0.000,0.000,405,393,361,493,397,2025-05-23T21:57:56.326957
30088,0.0000,0.0000,0.0000,0.000,0.000,0.000,344,362,372,449,381,2025-05-23T21:57:56.326965
30089,0.0000,0.0000,0.0000,0.000,0.000,0.000,400,420,389,498,407,2025-05-23T21:57:56.326974
30090,0.0000,0.0000,0.0000,0.000,0.000,0.000,403,411,376,493,392,2025-05-23T21:57:56.326982
30091,0.0000,0.0000,0.0000,0.000,0.000,0.000,378,403,376,459,389,2025-05-23T21:57:56.326991
30092,0.0000,0.0000,0.0000,0.000,0.000,0.000,401,428,382,500,389,2025-05-23T21:57:56.327004
30093,0.0000,0.0000,0.0000,0.000,0.000,0.000,390,407,380,480,403,2025-05-23T21:57:56.327045
30094,0.0000,0.0000,0.0000,0.000,0.000,0.000,417,408,382,484,355,2025-05-23T21:57:56.327054
30095,0.0000,0.0000,0.0000,0.000,0.000,0.000,423,399,372,481,386,2025-05-23T21:57:56.327062
30096,0.0000,0.0000,0.0000,0.000,0.000,0.000,410,420,344,459,391,2025-05-23T21:57:56.327072
30097,0.0000,0.0000,0.0000,0.000,0.000,0.000,427,414,372,440,400,2025-05-23T21:57:56.548048
30098,0.0000,0.0000,0.0000,0.000,0.000,0.000,357,415,378,498,408,2025-05-23T21:57:56.548075
30099,0.0000,0.0000,0.0000,0.000,0.000,0.000,410,416,377,489,412,2025-05-23T21:57:56.548091
30100,0.0000,0.0000,0.0000,0.000,0.000,0.000,420,352,358,483,390,2025-05-23T21:57:56.548096
30101,0.0000,0.0000,0.0000,0.000,0.000,0.000,361,406,379,480,396,2025-05-23T21:57:56.548101
30102,0.0000,0.0000,0.0000,0.000,0.000,0.000,411,414,383,495,397,2025-05-23T21:57:56.548106
30103,0.0000,0.0000,0.0000,0.000,0.000,0.000,421,415,383,489,390,2025-05-23T21:57:56.548110
30104,0.0000,0.0000,0.0000,0.000,0.000,0.000,401,432,355,490,388,2025-05-23T21:57:56.548115
30105,0.0000,0.0000,0.0000,0.000,0.000,0.000,382,399,367,473,396,2025-05-23T21:57:56.548120
30106,0.0000,0.0000,0.0000,0.000,0.000,0.000,372,374,374,481,350,2025-05-23T21:57:56.548129
30107,0.0000,0.0000,0.0000,0.000,0.000,0.000,409,422,379,486,382,2025-05-23T21:57:56.548133
30108,0.0000,0.0000,0.0000,0.000,0.000,0.000,426,429,385,498,349,2025-05-23T21:57:56.548137
30109,0.0000,0.0000,0.0000,0.000,0.000,0.000,419,422,383,483,371,2025-05-23T21:57:56.548141
30110,0.0000,0.0000,0.0000,0.000,0.000,0.000,423,422,392,484,347,2025-05-23T21:57:56.548145
30111,0.0000,0.0000,0.0000,0.000,0.000,0.000,406,352,398,436,390,2025-05-23T21:57:56.548149
30112,0.0000,0.0000,0.0000,0.000,0.000,0.000,413,380,358,495,346,2025-05-23T21:57:56.548170
30113,0.0000,0.0000,0.0000,0.000,0.000,0.000,425,393,366,497,383,2025-05-23T21:57:56.548177
30114,0.0000,0.0000,0.0000,0.000,0.000,0.000,419,387,384,442,411,2025-05-23T21:57:56.548198
30115,0.0000,0.0000,0.0000,0.000,0.000,0.000,395,407,389,487,408,2025-05-23T21:57:56.548202
30116,0.0000,0.0000,0.0000,0.000,0.000,0.000,393,414,379,491,407,2025-05-23T21:57:56.548206
30117,0.0000,0.0000,0.0000,0.000,0.000,0.000,393,403,383,489,408,2025-05-23T21:57:56.735687
30118,0.0000,0.0000,0.0000,0.000,0.000,0.000,371,337,384,454,403,2025-05-23T21:57:56.735713
30119,0.0000,0.0000,0.0000,0.000,0.000,0.000,414,383,383,491,390,2025-05-23T21:57:56.735718
30120,0.0000,0.0000,0.0000,0.000,0.000,0.000,383,415,346,451,392,2025-05-23T21:57:56.735731
30121,0.0000,0.0000,0.0000,0.000,0.000,0.000,350,407,358,495,353,2025-05-23T21:57:56.735736
30122,0.0000,0.0000,0.0000,0.000,0.000,0.000,331,399,364,498,399,2025-05-23T21:57:56.735740
30123,0.0000,0.0000,0.0000,0.000,0.000,0.000,373,422,383,490,393,2025-05-23T21:57:56.735744
30124,0.0000,0.0000,0.0000,0.000,0.000,0.000,386,389,376,449,387,2025-05-23T21:57:56.735749
30125,0.0000,0.0000,0.0000,0.000,0.000,0.000,406,393,387,479,402,2025-05-23T21:57:56.735752
30126,0.0000,0.0000,0.0000,0.000,0.000,0.000,379,421,395,435,407,2025-05-23T21:57:56.735756
30127,0.0000,0.0000,0.0000,0.000,0.000,0.000,381,400,388,440,414,2025-05-23T21:57:56.735760
30128,0.0000,0.0000,0.0000,0.000,0.000,0.000,420,404,348,493,397,2025-05-23T21:57:56.736482
30129,0.0000,0.0000,0.0000,0.000,0.000,0.000,411,403,378,492,398,2025-05-23T21:57:56.736498
30130,0.0000,0.0000,0.0000,0.000,0.000,0.000,404,411,386,490,389,2025-05-23T21:57:56.736502
30131,0.0000,0.0000,0.0000,0.000,0.000,0.000,390,409,392,492,349,2025-05-23T21:57:56.736506
30132,0.0000,0.0000,0.0000,0.000,0.000,0.000,409,421,397,496,381,2025-05-23T21:57:56.736532
30133,0.0000,0.0000,0.0000,0.000,0.000,0.000,389,397,391,498,383,2025-05-23T21:57:56.736536
30134,0.0000,0.0000,0.0000,0.000,0.000,0.000,388,362,381,487,398,2025-05-23T21:57:56.736540
30135,0.0000,0.0000,0.0000,0.000,0.000,0.000,402,338,354,500,393,2025-05-23T21:57:56.947570
30136,0.0000,0.0000,0.0000,0.000,0.000,0.000,409,407,377,489,404,2025-05-23T21:57:56.947595
30137,0.0000,0.0000,0.0000,0.000,0.000,0.000,401,390,382,497,396,2025-05-23T21:57:56.947600
30138,0.0000,0.0000,0.0000,0.000,0.000,0.000,423,401,389,494,400,2025-05-23T21:57:56.947605
30139,0.0000,0.0000,0.0000,0.000,0.000,0.000,357,401,391,444,358,2025-05-23T21:57:56.947626
30140,0.0000,0.0000,0.0000,0.000,0.000,0.000,356,430,402,491,390,2025-05-23T21:57:56.947631
30141,0.0000,0.0000,0.0000,0.000,0.000,0.000,412,432,368,494,311,2025-05-23T21:57:56.947635
30142,0.0000,0.0000,0.0000,0.000,0.000,0.000,416,406,335,500,364,2025-05-23T21:57:56.947648
30143,0.0000,0.0000,0.0000,0.000,0.000,0.000,422,404,294,499,378,2025-05-23T21:57:56.947652
30144,0.0000,0.0000,0.0000,0.000,0.000,0.000,412,412,348,493,397,2025-05-23T21:57:56.947656
30145,0.0000,0.0000,0.0000,0.000,0.000,0.000,418,434,369,481,397,2025-05-23T21:57:56.947661
30146,0.0000,0.0000,0.0000,0.000,0.000,0.000,432,368,370,487,394,2025-05-23T21:57:56.947665
30147,0.0000,0.0000,0.0000,0.000,0.000,0.000,365,386,345,490,404,2025-05-23T21:57:56.947669
30148,0.0000,0.0000,0.0000,0.000,0.000,0.000,390,418,372,445,400,2025-05-23T21:57:56.947674
30149,0.0000,0.0000,0.0000,0.000,0.000,0.000,405,407,381,486,358,2025-05-23T21:57:56.947679
30150,0.0000,0.0000,0.0000,0.000,0.000,0.000,424,401,381,477,389,2025-05-23T21:57:56.947701
30151,0.0000,0.0000,0.0000,0.000,0.000,0.000,398,426,388,488,388,2025-05-23T21:57:56.947705
30152,0.0000,0.0000,0.0000,0.000,0.000,0.000,415,421,377,476,389,2025-05-23T21:57:56.947709
30153,0.0000,0.0000,0.0000,0.000,0.000,0.000,418,418,392,482,352,2025-05-23T21:57:57.146322
30154,0.0000,0.0000,0.0000,0.000,0.000,0.000,402,427,389,494,391,2025-05-23T21:57:57.146368
30155,0.0000,0.0000,0.0000,0.000,0.000,0.000,409,413,393,494,391,2025-05-23T21:57:57.146380
30156,0.0000,0.0000,0.0000,0.000,0.000,0.000,419,403,390,485,408,2025-05-23T21:57:57.146413
30157,0.0000,0.0000,0.0000,0.000,0.000,0.000,381,415,351,489,415,2025-05-23T21:57:57.146424
30158,0.0000,0.0000,0.0000,0.000,0.000,0.000,413,403,364,460,361,2025-05-23T21:57:57.146433
30159,0.0000,0.0000,0.0000,0.000,0.000,0.000,399,412,336,449,340,2025-05-23T21:57:57.146444
30160,0.0000,0.0000,0.0000,0.000,0.000,0.000,400,405,352,486,368,2025-05-23T21:57:57.146454
30161,0.0000,0.0000,0.0000,0.000,0.000,0.000,419,429,360,486,347,2025-05-23T21:57:57.146464
30162,0.0000,0.0000,0.0000,0.000,0.000,0.000,401,424,385,499,365,2025-05-23T21:57:57.146473
30163,0.0000,0.0000,0.0000,0.000,0.000,0.000,413,427,384,497,388,2025-05-23T21:57:57.146486
30164,0.0000,0.0000,0.0000,0.000,0.000,0.000,422,436,382,485,398,2025-05-23T21:57:57.146495
30165,0.0000,0.0000,0.0000,0.000,0.000,0.000,425,406,353,486,411,2025-05-23T21:57:57.146503
30166,0.0000,0.0000,0.0000,0.000,0.000,0.000,421,427,364,467,391,2025-05-23T21:57:57.146512
30167,0.0000,0.0000,0.0000,0.000,0.000,0.000,419,406,383,488,351,2025-05-23T21:57:57.146520
30168,0.0000,0.0000,0.0000,0.000,0.000,0.000,426,412,384,488,368,2025-05-23T21:57:57.146532
30169,0.0000,0.0000,0.0000,0.000,0.000,0.000,429,408,357,494,389,2025-05-23T21:57:57.146572
30170,0.0000,0.0000,0.0000,0.000,0.000,0.000,427,347,373,504,405,2025-05-23T21:57:57.146584
30171,0.0000,0.0000,0.0000,0.000,0.000,0.000,401,396,389,504,357,2025-05-23T21:57:57.146593
30172,0.0000,0.0000,0.0000,0.000,0.000,0.000,407,422,384,487,378,2025-05-23T21:57:57.146601
30173,0.0000,0.0000,0.0000,0.000,0.000,0.000,424,427,390,497,404,2025-05-23T21:57:57.350732
30174,0.0000,0.0000,0.0000,0.000,0.000,0.000,413,405,394,506,359,2025-05-23T21:57:57.350782
30175,0.0000,0.0000,0.0000,0.000,0.000,0.000,410,405,381,482,342,2025-05-23T21:57:57.350796
30176,0.0000,0.0000,0.0000,0.000,0.000,0.000,417,398,393,485,382,2025-05-23T21:57:57.350807
30177,0.0000,0.0000,0.0000,0.000,0.000,0.000,405,408,399,490,396,2025-05-23T21:57:57.350834
30178,0.0000,0.0000,0.0000,0.000,0.000,0.000,428,404,383,489,350,2025-05-23T21:57:57.350844
30179,0.0000,0.0000,0.0000,0.000,0.000,0.000,429,396,359,498,400,2025-05-23T21:57:57.350855
30180,0.0000,0.0000,0.0000,0.000,0.000,0.000,422,418,351,497,400,2025-05-23T21:57:57.350868
30181,0.0000,0.0000,0.0000,0.000,0.000,0.000,412,386,382,499,400,2025-05-23T21:57:57.350882
30182,0.0000,0.0000,0.0000,0.000,0.000,0.000,361,407,377,505,395,2025-05-23T21:57:57.350892
30183,0.0000,0.0000,0.0000,0.000,0.000,0.000,410,410,388,509,411,2025-05-23T21:57:57.350901
30184,0.0000,0.0000,0.0000,0.000,0.000,0.000,390,401,376,504,398,2025-05-23T21:57:57.350914
30185,0.0000,0.0000,0.0000,0.000,0.000,0.000,347,391,387,503,385,2025-05-23T21:57:57.350924
30186,0.0000,0.0000,0.0000,0.000,0.000,0.000,404,418,352,485,387,2025-05-23T21:57:57.350933
30187,0.0000,0.0000,0.0000,0.000,0.000,0.000,415,405,331,493,388,2025-05-23T21:57:57.350941
30188,0.0000,0.0000,0.0000,0.000,0.000,0.000,353,416,326,502,400,2025-05-23T21:57:57.350989
30189,0.0000,0.0000,0.0000,0.000,0.000,0.000,352,384,362,492,391,2025-05-23T21:57:57.350998
30190,0.0000,0.0000,0.0000,0.000,0.000,0.000,382,422,334,497,386,2025-05-23T21:57:57.351007
30191,0.0000,0.0000,0.0000,0.000,0.000,0.000,345,421,350,489,387,2025-05-23T21:57:57.351020
30192,0.0000,0.0000,0.0000,0.000,0.000,0.000,381,435,370,509,390,2025-05-23T21:57:57.553777
30193,0.0000,0.0000,0.0000,0.000,0.000,0.000,401,402,379,505,406,2025-05-23T21:57:57.553825
30194,0.0000,0.0000,0.0000,0.000,0.000,0.000,417,417,383,489,402,2025-05-23T21:57:57.553838
30195,0.0000,0.0000,0.0000,0.000,0.000,0.000,425,423,388,449,411,2025-05-23T21:57:57.553848
30196,0.0000,0.0000,0.0000,0.000,0.000,0.000,401,396,395,496,412,2025-05-23T21:57:57.553858
30197,0.0000,0.0000,0.0000,0.000,0.000,0.000,409,414,389,447,407,2025-05-23T21:57:57.553867
30198,0.0000,0.0000,0.0000,0.000,0.000,0.000,422,404,398,495,404,2025-05-23T21:57:57.553890
30199,0.0000,0.0000,0.0000,0.000,0.000,0.000,355,391,378,491,408,2025-05-23T21:57:57.553900
30200,0.0000,0.0000,0.0000,0.000,0.000,0.000,372,375,388,494,414,2025-05-23T21:57:57.553908
30201,0.0000,0.0000,0.0000,0.000,0.000,0.000,396,375,382,504,415,2025-05-23T21:57:57.553917
30202,0.0000,0.0000,0.0000,0.000,0.000,0.000,392,393,386,503,412,2025-05-23T21:57:57.553926
30203,0.0000,0.0000,0.0000,0.000,0.000,0.000,347,409,392,491,413,2025-05-23T21:57:57.553939
30204,0.0000,0.0000,0.0000,0.000,0.000,0.000,404,405,385,487,399,2025-05-23T21:57:57.553949
30205,0.0000,0.0000,0.0000,0.000,0.000,0.000,414,418,347,497,404,2025-05-23T21:57:57.553962
30206,0.0000,0.0000,0.0000,0.000,0.000,0.000,406,412,375,488,411,2025-05-23T21:57:57.553971
30207,0.0000,0.0000,0.0000,0.000,0.000,0.000,411,398,359,504,397,2025-05-23T21:57:57.554012
30208,0.0000,0.0000,0.0000,0.000,0.000,0.000,400,421,385,492,397,2025-05-23T21:57:57.554021
30209,0.0000,0.0000,0.0000,0.000,0.000,0.000,394,418,393,489,385,2025-05-23T21:57:57.554029
30210,0.0000,0.0000,0.0000,0.000,0.000,0.000,419,400,388,469,387,2025-05-23T21:57:57.601996
30211,0.0000,0.0000,0.0000,0.000,0.000,0.000,423,422,348,498,389,2025-05-23T21:57:57.602045
30212,0.0000,0.0000,0.0000,0.000,0.000,0.000,426,370,376,499,401,2025-05-23T21:57:57.602060
30213,0.0000,0.0000,0.0000,0.000,0.000,0.000,428,339,381,506,359,2025-05-23T21:57:57.602093
30214,0.0000,0.0000,0.0000,0.000,0.000,0.000,431,399,371,485,375,2025-05-23T21:57:57.602102
30215,0.0000,0.0000,0.0000,0.000,0.000,0.000,426,425,381,508,393,2025-05-23T21:57:57.654319
30216,0.0000,0.0000,0.0000,0.000,0.000,0.000,408,418,390,488,416,2025-05-23T21:57:57.654364
30217,0.0000,0.0000,0.0000,0.000,0.000,0.000,421,344,366,493,411,2025-05-23T21:57:57.654574
30218,0.0000,0.0000,0.0000,0.000,0.000,0.000,396,333,362,503,409,2025-05-23T21:57:57.654585
30219,0.0000,0.0000,0.0000,0.000,0.000,0.000,393,376,344,503,395,2025-05-23T21:57:57.654594
30220,0.0000,0.0000,0.0000,0.000,0.000,0.000,410,416,324,519,390,2025-05-23T21:57:57.760173
30221,0.0000,0.0000,0.0000,0.000,0.000,0.000,400,348,324,471,384,2025-05-23T21:57:57.760223
30222,0.0000,0.0000,0.0000,0.000,0.000,0.000,376,406,364,516,353,2025-05-23T21:57:57.760235
30223,0.0000,0.0000,0.0000,0.000,0.000,0.000,392,403,376,462,342,2025-05-23T21:57:57.760246
30224,0.0000,0.0000,0.0000,0.000,0.000,0.000,410,397,373,478,384,2025-05-23T21:57:57.760256
30225,0.0000,0.0000,0.0000,0.000,0.000,0.000,355,400,349,513,406,2025-05-23T21:57:57.760265
30226,0.0000,0.0000,0.0000,0.000,0.000,0.000,385,396,371,490,402,2025-05-23T21:57:57.760275
30227,0.0000,0.0000,0.0000,0.000,0.000,0.000,419,408,388,464,383,2025-05-23T21:57:57.760301
30228,0.0000,0.0000,0.0000,0.000,0.000,0.000,419,395,397,513,397,2025-05-23T21:57:57.760310
30229,0.0000,0.0000,0.0000,0.000,0.000,0.000,424,349,386,496,400,2025-05-23T21:57:57.812120
30230,0.0000,0.0000,0.0000,0.000,0.000,0.000,429,388,380,509,406,2025-05-23T21:57:57.812162
30231,0.0000,0.0000,0.0000,0.000,0.000,0.000,409,390,381,508,401,2025-05-23T21:57:57.812187
30232,0.0000,0.0000,0.0000,0.000,0.000,0.000,395,416,392,465,404,2025-05-23T21:57:57.812196
30233,0.0000,0.0000,0.0000,0.000,0.000,0.000,407,391,390,510,391,2025-05-23T21:57:57.812205
30234,0.0000,0.0000,0.0000,0.000,0.000,0.000,394,346,402,498,396,2025-05-23T21:57:57.965729
30235,0.0000,0.0000,0.0000,0.000,0.000,0.000,358,353,389,502,409,2025-05-23T21:57:57.965772
30236,0.0000,0.0000,0.0000,0.000,0.000,0.000,406,337,399,513,403,2025-05-23T21:57:57.965783
30237,0.0000,0.0000,0.0000,0.000,0.000,0.000,419,404,367,508,400,2025-05-23T21:57:57.965793
30238,0.0000,0.0000,0.0000,0.000,0.000,0.000,409,346,378,517,403,2025-05-23T21:57:57.965802
30239,0.0000,0.0000,0.0000,0.000,0.000,0.000,422,383,385,493,388,2025-05-23T21:57:57.993779
30240,0.0000,0.0000,0.0000,0.000,0.000,0.000,412,348,354,462,352,2025-05-23T21:57:57.993818
30241,0.0000,0.0000,0.0000,0.000,0.000,0.000,401,376,348,507,366,2025-05-23T21:57:57.993830
30242,0.0000,0.0000,0.0000,0.000,0.000,0.000,398,425,358,509,394,2025-05-23T21:57:57.993840
30243,0.0000,0.0000,0.0000,0.000,0.000,0.000,400,383,376,500,389,2025-05-23T21:57:57.993849
30244,0.0000,0.0000,0.0000,0.000,0.000,0.000,416,426,389,501,392,2025-05-23T21:57:57.993860
30245,0.0000,0.0000,0.0000,0.000,0.000,0.000,429,407,393,502,388,2025-05-23T21:57:57.993869
30246,0.0000,0.0000,0.0000,0.000,0.000,0.000,357,383,383,506,396,2025-05-23T21:57:57.993876
30247,0.0000,0.0000,0.0000,0.000,0.000,0.000,406,350,386,517,387,2025-05-23T21:57:57.993885
30248,0.0000,0.0000,0.0000,0.000,0.000,0.000,390,366,347,496,357,2025-05-23T21:57:58.013804
30249,0.0000,0.0000,0.0000,0.000,0.000,0.000,342,411,375,496,389,2025-05-23T21:57:58.013848
30250,0.0000,0.0000,0.0000,0.000,0.000,0.000,397,411,367,486,385,2025-05-23T21:57:58.013859
30251,0.0000,0.0000,0.0000,0.000,0.000,0.000,418,411,375,510,402,2025-05-23T21:57:58.013869
30252,0.0000,0.0000,0.0000,0.000,0.000,0.000,423,395,374,507,394,2025-05-23T21:57:58.013878
30253,0.0000,0.0000,0.0000,0.000,0.000,0.000,424,374,386,481,396,2025-05-23T21:57:58.170184
30254,0.0000,0.0000,0.0000,0.000,0.000,0.000,428,416,396,475,394,2025-05-23T21:57:58.170231
30255,0.0000,0.0000,0.0000,0.000,0.000,0.000,415,418,406,494,412,2025-05-23T21:57:58.170244
30256,0.0000,0.0000,0.0000,0.000,0.000,0.000,398,411,403,507,393,2025-05-23T21:57:58.170255
30257,0.0000,0.0000,0.0000,0.000,0.000,0.000,416,425,391,454,393,2025-05-23T21:57:58.170265
30258,0.0000,0.0000,0.0000,0.000,0.000,0.000,422,356,399,452,371,2025-05-23T21:57:58.170276
30259,0.0000,0.0000,0.0000,0.000,0.000,0.000,404,380,401,491,390,2025-05-23T21:57:58.170285
30260,0.0000,0.0000,0.0000,0.000,0.000,0.000,422,425,389,497,389,2025-05-23T21:57:58.170294
30261,0.0000,0.0000,0.0000,0.000,0.000,0.000,424,402,383,501,412,2025-05-23T21:57:58.170303
30262,0.0000,0.0000,0.0000,0.000,0.000,0.000,411,420,317,492,361,2025-05-23T21:57:58.170311
30263,0.0000,0.0000,0.0000,0.000,0.000,0.000,413,417,347,508,357,2025-05-23T21:57:58.170319
30264,0.0000,0.0000,0.0000,0.000,0.000,0.000,401,417,329,515,382,2025-05-23T21:57:58.170328
30265,0.0000,0.0000,0.0000,0.000,0.000,0.000,408,414,363,493,383,2025-05-23T21:57:58.170336
30266,0.0000,0.0000,0.0000,0.000,0.000,0.000,416,423,365,497,387,2025-05-23T21:57:58.170345
30267,0.0000,0.0000,0.0000,0.000,0.000,0.000,397,406,337,505,390,2025-05-23T21:57:58.375197
30268,0.0000,0.0000,0.0000,0.000,0.000,0.000,421,405,322,491,400,2025-05-23T21:57:58.375243
30269,0.0000,0.0000,0.0000,0.000,0.000,0.000,376,350,353,502,393,2025-05-23T21:57:58.375255
30270,0.0000,0.0000,0.0000,0.000,0.000,0.000,411,402,371,508,392,2025-05-23T21:57:58.375267
30271,0.0000,0.0000,0.0000,0.000,0.000,0.000,421,405,373,512,408,2025-05-23T21:57:58.375277
30272,0.0000,0.0000,0.0000,0.000,0.000,0.000,388,348,343,512,359,2025-05-23T21:57:58.375288
30273,0.0000,0.0000,0.0000,0.000,0.000,0.000,405,399,355,503,391,2025-05-23T21:57:58.375299
30274,0.0000,0.0000,0.0000,0.000,0.000,0.000,406,346,340,504,386,2025-05-23T21:57:58.375309
30275,0.0000,0.0000,0.0000,0.000,0.000,0.000,357,394,370,515,406,2025-05-23T21:57:58.375318
30276,0.0000,0.0000,0.0000,0.000,0.000,0.000,350,419,343,519,410,2025-05-23T21:57:58.375326
30277,0.0000,0.0000,0.0000,0.000,0.000,0.000,391,402,377,498,397,2025-05-23T21:57:58.375334
30278,0.0000,0.0000,0.0000,0.000,0.000,0.000,413,387,388,507,407,2025-05-23T21:57:58.375343
30279,0.0000,0.0000,0.0000,0.000,0.000,0.000,423,406,394,501,405,2025-05-23T21:57:58.375367
30280,0.0000,0.0000,0.0000,0.000,0.000,0.000,426,302,398,505,409,2025-05-23T21:57:58.375375
30281,0.0000,0.0000,0.0000,0.000,0.000,0.000,420,404,398,479,405,2025-05-23T21:57:58.375384
30282,0.0000,0.0000,0.0000,0.000,0.000,0.000,422,351,398,510,366,2025-05-23T21:57:58.375429
30283,0.0000,0.0000,0.0000,0.000,0.000,0.000,421,410,360,502,380,2025-05-23T21:57:58.375439
30284,0.0000,0.0000,0.0000,0.000,0.000,0.000,385,397,361,499,391,2025-05-23T21:57:58.375448
30285,0.0000,0.0000,0.0000,0.000,0.000,0.000,391,402,346,493,395,2025-05-23T21:57:58.375456
30286,0.0000,0.0000,0.0000,0.000,0.000,0.000,401,424,367,497,412,2025-05-23T21:57:58.580945
30287,0.0000,0.0000,0.0000,0.000,0.000,0.000,404,401,374,517,389,2025-05-23T21:57:58.581045
30288,0.0000,0.0000,0.0000,0.000,0.000,0.000,349,378,379,507,397,2025-05-23T21:57:58.581065
30289,0.0000,0.0000,0.0000,0.000,0.000,0.000,402,410,351,506,396,2025-05-23T21:57:58.581082
30290,0.0000,0.0000,0.0000,0.000,0.000,0.000,421,404,369,515,405,2025-05-23T21:57:58.581097
30291,0.0000,0.0000,0.0000,0.000,0.000,0.000,403,399,343,498,412,2025-05-23T21:57:58.581112
30292,0.0000,0.0000,0.0000,0.000,0.000,0.000,351,419,326,505,404,2025-05-23T21:57:58.581128
30293,0.0000,0.0000,0.0000,0.000,0.000,0.000,398,422,353,506,368,2025-05-23T21:57:58.581143
30294,0.0000,0.0000,0.0000,0.000,0.000,0.000,419,432,365,514,408,2025-05-23T21:57:58.581168
30295,0.0000,0.0000,0.0000,0.000,0.000,0.000,354,373,371,510,419,2025-05-23T21:57:58.581182
30296,0.0000,0.0000,0.0000,0.000,0.000,0.000,402,339,373,507,393,2025-05-23T21:57:58.581197
30297,0.0000,0.0000,0.0000,0.000,0.000,0.000,395,390,381,499,401,2025-05-23T21:57:58.581211
30298,0.0000,0.0000,0.0000,0.000,0.000,0.000,393,397,380,461,408,2025-05-23T21:57:58.581225
30299,0.0000,0.0000,0.0000,0.000,0.000,0.000,427,397,385,503,411,2025-05-23T21:57:58.581239
30300,0.0000,0.0000,0.0000,0.000,0.000,0.000,403,401,385,493,391,2025-05-23T21:57:58.581252
30301,0.0000,0.0000,0.0000,0.000,0.000,0.000,405,398,395,498,370,2025-05-23T21:57:58.581308
30302,0.0000,0.0000,0.0000,0.000,0.000,0.000,410,400,363,503,396,2025-05-23T21:57:58.581322
30303,0.0000,0.0000,0.0000,0.000,0.000,0.000,355,397,371,499,406,2025-05-23T21:57:58.581335
30304,0.0000,0.0000,0.0000,0.000,0.000,0.000,405,421,377,451,393,2025-05-23T21:57:58.581349
30305,0.0000,0.0000,0.0000,0.000,0.000,0.000,398,437,383,501,395,2025-05-23T21:57:58.785588
30306,0.0000,0.0000,0.0000,0.000,0.000,0.000,399,357,381,506,409,2025-05-23T21:57:58.785837
30307,0.0000,0.0000,0.0000,0.000,0.000,0.000,416,420,357,501,414,2025-05-23T21:57:58.785852
30308,0.0000,0.0000,0.0000,0.000,0.000,0.000,372,359,372,506,400,2025-05-23T21:57:58.785863
30309,0.0000,0.0000,0.0000,0.000,0.000,0.000,404,414,387,514,410,2025-05-23T21:57:58.785873
30310,0.0000,0.0000,0.0000,0.000,0.000,0.000,412,361,387,494,418,2025-05-23T21:57:58.785883
30311,0.0000,0.0000,0.0000,0.000,0.000,0.000,426,342,379,500,379,2025-05-23T21:57:58.785893
30312,0.0000,0.0000,0.0000,0.000,0.000,0.000,411,409,348,510,389,2025-05-23T21:57:58.785902
30313,0.0000,0.0000,0.0000,0.000,0.000,0.000,394,410,367,506,403,2025-05-23T21:57:58.785911
30314,0.0000,0.0000,0.0000,0.000,0.000,0.000,409,403,383,501,410,2025-05-23T21:57:58.785920
30315,0.0000,0.0000,0.0000,0.000,0.000,0.000,399,399,369,511,407,2025-05-23T21:57:58.785929
30316,0.0000,0.0000,0.0000,0.000,0.000,0.000,405,396,388,503,402,2025-05-23T21:57:58.785941
30317,0.0000,0.0000,0.0000,0.000,0.000,0.000,407,400,378,515,351,2025-05-23T21:57:58.785949
30318,0.0000,0.0000,0.0000,0.000,0.000,0.000,401,404,398,506,351,2025-05-23T21:57:58.785958
30319,0.0000,0.0000,0.0000,0.000,0.000,0.000,416,390,393,510,378,2025-05-23T21:57:58.785966
30320,0.0000,0.0000,0.0000,0.000,0.000,0.000,402,422,398,508,356,2025-05-23T21:57:58.786003
30321,0.0000,0.0000,0.0000,0.000,0.000,0.000,352,402,403,500,382,2025-05-23T21:57:58.786012
30322,0.0000,0.0000,0.0000,0.000,0.000,0.000,409,392,369,506,388,2025-05-23T21:57:58.786022
30323,0.0000,0.0000,0.0000,0.000,0.000,0.000,427,391,381,518,388,2025-05-23T21:57:58.786031
30324,0.0000,0.0000,0.0000,0.000,0.000,0.000,424,416,394,527,390,2025-05-23T21:57:58.990525
30325,0.0000,0.0000,0.0000,0.000,0.000,0.000,419,398,360,465,403,2025-05-23T21:57:58.990584
30326,0.0000,0.0000,0.0000,0.000,0.000,0.000,400,391,364,505,392,2025-05-23T21:57:58.990600
30327,0.0000,0.0000,0.0000,0.000,0.000,0.000,397,418,352,503,348,2025-05-23T21:57:58.990614
30328,0.0000,0.0000,0.0000,0.000,0.000,0.000,412,367,370,508,329,2025-05-23T21:57:58.990627
30329,0.0000,0.0000,0.0000,0.000,0.000,0.000,413,394,390,465,324,2025-05-23T21:57:58.990641
30330,0.0000,0.0000,0.0000,0.000,0.000,0.000,382,418,397,487,359,2025-05-23T21:57:58.990654
30331,0.0000,0.0000,0.0000,0.000,0.000,0.000,408,409,382,517,382,2025-05-23T21:57:58.990667
30332,0.0000,0.0000,0.0000,0.000,0.000,0.000,430,422,387,497,383,2025-05-23T21:57:58.990683
30333,0.0000,0.0000,0.0000,0.000,0.000,0.000,407,397,390,500,403,2025-05-23T21:57:58.990694
30334,0.0000,0.0000,0.0000,0.000,0.000,0.000,408,421,386,437,389,2025-05-23T21:57:58.990705
30335,0.0000,0.0000,0.0000,0.000,0.000,0.000,396,428,379,398,394,2025-05-23T21:57:58.990716
30336,0.0000,0.0000,0.0000,0.000,0.000,0.000,421,422,391,413,407,2025-05-23T21:57:58.990747
30337,0.0000,0.0000,0.0000,0.000,0.000,0.000,420,361,386,362,366,2025-05-23T21:57:58.990757
30338,0.0000,0.0000,0.0000,0.000,0.000,0.000,357,382,390,400,387,2025-05-23T21:57:58.990769
30339,0.0000,0.0000,0.0000,0.000,0.000,0.000,409,416,402,370,402,2025-05-23T21:57:58.990817
30340,0.0000,0.0000,0.0000,0.000,0.000,0.000,375,428,393,374,402,2025-05-23T21:57:58.990829
30341,0.0000,0.0000,0.0000,0.000,0.000,0.000,345,400,399,402,416,2025-05-23T21:57:58.990840
30342,0.0000,0.0000,0.0000,0.000,0.000,0.000,341,402,397,421,415,2025-05-23T21:57:58.990851
30343,0.0000,0.0000,0.0000,0.000,0.000,0.000,411,421,386,414,423,2025-05-23T21:57:59.196301
30344,0.0000,0.0000,0.0000,0.000,0.000,0.000,392,407,395,394,419,2025-05-23T21:57:59.196362
30345,0.0000,0.0000,0.0000,0.000,0.000,0.000,410,430,401,404,375,2025-05-23T21:57:59.196379
30346,0.0000,0.0000,0.0000,0.000,0.000,0.000,409,406,392,368,379,2025-05-23T21:57:59.196393
30347,0.0000,0.0000,0.0000,0.000,0.000,0.000,405,409,392,514,587,2025-05-23T21:57:59.196408
30348,0.0000,0.0000,0.0000,0.000,0.000,0.000,403,401,391,488,586,2025-05-23T21:57:59.196425
30349,0.0000,0.0000,0.0000,0.000,0.000,0.000,398,421,390,465,578,2025-05-23T21:57:59.196437
30350,0.0000,0.0000,0.0000,0.000,0.000,0.000,379,415,392,469,550,2025-05-23T21:57:59.196471
30351,0.0000,0.0000,0.0000,0.000,0.000,0.000,349,409,396,416,542,2025-05-23T21:57:59.196484
30352,0.0000,0.0000,0.0000,0.000,0.000,0.000,412,381,392,403,525,2025-05-23T21:57:59.196496
30353,0.0000,0.0000,0.0000,0.000,0.000,0.000,397,391,387,445,514,2025-05-23T21:57:59.196507
30354,0.0000,0.0000,0.0000,0.000,0.000,0.000,390,399,374,448,525,2025-05-23T21:57:59.196519
30355,0.0000,0.0000,0.0000,0.000,0.000,0.000,405,424,391,392,515,2025-05-23T21:57:59.196530
30356,0.0000,0.0000,0.0000,0.000,0.000,0.000,403,433,385,425,511,2025-05-23T21:57:59.196541
30357,0.0000,0.0000,0.0000,0.000,0.000,0.000,412,442,387,429,503,2025-05-23T21:57:59.196553
30358,0.0000,0.0000,0.0000,0.000,0.000,0.000,427,420,345,382,485,2025-05-23T21:57:59.196606
30359,0.0000,0.0000,0.0000,0.000,0.000,0.000,350,419,354,425,484,2025-05-23T21:57:59.196619
30360,0.0000,0.0000,0.0000,0.000,0.000,0.000,402,430,378,396,484,2025-05-23T21:57:59.196631
30361,0.0000,0.0000,0.0000,0.000,0.000,0.000,397,404,355,420,420,2025-05-23T21:57:59.196642
30362,0.0000,0.0000,0.0000,0.000,0.000,0.000,353,393,364,424,471,2025-05-23T21:57:59.405882
30363,0.0000,0.0000,0.0000,0.000,0.000,0.000,333,422,365,428,463,2025-05-23T21:57:59.405925
30364,0.0000,0.0000,0.0000,0.000,0.000,0.000,390,429,338,433,422,2025-05-23T21:57:59.405938
30365,0.0000,0.0000,0.0000,0.000,0.000,0.000,406,402,352,436,429,2025-05-23T21:57:59.405948
30366,0.0000,0.0000,0.0000,0.000,0.000,0.000,394,399,368,374,357,2025-05-23T21:57:59.405958
30367,0.0000,0.0000,0.0000,0.000,0.000,0.000,390,392,341,404,398,2025-05-23T21:57:59.405968
30368,0.0000,0.0000,0.0000,0.000,0.000,0.000,395,388,372,372,386,2025-05-23T21:57:59.405980
30369,0.0000,0.0000,0.0000,0.000,0.000,0.000,402,418,350,431,384,2025-05-23T21:57:59.405989
30370,0.0000,0.0000,0.0000,0.000,0.000,0.000,303,414,330,425,395,2025-05-23T21:57:59.405998
30371,0.0000,0.0000,0.0000,0.000,0.000,0.000,388,433,361,428,397,2025-05-23T21:57:59.406008
30372,0.0000,0.0000,0.0000,0.000,0.000,0.000,423,347,333,404,392,2025-05-23T21:57:59.406017
30373,0.0000,0.0000,0.0000,0.000,0.000,0.000,421,410,372,370,399,2025-05-23T21:57:59.406026
30374,0.0000,0.0000,0.0000,0.000,0.000,0.000,417,399,375,383,392,2025-05-23T21:57:59.406035
30375,0.0000,0.0000,0.0000,0.000,0.000,0.000,422,398,384,394,406,2025-05-23T21:57:59.406044
30376,0.0000,0.0000,0.0000,0.000,0.000,0.000,423,401,386,403,413,2025-05-23T21:57:59.406052
30377,0.0000,0.0000,0.0000,0.000,0.000,0.000,396,395,385,389,405,2025-05-23T21:57:59.406086
30378,0.0000,0.0000,0.0000,0.000,0.000,0.000,409,417,374,348,395,2025-05-23T21:57:59.406095
30379,0.0000,0.0000,0.0000,0.000,0.000,0.000,349,415,383,373,349,2025-05-23T21:57:59.406104
30380,0.0000,0.0000,0.0000,0.000,0.000,0.000,406,421,376,398,339,2025-05-23T21:57:59.406113
30381,0.0000,0.0000,0.0000,0.000,0.000,0.000,400,386,375,405,324,2025-05-23T21:57:59.456317
30382,0.0000,0.0000,0.0000,0.000,0.000,0.000,362,421,365,395,362,2025-05-23T21:57:59.456373
30383,0.0000,0.0000,0.0000,0.000,0.000,0.000,394,380,381,351,388,2025-05-23T21:57:59.456391
30384,0.0000,0.0000,0.0000,0.000,0.000,0.000,403,392,392,401,402,2025-05-23T21:57:59.456402
30385,0.0000,0.0000,0.0000,0.000,0.000,0.000,391,393,395,404,402,2025-05-23T21:57:59.456414
30386,0.0000,0.0000,0.0000,0.000,0.000,0.000,403,401,395,396,409,2025-05-23T21:57:59.506240
30387,0.0000,0.0000,0.0000,0.000,0.000,0.000,397,396,384,369,403,2025-05-23T21:57:59.506285
30388,0.0000,0.0000,0.0000,0.000,0.000,0.000,399,402,342,397,383,2025-05-23T21:57:59.506299
30389,0.0000,0.0000,0.0000,0.000,0.000,0.000,345,411,323,400,404,2025-05-23T21:57:59.506309
30390,0.0000,0.0000,0.0000,0.000,0.000,0.000,382,428,349,389,385,2025-05-23T21:57:59.506319
30391,0.0000,0.0000,0.0000,0.000,0.000,0.000,337,400,336,348,396,2025-05-23T21:57:59.606305
30392,0.0000,0.0000,0.0000,0.000,0.000,0.000,382,348,350,400,376,2025-05-23T21:57:59.606357
30393,0.0000,0.0000,0.0000,0.000,0.000,0.000,408,351,369,405,384,2025-05-23T21:57:59.606371
30394,0.0000,0.0000,0.0000,0.000,0.000,0.000,356,367,336,392,384,2025-05-23T21:57:59.606383
30395,0.0000,0.0000,0.0000,0.000,0.000,0.000,384,388,365,348,361,2025-05-23T21:57:59.606518
30396,0.0000,0.0000,0.0000,0.000,0.000,0.000,412,421,374,391,388,2025-05-23T21:57:59.606531
30397,0.0000,0.0000,0.0000,0.000,0.000,0.000,379,417,389,388,354,2025-05-23T21:57:59.606541
30398,0.0000,0.0000,0.0000,0.000,0.000,0.000,384,387,388,348,370,2025-05-23T21:57:59.606551
30399,0.0000,0.0000,0.0000,0.000,0.000,0.000,399,412,376,354,381,2025-05-23T21:57:59.606562
30400,0.0000,0.0000,0.0000,0.000,0.000,0.000,406,429,378,389,401,2025-05-23T21:57:59.810023
30401,0.0000,0.0000,0.0000,0.000,0.000,0.000,409,406,347,380,357,2025-05-23T21:57:59.810067
30402,0.0000,0.0000,0.0000,0.000,0.000,0.000,413,394,338,406,374,2025-05-23T21:57:59.810079
30403,0.0000,0.0000,0.0000,0.000,0.000,0.000,428,360,325,400,377,2025-05-23T21:57:59.810089
30404,0.0000,0.0000,0.0000,0.000,0.000,0.000,424,417,366,405,379,2025-05-23T21:57:59.810099
30405,0.0000,0.0000,0.0000,0.000,0.000,0.000,431,424,376,415,385,2025-05-23T21:57:59.810108
30406,0.0000,0.0000,0.0000,0.000,0.000,0.000,412,418,375,394,400,2025-05-23T21:57:59.810117
30407,0.0000,0.0000,0.0000,0.000,0.000,0.000,379,396,378,402,351,2025-05-23T21:57:59.810125
30408,0.0000,0.0000,0.0000,0.000,0.000,0.000,404,404,385,384,397,2025-05-23T21:57:59.810134
30409,0.0000,0.0000,0.0000,0.000,0.000,0.000,343,392,390,393,387,2025-05-23T21:57:59.810142
30410,0.0000,0.0000,0.0000,0.000,0.000,0.000,402,394,386,420,388,2025-05-23T21:57:59.810150
30411,0.0000,0.0000,0.0000,0.000,0.000,0.000,347,403,379,425,389,2025-05-23T21:57:59.810158
30412,0.0000,0.0000,0.0000,0.000,0.000,0.000,394,407,346,416,388,2025-05-23T21:57:59.810170
30413,0.0000,0.0000,0.0000,0.000,0.000,0.000,408,412,358,405,376,2025-05-23T21:57:59.810178
30414,0.0000,0.0000,0.0000,0.000,0.000,0.000,417,420,365,401,400,2025-05-23T21:57:59.810187
30415,0.0000,0.0000,0.0000,0.000,0.000,0.000,431,393,365,405,384,2025-05-23T21:57:59.810254
30416,0.0000,0.0000,0.0000,0.000,0.000,0.000,383,380,366,418,401,2025-05-23T21:57:59.810264
30417,0.0000,0.0000,0.0000,0.000,0.000,0.000,396,412,372,358,404,2025-05-23T21:57:59.810272
30418,0.0000,0.0000,0.0000,0.000,0.000,0.000,369,391,363,369,415,2025-05-23T21:57:59.810280
30419,0.0000,0.0000,0.0000,0.000,0.000,0.000,404,345,383,397,404,2025-05-23T21:58:00.015869
30420,0.0000,0.0000,0.0000,0.000,0.000,0.000,409,378,350,394,396,2025-05-23T21:58:00.015924
30421,0.0000,0.0000,0.0000,0.000,0.000,0.000,402,340,342,405,390,2025-05-23T21:58:00.015939
30422,0.0000,0.0000,0.0000,0.000,0.000,0.000,362,411,366,413,395,2025-05-23T21:58:00.015951
30423,0.0000,0.0000,0.0000,0.000,0.000,0.000,388,376,365,356,399,2025-05-23T21:58:00.015962
30424,0.0000,0.0000,0.0000,0.000,0.000,0.000,388,415,375,377,413,2025-05-23T21:58:00.015973
30425,0.0000,0.0000,0.0000,0.000,0.000,0.000,397,416,337,377,414,2025-05-23T21:58:00.016009
30426,0.0000,0.0000,0.0000,0.000,0.000,0.000,395,400,366,385,361,2025-05-23T21:58:00.016022
30427,0.0000,0.0000,0.0000,0.000,0.000,0.000,417,420,388,397,381,2025-05-23T21:58:00.016032
30428,0.0000,0.0000,0.0000,0.000,0.000,0.000,399,348,391,400,381,2025-05-23T21:58:00.016044
30429,0.0000,0.0000,0.0000,0.000,0.000,0.000,413,401,392,409,377,2025-05-23T21:58:00.016054
30430,0.0000,0.0000,0.0000,0.000,0.000,0.000,346,427,379,393,392,2025-05-23T21:58:00.016064
30431,0.0000,0.0000,0.0000,0.000,0.000,0.000,406,417,378,357,387,2025-05-23T21:58:00.016073
30432,0.0000,0.0000,0.0000,0.000,0.000,0.000,400,391,381,369,386,2025-05-23T21:58:00.016083
30433,0.0000,0.0000,0.0000,0.000,0.000,0.000,402,413,386,407,401,2025-05-23T21:58:00.016092
30434,0.0000,0.0000,0.0000,0.000,0.000,0.000,406,404,397,410,409,2025-05-23T21:58:00.016149
30435,0.0000,0.0000,0.0000,0.000,0.000,0.000,385,402,398,422,357,2025-05-23T21:58:00.016159
30436,0.0000,0.0000,0.0000,0.000,0.000,0.000,380,378,362,400,377,2025-05-23T21:58:00.016174
30437,0.0000,0.0000,0.0000,0.000,0.000,0.000,385,383,368,410,349,2025-05-23T21:58:00.016186
30438,0.0000,0.0000,0.0000,0.000,0.000,0.000,380,417,381,409,389,2025-05-23T21:58:00.219805
30439,0.0000,0.0000,0.0000,0.000,0.000,0.000,336,428,389,410,384,2025-05-23T21:58:00.236779
30440,0.0000,0.0000,0.0000,0.000,0.000,0.000,397,402,348,359,394,2025-05-23T21:58:00.236817
30441,0.0000,0.0000,0.0000,0.000,0.000,0.000,395,413,353,390,394,2025-05-23T21:58:00.236830
30442,0.0000,0.0000,0.0000,0.000,0.000,0.000,426,425,372,408,388,2025-05-23T21:58:00.236840
30443,0.0000,0.0000,0.0000,0.000,0.000,0.000,401,397,379,413,390,2025-05-23T21:58:00.236851
30444,0.0000,0.0000,0.0000,0.000,0.000,0.000,421,402,349,415,387,2025-05-23T21:58:00.236862
30445,0.0000,0.0000,0.0000,0.000,0.000,0.000,388,409,374,421,400,2025-05-23T21:58:00.236871
30446,0.0000,0.0000,0.0000,0.000,0.000,0.000,428,422,388,364,353,2025-05-23T21:58:00.236880
30447,0.0000,0.0000,0.0000,0.000,0.000,0.000,412,372,351,400,380,2025-05-23T21:58:00.236889
30448,0.0000,0.0000,0.0000,0.000,0.000,0.000,396,398,379,414,391,2025-05-23T21:58:00.236898
30449,0.0000,0.0000,0.0000,0.000,0.000,0.000,397,417,390,419,386,2025-05-23T21:58:00.236906
30450,0.0000,0.0000,0.0000,0.000,0.000,0.000,405,392,383,411,382,2025-05-23T21:58:00.236914
30451,0.0000,0.0000,0.0000,0.000,0.000,0.000,404,419,379,407,389,2025-05-23T21:58:00.236923
30452,0.0000,0.0000,0.0000,0.000,0.000,0.000,405,425,344,403,384,2025-05-23T21:58:00.236930
30453,0.0000,0.0000,0.0000,0.000,0.000,0.000,413,397,356,393,393,2025-05-23T21:58:00.236990
30454,0.0000,0.0000,0.0000,0.000,0.000,0.000,404,379,378,388,398,2025-05-23T21:58:00.236998
30455,0.0000,0.0000,0.0000,0.000,0.000,0.000,420,390,375,405,402,2025-05-23T21:58:00.237007
30456,0.0000,0.0000,0.0000,0.000,0.000,0.000,406,391,377,411,390,2025-05-23T21:58:00.237017
30457,0.0000,0.0000,0.0000,0.000,0.000,0.000,426,431,385,391,395,2025-05-23T21:58:00.274488
30458,0.0000,0.0000,0.0000,0.000,0.000,0.000,426,429,396,408,348,2025-05-23T21:58:00.274534
30459,0.0000,0.0000,0.0000,0.000,0.000,0.000,364,373,396,385,386,2025-05-23T21:58:00.274545
30460,0.0000,0.0000,0.0000,0.000,0.000,0.000,403,403,389,388,348,2025-05-23T21:58:00.274558
30461,0.0000,0.0000,0.0000,0.000,0.000,0.000,357,431,346,410,383,2025-05-23T21:58:00.274567
30462,0.0000,0.0000,0.0000,0.000,0.000,0.000,400,426,373,410,406,2025-05-23T21:58:00.435025
30463,0.0000,0.0000,0.0000,0.000,0.000,0.000,400,436,376,394,357,2025-05-23T21:58:00.435083
30464,0.0000,0.0000,0.0000,0.000,0.000,0.000,409,423,375,387,390,2025-05-23T21:58:00.435102
30465,0.0000,0.0000,0.0000,0.000,0.000,0.000,418,418,339,377,343,2025-05-23T21:58:00.435116
30466,0.0000,0.0000,0.0000,0.000,0.000,0.000,412,425,358,403,388,2025-05-23T21:58:00.435129
30467,0.0000,0.0000,0.0000,0.000,0.000,0.000,303,422,302,412,358,2025-05-23T21:58:00.435142
30468,0.0000,0.0000,0.0000,0.000,0.000,0.000,325,394,340,418,383,2025-05-23T21:58:00.435154
30469,0.0000,0.0000,0.0000,0.000,0.000,0.000,399,390,292,374,392,2025-05-23T21:58:00.435165
30470,0.0000,0.0000,0.0000,0.000,0.000,0.000,353,393,333,401,398,2025-05-23T21:58:00.435177
30471,0.0000,0.0000,0.0000,0.000,0.000,0.000,408,393,362,407,390,2025-05-23T21:58:00.435188
30472,0.0000,0.0000,0.0000,0.000,0.000,0.000,420,406,382,405,345,2025-05-23T21:58:00.435203
30473,0.0000,0.0000,0.0000,0.000,0.000,0.000,418,425,381,382,388,2025-05-23T21:58:00.435215
30474,0.0000,0.0000,0.0000,0.000,0.000,0.000,407,417,385,401,384,2025-05-23T21:58:00.435225
30475,0.0000,0.0000,0.0000,0.000,0.000,0.000,417,401,346,405,384,2025-05-23T21:58:00.628703
30476,0.0000,0.0000,0.0000,0.000,0.000,0.000,367,385,369,391,382,2025-05-23T21:58:00.628750
30477,0.0000,0.0000,0.0000,0.000,0.000,0.000,383,417,339,407,387,2025-05-23T21:58:00.628763
30478,0.0000,0.0000,0.0000,0.000,0.000,0.000,399,424,369,410,405,2025-05-23T21:58:00.628775
30479,0.0000,0.0000,0.0000,0.000,0.000,0.000,403,425,384,406,393,2025-05-23T21:58:00.628785
30480,0.0000,0.0000,0.0000,0.000,0.000,0.000,408,398,345,402,390,2025-05-23T21:58:00.628796
30481,0.0000,0.0000,0.0000,0.000,0.000,0.000,402,347,358,397,345,2025-05-23T21:58:00.628807
30482,0.0000,0.0000,0.0000,0.000,0.000,0.000,394,389,370,353,372,2025-05-23T21:58:00.628818
30483,0.0000,0.0000,0.0000,0.000,0.000,0.000,374,422,383,376,378,2025-05-23T21:58:00.628829
30484,0.0000,0.0000,0.0000,0.000,0.000,0.000,417,431,374,409,400,2025-05-23T21:58:00.628954
30485,0.0000,0.0000,0.0000,0.000,0.000,0.000,413,420,344,374,400,2025-05-23T21:58:00.628964
30486,0.0000,0.0000,0.0000,0.000,0.000,0.000,423,401,354,345,410,2025-05-23T21:58:00.628974
30487,0.0000,0.0000,0.0000,0.000,0.000,0.000,415,421,362,336,417,2025-05-23T21:58:00.628984
30488,0.0000,0.0000,0.0000,0.000,0.000,0.000,402,415,380,380,425,2025-05-23T21:58:00.628993
30489,0.0000,0.0000,0.0000,0.000,0.000,0.000,390,404,349,382,405,2025-05-23T21:58:00.629001
30490,0.0000,0.0000,0.0000,0.000,0.000,0.000,412,304,320,338,397,2025-05-23T21:58:00.629010
30491,0.0000,0.0000,0.0000,0.000,0.000,0.000,385,393,359,359,385,2025-05-23T21:58:00.629053
30492,0.0000,0.0000,0.0000,0.000,0.000,0.000,393,339,378,351,399,2025-05-23T21:58:00.629063
30493,0.0000,0.0000,0.0000,0.000,0.000,0.000,399,391,382,340,354,2025-05-23T21:58:00.629072
30494,0.0000,0.0000,0.0000,0.000,0.000,0.000,363,391,382,377,386,2025-05-23T21:58:00.629081
30495,0.0000,0.0000,0.0000,0.000,0.000,0.000,408,403,376,407,399,2025-05-23T21:58:00.836257
30496,0.0000,0.0000,0.0000,0.000,0.000,0.000,407,414,349,407,392,2025-05-23T21:58:00.836313
30497,0.0000,0.0000,0.0000,0.000,0.000,0.000,412,424,361,346,349,2025-05-23T21:58:00.836328
30498,0.0000,0.0000,0.0000,0.000,0.000,0.000,397,394,385,389,370,2025-05-23T21:58:00.836340
30499,0.0000,0.0000,0.0000,0.000,0.000,0.000,360,355,386,397,377,2025-05-23T21:58:00.836352
30500,0.0000,0.0000,0.0000,0.000,0.000,0.000,403,403,374,401,345,2025-05-23T21:58:00.836362
30501,0.0000,0.0000,0.0000,0.000,0.000,0.000,416,402,377,385,330,2025-05-23T21:58:00.836377
30502,0.0000,0.0000,0.0000,0.000,0.000,0.000,352,420,388,394,326,2025-05-23T21:58:00.836389
30503,0.0000,0.0000,0.0000,0.000,0.000,0.000,358,409,377,410,388,2025-05-23T21:58:00.836399
30504,0.0000,0.0000,0.0000,0.000,0.000,0.000,406,430,348,424,410,2025-05-23T21:58:00.836411
30505,0.0000,0.0000,0.0000,0.000,0.000,0.000,304,424,374,401,415,2025-05-23T21:58:00.836422
30506,0.0000,0.0000,0.0000,0.000,0.000,0.000,373,431,376,394,413,2025-05-23T21:58:00.836432
30507,0.0000,0.0000,0.0000,0.000,0.000,0.000,410,405,382,369,388,2025-05-23T21:58:00.836442
30508,0.0000,0.0000,0.0000,0.000,0.000,0.000,368,347,384,392,406,2025-05-23T21:58:00.836472
30509,0.0000,0.0000,0.0000,0.000,0.000,0.000,401,408,342,390,357,2025-05-23T21:58:00.836483
30510,0.0000,0.0000,0.0000,0.000,0.000,0.000,419,415,355,401,391,2025-05-23T21:58:00.836538
30511,0.0000,0.0000,0.0000,0.000,0.000,0.000,396,381,377,396,405,2025-05-23T21:58:00.836547
30512,0.0000,0.0000,0.0000,0.000,0.000,0.000,415,405,370,413,404,2025-05-23T21:58:00.836556
30513,0.0000,0.0000,0.0000,0.000,0.000,0.000,407,393,375,403,395,2025-05-23T21:58:00.836564
30514,0.0000,0.0000,0.0000,0.000,0.000,0.000,418,424,375,412,348,2025-05-23T21:58:01.039958
30515,0.0000,0.0000,0.0000,0.000,0.000,0.000,361,394,391,416,382,2025-05-23T21:58:01.040045
30516,0.0000,0.0000,0.0000,0.000,0.000,0.000,403,413,393,401,382,2025-05-23T21:58:01.040069
30517,0.0000,0.0000,0.0000,0.000,0.000,0.000,402,398,390,412,388,2025-05-23T21:58:01.040084
30518,0.0000,0.0000,0.0000,0.000,0.000,0.000,410,405,383,387,391,2025-05-23T21:58:01.040097
30519,0.0000,0.0000,0.0000,0.000,0.000,0.000,422,403,384,408,349,2025-05-23T21:58:01.040111
30520,0.0000,0.0000,0.0000,0.000,0.000,0.000,393,412,347,400,380,2025-05-23T21:58:01.040124
30521,0.0000,0.0000,0.0000,0.000,0.000,0.000,378,350,356,360,400,2025-05-23T21:58:01.040226
30522,0.0000,0.0000,0.0000,0.000,0.000,0.000,342,402,357,333,405,2025-05-23T21:58:01.040245
30523,0.0000,0.0000,0.0000,0.000,0.000,0.000,389,340,380,347,412,2025-05-23T21:58:01.040257
30524,0.0000,0.0000,0.0000,0.000,0.000,0.000,342,380,341,391,405,2025-05-23T21:58:01.040269
30525,0.0000,0.0000,0.0000,0.000,0.000,0.000,327,367,366,410,400,2025-05-23T21:58:01.040281
30526,0.0000,0.0000,0.0000,0.000,0.000,0.000,402,371,371,395,403,2025-05-23T21:58:01.040293
30527,0.0000,0.0000,0.0000,0.000,0.000,0.000,389,391,375,384,412,2025-05-23T21:58:01.040304
30528,0.0000,0.0000,0.0000,0.000,0.000,0.000,393,419,387,402,368,2025-05-23T21:58:01.040315
30529,0.0000,0.0000,0.0000,0.000,0.000,0.000,414,432,358,403,390,2025-05-23T21:58:01.040368
30530,0.0000,0.0000,0.0000,0.000,0.000,0.000,413,432,344,371,395,2025-05-23T21:58:01.040381
30531,0.0000,0.0000,0.0000,0.000,0.000,0.000,395,419,357,384,391,2025-05-23T21:58:01.040392
30532,0.0000,0.0000,0.0000,0.000,0.000,0.000,409,404,377,397,401,2025-05-23T21:58:01.040404
30533,0.0000,0.0000,0.0000,0.000,0.000,0.000,347,420,311,381,388,2025-05-23T21:58:01.242417
30534,0.0000,0.0000,0.0000,0.000,0.000,0.000,381,424,340,401,390,2025-05-23T21:58:01.242462
30535,0.0000,0.0000,0.0000,0.000,0.000,0.000,387,417,371,409,401,2025-05-23T21:58:01.242475
30536,0.0000,0.0000,0.0000,0.000,0.000,0.000,384,364,381,413,394,2025-05-23T21:58:01.242486
30537,0.0000,0.0000,0.0000,0.000,0.000,0.000,370,405,377,397,393,2025-05-23T21:58:01.242497
30538,0.0000,0.0000,0.0000,0.000,0.000,0.000,419,413,371,386,414,2025-05-23T21:58:01.242507
30539,0.0000,0.0000,0.0000,0.000,0.000,0.000,405,407,371,404,400,2025-05-23T21:58:01.242517
30540,0.0000,0.0000,0.0000,0.000,0.000,0.000,403,421,379,395,400,2025-05-23T21:58:01.242526
30541,0.0000,0.0000,0.0000,0.000,0.000,0.000,351,344,384,402,416,2025-05-23T21:58:01.242536
30542,0.0000,0.0000,0.0000,0.000,0.000,0.000,410,348,342,415,399,2025-05-23T21:58:01.242546
30543,0.0000,0.0000,0.0000,0.000,0.000,0.000,405,377,371,349,409,2025-05-23T21:58:01.242555
30544,0.0000,0.0000,0.0000,0.000,0.000,0.000,386,408,353,389,400,2025-05-23T21:58:01.242564
30545,0.0000,0.0000,0.0000,0.000,0.000,0.000,401,390,343,490,423,2025-05-23T21:58:01.242574
30546,0.0000,0.0000,0.0000,0.000,0.000,0.000,408,409,372,565,420,2025-05-23T21:58:01.242582
30547,0.0000,0.0000,0.0000,0.000,0.000,0.000,416,414,371,565,425,2025-05-23T21:58:01.242591
30548,0.0000,0.0000,0.0000,0.000,0.000,0.000,414,404,370,505,412,2025-05-23T21:58:01.242632
30549,0.0000,0.0000,0.0000,0.000,0.000,0.000,409,396,372,541,533,2025-05-23T21:58:01.242642
30550,0.0000,0.0000,0.0000,0.000,0.000,0.000,390,419,378,521,550,2025-05-23T21:58:01.242651
30551,0.0000,0.0000,0.0000,0.000,0.000,0.000,403,421,373,509,564,2025-05-23T21:58:01.242660
30552,0.0000,0.0000,0.0000,0.000,0.000,0.000,415,399,382,483,499,2025-05-23T21:58:01.447805
30553,0.0000,0.0000,0.0000,0.000,0.000,0.000,424,426,397,485,454,2025-05-23T21:58:01.447868
30554,0.0000,0.0000,0.0000,0.000,0.000,0.000,402,364,365,489,471,2025-05-23T21:58:01.447886
30555,0.0000,0.0000,0.0000,0.000,0.000,0.000,411,385,367,476,480,2025-05-23T21:58:01.447901
30556,0.0000,0.0000,0.0000,0.000,0.000,0.000,427,407,365,476,492,2025-05-23T21:58:01.447916
30557,0.0000,0.0000,0.0000,0.000,0.000,0.000,420,377,380,436,454,2025-05-23T21:58:01.447930
30558,0.0000,0.0000,0.0000,0.000,0.000,0.000,418,421,347,474,423,2025-05-23T21:58:01.448064
30559,0.0000,0.0000,0.0000,0.000,0.000,0.000,412,437,370,468,363,2025-05-23T21:58:01.448083
30560,0.0000,0.0000,0.0000,0.000,0.000,0.000,397,426,336,477,374,2025-05-23T21:58:01.448097
30561,0.0000,0.0000,0.0000,0.000,0.000,0.000,403,429,354,438,395,2025-05-23T21:58:01.448114
30562,0.0000,0.0000,0.0000,0.000,0.000,0.000,401,420,368,455,399,2025-05-23T21:58:01.448130
30563,0.0000,0.0000,0.0000,0.000,0.000,0.000,403,420,369,471,410,2025-05-23T21:58:01.448142
30564,0.0000,0.0000,0.0000,0.000,0.000,0.000,409,345,380,432,399,2025-05-23T21:58:01.448153
30565,0.0000,0.0000,0.0000,0.000,0.000,0.000,404,389,387,447,394,2025-05-23T21:58:01.448163
30566,0.0000,0.0000,0.0000,0.000,0.000,0.000,425,344,377,435,382,2025-05-23T21:58:01.448174
30567,0.0000,0.0000,0.0000,0.000,0.000,0.000,428,416,351,422,397,2025-05-23T21:58:01.448438
30568,0.0000,0.0000,0.0000,0.000,0.000,0.000,402,307,367,423,350,2025-05-23T21:58:01.448491
30569,0.0000,0.0000,0.0000,0.000,0.000,0.000,381,390,370,425,386,2025-05-23T21:58:01.448506
30570,0.0000,0.0000,0.0000,0.000,0.000,0.000,407,389,361,409,399,2025-05-23T21:58:01.653962
30571,0.0000,0.0000,0.0000,0.000,0.000,0.000,413,417,376,358,310,2025-05-23T21:58:01.654014
30572,0.0000,0.0000,0.0000,0.000,0.000,0.000,398,355,372,384,362,2025-05-23T21:58:01.654032
30573,0.0000,0.0000,0.0000,0.000,0.000,0.000,404,376,381,346,373,2025-05-23T21:58:01.654153
30574,0.0000,0.0000,0.0000,0.000,0.000,0.000,404,338,385,387,389,2025-05-23T21:58:01.654163
30575,0.0000,0.0000,0.0000,0.000,0.000,0.000,420,409,392,391,381,2025-05-23T21:58:01.654173
30576,0.0000,0.0000,0.0000,0.000,0.000,0.000,403,401,398,403,406,2025-05-23T21:58:01.654183
30577,0.0000,0.0000,0.0000,0.000,0.000,0.000,405,408,400,415,390,2025-05-23T21:58:01.654192
30578,0.0000,0.0000,0.0000,0.000,0.000,0.000,402,397,397,413,382,2025-05-23T21:58:01.654201
30579,0.0000,0.0000,0.0000,0.000,0.000,0.000,416,358,394,403,397,2025-05-23T21:58:01.654210
30580,0.0000,0.0000,0.0000,0.000,0.000,0.000,400,382,380,409,408,2025-05-23T21:58:01.654219
30581,0.0000,0.0000,0.0000,0.000,0.000,0.000,400,350,387,392,365,2025-05-23T21:58:01.654228
30582,0.0000,0.0000,0.0000,0.000,0.000,0.000,420,342,389,387,383,2025-05-23T21:58:01.654237
30583,0.0000,0.0000,0.0000,0.000,0.000,0.000,424,407,386,406,399,2025-05-23T21:58:01.654245
30584,0.0000,0.0000,0.0000,0.000,0.000,0.000,414,404,395,405,347,2025-05-23T21:58:01.654253
30585,0.0000,0.0000,0.0000,0.000,0.000,0.000,400,421,399,397,366,2025-05-23T21:58:01.654299
30586,0.0000,0.0000,0.0000,0.000,0.000,0.000,410,431,389,409,393,2025-05-23T21:58:01.654309
30587,0.0000,0.0000,0.0000,0.000,0.000,0.000,391,416,393,398,407,2025-05-23T21:58:01.654318
30588,0.0000,0.0000,0.0000,0.000,0.000,0.000,403,397,389,391,403,2025-05-23T21:58:01.654328
30589,0.0000,0.0000,0.0000,0.000,0.000,0.000,383,418,346,406,398,2025-05-23T21:58:01.654337
30590,0.0000,0.0000,0.0000,0.000,0.000,0.000,400,420,374,356,411,2025-05-23T21:58:01.858406
30591,0.0000,0.0000,0.0000,0.000,0.000,0.000,415,351,376,401,356,2025-05-23T21:58:01.858447
30592,0.0000,0.0000,0.0000,0.000,0.000,0.000,409,403,389,394,349,2025-05-23T21:58:01.858457
30593,0.0000,0.0000,0.0000,0.000,0.000,0.000,405,400,386,403,389,2025-05-23T21:58:01.858465
30594,0.0000,0.0000,0.0000,0.000,0.000,0.000,400,365,387,412,393,2025-05-23T21:58:01.858474
30595,0.0000,0.0000,0.0000,0.000,0.000,0.000,385,397,390,415,403,2025-05-23T21:58:01.858481
30596,0.0000,0.0000,0.0000,0.000,0.000,0.000,416,395,375,422,396,2025-05-23T21:58:01.858489
30597,0.0000,0.0000,0.0000,0.000,0.000,0.000,420,390,392,358,410,2025-05-23T21:58:01.858496
30598,0.0000,0.0000,0.0000,0.000,0.000,0.000,428,419,376,395,408,2025-05-23T21:58:01.858504
30599,0.0000,0.0000,0.0000,0.000,0.000,0.000,428,363,382,369,393,2025-05-23T21:58:01.858511
30600,0.0000,0.0000,0.0000,0.000,0.000,0.000,425,335,341,399,388,2025-05-23T21:58:01.858518
30601,0.0000,0.0000,0.0000,0.000,0.000,0.000,379,391,363,348,392,2025-05-23T21:58:01.858524
30602,0.0000,0.0000,0.0000,0.000,0.000,0.000,409,425,368,381,385,2025-05-23T21:58:01.858531
30603,0.0000,0.0000,0.0000,0.000,0.000,0.000,395,422,378,391,406,2025-05-23T21:58:01.858537
30604,0.0000,0.0000,0.0000,0.000,0.000,0.000,419,421,379,401,352,2025-05-23T21:58:01.858543
30605,0.0000,0.0000,0.0000,0.000,0.000,0.000,422,434,336,345,371,2025-05-23T21:58:01.858580
30606,0.0000,0.0000,0.0000,0.000,0.000,0.000,344,308,351,365,395,2025-05-23T21:58:01.858587
30607,0.0000,0.0000,0.0000,0.000,0.000,0.000,389,317,363,397,390,2025-05-23T21:58:01.858593
30608,0.0000,0.0000,0.0000,0.000,0.000,0.000,413,402,384,398,412,2025-05-23T21:58:02.065124
30609,0.0000,0.0000,0.0000,0.000,0.000,0.000,362,425,346,414,422,2025-05-23T21:58:02.065193
30610,0.0000,0.0000,0.0000,0.000,0.000,0.000,417,430,376,361,403,2025-05-23T21:58:02.065211
30611,0.0000,0.0000,0.0000,0.000,0.000,0.000,424,371,379,386,360,2025-05-23T21:58:02.065226
30612,0.0000,0.0000,0.0000,0.000,0.000,0.000,359,406,388,395,391,2025-05-23T21:58:02.065247
30613,0.0000,0.0000,0.0000,0.000,0.000,0.000,391,423,397,408,366,2025-05-23T21:58:02.065261
30614,0.0000,0.0000,0.0000,0.000,0.000,0.000,403,422,395,399,380,2025-05-23T21:58:02.065278
30615,0.0000,0.0000,0.0000,0.000,0.000,0.000,422,432,354,399,380,2025-05-23T21:58:02.065292
30616,0.0000,0.0000,0.0000,0.000,0.000,0.000,372,411,329,411,391,2025-05-23T21:58:02.065306
30617,0.0000,0.0000,0.0000,0.000,0.000,0.000,402,411,360,398,394,2025-05-23T21:58:02.065318
30618,0.0000,0.0000,0.0000,0.000,0.000,0.000,410,404,367,414,358,2025-05-23T21:58:02.065330
30619,0.0000,0.0000,0.0000,0.000,0.000,0.000,400,403,369,403,375,2025-05-23T21:58:02.065343
30620,0.0000,0.0000,0.0000,0.000,0.000,0.000,415,411,376,414,392,2025-05-23T21:58:02.065355
30621,0.0000,0.0000,0.0000,0.000,0.000,0.000,418,429,387,395,396,2025-05-23T21:58:02.065367
30622,0.0000,0.0000,0.0000,0.000,0.000,0.000,417,404,393,407,387,2025-05-23T21:58:02.065379
30623,0.0000,0.0000,0.0000,0.000,0.000,0.000,396,424,391,409,399,2025-05-23T21:58:02.065439
30624,0.0000,0.0000,0.0000,0.000,0.000,0.000,398,413,381,402,406,2025-05-23T21:58:02.065452
30625,0.0000,0.0000,0.0000,0.000,0.000,0.000,413,392,382,414,421,2025-05-23T21:58:02.065464
30626,0.0000,0.0000,0.0000,0.000,0.000,0.000,399,394,349,397,414,2025-05-23T21:58:02.065477
30627,0.0000,0.0000,0.0000,0.000,0.000,0.000,394,419,355,386,408,2025-05-23T21:58:02.267998
30628,0.0000,0.0000,0.0000,0.000,0.000,0.000,348,421,378,367,393,2025-05-23T21:58:02.268057
30629,0.0000,0.0000,0.0000,0.000,0.000,0.000,391,430,355,384,387,2025-05-23T21:58:02.268069
30630,0.0000,0.0000,0.0000,0.000,0.000,0.000,416,406,337,398,394,2025-05-23T21:58:02.268080
30631,0.0000,0.0000,0.0000,0.000,0.000,0.000,421,408,362,399,378,2025-05-23T21:58:02.268090
30632,0.0000,0.0000,0.0000,0.000,0.000,0.000,426,353,372,388,401,2025-05-23T21:58:02.268099
30633,0.0000,0.0000,0.0000,0.000,0.000,0.000,412,382,384,396,396,2025-05-23T21:58:02.268109
30634,0.0000,0.0000,0.0000,0.000,0.000,0.000,413,413,376,349,403,2025-05-23T21:58:02.268118
30635,0.0000,0.0000,0.0000,0.000,0.000,0.000,432,369,339,392,412,2025-05-23T21:58:02.268127
30636,0.0000,0.0000,0.0000,0.000,0.000,0.000,424,396,376,366,358,2025-05-23T21:58:02.268136
30637,0.0000,0.0000,0.0000,0.000,0.000,0.000,430,418,387,336,335,2025-05-23T21:58:02.268145
30638,0.0000,0.0000,0.0000,0.000,0.000,0.000,421,432,388,382,384,2025-05-23T21:58:02.268154
30639,0.0000,0.0000,0.0000,0.000,0.000,0.000,406,416,378,394,407,2025-05-23T21:58:02.287098
30640,0.0000,0.0000,0.0000,0.000,0.000,0.000,394,421,386,367,405,2025-05-23T21:58:02.287133
30641,0.0000,0.0000,0.0000,0.000,0.000,0.000,413,405,374,401,392,2025-05-23T21:58:02.287144
30642,0.0000,0.0000,0.0000,0.000,0.000,0.000,392,418,391,389,385,2025-05-23T21:58:02.287196
30643,0.0000,0.0000,0.0000,0.000,0.000,0.000,393,398,353,397,403,2025-05-23T21:58:02.287205
30644,0.0000,0.0000,0.0000,0.000,0.000,0.000,414,397,374,400,363,2025-05-23T21:58:02.287214
30645,0.0000,0.0000,0.0000,0.000,0.000,0.000,429,391,368,417,390,2025-05-23T21:58:02.287222
30646,0.0000,0.0000,0.0000,0.000,0.000,0.000,429,402,367,408,387,2025-05-23T21:58:02.469761
30647,0.0000,0.0000,0.0000,0.000,0.000,0.000,426,372,380,419,394,2025-05-23T21:58:02.469813
30648,0.0000,0.0000,0.0000,0.000,0.000,0.000,382,384,374,403,404,2025-05-23T21:58:02.469828
30649,0.0000,0.0000,0.0000,0.000,0.000,0.000,349,412,372,415,400,2025-05-23T21:58:02.469841
30650,0.0000,0.0000,0.0000,0.000,0.000,0.000,377,418,382,359,391,2025-05-23T21:58:02.469855
30651,0.0000,0.0000,0.0000,0.000,0.000,0.000,387,424,353,396,391,2025-05-23T21:58:02.469866
30652,0.0000,0.0000,0.0000,0.000,0.000,0.000,417,420,372,356,406,2025-05-23T21:58:02.469876
30653,0.0000,0.0000,0.0000,0.000,0.000,0.000,355,396,385,387,410,2025-05-23T21:58:02.469887
30654,0.0000,0.0000,0.0000,0.000,0.000,0.000,385,389,376,413,390,2025-05-23T21:58:02.469897
30655,0.0000,0.0000,0.0000,0.000,0.000,0.000,392,372,393,402,373,2025-05-23T21:58:02.469907
30656,0.0000,0.0000,0.0000,0.000,0.000,0.000,381,414,403,404,379,2025-05-23T21:58:02.469918
30657,0.0000,0.0000,0.0000,0.000,0.000,0.000,405,414,353,413,339,2025-05-23T21:58:02.469928
30658,0.0000,0.0000,0.0000,0.000,0.000,0.000,413,400,365,353,367,2025-05-23T21:58:02.469938
30659,0.0000,0.0000,0.0000,0.000,0.000,0.000,420,362,365,376,381,2025-05-23T21:58:02.469947
30660,0.0000,0.0000,0.0000,0.000,0.000,0.000,416,406,384,304,396,2025-05-23T21:58:02.469957
30661,0.0000,0.0000,0.0000,0.000,0.000,0.000,401,392,357,364,387,2025-05-23T21:58:02.470008
30662,0.0000,0.0000,0.0000,0.000,0.000,0.000,424,410,350,404,392,2025-05-23T21:58:02.470129
30663,0.0000,0.0000,0.0000,0.000,0.000,0.000,400,429,372,354,394,2025-05-23T21:58:02.470140
30664,0.0000,0.0000,0.0000,0.000,0.000,0.000,409,429,374,383,410,2025-05-23T21:58:02.470151
30665,0.0000,0.0000,0.0000,0.000,0.000,0.000,419,396,386,390,354,2025-05-23T21:58:02.518201
30666,0.0000,0.0000,0.0000,0.000,0.000,0.000,407,405,377,391,368,2025-05-23T21:58:02.518244
30667,0.0000,0.0000,0.0000,0.000,0.000,0.000,347,420,386,410,386,2025-05-23T21:58:02.518255
30668,0.0000,0.0000,0.0000,0.000,0.000,0.000,402,435,371,404,402,2025-05-23T21:58:02.518265
30669,0.0000,0.0000,0.0000,0.000,0.000,0.000,418,412,371,409,411,2025-05-23T21:58:02.675691
30670,0.0000,0.0000,0.0000,0.000,0.000,0.000,398,405,389,512,410,2025-05-23T21:58:02.675737
30671,0.0000,0.0000,0.0000,0.000,0.000,0.000,411,390,394,507,563,2025-05-23T21:58:02.675750
30672,0.0000,0.0000,0.0000,0.000,0.000,0.000,417,407,379,477,537,2025-05-23T21:58:02.675761
30673,0.0000,0.0000,0.0000,0.000,0.000,0.000,402,400,376,480,518,2025-05-23T21:58:02.675770
30674,0.0000,0.0000,0.0000,0.000,0.000,0.000,417,400,355,457,508,2025-05-23T21:58:02.675780
30675,0.0000,0.0000,0.0000,0.000,0.000,0.000,401,415,371,466,511,2025-05-23T21:58:02.675789
30676,0.0000,0.0000,0.0000,0.000,0.000,0.000,404,306,368,414,463,2025-05-23T21:58:02.675798
30677,0.0000,0.0000,0.0000,0.000,0.000,0.000,395,383,376,449,445,2025-05-23T21:58:02.675807
30678,0.0000,0.0000,0.0000,0.000,0.000,0.000,409,396,389,455,433,2025-05-23T21:58:02.675816
30679,0.0000,0.0000,0.0000,0.000,0.000,0.000,342,392,348,454,411,2025-05-23T21:58:02.675824
30680,0.0000,0.0000,0.0000,0.000,0.000,0.000,385,410,381,441,399,2025-05-23T21:58:02.675833
30681,0.0000,0.0000,0.0000,0.000,0.000,0.000,404,397,372,442,348,2025-05-23T21:58:02.675842
30682,0.0000,0.0000,0.0000,0.000,0.000,0.000,404,417,368,463,389,2025-05-23T21:58:02.676079
30683,0.0000,0.0000,0.0000,0.000,0.000,0.000,409,394,343,457,380,2025-05-23T21:58:02.676092
30684,0.0000,0.0000,0.0000,0.000,0.000,0.000,421,406,377,442,340,2025-05-23T21:58:02.725974
30685,0.0000,0.0000,0.0000,0.000,0.000,0.000,375,395,369,457,363,2025-05-23T21:58:02.726025
30686,0.0000,0.0000,0.0000,0.000,0.000,0.000,387,390,335,459,387,2025-05-23T21:58:02.726038
30687,0.0000,0.0000,0.0000,0.000,0.000,0.000,400,405,352,403,381,2025-05-23T21:58:02.726050
30688,0.0000,0.0000,0.0000,0.000,0.000,0.000,386,413,368,374,391,2025-05-23T21:58:02.726061
30689,0.0000,0.0000,0.0000,0.000,0.000,0.000,403,413,361,378,355,2025-05-23T21:58:02.775825
30690,0.0000,0.0000,0.0000,0.000,0.000,0.000,390,355,374,411,379,2025-05-23T21:58:02.775867
30691,0.0000,0.0000,0.0000,0.000,0.000,0.000,400,397,365,400,402,2025-05-23T21:58:02.775879
30692,0.0000,0.0000,0.0000,0.000,0.000,0.000,345,398,382,390,410,2025-05-23T21:58:02.775889
30693,0.0000,0.0000,0.0000,0.000,0.000,0.000,394,418,390,410,419,2025-05-23T21:58:02.881308
30694,0.0000,0.0000,0.0000,0.000,0.000,0.000,414,415,385,396,357,2025-05-23T21:58:02.881355
30695,0.0000,0.0000,0.0000,0.000,0.000,0.000,396,430,353,409,377,2025-05-23T21:58:02.881368
30696,0.0000,0.0000,0.0000,0.000,0.000,0.000,340,428,382,408,351,2025-05-23T21:58:02.881378
30697,0.0000,0.0000,0.0000,0.000,0.000,0.000,371,395,340,360,371,2025-05-23T21:58:02.881388
30698,0.0000,0.0000,0.0000,0.000,0.000,0.000,398,372,355,389,396,2025-05-23T21:58:02.881397
30699,0.0000,0.0000,0.0000,0.000,0.000,0.000,423,387,369,390,365,2025-05-23T21:58:02.881405
30700,0.0000,0.0000,0.0000,0.000,0.000,0.000,417,400,373,402,382,2025-05-23T21:58:02.881414
30701,0.0000,0.0000,0.0000,0.000,0.000,0.000,424,363,368,411,343,2025-05-23T21:58:02.881424
30702,0.0000,0.0000,0.0000,0.000,0.000,0.000,408,394,368,402,376,2025-05-23T21:58:02.881433
30703,0.0000,0.0000,0.0000,0.000,0.000,0.000,347,407,376,402,401,2025-05-23T21:58:03.089395
30704,0.0000,0.0000,0.0000,0.000,0.000,0.000,408,423,338,395,390,2025-05-23T21:58:03.089440
30705,0.0000,0.0000,0.0000,0.000,0.000,0.000,404,413,348,415,346,2025-05-23T21:58:03.089453
30706,0.0000,0.0000,0.0000,0.000,0.000,0.000,428,429,356,419,380,2025-05-23T21:58:03.089463
30707,0.0000,0.0000,0.0000,0.000,0.000,0.000,385,422,379,396,355,2025-05-23T21:58:03.089473
30708,0.0000,0.0000,0.0000,0.000,0.000,0.000,334,349,371,388,394,2025-05-23T21:58:03.089483
30709,0.0000,0.0000,0.0000,0.000,0.000,0.000,387,386,386,399,396,2025-05-23T21:58:03.089492
30710,0.0000,0.0000,0.0000,0.000,0.000,0.000,346,416,360,349,387,2025-05-23T21:58:03.089501
30711,0.0000,0.0000,0.0000,0.000,0.000,0.000,382,438,342,381,391,2025-05-23T21:58:03.089511
30712,0.0000,0.0000,0.0000,0.000,0.000,0.000,410,414,367,379,398,2025-05-23T21:58:03.089519
30713,0.0000,0.0000,0.0000,0.000,0.000,0.000,375,397,377,396,390,2025-05-23T21:58:03.089527
30714,0.0000,0.0000,0.0000,0.000,0.000,0.000,408,427,370,394,406,2025-05-23T21:58:03.089536
30715,0.0000,0.0000,0.0000,0.000,0.000,0.000,429,432,384,375,389,2025-05-23T21:58:03.089545
30716,0.0000,0.0000,0.0000,0.000,0.000,0.000,413,426,347,335,396,2025-05-23T21:58:03.089556
30717,0.0000,0.0000,0.0000,0.000,0.000,0.000,423,421,368,375,350,2025-05-23T21:58:03.089564
30718,0.0000,0.0000,0.0000,0.000,0.000,0.000,397,405,381,386,390,2025-05-23T21:58:03.089601
30719,0.0000,0.0000,0.0000,0.000,0.000,0.000,417,391,395,343,394,2025-05-23T21:58:03.089611
30720,0.0000,0.0000,0.0000,0.000,0.000,0.000,305,403,351,328,395,2025-05-23T21:58:03.089619
30721,0.0000,0.0000,0.0000,0.000,0.000,0.000,370,349,368,375,414,2025-05-23T21:58:03.089628
30722,0.0000,0.0000,0.0000,0.000,0.000,0.000,396,390,382,367,399,2025-05-23T21:58:03.288740
30723,0.0000,0.0000,0.0000,0.000,0.000,0.000,395,383,341,373,405,2025-05-23T21:58:03.288786
30724,0.0000,0.0000,0.0000,0.000,0.000,0.000,399,336,338,391,409,2025-05-23T21:58:03.288798
30725,0.0000,0.0000,0.0000,0.000,0.000,0.000,405,384,367,390,409,2025-05-23T21:58:03.288808
30726,0.0000,0.0000,0.0000,0.000,0.000,0.000,399,336,341,382,394,2025-05-23T21:58:03.288818
30727,0.0000,0.0000,0.0000,0.000,0.000,0.000,399,376,326,397,407,2025-05-23T21:58:03.288829
30728,0.0000,0.0000,0.0000,0.000,0.000,0.000,403,416,323,406,359,2025-05-23T21:58:03.288838
30729,0.0000,0.0000,0.0000,0.000,0.000,0.000,400,359,343,409,385,2025-05-23T21:58:03.288849
30730,0.0000,0.0000,0.0000,0.000,0.000,0.000,385,384,325,351,388,2025-05-23T21:58:03.288859
30731,0.0000,0.0000,0.0000,0.000,0.000,0.000,395,406,348,331,347,2025-05-23T21:58:03.288868
30732,0.0000,0.0000,0.0000,0.000,0.000,0.000,404,428,329,389,389,2025-05-23T21:58:03.288879
30733,0.0000,0.0000,0.0000,0.000,0.000,0.000,396,364,359,402,411,2025-05-23T21:58:03.288888
30734,0.0000,0.0000,0.0000,0.000,0.000,0.000,404,399,365,414,359,2025-05-23T21:58:03.288897
30735,0.0000,0.0000,0.0000,0.000,0.000,0.000,401,400,376,412,356,2025-05-23T21:58:03.288905
30736,0.0000,0.0000,0.0000,0.000,0.000,0.000,395,403,383,403,374,2025-05-23T21:58:03.288913
30737,0.0000,0.0000,0.0000,0.000,0.000,0.000,391,420,389,411,377,2025-05-23T21:58:03.288982
30738,0.0000,0.0000,0.0000,0.000,0.000,0.000,336,408,391,395,377,2025-05-23T21:58:03.288993
30739,0.0000,0.0000,0.0000,0.000,0.000,0.000,327,395,389,386,380,2025-05-23T21:58:03.289002
30740,0.0000,0.0000,0.0000,0.000,0.000,0.000,326,426,354,387,391,2025-05-23T21:58:03.289011
30741,0.0000,0.0000,0.0000,0.000,0.000,0.000,389,433,373,381,383,2025-05-23T21:58:03.342542
30742,0.0000,0.0000,0.0000,0.000,0.000,0.000,384,387,370,410,364,2025-05-23T21:58:03.342585
30743,0.0000,0.0000,0.0000,0.000,0.000,0.000,391,412,385,389,383,2025-05-23T21:58:03.342596
30744,0.0000,0.0000,0.0000,0.000,0.000,0.000,392,425,376,415,405,2025-05-23T21:58:03.342605
30745,0.0000,0.0000,0.0000,0.000,0.000,0.000,407,403,392,410,410,2025-05-23T21:58:03.342615
30746,0.0000,0.0000,0.0000,0.000,0.000,0.000,422,424,347,398,405,2025-05-23T21:58:03.496047
30747,0.0000,0.0000,0.0000,0.000,0.000,0.000,352,421,363,394,358,2025-05-23T21:58:03.496095
30748,0.0000,0.0000,0.0000,0.000,0.000,0.000,387,399,361,395,375,2025-05-23T21:58:03.496109
30749,0.0000,0.0000,0.0000,0.000,0.000,0.000,415,411,363,342,379,2025-05-23T21:58:03.496120
30750,0.0000,0.0000,0.0000,0.000,0.000,0.000,388,409,329,378,405,2025-05-23T21:58:03.496131
30751,0.0000,0.0000,0.0000,0.000,0.000,0.000,396,353,353,387,412,2025-05-23T21:58:03.496352
30752,0.0000,0.0000,0.0000,0.000,0.000,0.000,361,400,382,418,404,2025-05-23T21:58:03.496362
30753,0.0000,0.0000,0.0000,0.000,0.000,0.000,392,362,358,401,398,2025-05-23T21:58:03.496373
30754,0.0000,0.0000,0.0000,0.000,0.000,0.000,412,418,381,406,398,2025-05-23T21:58:03.496384
30755,0.0000,0.0000,0.0000,0.000,0.000,0.000,350,396,383,397,392,2025-05-23T21:58:03.496393
30756,0.0000,0.0000,0.0000,0.000,0.000,0.000,403,394,392,408,406,2025-05-23T21:58:03.496403
30757,0.0000,0.0000,0.0000,0.000,0.000,0.000,390,398,352,311,399,2025-05-23T21:58:03.496412
30758,0.0000,0.0000,0.0000,0.000,0.000,0.000,410,418,376,278,403,2025-05-23T21:58:03.496422
30759,0.0000,0.0000,0.0000,0.000,0.000,0.000,413,402,380,371,405,2025-05-23T21:58:03.496431
30760,0.0000,0.0000,0.0000,0.000,0.000,0.000,399,415,384,409,356,2025-05-23T21:58:03.700474
30761,0.0000,0.0000,0.0000,0.000,0.000,0.000,352,352,388,414,392,2025-05-23T21:58:03.700521
30762,0.0000,0.0000,0.0000,0.000,0.000,0.000,332,408,350,404,391,2025-05-23T21:58:03.700532
30763,0.0000,0.0000,0.0000,0.000,0.000,0.000,403,408,325,402,409,2025-05-23T21:58:03.700542
30764,0.0000,0.0000,0.0000,0.000,0.000,0.000,403,401,357,404,360,2025-05-23T21:58:03.700551
30765,0.0000,0.0000,0.0000,0.000,0.000,0.000,401,406,329,403,380,2025-05-23T21:58:03.700560
30766,0.0000,0.0000,0.0000,0.000,0.000,0.000,379,426,329,415,379,2025-05-23T21:58:03.700568
30767,0.0000,0.0000,0.0000,0.000,0.000,0.000,404,420,329,410,387,2025-05-23T21:58:03.700577
30768,0.0000,0.0000,0.0000,0.000,0.000,0.000,384,406,358,418,400,2025-05-23T21:58:03.700590
30769,0.0000,0.0000,0.0000,0.000,0.000,0.000,400,406,364,360,391,2025-05-23T21:58:03.700598
30770,0.0000,0.0000,0.0000,0.000,0.000,0.000,400,420,345,394,414,2025-05-23T21:58:03.700606
30771,0.0000,0.0000,0.0000,0.000,0.000,0.000,394,431,353,387,399,2025-05-23T21:58:03.700614
30772,0.0000,0.0000,0.0000,0.000,0.000,0.000,407,425,330,356,408,2025-05-23T21:58:03.700622
30773,0.0000,0.0000,0.0000,0.000,0.000,0.000,372,379,353,377,358,2025-05-23T21:58:03.700630
30774,0.0000,0.0000,0.0000,0.000,0.000,0.000,410,409,355,378,397,2025-05-23T21:58:03.700637
30775,0.0000,0.0000,0.0000,0.000,0.000,0.000,426,415,376,350,403,2025-05-23T21:58:03.700670
30776,0.0000,0.0000,0.0000,0.000,0.000,0.000,396,410,373,373,391,2025-05-23T21:58:03.700679
30777,0.0000,0.0000,0.0000,0.000,0.000,0.000,409,427,369,391,402,2025-05-23T21:58:03.700687
30778,0.0000,0.0000,0.0000,0.000,0.000,0.000,394,416,379,385,408,2025-05-23T21:58:03.700695
30779,0.0000,0.0000,0.0000,0.000,0.000,0.000,375,342,374,418,400,2025-05-23T21:58:03.906824
30780,0.0000,0.0000,0.0000,0.000,0.000,0.000,396,412,385,409,399,2025-05-23T21:58:03.906870
30781,0.0000,0.0000,0.0000,0.000,0.000,0.000,411,422,392,367,389,2025-05-23T21:58:03.906882
30782,0.0000,0.0000,0.0000,0.000,0.000,0.000,389,424,342,393,350,2025-05-23T21:58:03.906892
30783,0.0000,0.0000,0.0000,0.000,0.000,0.000,417,426,363,391,389,2025-05-23T21:58:03.906902
30784,0.0000,0.0000,0.0000,0.000,0.000,0.000,411,421,382,401,411,2025-05-23T21:58:03.906911
30785,0.0000,0.0000,0.0000,0.000,0.000,0.000,408,412,346,415,413,2025-05-23T21:58:03.906920
30786,0.0000,0.0000,0.0000,0.000,0.000,0.000,411,399,373,377,408,2025-05-23T21:58:03.906930
30787,0.0000,0.0000,0.0000,0.000,0.000,0.000,368,414,390,426,387,2025-05-23T21:58:03.906938
30788,0.0000,0.0000,0.0000,0.000,0.000,0.000,387,399,377,417,409,2025-05-23T21:58:03.906950
30789,0.0000,0.0000,0.0000,0.000,0.000,0.000,411,398,383,438,437,2025-05-23T21:58:03.906958
30790,0.0000,0.0000,0.0000,0.000,0.000,0.000,417,398,351,422,469,2025-05-23T21:58:03.906966
30791,0.0000,0.0000,0.0000,0.000,0.000,0.000,396,390,330,435,502,2025-05-23T21:58:03.906973
30792,0.0000,0.0000,0.0000,0.000,0.000,0.000,396,402,362,379,489,2025-05-23T21:58:03.906981
30793,0.0000,0.0000,0.0000,0.000,0.000,0.000,341,419,365,401,470,2025-05-23T21:58:03.906989
30794,0.0000,0.0000,0.0000,0.000,0.000,0.000,386,429,371,409,454,2025-05-23T21:58:03.907025
30795,0.0000,0.0000,0.0000,0.000,0.000,0.000,427,417,382,408,448,2025-05-23T21:58:03.907034
30796,0.0000,0.0000,0.0000,0.000,0.000,0.000,373,389,390,408,439,2025-05-23T21:58:03.907041
30797,0.0000,0.0000,0.0000,0.000,0.000,0.000,402,397,382,377,428,2025-05-23T21:58:03.907049
30798,0.0000,0.0000,0.0000,0.000,0.000,0.000,345,417,386,413,446,2025-05-23T21:58:03.960739
30799,0.0000,0.0000,0.0000,0.000,0.000,0.000,396,425,372,425,460,2025-05-23T21:58:03.960779
30800,0.0000,0.0000,0.0000,0.000,0.000,0.000,305,355,370,406,439,2025-05-23T21:58:03.960790
30801,0.0000,0.0000,0.0000,0.000,0.000,0.000,387,377,380,419,426,2025-05-23T21:58:03.960799
30802,0.0000,0.0000,0.0000,0.000,0.000,0.000,410,427,344,377,398,2025-05-23T21:58:04.106209
30803,0.0000,0.0000,0.0000,0.000,0.000,0.000,402,435,357,413,400,2025-05-23T21:58:04.106249
30804,0.0000,0.0000,0.0000,0.000,0.000,0.000,396,414,379,401,405,2025-05-23T21:58:04.106276
30805,0.0000,0.0000,0.0000,0.000,0.000,0.000,410,430,384,403,411,2025-05-23T21:58:04.106286
30806,0.0000,0.0000,0.0000,0.000,0.000,0.000,406,401,378,363,402,2025-05-23T21:58:04.106295
30807,0.0000,0.0000,0.0000,0.000,0.000,0.000,400,433,373,401,388,2025-05-23T21:58:04.106303
30808,0.0000,0.0000,0.0000,0.000,0.000,0.000,428,385,380,375,346,2025-05-23T21:58:04.106310
30809,0.0000,0.0000,0.0000,0.000,0.000,0.000,427,388,389,396,344,2025-05-23T21:58:04.106318
30810,0.0000,0.0000,0.0000,0.000,0.000,0.000,354,414,385,394,336,2025-05-23T21:58:04.106326
30811,0.0000,0.0000,0.0000,0.000,0.000,0.000,388,388,379,397,378,2025-05-23T21:58:04.106333
30812,0.0000,0.0000,0.0000,0.000,0.000,0.000,392,385,387,406,353,2025-05-23T21:58:04.106343
30813,0.0000,0.0000,0.0000,0.000,0.000,0.000,399,409,378,424,350,2025-05-23T21:58:04.106350
30814,0.0000,0.0000,0.0000,0.000,0.000,0.000,416,411,381,423,385,2025-05-23T21:58:04.106358
30815,0.0000,0.0000,0.0000,0.000,0.000,0.000,420,397,374,399,344,2025-05-23T21:58:04.106366
30816,0.0000,0.0000,0.0000,0.000,0.000,0.000,305,342,350,411,370,2025-05-23T21:58:04.155971
30817,0.0000,0.0000,0.0000,0.000,0.000,0.000,377,324,372,379,386,2025-05-23T21:58:04.156019
30818,0.0000,0.0000,0.0000,0.000,0.000,0.000,370,330,374,412,311,2025-05-23T21:58:04.156033
30819,0.0000,0.0000,0.0000,0.000,0.000,0.000,400,333,387,350,358,2025-05-23T21:58:04.156045
30820,0.0000,0.0000,0.0000,0.000,0.000,0.000,392,381,382,339,371,2025-05-23T21:58:04.156057
30821,0.0000,0.0000,0.0000,0.000,0.000,0.000,395,388,357,368,387,2025-05-23T21:58:04.224176
30822,0.0000,0.0000,0.0000,0.000,0.000,0.000,422,415,364,403,348,2025-05-23T21:58:04.224221
30823,0.0000,0.0000,0.0000,0.000,0.000,0.000,364,416,370,417,379,2025-05-23T21:58:04.224232
30824,0.0000,0.0000,0.0000,0.000,0.000,0.000,378,421,366,401,344,2025-05-23T21:58:04.224241
30825,0.0000,0.0000,0.0000,0.000,0.000,0.000,403,414,339,411,371,2025-05-23T21:58:04.314952
30826,0.0000,0.0000,0.0000,0.000,0.000,0.000,418,391,362,394,342,2025-05-23T21:58:04.314997
30827,0.0000,0.0000,0.0000,0.000,0.000,0.000,424,427,373,386,390,2025-05-23T21:58:04.315008
30828,0.0000,0.0000,0.0000,0.000,0.000,0.000,401,398,378,399,383,2025-05-23T21:58:04.315020
30829,0.0000,0.0000,0.0000,0.000,0.000,0.000,422,365,357,392,383,2025-05-23T21:58:04.315030
30830,0.0000,0.0000,0.0000,0.000,0.000,0.000,401,383,369,398,346,2025-05-23T21:58:04.315039
30831,0.0000,0.0000,0.0000,0.000,0.000,0.000,417,387,367,387,383,2025-05-23T21:58:04.315048
30832,0.0000,0.0000,0.0000,0.000,0.000,0.000,413,388,370,409,409,2025-05-23T21:58:04.315057
30833,0.0000,0.0000,0.0000,0.000,0.000,0.000,405,416,342,403,404,2025-05-23T21:58:04.315065
30834,0.0000,0.0000,0.0000,0.000,0.000,0.000,395,347,366,411,398,2025-05-23T21:58:04.315074
30835,0.0000,0.0000,0.0000,0.000,0.000,0.000,397,403,372,409,394,2025-05-23T21:58:04.363375
30836,0.0000,0.0000,0.0000,0.000,0.000,0.000,303,418,383,397,387,2025-05-23T21:58:04.363423
30837,0.0000,0.0000,0.0000,0.000,0.000,0.000,368,305,373,393,380,2025-05-23T21:58:04.363435
30838,0.0000,0.0000,0.0000,0.000,0.000,0.000,407,371,362,410,342,2025-05-23T21:58:04.363446
30839,0.0000,0.0000,0.0000,0.000,0.000,0.000,354,383,377,416,371,2025-05-23T21:58:04.384958
30840,0.0000,0.0000,0.0000,0.000,0.000,0.000,401,411,365,406,402,2025-05-23T21:58:04.517542
30841,0.0000,0.0000,0.0000,0.000,0.000,0.000,405,402,388,381,395,2025-05-23T21:58:04.517586
30842,0.0000,0.0000,0.0000,0.000,0.000,0.000,339,385,380,412,415,2025-05-23T21:58:04.517598
30843,0.0000,0.0000,0.0000,0.000,0.000,0.000,372,304,352,431,356,2025-05-23T21:58:04.517609
30844,0.0000,0.0000,0.0000,0.000,0.000,0.000,399,399,330,426,353,2025-05-23T21:58:04.517623
30845,0.0000,0.0000,0.0000,0.000,0.000,0.000,417,340,352,408,387,2025-05-23T21:58:04.517632
30846,0.0000,0.0000,0.0000,0.000,0.000,0.000,395,374,369,421,385,2025-05-23T21:58:04.517640
30847,0.0000,0.0000,0.0000,0.000,0.000,0.000,406,360,382,419,404,2025-05-23T21:58:04.517648
30848,0.0000,0.0000,0.0000,0.000,0.000,0.000,397,397,388,415,399,2025-05-23T21:58:04.517657
30849,0.0000,0.0000,0.0000,0.000,0.000,0.000,420,415,374,420,365,2025-05-23T21:58:04.517665
30850,0.0000,0.0000,0.0000,0.000,0.000,0.000,412,375,376,436,383,2025-05-23T21:58:04.517673
30851,0.0000,0.0000,0.0000,0.000,0.000,0.000,425,396,342,377,379,2025-05-23T21:58:04.517681
30852,0.0000,0.0000,0.0000,0.000,0.000,0.000,420,400,336,415,397,2025-05-23T21:58:04.517689
30853,0.0000,0.0000,0.0000,0.000,0.000,0.000,414,413,367,418,364,2025-05-23T21:58:04.517697
30854,0.0000,0.0000,0.0000,0.000,0.000,0.000,394,424,304,418,379,2025-05-23T21:58:04.566422
30855,0.0000,0.0000,0.0000,0.000,0.000,0.000,398,351,346,412,397,2025-05-23T21:58:04.566469
30856,0.0000,0.0000,0.0000,0.000,0.000,0.000,340,287,365,409,404,2025-05-23T21:58:04.566482
30857,0.0000,0.0000,0.0000,0.000,0.000,0.000,402,401,376,428,398,2025-05-23T21:58:04.566493
30858,0.0000,0.0000,0.0000,0.000,0.000,0.000,410,412,388,387,404,2025-05-23T21:58:04.566503
30859,0.0000,0.0000,0.0000,0.000,0.000,0.000,409,399,387,395,407,2025-05-23T21:58:04.732021
30860,0.0000,0.0000,0.0000,0.000,0.000,0.000,389,397,348,425,388,2025-05-23T21:58:04.732068
30861,0.0000,0.0000,0.0000,0.000,0.000,0.000,392,421,369,426,371,2025-05-23T21:58:04.732080
30862,0.0000,0.0000,0.0000,0.000,0.000,0.000,393,402,346,332,337,2025-05-23T21:58:04.732091
30863,0.0000,0.0000,0.0000,0.000,0.000,0.000,392,346,352,346,333,2025-05-23T21:58:04.732101
30864,0.0000,0.0000,0.0000,0.000,0.000,0.000,391,388,334,402,381,2025-05-23T21:58:04.732111
30865,0.0000,0.0000,0.0000,0.000,0.000,0.000,383,387,365,426,385,2025-05-23T21:58:04.732120
30866,0.0000,0.0000,0.0000,0.000,0.000,0.000,390,419,384,375,387,2025-05-23T21:58:04.732129
30867,0.0000,0.0000,0.0000,0.000,0.000,0.000,400,355,342,357,401,2025-05-23T21:58:04.732138
30868,0.0000,0.0000,0.0000,0.000,0.000,0.000,337,403,369,400,416,2025-05-23T21:58:04.732148
30869,0.0000,0.0000,0.0000,0.000,0.000,0.000,395,401,365,410,411,2025-05-23T21:58:04.732156
30870,0.0000,0.0000,0.0000,0.000,0.000,0.000,414,413,384,367,383,2025-05-23T21:58:04.732165
30871,0.0000,0.0000,0.0000,0.000,0.000,0.000,414,426,387,394,351,2025-05-23T21:58:04.732173
30872,0.0000,0.0000,0.0000,0.000,0.000,0.000,398,399,374,418,397,2025-05-23T21:58:04.732182
30873,0.0000,0.0000,0.0000,0.000,0.000,0.000,389,411,384,429,383,2025-05-23T21:58:04.732191
30874,0.0000,0.0000,0.0000,0.000,0.000,0.000,412,360,385,432,388,2025-05-23T21:58:04.927985
30875,0.0000,0.0000,0.0000,0.000,0.000,0.000,421,387,385,436,362,2025-05-23T21:58:04.928036
30876,0.0000,0.0000,0.0000,0.000,0.000,0.000,428,425,390,436,400,2025-05-23T21:58:04.928050
30877,0.0000,0.0000,0.0000,0.000,0.000,0.000,427,423,380,440,363,2025-05-23T21:58:04.928062
30878,0.0000,0.0000,0.0000,0.000,0.000,0.000,399,402,342,437,389,2025-05-23T21:58:04.928073
30879,0.0000,0.0000,0.0000,0.000,0.000,0.000,397,404,332,441,396,2025-05-23T21:58:04.928083
30880,0.0000,0.0000,0.0000,0.000,0.000,0.000,401,396,358,432,409,2025-05-23T21:58:04.928095
30881,0.0000,0.0000,0.0000,0.000,0.000,0.000,418,399,330,430,421,2025-05-23T21:58:04.928106
30882,0.0000,0.0000,0.0000,0.000,0.000,0.000,399,416,360,424,377,2025-05-23T21:58:04.928117
30883,0.0000,0.0000,0.0000,0.000,0.000,0.000,414,428,386,441,344,2025-05-23T21:58:04.928127
30884,0.0000,0.0000,0.0000,0.000,0.000,0.000,380,425,391,414,333,2025-05-23T21:58:04.928136
30885,0.0000,0.0000,0.0000,0.000,0.000,0.000,393,395,375,430,392,2025-05-23T21:58:04.928145
30886,0.0000,0.0000,0.0000,0.000,0.000,0.000,421,411,379,437,388,2025-05-23T21:58:04.928154
30887,0.0000,0.0000,0.0000,0.000,0.000,0.000,380,418,358,439,349,2025-05-23T21:58:04.928163
30888,0.0000,0.0000,0.0000,0.000,0.000,0.000,333,403,367,423,386,2025-05-23T21:58:04.928172
30889,0.0000,0.0000,0.0000,0.000,0.000,0.000,378,413,371,438,396,2025-05-23T21:58:04.928218
30890,0.0000,0.0000,0.0000,0.000,0.000,0.000,409,400,377,418,407,2025-05-23T21:58:04.928228
30891,0.0000,0.0000,0.0000,0.000,0.000,0.000,419,422,341,433,400,2025-05-23T21:58:04.928237
30892,0.0000,0.0000,0.0000,0.000,0.000,0.000,412,397,353,415,403,2025-05-23T21:58:05.134697
30893,0.0000,0.0000,0.0000,0.000,0.000,0.000,342,411,361,407,386,2025-05-23T21:58:05.134747
30894,0.0000,0.0000,0.0000,0.000,0.000,0.000,381,426,345,415,388,2025-05-23T21:58:05.134760
30895,0.0000,0.0000,0.0000,0.000,0.000,0.000,400,410,357,417,393,2025-05-23T21:58:05.134772
30896,0.0000,0.0000,0.0000,0.000,0.000,0.000,408,414,335,419,387,2025-05-23T21:58:05.134783
30897,0.0000,0.0000,0.0000,0.000,0.000,0.000,413,400,359,416,401,2025-05-23T21:58:05.134793
30898,0.0000,0.0000,0.0000,0.000,0.000,0.000,419,405,371,417,387,2025-05-23T21:58:05.134802
30899,0.0000,0.0000,0.0000,0.000,0.000,0.000,403,423,367,416,354,2025-05-23T21:58:05.134812
30900,0.0000,0.0000,0.0000,0.000,0.000,0.000,347,426,376,401,378,2025-05-23T21:58:05.134822
30901,0.0000,0.0000,0.0000,0.000,0.000,0.000,383,404,380,375,395,2025-05-23T21:58:05.134832
30902,0.0000,0.0000,0.0000,0.000,0.000,0.000,333,412,347,423,397,2025-05-23T21:58:05.134842
30903,0.0000,0.0000,0.0000,0.000,0.000,0.000,387,422,376,393,391,2025-05-23T21:58:05.134851
30904,0.0000,0.0000,0.0000,0.000,0.000,0.000,408,426,345,407,380,2025-05-23T21:58:05.134861
30905,0.0000,0.0000,0.0000,0.000,0.000,0.000,405,398,331,406,402,2025-05-23T21:58:05.134871
30906,0.0000,0.0000,0.0000,0.000,0.000,0.000,409,402,353,411,401,2025-05-23T21:58:05.134880
30907,0.0000,0.0000,0.0000,0.000,0.000,0.000,411,402,360,413,391,2025-05-23T21:58:05.134925
30908,0.0000,0.0000,0.0000,0.000,0.000,0.000,390,398,345,358,350,2025-05-23T21:58:05.134935
30909,0.0000,0.0000,0.0000,0.000,0.000,0.000,344,352,290,396,390,2025-05-23T21:58:05.134944
30910,0.0000,0.0000,0.0000,0.000,0.000,0.000,356,332,349,397,395,2025-05-23T21:58:05.134954
30911,0.0000,0.0000,0.0000,0.000,0.000,0.000,397,386,364,380,403,2025-05-23T21:58:05.338506
30912,0.0000,0.0000,0.0000,0.000,0.000,0.000,412,412,345,388,359,2025-05-23T21:58:05.338586
30913,0.0000,0.0000,0.0000,0.000,0.000,0.000,408,423,357,416,345,2025-05-23T21:58:05.338607
30914,0.0000,0.0000,0.0000,0.000,0.000,0.000,416,383,365,413,391,2025-05-23T21:58:05.338624
30915,0.0000,0.0000,0.0000,0.000,0.000,0.000,397,415,373,421,384,2025-05-23T21:58:05.338640
30916,0.0000,0.0000,0.0000,0.000,0.000,0.000,374,405,375,409,385,2025-05-23T21:58:05.338660
30917,0.0000,0.0000,0.0000,0.000,0.000,0.000,391,349,377,428,387,2025-05-23T21:58:05.338676
30918,0.0000,0.0000,0.0000,0.000,0.000,0.000,387,375,373,423,401,2025-05-23T21:58:05.338693
30919,0.0000,0.0000,0.0000,0.000,0.000,0.000,409,412,371,426,452,2025-05-23T21:58:05.338707
30920,0.0000,0.0000,0.0000,0.000,0.000,0.000,418,349,379,425,457,2025-05-23T21:58:05.338722
30921,0.0000,0.0000,0.0000,0.000,0.000,0.000,421,399,375,429,471,2025-05-23T21:58:05.338736
30922,0.0000,0.0000,0.0000,0.000,0.000,0.000,403,390,350,410,465,2025-05-23T21:58:05.338750
30923,0.0000,0.0000,0.0000,0.000,0.000,0.000,387,406,369,352,428,2025-05-23T21:58:05.338764
30924,0.0000,0.0000,0.0000,0.000,0.000,0.000,365,420,347,376,456,2025-05-23T21:58:05.338779
30925,0.0000,0.0000,0.0000,0.000,0.000,0.000,402,370,357,397,432,2025-05-23T21:58:05.338792
30926,0.0000,0.0000,0.0000,0.000,0.000,0.000,346,413,372,392,404,2025-05-23T21:58:05.338865
30927,0.0000,0.0000,0.0000,0.000,0.000,0.000,335,414,346,361,432,2025-05-23T21:58:05.338880
30928,0.0000,0.0000,0.0000,0.000,0.000,0.000,391,398,360,387,392,2025-05-23T21:58:05.338894
30929,0.0000,0.0000,0.0000,0.000,0.000,0.000,395,394,366,395,424,2025-05-23T21:58:05.339095
30930,0.0000,0.0000,0.0000,0.000,0.000,0.000,416,394,382,405,402,2025-05-23T21:58:05.545908
30931,0.0000,0.0000,0.0000,0.000,0.000,0.000,429,396,395,405,393,2025-05-23T21:58:05.545950
30932,0.0000,0.0000,0.0000,0.000,0.000,0.000,410,346,384,354,384,2025-05-23T21:58:05.545965
30933,0.0000,0.0000,0.0000,0.000,0.000,0.000,363,405,346,388,312,2025-05-23T21:58:05.545975
30934,0.0000,0.0000,0.0000,0.000,0.000,0.000,382,424,367,403,359,2025-05-23T21:58:05.545983
30935,0.0000,0.0000,0.0000,0.000,0.000,0.000,408,383,369,417,391,2025-05-23T21:58:05.545992
30936,0.0000,0.0000,0.0000,0.000,0.000,0.000,397,415,372,380,343,2025-05-23T21:58:05.546001
30937,0.0000,0.0000,0.0000,0.000,0.000,0.000,417,423,378,403,382,2025-05-23T21:58:05.546009
30938,0.0000,0.0000,0.0000,0.000,0.000,0.000,418,378,394,420,396,2025-05-23T21:58:05.546019
30939,0.0000,0.0000,0.0000,0.000,0.000,0.000,419,411,390,357,389,2025-05-23T21:58:05.546027
30940,0.0000,0.0000,0.0000,0.000,0.000,0.000,426,357,386,404,389,2025-05-23T21:58:05.546035
30941,0.0000,0.0000,0.0000,0.000,0.000,0.000,401,400,350,357,396,2025-05-23T21:58:05.546043
30942,0.0000,0.0000,0.0000,0.000,0.000,0.000,423,407,358,402,405,2025-05-23T21:58:05.546051
30943,0.0000,0.0000,0.0000,0.000,0.000,0.000,419,346,334,362,393,2025-05-23T21:58:05.546063
30944,0.0000,0.0000,0.0000,0.000,0.000,0.000,395,407,362,380,371,2025-05-23T21:58:05.546071
30945,0.0000,0.0000,0.0000,0.000,0.000,0.000,413,418,369,383,380,2025-05-23T21:58:05.546111
30946,0.0000,0.0000,0.0000,0.000,0.000,0.000,404,426,379,389,394,2025-05-23T21:58:05.546122
30947,0.0000,0.0000,0.0000,0.000,0.000,0.000,419,395,382,397,382,2025-05-23T21:58:05.546130
30948,0.0000,0.0000,0.0000,0.000,0.000,0.000,353,404,343,387,394,2025-05-23T21:58:05.546140
30949,0.0000,0.0000,0.0000,0.000,0.000,0.000,394,431,368,348,403,2025-05-23T21:58:05.749660
30950,0.0000,0.0000,0.0000,0.000,0.000,0.000,421,409,337,385,404,2025-05-23T21:58:05.749708
30951,0.0000,0.0000,0.0000,0.000,0.000,0.000,368,420,366,367,405,2025-05-23T21:58:05.749721
30952,0.0000,0.0000,0.0000,0.000,0.000,0.000,382,439,372,345,351,2025-05-23T21:58:05.749732
30953,0.0000,0.0000,0.0000,0.000,0.000,0.000,385,400,388,345,332,2025-05-23T21:58:05.749743
30954,0.0000,0.0000,0.0000,0.000,0.000,0.000,354,420,394,392,372,2025-05-23T21:58:05.749754
30955,0.0000,0.0000,0.0000,0.000,0.000,0.000,335,348,360,406,359,2025-05-23T21:58:05.749763
30956,0.0000,0.0000,0.0000,0.000,0.000,0.000,324,384,379,404,339,2025-05-23T21:58:05.749773
30957,0.0000,0.0000,0.0000,0.000,0.000,0.000,405,400,347,401,372,2025-05-23T21:58:05.749783
30958,0.0000,0.0000,0.0000,0.000,0.000,0.000,400,393,365,348,339,2025-05-23T21:58:05.749792
30959,0.0000,0.0000,0.0000,0.000,0.000,0.000,338,422,345,384,340,2025-05-23T21:58:05.749800
30960,0.0000,0.0000,0.0000,0.000,0.000,0.000,388,388,368,399,383,2025-05-23T21:58:05.749809
30961,0.0000,0.0000,0.0000,0.000,0.000,0.000,390,396,369,353,381,2025-05-23T21:58:05.749818
30962,0.0000,0.0000,0.0000,0.000,0.000,0.000,390,423,363,392,359,2025-05-23T21:58:05.749827
30963,0.0000,0.0000,0.0000,0.000,0.000,0.000,397,393,383,340,390,2025-05-23T21:58:05.749835
30964,0.0000,0.0000,0.0000,0.000,0.000,0.000,345,392,347,388,391,2025-05-23T21:58:05.749876
30965,0.0000,0.0000,0.0000,0.000,0.000,0.000,398,370,365,407,403,2025-05-23T21:58:05.749885
30966,0.0000,0.0000,0.0000,0.000,0.000,0.000,390,357,378,400,356,2025-05-23T21:58:05.749894
30967,0.0000,0.0000,0.0000,0.000,0.000,0.000,412,412,376,370,349,2025-05-23T21:58:05.749903
30968,0.0000,0.0000,0.0000,0.000,0.000,0.000,404,355,372,384,344,2025-05-23T21:58:05.953929
30969,0.0000,0.0000,0.0000,0.000,0.000,0.000,405,402,389,396,374,2025-05-23T21:58:05.953981
30970,0.0000,0.0000,0.0000,0.000,0.000,0.000,418,408,387,399,381,2025-05-23T21:58:05.953997
30971,0.0000,0.0000,0.0000,0.000,0.000,0.000,390,416,389,348,344,2025-05-23T21:58:05.954009
30972,0.0000,0.0000,0.0000,0.000,0.000,0.000,402,401,375,380,394,2025-05-23T21:58:05.954023
30973,0.0000,0.0000,0.0000,0.000,0.000,0.000,416,422,386,402,396,2025-05-23T21:58:05.954035
30974,0.0000,0.0000,0.0000,0.000,0.000,0.000,406,433,392,409,393,2025-05-23T21:58:05.954047
30975,0.0000,0.0000,0.0000,0.000,0.000,0.000,393,434,393,403,386,2025-05-23T21:58:05.954059
30976,0.0000,0.0000,0.0000,0.000,0.000,0.000,417,433,382,407,380,2025-05-23T21:58:05.954071
30977,0.0000,0.0000,0.0000,0.000,0.000,0.000,388,382,380,352,390,2025-05-23T21:58:05.954082
30978,0.0000,0.0000,0.0000,0.000,0.000,0.000,405,385,384,397,349,2025-05-23T21:58:05.954093
30979,0.0000,0.0000,0.0000,0.000,0.000,0.000,400,421,346,386,389,2025-05-23T21:58:05.954104
30980,0.0000,0.0000,0.0000,0.000,0.000,0.000,390,404,376,386,407,2025-05-23T21:58:05.954115
30981,0.0000,0.0000,0.0000,0.000,0.000,0.000,386,413,377,396,412,2025-05-23T21:58:05.954126
30982,0.0000,0.0000,0.0000,0.000,0.000,0.000,369,412,310,388,401,2025-05-23T21:58:05.954137
30983,0.0000,0.0000,0.0000,0.000,0.000,0.000,392,401,349,407,404,2025-05-23T21:58:05.954190
30984,0.0000,0.0000,0.0000,0.000,0.000,0.000,391,383,371,405,350,2025-05-23T21:58:05.954201
30985,0.0000,0.0000,0.0000,0.000,0.000,0.000,421,416,340,410,378,2025-05-23T21:58:05.954212
30986,0.0000,0.0000,0.0000,0.000,0.000,0.000,405,345,351,395,387,2025-05-23T21:58:05.954226
30987,0.0000,0.0000,0.0000,0.000,0.000,0.000,398,333,361,401,400,2025-05-23T21:58:06.157263
30988,0.0000,0.0000,0.0000,0.000,0.000,0.000,346,348,349,384,387,2025-05-23T21:58:06.157318
30989,0.0000,0.0000,0.0000,0.000,0.000,0.000,327,325,366,353,398,2025-05-23T21:58:06.157331
30990,0.0000,0.0000,0.0000,0.000,0.000,0.000,345,315,373,380,353,2025-05-23T21:58:06.157343
30991,0.0000,0.0000,0.0000,0.000,0.000,0.000,396,393,382,342,392,2025-05-23T21:58:06.157354
30992,0.0000,0.0000,0.0000,0.000,0.000,0.000,420,429,387,382,389,2025-05-23T21:58:06.157364
30993,0.0000,0.0000,0.0000,0.000,0.000,0.000,415,410,387,406,389,2025-05-23T21:58:06.157375
30994,0.0000,0.0000,0.0000,0.000,0.000,0.000,401,407,392,406,402,2025-05-23T21:58:06.157386
30995,0.0000,0.0000,0.0000,0.000,0.000,0.000,431,413,387,418,394,2025-05-23T21:58:06.157395
30996,0.0000,0.0000,0.0000,0.000,0.000,0.000,409,399,379,418,404,2025-05-23T21:58:06.157405
30997,0.0000,0.0000,0.0000,0.000,0.000,0.000,429,419,370,419,398,2025-05-23T21:58:06.157414
30998,0.0000,0.0000,0.0000,0.000,0.000,0.000,422,377,378,408,360,2025-05-23T21:58:06.157424
30999,0.0000,0.0000,0.0000,0.000,0.000,0.000,396,296,382,399,386,2025-05-23T21:58:06.157434
31000,0.0000,0.0000,0.0000,0.000,0.000,0.000,396,380,353,397,394,2025-05-23T21:58:06.157443
31001,0.0000,0.0000,0.0000,0.000,0.000,0.000,403,412,366,354,405,2025-05-23T21:58:06.157452
31002,0.0000,0.0000,0.0000,0.000,0.000,0.000,401,407,334,342,369,2025-05-23T21:58:06.157496
31003,0.0000,0.0000,0.0000,0.000,0.000,0.000,412,400,367,386,391,2025-05-23T21:58:06.157506
31004,0.0000,0.0000,0.0000,0.000,0.000,0.000,421,401,375,346,397,2025-05-23T21:58:06.157515
31005,0.0000,0.0000,0.0000,0.000,0.000,0.000,425,422,372,391,393,2025-05-23T21:58:06.157525
31006,0.0000,0.0000,0.0000,0.000,0.000,0.000,404,381,384,400,395,2025-05-23T21:58:06.362422
31007,0.0000,0.0000,0.0000,0.000,0.000,0.000,388,408,391,411,406,2025-05-23T21:58:06.362478
31008,0.0000,0.0000,0.0000,0.000,0.000,0.000,416,370,384,354,399,2025-05-23T21:58:06.362493
31009,0.0000,0.0000,0.0000,0.000,0.000,0.000,427,384,387,393,400,2025-05-23T21:58:06.362506
31010,0.0000,0.0000,0.0000,0.000,0.000,0.000,408,392,361,404,402,2025-05-23T21:58:06.362517
31011,0.0000,0.0000,0.0000,0.000,0.000,0.000,394,345,364,402,388,2025-05-23T21:58:06.362529
31012,0.0000,0.0000,0.0000,0.000,0.000,0.000,417,409,334,407,399,2025-05-23T21:58:06.362545
31013,0.0000,0.0000,0.0000,0.000,0.000,0.000,420,438,371,407,401,2025-05-23T21:58:06.362557
31014,0.0000,0.0000,0.0000,0.000,0.000,0.000,423,426,383,395,394,2025-05-23T21:58:06.362568
31015,0.0000,0.0000,0.0000,0.000,0.000,0.000,384,384,385,410,399,2025-05-23T21:58:06.362579
31016,0.0000,0.0000,0.0000,0.000,0.000,0.000,398,409,381,397,404,2025-05-23T21:58:06.362589
31017,0.0000,0.0000,0.0000,0.000,0.000,0.000,417,396,353,404,410,2025-05-23T21:58:06.362599
31018,0.0000,0.0000,0.0000,0.000,0.000,0.000,402,359,330,397,390,2025-05-23T21:58:06.362732
31019,0.0000,0.0000,0.0000,0.000,0.000,0.000,407,413,360,414,407,2025-05-23T21:58:06.362744
31020,0.0000,0.0000,0.0000,0.000,0.000,0.000,425,425,369,415,410,2025-05-23T21:58:06.362754
31021,0.0000,0.0000,0.0000,0.000,0.000,0.000,405,389,377,414,399,2025-05-23T21:58:06.362803
31022,0.0000,0.0000,0.0000,0.000,0.000,0.000,407,385,388,316,406,2025-05-23T21:58:06.362814
31023,0.0000,0.0000,0.0000,0.000,0.000,0.000,398,420,391,360,357,2025-05-23T21:58:06.362824
31024,0.0000,0.0000,0.0000,0.000,0.000,0.000,403,407,349,385,548,2025-05-23T21:58:06.362835
31025,0.0000,0.0000,0.0000,0.000,0.000,0.000,406,393,368,408,533,2025-05-23T21:58:06.409700
31026,0.0000,0.0000,0.0000,0.000,0.000,0.000,388,400,344,350,538,2025-05-23T21:58:06.409748
31027,0.0000,0.0000,0.0000,0.000,0.000,0.000,398,406,371,381,531,2025-05-23T21:58:06.409762
31028,0.0000,0.0000,0.0000,0.000,0.000,0.000,397,399,382,411,524,2025-05-23T21:58:06.409773
31029,0.0000,0.0000,0.0000,0.000,0.000,0.000,410,420,381,423,521,2025-05-23T21:58:06.460928
31030,0.0000,0.0000,0.0000,0.000,0.000,0.000,409,405,384,425,505,2025-05-23T21:58:06.460972
31031,0.0000,0.0000,0.0000,0.000,0.000,0.000,388,415,387,406,493,2025-05-23T21:58:06.460983
31032,0.0000,0.0000,0.0000,0.000,0.000,0.000,412,363,371,415,479,2025-05-23T21:58:06.460993
31033,0.0000,0.0000,0.0000,0.000,0.000,0.000,422,391,380,374,472,2025-05-23T21:58:06.461002
31034,0.0000,0.0000,0.0000,0.000,0.000,0.000,405,410,375,399,478,2025-05-23T21:58:06.567930
31035,0.0000,0.0000,0.0000,0.000,0.000,0.000,421,411,379,404,465,2025-05-23T21:58:06.567962
31036,0.0000,0.0000,0.0000,0.000,0.000,0.000,393,396,309,394,456,2025-05-23T21:58:06.567970
31037,0.0000,0.0000,0.0000,0.000,0.000,0.000,396,392,317,409,448,2025-05-23T21:58:06.567976
31038,0.0000,0.0000,0.0000,0.000,0.000,0.000,348,403,351,405,436,2025-05-23T21:58:06.567982
31039,0.0000,0.0000,0.0000,0.000,0.000,0.000,379,390,344,397,457,2025-05-23T21:58:06.579469
31040,0.0000,0.0000,0.0000,0.000,0.000,0.000,411,412,328,355,450,2025-05-23T21:58:06.579488
31041,0.0000,0.0000,0.0000,0.000,0.000,0.000,424,350,326,398,440,2025-05-23T21:58:06.579493
31042,0.0000,0.0000,0.0000,0.000,0.000,0.000,351,403,359,415,447,2025-05-23T21:58:06.579497
31043,0.0000,0.0000,0.0000,0.000,0.000,0.000,386,414,363,397,440,2025-05-23T21:58:06.579502
31044,0.0000,0.0000,0.0000,0.000,0.000,0.000,376,389,361,389,435,2025-05-23T21:58:06.771296
31045,0.0000,0.0000,0.0000,0.000,0.000,0.000,336,379,363,391,439,2025-05-23T21:58:06.771380
31046,0.0000,0.0000,0.0000,0.000,0.000,0.000,326,413,369,400,457,2025-05-23T21:58:06.771393
31047,0.0000,0.0000,0.0000,0.000,0.000,0.000,394,418,385,405,437,2025-05-23T21:58:06.771404
31048,0.0000,0.0000,0.0000,0.000,0.000,0.000,393,405,386,424,420,2025-05-23T21:58:06.771415
31049,0.0000,0.0000,0.0000,0.000,0.000,0.000,412,351,387,400,454,2025-05-23T21:58:06.771424
31050,0.0000,0.0000,0.0000,0.000,0.000,0.000,374,346,348,373,439,2025-05-23T21:58:06.771434
31051,0.0000,0.0000,0.0000,0.000,0.000,0.000,412,381,372,405,429,2025-05-23T21:58:06.771444
31052,0.0000,0.0000,0.0000,0.000,0.000,0.000,419,401,380,404,422,2025-05-23T21:58:06.771454
31053,0.0000,0.0000,0.0000,0.000,0.000,0.000,422,421,381,405,418,2025-05-23T21:58:06.771464
31054,0.0000,0.0000,0.0000,0.000,0.000,0.000,423,415,345,392,409,2025-05-23T21:58:06.771473
31055,0.0000,0.0000,0.0000,0.000,0.000,0.000,398,403,368,410,396,2025-05-23T21:58:06.771481
31056,0.0000,0.0000,0.0000,0.000,0.000,0.000,410,379,381,406,312,2025-05-23T21:58:06.771491
31057,0.0000,0.0000,0.0000,0.000,0.000,0.000,420,343,342,398,376,2025-05-23T21:58:06.771499
31058,0.0000,0.0000,0.0000,0.000,0.000,0.000,381,373,358,418,401,2025-05-23T21:58:06.771507
31059,0.0000,0.0000,0.0000,0.000,0.000,0.000,413,412,343,410,407,2025-05-23T21:58:06.771552
31060,0.0000,0.0000,0.0000,0.000,0.000,0.000,412,407,358,399,415,2025-05-23T21:58:06.771562
31061,0.0000,0.0000,0.0000,0.000,0.000,0.000,343,427,361,413,415,2025-05-23T21:58:06.771571
31062,0.0000,0.0000,0.0000,0.000,0.000,0.000,396,390,366,408,407,2025-05-23T21:58:06.771580
31063,0.0000,0.0000,0.0000,0.000,0.000,0.000,413,421,365,401,391,2025-05-23T21:58:06.975524
31064,0.0000,0.0000,0.0000,0.000,0.000,0.000,425,422,382,412,409,2025-05-23T21:58:06.975590
31065,0.0000,0.0000,0.0000,0.000,0.000,0.000,418,416,312,416,373,2025-05-23T21:58:06.975608
31066,0.0000,0.0000,0.0000,0.000,0.000,0.000,348,433,357,414,402,2025-05-23T21:58:06.975623
31067,0.0000,0.0000,0.0000,0.000,0.000,0.000,409,404,382,401,387,2025-05-23T21:58:06.975638
31068,0.0000,0.0000,0.0000,0.000,0.000,0.000,343,416,384,380,407,2025-05-23T21:58:06.975652
31069,0.0000,0.0000,0.0000,0.000,0.000,0.000,386,431,371,399,404,2025-05-23T21:58:06.975665
31070,0.0000,0.0000,0.0000,0.000,0.000,0.000,403,425,382,360,392,2025-05-23T21:58:06.975679
31071,0.0000,0.0000,0.0000,0.000,0.000,0.000,397,421,382,402,412,2025-05-23T21:58:06.975693
31072,0.0000,0.0000,0.0000,0.000,0.000,0.000,347,428,378,411,397,2025-05-23T21:58:06.975706
31073,0.0000,0.0000,0.0000,0.000,0.000,0.000,393,420,396,416,408,2025-05-23T21:58:06.975718
31074,0.0000,0.0000,0.0000,0.000,0.000,0.000,420,432,381,420,391,2025-05-23T21:58:06.975730
31075,0.0000,0.0000,0.0000,0.000,0.000,0.000,400,430,390,404,405,2025-05-23T21:58:06.975742
31076,0.0000,0.0000,0.0000,0.000,0.000,0.000,407,432,394,422,376,2025-05-23T21:58:06.975754
31077,0.0000,0.0000,0.0000,0.000,0.000,0.000,378,353,391,396,377,2025-05-23T21:58:06.975766
31078,0.0000,0.0000,0.0000,0.000,0.000,0.000,406,368,389,389,394,2025-05-23T21:58:06.975825
31079,0.0000,0.0000,0.0000,0.000,0.000,0.000,394,394,389,383,389,2025-05-23T21:58:06.975838
31080,0.0000,0.0000,0.0000,0.000,0.000,0.000,388,398,397,407,384,2025-05-23T21:58:06.975851
31081,0.0000,0.0000,0.0000,0.000,0.000,0.000,387,410,405,393,389,2025-05-23T21:58:06.975864
31082,0.0000,0.0000,0.0000,0.000,0.000,0.000,386,424,389,388,310,2025-05-23T21:58:07.024526
31083,0.0000,0.0000,0.0000,0.000,0.000,0.000,351,413,376,392,339,2025-05-23T21:58:07.024571
31084,0.0000,0.0000,0.0000,0.000,0.000,0.000,404,409,389,390,377,2025-05-23T21:58:07.024583
31085,0.0000,0.0000,0.0000,0.000,0.000,0.000,401,402,394,401,387,2025-05-23T21:58:07.024593
31086,0.0000,0.0000,0.0000,0.000,0.000,0.000,412,365,396,388,389,2025-05-23T21:58:07.075405
31087,0.0000,0.0000,0.0000,0.000,0.000,0.000,400,404,385,404,313,2025-05-23T21:58:07.075455
31088,0.0000,0.0000,0.0000,0.000,0.000,0.000,411,393,380,386,370,2025-05-23T21:58:07.075469
31089,0.0000,0.0000,0.0000,0.000,0.000,0.000,376,416,375,409,393,2025-05-23T21:58:07.075480
31090,0.0000,0.0000,0.0000,0.000,0.000,0.000,406,434,387,405,379,2025-05-23T21:58:07.075491
31091,0.0000,0.0000,0.0000,0.000,0.000,0.000,405,432,387,393,406,2025-05-23T21:58:07.181452
31092,0.0000,0.0000,0.0000,0.000,0.000,0.000,413,423,389,401,411,2025-05-23T21:58:07.181502
31093,0.0000,0.0000,0.0000,0.000,0.000,0.000,408,426,378,396,373,2025-05-23T21:58:07.181514
31094,0.0000,0.0000,0.0000,0.000,0.000,0.000,409,419,384,404,396,2025-05-23T21:58:07.181525
31095,0.0000,0.0000,0.0000,0.000,0.000,0.000,366,425,372,372,355,2025-05-23T21:58:07.181537
31096,0.0000,0.0000,0.0000,0.000,0.000,0.000,406,407,335,383,384,2025-05-23T21:58:07.181546
31097,0.0000,0.0000,0.0000,0.000,0.000,0.000,346,371,357,391,387,2025-05-23T21:58:07.181556
31098,0.0000,0.0000,0.0000,0.000,0.000,0.000,399,394,368,405,398,2025-05-23T21:58:07.181565
31099,0.0000,0.0000,0.0000,0.000,0.000,0.000,422,413,377,409,387,2025-05-23T21:58:07.181574
31100,0.0000,0.0000,0.0000,0.000,0.000,0.000,417,395,373,413,396,2025-05-23T21:58:07.387525
31101,0.0000,0.0000,0.0000,0.000,0.000,0.000,358,421,362,418,395,2025-05-23T21:58:07.387576
31102,0.0000,0.0000,0.0000,0.000,0.000,0.000,393,425,369,400,366,2025-05-23T21:58:07.387591
31103,0.0000,0.0000,0.0000,0.000,0.000,0.000,415,404,384,358,379,2025-05-23T21:58:07.387603
31104,0.0000,0.0000,0.0000,0.000,0.000,0.000,409,416,357,403,393,2025-05-23T21:58:07.387614
31105,0.0000,0.0000,0.0000,0.000,0.000,0.000,409,420,377,393,410,2025-05-23T21:58:07.387625
31106,0.0000,0.0000,0.0000,0.000,0.000,0.000,377,410,379,404,363,2025-05-23T21:58:07.387634
31107,0.0000,0.0000,0.0000,0.000,0.000,0.000,409,429,388,359,379,2025-05-23T21:58:07.387845
31108,0.0000,0.0000,0.0000,0.000,0.000,0.000,396,427,374,400,405,2025-05-23T21:58:07.387857
31109,0.0000,0.0000,0.0000,0.000,0.000,0.000,411,398,386,395,389,2025-05-23T21:58:07.387867
31110,0.0000,0.0000,0.0000,0.000,0.000,0.000,416,298,389,391,400,2025-05-23T21:58:07.387878
31111,0.0000,0.0000,0.0000,0.000,0.000,0.000,412,377,390,409,386,2025-05-23T21:58:07.387887
31112,0.0000,0.0000,0.0000,0.000,0.000,0.000,419,423,350,417,402,2025-05-23T21:58:07.387896
31113,0.0000,0.0000,0.0000,0.000,0.000,0.000,422,416,372,315,387,2025-05-23T21:58:07.387905
31114,0.0000,0.0000,0.0000,0.000,0.000,0.000,414,422,375,373,391,2025-05-23T21:58:07.387914
31115,0.0000,0.0000,0.0000,0.000,0.000,0.000,401,393,378,395,400,2025-05-23T21:58:07.387960
31116,0.0000,0.0000,0.0000,0.000,0.000,0.000,367,430,381,392,410,2025-05-23T21:58:07.387970
31117,0.0000,0.0000,0.0000,0.000,0.000,0.000,392,398,390,412,403,2025-05-23T21:58:07.387980
31118,0.0000,0.0000,0.0000,0.000,0.000,0.000,409,391,395,398,358,2025-05-23T21:58:07.387989
31119,0.0000,0.0000,0.0000,0.000,0.000,0.000,403,421,382,398,349,2025-05-23T21:58:07.387998
31120,0.0000,0.0000,0.0000,0.000,0.000,0.000,401,347,389,391,380,2025-05-23T21:58:07.592347
31121,0.0000,0.0000,0.0000,0.000,0.000,0.000,419,395,389,391,401,2025-05-23T21:58:07.592392
31122,0.0000,0.0000,0.0000,0.000,0.000,0.000,421,399,389,409,393,2025-05-23T21:58:07.592405
31123,0.0000,0.0000,0.0000,0.000,0.000,0.000,413,413,390,415,386,2025-05-23T21:58:07.592416
31124,0.0000,0.0000,0.0000,0.000,0.000,0.000,422,419,395,418,389,2025-05-23T21:58:07.592427
31125,0.0000,0.0000,0.0000,0.000,0.000,0.000,415,410,385,415,405,2025-05-23T21:58:07.592436
31126,0.0000,0.0000,0.0000,0.000,0.000,0.000,394,398,387,353,386,2025-05-23T21:58:07.592446
31127,0.0000,0.0000,0.0000,0.000,0.000,0.000,393,412,391,392,346,2025-05-23T21:58:07.592456
31128,0.0000,0.0000,0.0000,0.000,0.000,0.000,410,373,391,400,380,2025-05-23T21:58:07.592465
31129,0.0000,0.0000,0.0000,0.000,0.000,0.000,426,342,385,407,381,2025-05-23T21:58:07.592474
31130,0.0000,0.0000,0.0000,0.000,0.000,0.000,420,405,382,414,402,2025-05-23T21:58:07.592518
31131,0.0000,0.0000,0.0000,0.000,0.000,0.000,424,348,386,378,387,2025-05-23T21:58:07.592528
31132,0.0000,0.0000,0.0000,0.000,0.000,0.000,420,382,383,398,395,2025-05-23T21:58:07.592540
31133,0.0000,0.0000,0.0000,0.000,0.000,0.000,426,422,386,413,396,2025-05-23T21:58:07.592549
31134,0.0000,0.0000,0.0000,0.000,0.000,0.000,423,402,384,398,404,2025-05-23T21:58:07.592557
31135,0.0000,0.0000,0.0000,0.000,0.000,0.000,370,345,372,409,352,2025-05-23T21:58:07.592598
31136,0.0000,0.0000,0.0000,0.000,0.000,0.000,397,397,374,424,392,2025-05-23T21:58:07.592606
31137,0.0000,0.0000,0.0000,0.000,0.000,0.000,413,424,374,429,520,2025-05-23T21:58:07.592615
31138,0.0000,0.0000,0.0000,0.000,0.000,0.000,419,398,348,402,460,2025-05-23T21:58:07.640179
31139,0.0000,0.0000,0.0000,0.000,0.000,0.000,310,402,367,403,477,2025-05-23T21:58:07.640225
31140,0.0000,0.0000,0.0000,0.000,0.000,0.000,370,380,388,417,463,2025-05-23T21:58:07.640236
31141,0.0000,0.0000,0.0000,0.000,0.000,0.000,396,410,395,408,474,2025-05-23T21:58:07.640245
31142,0.0000,0.0000,0.0000,0.000,0.000,0.000,414,422,381,419,446,2025-05-23T21:58:07.640255
31143,0.0000,0.0000,0.0000,0.000,0.000,0.000,365,347,380,417,427,2025-05-23T21:58:07.691445
31144,0.0000,0.0000,0.0000,0.000,0.000,0.000,380,398,389,404,420,2025-05-23T21:58:07.691501
31145,0.0000,0.0000,0.0000,0.000,0.000,0.000,411,393,382,406,412,2025-05-23T21:58:07.691517
31146,0.0000,0.0000,0.0000,0.000,0.000,0.000,384,412,380,390,394,2025-05-23T21:58:07.691529
31147,0.0000,0.0000,0.0000,0.000,0.000,0.000,415,347,365,383,369,2025-05-23T21:58:07.691541
31148,0.0000,0.0000,0.0000,0.000,0.000,0.000,388,396,383,392,389,2025-05-23T21:58:07.796226
31149,0.0000,0.0000,0.0000,0.000,0.000,0.000,385,414,348,394,351,2025-05-23T21:58:07.796286
31150,0.0000,0.0000,0.0000,0.000,0.000,0.000,335,426,362,414,387,2025-05-23T21:58:07.796301
31151,0.0000,0.0000,0.0000,0.000,0.000,0.000,376,424,370,396,352,2025-05-23T21:58:07.796314
31152,0.0000,0.0000,0.0000,0.000,0.000,0.000,357,420,379,346,380,2025-05-23T21:58:07.796326
31153,0.0000,0.0000,0.0000,0.000,0.000,0.000,343,419,383,326,337,2025-05-23T21:58:07.796337
31154,0.0000,0.0000,0.0000,0.000,0.000,0.000,394,410,385,370,388,2025-05-23T21:58:07.796348
31155,0.0000,0.0000,0.0000,0.000,0.000,0.000,414,424,314,356,383,2025-05-23T21:58:07.796359
31156,0.0000,0.0000,0.0000,0.000,0.000,0.000,389,346,340,353,380,2025-05-23T21:58:07.796370
31157,0.0000,0.0000,0.0000,0.000,0.000,0.000,392,409,348,390,376,2025-05-23T21:58:08.001501
31158,0.0000,0.0000,0.0000,0.000,0.000,0.000,375,425,365,404,385,2025-05-23T21:58:08.001550
31159,0.0000,0.0000,0.0000,0.000,0.000,0.000,388,409,378,395,385,2025-05-23T21:58:08.001563
31160,0.0000,0.0000,0.0000,0.000,0.000,0.000,408,346,350,410,311,2025-05-23T21:58:08.001574
31161,0.0000,0.0000,0.0000,0.000,0.000,0.000,388,354,333,408,391,2025-05-23T21:58:08.001585
31162,0.0000,0.0000,0.0000,0.000,0.000,0.000,394,424,331,386,382,2025-05-23T21:58:08.001594
31163,0.0000,0.0000,0.0000,0.000,0.000,0.000,413,423,349,402,365,2025-05-23T21:58:08.001603
31164,0.0000,0.0000,0.0000,0.000,0.000,0.000,419,395,366,406,378,2025-05-23T21:58:08.001613
31165,0.0000,0.0000,0.0000,0.000,0.000,0.000,394,394,341,402,387,2025-05-23T21:58:08.001623
31166,0.0000,0.0000,0.0000,0.000,0.000,0.000,398,343,354,395,377,2025-05-23T21:58:08.001632
31167,0.0000,0.0000,0.0000,0.000,0.000,0.000,413,394,376,346,396,2025-05-23T21:58:08.001640
31168,0.0000,0.0000,0.0000,0.000,0.000,0.000,393,411,379,385,404,2025-05-23T21:58:08.001652
31169,0.0000,0.0000,0.0000,0.000,0.000,0.000,365,395,372,390,362,2025-05-23T21:58:08.001660
31170,0.0000,0.0000,0.0000,0.000,0.000,0.000,401,403,373,397,382,2025-05-23T21:58:08.001669
31171,0.0000,0.0000,0.0000,0.000,0.000,0.000,348,305,388,356,402,2025-05-23T21:58:08.001678
31172,0.0000,0.0000,0.0000,0.000,0.000,0.000,404,358,384,408,415,2025-05-23T21:58:08.001687
31173,0.0000,0.0000,0.0000,0.000,0.000,0.000,411,403,394,408,417,2025-05-23T21:58:08.001726
31174,0.0000,0.0000,0.0000,0.000,0.000,0.000,416,411,392,357,393,2025-05-23T21:58:08.001735
31175,0.0000,0.0000,0.0000,0.000,0.000,0.000,421,400,392,343,391,2025-05-23T21:58:08.001745
31176,0.0000,0.0000,0.0000,0.000,0.000,0.000,421,396,351,367,391,2025-05-23T21:58:08.204528
31177,0.0000,0.0000,0.0000,0.000,0.000,0.000,418,416,355,386,398,2025-05-23T21:58:08.204587
31178,0.0000,0.0000,0.0000,0.000,0.000,0.000,353,417,365,404,393,2025-05-23T21:58:08.204604
31179,0.0000,0.0000,0.0000,0.000,0.000,0.000,404,361,374,354,385,2025-05-23T21:58:08.204618
31180,0.0000,0.0000,0.0000,0.000,0.000,0.000,409,414,386,396,414,2025-05-23T21:58:08.204631
31181,0.0000,0.0000,0.0000,0.000,0.000,0.000,435,395,383,391,355,2025-05-23T21:58:08.204644
31182,0.0000,0.0000,0.0000,0.000,0.000,0.000,401,393,371,400,350,2025-05-23T21:58:08.204656
31183,0.0000,0.0000,0.0000,0.000,0.000,0.000,404,370,388,398,357,2025-05-23T21:58:08.204719
31184,0.0000,0.0000,0.0000,0.000,0.000,0.000,341,403,388,401,372,2025-05-23T21:58:08.204738
31185,0.0000,0.0000,0.0000,0.000,0.000,0.000,341,389,390,398,385,2025-05-23T21:58:08.204750
31186,0.0000,0.0000,0.0000,0.000,0.000,0.000,395,383,392,393,403,2025-05-23T21:58:08.204763
31187,0.0000,0.0000,0.0000,0.000,0.000,0.000,413,423,387,407,391,2025-05-23T21:58:08.204775
31188,0.0000,0.0000,0.0000,0.000,0.000,0.000,399,417,378,418,386,2025-05-23T21:58:08.204789
31189,0.0000,0.0000,0.0000,0.000,0.000,0.000,349,398,390,417,345,2025-05-23T21:58:08.204800
31190,0.0000,0.0000,0.0000,0.000,0.000,0.000,395,418,396,415,327,2025-05-23T21:58:08.204811
31191,0.0000,0.0000,0.0000,0.000,0.000,0.000,401,405,385,351,371,2025-05-23T21:58:08.204991
31192,0.0000,0.0000,0.0000,0.000,0.000,0.000,336,401,376,400,359,2025-05-23T21:58:08.205007
31193,0.0000,0.0000,0.0000,0.000,0.000,0.000,396,410,382,401,337,2025-05-23T21:58:08.205019
31194,0.0000,0.0000,0.0000,0.000,0.000,0.000,413,402,375,348,367,2025-05-23T21:58:08.205031
31195,0.0000,0.0000,0.0000,0.000,0.000,0.000,414,422,382,385,372,2025-05-23T21:58:08.254466
31196,0.0000,0.0000,0.0000,0.000,0.000,0.000,360,402,374,402,340,2025-05-23T21:58:08.254647
31197,0.0000,0.0000,0.0000,0.000,0.000,0.000,333,395,371,398,373,2025-05-23T21:58:08.254663
31198,0.0000,0.0000,0.0000,0.000,0.000,0.000,370,417,384,402,405,2025-05-23T21:58:08.254675
31199,0.0000,0.0000,0.0000,0.000,0.000,0.000,390,429,382,404,413,2025-05-23T21:58:08.254686
31200,0.0000,0.0000,0.0000,0.000,0.000,0.000,383,397,340,368,357,2025-05-23T21:58:08.411078
31201,0.0000,0.0000,0.0000,0.000,0.000,0.000,395,416,323,397,369,2025-05-23T21:58:08.411124
31202,0.0000,0.0000,0.0000,0.000,0.000,0.000,413,403,351,406,394,2025-05-23T21:58:08.411136
31203,0.0000,0.0000,0.0000,0.000,0.000,0.000,378,412,372,406,401,2025-05-23T21:58:08.411147
31204,0.0000,0.0000,0.0000,0.000,0.000,0.000,399,404,388,415,388,2025-05-23T21:58:08.411157
31205,0.0000,0.0000,0.0000,0.000,0.000,0.000,368,407,379,405,403,2025-05-23T21:58:08.411168
31206,0.0000,0.0000,0.0000,0.000,0.000,0.000,376,422,354,354,411,2025-05-23T21:58:08.411177
31207,0.0000,0.0000,0.0000,0.000,0.000,0.000,383,420,369,384,363,2025-05-23T21:58:08.411186
31208,0.0000,0.0000,0.0000,0.000,0.000,0.000,408,426,385,399,372,2025-05-23T21:58:08.411195
31209,0.0000,0.0000,0.0000,0.000,0.000,0.000,354,427,386,403,388,2025-05-23T21:58:08.411205
31210,0.0000,0.0000,0.0000,0.000,0.000,0.000,415,433,389,399,404,2025-05-23T21:58:08.411213
31211,0.0000,0.0000,0.0000,0.000,0.000,0.000,420,417,371,389,406,2025-05-23T21:58:08.411222
31212,0.0000,0.0000,0.0000,0.000,0.000,0.000,383,414,341,407,407,2025-05-23T21:58:08.411233
31213,0.0000,0.0000,0.0000,0.000,0.000,0.000,395,420,329,387,410,2025-05-23T21:58:08.411242
31214,0.0000,0.0000,0.0000,0.000,0.000,0.000,399,415,359,399,405,2025-05-23T21:58:08.615368
31215,0.0000,0.0000,0.0000,0.000,0.000,0.000,387,411,361,415,397,2025-05-23T21:58:08.615421
31216,0.0000,0.0000,0.0000,0.000,0.000,0.000,408,400,333,419,384,2025-05-23T21:58:08.615435
31217,0.0000,0.0000,0.0000,0.000,0.000,0.000,368,390,361,413,378,2025-05-23T21:58:08.615446
31218,0.0000,0.0000,0.0000,0.000,0.000,0.000,393,421,368,358,400,2025-05-23T21:58:08.615457
31219,0.0000,0.0000,0.0000,0.000,0.000,0.000,353,417,375,404,410,2025-05-23T21:58:08.615467
31220,0.0000,0.0000,0.0000,0.000,0.000,0.000,379,423,384,397,389,2025-05-23T21:58:08.615477
31221,0.0000,0.0000,0.0000,0.000,0.000,0.000,385,399,389,407,402,2025-05-23T21:58:08.615489
31222,0.0000,0.0000,0.0000,0.000,0.000,0.000,404,422,392,418,357,2025-05-23T21:58:08.615499
31223,0.0000,0.0000,0.0000,0.000,0.000,0.000,377,398,380,356,357,2025-05-23T21:58:08.615509
31224,0.0000,0.0000,0.0000,0.000,0.000,0.000,333,400,337,328,296,2025-05-23T21:58:08.615518
31225,0.0000,0.0000,0.0000,0.000,0.000,0.000,406,433,370,374,364,2025-05-23T21:58:08.615528
31226,0.0000,0.0000,0.0000,0.000,0.000,0.000,412,357,383,401,391,2025-05-23T21:58:08.615537
31227,0.0000,0.0000,0.0000,0.000,0.000,0.000,417,389,386,402,352,2025-05-23T21:58:08.615546
31228,0.0000,0.0000,0.0000,0.000,0.000,0.000,377,408,352,365,364,2025-05-23T21:58:08.615556
31229,0.0000,0.0000,0.0000,0.000,0.000,0.000,410,379,356,412,393,2025-05-23T21:58:08.615598
31230,0.0000,0.0000,0.0000,0.000,0.000,0.000,406,369,373,403,383,2025-05-23T21:58:08.615607
31231,0.0000,0.0000,0.0000,0.000,0.000,0.000,413,391,379,391,345,2025-05-23T21:58:08.615616
31232,0.0000,0.0000,0.0000,0.000,0.000,0.000,343,405,384,389,384,2025-05-23T21:58:08.615625
31233,0.0000,0.0000,0.0000,0.000,0.000,0.000,361,429,388,399,399,2025-05-23T21:58:08.818515
31234,0.0000,0.0000,0.0000,0.000,0.000,0.000,406,406,358,416,409,2025-05-23T21:58:08.818565
31235,0.0000,0.0000,0.0000,0.000,0.000,0.000,407,414,367,398,372,2025-05-23T21:58:08.818578
31236,0.0000,0.0000,0.0000,0.000,0.000,0.000,411,423,372,392,390,2025-05-23T21:58:08.818590
31237,0.0000,0.0000,0.0000,0.000,0.000,0.000,372,418,349,404,369,2025-05-23T21:58:08.818600
31238,0.0000,0.0000,0.0000,0.000,0.000,0.000,397,422,372,422,383,2025-05-23T21:58:08.818610
31239,0.0000,0.0000,0.0000,0.000,0.000,0.000,418,377,380,377,391,2025-05-23T21:58:08.837429
31240,0.0000,0.0000,0.0000,0.000,0.000,0.000,409,394,346,400,387,2025-05-23T21:58:08.837468
31241,0.0000,0.0000,0.0000,0.000,0.000,0.000,411,398,370,407,394,2025-05-23T21:58:08.837480
31242,0.0000,0.0000,0.0000,0.000,0.000,0.000,429,407,376,321,385,2025-05-23T21:58:08.837490
31243,0.0000,0.0000,0.0000,0.000,0.000,0.000,430,421,364,408,403,2025-05-23T21:58:08.837500
31244,0.0000,0.0000,0.0000,0.000,0.000,0.000,415,393,377,463,485,2025-05-23T21:58:08.837510
31245,0.0000,0.0000,0.0000,0.000,0.000,0.000,342,418,374,472,499,2025-05-23T21:58:08.837519
31246,0.0000,0.0000,0.0000,0.000,0.000,0.000,376,360,369,434,475,2025-05-23T21:58:08.837527
31247,0.0000,0.0000,0.0000,0.000,0.000,0.000,327,405,380,425,453,2025-05-23T21:58:08.837536
31248,0.0000,0.0000,0.0000,0.000,0.000,0.000,387,408,392,430,429,2025-05-23T21:58:08.837591
31249,0.0000,0.0000,0.0000,0.000,0.000,0.000,392,413,384,385,423,2025-05-23T21:58:08.837600
31250,0.0000,0.0000,0.0000,0.000,0.000,0.000,401,423,387,407,426,2025-05-23T21:58:08.837609
31251,0.0000,0.0000,0.0000,0.000,0.000,0.000,397,398,380,417,413,2025-05-23T21:58:08.837618
31252,0.0000,0.0000,0.0000,0.000,0.000,0.000,400,347,387,398,399,2025-05-23T21:58:09.029596
31253,0.0000,0.0000,0.0000,0.000,0.000,0.000,386,290,378,407,406,2025-05-23T21:58:09.029628
31254,0.0000,0.0000,0.0000,0.000,0.000,0.000,342,321,384,369,396,2025-05-23T21:58:09.029635
31255,0.0000,0.0000,0.0000,0.000,0.000,0.000,390,402,386,392,406,2025-05-23T21:58:09.029641
31256,0.0000,0.0000,0.0000,0.000,0.000,0.000,372,366,387,387,411,2025-05-23T21:58:09.029648
31257,0.0000,0.0000,0.0000,0.000,0.000,0.000,378,406,386,414,376,2025-05-23T21:58:09.029653
31258,0.0000,0.0000,0.0000,0.000,0.000,0.000,348,372,379,402,411,2025-05-23T21:58:09.029659
31259,0.0000,0.0000,0.0000,0.000,0.000,0.000,377,421,373,416,428,2025-05-23T21:58:09.029665
31260,0.0000,0.0000,0.0000,0.000,0.000,0.000,412,427,365,404,424,2025-05-23T21:58:09.029670
31261,0.0000,0.0000,0.0000,0.000,0.000,0.000,404,427,375,387,408,2025-05-23T21:58:09.029675
31262,0.0000,0.0000,0.0000,0.000,0.000,0.000,425,430,372,349,400,2025-05-23T21:58:09.029680
31263,0.0000,0.0000,0.0000,0.000,0.000,0.000,412,363,378,362,422,2025-05-23T21:58:09.029685
31264,0.0000,0.0000,0.0000,0.000,0.000,0.000,420,360,388,384,326,2025-05-23T21:58:09.029691
31265,0.0000,0.0000,0.0000,0.000,0.000,0.000,413,406,350,385,372,2025-05-23T21:58:09.029696
31266,0.0000,0.0000,0.0000,0.000,0.000,0.000,414,346,363,396,344,2025-05-23T21:58:09.029700
31267,0.0000,0.0000,0.0000,0.000,0.000,0.000,423,390,343,342,385,2025-05-23T21:58:09.029729
31268,0.0000,0.0000,0.0000,0.000,0.000,0.000,404,400,375,377,398,2025-05-23T21:58:09.029735
31269,0.0000,0.0000,0.0000,0.000,0.000,0.000,349,389,382,343,382,2025-05-23T21:58:09.029739
31270,0.0000,0.0000,0.0000,0.000,0.000,0.000,390,423,385,400,396,2025-05-23T21:58:09.029744
31271,0.0000,0.0000,0.0000,0.000,0.000,0.000,423,393,389,399,349,2025-05-23T21:58:09.078464
31272,0.0000,0.0000,0.0000,0.000,0.000,0.000,424,426,383,397,368,2025-05-23T21:58:09.078508
31273,0.0000,0.0000,0.0000,0.000,0.000,0.000,310,423,392,416,402,2025-05-23T21:58:09.078522
31274,0.0000,0.0000,0.0000,0.000,0.000,0.000,377,351,393,412,393,2025-05-23T21:58:09.078532
31275,0.0000,0.0000,0.0000,0.000,0.000,0.000,384,365,397,387,398,2025-05-23T21:58:09.078541
31276,0.0000,0.0000,0.0000,0.000,0.000,0.000,413,411,386,364,355,2025-05-23T21:58:09.127188
31277,0.0000,0.0000,0.0000,0.000,0.000,0.000,399,418,382,388,390,2025-05-23T21:58:09.127232
31278,0.0000,0.0000,0.0000,0.000,0.000,0.000,415,421,376,415,384,2025-05-23T21:58:09.127244
31279,0.0000,0.0000,0.0000,0.000,0.000,0.000,399,420,341,407,389,2025-05-23T21:58:09.127253
31280,0.0000,0.0000,0.0000,0.000,0.000,0.000,409,392,364,400,407,2025-05-23T21:58:09.127263
31281,0.0000,0.0000,0.0000,0.000,0.000,0.000,418,409,367,412,402,2025-05-23T21:58:09.236875
31282,0.0000,0.0000,0.0000,0.000,0.000,0.000,434,414,383,402,408,2025-05-23T21:58:09.236933
31283,0.0000,0.0000,0.0000,0.000,0.000,0.000,418,419,389,414,362,2025-05-23T21:58:09.236949
31284,0.0000,0.0000,0.0000,0.000,0.000,0.000,408,426,349,407,395,2025-05-23T21:58:09.236962
31285,0.0000,0.0000,0.0000,0.000,0.000,0.000,402,431,355,403,386,2025-05-23T21:58:09.237114
31286,0.0000,0.0000,0.0000,0.000,0.000,0.000,395,401,359,409,380,2025-05-23T21:58:09.237126
31287,0.0000,0.0000,0.0000,0.000,0.000,0.000,370,406,336,401,390,2025-05-23T21:58:09.237136
31288,0.0000,0.0000,0.0000,0.000,0.000,0.000,358,419,361,414,310,2025-05-23T21:58:09.237147
31289,0.0000,0.0000,0.0000,0.000,0.000,0.000,380,402,377,400,356,2025-05-23T21:58:09.237158
31290,0.0000,0.0000,0.0000,0.000,0.000,0.000,407,418,389,389,389,2025-05-23T21:58:09.284888
31291,0.0000,0.0000,0.0000,0.000,0.000,0.000,413,427,383,414,402,2025-05-23T21:58:09.284937
31292,0.0000,0.0000,0.0000,0.000,0.000,0.000,349,419,379,412,372,2025-05-23T21:58:09.284950
31293,0.0000,0.0000,0.0000,0.000,0.000,0.000,389,401,375,410,398,2025-05-23T21:58:09.284961
31294,0.0000,0.0000,0.0000,0.000,0.000,0.000,400,388,383,409,402,2025-05-23T21:58:09.284972
31295,0.0000,0.0000,0.0000,0.000,0.000,0.000,415,422,395,402,409,2025-05-23T21:58:09.332954
31296,0.0000,0.0000,0.0000,0.000,0.000,0.000,389,416,350,394,402,2025-05-23T21:58:09.333000
31297,0.0000,0.0000,0.0000,0.000,0.000,0.000,402,416,377,408,412,2025-05-23T21:58:09.333012
31298,0.0000,0.0000,0.0000,0.000,0.000,0.000,302,372,344,370,410,2025-05-23T21:58:09.333021
31299,0.0000,0.0000,0.0000,0.000,0.000,0.000,390,415,365,398,413,2025-05-23T21:58:09.333031
31300,0.0000,0.0000,0.0000,0.000,0.000,0.000,404,359,367,391,391,2025-05-23T21:58:09.435312
31301,0.0000,0.0000,0.0000,0.000,0.000,0.000,393,394,337,408,358,2025-05-23T21:58:09.435360
31302,0.0000,0.0000,0.0000,0.000,0.000,0.000,404,430,370,400,385,2025-05-23T21:58:09.435376
31303,0.0000,0.0000,0.0000,0.000,0.000,0.000,416,427,365,399,390,2025-05-23T21:58:09.435387
31304,0.0000,0.0000,0.0000,0.000,0.000,0.000,428,386,385,417,402,2025-05-23T21:58:09.435398
31305,0.0000,0.0000,0.0000,0.000,0.000,0.000,415,392,395,391,381,2025-05-23T21:58:09.435408
31306,0.0000,0.0000,0.0000,0.000,0.000,0.000,418,400,383,385,396,2025-05-23T21:58:09.435417
31307,0.0000,0.0000,0.0000,0.000,0.000,0.000,355,338,379,386,414,2025-05-23T21:58:09.435426
31308,0.0000,0.0000,0.0000,0.000,0.000,0.000,342,414,373,402,400,2025-05-23T21:58:09.435435
31309,0.0000,0.0000,0.0000,0.000,0.000,0.000,377,418,393,349,406,2025-05-23T21:58:09.640667
31310,0.0000,0.0000,0.0000,0.000,0.000,0.000,400,404,392,389,401,2025-05-23T21:58:09.640716
31311,0.0000,0.0000,0.0000,0.000,0.000,0.000,391,419,387,404,415,2025-05-23T21:58:09.640729
31312,0.0000,0.0000,0.0000,0.000,0.000,0.000,413,430,377,406,361,2025-05-23T21:58:09.640740
31313,0.0000,0.0000,0.0000,0.000,0.000,0.000,418,433,340,396,391,2025-05-23T21:58:09.640750
31314,0.0000,0.0000,0.0000,0.000,0.000,0.000,348,430,369,350,394,2025-05-23T21:58:09.640759
31315,0.0000,0.0000,0.0000,0.000,0.000,0.000,365,410,387,376,387,2025-05-23T21:58:09.640768
31316,0.0000,0.0000,0.0000,0.000,0.000,0.000,386,356,382,405,383,2025-05-23T21:58:09.640781
31317,0.0000,0.0000,0.0000,0.000,0.000,0.000,394,393,342,395,382,2025-05-23T21:58:09.640790
31318,0.0000,0.0000,0.0000,0.000,0.000,0.000,395,385,369,388,389,2025-05-23T21:58:09.640799
31319,0.0000,0.0000,0.0000,0.000,0.000,0.000,406,401,372,350,399,2025-05-23T21:58:09.640808
31320,0.0000,0.0000,0.0000,0.000,0.000,0.000,416,406,383,389,388,2025-05-23T21:58:09.640817
31321,0.0000,0.0000,0.0000,0.000,0.000,0.000,413,419,347,340,387,2025-05-23T21:58:09.640825
31322,0.0000,0.0000,0.0000,0.000,0.000,0.000,342,428,337,392,397,2025-05-23T21:58:09.640834
31323,0.0000,0.0000,0.0000,0.000,0.000,0.000,412,401,366,393,388,2025-05-23T21:58:09.640842
31324,0.0000,0.0000,0.0000,0.000,0.000,0.000,414,346,367,342,392,2025-05-23T21:58:09.640881
31325,0.0000,0.0000,0.0000,0.000,0.000,0.000,373,401,367,392,400,2025-05-23T21:58:09.640890
31326,0.0000,0.0000,0.0000,0.000,0.000,0.000,412,350,350,412,405,2025-05-23T21:58:09.640899
31327,0.0000,0.0000,0.0000,0.000,0.000,0.000,419,332,357,416,415,2025-05-23T21:58:09.640908
31328,0.0000,0.0000,0.0000,0.000,0.000,0.000,417,401,375,397,395,2025-05-23T21:58:09.696790
31329,0.0000,0.0000,0.0000,0.000,0.000,0.000,418,346,342,392,404,2025-05-23T21:58:09.696837
31330,0.0000,0.0000,0.0000,0.000,0.000,0.000,379,371,325,407,390,2025-05-23T21:58:09.696850
31331,0.0000,0.0000,0.0000,0.000,0.000,0.000,342,390,334,418,410,2025-05-23T21:58:09.696861
31332,0.0000,0.0000,0.0000,0.000,0.000,0.000,405,406,356,362,407,2025-05-23T21:58:09.696874
31333,0.0000,0.0000,0.0000,0.000,0.000,0.000,394,368,381,374,400,2025-05-23T21:58:09.842927
31334,0.0000,0.0000,0.0000,0.000,0.000,0.000,345,403,385,341,402,2025-05-23T21:58:09.842983
31335,0.0000,0.0000,0.0000,0.000,0.000,0.000,409,414,394,392,318,2025-05-23T21:58:09.842999
31336,0.0000,0.0000,0.0000,0.000,0.000,0.000,425,421,377,408,318,2025-05-23T21:58:09.843011
31337,0.0000,0.0000,0.0000,0.000,0.000,0.000,422,433,385,411,358,2025-05-23T21:58:09.843023
31338,0.0000,0.0000,0.0000,0.000,0.000,0.000,406,404,389,410,385,2025-05-23T21:58:09.843036
31339,0.0000,0.0000,0.0000,0.000,0.000,0.000,409,395,381,406,398,2025-05-23T21:58:09.843046
31340,0.0000,0.0000,0.0000,0.000,0.000,0.000,425,346,380,313,383,2025-05-23T21:58:09.843057
31341,0.0000,0.0000,0.0000,0.000,0.000,0.000,415,398,378,369,390,2025-05-23T21:58:09.843067
