SeqNum,AccX,AccY,AccZ,GyroX,GyroY,GyroZ,Flex,Force1,Force2,Force3,Force4,TimestampReception
5399,-0.9579,0.1771,-0.2484,-0.735,-1.365,1.155,459,355,290,405,377,2025-05-27T22:36:40.972345
5400,-0.4441,0.8847,0.1113,0.910,0.595,3.150,457,434,287,408,381,2025-05-27T22:36:40.972345
5401,-0.4499,0.8813,0.1069,1.470,0.140,2.835,417,426,343,400,380,2025-05-27T22:36:40.973341
5402,-0.4480,0.8847,0.1059,2.170,-0.420,2.520,422,439,361,412,387,2025-05-27T22:36:40.973341
5403,-0.4509,0.8857,0.1108,2.660,-1.085,1.960,408,349,359,349,403,2025-05-27T22:36:40.973341
5404,-0.4499,0.8882,0.1078,2.730,-1.680,1.820,418,358,381,394,418,2025-05-27T22:36:40.973341
5405,-0.4480,0.8901,0.1069,3.115,-1.785,1.855,411,398,388,410,409,2025-05-27T22:36:41.200459
5406,-0.4548,0.8891,0.1098,3.500,-1.470,1.960,422,406,384,398,349,2025-05-27T22:36:41.200459
5407,-0.4563,0.8911,0.1176,3.080,-1.190,2.555,417,423,389,338,392,2025-05-27T22:36:41.200459
5408,-0.4646,0.8930,0.1249,2.485,-1.050,3.220,392,362,382,395,388,2025-05-27T22:36:41.200459
5409,-0.4748,0.8916,0.1322,2.030,-1.715,3.885,409,406,394,400,344,2025-05-27T22:36:41.200459
5410,-0.4812,0.8955,0.1420,1.820,-3.570,4.445,395,406,396,388,332,2025-05-27T22:36:41.200459
5411,-0.4856,0.8965,0.1479,1.785,-5.390,5.005,393,424,396,403,362,2025-05-27T22:36:41.200459
5412,-0.4880,0.8979,0.1527,1.785,-7.525,5.495,375,422,383,391,331,2025-05-27T22:36:41.200459
5413,-0.4900,0.8969,0.1474,2.275,-8.855,6.300,328,356,390,386,372,2025-05-27T22:36:41.200459
5414,-0.4831,0.8984,0.1479,2.590,-9.555,7.455,403,387,388,307,374,2025-05-27T22:36:41.200459
5415,-0.4724,0.8960,0.1503,2.485,-9.520,8.680,423,397,386,364,401,2025-05-27T22:36:41.200459
5416,-0.4621,0.8901,0.1503,2.135,-8.540,9.625,415,340,380,400,393,2025-05-27T22:36:41.200459
5417,-0.4543,0.8867,0.1469,1.575,-7.840,10.325,411,389,383,384,349,2025-05-27T22:36:41.200459
5418,-0.4416,0.8843,0.1459,1.190,-8.120,11.235,419,422,393,397,372,2025-05-27T22:36:41.200459
5419,-0.4192,0.8833,0.1430,0.350,-8.575,11.445,364,381,388,404,387,2025-05-27T22:36:41.200459
5420,-0.3987,0.8833,0.1298,-0.420,-8.890,11.060,410,396,395,415,386,2025-05-27T22:36:41.200459
5421,-0.3816,0.8828,0.1176,-1.225,-9.135,10.045,431,417,397,398,391,2025-05-27T22:36:41.200459
5422,-0.3699,0.8804,0.1078,-1.925,-9.590,9.030,422,428,384,404,354,2025-05-27T22:36:41.200459
5423,-0.3645,0.8784,0.1030,-2.485,-10.010,7.315,406,407,384,412,345,2025-05-27T22:36:41.200459
5424,-0.3587,0.8804,0.0937,-2.870,-10.255,5.355,391,393,340,413,385,2025-05-27T22:36:41.200459
5425,-0.3548,0.8794,0.0854,-3.290,-9.905,3.570,393,393,356,404,394,2025-05-27T22:36:41.286454
5426,-0.3533,0.8760,0.0800,-3.465,-8.680,2.450,373,418,376,377,402,2025-05-27T22:36:41.286454
5427,-0.3528,0.8716,0.0786,-3.500,-6.755,1.015,336,389,365,374,352,2025-05-27T22:36:41.286454
5428,-0.3597,0.8686,0.0825,-3.745,-4.375,-0.525,413,344,376,337,375,2025-05-27T22:36:41.286454
5429,-0.3670,0.8623,0.0893,-3.710,-2.380,-1.540,387,373,387,378,400,2025-05-27T22:36:41.286454
5430,-0.3767,0.8628,0.0996,-3.325,-1.295,-2.450,367,415,384,385,349,2025-05-27T22:36:41.286454
5431,-0.3758,0.8633,0.1108,-3.080,0.035,-3.115,392,371,383,338,389,2025-05-27T22:36:41.286454
5432,-0.3880,0.8574,0.1215,-2.695,1.085,-3.465,404,351,370,398,400,2025-05-27T22:36:41.383679
5433,-0.3967,0.8589,0.1274,-1.995,1.085,-3.745,416,413,340,412,409,2025-05-27T22:36:41.383679
5434,-0.4011,0.8613,0.1420,-1.680,0.560,-4.025,345,402,356,401,400,2025-05-27T22:36:41.383679
5435,-0.4050,0.8618,0.1503,-1.120,0.350,-4.340,336,417,373,406,354,2025-05-27T22:36:41.383679
5436,-0.4138,0.8638,0.1562,-0.175,-0.770,-4.620,396,431,386,347,372,2025-05-27T22:36:41.383679
5437,-0.4114,0.8618,0.1557,0.840,-2.450,-5.600,417,411,384,398,386,2025-05-27T22:36:41.383679
5438,-0.4041,0.8647,0.1635,1.610,-2.975,-6.370,405,399,390,367,400,2025-05-27T22:36:41.383679
5439,-0.4031,0.8642,0.1635,2.170,-3.290,-7.070,403,404,382,389,411,2025-05-27T22:36:41.383679
5440,-0.4075,0.8701,0.1566,2.870,-2.695,-7.770,413,407,380,401,412,2025-05-27T22:36:41.516923
5441,-0.3953,0.8721,0.1518,3.360,-1.260,-8.680,408,412,382,397,396,2025-05-27T22:36:41.532567
5442,-0.4011,0.8799,0.1488,3.605,0.840,-9.695,402,424,356,350,388,2025-05-27T22:36:41.532852
5443,-0.4060,0.8891,0.1391,3.535,2.625,-10.395,364,389,357,329,380,2025-05-27T22:36:41.532935
5444,-0.4202,0.8960,0.1381,3.150,3.045,-10.255,409,392,359,364,353,2025-05-27T22:36:41.532935
5445,-0.4416,0.9038,0.1371,2.625,2.450,-10.080,432,397,372,384,395,2025-05-27T22:36:41.532935
5446,-0.4524,0.9087,0.1362,1.750,0.420,-9.730,431,428,364,392,388,2025-05-27T22:36:41.532935
5447,-0.4670,0.9106,0.1357,1.050,-1.855,-9.205,382,388,363,411,345,2025-05-27T22:36:41.532935
5448,-0.4641,0.9155,0.1283,0.315,-3.255,-8.330,380,392,344,414,389,2025-05-27T22:36:41.532935
5449,-0.4587,0.9179,0.1225,-0.315,-3.500,-7.175,412,333,360,415,403,2025-05-27T22:36:41.532935
5450,-0.4631,0.9213,0.1235,-0.980,-2.940,-5.915,400,332,377,414,414,2025-05-27T22:36:41.532935
5451,-0.4714,0.9248,0.1303,-1.540,-3.010,-4.725,420,384,338,372,411,2025-05-27T22:36:41.532935
5452,-0.4665,0.9223,0.1298,-2.170,-3.010,-3.500,405,414,354,405,420,2025-05-27T22:36:41.695102
5453,-0.4651,0.9209,0.1362,-2.380,-3.255,-2.205,433,419,360,379,400,2025-05-27T22:36:41.695102
5454,-0.4543,0.9189,0.1425,-2.240,-3.640,-1.155,425,431,372,385,387,2025-05-27T22:36:41.695102
5455,-0.4451,0.9160,0.1464,-2.450,-4.410,-0.735,405,425,382,345,402,2025-05-27T22:36:41.695102
5456,-0.4353,0.9111,0.1508,-2.415,-4.305,-0.525,426,368,379,326,411,2025-05-27T22:36:41.695102
5457,-0.4280,0.9067,0.1562,-2.345,-4.900,-0.525,389,391,341,388,403,2025-05-27T22:36:41.695102
5458,-0.4285,0.9004,0.1596,-2.450,-5.600,-0.665,396,415,372,389,395,2025-05-27T22:36:41.695102
5459,-0.4260,0.8926,0.1615,-2.380,-6.195,-1.120,407,425,387,401,384,2025-05-27T22:36:41.695102
5460,-0.4416,0.8838,0.1532,-1.960,-7.560,-1.330,392,371,343,415,399,2025-05-27T22:36:41.695102
5461,-0.4455,0.8823,0.1474,-1.470,-9.205,-1.610,387,409,322,417,405,2025-05-27T22:36:41.695102
5462,-0.4568,0.8784,0.1454,-1.225,-10.080,-1.400,411,392,348,415,401,2025-05-27T22:36:41.695102
5463,-0.4529,0.8730,0.1352,-1.365,-11.130,-1.400,413,398,342,413,388,2025-05-27T22:36:41.695102
5464,-0.4485,0.8682,0.1191,-1.540,-10.955,-1.225,397,394,373,392,401,2025-05-27T22:36:41.695102
5465,-0.4504,0.8652,0.1147,-1.610,-9.450,-0.945,426,421,378,339,386,2025-05-27T22:36:41.695102
5466,-0.4465,0.8608,0.1147,-2.030,-7.910,-0.805,369,422,383,386,412,2025-05-27T22:36:41.933334
5467,-0.4494,0.8535,0.1078,-2.170,-6.580,-0.770,406,413,383,401,395,2025-05-27T22:36:41.933334
5468,-0.4597,0.8501,0.1064,-2.275,-4.340,-0.350,411,413,382,360,402,2025-05-27T22:36:41.933334
5469,-0.4568,0.8467,0.1074,-2.345,-3.640,-0.280,346,410,390,399,388,2025-05-27T22:36:41.933334
5470,-0.4616,0.8438,0.1137,-2.380,-3.955,-0.455,412,364,392,365,387,2025-05-27T22:36:41.933334
5471,-0.4656,0.8438,0.1205,-2.275,-3.815,-0.595,423,378,385,392,362,2025-05-27T22:36:41.933334
5472,-0.4548,0.8423,0.1235,-2.135,-4.620,-0.875,423,423,386,399,389,2025-05-27T22:36:41.933334
5473,-0.4592,0.8442,0.1220,-1.505,-5.810,-1.435,409,415,383,409,392,2025-05-27T22:36:41.933334
5474,-0.4621,0.8525,0.1264,-1.260,-7.000,-1.680,353,413,373,395,399,2025-05-27T22:36:41.933334
5475,-0.4534,0.8579,0.1274,-1.400,-7.595,-1.925,376,439,376,396,391,2025-05-27T22:36:41.933334
5476,-0.4607,0.8667,0.1244,-1.540,-7.105,-1.785,412,389,377,414,396,2025-05-27T22:36:41.933334
5477,-0.4524,0.8672,0.1288,-1.785,-6.510,-1.890,299,392,343,421,395,2025-05-27T22:36:41.933334
5478,-0.4597,0.8716,0.1352,-2.100,-5.635,-1.750,393,402,359,356,389,2025-05-27T22:36:41.933334
5479,-0.4563,0.8764,0.1391,-2.345,-4.060,-1.225,386,424,376,401,401,2025-05-27T22:36:41.933334
5480,-0.4538,0.8818,0.1420,-2.625,-3.290,-0.595,410,436,376,404,417,2025-05-27T22:36:41.933334
5481,-0.4494,0.8857,0.1479,-2.800,-2.030,-0.315,404,378,383,387,409,2025-05-27T22:36:41.933334
5482,-0.4480,0.8911,0.1523,-2.835,-0.665,0.000,413,399,376,367,410,2025-05-27T22:36:41.933334
5483,-0.4509,0.8911,0.1591,-2.590,0.175,0.035,361,384,342,386,404,2025-05-27T22:36:41.933334
5484,-0.4519,0.8882,0.1645,-2.100,-0.665,0.035,406,426,371,394,394,2025-05-27T22:36:41.933334
5485,-0.4573,0.8911,0.1703,-1.785,-1.400,0.210,380,438,369,402,370,2025-05-27T22:36:41.933334
5486,-0.4548,0.8901,0.1713,-1.715,-2.310,0.385,403,426,380,410,405,2025-05-27T22:36:42.092279
5487,-0.4519,0.8906,0.1664,-1.575,-3.500,0.595,410,441,381,396,396,2025-05-27T22:36:42.092279
5488,-0.4499,0.8882,0.1635,-1.400,-3.780,0.875,420,408,338,396,362,2025-05-27T22:36:42.092279
5489,-0.4534,0.8852,0.1581,-1.680,-3.605,1.050,429,411,367,405,399,2025-05-27T22:36:42.102832
5490,-0.4529,0.8862,0.1566,-2.030,-3.675,1.400,391,427,379,416,373,2025-05-27T22:36:42.102968
5491,-0.4548,0.8843,0.1518,-2.450,-3.745,1.925,413,415,378,374,383,2025-05-27T22:36:42.103089
5492,-0.4616,0.8828,0.1479,-2.905,-3.885,2.310,404,425,383,377,400,2025-05-27T22:36:42.103089
5493,-0.4695,0.8813,0.1449,-3.080,-4.445,2.625,421,414,394,303,390,2025-05-27T22:36:42.103089
5494,-0.4704,0.8818,0.1464,-3.430,-5.075,3.010,427,402,384,366,377,2025-05-27T22:36:42.103089
5495,-0.4602,0.8784,0.1440,-3.535,-5.390,3.640,417,424,392,363,395,2025-05-27T22:36:42.103089
5496,-0.4573,0.8730,0.1464,-3.500,-5.285,4.165,427,412,351,381,405,2025-05-27T22:36:42.103089
5497,-0.4485,0.8721,0.1513,-3.570,-4.655,4.270,418,409,358,408,373,2025-05-27T22:36:42.103977
5498,-0.4451,0.8667,0.1537,-3.885,-3.885,4.410,417,430,379,410,384,2025-05-27T22:36:42.103977
5499,-0.4387,0.8628,0.1557,-3.850,-3.675,4.270,356,354,384,416,341,2025-05-27T22:36:42.103977
5500,-0.4348,0.8545,0.1581,-3.185,-4.200,3.850,410,410,343,398,393,2025-05-27T22:36:42.418834
5501,-0.4280,0.8520,0.1674,-2.380,-4.970,3.360,421,416,362,397,404,2025-05-27T22:36:42.418834
5502,-0.4094,0.8472,0.1713,-1.680,-5.390,3.080,424,350,382,404,411,2025-05-27T22:36:42.418834
5503,-0.3967,0.8452,0.1698,-0.805,-4.865,2.800,399,383,383,387,387,2025-05-27T22:36:42.418834
5504,-0.4060,0.8398,0.1654,0.035,-4.795,1.785,411,384,351,398,407,2025-05-27T22:36:42.418834
5505,-0.4036,0.8379,0.1659,1.085,-5.075,-0.070,420,401,370,403,415,2025-05-27T22:36:42.418834
5506,-0.4089,0.8433,0.1601,2.205,-5.320,-0.630,398,426,371,406,381,2025-05-27T22:36:42.418834
5507,-0.4231,0.8408,0.1518,3.080,-5.250,-1.925,398,357,372,375,393,2025-05-27T22:36:42.418834
5508,-0.4197,0.8472,0.1537,3.885,-5.495,-2.520,385,399,381,393,390,2025-05-27T22:36:42.418834
5509,-0.4338,0.8472,0.1484,4.690,-5.320,-2.695,392,406,344,352,392,2025-05-27T22:36:42.418834
5510,-0.4485,0.8555,0.1454,5.355,-5.320,-2.800,421,397,352,394,411,2025-05-27T22:36:42.418834
5511,-0.4656,0.8589,0.1415,5.670,-7.315,-2.835,396,363,360,307,407,2025-05-27T22:36:42.418834
5512,-0.4548,0.8677,0.1308,5.320,-7.105,-2.800,390,419,366,330,408,2025-05-27T22:36:42.418834
5513,-0.4504,0.8774,0.1240,4.690,-3.815,-2.555,412,401,382,382,374,2025-05-27T22:36:42.418834
5514,-0.4480,0.8843,0.1220,3.850,-1.645,-1.960,413,392,347,334,388,2025-05-27T22:36:42.418834
5515,-0.4416,0.8930,0.1196,2.730,2.275,-1.715,420,407,370,394,360,2025-05-27T22:36:42.418834
5516,-0.4485,0.8984,0.1283,1.435,6.825,-1.190,401,394,343,390,392,2025-05-27T22:36:42.418834
5517,-0.4651,0.9072,0.1401,0.315,8.050,-0.700,393,387,353,392,396,2025-05-27T22:36:42.418834
5518,-0.4787,0.9116,0.1566,-0.700,5.285,0.000,389,395,364,396,350,2025-05-27T22:36:42.418834
5519,-0.4831,0.9140,0.1640,-1.715,2.765,0.560,389,386,366,354,338,2025-05-27T22:36:42.418834
5520,-0.4753,0.9116,0.1703,-2.520,-0.245,1.120,343,331,371,375,367,2025-05-27T22:36:42.418834
5521,-0.4641,0.9101,0.1732,-3.325,-2.625,1.435,382,382,392,389,391,2025-05-27T22:36:42.750083
5522,-0.4577,0.9048,0.1737,-3.815,-2.555,2.135,404,395,386,393,401,2025-05-27T22:36:42.750083
5523,-0.4543,0.8940,0.1786,-3.850,-2.030,2.800,386,426,381,383,405,2025-05-27T22:36:42.750083
5524,-0.4587,0.8857,0.1781,-3.605,-2.170,3.605,422,376,354,398,405,2025-05-27T22:36:42.750083
5525,-0.4582,0.8833,0.1776,-3.080,-1.995,3.990,390,417,354,420,362,2025-05-27T22:36:42.750083
5526,-0.4514,0.8769,0.1737,-2.380,-1.680,4.585,415,396,359,419,373,2025-05-27T22:36:42.750083
5527,-0.4480,0.8701,0.1684,-1.505,-2.100,4.935,413,337,358,373,368,2025-05-27T22:36:42.750083
5528,-0.4426,0.8686,0.1625,-0.875,-1.960,5.145,410,395,330,403,396,2025-05-27T22:36:42.750083
5529,-0.4382,0.8672,0.1537,-0.350,-1.015,5.040,369,387,346,399,386,2025-05-27T22:36:42.750083
5530,-0.4290,0.8618,0.1513,-0.105,-0.140,4.620,391,409,327,390,409,2025-05-27T22:36:42.750083
5531,-0.4314,0.8574,0.1508,0.140,0.245,4.025,413,424,350,420,413,2025-05-27T22:36:42.750083
5532,-0.4285,0.8550,0.1488,0.175,0.245,3.150,400,439,374,424,420,2025-05-27T22:36:42.750083
5533,-0.4324,0.8555,0.1474,0.140,-0.210,2.170,364,429,338,408,377,2025-05-27T22:36:42.750083
5534,-0.4265,0.8589,0.1459,-0.455,-0.805,1.295,331,417,366,422,404,2025-05-27T22:36:42.750083
5535,-0.4358,0.8608,0.1523,-0.455,-2.030,0.700,394,438,388,402,413,2025-05-27T22:36:42.750083
5536,-0.4397,0.8525,0.1444,-0.875,-2.485,-0.490,404,388,374,349,410,2025-05-27T22:36:42.750083
5537,-0.4363,0.8520,0.1503,-1.120,-2.695,-0.980,417,394,382,334,413,2025-05-27T22:36:42.750083
5538,-0.4338,0.8520,0.1518,-1.295,-2.730,-1.295,409,421,386,346,416,2025-05-27T22:36:42.750083
5539,-0.4348,0.8535,0.1523,-1.155,-1.890,-1.785,422,415,376,393,422,2025-05-27T22:36:42.750083
5540,-0.4333,0.8579,0.1542,-0.875,-0.315,-2.170,387,424,336,390,418,2025-05-27T22:36:42.750083
5541,-0.4387,0.8623,0.1625,-0.805,0.840,-2.555,417,415,367,405,354,2025-05-27T22:36:42.750083
5542,-0.4504,0.8628,0.1635,-0.665,0.770,-2.730,399,397,365,383,392,2025-05-27T22:36:42.853021
5543,-0.4602,0.8638,0.1659,0.105,-0.910,-2.975,353,406,371,388,393,2025-05-27T22:36:42.853021
5544,-0.4543,0.8696,0.1669,0.770,-2.555,-2.975,330,405,382,390,345,2025-05-27T22:36:42.853021
5545,-0.4470,0.8769,0.1649,1.120,-2.695,-3.150,409,391,380,411,375,2025-05-27T22:36:42.853021
5546,-0.4397,0.8799,0.1649,1.365,-2.030,-3.045,408,412,374,375,338,2025-05-27T22:36:42.853021
5547,-0.4460,0.8833,0.1625,1.505,-1.225,-3.080,417,415,372,345,382,2025-05-27T22:36:42.853021
5548,-0.4490,0.8886,0.1645,1.260,-0.770,-2.870,397,402,375,330,385,2025-05-27T22:36:42.853021
5549,-0.4621,0.8891,0.1688,1.085,-1.470,-2.695,429,422,340,377,400,2025-05-27T22:36:42.853021
5550,-0.4704,0.8872,0.1693,0.910,-3.255,-2.485,354,405,364,409,399,2025-05-27T22:36:42.853021
5551,-0.4656,0.8926,0.1659,0.770,-4.830,-1.855,326,401,371,418,418,2025-05-27T22:36:42.853021
5552,-0.4641,0.8911,0.1615,0.560,-5.495,-1.330,382,417,378,405,414,2025-05-27T22:36:42.853021
5553,-0.4577,0.8926,0.1591,0.140,-5.110,-1.120,357,419,367,349,410,2025-05-27T22:36:42.853021
5554,-0.4553,0.8930,0.1576,-0.525,-4.410,-0.595,343,389,379,375,404,2025-05-27T22:36:42.853021
5555,-0.4597,0.8901,0.1557,-0.875,-3.990,-0.175,400,416,371,373,393,2025-05-27T22:36:42.853021
5556,-0.4690,0.8852,0.1557,-1.050,-4.620,0.245,422,401,384,390,366,2025-05-27T22:36:42.853021
5557,-0.4695,0.8794,0.1542,-0.910,-5.950,0.560,409,408,356,361,392,2025-05-27T22:36:42.853021
5558,-0.4626,0.8789,0.1547,-0.805,-6.755,0.735,417,338,369,377,388,2025-05-27T22:36:42.853021
5559,-0.4563,0.8769,0.1547,-0.910,-6.440,0.945,416,332,385,389,344,2025-05-27T22:36:42.853021
5560,-0.4524,0.8711,0.1542,-1.295,-6.020,1.225,396,404,358,405,384,2025-05-27T22:36:42.853021
5561,-0.4529,0.8613,0.1513,-1.295,-5.355,1.400,381,417,366,397,400,2025-05-27T22:36:42.853021
5562,-0.4494,0.8642,0.1503,-1.015,-5.145,1.260,403,411,363,398,364,2025-05-27T22:36:42.853021
5563,-0.4524,0.8608,0.1527,-0.805,-5.180,1.015,356,371,373,407,399,2025-05-27T22:36:43.233658
5564,-0.4485,0.8613,0.1537,-0.560,-5.635,0.595,409,414,388,417,407,2025-05-27T22:36:43.233658
5565,-0.4431,0.8589,0.1566,-0.490,-6.195,0.210,388,352,393,419,387,2025-05-27T22:36:43.233658
5566,-0.4382,0.8574,0.1576,-0.420,-6.300,0.210,410,340,390,404,342,2025-05-27T22:36:43.233658
5567,-0.4333,0.8574,0.1562,-0.385,-6.160,-0.035,381,372,379,394,345,2025-05-27T22:36:43.233658
5568,-0.4270,0.8613,0.1552,-0.385,-5.460,-0.420,413,395,369,389,365,2025-05-27T22:36:43.233658
5569,-0.4309,0.8618,0.1562,-0.245,-4.410,-0.595,415,342,379,406,383,2025-05-27T22:36:43.233658
5570,-0.4329,0.8628,0.1571,0.035,-4.235,-0.840,420,392,343,386,400,2025-05-27T22:36:43.233658
5571,-0.4397,0.8657,0.1576,0.490,-4.585,-1.085,403,415,357,390,351,2025-05-27T22:36:43.233658
5572,-0.4426,0.8677,0.1620,0.770,-4.725,-1.155,392,401,364,346,377,2025-05-27T22:36:43.233658
5573,-0.4402,0.8711,0.1635,0.840,-4.865,-1.085,397,412,368,380,396,2025-05-27T22:36:43.233658
5574,-0.4392,0.8730,0.1630,0.630,-4.515,-1.085,400,422,346,407,403,2025-05-27T22:36:43.233658
5575,-0.4407,0.8755,0.1625,0.770,-4.165,-0.770,419,427,358,402,353,2025-05-27T22:36:43.233658
5576,-0.4451,0.8750,0.1635,0.840,-3.955,-0.595,417,426,369,387,328,2025-05-27T22:36:43.233658
5577,-0.4426,0.8774,0.1664,0.805,-3.955,-0.350,422,419,378,403,369,2025-05-27T22:36:43.233658
5578,-0.4451,0.8808,0.1620,0.910,-3.850,-0.070,412,428,389,414,301,2025-05-27T22:36:43.233658
5579,-0.4416,0.8794,0.1606,0.945,-3.710,0.070,343,409,382,363,367,2025-05-27T22:36:43.233658
5580,-0.4402,0.8828,0.1625,0.945,-3.325,0.280,396,428,357,391,385,2025-05-27T22:36:43.233658
5581,-0.4431,0.8828,0.1625,0.735,-2.450,0.350,393,432,378,352,390,2025-05-27T22:36:43.233658
5582,-0.4460,0.8784,0.1615,0.700,-2.415,0.455,407,403,369,328,396,2025-05-27T22:36:43.233658
5583,-0.4504,0.8779,0.1625,0.525,-3.290,0.700,400,380,378,401,406,2025-05-27T22:36:43.233658
5584,-0.4431,0.8779,0.1596,0.525,-3.640,0.490,345,395,375,411,387,2025-05-27T22:36:43.400359
5585,-0.4392,0.8745,0.1601,0.490,-3.570,0.280,374,430,383,418,399,2025-05-27T22:36:43.400359
5586,-0.4412,0.8784,0.1606,0.385,-3.535,0.315,411,402,377,356,363,2025-05-27T22:36:43.400359
5587,-0.4421,0.8764,0.1610,0.140,-3.675,0.280,335,417,370,393,399,2025-05-27T22:36:43.400359
5588,-0.4402,0.8774,0.1576,-0.035,-3.570,0.420,384,422,336,307,395,2025-05-27T22:36:43.400359
5589,-0.4412,0.8750,0.1615,0.035,-3.745,0.595,403,420,324,323,401,2025-05-27T22:36:43.400359
5590,-0.4431,0.8716,0.1576,-0.105,-3.710,0.665,422,415,355,387,396,2025-05-27T22:36:43.400359
5591,-0.4382,0.8740,0.1571,0.175,-3.395,1.015,371,422,334,415,401,2025-05-27T22:36:43.400359
5592,-0.4363,0.8725,0.1576,0.140,-2.695,1.190,413,350,364,399,403,2025-05-27T22:36:43.400359
5593,-0.4338,0.8721,0.1576,0.070,-1.750,1.015,411,380,367,407,349,2025-05-27T22:36:43.400359
5594,-0.4402,0.8691,0.1581,0.000,-1.295,0.840,422,418,388,376,353,2025-05-27T22:36:43.400359
5595,-0.4397,0.8691,0.1610,0.245,-1.610,0.630,402,400,391,380,393,2025-05-27T22:36:43.400359
5596,-0.4407,0.8696,0.1606,0.315,-2.135,0.420,398,423,385,383,345,2025-05-27T22:36:43.400359
5597,-0.4324,0.8672,0.1586,0.770,-1.855,0.175,414,412,388,396,386,2025-05-27T22:36:43.400359
5598,-0.4397,0.8730,0.1591,0.875,-1.680,0.070,380,424,357,400,347,2025-05-27T22:36:43.400359
5599,-0.4451,0.8711,0.1576,0.945,-2.170,-0.105,387,340,376,415,387,2025-05-27T22:36:43.684682
5600,-0.4451,0.8725,0.1620,0.910,-2.940,-0.070,393,332,375,397,383,2025-05-27T22:36:43.684682
5601,-0.4436,0.8735,0.1562,0.945,-3.010,0.420,392,406,347,407,387,2025-05-27T22:36:43.684682
5602,-0.4397,0.8706,0.1527,1.085,-2.765,0.245,384,358,374,399,389,2025-05-27T22:36:43.684682
5603,-0.4382,0.8735,0.1542,1.225,-2.030,0.280,398,384,390,420,391,2025-05-27T22:36:43.684682
5604,-0.4421,0.8735,0.1552,1.085,-1.400,0.315,401,400,381,410,350,2025-05-27T22:36:43.684682
5605,-0.4470,0.8735,0.1557,0.910,-1.295,0.140,426,402,394,397,384,2025-05-27T22:36:43.684682
5606,-0.4470,0.8755,0.1586,0.700,-2.240,0.105,358,421,387,389,385,2025-05-27T22:36:43.684682
5607,-0.4499,0.8745,0.1581,0.665,-3.255,0.105,384,416,357,345,335,2025-05-27T22:36:43.684682
5608,-0.4412,0.8730,0.1586,0.595,-3.885,-0.035,424,386,344,350,389,2025-05-27T22:36:43.684682
5609,-0.4319,0.8760,0.1557,0.735,-3.815,-0.315,421,417,376,382,410,2025-05-27T22:36:43.684682
5610,-0.4304,0.8764,0.1557,0.840,-2.940,-0.630,400,404,375,387,392,2025-05-27T22:36:43.684682
5611,-0.4324,0.8769,0.1586,0.945,-1.785,-0.875,355,409,385,404,358,2025-05-27T22:36:43.684682
5612,-0.4402,0.8789,0.1625,0.945,-1.540,-0.875,342,352,380,411,389,2025-05-27T22:36:43.684682
5613,-0.4485,0.8789,0.1635,1.015,-2.100,-0.700,403,409,384,420,362,2025-05-27T22:36:43.684682
5614,-0.4465,0.8808,0.1620,1.120,-3.045,-0.490,411,397,386,314,348,2025-05-27T22:36:43.684682
5615,-0.4475,0.8789,0.1591,1.365,-4.165,-0.210,396,397,389,372,362,2025-05-27T22:36:43.684682
5616,-0.4377,0.8804,0.1547,1.505,-4.550,0.210,427,416,398,390,352,2025-05-27T22:36:43.684682
5617,-0.4319,0.8847,0.1518,1.750,-4.025,0.420,423,395,394,349,376,2025-05-27T22:36:43.684682
5618,-0.4290,0.8828,0.1498,1.855,-2.870,0.630,404,376,384,391,397,2025-05-27T22:36:43.684682
5619,-0.4275,0.8862,0.1449,1.925,-2.065,1.050,412,355,392,409,393,2025-05-27T22:36:43.684682
5620,-0.4329,0.8838,0.1435,2.135,-1.190,1.225,403,406,393,406,403,2025-05-27T22:36:43.684682
5621,-0.4319,0.8862,0.1479,2.205,-0.700,1.435,405,416,385,388,398,2025-05-27T22:36:43.684682
5622,-0.4392,0.8838,0.1518,1.855,-0.735,1.715,417,389,384,405,403,2025-05-27T22:36:43.684682
5623,-0.4426,0.8808,0.1459,1.435,-1.085,1.645,417,432,385,393,394,2025-05-27T22:36:43.684682
5624,-0.4465,0.8784,0.1464,1.260,-1.715,1.540,403,421,382,347,401,2025-05-27T22:36:43.684682
5625,-0.4377,0.8760,0.1474,0.980,-2.065,1.330,413,406,379,335,408,2025-05-27T22:36:43.684682
5626,-0.4368,0.8750,0.1469,0.560,-1.365,1.260,429,423,386,351,386,2025-05-27T22:36:43.684682
5627,-0.4397,0.8750,0.1479,0.315,-0.490,0.875,360,395,373,377,400,2025-05-27T22:36:44.016492
5628,-0.4431,0.8706,0.1566,-0.035,-0.420,0.875,421,343,379,385,398,2025-05-27T22:36:44.016492
5629,-0.4475,0.8716,0.1601,-0.420,-0.980,0.595,406,413,377,400,400,2025-05-27T22:36:44.016492
5630,-0.4499,0.8701,0.1606,-0.385,-1.680,0.315,392,423,371,384,348,2025-05-27T22:36:44.016492
5631,-0.4504,0.8696,0.1630,-0.210,-2.555,0.140,421,428,368,349,364,2025-05-27T22:36:44.016492
5632,-0.4421,0.8711,0.1610,-0.070,-3.010,0.000,401,413,376,376,385,2025-05-27T22:36:44.016492
5633,-0.4372,0.8745,0.1571,0.140,-2.415,0.070,405,404,351,372,342,2025-05-27T22:36:44.016492
5634,-0.4363,0.8755,0.1562,0.350,-1.225,-0.035,424,396,332,400,381,2025-05-27T22:36:44.016492
5635,-0.4402,0.8735,0.1566,0.560,-0.805,-0.105,420,396,353,414,348,2025-05-27T22:36:44.016492
5636,-0.4446,0.8755,0.1542,0.665,-1.050,0.070,407,391,373,411,382,2025-05-27T22:36:44.016492
5637,-0.4465,0.8750,0.1532,0.945,-1.715,0.140,406,300,381,404,406,2025-05-27T22:36:44.016492
5638,-0.4460,0.8755,0.1542,0.945,-2.380,0.245,421,385,378,410,414,2025-05-27T22:36:44.016492
5639,-0.4465,0.8735,0.1523,0.735,-2.835,0.210,429,415,381,400,357,2025-05-27T22:36:44.016492
5640,-0.4431,0.8760,0.1493,0.700,-3.045,0.140,430,412,311,406,340,2025-05-27T22:36:44.016492
5641,-0.4372,0.8769,0.1444,0.770,-2.695,-0.245,426,409,349,395,373,2025-05-27T22:36:44.016492
5642,-0.4397,0.8799,0.1449,0.875,-2.100,-0.420,418,413,356,397,393,2025-05-27T22:36:44.016492
5643,-0.4382,0.8804,0.1493,0.560,-1.575,-0.595,395,397,373,415,380,2025-05-27T22:36:44.016492
5644,-0.4446,0.8818,0.1484,0.175,-1.645,-0.350,355,419,376,373,387,2025-05-27T22:36:44.016492
5645,-0.4534,0.8779,0.1484,-0.140,-2.380,-0.175,383,404,337,398,393,2025-05-27T22:36:44.016492
5646,-0.4548,0.8755,0.1488,-0.140,-3.360,-0.245,384,392,360,389,409,2025-05-27T22:36:44.016492
5647,-0.4494,0.8774,0.1523,-0.245,-3.640,-0.280,385,332,360,389,405,2025-05-27T22:36:44.016492
5648,-0.4421,0.8769,0.1518,-0.315,-3.255,-0.315,404,359,358,391,412,2025-05-27T22:36:44.140974
5649,-0.4446,0.8750,0.1557,-0.245,-2.590,-0.455,343,387,378,305,404,2025-05-27T22:36:44.140974
5650,-0.4451,0.8755,0.1581,-0.140,-2.520,-0.525,392,425,380,379,411,2025-05-27T22:36:44.140974
5651,-0.4455,0.8769,0.1606,-0.035,-3.115,-0.420,382,370,346,339,387,2025-05-27T22:36:44.140974
5652,-0.4460,0.8716,0.1591,0.420,-3.640,-0.595,407,404,374,391,383,2025-05-27T22:36:44.140974
5653,-0.4426,0.8750,0.1596,0.805,-4.165,-0.770,392,410,385,339,391,2025-05-27T22:36:44.140974
5654,-0.4412,0.8745,0.1557,0.875,-4.270,-0.910,390,300,347,367,399,2025-05-27T22:36:44.140974
5655,-0.4402,0.8755,0.1527,0.980,-4.060,-1.120,329,313,354,385,389,2025-05-27T22:36:44.148401
5656,-0.4455,0.8784,0.1493,0.910,-3.815,-1.190,404,392,348,410,405,2025-05-27T22:36:44.148401
5657,-0.4490,0.8750,0.1469,1.050,-3.920,-1.155,340,412,331,412,364,2025-05-27T22:36:44.148401
5658,-0.4524,0.8764,0.1493,0.980,-4.095,-1.120,403,423,344,366,377,2025-05-27T22:36:44.148401
5659,-0.4529,0.8799,0.1469,0.735,-4.340,-1.050,409,422,354,389,400,2025-05-27T22:36:44.148401
5660,-0.4514,0.8838,0.1459,0.525,-4.340,-1.015,431,437,366,388,355,2025-05-27T22:36:44.148401
5661,-0.4485,0.8843,0.1444,0.280,-4.410,-0.910,398,426,347,406,396,2025-05-27T22:36:44.148401
5662,-0.4480,0.8843,0.1449,0.035,-4.760,-0.875,420,380,324,405,389,2025-05-27T22:36:44.148401
5663,-0.4524,0.8828,0.1459,-0.105,-5.250,-0.805,392,418,330,414,390,2025-05-27T22:36:44.148401
5664,-0.4485,0.8843,0.1464,-0.315,-5.845,-0.525,430,426,354,381,381,2025-05-27T22:36:44.148401
5665,-0.4431,0.8847,0.1484,-0.490,-5.880,-0.280,418,404,338,412,407,2025-05-27T22:36:44.148401
5666,-0.4372,0.8828,0.1449,-0.630,-5.285,-0.105,416,424,359,351,384,2025-05-27T22:36:44.148401
5667,-0.4392,0.8838,0.1493,-0.805,-4.270,0.000,413,413,378,395,398,2025-05-27T22:36:44.148401
5668,-0.4431,0.8813,0.1498,-1.155,-4.130,0.350,421,406,390,417,403,2025-05-27T22:36:44.148401
5669,-0.4475,0.8804,0.1469,-1.120,-4.480,0.560,403,418,388,352,360,2025-05-27T22:36:44.251477
5670,-0.4504,0.8774,0.1523,-0.805,-5.075,0.525,429,424,362,386,389,2025-05-27T22:36:44.251477
5671,-0.4475,0.8764,0.1552,-0.770,-5.460,0.665,420,357,361,406,406,2025-05-27T22:36:44.251477
5672,-0.4446,0.8750,0.1518,-0.665,-5.775,0.700,407,388,370,414,390,2025-05-27T22:36:44.251477
5673,-0.4392,0.8779,0.1537,-0.490,-5.285,0.595,409,424,384,357,397,2025-05-27T22:36:44.251477
5674,-0.4397,0.8784,0.1513,-0.420,-4.830,0.735,410,424,391,394,391,2025-05-27T22:36:44.251477
5675,-0.4397,0.8794,0.1479,-0.630,-4.690,0.910,415,341,375,387,390,2025-05-27T22:36:44.251477
5676,-0.4412,0.8789,0.1484,-0.490,-4.585,1.015,426,356,344,363,397,2025-05-27T22:36:44.251477
5677,-0.4348,0.8843,0.1537,-0.770,-4.165,1.085,419,395,352,402,355,2025-05-27T22:36:44.251477
5678,-0.4353,0.8833,0.1547,-1.400,-3.675,1.225,407,411,370,394,382,2025-05-27T22:36:44.251477
5679,-0.4211,0.8852,0.1479,-1.750,-2.800,1.435,401,409,377,411,384,2025-05-27T22:36:44.251477
5680,-0.4333,0.8857,0.1410,-1.540,0.770,1.400,401,420,380,396,379,2025-05-27T22:36:44.383394
5681,-0.4387,0.8818,0.1552,-1.330,2.240,1.470,338,399,376,373,380,2025-05-27T22:36:44.383394
5682,-0.4490,0.8799,0.1625,-1.155,0.490,1.610,406,390,342,402,346,2025-05-27T22:36:44.383394
5683,-0.4587,0.8799,0.1610,-0.980,-0.875,1.960,423,393,368,396,391,2025-05-27T22:36:44.383394
5684,-0.4573,0.8784,0.1581,-0.840,-1.995,2.135,428,362,365,347,403,2025-05-27T22:36:44.383394
5685,-0.4534,0.8784,0.1552,-0.630,-4.410,2.590,415,410,375,375,404,2025-05-27T22:36:44.383394
5686,-0.4455,0.8784,0.1552,-0.700,-5.040,2.660,407,414,335,394,411,2025-05-27T22:36:44.383394
5687,-0.4392,0.8745,0.1542,-0.805,-4.585,2.625,388,427,365,386,357,2025-05-27T22:36:44.383394
5688,-0.4324,0.8750,0.1552,-0.980,-4.550,2.485,397,426,380,342,396,2025-05-27T22:36:44.383394
5689,-0.4309,0.8706,0.1518,-0.665,-4.165,2.345,399,421,373,385,352,2025-05-27T22:36:44.383394
5690,-0.4333,0.8696,0.1532,-0.455,-3.395,2.240,375,422,390,400,393,2025-05-27T22:36:44.383394
5691,-0.4353,0.8701,0.1532,-0.420,-3.430,2.380,420,421,375,401,400,2025-05-27T22:36:44.383394
5692,-0.4372,0.8672,0.1547,-0.595,-3.850,2.415,367,396,377,387,393,2025-05-27T22:36:44.656113
5693,-0.4353,0.8667,0.1527,-0.770,-3.815,2.695,399,396,378,391,382,2025-05-27T22:36:44.656113
5694,-0.4353,0.8642,0.1498,-0.665,-4.130,2.625,399,402,388,405,382,2025-05-27T22:36:44.656113
5695,-0.4343,0.8623,0.1503,-0.280,-4.550,2.625,405,400,391,399,397,2025-05-27T22:36:44.656113
5696,-0.4275,0.8647,0.1532,-0.105,-4.340,2.625,412,363,359,407,396,2025-05-27T22:36:44.656113
5697,-0.4280,0.8623,0.1498,0.140,-3.780,2.450,409,399,377,346,395,2025-05-27T22:36:44.656113
5698,-0.4246,0.8603,0.1464,0.700,-3.500,2.345,418,364,335,373,405,2025-05-27T22:36:44.656113
5699,-0.4255,0.8594,0.1532,1.120,-3.465,2.310,418,401,364,388,313,2025-05-27T22:36:44.656113
5700,-0.4246,0.8589,0.1532,1.295,-3.850,2.065,418,404,366,409,318,2025-05-27T22:36:44.656113
5701,-0.4304,0.8540,0.1518,1.400,-4.340,1.925,399,403,375,409,373,2025-05-27T22:36:44.656113
5702,-0.4382,0.8555,0.1518,1.505,-5.460,2.170,394,402,384,412,390,2025-05-27T22:36:44.656113
5703,-0.4290,0.8501,0.1430,2.135,-6.125,2.555,423,401,381,412,350,2025-05-27T22:36:44.656113
5704,-0.4226,0.8550,0.1376,2.485,-5.005,2.555,416,420,387,350,374,2025-05-27T22:36:44.656113
5705,-0.4211,0.8579,0.1371,2.905,-3.570,2.555,413,404,359,366,341,2025-05-27T22:36:44.656113
5706,-0.4246,0.8628,0.1327,2.870,-2.135,2.695,393,395,373,329,375,2025-05-27T22:36:44.656113
5707,-0.4358,0.8608,0.1352,3.080,-2.205,2.835,418,422,307,378,381,2025-05-27T22:36:44.656113
5708,-0.4490,0.8618,0.1376,3.290,-3.430,2.835,420,367,355,382,383,2025-05-27T22:36:44.656113
5709,-0.4504,0.8628,0.1362,3.290,-5.180,3.185,406,415,380,407,387,2025-05-27T22:36:44.656113
5710,-0.4460,0.8633,0.1332,3.465,-6.300,3.325,395,413,372,399,344,2025-05-27T22:36:44.656113
5711,-0.4412,0.8696,0.1342,3.500,-6.020,3.500,418,425,370,419,369,2025-05-27T22:36:44.656113
5712,-0.4314,0.8716,0.1342,3.150,-4.655,3.675,419,428,349,413,403,2025-05-27T22:36:44.656113
5713,-0.4348,0.8750,0.1337,2.835,-3.430,4.235,418,435,355,419,404,2025-05-27T22:36:44.656113
5714,-0.4426,0.8784,0.1435,2.590,-2.975,4.305,375,403,369,390,398,2025-05-27T22:36:44.802833
5715,-0.4387,0.8799,0.1493,1.715,-3.780,4.165,386,402,367,400,408,2025-05-27T22:36:44.802833
5716,-0.4402,0.8847,0.1542,1.190,-4.935,4.095,392,426,339,344,411,2025-05-27T22:36:44.802833
5717,-0.4426,0.8872,0.1596,0.910,-6.090,3.955,398,422,368,341,412,2025-05-27T22:36:44.802833
5718,-0.4329,0.8896,0.1615,0.420,-7.385,3.920,413,427,372,395,397,2025-05-27T22:36:44.802833
5719,-0.4231,0.8916,0.1606,0.105,-7.560,3.780,413,351,369,345,342,2025-05-27T22:36:44.802833
5720,-0.4133,0.8979,0.1654,-0.035,-6.370,3.815,415,374,339,383,371,2025-05-27T22:36:44.802833
5721,-0.4114,0.8994,0.1679,-0.420,-5.460,3.500,424,362,356,404,392,2025-05-27T22:36:44.802833
5722,-0.4109,0.9023,0.1693,-0.700,-5.040,3.500,372,348,341,403,390,2025-05-27T22:36:44.802833
5723,-0.4226,0.9028,0.1776,-0.350,-5.950,3.535,386,396,358,373,401,2025-05-27T22:36:44.802833
5724,-0.4163,0.9067,0.1771,0.035,-7.350,3.815,341,420,363,393,410,2025-05-27T22:36:44.802833
5725,-0.4085,0.9096,0.1693,0.210,-8.085,4.130,386,427,373,404,368,2025-05-27T22:36:44.802833
5726,-0.4055,0.9165,0.1640,0.630,-7.350,4.305,412,425,371,408,384,2025-05-27T22:36:44.802833
5727,-0.3982,0.9199,0.1596,0.735,-5.985,4.655,429,417,372,403,380,2025-05-27T22:36:44.966266
5728,-0.4046,0.9218,0.1596,0.385,-4.935,5.145,429,400,342,405,377,2025-05-27T22:36:44.966266
5729,-0.4104,0.9218,0.1518,0.175,-4.515,5.565,399,399,353,342,385,2025-05-27T22:36:44.966266
5730,-0.4060,0.9218,0.1449,-0.070,-4.585,5.845,427,395,362,382,402,2025-05-27T22:36:44.966266
5731,-0.4021,0.9218,0.1454,-0.560,-4.235,6.020,425,400,333,402,408,2025-05-27T22:36:44.966266
5732,-0.3831,0.9252,0.1420,-1.330,-2.590,6.160,407,388,288,414,412,2025-05-27T22:36:44.966266
5733,-0.3948,0.9223,0.1303,-1.575,1.785,5.880,429,389,348,418,362,2025-05-27T22:36:44.966266
5734,-0.3919,0.9179,0.1454,-1.785,3.255,5.635,415,419,356,424,346,2025-05-27T22:36:44.966266
5735,-0.4036,0.9174,0.1508,-2.520,2.485,4.865,429,420,377,399,390,2025-05-27T22:36:44.966266
5736,-0.3797,0.9140,0.1606,-3.290,3.185,4.095,415,404,338,412,390,2025-05-27T22:36:44.966266
5737,-0.4070,0.9096,0.1601,-3.465,4.305,3.360,411,419,367,398,398,2025-05-27T22:36:44.966266
5738,-0.4143,0.9091,0.1757,-3.290,1.645,2.485,423,435,365,401,406,2025-05-27T22:36:44.966266
5739,-0.4285,0.9057,0.1884,-3.605,-2.450,2.135,434,425,362,415,399,2025-05-27T22:36:44.966266
5740,-0.4197,0.9043,0.1903,-4.025,-3.780,1.995,408,375,381,389,383,2025-05-27T22:36:44.966266
5741,-0.4080,0.8984,0.1835,-4.340,-4.095,1.785,389,412,389,411,387,2025-05-27T22:36:45.075143
5742,-0.3958,0.8950,0.1825,-4.410,-2.660,1.610,421,387,391,396,400,2025-05-27T22:36:45.075143
5743,-0.3933,0.8940,0.1859,-4.550,0.315,1.680,385,408,315,410,411,2025-05-27T22:36:45.075143
5744,-0.3992,0.8843,0.1859,-4.515,1.470,2.030,389,340,359,414,355,2025-05-27T22:36:45.075143
5745,-0.4036,0.8745,0.1884,-4.305,1.015,2.240,397,381,372,404,393,2025-05-27T22:36:45.075143
5746,-0.4080,0.8657,0.1932,-4.200,0.000,2.380,422,401,376,356,408,2025-05-27T22:36:45.075143
5747,-0.4070,0.8564,0.1918,-4.200,-1.890,2.450,422,405,364,358,412,2025-05-27T22:36:45.076145
5748,-0.3943,0.8355,0.1859,-4.305,-3.850,2.660,354,394,381,395,402,2025-05-27T22:36:45.076145
5749,-0.3855,0.8218,0.1830,-4.025,-4.515,2.555,409,347,378,397,411,2025-05-27T22:36:45.417757
5750,-0.3743,0.8076,0.1864,-3.815,-4.725,2.450,399,406,340,387,405,2025-05-27T22:36:45.417757
5751,-0.3582,0.7964,0.1859,-3.920,-4.900,2.380,397,420,290,400,371,2025-05-27T22:36:45.417757
5752,-0.3377,0.7910,0.1820,-3.535,-4.655,2.030,392,431,341,400,401,2025-05-27T22:36:45.417757
5753,-0.3231,0.7925,0.1830,-3.045,-4.270,1.050,421,408,356,369,380,2025-05-27T22:36:45.417757
5754,-0.3035,0.8189,0.1845,-2.135,-4.375,-0.770,405,419,372,360,382,2025-05-27T22:36:45.417757
5755,-0.2718,0.8701,0.1972,-0.560,-4.760,-2.695,412,426,345,392,410,2025-05-27T22:36:45.417757
5756,-0.2474,0.9584,0.2186,-0.595,-5.285,-5.390,403,398,366,410,410,2025-05-27T22:36:45.417757
5757,-0.2606,1.1097,0.2679,0.315,-11.060,-7.595,400,424,380,357,390,2025-05-27T22:36:45.417757
5758,-0.2772,1.3044,0.3304,-0.735,-21.280,-9.415,397,416,344,397,409,2025-05-27T22:36:45.417757
5759,-0.2923,1.5435,0.3948,-0.630,-42.910,-7.315,414,429,360,396,370,2025-05-27T22:36:45.417757
5760,-0.2728,1.7275,0.4421,0.665,-74.130,-4.620,368,415,363,408,359,2025-05-27T22:36:45.417757
5761,-0.1937,2.0281,0.4392,-4.865,-109.235,-4.725,403,427,361,390,395,2025-05-27T22:36:45.417757
5762,-0.0537,2.2316,0.4382,-15.995,-138.950,-6.300,400,424,375,393,402,2025-05-27T22:36:45.417757
5763,0.1503,2.3707,0.3592,-32.550,-159.320,-4.760,415,428,374,410,413,2025-05-27T22:36:45.417757
5764,0.2933,2.4234,0.2235,-58.835,-168.945,-3.745,408,427,366,419,394,2025-05-27T22:36:45.417757
5765,0.2996,2.3653,0.0044,-79.170,-176.120,-6.965,417,421,372,414,353,2025-05-27T22:36:45.417757
5766,0.3640,2.2912,-0.0210,-100.310,-181.090,-16.835,404,427,368,378,395,2025-05-27T22:36:45.417757
5767,0.3621,2.1282,-0.1152,-116.270,-189.420,-23.695,417,405,378,409,406,2025-05-27T22:36:45.417757
5768,0.3494,1.9647,-0.2269,-129.325,-206.220,-25.830,400,384,373,415,413,2025-05-27T22:36:45.609124
5769,0.2943,1.7924,-0.2948,-137.270,-231.035,-31.780,421,410,342,412,397,2025-05-27T22:36:45.609124
5770,0.1654,1.6416,-0.3011,-150.115,-251.930,-44.275,399,394,355,350,396,2025-05-27T22:36:45.609124
5771,0.1191,1.4796,-0.2786,-169.400,-264.495,-63.700,425,393,364,345,401,2025-05-27T22:36:45.609124
5772,0.0927,1.4035,-0.2289,-199.220,-274.750,-86.415,345,406,368,346,408,2025-05-27T22:36:45.609124
5773,0.0595,1.0658,-0.4138,-209.965,-283.605,-102.305,412,399,365,386,422,2025-05-27T22:36:45.609124
5774,-0.0512,0.8145,-0.2328,-217.070,-288.855,-119.315,421,389,379,415,403,2025-05-27T22:36:45.609124
5775,-0.0800,0.5856,-0.1518,-219.100,-291.165,-137.375,342,372,344,376,348,2025-05-27T22:36:45.609124
5776,-0.1083,0.2938,0.0249,-228.060,-285.320,-150.430,378,395,356,400,379,2025-05-27T22:36:45.609124
5777,-0.1044,-0.1054,0.0498,-231.175,-275.660,-161.980,332,372,373,408,405,2025-05-27T22:36:45.609124
5778,-0.0464,-0.2694,0.3953,-246.330,-257.250,-183.260,388,374,342,416,395,2025-05-27T22:36:45.609124
5779,0.2367,-0.6871,0.4343,-275.205,-222.390,-210.105,420,409,357,416,311,2025-05-27T22:36:45.609124
5780,0.1762,-1.3644,0.3909,-282.765,-174.895,-219.030,432,425,371,408,373,2025-05-27T22:36:45.609124
5781,0.2323,-1.8559,0.6222,-271.285,-120.610,-235.585,420,429,366,411,387,2025-05-27T22:36:45.609124
5782,0.1225,-2.3453,0.9360,-262.500,-68.250,-262.045,398,304,381,389,399,2025-05-27T22:36:45.609124
5783,-0.2206,-2.8172,1.1702,-249.585,-23.940,-270.480,395,395,384,408,402,2025-05-27T22:36:45.609124
5784,-0.4050,-2.8358,1.3147,-219.695,3.395,-242.620,414,435,388,376,406,2025-05-27T22:36:45.801267
5785,-1.0546,-2.6342,1.3859,-158.585,9.800,-169.050,377,401,377,383,389,2025-05-27T22:36:45.801267
5786,-1.3156,-2.1267,1.5026,-83.895,-12.915,-46.830,398,403,374,345,398,2025-05-27T22:36:45.801267
5787,-1.1595,-1.8734,1.5309,-16.555,-75.425,74.130,368,432,386,377,416,2025-05-27T22:36:45.801267
5788,-0.8228,-1.8661,1.4230,54.145,-115.710,153.020,422,421,382,346,397,2025-05-27T22:36:45.801267
5789,-0.2913,-1.7461,1.3249,121.205,-97.790,199.710,396,418,385,373,389,2025-05-27T22:36:45.801267
5790,0.0312,-1.5108,1.3196,155.575,-53.130,216.545,395,423,373,382,387,2025-05-27T22:36:45.801267
5791,0.2591,-1.3859,1.1087,166.425,-11.935,222.740,421,433,337,380,384,2025-05-27T22:36:45.801267
5792,0.4114,-1.2000,0.9233,179.970,38.360,222.355,381,409,353,388,399,2025-05-27T22:36:45.801267
5793,0.4758,-0.9902,0.8145,194.915,93.345,217.700,413,424,326,405,405,2025-05-27T22:36:45.801267
5794,0.4909,-0.6842,0.7867,195.475,170.940,213.150,418,373,312,405,411,2025-05-27T22:36:45.801267
5795,0.3972,-0.2821,0.8003,187.145,237.475,212.170,399,406,351,400,398,2025-05-27T22:36:45.801267
5796,0.3050,-0.0630,0.7232,176.610,275.380,210.875,424,378,372,419,399,2025-05-27T22:36:45.801267
5797,0.2006,0.2484,0.6900,166.355,296.030,204.575,393,383,378,424,411,2025-05-27T22:36:45.801267
5798,0.0956,0.5075,0.6315,161.595,304.710,193.480,426,425,385,404,362,2025-05-27T22:36:45.801267
5799,-0.0215,0.6974,0.6564,155.400,290.850,172.550,426,355,378,405,380,2025-05-27T22:36:45.801267
5800,-0.0288,0.7954,0.5890,156.660,256.200,161.350,387,382,371,390,358,2025-05-27T22:36:45.801267
5801,-0.0220,0.8667,0.5261,159.180,230.440,152.005,344,411,383,344,391,2025-05-27T22:36:45.801267
5802,-0.0010,0.9740,0.4382,159.950,212.205,141.855,398,436,378,378,403,2025-05-27T22:36:45.801267
5803,0.0781,1.0580,0.3665,158.480,211.540,124.670,415,414,375,401,393,2025-05-27T22:36:46.019249
5804,0.1659,1.0951,0.2821,152.705,214.410,110.705,411,405,342,391,402,2025-05-27T22:36:46.019249
5805,0.1074,1.1692,0.2640,146.755,217.385,98.455,409,416,361,389,350,2025-05-27T22:36:46.019249
5806,0.0278,1.2166,0.2952,138.740,205.905,87.465,396,412,334,404,293,2025-05-27T22:36:46.021709
5807,-0.0917,1.2517,0.3406,133.735,171.395,78.995,401,422,364,413,362,2025-05-27T22:36:46.021709
5808,-0.1835,1.2415,0.3972,123.200,136.185,74.200,417,438,365,409,372,2025-05-27T22:36:46.021709
5809,-0.1918,1.2527,0.4265,114.625,86.800,66.570,406,423,377,412,343,2025-05-27T22:36:46.021709
5810,-0.1479,1.1878,0.3704,107.135,46.445,61.075,342,419,367,399,378,2025-05-27T22:36:46.021709
5811,-0.1074,1.1678,0.3475,101.850,18.725,54.250,361,416,339,393,383,2025-05-27T22:36:46.021709
5812,-0.0410,1.1439,0.3333,96.040,3.850,45.395,393,429,363,396,388,2025-05-27T22:36:46.021709
5813,-0.0063,1.1131,0.3026,91.140,0.420,36.820,420,439,367,392,347,2025-05-27T22:36:46.021709
5814,0.0146,1.1068,0.2884,87.150,5.145,29.785,423,427,364,346,381,2025-05-27T22:36:46.021709
5815,0.0122,1.1039,0.2884,82.670,11.200,24.045,417,421,334,397,393,2025-05-27T22:36:46.021709
5816,0.0044,1.0907,0.2743,77.735,20.055,20.440,340,418,372,373,384,2025-05-27T22:36:46.021709
5817,-0.0478,1.0975,0.2733,74.585,25.585,15.400,328,428,337,381,385,2025-05-27T22:36:46.021709
5818,-0.1059,1.0995,0.2694,71.960,23.100,11.935,412,431,366,402,392,2025-05-27T22:36:46.021709
5819,-0.1391,1.1195,0.2508,68.880,14.420,9.660,392,419,359,347,402,2025-05-27T22:36:46.021709
5820,-0.1498,1.1463,0.2264,64.225,7.315,7.280,415,418,339,387,414,2025-05-27T22:36:46.021709
5821,-0.1542,1.1668,0.2084,58.520,0.280,5.110,429,401,318,365,389,2025-05-27T22:36:46.021709
5822,-0.1503,1.1707,0.1810,51.765,-6.790,3.465,400,423,349,380,406,2025-05-27T22:36:46.021709
5823,-0.1640,1.1922,0.1742,44.905,-11.830,2.590,424,384,332,363,389,2025-05-27T22:36:46.021709
5824,-0.1674,1.2063,0.1659,37.870,-13.965,1.365,399,412,326,392,393,2025-05-27T22:36:46.198279
5825,-0.1786,1.1985,0.1596,28.805,-16.100,0.980,415,416,352,365,388,2025-05-27T22:36:46.198279
5826,-0.1947,1.1873,0.1601,20.755,-19.810,1.050,412,433,362,408,352,2025-05-27T22:36:46.199263
5827,-0.1854,1.1658,0.1776,12.950,-21.700,0.980,397,423,363,410,351,2025-05-27T22:36:46.199570
5828,-0.2006,1.0043,0.1791,7.700,-22.680,1.330,335,429,377,414,332,2025-05-27T22:36:46.199701
5829,-0.2011,1.0912,0.1972,5.250,-23.485,2.135,339,416,384,351,371,2025-05-27T22:36:46.199847
5830,-0.1850,1.0712,0.2064,4.060,-21.875,2.835,377,416,381,368,360,2025-05-27T22:36:46.199847
5831,-0.1986,1.0463,0.2196,3.640,-15.785,3.815,421,426,380,406,396,2025-05-27T22:36:46.200124
5832,-0.2030,1.0316,0.2367,2.870,-10.990,4.200,405,414,387,408,393,2025-05-27T22:36:46.200124
5833,-0.2186,1.0058,0.2401,1.435,-6.545,4.725,421,421,390,371,344,2025-05-27T22:36:46.200124
5834,-0.2425,0.9906,0.2460,0.525,-3.535,5.460,378,376,355,394,353,2025-05-27T22:36:46.200533
5835,-0.2591,0.9643,0.2406,1.155,-4.270,6.090,410,417,334,391,365,2025-05-27T22:36:46.200590
5836,-0.2655,0.9321,0.2289,1.960,-7.770,6.930,341,406,321,381,391,2025-05-27T22:36:46.200756
5837,-0.2786,0.9218,0.2289,2.730,-9.730,7.280,391,391,355,401,387,2025-05-27T22:36:46.200756
5838,-0.2782,0.9145,0.2191,2.765,-13.755,6.650,379,413,354,403,379,2025-05-27T22:36:46.200756
5839,-0.2538,0.9179,0.2103,1.435,-18.305,5.040,416,413,359,404,401,2025-05-27T22:36:46.200756
5840,-0.2162,0.9130,0.1932,-0.595,-19.145,3.290,402,416,347,409,409,2025-05-27T22:36:46.200756
5841,-0.1869,0.9067,0.1806,-1.715,-14.630,1.505,415,341,368,396,353,2025-05-27T22:36:46.201522
5842,-0.1728,0.9062,0.1747,-3.465,-9.800,-0.350,420,356,381,394,394,2025-05-27T22:36:46.201522
5843,-0.1942,0.8940,0.1796,-3.920,-5.355,-1.050,351,379,377,349,394,2025-05-27T22:36:46.283393
5844,-0.2201,0.8891,0.1908,-3.080,-5.495,-1.225,360,294,366,397,401,2025-05-27T22:36:46.283393
5845,-0.2308,0.8945,0.2030,-3.115,-7.980,-2.100,391,402,343,408,408,2025-05-27T22:36:46.283393
5846,-0.2274,0.8930,0.2089,-3.955,-9.590,-2.870,414,401,368,403,390,2025-05-27T22:36:46.299021
5847,-0.2201,0.8872,0.2108,-4.655,-9.450,-3.640,420,404,336,413,383,2025-05-27T22:36:46.299021
5848,-0.2201,0.8828,0.2142,-4.165,-9.135,-4.760,341,399,361,412,390,2025-05-27T22:36:46.299581
5849,-0.2245,0.8818,0.2255,-4.130,-8.365,-5.915,397,407,360,420,385,2025-05-27T22:36:46.299746
5850,-0.2240,0.8813,0.2289,-3.780,-7.140,-6.895,396,412,367,411,384,2025-05-27T22:36:46.300108
5851,-0.2367,0.8769,0.2338,-3.150,-5.390,-8.190,422,426,384,417,386,2025-05-27T22:36:46.590531
5852,-0.2523,0.8677,0.2430,-2.065,-3.640,-8.470,423,422,374,416,343,2025-05-27T22:36:46.590531
5853,-0.2865,0.8618,0.2635,-1.050,-4.550,-8.575,393,411,383,404,389,2025-05-27T22:36:46.590531
5854,-0.3040,0.8457,0.2674,0.735,-8.645,-8.400,388,373,366,375,385,2025-05-27T22:36:46.590531
5855,-0.3167,0.8408,0.2747,1.960,-12.530,-8.925,416,399,366,404,363,2025-05-27T22:36:46.590531
5856,-0.2987,0.8218,0.2713,2.485,-14.455,-8.610,417,406,378,413,389,2025-05-27T22:36:46.590531
5857,-0.2874,0.8062,0.2733,2.940,-15.050,-8.610,404,422,393,396,389,2025-05-27T22:36:46.590531
5858,-0.2630,0.7847,0.2694,3.220,-13.825,-9.275,336,424,317,391,399,2025-05-27T22:36:46.590531
5859,-0.2484,0.7701,0.2796,3.570,-11.445,-10.325,399,403,355,389,395,2025-05-27T22:36:46.590531
5860,-0.2601,0.7510,0.2869,4.410,-11.270,-11.480,388,428,362,409,391,2025-05-27T22:36:46.590531
5861,-0.2860,0.7349,0.2952,5.110,-15.925,-13.195,337,421,364,415,390,2025-05-27T22:36:46.590531
5862,-0.2933,0.7296,0.3079,5.390,-22.225,-15.015,345,401,363,397,390,2025-05-27T22:36:46.590531
5863,-0.2845,0.7242,0.3021,5.390,-31.220,-17.185,386,407,358,413,409,2025-05-27T22:36:46.590531
5864,-0.2474,0.7300,0.2908,5.215,-38.395,-20.860,415,394,374,422,411,2025-05-27T22:36:46.590531
5865,-0.1947,0.7501,0.2772,4.480,-40.985,-26.250,416,299,377,407,411,2025-05-27T22:36:46.590531
5866,-0.1357,0.7784,0.2645,3.605,-38.010,-32.795,397,389,372,375,403,2025-05-27T22:36:46.590531
5867,-0.0986,0.8340,0.2704,2.800,-31.710,-41.615,410,375,365,390,362,2025-05-27T22:36:46.591530
5868,-0.0844,0.8994,0.2894,0.805,-26.775,-51.240,398,359,372,384,398,2025-05-27T22:36:46.591530
5869,-0.0956,0.9941,0.3099,-0.315,-25.340,-58.275,423,330,341,399,401,2025-05-27T22:36:46.757085
5870,-0.1122,1.1190,0.3440,-1.680,-30.485,-67.865,425,407,353,406,395,2025-05-27T22:36:46.757085
5871,-0.1391,1.2956,0.3875,-4.200,-42.385,-77.315,424,300,362,366,348,2025-05-27T22:36:46.757085
5872,-0.1518,1.4757,0.4099,-7.350,-60.760,-87.500,421,380,364,361,395,2025-05-27T22:36:46.757085
5873,-0.1274,1.6480,0.4246,-13.125,-75.390,-96.845,393,390,379,411,414,2025-05-27T22:36:46.757085
5874,-0.1186,1.8407,0.4416,-21.560,-90.475,-102.200,300,399,391,405,351,2025-05-27T22:36:46.757085
5875,-0.1322,2.1091,0.4377,-33.145,-107.415,-104.195,389,425,398,358,392,2025-05-27T22:36:46.757085
5876,-0.1435,2.1960,0.4085,-50.050,-132.755,-101.745,392,366,401,376,350,2025-05-27T22:36:46.757085
5877,-0.0976,2.3278,0.3245,-66.815,-160.090,-94.500,417,395,392,403,392,2025-05-27T22:36:46.757085
5878,0.1210,2.4537,0.2030,-86.520,-172.725,-83.160,406,403,386,408,416,2025-05-27T22:36:46.757085
5879,0.3328,2.4917,0.0181,-103.355,-145.460,-70.105,424,429,391,390,416,2025-05-27T22:36:46.757085
5880,0.4519,2.4312,-0.1366,-123.655,-104.405,-63.910,432,419,382,363,390,2025-05-27T22:36:46.757085
5881,0.4690,2.3727,-0.2279,-140.175,-69.160,-55.720,431,417,386,378,359,2025-05-27T22:36:46.757085
5882,0.4236,2.2721,-0.3572,-152.145,-50.645,-46.830,307,408,374,341,372,2025-05-27T22:36:46.757085
5883,0.2059,2.1779,-0.3167,-164.080,-59.850,-44.170,359,340,304,371,340,2025-05-27T22:36:46.757085
5884,0.0195,1.9940,-0.3377,-172.690,-93.870,-47.040,367,403,349,339,371,2025-05-27T22:36:46.757085
5885,-0.2357,1.7295,-0.3684,-171.780,-166.460,-49.525,388,348,330,392,399,2025-05-27T22:36:46.757085
5886,-0.3367,1.5792,-0.3231,-176.260,-257.285,-66.185,413,407,361,407,404,2025-05-27T22:36:46.757085
5887,-0.0371,1.4650,-0.3299,-194.005,-320.390,-96.600,415,402,379,410,413,2025-05-27T22:36:46.757085
5888,0.1942,1.2068,-0.3841,-218.365,-329.490,-127.960,425,390,392,396,411,2025-05-27T22:36:46.916548
5889,0.2855,0.7374,-0.3860,-231.070,-300.895,-151.060,427,401,377,413,356,2025-05-27T22:36:46.916548
5890,0.1669,0.0688,-0.2386,-232.260,-259.805,-187.250,437,418,387,403,388,2025-05-27T22:36:46.916548
5891,0.2050,-0.7349,0.0132,-225.750,-227.465,-210.735,408,378,310,355,380,2025-05-27T22:36:46.916548
5892,-0.0356,-1.4591,0.4148,-226.205,-188.160,-238.525,408,354,356,380,348,2025-05-27T22:36:46.916548
5893,-0.1449,-2.4268,0.7510,-242.410,-152.250,-281.995,431,338,372,343,382,2025-05-27T22:36:46.916548
5894,-0.4138,-3.2057,1.0414,-255.255,-135.765,-309.750,426,373,368,358,397,2025-05-27T22:36:46.916548
5895,-0.3992,-3.6551,1.0668,-243.215,-151.900,-288.330,403,381,374,294,401,2025-05-27T22:36:46.916548
5896,-0.4997,-3.6893,1.1531,-214.830,-175.630,-240.065,342,341,378,358,405,2025-05-27T22:36:46.916548
5897,-0.0371,-3.1125,1.2342,-161.420,-143.640,-171.010,382,402,346,397,412,2025-05-27T22:36:46.916548
5898,0.1942,-2.6728,1.2141,-95.935,-86.310,-75.005,425,407,361,346,413,2025-05-27T22:36:46.916548
5899,0.2406,-2.2648,1.2366,-26.110,6.545,7.455,418,353,372,363,411,2025-05-27T22:36:47.218320
5900,-0.0005,-2.0057,1.3361,43.435,61.390,81.935,339,386,353,392,419,2025-05-27T22:36:47.218320
5901,-0.0893,-1.6841,1.3396,88.760,71.225,126.665,400,417,380,367,407,2025-05-27T22:36:47.218320
5902,-0.2611,-1.3898,1.3244,105.070,58.730,146.230,414,430,345,372,414,2025-05-27T22:36:47.218320
5903,-0.2830,-1.2659,1.2024,117.670,45.150,159.565,428,351,367,338,412,2025-05-27T22:36:47.218320
5904,-0.2094,-1.1444,1.0546,129.010,41.650,167.160,359,407,333,384,418,2025-05-27T22:36:47.218320
5905,-0.1571,-0.9565,1.0263,133.560,66.290,172.130,374,424,371,414,378,2025-05-27T22:36:47.218320
5906,-0.0893,-0.7305,1.0355,129.920,121.065,181.510,397,421,379,402,380,2025-05-27T22:36:47.218320
5907,-0.1122,-0.3899,1.0531,123.375,186.725,195.335,405,396,388,419,375,2025-05-27T22:36:47.218320
5908,-0.2645,-0.0991,0.9902,122.465,244.440,207.410,408,423,376,373,391,2025-05-27T22:36:47.218320
5909,-0.4778,0.1039,0.9496,134.050,280.455,211.715,411,406,344,403,405,2025-05-27T22:36:47.218320
5910,-0.6168,0.3074,0.9043,131.670,289.835,214.760,408,407,356,411,408,2025-05-27T22:36:47.218320
5911,-0.7740,0.4631,0.8994,138.985,273.665,208.845,406,427,361,392,417,2025-05-27T22:36:47.218320
5912,-0.7354,0.5314,0.8164,145.775,238.490,204.575,390,410,379,404,413,2025-05-27T22:36:47.232300
5913,-0.6168,0.6466,0.6978,153.300,190.015,198.730,408,378,341,415,399,2025-05-27T22:36:47.232363
5914,-0.4748,0.7471,0.6427,157.465,156.940,183.400,396,400,362,401,346,2025-05-27T22:36:47.232607
5915,-0.2650,0.8374,0.5675,154.735,139.930,171.675,360,423,376,308,362,2025-05-27T22:36:47.232809
5916,-0.1488,0.9199,0.5295,146.895,124.565,156.800,384,381,365,375,402,2025-05-27T22:36:47.233294
5917,-0.0761,0.9477,0.4836,139.720,113.050,142.065,399,406,378,408,367,2025-05-27T22:36:47.233422
5918,0.0044,0.9882,0.4285,131.425,108.080,128.590,424,374,388,361,333,2025-05-27T22:36:47.233422
5919,0.0264,1.0551,0.4485,123.585,104.475,115.115,400,398,350,346,372,2025-05-27T22:36:47.233802
5920,0.0020,1.0878,0.4690,114.450,95.515,106.085,400,366,332,397,382,2025-05-27T22:36:47.233802
5921,-0.0044,1.1292,0.4968,105.875,77.805,96.845,404,350,366,408,397,2025-05-27T22:36:47.233802
5922,-0.0444,1.1092,0.4704,98.420,56.770,87.920,412,412,346,377,397,2025-05-27T22:36:47.233802
5923,-0.0268,1.0990,0.4675,91.455,35.945,79.555,418,397,354,401,402,2025-05-27T22:36:47.326293
5924,0.0039,1.1322,0.4860,83.265,18.165,69.860,376,381,369,409,407,2025-05-27T22:36:47.326293
5925,0.0317,1.1107,0.4460,76.055,5.740,62.090,405,416,372,422,366,2025-05-27T22:36:47.326293
5926,0.0708,1.1200,0.3992,69.930,-0.595,56.945,344,426,377,404,394,2025-05-27T22:36:47.326293
5927,0.1059,1.1224,0.3631,66.010,-3.605,52.675,404,371,379,413,400,2025-05-27T22:36:47.326293
5928,0.1391,1.1229,0.3455,61.775,-0.805,47.180,417,412,372,423,397,2025-05-27T22:36:47.326293
5929,0.1327,1.1253,0.3533,56.385,6.160,41.055,423,425,337,403,383,2025-05-27T22:36:47.326293
5930,0.1088,1.1082,0.3406,53.025,11.095,35.875,399,392,353,420,404,2025-05-27T22:36:47.326293
5931,0.0464,1.0878,0.3343,49.280,11.900,31.535,415,334,332,372,351,2025-05-27T22:36:47.326293
5932,0.0234,1.0878,0.3284,45.500,9.625,28.595,418,404,319,386,383,2025-05-27T22:36:47.326293
5933,-0.0176,1.0917,0.3338,39.690,7.070,25.200,408,378,365,403,410,2025-05-27T22:36:47.326293
5934,-0.0483,1.0785,0.3318,33.285,4.165,23.135,426,405,371,421,401,2025-05-27T22:36:47.326293
5935,-0.0795,1.0619,0.3123,29.015,-0.315,21.385,409,401,369,387,389,2025-05-27T22:36:47.326293
5936,-0.1039,1.0438,0.3196,23.590,-2.135,18.550,401,420,381,393,395,2025-05-27T22:36:47.326293
5937,-0.1064,1.0326,0.3177,18.060,-1.365,16.835,387,401,370,415,394,2025-05-27T22:36:47.486146
5938,-0.1078,1.0063,0.3250,13.825,0.315,15.715,401,338,371,422,390,2025-05-27T22:36:47.486146
5939,-0.1127,0.9853,0.3206,11.410,2.520,13.895,342,331,377,395,400,2025-05-27T22:36:47.486146
5940,-0.1401,0.9760,0.3416,9.625,5.005,10.465,420,390,349,407,382,2025-05-27T22:36:47.486146
5941,-0.1557,0.9614,0.3460,8.575,3.710,8.575,405,399,353,401,393,2025-05-27T22:36:47.486146
5942,-0.1601,0.9599,0.3440,7.875,1.925,6.125,400,422,365,412,413,2025-05-27T22:36:47.486146
5943,-0.1620,0.9526,0.3323,7.455,0.595,4.585,387,430,369,413,408,2025-05-27T22:36:47.486146
5944,-0.1942,0.9438,0.3328,7.315,-2.975,2.135,397,429,376,379,351,2025-05-27T22:36:47.486146
5945,-0.1928,0.9389,0.3299,7.245,-8.435,0.105,415,403,382,380,378,2025-05-27T22:36:47.832822
5946,-0.1859,0.9174,0.3109,7.980,-11.340,-0.315,376,420,389,380,387,2025-05-27T22:36:47.832822
5947,-0.1898,0.9087,0.2977,9.765,-8.855,-1.085,388,402,394,409,391,2025-05-27T22:36:47.832822
5948,-0.1713,0.9223,0.3026,9.625,-3.780,-1.890,407,405,383,414,409,2025-05-27T22:36:47.832822
5949,-0.1986,0.9199,0.3001,7.840,4.655,-2.415,406,414,397,420,419,2025-05-27T22:36:47.832822
5950,-0.2381,0.9204,0.3035,6.405,11.025,-3.080,398,389,386,420,370,2025-05-27T22:36:47.832822
5951,-0.2621,0.9257,0.3074,4.935,12.880,-3.115,357,348,343,403,381,2025-05-27T22:36:47.832822
5952,-0.2874,0.9067,0.3016,4.410,13.090,-1.155,378,337,336,419,408,2025-05-27T22:36:47.832822
5953,-0.3138,0.8965,0.3035,6.545,11.340,1.540,396,418,363,401,411,2025-05-27T22:36:47.832822
5954,-0.3382,0.9043,0.3245,7.910,6.825,2.590,413,426,336,409,396,2025-05-27T22:36:47.832822
5955,-0.3455,0.9121,0.3318,6.860,1.575,2.835,351,403,347,388,410,2025-05-27T22:36:47.832822
5956,-0.3299,0.9194,0.3377,5.775,-2.240,3.150,336,421,371,384,352,2025-05-27T22:36:47.832822
5957,-0.3162,0.9096,0.3255,5.600,-4.865,3.990,347,409,379,404,335,2025-05-27T22:36:47.832822
5958,-0.3026,0.9106,0.3231,4.970,-7.175,4.165,390,425,375,401,384,2025-05-27T22:36:47.832822
5959,-0.2811,0.9111,0.3148,4.025,-5.635,3.850,298,372,380,417,346,2025-05-27T22:36:47.832822
5960,-0.2762,0.9028,0.3089,3.290,-2.310,4.060,383,391,373,412,390,2025-05-27T22:36:47.833830
5961,-0.2860,0.8950,0.3113,3.010,-0.630,3.885,395,399,373,400,387,2025-05-27T22:36:47.833830
5962,-0.2913,0.8843,0.3138,2.905,-0.735,3.780,389,416,385,385,403,2025-05-27T22:36:47.833830
5963,-0.2991,0.8852,0.3294,2.660,-1.225,3.185,418,352,358,404,403,2025-05-27T22:36:47.833830
5964,-0.3128,0.8725,0.3289,1.995,-3.745,2.065,406,347,375,410,398,2025-05-27T22:36:47.833830
5965,-0.3211,0.8686,0.3338,1.785,-8.750,1.190,420,379,372,361,398,2025-05-27T22:36:47.833830
5966,-0.3045,0.8667,0.3274,1.960,-11.935,0.385,419,410,368,386,394,2025-05-27T22:36:47.977511
5967,-0.2728,0.8662,0.3157,1.750,-12.110,-0.385,380,425,336,388,409,2025-05-27T22:36:47.977511
5968,-0.2577,0.8672,0.3079,1.435,-8.785,-1.260,333,420,335,381,383,2025-05-27T22:36:47.982176
5969,-0.2625,0.8682,0.3035,0.805,-4.550,-2.030,395,395,355,398,405,2025-05-27T22:36:47.982176
5970,-0.2860,0.8662,0.3099,-0.490,-2.485,-3.220,339,414,366,393,348,2025-05-27T22:36:47.982716
5971,-0.3065,0.8579,0.3123,-0.840,-4.200,-3.185,329,400,345,408,369,2025-05-27T22:36:47.982870
5972,-0.3372,0.8511,0.3177,-0.490,-7.455,-4.480,382,436,335,402,340,2025-05-27T22:36:47.982870
5973,-0.3362,0.8520,0.3255,-0.560,-12.740,-5.355,392,428,365,386,391,2025-05-27T22:36:47.983353
5974,-0.3245,0.8481,0.3221,-1.085,-17.430,-6.265,426,377,363,407,348,2025-05-27T22:36:47.983421
5975,-0.3167,0.8423,0.3240,-1.330,-20.895,-7.140,397,399,380,413,388,2025-05-27T22:36:47.983421
5976,-0.3123,0.8340,0.3226,-1.155,-23.485,-8.015,416,431,383,355,400,2025-05-27T22:36:47.983421
5977,-0.2913,0.8223,0.3133,-0.630,-25.095,-8.085,411,423,378,339,407,2025-05-27T22:36:47.983421
5978,-0.2679,0.8091,0.3060,1.540,-24.290,-7.700,421,400,372,356,405,2025-05-27T22:36:47.983421
5979,-0.2704,0.8042,0.3109,3.990,-20.860,-8.155,416,432,372,347,383,2025-05-27T22:36:47.983421
5980,-0.2733,0.8052,0.3201,5.215,-18.795,-8.925,401,406,350,378,391,2025-05-27T22:36:47.984172
5981,-0.2845,0.8115,0.3240,5.285,-19.355,-9.765,422,411,372,344,400,2025-05-27T22:36:47.984172
5982,-0.2874,0.8125,0.3231,5.530,-21.350,-10.465,425,419,379,400,357,2025-05-27T22:36:47.984172
5983,-0.2982,0.8150,0.3182,5.985,-26.390,-11.690,401,422,389,405,371,2025-05-27T22:36:47.984172
5984,-0.2996,0.8208,0.3167,5.740,-34.545,-13.965,412,415,385,406,405,2025-05-27T22:36:47.984172
5985,-0.2845,0.8355,0.3079,4.585,-45.710,-16.310,411,407,374,412,391,2025-05-27T22:36:47.984172
5986,-0.2547,0.8667,0.2996,3.080,-58.555,-18.585,339,394,372,410,411,2025-05-27T22:36:47.984172
5987,-0.2030,0.9326,0.2894,-0.700,-68.635,-21.350,402,346,373,386,394,2025-05-27T22:36:48.058602
5988,-0.1684,1.0180,0.2718,-6.510,-81.095,-25.515,350,414,371,383,410,2025-05-27T22:36:48.058602
5989,-0.1137,1.1317,0.2582,-14.175,-89.670,-31.045,402,429,364,391,416,2025-05-27T22:36:48.058602
5990,-0.0849,1.2732,0.2411,-22.190,-103.145,-35.945,300,435,376,344,397,2025-05-27T22:36:48.058602
5991,-0.0532,1.4308,0.2172,-30.415,-118.020,-39.340,379,430,335,394,404,2025-05-27T22:36:48.058602
5992,0.0229,1.5484,0.1684,-40.180,-129.150,-42.000,357,397,349,398,315,2025-05-27T22:36:48.058602
5993,0.1039,1.7109,0.1308,-52.500,-129.430,-42.595,379,414,378,396,373,2025-05-27T22:36:48.058602
5994,0.1820,1.8607,0.0961,-66.885,-117.145,-41.720,408,379,384,361,386,2025-05-27T22:36:48.058602
5995,0.2328,2.0213,0.0800,-79.415,-95.095,-37.415,357,406,383,395,401,2025-05-27T22:36:48.058602
5996,0.2162,2.1335,0.0937,-95.830,-80.360,-30.800,377,400,391,390,417,2025-05-27T22:36:48.058602
5997,0.1562,2.2170,0.1303,-112.420,-64.925,-22.960,398,427,386,405,392,2025-05-27T22:36:48.058602
5998,0.0010,2.2414,0.1527,-127.575,-66.745,-13.195,394,407,393,414,356,2025-05-27T22:36:48.465852
5999,-0.0888,2.2619,0.1674,-141.400,-89.425,-4.130,383,393,392,418,334,2025-05-27T22:36:48.465852
6000,-0.1049,2.2380,0.0805,-149.975,-124.075,10.710,357,419,395,391,383,2025-05-27T22:36:48.466145
6001,-0.1581,2.1955,-0.0234,-152.880,-158.795,28.070,383,404,385,398,409,2025-05-27T22:36:48.466145
6002,-0.1723,2.1160,-0.1098,-154.980,-193.620,43.190,392,393,380,397,411,2025-05-27T22:36:48.466145
6003,-0.1020,2.0242,-0.2108,-161.210,-217.000,54.705,399,420,371,409,353,2025-05-27T22:36:48.466145
6004,-0.0639,1.9105,-0.3216,-170.590,-219.800,61.600,410,409,375,386,377,2025-05-27T22:36:48.466854
6005,-0.0791,1.7412,-0.4124,-180.005,-210.525,62.650,388,415,339,386,397,2025-05-27T22:36:48.466854
6006,-0.2289,1.5767,-0.4641,-189.700,-203.070,57.680,411,431,353,402,409,2025-05-27T22:36:48.466854
6007,-0.3323,1.4020,-0.4860,-201.670,-206.360,47.705,414,420,358,355,399,2025-05-27T22:36:48.466854
6008,-0.3392,1.1053,-0.5368,-212.450,-216.965,38.150,398,431,375,371,381,2025-05-27T22:36:48.466854
6009,-0.3245,0.8130,-0.4743,-219.030,-220.010,23.835,398,353,373,393,399,2025-05-27T22:36:48.466854
6010,-0.2089,0.4904,-0.3323,-232.260,-217.665,0.910,409,329,379,395,403,2025-05-27T22:36:48.466854
6011,-0.0971,0.0937,-0.2108,-254.065,-214.235,-30.310,402,416,377,403,403,2025-05-27T22:36:48.466854
6012,0.1147,-0.4543,-0.1610,-273.875,-207.305,-60.305,403,424,373,408,352,2025-05-27T22:36:48.466854
6013,0.4890,-1.0712,-0.0405,-287.000,-183.365,-90.650,418,430,342,423,369,2025-05-27T22:36:48.499949
6014,0.5266,-2.0276,0.3255,-304.640,-151.550,-119.700,389,399,351,392,394,2025-05-27T22:36:48.499949
6015,0.7320,-2.9895,0.5578,-317.450,-119.525,-150.640,386,400,357,401,409,2025-05-27T22:36:48.499949
6016,0.7071,-3.4707,0.8428,-320.250,-94.640,-168.105,393,420,334,403,411,2025-05-27T22:36:48.499949
6017,0.7496,-3.5400,0.9687,-297.325,-81.760,-160.580,389,423,366,393,413,2025-05-27T22:36:48.499949
6018,0.9057,-3.4111,1.0570,-239.610,-75.250,-137.620,393,428,384,420,417,2025-05-27T22:36:48.499949
6019,0.9970,-3.0846,1.1907,-165.970,-58.590,-104.020,417,424,379,399,406,2025-05-27T22:36:48.499949
6020,1.0492,-2.6596,1.2254,-87.045,-29.435,-65.520,412,406,337,396,351,2025-05-27T22:36:48.503032
6021,1.0228,-2.3717,1.2424,-15.190,-0.140,-11.515,388,349,360,418,397,2025-05-27T22:36:48.503032
6022,0.8272,-2.0818,1.2703,43.155,14.910,27.265,420,391,332,405,406,2025-05-27T22:36:48.503032
6023,0.6681,-1.7646,1.3454,74.725,14.735,51.590,370,399,320,370,398,2025-05-27T22:36:48.503032
6024,0.4704,-1.5636,1.3615,99.645,-1.120,65.170,368,298,320,353,395,2025-05-27T22:36:48.503032
6025,0.4270,-1.3776,1.3532,118.440,-19.110,68.145,397,373,354,389,406,2025-05-27T22:36:48.503032
6026,0.4778,-1.1692,1.3171,135.765,-33.705,60.130,381,389,359,408,375,2025-05-27T22:36:48.503032
6027,0.5675,-0.9536,1.3186,145.075,-19.285,40.775,388,354,377,345,394,2025-05-27T22:36:48.503032
6028,0.7115,-0.7169,1.3049,151.655,25.340,28.385,408,407,382,378,354,2025-05-27T22:36:48.503032
6029,0.6559,-0.5954,1.3322,158.795,86.800,20.370,412,400,377,385,388,2025-05-27T22:36:48.503032
6030,0.4665,-0.5095,1.3493,167.685,151.130,20.160,403,388,342,408,351,2025-05-27T22:36:48.503032
6031,0.2635,-0.3806,1.2708,186.060,198.695,34.825,404,412,326,394,373,2025-05-27T22:36:48.503032
6032,0.1791,-0.1137,1.1312,205.030,233.870,57.015,423,400,319,346,394,2025-05-27T22:36:48.516028
6033,0.0468,0.0859,0.9843,218.365,292.460,83.160,404,397,353,394,312,2025-05-27T22:36:48.516028
6034,-0.0171,0.3182,0.7032,229.530,357.700,104.790,408,300,357,388,314,2025-05-27T22:36:48.516028
6035,-0.2250,0.4421,0.5187,240.485,410.935,124.320,402,404,342,398,319,2025-05-27T22:36:48.851878
6036,-0.4363,0.6671,0.4182,246.365,437.360,131.985,419,401,362,375,356,2025-05-27T22:36:48.851878
6037,-0.6305,0.9140,0.3963,247.135,432.425,142.170,425,389,361,408,393,2025-05-27T22:36:48.851878
6038,-0.7491,0.9511,0.3567,245.875,381.780,154.490,424,352,378,418,389,2025-05-27T22:36:48.851878
6039,-0.7910,1.0570,0.3235,246.575,303.345,154.000,428,396,309,408,365,2025-05-27T22:36:48.851878
6040,-0.6437,1.1444,0.3499,240.765,241.675,136.815,429,408,351,396,396,2025-05-27T22:36:48.851878
6041,-0.3504,1.2049,0.3670,224.245,183.050,130.130,423,343,369,399,408,2025-05-27T22:36:48.851878
6042,-0.0532,1.1424,0.2533,204.750,134.995,130.865,427,372,333,409,411,2025-05-27T22:36:48.851878
6043,0.1059,1.0843,0.0976,190.925,96.040,129.045,408,413,348,425,413,2025-05-27T22:36:48.851878
6044,0.3470,1.0677,0.0015,181.055,72.730,119.770,394,425,366,421,397,2025-05-27T22:36:48.851878
6045,0.4973,1.0965,-0.0317,170.240,67.445,106.750,390,401,361,409,386,2025-05-27T22:36:48.851878
6046,0.5661,1.1483,-0.0405,160.335,70.630,94.290,423,418,381,410,396,2025-05-27T22:36:48.851878
6047,0.5456,1.1634,-0.0102,146.650,71.995,83.055,350,404,307,389,403,2025-05-27T22:36:48.851878
6048,0.4958,1.1775,-0.0005,131.320,65.450,74.235,408,432,353,397,409,2025-05-27T22:36:48.851878
6049,0.3860,1.1434,0.0034,117.810,50.015,60.165,391,430,373,395,353,2025-05-27T22:36:49.135241
6050,0.3484,1.1575,0.0249,105.805,29.365,50.015,338,409,364,383,386,2025-05-27T22:36:49.135241
6051,0.3548,1.1522,0.0278,94.080,10.815,40.635,383,416,363,388,402,2025-05-27T22:36:49.135241
6052,0.3650,1.1512,0.0137,85.785,2.835,32.690,408,422,337,344,387,2025-05-27T22:36:49.135241
6053,0.4138,1.1556,0.0176,77.910,2.800,24.395,413,347,368,393,389,2025-05-27T22:36:49.135241
6054,0.4329,1.1473,0.0264,70.175,8.680,19.705,412,378,389,403,397,2025-05-27T22:36:49.135241
6055,0.4353,1.1536,0.0991,60.515,22.365,9.170,392,388,351,415,391,2025-05-27T22:36:49.135241
6056,0.4114,1.1502,0.1425,49.700,36.365,0.000,405,383,359,410,388,2025-05-27T22:36:49.135241
6057,0.3592,1.1483,0.1796,41.930,45.990,-6.790,421,409,360,407,387,2025-05-27T22:36:49.135241
6058,0.2220,1.1346,0.2162,35.945,48.965,-11.655,398,415,367,395,384,2025-05-27T22:36:49.135241
6059,0.0708,1.1278,0.2503,34.475,42.035,-15.365,364,420,379,418,403,2025-05-27T22:36:49.135241
6060,-0.0351,1.1429,0.3109,32.375,22.680,-18.060,388,419,343,391,409,2025-05-27T22:36:49.135241
6061,-0.1005,1.1448,0.3255,28.455,1.505,-19.215,402,423,359,343,404,2025-05-27T22:36:49.135241
6062,-0.1142,1.1395,0.3143,24.640,-14.525,-19.180,355,416,363,373,399,2025-05-27T22:36:49.135241
6063,-0.0639,1.1361,0.2884,21.420,-20.020,-17.500,377,390,374,399,413,2025-05-27T22:36:49.135241
6064,-0.0229,1.1141,0.2308,18.235,-11.655,-15.050,412,411,379,403,401,2025-05-27T22:36:49.135241
6065,-0.0405,1.1068,0.2220,14.665,0.980,-14.000,401,393,390,353,395,2025-05-27T22:36:49.135241
6066,-0.0673,1.1019,0.2255,10.430,14.035,-11.970,428,379,381,367,400,2025-05-27T22:36:49.135241
6067,-0.1196,1.0780,0.2235,7.385,21.035,-8.575,412,389,377,399,386,2025-05-27T22:36:49.135241
6068,-0.1884,1.0502,0.2386,5.810,22.435,-5.915,400,346,386,350,382,2025-05-27T22:36:49.135241
6069,-0.2416,1.0277,0.2596,5.215,15.085,-3.815,409,403,379,330,392,2025-05-27T22:36:49.135241
6070,-0.2577,1.0097,0.2733,4.130,3.815,-1.645,414,354,380,334,408,2025-05-27T22:36:49.135241
6071,-0.2401,0.9882,0.2572,3.290,-8.295,-0.105,423,412,309,376,414,2025-05-27T22:36:49.135241
6072,-0.1981,0.9745,0.2294,2.730,-13.685,1.085,426,389,338,392,409,2025-05-27T22:36:49.135241
6073,-0.1230,0.9682,0.2113,1.085,-11.760,2.380,390,342,367,408,368,2025-05-27T22:36:49.135241
6074,-0.0927,0.9487,0.1947,-0.035,-3.150,2.975,409,380,374,402,392,2025-05-27T22:36:49.135241
6075,-0.0825,0.9321,0.1762,0.315,7.385,3.150,399,415,372,406,403,2025-05-27T22:36:49.135241
6076,-0.1181,0.9316,0.1893,1.470,13.440,2.555,388,401,377,411,406,2025-05-27T22:36:49.135241
6077,-0.1342,0.9389,0.2001,1.365,17.010,2.275,421,335,373,418,403,2025-05-27T22:36:49.135241
6078,-0.1723,0.9311,0.1967,1.225,16.800,1.470,395,379,381,393,383,2025-05-27T22:36:49.135241
6079,-0.1981,0.9228,0.2069,1.680,12.145,0.490,390,345,385,388,399,2025-05-27T22:36:49.135241
6080,-0.2162,0.9287,0.2186,1.855,4.690,-0.805,386,389,394,389,345,2025-05-27T22:36:49.135241
6081,-0.2079,0.9296,0.2186,1.610,-1.330,-1.960,400,401,379,391,376,2025-05-27T22:36:49.135241
6082,-0.1937,0.9287,0.2098,1.785,-6.720,-3.080,404,422,392,351,389,2025-05-27T22:36:49.135241
6083,-0.1518,0.9399,0.2035,1.820,-7.245,-3.885,402,407,383,377,402,2025-05-27T22:36:49.135241
6084,-0.1376,0.9379,0.2064,1.085,-2.380,-5.180,401,403,386,356,392,2025-05-27T22:36:49.180897
6085,-0.1371,0.9399,0.2206,0.210,4.480,-6.055,382,399,384,397,392,2025-05-27T22:36:49.180897
6086,-0.1684,0.9355,0.2298,-0.070,8.750,-6.300,368,382,354,421,390,2025-05-27T22:36:49.180897
6087,-0.1967,0.9370,0.2508,0.525,11.130,-6.335,402,424,372,405,407,2025-05-27T22:36:49.181171
6088,-0.2347,0.9379,0.2586,1.575,9.485,-6.020,407,429,371,393,387,2025-05-27T22:36:49.181171
6089,-0.2684,0.9462,0.2733,2.345,3.990,-5.425,418,439,361,404,367,2025-05-27T22:36:49.181171
6090,-0.2533,0.9428,0.2577,2.695,-2.135,-4.655,421,405,362,396,386,2025-05-27T22:36:49.181171
6091,-0.2474,0.9428,0.2450,3.395,-5.110,-4.585,304,417,373,402,348,2025-05-27T22:36:49.501362
6092,-0.2133,0.9472,0.2367,2.870,-5.495,-4.515,376,425,383,406,392,2025-05-27T22:36:49.501362
6093,-0.1879,0.9448,0.2245,1.540,-3.535,-4.270,365,428,395,396,307,2025-05-27T22:36:49.501362
6094,-0.1869,0.9243,0.2157,1.505,-0.875,-3.815,409,415,388,394,360,2025-05-27T22:36:49.501362
6095,-0.1928,0.9179,0.2245,2.380,0.735,-3.815,359,341,342,372,390,2025-05-27T22:36:49.501362
6096,-0.2123,0.9028,0.2289,2.065,1.015,-4.760,395,408,355,402,410,2025-05-27T22:36:49.501362
6097,-0.2191,0.8911,0.2372,0.665,-1.645,-5.495,419,427,370,351,403,2025-05-27T22:36:49.501362
6098,-0.2098,0.8638,0.2381,0.315,-6.895,-6.160,418,419,366,391,413,2025-05-27T22:36:49.501362
6099,-0.1918,0.8228,0.2323,0.770,-12.460,-7.525,415,400,382,410,417,2025-05-27T22:36:49.501362
6100,-0.1723,0.7896,0.2318,1.575,-16.975,-9.415,410,412,338,407,407,2025-05-27T22:36:49.501362
6101,-0.1464,0.7544,0.2172,1.995,-21.735,-10.990,338,399,366,415,403,2025-05-27T22:36:49.501362
6102,-0.1005,0.7130,0.1810,2.380,-23.345,-13.370,384,380,368,399,385,2025-05-27T22:36:49.501362
6103,-0.0693,0.6715,0.1713,3.185,-21.770,-16.030,333,415,370,390,402,2025-05-27T22:36:49.501362
6104,-0.0283,0.6237,0.1649,2.380,-19.565,-19.040,359,339,373,396,395,2025-05-27T22:36:49.501362
6105,-0.0161,0.5876,0.1693,0.420,-18.445,-21.665,392,402,348,349,401,2025-05-27T22:36:49.501362
6106,-0.0171,0.5773,0.1854,-1.925,-20.755,-26.565,413,418,380,344,371,2025-05-27T22:36:49.501362
6107,-0.0005,0.6110,0.2186,-3.290,-26.530,-31.570,417,399,374,397,398,2025-05-27T22:36:49.501362
6108,0.0249,0.6432,0.1991,-4.655,-35.455,-37.975,411,396,383,386,399,2025-05-27T22:36:49.501362
6109,0.0527,0.7349,0.2011,-5.530,-44.205,-49.945,341,404,376,407,406,2025-05-27T22:36:49.501362
6110,0.1386,0.8979,0.2006,-6.545,-47.950,-64.260,413,399,379,399,401,2025-05-27T22:36:49.501362
6111,0.2211,1.1034,0.1693,-7.490,-41.685,-79.170,420,343,379,391,411,2025-05-27T22:36:49.667126
6112,0.2089,1.3493,0.2015,-10.360,-21.140,-95.865,415,409,373,403,397,2025-05-27T22:36:49.667126
6113,0.1781,1.6704,0.2918,-19.880,-11.690,-110.075,405,388,372,347,381,2025-05-27T22:36:49.667126
6114,0.1215,1.9632,0.3797,-36.890,-12.985,-118.405,424,390,377,399,379,2025-05-27T22:36:49.667126
6115,0.0498,2.2555,0.4768,-57.715,-27.020,-119.490,421,394,384,349,388,2025-05-27T22:36:49.667126
6116,-0.1069,2.5581,0.5285,-80.115,-63.455,-118.580,425,406,379,376,363,2025-05-27T22:36:49.667126
6117,-0.1981,2.7430,0.5158,-104.090,-120.120,-114.800,404,410,389,390,392,2025-05-27T22:36:49.667126
6118,-0.1747,2.9465,0.4558,-129.605,-183.715,-108.850,392,394,394,390,410,2025-05-27T22:36:49.667126
6119,0.0195,3.0305,0.2235,-151.445,-235.025,-92.680,416,367,390,414,410,2025-05-27T22:36:49.667126
6120,0.1606,2.9924,-0.0220,-162.960,-256.655,-74.725,406,347,390,356,353,2025-05-27T22:36:49.667126
6121,0.3040,2.7796,-0.2245,-173.320,-256.690,-53.620,421,413,392,397,378,2025-05-27T22:36:49.667126
6122,0.4168,2.4947,-0.4138,-177.520,-237.230,-32.900,382,409,395,403,374,2025-05-27T22:36:49.667126
6123,0.3333,2.2536,-0.4085,-182.875,-205.205,-26.600,395,412,399,388,406,2025-05-27T22:36:49.667126
6124,0.2235,2.0681,-0.3538,-198.870,-173.390,-30.170,419,431,392,415,408,2025-05-27T22:36:49.667126
6125,0.0181,1.8598,-0.3050,-220.955,-161.525,-43.540,413,403,390,404,418,2025-05-27T22:36:49.667126
6126,-0.2401,1.5128,-0.3099,-238.560,-187.530,-63.665,428,381,383,422,418,2025-05-27T22:36:49.667126
6127,-0.4236,1.2488,-0.3396,-244.860,-237.860,-81.025,349,371,369,417,407,2025-05-27T22:36:49.667126
6128,-0.3645,0.8413,-0.5168,-238.910,-298.305,-86.415,400,414,353,416,369,2025-05-27T22:36:49.667126
6129,-0.2786,0.5197,-0.4075,-227.640,-320.145,-108.780,397,402,376,396,393,2025-05-27T22:36:49.667126
6130,-0.0015,0.2694,-0.1762,-230.860,-313.215,-131.215,418,423,372,376,403,2025-05-27T22:36:49.667126
6131,0.2191,-0.0747,-0.0185,-254.030,-276.920,-163.100,418,434,344,393,410,2025-05-27T22:36:49.783581
6132,0.3972,-0.9116,0.0254,-274.085,-227.080,-200.585,417,425,350,349,401,2025-05-27T22:36:49.783581
6133,0.5178,-2.0325,0.2762,-286.930,-168.420,-248.185,399,348,366,396,394,2025-05-27T22:36:49.783581
6134,0.4826,-3.1837,0.5651,-286.755,-111.335,-284.270,423,396,368,361,404,2025-05-27T22:36:49.783581
6135,0.4363,-3.9972,0.8032,-271.495,-72.555,-293.720,434,403,368,401,408,2025-05-27T22:36:49.783581
6136,0.3157,-4.0480,0.9862,-245.875,-33.740,-292.005,374,409,377,406,416,2025-05-27T22:36:49.783581
6137,0.4153,-3.4672,0.7842,-194.670,31.535,-246.645,420,425,382,364,415,2025-05-27T22:36:49.783581
6138,0.3216,-2.7113,0.7325,-134.015,79.975,-146.510,426,400,389,402,398,2025-05-27T22:36:49.783581
6139,0.0708,-2.1223,0.8843,-76.860,114.310,-21.700,412,355,395,384,401,2025-05-27T22:36:49.783581
6140,-0.0971,-1.9296,1.0072,-20.405,109.130,50.890,414,412,360,386,410,2025-05-27T22:36:50.018658
6141,-0.1957,-1.7875,1.0917,38.045,83.615,117.285,402,399,363,407,413,2025-05-27T22:36:50.018658
6142,-0.1728,-1.7007,1.1190,87.640,56.595,155.575,407,393,370,361,403,2025-05-27T22:36:50.018658
6143,-0.0190,-1.4372,1.1429,106.190,37.800,173.145,401,401,381,378,365,2025-05-27T22:36:50.018658
6144,0.2045,-1.1790,1.1156,105.105,51.800,185.255,396,346,377,381,377,2025-05-27T22:36:50.018658
6145,0.3250,-1.1239,1.0233,100.030,102.935,192.010,388,361,368,375,391,2025-05-27T22:36:50.018658
6146,0.2523,-1.0097,1.0526,98.210,160.790,197.575,402,399,386,392,407,2025-05-27T22:36:50.018658
6147,0.1288,-0.8115,1.1229,95.690,235.410,214.480,386,409,377,412,395,2025-05-27T22:36:50.018658
6148,-0.1620,-0.6159,1.1878,90.475,299.495,215.285,397,418,391,400,392,2025-05-27T22:36:50.019698
6149,-0.4934,-0.5109,1.1956,90.055,343.700,218.645,395,411,392,367,387,2025-05-27T22:36:50.019698
6150,-0.9233,-0.3626,1.3732,96.320,353.675,211.855,401,409,394,393,396,2025-05-27T22:36:50.019698
6151,-1.1190,-0.1645,1.2590,105.490,334.180,208.705,419,413,378,415,402,2025-05-27T22:36:50.019698
6152,-1.0882,0.1127,1.1805,114.100,291.515,212.135,398,405,369,405,402,2025-05-27T22:36:50.019698
6153,-1.0414,0.2830,1.0180,125.440,264.460,214.165,426,428,386,417,413,2025-05-27T22:36:50.019698
6154,-0.9462,0.3909,0.8501,138.145,248.990,212.590,411,420,391,395,397,2025-05-27T22:36:50.019698
6155,-0.7852,0.5470,0.8072,144.445,233.905,210.735,411,404,386,411,402,2025-05-27T22:36:50.019698
6156,-0.6915,0.6549,0.7413,151.375,209.265,204.015,419,395,377,404,392,2025-05-27T22:36:50.019698
6157,-0.6852,0.7227,0.6964,158.375,176.050,190.225,374,425,386,406,411,2025-05-27T22:36:50.019698
6158,-0.5880,0.8179,0.5876,168.140,126.700,175.175,332,386,393,387,388,2025-05-27T22:36:50.316285
6159,-0.4124,0.9570,0.4890,173.250,73.745,162.820,402,405,382,408,348,2025-05-27T22:36:50.316285
6160,-0.1850,1.0233,0.2425,177.520,36.330,145.460,370,428,385,398,336,2025-05-27T22:36:50.316285
6161,0.0132,1.2063,0.1835,170.205,23.065,125.510,403,418,388,411,366,2025-05-27T22:36:50.316285
6162,0.1127,1.2800,0.1069,152.180,17.465,115.465,406,352,351,403,335,2025-05-27T22:36:50.316285
6163,0.2167,1.3474,0.0156,129.290,14.840,99.925,398,344,364,357,340,2025-05-27T22:36:50.316285
6164,0.2577,1.4015,-0.0678,106.995,12.285,87.710,363,380,384,384,338,2025-05-27T22:36:50.316285
6165,0.2054,1.4264,-0.0903,92.400,3.850,77.350,425,390,387,404,378,2025-05-27T22:36:50.316285
6166,0.1493,1.4142,-0.0532,81.550,-13.090,67.690,399,393,392,374,349,2025-05-27T22:36:50.316285
6167,0.1757,1.4206,0.0210,69.930,-31.570,61.355,422,413,393,340,395,2025-05-27T22:36:50.316285
6168,0.1850,1.3801,0.0361,56.665,-48.545,56.035,343,406,316,345,389,2025-05-27T22:36:50.316285
6169,0.2186,1.3440,0.0381,47.005,-53.795,52.115,382,403,310,348,370,2025-05-27T22:36:50.316285
6170,0.2460,1.3064,0.0293,41.510,-51.415,49.210,295,424,349,398,391,2025-05-27T22:36:50.316285
6171,0.2606,1.2790,0.0322,38.605,-42.945,48.160,309,433,372,420,350,2025-05-27T22:36:50.316285
6172,0.2567,1.2742,0.0893,34.895,-29.540,47.810,379,427,376,369,381,2025-05-27T22:36:50.316285
6173,0.2201,1.2302,0.1283,28.910,-16.450,46.200,407,414,384,408,349,2025-05-27T22:36:50.316285
6174,0.1732,1.2049,0.1918,22.120,-1.645,44.275,393,407,382,403,381,2025-05-27T22:36:50.475219
6175,0.0503,1.1551,0.2347,16.240,4.270,42.630,384,407,384,417,375,2025-05-27T22:36:50.475219
6176,-0.0376,1.1136,0.2801,12.075,0.140,40.810,387,419,377,392,384,2025-05-27T22:36:50.475219
6177,-0.0952,1.0780,0.2972,9.240,-10.220,39.410,423,404,392,349,390,2025-05-27T22:36:50.475219
6178,-0.1161,1.0487,0.3065,7.560,-18.235,38.885,366,428,387,397,349,2025-05-27T22:36:50.475219
6179,-0.1015,1.0116,0.3021,7.490,-20.860,38.115,407,435,387,399,391,2025-05-27T22:36:50.475219
6180,-0.0732,0.9819,0.3089,7.490,-16.940,35.735,391,416,398,402,408,2025-05-27T22:36:50.475219
6181,-0.0371,0.9638,0.3030,6.615,-5.880,34.265,349,340,397,406,397,2025-05-27T22:36:50.475219
6182,-0.0322,0.9599,0.3094,5.985,7.840,32.690,402,412,380,387,408,2025-05-27T22:36:50.475219
6183,-0.0473,0.9516,0.3304,4.725,18.060,30.205,406,374,371,404,410,2025-05-27T22:36:50.475219
6184,-0.1005,0.9331,0.3333,4.410,22.435,28.560,414,396,382,355,396,2025-05-27T22:36:50.475219
6185,-0.1640,0.9248,0.3367,6.055,21.035,26.845,400,294,385,379,397,2025-05-27T22:36:50.475219
6186,-0.1884,0.9252,0.3460,7.665,13.055,25.235,406,381,391,385,405,2025-05-27T22:36:50.475219
6187,-0.2157,0.9228,0.3333,8.190,4.690,22.330,421,419,395,406,416,2025-05-27T22:36:50.475219
6188,-0.1976,0.9243,0.3206,7.420,0.000,18.865,408,387,379,348,410,2025-05-27T22:36:50.475219
6189,-0.1606,0.9150,0.3026,6.720,-0.385,15.680,404,400,385,371,400,2025-05-27T22:36:50.475219
6190,-0.1405,0.9048,0.2913,5.670,3.115,12.180,433,396,344,376,406,2025-05-27T22:36:50.475219
6191,-0.1386,0.9077,0.2952,4.795,10.885,10.115,377,423,368,363,345,2025-05-27T22:36:50.475219
6192,-0.1718,0.9062,0.3045,3.990,17.465,7.595,390,441,365,395,388,2025-05-27T22:36:50.480891
6193,-0.2289,0.9082,0.3089,3.185,18.445,6.125,368,420,379,404,361,2025-05-27T22:36:50.480891
6194,-0.2635,0.9160,0.3128,2.870,14.070,4.375,379,431,374,357,382,2025-05-27T22:36:50.481329
6195,-0.2747,0.9116,0.3138,2.870,0.525,3.395,425,414,388,402,349,2025-05-27T22:36:50.737974
6196,-0.2679,0.9238,0.3216,2.240,5.005,2.555,432,430,376,372,342,2025-05-27T22:36:50.737974
6197,-0.2674,0.9209,0.3250,0.805,2.975,0.630,415,415,383,336,322,2025-05-27T22:36:50.737974
6198,-0.2684,0.9160,0.3260,-0.315,2.555,-1.295,414,426,390,388,378,2025-05-27T22:36:50.737974
6199,-0.2723,0.9082,0.3167,0.210,1.925,-1.680,429,415,377,396,339,2025-05-27T22:36:51.018646
6200,-0.2767,0.9121,0.3074,0.175,2.625,-2.275,422,430,337,338,380,2025-05-27T22:36:51.018646
6201,-0.2938,0.9111,0.3152,-0.945,4.410,-3.920,381,396,368,358,383,2025-05-27T22:36:51.018646
6202,-0.2889,0.9150,0.3274,-2.065,4.725,-3.500,403,400,382,336,346,2025-05-27T22:36:51.018646
6203,-0.3104,0.9179,0.3231,-1.960,2.380,-1.505,413,420,391,385,387,2025-05-27T22:36:51.018646
6204,-0.3318,0.9135,0.3265,-2.065,-1.155,-1.890,398,406,357,385,391,2025-05-27T22:36:51.018646
6205,-0.3255,0.9184,0.3338,-1.855,-7.245,-2.030,402,355,357,410,393,2025-05-27T22:36:51.018646
6206,-0.3040,0.9213,0.3387,-1.680,-12.320,-1.505,424,370,371,411,381,2025-05-27T22:36:51.018646
6207,-0.2743,0.9174,0.3177,-1.890,-13.860,-1.400,390,399,378,358,405,2025-05-27T22:36:51.018646
6208,-0.2528,0.9135,0.3133,-1.435,-11.270,-2.135,382,386,390,400,412,2025-05-27T22:36:51.018646
6209,-0.2420,0.9121,0.3196,-1.225,-8.715,-2.730,396,393,376,393,410,2025-05-27T22:36:51.018646
6210,-0.2440,0.9067,0.3226,-1.225,-6.650,-3.045,396,377,385,406,423,2025-05-27T22:36:51.018646
6211,-0.2552,0.9057,0.3260,-1.155,-6.055,-3.220,404,417,347,407,417,2025-05-27T22:36:51.018646
6212,-0.2489,0.8886,0.3118,0.000,-8.365,-3.220,399,417,325,413,356,2025-05-27T22:36:51.018646
6213,-0.2577,0.8852,0.3235,1.365,-12.040,-3.675,416,369,352,353,379,2025-05-27T22:36:51.018646
6214,-0.2547,0.8711,0.3211,1.645,-16.135,-4.935,429,405,371,403,404,2025-05-27T22:36:51.018646
6215,-0.2328,0.8618,0.3104,1.400,-19.950,-5.950,422,425,388,415,390,2025-05-27T22:36:51.018646
6216,-0.2196,0.8306,0.2830,1.610,-21.980,-6.895,363,416,392,410,347,2025-05-27T22:36:51.018646
6217,-0.1928,0.8276,0.2723,1.610,-19.950,-8.085,394,404,389,421,371,2025-05-27T22:36:51.018646
6218,-0.1791,0.8106,0.2591,0.735,-15.645,-9.450,407,401,375,428,384,2025-05-27T22:36:51.018646
6219,-0.1840,0.7896,0.2533,0.385,-11.550,-10.955,420,423,382,362,391,2025-05-27T22:36:51.018646
6220,-0.2001,0.7701,0.2533,0.385,-9.310,-12.670,343,415,368,358,407,2025-05-27T22:36:51.018646
6221,-0.2059,0.7422,0.2523,0.350,-10.045,-13.230,382,434,304,357,394,2025-05-27T22:36:51.018646
6222,-0.2118,0.7096,0.2611,-0.455,-12.775,-13.370,387,393,341,400,405,2025-05-27T22:36:51.018646
6223,-0.2196,0.6852,0.2655,-1.295,-17.465,-13.545,406,426,369,408,412,2025-05-27T22:36:51.018646
6224,-0.2167,0.6471,0.2611,-0.980,-25.025,-13.020,371,430,347,391,403,2025-05-27T22:36:51.018646
6225,-0.2264,0.6378,0.2757,-0.560,-34.160,-12.880,405,421,365,407,405,2025-05-27T22:36:51.018646
6226,-0.2542,0.6505,0.2943,-1.260,-45.395,-13.755,407,410,375,390,414,2025-05-27T22:36:51.018646
6227,-0.2313,0.7066,0.2962,-3.500,-55.825,-15.015,401,405,385,388,402,2025-05-27T22:36:51.056114
6228,-0.2176,0.7793,0.2816,-6.370,-67.585,-26.425,418,422,385,405,388,2025-05-27T22:36:51.057117
6229,-0.1732,0.8530,0.2577,-9.135,-76.020,-23.765,346,355,391,414,402,2025-05-27T22:36:51.057117
6230,-0.1103,1.0004,0.2538,-14.455,-82.985,-32.130,331,392,397,416,388,2025-05-27T22:36:51.057117
6231,-0.0478,1.1878,0.2747,-24.605,-88.585,-40.705,329,416,393,412,346,2025-05-27T22:36:51.057117
6232,-0.0029,1.4494,0.2894,-36.330,-95.200,-46.725,382,421,384,349,378,2025-05-27T22:36:51.057117
6233,0.0151,1.7095,0.3880,-52.150,-105.035,-51.415,390,406,346,289,372,2025-05-27T22:36:51.057117
6234,0.0605,1.9949,0.4348,-69.265,-123.200,-54.880,416,380,330,377,393,2025-05-27T22:36:51.057117
6235,0.1713,2.2233,0.4690,-83.510,-142.695,-58.205,395,413,351,339,398,2025-05-27T22:36:51.057117
6236,0.2991,2.4903,0.4802,-95.165,-147.840,-53.340,406,402,372,389,386,2025-05-27T22:36:51.057117
6237,0.3958,2.6855,0.5012,-106.365,-137.410,-45.395,399,393,382,411,348,2025-05-27T22:36:51.057117
6238,0.4221,2.7909,0.5251,-124.215,-129.045,-33.075,364,372,337,403,373,2025-05-27T22:36:51.057117
6239,0.4021,2.8202,0.4812,-126.315,-125.475,-17.710,400,392,374,402,356,2025-05-27T22:36:51.057117
6240,0.4148,2.7289,0.4080,-135.695,-126.175,-2.100,408,401,373,393,383,2025-05-27T22:36:51.057117
6241,0.3894,2.5913,0.2806,-143.185,-125.545,6.860,339,386,337,341,376,2025-05-27T22:36:51.057117
6242,0.3841,2.4185,0.1288,-148.925,-119.805,12.180,383,395,359,332,394,2025-05-27T22:36:51.057117
6243,0.3782,2.1736,-0.0390,-150.885,-112.665,15.960,392,428,379,374,410,2025-05-27T22:36:51.057117
6244,0.2894,1.8876,-0.1762,-149.275,-109.760,17.675,424,365,375,388,419,2025-05-27T22:36:51.057117
6245,0.1401,1.6158,-0.2416,-146.895,-117.810,7.875,403,411,384,369,395,2025-05-27T22:36:51.057117
6246,0.0405,1.3801,-0.3387,-145.180,-136.465,-6.580,417,419,374,382,408,2025-05-27T22:36:51.216216
6247,0.0298,1.1824,-0.4382,-147.875,-164.885,-27.370,379,390,384,349,409,2025-05-27T22:36:51.216216
6248,0.1274,1.0150,-0.5441,-159.005,-173.705,-59.150,407,413,382,352,413,2025-05-27T22:36:51.216216
6249,0.1532,0.8125,-0.6115,-178.640,-158.725,-92.190,417,417,383,394,380,2025-05-27T22:36:51.216216
6250,0.2137,0.5202,-0.6686,-202.055,-139.615,-117.040,344,405,386,407,384,2025-05-27T22:36:51.216216
6251,0.2006,0.2708,-0.7052,-222.180,-129.325,-137.130,358,419,390,311,338,2025-05-27T22:36:51.216216
6252,0.1469,-0.0844,-0.5441,-235.060,-117.390,-158.515,372,412,355,362,386,2025-05-27T22:36:51.216216
6253,0.1562,-0.4704,-0.3684,-245.630,-100.555,-184.730,337,424,328,380,400,2025-05-27T22:36:51.216216
6254,0.1113,-0.9570,-0.1259,-255.115,-81.830,-215.320,412,387,353,344,390,2025-05-27T22:36:51.216216
6255,0.0766,-1.7060,-0.0029,-263.795,-64.120,-247.170,366,408,343,377,401,2025-05-27T22:36:51.216216
6256,0.0893,-2.5522,0.2401,-273.910,-47.390,-281.855,421,406,354,405,354,2025-05-27T22:36:51.216216
6257,-0.0468,-3.3677,0.6056,-282.275,-20.720,-309.820,381,422,379,408,398,2025-05-27T22:36:51.216216
6258,-0.3777,-3.6976,1.0272,-293.195,-23.695,-323.225,418,435,386,401,384,2025-05-27T22:36:51.216216
6259,-0.6515,-3.4477,1.2039,-271.775,-85.960,-296.170,411,414,348,349,386,2025-05-27T22:36:51.216216
6260,-0.7847,-2.8245,1.2434,-219.730,-191.345,-236.915,346,355,364,343,381,2025-05-27T22:36:51.300270
6261,-0.4724,-2.1165,1.2307,-157.815,-271.600,-137.305,374,414,371,386,362,2025-05-27T22:36:51.300270
6262,0.2952,-1.8363,0.9960,-101.605,-258.930,-22.120,408,376,383,406,396,2025-05-27T22:36:51.300270
6263,1.0497,-1.8544,0.7701,-18.725,-153.930,95.025,421,399,386,403,400,2025-05-27T22:36:51.300270
6264,1.1366,-1.7841,0.9223,70.560,-28.630,176.680,379,412,387,412,404,2025-05-27T22:36:51.300270
6265,0.8818,-1.7612,1.1375,104.090,110.740,217.735,406,413,345,397,398,2025-05-27T22:36:51.300270
6266,0.5153,-1.7436,1.1488,107.345,160.790,240.030,405,397,352,307,386,2025-05-27T22:36:51.315516
6267,0.2089,-1.7100,1.1131,112.770,160.265,250.215,420,381,372,322,413,2025-05-27T22:36:51.315732
6268,0.0093,-1.6045,1.1019,125.020,154.560,253.435,399,388,338,382,420,2025-05-27T22:36:51.561489
6269,-0.1669,-1.3884,1.1751,129.010,150.745,244.195,429,406,358,406,401,2025-05-27T22:36:51.561489
6270,-0.2635,-1.0033,1.3117,123.970,127.155,227.325,422,418,328,345,390,2025-05-27T22:36:51.561489
6271,-0.2752,-0.6866,1.3288,114.835,93.205,210.805,398,388,316,360,365,2025-05-27T22:36:51.561489
6272,-0.1908,-0.4451,1.2581,109.865,80.220,192.605,387,376,347,393,338,2025-05-27T22:36:51.561489
6273,-0.0449,-0.1947,1.3005,112.455,81.375,176.680,406,406,356,413,364,2025-05-27T22:36:51.561489
6274,0.0693,-0.0444,1.2854,124.495,94.745,153.405,419,418,372,372,379,2025-05-27T22:36:51.561489
6275,0.1864,0.1503,1.2317,140.350,107.380,129.570,397,402,380,392,411,2025-05-27T22:36:51.561489
6276,0.1903,0.3914,1.1951,158.865,124.075,109.025,416,348,342,388,356,2025-05-27T22:36:51.561489
6277,0.1562,0.5431,1.1727,168.000,133.385,94.465,409,417,364,405,378,2025-05-27T22:36:51.561489
6278,0.0698,0.6861,1.1951,175.700,132.895,80.745,415,428,348,390,394,2025-05-27T22:36:51.561489
6279,0.0020,0.6808,1.1512,182.875,124.425,65.450,418,406,337,404,390,2025-05-27T22:36:51.561489
6280,-0.0210,0.7276,1.0516,193.165,115.080,52.535,403,418,333,402,392,2025-05-27T22:36:51.562488
6281,-0.0420,0.7525,0.9355,204.155,110.530,37.520,416,401,354,408,344,2025-05-27T22:36:51.562488
6282,-0.1137,0.8115,0.8530,214.515,110.530,26.635,347,389,362,418,381,2025-05-27T22:36:51.562488
6283,-0.0849,0.8911,0.7383,219.870,109.095,24.745,325,412,362,415,339,2025-05-27T22:36:51.562488
6284,-0.0966,0.9282,0.6271,226.275,113.750,27.440,393,423,375,413,381,2025-05-27T22:36:51.562488
6285,-0.1386,1.0614,0.5212,227.745,129.150,28.210,414,413,367,400,389,2025-05-27T22:36:51.562488
6286,-0.1581,1.1322,0.3875,222.320,144.445,31.430,424,381,368,410,406,2025-05-27T22:36:51.562488
6287,-0.2313,1.1400,0.2577,214.970,146.825,38.920,426,400,379,398,402,2025-05-27T22:36:51.733890
6288,-0.2977,1.1483,0.1449,206.640,137.445,49.910,354,414,389,343,343,2025-05-27T22:36:51.733890
6289,-0.3626,1.1692,0.1059,195.405,118.545,58.205,407,399,387,368,389,2025-05-27T22:36:51.733890
6290,-0.4114,1.1976,0.1113,180.355,91.980,63.315,396,418,348,385,395,2025-05-27T22:36:51.733890
6291,-0.3567,1.2429,0.0678,166.565,57.890,67.550,407,413,367,390,384,2025-05-27T22:36:51.733890
6292,-0.2562,1.2390,0.0293,148.050,31.045,70.035,386,429,381,410,397,2025-05-27T22:36:51.733890
6293,-0.1596,1.2083,-0.0210,130.935,6.510,70.525,400,416,382,407,385,2025-05-27T22:36:51.733890
6294,-0.0268,1.1912,-0.0332,116.060,-7.140,69.405,424,423,387,390,412,2025-05-27T22:36:51.733890
6295,0.0703,1.1736,-0.0176,101.430,-10.780,65.870,404,368,349,341,400,2025-05-27T22:36:51.733890
6296,0.1093,1.1346,0.0137,87.430,-9.240,59.290,357,381,366,332,396,2025-05-27T22:36:51.733890
6297,0.1674,1.1224,0.0312,78.995,-7.420,52.675,391,401,372,368,401,2025-05-27T22:36:51.733890
6298,0.1410,1.1048,0.0752,69.475,-5.425,43.785,409,420,388,397,415,2025-05-27T22:36:51.733890
6299,0.1654,1.0843,0.1059,60.620,-1.890,37.660,403,423,378,412,362,2025-05-27T22:36:51.733890
6300,0.1440,1.0682,0.1405,53.620,2.065,31.430,381,418,372,414,388,2025-05-27T22:36:51.733890
6301,0.1137,1.0638,0.1625,47.110,5.390,22.855,371,416,338,395,390,2025-05-27T22:36:51.733890
6302,0.0966,1.0673,0.1820,42.175,6.510,16.940,407,409,357,404,350,2025-05-27T22:36:51.733890
6303,0.0512,1.0619,0.2006,36.470,7.385,13.405,426,381,363,387,330,2025-05-27T22:36:51.866935
6304,-0.1230,1.0668,0.2308,30.520,7.665,9.800,400,419,363,407,359,2025-05-27T22:36:51.866935
6305,-0.0200,1.0707,0.2377,25.025,5.110,8.295,415,434,379,416,380,2025-05-27T22:36:51.866935
6306,-0.0527,1.0692,0.2381,21.490,2.975,6.930,433,427,382,417,403,2025-05-27T22:36:51.866935
6307,-0.0517,1.0741,0.2284,19.180,3.325,5.880,423,417,379,418,403,2025-05-27T22:36:51.881946
6308,-0.0712,1.0770,0.2352,16.485,5.425,3.780,433,422,381,415,390,2025-05-27T22:36:51.881946
6309,-0.0654,1.0682,0.2386,12.740,7.805,3.290,352,346,345,418,363,2025-05-27T22:36:51.882471
6310,-0.1157,1.0507,0.2464,10.640,9.765,2.905,402,397,377,397,389,2025-05-27T22:36:51.882471
6311,-0.1571,1.0438,0.2645,9.380,7.735,3.535,393,422,343,399,389,2025-05-27T22:36:51.882651
6312,-0.2064,1.0224,0.2704,8.785,2.765,4.445,422,409,352,409,393,2025-05-27T22:36:51.882807
6313,-0.2274,1.0185,0.2767,8.575,-2.975,5.285,424,388,327,419,386,2025-05-27T22:36:51.882807
6314,-0.2416,1.0063,0.2786,7.980,-6.580,4.830,428,423,351,407,384,2025-05-27T22:36:51.882944
6315,-0.2240,0.9926,0.2601,7.385,-9.170,5.110,370,405,370,425,389,2025-05-27T22:36:52.033116
6316,-0.2084,0.9916,0.2479,6.405,-8.085,6.125,387,398,377,408,410,2025-05-27T22:36:52.033116
6317,-0.1884,0.9804,0.2342,4.130,-2.870,6.055,396,425,339,415,414,2025-05-27T22:36:52.033116
6318,-0.1835,0.9662,0.2206,2.835,2.975,6.685,391,405,366,418,415,2025-05-27T22:36:52.033116
6319,-0.1913,0.9462,0.2181,2.555,6.790,6.860,337,401,384,416,364,2025-05-27T22:36:52.033116
6320,-0.2025,0.9433,0.2406,1.575,9.205,6.475,379,344,374,410,344,2025-05-27T22:36:52.033116
6321,-0.2220,0.9301,0.2469,-0.175,7.805,5.845,412,383,381,415,387,2025-05-27T22:36:52.033116
6322,-0.2445,0.9170,0.2503,-0.770,1.680,4.270,417,411,385,400,405,2025-05-27T22:36:52.033116
6323,-0.2518,0.9072,0.2489,-0.490,-6.545,2.730,390,427,345,399,392,2025-05-27T22:36:52.033116
6324,-0.2089,0.9130,0.2406,-0.070,-11.725,2.240,373,398,371,416,385,2025-05-27T22:36:52.033116
6325,-0.1669,0.9160,0.2352,-0.070,-10.955,1.995,410,348,384,402,403,2025-05-27T22:36:52.033116
6326,-0.1459,0.9077,0.2269,0.175,-2.450,0.315,386,352,378,356,389,2025-05-27T22:36:52.033116
6327,-0.1474,0.9135,0.2396,0.665,6.125,-0.700,383,412,357,396,414,2025-05-27T22:36:52.033116
6328,-0.1801,0.9135,0.2499,0.980,9.730,-0.980,421,417,368,403,410,2025-05-27T22:36:52.134963
6329,-0.2025,0.9179,0.2591,0.455,10.535,-0.595,426,427,373,408,375,2025-05-27T22:36:52.135240
6330,-0.2216,0.9189,0.2513,0.280,9.800,0.560,424,419,372,413,393,2025-05-27T22:36:52.135240
6331,-0.2552,0.9160,0.2425,1.260,5.390,2.800,418,432,345,407,404,2025-05-27T22:36:52.135240
6332,-0.2606,0.9145,0.2367,1.715,0.070,3.605,301,393,372,411,392,2025-05-27T22:36:52.135240
6333,-0.2499,0.9150,0.2225,1.820,-2.660,5.005,367,367,384,351,392,2025-05-27T22:36:52.135240
6334,-0.2499,0.9062,0.2074,1.155,-3.710,5.845,409,332,338,383,384,2025-05-27T22:36:52.135240
6335,-0.2298,0.9028,0.2030,0.070,-3.185,6.195,372,418,372,411,387,2025-05-27T22:36:52.136055
6336,-0.2220,0.8882,0.1986,-1.015,-1.050,7.280,415,388,381,392,352,2025-05-27T22:36:52.283284
6337,-0.2406,0.8701,0.1991,-1.820,-0.665,8.470,402,434,380,356,384,2025-05-27T22:36:52.283284
6338,-0.2352,0.8618,0.2084,-2.765,-3.185,9.625,432,431,369,385,376,2025-05-27T22:36:52.283284
6339,-0.2318,0.8403,0.1957,-4.060,-4.970,10.885,399,396,380,347,389,2025-05-27T22:36:52.283284
6340,-0.2157,0.8272,0.1859,-3.815,-7.175,12.250,403,390,345,389,390,2025-05-27T22:36:52.283284
6341,-0.2118,0.8189,0.1962,-3.500,-9.905,13.125,431,387,362,405,403,2025-05-27T22:36:52.283284
6342,-0.1903,0.8091,0.1986,-3.850,-12.285,13.685,420,360,381,410,351,2025-05-27T22:36:52.283284
6343,-0.1918,0.8003,0.2006,-4.235,-13.825,14.105,399,395,376,371,375,2025-05-27T22:36:52.283284
6344,-0.1893,0.8203,0.2069,-5.110,-15.365,12.880,427,388,385,384,387,2025-05-27T22:36:52.283284
6345,-0.1801,0.8291,0.2094,-6.475,-18.970,11.270,432,363,382,342,388,2025-05-27T22:36:52.283284
6346,-0.1713,0.8433,0.2152,-6.545,-23.380,8.960,421,389,372,330,406,2025-05-27T22:36:52.283284
6347,-0.1503,0.8872,0.2201,-7.315,-27.265,4.970,404,379,372,366,410,2025-05-27T22:36:52.283284
6348,-0.1269,0.9360,0.2279,-17.605,-31.465,0.140,413,390,378,338,353,2025-05-27T22:36:52.283284
6349,-0.1215,0.9975,0.2362,-9.625,-44.485,-6.790,425,411,377,378,339,2025-05-27T22:36:52.602580
6350,-0.0678,1.0721,0.2425,-11.270,-41.580,-16.275,420,352,383,401,385,2025-05-27T22:36:52.602580
6351,-0.0556,1.1717,0.2586,-15.575,-44.730,-25.690,414,385,384,413,389,2025-05-27T22:36:52.602580
6352,-0.0122,1.2468,0.2782,-20.125,-47.635,-40.180,411,394,355,396,365,2025-05-27T22:36:52.602580
6353,-0.0020,1.3366,0.3026,-25.795,-55.125,-56.945,405,418,362,406,399,2025-05-27T22:36:52.602580
6354,0.0244,1.5148,0.3055,-33.565,-65.450,-74.270,341,420,337,393,403,2025-05-27T22:36:52.602580
6355,0.0493,1.7104,0.3465,-42.735,-80.850,-87.605,385,415,322,411,399,2025-05-27T22:36:52.602580
6356,0.0581,1.9052,0.3548,-54.495,-99.015,-93.240,413,400,326,398,391,2025-05-27T22:36:52.605047
6357,0.0512,2.1204,0.3714,-69.195,-129.325,-94.605,418,373,359,411,383,2025-05-27T22:36:52.605047
6358,0.0488,2.2926,0.3338,-85.785,-166.635,-89.180,412,381,364,406,397,2025-05-27T22:36:52.605047
6359,0.1376,2.5308,0.2240,-104.160,-208.600,-74.970,392,394,328,380,345,2025-05-27T22:36:52.605047
6360,0.2518,2.6869,0.0395,-121.975,-241.920,-50.645,425,385,346,399,386,2025-05-27T22:36:52.605047
6361,0.4075,2.7055,-0.1684,-135.975,-255.080,-24.640,355,392,329,386,403,2025-05-27T22:36:52.605047
6362,0.5046,2.6396,-0.3465,-152.355,-245.455,-0.070,386,344,347,393,386,2025-05-27T22:36:52.605047
6363,0.5192,2.4639,-0.4660,-164.850,-217.980,22.050,411,409,351,408,395,2025-05-27T22:36:52.605047
6364,0.4690,2.2428,-0.5329,-176.260,-186.550,40.565,395,413,362,408,351,2025-05-27T22:36:52.605047
6365,0.3836,1.9378,-0.6027,-182.560,-160.860,53.130,407,403,368,418,392,2025-05-27T22:36:52.605047
6366,0.2855,1.6172,-0.6476,-181.580,-133.560,62.370,378,429,363,407,383,2025-05-27T22:36:52.605047
6367,0.1313,1.4128,-0.5744,-179.025,-110.285,60.130,403,438,328,417,344,2025-05-27T22:36:52.605047
6368,-0.0024,1.2434,-0.4890,-187.775,-91.490,43.960,383,425,352,353,381,2025-05-27T22:36:52.605047
6369,-0.1279,1.0575,-0.4426,-208.005,-79.765,16.590,335,399,366,350,389,2025-05-27T22:36:52.605047
6370,-0.2333,0.8062,-0.4768,-227.780,-78.015,-15.610,404,410,385,378,405,2025-05-27T22:36:52.697257
6371,-0.2830,0.4865,-0.5807,-244.090,-89.180,-47.705,423,395,345,339,405,2025-05-27T22:36:52.697257
6372,-0.1796,0.1132,-0.6578,-261.625,-108.710,-72.870,412,420,375,384,371,2025-05-27T22:36:52.697257
6373,-0.0605,-0.2162,-0.6666,-278.565,-115.430,-104.545,397,416,305,378,387,2025-05-27T22:36:52.697257
6374,0.1225,-0.5783,-0.6339,-298.900,-104.650,-138.915,387,425,348,409,388,2025-05-27T22:36:52.698432
6375,0.2274,-1.1341,-0.5700,-323.785,-76.475,-158.305,399,411,359,410,393,2025-05-27T22:36:52.698432
6376,0.2167,-1.7251,-0.4880,-349.370,-47.320,-190.505,409,424,375,419,402,2025-05-27T22:36:52.698432
6377,0.0395,-2.8177,-0.2211,-368.340,-27.090,-214.060,343,394,387,410,411,2025-05-27T22:36:52.698432
6378,-0.0522,-3.7137,0.2011,-392.630,-30.520,-246.750,323,398,379,396,396,2025-05-27T22:36:52.698432
6379,-0.4211,-4.0294,0.6412,-390.775,-58.310,-265.965,392,376,357,385,409,2025-05-27T22:36:52.698432
6380,-0.5236,-3.6136,1.0370,-366.520,-136.815,-244.160,399,408,377,391,411,2025-05-27T22:36:52.698432
6381,-0.4494,-3.1666,1.2517,-299.040,-233.905,-195.615,417,408,341,396,400,2025-05-27T22:36:52.698432
6382,0.0625,-2.7186,1.0219,-209.685,-334.530,-136.745,424,383,369,414,415,2025-05-27T22:36:52.698432
6383,0.8374,-2.0706,0.9945,-113.680,-315.560,-85.015,403,396,377,412,377,2025-05-27T22:36:52.860266
6384,1.7988,-1.5860,1.0580,-45.360,-158.725,-6.580,413,418,391,409,400,2025-05-27T22:36:52.860266
6385,1.9525,-1.4337,1.1195,3.710,74.480,78.715,422,434,384,370,414,2025-05-27T22:36:52.860266
6386,1.3088,-1.4840,1.2542,37.555,244.335,134.540,407,426,390,399,404,2025-05-27T22:36:52.860266
6387,0.5793,-1.4318,1.4762,57.890,280.840,163.030,365,343,387,346,403,2025-05-27T22:36:52.860266
6388,-0.0298,-1.4747,1.6851,77.490,233.625,176.855,328,380,378,402,414,2025-05-27T22:36:52.860266
6389,-0.2772,-1.5001,1.8744,95.235,186.060,186.095,400,378,354,419,411,2025-05-27T22:36:52.860266
6390,-0.3738,-1.3937,2.0164,111.440,127.435,187.215,387,408,368,358,394,2025-05-27T22:36:52.860266
6391,-0.3699,-1.3283,2.0559,129.290,99.365,183.750,426,430,375,375,386,2025-05-27T22:36:52.860266
6392,-0.2518,-1.2161,1.8759,151.130,102.655,182.350,383,434,390,405,411,2025-05-27T22:36:52.860266
6393,-0.2455,-1.0819,1.9139,181.020,135.100,179.340,407,439,390,408,407,2025-05-27T22:36:52.860266
6394,-0.2606,-0.9184,1.7529,206.675,179.795,176.855,407,348,383,399,387,2025-05-27T22:36:52.860266
6395,-0.2186,-0.7071,1.4835,237.230,216.440,179.270,422,406,389,348,399,2025-05-27T22:36:52.860266
6396,-0.2650,-0.4260,1.1854,264.145,266.595,177.450,422,405,388,337,381,2025-05-27T22:36:52.952206
6397,-0.3401,-0.1435,0.8594,284.165,314.055,170.205,421,343,377,379,409,2025-05-27T22:36:52.952206
6398,-0.3875,0.2547,0.5324,294.105,340.375,168.315,404,405,369,408,395,2025-05-27T22:36:52.952206
6399,-0.4782,0.6002,0.4377,291.865,336.980,170.940,420,413,381,407,408,2025-05-27T22:36:52.952206
6400,-0.6076,0.7584,0.3909,277.480,297.465,180.040,304,395,370,392,410,2025-05-27T22:36:52.952206
6401,-0.6276,0.8072,0.2928,258.895,224.840,184.835,369,417,374,404,365,2025-05-27T22:36:52.952206
6402,-0.5422,0.7427,0.1723,242.235,141.960,183.680,405,400,334,415,388,2025-05-27T22:36:52.952206
6403,-0.3265,0.7296,0.0366,233.100,84.840,170.975,417,391,347,416,392,2025-05-27T22:36:52.952206
6404,-0.0527,0.7462,-0.1244,218.085,59.780,158.305,412,339,355,406,394,2025-05-27T22:36:53.102806
6405,0.1064,0.8613,-0.1581,198.590,53.200,140.420,409,391,368,417,399,2025-05-27T22:36:53.102806
6406,0.2069,0.8872,-0.1840,178.290,52.185,117.845,339,403,378,421,409,2025-05-27T22:36:53.102806
6407,0.2816,0.9467,-0.0820,159.355,54.110,114.940,399,401,376,372,392,2025-05-27T22:36:53.102806
6408,0.3504,0.9467,-0.0390,144.235,54.180,107.345,396,346,377,397,404,2025-05-27T22:36:53.102806
6409,0.3299,0.9740,0.0415,133.665,52.675,97.265,400,411,365,404,415,2025-05-27T22:36:53.102806
6410,0.2938,1.0238,0.1352,126.000,44.590,85.890,394,427,366,363,411,2025-05-27T22:36:53.102806
6411,0.2572,1.0370,0.2094,119.385,20.300,77.035,402,415,376,403,402,2025-05-27T22:36:53.103806
6412,0.2586,1.1053,0.2235,115.080,6.545,67.935,410,413,371,415,409,2025-05-27T22:36:53.104022
6413,0.2460,1.1702,0.2274,109.200,-7.805,57.750,393,392,337,410,402,2025-05-27T22:36:53.104022
6414,0.3265,1.2605,0.1693,101.255,-12.250,48.370,398,396,367,412,416,2025-05-27T22:36:53.104022
6415,0.3401,1.3161,0.1254,91.980,-7.385,40.390,411,409,374,419,407,2025-05-27T22:36:53.104022
6416,0.3070,1.3562,0.1010,84.070,1.435,34.300,424,426,381,415,354,2025-05-27T22:36:53.264160
6417,0.1928,1.3791,0.1142,73.290,5.075,29.925,404,386,373,414,380,2025-05-27T22:36:53.264160
6418,0.0893,1.4006,0.1625,58.485,1.260,18.095,374,391,375,419,396,2025-05-27T22:36:53.264160
6419,0.0132,1.3786,0.1962,43.260,-8.715,22.855,424,421,340,370,348,2025-05-27T22:36:53.264929
6420,-0.0166,1.3215,0.2006,31.535,-16.835,20.685,396,395,356,363,380,2025-05-27T22:36:53.265154
6421,-0.0493,1.2644,0.2269,24.710,-19.775,17.500,418,302,364,344,410,2025-05-27T22:36:53.265305
6422,-0.0415,1.2180,0.2518,17.500,-20.370,15.610,399,319,361,380,413,2025-05-27T22:36:53.265545
6423,-0.0742,1.1751,0.2918,10.850,-19.880,12.670,427,397,366,345,411,2025-05-27T22:36:53.265603
6424,-0.0517,1.1248,0.2943,6.475,-17.360,10.465,420,373,368,348,414,2025-05-27T22:36:53.265603
6425,-0.0322,1.0692,0.2826,5.915,-12.005,10.115,400,418,371,381,402,2025-05-27T22:36:53.265829
6426,-0.0181,1.0346,0.2772,5.670,-0.595,8.260,394,359,364,350,350,2025-05-27T22:36:53.265829
6427,-0.0098,1.0058,0.2552,4.305,13.615,5.040,352,400,369,394,380,2025-05-27T22:36:53.266167
6428,-0.0395,0.9721,0.2416,1.820,22.435,4.235,396,404,379,410,382,2025-05-27T22:36:53.266167
6429,-0.0844,0.9643,0.2572,-1.120,27.895,2.730,424,421,369,402,393,2025-05-27T22:36:53.266167
6430,-0.1322,0.9467,0.2718,-4.620,27.055,2.625,419,419,370,411,385,2025-05-27T22:36:53.572944
6431,-0.2064,0.9296,0.2791,-6.825,20.440,2.765,406,426,386,352,343,2025-05-27T22:36:53.572944
6432,-0.2323,0.9213,0.3006,-7.385,8.540,3.185,336,426,391,379,369,2025-05-27T22:36:53.572944
6433,-0.2279,0.9228,0.2987,-7.105,0.315,3.150,386,424,381,403,377,2025-05-27T22:36:53.572944
6434,-0.2172,0.9272,0.3016,-6.055,-3.290,3.570,335,409,374,412,403,2025-05-27T22:36:53.572944
6435,-0.1703,0.9374,0.2904,-5.355,-1.155,4.305,398,427,381,398,407,2025-05-27T22:36:53.572944
6436,-0.1708,0.9365,0.2923,-4.935,4.200,4.410,397,406,383,412,358,2025-05-27T22:36:53.572944
6437,-0.1737,0.9389,0.2865,-4.060,9.555,4.655,370,344,387,392,390,2025-05-27T22:36:53.572944
6438,-0.1845,0.9379,0.2982,-3.045,13.335,4.410,379,393,381,407,406,2025-05-27T22:36:53.572944
6439,-0.2035,0.9326,0.3172,-2.205,14.105,4.200,421,346,378,356,392,2025-05-27T22:36:53.572944
6440,-0.2137,0.9087,0.2894,1.225,12.915,6.860,423,402,344,409,405,2025-05-27T22:36:53.572944
6441,-0.2708,0.9189,0.3196,4.620,10.920,7.035,416,375,356,379,387,2025-05-27T22:36:53.572944
6442,-0.2752,0.9379,0.3279,6.195,7.700,6.860,412,427,375,334,390,2025-05-27T22:36:53.572944
6443,-0.2762,0.9394,0.3079,7.350,3.675,7.805,349,430,370,397,411,2025-05-27T22:36:53.572944
6444,-0.2777,0.9540,0.2889,8.820,3.885,9.485,405,420,378,402,415,2025-05-27T22:36:53.572944
6445,-0.2645,0.9579,0.2572,8.750,5.600,10.430,405,431,383,409,413,2025-05-27T22:36:53.572944
6446,-0.2679,0.9706,0.2728,7.280,6.755,10.430,416,382,391,346,408,2025-05-27T22:36:53.572944
6447,-0.2801,0.9599,0.2733,5.145,6.720,10.395,416,399,384,400,417,2025-05-27T22:36:53.572944
6448,-0.2826,0.9501,0.2718,3.955,4.445,11.165,423,405,392,353,403,2025-05-27T22:36:53.572944
6449,-0.2982,0.9467,0.2811,3.080,0.910,11.865,427,423,377,383,398,2025-05-27T22:36:53.572944
6450,-0.2679,0.9433,0.2830,1.925,-1.435,12.425,416,408,390,391,351,2025-05-27T22:36:53.817202
6451,-0.2367,0.9257,0.2640,2.205,0.385,12.495,427,422,385,401,386,2025-05-27T22:36:53.817202
6452,-0.2235,0.9394,0.2757,1.960,4.515,11.305,425,415,384,419,401,2025-05-27T22:36:53.817202
6453,-0.2147,0.9365,0.2733,0.210,7.140,10.780,418,401,380,417,397,2025-05-27T22:36:53.817202
6454,-0.2225,0.9316,0.2738,-1.925,7.525,10.185,404,395,341,417,395,2025-05-27T22:36:53.817202
6455,-0.2464,0.9223,0.2899,-2.695,6.160,9.555,341,414,369,426,396,2025-05-27T22:36:53.817202
6456,-0.2689,0.9179,0.3001,-3.570,0.735,8.540,393,422,382,432,373,2025-05-27T22:36:53.817202
6457,-0.2855,0.9077,0.3050,-3.990,-7.875,8.435,391,347,384,362,396,2025-05-27T22:36:53.817202
6458,-0.2733,0.8935,0.2996,-3.500,-15.575,8.330,411,374,390,403,394,2025-05-27T22:36:53.817202
6459,-0.2391,0.8818,0.2938,-3.150,-19.110,8.050,353,413,379,412,393,2025-05-27T22:36:53.817202
6460,-0.2108,0.8711,0.2743,-2.870,-18.865,7.630,381,419,376,384,360,2025-05-27T22:36:53.817202
6461,-0.1898,0.8701,0.2743,-2.555,-14.735,6.510,417,405,376,405,371,2025-05-27T22:36:53.817202
6462,-0.1645,0.8628,0.2630,-2.310,-8.610,6.020,402,409,385,394,398,2025-05-27T22:36:53.817202
6463,-0.1972,0.8481,0.2513,-1.785,-4.095,4.970,390,427,387,389,401,2025-05-27T22:36:53.817202
6464,-0.2098,0.8467,0.2572,-1.085,-4.585,3.850,399,424,354,409,410,2025-05-27T22:36:53.831412
6465,-0.2255,0.8355,0.2552,-0.805,-8.820,3.115,394,395,366,420,421,2025-05-27T22:36:53.831412
6466,-0.2464,0.8291,0.2582,-0.315,-14.700,2.380,390,402,380,422,401,2025-05-27T22:36:53.831843
6467,-0.2250,0.8364,0.2557,0.000,-19.810,1.050,400,358,391,407,404,2025-05-27T22:36:53.831981
6468,-0.2152,0.8374,0.2460,-0.595,-21.105,-0.805,352,410,384,413,353,2025-05-27T22:36:53.832160
6469,-0.2240,0.8379,0.2391,-0.945,-20.615,-2.275,389,334,389,395,390,2025-05-27T22:36:53.832160
6470,-0.2416,0.8525,0.2455,-0.525,-22.890,-3.955,420,364,393,406,405,2025-05-27T22:36:53.832160
6471,-0.2245,0.8735,0.2469,-0.945,-25.410,-5.040,403,404,395,410,376,2025-05-27T22:36:54.073145
6472,-0.2113,0.8926,0.2547,-0.840,-21.875,-6.230,363,407,378,352,395,2025-05-27T22:36:54.073145
6473,-0.1976,0.9140,0.2630,-0.700,-15.960,-7.245,401,345,368,351,399,2025-05-27T22:36:54.073145
6474,-0.2289,0.9282,0.2908,-0.770,-12.915,-8.575,403,406,342,402,396,2025-05-27T22:36:54.073145
6475,-0.3719,0.9433,0.3192,-1.365,-13.685,-8.540,429,410,366,354,409,2025-05-27T22:36:54.073145
6476,-0.2660,0.9487,0.3338,-1.750,-17.430,-7.280,426,433,369,384,357,2025-05-27T22:36:54.073145
6477,-0.2791,0.9477,0.3343,-2.450,-21.595,-5.810,422,371,378,406,378,2025-05-27T22:36:54.073145
6478,-0.2762,0.9506,0.3348,-2.660,-25.585,-3.640,424,374,390,371,380,2025-05-27T22:36:54.073145
6479,-0.2528,0.9438,0.3314,-3.115,-29.120,-1.470,406,419,384,400,368,2025-05-27T22:36:54.073145
6480,-0.2230,0.9316,0.3162,-3.850,-29.855,1.540,400,426,391,344,354,2025-05-27T22:36:54.073145
6481,-0.2113,0.9292,0.3094,-5.145,-28.105,4.025,341,393,384,376,339,2025-05-27T22:36:54.073145
6482,-0.1874,0.9233,0.2977,-6.825,-25.025,6.720,409,406,380,407,363,2025-05-27T22:36:54.073145
6483,-0.1825,0.9150,0.2860,-7.735,-21.245,8.120,421,399,387,418,402,2025-05-27T22:36:54.073145
6484,-0.1771,0.9150,0.2791,-7.840,-17.150,8.855,427,338,375,403,398,2025-05-27T22:36:54.073145
6485,-0.1957,0.9057,0.2772,-7.280,-15.435,8.715,397,402,390,419,402,2025-05-27T22:36:54.073145
6486,-0.2030,0.9057,0.2791,-5.985,-15.610,8.225,416,413,379,411,398,2025-05-27T22:36:54.073145
6487,-0.2128,0.9033,0.2874,-4.340,-16.415,7.140,410,301,335,388,308,2025-05-27T22:36:54.073145
6488,-0.2020,0.9165,0.2908,-3.185,-16.765,6.650,425,318,372,299,354,2025-05-27T22:36:54.073145
6489,-0.2079,0.9160,0.2889,-1.750,-17.045,5.880,424,403,370,385,389,2025-05-27T22:36:54.073145
6490,-0.1957,0.9262,0.3016,0.070,-16.730,4.480,402,429,389,401,384,2025-05-27T22:36:54.073145
6491,-0.1615,0.9404,0.3070,0.875,-14.105,4.200,376,372,342,410,408,2025-05-27T22:36:54.183274
6492,-0.1459,0.9409,0.3070,1.960,-7.280,3.535,367,399,368,353,383,2025-05-27T22:36:54.183361
6493,-0.1498,0.9467,0.3162,3.500,-0.490,3.150,376,410,366,386,409,2025-05-27T22:36:54.183361
6494,-0.1679,0.9575,0.3440,4.200,2.205,3.535,420,374,372,410,400,2025-05-27T22:36:54.183361
6495,-0.1796,0.9633,0.3587,3.675,2.415,4.515,408,418,373,407,394,2025-05-27T22:36:54.183361
6496,-0.1962,0.9540,0.3733,3.850,-0.350,5.425,391,411,384,409,386,2025-05-27T22:36:54.183361
6497,-0.1972,0.9570,0.3802,4.060,-7.070,6.685,350,423,375,411,384,2025-05-27T22:36:54.183361
6498,-0.1591,0.9443,0.3758,4.130,-13.825,7.665,342,385,368,373,379,2025-05-27T22:36:54.183361
6499,-0.1196,0.9321,0.3645,3.780,-15.505,7.700,377,405,365,399,397,2025-05-27T22:36:54.811647
6500,-0.0644,0.9223,0.3475,3.150,-14.735,7.105,420,406,339,388,404,2025-05-27T22:36:54.811647
6501,-0.0332,0.9160,0.3250,2.730,-11.130,5.705,435,424,360,374,410,2025-05-27T22:36:54.811647
6502,-0.0127,0.9228,0.3187,2.275,-5.250,2.380,434,403,377,379,402,2025-05-27T22:36:54.811647
6503,0.0020,0.9355,0.3172,0.630,-1.680,-1.575,407,416,354,386,394,2025-05-27T22:36:54.811647
6504,-0.0010,0.9560,0.3167,-0.945,-3.395,-6.580,385,413,354,405,382,2025-05-27T22:36:54.811647
6505,0.0102,0.9921,0.3226,-2.730,-7.700,-11.900,421,418,379,411,393,2025-05-27T22:36:54.811647
6506,0.0312,1.0355,0.3211,-3.465,-16.975,-20.510,421,419,368,359,409,2025-05-27T22:36:54.812649
6507,0.0620,1.1292,0.3201,-4.445,-33.075,-30.205,398,403,369,378,413,2025-05-27T22:36:54.812649
6508,0.1484,1.2668,0.2967,-6.440,-54.495,-41.860,406,412,385,408,361,2025-05-27T22:36:54.812649
6509,0.2489,1.4089,0.2674,-9.100,-75.635,-54.075,420,374,396,390,379,2025-05-27T22:36:54.812649
6510,0.3777,1.5728,0.2557,-15.365,-92.435,-65.065,397,387,379,381,380,2025-05-27T22:36:54.812649
6511,0.5378,1.7529,0.1830,-25.130,-112.455,-73.185,380,407,373,388,391,2025-05-27T22:36:54.812649
6512,0.7252,1.9047,0.0761,-38.115,-121.345,-82.495,402,423,339,399,386,2025-05-27T22:36:54.812649
6513,0.8413,2.0716,-0.0478,-54.775,-118.860,-90.125,402,354,362,391,386,2025-05-27T22:36:54.812649
6514,0.9043,2.2507,-0.1259,-74.200,-114.030,-92.435,422,416,377,394,412,2025-05-27T22:36:54.812649
6515,0.8511,2.3385,-0.2352,-97.300,-111.825,-88.375,362,379,368,399,419,2025-05-27T22:36:54.812649
6516,0.7237,2.3287,-0.3357,-115.885,-118.055,-83.405,389,412,373,403,354,2025-05-27T22:36:54.812649
6517,0.5431,2.2658,-0.4490,-136.780,-128.625,-75.215,348,358,365,389,396,2025-05-27T22:36:54.812649
6518,0.3684,2.1448,-0.4773,-157.640,-146.125,-71.575,397,401,369,385,394,2025-05-27T22:36:54.812649
6519,0.1708,2.0350,-0.4895,-180.845,-174.615,-70.245,403,404,388,389,403,2025-05-27T22:36:54.812649
6520,0.0483,1.9369,-0.4778,-206.850,-210.945,-70.315,406,420,385,403,408,2025-05-27T22:36:54.812649
6521,-0.0337,1.7934,-0.4626,-233.940,-241.115,-71.925,428,353,385,392,358,2025-05-27T22:36:54.812649
6522,-0.0683,1.5401,-0.5134,-253.050,-264.495,-73.080,305,402,389,403,385,2025-05-27T22:36:54.812649
6523,-0.0078,1.3044,-0.4963,-264.285,-272.125,-79.065,370,381,377,415,398,2025-05-27T22:36:54.812649
6524,-0.0039,1.0248,-0.3684,-278.005,-259.700,-90.055,414,296,349,408,398,2025-05-27T22:36:54.812649
6525,0.0971,0.6798,-0.3157,-291.865,-246.400,-91.315,396,398,328,374,401,2025-05-27T22:36:54.812649
6526,0.1327,0.2469,-0.1479,-303.100,-225.505,-98.770,402,420,350,365,397,2025-05-27T22:36:54.812649
6527,0.2259,-0.3353,0.0805,-317.205,-192.360,-107.240,404,422,372,387,404,2025-05-27T22:36:54.812649
6528,0.2347,-0.9672,0.4612,-335.755,-150.920,-134.155,349,420,385,378,391,2025-05-27T22:36:54.812649
6529,-0.1474,-1.8978,0.7335,-350.665,-118.545,-171.780,375,403,380,395,382,2025-05-27T22:36:54.812649
6530,-0.4275,-2.9622,1.2576,-352.485,-137.480,-200.970,337,398,346,417,384,2025-05-27T22:36:54.812649
6531,-0.8213,-3.9518,1.6729,-339.675,-179.900,-213.780,385,401,353,406,407,2025-05-27T22:36:54.812649
6532,-1.0321,-4.1412,1.6904,-288.715,-251.020,-206.570,415,397,359,410,400,2025-05-27T22:36:54.812649
6533,-0.0913,-3.5424,1.3283,-191.590,-302.365,-154.665,422,297,362,407,404,2025-05-27T22:36:54.812649
6534,0.6417,-2.8894,1.1439,-91.595,-234.605,-72.870,395,392,346,357,389,2025-05-27T22:36:54.812649
6535,1.0580,-2.3873,0.9897,-11.375,-68.285,-8.645,417,341,348,338,402,2025-05-27T22:36:54.812649
6536,0.8969,-1.9930,0.8838,68.040,103.215,57.575,361,405,359,385,395,2025-05-27T22:36:54.814549
6537,0.4973,-1.7153,0.9135,111.720,162.575,99.260,407,422,377,400,400,2025-05-27T22:36:54.814549
6538,0.1303,-1.4767,0.8804,128.975,135.450,115.780,414,382,386,357,399,2025-05-27T22:36:54.814549
6539,0.0400,-1.2083,0.9135,130.270,71.260,116.060,411,409,390,349,397,2025-05-27T22:36:54.815175
6540,0.2860,-1.0004,0.8306,119.455,35.700,113.610,421,346,387,377,397,2025-05-27T22:36:54.815293
6541,0.5417,-0.7564,0.8442,105.210,34.790,109.760,401,324,348,342,388,2025-05-27T22:36:54.815293
6542,0.6715,-0.6046,0.9501,94.255,72.170,102.410,358,395,362,336,405,2025-05-27T22:36:54.815293
6543,0.6525,-0.4436,1.1214,87.990,136.885,95.445,382,427,374,370,397,2025-05-27T22:36:54.815293
6544,0.5363,-0.3445,1.2820,87.640,208.985,103.145,381,413,368,363,409,2025-05-27T22:36:54.896358
6545,0.1781,-0.5295,1.3030,98.665,280.175,118.195,396,352,384,401,419,2025-05-27T22:36:54.896358
6546,-0.2420,-0.5802,1.2727,121.765,330.750,130.025,390,415,384,413,401,2025-05-27T22:36:54.897519
6547,-0.5661,-0.4416,1.3283,154.945,342.615,141.190,384,370,386,408,411,2025-05-27T22:36:54.897519
6548,-0.7906,-0.2538,1.3025,179.130,336.140,149.205,410,353,386,401,387,2025-05-27T22:36:54.897519
6549,-0.8047,0.0273,1.1312,196.490,316.225,153.860,409,406,397,414,390,2025-05-27T22:36:54.897519
6550,-0.7061,0.3616,0.9872,206.220,296.030,158.165,367,389,393,411,400,2025-05-27T22:36:54.897519
6551,-0.6359,0.5339,0.8647,206.465,284.795,163.205,392,401,381,394,391,2025-05-27T22:36:54.897519
6552,-0.6163,0.7052,0.7706,201.390,261.275,161.840,413,397,372,403,380,2025-05-27T22:36:54.897519
6553,-0.5646,0.7935,0.6978,196.455,223.580,156.310,406,428,351,401,373,2025-05-27T22:36:54.897519
6554,-0.5129,0.8423,0.6344,196.350,188.055,148.015,414,384,363,402,407,2025-05-27T22:36:54.898515
6555,-0.4407,0.8955,0.5739,200.690,150.500,137.130,388,372,340,411,386,2025-05-27T22:36:54.898687
6556,-0.2450,0.9823,0.4680,202.685,114.870,130.515,351,388,369,417,384,2025-05-27T22:36:54.898687
6557,-0.0883,1.1009,0.4026,197.540,83.825,124.740,391,396,373,403,389,2025-05-27T22:36:54.898835
6558,0.0869,1.1141,0.2191,187.810,77.000,117.390,410,425,384,352,386,2025-05-27T22:36:54.898835
6559,0.2435,1.1614,0.0971,177.730,84.525,107.170,417,421,373,389,391,2025-05-27T22:36:54.898835
6560,0.3650,1.2273,-0.0439,166.215,100.940,95.095,345,422,387,397,397,2025-05-27T22:36:54.898835
6561,0.3831,1.2825,-0.1059,154.735,117.775,88.095,409,402,376,390,410,2025-05-27T22:36:54.898835
6562,0.3079,1.3113,-0.0839,136.815,120.890,83.930,427,407,373,345,384,2025-05-27T22:36:54.898835
6563,0.2079,1.2922,-0.0200,117.250,106.785,81.270,379,426,387,370,390,2025-05-27T22:36:54.898835
6564,0.1401,1.2263,-0.0034,100.415,76.580,79.520,380,426,383,379,409,2025-05-27T22:36:55.138709
6565,0.1386,1.1785,-0.0137,88.305,45.500,74.095,408,364,347,378,403,2025-05-27T22:36:55.138709
6566,0.1484,1.1585,-0.0063,77.245,21.490,66.675,386,407,322,344,416,2025-05-27T22:36:55.138709
6567,0.1825,1.1771,0.0322,64.680,6.090,58.590,346,414,362,352,403,2025-05-27T22:36:55.138709
6568,0.2347,1.1702,0.0176,52.780,-0.735,51.485,398,413,362,357,414,2025-05-27T22:36:55.138709
6569,0.2503,1.1458,0.0234,45.885,3.605,44.975,428,399,383,397,416,2025-05-27T22:36:55.138709
6570,0.2435,1.1419,0.0547,38.500,11.900,39.165,430,351,371,382,417,2025-05-27T22:36:55.138709
6571,0.2098,1.1551,0.1103,29.260,24.150,34.965,397,388,341,404,404,2025-05-27T22:36:55.138709
6572,0.1264,1.1385,0.1615,20.825,32.235,30.310,381,383,358,404,401,2025-05-27T22:36:55.138709
6573,0.0190,1.1092,0.1976,16.590,30.905,25.970,413,408,334,414,410,2025-05-27T22:36:55.138709
6574,-0.0669,1.0843,0.2381,15.680,20.230,22.155,371,411,351,413,417,2025-05-27T22:36:55.138709
6575,-0.0898,1.0892,0.2777,14.665,7.280,19.040,403,421,378,355,391,2025-05-27T22:36:55.139716
6576,-0.1049,1.0756,0.2894,12.985,-0.070,15.435,343,420,336,293,381,2025-05-27T22:36:55.139716
6577,-0.0888,1.0687,0.3006,10.850,-5.845,13.020,401,397,362,384,413,2025-05-27T22:36:55.139716
6578,-0.0756,1.0512,0.2767,8.575,-7.735,9.870,411,416,382,394,416,2025-05-27T22:36:55.139716
6579,-0.0756,1.0614,0.2830,6.405,-5.215,6.930,430,427,342,408,397,2025-05-27T22:36:55.139716
6580,-0.0776,1.0531,0.2625,4.865,-0.910,4.655,424,407,348,398,353,2025-05-27T22:36:55.139716
6581,-0.0859,1.0429,0.2411,3.325,3.150,3.010,398,370,376,387,386,2025-05-27T22:36:55.139716
6582,-0.0927,1.0468,0.2298,1.750,9.870,2.975,417,407,366,413,386,2025-05-27T22:36:55.139716
6583,-0.1322,1.0370,0.2264,-1.225,14.735,1.680,354,405,359,422,347,2025-05-27T22:36:55.139716
6584,-0.1537,1.0233,0.2294,-3.395,15.365,0.875,382,405,361,397,330,2025-05-27T22:36:55.139716
6585,-0.2015,1.0043,0.2133,-5.250,14.070,0.560,430,400,376,414,370,2025-05-27T22:36:55.299240
6586,-0.2157,1.0053,0.2162,-6.720,9.800,1.225,413,393,377,417,401,2025-05-27T22:36:55.299240
6587,-0.2450,0.9980,0.2289,-8.680,1.400,1.190,419,416,389,414,402,2025-05-27T22:36:55.299240
6588,-0.2206,0.9697,0.1928,-8.610,-7.105,3.185,374,405,387,350,409,2025-05-27T22:36:55.299240
6589,-0.2020,0.9623,0.1903,-7.525,-8.400,5.180,394,301,384,337,417,2025-05-27T22:36:55.299240
6590,-0.1703,0.9584,0.1928,-7.945,-4.725,5.565,337,390,384,385,402,2025-05-27T22:36:55.299240
6591,-0.1688,0.9501,0.2069,-9.345,-2.695,4.970,382,349,384,399,413,2025-05-27T22:36:55.299240
6592,-0.1698,0.9340,0.2020,-9.170,-2.170,5.215,388,364,392,415,353,2025-05-27T22:36:55.299240
6593,-0.1518,0.9057,0.1737,-6.125,-0.980,6.300,389,402,397,419,386,2025-05-27T22:36:55.299240
6594,-0.1547,0.9228,0.2015,-4.725,4.375,6.090,419,404,352,394,385,2025-05-27T22:36:55.299240
6595,-0.1576,0.9218,0.2142,-5.915,8.015,4.375,397,407,366,410,389,2025-05-27T22:36:55.299240
6596,-0.1762,0.9140,0.2284,-7.525,7.315,2.345,392,435,366,357,378,2025-05-27T22:36:55.299240
6597,-0.2123,0.8974,0.2411,-7.490,-0.210,-0.140,347,434,380,401,400,2025-05-27T22:36:55.299240
6598,-0.1967,0.8691,0.2303,-5.845,-8.540,-1.470,378,371,382,420,403,2025-05-27T22:36:55.299240
6599,-0.1835,0.8779,0.2259,-4.865,-8.715,-3.325,413,394,391,391,401,2025-05-27T22:36:55.299240
6600,-0.1913,0.8813,0.2259,-4.935,-4.235,-5.740,416,400,399,342,397,2025-05-27T22:36:55.467593
6601,-0.2011,0.8677,0.2045,-3.955,-0.420,-6.055,344,417,395,387,410,2025-05-27T22:36:55.468120
6602,-0.2264,0.8755,0.2225,-1.995,3.885,-6.650,345,397,395,388,420,2025-05-27T22:36:55.468120
6603,-0.2450,0.9023,0.2416,-2.730,10.605,-6.895,408,411,397,338,413,2025-05-27T22:36:55.468327
6604,-0.2840,0.9004,0.2425,-3.360,13.650,-5.845,389,412,388,397,415,2025-05-27T22:36:55.468466
6605,-0.3240,0.9160,0.2586,-2.170,12.180,-4.165,404,413,383,406,408,2025-05-27T22:36:55.468466
6606,-0.3348,0.9345,0.2762,-1.680,8.190,-2.450,420,438,397,405,354,2025-05-27T22:36:55.468466
6607,-0.3333,0.9409,0.2733,-1.820,3.850,0.035,397,405,396,353,375,2025-05-27T22:36:55.468795
6608,-0.3182,0.9487,0.2743,-1.015,0.000,1.330,389,337,383,398,399,2025-05-27T22:36:55.468795
6609,-0.2889,0.9589,0.2767,-0.665,-1.785,2.730,402,352,389,393,391,2025-05-27T22:36:55.622860
6610,-0.2718,0.9604,0.2738,-0.385,-1.295,3.710,412,421,387,383,380,2025-05-27T22:36:55.622860
6611,-0.2547,0.9628,0.2679,0.210,1.050,4.025,367,407,387,406,411,2025-05-27T22:36:55.622860
6612,-0.2547,0.9653,0.2747,0.595,3.815,4.445,414,417,375,406,402,2025-05-27T22:36:55.622860
6613,-0.2562,0.9706,0.2679,0.665,5.565,5.215,393,405,369,398,364,2025-05-27T22:36:55.622860
6614,-0.2660,0.9731,0.2694,0.770,5.600,5.670,416,397,337,416,340,2025-05-27T22:36:55.622860
6615,-0.2660,0.9731,0.2650,0.490,4.620,5.810,429,420,357,417,387,2025-05-27T22:36:55.622860
6616,-0.2625,0.9706,0.2572,-0.630,2.135,5.810,347,410,363,401,391,2025-05-27T22:36:55.622860
6617,-0.2396,0.9604,0.2484,-1.225,-0.140,6.965,398,419,379,396,367,2025-05-27T22:36:55.622860
6618,-0.2435,0.9477,0.2274,-1.330,-0.385,7.665,397,419,374,396,357,2025-05-27T22:36:55.622860
6619,-0.2464,0.9438,0.2372,-2.310,-1.015,6.580,387,407,384,407,375,2025-05-27T22:36:55.622860
6620,-0.2503,0.9355,0.2479,-4.165,-4.130,6.020,411,420,386,416,396,2025-05-27T22:36:55.622860
6621,-0.2464,0.9316,0.2464,-5.670,-7.035,5.565,401,419,370,407,342,2025-05-27T22:36:55.622860
6622,-0.2313,0.9082,0.2342,-6.475,-8.085,5.075,362,410,371,399,379,2025-05-27T22:36:55.622860
6623,-0.2313,0.9008,0.2313,-6.125,-8.225,3.780,386,420,379,418,405,2025-05-27T22:36:55.622860
6624,-0.2333,0.8921,0.2381,-5.460,-7.805,2.695,399,415,382,412,399,2025-05-27T22:36:55.630679
6625,-0.2216,0.8921,0.2372,-5.635,-6.300,2.555,419,391,385,411,345,2025-05-27T22:36:55.630679
6626,-0.2274,0.8852,0.2323,-5.845,-4.585,1.995,407,413,383,387,384,2025-05-27T22:36:55.630679
6627,-0.2284,0.8662,0.2235,-4.375,-4.270,1.890,350,373,343,401,381,2025-05-27T22:36:55.715606
6628,-0.2294,0.8550,0.2167,-2.695,-4.130,1.680,401,399,358,420,403,2025-05-27T22:36:55.715606
6629,-0.2318,0.8477,0.2230,-2.100,-3.465,1.085,410,428,378,419,388,2025-05-27T22:36:55.715606
6630,-0.2294,0.8301,0.2167,-2.100,-3.255,0.910,378,399,378,378,403,2025-05-27T22:36:55.715606
6631,-0.2323,0.8067,0.2181,-1.540,-5.355,0.455,398,396,343,400,355,2025-05-27T22:36:55.715606
6632,-0.2123,0.7867,0.2113,-1.085,-8.155,0.280,336,416,336,391,389,2025-05-27T22:36:55.715606
6633,-0.1835,0.7627,0.2006,-0.700,-9.555,-0.420,404,351,349,399,343,2025-05-27T22:36:55.715606
6634,-0.1449,0.7515,0.1893,-0.560,-9.555,-1.085,413,326,339,405,381,2025-05-27T22:36:55.715606
6635,-0.1210,0.7374,0.1713,-0.665,-7.980,-2.800,394,339,368,417,397,2025-05-27T22:36:55.867171
6636,-0.0932,0.7340,0.1718,-1.435,-6.825,-5.110,410,287,367,413,395,2025-05-27T22:36:55.867171
6637,-0.0893,0.7418,0.1830,-3.150,-8.575,-7.315,415,394,383,398,351,2025-05-27T22:36:55.867171
6638,-0.0649,0.7642,0.1854,-5.880,-12.495,-9.520,417,421,386,349,379,2025-05-27T22:36:55.867171
6639,-0.0405,0.8111,0.1859,-7.945,-19.390,-11.130,399,400,345,385,385,2025-05-27T22:36:55.867171
6640,0.0068,0.8760,0.1928,-10.710,-27.825,-14.245,417,400,366,392,372,2025-05-27T22:36:55.867171
6641,0.0834,0.9784,0.1972,-14.700,-36.925,-20.370,343,340,339,409,397,2025-05-27T22:36:55.867171
6642,0.1742,1.1126,0.2094,-19.845,-45.990,-29.330,400,400,371,409,402,2025-05-27T22:36:55.867171
6643,0.2552,1.2664,0.2342,-23.555,-57.960,-38.570,413,406,393,406,397,2025-05-27T22:36:56.036963
6644,0.3177,1.4435,0.2474,-30.170,-75.145,-46.655,404,431,370,398,396,2025-05-27T22:36:56.036963
6645,0.3733,1.6045,0.2621,-34.230,-94.675,-53.900,354,417,385,342,350,2025-05-27T22:36:56.036963
6646,0.4148,1.7792,0.2567,-39.550,-110.075,-60.620,393,426,389,392,342,2025-05-27T22:36:56.036963
6647,0.4709,1.9593,0.2162,-47.250,-128.695,-64.225,423,426,395,411,385,2025-05-27T22:36:56.036963
6648,0.5183,2.0979,0.1640,-59.150,-142.905,-67.025,397,420,390,410,411,2025-05-27T22:36:56.036963
6649,0.5270,2.1867,0.0956,-74.550,-152.880,-69.860,425,342,389,399,396,2025-05-27T22:36:56.265526
6650,0.5407,2.2687,0.0337,-92.120,-161.560,-73.325,378,387,380,389,389,2025-05-27T22:36:56.265526
6651,0.4831,2.3117,-0.0512,-116.445,-170.065,-79.485,413,419,386,416,411,2025-05-27T22:36:56.265526
6652,0.3777,2.3741,-0.1152,-129.185,-186.130,-81.585,391,426,383,411,395,2025-05-27T22:36:56.265526
