SeqNum,AccX,AccY,AccZ,GyroX,GyroY,GyroZ,Flex,Force1,Force2,Force3,Force4,TimestampReception
8558,-0.8989,-0.2640,0.2064,5.915,17.920,10.640,459.00,516,408,412,383,2025-06-04T19:46:01.864446
8559,-0.8706,-0.5475,0.2782,2.240,4.970,-8.540,463.00,462,447,462,408,2025-06-04T19:46:01.864446
8560,-0.8628,-0.3265,0.2494,-0.770,2.415,-7.175,437.00,432,421,428,390,2025-06-04T19:46:01.864446
8561,-0.8150,-0.2508,0.1810,-10.080,0.385,-8.365,402.00,429,408,438,399,2025-06-04T19:46:01.864446
8562,-0.7852,-0.3104,0.1454,-14.070,-2.695,-11.760,348.00,423,433,403,379,2025-06-04T19:46:01.864446
8563,-0.8725,0.0478,0.1620,-18.340,-2.170,-5.950,374.00,397,434,422,391,2025-06-04T19:46:02.000892
8564,-0.7876,-0.0425,0.1562,-18.165,-2.170,-2.660,391.00,408,375,420,345,2025-06-04T19:46:02.000892
8565,-0.9101,-0.4255,0.1449,-18.725,-14.350,-7.840,392.00,414,396,427,368,2025-06-04T19:46:02.000892
8566,-0.9511,-0.3865,0.1527,-13.790,-23.065,-11.060,388.00,407,390,392,381,2025-06-04T19:46:02.000892
8567,-0.9121,-0.4919,0.1362,-14.945,-20.440,-12.950,389.00,404,342,416,351,2025-06-04T19:46:02.000892
8568,-0.8101,-0.5100,0.1444,-9.310,-11.725,-14.315,399.00,400,411,416,373,2025-06-04T19:46:02.000892
8569,-0.8140,-0.5319,0.1484,-11.200,-3.675,-16.275,401.00,400,349,396,350,2025-06-04T19:46:02.000892
8570,-0.9394,-0.6778,0.1298,-14.000,-11.060,-16.450,392.00,417,400,403,365,2025-06-04T19:46:02.000892
8571,-0.8882,-0.4548,0.1103,-16.870,-25.690,-13.615,395.00,420,350,393,379,2025-06-04T19:46:02.000892
8572,-0.6627,-0.6251,0.1908,-6.825,-14.525,-8.435,399.00,416,371,429,374,2025-06-04T19:46:02.000892
8573,-0.8174,-0.6373,0.3089,12.180,-8.785,-6.405,351.00,407,386,403,372,2025-06-04T19:46:02.000892
8574,-0.8369,-0.6417,0.3670,23.940,-9.310,-9.590,385.00,405,408,436,375,2025-06-04T19:46:02.109333
8575,-0.7208,-0.5436,0.3782,25.235,-7.105,-9.975,399.00,413,345,412,376,2025-06-04T19:46:02.109333
8576,-0.6720,-0.4475,0.3274,20.090,-1.715,-6.650,407.00,413,411,412,385,2025-06-04T19:46:02.109333
8577,-0.7540,-0.4421,0.2333,17.220,2.345,-2.030,402.00,416,428,410,390,2025-06-04T19:46:02.109333
8578,-0.8550,-0.3953,0.1859,18.865,-9.030,4.550,401.00,411,397,403,391,2025-06-04T19:46:02.109333
8579,-0.9140,-0.4026,0.2245,18.935,-17.360,11.900,404.00,355,399,416,370,2025-06-04T19:46:02.109333
8580,-0.8115,-0.4734,0.2630,23.345,-19.565,15.330,409.00,380,392,432,350,2025-06-04T19:46:02.109333
8581,-0.8091,-0.5183,0.2386,27.125,-14.805,17.465,399.00,391,410,430,374,2025-06-04T19:46:02.109333
8582,-0.8184,-0.5597,0.2089,30.100,-8.400,18.795,399.00,401,426,421,376,2025-06-04T19:46:02.109333
8583,-0.8599,-0.5910,0.2342,28.245,-0.035,18.375,378.00,410,369,428,395,2025-06-04T19:46:02.156068
8584,-0.8306,-0.6134,0.2484,31.780,10.570,18.515,396.00,374,406,396,396,2025-06-04T19:46:02.156068
8585,-0.7832,-0.4675,0.3528,37.135,23.870,14.105,349.00,383,415,398,387,2025-06-04T19:46:02.156068
8586,-0.7984,-0.2650,0.4241,36.925,24.535,23.310,391.00,400,362,429,384,2025-06-04T19:46:02.156068
8587,-0.7969,-0.4802,0.2796,22.785,33.845,33.565,393.00,397,333,430,389,2025-06-04T19:46:02.202784
8588,-0.6334,-0.4978,0.4631,17.780,19.775,51.065,408.00,407,384,419,380,2025-06-04T19:46:02.202784
8589,-0.6608,-0.5690,0.4021,-11.515,26.635,70.000,323.00,414,407,444,384,2025-06-04T19:46:02.202784
8590,-1.2263,-0.6149,0.2045,-12.320,23.975,62.440,346.00,412,429,436,383,2025-06-04T19:46:02.202784
8591,-1.4196,-0.6739,0.2045,-9.765,1.925,51.065,387.00,408,434,392,352,2025-06-04T19:46:02.338723
8592,-1.2039,-0.6217,0.3255,-12.285,-20.580,45.115,396.00,407,405,420,383,2025-06-04T19:46:02.338723
8593,-1.0028,-0.6017,0.3592,-12.845,-42.945,51.940,390.00,416,423,430,349,2025-06-04T19:46:02.338723
8594,-0.9604,-0.6080,0.3518,-17.780,-59.815,58.940,405.00,410,358,420,343,2025-06-04T19:46:02.338723
8595,-0.9540,-0.6105,0.3133,-19.355,-62.860,61.740,390.00,384,347,409,377,2025-06-04T19:46:02.338723
8596,-0.9565,-0.6451,0.2879,-20.195,-60.620,60.690,396.00,399,400,410,387,2025-06-04T19:46:02.338723
8597,-0.8774,-0.7042,0.2943,-20.860,-54.915,59.675,394.00,415,410,433,388,2025-06-04T19:46:02.338723
8598,-0.8974,-0.6993,0.2743,-20.055,-53.585,57.050,387.00,407,427,414,383,2025-06-04T19:46:02.338723
8599,-0.9521,-0.6568,0.2791,-18.830,-54.950,54.145,384.00,410,410,429,377,2025-06-04T19:46:02.338723
8600,-0.9692,-0.5919,0.2782,-17.850,-57.820,50.190,381.00,405,401,411,386,2025-06-04T19:46:02.494740
8601,-0.9731,-0.5880,0.3099,-18.585,-59.920,47.600,350.00,412,433,419,394,2025-06-04T19:46:02.494740
8602,-0.9740,-0.6115,0.3362,-18.305,-64.120,43.715,399.00,416,431,412,396,2025-06-04T19:46:02.494740
8603,-0.9828,-0.6271,0.3196,-19.635,-69.930,39.620,412.00,414,404,408,407,2025-06-04T19:46:02.494740
8604,-1.0277,-0.6178,0.3343,-20.370,-75.810,34.545,409.00,412,436,375,398,2025-06-04T19:46:02.494740
8605,-1.0355,-0.6207,0.3143,-20.790,-84.280,29.435,418.00,409,440,344,403,2025-06-04T19:46:02.494740
8606,-0.9936,-0.6056,0.3035,-23.345,-89.915,23.625,359.00,415,424,411,389,2025-06-04T19:46:02.494740
8607,-0.9267,-0.5832,0.3001,-23.625,-89.250,16.485,383.00,409,351,402,388,2025-06-04T19:46:02.494740
8608,-0.8745,-0.5466,0.2957,-24.115,-83.510,10.010,371.00,408,349,394,354,2025-06-04T19:46:02.494740
8609,-0.8550,-0.5197,0.3021,-23.030,-74.795,3.885,403.00,407,389,408,388,2025-06-04T19:46:02.494740
8610,-0.8574,-0.4787,0.3167,-22.575,-68.145,-1.120,414.00,388,423,426,399,2025-06-04T19:46:02.494740
8611,-0.8569,-0.4475,0.3265,-22.085,-64.505,-4.550,416.00,343,403,427,392,2025-06-04T19:46:02.494740
8612,-0.8525,-0.3938,0.3636,-21.315,-65.415,-6.475,376.00,347,390,411,393,2025-06-04T19:46:02.494740
8613,-0.8467,-0.3616,0.3909,-19.880,-71.645,-7.595,397.00,369,342,407,384,2025-06-04T19:46:02.494740
8614,-0.8642,-0.3616,0.3514,-19.915,-79.905,-10.010,371.00,389,418,377,378,2025-06-04T19:46:02.494740
8615,-0.8452,-0.3675,0.3265,-17.080,-85.855,-13.475,346.00,400,305,383,386,2025-06-04T19:46:02.617636
8616,-0.8130,-0.3753,0.3289,-15.015,-85.505,-16.205,373.00,404,387,408,395,2025-06-04T19:46:02.617636
8617,-0.7657,-0.3714,0.3489,-14.525,-72.765,-17.640,394.00,379,393,407,385,2025-06-04T19:46:02.617636
8618,-0.7237,-0.3831,0.3284,-12.740,-74.375,-17.815,385.00,388,413,421,394,2025-06-04T19:46:02.617636
8619,-0.7330,-0.3880,0.3406,-11.270,-63.770,-17.605,383.00,367,416,423,395,2025-06-04T19:46:02.617636
8620,-0.7662,-0.3914,0.3543,-8.295,-53.690,-16.555,402.00,356,397,406,382,2025-06-04T19:46:02.617636
8621,-0.8272,-0.3953,0.3562,-6.300,-50.995,-14.175,351.00,382,424,425,379,2025-06-04T19:46:02.617636
8622,-0.8589,-0.3821,0.3963,-5.705,-55.265,-10.325,372.00,392,421,403,380,2025-06-04T19:46:02.617636
8623,-0.8579,-0.3802,0.4124,-4.760,-63.140,-6.720,399.00,405,429,400,343,2025-06-04T19:46:02.617636
8624,-0.8682,-0.3987,0.4016,-3.710,-70.210,-1.540,414.00,407,404,380,379,2025-06-04T19:46:02.667506
8625,-0.8735,-0.4060,0.4207,-1.540,-74.970,1.925,401.00,415,423,388,350,2025-06-04T19:46:02.667506
8626,-0.7920,-0.4021,0.4319,1.750,-74.445,7.350,361.00,418,356,395,382,2025-06-04T19:46:02.667506
8627,-0.7867,-0.3928,0.4343,3.185,-70.805,13.160,388.00,421,412,431,389,2025-06-04T19:46:02.667506
8628,-0.8145,-0.3806,0.4646,6.265,-62.895,17.815,412.00,413,344,378,382,2025-06-04T19:46:02.819679
8629,-0.7871,-0.3816,0.4817,10.570,-56.210,22.435,406.00,411,396,396,359,2025-06-04T19:46:02.819679
8630,-0.7989,-0.3450,0.4958,11.410,-51.205,26.005,420.00,420,431,423,375,2025-06-04T19:46:02.819679
8631,-0.7857,-0.3318,0.4900,13.650,-45.500,29.155,410.00,416,356,381,370,2025-06-04T19:46:02.819679
8632,-0.8062,-0.3138,0.5187,15.435,-38.780,31.675,417.00,416,416,419,376,2025-06-04T19:46:02.819679
8633,-0.8330,-0.3050,0.5519,18.095,-36.050,34.475,404.00,384,432,424,352,2025-06-04T19:46:02.819679
8634,-0.8647,-0.2816,0.5836,17.955,-36.855,37.380,361.00,404,384,395,379,2025-06-04T19:46:02.819679
8635,-0.8789,-0.2723,0.5880,19.880,-40.635,40.600,343.00,400,406,411,373,2025-06-04T19:46:02.819679
8636,-0.8725,-0.2469,0.6071,22.925,-44.275,44.345,389.00,404,424,410,392,2025-06-04T19:46:02.819679
8637,-0.8477,-0.2147,0.6388,25.410,-44.275,47.460,373.00,405,402,353,383,2025-06-04T19:46:02.819679
8638,-0.8223,-0.1923,0.6529,27.615,-41.930,49.735,383.00,404,430,406,390,2025-06-04T19:46:02.819679
8639,-0.8218,-0.1747,0.6520,29.610,-38.325,51.800,410.00,404,363,336,359,2025-06-04T19:46:02.820764
8640,-0.8057,-0.1586,0.6564,32.620,-34.195,53.935,399.00,413,384,349,370,2025-06-04T19:46:02.820764
8641,-0.7954,-0.1444,0.6788,35.245,-28.070,56.770,398.00,425,340,398,390,2025-06-04T19:46:02.927949
8642,-0.7691,-0.1249,0.7027,37.030,-20.685,60.060,408.00,425,397,391,396,2025-06-04T19:46:02.927949
8643,-0.7608,-0.1064,0.7037,38.010,-12.425,63.560,375.00,425,402,395,382,2025-06-04T19:46:02.927949
8644,-0.7496,-0.0893,0.7105,39.515,-5.425,66.745,390.00,429,413,386,394,2025-06-04T19:46:02.927949
8645,-0.7544,-0.0747,0.7086,40.250,-0.385,70.350,355.00,425,414,380,357,2025-06-04T19:46:02.927949
8646,-0.7613,-0.0576,0.7164,40.425,0.700,73.500,336.00,392,400,297,366,2025-06-04T19:46:02.927949
8647,-0.7657,-0.0561,0.7017,41.125,-1.120,76.335,398.00,402,395,382,334,2025-06-04T19:46:02.927949
8648,-0.7915,-0.0439,0.6993,41.685,-5.250,78.960,350.00,411,414,349,368,2025-06-04T19:46:02.927949
8649,-0.7832,-0.0190,0.6974,42.665,-9.065,80.465,379.00,404,417,330,348,2025-06-04T19:46:02.975690
8650,-0.7749,-0.0015,0.7139,43.190,-11.270,80.990,394.00,412,414,386,364,2025-06-04T19:46:02.975690
8651,-0.7637,0.0107,0.7198,45.255,-11.235,81.620,369.00,413,402,390,382,2025-06-04T19:46:02.975690
8652,-0.7515,0.0264,0.7086,45.885,-8.155,82.320,400.00,407,420,371,386,2025-06-04T19:46:02.975690
8653,-0.7520,0.0429,0.7091,46.865,-3.535,82.950,392.00,377,431,387,383,2025-06-04T19:46:03.023002
8654,-0.7720,0.0620,0.7154,47.810,0.875,84.105,396.00,389,402,414,345,2025-06-04T19:46:03.023002
8655,-0.7681,0.0644,0.7032,50.015,4.445,86.940,381.00,404,407,394,370,2025-06-04T19:46:03.023002
8656,-0.7720,0.0791,0.6934,52.780,7.385,91.140,342.00,374,431,398,372,2025-06-04T19:46:03.023002
8657,-0.7584,0.1137,0.7066,55.265,11.200,95.480,372.00,356,389,411,383,2025-06-04T19:46:03.134438
8658,-0.7359,0.1425,0.7081,56.525,15.400,99.120,371.00,388,432,398,383,2025-06-04T19:46:03.134438
8659,-0.7169,0.1576,0.6876,56.490,18.620,102.760,388.00,400,435,412,362,2025-06-04T19:46:03.134438
8660,-0.7061,0.1859,0.6773,57.715,21.455,106.435,409.00,402,425,411,369,2025-06-04T19:46:03.134438
8661,-0.6974,0.2264,0.6554,57.155,24.115,109.270,405.00,402,408,373,368,2025-06-04T19:46:03.134438
8662,-0.6759,0.2494,0.6281,56.945,26.460,110.670,350.00,386,428,357,367,2025-06-04T19:46:03.134438
8663,-0.6925,0.2718,0.6090,55.300,28.035,111.265,387.00,399,423,414,342,2025-06-04T19:46:03.134438
8664,-0.7042,0.2767,0.5939,52.990,27.545,111.650,364.00,398,420,303,356,2025-06-04T19:46:03.134438
8665,-0.7105,0.3089,0.6022,51.940,26.530,112.070,386.00,411,424,388,373,2025-06-04T19:46:03.134438
8666,-0.7013,0.3118,0.5763,48.720,26.775,112.455,381.00,403,426,398,345,2025-06-04T19:46:03.209439
8667,-0.7017,0.3211,0.5636,47.425,27.930,113.470,391.00,413,403,423,324,2025-06-04T19:46:03.209439
8668,-0.6812,0.3357,0.5534,45.850,31.815,114.695,364.00,411,405,426,365,2025-06-04T19:46:03.209439
8669,-0.6793,0.3631,0.5568,43.960,37.415,114.590,376.00,420,378,427,362,2025-06-04T19:46:03.209439
8670,-0.6881,0.3772,0.5519,40.950,43.330,113.330,389.00,407,423,420,380,2025-06-04T19:46:03.209439
8671,-0.6900,0.3875,0.5485,38.430,46.935,111.615,385.00,400,421,348,356,2025-06-04T19:46:03.209439
8672,-0.7027,0.3967,0.5339,36.190,48.195,110.390,350.00,372,371,407,375,2025-06-04T19:46:03.255583
8673,-0.7325,0.3967,0.5456,35.245,44.660,108.045,368.00,390,411,406,386,2025-06-04T19:46:03.255583
8674,-0.7222,0.4060,0.5495,32.200,40.880,105.490,402.00,395,421,420,343,2025-06-04T19:46:03.255583
8675,-0.7193,0.4333,0.5632,31.745,36.225,103.705,382.00,344,380,408,360,2025-06-04T19:46:03.255583
8676,-0.7076,0.4236,0.5617,30.695,29.365,101.640,403.00,367,413,412,299,2025-06-04T19:46:03.302353
8677,-0.6856,0.4587,0.5510,28.945,23.205,98.595,400.00,391,409,430,342,2025-06-04T19:46:03.302353
8678,-0.6242,0.4660,0.5480,29.015,20.580,94.920,311.00,381,408,428,369,2025-06-04T19:46:03.302353
8679,-0.5602,0.4621,0.5305,27.685,19.810,90.720,346.00,392,413,400,345,2025-06-04T19:46:03.351947
8680,-0.5441,0.4880,0.4934,25.235,20.090,85.400,367.00,409,425,401,353,2025-06-04T19:46:03.351947
8681,-0.5305,0.4846,0.4782,23.835,22.190,79.520,333.00,407,429,424,372,2025-06-04T19:46:03.351947
8682,-0.5041,0.5061,0.4436,22.120,26.285,73.605,375.00,401,433,395,378,2025-06-04T19:46:03.351947
8683,-0.4860,0.5397,0.4441,20.405,31.535,67.795,340.00,346,436,419,384,2025-06-04T19:46:03.612438
8684,-0.4695,0.5588,0.4368,17.150,38.710,60.340,387.00,378,431,420,380,2025-06-04T19:46:03.612438
8685,-0.4778,0.5778,0.4363,14.770,44.695,53.515,403.00,361,399,391,376,2025-06-04T19:46:03.612438
8686,-0.4948,0.5817,0.4163,11.935,49.420,47.530,392.00,382,435,422,375,2025-06-04T19:46:03.612438
8687,-0.5300,0.6007,0.3982,8.365,51.485,41.545,382.00,366,420,412,372,2025-06-04T19:46:03.612438
8688,-0.5666,0.5924,0.3914,5.460,49.945,37.345,399.00,385,429,431,365,2025-06-04T19:46:03.612438
8689,-0.5866,0.6041,0.3894,2.205,44.625,32.375,383.00,385,423,343,364,2025-06-04T19:46:03.612438
8690,-0.6227,0.6134,0.3963,-0.980,37.520,27.930,366.00,398,401,411,373,2025-06-04T19:46:03.612438
8691,-0.6339,0.6261,0.3992,-3.990,29.925,23.485,381.00,399,397,423,363,2025-06-04T19:46:03.612438
8692,-0.6266,0.6349,0.4050,-6.510,24.115,19.040,398.00,414,304,364,333,2025-06-04T19:46:03.613524
8693,-0.6505,0.6559,0.4070,-9.380,19.600,14.455,411.00,401,406,372,366,2025-06-04T19:46:03.613524
8694,-0.6368,0.6559,0.4168,-11.025,17.220,10.465,395.00,400,398,368,350,2025-06-04T19:46:03.613524
8695,-0.6515,0.6593,0.4182,-12.985,14.840,6.930,402.00,402,431,406,333,2025-06-04T19:46:03.613524
8696,-0.6720,0.6471,0.4153,-13.650,10.150,3.955,397.00,416,420,419,364,2025-06-04T19:46:03.613524
8697,-0.6910,0.6339,0.4182,-14.560,4.480,1.505,396.00,419,423,424,369,2025-06-04T19:46:03.613524
8698,-0.6939,0.6300,0.4324,-15.435,-0.805,-0.945,395.00,413,429,438,375,2025-06-04T19:46:03.743695
8699,-0.6759,0.6149,0.4368,-14.945,-4.480,-2.870,379.00,405,438,402,384,2025-06-04T19:46:03.743695
8700,-0.6637,0.6076,0.4372,-15.015,-7.315,-3.920,349.00,411,410,409,378,2025-06-04T19:46:03.743695
8701,-0.6549,0.6002,0.4246,-15.190,-8.610,-5.005,386.00,410,387,424,389,2025-06-04T19:46:03.743695
8702,-0.6329,0.5880,0.4119,-13.545,-9.450,-5.670,384.00,417,407,412,359,2025-06-04T19:46:03.743695
8703,-0.6285,0.5929,0.4246,-11.725,-9.135,-6.405,399.00,419,417,424,379,2025-06-04T19:46:03.743695
8704,-0.6324,0.5934,0.4333,-11.690,-9.030,-7.140,380.00,424,404,364,387,2025-06-04T19:46:03.743695
8705,-0.6276,0.5944,0.4353,-10.710,-9.275,-8.400,396.00,418,411,386,394,2025-06-04T19:46:03.743695
8706,-0.6173,0.6012,0.4397,-8.540,-9.415,-8.820,403.00,420,408,403,346,2025-06-04T19:46:03.744449
8707,-0.6290,0.6071,0.4211,-8.715,-10.080,-9.380,398.00,389,401,414,375,2025-06-04T19:46:03.744449
8708,-0.6349,0.5998,0.3958,-7.910,-11.620,-10.710,386.00,406,439,400,306,2025-06-04T19:46:03.744449
8709,-0.6261,0.6056,0.3880,-5.530,-13.755,-11.970,402.00,416,443,339,341,2025-06-04T19:46:03.744449
8710,-0.6183,0.6159,0.4016,-4.550,-15.015,-13.440,404.00,419,416,365,353,2025-06-04T19:46:03.744449
8711,-0.6183,0.6124,0.3924,-4.165,-14.875,-15.505,393.00,406,401,388,380,2025-06-04T19:46:03.745443
8712,-0.5915,0.6056,0.3802,-3.185,-14.490,-16.975,404.00,414,365,404,382,2025-06-04T19:46:03.745443
8713,-0.5895,0.6080,0.3748,-2.590,-13.230,-18.445,397.00,412,392,406,381,2025-06-04T19:46:03.745443
8714,-0.5846,0.6139,0.3787,-0.105,-12.005,-20.300,403.00,404,417,417,386,2025-06-04T19:46:03.745443
8715,-0.5958,0.6173,0.3767,0.000,-10.850,-22.960,392.00,380,405,419,382,2025-06-04T19:46:04.045561
8716,-0.6110,0.6061,0.3665,-0.385,-10.710,-26.075,388.00,402,433,408,376,2025-06-04T19:46:04.045561
8717,-0.6168,0.5949,0.3660,1.015,-10.640,-28.385,409.00,405,435,421,383,2025-06-04T19:46:04.046589
8718,-0.6281,0.5871,0.3806,2.625,-10.360,-30.135,394.00,383,427,411,379,2025-06-04T19:46:04.046589
8719,-0.6349,0.5836,0.4085,4.340,-9.870,-30.975,403.00,393,424,410,391,2025-06-04T19:46:04.046589
8720,-0.6637,0.5768,0.4260,5.040,-10.395,-31.010,411.00,402,384,379,387,2025-06-04T19:46:04.046589
8721,-0.6871,0.5627,0.4436,6.580,-11.760,-30.555,408.00,410,424,420,348,2025-06-04T19:46:04.050979
8722,-0.7120,0.5656,0.4490,8.155,-13.720,-29.925,390.00,414,363,393,371,2025-06-04T19:46:04.050979
8723,-0.7257,0.5671,0.4480,9.380,-15.610,-29.435,375.00,416,420,394,375,2025-06-04T19:46:04.050979
8724,-0.7476,0.5700,0.4524,10.360,-16.940,-29.400,386.00,386,413,400,310,2025-06-04T19:46:04.050979
8725,-0.7491,0.5788,0.4660,12.145,-17.780,-29.330,392.00,406,396,299,348,2025-06-04T19:46:04.050979
8726,-0.7764,0.5719,0.4699,13.055,-18.690,-29.750,401.00,413,395,391,365,2025-06-04T19:46:04.050979
8727,-0.7920,0.5612,0.4695,14.490,-20.020,-30.065,402.00,386,413,406,365,2025-06-04T19:46:04.050979
8728,-0.8130,0.5646,0.4782,15.750,-21.280,-30.170,385.00,392,428,403,362,2025-06-04T19:46:04.050979
8729,-0.8150,0.5612,0.4841,16.240,-21.350,-29.995,392.00,406,428,412,381,2025-06-04T19:46:04.050979
8730,-0.8028,0.5505,0.4787,16.625,-19.215,-28.875,390.00,415,404,385,387,2025-06-04T19:46:04.163688
8731,-0.7754,0.5344,0.4656,16.660,-14.665,-26.670,395.00,413,426,430,383,2025-06-04T19:46:04.163688
8732,-0.7593,0.5241,0.4538,16.310,-8.085,-24.010,401.00,406,432,427,371,2025-06-04T19:46:04.163688
8733,-0.7481,0.5187,0.4504,15.260,-1.575,-20.685,389.00,406,425,407,366,2025-06-04T19:46:04.163688
8734,-0.7335,0.5251,0.4514,13.580,4.025,-17.045,405.00,400,431,398,384,2025-06-04T19:46:04.163688
8735,-0.7300,0.5348,0.4563,10.535,7.490,-13.545,398.00,413,422,430,369,2025-06-04T19:46:04.163688
8736,-0.7388,0.5344,0.4475,7.315,8.015,-10.500,406.00,386,407,406,372,2025-06-04T19:46:04.163688
8737,-0.7574,0.5300,0.4475,4.690,5.355,-8.365,413.00,405,424,378,375,2025-06-04T19:46:04.163688
8738,-0.7618,0.5358,0.4504,0.840,-0.140,-5.810,399.00,377,397,414,389,2025-06-04T19:46:04.163688
8739,-0.7749,0.5319,0.4426,-3.010,-6.370,-3.990,398.00,392,433,346,394,2025-06-04T19:46:04.163688
8740,-0.7813,0.5231,0.4407,-5.880,-14.805,-1.715,400.00,402,400,409,398,2025-06-04T19:46:04.163688
8741,-0.7930,0.5134,0.4514,-8.470,-23.835,0.595,355.00,397,422,428,360,2025-06-04T19:46:04.163688
8742,-0.7881,0.5119,0.4524,-10.570,-32.725,2.450,348.00,384,435,425,367,2025-06-04T19:46:04.163688
8743,-0.7891,0.5065,0.4416,-12.040,-39.690,3.185,387.00,384,429,423,370,2025-06-04T19:46:04.163688
8744,-0.7906,0.5070,0.4416,-11.550,-45.150,2.730,362.00,396,428,429,377,2025-06-04T19:46:04.163688
8745,-0.7950,0.5075,0.4407,-11.760,-48.930,1.400,392.00,405,425,422,392,2025-06-04T19:46:04.163688
8746,-0.7871,0.4973,0.4265,-11.550,-51.450,-0.630,391.00,397,414,427,395,2025-06-04T19:46:04.163688
8747,-0.7681,0.4704,0.4314,-9.765,-52.220,-2.205,380.00,384,403,417,380,2025-06-04T19:46:04.163688
8748,-0.7613,0.4714,0.4470,-7.805,-51.835,-3.570,348.00,400,397,421,388,2025-06-04T19:46:04.163688
8749,-0.7540,0.4612,0.4465,-6.160,-50.505,-5.355,384.00,399,418,353,390,2025-06-04T19:46:04.254179
8750,-0.7183,0.4451,0.4392,-4.410,-47.985,-7.140,402.00,399,388,354,395,2025-06-04T19:46:04.254179
8751,-0.6886,0.4333,0.4343,-2.625,-44.555,-9.310,400.00,405,335,398,382,2025-06-04T19:46:04.254179
8752,-0.6681,0.4343,0.4358,0.490,-39.935,-11.585,396.00,375,326,415,374,2025-06-04T19:46:04.254179
8753,-0.6515,0.4372,0.4416,2.940,-35.910,-14.245,390.00,357,402,361,383,2025-06-04T19:46:04.254179
8754,-0.6320,0.4382,0.4333,4.480,-31.325,-16.975,401.00,383,398,411,386,2025-06-04T19:46:04.354563
8755,-0.6178,0.4455,0.4280,6.790,-26.845,-19.775,389.00,390,420,416,392,2025-06-04T19:46:04.354563
8756,-0.6202,0.4612,0.4324,9.275,-20.790,-22.785,407.00,393,404,413,375,2025-06-04T19:46:04.354563
8757,-0.6007,0.4612,0.4348,11.410,-15.890,-24.885,403.00,391,411,411,380,2025-06-04T19:46:04.354563
8758,-0.6105,0.4758,0.4353,11.795,-10.640,-26.110,402.00,398,382,431,388,2025-06-04T19:46:04.568051
8759,-0.6324,0.4792,0.4397,12.950,-7.140,-27.335,396.00,380,372,362,383,2025-06-04T19:46:04.568051
8760,-0.6520,0.4826,0.4431,13.860,-6.090,-27.755,391.00,396,415,405,383,2025-06-04T19:46:04.568051
8761,-0.6803,0.4875,0.4490,13.265,-6.650,-28.035,378.00,375,415,393,383,2025-06-04T19:46:04.568051
8762,-0.6905,0.4943,0.4519,13.265,-8.015,-27.860,389.00,399,406,398,381,2025-06-04T19:46:04.568051
8763,-0.6866,0.4978,0.4548,12.705,-8.365,-27.055,403.00,399,423,392,392,2025-06-04T19:46:04.568051
8764,-0.6939,0.4982,0.4534,12.285,-7.455,-25.865,350.00,403,424,416,395,2025-06-04T19:46:04.568051
8765,-0.6856,0.5051,0.4524,11.970,-4.795,-24.500,381.00,416,413,405,383,2025-06-04T19:46:04.568051
8766,-0.6891,0.5085,0.4563,11.340,-1.085,-22.470,381.00,417,416,354,341,2025-06-04T19:46:04.568051
8767,-0.6895,0.5226,0.4695,10.675,2.905,-20.580,378.00,418,352,402,340,2025-06-04T19:46:04.568051
8768,-0.7081,0.5226,0.4763,9.485,5.915,-18.130,382.00,422,373,406,323,2025-06-04T19:46:04.568051
8769,-0.7135,0.5280,0.4768,8.330,6.335,-15.435,394.00,413,399,413,346,2025-06-04T19:46:04.568051
8770,-0.7252,0.5266,0.4675,6.370,5.705,-12.705,365.00,417,407,405,354,2025-06-04T19:46:04.568051
8771,-0.7266,0.5295,0.4587,5.250,4.270,-10.395,373.00,382,425,423,372,2025-06-04T19:46:04.568051
8772,-0.7291,0.5339,0.4543,4.060,3.185,-8.190,400.00,363,434,414,387,2025-06-04T19:46:04.568051
8773,-0.7144,0.5422,0.4534,2.905,2.905,-6.055,409.00,376,378,440,394,2025-06-04T19:46:04.568051
8774,-0.7178,0.5436,0.4529,1.750,3.080,-4.200,396.00,386,419,412,357,2025-06-04T19:46:04.568051
8775,-0.7144,0.5392,0.4470,0.455,3.640,-2.345,407.00,402,400,426,379,2025-06-04T19:46:04.568051
8776,-0.7242,0.5373,0.4514,-0.280,4.095,-1.155,397.00,405,411,430,386,2025-06-04T19:46:04.568051
8777,-0.7271,0.5348,0.4480,-1.225,4.235,0.350,406.00,388,406,403,372,2025-06-04T19:46:04.568051
8778,-0.7359,0.5275,0.4441,-1.960,3.955,1.785,401.00,405,408,432,379,2025-06-04T19:46:04.568051
8779,-0.7466,0.5207,0.4407,-2.520,3.465,3.045,400.00,382,423,431,370,2025-06-04T19:46:04.568051
8780,-0.7608,0.5139,0.4387,-2.660,3.080,4.235,350.00,393,431,423,378,2025-06-04T19:46:04.568051
8781,-0.7657,0.5056,0.4387,-2.695,2.135,5.495,341.00,397,402,419,392,2025-06-04T19:46:04.848501
8782,-0.7842,0.5065,0.4387,-3.150,1.260,6.790,386.00,398,420,425,381,2025-06-04T19:46:04.848501
8783,-0.8018,0.4953,0.4363,-2.975,-0.140,7.840,343.00,407,434,410,392,2025-06-04T19:46:04.848501
8784,-0.8081,0.4919,0.4372,-2.485,-1.785,8.855,344.00,405,422,418,395,2025-06-04T19:46:04.848501
8785,-0.8189,0.4860,0.4446,-1.820,-3.150,9.975,375.00,400,366,431,378,2025-06-04T19:46:04.848501
8786,-0.8179,0.4821,0.4504,-0.875,-4.410,10.885,388.00,409,418,423,375,2025-06-04T19:46:04.848501
8787,-0.8189,0.4782,0.4509,-0.245,-5.180,11.550,404.00,379,422,380,334,2025-06-04T19:46:04.848501
8788,-0.8145,0.4724,0.4451,1.050,-5.600,11.970,393.00,388,434,402,340,2025-06-04T19:46:04.848501
8789,-0.8159,0.4680,0.4431,2.380,-5.390,12.145,350.00,389,434,350,370,2025-06-04T19:46:04.848501
8790,-0.8072,0.4616,0.4412,4.165,-4.900,12.075,335.00,386,430,372,371,2025-06-04T19:46:04.848501
8791,-0.7901,0.4587,0.4402,5.635,-4.165,12.215,374.00,396,358,391,371,2025-06-04T19:46:04.848501
8792,-0.7832,0.4616,0.4426,6.930,-2.590,12.425,371.00,401,386,393,382,2025-06-04T19:46:04.848501
8793,-0.7842,0.4597,0.4426,8.330,-1.610,12.495,399.00,403,409,393,391,2025-06-04T19:46:04.848501
8794,-0.7852,0.4607,0.4465,9.135,-1.855,12.390,403.00,401,411,425,396,2025-06-04T19:46:04.848501
8795,-0.7759,0.4660,0.4465,9.800,-3.150,12.040,395.00,411,418,421,386,2025-06-04T19:46:04.848501
8796,-0.7725,0.4660,0.4451,9.730,-4.480,11.655,397.00,413,410,434,355,2025-06-04T19:46:04.947857
8797,-0.7476,0.4743,0.4382,10.290,-5.110,11.025,348.00,403,422,444,343,2025-06-04T19:46:04.947857
8798,-0.7364,0.4807,0.4348,10.115,-4.620,10.570,378.00,415,415,420,371,2025-06-04T19:46:04.947857
8799,-0.7344,0.4860,0.4348,9.660,-3.640,9.765,375.00,402,402,419,381,2025-06-04T19:46:04.949104
8800,-0.7271,0.4914,0.4368,9.345,-2.940,9.065,336.00,409,424,425,372,2025-06-04T19:46:04.949104
8801,-0.7330,0.4958,0.4333,8.575,-3.045,8.575,378.00,418,434,411,367,2025-06-04T19:46:04.949104
8802,-0.7398,0.5026,0.4348,7.980,-4.515,7.805,388.00,410,411,418,387,2025-06-04T19:46:04.949104
8803,-0.7486,0.5065,0.4324,7.000,-6.510,6.895,383.00,413,392,392,382,2025-06-04T19:46:04.950071
8804,-0.7413,0.5100,0.4319,6.160,-8.960,6.370,353.00,415,420,402,390,2025-06-04T19:46:04.950071
8805,-0.7325,0.5109,0.4294,5.145,-10.465,6.230,388.00,391,405,404,384,2025-06-04T19:46:04.950071
8806,-0.7232,0.5212,0.4241,4.690,-11.130,6.125,390.00,397,400,370,380,2025-06-04T19:46:04.950071
8807,-0.7174,0.5226,0.4143,4.130,-10.360,5.635,348.00,410,410,377,379,2025-06-04T19:46:04.950071
8808,-0.7096,0.5290,0.4133,3.885,-9.065,5.250,377.00,409,341,384,388,2025-06-04T19:46:04.950071
8809,-0.7086,0.5334,0.4202,3.465,-7.490,4.935,360.00,416,357,401,373,2025-06-04T19:46:04.950071
8810,-0.7066,0.5339,0.4172,2.870,-6.545,4.655,369.00,407,406,405,368,2025-06-04T19:46:04.950071
8811,-0.7222,0.5397,0.4124,2.415,-6.650,4.690,355.00,406,407,409,334,2025-06-04T19:46:04.950071
8812,-0.7300,0.5461,0.4085,1.820,-7.315,4.865,391.00,411,402,428,354,2025-06-04T19:46:04.950071
8813,-0.7354,0.5505,0.4099,1.890,-8.750,5.390,401.00,411,407,392,373,2025-06-04T19:46:05.002639
8814,-0.7452,0.5558,0.4182,1.540,-10.920,5.810,387.00,406,430,421,380,2025-06-04T19:46:05.002639
8815,-0.7442,0.5695,0.4177,1.610,-13.405,6.125,370.00,416,424,372,391,2025-06-04T19:46:05.002639
8816,-0.7408,0.5788,0.4128,2.065,-15.470,6.440,389.00,416,437,407,393,2025-06-04T19:46:05.002639
8817,-0.7315,0.5958,0.4192,2.800,-16.310,6.650,388.00,417,411,421,379,2025-06-04T19:46:05.152704
8818,-0.7349,0.6061,0.4290,3.465,-16.170,6.790,376.00,410,402,433,390,2025-06-04T19:46:05.152704
8819,-0.7447,0.6124,0.4353,4.060,-16.625,7.070,364.00,418,354,357,377,2025-06-04T19:46:05.152704
8820,-0.7544,0.6183,0.4343,4.725,-17.885,8.050,385.00,410,416,423,385,2025-06-04T19:46:05.152704
8821,-0.7515,0.6212,0.4387,5.215,-18.690,9.835,403.00,411,406,421,388,2025-06-04T19:46:05.152704
8822,-0.7544,0.6227,0.4451,5.915,-18.970,11.795,393.00,408,377,420,397,2025-06-04T19:46:05.152704
8823,-0.7481,0.6266,0.4499,6.020,-18.585,13.965,387.00,406,392,439,395,2025-06-04T19:46:05.152704
8824,-0.7432,0.6193,0.4431,5.775,-18.270,16.205,402.00,382,412,431,390,2025-06-04T19:46:05.152704
8825,-0.7422,0.6124,0.4387,5.635,-17.780,18.690,417.00,394,426,425,397,2025-06-04T19:46:05.152704
8826,-0.7320,0.6041,0.4314,5.565,-17.290,21.140,405.00,402,419,424,389,2025-06-04T19:46:05.152704
8827,-0.7222,0.6056,0.4285,5.040,-16.800,23.520,351.00,407,346,408,390,2025-06-04T19:46:05.152704
8828,-0.7096,0.6046,0.4290,4.445,-16.275,25.515,381.00,408,388,370,352,2025-06-04T19:46:05.152704
8829,-0.6886,0.6012,0.4192,3.220,-15.470,27.160,395.00,413,408,369,377,2025-06-04T19:46:05.152704
8830,-0.6642,0.5905,0.4041,2.275,-13.755,28.840,345.00,411,397,394,381,2025-06-04T19:46:05.284573
8831,-0.6471,0.5827,0.3943,1.575,-10.955,29.645,386.00,353,409,405,341,2025-06-04T19:46:05.284573
8832,-0.6476,0.5773,0.4002,1.295,-7.910,30.030,377.00,350,418,434,359,2025-06-04T19:46:05.284573
8833,-0.6383,0.5749,0.3933,0.525,-5.635,30.310,394.00,374,413,409,380,2025-06-04T19:46:05.284573
8834,-0.6378,0.5685,0.3836,-0.560,-4.515,30.520,384.00,351,406,434,385,2025-06-04T19:46:05.284573
8835,-0.6295,0.5602,0.3782,-1.015,-3.500,30.835,390.00,379,394,356,339,2025-06-04T19:46:05.284573
8836,-0.6120,0.5485,0.3719,-1.505,-2.695,31.080,381.00,386,417,334,356,2025-06-04T19:46:05.284573
8837,-0.5944,0.5505,0.3665,-2.030,-2.170,31.430,360.00,362,415,384,344,2025-06-04T19:46:05.285622
8838,-0.5724,0.5470,0.3582,-2.240,-0.455,31.710,378.00,379,407,394,342,2025-06-04T19:46:05.285622
8839,-0.5514,0.5568,0.3431,-2.240,2.520,31.710,391.00,398,428,355,367,2025-06-04T19:46:05.285622
8840,-0.5266,0.5793,0.3299,-2.170,7.315,31.150,396.00,403,406,394,353,2025-06-04T19:46:05.386025
8841,-0.5217,0.5978,0.3240,-2.380,13.755,29.330,383.00,400,405,416,382,2025-06-04T19:46:05.386025
8842,-0.5202,0.6163,0.3148,-2.730,20.475,26.705,392.00,371,411,435,375,2025-06-04T19:46:05.386025
8843,-0.5012,0.6373,0.3089,-3.885,27.020,24.675,383.00,382,413,402,376,2025-06-04T19:46:05.386025
8844,-0.4914,0.6451,0.2904,-5.670,33.915,23.380,397.00,394,367,406,392,2025-06-04T19:46:05.386025
8845,-0.4968,0.6622,0.2801,-7.280,40.880,22.575,393.00,388,390,382,377,2025-06-04T19:46:05.386025
8846,-0.4851,0.6730,0.2713,-9.555,47.180,21.875,385.00,405,406,349,382,2025-06-04T19:46:05.386025
8847,-0.4851,0.7032,0.2752,-12.635,52.710,21.490,386.00,378,399,401,372,2025-06-04T19:46:05.386025
8848,-0.5051,0.7432,0.2772,-15.750,56.245,20.930,357.00,389,409,340,378,2025-06-04T19:46:05.689384
8849,-0.5183,0.7569,0.2821,-18.690,58.380,20.405,391.00,369,344,410,347,2025-06-04T19:46:05.689384
8850,-0.5485,0.7798,0.2806,-22.295,58.345,19.810,398.00,383,392,350,327,2025-06-04T19:46:05.689384
8851,-0.5544,0.7964,0.2655,-25.725,57.470,20.125,388.00,405,399,399,345,2025-06-04T19:46:05.689384
8852,-0.5919,0.8042,0.2801,-28.980,53.060,20.615,391.00,408,399,416,329,2025-06-04T19:46:05.689384
8853,-0.6090,0.7954,0.2684,-33.250,46.725,21.455,384.00,410,381,397,360,2025-06-04T19:46:05.689384
8854,-0.6529,0.8257,0.2811,-35.595,40.040,21.350,391.00,414,410,393,360,2025-06-04T19:46:05.689384
8855,-0.6251,0.7915,0.3152,-38.080,35.455,19.705,405.00,415,408,359,375,2025-06-04T19:46:05.689384
8856,-0.6676,0.7959,0.3518,-41.615,34.020,19.285,404.00,410,406,342,341,2025-06-04T19:46:05.689384
8857,-0.6198,0.7706,0.3816,-44.520,35.490,19.215,388.00,375,420,409,354,2025-06-04T19:46:05.689384
8858,-0.6442,0.7544,0.4153,-46.585,36.225,18.550,396.00,371,409,424,376,2025-06-04T19:46:05.689384
8859,-0.7076,0.7125,0.4241,-50.575,34.125,18.235,398.00,384,409,407,376,2025-06-04T19:46:05.689384
8860,-0.7969,0.7266,0.4094,-53.725,26.460,20.370,406.00,406,411,404,344,2025-06-04T19:46:05.690444
8861,-0.8057,0.7047,0.3977,-55.685,16.415,24.745,392.00,412,426,426,376,2025-06-04T19:46:05.690444
8862,-0.8760,0.7174,0.4089,-58.205,4.375,29.785,399.00,415,431,348,340,2025-06-04T19:46:05.690444
8863,-1.7773,-0.6832,0.0020,-67.480,-60.795,28.490,351.00,419,411,405,357,2025-06-04T19:46:05.690444
8864,-1.1131,0.1532,1.1375,-29.715,-98.140,27.825,392.00,411,396,389,362,2025-06-04T19:46:05.690444
8865,-0.2747,0.2801,0.9262,-13.160,-47.635,38.640,353.00,406,426,388,349,2025-06-04T19:46:05.690444
8866,-0.2396,0.6642,1.0375,8.085,-0.490,48.195,389.00,407,421,419,327,2025-06-04T19:46:05.690444
8867,-0.8296,0.5851,0.6134,8.750,23.660,46.725,387.00,415,404,423,355,2025-06-04T19:46:05.690444
8868,-0.9306,0.6017,0.4797,14.840,-1.155,43.505,390.00,418,441,422,372,2025-06-04T19:46:05.789741
8869,-0.4943,0.6525,0.3680,5.320,4.130,44.135,413.00,408,428,410,385,2025-06-04T19:46:05.789741
8870,-0.6222,0.6793,0.4172,-4.760,32.970,51.520,419.00,411,353,404,398,2025-06-04T19:46:05.789741
8871,-0.6978,0.6676,0.4729,-5.215,38.955,60.480,387.00,405,416,416,404,2025-06-04T19:46:05.789741
8872,-0.9384,0.6246,0.4865,-10.920,32.550,71.050,356.00,412,379,416,363,2025-06-04T19:46:05.789741
8873,-1.1722,0.6110,0.6730,-0.735,3.255,80.010,395.00,402,404,401,371,2025-06-04T19:46:05.789741
8874,-0.9926,0.6134,0.8398,9.380,-28.140,88.970,386.00,382,362,408,343,2025-06-04T19:46:05.789741
8875,-0.8725,0.6471,0.8316,24.045,-47.740,97.300,406.00,401,396,406,376,2025-06-04T19:46:05.789741
8876,-0.7847,0.5861,0.7642,38.325,-52.290,101.570,404.00,378,427,419,389,2025-06-04T19:46:05.789741
8877,-0.6437,0.5724,0.6861,50.785,-51.205,101.920,388.00,397,404,408,359,2025-06-04T19:46:05.789741
8878,-0.5344,0.5827,0.6417,59.500,-43.015,99.960,399.00,411,429,402,372,2025-06-04T19:46:05.789741
8879,-0.4656,0.6202,0.5729,69.195,-30.100,96.915,372.00,415,425,420,356,2025-06-04T19:46:05.789741
8880,-0.4509,0.5958,0.4734,73.710,-22.925,92.260,385.00,410,411,425,368,2025-06-04T19:46:05.789741
8881,-0.4797,0.6173,0.4050,73.010,-23.135,84.945,399.00,417,429,403,383,2025-06-04T19:46:05.981285
8882,-0.4626,0.6359,0.3509,69.860,-31.150,77.420,405.00,416,408,402,345,2025-06-04T19:46:05.981285
8883,-0.4211,0.6212,0.2708,62.615,-45.115,69.965,404.00,422,401,427,375,2025-06-04T19:46:05.981285
8884,-0.3826,0.6237,0.2011,55.055,-59.780,60.585,406.00,415,409,432,349,2025-06-04T19:46:05.981285
8885,-0.3065,0.6295,0.1337,46.375,-75.460,50.085,403.00,418,408,428,378,2025-06-04T19:46:05.981285
8886,-0.2572,0.6637,0.1132,37.870,-86.170,41.020,394.00,424,356,371,344,2025-06-04T19:46:05.981285
8887,-0.1708,0.6900,0.0961,27.545,-88.760,28.350,401.00,408,409,415,375,2025-06-04T19:46:05.981285
8888,-0.0976,0.7222,0.1025,17.780,-83.090,17.290,381.00,419,405,422,393,2025-06-04T19:46:05.981285
8889,-0.0342,0.7627,0.1064,9.730,-70.595,6.860,402.00,412,407,428,402,2025-06-04T19:46:05.982345
8890,-0.0112,0.7784,0.1166,2.450,-55.405,-2.975,400.00,406,427,400,392,2025-06-04T19:46:05.982345
8891,0.0059,0.8081,0.1386,-3.850,-41.440,-11.200,412.00,418,414,348,349,2025-06-04T19:46:05.982345
8892,-0.0195,0.8520,0.1796,-8.925,-33.740,-18.235,413.00,405,413,383,359,2025-06-04T19:46:05.982345
8893,-0.0454,0.9292,0.2455,-11.445,-33.775,-25.410,403.00,412,367,419,381,2025-06-04T19:46:05.982345
8894,-0.0566,1.0180,0.2879,-13.615,-39.585,-32.165,395.00,420,419,398,351,2025-06-04T19:46:05.982345
8895,-0.0185,1.1405,0.3406,-15.295,-49.140,-38.220,385.00,418,405,415,360,2025-06-04T19:46:05.982345
8896,0.0073,1.2561,0.3548,-18.865,-63.560,-42.070,362.00,423,425,347,383,2025-06-04T19:46:05.982345
8897,0.0830,1.4152,0.3733,-22.855,-80.465,-43.505,380.00,380,427,403,368,2025-06-04T19:46:06.059777
8898,0.2001,1.5860,0.3831,-28.735,-93.905,-41.965,339.00,383,405,399,370,2025-06-04T19:46:06.059777
8899,0.3504,1.8183,0.3640,-34.370,-102.725,-37.485,377.00,387,415,395,382,2025-06-04T19:46:06.059777
8900,0.4656,2.0760,0.3055,-44.415,-104.755,-28.980,342.00,392,425,403,381,2025-06-04T19:46:06.059777
8901,0.4895,2.3102,0.2152,-58.030,-106.225,-18.480,365.00,404,386,397,384,2025-06-04T19:46:06.059777
8902,0.5266,2.4424,0.0908,-79.870,-109.830,-9.415,353.00,406,428,432,394,2025-06-04T19:46:06.113594
8903,0.5392,2.8665,-0.1366,-98.840,-117.565,-0.315,348.00,380,366,426,382,2025-06-04T19:46:06.113594
8904,0.5246,3.0783,-0.5026,-124.460,-121.590,3.080,383.00,390,397,416,392,2025-06-04T19:46:06.113594
8905,0.2884,3.1261,-0.8706,-145.110,-139.230,2.310,388.00,375,339,417,379,2025-06-04T19:46:06.113594
8906,0.2874,2.9548,-1.1527,-164.955,-169.645,6.300,393.00,383,388,425,343,2025-06-04T19:46:06.113594
8907,-0.0503,2.7684,-0.9638,-214.515,-193.270,-7.525,399.00,384,362,426,342,2025-06-04T19:46:06.482215
8908,-0.2918,2.3775,-0.8252,-269.675,-225.960,-25.270,384.00,366,358,440,365,2025-06-04T19:46:06.788505
8909,-0.6427,1.7871,-0.7891,-331.275,-264.915,-56.840,395.00,387,401,424,345,2025-06-04T19:46:06.788505
8910,-0.8623,1.1741,-0.5671,-395.745,-302.155,-101.115,384.00,398,406,375,361,2025-06-04T19:46:06.788505
8911,-0.6310,0.0859,-0.7105,-439.845,-341.880,-124.565,384.00,397,399,396,348,2025-06-04T19:46:06.788505
8912,-0.0532,-1.2542,-0.7120,-454.055,-368.235,-115.570,367.00,403,412,423,371,2025-06-04T19:46:06.788505
8913,-0.0425,-2.0618,0.2547,-535.920,-313.320,-140.385,371.00,379,429,412,380,2025-06-04T19:46:06.788505
8914,-0.3797,-3.3701,1.0287,-394.625,-284.375,-198.205,360.00,385,425,418,392,2025-06-04T19:46:06.788505
8915,-0.7013,-4.4574,0.7813,-401.170,-176.890,-205.625,398.00,397,425,415,400,2025-06-04T19:46:06.788505
8916,-0.3270,-4.8785,0.4943,-273.175,-224.595,-162.225,409.00,403,418,352,392,2025-06-04T19:46:06.789502
8917,0.3148,-4.2807,0.5695,-102.760,-227.080,-71.890,426.00,413,395,412,383,2025-06-04T19:46:06.789502
8918,1.3854,-3.7576,0.6207,13.720,-84.805,34.265,425.00,422,445,436,362,2025-06-04T19:46:06.789502
8919,1.2659,-3.0959,0.7559,167.335,55.650,121.975,403.00,417,421,411,367,2025-06-04T19:46:06.789502
8920,0.3582,-2.2433,0.8467,216.265,151.655,146.755,426.00,413,436,427,389,2025-06-04T19:46:06.789502
8921,-0.3806,-1.7402,0.8950,242.655,128.030,144.235,420.00,416,441,418,389,2025-06-04T19:46:06.789502
8922,-0.5041,-1.4601,0.7681,264.320,58.765,138.040,415.00,414,422,414,382,2025-06-04T19:46:06.789502
8923,-0.1981,-1.0878,0.7462,237.685,12.600,123.025,426.00,423,436,425,398,2025-06-04T19:46:06.789502
8924,0.2728,-0.6573,0.7603,231.245,31.675,114.030,399.00,408,442,432,384,2025-06-04T19:46:06.789502
8925,0.3992,-0.1889,0.8438,225.540,92.120,100.240,379.00,416,419,346,356,2025-06-04T19:46:06.789502
8926,0.4119,0.1947,0.8311,215.775,151.620,86.975,314.00,423,416,303,371,2025-06-04T19:46:06.789502
8927,0.3372,0.4543,0.7896,200.095,187.075,79.695,365.00,418,425,382,392,2025-06-04T19:46:06.789502
8928,0.2054,0.4236,0.7213,183.470,187.215,70.105,353.00,424,358,403,396,2025-06-04T19:46:06.789502
8929,0.0952,0.5309,0.6290,167.125,194.530,63.035,340.00,415,389,423,388,2025-06-04T19:46:06.790018
8930,-0.0356,0.5749,0.6510,169.645,202.475,48.720,382.00,416,360,392,348,2025-06-04T19:46:06.790018
8931,-0.2679,0.7857,0.6095,176.610,165.830,37.450,391.00,420,405,394,382,2025-06-04T19:46:06.790018
8932,-0.2996,1.0268,0.6061,166.145,128.660,23.695,348.00,415,416,412,389,2025-06-04T19:46:06.790018
8933,-0.3855,1.1653,0.5475,159.495,78.750,8.260,369.00,383,342,401,386,2025-06-04T19:46:06.790018
8934,-0.1488,1.0736,0.5022,149.450,49.700,-6.090,349.00,396,408,309,389,2025-06-04T19:46:06.790018
8935,0.0551,1.0170,0.4538,143.465,36.085,-15.855,370.00,373,414,409,386,2025-06-04T19:46:06.790018
8936,0.2220,0.9711,0.5832,141.715,42.840,-22.610,341.00,394,419,400,395,2025-06-04T19:46:06.790499
8937,0.3065,1.0360,0.5846,142.590,49.490,-29.470,360.00,412,371,352,395,2025-06-04T19:46:06.790499
8938,0.3211,1.0653,0.5597,135.380,75.145,-32.515,370.00,418,413,386,395,2025-06-04T19:46:06.790499
8939,0.1884,1.0741,0.5368,130.970,94.710,-33.775,388.00,418,426,359,390,2025-06-04T19:46:06.790499
8940,0.0400,1.0487,0.4831,129.150,102.760,-36.645,399.00,385,427,329,393,2025-06-04T19:46:06.790499
8941,-0.0815,1.0853,0.4748,125.860,103.775,-39.340,349.00,394,412,339,382,2025-06-04T19:46:06.790499
8942,-0.1703,1.0648,0.4778,124.670,93.590,-40.040,331.00,398,427,329,380,2025-06-04T19:46:06.790499
8943,-0.1747,1.0453,0.4485,123.445,78.400,-36.365,379.00,404,431,397,371,2025-06-04T19:46:06.790499
8944,-0.1015,1.0677,0.4124,122.045,68.355,-29.680,384.00,414,419,427,368,2025-06-04T19:46:06.790499
8945,-0.1152,1.1156,0.3665,118.615,66.290,-25.725,383.00,408,413,395,381,2025-06-04T19:46:06.813988
8946,-0.2216,1.1653,0.2952,114.485,67.235,-28.875,392.00,388,399,418,350,2025-06-04T19:46:06.813988
8947,-0.2762,1.1717,0.2386,110.705,65.240,-35.525,406.00,399,431,422,374,2025-06-04T19:46:06.813988
8948,-0.1947,1.1888,0.2094,106.190,59.850,-34.930,407.00,412,401,423,380,2025-06-04T19:46:06.813988
8949,-0.2650,1.2000,0.2225,96.250,53.900,-32.410,403.00,409,342,352,382,2025-06-04T19:46:06.813988
8950,-0.3021,1.1961,0.2333,87.570,41.720,-28.455,393.00,411,381,425,374,2025-06-04T19:46:06.813988
8951,-0.2972,1.1722,0.2250,74.060,25.795,-22.680,385.00,415,403,410,383,2025-06-04T19:46:06.813988
8952,-0.2416,1.1297,0.2006,63.105,11.655,-15.960,400.00,420,390,437,387,2025-06-04T19:46:06.813988
8953,-0.1981,1.1258,0.1747,55.790,6.790,-10.535,398.00,425,418,413,385,2025-06-04T19:46:06.813988
8954,-0.1674,1.1146,0.1801,47.565,9.695,-8.820,399.00,426,372,418,356,2025-06-04T19:46:06.813988
8955,-0.1430,1.1053,0.1786,40.950,13.930,-6.545,403.00,411,405,426,343,2025-06-04T19:46:06.813988
8956,-0.1274,1.0975,0.1698,34.860,18.060,-3.885,383.00,404,404,415,362,2025-06-04T19:46:06.813988
8957,-0.1454,1.0887,0.1693,28.385,22.400,-3.185,405.00,416,370,301,360,2025-06-04T19:46:06.813988
8958,-0.1601,1.0702,0.1723,22.925,27.125,-3.290,368.00,417,395,392,366,2025-06-04T19:46:06.813988
8959,-0.1728,1.0321,0.1586,17.220,28.630,-2.135,382.00,395,413,410,379,2025-06-04T19:46:06.813988
8960,-0.1913,1.0048,0.1479,13.895,26.565,-0.350,394.00,412,432,382,372,2025-06-04T19:46:06.813988
8961,-0.2308,0.9921,0.1674,12.285,23.730,0.560,397.00,417,424,363,334,2025-06-04T19:46:06.813988
8962,-0.2318,0.9931,0.1776,9.030,23.450,1.085,362.00,411,410,350,356,2025-06-04T19:46:06.813988
8963,-0.2450,0.9799,0.1923,6.265,23.730,0.630,376.00,422,409,390,377,2025-06-04T19:46:07.013683
8964,-0.1566,1.0019,0.1728,3.010,31.150,1.750,392.00,414,416,376,352,2025-06-04T19:46:07.014284
8965,-0.1615,0.9213,0.2279,0.000,32.935,-0.280,411.00,418,428,428,367,2025-06-04T19:46:07.014284
8966,-0.2987,0.9467,0.2045,-2.205,37.310,-1.855,401.00,415,402,358,382,2025-06-04T19:46:07.014749
8967,-0.3094,0.9384,0.1791,-0.910,38.395,-2.100,395.00,384,408,408,379,2025-06-04T19:46:07.014749
8968,-0.3401,0.9106,0.1718,-2.520,34.090,-1.365,402.00,399,419,425,386,2025-06-04T19:46:07.014749
8969,-0.3514,0.9072,0.1557,-2.660,27.580,0.665,400.00,373,395,408,379,2025-06-04T19:46:07.014749
8970,-0.3855,0.9116,0.1874,-2.905,22.960,0.455,389.00,399,415,400,388,2025-06-04T19:46:07.014749
8971,-0.3748,0.9155,0.2103,-3.640,20.265,-0.595,392.00,409,400,414,384,2025-06-04T19:46:07.014749
8972,-0.3577,0.9170,0.2137,-6.020,18.830,0.000,387.00,407,422,412,385,2025-06-04T19:46:07.014749
8973,-0.3714,0.8921,0.2001,-6.895,17.500,0.315,402.00,415,406,422,379,2025-06-04T19:46:07.014749
8974,-0.3816,0.8843,0.1898,-7.490,16.800,0.175,414.00,426,433,429,374,2025-06-04T19:46:07.014749
8975,-0.3963,0.8813,0.1932,-7.490,16.870,-0.560,420.00,418,435,420,379,2025-06-04T19:46:07.014749
8976,-0.3987,0.8613,0.1962,-8.015,17.220,-1.190,415.00,424,385,399,384,2025-06-04T19:46:07.014749
8977,-0.3919,0.8418,0.1957,-8.715,16.975,-0.245,416.00,392,418,412,339,2025-06-04T19:46:07.014749
8978,-0.4148,0.8496,0.2172,-8.645,17.500,-0.035,421.00,395,401,428,368,2025-06-04T19:46:07.014749
8979,-0.5348,0.8594,0.2562,-7.315,21.350,0.140,413.00,406,426,432,342,2025-06-04T19:46:07.014749
8980,-0.4441,0.8594,0.1889,-5.390,19.950,-1.190,420.00,385,399,409,353,2025-06-04T19:46:07.057276
8981,-0.4290,0.8228,0.2040,-9.625,21.035,-1.750,412.00,374,413,417,372,2025-06-04T19:46:07.057276
8982,-0.4011,0.8237,0.2098,-8.330,23.485,-1.120,374.00,390,353,392,374,2025-06-04T19:46:07.057276
8983,-0.4329,0.8340,0.2176,-5.600,24.955,-1.435,412.00,397,389,390,394,2025-06-04T19:46:07.057276
8984,-0.4455,0.8389,0.2269,-6.230,23.660,-2.730,419.00,408,391,396,388,2025-06-04T19:46:07.202243
8985,-0.4646,0.8384,0.2298,-5.635,18.305,-3.360,401.00,413,392,357,389,2025-06-04T19:46:07.202243
8986,-0.4773,0.8413,0.2274,-6.440,12.635,-3.745,401.00,418,348,340,360,2025-06-04T19:46:07.202243
8987,-0.4812,0.8311,0.2289,-5.110,6.615,-4.550,409.00,410,391,391,374,2025-06-04T19:46:07.202243
8988,-0.4568,0.8364,0.2333,-5.495,3.605,-5.355,374.00,419,401,418,379,2025-06-04T19:46:07.202243
8989,-0.4421,0.8320,0.2357,-6.020,3.745,-6.510,344.00,413,424,392,379,2025-06-04T19:46:07.202243
8990,-0.4451,0.8169,0.2298,-5.180,4.060,-6.930,387.00,406,362,372,388,2025-06-04T19:46:07.202243
8991,-0.5622,0.8555,0.2679,-4.515,0.385,-6.335,409.00,412,379,413,390,2025-06-04T19:46:07.202243
8992,-0.4821,0.8247,0.2142,-1.400,4.725,-8.050,415.00,407,404,392,354,2025-06-04T19:46:07.202243
8993,-0.4704,0.8135,0.2460,-4.340,4.305,-8.645,425.00,415,421,410,341,2025-06-04T19:46:07.202243
8994,-0.4802,0.8257,0.2616,-3.745,3.360,-9.695,361.00,409,420,434,357,2025-06-04T19:46:07.202243
8995,-0.4782,0.8237,0.2664,-2.415,4.270,-10.570,337.00,413,432,367,371,2025-06-04T19:46:07.306147
8996,-0.4724,0.8218,0.2694,-3.255,4.480,-10.605,377.00,417,430,416,379,2025-06-04T19:46:07.306147
8997,-0.4865,0.8257,0.2664,-3.430,3.570,-10.605,384.00,416,365,397,384,2025-06-04T19:46:07.306147
8998,-0.4070,0.8101,0.2933,-1.960,9.030,-11.270,390.00,393,410,404,379,2025-06-04T19:46:07.306147
8999,-0.4197,0.8072,0.2367,-1.015,3.220,-10.605,402.00,401,404,392,382,2025-06-04T19:46:07.306685
9000,-0.4875,0.8355,0.2664,-4.760,0.140,-10.500,316.00,412,422,429,384,2025-06-04T19:46:07.306685
9001,-0.4831,0.8428,0.2728,-3.465,-1.645,-10.045,366.00,410,405,406,390,2025-06-04T19:46:07.306685
9002,-0.4753,0.8438,0.2728,-2.065,-4.305,-9.660,392.00,416,423,392,353,2025-06-04T19:46:07.306685
9003,-0.4285,0.8647,0.2328,-3.955,-2.905,-7.350,402.00,424,402,346,362,2025-06-04T19:46:07.306685
9004,-0.4236,0.8072,0.2718,-2.695,-7.735,-8.855,410.00,363,392,393,372,2025-06-04T19:46:07.406114
9005,-0.4460,0.8330,0.2635,-2.905,-7.525,-8.715,408.00,392,382,425,379,2025-06-04T19:46:07.406114
9006,-0.4333,0.8433,0.2523,-2.065,-5.950,-7.945,413.00,404,421,405,383,2025-06-04T19:46:07.406114
9007,-0.4597,0.8462,0.2513,-2.275,-6.755,-7.490,416.00,402,388,386,388,2025-06-04T19:46:07.406114
9008,-0.4690,0.8472,0.2562,-2.205,-7.525,-7.665,422.00,401,416,405,379,2025-06-04T19:46:07.406114
9009,-0.4499,0.8486,0.2586,-1.435,-8.855,-7.350,418.00,410,409,409,372,2025-06-04T19:46:07.406114
9010,-0.4392,0.8413,0.2484,-2.065,-8.470,-6.650,410.00,382,409,402,371,2025-06-04T19:46:07.406114
9011,-0.4324,0.8408,0.2411,-1.470,-7.490,-6.265,411.00,397,399,393,380,2025-06-04T19:46:07.406114
9012,-0.3972,0.7910,0.2508,-1.610,-1.225,-5.180,400.00,403,349,391,373,2025-06-04T19:46:07.457285
9013,-0.3904,0.8501,0.2381,-0.945,-2.590,-5.705,415.00,403,415,422,307,2025-06-04T19:46:07.457285
9014,-0.4563,0.8359,0.2450,-2.975,-3.640,-5.320,417.00,399,431,347,338,2025-06-04T19:46:07.457285
9015,-0.4543,0.8369,0.2372,-2.100,-3.850,-4.445,371.00,407,422,391,358,2025-06-04T19:46:07.457285
9016,-0.4768,0.8281,0.2333,-1.015,-6.125,-3.815,341.00,411,414,344,364,2025-06-04T19:46:07.507869
9017,-0.4812,0.8389,0.2450,-2.240,-7.700,-3.850,350.00,414,420,410,381,2025-06-04T19:46:07.507869
9018,-0.4729,0.8355,0.2440,-2.730,-9.065,-3.850,384.00,411,420,358,345,2025-06-04T19:46:07.507869
9019,-0.4738,0.8296,0.2396,-3.885,-9.800,-4.060,406.00,379,421,380,294,2025-06-04T19:46:07.507869
9020,-0.4631,0.8169,0.2333,-4.060,-9.695,-4.375,409.00,397,409,394,352,2025-06-04T19:46:07.603672
9021,-0.4597,0.8174,0.2435,-3.885,-8.785,-4.445,404.00,400,420,374,377,2025-06-04T19:46:07.603672
9022,-0.4631,0.8154,0.2425,-4.200,-7.630,-4.200,388.00,376,433,395,380,2025-06-04T19:46:07.603672
9023,-0.4758,0.8115,0.2460,-4.515,-7.315,-4.025,399.00,391,402,425,376,2025-06-04T19:46:07.603672
9024,-0.4768,0.8120,0.2499,-4.795,-6.755,-3.920,319.00,403,420,402,371,2025-06-04T19:46:07.603672
9025,-0.4821,0.8091,0.2450,-4.200,-6.825,-3.325,381.00,413,403,401,380,2025-06-04T19:46:07.603672
9026,-0.4743,0.8052,0.2430,-3.500,-7.315,-2.380,405.00,409,413,412,375,2025-06-04T19:46:07.603672
9027,-0.4836,0.8062,0.2552,-3.570,-7.105,-2.135,405.00,412,416,408,372,2025-06-04T19:46:07.603672
9028,-0.4758,0.8047,0.2479,-2.765,-7.455,-2.030,406.00,409,414,422,376,2025-06-04T19:46:07.603672
9029,-0.4895,0.8008,0.2479,-2.590,-8.330,-2.100,399.00,406,429,415,372,2025-06-04T19:46:07.714469
9030,-0.4812,0.8018,0.2499,-2.065,-9.135,-2.450,412.00,406,427,428,385,2025-06-04T19:46:07.714469
9031,-0.4651,0.8018,0.2474,-1.715,-7.980,-2.800,403.00,411,422,408,390,2025-06-04T19:46:07.714745
9032,-0.4534,0.7989,0.2484,-0.980,-5.705,-2.870,406.00,424,424,402,397,2025-06-04T19:46:07.714745
9033,-0.4470,0.8008,0.2499,0.035,-3.500,-2.240,399.00,411,429,400,391,2025-06-04T19:46:07.714745
9034,-0.4704,0.8008,0.2562,0.175,-1.610,-2.310,406.00,412,410,418,381,2025-06-04T19:46:07.714745
9035,-0.4743,0.8067,0.2635,0.910,-1.435,-2.625,398.00,418,355,426,383,2025-06-04T19:46:07.714745
9036,-0.4821,0.8052,0.2582,0.770,-2.100,-2.415,407.00,409,335,406,382,2025-06-04T19:46:07.714745
9037,-0.4851,0.8081,0.2625,1.400,-2.905,-2.345,420.00,412,336,358,339,2025-06-04T19:46:07.815886
9038,-0.4831,0.8135,0.2611,1.645,-3.465,-2.485,415.00,407,410,377,349,2025-06-04T19:46:07.815886
9039,-0.4782,0.8111,0.2572,1.505,-3.430,-2.835,411.00,411,388,414,340,2025-06-04T19:46:07.815886
9040,-0.4743,0.8184,0.2630,1.645,-2.835,-2.975,400.00,417,400,377,360,2025-06-04T19:46:07.815886
9041,-0.4758,0.8135,0.2572,1.400,-2.310,-2.555,316.00,418,403,388,334,2025-06-04T19:46:07.815886
9042,-0.4909,0.8179,0.2567,1.365,-3.010,-2.555,363.00,424,304,410,370,2025-06-04T19:46:07.815886
9043,-0.4846,0.8218,0.2606,1.400,-3.850,-2.520,346.00,413,407,428,386,2025-06-04T19:46:07.815886
9044,-0.4895,0.8242,0.2567,0.770,-4.725,-2.590,391.00,413,388,402,397,2025-06-04T19:46:07.815886
9045,-0.4875,0.8223,0.2542,0.385,-5.285,-2.695,398.00,421,399,397,374,2025-06-04T19:46:07.913865
9046,-0.4851,0.8247,0.2533,0.350,-6.090,-2.800,396.00,423,338,404,351,2025-06-04T19:46:07.913865
9047,-0.4856,0.8223,0.2494,-0.175,-6.685,-2.555,403.00,408,395,409,367,2025-06-04T19:46:07.913865
9048,-0.4856,0.8247,0.2494,-0.035,-6.685,-2.625,393.00,420,417,408,355,2025-06-04T19:46:07.913865
9049,-0.4900,0.8218,0.2533,-0.210,-6.265,-2.555,409.00,421,348,402,374,2025-06-04T19:46:07.913865
9050,-0.4953,0.8223,0.2479,0.070,-6.580,-2.205,416.00,428,293,395,378,2025-06-04T19:46:07.913865
9051,-0.5022,0.8257,0.2528,0.280,-7.070,-1.610,411.00,423,385,362,378,2025-06-04T19:46:07.913865
9052,-0.4992,0.8233,0.2538,0.140,-7.490,-1.470,417.00,424,405,396,382,2025-06-04T19:46:07.913865
9053,-0.5022,0.8179,0.2445,0.175,-8.190,-0.840,407.00,421,396,405,382,2025-06-04T19:46:07.913865
9054,-0.4958,0.8184,0.2430,0.350,-8.435,-0.700,379.00,420,420,308,384,2025-06-04T19:46:07.967711
9055,-0.4900,0.8189,0.2420,0.770,-7.735,-0.630,351.00,423,430,399,387,2025-06-04T19:46:07.967711
9056,-0.4821,0.8213,0.2401,0.420,-6.510,-0.245,392.00,385,418,413,381,2025-06-04T19:46:07.967711
9057,-0.4890,0.8194,0.2396,0.770,-5.915,-0.105,404.00,371,406,422,383,2025-06-04T19:46:07.967711
9058,-0.4953,0.8184,0.2391,1.085,-6.090,0.000,398.00,395,423,403,372,2025-06-04T19:46:08.159431
9059,-0.4992,0.8154,0.2406,0.980,-7.105,0.140,411.00,400,404,422,387,2025-06-04T19:46:08.159431
9060,-0.4997,0.8145,0.2396,1.085,-8.715,0.350,409.00,412,359,410,391,2025-06-04T19:46:08.160428
9061,-0.5031,0.8115,0.2362,0.980,-10.150,0.385,397.00,404,405,406,319,2025-06-04T19:46:08.160428
9062,-0.4963,0.8106,0.2386,1.365,-11.130,0.315,387.00,412,421,404,352,2025-06-04T19:46:08.160428
9063,-0.4909,0.8120,0.2372,1.155,-11.060,0.350,367.00,407,423,413,367,2025-06-04T19:46:08.160428
9064,-0.4719,0.8145,0.2396,1.540,-10.080,0.490,399.00,400,411,402,377,2025-06-04T19:46:08.160428
9065,-0.4763,0.8086,0.2318,1.225,-7.910,0.525,398.00,406,422,395,377,2025-06-04T19:46:08.160428
9066,-0.4778,0.8140,0.2318,1.400,-5.950,0.525,411.00,407,428,397,384,2025-06-04T19:46:08.160428
9067,-0.4875,0.8194,0.2430,1.855,-5.075,0.525,396.00,384,406,423,345,2025-06-04T19:46:08.160428
9068,-0.4885,0.8154,0.2333,1.155,-4.935,0.630,391.00,362,366,406,372,2025-06-04T19:46:08.160428
9069,-0.4992,0.8150,0.2357,1.680,-6.370,0.875,408.00,361,411,396,345,2025-06-04T19:46:08.160428
9070,-0.5036,0.8169,0.2425,1.680,-7.805,1.050,415.00,383,397,337,323,2025-06-04T19:46:08.222621
9071,-0.4909,0.8135,0.2386,1.785,-9.625,1.295,414.00,393,423,391,316,2025-06-04T19:46:08.222621
9072,-0.4943,0.8135,0.2430,1.820,-10.815,1.190,321.00,399,401,400,348,2025-06-04T19:46:08.222621
9073,-0.4817,0.8154,0.2450,1.960,-10.815,0.805,390.00,413,391,342,360,2025-06-04T19:46:08.222621
9074,-0.4690,0.8150,0.2430,2.100,-9.415,0.700,407.00,405,396,369,360,2025-06-04T19:46:08.222621
9075,-0.4675,0.8179,0.2425,2.030,-7.210,0.280,362.00,400,413,391,335,2025-06-04T19:46:08.222621
9076,-0.4738,0.8154,0.2440,1.750,-5.705,0.140,375.00,412,401,427,356,2025-06-04T19:46:08.222621
9077,-0.4797,0.8164,0.2425,1.365,-5.495,0.420,406.00,386,349,390,378,2025-06-04T19:46:08.222621
9078,-0.4851,0.8189,0.2416,1.470,-6.335,0.525,356.00,370,419,397,375,2025-06-04T19:46:08.222621
9079,-0.4880,0.8154,0.2430,1.190,-7.735,0.525,396.00,391,415,415,370,2025-06-04T19:46:08.331280
9080,-0.4851,0.8179,0.2391,0.980,-8.190,0.140,410.00,399,422,412,378,2025-06-04T19:46:08.331280
9081,-0.4709,0.8194,0.2450,1.260,-7.945,-0.105,412.00,403,429,396,378,2025-06-04T19:46:08.331280
9082,-0.4738,0.8198,0.2499,1.190,-7.105,-0.140,364.00,409,417,401,386,2025-06-04T19:46:08.331280
9083,-0.4875,0.8233,0.2518,1.260,-6.965,-0.245,396.00,409,347,399,392,2025-06-04T19:46:08.331280
9084,-0.4904,0.8247,0.2513,1.190,-7.525,-0.070,381.00,412,366,428,384,2025-06-04T19:46:08.332228
9085,-0.4919,0.8223,0.2479,1.155,-8.470,0.350,346.00,380,405,412,394,2025-06-04T19:46:08.332228
9086,-0.4900,0.8223,0.2499,1.330,-8.995,0.770,384.00,404,435,339,374,2025-06-04T19:46:08.332228
9087,-0.4904,0.8247,0.2474,1.470,-8.890,0.945,400.00,402,406,345,383,2025-06-04T19:46:08.534796
9088,-0.4846,0.8237,0.2542,1.890,-9.135,1.295,394.00,401,427,379,390,2025-06-04T19:46:08.534796
9089,-0.4856,0.8257,0.2508,1.575,-9.625,1.645,413.00,408,369,416,395,2025-06-04T19:46:08.534796
9090,-0.4895,0.8218,0.2474,1.505,-10.325,1.750,389.00,408,420,402,388,2025-06-04T19:46:08.534796
9091,-0.4860,0.8198,0.2440,1.610,-10.465,1.925,403.00,404,431,413,390,2025-06-04T19:46:08.534796
9092,-0.4792,0.8194,0.2440,1.680,-9.310,2.100,423.00,407,429,395,348,2025-06-04T19:46:08.534796
9093,-0.4407,0.8364,0.2284,2.485,-4.900,3.675,407.00,402,441,392,336,2025-06-04T19:46:08.534796
9094,-0.4319,0.7857,0.2664,1.540,-5.670,2.625,372.00,382,430,355,363,2025-06-04T19:46:08.534796
9095,-0.4904,0.8179,0.2513,1.190,-6.790,3.045,387.00,392,407,375,376,2025-06-04T19:46:08.534796
9096,-0.5026,0.8233,0.2455,1.085,-7.105,2.765,408.00,399,396,338,349,2025-06-04T19:46:08.534796
9097,-0.4958,0.8189,0.2523,1.155,-9.730,2.870,404.00,412,302,395,371,2025-06-04T19:46:08.535859
9098,-0.5192,0.8257,0.2591,-0.175,-11.900,2.520,415.00,406,406,405,382,2025-06-04T19:46:08.535859
9099,-0.5339,0.8389,0.2752,-0.105,-14.945,1.575,408.00,351,393,424,380,2025-06-04T19:46:08.535859
9100,-0.5485,0.8550,0.2928,-2.275,-17.815,0.840,401.00,372,349,402,388,2025-06-04T19:46:08.535859
9101,-0.5812,0.8721,0.3196,-5.075,-22.715,0.070,396.00,385,416,398,377,2025-06-04T19:46:08.535859
9102,-0.6144,0.8926,0.3392,-9.415,-31.675,-0.140,403.00,387,423,408,371,2025-06-04T19:46:08.535859
9103,-0.6554,0.8569,0.3279,-13.580,-46.935,2.345,408.00,362,370,422,358,2025-06-04T19:46:08.535859
9104,-0.7427,0.8686,0.3845,-15.540,-70.420,6.090,418.00,387,406,353,367,2025-06-04T19:46:08.635655
9105,-0.7920,0.8706,0.3997,-17.360,-97.860,10.815,402.00,393,393,395,367,2025-06-04T19:46:08.635655
9106,-0.8857,0.8760,0.4353,-21.105,-131.460,14.525,405.00,395,393,395,374,2025-06-04T19:46:08.635655
9107,-0.8286,0.9087,0.4890,-29.155,-163.380,16.065,407.00,403,412,417,373,2025-06-04T19:46:08.635655
9108,-0.6281,0.8862,0.4470,-38.990,-179.270,16.170,394.00,413,401,396,308,2025-06-04T19:46:08.635655
9109,-0.4412,0.9150,0.4919,-54.250,-171.430,17.605,416.00,406,410,411,336,2025-06-04T19:46:08.635655
9110,-0.2137,1.0204,0.5388,-59.080,-144.935,8.540,382.00,418,433,430,357,2025-06-04T19:46:08.635655
9111,0.0268,0.9945,0.4895,-69.020,-109.830,0.770,407.00,408,431,418,384,2025-06-04T19:46:08.635655
9112,0.0464,1.0892,0.5061,-77.840,-83.055,-7.210,358.00,412,436,387,375,2025-06-04T19:46:08.686299
9113,0.0830,1.1692,0.5285,-87.325,-65.065,-19.005,388.00,389,403,413,388,2025-06-04T19:46:08.686299
9114,0.1571,1.2561,0.5085,-101.745,-61.320,-24.045,397.00,390,423,412,351,2025-06-04T19:46:08.686299
9115,0.2342,1.3400,0.3723,-111.055,-71.330,-24.570,391.00,389,425,426,377,2025-06-04T19:46:08.686299
9116,0.3343,1.5997,0.1889,-114.940,-82.495,-25.340,402.00,403,425,401,370,2025-06-04T19:46:09.039931
9117,0.4856,1.9564,-0.0659,-110.670,-85.995,-26.495,399.00,398,383,425,368,2025-06-04T19:46:09.039931
9118,0.6676,2.3126,-0.3460,-98.140,-91.630,-19.040,395.00,403,340,403,370,2025-06-04T19:46:09.039931
9119,0.7588,2.6855,-0.5846,-87.850,-101.815,0.245,405.00,408,409,402,371,2025-06-04T19:46:09.039931
9120,0.7178,3.0666,-0.7457,-92.820,-111.825,22.050,403.00,401,394,388,387,2025-06-04T19:46:09.039931
9121,0.5710,3.2881,-0.8081,-115.115,-132.405,46.410,393.00,412,376,399,392,2025-06-04T19:46:09.039931
9122,0.3148,3.4375,-1.1268,-138.355,-159.950,67.550,388.00,417,333,387,386,2025-06-04T19:46:09.039931
9123,0.0312,3.1725,-1.5406,-175.070,-204.505,79.905,385.00,410,408,401,382,2025-06-04T19:46:09.039931
9124,-0.1318,2.9348,-1.5382,-205.170,-234.500,64.820,342.00,408,431,390,341,2025-06-04T19:46:09.039931
9125,-0.2494,2.5059,-1.2298,-258.020,-227.290,16.940,383.00,411,428,298,373,2025-06-04T19:46:09.039931
9126,0.0127,1.7534,-0.9936,-321.405,-188.965,-35.035,345.00,417,405,403,382,2025-06-04T19:46:09.040496
9127,0.2323,0.6573,-0.7296,-397.460,-125.195,-77.525,385.00,421,395,424,377,2025-06-04T19:46:09.040496
9128,-0.3187,-0.5197,-0.2064,-476.035,-89.740,-125.965,385.00,428,407,394,385,2025-06-04T19:46:09.040496
9129,-1.4825,-2.2892,0.9780,-552.440,-163.205,-147.875,388.00,394,425,459,416,2025-06-04T19:46:09.095466
9130,-2.4912,-4.5672,1.8398,-526.260,-251.510,-195.125,405.00,405,401,424,405,2025-06-04T19:46:09.095466
9131,-2.4639,-5.7116,1.3220,-435.960,-461.265,-218.225,429.00,417,357,428,398,2025-06-04T19:46:09.095466
9132,-0.5022,-5.7198,0.8911,-389.165,-469.910,-195.055,363.00,418,404,419,408,2025-06-04T19:46:09.095466
9133,1.4801,-5.2353,0.5534,-161.210,-338.870,-132.580,336.00,387,417,400,388,2025-06-04T19:46:09.095466
9134,2.5576,-4.2422,0.2684,26.040,-15.610,-61.110,352.00,384,458,415,400,2025-06-04T19:46:09.095466
9135,2.5327,-3.5268,-0.0361,164.185,274.435,32.445,368.00,388,311,388,369,2025-06-04T19:46:09.095466
9136,0.6764,-2.3234,0.2464,264.075,382.795,103.460,410.00,375,414,346,365,2025-06-04T19:46:09.096553
9137,-0.9301,-1.5679,0.4900,228.725,286.090,135.065,413.00,399,354,378,387,2025-06-04T19:46:09.096553
9138,-1.6382,-1.1932,0.6349,241.010,55.860,129.815,387.00,391,395,418,379,2025-06-04T19:46:09.096553
9139,-0.8052,-1.0321,0.4651,193.690,-112.630,112.420,413.00,404,432,450,388,2025-06-04T19:46:09.096553
9140,0.3196,-0.8711,0.3841,188.405,-132.825,96.985,386.00,407,435,426,386,2025-06-04T19:46:09.096553
9141,0.9360,-0.6324,0.5480,182.175,-37.835,83.300,403.00,417,429,392,372,2025-06-04T19:46:09.096553
9142,0.8345,-0.3572,0.7730,188.230,89.600,81.060,418.00,389,407,396,395,2025-06-04T19:46:09.096553
9143,0.4538,-0.2045,0.8843,194.005,168.420,79.765,408.00,407,398,402,390,2025-06-04T19:46:09.096553
9144,0.1381,-0.1059,0.9213,178.115,199.080,83.055,430.00,382,366,366,366,2025-06-04T19:46:09.096553
9145,-0.0942,0.0732,0.8018,170.275,209.370,85.295,421.00,399,391,411,356,2025-06-04T19:46:09.096553
9146,-0.5090,0.0512,0.7496,181.685,204.435,79.555,416.00,399,419,396,371,2025-06-04T19:46:09.096553
9147,-0.5641,0.3948,0.8423,198.660,175.770,71.645,423.00,413,425,407,390,2025-06-04T19:46:09.257043
9148,-0.6427,0.6198,1.0570,210.665,151.235,57.925,361.00,404,404,436,351,2025-06-04T19:46:09.257043
9149,-0.3538,0.7174,0.9340,214.095,120.505,48.755,390.00,407,345,413,365,2025-06-04T19:46:09.257043
9150,-0.1488,0.6915,0.7418,207.690,103.670,51.100,397.00,381,394,406,386,2025-06-04T19:46:09.257043
9151,-0.2211,0.8398,0.7706,204.365,95.515,41.160,403.00,403,393,411,347,2025-06-04T19:46:09.257043
9152,-0.1479,1.0160,0.7886,204.260,90.055,21.595,411.00,407,398,398,333,2025-06-04T19:46:09.257043
9153,-0.0371,1.0394,0.6417,208.915,69.125,13.195,355.00,405,415,342,361,2025-06-04T19:46:09.257043
9154,-0.0063,1.1175,0.4856,201.530,47.110,9.205,377.00,413,416,411,373,2025-06-04T19:46:09.257043
9155,-0.0117,1.1878,0.4836,187.390,33.320,-4.515,383.00,407,404,351,341,2025-06-04T19:46:09.257043
9156,0.1503,1.2405,0.4353,172.270,26.110,-13.650,396.00,407,417,402,371,2025-06-04T19:46:09.257043
9157,0.2450,1.1976,0.3133,161.315,19.460,-14.490,385.00,406,434,404,377,2025-06-04T19:46:09.257043
9158,0.2606,1.2464,0.2591,152.145,14.000,-14.525,398.00,420,397,399,385,2025-06-04T19:46:09.257043
9159,0.1918,1.2937,0.2874,134.435,13.790,-19.250,384.00,378,356,356,346,2025-06-04T19:46:09.257043
9160,0.2230,1.2864,0.2699,120.610,6.860,-22.890,385.00,388,295,409,366,2025-06-04T19:46:09.257043
9161,0.2020,1.2747,0.2284,106.120,0.665,-25.270,380.00,373,387,422,351,2025-06-04T19:46:09.258128
9162,0.2655,1.2551,0.2279,94.815,-0.210,-26.355,338.00,397,421,346,360,2025-06-04T19:46:09.373182
9163,0.2167,1.2522,0.2284,83.090,5.390,-30.135,326.00,399,422,415,364,2025-06-04T19:46:09.373182
9164,0.1484,1.1961,0.2172,73.325,6.440,-33.950,364.00,407,427,400,368,2025-06-04T19:46:09.373182
9165,0.1205,1.1595,0.2245,64.820,5.740,-34.895,338.00,419,401,423,379,2025-06-04T19:46:09.373182
9166,0.0712,1.1200,0.2333,55.895,6.825,-35.595,368.00,386,425,402,343,2025-06-04T19:46:09.373182
9167,0.0132,1.0926,0.2333,48.755,9.835,-36.015,391.00,389,423,341,362,2025-06-04T19:46:09.373182
9168,0.0161,1.0551,0.2118,43.925,12.810,-32.690,411.00,403,429,330,374,2025-06-04T19:46:09.373182
9169,-0.0752,1.0297,0.2089,39.515,13.510,-29.995,387.00,400,436,410,388,2025-06-04T19:46:09.373182
9170,-0.0991,1.0224,0.2128,36.435,16.520,-28.105,388.00,406,418,415,394,2025-06-04T19:46:09.373182
9171,-0.1786,1.0067,0.2250,31.675,20.650,-27.055,393.00,401,427,405,377,2025-06-04T19:46:09.419199
9172,-0.2474,0.9672,0.2084,30.590,17.745,-25.515,395.00,404,382,398,349,2025-06-04T19:46:09.419199
9173,-0.2757,0.9394,0.2191,28.350,9.135,-22.995,395.00,406,347,336,370,2025-06-04T19:46:09.419199
9174,-0.2440,0.9048,0.2006,29.085,-1.260,-19.145,395.00,406,395,384,383,2025-06-04T19:46:09.419199
9175,-0.2123,0.9023,0.2162,28.420,-2.170,-16.905,389.00,419,398,407,374,2025-06-04T19:46:09.461341
9176,-0.1640,0.9213,0.2406,29.015,7.210,-15.575,383.00,425,341,416,394,2025-06-04T19:46:09.461341
9177,-0.1552,0.9340,0.2420,28.210,21.840,-15.015,396.00,389,388,407,382,2025-06-04T19:46:09.461341
9178,-0.2357,0.9228,0.2377,26.285,31.885,-14.140,399.00,395,395,396,340,2025-06-04T19:46:09.461341
9179,-0.2996,0.9267,0.2367,25.830,32.550,-11.480,351.00,395,404,431,367,2025-06-04T19:46:09.760433
9180,-0.3811,0.9345,0.2469,24.150,23.730,-9.100,386.00,413,417,415,384,2025-06-04T19:46:09.760433
9181,-0.3953,0.9340,0.2508,21.455,10.955,-6.615,390.00,418,353,415,376,2025-06-04T19:46:09.760433
9182,-0.3699,0.9306,0.2557,18.865,3.010,-5.810,354.00,424,395,399,386,2025-06-04T19:46:09.760877
9183,-0.3172,0.9287,0.2557,17.185,0.805,-4.795,390.00,428,420,427,389,2025-06-04T19:46:09.760877
9184,-0.3040,0.9282,0.2621,15.330,2.275,-3.850,380.00,431,420,437,388,2025-06-04T19:46:09.760877
9185,-0.3138,0.9248,0.2679,13.440,4.585,-4.550,392.00,422,406,309,384,2025-06-04T19:46:09.760877
9186,-0.2869,0.9238,0.2816,10.850,7.945,-4.445,367.00,427,410,333,342,2025-06-04T19:46:09.760877
9187,-0.3070,0.9209,0.2904,8.820,11.375,-3.780,398.00,427,401,401,360,2025-06-04T19:46:09.760877
9188,-0.2928,0.9096,0.2801,8.260,13.230,-1.750,399.00,423,408,410,386,2025-06-04T19:46:09.760877
9189,-0.3260,0.9150,0.3006,7.105,15.190,-1.155,406.00,384,415,416,391,2025-06-04T19:46:09.760877
9190,-0.3436,0.9155,0.3109,5.880,14.980,-1.190,412.00,364,396,431,384,2025-06-04T19:46:09.760877
9191,-0.3826,0.9170,0.3221,4.235,11.480,-1.015,361.00,384,411,420,353,2025-06-04T19:46:09.760877
9192,-0.3733,0.9082,0.3284,2.520,5.950,-0.665,387.00,386,361,401,370,2025-06-04T19:46:09.760877
9193,-0.3826,0.9043,0.3284,0.105,2.170,-0.455,399.00,391,398,416,381,2025-06-04T19:46:09.760877
9194,-0.3294,0.8877,0.3192,-0.525,0.840,-0.350,407.00,410,403,427,381,2025-06-04T19:46:09.760877
9195,-0.3118,0.8867,0.3221,-1.155,4.935,0.140,392.00,381,421,414,394,2025-06-04T19:46:09.939099
9196,-0.3353,0.8872,0.3123,-1.750,10.255,0.350,405.00,399,421,422,383,2025-06-04T19:46:09.939099
9197,-0.3631,0.8833,0.3255,-1.260,12.320,-0.315,355.00,401,405,426,384,2025-06-04T19:46:09.939099
9198,-0.3572,0.8794,0.3118,-2.345,12.425,1.190,350.00,416,399,415,344,2025-06-04T19:46:09.939099
9199,-0.4128,0.8755,0.3089,-2.380,9.030,1.575,357.00,409,423,405,325,2025-06-04T19:46:09.939099
9200,-0.4543,0.8716,0.3240,-1.960,3.920,0.315,371.00,419,423,403,360,2025-06-04T19:46:09.940044
9201,-0.3826,0.8701,0.3231,-1.785,1.190,1.505,380.00,426,408,423,375,2025-06-04T19:46:09.940044
9202,-0.4041,0.8672,0.3113,-3.570,1.155,2.485,395.00,413,417,392,341,2025-06-04T19:46:09.940044
9203,-0.3958,0.8672,0.2991,-3.185,1.960,1.820,379.00,411,424,409,359,2025-06-04T19:46:09.940044
9204,-0.3762,0.8511,0.2972,-2.870,3.535,2.030,399.00,416,357,409,371,2025-06-04T19:46:09.940044
9205,-0.3431,0.8530,0.2987,-1.960,6.405,4.340,407.00,420,427,421,380,2025-06-04T19:46:09.940044
9206,-0.3802,0.8501,0.2943,-2.625,17.710,3.990,404.00,395,424,403,372,2025-06-04T19:46:09.940044
9207,-0.3992,0.8511,0.3016,-2.485,10.010,2.450,393.00,396,378,366,373,2025-06-04T19:46:09.940044
9208,-0.4055,0.8311,0.2982,-1.085,8.015,1.610,383.00,408,430,405,377,2025-06-04T19:46:10.370032
9209,-0.3977,0.8447,0.3172,-0.735,2.450,2.660,398.00,420,389,410,343,2025-06-04T19:46:10.370339
9210,-0.4260,0.8511,0.3040,-1.785,-4.690,2.940,395.00,412,348,422,376,2025-06-04T19:46:10.370339
9211,-0.4236,0.8472,0.3006,-1.750,-9.905,0.560,406.00,378,388,415,385,2025-06-04T19:46:10.370339
9212,-0.3562,0.8520,0.3045,-2.065,-9.100,-1.330,392.00,404,371,416,384,2025-06-04T19:46:10.370339
9213,-0.3187,0.8462,0.3074,-2.205,-4.340,-1.785,408.00,400,397,406,378,2025-06-04T19:46:10.370339
9214,-0.3294,0.8477,0.3030,-2.030,0.525,-1.085,405.00,408,379,412,388,2025-06-04T19:46:10.370339
9215,-0.3758,0.8433,0.3084,-1.855,2.660,-1.785,418.00,407,410,428,397,2025-06-04T19:46:10.370339
9216,-0.3826,0.8413,0.3128,-1.365,1.400,-2.170,411.00,410,358,403,395,2025-06-04T19:46:10.370339
9217,-0.3845,0.8540,0.3401,-0.105,-1.085,-1.820,405.00,408,369,336,345,2025-06-04T19:46:10.370339
9218,-0.4011,0.8511,0.3328,-0.525,-5.985,-1.330,383.00,412,413,380,360,2025-06-04T19:46:10.370339
9219,-0.4050,0.8384,0.3104,-0.665,-9.975,-1.645,345.00,420,426,367,363,2025-06-04T19:46:10.370339
9220,-0.3606,0.8320,0.3001,0.560,-11.165,-1.925,388.00,410,355,406,387,2025-06-04T19:46:10.370339
9221,-0.3431,0.8389,0.3016,0.700,-8.540,-2.520,391.00,412,406,427,386,2025-06-04T19:46:10.370339
9222,-0.3265,0.8564,0.3133,1.960,-3.360,-3.815,393.00,409,418,407,382,2025-06-04T19:46:10.370339
9223,-0.3362,0.8501,0.3011,0.595,0.700,-3.780,365.00,418,428,410,385,2025-06-04T19:46:10.370339
9224,-0.3504,0.8467,0.2948,-0.070,1.820,-3.150,391.00,422,415,418,392,2025-06-04T19:46:10.371386
9225,-0.3748,0.8496,0.2908,0.245,1.225,-2.975,355.00,413,420,364,394,2025-06-04T19:46:10.371386
9226,-0.3889,0.8564,0.2982,-0.105,0.280,-3.570,374.00,411,408,402,401,2025-06-04T19:46:10.371386
9227,-0.3884,0.8525,0.2918,-0.525,-2.800,-4.025,384.00,411,405,401,383,2025-06-04T19:46:10.371386
9228,-0.3928,0.8496,0.2899,-1.085,-6.055,-3.815,379.00,418,422,426,384,2025-06-04T19:46:10.371386
9229,-0.3709,0.8516,0.3001,-1.085,-8.400,-3.885,387.00,418,410,425,375,2025-06-04T19:46:10.371386
9230,-0.3709,0.8472,0.2933,-1.330,-8.085,-4.515,386.00,393,398,411,382,2025-06-04T19:46:10.371386
9231,-0.3621,0.8447,0.2928,-1.295,-7.280,-5.110,405.00,400,428,430,395,2025-06-04T19:46:10.371386
9232,-0.3538,0.8477,0.2938,-1.225,-5.705,-5.460,390.00,417,404,423,382,2025-06-04T19:46:10.371386
9233,-0.3587,0.8496,0.2938,-1.400,-4.130,-5.670,399.00,417,417,409,391,2025-06-04T19:46:10.371386
9234,-0.3514,0.8530,0.2957,-0.805,-2.415,-5.915,403.00,385,403,413,376,2025-06-04T19:46:10.371386
9235,-0.3577,0.8535,0.2889,-1.085,-1.015,-5.845,404.00,402,365,409,374,2025-06-04T19:46:10.371386
9236,-0.3655,0.8589,0.2962,-0.700,-1.330,-6.265,395.00,406,376,400,384,2025-06-04T19:46:10.371386
9237,-0.3719,0.8589,0.2977,-1.155,-1.855,-6.195,393.00,376,352,387,368,2025-06-04T19:46:10.371386
9238,-0.3782,0.8608,0.2952,-1.225,-4.060,-6.125,403.00,396,413,424,370,2025-06-04T19:46:10.371386
9239,-0.3875,0.8594,0.3006,-1.085,-5.985,-6.300,407.00,394,371,405,377,2025-06-04T19:46:10.371386
9240,-0.3689,0.8603,0.2987,-1.295,-6.615,-6.020,409.00,370,396,404,357,2025-06-04T19:46:10.371386
9241,-0.3660,0.8623,0.2991,-1.680,-5.705,-5.950,413.00,392,425,397,366,2025-06-04T19:46:10.371386
9242,-0.3577,0.8618,0.3030,-2.100,-3.815,-5.845,420.00,380,430,416,334,2025-06-04T19:46:10.371386
9243,-0.3733,0.8686,0.3035,-2.450,-2.275,-5.775,418.00,404,412,380,367,2025-06-04T19:46:10.371386
9244,-0.3836,0.8579,0.2962,-2.800,-2.940,-5.635,411.00,413,419,391,385,2025-06-04T19:46:10.372386
9245,-0.4036,0.8633,0.3055,-3.290,-4.865,-5.670,407.00,419,410,432,352,2025-06-04T19:46:10.372386
9246,-0.3958,0.8584,0.3006,-3.570,-6.615,-5.285,319.00,422,378,403,357,2025-06-04T19:46:10.372386
9247,-0.4016,0.8535,0.3060,-3.955,-8.330,-4.865,379.00,410,391,391,372,2025-06-04T19:46:10.372386
9248,-0.3894,0.8545,0.3045,-4.375,-8.505,-4.305,346.00,386,395,414,383,2025-06-04T19:46:10.372386
9249,-0.3855,0.8457,0.3026,-4.515,-7.980,-3.640,376.00,366,428,426,376,2025-06-04T19:46:10.372386
9250,-0.3704,0.8452,0.3060,-4.060,-5.915,-2.835,382.00,362,425,416,336,2025-06-04T19:46:10.372386
9251,-0.3792,0.8447,0.3006,-3.990,-2.625,-2.240,348.00,354,372,384,369,2025-06-04T19:46:10.500684
9252,-0.3875,0.8462,0.3060,-3.360,-0.665,-2.380,372.00,376,376,342,372,2025-06-04T19:46:10.500684
9253,-0.3963,0.8438,0.3045,-3.325,-0.665,-2.065,341.00,393,391,381,381,2025-06-04T19:46:10.500684
9254,-0.4094,0.8369,0.3030,-3.500,-2.520,-1.960,377.00,393,400,340,375,2025-06-04T19:46:10.500684
9255,-0.4138,0.8345,0.3055,-2.940,-4.025,-2.450,395.00,402,412,347,340,2025-06-04T19:46:10.500684
9256,-0.3967,0.8364,0.3026,-2.975,-5.040,-2.695,403.00,409,429,384,374,2025-06-04T19:46:10.500684
9257,-0.3860,0.8350,0.3123,-2.975,-4.410,-2.870,395.00,384,425,410,370,2025-06-04T19:46:10.500684
9258,-0.3733,0.8350,0.3016,-3.290,-2.660,-2.485,390.00,405,423,395,334,2025-06-04T19:46:10.500684
9259,-0.3884,0.8355,0.2962,-3.080,-0.945,-2.485,411.00,404,403,396,365,2025-06-04T19:46:10.500684
9260,-0.3992,0.8359,0.2996,-2.975,-0.420,-2.870,413.00,411,395,401,335,2025-06-04T19:46:10.500684
9261,-0.4089,0.8364,0.2996,-3.465,-0.665,-2.905,407.00,417,341,415,364,2025-06-04T19:46:10.500684
9262,-0.4187,0.8345,0.3079,-3.430,-1.645,-3.185,402.00,410,401,418,335,2025-06-04T19:46:10.500684
9263,-0.4158,0.8364,0.3060,-4.060,-2.100,-2.905,401.00,416,425,434,361,2025-06-04T19:46:10.796002
9264,-0.4124,0.8335,0.3079,-3.920,-1.715,-2.800,395.00,407,399,425,374,2025-06-04T19:46:10.796002
9265,-0.4080,0.8272,0.3099,-4.235,-0.910,-2.765,365.00,403,423,435,375,2025-06-04T19:46:10.796002
9266,-0.4211,0.8237,0.3109,-4.410,-0.490,-2.240,380.00,412,309,396,386,2025-06-04T19:46:10.796002
9267,-0.4348,0.8228,0.3255,-3.850,-1.400,-2.065,401.00,405,380,386,377,2025-06-04T19:46:10.796002
9268,-0.4329,0.8198,0.3226,-3.780,-2.870,-1.295,394.00,384,405,405,341,2025-06-04T19:46:10.796002
9269,-0.4402,0.8218,0.3270,-3.465,-4.375,-1.400,403.00,407,342,373,354,2025-06-04T19:46:10.796002
9270,-0.4265,0.8237,0.3353,-3.150,-5.250,-1.575,397.00,395,412,400,379,2025-06-04T19:46:10.796002
9271,-0.4207,0.8179,0.3289,-3.395,-5.005,-1.575,406.00,404,305,417,385,2025-06-04T19:46:10.796002
9272,-0.4158,0.8189,0.3323,-2.870,-4.585,-1.750,398.00,403,377,428,390,2025-06-04T19:46:10.796002
9273,-0.4128,0.8179,0.3279,-2.975,-3.430,-1.960,414.00,403,413,396,351,2025-06-04T19:46:10.796002
9274,-0.4104,0.8154,0.3260,-2.100,-2.695,-2.450,410.00,386,420,412,363,2025-06-04T19:46:10.796002
9275,-0.4187,0.8130,0.3270,-1.960,-1.995,-2.870,409.00,401,424,373,370,2025-06-04T19:46:10.796002
9276,-0.4202,0.8101,0.3323,-1.610,-1.645,-2.975,358.00,384,421,397,378,2025-06-04T19:46:10.796002
9277,-0.4211,0.8159,0.3382,-1.575,-1.400,-2.870,403.00,392,410,422,310,2025-06-04T19:46:10.796002
9278,-0.4353,0.8174,0.3416,-2.065,-1.750,-3.150,407.00,403,426,354,353,2025-06-04T19:46:10.796002
9279,-0.4358,0.8150,0.3338,-1.925,-3.150,-3.325,407.00,414,429,329,363,2025-06-04T19:46:10.889712
9280,-0.4255,0.8120,0.3367,-1.960,-3.920,-2.800,419.00,410,433,391,376,2025-06-04T19:46:10.889712
9281,-0.4231,0.8150,0.3372,-2.030,-3.815,-2.590,413.00,414,436,424,380,2025-06-04T19:46:10.889712
9282,-0.4319,0.8233,0.3377,-2.065,-3.115,-3.150,358.00,415,421,412,379,2025-06-04T19:46:10.889712
9283,-0.4382,0.8184,0.3279,-2.030,-3.290,-3.535,387.00,409,399,407,374,2025-06-04T19:46:10.889712
9284,-0.4480,0.8154,0.3323,-1.750,-4.830,-3.745,387.00,416,357,385,370,2025-06-04T19:46:10.889712
9285,-0.4490,0.8218,0.3338,-1.645,-6.580,-3.675,391.00,419,415,395,375,2025-06-04T19:46:10.889712
9286,-0.4460,0.8213,0.3343,-1.435,-7.980,-3.535,345.00,410,367,341,337,2025-06-04T19:46:10.889712
9287,-0.4470,0.8169,0.3353,-1.260,-9.485,-3.220,379.00,417,391,377,365,2025-06-04T19:46:10.889712
9288,-0.4421,0.8208,0.3392,-1.085,-9.765,-3.080,393.00,416,401,409,380,2025-06-04T19:46:10.890799
9289,-0.4338,0.8179,0.3353,-0.665,-10.185,-2.905,394.00,425,418,400,380,2025-06-04T19:46:10.890799
9290,-0.4392,0.8145,0.3309,-0.595,-11.340,-2.590,354.00,401,403,424,377,2025-06-04T19:46:10.890799
9291,-0.4451,0.8189,0.3338,-0.525,-12.740,-2.555,378.00,400,417,400,379,2025-06-04T19:46:10.890799
9292,-0.4377,0.8174,0.3338,-0.315,-13.090,-2.800,398.00,411,398,402,379,2025-06-04T19:46:10.890799
9293,-0.4319,0.8198,0.3416,-0.420,-12.425,-2.765,346.00,388,361,409,383,2025-06-04T19:46:10.890799
9294,-0.4202,0.8218,0.3362,-0.770,-10.885,-2.625,366.00,404,415,430,393,2025-06-04T19:46:10.890799
9295,-0.4260,0.8189,0.3309,-0.770,-9.100,-2.450,339.00,415,404,437,388,2025-06-04T19:46:11.219486
9296,-0.4270,0.8223,0.3294,-0.630,-7.840,-2.310,386.00,418,399,427,377,2025-06-04T19:46:11.219486
9297,-0.4319,0.8213,0.3250,-0.595,-7.700,-2.065,398.00,418,415,427,382,2025-06-04T19:46:11.219486
9298,-0.4285,0.8174,0.3177,-0.105,-8.820,-1.155,398.00,416,428,440,390,2025-06-04T19:46:11.219486
9299,-0.4324,0.8228,0.3245,-0.070,-9.940,-0.945,359.00,412,372,431,390,2025-06-04T19:46:11.219486
9300,-0.4260,0.8316,0.3279,0.000,-10.325,-1.260,394.00,409,410,430,358,2025-06-04T19:46:11.219486
9301,-0.4377,0.8281,0.3294,-0.140,-11.585,-1.645,403.00,403,349,421,363,2025-06-04T19:46:11.219486
9302,-0.4260,0.8223,0.3221,-0.350,-13.300,-1.365,407.00,412,405,417,364,2025-06-04T19:46:11.219486
9303,-0.4187,0.8223,0.3211,-0.140,-14.805,-0.805,412.00,422,401,418,384,2025-06-04T19:46:11.219486
9304,-0.4207,0.8203,0.3196,-0.420,-15.820,-0.420,396.00,422,432,356,389,2025-06-04T19:46:11.220483
9305,-0.4246,0.8233,0.3192,-0.910,-17.640,-0.455,411.00,409,415,384,344,2025-06-04T19:46:11.220483
9306,-0.4363,0.8242,0.3235,-1.645,-20.160,-0.525,318.00,420,307,392,358,2025-06-04T19:46:11.220483
9307,-0.4285,0.8252,0.3245,-2.135,-22.680,-0.245,361.00,384,335,405,377,2025-06-04T19:46:11.220483
9308,-0.4265,0.8252,0.3192,-3.465,-24.010,-0.595,372.00,364,341,406,356,2025-06-04T19:46:11.220483
9309,-0.4085,0.8213,0.3167,-4.340,-24.430,-0.840,393.00,385,405,433,371,2025-06-04T19:46:11.220483
9310,-0.3943,0.8247,0.3152,-5.460,-24.535,-0.700,407.00,402,347,394,372,2025-06-04T19:46:11.220483
9311,-0.3963,0.8291,0.3104,-7.525,-25.550,-1.015,410.00,411,394,366,380,2025-06-04T19:46:11.220483
9312,-0.4338,0.8325,0.2991,-9.730,-30.135,-0.980,416.00,354,376,393,374,2025-06-04T19:46:11.220483
9313,-0.4753,0.8491,0.2972,-12.460,-44.205,-0.140,411.00,374,412,401,365,2025-06-04T19:46:11.329240
9314,-0.5456,0.8745,0.3006,-18.970,-66.920,1.400,397.00,388,379,414,387,2025-06-04T19:46:11.329240
9315,-0.5187,0.8945,0.2884,-26.705,-93.275,2.975,403.00,400,413,424,390,2025-06-04T19:46:11.329240
9316,-0.4792,0.9008,0.2464,-37.205,-117.950,5.950,351.00,404,374,405,378,2025-06-04T19:46:11.329240
9317,-0.4377,0.9238,0.2118,-47.530,-138.530,8.085,392.00,408,416,374,390,2025-06-04T19:46:11.329240
9318,-0.3060,0.9438,0.1918,-58.170,-146.685,8.295,413.00,418,422,400,395,2025-06-04T19:46:11.329240
9319,-0.1298,0.9579,0.1903,-71.995,-137.445,7.490,407.00,419,418,398,391,2025-06-04T19:46:11.329240
9320,-0.0708,0.9335,0.2162,-84.105,-118.090,6.965,404.00,422,407,417,379,2025-06-04T19:46:11.329240
9321,-0.0664,0.9062,0.2596,-95.305,-96.145,7.700,394.00,423,406,413,376,2025-06-04T19:46:11.329240
9322,-0.1279,0.8540,0.2967,-103.355,-79.905,9.345,348.00,413,400,425,342,2025-06-04T19:46:11.329240
9323,-0.2206,0.8130,0.3689,-110.740,-71.225,11.865,394.00,424,415,422,375,2025-06-04T19:46:11.329240
9324,-0.2874,0.7701,0.4202,-114.660,-70.350,15.435,394.00,420,427,414,343,2025-06-04T19:46:11.329240
9325,-0.3816,0.7564,0.4904,-118.685,-74.165,18.970,406.00,396,425,417,355,2025-06-04T19:46:11.329240
9326,-0.3860,0.7369,0.5329,-121.275,-80.395,22.820,413.00,404,382,437,371,2025-06-04T19:46:11.329240
9327,-0.3894,0.7213,0.5646,-124.495,-85.680,27.545,354.00,406,409,352,375,2025-06-04T19:46:11.329240
9328,-0.3640,0.6978,0.5876,-125.965,-90.055,33.005,382.00,386,429,387,382,2025-06-04T19:46:11.329240
9329,-0.4221,0.6798,0.6193,-126.770,-96.145,38.220,413.00,405,405,393,371,2025-06-04T19:46:11.329240
9330,-0.3636,0.6700,0.6593,-127.050,-103.810,44.205,409.00,398,301,410,377,2025-06-04T19:46:11.604504
9331,-0.3694,0.6451,0.6783,-128.240,-111.335,51.275,388.00,379,326,410,377,2025-06-04T19:46:11.604504
9332,-0.2645,0.6266,0.6769,-128.100,-114.730,58.170,401.00,388,393,408,386,2025-06-04T19:46:11.604504
9333,-0.2045,0.6134,0.7164,-126.945,-109.480,64.575,406.00,405,400,397,386,2025-06-04T19:46:11.604504
9334,-0.1118,0.6061,0.7681,-125.895,-99.610,69.930,411.00,405,416,416,382,2025-06-04T19:46:11.604504
9335,-0.1415,0.5983,0.8164,-126.385,-90.860,75.390,364.00,407,417,411,384,2025-06-04T19:46:11.604504
9336,-0.1508,0.5583,0.8247,-126.490,-87.920,78.680,340.00,405,423,415,386,2025-06-04T19:46:11.604504
9337,-0.0942,0.4900,0.8130,-124.285,-87.535,83.615,338.00,412,424,422,392,2025-06-04T19:46:11.605030
9338,0.0122,0.4372,0.8350,-118.790,-85.470,90.650,372.00,413,425,413,389,2025-06-04T19:46:11.605030
9339,0.0830,0.4094,0.9067,-112.630,-77.910,95.865,397.00,405,433,429,373,2025-06-04T19:46:11.605030
9340,0.0620,0.4006,0.9760,-109.200,-66.360,96.285,386.00,408,359,396,377,2025-06-04T19:46:11.605399
9341,0.1103,0.3699,0.9887,-105.210,-57.505,93.695,384.00,413,385,410,339,2025-06-04T19:46:11.605399
9342,0.1362,0.3309,0.9701,-101.885,-48.685,91.420,407.00,417,416,422,367,2025-06-04T19:46:11.605399
9343,0.1742,0.2874,0.9579,-95.480,-41.615,88.550,410.00,419,423,412,373,2025-06-04T19:46:11.605399
9344,0.1869,0.1269,0.9662,-88.900,-34.545,85.505,385.00,419,400,379,378,2025-06-04T19:46:11.606015
9345,0.1869,0.2323,1.0146,-84.140,-29.960,80.780,407.00,428,303,396,385,2025-06-04T19:46:11.606015
9346,0.1357,0.2220,1.0248,-80.535,-29.610,75.495,401.00,416,332,413,372,2025-06-04T19:46:11.730164
9347,0.1430,0.1864,1.0350,-75.845,-33.285,71.295,409.00,409,405,396,378,2025-06-04T19:46:11.730164
9348,0.1176,0.1620,1.0453,-70.770,-37.660,66.955,356.00,419,428,417,375,2025-06-04T19:46:11.730164
9349,0.1386,0.1493,1.0414,-65.485,-39.655,62.020,380.00,417,427,388,383,2025-06-04T19:46:11.730164
9350,0.1840,0.1391,1.0321,-60.550,-36.855,56.735,379.00,409,348,401,344,2025-06-04T19:46:11.730164
9351,0.2098,0.1264,1.0219,-55.545,-32.095,51.275,393.00,410,412,431,359,2025-06-04T19:46:11.730164
9352,0.2137,0.1118,1.0131,-50.435,-26.880,46.305,396.00,419,420,409,376,2025-06-04T19:46:11.730164
9353,0.2030,0.1064,1.0136,-44.695,-22.925,40.565,407.00,412,415,427,374,2025-06-04T19:46:11.730164
9354,0.1898,0.0830,1.0136,-39.340,-20.440,34.965,392.00,408,417,405,371,2025-06-04T19:46:11.730164
9355,0.1571,0.0659,1.0926,-37.345,-19.355,30.695,384.00,407,409,401,371,2025-06-04T19:46:11.731060
9356,0.1932,0.1449,1.0243,-27.615,-18.900,27.020,382.00,417,419,414,353,2025-06-04T19:46:11.731060
9357,0.1732,0.0991,1.0307,-24.885,-19.075,22.680,390.00,394,417,404,340,2025-06-04T19:46:11.731060
9358,0.1835,0.1005,1.0399,-19.705,-17.850,19.005,346.00,408,311,383,354,2025-06-04T19:46:12.025353
9359,0.1889,0.1122,1.0365,-14.140,-14.665,15.575,365.00,413,390,421,361,2025-06-04T19:46:12.025353
9360,0.1957,0.1118,1.0204,-12.355,-13.545,13.020,399.00,411,421,409,365,2025-06-04T19:46:12.025353
9361,0.2050,0.1142,1.0067,-8.120,-12.950,12.145,397.00,413,423,348,372,2025-06-04T19:46:12.025353
9362,0.2196,0.1249,1.0238,-4.550,-10.605,11.410,389.00,382,400,333,369,2025-06-04T19:46:12.025353
9363,0.1986,0.1405,1.0385,-1.540,-7.735,8.890,343.00,400,426,418,385,2025-06-04T19:46:12.025353
9364,0.1976,0.1469,1.0360,-0.105,-6.650,6.580,372.00,402,393,400,362,2025-06-04T19:46:12.025353
9365,0.2030,0.1454,1.0204,1.365,-7.070,5.390,342.00,411,341,336,373,2025-06-04T19:46:12.025353
9366,0.2040,0.1435,1.0106,2.975,-8.365,5.530,388.00,375,384,419,339,2025-06-04T19:46:12.025353
9367,0.2035,0.1562,1.0077,4.620,-9.415,5.215,377.00,397,402,423,363,2025-06-04T19:46:12.025353
9368,0.2113,0.1664,1.0077,4.410,-9.135,4.410,397.00,371,392,381,372,2025-06-04T19:46:12.025353
9369,0.2191,0.1752,1.0024,3.430,-8.330,3.430,387.00,382,396,428,376,2025-06-04T19:46:12.025353
9370,0.2225,0.1703,0.9911,2.590,-8.085,3.185,402.00,403,426,428,345,2025-06-04T19:46:12.025353
9371,0.2235,0.1693,0.9887,2.240,-8.575,3.605,397.00,412,383,416,361,2025-06-04T19:46:12.025353
9372,0.2245,0.1630,0.9775,1.470,-9.275,3.990,392.00,354,371,413,365,2025-06-04T19:46:12.025353
9373,0.2235,0.1562,0.9745,1.295,-9.975,4.095,402.00,385,422,421,362,2025-06-04T19:46:12.025353
9374,0.2220,0.1591,0.9867,0.980,-9.905,4.060,396.00,405,403,394,384,2025-06-04T19:46:12.025353
9375,0.2279,0.1523,0.9804,0.385,-9.520,4.235,403.00,407,431,345,383,2025-06-04T19:46:12.025353
9376,0.2240,0.1420,0.9706,0.280,-9.800,4.655,384.00,387,412,400,357,2025-06-04T19:46:12.025353
9377,0.2245,0.1362,0.9755,0.140,-10.080,5.215,390.00,360,411,402,378,2025-06-04T19:46:12.025353
9378,0.2347,0.1371,0.9794,-0.420,-10.500,5.565,307.00,373,345,411,370,2025-06-04T19:46:12.136951
9379,0.2445,0.1342,0.9780,0.385,-8.715,5.180,331.00,395,383,409,374,2025-06-04T19:46:12.137904
9380,0.2518,0.1274,0.9726,0.525,-5.670,4.165,335.00,393,416,426,374,2025-06-04T19:46:12.137904
9381,0.2460,0.1210,0.9682,1.435,-4.725,3.395,392.00,364,410,425,363,2025-06-04T19:46:12.137904
9382,0.2328,0.1420,0.9706,1.295,-6.545,2.730,391.00,351,394,406,376,2025-06-04T19:46:12.137904
9383,0.2411,0.1479,0.9745,1.575,-7.455,0.595,385.00,378,352,353,381,2025-06-04T19:46:12.137904
9384,0.3094,0.1762,0.9340,1.225,-1.295,0.350,336.00,362,411,410,373,2025-06-04T19:46:12.137904
9385,0.2977,0.0532,0.9653,-0.735,-2.800,-2.835,375.00,378,408,416,340,2025-06-04T19:46:12.137904
9386,0.2084,0.1235,0.9462,0.420,-3.465,-4.410,374.00,384,422,345,318,2025-06-04T19:46:12.137904
9387,0.2094,0.1391,0.9819,4.270,-6.125,-4.060,379.00,402,407,402,362,2025-06-04T19:46:12.137904
9388,0.1957,0.1571,0.9809,-1.750,-13.300,-4.060,398.00,411,422,402,382,2025-06-04T19:46:12.137904
9389,0.2045,0.1654,0.9672,-4.305,-14.945,-4.515,414.00,419,347,412,395,2025-06-04T19:46:12.137904
9390,0.2186,0.1596,0.9618,-1.365,-14.980,-4.340,401.00,412,337,389,376,2025-06-04T19:46:12.137904
9391,0.2391,0.1728,0.9584,-2.275,-12.355,-3.465,411.00,410,333,400,386,2025-06-04T19:46:12.137904
9392,0.2577,0.1762,0.9560,-2.205,-7.140,-2.240,414.00,415,397,424,354,2025-06-04T19:46:12.137904
9393,0.2406,0.1801,0.9633,-2.765,-3.955,-0.140,408.00,391,412,425,368,2025-06-04T19:46:12.137904
9394,0.2045,0.1908,0.9736,-2.835,-3.640,1.260,374.00,391,405,400,334,2025-06-04T19:46:12.137904
9395,0.2020,0.1898,0.9809,-2.870,-4.795,1.820,382.00,372,360,340,366,2025-06-04T19:46:12.137904
9396,0.2089,0.1801,0.9819,-3.360,-6.195,2.485,405.00,392,413,405,376,2025-06-04T19:46:12.346709
9397,0.2259,0.1806,0.9843,-3.045,-6.475,2.450,408.00,407,421,393,376,2025-06-04T19:46:12.346709
9398,0.2225,0.1752,0.9760,-2.100,-6.195,2.345,393.00,409,409,399,377,2025-06-04T19:46:12.346709
9399,0.2318,0.1767,0.9770,-2.835,-6.650,1.855,398.00,412,414,415,382,2025-06-04T19:46:12.346709
9400,0.2391,0.1742,0.9823,-1.190,-6.020,1.435,343.00,404,436,366,342,2025-06-04T19:46:12.346709
9401,0.2294,0.1806,0.9780,-0.350,-6.650,0.700,349.00,401,406,402,351,2025-06-04T19:46:12.346709
9402,0.2313,0.1825,0.9677,-0.280,-6.930,-0.875,371.00,405,398,425,353,2025-06-04T19:46:12.346709
9403,0.2499,0.1781,0.9770,0.980,-5.600,-1.610,384.00,384,396,381,366,2025-06-04T19:46:12.346709
9404,0.2420,0.1747,0.9828,2.380,-5.810,-2.730,402.00,369,426,389,373,2025-06-04T19:46:12.346709
9405,0.2264,0.1762,0.9965,1.365,-6.860,-3.955,400.00,356,382,410,379,2025-06-04T19:46:12.346709
9406,0.2328,0.1713,0.9911,2.275,-8.295,-4.410,401.00,373,422,361,380,2025-06-04T19:46:12.346709
9407,0.2513,0.1767,0.9921,2.380,-7.385,-5.040,359.00,381,410,342,350,2025-06-04T19:46:12.346709
9408,0.2494,0.1688,0.9902,4.830,-5.565,-4.970,388.00,397,419,417,378,2025-06-04T19:46:12.346709
9409,0.2333,0.1708,0.9926,4.445,-5.915,-4.725,408.00,408,399,403,384,2025-06-04T19:46:12.346709
9410,0.2201,0.1669,0.9994,5.845,-6.685,-3.850,417.00,402,373,416,394,2025-06-04T19:46:12.346709
9411,0.2137,0.1688,0.9970,5.740,-7.840,-3.150,398.00,413,392,370,377,2025-06-04T19:46:12.346709
9412,0.2113,0.1645,0.9994,3.640,-8.855,-2.870,390.00,409,404,415,380,2025-06-04T19:46:12.346709
9413,0.2118,0.1669,0.9970,4.935,-11.130,-2.345,403.00,404,435,424,342,2025-06-04T19:46:12.346709
9414,0.2289,0.1620,0.9892,5.355,-10.815,-1.680,401.00,412,413,424,369,2025-06-04T19:46:12.542781
9415,0.2377,0.1659,0.9838,3.255,-10.185,-1.120,381.00,410,366,408,331,2025-06-04T19:46:12.542781
9416,0.2274,0.1669,0.9789,2.310,-10.395,-0.525,384.00,414,367,390,353,2025-06-04T19:46:12.542781
9417,0.2064,0.1669,0.9721,1.050,-10.500,0.140,379.00,415,410,351,365,2025-06-04T19:46:12.543580
9418,0.2015,0.1664,0.9862,1.050,-12.285,0.280,391.00,401,418,398,338,2025-06-04T19:46:12.543580
9419,0.2089,0.1566,0.9809,-1.050,-12.215,0.630,400.00,377,350,416,362,2025-06-04T19:46:12.543580
9420,0.2196,0.1527,0.9784,0.560,-13.615,0.875,401.00,389,409,390,341,2025-06-04T19:46:12.543580
9421,0.2372,0.1464,0.9726,-0.980,-10.815,1.225,390.00,395,415,396,370,2025-06-04T19:46:12.543580
9422,0.2333,0.1381,0.9731,-0.595,-8.540,0.560,404.00,382,420,358,378,2025-06-04T19:46:12.543580
9423,0.2128,0.1396,0.9731,2.800,-8.295,-0.455,354.00,389,399,335,374,2025-06-04T19:46:12.543580
9424,0.2030,0.1444,0.9794,0.315,-8.260,-1.680,386.00,409,425,409,379,2025-06-04T19:46:12.543580
9425,0.2240,0.1444,0.9667,2.415,-8.155,-2.170,379.00,402,413,414,384,2025-06-04T19:46:12.543580
9426,0.2347,0.1562,0.9604,2.765,-6.720,-2.345,387.00,400,433,401,375,2025-06-04T19:46:12.544256
9427,0.2186,0.1601,0.9492,4.865,-5.670,-2.940,395.00,375,398,420,388,2025-06-04T19:46:12.544256
9428,0.2411,0.1610,0.9453,5.670,-4.760,-3.185,384.00,390,397,433,389,2025-06-04T19:46:12.544662
9429,0.2425,0.1674,0.9643,6.510,-3.465,-3.535,376.00,391,395,422,380,2025-06-04T19:46:12.591685
9430,0.2582,0.1669,0.9658,6.580,-0.210,-4.515,343.00,403,400,378,343,2025-06-04T19:46:12.591685
9431,0.2821,0.1801,0.9614,4.795,4.130,-6.475,370.00,405,402,411,374,2025-06-04T19:46:12.591685
9432,0.2840,0.1776,0.9750,6.265,7.420,-7.420,384.00,374,437,399,384,2025-06-04T19:46:12.591685
9433,0.2528,0.1732,0.9887,8.085,6.755,-7.630,340.00,388,429,425,381,2025-06-04T19:46:12.742639
9434,0.2137,0.1815,0.9945,9.450,0.945,-7.665,381.00,397,428,411,377,2025-06-04T19:46:12.742639
9435,0.2167,0.1957,0.9994,8.190,-5.285,-8.400,376.00,372,372,429,384,2025-06-04T19:46:12.742639
9436,0.2494,0.2098,0.9955,6.510,-6.370,-9.625,341.00,384,295,394,339,2025-06-04T19:46:12.742639
9437,0.2660,0.2181,0.9916,6.720,-4.130,-10.395,376.00,371,399,398,366,2025-06-04T19:46:12.742639
9438,0.3001,0.2298,1.0043,5.915,-0.630,-9.975,337.00,383,412,432,383,2025-06-04T19:46:12.742639
9439,0.2786,0.1942,1.0043,4.270,-1.050,-10.360,386.00,397,405,426,351,2025-06-04T19:46:12.742639
9440,0.2298,0.2089,0.9862,0.175,-2.800,-9.100,394.00,409,395,416,334,2025-06-04T19:46:12.742639
9441,0.2245,0.1918,0.9833,-3.080,-0.175,-7.315,395.00,406,425,424,326,2025-06-04T19:46:12.742639
9442,0.2108,0.1786,1.0136,2.310,-1.575,-7.630,387.00,405,439,427,347,2025-06-04T19:46:12.742639
9443,0.2098,0.1664,1.0043,4.235,-0.035,-7.315,412.00,410,424,381,378,2025-06-04T19:46:12.742639
9444,0.2230,0.1459,1.0160,3.290,0.105,-6.405,392.00,382,351,422,378,2025-06-04T19:46:12.742639
9445,0.2059,0.1444,1.0253,3.640,-1.050,-6.965,406.00,397,398,438,373,2025-06-04T19:46:12.742639
9446,0.2074,0.1249,1.0268,8.295,0.000,-8.155,406.00,412,431,415,371,2025-06-04T19:46:12.941208
9447,0.2430,0.0693,1.0736,13.685,3.150,-10.815,386.00,383,426,407,365,2025-06-04T19:46:12.941208
9448,0.2323,0.1235,1.0331,14.210,1.540,-13.125,379.00,395,405,391,360,2025-06-04T19:46:12.941208
9449,0.2147,0.0883,1.0209,17.605,3.395,-16.345,399.00,405,349,388,348,2025-06-04T19:46:12.941208
9450,0.2274,0.0717,1.0243,20.895,8.295,-20.755,350.00,412,405,392,340,2025-06-04T19:46:12.941208
9451,0.2342,0.0634,1.0238,26.775,14.630,-26.775,400.00,413,406,425,357,2025-06-04T19:46:12.941208
9452,0.2430,0.0566,1.0228,31.710,22.610,-33.530,392.00,422,406,425,379,2025-06-04T19:46:12.941208
9453,0.2430,0.0473,1.0243,37.590,32.060,-40.705,395.00,416,373,423,375,2025-06-04T19:46:12.941208
9454,0.2479,0.0439,1.0228,44.870,40.775,-47.740,381.00,415,396,405,387,2025-06-04T19:46:12.941208
9455,0.2518,0.0595,1.0365,51.940,53.480,-54.670,395.00,404,356,357,379,2025-06-04T19:46:12.941208
9456,0.2450,0.0556,1.0350,59.185,67.585,-61.005,405.00,403,405,396,344,2025-06-04T19:46:12.941208
9457,0.2220,0.0488,1.0326,68.110,81.620,-65.870,365.00,402,421,403,372,2025-06-04T19:46:12.941208
9458,0.1996,0.0630,1.0385,78.505,95.830,-70.525,388.00,382,438,413,371,2025-06-04T19:46:12.941208
9459,0.1649,0.0825,1.0546,89.285,111.160,-75.180,404.00,369,406,440,377,2025-06-04T19:46:12.941208
9460,0.0952,0.1000,1.0599,99.890,125.195,-78.855,401.00,386,392,407,385,2025-06-04T19:46:12.941208
9461,0.0327,0.1366,1.0516,111.020,136.360,-82.285,401.00,388,427,405,389,2025-06-04T19:46:13.076995
9462,-0.0468,0.1747,1.0224,121.730,144.165,-83.895,386.00,405,426,431,397,2025-06-04T19:46:13.077542
9463,-0.2362,0.2469,1.0209,133.700,147.980,-82.845,376.00,416,360,355,389,2025-06-04T19:46:13.077542
9464,-0.2006,0.2860,0.9838,143.045,147.280,-79.450,379.00,408,410,381,384,2025-06-04T19:46:13.077542
9465,-0.2499,0.3719,0.9726,152.845,141.750,-75.320,388.00,377,344,415,375,2025-06-04T19:46:13.077542
9466,-0.3133,0.4192,0.9457,160.265,134.470,-69.125,379.00,387,394,410,383,2025-06-04T19:46:13.077542
9467,-0.3440,0.4782,0.9077,166.145,124.845,-60.515,337.00,399,398,361,392,2025-06-04T19:46:13.077542
9468,-0.3684,0.5617,0.8965,171.115,115.150,-51.520,375.00,393,396,338,404,2025-06-04T19:46:13.077542
9469,-0.3826,0.6198,0.8550,171.395,107.590,-43.365,345.00,405,402,412,407,2025-06-04T19:46:13.077542
9470,-0.4109,0.6632,0.7930,170.730,100.660,-35.490,378.00,410,408,427,407,2025-06-04T19:46:13.077542
9471,-0.3455,0.6856,0.7022,170.485,96.180,-26.005,390.00,410,436,436,392,2025-06-04T19:46:13.077542
9472,-0.3299,0.7305,0.6710,167.545,98.070,-17.010,404.00,383,398,436,388,2025-06-04T19:46:13.166206
9473,-0.3026,0.7549,0.6071,164.570,103.075,-8.925,367.00,395,413,415,375,2025-06-04T19:46:13.166206
9474,-0.2923,0.7666,0.5402,159.460,107.135,-0.980,373.00,372,407,410,379,2025-06-04T19:46:13.166206
9475,-0.3294,0.7647,0.4734,153.335,107.625,7.210,380.00,387,430,407,387,2025-06-04T19:46:13.166206
9476,-0.3436,0.7593,0.4006,149.695,108.710,13.125,378.00,399,405,411,383,2025-06-04T19:46:13.166206
9477,-0.4368,0.7730,0.3465,141.750,108.465,17.115,391.00,414,432,369,376,2025-06-04T19:46:13.166206
9478,-0.4846,0.7798,0.3104,135.940,100.380,20.720,355.00,404,355,400,354,2025-06-04T19:46:13.166206
9479,-0.5026,0.7803,0.2879,127.225,84.840,24.640,349.00,413,410,352,371,2025-06-04T19:46:13.293936
9480,-0.4841,0.7974,0.2655,117.215,68.460,27.335,374.00,420,375,393,383,2025-06-04T19:46:13.293936
9481,-0.5109,0.7998,0.2206,108.080,47.985,29.540,378.00,416,343,405,389,2025-06-04T19:46:13.293936
9482,-0.5036,0.7989,0.1825,98.875,26.390,30.030,392.00,385,382,427,391,2025-06-04T19:46:13.293936
9483,-0.4670,0.7788,0.1288,89.425,4.480,29.820,378.00,404,406,386,397,2025-06-04T19:46:13.293936
9484,-0.4377,0.7837,0.2474,80.220,-12.705,27.825,393.00,378,381,402,387,2025-06-04T19:46:13.293936
9485,-0.3465,0.8032,0.1322,71.785,-21.560,24.605,401.00,398,425,411,396,2025-06-04T19:46:13.293936
9486,-0.2904,0.8067,0.1093,62.545,-21.210,20.755,384.00,397,412,409,379,2025-06-04T19:46:13.293936
9487,-0.2621,0.8057,0.0893,55.160,-15.470,15.890,381.00,406,437,345,378,2025-06-04T19:46:13.293936
9488,-0.2508,0.8081,0.0991,49.315,-7.350,10.990,391.00,411,350,411,390,2025-06-04T19:46:13.357870
9489,-0.2650,0.8135,0.1083,43.225,-1.435,7.175,388.00,405,386,438,383,2025-06-04T19:46:13.357870
9490,-0.2972,0.8208,0.1157,36.925,0.490,3.850,345.00,408,423,398,352,2025-06-04T19:46:13.357870
9491,-0.3357,0.8272,0.1303,30.485,-1.505,1.155,381.00,411,416,411,378,2025-06-04T19:46:13.357870
9492,-0.3777,0.8228,0.1313,25.865,-7.560,-0.840,382.00,411,426,436,369,2025-06-04T19:46:13.357870
9493,-0.4158,0.8311,0.1459,22.365,-17.150,-2.695,398.00,410,371,430,343,2025-06-04T19:46:13.357870
9494,-0.3943,0.8364,0.1581,19.075,-23.205,-4.795,394.00,385,416,376,329,2025-06-04T19:46:13.457067
9495,-0.3587,0.8472,0.1801,14.980,-23.940,-6.545,379.00,400,352,367,357,2025-06-04T19:46:13.457067
9496,-0.3470,0.8408,0.1962,13.265,-21.385,-7.490,381.00,410,394,394,384,2025-06-04T19:46:13.457067
9497,-0.3494,0.8447,0.1942,12.600,-17.640,-8.505,343.00,413,413,389,341,2025-06-04T19:46:13.457067
9498,-0.3704,0.8457,0.2172,12.110,-15.505,-9.240,377.00,404,426,392,337,2025-06-04T19:46:13.457067
9499,-0.3855,0.8525,0.2489,11.795,-16.835,-8.365,393.00,399,399,404,375,2025-06-04T19:46:13.457067
9500,-0.4011,0.8599,0.2425,12.950,-21.455,-6.440,399.00,395,428,427,378,2025-06-04T19:46:13.457067
9501,-0.3997,0.8779,0.2630,12.915,-25.025,-5.915,370.00,402,372,431,392,2025-06-04T19:46:13.457067
9502,-0.3753,0.8916,0.2694,12.635,-26.845,-6.055,353.00,407,387,345,358,2025-06-04T19:46:13.457067
9503,-0.3299,0.9496,0.3289,12.180,-26.915,-6.300,386.00,414,402,411,373,2025-06-04T19:46:13.561734
9504,-0.2821,0.9921,0.3489,9.030,-24.045,-6.055,342.00,406,351,423,369,2025-06-04T19:46:13.561734
9505,-0.2708,1.0634,0.3543,4.445,-22.505,-6.055,369.00,412,420,361,369,2025-06-04T19:46:13.561734
9506,-0.2733,1.1575,0.3723,-0.490,-23.310,-7.420,394.00,418,434,397,372,2025-06-04T19:46:13.561734
9507,-0.2674,1.2620,0.4119,-8.435,-27.790,-9.275,389.00,417,399,409,369,2025-06-04T19:46:13.561734
9508,-0.2225,1.3576,0.4275,-19.005,-36.890,-8.680,401.00,415,415,431,334,2025-06-04T19:46:13.819321
9509,-0.2020,1.5030,0.4939,-33.320,-49.140,-5.810,353.00,407,410,357,358,2025-06-04T19:46:13.819321
9510,-0.1254,1.6260,0.5114,-50.470,-60.585,8.295,395.00,411,340,413,363,2025-06-04T19:46:13.819321
9511,-0.0493,1.8100,0.5510,-71.435,-69.790,9.485,400.00,377,403,434,384,2025-06-04T19:46:13.819321
9512,0.0747,1.9886,0.5500,-97.720,-74.725,29.435,389.00,391,420,427,377,2025-06-04T19:46:13.819321
9513,0.1152,2.2053,0.4880,-128.800,-78.260,51.765,404.00,404,420,420,387,2025-06-04T19:46:13.819321
9514,0.1430,2.4024,0.3250,-160.055,-79.415,73.780,385.00,408,444,411,385,2025-06-04T19:46:13.819321
9515,0.1918,2.5932,0.0791,-183.330,-78.505,96.950,372.00,408,385,418,391,2025-06-04T19:46:13.819321
9516,0.2250,2.7923,-0.2396,-201.810,-68.530,120.960,392.00,409,419,400,382,2025-06-04T19:46:13.819321
9517,0.1767,2.9617,-0.5744,-217.420,-50.505,147.245,402.00,405,426,397,387,2025-06-04T19:46:13.819321
9518,0.0810,3.0973,-0.9887,-223.195,-32.865,175.560,391.00,405,400,424,385,2025-06-04T19:46:13.819321
9519,-0.1157,3.0886,-1.4152,-227.920,-13.090,198.730,380.00,413,406,382,375,2025-06-04T19:46:13.819321
9520,-0.2157,2.9104,-1.8476,-232.365,16.450,217.840,395.00,381,344,397,391,2025-06-04T19:46:13.819321
9521,-0.6554,2.5244,-2.2385,-235.130,41.965,236.425,385.00,395,411,405,379,2025-06-04T19:46:13.819321
9522,-1.4108,2.2853,-2.1291,-240.485,59.465,232.890,396.00,382,412,422,381,2025-06-04T19:46:13.819321
9523,-1.8705,1.9159,-1.9154,-261.380,59.185,228.270,400.00,373,430,409,382,2025-06-04T19:46:13.819321
9524,-2.1618,1.2673,-1.7617,-291.165,46.515,227.220,406.00,396,428,389,375,2025-06-04T19:46:13.819321
9525,-2.6479,0.5573,-1.4738,-314.195,24.990,227.395,398.00,413,423,387,371,2025-06-04T19:46:13.819321
9526,-2.9353,-0.2186,-1.0843,-330.015,7.210,231.945,402.00,384,431,422,382,2025-06-04T19:46:13.819321
9527,-3.0471,-0.8550,-0.6339,-341.530,-0.595,233.310,408.00,405,423,403,375,2025-06-04T19:46:13.819321
9528,-2.5381,-1.4064,-0.3694,-373.625,5.285,243.845,403.00,421,442,470,348,2025-06-04T19:46:13.819321
9529,-2.4093,-1.9603,0.4904,-207.410,-12.495,240.695,404.00,389,440,439,367,2025-06-04T19:46:13.982712
9530,-2.2082,-2.2853,0.8384,-243.390,9.555,246.645,406.00,412,424,408,388,2025-06-04T19:46:13.982712
9531,-1.7383,-2.5020,1.0121,-214.935,-28.210,243.740,408.00,403,417,421,347,2025-06-04T19:46:13.982712
9532,-1.0599,-2.7318,1.0282,-156.765,-71.085,229.390,406.00,382,410,407,355,2025-06-04T19:46:13.982712
9533,-0.4914,-2.7582,1.1912,-129.920,-62.090,208.950,387.00,401,404,432,373,2025-06-04T19:46:13.982712
9534,0.1083,-2.7699,1.3503,-81.305,-57.610,180.915,382.00,403,424,428,380,2025-06-04T19:46:13.982712
9535,0.4138,-2.6498,1.4220,-33.985,-35.315,143.955,368.00,420,378,443,382,2025-06-04T19:46:13.982712
9536,0.7915,-2.4473,1.5645,-8.435,-0.560,107.835,381.00,418,420,385,374,2025-06-04T19:46:13.982712
9537,0.8764,-2.2136,1.6748,22.085,27.895,65.205,391.00,418,429,392,377,2025-06-04T19:46:13.982712
9538,0.8003,-2.0364,1.7661,42.525,45.605,21.735,388.00,427,419,406,348,2025-06-04T19:46:13.982712
9539,0.6422,-1.8783,1.8012,64.015,37.450,-8.715,400.00,424,427,416,344,2025-06-04T19:46:13.982712
9540,0.3821,-1.6899,1.7788,82.565,12.880,-47.670,396.00,403,438,375,362,2025-06-04T19:46:13.982712
9541,0.1815,-1.3903,1.7846,98.455,-18.515,-84.735,398.00,389,400,392,346,2025-06-04T19:46:13.983776
9542,0.0327,-1.3464,1.6948,116.655,-49.105,-114.170,382.00,340,428,379,363,2025-06-04T19:46:13.983776
9543,-0.0883,-1.0819,1.6099,133.875,-65.030,-145.180,347.00,381,413,436,381,2025-06-04T19:46:13.983776
9544,-0.1015,-0.8481,1.4791,150.220,-56.175,-174.825,359.00,388,417,428,383,2025-06-04T19:46:13.983776
9545,-0.0781,-0.6583,1.2956,164.780,-26.495,-193.270,392.00,374,414,376,382,2025-06-04T19:46:13.983776
9546,-0.3967,-0.3753,1.1834,182.280,10.325,-208.180,402.00,403,432,394,386,2025-06-04T19:46:14.263302
9547,-0.6051,-0.0908,1.0614,198.695,44.170,-213.220,381.00,395,429,391,385,2025-06-04T19:46:14.263302
9548,-0.8852,0.1366,0.8194,211.260,60.620,-208.040,377.00,378,408,385,397,2025-06-04T19:46:14.263302
9549,-1.1858,0.3592,0.6173,219.205,55.440,-201.180,399.00,383,416,421,401,2025-06-04T19:46:14.263302
9550,-1.3440,0.5963,0.5061,222.145,31.955,-189.105,399.00,381,413,416,395,2025-06-04T19:46:14.263302
9551,-1.3122,0.7652,0.2987,219.450,-3.290,-172.200,393.00,394,427,428,393,2025-06-04T19:46:14.263302
9552,-1.2112,0.9199,0.1054,216.265,-34.195,-155.645,393.00,389,397,426,395,2025-06-04T19:46:14.263302
9553,-0.9687,1.0155,-0.0195,207.445,-47.880,-140.420,384.00,360,392,306,384,2025-06-04T19:46:14.263302
9554,-0.8125,1.0663,-0.0386,196.490,-53.200,-126.210,382.00,383,417,398,396,2025-06-04T19:46:14.264342
9555,-0.6817,1.0546,-0.0761,182.840,-58.730,-115.500,399.00,393,403,392,395,2025-06-04T19:46:14.264342
9556,-0.5856,1.0297,-0.0849,166.390,-65.940,-106.470,346.00,412,417,425,391,2025-06-04T19:46:14.264342
9557,-0.4490,1.0297,-0.0703,151.935,-68.355,-101.045,389.00,416,405,402,388,2025-06-04T19:46:14.264342
9558,-0.3211,1.0541,-0.0093,141.575,-63.455,-96.320,342.00,388,423,414,379,2025-06-04T19:46:14.264342
9559,-0.2045,1.0648,0.0561,136.010,-56.280,-92.225,384.00,399,397,425,377,2025-06-04T19:46:14.264342
9560,-0.1459,1.0819,0.1074,130.340,-47.670,-88.725,373.00,405,415,428,391,2025-06-04T19:46:14.264342
9561,-0.1376,1.0712,0.1142,128.240,-40.705,-87.255,388.00,381,420,353,381,2025-06-04T19:46:14.264342
9562,-0.0722,1.0897,0.1113,128.590,-32.935,-86.555,398.00,392,414,336,358,2025-06-04T19:46:14.395711
9563,-0.0634,1.1156,0.1191,128.695,-26.565,-84.735,381.00,396,437,408,380,2025-06-04T19:46:14.395711
9564,-0.0532,1.1722,0.1386,128.240,-21.945,-84.000,394.00,404,434,428,348,2025-06-04T19:46:14.395711
9565,-0.0068,1.2005,0.1449,124.810,-17.150,-82.670,400.00,404,439,426,375,2025-06-04T19:46:14.395711
9566,0.0093,1.2278,0.1513,120.085,-13.335,-79.380,401.00,408,445,419,369,2025-06-04T19:46:14.395711
9567,0.0063,1.2551,0.1527,113.610,-11.025,-75.390,396.00,390,399,341,372,2025-06-04T19:46:14.395711
9568,0.0122,1.2678,0.1586,105.700,-13.300,-70.175,360.00,396,357,397,383,2025-06-04T19:46:14.395711
9569,-0.0161,1.2654,0.1488,96.390,-19.880,-64.365,371.00,406,419,421,377,2025-06-04T19:46:14.395711
9570,-0.0327,1.2615,0.1493,87.850,-28.280,-59.465,381.00,405,403,433,380,2025-06-04T19:46:14.395711
9571,-0.0303,1.2722,0.1859,77.665,-35.350,-56.000,357.00,408,401,405,365,2025-06-04T19:46:14.395711
9572,-0.0059,1.2693,0.1957,66.990,-39.445,-52.745,391.00,405,418,404,374,2025-06-04T19:46:14.395711
9573,0.0439,1.2439,0.1723,57.750,-38.850,-48.335,390.00,379,418,435,388,2025-06-04T19:46:14.395711
9574,0.0395,1.2259,0.1562,50.365,-32.830,-44.625,398.00,397,421,435,390,2025-06-04T19:46:14.395711
9575,0.0366,1.1927,0.1396,44.450,-23.240,-41.510,409.00,403,413,421,390,2025-06-04T19:46:14.396420
9576,0.0224,1.1624,0.1444,38.465,-11.550,-38.360,394.00,416,414,425,397,2025-06-04T19:46:14.396420
9577,-0.0185,1.1356,0.1464,32.830,0.700,-35.210,403.00,420,435,422,399,2025-06-04T19:46:14.396420
9578,-0.0639,1.1126,0.1669,28.665,11.060,-31.990,397.00,410,387,403,388,2025-06-04T19:46:14.396420
9579,-0.1157,1.0873,0.1859,24.430,16.485,-28.105,408.00,408,390,360,349,2025-06-04T19:46:14.677335
9580,-0.2011,1.0634,0.2006,21.875,15.575,-24.220,405.00,410,404,398,380,2025-06-04T19:46:14.677335
9581,-0.2313,1.0507,0.2074,18.760,11.235,-19.635,386.00,411,399,412,385,2025-06-04T19:46:14.677335
9582,-0.2484,1.0350,0.2079,13.615,6.580,-15.610,398.00,424,351,414,390,2025-06-04T19:46:14.677335
9583,-0.2377,1.0189,0.2118,10.920,4.165,-12.565,390.00,422,417,424,351,2025-06-04T19:46:14.677335
9584,-0.2333,0.9941,0.1957,7.840,5.600,-10.080,391.00,414,402,381,359,2025-06-04T19:46:14.677335
9585,-0.2333,0.9697,0.2030,5.565,8.330,-7.840,401.00,412,397,335,334,2025-06-04T19:46:14.677335
9586,-0.2264,0.9599,0.2264,4.550,13.510,-5.670,389.00,420,415,402,323,2025-06-04T19:46:14.677335
9587,-0.2450,0.9360,0.2264,2.275,19.005,-3.745,396.00,394,420,404,364,2025-06-04T19:46:14.677335
9588,-0.2786,0.9199,0.2499,1.715,22.785,-2.380,404.00,382,407,419,368,2025-06-04T19:46:14.677335
9589,-0.3113,0.9199,0.2747,1.400,23.975,-1.015,410.00,396,372,405,379,2025-06-04T19:46:14.677335
9590,-0.3162,0.9023,0.2718,-0.070,24.675,-0.245,390.00,413,384,421,373,2025-06-04T19:46:14.677335
9591,-0.3304,0.8969,0.2811,-0.315,25.130,0.490,383.00,405,410,352,387,2025-06-04T19:46:14.677335
9592,-0.3431,0.8891,0.2786,-0.735,26.635,0.560,398.00,411,392,373,374,2025-06-04T19:46:14.678395
9593,-0.3284,0.8799,0.2835,-0.070,27.545,0.980,385.00,412,393,421,388,2025-06-04T19:46:14.678395
9594,-0.3353,0.8804,0.2865,-0.280,28.105,1.505,359.00,418,401,343,370,2025-06-04T19:46:14.799133
9595,-0.3597,0.8740,0.2835,-1.225,28.490,0.840,381.00,409,395,410,390,2025-06-04T19:46:14.799133
9596,-0.3675,0.8696,0.2996,-0.490,27.335,0.350,343.00,412,357,420,380,2025-06-04T19:46:14.799133
9597,-0.3767,0.8594,0.2908,-0.525,24.115,0.350,369.00,379,414,372,338,2025-06-04T19:46:14.799133
9598,-0.3967,0.8433,0.2782,-0.245,20.125,0.315,338.00,393,403,403,369,2025-06-04T19:46:14.799133
9599,-0.3924,0.8535,0.2908,0.805,16.870,0.140,379.00,399,341,339,381,2025-06-04T19:46:14.799133
9600,-0.3841,0.8501,0.2928,0.630,15.995,-0.490,392.00,411,327,329,380,2025-06-04T19:46:14.799133
9601,-0.3841,0.8535,0.2899,0.595,15.645,-0.910,385.00,415,327,324,341,2025-06-04T19:46:14.799133
9602,-0.3621,0.8540,0.2811,1.190,17.115,-1.330,340.00,376,375,373,366,2025-06-04T19:46:14.799133
9603,-0.3650,0.8477,0.2650,1.050,19.775,-2.100,385.00,398,393,390,376,2025-06-04T19:46:14.799133
9604,-0.3787,0.8506,0.2606,1.890,22.505,-3.045,344.00,376,427,401,369,2025-06-04T19:46:14.799133
9605,-0.3860,0.8579,0.2674,3.045,23.380,-3.745,385.00,386,373,418,351,2025-06-04T19:46:14.799133
9606,-0.4148,0.8716,0.2772,2.870,21.735,-4.270,377.00,403,412,429,370,2025-06-04T19:46:14.799133
9607,-0.4290,0.8716,0.2772,2.590,18.375,-5.075,332.00,399,349,421,382,2025-06-04T19:46:14.799133
9608,-0.4143,0.8794,0.2767,2.940,15.365,-4.970,365.00,395,390,386,389,2025-06-04T19:46:14.799133
9609,-0.4265,0.8740,0.2708,2.310,12.705,-4.620,370.00,408,378,426,399,2025-06-04T19:46:14.799133
9610,-0.4368,0.8750,0.2713,2.310,8.155,-4.060,332.00,413,397,350,397,2025-06-04T19:46:14.800132
9611,-0.4363,0.8769,0.2650,1.470,3.430,-3.220,363.00,408,397,424,385,2025-06-04T19:46:14.800132
9612,-0.4211,0.8745,0.2664,1.155,0.350,-2.870,370.00,418,411,424,396,2025-06-04T19:46:15.005380
9613,-0.4002,0.8745,0.2611,1.365,0.175,-2.380,339.00,424,426,410,400,2025-06-04T19:46:15.005380
9614,-0.3865,0.8843,0.2586,1.295,3.080,-2.485,379.00,409,425,423,386,2025-06-04T19:46:15.005380
9615,-0.3889,0.8808,0.2557,0.980,5.635,-2.625,397.00,415,399,411,381,2025-06-04T19:46:15.005380
9616,-0.4021,0.8847,0.2557,0.805,7.420,-2.380,383.00,409,427,346,389,2025-06-04T19:46:15.005380
9617,-0.4197,0.8838,0.2547,-0.140,7.035,-1.925,394.00,407,401,402,354,2025-06-04T19:46:15.005380
9618,-0.4270,0.8843,0.2528,-0.525,4.480,-1.120,389.00,415,397,394,335,2025-06-04T19:46:15.005380
9619,-0.4421,0.8877,0.2621,-0.980,0.840,-0.560,386.00,413,421,423,350,2025-06-04T19:46:15.005380
9620,-0.4314,0.8794,0.2567,-1.540,-2.555,0.000,405.00,416,375,413,369,2025-06-04T19:46:15.005380
9621,-0.4246,0.8755,0.2484,-1.715,-4.270,0.630,407.00,410,399,428,389,2025-06-04T19:46:15.005380
9622,-0.4021,0.8750,0.2460,-1.470,-3.955,1.120,393.00,405,421,430,399,2025-06-04T19:46:15.005380
9623,-0.3958,0.8686,0.2445,-1.540,-2.520,1.365,384.00,374,400,410,386,2025-06-04T19:46:15.005380
9624,-0.4046,0.8667,0.2440,-1.470,-1.750,1.610,385.00,386,430,429,390,2025-06-04T19:46:15.006444
9625,-0.4192,0.8682,0.2523,-1.190,-2.590,1.575,344.00,400,311,419,388,2025-06-04T19:46:15.006444
9626,-0.4138,0.8599,0.2445,-1.470,-4.305,1.750,383.00,412,417,418,383,2025-06-04T19:46:15.006444
9627,-0.4211,0.8603,0.2406,-1.750,-6.475,1.855,392.00,414,429,398,376,2025-06-04T19:46:15.006444
9628,-0.4138,0.8555,0.2474,-1.610,-7.560,1.540,386.00,423,413,392,350,2025-06-04T19:46:15.006444
9629,-0.3958,0.8540,0.2420,-1.505,-7.525,1.330,395.00,413,417,411,363,2025-06-04T19:46:15.059568
9630,-0.3972,0.8530,0.2406,-1.750,-6.790,0.840,388.00,410,435,420,370,2025-06-04T19:46:15.059568
9631,-0.3841,0.8501,0.2435,-1.295,-5.740,0.140,402.00,413,407,342,348,2025-06-04T19:46:15.059568
9632,-0.3884,0.8477,0.2372,-1.295,-5.005,-0.280,347.00,408,398,417,373,2025-06-04T19:46:15.059568
9633,-0.3972,0.8457,0.2386,-1.190,-5.250,-0.805,376.00,406,420,437,375,2025-06-04T19:46:15.205853
9634,-0.3924,0.8486,0.2323,-0.980,-6.090,-1.435,380.00,378,400,417,376,2025-06-04T19:46:15.205853
9635,-0.4055,0.8452,0.2386,-1.610,-6.895,-1.960,383.00,395,420,434,378,2025-06-04T19:46:15.205853
9636,-0.4021,0.8452,0.2377,-1.120,-8.225,-1.925,396.00,411,418,420,386,2025-06-04T19:46:15.205853
9637,-0.4002,0.8477,0.2362,-1.400,-8.260,-1.680,390.00,418,401,410,391,2025-06-04T19:46:15.205853
9638,-0.3909,0.8530,0.2347,-1.435,-7.245,-1.750,384.00,424,350,402,397,2025-06-04T19:46:15.205853
9639,-0.3899,0.8550,0.2357,-1.505,-5.845,-2.065,407.00,425,408,418,398,2025-06-04T19:46:15.205853
9640,-0.3884,0.8589,0.2386,-1.470,-4.200,-2.275,350.00,417,343,417,385,2025-06-04T19:46:15.205853
9641,-0.3938,0.8540,0.2377,-1.435,-4.165,-2.135,329.00,415,405,399,376,2025-06-04T19:46:15.205853
9642,-0.4114,0.8599,0.2484,-1.610,-5.145,-2.170,285.00,408,303,404,346,2025-06-04T19:46:15.205853
9643,-0.4119,0.8642,0.2464,-1.855,-7.280,-2.275,349.00,406,390,399,358,2025-06-04T19:46:15.205853
9644,-0.4089,0.8608,0.2420,-1.995,-9.555,-1.925,345.00,400,414,423,360,2025-06-04T19:46:15.205853
9645,-0.4011,0.8555,0.2372,-1.785,-11.060,-1.890,386.00,407,429,426,382,2025-06-04T19:46:15.412310
9646,-0.4031,0.8579,0.2484,-1.155,-11.690,-2.100,399.00,411,427,388,372,2025-06-04T19:46:15.412310
9647,-0.3875,0.8594,0.2523,-0.595,-11.550,-1.890,400.00,420,439,418,377,2025-06-04T19:46:15.412310
9648,-0.3841,0.8550,0.2533,-0.525,-10.745,-1.960,399.00,383,400,413,378,2025-06-04T19:46:15.412310
9649,-0.3743,0.8589,0.2533,-0.315,-8.715,-1.890,383.00,400,301,399,366,2025-06-04T19:46:15.412310
9650,-0.3787,0.8560,0.2469,0.070,-6.790,-2.065,382.00,404,385,427,378,2025-06-04T19:46:15.412310
9651,-0.3845,0.8525,0.2425,0.630,-5.670,-2.555,358.00,405,386,350,348,2025-06-04T19:46:15.412310
9652,-0.3865,0.8603,0.2494,1.050,-4.935,-2.590,351.00,411,416,418,380,2025-06-04T19:46:15.412310
9653,-0.3953,0.8623,0.2455,0.595,-4.305,-2.660,372.00,419,415,410,388,2025-06-04T19:46:15.412310
9654,-0.4036,0.8564,0.2411,0.525,-4.970,-2.555,394.00,424,417,429,381,2025-06-04T19:46:15.412310
9655,-0.4085,0.8613,0.2508,0.455,-6.440,-2.275,398.00,418,412,403,384,2025-06-04T19:46:15.412310
9656,-0.4080,0.8608,0.2528,0.000,-8.120,-2.100,397.00,416,403,421,385,2025-06-04T19:46:15.412310
9657,-0.4002,0.8599,0.2533,-0.490,-9.415,-2.030,399.00,408,387,414,382,2025-06-04T19:46:15.412310
9658,-0.3987,0.8603,0.2508,-0.945,-9.590,-2.135,388.00,407,394,401,381,2025-06-04T19:46:15.935677
9659,-0.3884,0.8608,0.2503,-0.665,-9.275,-1.855,343.00,413,393,394,391,2025-06-04T19:46:15.935677
9660,-0.3928,0.8608,0.2440,-0.805,-8.540,-1.995,331.00,395,416,359,389,2025-06-04T19:46:15.935677
9661,-0.3802,0.8608,0.2499,-0.700,-7.455,-1.995,367.00,394,433,413,391,2025-06-04T19:46:15.935677
9662,-0.3919,0.8652,0.2523,-0.560,-6.755,-1.890,333.00,402,438,409,380,2025-06-04T19:46:15.935677
9663,-0.4075,0.8594,0.2508,-0.700,-7.035,-1.855,380.00,411,401,393,381,2025-06-04T19:46:15.935677
9664,-0.4041,0.8555,0.2513,-0.525,-8.715,-1.505,388.00,422,428,397,384,2025-06-04T19:46:15.936683
9665,-0.4094,0.8589,0.2552,-0.875,-10.045,-0.945,386.00,393,426,390,380,2025-06-04T19:46:15.936683
9666,-0.3943,0.8535,0.2503,-1.155,-11.095,-0.595,389.00,408,419,398,377,2025-06-04T19:46:15.936683
9667,-0.3899,0.8618,0.2503,-0.840,-10.605,-0.595,406.00,373,410,425,339,2025-06-04T19:46:15.936683
9668,-0.3792,0.8647,0.2552,-1.155,-8.225,-0.735,401.00,383,424,432,333,2025-06-04T19:46:15.936683
9669,-0.3762,0.8560,0.2503,-1.120,-5.810,-0.525,396.00,371,349,408,362,2025-06-04T19:46:15.936683
9670,-0.3875,0.8584,0.2499,-1.015,-4.025,-0.315,412.00,387,413,419,374,2025-06-04T19:46:15.936683
9671,-0.3982,0.8545,0.2523,-0.560,-3.675,-0.420,404.00,399,350,384,348,2025-06-04T19:46:15.936683
9672,-0.3987,0.8613,0.2577,-0.140,-4.550,-0.245,367.00,393,407,401,358,2025-06-04T19:46:15.936683
9673,-0.4089,0.8603,0.2577,-0.455,-5.425,-0.245,387.00,394,435,421,361,2025-06-04T19:46:15.936683
9674,-0.4055,0.8623,0.2562,-0.105,-6.580,-0.210,385.00,404,433,423,372,2025-06-04T19:46:15.936683
9675,-0.4016,0.8642,0.2601,-0.035,-6.860,-0.140,364.00,401,417,404,384,2025-06-04T19:46:15.936683
9676,-0.3875,0.8642,0.2601,-0.035,-6.265,0.245,360.00,400,438,372,391,2025-06-04T19:46:15.936683
9677,-0.3953,0.8613,0.2557,-0.035,-5.600,0.525,392.00,409,431,381,392,2025-06-04T19:46:15.936683
9678,-0.3943,0.8623,0.2557,0.210,-4.900,0.525,403.00,409,424,384,363,2025-06-04T19:46:15.936683
9679,-0.3914,0.8642,0.2552,0.175,-4.970,0.840,407.00,419,398,422,344,2025-06-04T19:46:15.936683
9680,-0.4041,0.8662,0.2640,-0.070,-5.145,1.050,414.00,381,425,429,364,2025-06-04T19:46:15.936683
9681,-0.4085,0.8623,0.2542,-0.490,-6.125,1.295,409.00,387,419,401,374,2025-06-04T19:46:15.936683
9682,-0.4109,0.8618,0.2572,-0.700,-7.280,1.575,411.00,390,411,414,375,2025-06-04T19:46:15.936683
9683,-0.3987,0.8677,0.2635,-0.945,-7.980,1.890,391.00,403,426,441,376,2025-06-04T19:46:15.937684
9684,-0.3997,0.8628,0.2582,-1.435,-7.980,1.890,403.00,411,430,407,385,2025-06-04T19:46:15.937684
9685,-0.3958,0.8584,0.2606,-1.505,-7.840,1.995,397.00,400,366,412,346,2025-06-04T19:46:15.937684
9686,-0.3953,0.8608,0.2591,-1.400,-7.280,2.240,408.00,411,390,406,362,2025-06-04T19:46:15.937684
9687,-0.3958,0.8579,0.2577,-1.120,-6.440,2.380,409.00,402,375,416,374,2025-06-04T19:46:15.937684
9688,-0.4002,0.8574,0.2635,-0.840,-6.230,2.555,412.00,407,399,395,379,2025-06-04T19:46:15.937684
9689,-0.4060,0.8545,0.2664,-0.875,-6.580,2.905,403.00,402,402,343,383,2025-06-04T19:46:15.937684
9690,-0.4026,0.8530,0.2645,-0.490,-7.665,3.185,408.00,411,396,360,376,2025-06-04T19:46:15.937684
9691,-0.4026,0.8535,0.2591,-0.455,-8.820,3.220,407.00,403,342,395,386,2025-06-04T19:46:15.937684
9692,-0.3948,0.8516,0.2625,-0.105,-9.450,2.730,387.00,407,334,406,383,2025-06-04T19:46:15.937684
9693,-0.3758,0.8516,0.2606,0.140,-9.345,2.590,393.00,414,379,423,369,2025-06-04T19:46:15.937684
9694,-0.3762,0.8525,0.2572,-0.070,-8.050,2.450,382.00,418,302,391,378,2025-06-04T19:46:15.937684
9695,-0.3777,0.8569,0.2523,0.455,-7.175,2.135,399.00,407,314,397,384,2025-06-04T19:46:16.029753
9696,-0.3826,0.8506,0.2474,0.350,-6.755,1.925,357.00,406,396,401,385,2025-06-04T19:46:16.029753
9697,-0.3831,0.8501,0.2533,0.350,-7.420,1.680,368.00,351,413,415,375,2025-06-04T19:46:16.029753
9698,-0.3826,0.8550,0.2582,0.280,-7.910,1.225,388.00,351,393,392,348,2025-06-04T19:46:16.029753
9699,-0.3821,0.8545,0.2567,-0.140,-7.980,1.015,401.00,382,357,393,361,2025-06-04T19:46:16.029753
9700,-0.3826,0.8584,0.2547,-0.070,-7.910,0.700,409.00,398,405,416,364,2025-06-04T19:46:16.029753
9701,-0.3894,0.8594,0.2586,-0.140,-7.420,0.595,363.00,396,348,419,333,2025-06-04T19:46:16.029753
9702,-0.3914,0.8564,0.2591,-0.210,-7.490,0.805,377.00,399,403,419,361,2025-06-04T19:46:16.029753
9703,-0.3977,0.8594,0.2650,-0.280,-7.665,1.085,381.00,408,346,432,364,2025-06-04T19:46:16.029753
9704,-0.3992,0.8633,0.2635,-0.455,-7.630,1.295,385.00,382,416,369,336,2025-06-04T19:46:16.029753
9705,-0.3909,0.8599,0.2635,-0.105,-7.770,1.540,383.00,392,355,403,346,2025-06-04T19:46:16.029753
9706,-0.3850,0.8569,0.2591,-0.105,-7.595,2.205,394.00,410,388,397,371,2025-06-04T19:46:16.029753
9707,-0.3855,0.8628,0.2674,0.385,-7.105,2.485,346.00,411,419,418,385,2025-06-04T19:46:16.029753
9708,-0.3836,0.8652,0.2704,0.455,-6.545,2.240,371.00,416,408,417,388,2025-06-04T19:46:16.029753
9709,-0.3850,0.8662,0.2655,-0.105,-6.860,2.345,360.00,419,421,398,381,2025-06-04T19:46:16.029753
9710,-0.3870,0.8613,0.2645,-0.140,-7.875,2.240,388.00,392,429,409,388,2025-06-04T19:46:16.029753
9711,-0.3821,0.8638,0.2664,-0.315,-8.750,2.310,389.00,409,405,403,381,2025-06-04T19:46:16.029753
9712,-0.3738,0.8584,0.2611,-0.455,-8.890,2.310,387.00,404,417,422,377,2025-06-04T19:46:16.081924
9713,-0.3650,0.8589,0.2621,-0.175,-8.330,2.415,380.00,375,392,399,388,2025-06-04T19:46:16.081924
9714,-0.3694,0.8579,0.2650,-0.245,-7.140,1.995,378.00,365,414,403,397,2025-06-04T19:46:16.081924
9715,-0.3767,0.8579,0.2704,0.245,-6.825,1.505,393.00,385,403,403,381,2025-06-04T19:46:16.081924
9716,-0.3816,0.8589,0.2718,0.105,-7.525,1.295,401.00,394,429,399,380,2025-06-04T19:46:16.331685
9717,-0.3841,0.8574,0.2679,-0.175,-9.135,1.365,356.00,374,430,375,375,2025-06-04T19:46:16.331685
9718,-0.3855,0.8545,0.2635,0.070,-10.605,1.190,387.00,391,409,338,379,2025-06-04T19:46:16.331685
9719,-0.3694,0.8584,0.2591,0.035,-10.535,1.120,341.00,392,380,393,388,2025-06-04T19:46:16.331685
9720,-0.3640,0.8555,0.2577,0.245,-8.995,0.910,340.00,376,377,423,386,2025-06-04T19:46:16.331685
9721,-0.3704,0.8530,0.2591,0.805,-8.015,0.875,372.00,359,393,392,381,2025-06-04T19:46:16.331685
9722,-0.3762,0.8603,0.2694,1.225,-8.015,0.980,379.00,373,423,404,374,2025-06-04T19:46:16.332701
9723,-0.3797,0.8594,0.2660,0.805,-8.330,0.980,345.00,386,382,402,375,2025-06-04T19:46:16.332701
9724,-0.3816,0.8550,0.2606,0.945,-9.170,0.875,375.00,364,423,399,386,2025-06-04T19:46:16.332701
9725,-0.3753,0.8584,0.2586,1.365,-9.065,0.805,339.00,384,433,386,392,2025-06-04T19:46:16.332701
9726,-0.3699,0.8623,0.2650,1.295,-8.225,0.700,363.00,363,407,402,379,2025-06-04T19:46:16.332701
9727,-0.3665,0.8623,0.2621,0.840,-7.420,0.910,389.00,383,396,383,386,2025-06-04T19:46:16.332701
9728,-0.3684,0.8574,0.2582,0.735,-7.385,0.980,401.00,361,392,414,385,2025-06-04T19:46:16.332701
9729,-0.3728,0.8623,0.2591,0.630,-7.875,0.875,390.00,385,393,403,381,2025-06-04T19:46:16.433026
9730,-0.3660,0.8642,0.2596,0.630,-7.770,0.735,393.00,397,399,395,376,2025-06-04T19:46:16.433026
9731,-0.3621,0.8662,0.2640,0.385,-7.175,0.595,369.00,370,435,339,352,2025-06-04T19:46:16.433026
9732,-0.3694,0.8691,0.2733,0.175,-6.790,0.385,394.00,386,357,381,357,2025-06-04T19:46:16.433026
9733,-0.3723,0.8652,0.2708,0.245,-7.420,0.420,410.00,406,388,417,377,2025-06-04T19:46:16.433026
9734,-0.3806,0.8662,0.2689,-0.035,-8.330,0.490,391.00,415,401,406,386,2025-06-04T19:46:16.433026
9735,-0.3714,0.8682,0.2684,0.035,-8.925,0.700,409.00,405,407,410,394,2025-06-04T19:46:16.433026
9736,-0.3694,0.8691,0.2699,0.000,-8.435,0.770,350.00,411,414,438,388,2025-06-04T19:46:16.433026
9737,-0.3753,0.8682,0.2723,-0.070,-7.805,0.805,395.00,405,392,417,388,2025-06-04T19:46:16.433026
9738,-0.3699,0.8696,0.2738,0.070,-7.980,0.945,408.00,413,405,436,389,2025-06-04T19:46:16.433026
9739,-0.3806,0.8647,0.2621,-0.420,-8.785,1.120,388.00,411,425,426,356,2025-06-04T19:46:16.433026
9740,-0.3684,0.8662,0.2635,-0.175,-9.380,1.330,346.00,411,415,399,375,2025-06-04T19:46:16.433026
9741,-0.3645,0.8647,0.2650,-0.350,-8.890,1.435,360.00,415,412,415,368,2025-06-04T19:46:16.433026
9742,-0.3587,0.8657,0.2679,-0.385,-7.770,1.575,339.00,410,429,402,385,2025-06-04T19:46:16.433026
9743,-0.3670,0.8613,0.2679,-0.280,-7.210,1.400,321.00,401,419,418,381,2025-06-04T19:46:16.433026
9744,-0.3689,0.8677,0.2704,-0.245,-7.735,1.155,353.00,409,434,347,381,2025-06-04T19:46:16.433026
9745,-0.3753,0.8623,0.2679,-0.385,-9.065,0.875,378.00,408,394,369,389,2025-06-04T19:46:16.433026
9746,-0.3738,0.8662,0.2684,-0.700,-10.360,0.595,369.00,417,427,388,351,2025-06-04T19:46:16.486378
9747,-0.3631,0.8633,0.2650,-0.770,-11.270,0.455,377.00,418,437,406,332,2025-06-04T19:46:16.486378
9748,-0.3587,0.8618,0.2645,-0.595,-11.585,0.630,338.00,424,438,428,359,2025-06-04T19:46:16.486378
9749,-0.3606,0.8647,0.2660,-0.840,-11.060,0.210,367.00,414,421,424,366,2025-06-04T19:46:16.635624
9750,-0.3533,0.8657,0.2699,-0.770,-10.220,-0.140,390.00,416,427,410,371,2025-06-04T19:46:16.636390
9751,-0.3592,0.8642,0.2713,-0.980,-8.750,-0.175,377.00,418,436,371,361,2025-06-04T19:46:16.636390
9752,-0.3514,0.8657,0.2674,-0.945,-6.790,-0.105,390.00,392,366,405,363,2025-06-04T19:46:16.636390
9753,-0.3626,0.8623,0.2660,-0.595,-5.740,0.385,401.00,372,402,423,337,2025-06-04T19:46:16.636390
9754,-0.3772,0.8623,0.2664,-0.140,-6.020,1.050,386.00,395,412,431,348,2025-06-04T19:46:16.636390
9755,-0.3782,0.8667,0.2713,0.140,-7.210,1.575,385.00,398,414,423,324,2025-06-04T19:46:16.636390
9756,-0.3845,0.8682,0.2743,0.070,-8.505,1.890,394.00,377,423,423,318,2025-06-04T19:46:16.636390
9757,-0.3689,0.8652,0.2733,0.420,-9.555,1.855,403.00,385,409,345,346,2025-06-04T19:46:16.636390
9758,-0.3670,0.8623,0.2704,0.315,-9.695,1.680,412.00,398,424,369,358,2025-06-04T19:46:16.636390
9759,-0.3587,0.8608,0.2699,0.525,-9.415,1.295,406.00,401,407,387,374,2025-06-04T19:46:16.637173
9760,-0.3475,0.8608,0.2733,0.770,-8.890,1.015,410.00,400,381,408,387,2025-06-04T19:46:16.637173
9761,-0.3470,0.8613,0.2708,0.280,-7.840,0.805,410.00,411,400,389,380,2025-06-04T19:46:16.637173
9762,-0.3538,0.8589,0.2699,0.280,-7.315,0.385,401.00,411,422,343,381,2025-06-04T19:46:16.870224
9763,-0.3572,0.8545,0.2704,0.350,-7.455,0.175,387.00,415,434,414,379,2025-06-04T19:46:16.870224
9764,-0.3640,0.8564,0.2777,0.175,-7.735,0.105,392.00,411,433,428,355,2025-06-04T19:46:16.870224
9765,-0.3616,0.8560,0.2762,0.315,-7.735,0.070,399.00,404,392,427,326,2025-06-04T19:46:16.870224
9766,-0.3621,0.8579,0.2694,0.385,-7.385,-0.070,385.00,401,398,419,346,2025-06-04T19:46:16.870224
9767,-0.3558,0.8584,0.2689,0.595,-6.895,-0.420,386.00,409,409,407,353,2025-06-04T19:46:16.870224
9768,-0.3523,0.8633,0.2704,0.875,-5.985,-0.560,380.00,379,419,413,372,2025-06-04T19:46:16.870224
9769,-0.3567,0.8618,0.2674,0.735,-5.810,-0.805,398.00,392,360,405,385,2025-06-04T19:46:16.870224
9770,-0.3611,0.8672,0.2728,1.295,-6.195,-0.980,385.00,403,404,411,380,2025-06-04T19:46:16.870224
9771,-0.3650,0.8691,0.2747,1.085,-6.755,-1.120,406.00,372,423,400,395,2025-06-04T19:46:16.870224
9772,-0.3660,0.8677,0.2718,0.910,-7.455,-1.085,401.00,385,427,431,398,2025-06-04T19:46:16.870224
9773,-0.3631,0.8682,0.2718,1.015,-7.910,-0.875,351.00,385,423,402,362,2025-06-04T19:46:16.870224
9774,-0.3660,0.8667,0.2718,0.770,-7.245,-0.910,337.00,401,411,426,374,2025-06-04T19:46:16.870224
9775,-0.3572,0.8691,0.2757,1.190,-6.405,-0.945,373.00,409,397,420,373,2025-06-04T19:46:16.870224
9776,-0.3592,0.8642,0.2757,0.875,-5.880,-0.280,393.00,416,362,435,381,2025-06-04T19:46:16.870224
