SeqNum,AccX,AccY,AccZ,GyroX,GyroY,GyroZ,Flex,Force1,Force2,Force3,Force4,TimestampReception
3041,-0.1488,-0.0039,1.0072,-2.800,-4.620,-2.030,452,423,296,421,396,2025-05-23T21:05:15.599606
3042,-0.0459,0.1669,0.9584,12.320,-20.720,5.040,446,437,297,392,374,2025-05-23T21:05:15.599715
3043,-0.0381,0.1767,0.9614,10.290,-17.570,5.040,437,399,328,347,383,2025-05-23T21:05:15.599740
3044,-0.0264,0.1825,0.9594,8.610,-15.050,5.530,403,423,358,365,379,2025-05-23T21:05:15.599755
3045,-0.0210,0.1859,0.9687,6.230,-12.390,6.860,418,439,366,411,409,2025-05-23T21:05:15.599768
3046,-0.0254,0.1771,0.9784,5.670,-9.660,8.260,340,404,338,391,402,2025-05-23T21:05:15.599781
3047,-0.0434,0.1810,0.9823,6.300,-10.220,8.540,411,353,357,409,394,2025-05-23T21:05:15.599800
3048,-0.0410,0.1918,0.9970,6.860,-11.480,8.260,416,326,370,367,393,2025-05-23T21:05:15.599811
3049,-0.0278,0.2006,1.0185,4.900,-12.320,8.540,430,414,378,379,384,2025-05-23T21:05:15.599822
3050,-0.0112,0.1957,1.0243,2.450,-12.110,9.800,405,418,389,407,404,2025-05-23T21:05:15.599834
3051,-0.0020,0.1854,1.0224,0.910,-11.200,11.830,353,395,385,386,399,2025-05-23T21:05:15.599844
3052,0.0000,0.1708,1.0146,0.910,-10.850,14.350,405,399,384,412,365,2025-05-23T21:05:15.599855
3053,-0.0034,0.1674,1.0253,2.100,-11.480,15.820,405,418,347,388,390,2025-05-23T21:05:15.599866
3054,0.0024,0.1679,1.0268,0.350,-10.850,17.220,397,413,373,386,406,2025-05-23T21:05:15.599882
3055,0.0024,0.1523,1.0111,-0.700,-11.970,18.480,401,417,378,405,409,2025-05-23T21:05:15.647878
3056,-0.0054,0.1493,1.0024,0.910,-13.370,19.110,388,413,379,404,351,2025-05-23T21:05:15.647929
3057,0.0000,0.1503,0.9999,-0.210,-14.070,19.530,421,409,371,407,398,2025-05-23T21:05:15.647941
3058,0.0088,0.1513,0.9960,-1.960,-15.400,20.020,423,339,363,414,407,2025-05-23T21:05:15.647953
3059,0.0078,0.1449,1.0009,-3.710,-16.730,19.740,421,379,337,416,405,2025-05-23T21:05:15.803932
3060,0.0205,0.1518,1.0009,-4.690,-15.960,18.200,415,390,356,364,399,2025-05-23T21:05:15.803978
3061,0.0303,0.1440,0.9941,-5.670,-15.960,17.500,416,403,375,394,390,2025-05-23T21:05:15.804002
3062,0.0312,0.1415,0.9999,-3.010,-18.060,16.310,382,422,388,397,389,2025-05-23T21:05:15.804012
3063,0.0390,0.1391,0.9945,-0.490,-0.140,16.310,383,392,393,400,389,2025-05-23T21:05:15.804022
3064,0.0444,0.1352,0.9936,1.050,-15.470,17.430,411,401,400,349,341,2025-05-23T21:05:15.804032
3065,0.0522,0.1454,0.9882,1.470,-12.740,17.990,384,406,388,369,381,2025-05-23T21:05:15.804041
3066,0.0522,0.1532,1.0004,1.120,-11.900,17.850,402,405,389,380,363,2025-05-23T21:05:15.804052
3067,0.0615,0.1537,1.0102,5.810,-15.610,16.170,415,399,392,390,384,2025-05-23T21:05:15.804062
3068,0.0600,0.1542,0.9941,4.270,-16.870,15.610,423,415,387,399,396,2025-05-23T21:05:15.804075
3069,0.0605,0.1498,0.9989,-1.330,-17.570,12.740,413,346,392,390,367,2025-05-23T21:05:15.804084
3070,0.0844,0.1513,0.9921,-3.150,-15.890,10.990,407,372,395,406,387,2025-05-23T21:05:15.804093
3071,0.1132,0.1386,0.9804,-4.270,-15.540,9.380,417,423,387,401,380,2025-05-23T21:05:15.804102
3072,0.1186,0.1240,0.9765,-2.100,-12.740,9.030,388,373,393,395,395,2025-05-23T21:05:16.009892
3073,0.1176,0.1283,0.9677,0.070,-4.970,8.750,394,416,393,407,408,2025-05-23T21:05:16.009941
3074,0.1039,0.1376,0.9931,6.300,0.350,6.440,403,406,354,410,398,2025-05-23T21:05:16.009956
3075,0.0971,0.1523,0.9926,4.900,-1.400,4.900,406,433,367,414,395,2025-05-23T21:05:16.009985
3076,0.0737,0.1332,0.9955,2.660,-9.660,3.640,391,417,364,420,351,2025-05-23T21:05:16.009996
3077,0.0781,0.1625,0.9828,0.840,-9.520,4.060,403,404,347,412,399,2025-05-23T21:05:16.010007
3078,0.0795,0.1625,0.9823,0.700,-5.390,3.640,413,407,353,394,409,2025-05-23T21:05:16.010017
3079,0.0825,0.1669,0.9819,3.360,-1.820,2.800,428,419,375,405,400,2025-05-23T21:05:16.010028
3080,0.0878,0.1698,0.9755,1.050,-2.030,2.940,440,407,378,415,410,2025-05-23T21:05:16.010038
3081,0.0820,0.1718,0.9819,-2.590,-1.330,3.500,412,397,340,411,352,2025-05-23T21:05:16.010047
3082,0.0742,0.1728,0.9950,-3.500,0.210,3.360,433,418,379,415,386,2025-05-23T21:05:16.010061
3083,0.0708,0.1713,1.0033,-2.590,1.400,2.870,400,398,343,402,403,2025-05-23T21:05:16.010071
3084,0.0678,0.1713,1.0111,-2.660,0.910,3.430,387,411,357,383,397,2025-05-23T21:05:16.010081
3085,0.0644,0.1684,1.0111,-1.470,0.560,4.060,381,415,364,360,408,2025-05-23T21:05:16.010090
3086,0.0551,0.1625,1.0038,-0.560,2.170,4.760,392,359,373,377,402,2025-05-23T21:05:16.010099
3087,0.0478,0.1625,1.0102,0.840,3.780,5.250,367,406,389,406,357,2025-05-23T21:05:16.010145
3088,0.0395,0.1640,1.0189,1.400,1.680,5.670,412,423,381,386,391,2025-05-23T21:05:16.010155
3089,0.0400,0.1601,1.0302,1.540,-1.960,5.740,417,427,381,405,406,2025-05-23T21:05:16.010168
3090,0.0517,0.1508,1.0228,0.210,-5.740,5.460,433,427,341,389,410,2025-05-23T21:05:16.270963
3091,0.0630,0.1440,1.0165,-0.140,-5.950,5.040,419,390,369,386,400,2025-05-23T21:05:16.271015
3092,0.0742,0.1440,1.0155,0.910,-4.060,4.410,308,416,339,407,401,2025-05-23T21:05:16.271031
3093,0.0781,0.1430,1.0087,1.960,-2.310,4.270,366,399,360,361,394,2025-05-23T21:05:16.271043
3094,0.0805,0.1410,1.0014,3.080,-1.540,4.410,367,387,336,406,414,2025-05-23T21:05:16.271057
3095,0.0732,0.1508,1.0024,3.360,-1.820,4.340,412,422,355,409,418,2025-05-23T21:05:16.271068
3096,0.0727,0.1566,1.0043,2.590,-3.850,3.850,416,424,373,398,416,2025-05-23T21:05:16.271093
3097,0.0766,0.1576,1.0033,1.260,-5.530,3.360,403,426,382,358,374,2025-05-23T21:05:16.271104
3098,0.0810,0.1576,0.9980,0.700,-6.440,3.010,424,387,381,384,393,2025-05-23T21:05:16.271117
3099,0.0834,0.1576,0.9955,1.330,-6.020,2.310,406,345,392,413,410,2025-05-23T21:05:16.271128
3100,0.0815,0.1557,0.9975,1.330,-4.620,2.100,431,403,391,417,414,2025-05-23T21:05:16.271138
3101,0.0830,0.1542,0.9941,1.260,-3.920,2.450,416,372,385,391,398,2025-05-23T21:05:16.271149
3102,0.0722,0.1581,1.0024,1.050,-4.550,2.520,418,344,385,393,394,2025-05-23T21:05:16.271159
3103,0.0678,0.1645,1.0141,0.140,-6.160,2.660,408,342,390,382,347,2025-05-23T21:05:16.271174
3104,0.0688,0.1679,1.0170,-0.910,-7.560,2.590,395,381,393,392,293,2025-05-23T21:05:16.271184
3105,0.0659,0.1732,1.0189,-1.820,-8.820,2.380,409,416,366,405,360,2025-05-23T21:05:16.271238
3106,0.0654,0.1791,1.0214,-1.540,-9.170,3.220,425,396,383,404,397,2025-05-23T21:05:16.271251
3107,0.0634,0.1864,1.0311,-1.540,-8.820,4.060,404,365,381,353,383,2025-05-23T21:05:16.271261
3108,0.0659,0.2040,1.0468,-1.890,-9.940,5.320,409,415,374,376,359,2025-05-23T21:05:16.271271
3109,0.0625,0.2303,1.0663,-2.380,-12.740,7.000,429,401,382,395,339,2025-05-23T21:05:16.271282
3110,0.0254,0.2625,1.0970,-4.060,-20.090,8.540,393,421,374,415,384,2025-05-23T21:05:16.271296
3111,-0.0293,0.3113,1.1331,-9.590,-32.550,8.820,419,398,349,392,394,2025-05-23T21:05:16.322083
3112,0.0000,0.0000,0.0000,0.000,0.000,0.000,395,417,329,412,401,2025-05-23T21:05:16.322295
3113,0.0000,0.0000,0.0000,0.000,0.000,0.000,420,429,363,412,390,2025-05-23T21:05:16.322507
3114,0.0000,0.0000,0.0000,0.000,0.000,0.000,350,347,365,403,402,2025-05-23T21:05:16.322520
3115,0.0000,0.0000,0.0000,0.000,0.000,0.000,412,289,364,366,371,2025-05-23T21:05:16.322531
3116,0.0000,0.0000,0.0000,0.000,0.000,0.000,416,370,367,401,380,2025-05-23T21:05:16.322543
3117,0.0000,0.0000,0.0000,0.000,0.000,0.000,412,404,349,405,381,2025-05-23T21:05:16.376661
3118,0.0000,0.0000,0.0000,0.000,0.000,0.000,414,362,377,417,407,2025-05-23T21:05:16.376721
3119,0.0000,0.0000,0.0000,0.000,0.000,0.000,408,350,374,406,394,2025-05-23T21:05:16.376736
3120,0.0000,0.0000,0.0000,0.000,0.000,0.000,376,327,369,348,398,2025-05-23T21:05:16.376770
3121,0.0000,0.0000,0.0000,0.000,0.000,0.000,337,409,338,339,405,2025-05-23T21:05:16.376782
3122,0.0000,0.0000,0.0000,0.000,0.000,0.000,385,387,320,381,355,2025-05-23T21:05:16.627165
3123,0.0000,0.0000,0.0000,0.000,0.000,0.000,408,418,366,399,332,2025-05-23T21:05:16.627214
3124,0.0000,0.0000,0.0000,0.000,0.000,0.000,355,413,362,398,382,2025-05-23T21:05:16.627241
3125,0.3543,-0.0200,0.9072,-40.810,-77.700,-9.310,388,424,386,402,342,2025-05-23T21:05:16.627252
3126,0.3523,-0.0420,0.8628,-33.250,-63.490,-10.080,396,418,388,402,391,2025-05-23T21:05:16.627264
3127,0.3338,-0.0215,0.8633,-21.490,-53.830,-11.340,390,414,398,409,342,2025-05-23T21:05:16.627274
3128,0.3235,0.0210,0.9130,-6.510,-51.520,-12.530,362,423,383,395,366,2025-05-23T21:05:16.627285
3129,0.3499,-0.0020,0.9457,-3.780,-58.030,-9.870,410,433,374,410,397,2025-05-23T21:05:16.630168
3130,0.3357,0.0185,0.9428,-10.150,-58.520,-13.160,428,396,384,370,395,2025-05-23T21:05:16.630197
3131,0.3538,-0.0063,0.9111,-12.110,-56.210,-14.840,410,407,375,377,384,2025-05-23T21:05:16.630209
3132,0.3933,-0.0395,0.8579,-10.850,-50.050,-13.930,374,413,374,379,382,2025-05-23T21:05:16.630220
3133,0.4719,0.0532,0.9775,-22.470,-26.530,0.490,411,345,370,391,379,2025-05-23T21:05:16.630229
3134,0.4046,-0.0532,0.9038,26.810,-36.190,-19.180,400,340,387,400,354,2025-05-23T21:05:16.630241
3135,0.3660,-0.0185,0.9213,13.580,-26.180,-23.590,401,392,390,350,384,2025-05-23T21:05:16.630250
3136,0.3260,0.0737,0.9677,-13.860,-17.780,-16.030,415,420,365,388,402,2025-05-23T21:05:16.630305
3137,0.2982,0.0522,0.9404,-21.140,-19.600,-16.030,402,397,378,410,412,2025-05-23T21:05:16.630314
3138,0.2826,0.0425,0.9228,-22.190,-17.150,-18.480,420,421,381,408,412,2025-05-23T21:05:16.630323
3139,0.3148,0.0205,0.8750,-17.150,-10.500,-15.960,351,411,379,407,415,2025-05-23T21:05:16.630344
3140,0.3548,0.0073,0.9116,-13.370,-1.190,-9.800,377,416,343,392,361,2025-05-23T21:05:16.630356
3141,0.3719,0.0093,0.9316,-9.660,3.010,-7.630,390,374,361,408,390,2025-05-23T21:05:16.630365
3142,0.3494,0.0049,0.9672,0.840,3.360,-9.520,296,385,373,384,343,2025-05-23T21:05:16.829280
3143,0.3201,-0.0054,1.0419,10.360,-1.750,-13.510,390,378,386,341,383,2025-05-23T21:05:16.829322
3144,0.2499,0.0059,1.0702,11.340,-8.540,-19.320,335,386,352,384,362,2025-05-23T21:05:16.829333
3145,0.2352,0.0224,1.0634,10.500,-17.360,-24.290,389,408,335,381,375,2025-05-23T21:05:16.829343
3146,0.2767,0.0112,1.0204,1.050,-27.510,-14.840,398,428,329,402,348,2025-05-23T21:05:16.829371
3147,0.2865,-0.0015,0.9072,49.910,-45.360,-29.540,402,355,359,381,385,2025-05-23T21:05:16.829381
3148,0.3421,0.0742,0.8701,0.350,-13.370,-16.870,390,401,375,384,384,2025-05-23T21:05:16.829390
3149,0.4255,0.0464,0.8369,-49.210,28.210,-8.540,377,420,380,305,402,2025-05-23T21:05:16.829404
3150,0.3909,0.0259,0.9052,-14.910,5.880,-0.210,420,399,387,364,390,2025-05-23T21:05:16.829416
3151,0.4046,0.0503,0.9545,-12.600,7.000,7.560,405,402,402,394,414,2025-05-23T21:05:16.829425
3152,0.3436,0.0493,0.9560,10.920,-10.500,7.420,432,419,396,391,414,2025-05-23T21:05:16.829434
3153,0.3514,0.0425,0.9531,34.510,-33.040,9.800,394,424,358,412,380,2025-05-23T21:05:16.829445
3154,0.4236,0.0459,0.9170,36.470,-45.570,13.510,364,415,374,371,392,2025-05-23T21:05:16.829453
3155,0.4826,0.0332,0.8877,34.370,-48.370,17.920,426,386,377,402,412,2025-05-23T21:05:16.829461
3156,0.4812,0.0420,0.8794,32.200,-41.510,18.900,407,409,378,415,400,2025-05-23T21:05:16.829469
3157,0.4553,0.0346,0.9067,28.980,-29.050,17.850,420,356,357,412,398,2025-05-23T21:05:16.829505
3158,0.4241,0.0346,0.9531,34.860,-28.280,13.160,361,413,371,396,388,2025-05-23T21:05:16.829514
3159,0.3821,0.0346,0.9867,33.040,-25.270,7.840,349,421,389,389,396,2025-05-23T21:05:16.829522
3160,0.3396,0.0605,0.9760,8.680,-15.330,0.280,402,401,373,382,405,2025-05-23T21:05:17.033226
3161,0.3479,0.0146,0.9155,36.260,-10.920,-5.320,423,417,377,407,390,2025-05-23T21:05:17.033286
3162,0.3714,0.1069,0.9370,25.270,-4.830,0.490,349,392,350,402,392,2025-05-23T21:05:17.033304
3163,0.3670,0.1313,0.9662,-11.690,6.300,9.100,344,421,373,389,408,2025-05-23T21:05:17.033318
3164,0.3762,0.0488,0.8799,-24.640,6.930,16.870,337,426,374,404,416,2025-05-23T21:05:17.033331
3165,0.3992,0.0322,0.8530,-5.950,15.750,15.400,351,397,371,416,375,2025-05-23T21:05:17.033344
3166,0.4250,0.0522,0.8921,5.950,18.900,16.030,384,429,374,359,390,2025-05-23T21:05:17.033356
3167,0.4392,0.0683,0.9277,14.350,20.230,18.340,385,421,382,349,378,2025-05-23T21:05:17.033388
3168,0.4172,0.0820,0.9653,13.090,17.710,18.340,398,432,388,351,393,2025-05-23T21:05:17.033400
3169,0.4246,0.0815,0.9916,0.910,17.710,19.670,409,394,382,393,383,2025-05-23T21:05:17.033411
3170,0.4553,0.0630,0.9799,-7.770,21.910,23.800,393,409,388,408,388,2025-05-23T21:05:17.033428
3171,0.4865,0.0415,0.9575,-6.580,24.920,26.670,395,423,387,402,365,2025-05-23T21:05:17.033439
3172,0.4880,0.0034,0.9238,-1.960,31.570,30.730,396,406,391,386,399,2025-05-23T21:05:17.033451
3173,0.4099,0.0264,0.9165,3.710,35.070,28.070,386,422,383,408,357,2025-05-23T21:05:17.033462
3174,0.3977,0.0673,0.9174,6.090,37.520,24.990,382,392,358,389,372,2025-05-23T21:05:17.033491
3175,0.4080,0.0688,0.9130,2.030,39.900,25.760,414,399,370,389,389,2025-05-23T21:05:17.033538
3176,0.4133,0.0556,0.8926,-2.520,49.560,27.650,407,402,384,409,387,2025-05-23T21:05:17.033549
3177,0.4529,0.0439,0.8725,-4.830,65.800,33.180,429,401,374,366,347,2025-05-23T21:05:17.082455
3178,0.4670,0.0107,0.8423,-13.230,86.660,42.490,416,383,341,377,387,2025-05-23T21:05:17.082499
3179,0.4558,0.0303,0.8198,3.640,106.470,46.900,414,416,335,401,405,2025-05-23T21:05:17.082510
3180,0.3914,0.0839,0.8413,-17.570,138.110,51.870,403,430,316,368,392,2025-05-23T21:05:17.082520
3181,0.2450,0.0795,0.8794,-30.170,152.040,48.790,400,419,350,382,407,2025-05-23T21:05:17.132862
3182,0.1318,0.0410,0.9013,-37.940,147.000,43.400,415,407,372,346,407,2025-05-23T21:05:17.132887
3183,0.0815,0.0473,0.9145,-51.660,137.270,31.990,419,406,373,376,395,2025-05-23T21:05:17.132892
3184,0.0952,0.0468,0.9116,-58.100,128.030,19.320,422,373,382,401,414,2025-05-23T21:05:17.132903
3185,0.1200,0.0415,0.9052,-59.430,117.740,10.290,426,394,384,349,386,2025-05-23T21:05:17.132907
3186,0.1103,0.0210,0.9008,-59.500,111.160,6.370,421,341,369,382,401,2025-05-23T21:05:17.179734
3187,0.1269,0.0024,0.9184,-53.270,106.190,8.190,419,374,385,395,385,2025-05-23T21:05:17.179807
3188,0.1186,-0.0107,0.9653,-41.720,104.370,9.310,423,391,371,406,386,2025-05-23T21:05:17.179834
3189,0.0878,-0.0073,0.9965,-38.150,108.430,9.170,427,425,370,412,343,2025-05-23T21:05:17.232383
3190,0.0185,-0.0283,1.0287,-35.560,107.590,-2.100,407,403,365,389,379,2025-05-23T21:05:17.232409
3191,-0.0722,-0.0327,1.0463,-34.160,85.540,-8.540,339,410,384,401,385,2025-05-23T21:05:17.232423
3192,-0.1332,-0.0644,1.0390,-38.990,70.560,-21.140,374,425,388,305,392,2025-05-23T21:05:17.232427
3193,-0.1391,-0.1113,1.0380,-46.410,49.490,-28.210,380,408,381,369,402,2025-05-23T21:05:17.443400
3194,-0.0830,-0.1288,1.0390,-55.160,52.710,-32.760,411,420,391,388,405,2025-05-23T21:05:17.443450
3195,-0.0766,-0.1884,1.0424,-51.450,41.930,-32.270,398,423,397,401,398,2025-05-23T21:05:17.443515
3196,-0.0181,-0.2015,1.0375,-34.440,34.510,-23.520,424,392,402,414,397,2025-05-23T21:05:17.443527
3197,0.0122,-0.1820,1.0253,-41.930,48.020,-14.980,418,422,392,382,377,2025-05-23T21:05:17.443538
3198,0.0142,-0.1913,0.9892,-43.470,57.330,-3.290,400,435,394,374,396,2025-05-23T21:05:17.443548
3199,-0.0610,-0.1767,0.9980,-41.580,63.140,3.570,380,418,388,399,414,2025-05-23T21:05:17.443558
3200,-0.1313,-0.1908,1.0160,-33.810,59.990,2.100,394,418,388,404,380,2025-05-23T21:05:17.443568
3201,-0.2401,-0.1874,1.0292,-38.850,63.420,-6.230,410,388,383,387,401,2025-05-23T21:05:17.443577
3202,-0.3084,-0.1952,1.0287,-45.920,58.310,-16.660,403,410,341,391,397,2025-05-23T21:05:17.443591
3203,-0.3357,-0.1903,1.0350,-44.030,48.650,-24.920,414,398,358,351,383,2025-05-23T21:05:17.443600
3204,-0.2967,-0.1781,1.0497,-44.870,44.450,-31.920,421,338,379,377,391,2025-05-23T21:05:17.443610
3205,-0.2416,-0.2206,1.0370,-41.930,47.110,-25.690,404,413,388,405,403,2025-05-23T21:05:17.443619
3206,-0.1693,-0.2552,1.0082,-44.520,73.080,-15.610,406,437,381,406,410,2025-05-23T21:05:17.443630
3207,-0.1771,-0.2684,1.0370,-35.490,82.810,-8.680,405,428,394,396,419,2025-05-23T21:05:17.443643
3208,-0.2298,-0.2796,1.0214,-23.380,84.280,-5.110,443,446,363,384,361,2025-05-23T21:05:17.443684
3209,-0.3831,-0.3367,1.0907,-24.640,82.530,-10.080,465,463,353,409,377,2025-05-23T21:05:17.443697
3210,-0.4646,-0.4953,1.0926,-12.810,52.080,-33.040,624,579,401,288,255,2025-05-23T21:05:17.443706
3211,-0.5388,-0.4172,1.1409,-28.140,38.570,-33.530,296,315,269,379,355,2025-05-23T21:05:17.498464
3212,-0.4460,-0.4651,1.0848,-34.160,1.470,-32.340,416,422,344,413,376,2025-05-23T21:05:17.498519
3213,-0.2845,-0.5075,0.9550,-37.100,-13.020,-23.870,357,394,352,418,403,2025-05-23T21:05:17.498536
3214,-0.1859,-0.5007,0.8545,-33.950,-29.540,-9.030,373,412,375,413,412,2025-05-23T21:05:17.498757
3215,-0.1552,-0.4231,0.8159,16.100,-4.760,-1.960,425,423,340,366,415,2025-05-23T21:05:17.498769
3216,-0.1498,-0.3616,0.8164,5.530,21.070,3.780,442,440,376,350,360,2025-05-23T21:05:17.656480
3217,-0.1728,-0.3816,0.7501,40.880,29.960,9.520,481,479,386,395,398,2025-05-23T21:05:17.656528
3218,-0.2308,-0.3030,0.7779,65.800,29.050,5.460,467,471,400,418,365,2025-05-23T21:05:17.656541
3219,-0.2508,-0.2416,0.7803,14.770,62.580,-3.150,435,453,402,405,401,2025-05-23T21:05:17.656552
3220,-0.2728,-0.2318,0.8120,-13.580,54.110,-4.830,454,470,377,403,395,2025-05-23T21:05:17.656562
3221,-0.2635,-0.2425,0.7857,-20.510,62.020,-5.110,465,410,409,403,358,2025-05-23T21:05:17.656586
3222,-0.2069,-0.2582,0.7647,8.190,63.490,-3.570,442,376,412,365,385,2025-05-23T21:05:17.656596
3223,-0.1493,-0.2216,0.8252,38.290,80.150,-0.700,401,428,422,356,422,2025-05-23T21:05:17.656606
3224,-0.1845,-0.2098,0.8540,29.820,93.940,6.510,408,373,414,396,437,2025-05-23T21:05:17.656618
3225,-0.2923,-0.2255,0.8940,26.530,100.450,12.810,387,377,399,351,375,2025-05-23T21:05:17.656627
3226,-0.3948,-0.2352,0.9487,6.090,102.900,16.030,382,378,396,400,429,2025-05-23T21:05:17.656636
3227,-0.4309,-0.2684,0.9721,-0.490,106.540,17.780,339,370,370,428,415,2025-05-23T21:05:17.656645
3228,-0.5022,-0.2640,0.9628,6.020,89.460,18.900,374,360,342,426,407,2025-05-23T21:05:17.710679
3229,-0.4441,-0.2572,0.9492,4.480,71.750,23.030,383,382,358,412,425,2025-05-23T21:05:17.710724
3230,-0.5280,-0.2811,0.8599,9.100,96.530,11.060,392,398,337,415,358,2025-05-23T21:05:17.710736
3231,-0.5549,-0.2479,0.9096,24.220,108.290,10.570,299,424,354,419,395,2025-05-23T21:05:17.710762
3232,-0.4646,-0.2279,0.9277,45.220,103.460,14.350,395,420,356,374,393,2025-05-23T21:05:17.710772
3233,-0.4236,-0.2211,0.8940,35.350,113.260,20.580,402,436,333,403,387,2025-05-23T21:05:17.757829
3234,-0.4763,-0.2128,0.8735,49.910,123.830,23.240,416,364,326,409,387,2025-05-23T21:05:17.757908
3235,-0.5256,-0.1591,0.8569,37.800,128.380,29.120,411,392,366,419,388,2025-05-23T21:05:17.757922
3236,-0.5773,-0.1752,0.8164,44.730,142.870,31.010,414,408,383,420,367,2025-05-23T21:05:17.757932
3237,-0.6110,-0.1801,0.7837,43.540,137.620,27.510,417,408,392,403,378,2025-05-23T21:05:17.807369
3238,-0.6451,-0.1498,0.7218,49.420,153.510,18.200,424,405,392,422,372,2025-05-23T21:05:17.807441
3239,-0.7344,-0.1127,0.6788,48.650,162.330,14.140,430,414,395,403,394,2025-05-23T21:05:17.807455
3240,-0.8418,-0.0766,0.5910,52.920,157.640,12.530,414,421,375,398,357,2025-05-23T21:05:17.807467
3241,-0.8911,-0.0288,0.5963,36.750,151.550,12.740,420,431,382,401,379,2025-05-23T21:05:17.860229
3242,-0.8911,-0.0590,0.5505,48.930,153.580,9.520,394,373,386,353,386,2025-05-23T21:05:17.860279
3243,-0.8711,0.0171,0.6373,60.130,124.110,16.030,402,417,382,404,401,2025-05-23T21:05:17.860292
3244,-0.7623,-0.0254,0.5080,31.850,176.400,6.930,425,418,375,402,414,2025-05-23T21:05:17.860302
3245,-0.8081,0.0112,0.5080,46.130,156.310,5.670,374,421,383,417,403,2025-05-23T21:05:17.912644
3246,-0.8911,0.0542,0.5236,36.120,160.370,8.120,391,417,389,417,391,2025-05-23T21:05:17.912689
3247,-1.0072,0.0556,0.5505,34.020,142.310,11.970,409,430,395,394,401,2025-05-23T21:05:17.912701
3248,-1.0146,0.0439,0.6364,26.810,133.770,13.580,392,441,383,401,411,2025-05-23T21:05:17.912713
3249,-0.9282,0.0703,0.5978,-12.460,109.060,32.690,417,420,382,413,394,2025-05-23T21:05:17.912723
3250,-0.8257,0.0791,0.5012,-24.500,77.210,61.880,389,416,393,418,397,2025-05-23T21:05:18.057815
3251,-0.7662,0.0351,0.3240,9.590,102.480,62.300,405,399,396,413,393,2025-05-23T21:05:18.057866
3252,-0.7935,0.1366,0.3353,-3.850,135.030,59.850,419,395,386,398,408,2025-05-23T21:05:18.057880
3253,-0.9453,0.1391,0.3811,-34.790,163.870,52.080,354,420,380,412,363,2025-05-23T21:05:18.057892
3254,-1.1107,0.1113,0.3436,-76.020,170.870,41.160,393,408,390,420,392,2025-05-23T21:05:18.057903
3255,-1.0614,0.0820,0.2908,-102.620,162.400,44.380,412,434,385,393,381,2025-05-23T21:05:18.057914
3256,-1.0072,0.0712,0.1972,-104.230,151.200,59.360,411,422,388,347,396,2025-05-23T21:05:18.057925
3257,-0.9389,0.0693,0.1181,-92.330,151.900,71.260,428,368,389,373,404,2025-05-23T21:05:18.057935
3258,-0.8901,0.1132,0.0337,-62.160,152.320,78.750,396,345,381,395,408,2025-05-23T21:05:18.057945
3259,-0.9453,0.1352,-0.0024,-41.230,152.040,77.420,374,381,387,390,403,2025-05-23T21:05:18.057954
3260,-1.0077,0.1303,-0.0151,-35.210,148.960,69.160,401,337,381,400,400,2025-05-23T21:05:18.057964
3261,-1.0258,0.1327,-0.0088,-29.120,129.150,59.360,417,329,385,414,409,2025-05-23T21:05:18.057973
3262,-0.9819,0.1347,-0.0405,-22.050,105.140,54.740,404,412,378,312,367,2025-05-23T21:05:18.105692
3263,-0.9043,0.1645,-0.0722,-25.270,93.100,53.270,415,393,367,364,360,2025-05-23T21:05:18.105737
3264,-0.8667,0.1884,-0.0849,-30.380,94.010,53.060,422,405,389,404,376,2025-05-23T21:05:18.105748
3265,-0.8506,0.1947,-0.1078,-10.500,93.100,53.200,418,427,378,422,405,2025-05-23T21:05:18.105758
3266,-0.8228,0.1806,-0.0317,-14.630,95.970,57.820,402,422,375,404,410,2025-05-23T21:05:18.158624
3267,-0.8350,0.1283,-0.0215,-16.380,127.540,64.260,398,420,343,402,422,2025-05-23T21:05:18.158669
3268,-0.9282,0.0937,-0.0054,11.130,135.870,66.920,428,405,369,410,405,2025-05-23T21:05:18.158680
3269,-0.9067,0.0244,-0.0210,29.330,129.360,81.480,422,417,381,402,406,2025-05-23T21:05:18.158690
3270,-0.9658,0.0913,-0.0229,85.470,120.610,62.300,435,399,389,404,373,2025-05-23T21:05:18.208262
3271,-1.0258,0.1874,-0.0722,40.740,175.840,43.540,423,408,359,381,382,2025-05-23T21:05:18.208310
3272,-1.1326,0.1859,-0.0386,8.330,171.920,28.070,417,403,361,401,381,2025-05-23T21:05:18.208322
3273,-1.1161,0.2108,-0.0927,-39.200,136.430,28.210,416,397,368,350,396,2025-05-23T21:05:18.208332
3274,-1.0853,0.1874,-0.1186,-42.070,84.630,40.250,425,402,384,374,409,2025-05-23T21:05:18.298471
3275,-0.9584,0.1825,-0.1932,-33.810,27.370,53.970,415,423,385,379,386,2025-05-23T21:05:18.298526
3276,-0.7832,0.2157,-0.3128,11.830,11.200,63.000,426,303,376,406,410,2025-05-23T21:05:18.298542
3277,-0.7379,0.3060,-0.3221,15.680,46.620,83.510,406,357,389,390,358,2025-05-23T21:05:18.298557
3278,-0.8189,0.1840,-0.3899,175.630,-3.920,74.550,344,393,377,397,388,2025-05-23T21:05:18.378069
3279,-1.0199,0.4002,-0.2303,166.670,53.760,34.930,339,299,381,403,403,2025-05-23T21:05:18.378115
3280,-1.1200,0.3055,-0.2420,173.390,66.920,-5.740,382,376,385,411,404,2025-05-23T21:05:18.378127
3281,-1.1600,0.3387,-0.2957,30.310,107.450,22.610,393,333,370,341,396,2025-05-23T21:05:18.378137
3282,-1.1019,0.3767,-0.3357,-72.730,128.520,32.410,411,382,380,356,365,2025-05-23T21:05:18.378147
3283,-1.0878,0.3963,-0.4724,-62.930,92.050,37.660,399,410,386,350,384,2025-05-23T21:05:18.378156
3284,-0.9906,0.3099,-0.4358,-85.610,103.320,30.870,378,400,389,390,389,2025-05-23T21:05:18.378166
3285,-0.9994,0.2855,-0.4436,-63.350,109.620,30.100,411,409,390,404,402,2025-05-23T21:05:18.378175
3286,-0.9897,0.2328,-0.4943,-49.910,93.170,22.960,401,424,389,397,403,2025-05-23T21:05:18.429986
3287,-1.0253,0.2874,-0.3333,1.750,93.940,15.190,415,431,380,348,406,2025-05-23T21:05:18.430036
3288,-1.0414,0.2621,-0.3162,53.550,88.830,16.030,408,433,370,357,408,2025-05-23T21:05:18.430052
3289,-0.9750,0.2420,-0.3035,117.110,12.600,9.730,392,370,381,392,397,2025-05-23T21:05:18.430064
3290,-0.8740,0.1352,-0.4753,87.570,-46.970,12.390,401,409,381,404,415,2025-05-23T21:05:18.430075
3291,-0.9633,0.2982,-0.3162,-6.300,-47.320,34.090,407,397,386,415,357,2025-05-23T21:05:18.430089
3292,-1.0746,0.2411,-0.3030,-88.410,-23.100,39.620,424,357,376,418,339,2025-05-23T21:05:18.485567
3293,-1.0429,0.1996,-0.2621,-44.100,-10.500,20.580,427,396,382,411,384,2025-05-23T21:05:18.485613
3294,-0.9194,0.2352,-0.1757,-6.020,-16.450,15.260,306,424,384,385,382,2025-05-23T21:05:18.485625
3295,-0.7496,0.2406,-0.1186,57.610,-63.280,7.770,401,407,378,396,404,2025-05-23T21:05:18.485636
3296,-0.5705,0.2826,-0.1786,58.170,-84.980,12.110,371,406,380,371,406,2025-05-23T21:05:18.485645
3297,-0.6095,0.2733,-0.3016,53.200,-55.160,22.960,336,426,359,375,349,2025-05-23T21:05:18.534683
3298,-0.7496,0.2162,-0.3245,25.690,-17.150,19.390,406,416,374,399,384,2025-05-23T21:05:18.535020
3299,-0.9077,0.1674,-0.4133,11.480,34.650,20.790,425,402,387,409,397,2025-05-23T21:05:18.535046
3300,-0.9584,0.2235,-0.3577,32.550,48.020,-1.820,423,407,388,422,407,2025-05-23T21:05:18.535057
3301,-0.9828,0.3055,-0.3323,42.280,48.090,-27.090,398,398,392,396,367,2025-05-23T21:05:18.584111
3302,-1.0150,0.4114,-0.2708,57.890,13.300,-50.540,402,416,396,401,376,2025-05-23T21:05:18.584155
3303,-0.9936,0.4377,-0.3333,27.370,-44.030,-60.900,420,401,380,372,383,2025-05-23T21:05:18.584166
3304,-0.8828,0.4358,-0.3109,-41.160,-78.260,-47.600,400,361,387,395,399,2025-05-23T21:05:18.584176
3305,-0.6622,0.2694,-0.3992,-52.150,-90.860,-14.210,423,384,356,369,389,2025-05-23T21:05:18.633001
3306,-0.8823,0.1752,-0.3806,-6.300,-20.510,-13.300,342,410,335,390,390,2025-05-23T21:05:18.633047
3307,-1.0487,0.2264,-0.3587,51.030,36.890,-28.210,329,420,352,348,356,2025-05-23T21:05:18.633059
3308,-1.0682,0.3187,-0.3587,62.930,92.050,-23.240,401,403,364,380,343,2025-05-23T21:05:18.633068
3309,-0.8950,0.3265,-0.2499,108.220,14.490,-13.370,396,427,369,386,388,2025-05-23T21:05:18.680327
3310,-0.9008,0.3255,-0.3582,54.740,-16.380,-5.810,412,402,379,412,349,2025-05-23T21:05:18.680375
3311,-0.7984,0.4197,-0.3909,-27.790,6.930,-2.590,416,301,384,390,336,2025-05-23T21:05:18.680389
3312,-0.8237,0.2948,-0.4612,-33.740,61.810,-21.000,349,398,384,396,334,2025-05-23T21:05:18.680399
3313,-0.9423,0.3455,-0.4460,-4.200,63.630,-32.690,389,423,374,399,377,2025-05-23T21:05:18.882715
3314,-0.9101,0.3348,-0.3523,12.530,31.290,-30.380,414,419,365,396,380,2025-05-23T21:05:18.882773
3315,-0.8638,0.3436,-0.3206,10.990,-17.850,-23.030,345,395,378,394,347,2025-05-23T21:05:18.882790
3316,-0.7584,0.3362,-0.2411,-35.840,-13.720,-9.310,405,423,381,405,367,2025-05-23T21:05:18.882805
3317,-0.8467,0.2508,-0.2933,-59.290,19.530,-6.230,390,419,374,396,383,2025-05-23T21:05:18.882818
3318,-0.8296,0.2372,-0.3538,-41.370,57.610,5.600,409,423,339,386,403,2025-05-23T21:05:18.882834
3319,-0.9228,0.2528,-0.3728,-22.260,92.750,8.050,405,434,328,415,406,2025-05-23T21:05:18.882846
3320,-0.9872,0.2528,-0.4055,-1.680,86.240,9.450,422,418,368,377,409,2025-05-23T21:05:18.882859
3321,-1.0297,0.3182,-0.3270,21.910,61.740,5.600,390,396,340,396,371,2025-05-23T21:05:18.882872
3322,-0.9394,0.3553,-0.3660,-0.560,9.730,1.540,411,415,349,399,385,2025-05-23T21:05:18.882883
3323,-0.9550,0.3802,-0.3309,-34.300,3.850,6.090,339,338,368,414,389,2025-05-23T21:05:18.882896
3324,-0.9287,0.3592,-0.2908,-25.900,0.910,5.880,395,412,334,381,398,2025-05-23T21:05:18.882908
3325,-0.8833,0.3465,-0.2767,7.560,-16.030,5.250,302,399,362,408,389,2025-05-23T21:05:18.882920
3326,-0.7818,0.3528,-0.3055,8.540,-18.550,24.220,375,393,382,364,355,2025-05-23T21:05:18.882931
3327,-0.7715,0.3192,-0.3348,18.410,-12.460,37.870,396,359,387,400,396,2025-05-23T21:05:18.882981
3328,-0.7588,0.3177,-0.4085,39.340,5.880,44.520,373,398,357,413,413,2025-05-23T21:05:18.882993
3329,-0.7715,0.3035,-0.4636,52.150,43.540,34.860,415,417,367,403,413,2025-05-23T21:05:18.883006
3330,-0.7925,0.3113,-0.4587,40.530,71.400,37.240,423,414,371,410,372,2025-05-23T21:05:18.932341
3331,-0.8267,0.2503,-0.5773,52.430,79.940,28.980,401,412,382,408,385,2025-05-23T21:05:18.932391
3332,-0.8062,0.3636,-0.4870,15.400,86.590,33.950,409,416,342,394,404,2025-05-23T21:05:18.932404
3333,-0.8257,0.3440,-0.5207,0.770,70.560,32.900,426,402,327,389,409,2025-05-23T21:05:18.932416
3334,-0.8018,0.2991,-0.5500,28.840,51.660,24.080,433,414,352,387,397,2025-05-23T21:05:19.100225
3335,-0.8472,0.2669,-0.5510,41.930,45.150,14.560,404,416,345,378,348,2025-05-23T21:05:19.100275
3336,-0.7623,0.2889,-0.5329,43.750,39.340,17.360,432,429,326,415,366,2025-05-23T21:05:19.100288
3337,-0.7032,0.2801,-0.5890,58.870,21.630,20.790,428,423,352,425,378,2025-05-23T21:05:19.100302
3338,-0.7608,0.2835,-0.6412,45.710,38.220,19.040,428,364,342,421,386,2025-05-23T21:05:19.100314
3339,-0.8057,0.2616,-0.6476,32.970,50.820,15.400,408,403,351,420,363,2025-05-23T21:05:19.100326
3340,-0.8828,0.2630,-0.6310,34.860,45.290,6.300,421,393,355,401,381,2025-05-23T21:05:19.100337
3341,-0.8408,0.2899,-0.5607,34.300,28.420,-4.620,423,413,329,395,389,2025-05-23T21:05:19.100347
3342,-0.8052,0.2908,-0.5890,3.430,15.190,-7.280,429,426,356,394,409,2025-05-23T21:05:19.100356
3343,-0.7554,0.2621,-0.6285,-17.010,10.710,-10.990,345,420,333,414,414,2025-05-23T21:05:19.100369
3344,-0.7808,0.2362,-0.6515,-19.180,12.530,-16.030,379,423,362,411,394,2025-05-23T21:05:19.100379
3345,-0.8086,0.2074,-0.6661,-17.430,22.610,-21.210,393,419,375,419,401,2025-05-23T21:05:19.100388
3346,-0.8657,0.2133,-0.6212,-11.900,17.710,-25.480,341,418,387,401,406,2025-05-23T21:05:19.100397
3347,-0.9184,0.2640,-0.5422,-18.970,-15.400,-30.870,338,426,349,395,399,2025-05-23T21:05:19.100406
3348,-0.9028,0.2684,-0.5475,-28.840,-17.430,-37.240,328,397,367,407,410,2025-05-23T21:05:19.289361
3349,-0.8272,0.2830,-0.5222,-47.040,-26.180,-42.560,379,419,335,410,408,2025-05-23T21:05:19.289411
3350,-0.7559,0.2796,-0.5719,-66.150,-23.730,-40.600,417,425,349,348,414,2025-05-23T21:05:19.289425
3351,-0.7666,0.3392,-0.5568,-49.980,-4.760,-38.640,409,420,320,383,411,2025-05-23T21:05:19.289436
3352,-0.8101,0.3509,-0.6149,-56.000,28.700,-33.180,413,424,360,394,396,2025-05-23T21:05:19.289446
3353,-0.8691,0.3616,-0.5710,-56.210,39.200,-29.540,403,402,374,350,374,2025-05-23T21:05:19.289456
3354,-1.0194,0.3445,-0.5710,-60.900,12.040,-27.580,405,389,385,392,305,2025-05-23T21:05:19.289465
3355,-0.9575,0.4094,-0.5368,-49.910,-25.270,-26.530,420,418,350,405,364,2025-05-23T21:05:19.289475
3356,-0.9311,0.4255,-0.5431,-44.800,-44.310,-22.540,398,430,371,349,390,2025-05-23T21:05:19.289483
3357,-0.9106,0.4163,-0.5578,-29.540,-56.140,-22.400,411,427,376,396,364,2025-05-23T21:05:19.289492
3358,-0.8067,0.4441,-0.5705,-41.510,-48.860,-13.160,353,404,383,395,380,2025-05-23T21:05:19.289500
3359,-0.7515,0.4177,-0.5666,-38.360,-41.720,-3.010,409,423,391,393,396,2025-05-23T21:05:19.289509
3360,-0.7554,0.4094,-0.5490,-37.940,-10.780,4.480,420,376,383,343,405,2025-05-23T21:05:19.289517
3361,-0.8164,0.3933,-0.5173,-37.940,30.170,6.440,402,423,387,371,389,2025-05-23T21:05:19.289525
3362,-0.8496,0.4119,-0.4563,-43.120,28.770,3.010,416,432,382,404,393,2025-05-23T21:05:19.289561
3363,-0.8086,0.3738,-0.5178,-77.490,63.770,0.420,421,426,390,404,409,2025-05-23T21:05:19.289572
3364,-0.9082,0.4451,-0.5163,-57.050,24.290,0.070,420,305,386,419,404,2025-05-23T21:05:19.343151
3365,-0.8686,0.3933,-0.5636,-50.050,0.560,-6.930,415,390,351,404,415,2025-05-23T21:05:19.343177
3366,-0.9228,-0.0752,-0.7154,248.710,108.570,12.250,405,397,369,419,425,2025-05-23T21:05:19.343182
3367,-0.6920,0.4329,-0.5466,127.330,107.520,13.580,422,404,377,411,393,2025-05-23T21:05:19.343186
3368,-0.6695,0.4904,-0.7520,44.170,92.190,-3.990,401,422,311,413,406,2025-05-23T21:05:19.412273
3369,-0.5412,0.6251,-0.3392,-131.040,-353.430,150.780,405,419,339,416,357,2025-05-23T21:05:19.412320
3370,-0.8696,0.1728,-1.0921,-285.670,-514.360,72.940,417,415,364,374,378,2025-05-23T21:05:19.412335
3371,-0.5880,0.2435,-0.5163,104.790,75.810,20.720,407,428,352,400,405,2025-05-23T21:05:19.412347
3372,-0.7852,0.5173,-0.5671,-0.560,-45.990,-15.680,413,410,339,408,421,2025-05-23T21:05:19.412356
3373,-0.9033,0.5163,-0.5866,-66.360,-88.900,-20.090,397,381,344,390,391,2025-05-23T21:05:19.494535
3374,-0.8774,0.4153,-0.6759,-45.850,-72.450,-30.240,416,414,372,400,351,2025-05-23T21:05:19.494584
3375,-0.8642,0.5329,-0.6749,-91.070,-52.080,-26.180,408,378,373,398,389,2025-05-23T21:05:19.494599
3376,-0.8755,0.5388,-0.3631,-95.760,-42.770,-30.800,420,402,373,397,400,2025-05-23T21:05:19.494610
3377,-0.8008,0.5646,-0.5441,-199.990,41.160,-19.250,348,407,381,385,404,2025-05-23T21:05:19.494621
3378,-0.7954,0.3436,-0.4948,-121.870,145.880,-76.020,369,415,386,394,413,2025-05-23T21:05:19.494632
3379,-0.8150,0.4802,-0.5080,-100.590,223.510,-102.830,410,437,346,412,361,2025-05-23T21:05:19.494643
3380,-0.5065,0.5583,-0.5383,-131.810,84.700,-104.930,430,364,362,418,384,2025-05-23T21:05:19.494653
3381,-0.8247,0.3772,-0.6510,-112.070,27.650,-142.590,351,404,386,410,408,2025-05-23T21:05:19.546698
3382,-0.8018,0.4724,-0.6705,-210.000,-2.660,-60.130,364,306,390,409,417,2025-05-23T21:05:19.546863
3383,-0.8364,0.3533,-0.6212,-68.040,-8.680,-47.250,402,376,383,397,412,2025-05-23T21:05:19.546877
3384,-0.8691,0.4031,-0.6056,64.050,-77.700,-27.090,371,329,387,407,413,2025-05-23T21:05:19.546889
3385,-0.7862,0.4148,-0.5104,60.480,-59.290,-24.850,331,381,376,402,362,2025-05-23T21:05:19.598409
3386,-0.8130,0.4202,-0.4836,20.090,-72.590,-1.750,395,412,372,396,388,2025-05-23T21:05:19.598462
3387,-0.8125,0.4016,-0.4304,-21.490,-72.170,-3.990,373,400,344,397,349,2025-05-23T21:05:19.598474
3388,-0.8120,0.3509,-0.4333,-16.030,-48.580,-12.320,400,432,364,378,335,2025-05-23T21:05:19.598484
3389,-0.8008,0.3782,-0.4656,-27.370,4.970,-16.310,421,397,369,380,374,2025-05-23T21:05:19.647318
3390,-0.7686,0.3655,-0.4485,-35.000,50.400,-20.860,416,303,375,389,396,2025-05-23T21:05:19.647362
3391,-0.7340,0.3250,-0.6466,-70.770,134.330,-17.990,380,354,383,406,401,2025-05-23T21:05:19.647375
3392,-0.9643,0.3640,-0.5026,-44.030,67.760,-32.480,421,399,380,350,403,2025-05-23T21:05:19.647385
3393,-0.9916,0.3235,-0.5558,-47.250,67.620,-40.320,406,401,374,390,407,2025-05-23T21:05:19.895219
3394,-1.0463,0.3294,-0.5949,-29.470,39.060,-55.930,415,406,377,401,411,2025-05-23T21:05:19.895272
3395,-1.0404,0.3304,-0.6193,-36.330,32.410,-63.000,391,387,385,395,400,2025-05-23T21:05:19.895286
3396,-0.9926,0.3221,-0.6329,-34.230,-4.270,-59.080,375,403,389,391,410,2025-05-23T21:05:19.895298
3397,-0.8960,0.3177,-0.6227,-35.910,-16.730,-52.010,391,406,394,414,416,2025-05-23T21:05:19.895310
3398,-0.8906,0.3113,-0.6315,-50.120,-3.710,-45.920,395,420,398,421,412,2025-05-23T21:05:19.895322
3399,-0.9292,0.2586,-0.6334,-54.040,17.150,-37.940,392,428,391,414,406,2025-05-23T21:05:19.895334
3400,-0.9687,0.2377,-0.6139,-37.030,29.190,-33.600,392,362,378,412,361,2025-05-23T21:05:19.895345
3401,-0.9584,0.2328,-0.5558,-35.980,26.250,-27.510,404,415,377,418,341,2025-05-23T21:05:19.895356
3402,-0.9506,0.1942,-0.5168,-31.220,17.640,-20.860,391,391,368,415,380,2025-05-23T21:05:19.895471
3403,-0.9165,0.1918,-0.4787,-45.360,17.080,-17.710,420,386,379,411,394,2025-05-23T21:05:19.895483
3404,-0.8804,0.1479,-0.5022,-47.320,22.960,-17.430,419,402,393,413,402,2025-05-23T21:05:19.895494
3405,-0.8916,0.1513,-0.5168,-29.260,31.990,-21.770,307,402,395,412,354,2025-05-23T21:05:19.895505
3406,-0.9170,0.1157,-0.5466,-9.310,29.540,-26.530,358,425,377,392,394,2025-05-23T21:05:19.895517
3407,-0.9130,0.1713,-0.5890,5.530,26.390,-25.060,408,362,344,399,403,2025-05-23T21:05:19.895587
3408,-0.8506,0.1957,-0.5924,3.640,17.430,-22.400,405,398,370,393,390,2025-05-23T21:05:19.895600
3409,-0.8272,0.2235,-0.5793,-7.210,16.310,-17.920,345,396,384,357,385,2025-05-23T21:05:19.895611
3410,-0.7823,0.2245,-0.5929,-10.150,14.280,-9.170,376,417,388,381,388,2025-05-23T21:05:19.895654
3411,-0.7466,0.2625,-0.6227,-15.890,30.310,-2.030,400,401,392,410,408,2025-05-23T21:05:19.895668
3412,-0.7056,0.2523,-0.6471,-2.030,37.940,5.460,392,408,386,357,413,2025-05-23T21:05:19.895679
3413,-0.7218,0.2499,-0.6603,0.280,37.870,10.850,392,429,375,375,415,2025-05-23T21:05:19.944515
3414,-0.7608,0.2708,-0.6383,28.770,33.670,11.620,416,353,370,385,409,2025-05-23T21:05:19.944563
3415,-0.7657,0.2952,-0.6139,36.470,30.800,7.630,399,386,388,409,409,2025-05-23T21:05:19.944576
3416,-0.7452,0.2991,-0.6320,25.550,25.270,10.360,337,390,343,389,410,2025-05-23T21:05:19.944585
3417,-0.6734,0.3284,-0.6105,15.820,16.520,14.980,380,364,290,403,417,2025-05-23T21:05:19.944595
3418,-0.6456,0.3162,-0.6071,3.500,6.580,19.320,331,329,345,399,417,2025-05-23T21:05:19.992972
3419,-0.6163,0.3055,-0.6071,-14.350,11.550,23.240,403,377,354,396,367,2025-05-23T21:05:19.993022
3420,-0.5929,0.2855,-0.6378,-6.790,23.170,20.160,384,410,331,410,401,2025-05-23T21:05:19.993035
3421,-0.6017,0.2865,-0.7008,1.820,39.970,21.910,393,387,351,395,414,2025-05-23T21:05:19.993045
3422,-0.6354,0.2552,-0.6764,11.480,49.980,20.300,351,424,328,410,412,2025-05-23T21:05:20.042468
3423,-0.6076,0.2445,-0.6466,38.220,48.720,4.900,366,407,363,409,412,2025-05-23T21:05:20.042514
3424,-0.6198,0.2938,-0.5934,28.980,68.880,4.340,433,461,397,447,447,2025-05-23T21:05:20.042526
3425,-0.6276,0.3543,-0.5949,-3.290,58.170,5.250,349,412,385,421,432,2025-05-23T21:05:20.042536
3426,-0.6476,0.3572,-0.6022,-37.380,51.310,7.700,373,422,387,398,422,2025-05-23T21:05:20.093475
3427,-0.6466,0.3489,-0.6852,-63.280,38.430,13.580,417,415,395,390,376,2025-05-23T21:05:20.093501
3428,-0.6632,0.3089,-0.7535,-73.080,34.790,14.420,424,386,387,401,393,2025-05-23T21:05:20.093507
3429,-0.7115,0.3006,-0.7954,-66.850,39.620,11.340,424,418,357,344,362,2025-05-23T21:05:20.093512
3430,-0.7383,0.3187,-0.7735,-45.220,38.570,10.010,381,398,370,350,340,2025-05-23T21:05:20.310860
3431,-0.7432,0.3118,-0.7437,-35.070,24.290,13.020,339,408,307,318,372,2025-05-23T21:05:20.310906
3432,-0.7061,0.3362,-0.6964,-29.890,4.060,14.070,277,381,335,366,390,2025-05-23T21:05:20.311060
3433,-0.6354,0.3201,-0.6554,-56.140,7.000,21.140,314,433,366,384,394,2025-05-23T21:05:20.311072
3434,-0.6554,0.3343,-0.6320,-61.390,0.000,25.340,379,419,362,408,391,2025-05-23T21:05:20.311083
3435,-0.7042,0.3650,-0.6329,-75.670,1.330,31.150,406,421,363,409,398,2025-05-23T21:05:20.311093
3436,-0.7544,0.3226,-0.6105,-81.830,-9.870,32.340,378,408,378,408,389,2025-05-23T21:05:20.311104
3437,-0.7813,0.3167,-0.5963,-56.840,-1.610,28.070,394,371,378,383,395,2025-05-23T21:05:20.311115
3438,-0.7969,0.3572,-0.5622,-48.650,6.300,22.680,409,399,376,406,409,2025-05-23T21:05:20.311124
3439,-0.7564,0.4006,-0.5285,-59.430,8.680,21.210,404,425,344,392,367,2025-05-23T21:05:20.311133
3440,-0.6832,0.4265,-0.5153,-70.420,2.660,22.050,395,423,354,390,389,2025-05-23T21:05:20.311142
3441,-0.6403,0.4538,-0.5100,-71.470,-0.350,21.070,387,404,375,412,395,2025-05-23T21:05:20.330099
3442,-0.6017,0.4499,-0.5275,-70.350,9.520,14.700,389,424,394,394,352,2025-05-23T21:05:20.330138
3443,-0.6290,0.4612,-0.5456,-68.460,27.510,13.090,414,397,384,393,375,2025-05-23T21:05:20.330150
3444,-0.6578,0.4670,-0.5363,-60.270,34.160,9.100,403,391,381,397,387,2025-05-23T21:05:20.330208
3445,-0.6978,0.4675,-0.5348,-44.590,26.810,4.060,409,399,385,403,399,2025-05-23T21:05:20.330218
3446,-0.7466,0.5007,-0.4973,-43.540,11.830,0.700,426,378,385,408,350,2025-05-23T21:05:20.330227
3447,-0.7920,0.5222,-0.6242,-50.750,-8.890,1.050,427,402,396,393,370,2025-05-23T21:05:20.330238
3448,-0.7052,0.5334,-0.4802,-64.820,-23.660,2.800,424,384,356,408,371,2025-05-23T21:05:20.515565
3449,-0.6451,0.5578,-0.4807,-85.960,-29.610,4.410,377,390,327,389,369,2025-05-23T21:05:20.515622
3450,-0.5827,0.5036,-0.5285,-96.320,-27.790,7.000,396,382,318,382,383,2025-05-23T21:05:20.515638
3451,-0.5475,0.4538,-0.5334,-88.830,-8.190,9.520,430,404,360,395,404,2025-05-23T21:05:20.515650
3452,-0.5661,0.4485,-0.4714,-85.750,11.620,11.620,443,422,380,376,400,2025-05-23T21:05:20.515662
3453,-0.6032,0.4138,-0.4109,-66.360,20.160,8.470,436,352,338,344,315,2025-05-23T21:05:20.515673
3454,-0.6368,0.3850,-0.3543,-55.370,5.460,-1.470,421,331,354,391,359,2025-05-23T21:05:20.515686
3455,-0.5568,0.3406,-0.3255,-66.500,-14.420,-6.790,391,385,378,397,370,2025-05-23T21:05:20.515700
3456,-0.4992,0.3089,-0.3104,-73.710,-25.690,-10.080,420,392,345,393,379,2025-05-23T21:05:20.515711
3457,-0.4387,0.2176,-0.3377,-68.950,-26.600,-15.050,404,415,375,411,401,2025-05-23T21:05:20.515722
3458,-0.3841,0.1464,-0.3475,-43.750,-8.120,-22.120,390,389,352,359,389,2025-05-23T21:05:20.515735
3459,-0.4006,0.1259,-0.3104,-16.310,11.200,-31.080,416,391,368,362,406,2025-05-23T21:05:20.515749
3460,-0.4451,0.0908,-0.2967,11.970,16.380,-44.240,406,380,386,385,395,2025-05-23T21:05:20.515759
3461,-0.4997,0.0883,-0.2728,23.870,6.650,-58.660,404,411,382,390,361,2025-05-23T21:05:20.515770
3462,-0.5109,0.0956,-0.2381,21.490,-12.600,-69.370,338,430,386,396,378,2025-05-23T21:05:20.515817
3463,-0.4880,0.1147,-0.2089,23.800,-29.050,-79.730,414,437,387,406,383,2025-05-23T21:05:20.515829
3464,-0.4665,0.1200,-0.2318,31.150,-34.370,-87.990,389,399,392,412,395,2025-05-23T21:05:20.515839
3465,-0.4665,0.1576,-0.2372,42.980,-24.780,-97.580,389,413,387,411,396,2025-05-23T21:05:20.720246
3466,-0.4909,0.2152,-0.2381,53.760,-14.840,-104.790,361,414,385,391,392,2025-05-23T21:05:20.720401
3467,-0.5675,0.2435,-0.2630,64.050,-13.510,-110.460,348,431,388,366,363,2025-05-23T21:05:20.720416
3468,-0.6505,0.2904,-0.2943,67.410,-19.670,-115.430,383,417,380,389,340,2025-05-23T21:05:20.720428
3469,-0.7154,0.3406,-0.3055,55.720,-29.960,-116.480,337,423,385,399,360,2025-05-23T21:05:20.720438
3470,-0.7579,0.3597,-0.3660,45.640,-37.730,-118.580,388,380,377,351,332,2025-05-23T21:05:20.720448
3471,-0.7842,0.4060,-0.4236,36.890,-38.500,-116.760,377,394,387,374,374,2025-05-23T21:05:20.720458
3472,-0.8028,0.4612,-0.4734,26.950,-32.480,-112.560,387,406,347,394,397,2025-05-23T21:05:20.720467
3473,-0.8189,0.5002,-0.5524,32.760,-19.390,-103.880,409,390,365,385,398,2025-05-23T21:05:20.720476
3474,-0.8550,0.5456,-0.6080,40.180,-4.130,-90.440,355,422,383,407,386,2025-05-23T21:05:20.720486
3475,-0.8935,0.5905,-0.6188,50.330,11.550,-76.370,407,424,387,398,393,2025-05-23T21:05:20.720496
3476,-0.9345,0.6320,-0.6271,46.620,23.450,-63.070,394,424,392,358,390,2025-05-23T21:05:20.720505
3477,-0.9570,0.6822,-0.6134,36.540,25.970,-50.120,409,421,388,382,386,2025-05-23T21:05:20.720514
3478,-0.9736,0.7183,-0.6095,24.290,23.240,-39.970,416,431,390,395,405,2025-05-23T21:05:20.720523
3479,-0.9677,0.7784,-0.6368,11.200,21.000,-32.270,406,425,390,397,404,2025-05-23T21:05:20.720565
3480,-0.9804,0.7852,-0.6808,-4.830,19.040,-22.610,403,411,390,351,388,2025-05-23T21:05:20.720575
3481,-1.0053,0.7657,-0.6930,-8.540,17.150,-13.090,394,428,392,391,401,2025-05-23T21:05:20.720584
3482,-1.0268,0.7696,-0.7154,-10.360,20.440,-5.950,406,422,384,405,388,2025-05-23T21:05:20.770906
3483,-1.0609,0.7754,-0.6934,-12.110,24.500,1.050,413,431,382,405,394,2025-05-23T21:05:20.770946
3484,-1.0634,0.7818,-0.6710,-22.610,26.250,7.770,375,443,404,435,432,2025-05-23T21:05:20.770954
3485,-1.0516,0.7930,-0.6891,-38.150,27.090,13.020,383,414,405,430,418,2025-05-23T21:05:20.770961
3486,-1.0472,0.7857,-0.6876,-52.430,23.660,21.350,410,422,399,409,390,2025-05-23T21:05:20.930513
3487,-1.0702,0.7432,-0.6974,-59.220,17.500,28.630,408,366,369,409,407,2025-05-23T21:05:20.930559
3488,-1.1204,0.6891,-0.6939,-64.540,10.640,32.480,408,410,378,412,369,2025-05-23T21:05:20.930571
3489,-1.1180,0.6451,-0.6559,-69.510,-0.490,35.840,401,421,371,347,384,2025-05-23T21:05:20.930582
3490,-1.0960,0.5988,-0.5973,-81.760,-19.530,39.620,409,397,374,391,399,2025-05-23T21:05:20.930592
3491,-1.0414,0.5876,-0.5485,-102.340,-33.110,45.850,415,409,368,359,386,2025-05-23T21:05:20.930605
3492,-0.9965,0.5475,-0.5051,-113.820,-45.150,51.520,423,419,366,389,385,2025-05-23T21:05:20.930615
3493,-0.9360,0.5134,-0.4817,-108.920,-49.140,55.370,433,406,371,403,404,2025-05-23T21:05:20.930625
3494,-0.8686,0.4943,-0.4460,-97.230,-44.940,58.240,380,416,376,421,399,2025-05-23T21:05:20.930636
3495,-0.8072,0.4529,-0.4348,-81.830,-30.240,59.990,386,351,386,427,410,2025-05-23T21:05:20.930646
3496,-0.7993,0.4499,-0.4172,-73.360,-18.410,59.990,413,396,393,394,419,2025-05-23T21:05:20.930654
3497,-0.7745,0.4202,-0.3748,-73.150,-15.050,58.660,407,421,390,411,405,2025-05-23T21:05:20.930663
3498,-0.7139,0.4060,-0.3343,-76.720,-24.290,56.560,395,425,382,358,392,2025-05-23T21:05:20.930671
3499,-0.6359,0.3914,-0.3035,-92.540,-31.920,58.030,369,422,384,400,389,2025-05-23T21:05:21.137617
3500,-0.5627,0.3802,-0.2738,-97.790,-33.810,57.190,390,421,375,414,394,2025-05-23T21:05:21.137668
3501,-0.4865,0.3816,-0.2767,-95.410,-28.420,56.490,413,427,382,405,386,2025-05-23T21:05:21.137682
3502,-0.4607,0.3675,-0.2835,-78.120,-19.950,53.480,346,418,389,390,404,2025-05-23T21:05:21.137693
3503,-0.4246,0.3387,-0.2645,-55.440,-20.510,51.100,387,414,349,409,394,2025-05-23T21:05:21.137703
3504,-0.3621,0.3289,-0.2411,-41.370,-23.870,49.420,403,394,370,423,399,2025-05-23T21:05:21.137713
3505,-0.3016,0.2957,-0.2103,-37.800,-25.620,48.440,397,392,341,405,406,2025-05-23T21:05:21.137724
3506,-0.2591,0.2420,-0.2255,-35.280,-20.510,46.410,407,401,359,384,411,2025-05-23T21:05:21.137738
3507,-0.2708,0.1820,-0.2611,-26.180,-1.960,39.270,419,416,335,345,410,2025-05-23T21:05:21.137750
3508,-0.2508,0.0678,-0.2806,-20.650,17.640,32.970,305,414,351,399,398,2025-05-23T21:05:21.137760
3509,-0.2508,-0.0864,-0.2938,-17.500,30.940,24.780,318,419,363,396,414,2025-05-23T21:05:21.137770
3510,-0.2616,-0.3021,-0.2889,-26.320,37.170,18.760,392,388,348,419,417,2025-05-23T21:05:21.137780
3511,-0.2782,-0.5266,-0.2757,-28.350,45.290,0.910,414,300,329,394,422,2025-05-23T21:05:21.137790
3512,-0.3640,-0.6964,-0.2928,-13.860,52.500,-24.430,415,373,362,413,419,2025-05-23T21:05:21.137800
3513,-0.3499,-0.9740,-0.2952,5.600,58.800,-40.600,429,411,374,414,418,2025-05-23T21:05:21.137846
3514,-0.4085,-1.0721,-0.3758,-1.260,62.300,-68.740,423,403,367,415,417,2025-05-23T21:05:21.137857
3515,-0.4124,-1.3669,-0.4128,24.290,70.770,-95.480,425,416,385,416,401,2025-05-23T21:05:21.137866
3516,-0.4519,-1.4503,-0.4729,71.680,82.460,-110.600,410,432,353,418,393,2025-05-23T21:05:21.335476
3517,-0.5656,-1.5572,-0.4939,140.210,94.780,-139.720,409,413,372,404,408,2025-05-23T21:05:21.335518
3518,-0.6354,-1.5221,-0.5388,174.300,99.050,-165.760,378,400,384,413,417,2025-05-23T21:05:21.335532
3519,-0.7320,-1.6045,-0.7159,209.580,95.620,-177.170,408,405,376,421,413,2025-05-23T21:05:21.335542
3520,-0.7871,-1.5289,-0.8774,252.280,90.440,-180.600,384,361,387,413,417,2025-05-23T21:05:21.335551
3521,-0.9545,-1.5079,-1.0858,304.990,82.810,-181.860,387,392,394,419,416,2025-05-23T21:05:21.335560
3522,-1.2288,-1.4699,-1.3654,351.750,106.540,-203.140,402,421,398,421,413,2025-05-23T21:05:21.335569
3523,-1.5967,-1.4337,-1.6338,397.390,136.710,-224.770,406,387,380,417,400,2025-05-23T21:05:21.335578
3524,-1.8124,-1.3610,-1.9125,424.620,148.960,-220.640,399,424,374,402,411,2025-05-23T21:05:21.335586
3525,-1.7636,-1.0604,-2.1887,434.350,142.310,-214.340,400,360,352,406,322,2025-05-23T21:05:21.335594
3526,-1.6265,-0.8120,-2.4429,406.280,139.370,-200.410,378,350,367,406,330,2025-05-23T21:05:21.335603
3527,-1.8212,-0.3538,-2.8421,312.830,139.440,-151.270,421,380,346,372,383,2025-05-23T21:05:21.335612
3528,-1.4132,-0.0795,-2.5996,369.810,118.440,-83.090,409,402,375,406,406,2025-05-23T21:05:21.335624
3529,-1.3591,0.3528,-2.4888,368.410,116.270,-41.790,374,422,382,416,361,2025-05-23T21:05:21.335665
3530,-1.4157,0.4573,-2.4610,397.740,136.150,-6.860,410,418,381,418,394,2025-05-23T21:05:21.335675
3531,-1.3981,0.7710,-2.2248,413.280,159.880,25.760,403,426,388,386,391,2025-05-23T21:05:21.335685
3532,-1.1702,1.5045,-2.0628,495.250,120.050,36.330,391,398,388,407,396,2025-05-23T21:05:21.335694
3533,-0.8291,1.8588,-2.6586,483.420,85.680,15.960,413,414,386,373,406,2025-05-23T21:05:21.544822
3534,-0.6115,2.7294,-2.5381,447.790,55.020,24.570,406,413,378,393,409,2025-05-23T21:05:21.544873
3535,-0.9418,3.5936,-2.7016,345.870,45.780,40.180,390,400,380,366,370,2025-05-23T21:05:21.544886
3536,-0.7852,3.9328,-2.9934,181.930,80.010,16.870,391,414,392,354,384,2025-05-23T21:05:21.544897
3537,-0.6861,4.0519,-3.9045,58.170,107.660,21.070,409,425,394,382,403,2025-05-23T21:05:21.544907
3538,-0.8950,3.9640,-4.6136,7.140,138.670,38.640,403,393,391,406,412,2025-05-23T21:05:21.544918
3539,-1.0809,3.4819,-5.4441,-87.080,164.710,55.090,391,413,392,414,403,2025-05-23T21:05:21.544928
3540,-1.2254,2.6933,-6.1610,-251.300,194.670,63.560,418,405,382,417,411,2025-05-23T21:05:21.544939
3541,-1.4581,1.4333,-7.3307,-447.650,198.030,45.710,344,404,391,415,428,2025-05-23T21:05:21.544949
3542,-1.6490,0.5817,-8.2086,-694.820,293.020,34.790,346,401,380,435,513,2025-05-23T21:05:21.544959
3543,-1.7217,-0.2128,-8.5429,-955.640,419.720,-230.720,389,393,343,433,606,2025-05-23T21:05:21.544971
3544,-1.7914,-1.2864,-8.9089,-1061.760,412.300,-192.080,415,390,374,406,618,2025-05-23T21:05:21.544982
3545,-1.2327,-1.2952,-9.1324,-1317.540,284.410,-83.370,417,406,377,431,604,2025-05-23T21:05:21.544991
3546,-0.5929,-2.0955,-8.3560,-1239.000,76.230,-156.590,348,374,387,443,617,2025-05-23T21:05:21.545001
3547,-1.4601,-1.1492,-8.3565,-1226.960,-142.520,-78.400,397,416,390,439,604,2025-05-23T21:05:21.545042
3548,-0.9906,-2.2224,-8.5546,-1013.320,-164.920,8.120,422,402,376,409,617,2025-05-23T21:05:21.545052
3549,-1.5494,-2.2604,-7.7343,-873.670,-127.120,44.450,405,424,371,419,595,2025-05-23T21:05:21.545166
3550,-1.3034,-2.3522,-6.7012,-751.170,-125.930,62.650,400,404,341,412,541,2025-05-23T21:05:21.608955
3551,-0.8677,-2.5576,-5.5051,-705.600,-177.310,113.890,337,407,360,307,520,2025-05-23T21:05:21.609003
3552,-1.4235,-2.5361,-4.4159,-719.110,-205.870,179.270,397,424,336,314,478,2025-05-23T21:05:21.609017
3553,-0.9296,-3.0476,-3.6195,-726.740,-137.480,188.930,400,373,364,378,433,2025-05-23T21:05:21.609029
3554,-0.9740,-3.3296,-2.8265,-654.570,-32.900,119.840,383,409,377,396,405,2025-05-23T21:05:21.744002
3555,-0.7530,-3.2974,-2.0198,-571.130,15.610,56.770,395,391,378,363,405,2025-05-23T21:05:21.744057
3556,-0.4651,-3.4101,-1.4108,-473.340,-27.020,-0.630,338,401,382,407,408,2025-05-23T21:05:21.744072
3557,-0.2689,-3.5336,-1.1771,-387.660,-136.430,-21.070,386,408,398,412,362,2025-05-23T21:05:21.744084
3558,0.2957,-3.4931,-1.2307,-271.040,-194.460,-9.940,411,419,375,394,396,2025-05-23T21:05:21.744098
3559,0.5056,-3.0978,-1.1126,-116.690,-153.510,23.030,383,423,371,384,398,2025-05-23T21:05:21.744110
3560,0.4187,-2.5659,-0.7818,9.240,-69.650,47.670,422,410,372,345,387,2025-05-23T21:05:21.744123
3561,0.2987,-2.0911,-0.6364,115.570,-12.880,65.590,419,418,371,372,389,2025-05-23T21:05:21.744134
3562,0.0551,-1.6543,-0.4070,197.820,-41.510,89.810,425,350,374,387,403,2025-05-23T21:05:21.744147
3563,-0.2699,-1.3537,-0.3455,204.400,-67.480,55.790,405,382,374,398,402,2025-05-23T21:05:21.744157
3564,-0.3572,-1.1024,-0.2586,154.280,-99.400,-13.720,422,402,310,369,407,2025-05-23T21:05:21.744168
3565,-0.3811,-0.8457,-0.0102,126.910,-113.820,-54.180,414,417,354,348,360,2025-05-23T21:05:21.744179
3566,-0.4514,-0.6207,-0.0059,105.840,-91.280,-91.000,349,348,376,371,369,2025-05-23T21:05:21.794578
3567,-0.1854,-0.4773,-0.0488,159.110,-66.570,-138.950,373,417,370,390,402,2025-05-23T21:05:21.794622
3568,-0.1098,-0.2855,-0.0176,187.110,-14.840,-142.590,386,400,349,393,409,2025-05-23T21:05:21.794634
3569,-0.2689,-0.0561,-0.0791,216.930,36.610,-158.830,386,405,371,346,405,2025-05-23T21:05:21.794644
3570,-0.4704,0.0947,-0.1845,258.790,64.820,-181.230,410,429,370,377,407,2025-05-23T21:05:21.948218
3571,-0.8691,0.3250,-0.2991,284.550,60.970,-201.390,403,397,367,336,416,2025-05-23T21:05:21.948264
3572,-0.8237,0.5290,-0.3362,302.820,21.840,-235.970,376,298,370,379,412,2025-05-23T21:05:21.948276
3573,-0.8569,0.8237,-0.3216,291.900,-46.060,-235.480,355,379,373,393,410,2025-05-23T21:05:21.948287
3574,-0.8599,0.9033,-0.5324,289.940,-67.690,-230.510,349,335,381,342,402,2025-05-23T21:05:21.948299
3575,-1.0965,0.9570,-0.6354,328.160,-14.980,-240.870,335,324,376,379,392,2025-05-23T21:05:21.948309
3576,-1.6934,1.0829,-0.5446,287.560,50.330,-245.980,375,383,383,381,408,2025-05-23T21:05:21.948318
3577,-2.0154,1.1541,-0.3562,408.730,103.950,-290.780,413,420,384,410,417,2025-05-23T21:05:21.948328
3578,-2.2287,1.3664,-0.7344,411.180,121.240,-246.400,403,396,389,402,396,2025-05-23T21:05:21.948338
3579,-1.8573,1.3142,-1.0565,292.460,-7.350,-233.520,399,410,379,385,384,2025-05-23T21:05:21.948347
3580,-1.6041,1.3313,-1.0516,199.990,-151.760,-233.310,424,384,382,346,346,2025-05-23T21:05:21.948356
3581,-1.5372,1.3708,-0.9931,189.560,-257.180,-216.300,422,384,347,379,387,2025-05-23T21:05:21.948365
3582,-1.5875,1.3898,-0.8525,245.910,-218.750,-200.410,412,345,369,378,389,2025-05-23T21:05:21.948375
3583,-1.8910,1.4547,-0.6012,287.840,-87.500,-182.700,429,377,376,349,394,2025-05-23T21:05:22.003598
3584,-2.1204,1.4328,-0.5353,285.950,19.320,-159.250,400,393,374,336,370,2025-05-23T21:05:22.003645
3585,-1.8007,1.3488,-0.5656,235.340,-3.920,-142.100,418,425,387,393,393,2025-05-23T21:05:22.003658
3586,-1.5113,1.4186,-0.4231,139.790,-150.080,-108.220,422,406,377,392,396,2025-05-23T21:05:22.003668
3587,-1.3127,1.3322,-0.4119,47.880,-306.460,-93.800,369,401,368,363,384,2025-05-23T21:05:22.003678
3588,-1.0077,1.4333,-0.5144,26.670,-339.570,-40.810,348,379,373,388,390,2025-05-23T21:05:22.152973
3589,-0.5544,1.5499,0.0849,108.570,-227.010,-23.030,403,417,377,390,400,2025-05-23T21:05:22.153021
3590,-0.8140,1.6080,-0.4060,186.900,-40.600,-6.580,409,404,356,411,403,2025-05-23T21:05:22.153038
3591,-0.8677,1.6148,-0.4158,252.560,52.990,6.790,421,412,370,402,402,2025-05-23T21:05:22.153049
3592,-0.7696,1.6753,-0.3035,355.880,119.350,-6.160,433,400,351,390,409,2025-05-23T21:05:22.153059
3593,-1.0521,1.3903,-0.8194,306.530,67.690,17.500,401,387,361,400,413,2025-05-23T21:05:22.153069
3594,-0.7237,1.4152,-0.5344,192.360,-23.030,30.380,407,338,374,415,402,2025-05-23T21:05:22.153078
3595,-0.4255,1.3342,-0.4890,93.170,-146.020,29.260,406,383,376,418,360,2025-05-23T21:05:22.153087
3596,-0.4197,1.2210,-0.5246,18.900,-219.590,28.700,416,375,382,358,380,2025-05-23T21:05:22.153096
3597,-0.3694,1.1366,-0.3836,23.520,-172.410,27.720,360,416,381,392,409,2025-05-23T21:05:22.153107
3598,-0.3411,1.0214,-0.3748,66.780,-89.180,15.610,379,413,385,404,404,2025-05-23T21:05:22.153117
3599,-0.3704,0.9316,-0.3357,108.430,-8.890,8.750,342,390,384,371,404,2025-05-23T21:05:22.153125
3600,-0.4387,0.7979,-0.3631,122.710,34.160,2.100,371,416,348,357,386,2025-05-23T21:05:22.206616
3601,-0.5763,0.6988,-0.3294,108.360,39.620,0.000,354,427,361,396,359,2025-05-23T21:05:22.206662
3602,-0.6690,0.6100,-0.2796,60.340,22.680,9.520,402,404,369,399,386,2025-05-23T21:05:22.206671
3603,-0.7735,0.5397,-0.2874,12.250,2.240,16.380,411,344,372,414,361,2025-05-23T21:05:22.206678
3604,-0.7501,0.4939,-0.2996,-18.410,-8.610,19.040,388,414,386,412,380,2025-05-23T21:05:22.255988
3605,-0.6793,0.4621,-0.3353,-33.530,-1.610,22.050,411,388,378,399,395,2025-05-23T21:05:22.256042
3606,-0.6085,0.4480,-0.3504,-29.890,22.750,25.410,409,411,383,345,384,2025-05-23T21:05:22.256056
3607,-0.6242,0.4475,-0.3894,-11.900,60.340,23.380,376,406,354,375,402,2025-05-23T21:05:22.256067
3608,-0.6827,0.4612,-0.3948,20.720,90.720,18.060,371,421,370,413,395,2025-05-23T21:05:22.256078
3609,-0.7779,0.4670,-0.4177,47.740,110.530,7.980,413,414,351,420,407,2025-05-23T21:05:22.306488
3610,-0.8218,0.4919,-0.4124,57.260,106.190,-6.160,426,429,356,402,410,2025-05-23T21:05:22.306551
3611,-0.8833,0.5256,-0.3992,32.410,77.630,-9.380,367,420,362,380,362,2025-05-23T21:05:22.306567
3612,-0.9248,0.5436,-0.3933,1.050,45.360,-6.160,385,419,375,385,369,2025-05-23T21:05:22.306581
3613,-0.8955,0.5417,-0.3948,-17.500,20.160,-3.290,395,425,369,394,400,2025-05-23T21:05:22.355822
3614,-0.7798,0.5226,-0.4172,-39.900,8.260,2.310,414,407,380,413,400,2025-05-23T21:05:22.355932
3615,-0.7139,0.5144,-0.4177,-44.590,8.820,6.160,379,425,371,354,362,2025-05-23T21:05:22.355943
3616,-0.6925,0.5100,-0.4290,-29.750,26.600,7.560,391,426,380,398,396,2025-05-23T21:05:22.355952
3617,-0.7325,0.4939,-0.4309,-3.290,51.240,5.390,388,404,348,365,400,2025-05-23T21:05:22.402039
3618,-0.7452,0.4851,-0.4265,16.800,65.100,0.980,398,398,371,405,406,2025-05-23T21:05:22.402077
3619,-0.7735,0.5002,-0.4172,16.660,61.110,-1.680,407,427,365,392,357,2025-05-23T21:05:22.402087
3620,-0.8452,0.4968,-0.4075,-4.410,45.850,0.700,376,408,370,406,383,2025-05-23T21:05:22.402096
3621,-0.8852,0.4997,-0.3933,-19.460,23.310,1.820,377,422,373,403,346,2025-05-23T21:05:22.451754
3622,-0.8730,0.4875,-0.4011,-33.670,-1.960,2.100,422,421,379,397,382,2025-05-23T21:05:22.451808
3623,-0.8428,0.4660,-0.4236,-46.830,-27.090,3.430,420,384,383,398,388,2025-05-23T21:05:22.451822
3624,-0.7989,0.4363,-0.4226,-46.550,-45.500,3.990,306,412,390,402,406,2025-05-23T21:05:22.451834
3625,-0.7642,0.4372,-0.4153,-36.960,-53.830,4.970,323,387,344,395,409,2025-05-23T21:05:22.500863
3626,-0.7369,0.4231,-0.4099,-22.750,-48.790,5.250,390,405,325,406,380,2025-05-23T21:05:22.500929
3627,-0.7515,0.4221,-0.4148,-2.870,-37.030,4.270,417,393,358,394,409,2025-05-23T21:05:22.500946
3628,-0.7501,0.4343,-0.3894,6.720,-21.770,4.970,410,353,360,412,415,2025-05-23T21:05:22.500961
3629,-0.7637,0.4387,-0.3767,7.560,-7.630,3.850,394,385,381,416,405,2025-05-23T21:05:22.551935
3630,-0.8013,0.4451,-0.3753,2.380,0.140,3.290,383,399,368,353,406,2025-05-23T21:05:22.551985
3631,-0.8491,0.4519,-0.3645,-3.010,0.770,3.150,364,403,367,382,354,2025-05-23T21:05:22.551997
3632,-0.8818,0.4485,-0.3762,-9.100,-6.510,1.540,413,408,376,410,399,2025-05-23T21:05:22.552154
3633,-0.8764,0.4626,-0.3787,-13.720,-16.520,-0.420,402,420,393,405,405,2025-05-23T21:05:22.603955
3634,-0.8652,0.4656,-0.3601,-17.360,-31.920,-0.980,416,372,398,397,394,2025-05-23T21:05:22.604204
3635,-0.8296,0.4797,-0.3440,-12.110,-46.200,0.000,367,385,389,406,415,2025-05-23T21:05:22.604227
3636,-0.8013,0.4890,-0.3353,-5.250,-55.580,2.380,401,406,357,394,408,2025-05-23T21:05:22.604239
3637,-0.8086,0.4817,-0.3221,3.570,-61.950,2.870,337,416,370,395,350,2025-05-23T21:05:22.767779
3638,-0.8520,0.4724,-0.3196,17.080,-68.670,2.170,384,370,386,389,385,2025-05-23T21:05:22.767983
3639,-0.8994,0.4836,-0.3016,21.700,-82.320,0.210,399,408,396,394,368,2025-05-23T21:05:22.768012
3640,-0.9311,0.4958,-0.2957,17.570,-99.540,-1.120,353,419,389,344,299,2025-05-23T21:05:22.768022
3641,-0.9721,0.4968,-0.2552,2.520,-124.250,-2.100,400,409,383,363,348,2025-05-23T21:05:22.881588
3642,-1.0360,0.4875,-0.1801,-10.220,-151.480,-5.810,400,425,370,358,387,2025-05-23T21:05:22.960555
3643,-1.1458,0.4690,-0.1474,-19.530,-182.770,-11.970,408,431,369,376,406,2025-05-23T21:05:23.041237
3644,-1.2527,0.3909,-0.1371,-30.520,-222.180,-20.160,402,423,364,404,379,2025-05-23T21:05:23.121311
3645,-1.3230,0.3470,-0.1039,-39.900,-273.000,-28.560,390,426,382,396,388,2025-05-23T21:05:23.201896
3646,-1.4142,0.1952,-0.0893,-67.060,-328.580,-45.430,400,439,379,390,393,2025-05-23T21:05:23.303691
3647,-1.4464,0.1835,0.0605,-70.770,-377.020,-50.890,414,428,388,375,402,2025-05-23T21:05:23.389532
3648,-1.5235,0.0786,0.1810,-75.390,-432.810,-59.920,375,417,395,382,402,2025-05-23T21:05:23.460869
3649,-1.4850,-0.0527,0.2889,-73.010,-484.260,-71.400,402,405,393,398,403,2025-05-23T21:05:23.540862
3650,-1.3908,-0.1137,0.3392,-91.000,-526.540,-80.360,417,396,353,408,412,2025-05-23T21:05:23.637593
3651,-1.2322,-0.1430,0.3758,-93.660,-547.540,-99.400,412,417,373,396,359,2025-05-23T21:05:23.711046
3652,-1.0565,-0.1064,0.4016,-87.360,-541.590,-113.330,409,396,384,405,389,2025-05-23T21:05:23.790894
3653,-0.9350,-0.0356,0.4426,-87.780,-492.450,-138.880,408,392,349,398,395,2025-05-23T21:05:23.872072
3654,-0.7686,0.1732,0.5417,-92.610,-416.570,-141.050,406,349,365,388,310,2025-05-23T21:05:23.952994
3655,-0.6949,0.3528,0.6647,-108.920,-358.470,-137.270,377,400,382,390,383,2025-05-23T21:05:24.041001
3656,-0.6920,0.5295,0.7876,-118.930,-293.790,-133.630,384,425,377,343,379,2025-05-23T21:05:24.128274
3657,-0.6778,0.7349,0.8823,-133.420,-246.120,-127.050,408,395,384,330,395,2025-05-23T21:05:24.211670
3658,-0.6105,0.8691,0.8921,-118.300,-205.800,-118.720,415,408,356,392,350,2025-05-23T21:05:24.291635
3659,-0.5627,1.2464,0.9457,-140.840,-163.380,-104.370,414,368,369,391,334,2025-05-23T21:05:24.373420
3660,-0.5392,1.5831,0.9721,-147.420,-125.440,-92.960,423,405,371,391,367,2025-05-23T21:05:24.451675
3661,-0.7081,1.7139,1.0653,-121.800,-95.970,-82.180,410,417,371,396,374,2025-05-23T21:05:24.530099
3662,-0.8311,1.8568,1.2298,-55.230,-80.080,-66.990,376,350,337,406,400,2025-05-23T21:05:24.610094
3663,-0.8911,2.1360,1.4001,-10.010,-80.150,-30.800,423,392,362,395,408,2025-05-23T21:05:24.682584
3664,-0.9228,2.3365,1.4772,-22.470,-99.680,16.170,396,410,346,373,403,2025-05-23T21:05:24.769941
3665,-0.9921,2.4454,1.4137,-37.660,-132.860,77.000,392,406,370,303,386,2025-05-23T21:05:24.858625
3666,-1.0692,2.4307,1.2137,-38.640,-180.460,145.600,427,344,379,374,392,2025-05-23T21:05:24.947649
3667,-1.0375,2.1052,1.1102,-10.150,-235.200,208.460,431,411,385,381,393,2025-05-23T21:05:25.032501
3668,-0.7369,1.9740,0.9682,14.630,-285.670,257.110,399,423,387,390,352,2025-05-23T21:05:25.111574
3669,-0.4124,1.9213,0.9262,9.800,-326.970,302.120,420,427,381,390,346,2025-05-23T21:05:25.191039
3670,-0.1283,1.9993,0.7579,48.440,-329.000,337.050,365,415,380,400,378,2025-05-23T21:05:25.271534
3671,0.0703,2.1355,0.5851,98.700,-309.470,358.120,363,403,382,354,389,2025-05-23T21:05:25.350601
3672,0.2328,2.2790,0.2401,150.290,-270.690,363.510,404,429,389,386,388,2025-05-23T21:05:25.431628
3673,0.4455,2.3902,-0.0864,168.000,-212.660,355.320,355,422,402,410,408,2025-05-23T21:05:25.541113
3674,0.5544,2.3336,-0.3445,136.360,-151.340,336.350,394,445,390,406,384,2025-05-23T21:05:25.620827
3675,0.4358,2.1731,-0.4519,80.780,-91.770,298.900,398,406,394,399,394,2025-05-23T21:05:25.700057
3676,0.3133,1.8051,-0.3787,-15.120,-56.000,235.270,418,357,380,414,411,2025-05-23T21:05:25.786843
3677,0.2845,1.3391,-0.2103,-151.830,-73.360,159.950,420,412,382,415,410,2025-05-23T21:05:25.861793
3678,0.3192,0.3933,-0.1874,-311.010,-124.740,78.050,428,387,393,418,407,2025-05-23T21:05:25.941480
3679,-0.2420,-1.0546,-0.1391,-449.470,-162.820,-27.020,405,401,396,400,406,2025-05-23T21:05:26.012230
3680,-1.5352,-2.8563,0.6769,-536.620,-143.500,-86.380,365,428,396,420,402,2025-05-23T21:05:26.091567
3681,-3.2120,-4.3417,0.8828,-415.380,-69.720,-376.950,404,438,401,415,391,2025-05-23T21:05:26.179147
3682,-1.5270,-4.5638,1.6616,-732.340,-11.830,-416.850,342,440,386,358,404,2025-05-23T21:05:26.262994
3683,-0.6085,-5.6628,-0.3426,-526.050,131.180,-154.000,401,408,375,385,350,2025-05-23T21:05:26.349710
3684,-1.4874,-4.7926,-0.7491,-181.370,306.320,-23.170,411,412,354,405,373,2025-05-23T21:05:26.439572
3685,-1.9042,-4.0421,-0.6544,26.390,364.070,25.270,401,403,373,398,380,2025-05-23T21:05:26.510814
3686,-1.8012,-3.6356,-0.5895,252.490,390.600,-12.180,419,341,381,410,390,2025-05-23T21:05:26.592630
3687,-1.1849,-3.3618,-0.2484,320.180,227.290,32.620,306,393,372,406,352,2025-05-23T21:05:26.671308
3688,-0.3577,-2.9099,-0.0952,80.220,-79.870,230.230,383,408,381,394,369,2025-05-23T21:05:26.751025
3689,-0.2274,-2.4024,-0.2162,-31.500,-395.710,384.300,338,420,353,390,398,2025-05-23T21:05:26.829901
3690,-0.3265,-2.6908,-0.5553,204.680,-462.070,327.530,377,424,383,399,400,2025-05-23T21:05:26.913226
3691,0.0834,-2.4356,-0.5768,353.500,-273.910,250.600,414,428,357,412,361,2025-05-23T21:05:26.991243
3692,0.0966,-2.0823,-0.1225,311.780,-89.600,191.800,401,403,356,401,372,2025-05-23T21:05:27.074006
3693,0.0561,-1.7963,-0.0146,262.850,12.950,195.650,382,387,373,354,380,2025-05-23T21:05:27.151665
3694,0.2274,-1.3967,0.0981,279.720,4.970,172.620,343,407,382,402,390,2025-05-23T21:05:27.230908
3695,0.2977,-1.0770,0.3821,234.010,-35.210,165.550,332,425,375,413,396,2025-05-23T21:05:27.311213
3696,0.3152,-0.8359,0.5031,83.580,-30.100,111.930,394,433,374,384,353,2025-05-23T21:05:27.391657
3697,0.4875,-0.5534,0.6476,31.080,6.230,67.900,384,383,367,404,357,2025-05-23T21:05:27.473600
3698,0.6710,-0.2396,0.7257,6.300,19.460,42.980,390,342,366,403,378,2025-05-23T21:05:27.551967
3699,0.8647,0.0454,0.7588,29.610,20.020,16.870,342,381,339,390,386,2025-05-23T21:05:27.632600
3700,0.8950,0.4836,0.8267,68.740,24.990,-6.930,360,421,362,410,407,2025-05-23T21:05:27.741631
3701,0.9365,0.9902,1.0307,100.380,35.560,-41.790,391,396,351,400,358,2025-05-23T21:05:27.821102
3702,1.0463,1.4913,1.3644,114.240,42.000,-64.120,409,417,365,342,330,2025-05-23T21:05:27.900956
3703,1.1766,1.6665,1.5621,69.930,10.290,-90.720,418,353,375,374,364,2025-05-23T21:05:27.970840
3704,1.3591,2.3839,1.7168,31.850,38.290,-21.840,393,401,380,343,377,2025-05-23T21:05:28.051922
3705,1.5323,2.2609,1.6148,-89.040,34.300,-42.770,396,366,339,325,398,2025-05-23T21:05:28.134350
3706,1.7158,1.8539,1.3908,-129.150,67.620,-54.390,372,398,365,375,394,2025-05-23T21:05:28.215749
3707,1.4957,1.5782,1.2063,-82.040,129.010,-35.560,369,404,367,399,403,2025-05-23T21:05:28.302488
3708,1.1566,1.3352,0.9355,15.190,205.590,-23.800,391,391,366,415,388,2025-05-23T21:05:28.383532
3709,0.7759,1.2102,0.8813,109.550,247.660,-13.510,421,396,305,395,389,2025-05-23T21:05:28.491466
3710,0.3997,1.1566,0.8540,179.130,259.560,-1.750,411,417,352,398,407,2025-05-23T21:05:28.582281
3711,0.2445,1.0536,0.8886,141.050,241.640,-3.500,391,403,353,413,413,2025-05-23T21:05:28.661956
3712,0.1581,1.0233,0.9116,61.530,197.260,7.420,383,396,373,395,390,2025-05-23T21:05:28.741574
3713,0.1703,0.8657,0.8760,44.030,165.550,24.360,409,398,381,381,393,2025-05-23T21:05:28.819986
3714,0.2796,0.7013,0.7437,65.660,149.520,49.980,421,394,388,410,394,2025-05-23T21:05:28.901096
3715,0.5022,0.5012,0.5719,62.300,177.730,69.440,423,395,373,407,384,2025-05-23T21:05:28.986468
3716,0.3841,0.2479,0.3026,130.270,260.750,71.890,411,422,375,412,365,2025-05-23T21:05:29.060954
3717,0.1152,0.1581,0.2762,202.580,333.900,50.260,399,419,379,351,378,2025-05-23T21:05:29.141328
3718,-0.2987,0.1322,0.2782,229.180,422.940,23.940,399,429,380,335,378,2025-05-23T21:05:29.242548
3719,-0.9101,0.0644,0.3660,219.870,471.940,-9.030,350,400,346,381,396,2025-05-23T21:05:29.331030
3720,-1.2737,0.0722,0.4265,223.510,485.660,-38.640,395,400,332,404,409,2025-05-23T21:05:29.411498
3721,-1.2605,-0.0395,0.2933,109.200,443.940,-55.860,389,414,317,400,367,2025-05-23T21:05:29.493597
3722,-1.2747,-0.0834,0.2679,5.390,456.260,-48.300,411,417,338,358,402,2025-05-23T21:05:29.573170
3723,-1.1980,-0.1191,0.0215,57.400,503.860,-9.870,414,429,317,336,409,2025-05-23T21:05:29.652324
3724,-1.3732,-0.0854,-0.1137,28.210,548.240,5.670,419,413,353,384,413,2025-05-23T21:05:29.732068
3725,-1.4176,0.0034,-0.2377,108.710,608.930,16.450,399,428,366,385,412,2025-05-23T21:05:29.812352
3726,-1.3405,0.0854,-0.2464,177.660,646.030,-2.730,356,372,345,394,416,2025-05-23T21:05:29.909283
3727,-1.3156,0.2035,-0.3240,224.700,665.210,-31.500,407,404,359,385,403,2025-05-23T21:05:29.995602
3728,-1.2893,0.1932,-0.5017,168.070,609.350,-8.470,391,416,364,393,403,2025-05-23T21:05:30.080663
3729,-1.4767,0.3206,-0.3621,134.330,513.100,22.540,420,354,340,308,354,2025-05-23T21:05:30.161791
3730,-1.5294,0.2733,-0.3572,126.280,408.380,8.400,387,389,369,372,359,2025-05-23T21:05:30.241842
3731,-1.5206,0.3040,-0.3621,106.540,304.360,-14.420,426,432,346,397,388,2025-05-23T21:05:30.322008
3732,-1.2590,0.3426,-0.3328,59.920,236.880,-14.840,403,427,373,403,345,2025-05-23T21:05:30.402077
3733,-1.1775,0.4046,-0.3211,9.450,160.860,-7.280,420,432,386,410,367,2025-05-23T21:05:30.480423
3734,-1.0799,0.4285,-0.2279,22.190,104.930,15.260,417,404,394,423,376,2025-05-23T21:05:30.562111
3735,-0.9326,0.4363,-0.3675,33.040,79.030,34.580,421,407,392,417,394,2025-05-23T21:05:30.640162
3736,-0.8384,0.3738,-0.5285,45.010,99.260,36.960,363,398,400,419,395,2025-05-23T21:05:30.764470
3737,-0.9028,0.3719,-0.5153,102.550,134.190,27.090,385,404,361,398,368,2025-05-23T21:05:30.849216
3738,-0.8804,0.3767,-0.5524,89.180,131.880,20.650,395,388,359,398,379,2025-05-23T21:05:30.921477
3739,-0.8940,0.3806,-0.5168,66.080,117.180,13.650,408,422,362,402,388,2025-05-23T21:05:31.002946
3740,-0.8847,0.3680,-0.5017,47.180,80.150,3.010,403,426,377,406,400,2025-05-23T21:05:31.083080
3741,-0.8725,0.4163,-0.4690,0.000,54.250,-0.980,353,340,373,410,352,2025-05-23T21:05:31.165904
3742,-0.9077,0.3421,-0.5300,-12.110,42.070,-8.050,366,382,391,397,370,2025-05-23T21:05:31.262567
3743,-0.8198,0.3392,-0.5441,-26.950,41.090,-12.040,419,415,392,412,341,2025-05-23T21:05:31.342006
3744,-0.7418,0.3211,-0.5602,-16.030,45.360,-12.110,399,411,389,399,383,2025-05-23T21:05:31.424768
3745,-0.7066,0.3113,-0.6041,5.740,59.150,-12.320,416,382,379,394,366,2025-05-23T21:05:31.510605
3746,-0.7300,0.3274,-0.6495,28.070,79.170,-13.440,412,390,392,413,374,2025-05-23T21:05:31.590810
3747,-0.7554,0.3455,-0.6207,41.650,90.230,-12.600,429,420,351,420,388,2025-05-23T21:05:31.682961
3748,-0.8135,0.3841,-0.6520,30.660,80.920,-13.160,379,419,365,411,387,2025-05-23T21:05:31.760271
3749,-0.6588,0.3040,-0.5827,19.950,44.450,-16.450,388,396,380,306,338,2025-05-23T21:05:31.840418
3750,-0.7022,0.4153,-0.6920,-19.040,42.280,-9.450,377,399,382,371,362,2025-05-23T21:05:31.921937
3751,-0.6895,0.3601,-0.7325,-43.190,50.890,-5.740,417,421,341,385,376,2025-05-23T21:05:32.000475
3752,-0.6564,0.3597,-0.7520,-12.320,57.330,-6.230,425,390,358,396,399,2025-05-23T21:05:32.114849
3753,-0.6300,0.4982,-0.7388,-1.120,51.030,-3.920,419,396,341,390,351,2025-05-23T21:05:32.200561
3754,-0.6295,0.3841,-0.7247,-0.350,51.030,0.280,345,394,328,383,377,2025-05-23T21:05:32.282404
3755,-0.5905,0.3972,-0.7613,-8.820,55.860,3.710,383,418,356,305,389,2025-05-23T21:05:32.359791
3756,-0.5763,0.3704,-0.7574,-15.400,61.740,5.880,414,438,331,361,401,2025-05-23T21:05:32.431614
3757,-0.6056,0.3723,-0.7613,-21.840,48.650,12.530,418,433,360,376,367,2025-05-23T21:05:32.519156
3758,-0.6334,0.3479,-0.7452,-15.190,47.880,16.590,419,418,335,382,391,2025-05-23T21:05:32.600760
3759,-0.6690,0.3523,-0.7227,-1.120,46.270,14.700,398,417,355,346,389,2025-05-23T21:05:32.680961
3760,-0.6349,0.3611,-0.7383,1.960,39.200,12.880,340,418,375,400,392,2025-05-23T21:05:32.759913
3761,-0.5666,0.3670,-0.7608,-1.400,22.190,12.110,362,427,368,364,394,2025-05-23T21:05:32.842497
3762,-0.5109,0.3543,-0.7574,-14.560,7.280,15.190,338,429,337,335,390,2025-05-23T21:05:32.943760
3763,-0.5183,0.3592,-0.7437,-14.910,4.970,15.330,357,430,374,390,370,2025-05-23T21:05:33.031212
3764,-0.4895,0.3675,-0.7349,-7.210,3.500,11.970,407,356,381,377,389,2025-05-23T21:05:33.113446
3765,-0.4734,0.3723,-0.7491,7.910,8.190,6.790,415,389,372,343,399,2025-05-23T21:05:33.180200
3766,-0.4778,0.3782,-0.7676,11.970,10.570,1.960,386,393,378,388,414,2025-05-23T21:05:33.249791
3767,-0.4821,0.3748,-0.7930,-0.700,12.670,-1.190,409,397,392,389,415,2025-05-23T21:05:33.311520
3768,-0.4939,0.3806,-0.7979,-16.800,11.970,-3.220,400,414,358,366,402,2025-05-23T21:05:33.381991
3769,-0.4982,0.3782,-0.8013,-27.300,10.780,-4.690,424,420,339,396,410,2025-05-23T21:05:33.453344
3770,-0.5002,0.3631,-0.7925,-27.370,12.040,-8.750,399,421,364,397,397,2025-05-23T21:05:33.520201
3771,-0.5197,0.3611,-0.7993,-24.080,14.000,-10.710,420,404,382,307,403,2025-05-23T21:05:33.605723
3772,-0.4870,0.3748,-0.8008,-17.220,16.590,-9.730,417,426,349,361,402,2025-05-23T21:05:33.692280
3773,-0.4812,0.3660,-0.8008,-7.490,19.810,-7.490,416,448,406,432,448,2025-05-23T21:05:33.772538
3774,-0.5383,0.3802,-0.7798,-1.120,21.350,-4.900,421,406,386,411,419,2025-05-23T21:05:33.851491
3775,-0.5407,0.3914,-0.7715,20.510,19.810,-7.490,411,402,390,359,356,2025-05-23T21:05:33.933912
3776,-0.5392,0.4060,-0.7745,20.160,12.530,-7.210,419,408,390,382,396,2025-05-23T21:05:34.001309
3777,-0.5280,0.4011,-0.7632,2.870,6.160,-3.780,349,418,344,401,400,2025-05-23T21:05:34.081056
3778,-0.5275,0.3943,-0.7740,-3.430,-17.220,-4.340,415,428,333,398,396,2025-05-23T21:05:34.151318
3779,-0.5134,0.3704,-0.7788,-15.960,-0.910,-2.030,384,438,368,410,390,2025-05-23T21:05:34.232863
3780,-0.4612,0.3148,-0.8135,6.090,-3.150,-7.140,370,436,375,415,400,2025-05-23T21:05:34.341960
3781,-0.4860,0.3714,-0.7969,-42.350,-9.170,3.570,338,396,318,380,361,2025-05-23T21:05:34.422797
3782,-0.4485,0.3475,-0.7603,-27.370,-7.420,3.150,363,414,353,388,390,2025-05-23T21:05:34.501431
3783,-0.4895,0.3421,-0.7515,-10.640,-0.420,2.450,382,419,373,407,405,2025-05-23T21:05:34.580849
3784,-0.5266,0.3582,-0.7242,3.990,7.210,-0.980,407,414,390,417,395,2025-05-23T21:05:34.663622
3785,-0.5212,0.3548,-0.7398,24.010,6.090,-5.040,402,425,390,425,404,2025-05-23T21:05:34.744366
3786,-0.5090,0.3821,-0.7525,25.480,-0.070,-5.460,388,381,385,399,404,2025-05-23T21:05:34.831011
3787,-0.5168,0.3870,-0.7510,10.360,-10.920,-3.360,407,389,380,398,398,2025-05-23T21:05:34.910568
3788,-0.4831,0.3758,-0.7540,-4.620,-14.700,-1.890,413,420,389,404,366,2025-05-23T21:05:35.015126
3789,-0.4758,0.3689,-0.7657,-11.690,-14.000,-1.330,408,356,393,400,344,2025-05-23T21:05:35.102372
3790,-0.4787,0.3406,-0.7642,-10.010,-14.770,-1.120,390,357,388,361,378,2025-05-23T21:05:35.180722
3791,-0.5153,0.3440,-0.7720,5.600,-6.720,-5.390,348,410,395,379,378,2025-05-23T21:05:35.260572
3792,-0.4978,0.3460,-0.7788,11.550,-5.390,-5.670,397,422,385,396,393,2025-05-23T21:05:35.339729
3793,-0.5026,0.3494,-0.7930,7.070,-3.500,-4.690,392,407,380,403,404,2025-05-23T21:05:35.421045
3794,-0.5031,0.3489,-0.7910,6.510,-6.230,-3.710,367,427,382,353,402,2025-05-23T21:05:35.491802
3795,-0.5344,0.3684,-0.7867,3.290,-10.500,-2.240,403,398,353,372,313,2025-05-23T21:05:35.572878
3796,-0.5339,0.3626,-0.7798,3.150,-14.700,-2.310,412,381,356,408,385,2025-05-23T21:05:35.651067
3797,-0.5680,0.3445,-0.7671,6.510,-22.330,-5.040,415,387,361,401,378,2025-05-23T21:05:35.731050
3798,-0.5944,0.3504,-0.7637,5.740,-37.730,-10.290,420,373,375,409,391,2025-05-23T21:05:35.813512
3799,-0.5895,0.3421,-0.7603,6.370,-57.120,-10.920,423,387,379,409,382,2025-05-23T21:05:35.902043
3800,-0.6598,0.3445,-0.7383,3.570,-82.250,-12.950,367,423,388,392,394,2025-05-23T21:05:35.982193
3801,-0.7798,0.3621,-0.6964,1.820,-116.690,-20.230,417,411,388,389,392,2025-05-23T21:05:36.060718
3802,-0.7017,0.3880,-0.6442,7.770,-153.580,-15.890,431,397,382,391,402,2025-05-23T21:05:36.142808
3803,-0.6495,0.3660,-0.6710,-3.220,-194.600,-5.110,353,409,376,415,407,2025-05-23T21:05:36.221218
3804,-0.6354,0.3421,-0.5973,-20.020,-210.210,3.780,406,351,367,411,409,2025-05-23T21:05:36.302543
3805,-0.6481,0.3055,-0.5339,-11.200,-218.960,5.390,396,413,377,423,401,2025-05-23T21:05:36.382824
3806,-0.7437,0.3416,-0.5148,21.000,-220.710,8.190,397,421,382,404,408,2025-05-23T21:05:36.472578
3807,-0.8969,0.3694,-0.4695,40.320,-240.730,9.100,404,425,376,414,412,2025-05-23T21:05:36.550818
3808,-1.0204,0.3289,-0.4890,54.320,-270.480,7.560,367,394,374,402,362,2025-05-23T21:05:36.633423
3809,-1.0863,0.3899,-0.4802,26.180,-322.210,18.550,406,402,385,386,388,2025-05-23T21:05:36.712171
3810,-1.0082,0.3626,-0.4275,-23.100,-382.480,19.600,406,424,344,389,384,2025-05-23T21:05:36.792721
3811,-0.9360,0.3601,-0.3777,-41.860,-428.540,25.760,353,414,364,400,364,2025-05-23T21:05:36.871610
3812,-0.9799,0.3357,-0.2191,-47.040,-458.780,36.680,401,427,378,395,380,2025-05-23T21:05:36.951059
3813,-1.1039,0.3240,-0.1845,-6.930,-454.860,41.440,407,403,379,407,396,2025-05-23T21:05:37.031981
3814,-1.0677,0.3367,-0.0781,43.820,-465.220,35.630,403,421,383,351,404,2025-05-23T21:05:37.112787
3815,-1.0516,0.3509,-0.0742,64.820,-474.390,37.730,407,417,386,380,411,2025-05-23T21:05:37.191602
3816,-0.9848,0.3279,-0.0517,58.380,-480.550,40.810,405,342,385,399,404,2025-05-23T21:05:37.279973
3817,-1.0282,0.3640,-0.0161,25.200,-472.500,40.390,388,405,376,419,394,2025-05-23T21:05:37.363693
3818,-1.1722,0.3714,-0.0073,-2.100,-463.540,32.690,433,424,396,417,410,2025-05-23T21:05:37.440959
3819,-1.2268,0.3826,0.0468,-27.090,-478.380,27.930,408,389,393,411,413,2025-05-23T21:05:37.520668
3820,-1.1502,0.4290,0.0634,-55.790,-507.150,26.250,414,339,396,396,394,2025-05-23T21:05:37.602163
3821,-0.9809,0.3972,0.1976,-103.880,-526.470,27.020,419,323,392,414,392,2025-05-23T21:05:37.690795
3822,-0.9536,0.3392,0.2850,-96.040,-557.130,23.030,409,376,393,391,403,2025-05-23T21:05:37.771753
3823,-0.7823,0.3240,0.3831,-122.710,-525.910,19.180,393,386,393,398,416,2025-05-23T21:05:37.851749
3824,-0.6539,0.3260,0.4695,-117.390,-523.110,11.270,419,392,395,393,403,2025-05-23T21:05:37.931167
3825,-0.2440,0.4006,0.5822,-84.210,-531.860,21.560,397,409,352,348,410,2025-05-23T21:05:38.012150
3826,0.0044,0.3328,0.6329,-55.790,-504.210,5.740,408,348,380,395,388,2025-05-23T21:05:38.091403
3827,0.0517,0.2928,0.6349,-42.910,-374.080,-5.040,361,404,390,406,368,2025-05-23T21:05:38.169390
3828,-0.0874,0.2899,0.6983,-48.300,-249.200,-3.430,406,413,349,386,345,2025-05-23T21:05:38.249779
3829,-0.0874,0.2406,0.7749,-56.000,-170.310,-1.470,413,424,376,410,335,2025-05-23T21:05:38.341972
3830,-0.0669,0.1957,0.8462,-49.910,-133.070,-0.770,341,424,376,398,391,2025-05-23T21:05:38.431188
3831,-0.0468,0.1718,0.9194,-49.140,-112.070,-3.990,388,381,374,417,405,2025-05-23T21:05:38.512766
3832,-0.0752,0.1967,0.9770,-66.710,-98.770,-10.780,338,403,384,357,399,2025-05-23T21:05:38.600159
3833,-0.1371,0.2103,1.0189,-96.250,-76.510,-11.620,376,432,388,407,405,2025-05-23T21:05:38.671612
3834,-0.1186,0.2045,1.0380,-117.390,-64.330,-8.400,397,406,381,418,410,2025-05-23T21:05:38.741785
3835,-0.0903,0.1171,1.0097,-85.540,-64.820,-8.470,417,398,346,401,387,2025-05-23T21:05:38.813114
3836,-0.0595,0.1171,0.9994,-66.290,-52.430,-5.460,400,419,363,390,405,2025-05-23T21:05:38.900274
3837,-0.0317,0.0834,0.9814,-41.790,-30.800,-1.960,418,416,364,409,396,2025-05-23T21:05:38.984191
3838,-0.0586,0.0756,1.0024,-24.570,-9.310,2.240,405,345,375,351,399,2025-05-23T21:05:39.059746
3839,-0.1688,0.0405,1.0253,-5.740,-4.900,-4.270,395,383,380,387,413,2025-05-23T21:05:39.132264
3840,-0.2045,0.0864,1.0404,2.940,-11.760,-10.500,395,422,391,402,383,2025-05-23T21:05:39.220198
3841,-0.1571,0.0942,1.0331,-6.860,-20.510,-13.720,379,418,380,407,390,2025-05-23T21:05:39.300200
3842,-0.0913,0.1074,1.0316,-28.840,-19.250,-15.400,405,426,387,395,389,2025-05-23T21:05:39.382461
3843,-0.0537,0.1083,1.0116,-38.360,-5.810,-17.850,412,427,387,406,403,2025-05-23T21:05:39.460854
3844,-0.0215,0.1054,1.0116,-31.010,10.360,-19.670,417,409,389,410,391,2025-05-23T21:05:39.541706
3845,0.0020,0.0986,1.0126,-23.240,20.930,-18.620,402,411,381,408,390,2025-05-23T21:05:39.623105
3846,-0.0117,0.0883,1.0087,-23.870,31.010,-18.620,412,427,384,396,362,2025-05-23T21:05:39.701705
3847,-0.0581,0.0893,1.0224,-21.770,35.910,-18.620,351,411,376,398,391,2025-05-23T21:05:39.779926
3848,-0.0986,0.0766,1.0302,-10.850,30.520,-21.490,401,395,340,395,347,2025-05-23T21:05:39.863805
3849,-0.1069,0.0825,1.0336,-1.750,23.030,-23.380,408,436,355,397,382,2025-05-23T21:05:39.950467
3850,-0.1147,0.1005,1.0277,-3.220,16.310,-24.360,424,364,371,396,403,2025-05-23T21:05:40.032094
3851,-0.1196,0.0971,1.0258,0.000,11.690,-26.040,417,398,385,412,418,2025-05-23T21:05:40.120902
3852,-0.0976,0.1000,1.0263,9.240,8.890,-27.440,419,395,375,351,402,2025-05-23T21:05:40.201736
3853,-0.0781,0.1176,1.0316,14.560,11.130,-27.230,412,390,309,379,409,2025-05-23T21:05:40.282689
3854,-0.0649,0.1274,1.0321,19.390,20.300,-26.460,395,412,314,389,397,2025-05-23T21:05:40.371855
3855,-0.0830,0.1298,1.0214,20.650,32.200,-24.570,415,396,350,405,401,2025-05-23T21:05:40.463132
3856,-0.0874,0.1474,1.0082,23.310,44.170,-23.380,423,413,384,418,364,2025-05-23T21:05:40.550688
3857,-0.1420,0.1518,1.0150,25.130,48.160,-23.800,406,415,373,411,374,2025-05-23T21:05:40.629549
3858,-0.1791,0.1625,1.0282,27.300,47.390,-23.730,420,434,380,409,410,2025-05-23T21:05:40.712853
3859,-0.2118,0.1796,1.0355,26.880,36.750,-24.850,410,431,381,415,400,2025-05-23T21:05:40.791670
3860,-0.1771,0.2089,1.0155,18.830,30.800,-24.990,341,382,347,405,400,2025-05-23T21:05:40.881946
3861,-0.1640,0.1864,1.0004,7.560,23.240,-24.150,338,376,361,402,403,2025-05-23T21:05:40.970918
3862,-0.1518,0.1840,0.9921,17.780,24.430,-24.710,395,398,384,387,418,2025-05-23T21:05:41.051056
