SeqNum,AccX,AccY,AccZ,GyroX,GyroY,GyroZ,Flex,Force1,Force2,Force3,Force4,TimestampReception
28178,-0.8330,0.1698,0.4904,9.205,4.410,-14.840,412,420,345,411,392,2025-05-28T17:30:17.490781
28179,-0.8052,-0.2230,0.5939,-0.805,-2.660,-2.310,407,433,292,400,373,2025-05-28T17:30:17.490781
28180,-0.8106,-0.2201,0.5988,-0.630,-2.520,-2.100,424,412,266,411,387,2025-05-28T17:30:17.503473
28181,-0.8130,-0.2259,0.5963,-0.560,-2.660,-1.925,430,411,333,395,394,2025-05-28T17:30:17.503473
28182,-0.8150,-0.2250,0.5958,0.105,-2.975,-1.785,433,403,351,406,350,2025-05-28T17:30:17.503473
28183,-0.8140,-0.2279,0.6007,0.630,-3.185,-1.575,424,401,365,392,395,2025-05-28T17:30:17.503473
28184,-0.8145,-0.2279,0.6017,1.085,-3.500,-0.840,423,338,364,347,405,2025-05-28T17:30:17.504471
28185,-0.8169,-0.2289,0.6056,1.435,-3.465,-0.420,401,400,366,387,418,2025-05-28T17:30:17.504471
28186,-0.8159,-0.2318,0.6066,1.645,-3.430,-0.175,361,414,368,361,415,2025-05-28T17:30:17.504471
28187,-0.8140,-0.2328,0.6022,2.100,-3.640,0.210,400,347,377,399,420,2025-05-28T17:30:17.504471
28188,-0.8101,-0.2328,0.6012,3.010,-3.745,0.560,372,404,353,393,391,2025-05-28T17:30:17.505100
28189,-0.8062,-0.2308,0.5958,3.500,-3.710,0.910,394,304,364,410,409,2025-05-28T17:30:17.505100
28190,-0.7993,-0.2279,0.5924,4.410,-3.360,1.050,416,402,376,397,408,2025-05-28T17:30:17.505100
28191,-0.8032,-0.2216,0.6017,4.515,-2.730,0.980,428,348,383,402,399,2025-05-28T17:30:17.505466
28192,-0.8037,-0.2216,0.6002,3.955,-2.450,0.945,417,330,351,389,403,2025-05-28T17:30:17.506081
28193,-0.8052,-0.2284,0.5885,3.920,-2.485,0.455,419,319,358,353,387,2025-05-28T17:30:17.759126
28194,-0.8057,-0.2294,0.5915,4.375,-3.220,0.350,437,403,370,401,397,2025-05-28T17:30:17.759126
28195,-0.8013,-0.2298,0.5919,4.515,-3.745,0.350,359,397,365,383,387,2025-05-28T17:30:17.759126
28196,-0.8023,-0.2259,0.5939,3.955,-3.815,0.525,402,353,375,381,401,2025-05-28T17:30:17.759126
28197,-0.7974,-0.2284,0.5851,3.780,-3.675,0.385,402,417,368,302,406,2025-05-28T17:30:17.759126
28198,-0.7950,-0.2259,0.5822,3.920,-3.220,0.140,390,402,383,376,377,2025-05-28T17:30:17.759126
28199,-0.7940,-0.2230,0.5851,3.990,-2.940,0.035,416,435,386,379,387,2025-05-28T17:30:17.759126
28200,-0.7925,-0.2191,0.5929,3.290,-2.485,-0.035,412,429,376,394,397,2025-05-28T17:30:17.759126
28201,-0.7974,-0.2191,0.5895,2.380,-2.205,-0.035,424,377,384,409,400,2025-05-28T17:30:17.759126
28202,-0.8013,-0.2255,0.5783,2.590,-2.240,-0.525,426,421,387,404,360,2025-05-28T17:30:17.759126
28203,-0.8047,-0.2240,0.5827,3.255,-2.625,-0.770,416,359,386,408,348,2025-05-28T17:30:17.759126
28204,-0.8037,-0.2186,0.5944,3.395,-3.115,-0.805,411,396,380,410,388,2025-05-28T17:30:17.759126
28205,-0.8057,-0.2191,0.5954,2.870,-3.430,-0.840,355,385,379,418,390,2025-05-28T17:30:17.759126
28206,-0.8052,-0.2240,0.5827,2.940,-3.535,-0.805,404,392,338,422,387,2025-05-28T17:30:17.759126
28207,-0.8057,-0.2235,0.5866,3.255,-3.290,-0.770,424,399,353,412,404,2025-05-28T17:30:17.760099
28208,-0.8037,-0.2201,0.5915,3.150,-2.730,-0.665,382,396,295,346,400,2025-05-28T17:30:17.760099
28209,-0.8023,-0.2147,0.5949,2.450,-1.960,-0.385,369,417,342,390,413,2025-05-28T17:30:17.760099
28210,-0.8091,-0.2191,0.5944,2.135,-1.575,-0.175,411,419,362,345,403,2025-05-28T17:30:17.760099
28211,-0.8145,-0.2206,0.5958,2.065,-1.715,0.000,411,409,365,376,413,2025-05-28T17:30:17.939536
28212,-0.8189,-0.2211,0.5968,2.135,-2.590,0.070,427,417,378,409,349,2025-05-28T17:30:17.939536
28213,-0.8218,-0.2201,0.5978,2.310,-3.640,0.140,428,425,392,399,395,2025-05-28T17:30:17.939536
28214,-0.8115,-0.2191,0.6007,2.520,-4.200,0.385,400,358,382,349,403,2025-05-28T17:30:17.939536
28215,-0.8018,-0.2167,0.5944,2.555,-3.885,0.700,402,397,383,391,401,2025-05-28T17:30:17.939536
28216,-0.8013,-0.2147,0.5958,2.555,-2.870,0.980,406,420,377,393,392,2025-05-28T17:30:17.939536
28217,-0.8003,-0.2118,0.6017,2.030,-2.065,0.980,408,355,374,409,404,2025-05-28T17:30:17.939536
28218,-0.8013,-0.2108,0.5958,1.750,-1.575,0.770,424,407,343,397,351,2025-05-28T17:30:17.939536
28219,-0.8072,-0.2133,0.5958,2.240,-2.030,0.385,426,395,363,409,372,2025-05-28T17:30:17.939536
28220,-0.8125,-0.2147,0.6056,2.450,-3.290,0.315,426,348,373,411,335,2025-05-28T17:30:17.939536
28221,-0.8111,-0.2172,0.5973,2.310,-4.305,0.070,421,391,376,378,324,2025-05-28T17:30:17.939536
28222,-0.8062,-0.2152,0.5954,2.625,-5.005,-0.140,436,406,373,404,328,2025-05-28T17:30:17.939536
28223,-0.7984,-0.2128,0.5978,2.660,-4.760,-0.350,422,418,386,353,316,2025-05-28T17:30:17.939536
28224,-0.7954,-0.2069,0.6012,2.100,-3.815,-0.560,428,422,377,377,353,2025-05-28T17:30:17.939536
28225,-0.7910,-0.2089,0.5924,1.680,-2.870,-0.630,428,383,384,406,378,2025-05-28T17:30:17.939536
28226,-0.7979,-0.2094,0.5905,1.575,-2.485,-0.560,417,421,384,350,375,2025-05-28T17:30:17.939536
28227,-0.8067,-0.2084,0.5973,1.470,-2.310,-0.735,438,399,370,381,339,2025-05-28T17:30:17.939536
28228,-0.8096,-0.2074,0.5983,1.050,-3.045,-0.665,402,419,380,368,389,2025-05-28T17:30:17.939536
28229,-0.8115,-0.2089,0.5954,0.560,-3.990,-0.455,429,399,375,389,396,2025-05-28T17:30:17.939536
28230,-0.8096,-0.2118,0.5929,0.630,-4.865,-0.420,372,394,345,405,398,2025-05-28T17:30:18.110679
28231,-0.8067,-0.2089,0.5973,0.805,-5.250,-0.245,431,424,337,399,395,2025-05-28T17:30:18.110679
28232,-0.7979,-0.2084,0.5910,0.420,-5.075,-0.070,411,432,358,346,406,2025-05-28T17:30:18.110679
28233,-0.7940,-0.2045,0.5900,0.280,-4.200,-0.210,388,398,334,389,400,2025-05-28T17:30:18.110679
28234,-0.7964,-0.2001,0.5900,-0.105,-2.800,-0.385,360,402,331,395,385,2025-05-28T17:30:18.110679
28235,-0.8032,-0.1991,0.5958,-0.560,-1.750,-0.490,428,405,348,390,390,2025-05-28T17:30:18.110679
28236,-0.8086,-0.2030,0.5919,-0.875,-1.785,-0.350,420,419,355,387,409,2025-05-28T17:30:18.110679
28237,-0.8145,-0.2079,0.5954,-0.910,-2.555,-0.280,426,431,366,366,399,2025-05-28T17:30:18.110679
28238,-0.8169,-0.2098,0.6012,-0.770,-3.570,0.000,412,406,345,402,390,2025-05-28T17:30:18.110679
28239,-0.8101,-0.2089,0.5973,-0.735,-4.165,0.210,352,398,365,393,343,2025-05-28T17:30:18.110679
28240,-0.8028,-0.2035,0.5958,-1.015,-4.165,0.140,411,393,379,408,369,2025-05-28T17:30:18.110679
28241,-0.7964,-0.1976,0.5963,-1.365,-3.360,0.420,418,402,389,404,406,2025-05-28T17:30:18.110679
28242,-0.8003,-0.1986,0.5973,-1.925,-2.240,0.770,412,416,381,418,402,2025-05-28T17:30:18.110679
28243,-0.8023,-0.1996,0.5998,-2.450,-1.785,0.595,408,420,387,394,397,2025-05-28T17:30:18.110679
28244,-0.8091,-0.2001,0.6007,-2.695,-2.310,0.665,433,432,378,390,378,2025-05-28T17:30:18.110679
28245,-0.8115,-0.2059,0.5973,-2.730,-3.290,0.525,415,406,346,387,384,2025-05-28T17:30:18.312963
28246,-0.8120,-0.2098,0.5958,-2.345,-4.760,0.560,412,343,369,384,361,2025-05-28T17:30:18.312963
28247,-0.8091,-0.2094,0.5993,-1.855,-5.565,0.560,427,415,379,386,393,2025-05-28T17:30:18.312963
28248,-0.7993,-0.2074,0.6017,-1.855,-5.215,0.525,411,399,377,402,394,2025-05-28T17:30:18.312963
28249,-0.7950,-0.2098,0.5988,-1.995,-4.235,0.525,421,422,374,400,413,2025-05-28T17:30:18.312963
28250,-0.7940,-0.2098,0.5968,-2.065,-3.185,0.805,439,421,379,417,416,2025-05-28T17:30:18.312963
28251,-0.7959,-0.2103,0.5988,-1.820,-2.380,0.840,386,425,380,384,417,2025-05-28T17:30:18.312963
28252,-0.8028,-0.2133,0.5949,-1.645,-2.240,1.015,411,413,382,343,393,2025-05-28T17:30:18.312963
28253,-0.8081,-0.2142,0.5939,-1.155,-2.660,0.980,403,416,390,371,387,2025-05-28T17:30:18.312963
28254,-0.8076,-0.2137,0.5963,-0.875,-3.290,0.875,415,418,359,389,400,2025-05-28T17:30:18.312963
28255,-0.8067,-0.2098,0.5958,-0.980,-3.500,0.630,368,408,302,390,356,2025-05-28T17:30:18.312963
28256,-0.8037,-0.2118,0.5934,-1.155,-3.395,0.560,391,421,345,389,366,2025-05-28T17:30:18.312963
28257,-0.8013,-0.2089,0.5949,-1.540,-3.220,0.490,405,422,372,386,386,2025-05-28T17:30:18.312963
28258,-0.8008,-0.2098,0.5924,-1.995,-2.730,0.560,420,362,349,342,348,2025-05-28T17:30:18.312963
28259,-0.8037,-0.2108,0.5919,-2.240,-2.730,0.455,429,411,355,395,368,2025-05-28T17:30:18.312963
28260,-0.8047,-0.2113,0.5919,-2.520,-2.905,0.385,410,423,360,394,384,2025-05-28T17:30:18.312963
28261,-0.8028,-0.2089,0.5934,-2.975,-3.395,0.525,410,381,365,386,406,2025-05-28T17:30:18.691563
28262,-0.7969,-0.2133,0.5880,-2.975,-3.675,0.315,410,422,351,400,410,2025-05-28T17:30:18.692085
28263,-0.7886,-0.2074,0.5924,-3.185,-3.430,-0.035,409,409,359,401,412,2025-05-28T17:30:18.692085
28264,-0.7745,-0.2030,0.5871,-3.570,-2.800,-0.665,427,412,376,354,358,2025-05-28T17:30:18.692085
28265,-0.7701,-0.2064,0.5851,-3.500,-1.890,-1.505,438,434,377,396,375,2025-05-28T17:30:18.692085
28266,-0.7749,-0.2133,0.5851,-3.255,-1.260,-2.135,431,407,374,410,383,2025-05-28T17:30:18.692085
28267,-0.7862,-0.2172,0.5924,-2.940,-0.700,-2.590,424,400,376,359,377,2025-05-28T17:30:18.692085
28268,-0.7964,-0.2181,0.6046,-3.325,-0.665,-3.360,407,424,352,359,401,2025-05-28T17:30:18.692085
28269,-0.8008,-0.2264,0.6017,-2.415,-0.245,-2.730,407,403,367,387,391,2025-05-28T17:30:18.693072
28270,-0.8125,-0.2396,0.5954,-2.170,-0.490,-2.345,428,402,366,397,396,2025-05-28T17:30:18.693072
28271,-0.8228,-0.2372,0.6046,-2.030,-0.630,-2.135,405,399,375,397,389,2025-05-28T17:30:18.693072
28272,-0.8247,-0.2308,0.5958,-1.960,-0.665,-1.470,425,414,389,388,385,2025-05-28T17:30:18.693072
28273,-0.8291,-0.2342,0.5939,-1.330,-0.665,-0.630,431,422,378,360,389,2025-05-28T17:30:18.693072
28274,-0.8306,-0.2328,0.6007,-1.190,-0.560,0.175,398,434,352,341,403,2025-05-28T17:30:18.693072
28275,-0.8286,-0.2303,0.5983,-1.435,-0.490,0.840,412,416,362,377,389,2025-05-28T17:30:18.693072
28276,-0.8286,-0.2274,0.5998,-1.435,-0.770,1.470,419,416,339,377,384,2025-05-28T17:30:18.693072
28277,-0.8281,-0.2269,0.5978,-1.260,-1.190,1.890,429,419,349,390,396,2025-05-28T17:30:18.693072
28278,-0.8247,-0.2274,0.5998,-0.980,-1.505,2.520,407,427,374,391,346,2025-05-28T17:30:18.693072
28279,-0.8218,-0.2240,0.5988,-0.910,-2.275,2.730,425,423,385,397,389,2025-05-28T17:30:18.693072
28280,-0.8179,-0.2274,0.5993,-0.385,-2.695,2.660,427,413,372,401,387,2025-05-28T17:30:18.694068
28281,-0.8154,-0.2240,0.6017,0.070,-3.255,2.555,415,396,388,412,351,2025-05-28T17:30:18.694068
28282,-0.8081,-0.2225,0.6022,0.280,-3.605,2.520,424,377,384,399,390,2025-05-28T17:30:18.761667
28283,-0.8023,-0.2245,0.5988,0.735,-3.465,2.380,434,398,346,395,388,2025-05-28T17:30:18.761667
28284,-0.7993,-0.2250,0.6002,1.085,-3.150,2.100,433,417,357,404,366,2025-05-28T17:30:18.761667
28285,-0.7964,-0.2220,0.5978,1.295,-2.660,1.890,432,426,377,408,384,2025-05-28T17:30:18.761667
28286,-0.7998,-0.2274,0.6017,1.505,-2.310,1.750,389,422,387,410,406,2025-05-28T17:30:18.761667
28287,-0.8028,-0.2255,0.5978,1.855,-2.485,1.470,414,428,380,403,397,2025-05-28T17:30:18.761667
28288,-0.8023,-0.2294,0.5998,2.275,-2.800,1.435,433,419,383,387,396,2025-05-28T17:30:18.761667
28289,-0.8062,-0.2308,0.5973,2.730,-3.360,1.295,435,423,390,394,410,2025-05-28T17:30:18.761667
28290,-0.8037,-0.2308,0.5988,3.150,-3.640,1.190,440,380,349,388,354,2025-05-28T17:30:18.761667
28291,-0.8037,-0.2284,0.5993,3.255,-3.675,1.330,438,412,358,405,385,2025-05-28T17:30:18.761667
28292,-0.8023,-0.2328,0.5954,3.675,-3.360,1.260,428,399,371,391,385,2025-05-28T17:30:18.761667
28293,-0.8008,-0.2328,0.5934,4.025,-2.975,1.190,433,427,367,409,400,2025-05-28T17:30:18.761667
28294,-0.7998,-0.2333,0.5915,4.375,-2.765,1.470,384,396,338,407,416,2025-05-28T17:30:18.761667
28295,-0.8032,-0.2333,0.5910,4.725,-2.555,1.365,426,422,364,415,421,2025-05-28T17:30:18.761667
28296,-0.7974,-0.2308,0.5905,4.935,-2.380,0.875,405,399,361,414,411,2025-05-28T17:30:18.761667
28297,-0.7950,-0.2245,0.5822,4.830,-2.100,0.175,416,401,356,354,410,2025-05-28T17:30:18.761667
28298,-0.7920,-0.2191,0.5797,4.620,-1.785,-0.735,411,396,340,406,420,2025-05-28T17:30:18.761667
28299,-0.7906,-0.2103,0.5783,4.305,-1.470,-1.890,365,331,366,410,378,2025-05-28T17:30:19.009911
28300,-0.7984,-0.2069,0.5797,3.465,-1.260,-2.730,400,388,337,393,404,2025-05-28T17:30:19.009911
28301,-0.8008,-0.2045,0.5861,2.380,-1.750,-3.325,424,379,354,416,368,2025-05-28T17:30:19.009911
28302,-0.8037,-0.2069,0.5812,1.155,-2.555,-3.920,415,402,338,399,390,2025-05-28T17:30:19.009911
28303,-0.8037,-0.2059,0.5827,0.280,-3.500,-4.655,436,401,350,403,393,2025-05-28T17:30:19.009911
28304,-0.8028,-0.2025,0.5827,-0.385,-4.270,-5.040,422,429,376,411,389,2025-05-28T17:30:19.009911
28305,-0.7993,-0.1972,0.5802,-1.470,-4.340,-5.425,416,426,376,397,404,2025-05-28T17:30:19.009911
28306,-0.7964,-0.1918,0.5807,-2.520,-3.920,-5.670,383,420,372,416,392,2025-05-28T17:30:19.009911
28307,-0.8037,-0.1903,0.5866,-3.745,-3.290,-5.775,423,397,364,416,409,2025-05-28T17:30:19.009911
28308,-0.8037,-0.1859,0.5861,-4.900,-3.220,-5.530,402,359,366,422,401,2025-05-28T17:30:19.009911
28309,-0.8072,-0.1845,0.5866,-6.090,-3.360,-4.830,409,415,367,428,410,2025-05-28T17:30:19.009911
28310,-0.8096,-0.1796,0.5939,-7.420,-3.360,-4.060,421,413,379,416,395,2025-05-28T17:30:19.009911
28311,-0.8111,-0.1718,0.5954,-9.275,-3.395,-3.535,352,342,378,417,411,2025-05-28T17:30:19.010911
28312,-0.8101,-0.1713,0.5963,-10.780,-3.535,-2.520,403,392,375,409,412,2025-05-28T17:30:19.010911
28313,-0.8101,-0.1649,0.5998,-12.215,-3.535,-1.470,363,389,333,417,402,2025-05-28T17:30:19.010911
28314,-0.8106,-0.1562,0.6085,-14.490,-3.395,-0.210,406,398,325,391,403,2025-05-28T17:30:19.125716
28315,-0.8062,-0.1547,0.6105,-17.150,-2.870,1.155,348,344,358,404,400,2025-05-28T17:30:19.125716
28316,-0.8140,-0.1557,0.6139,-19.670,-3.150,2.205,371,393,332,413,396,2025-05-28T17:30:19.125716
28317,-0.8150,-0.1532,0.6232,-22.330,-3.675,3.535,366,397,353,417,345,2025-05-28T17:30:19.125716
28318,-0.8169,-0.1523,0.6251,-25.025,-4.165,5.040,410,435,367,404,367,2025-05-28T17:30:19.125716
28319,-0.8179,-0.1479,0.6344,-27.370,-5.145,6.440,427,429,367,399,395,2025-05-28T17:30:19.125716
28320,-0.8208,-0.1508,0.6359,-29.995,-6.160,8.120,408,426,373,396,374,2025-05-28T17:30:19.125716
28321,-0.8111,-0.1498,0.6378,-32.060,-7.560,10.080,353,416,380,350,380,2025-05-28T17:30:19.125716
28322,-0.8076,-0.1479,0.6461,-34.370,-8.645,12.635,360,429,377,372,406,2025-05-28T17:30:19.125716
28323,-0.8003,-0.1479,0.6466,-36.890,-9.030,15.330,419,425,385,378,414,2025-05-28T17:30:19.125716
28324,-0.7984,-0.1493,0.6393,-38.465,-9.240,18.095,383,410,391,401,410,2025-05-28T17:30:19.125716
28325,-0.7910,-0.1562,0.6383,-39.620,-9.695,21.105,435,410,391,405,399,2025-05-28T17:30:19.125716
28326,-0.7891,-0.1615,0.6368,-40.775,-10.325,23.870,403,404,377,347,397,2025-05-28T17:30:19.125716
28327,-0.7891,-0.1664,0.6383,-42.035,-11.200,26.110,419,391,370,377,403,2025-05-28T17:30:19.125716
28328,-0.7852,-0.1762,0.6271,-42.630,-12.180,28.700,424,432,370,387,391,2025-05-28T17:30:19.136754
28329,-0.7798,-0.1850,0.6212,-42.875,-12.950,31.080,417,345,369,381,384,2025-05-28T17:30:19.136754
28330,-0.7730,-0.1967,0.6115,-43.330,-12.915,33.180,416,325,378,407,394,2025-05-28T17:30:19.374675
28331,-0.7647,-0.2089,0.6051,-43.645,-12.425,35.280,373,408,360,418,399,2025-05-28T17:30:19.374675
28332,-0.7647,-0.2191,0.5993,-44.205,-11.515,36.995,418,406,363,415,398,2025-05-28T17:30:19.374675
28333,-0.7662,-0.2328,0.5905,-44.555,-10.640,38.290,436,374,370,358,398,2025-05-28T17:30:19.374675
28334,-0.7647,-0.2411,0.5827,-44.730,-10.220,40.075,419,413,378,386,401,2025-05-28T17:30:19.374675
28335,-0.7623,-0.2513,0.5783,-44.940,-9.835,41.825,431,415,380,403,403,2025-05-28T17:30:19.374675
28336,-0.7647,-0.2635,0.5754,-45.430,-8.820,43.295,416,358,351,403,388,2025-05-28T17:30:19.374675
28337,-0.7637,-0.2708,0.5763,-46.130,-7.490,44.520,382,408,365,399,388,2025-05-28T17:30:19.374675
28338,-0.7642,-0.2816,0.5700,-47.285,-6.755,45.885,396,435,368,374,387,2025-05-28T17:30:19.374675
28339,-0.7632,-0.2889,0.5656,-47.985,-5.950,47.250,424,356,375,381,386,2025-05-28T17:30:19.374675
28340,-0.7642,-0.2957,0.5636,-48.510,-5.425,48.090,427,409,382,388,360,2025-05-28T17:30:19.374675
28341,-0.7652,-0.2977,0.5675,-49.105,-4.480,49.175,432,348,378,408,377,2025-05-28T17:30:19.374675
28342,-0.7676,-0.3016,0.5700,-50.225,-3.255,49.770,442,397,374,352,396,2025-05-28T17:30:19.374675
28343,-0.7749,-0.3099,0.5714,-50.890,-2.275,50.190,414,398,387,378,411,2025-05-28T17:30:19.374675
28344,-0.7823,-0.3138,0.5744,-51.660,-1.365,50.365,422,427,388,344,411,2025-05-28T17:30:19.374675
28345,-0.7862,-0.3226,0.5714,-51.835,-1.050,50.820,406,433,374,381,412,2025-05-28T17:30:19.374675
28346,-0.7915,-0.3260,0.5807,-51.590,-0.840,51.065,388,412,350,383,409,2025-05-28T17:30:19.377223
28347,-0.7950,-0.3201,0.5876,-51.870,-0.175,51.625,428,409,359,403,401,2025-05-28T17:30:19.377223
28348,-0.7950,-0.3182,0.5890,-52.010,0.595,52.045,398,408,366,417,395,2025-05-28T17:30:19.377223
28349,-0.7945,-0.3148,0.5871,-51.555,1.295,52.360,421,343,378,397,401,2025-05-28T17:30:19.572302
28350,-0.7950,-0.3084,0.5973,-50.925,1.820,52.710,431,400,389,412,391,2025-05-28T17:30:19.572302
28351,-0.7969,-0.2987,0.6056,-50.435,2.170,52.815,425,400,312,356,367,2025-05-28T17:30:19.572302
28352,-0.7993,-0.2904,0.6061,-49.735,2.240,52.325,413,405,345,399,403,2025-05-28T17:30:19.572302
28353,-0.7984,-0.2845,0.6037,-48.370,1.645,51.800,429,391,370,403,397,2025-05-28T17:30:19.573304
28354,-0.8008,-0.2762,0.6080,-46.760,1.015,50.995,434,403,382,351,394,2025-05-28T17:30:19.573304
28355,-0.8008,-0.2689,0.6105,-45.465,0.560,49.805,403,393,379,379,384,2025-05-28T17:30:19.573304
28356,-0.8013,-0.2621,0.6076,-44.380,0.420,49.035,360,293,374,345,379,2025-05-28T17:30:19.573304
28357,-0.8003,-0.2474,0.6056,-43.190,0.595,48.335,394,398,384,328,359,2025-05-28T17:30:19.573304
28358,-0.7964,-0.2396,0.6041,-42.875,1.050,47.845,401,394,379,373,392,2025-05-28T17:30:19.573304
28359,-0.8037,-0.2323,0.6037,-42.805,1.225,47.040,423,402,393,395,387,2025-05-28T17:30:19.573304
28360,-0.8067,-0.2216,0.5993,-43.050,0.490,45.745,420,403,384,388,353,2025-05-28T17:30:19.573304
28361,-0.8145,-0.2123,0.5905,-42.945,-1.190,43.995,408,421,384,357,329,2025-05-28T17:30:19.573304
28362,-0.8262,-0.2069,0.5900,-42.735,-2.835,41.895,353,424,391,375,374,2025-05-28T17:30:19.573304
28363,-0.8325,-0.2025,0.5939,-43.050,-5.075,40.110,362,420,347,378,388,2025-05-28T17:30:19.573304
28364,-0.8408,-0.2098,0.5817,-43.260,-7.315,38.325,369,414,363,406,390,2025-05-28T17:30:19.573304
28365,-0.8481,-0.2172,0.5690,-42.280,-9.590,37.205,411,418,339,395,386,2025-05-28T17:30:19.573304
28366,-0.8428,-0.2220,0.5636,-41.370,-10.815,36.750,426,429,363,386,399,2025-05-28T17:30:19.573304
28367,-0.8267,-0.2142,0.5505,-41.020,-10.465,36.610,418,432,382,403,389,2025-05-28T17:30:19.765788
28368,-0.8130,-0.1986,0.5334,-40.880,-9.065,36.750,423,427,366,350,411,2025-05-28T17:30:19.765788
28369,-0.7989,-0.1810,0.5119,-41.090,-7.420,36.680,351,397,361,381,413,2025-05-28T17:30:19.765788
28370,-0.7974,-0.1679,0.5002,-41.265,-5.705,36.085,424,403,369,391,400,2025-05-28T17:30:19.765788
28371,-0.8023,-0.1576,0.4919,-42.035,-5.180,34.615,430,300,377,389,406,2025-05-28T17:30:19.765788
28372,-0.8135,-0.1518,0.4846,-43.015,-6.160,32.760,410,391,365,407,403,2025-05-28T17:30:19.765788
28373,-0.8311,-0.1586,0.4841,-43.680,-7.980,30.345,411,340,345,407,386,2025-05-28T17:30:19.765788
28374,-0.8613,-0.1693,0.4704,-43.890,-9.870,27.440,417,395,376,344,382,2025-05-28T17:30:19.765788
28375,-0.8745,-0.1845,0.4695,-43.645,-12.880,25.270,433,406,373,397,403,2025-05-28T17:30:19.765788
28376,-0.8843,-0.1947,0.4665,-43.050,-15.470,23.065,421,398,375,407,406,2025-05-28T17:30:19.765788
28377,-0.8843,-0.2128,0.4563,-41.860,-17.080,21.420,371,393,365,408,360,2025-05-28T17:30:19.765788
28378,-0.8789,-0.2201,0.4441,-40.145,-16.415,20.370,409,408,365,407,390,2025-05-28T17:30:19.878509
28379,-0.8755,-0.2230,0.4392,-38.815,-13.545,19.460,419,393,379,419,382,2025-05-28T17:30:19.878509
28380,-0.8774,-0.2137,0.4451,-37.870,-10.815,18.585,359,385,344,392,389,2025-05-28T17:30:19.878509
28381,-0.8755,-0.2040,0.4319,-37.275,-6.965,17.850,421,412,354,399,392,2025-05-28T17:30:19.878509
28382,-0.8882,-0.2001,0.4207,-35.980,-2.975,15.645,421,400,371,407,398,2025-05-28T17:30:19.952202
28383,-0.9126,-0.1869,0.4216,-34.125,0.945,11.935,414,374,371,397,398,2025-05-28T17:30:19.952202
28384,-0.9487,-0.1786,0.4324,-32.865,4.305,6.650,419,395,365,395,399,2025-05-28T17:30:19.952202
28385,-0.9902,-0.1801,0.4319,-31.710,6.510,0.945,405,417,379,412,356,2025-05-28T17:30:19.952202
28386,-1.0180,-0.1942,0.4236,-29.575,7.945,-3.710,413,408,376,408,373,2025-05-28T17:30:19.952202
28387,-1.0321,-0.1952,0.4236,-26.180,8.855,-6.930,436,405,386,364,361,2025-05-28T17:30:19.952202
28388,-1.0350,-0.1923,0.4202,-22.645,10.885,-8.575,422,403,389,394,400,2025-05-28T17:30:19.952202
28389,-1.0316,-0.1845,0.4216,-19.565,14.175,-9.485,370,411,372,395,388,2025-05-28T17:30:19.952202
28390,-1.0175,-0.1669,0.4128,-16.800,18.935,-9.275,406,402,377,398,391,2025-05-28T17:30:19.952202
28391,-1.0004,-0.1488,0.4089,-14.035,24.115,-7.770,403,397,372,407,385,2025-05-28T17:30:19.952202
28392,-0.9760,-0.1240,0.4085,-12.145,28.700,-5.775,423,403,380,356,391,2025-05-28T17:30:19.952202
28393,-0.9506,-0.0991,0.4021,-10.325,31.675,-3.780,409,411,373,391,405,2025-05-28T17:30:19.952202
28394,-0.9248,-0.0795,0.3997,-8.295,35.035,-2.415,405,394,383,401,397,2025-05-28T17:30:19.952202
28395,-0.9057,-0.0605,0.4099,-6.755,37.485,-0.770,435,403,384,310,386,2025-05-28T17:30:19.952202
28396,-0.8930,-0.0405,0.4133,-5.845,38.255,0.980,417,420,355,367,408,2025-05-28T17:30:19.952202
28397,-0.8857,-0.0351,0.4119,-4.550,36.365,2.590,389,396,366,350,312,2025-05-28T17:30:19.952202
28398,-0.8940,-0.0273,0.4182,-2.275,33.250,3.745,362,430,382,395,363,2025-05-28T17:30:20.191146
28399,-0.9038,-0.0239,0.4255,-0.210,28.280,4.655,394,434,393,388,374,2025-05-28T17:30:20.191146
28400,-0.9091,-0.0239,0.4299,1.785,21.805,5.110,419,409,349,405,376,2025-05-28T17:30:20.191146
28401,-0.9223,-0.0293,0.4304,4.060,15.260,5.705,402,410,361,405,397,2025-05-28T17:30:20.191146
28402,-0.9301,-0.0376,0.4241,5.810,9.450,5.915,403,411,372,363,395,2025-05-28T17:30:20.191146
28403,-0.9360,-0.0532,0.4148,8.505,5.950,6.195,350,395,365,388,416,2025-05-28T17:30:20.191146
28404,-0.9384,-0.0649,0.4070,10.815,3.570,6.230,385,412,330,416,321,2025-05-28T17:30:20.191146
28405,-0.9511,-0.0737,0.4060,12.390,3.710,5.915,424,424,326,411,369,2025-05-28T17:30:20.191146
28406,-0.9697,-0.0859,0.4041,13.230,5.390,5.005,407,409,354,397,374,2025-05-28T17:30:20.191146
28407,-0.9902,-0.1035,0.3899,14.000,7.000,3.990,426,432,295,383,372,2025-05-28T17:30:20.192147
28408,-1.0121,-0.1142,0.3806,15.365,7.490,3.220,426,369,336,353,388,2025-05-28T17:30:20.192147
28409,-1.0272,-0.1161,0.3743,16.310,7.840,2.695,429,390,366,337,386,2025-05-28T17:30:20.192147
28410,-1.0248,-0.1108,0.3650,16.800,8.540,2.940,443,404,365,384,405,2025-05-28T17:30:20.192147
28411,-1.0160,-0.0971,0.3636,16.520,9.555,3.395,349,384,350,405,407,2025-05-28T17:30:20.192147
28412,-0.9941,-0.0703,0.3592,15.645,11.200,3.360,416,334,335,392,391,2025-05-28T17:30:20.192147
28413,-0.9780,-0.0454,0.3587,13.615,13.125,3.185,433,392,354,348,392,2025-05-28T17:30:20.192147
28414,-0.9462,-0.0224,0.3533,11.025,16.030,2.590,405,338,373,373,388,2025-05-28T17:30:20.193140
28415,-0.9267,-0.0068,0.3494,8.505,18.480,2.100,402,353,375,382,349,2025-05-28T17:30:20.193140
28416,-0.9213,0.0093,0.3504,5.845,20.090,1.470,390,418,371,382,335,2025-05-28T17:30:20.193140
28417,-0.9199,0.0220,0.3592,3.745,20.335,0.665,408,412,343,377,377,2025-05-28T17:30:20.193140
28418,-0.9209,0.0288,0.3616,1.645,19.355,-0.420,416,420,371,394,387,2025-05-28T17:30:20.366611
28419,-0.9272,0.0366,0.3655,-0.035,16.660,-1.050,415,406,389,389,390,2025-05-28T17:30:20.366611
28420,-0.9277,0.0376,0.3733,-1.435,12.880,-2.275,441,428,388,389,385,2025-05-28T17:30:20.366611
28421,-0.9350,0.0376,0.3684,-2.240,8.260,-3.640,414,426,381,389,380,2025-05-28T17:30:20.367128
28422,-0.9423,0.0371,0.3762,-2.450,3.430,-4.830,367,405,372,413,377,2025-05-28T17:30:20.367128
28423,-0.9423,0.0376,0.3787,-3.360,0.280,-5.740,385,423,385,414,353,2025-05-28T17:30:20.367267
28424,-0.9414,0.0395,0.3777,-4.970,-1.995,-6.335,400,417,382,350,338,2025-05-28T17:30:20.367267
28425,-0.9399,0.0346,0.3694,-6.510,-2.800,-6.930,428,351,377,382,380,2025-05-28T17:30:20.367267
28426,-0.9496,0.0224,0.3704,-7.770,-2.975,-6.825,422,395,387,390,390,2025-05-28T17:30:20.367267
28427,-0.9687,0.0093,0.3723,-8.820,-3.430,-6.195,414,418,384,393,399,2025-05-28T17:30:20.367267
28428,-0.9789,-0.0044,0.3714,-9.765,-4.270,-5.180,396,370,376,416,391,2025-05-28T17:30:20.367267
28429,-0.9975,-0.0132,0.3762,-10.710,-5.390,-4.550,423,396,381,397,395,2025-05-28T17:30:20.367892
28430,-1.0131,-0.0234,0.3738,-11.445,-6.965,-3.465,408,417,384,418,409,2025-05-28T17:30:20.367892
28431,-1.0258,-0.0400,0.3670,-11.550,-9.555,-2.205,414,424,345,393,397,2025-05-28T17:30:20.367892
28432,-1.0346,-0.0537,0.3680,-11.025,-11.935,-0.875,356,429,369,346,307,2025-05-28T17:30:20.367892
28433,-1.0370,-0.0659,0.3665,-10.605,-14.420,0.665,340,369,359,385,362,2025-05-28T17:30:20.574996
28434,-1.0404,-0.0742,0.3665,-10.185,-16.695,2.660,403,392,329,406,383,2025-05-28T17:30:20.575375
28435,-1.0341,-0.0878,0.3572,-9.415,-18.410,4.970,400,405,347,400,398,2025-05-28T17:30:20.575375
28436,-1.0292,-0.0961,0.3558,-8.750,-18.830,7.245,386,395,366,414,402,2025-05-28T17:30:20.575375
28437,-1.0214,-0.1044,0.3548,-7.910,-18.550,9.450,426,376,381,413,353,2025-05-28T17:30:20.575375
28438,-1.0160,-0.1108,0.3494,-6.720,-18.060,11.270,416,427,370,416,379,2025-05-28T17:30:20.575375
28439,-1.0116,-0.1122,0.3514,-5.705,-17.885,12.285,401,403,377,403,390,2025-05-28T17:30:20.575375
28440,-1.0141,-0.1215,0.3475,-4.515,-18.270,13.125,429,430,391,398,411,2025-05-28T17:30:20.575375
28441,-1.0092,-0.1322,0.3431,-2.800,-19.530,13.685,405,403,386,354,401,2025-05-28T17:30:20.575375
28442,-0.9994,-0.1362,0.3401,-1.085,-20.965,14.560,409,339,383,398,419,2025-05-28T17:30:20.575375
28443,-0.9906,-0.1430,0.3421,0.560,-21.385,14.945,435,332,384,408,414,2025-05-28T17:30:20.575375
28444,-0.9809,-0.1459,0.3387,2.135,-21.210,14.945,424,340,393,397,407,2025-05-28T17:30:20.575375
28445,-0.9701,-0.1488,0.3328,4.025,-20.755,14.525,429,400,394,402,395,2025-05-28T17:30:20.575375
28446,-0.9643,-0.1527,0.3392,5.950,-19.915,13.930,410,416,394,308,389,2025-05-28T17:30:20.575375
28447,-0.9584,-0.1601,0.3440,7.735,-18.760,13.160,410,424,377,379,390,2025-05-28T17:30:20.575375
28448,-0.9521,-0.1596,0.3479,9.275,-17.780,12.180,407,389,385,383,409,2025-05-28T17:30:20.576371
28449,-0.9521,-0.1581,0.3562,11.445,-17.150,10.780,426,412,390,383,406,2025-05-28T17:30:20.576371
28450,-0.9526,-0.1547,0.3611,13.650,-16.275,0.105,431,406,387,380,352,2025-05-28T17:30:20.911238
28451,-0.9526,-0.1527,0.3670,16.030,-15.645,6.475,417,414,347,375,391,2025-05-28T17:30:20.911238
28452,-0.9599,-0.1552,0.3767,18.725,-15.680,4.480,420,358,327,399,403,2025-05-28T17:30:20.911238
28453,-0.9682,-0.1503,0.3924,21.210,-16.940,2.905,419,407,346,401,399,2025-05-28T17:30:20.911238
28454,-0.9682,-0.1449,0.4006,22.715,-18.060,1.750,417,425,360,421,391,2025-05-28T17:30:20.911238
28455,-0.9623,-0.1430,0.4060,24.465,-18.480,0.000,431,414,368,381,409,2025-05-28T17:30:20.911238
28456,-0.9482,-0.1318,0.4104,25.935,-18.130,-1.120,409,400,336,413,409,2025-05-28T17:30:20.911238
28457,-0.9223,-0.1157,0.4172,26.285,-16.835,-1.960,353,400,356,406,355,2025-05-28T17:30:20.911238
28458,-0.8969,-0.1005,0.4177,25.655,-14.070,-2.380,407,415,369,405,335,2025-05-28T17:30:20.911238
28459,-0.8833,-0.0849,0.4241,24.815,-10.675,-2.695,401,421,364,362,341,2025-05-28T17:30:20.911238
28460,-0.8701,-0.0708,0.4314,23.345,-8.400,-2.625,410,304,341,390,384,2025-05-28T17:30:20.912237
28461,-0.8779,-0.0683,0.4377,21.875,-7.595,-2.310,377,375,353,409,400,2025-05-28T17:30:20.912237
28462,-0.8852,-0.0703,0.4397,20.615,-9.030,-2.100,406,378,368,409,399,2025-05-28T17:30:20.912237
28463,-0.8877,-0.0664,0.4436,19.845,-12.075,-1.610,404,419,383,386,387,2025-05-28T17:30:20.912237
28464,-0.8764,-0.0595,0.4407,19.250,-15.540,-1.225,418,381,381,405,389,2025-05-28T17:30:20.912237
28465,-0.8574,-0.0459,0.4402,18.550,-26.810,-0.945,408,359,371,345,386,2025-05-28T17:30:20.912237
28466,-0.8394,-0.0342,0.4465,17.115,-19.670,-0.875,382,341,377,388,349,2025-05-28T17:30:20.912237
28467,-0.8311,-0.0307,0.4543,14.840,-20.475,-1.015,424,384,307,379,376,2025-05-28T17:30:21.018947
28468,-0.8311,-0.0386,0.4534,12.425,-20.790,-1.260,373,387,352,366,381,2025-05-28T17:30:21.018947
28469,-0.8408,-0.0498,0.4524,10.990,-21.140,-1.190,404,430,331,379,387,2025-05-28T17:30:21.018947
28470,-0.8516,-0.0527,0.4621,9.975,-21.140,-1.470,419,423,362,412,356,2025-05-28T17:30:21.018947
28471,-0.8686,-0.0678,0.4690,8.680,-21.350,-1.645,405,404,381,406,386,2025-05-28T17:30:21.018947
28472,-0.8867,-0.0922,0.4753,8.225,-22.575,-1.750,427,423,382,402,403,2025-05-28T17:30:21.018947
28473,-0.9048,-0.1103,0.4851,8.400,-24.920,-1.715,431,423,383,409,411,2025-05-28T17:30:21.018947
28474,-0.9082,-0.1230,0.4958,8.750,-27.020,-1.260,429,420,376,402,410,2025-05-28T17:30:21.018947
28475,-0.8960,-0.1264,0.5017,8.890,-28.560,-0.840,394,371,382,400,411,2025-05-28T17:30:21.018947
28476,-0.8955,-0.1240,0.4973,8.785,-29.295,-1.120,403,412,374,416,417,2025-05-28T17:30:21.018947
28477,-0.8755,-0.1157,0.5109,7.805,-29.785,-1.330,355,377,371,386,415,2025-05-28T17:30:21.018947
28478,-0.8701,-0.1166,0.5153,6.475,-29.820,-1.785,414,363,367,393,402,2025-05-28T17:30:21.018947
28479,-0.8711,-0.1137,0.5280,5.425,-30.205,-1.750,432,341,366,366,409,2025-05-28T17:30:21.018947
28480,-0.8833,-0.1288,0.5324,4.830,-30.835,-2.135,441,415,373,380,403,2025-05-28T17:30:21.018947
28481,-0.9038,-0.1532,0.5456,4.935,-31.710,-3.045,407,425,363,335,404,2025-05-28T17:30:21.018947
28482,-0.9140,-0.1742,0.5480,5.845,-33.145,-3.325,371,423,360,285,389,2025-05-28T17:30:21.018947
28483,-0.9101,-0.1830,0.5441,7.280,-32.900,-2.730,399,404,376,373,382,2025-05-28T17:30:21.018947
28484,-0.8926,-0.1806,0.5422,8.820,-30.275,-2.065,380,417,374,400,308,2025-05-28T17:30:21.018947
28485,-0.8789,-0.1801,0.5495,10.045,-25.515,-1.925,423,412,341,403,315,2025-05-28T17:30:21.019943
28486,-0.8642,-0.1791,0.5553,10.500,-19.915,-2.310,401,396,356,397,361,2025-05-28T17:30:21.019943
28487,-0.8608,-0.1801,0.5578,11.305,-15.470,-2.590,413,423,357,403,371,2025-05-28T17:30:21.204308
28488,-0.8555,-0.1825,0.5602,12.845,-10.500,-2.905,400,408,361,399,404,2025-05-28T17:30:21.204308
28489,-0.8506,-0.1723,0.5671,14.770,-6.895,-3.115,436,397,361,405,408,2025-05-28T17:30:21.204308
28490,-0.8374,-0.1630,0.5724,16.590,-4.795,-3.640,393,386,330,417,404,2025-05-28T17:30:21.204308
28491,-0.8257,-0.1498,0.5812,18.515,-3.570,-4.375,416,401,369,416,410,2025-05-28T17:30:21.204308
28492,-0.8130,-0.1425,0.5817,19.985,-3.080,-5.180,420,372,364,407,398,2025-05-28T17:30:21.205073
28493,-0.7891,-0.1318,0.5876,21.735,-3.535,-6.300,438,386,371,351,403,2025-05-28T17:30:21.205154
28494,-0.7749,-0.1225,0.5890,23.030,-4.480,-7.140,401,408,388,378,364,2025-05-28T17:30:21.205273
28495,-0.7525,-0.1166,0.5905,24.115,-5.005,-8.575,406,382,379,395,392,2025-05-28T17:30:21.205273
28496,-0.7369,-0.1103,0.5905,24.885,-5.390,-10.430,417,418,336,358,407,2025-05-28T17:30:21.205273
28497,-0.7242,-0.1093,0.5944,25.515,-5.635,-12.285,429,415,349,377,390,2025-05-28T17:30:21.205273
28498,-0.7213,-0.1103,0.6017,25.935,-5.565,-14.105,410,352,328,343,407,2025-05-28T17:30:21.205273
28499,-0.7232,-0.1166,0.6046,26.390,-5.180,-16.065,434,334,367,373,415,2025-05-28T17:30:21.205665
28500,-0.7252,-0.1186,0.6173,26.495,-4.375,-17.955,355,405,367,396,425,2025-05-28T17:30:21.205665
28501,-0.7349,-0.1230,0.6217,26.355,-3.780,-20.265,387,407,370,415,409,2025-05-28T17:30:21.447497
28502,-0.7403,-0.1235,0.6217,26.250,-2.345,-22.680,408,435,370,394,410,2025-05-28T17:30:21.447497
28503,-0.7593,-0.1254,0.6256,26.250,-1.295,-24.745,399,431,381,413,392,2025-05-28T17:30:21.447497
28504,-0.7764,-0.1259,0.6285,26.495,-0.665,-26.320,411,424,391,385,397,2025-05-28T17:30:21.447497
28505,-0.7910,-0.1240,0.6285,26.495,-0.350,-27.650,423,344,341,402,397,2025-05-28T17:30:21.447497
28506,-0.8028,-0.1244,0.6271,26.495,-0.140,-28.595,426,338,355,401,409,2025-05-28T17:30:21.447497
28507,-0.8213,-0.1152,0.6349,26.320,0.070,-29.365,421,401,375,407,348,2025-05-28T17:30:21.447497
28508,-0.8369,-0.1093,0.6329,25.375,0.175,-29.925,431,421,365,408,346,2025-05-28T17:30:21.447497
28509,-0.8511,-0.1059,0.6276,24.850,-0.315,-30.450,368,429,368,375,382,2025-05-28T17:30:21.447497
28510,-0.8623,-0.1030,0.6305,24.325,-1.190,-30.765,402,430,367,404,352,2025-05-28T17:30:21.447497
28511,-0.8638,-0.1025,0.6271,23.730,-2.450,-30.940,406,351,376,399,388,2025-05-28T17:30:21.447497
28512,-0.8642,-0.1054,0.6212,23.240,-4.095,-31.045,311,385,368,406,382,2025-05-28T17:30:21.447497
28513,-0.8584,-0.1049,0.6188,22.925,-5.495,-30.800,411,403,368,405,397,2025-05-28T17:30:21.447497
28514,-0.8423,-0.0996,0.6124,22.400,-5.775,-30.135,401,422,375,409,384,2025-05-28T17:30:21.447497
28515,-0.8306,-0.0947,0.6041,21.560,-5.075,-29.470,399,396,382,397,395,2025-05-28T17:30:21.447497
28516,-0.8286,-0.0898,0.6002,20.580,-4.340,-29.085,430,359,385,408,367,2025-05-28T17:30:21.447497
28517,-0.8262,-0.0908,0.5949,19.600,-3.885,-28.735,430,391,378,353,390,2025-05-28T17:30:21.447497
28518,-0.8281,-0.0932,0.5963,19.005,-4.200,-28.385,407,406,352,377,393,2025-05-28T17:30:21.447497
28519,-0.8316,-0.0903,0.6027,18.165,-5.005,-28.210,420,403,370,389,386,2025-05-28T17:30:21.447497
28520,-0.8320,-0.0893,0.6022,17.080,-5.915,-28.000,426,408,384,399,392,2025-05-28T17:30:21.620855
28521,-0.8306,-0.0927,0.5934,16.065,-7.315,-27.860,433,412,373,402,399,2025-05-28T17:30:21.620855
28522,-0.8291,-0.0961,0.5929,15.365,-8.260,-27.755,402,433,373,397,409,2025-05-28T17:30:21.620855
28523,-0.8213,-0.1000,0.5988,14.385,-8.820,-27.685,427,398,370,356,353,2025-05-28T17:30:21.620855
28524,-0.8189,-0.1054,0.6002,12.985,-9.030,-27.615,422,360,375,372,388,2025-05-28T17:30:21.620855
28525,-0.8111,-0.1118,0.6007,11.585,-8.855,-27.370,424,366,340,405,399,2025-05-28T17:30:21.620855
28526,-0.8164,-0.1215,0.6061,10.465,-8.750,-27.195,432,390,374,417,393,2025-05-28T17:30:21.620855
28527,-0.8189,-0.1274,0.6154,8.995,-8.890,-27.160,430,395,383,408,349,2025-05-28T17:30:21.620855
28528,-0.8228,-0.1386,0.6183,7.525,-9.660,-26.810,405,414,397,409,378,2025-05-28T17:30:21.725318
28529,-0.8242,-0.1396,0.6276,6.265,-10.710,-26.425,419,423,388,401,371,2025-05-28T17:30:21.725318
28530,-0.8233,-0.1420,0.6344,4.760,-11.760,-25.305,431,421,388,402,399,2025-05-28T17:30:21.725318
28531,-0.8208,-0.1391,0.6368,3.325,-12.320,-24.010,407,423,369,347,410,2025-05-28T17:30:21.725318
28532,-0.8189,-0.1454,0.6476,2.345,-12.530,-22.365,412,411,363,390,403,2025-05-28T17:30:21.725318
28533,-0.8120,-0.1430,0.6554,0.805,-12.600,-20.055,400,435,369,408,313,2025-05-28T17:30:21.725318
28534,-0.8032,-0.1430,0.6617,-0.420,-12.635,-17.885,414,419,375,399,349,2025-05-28T17:30:21.725318
28535,-0.8194,-0.1474,0.6749,-0.805,-14.210,-14.420,398,413,369,399,372,2025-05-28T17:30:21.725318
28536,-0.7954,-0.1430,0.6759,-1.505,-15.435,-10.885,410,411,381,406,360,2025-05-28T17:30:21.725318
28537,-0.7754,-0.1396,0.6832,-2.065,-16.590,-7.455,367,337,339,409,375,2025-05-28T17:30:21.725318
28538,-0.7608,-0.1362,0.6910,-2.310,-17.115,-3.815,405,320,323,412,374,2025-05-28T17:30:21.808416
28539,-0.7427,-0.1322,0.6959,-3.150,-17.115,-0.350,386,282,353,414,398,2025-05-28T17:30:21.808961
28540,-0.7257,-0.1235,0.6978,-4.200,-16.660,2.625,350,388,358,407,387,2025-05-28T17:30:21.808961
28541,-0.7071,-0.1142,0.7037,-5.565,-15.330,4.935,395,407,361,415,379,2025-05-28T17:30:21.808961
28542,-0.6930,-0.1137,0.7008,-7.245,-13.055,7.595,404,426,378,418,399,2025-05-28T17:30:21.808961
28543,-0.6847,-0.1132,0.7032,-8.785,-10.885,10.080,432,436,380,410,394,2025-05-28T17:30:21.808961
28544,-0.6842,-0.1098,0.7027,-9.730,-8.925,12.810,433,426,395,390,404,2025-05-28T17:30:21.808961
28545,-0.6852,-0.1098,0.7032,-11.130,-7.210,15.435,383,422,394,393,402,2025-05-28T17:30:21.808961
28546,-0.6817,-0.1030,0.7056,-12.635,-5.530,17.955,429,404,383,416,416,2025-05-28T17:30:21.809960
28547,-0.6886,-0.1039,0.7052,-14.280,-4.025,19.810,439,424,388,382,416,2025-05-28T17:30:21.809960
28548,-0.6988,-0.1064,0.7017,-15.540,-2.835,22.085,434,426,379,402,404,2025-05-28T17:30:21.810299
28549,-0.7096,-0.1157,0.7047,-16.030,-2.345,24.570,413,419,380,412,352,2025-05-28T17:30:21.810299
28550,-0.7232,-0.1240,0.7052,-16.450,-2.100,27.440,405,414,374,409,383,2025-05-28T17:30:21.810299
28551,-0.7320,-0.1362,0.7008,-16.415,-1.960,29.960,426,424,346,395,386,2025-05-28T17:30:21.810299
28552,-0.7276,-0.1396,0.6978,-16.380,-1.330,32.340,443,399,367,400,394,2025-05-28T17:30:21.810299
28553,-0.7183,-0.1381,0.6930,-16.625,0.105,35.875,415,410,383,397,388,2025-05-28T17:30:22.007370
28554,-0.7071,-0.1269,0.6832,-17.465,2.730,39.725,415,416,388,408,363,2025-05-28T17:30:22.007370
28555,-0.7008,-0.1157,0.6759,-18.340,6.160,42.805,440,420,342,366,375,2025-05-28T17:30:22.007370
28556,-0.7076,-0.1010,0.6749,-19.110,9.240,45.360,420,359,361,398,400,2025-05-28T17:30:22.007370
28557,-0.7144,-0.0913,0.6705,-20.405,10.675,47.460,441,387,372,361,399,2025-05-28T17:30:22.007370
28558,-0.7300,-0.0893,0.6647,-21.280,10.745,49.035,437,408,368,366,389,2025-05-28T17:30:22.008369
28559,-0.7335,-0.0942,0.6578,-21.560,9.625,50.890,443,412,374,404,385,2025-05-28T17:30:22.008369
28560,-0.7359,-0.0927,0.6520,-22.155,8.155,52.745,417,417,372,352,345,2025-05-28T17:30:22.008369
28561,-0.7208,-0.0888,0.6364,-22.855,7.630,54.180,430,420,345,373,388,2025-05-28T17:30:22.008369
28562,-0.7027,-0.0834,0.6183,-24.255,8.820,55.475,431,347,365,395,383,2025-05-28T17:30:22.008369
28563,-0.6925,-0.0698,0.6032,-26.110,11.515,56.140,426,413,370,350,411,2025-05-28T17:30:22.008369
28564,-0.6900,-0.0586,0.5988,-29.260,16.275,56.175,409,401,381,386,417,2025-05-28T17:30:22.008369
28565,-0.6866,-0.0503,0.5822,-33.355,20.580,55.895,418,412,351,403,397,2025-05-28T17:30:22.008369
28566,-0.6847,-0.0459,0.5632,-37.135,24.045,55.615,418,404,371,399,390,2025-05-28T17:30:22.008369
28567,-0.6900,-0.0356,0.5534,-40.285,27.545,54.565,421,427,369,396,386,2025-05-28T17:30:22.008369
28568,-0.6988,-0.0215,0.5397,-45.325,30.415,52.675,418,417,366,407,406,2025-05-28T17:30:22.008369
28569,-0.7076,-0.0063,0.5388,-51.695,34.055,50.645,430,419,377,410,410,2025-05-28T17:30:22.008369
28570,-0.7369,-0.0029,0.5251,-58.660,36.890,48.545,436,410,369,352,415,2025-05-28T17:30:22.258625
28571,-0.7823,-0.0142,0.5163,-64.330,38.045,45.850,414,396,366,406,424,2025-05-28T17:30:22.258625
28572,-0.8242,-0.0259,0.5148,-69.580,36.715,44.135,435,418,339,411,416,2025-05-28T17:30:22.258625
28573,-0.8584,-0.0434,0.5031,-73.500,33.530,43.470,417,424,335,405,406,2025-05-28T17:30:22.258625
28574,-0.8857,-0.0566,0.4880,-77.805,29.995,43.540,430,350,366,374,402,2025-05-28T17:30:22.258625
28575,-0.9048,-0.0571,0.4729,-82.110,28.280,43.715,428,396,388,384,413,2025-05-28T17:30:22.258625
28576,-0.9204,-0.0522,0.4563,-87.325,27.720,43.610,408,425,386,395,389,2025-05-28T17:30:22.258625
28577,-0.9243,-0.0478,0.4338,-93.030,28.420,44.135,414,426,348,303,395,2025-05-28T17:30:22.258625
28578,-0.9355,-0.0503,0.4104,-98.420,29.680,45.255,422,435,357,370,410,2025-05-28T17:30:22.258625
28579,-0.9540,-0.0664,0.3924,-102.060,30.450,46.865,423,413,362,346,411,2025-05-28T17:30:22.258625
28580,-0.9633,-0.0722,0.3787,-106.400,29.645,48.825,432,429,363,393,389,2025-05-28T17:30:22.258625
28581,-0.9736,-0.0756,0.3601,-109.480,28.245,50.330,421,417,364,417,393,2025-05-28T17:30:22.258625
28582,-0.9740,-0.0649,0.3577,-110.460,25.270,50.715,421,412,384,422,390,2025-05-28T17:30:22.259624
28583,-0.9682,-0.0669,0.3484,-109.795,21.595,51.100,411,401,371,400,364,2025-05-28T17:30:22.259624
28584,-0.9731,-0.0639,0.3626,-108.325,16.975,50.435,416,357,363,397,393,2025-05-28T17:30:22.259624
28585,-0.9877,-0.0542,0.3611,-105.665,12.180,49.350,400,417,380,418,355,2025-05-28T17:30:22.259624
28586,-0.9858,-0.0620,0.3543,-103.075,8.190,47.705,422,428,377,401,390,2025-05-28T17:30:22.259624
28587,-0.9804,-0.0625,0.3465,-99.050,6.615,46.865,412,435,366,393,390,2025-05-28T17:30:22.440559
28588,-0.9667,-0.0566,0.3426,-94.500,6.475,47.495,405,398,340,344,362,2025-05-28T17:30:22.440559
28589,-0.9443,-0.0517,0.3226,-90.405,9.485,48.650,421,390,364,333,379,2025-05-28T17:30:22.440559
28590,-0.9379,-0.0332,0.3118,-86.520,15.295,49.385,399,404,385,385,391,2025-05-28T17:30:22.440559
28591,-0.9560,-0.0088,0.3157,-83.860,21.070,48.825,430,412,383,389,381,2025-05-28T17:30:22.440559
28592,-1.0058,-0.0015,0.3289,-80.920,25.445,47.005,418,415,387,395,398,2025-05-28T17:30:22.440559
28593,-1.0575,-0.0098,0.3284,-78.015,27.510,43.470,445,404,347,402,409,2025-05-28T17:30:22.440559
28594,-1.1307,-0.0264,0.3343,-75.495,27.405,39.200,400,396,374,390,411,2025-05-28T17:30:22.441555
28595,-1.1956,-0.0488,0.3304,-71.155,24.745,34.790,405,413,374,388,407,2025-05-28T17:30:22.441555
28596,-1.2210,-0.0703,0.3260,-64.225,21.000,31.815,414,413,381,385,391,2025-05-28T17:30:22.441555
28597,-1.2176,-0.0805,0.3109,-58.030,18.865,29.575,405,419,371,406,397,2025-05-28T17:30:22.441555
28598,-1.2244,-0.0791,0.3113,-51.485,18.655,27.335,411,429,385,412,411,2025-05-28T17:30:22.441555
28599,-1.2185,-0.0966,0.2987,-44.240,20.335,25.865,400,373,374,421,387,2025-05-28T17:30:22.441555
28600,-1.2078,-0.0932,0.3035,-37.940,21.210,24.815,418,423,369,416,402,2025-05-28T17:30:22.441555
28601,-1.1985,-0.0942,0.3040,-31.535,22.645,24.745,415,414,341,408,372,2025-05-28T17:30:22.441555
28602,-1.1854,-0.1093,0.2977,-24.605,22.470,25.690,367,418,319,415,375,2025-05-28T17:30:22.441555
28603,-1.1414,-0.0991,0.3011,-17.185,20.930,27.055,413,419,355,400,340,2025-05-28T17:30:22.441555
28604,-1.0878,-0.0815,0.2943,-11.620,19.285,29.120,349,340,364,389,322,2025-05-28T17:30:22.441555
28605,-1.0170,-0.0576,0.2962,-4.725,19.005,30.730,343,387,364,387,371,2025-05-28T17:30:22.441555
28606,-0.9745,-0.0312,0.3021,1.260,19.495,31.640,404,298,336,343,385,2025-05-28T17:30:22.608256
28607,-0.9096,-0.0073,0.3045,5.985,19.985,32.060,424,398,373,378,393,2025-05-28T17:30:22.608256
28608,-0.8599,0.0278,0.3109,9.275,20.860,31.465,422,420,378,407,349,2025-05-28T17:30:22.608256
28609,-0.8233,0.0605,0.3143,10.745,22.330,29.855,427,404,382,414,401,2025-05-28T17:30:22.608256
28610,-0.8042,0.0771,0.3109,11.690,23.310,27.370,408,426,372,375,390,2025-05-28T17:30:22.608256
28611,-0.8091,0.0942,0.3192,12.740,22.960,24.395,348,403,370,411,394,2025-05-28T17:30:22.608256
28612,-0.8291,0.1069,0.3216,13.650,21.350,21.770,402,427,367,411,384,2025-05-28T17:30:22.608256
28613,-0.8618,0.1157,0.3299,15.155,17.990,17.570,407,413,376,369,397,2025-05-28T17:30:22.608256
28614,-0.9004,0.1176,0.3362,17.500,12.810,13.160,398,374,342,396,398,2025-05-28T17:30:22.608256
28615,-0.9213,0.1274,0.3440,20.125,6.545,9.240,371,411,357,396,388,2025-05-28T17:30:22.608256
28616,-0.9443,0.1240,0.3450,22.120,1.505,5.880,366,303,359,343,387,2025-05-28T17:30:22.608256
28617,-0.9575,0.1113,0.3357,24.920,-1.295,2.380,389,408,379,380,350,2025-05-28T17:30:22.608256
28618,-0.9745,0.1118,0.3284,28.035,-3.500,0.560,415,413,384,389,383,2025-05-28T17:30:22.608256
28619,-0.9794,0.1142,0.3226,30.800,-3.500,-0.245,398,397,390,407,376,2025-05-28T17:30:22.608256
28620,-0.9911,0.1293,0.3157,32.585,-0.840,0.595,407,414,349,396,399,2025-05-28T17:30:22.840604
28621,-0.9984,0.1542,0.3084,33.215,4.200,2.310,417,428,374,394,405,2025-05-28T17:30:22.841260
28622,-1.0033,0.1845,0.3021,32.620,9.065,4.795,429,407,375,405,399,2025-05-28T17:30:22.841260
28623,-1.0053,0.2020,0.2889,32.130,15.085,6.965,403,420,377,398,392,2025-05-28T17:30:22.841260
28624,-1.0297,0.2196,0.2952,32.095,20.545,10.115,354,408,385,391,347,2025-05-28T17:30:22.841260
28625,-1.0555,0.2484,0.3089,31.465,24.255,13.510,393,407,374,407,393,2025-05-28T17:30:22.841668
28626,-1.0838,0.2972,0.3274,29.540,25.305,17.780,396,398,385,409,401,2025-05-28T17:30:22.841668
28627,-1.1117,0.3338,0.3387,27.755,23.800,23.100,422,375,386,397,385,2025-05-28T17:30:22.841668
28628,-1.1414,0.3665,0.3431,25.970,21.805,28.805,416,397,388,367,379,2025-05-28T17:30:22.841668
28629,-1.1653,0.4006,0.3538,24.290,19.250,33.670,425,427,375,401,376,2025-05-28T17:30:22.841668
28630,-1.1907,0.4216,0.3509,22.400,16.835,41.020,425,426,374,398,389,2025-05-28T17:30:22.841668
28631,-1.2151,0.4460,0.3597,20.475,14.035,50.470,411,433,340,415,395,2025-05-28T17:30:22.841668
28632,-1.2468,0.4699,0.3616,18.305,12.985,61.565,432,420,367,406,358,2025-05-28T17:30:22.841668
28633,-1.2961,0.4792,0.3606,16.695,13.685,71.785,391,428,340,411,331,2025-05-28T17:30:22.841668
28634,-1.3610,0.4812,0.3553,15.085,14.245,81.935,396,431,348,397,377,2025-05-28T17:30:22.841668
28635,-1.4215,0.4616,0.3357,13.790,14.385,90.405,422,437,372,391,374,2025-05-28T17:30:22.841668
28636,-1.4694,0.4543,0.3396,12.600,13.790,102.515,426,404,379,408,342,2025-05-28T17:30:22.841668
28637,-1.4986,0.4504,0.3367,11.445,11.515,117.285,391,424,356,305,363,2025-05-28T17:30:23.059178
28638,-1.4899,0.4397,0.3240,12.040,8.890,133.140,400,374,333,360,392,2025-05-28T17:30:23.059178
28639,-1.4786,0.4158,0.3152,14.455,4.165,147.560,418,414,369,398,399,2025-05-28T17:30:23.059178
28640,-1.4445,0.4016,0.3192,16.870,-3.605,160.265,418,400,333,391,382,2025-05-28T17:30:23.059178
28641,-1.3703,0.4011,0.3074,20.265,-11.375,170.730,424,429,353,379,341,2025-05-28T17:30:23.059178
28642,-1.2908,0.4158,0.2645,24.080,-17.115,177.415,420,394,366,384,331,2025-05-28T17:30:23.059178
28643,-1.1814,0.4436,0.2474,26.075,-15.785,184.555,408,403,376,349,374,2025-05-28T17:30:23.059178
28644,-1.0858,0.4582,0.2220,26.250,-9.310,190.855,426,431,379,392,383,2025-05-28T17:30:23.059178
28645,-0.9838,0.4831,0.1947,24.710,0.000,196.560,427,420,391,410,408,2025-05-28T17:30:23.059178
28646,-0.9052,0.4885,0.1596,20.510,9.485,200.970,406,413,391,395,394,2025-05-28T17:30:23.059178
28647,-0.8638,0.4704,0.1484,14.770,21.595,203.105,387,422,389,406,408,2025-05-28T17:30:23.059178
28648,-0.8379,0.4519,0.1464,9.380,28.385,203.945,421,349,378,411,411,2025-05-28T17:30:23.059178
28649,-0.8164,0.4299,0.1283,6.720,24.570,202.650,405,390,384,398,403,2025-05-28T17:30:23.059178
28650,-0.7881,0.4211,0.1108,7.105,14.945,198.065,409,416,350,351,379,2025-05-28T17:30:23.059178
28651,-0.7159,0.3987,0.0776,8.750,5.565,190.680,428,430,373,391,393,2025-05-28T17:30:23.059178
28652,-0.6085,0.3782,0.0595,9.625,-0.210,182.070,415,430,375,380,359,2025-05-28T17:30:23.059178
28653,-0.5368,0.3572,0.0488,8.330,-4.585,175.315,422,366,388,343,387,2025-05-28T17:30:23.059178
28654,-0.4514,0.3353,0.0200,6.160,-5.600,165.865,423,386,394,380,388,2025-05-28T17:30:23.255314
28655,-0.3919,0.3250,0.0288,3.640,-3.850,155.365,360,341,395,397,379,2025-05-28T17:30:23.255314
28656,-0.3523,0.3060,0.0405,0.385,-0.735,143.605,416,391,396,389,396,2025-05-28T17:30:23.255314
28657,-0.3148,0.2757,0.0342,-1.610,1.050,130.375,432,374,352,408,392,2025-05-28T17:30:23.255314
28658,-0.2777,0.2684,0.0259,-1.820,1.785,116.865,416,371,377,393,396,2025-05-28T17:30:23.255314
28659,-0.2445,0.2547,0.0244,-1.155,4.060,105.490,405,332,380,412,404,2025-05-28T17:30:23.255314
28660,-0.2181,0.2596,0.0293,-0.315,7.385,90.965,418,394,388,396,355,2025-05-28T17:30:23.255314
28661,-0.2064,0.2582,0.0332,1.155,10.465,75.600,405,407,388,410,397,2025-05-28T17:30:23.255314
28662,-0.1952,0.2689,0.0449,3.430,13.370,59.990,415,405,392,415,406,2025-05-28T17:30:23.255314
28663,-0.1996,0.2928,0.0576,5.950,16.800,44.135,433,419,396,411,408,2025-05-28T17:30:23.255314
28664,-0.2069,0.3187,0.0708,8.295,21.175,31.535,386,407,388,367,386,2025-05-28T17:30:23.255314
28665,-0.2123,0.3675,0.0800,10.360,25.270,16.940,384,424,359,393,385,2025-05-28T17:30:23.255314
28666,-0.2318,0.4021,0.0893,11.410,29.120,3.080,414,405,371,402,411,2025-05-28T17:30:23.255314
28667,-0.2508,0.4446,0.1069,12.005,32.760,-9.905,422,361,330,399,414,2025-05-28T17:30:23.255314
28668,-0.2791,0.4982,0.1142,12.775,36.715,-21.910,426,365,346,414,401,2025-05-28T17:30:23.255314
28669,-0.3143,0.5636,0.1498,12.215,43.015,-31.570,430,355,364,372,356,2025-05-28T17:30:23.255314
28670,-0.3782,0.6300,0.2059,8.995,49.665,-43.330,381,327,375,401,333,2025-05-28T17:30:23.255314
28671,-0.4612,0.7022,0.3684,4.970,52.115,-53.375,398,382,386,403,364,2025-05-28T17:30:23.257885
28672,-0.5583,0.7720,0.3148,2.205,47.880,-60.865,348,399,374,405,381,2025-05-28T17:30:23.257885
28673,-0.6471,0.8438,0.3694,0.595,39.515,-66.290,412,424,382,373,374,2025-05-28T17:30:23.440894
28674,-0.7096,0.9111,0.4231,-1.575,30.730,-70.070,380,434,387,401,387,2025-05-28T17:30:23.440894
28675,-0.7701,0.9731,0.4602,-2.310,20.545,-71.295,425,432,375,400,399,2025-05-28T17:30:23.440894
28676,-0.8198,1.0253,0.4856,-2.800,11.165,-68.950,398,387,367,415,387,2025-05-28T17:30:23.440894
28677,-0.8413,1.0619,0.5168,-5.635,0.700,-64.820,421,410,370,388,364,2025-05-28T17:30:23.441892
28678,-0.8433,1.0873,0.5256,-11.620,-5.355,-56.875,361,342,369,396,389,2025-05-28T17:30:23.523745
28679,-0.8369,1.1078,0.5061,-17.955,-7.315,-45.850,379,414,373,402,389,2025-05-28T17:30:23.523745
28680,-0.8311,1.1097,0.4695,-22.015,-6.370,-33.355,418,423,377,395,392,2025-05-28T17:30:23.523745
28681,-0.8223,1.0814,0.4290,-26.215,-4.165,-20.475,400,441,374,403,400,2025-05-28T17:30:23.523745
28682,-0.8286,1.0443,0.3899,-29.225,-1.295,-10.535,435,430,367,420,399,2025-05-28T17:30:23.523745
28683,-0.8350,1.0067,0.3377,-30.310,0.630,0.595,409,420,385,419,387,2025-05-28T17:30:23.523745
28684,-0.8457,0.9545,0.3035,-29.155,0.210,10.465,401,422,392,397,400,2025-05-28T17:30:23.523745
28685,-0.8364,0.9008,0.2591,-27.510,-1.085,18.935,389,429,349,384,373,2025-05-28T17:30:23.523745
28686,-0.8062,0.8423,0.2196,-25.340,-1.085,26.635,388,413,356,396,355,2025-05-28T17:30:23.523745
28687,-0.7725,0.7867,0.1810,-23.625,-0.350,31.640,392,436,335,411,385,2025-05-28T17:30:23.523745
28688,-0.7388,0.7359,0.1552,-22.050,0.175,37.485,424,431,361,397,400,2025-05-28T17:30:23.523745
28689,-0.6998,0.6949,0.1401,-20.860,-0.210,41.825,359,414,382,349,390,2025-05-28T17:30:23.642200
28690,-0.6593,0.6534,0.1161,-19.530,-0.910,44.520,346,353,378,405,399,2025-05-28T17:30:23.642200
28691,-0.6212,0.6188,0.1069,-18.235,-2.415,45.570,414,390,383,403,386,2025-05-28T17:30:23.642200
28692,-0.5802,0.5846,0.0937,-16.485,-5.005,45.430,424,407,383,396,365,2025-05-28T17:30:23.642200
28693,-0.5568,0.5578,0.0903,-14.560,-8.680,44.555,432,386,379,386,345,2025-05-28T17:30:23.642200
28694,-0.5153,0.5500,0.0830,-11.970,-12.495,42.490,407,421,373,386,332,2025-05-28T17:30:23.642200
28695,-0.4782,0.5446,0.0683,-8.470,-14.630,39.620,440,409,383,403,369,2025-05-28T17:30:23.642200
28696,-0.4265,0.5553,0.0639,-4.865,-14.665,36.050,420,421,386,367,392,2025-05-28T17:30:23.642200
28697,-0.3826,0.5641,0.0639,-2.800,-10.885,32.725,434,432,385,337,406,2025-05-28T17:30:23.642200
28698,-0.3723,0.5661,0.0649,-0.595,-7.000,28.980,445,425,389,384,371,2025-05-28T17:30:23.642200
28699,-0.3797,0.5773,0.0747,2.310,-3.745,25.725,429,407,374,341,337,2025-05-28T17:30:23.642200
28700,-0.3914,0.5963,0.0834,5.530,-2.555,20.685,354,402,373,376,348,2025-05-28T17:30:23.642200
28701,-0.3943,0.6300,0.0864,9.345,-2.205,14.945,419,418,374,409,381,2025-05-28T17:30:23.642200
28702,-0.4050,0.6695,0.1020,12.460,-1.400,8.155,406,418,369,411,340,2025-05-28T17:30:23.642200
28703,-0.4221,0.7061,0.1161,16.030,-1.470,1.785,441,397,369,416,387,2025-05-28T17:30:23.643196
28704,-0.4412,0.7554,0.1235,19.810,-3.430,-3.290,421,404,337,410,349,2025-05-28T17:30:23.643196
28705,-0.4534,0.7945,0.1235,23.520,-5.320,-9.905,413,417,352,377,364,2025-05-28T17:30:23.875960
28706,-0.4602,0.8574,0.1357,25.235,-4.515,-16.275,394,427,374,389,390,2025-05-28T17:30:23.875960
28707,-0.4636,0.9121,0.1420,24.255,-2.870,-21.805,389,423,362,385,393,2025-05-28T17:30:23.875960
28708,-0.4724,0.9531,0.1518,22.575,-1.750,-26.180,422,429,367,404,395,2025-05-28T17:30:23.875960
28709,-0.5070,0.9819,0.1723,19.460,-1.890,-29.260,422,409,364,406,389,2025-05-28T17:30:23.875960
28710,-0.5280,0.9955,0.1771,16.765,-4.060,-30.380,427,423,377,405,406,2025-05-28T17:30:23.875960
28711,-0.5553,1.0072,0.1825,15.610,-8.995,-30.555,411,423,382,399,392,2025-05-28T17:30:23.875960
28712,-0.5622,1.0204,0.1845,14.245,-14.350,-28.945,408,428,340,395,388,2025-05-28T17:30:23.875960
28713,-0.5568,1.0165,0.1703,13.545,-18.935,-25.935,430,409,365,401,387,2025-05-28T17:30:23.875960
28714,-0.5446,1.0097,0.1537,13.055,-21.980,-21.595,424,433,362,367,401,2025-05-28T17:30:23.875960
28715,-0.5378,0.9921,0.1362,12.285,-22.715,-16.870,429,407,370,378,398,2025-05-28T17:30:23.875960
28716,-0.5368,0.9677,0.1186,10.920,-21.805,-12.810,431,431,363,388,360,2025-05-28T17:30:23.875960
28717,-0.5378,0.9462,0.0991,9.590,-19.985,-7.700,413,346,386,411,381,2025-05-28T17:30:23.875960
28718,-0.5412,0.9189,0.0893,8.225,-18.165,-2.870,425,398,385,400,366,2025-05-28T17:30:23.876963
28719,-0.5339,0.8926,0.0698,7.210,-16.030,1.050,410,404,388,392,358,2025-05-28T17:30:23.877144
28720,-0.5329,0.8701,0.0542,6.720,-14.840,4.165,424,407,380,408,356,2025-05-28T17:30:23.877144
28721,-0.5266,0.8535,0.0542,7.105,-14.385,6.265,413,424,378,416,389,2025-05-28T17:30:23.877144
28722,-0.5187,0.8452,0.0576,7.945,-15.400,8.785,348,426,343,402,360,2025-05-28T17:30:23.877144
28723,-0.5114,0.8369,0.0634,9.030,-17.220,10.360,392,417,364,392,351,2025-05-28T17:30:23.877144
28724,-0.4934,0.8267,0.0688,10.150,-18.900,10.640,398,371,369,405,375,2025-05-28T17:30:23.877144
28725,-0.4651,0.8272,0.0683,11.305,-19.250,10.570,399,419,377,393,375,2025-05-28T17:30:24.075980
28726,-0.4372,0.8301,0.0561,12.215,-17.675,9.800,392,353,335,342,397,2025-05-28T17:30:24.075980
28727,-0.4192,0.8389,0.0478,13.090,-14.140,8.645,417,409,363,379,367,2025-05-28T17:30:24.075980
28728,-0.4060,0.8384,0.0429,13.405,-9.765,6.930,403,416,344,296,394,2025-05-28T17:30:24.075980
28729,-0.4016,0.8340,0.0420,13.160,-5.740,5.110,387,404,289,372,374,2025-05-28T17:30:24.075980
28730,-0.4055,0.8330,0.0395,13.055,-2.415,2.870,429,433,325,389,397,2025-05-28T17:30:24.075980
28731,-0.4128,0.8242,0.0332,13.195,-0.105,0.000,439,417,361,385,404,2025-05-28T17:30:24.075980
28732,-0.4221,0.8194,0.0371,13.510,1.645,-2.695,434,358,367,388,361,2025-05-28T17:30:24.075980
28733,-0.4329,0.8096,0.0361,13.720,2.415,-5.880,434,394,351,391,388,2025-05-28T17:30:24.075980
28734,-0.4470,0.8101,0.0376,13.790,2.415,-8.715,381,388,369,402,390,2025-05-28T17:30:24.075980
28735,-0.4597,0.8145,0.0454,13.440,2.590,-11.200,428,436,371,400,405,2025-05-28T17:30:24.075980
28736,-0.4758,0.8120,0.0517,12.390,2.800,-13.020,433,408,367,388,353,2025-05-28T17:30:24.075980
28737,-0.4860,0.8140,0.0605,10.220,2.870,-13.965,426,404,345,398,397,2025-05-28T17:30:24.075980
28738,-0.5041,0.8364,0.0864,6.440,4.165,-14.455,440,431,365,394,351,2025-05-28T17:30:24.075980
28739,-0.5197,0.8623,0.1044,0.315,5.845,-13.475,414,436,374,401,386,2025-05-28T17:30:24.075980
28740,-0.5383,0.8813,0.1225,-5.215,7.700,-11.725,441,410,381,411,381,2025-05-28T17:30:24.075980
28741,-0.5817,0.8930,0.1562,-12.215,8.645,-9.660,403,419,385,399,396,2025-05-28T17:30:24.075980
28742,-0.6315,0.8818,0.1820,-17.255,6.825,-8.120,422,425,390,411,385,2025-05-28T17:30:24.263382
28743,-0.7013,0.8672,0.2147,-18.900,-0.560,-6.895,435,405,385,393,396,2025-05-28T17:30:24.264382
28744,-0.7637,0.8525,0.2401,-17.710,-12.775,-6.090,390,414,390,398,380,2025-05-28T17:30:24.264382
28745,-0.7901,0.8438,0.2596,-15.120,-26.530,-5.285,425,337,342,344,385,2025-05-28T17:30:24.264382
28746,-0.8023,0.8359,0.2674,-11.900,-39.515,-3.955,420,411,352,338,386,2025-05-28T17:30:24.264382
28747,-0.7798,0.8486,0.2718,-7.945,-47.985,-2.380,440,347,370,400,364,2025-05-28T17:30:24.264382
28748,-0.7369,0.8560,0.2523,-4.130,-53.795,-0.560,435,411,369,392,352,2025-05-28T17:30:24.264382
28749,-0.6730,0.8574,0.2381,-1.085,-52.360,2.450,438,422,385,403,390,2025-05-28T17:30:24.264382
28750,-0.6115,0.8779,0.2323,-0.175,-44.520,6.160,410,428,394,398,305,2025-05-28T17:30:24.264382
28751,-0.5553,0.8935,0.2176,-0.840,-32.690,9.870,409,416,390,400,372,2025-05-28T17:30:24.265378
28752,-0.5427,0.8960,0.2011,-1.680,-23.450,12.950,435,416,377,406,404,2025-05-28T17:30:24.265378
28753,-0.5344,0.8935,0.1928,-1.400,-15.085,15.365,435,403,387,391,387,2025-05-28T17:30:24.265378
28754,-0.5290,0.8882,0.1767,-0.700,-10.570,18.515,408,357,382,392,408,2025-05-28T17:30:24.265378
28755,-0.5207,0.8672,0.1645,0.700,-9.870,21.245,385,414,392,347,397,2025-05-28T17:30:24.265378
28756,-0.5100,0.8501,0.1537,1.890,-11.970,23.695,411,402,390,387,401,2025-05-28T17:30:24.265378
28757,-0.4870,0.8306,0.1386,2.590,-15.540,25.375,435,399,343,405,388,2025-05-28T17:30:24.505593
28758,-0.4538,0.8159,0.1225,2.765,-18.130,26.600,391,407,369,395,390,2025-05-28T17:30:24.505593
28759,-0.4275,0.8008,0.1020,2.975,-20.580,27.440,427,400,337,402,350,2025-05-28T17:30:24.505593
28760,-0.3938,0.7852,0.0791,3.815,-21.350,28.105,403,422,369,413,331,2025-05-28T17:30:24.505593
28761,-0.3665,0.7710,0.0771,3.990,-20.335,27.895,415,401,365,388,363,2025-05-28T17:30:24.505593
28762,-0.3353,0.7647,0.0698,2.555,-17.220,27.090,422,425,360,402,394,2025-05-28T17:30:24.506589
28763,-0.3128,0.7579,0.0542,1.540,-12.320,25.270,435,420,378,398,390,2025-05-28T17:30:24.506589
28764,-0.3006,0.7515,0.0488,1.015,-7.770,22.365,411,415,365,405,398,2025-05-28T17:30:24.506589
28765,-0.2948,0.7466,0.0400,1.330,-2.345,19.320,375,414,338,400,386,2025-05-28T17:30:24.506589
28766,-0.2879,0.7447,0.0434,2.520,2.590,15.295,363,346,355,403,403,2025-05-28T17:30:24.507259
28767,-0.2908,0.7486,0.0454,3.325,8.120,10.395,421,388,365,409,353,2025-05-28T17:30:24.507259
28768,-0.2943,0.7422,0.0547,3.990,14.140,3.745,413,412,388,394,387,2025-05-28T17:30:24.507259
28769,-0.2948,0.7559,0.0673,4.900,18.060,-2.520,427,427,383,410,408,2025-05-28T17:30:24.507259
28770,-0.3011,0.7627,0.0800,4.970,22.820,-7.735,427,394,388,415,402,2025-05-28T17:30:24.507259
28771,-0.3128,0.7798,0.0966,4.130,27.720,-14.560,400,417,381,411,406,2025-05-28T17:30:24.507259
28772,-0.3309,0.7857,0.1122,3.080,32.165,-21.245,435,427,343,417,386,2025-05-28T17:30:24.507259
28773,-0.3504,0.7984,0.1386,1.120,35.175,-27.230,402,418,367,399,386,2025-05-28T17:30:24.507259
28774,-0.3850,0.7954,0.1576,-0.630,36.155,-32.340,430,383,361,397,378,2025-05-28T17:30:24.694218
28775,-0.4290,0.7930,0.1903,-1.085,34.440,-44.485,435,332,335,394,350,2025-05-28T17:30:24.694218
28776,-0.4797,0.7915,0.2259,-1.470,30.065,-38.605,439,393,361,409,386,2025-05-28T17:30:24.694218
28777,-0.5144,0.7847,0.2333,-1.715,24.185,-40.320,412,401,376,412,356,2025-05-28T17:30:24.694218
28778,-0.5588,0.7788,0.2445,-1.260,18.655,-40.845,420,419,380,424,388,2025-05-28T17:30:24.694218
28779,-0.6051,0.7754,0.2430,0.595,13.615,-39.655,439,397,388,358,340,2025-05-28T17:30:24.694218
28780,-0.6451,0.7764,0.2430,2.940,10.255,-37.345,445,394,390,410,392,2025-05-28T17:30:24.694218
28781,-0.6837,0.7720,0.2308,5.040,7.175,-34.335,405,420,394,419,410,2025-05-28T17:30:24.694218
28782,-0.7076,0.7769,0.2167,6.335,6.825,-29.575,366,407,385,398,413,2025-05-28T17:30:24.694218
28783,-0.7315,0.7788,0.1996,7.315,9.415,-24.290,400,413,388,412,418,2025-05-28T17:30:24.694218
28784,-0.7593,0.7862,0.1820,8.295,13.020,-19.145,381,346,347,394,414,2025-05-28T17:30:24.694218
28785,-0.7730,0.8091,0.1723,9.310,15.855,-14.070,421,392,325,400,413,2025-05-28T17:30:24.694218
28786,-0.7876,0.8281,0.1615,9.660,18.760,-10.220,424,430,355,390,407,2025-05-28T17:30:24.695221
28787,-0.7935,0.8447,0.1523,10.360,19.705,-6.090,435,406,372,361,385,2025-05-28T17:30:24.695221
28788,-0.7979,0.8701,0.1498,11.060,18.375,-2.765,433,425,379,385,392,2025-05-28T17:30:24.695221
28789,-0.7925,0.9023,0.1586,10.885,15.225,-0.770,352,368,337,337,391,2025-05-28T17:30:24.695221
28790,-0.7740,0.9418,0.1576,9.765,11.900,0.245,417,418,325,381,397,2025-05-28T17:30:24.695221
28791,-0.7603,0.9780,0.1571,8.015,6.790,0.735,415,409,344,303,392,2025-05-28T17:30:24.695221
28792,-0.7330,0.9916,0.1591,5.705,1.295,1.260,384,296,352,337,411,2025-05-28T17:30:24.695221
28793,-0.7110,1.0004,0.1630,2.695,-4.620,2.205,405,394,337,376,421,2025-05-28T17:30:24.695221
28794,-0.6895,1.0004,0.1693,0.070,-9.800,3.955,422,397,355,390,423,2025-05-28T17:30:24.872112
28795,-0.6583,0.9936,0.1698,-3.745,-15.470,6.125,404,300,294,410,413,2025-05-28T17:30:24.872112
28796,-0.6324,0.9750,0.1630,-7.735,-19.775,7.770,416,383,331,395,413,2025-05-28T17:30:24.872112
28797,-0.5968,0.9531,0.1518,-10.990,-22.190,10.360,405,413,359,413,400,2025-05-28T17:30:24.872112
28798,-0.5553,0.9213,0.1415,-13.825,-23.450,13.510,426,412,383,422,411,2025-05-28T17:30:24.872112
28799,-0.5280,0.8750,0.1279,-15.225,-23.450,16.835,402,431,389,399,392,2025-05-28T17:30:24.872112
28800,-0.5036,0.8345,0.1152,-16.205,-22.960,19.425,428,421,383,380,403,2025-05-28T17:30:24.872112
28801,-0.4856,0.7984,0.1064,-16.170,-22.260,21.385,400,303,377,407,410,2025-05-28T17:30:24.873180
28802,-0.4680,0.7608,0.0874,-15.155,-21.700,22.225,404,403,371,401,418,2025-05-28T17:30:24.873180
28803,-0.4553,0.7388,0.0830,-13.090,-21.070,22.435,421,428,374,399,402,2025-05-28T17:30:24.873180
28804,-0.4416,0.7193,0.0791,-10.815,-20.300,21.595,426,364,377,399,383,2025-05-28T17:30:24.873180
28805,-0.4280,0.7017,0.0669,-8.645,-18.970,20.125,413,422,383,381,380,2025-05-28T17:30:24.873180
28806,-0.4148,0.6944,0.0673,-6.125,-17.290,17.780,412,415,387,400,364,2025-05-28T17:30:24.873180
28807,-0.4114,0.6881,0.0664,-4.270,-14.525,14.735,385,424,387,400,354,2025-05-28T17:30:24.873692
28808,-0.4080,0.6861,0.0717,-2.100,-11.480,12.145,415,423,380,393,390,2025-05-28T17:30:24.873789
28809,-0.4158,0.6974,0.0805,-0.700,-8.015,8.715,433,350,369,405,379,2025-05-28T17:30:25.071778
28810,-0.4211,0.7115,0.0854,-0.035,-4.200,5.215,398,388,376,394,391,2025-05-28T17:30:25.071778
28811,-0.4309,0.7252,0.0883,1.120,-1.225,1.715,417,404,343,389,409,2025-05-28T17:30:25.071778
28812,-0.4416,0.7379,0.1000,2.310,1.050,-1.925,409,399,358,369,387,2025-05-28T17:30:25.076385
28813,-0.4543,0.7471,0.1064,3.115,3.360,-4.480,417,406,375,376,408,2025-05-28T17:30:25.076385
28814,-0.4734,0.7554,0.1142,4.025,5.145,-7.910,422,423,365,387,355,2025-05-28T17:30:25.076385
28815,-0.4904,0.7696,0.1225,4.550,6.300,-11.375,419,411,378,416,336,2025-05-28T17:30:25.076385
28816,-0.5070,0.7989,0.1371,3.955,6.580,-13.650,311,394,375,417,328,2025-05-28T17:30:25.076385
28817,-0.5192,0.8164,0.1318,2.940,6.055,-15.365,410,424,343,389,356,2025-05-28T17:30:25.076385
28818,-0.5392,0.8286,0.1391,2.800,4.585,-17.185,405,424,370,418,394,2025-05-28T17:30:25.076385
28819,-0.5529,0.8442,0.1435,2.940,2.695,-18.235,369,412,385,405,395,2025-05-28T17:30:25.076385
28820,-0.5646,0.8628,0.1586,1.995,1.085,-18.445,420,429,383,410,399,2025-05-28T17:30:25.076385
28821,-0.5632,0.8750,0.1527,0.455,-0.245,-17.570,421,426,390,420,413,2025-05-28T17:30:25.077385
28822,-0.5714,0.8784,0.1449,0.455,-1.330,-16.380,429,350,388,362,411,2025-05-28T17:30:25.077385
28823,-0.5817,0.8813,0.1586,0.665,-2.030,-15.050,402,334,393,389,412,2025-05-28T17:30:25.077385
28824,-0.5924,0.8857,0.1693,0.000,-2.870,-12.355,407,332,355,341,351,2025-05-28T17:30:25.077385
28825,-0.5949,0.8838,0.1630,-0.280,-4.060,-8.960,406,376,364,383,391,2025-05-28T17:30:25.323295
28826,-0.6037,0.8745,0.1586,0.105,-4.900,-5.880,426,418,342,402,412,2025-05-28T17:30:25.323295
28827,-0.5998,0.8701,0.1557,0.455,-4.795,-2.765,391,399,321,349,344,2025-05-28T17:30:25.323295
28828,-0.5929,0.8623,0.1518,0.350,-4.340,-0.455,410,422,308,397,366,2025-05-28T17:30:25.472828
28829,-0.5900,0.8496,0.1420,0.350,-3.920,2.485,407,420,359,406,361,2025-05-28T17:30:25.472828
28830,-0.5905,0.8442,0.1396,0.595,-3.640,4.760,424,377,369,409,389,2025-05-28T17:30:25.472828
28831,-0.5832,0.8364,0.1347,0.630,-3.920,6.895,421,398,365,408,363,2025-05-28T17:30:25.472828
28832,-0.5836,0.8272,0.1327,0.805,-4.585,7.840,443,425,367,390,341,2025-05-28T17:30:25.472828
28833,-0.5758,0.8233,0.1230,0.455,-5.670,8.260,433,340,381,393,381,2025-05-28T17:30:25.472828
28834,-0.5656,0.8189,0.1132,0.735,-6.510,8.470,427,390,382,408,346,2025-05-28T17:30:25.472828
28835,-0.5505,0.8179,0.1098,1.295,-7.070,8.050,406,409,384,350,387,2025-05-28T17:30:25.472828
28836,-0.5392,0.8169,0.1122,1.190,-6.790,7.385,398,434,389,384,403,2025-05-28T17:30:25.472828
28837,-0.5266,0.8140,0.1118,0.805,-6.265,6.685,399,424,385,341,387,2025-05-28T17:30:25.472828
28838,-0.5139,0.8096,0.1113,0.385,-5.460,5.215,410,410,349,391,385,2025-05-28T17:30:25.472828
28839,-0.5134,0.8111,0.1176,0.000,-4.935,3.570,348,404,380,410,350,2025-05-28T17:30:25.472828
28840,-0.5075,0.8037,0.1157,-0.700,-5.075,1.960,426,417,389,402,384,2025-05-28T17:30:25.472828
28841,-0.5070,0.7998,0.1186,-0.630,-5.915,0.420,398,409,388,395,402,2025-05-28T17:30:25.472828
28842,-0.5036,0.7984,0.2474,-0.560,-6.405,-1.575,353,408,356,402,372,2025-05-28T17:30:25.472828
28843,-0.5012,0.7959,0.1342,-1.260,-6.055,-3.080,386,404,382,414,394,2025-05-28T17:30:25.472828
28844,-0.5046,0.7940,0.1318,-2.100,-6.125,-4.340,411,387,390,399,383,2025-05-28T17:30:25.472828
28845,-0.5080,0.7940,0.1298,-2.030,-6.020,-5.495,424,402,351,381,375,2025-05-28T17:30:25.504929
28846,-0.5026,0.7979,0.1308,-1.750,-5.250,-6.510,412,372,377,410,391,2025-05-28T17:30:25.504929
28847,-0.5056,0.8018,0.1376,-1.715,-3.150,-7.140,399,396,379,398,364,2025-05-28T17:30:25.504929
28848,-0.5026,0.8096,0.1366,-2.065,-0.175,-7.980,400,368,388,414,342,2025-05-28T17:30:25.504929
28849,-0.5041,0.8179,0.1347,-1.925,3.010,-8.645,375,402,344,366,385,2025-05-28T17:30:25.504929
28850,-0.5129,0.8281,0.1464,-2.065,5.320,-9.380,342,432,365,401,410,2025-05-28T17:30:25.504929
28851,-0.5261,0.8413,0.1513,-2.625,7.210,-9.520,404,381,334,406,403,2025-05-28T17:30:25.504929
28852,-0.5451,0.8472,0.1518,-2.765,7.910,-9.835,404,354,359,408,369,2025-05-28T17:30:25.504929
28853,-0.5666,0.8594,0.1562,-2.450,7.525,-9.975,399,415,376,362,405,2025-05-28T17:30:25.504929
28854,-0.5856,0.8774,0.1630,-2.660,7.140,-9.870,400,408,387,390,417,2025-05-28T17:30:25.504929
28855,-0.5900,0.8999,0.1620,-3.150,6.790,-9.030,414,407,389,402,360,2025-05-28T17:30:25.504929
28856,-0.5988,0.9194,0.1654,-4.165,6.895,-7.245,420,374,387,384,354,2025-05-28T17:30:25.504929
28857,-0.6124,0.9316,0.1669,-6.020,7.350,-4.760,380,420,390,345,387,2025-05-28T17:30:25.504929
28858,-0.6066,0.9418,0.1625,-8.050,8.120,-1.365,425,422,348,375,409,2025-05-28T17:30:25.504929
28859,-0.6071,0.9331,0.1488,-10.570,8.925,2.450,350,419,353,399,397,2025-05-28T17:30:25.504929
28860,-0.6046,0.9174,0.1405,-12.285,9.905,5.600,414,407,361,409,393,2025-05-28T17:30:25.504929
28861,-0.6071,0.8940,0.1366,-14.105,10.675,9.835,390,401,360,375,385,2025-05-28T17:30:25.504929
28862,-0.6105,0.8701,0.1288,-15.750,10.850,13.615,421,401,371,382,411,2025-05-28T17:30:25.779321
28863,-0.6012,0.8462,0.1240,-16.695,10.115,16.765,345,432,376,369,410,2025-05-28T17:30:25.779321
28864,-0.5958,0.8159,0.1240,-17.570,9.310,19.600,406,439,339,398,395,2025-05-28T17:30:25.779321
28865,-0.5832,0.7867,0.1274,-18.445,7.665,21.455,419,350,334,410,410,2025-05-28T17:30:25.779321
28866,-0.5666,0.7598,0.1322,-18.725,5.600,22.750,413,389,351,389,396,2025-05-28T17:30:25.780318
28867,-0.5485,0.7305,0.1420,-18.200,3.325,23.275,383,392,373,388,355,2025-05-28T17:30:25.780318
28868,-0.5246,0.7081,0.1513,-17.255,0.875,23.275,401,417,382,412,395,2025-05-28T17:30:25.780318
28869,-0.5017,0.6861,0.1562,-15.855,-0.910,22.190,398,412,370,357,394,2025-05-28T17:30:25.780318
28870,-0.4802,0.6681,0.1654,-13.510,-1.995,20.195,415,421,371,403,401,2025-05-28T17:30:25.780318
28871,-0.4612,0.6525,0.1752,-10.850,-2.450,18.095,413,433,379,393,379,2025-05-28T17:30:25.780318
28872,-0.4465,0.6456,0.1801,-8.190,-1.855,14.840,431,441,384,410,305,2025-05-28T17:30:25.780318
28873,-0.4314,0.6427,0.1874,-5.320,-0.140,10.780,420,390,377,417,352,2025-05-28T17:30:25.780318
28874,-0.4241,0.6412,0.1874,-2.905,2.660,6.335,427,423,381,402,396,2025-05-28T17:30:25.780318
28875,-0.4338,0.6471,0.1972,0.175,4.970,1.295,403,405,377,397,401,2025-05-28T17:30:25.780318
28876,-0.4402,0.6642,0.2001,3.115,7.840,-2.520,412,377,367,405,396,2025-05-28T17:30:25.780318
28877,-0.4480,0.6964,0.1991,5.915,10.640,-6.650,386,379,372,351,387,2025-05-28T17:30:25.780318
28878,-0.4782,0.7261,0.1986,9.135,12.985,-11.095,422,419,372,398,394,2025-05-28T17:30:25.780318
28879,-0.5046,0.7623,0.1981,12.005,14.000,-15.085,434,428,379,410,350,2025-05-28T17:30:25.780318
28880,-0.5397,0.8003,0.2045,14.735,13.860,-18.270,416,416,354,350,383,2025-05-28T17:30:25.780318
28881,-0.5563,0.8477,0.2030,15.855,13.475,-20.090,420,372,331,373,403,2025-05-28T17:30:25.780318
28882,-0.5739,0.8974,0.1937,15.540,13.685,-20.615,403,413,364,343,397,2025-05-28T17:30:25.904033
28883,-0.5939,0.9345,0.1884,13.650,15.330,-20.055,433,343,370,381,416,2025-05-28T17:30:25.904033
28884,-0.6159,0.9584,0.1757,10.115,17.290,-18.025,432,350,384,344,361,2025-05-28T17:30:25.904033
28885,-0.6373,0.9716,0.1698,5.355,18.445,-14.420,406,399,389,369,379,2025-05-28T17:30:25.904033
28886,-0.6681,0.9706,0.1591,1.260,18.025,-9.590,419,404,392,382,385,2025-05-28T17:30:25.904033
28887,-0.7003,0.9536,0.1415,-2.695,14.595,-4.620,417,401,345,341,395,2025-05-28T17:30:25.904033
28888,-0.7203,0.9306,0.1269,-4.760,9.135,0.455,421,415,358,406,393,2025-05-28T17:30:25.904033
28889,-0.7300,0.9106,0.1137,-5.145,-0.175,4.235,426,404,364,414,390,2025-05-28T17:30:25.904033
28890,-0.7115,0.8799,0.1035,-4.760,-9.380,8.190,423,396,373,415,397,2025-05-28T17:30:25.904033
28891,-0.6632,0.8477,0.0952,-4.165,-16.415,11.690,419,426,369,413,390,2025-05-28T17:30:25.904033
28892,-0.6080,0.8101,0.0927,-4.200,-19.740,14.350,312,377,374,358,386,2025-05-28T17:30:25.904033
28893,-0.5758,0.7603,0.0791,-4.025,-22.050,16.135,341,406,341,391,412,2025-05-28T17:30:25.904033
28894,-0.5388,0.7198,0.0781,-3.815,-23.030,16.450,424,352,359,380,414,2025-05-28T17:30:26.234302
28895,-0.4968,0.6827,0.0717,-4.865,-22.330,15.890,401,377,375,393,407,2025-05-28T17:30:26.234302
28896,-0.4494,0.6388,0.0556,-6.440,-19.705,14.035,392,420,384,303,384,2025-05-28T17:30:26.234302
28897,-0.4089,0.5968,0.0381,-7.770,-15.435,11.270,429,434,387,373,403,2025-05-28T17:30:26.234302
28898,-0.3845,0.5563,0.0322,-9.800,-11.690,7.840,416,425,392,386,390,2025-05-28T17:30:26.234302
28899,-0.3855,0.5104,0.0181,-11.690,-7.840,2.520,404,427,376,413,397,2025-05-28T17:30:26.234302
28900,-0.4416,0.4704,0.0390,-11.795,-8.120,-3.535,419,414,374,409,389,2025-05-28T17:30:26.234302
28901,-0.4900,0.4319,0.0532,-8.260,-15.820,-11.550,408,405,378,405,406,2025-05-28T17:30:26.234302
28902,-0.5407,0.3811,0.0634,-0.245,-30.100,-19.880,408,351,384,362,413,2025-05-28T17:30:26.234302
28903,-0.5729,0.3719,0.0761,9.310,-45.430,-29.785,412,358,351,374,366,2025-05-28T17:30:26.234302
28904,-0.5832,0.3460,0.0620,21.840,-56.035,-40.355,439,398,362,349,396,2025-05-28T17:30:26.234302
28905,-0.5705,0.3270,0.0839,34.895,-67.375,-49.035,359,338,378,401,409,2025-05-28T17:30:26.234302
28906,-0.5612,0.3572,0.1240,42.805,-74.725,-59.185,335,408,345,395,408,2025-05-28T17:30:26.234302
28907,-0.5685,0.3987,0.1723,44.975,-77.070,-68.530,400,429,361,406,358,2025-05-28T17:30:26.236615
28908,-0.5641,0.4592,0.2147,43.960,-78.680,-79.135,434,434,376,415,370,2025-05-28T17:30:26.236615
28909,-0.5612,0.6349,0.2250,40.810,-79.275,-88.725,393,426,375,407,369,2025-05-28T17:30:26.236615
28910,-0.5475,0.9672,0.2494,34.475,-75.670,-98.980,404,412,347,390,394,2025-05-28T17:30:26.236615
28911,-0.5402,1.3513,0.2708,21.595,-65.835,-106.820,426,414,370,406,397,2025-05-28T17:30:26.236615
28912,-0.5412,1.6924,0.3177,0.665,-56.105,-114.660,407,421,383,411,347,2025-05-28T17:30:26.236615
28913,-0.7100,2.0916,0.3479,-25.235,-58.975,-120.785,414,421,371,397,382,2025-05-28T17:30:26.236615
28914,-0.8730,2.4615,0.3841,-50.820,-82.950,-127.435,419,426,378,412,391,2025-05-28T17:30:26.424758
28915,-0.9501,2.8899,0.3831,-74.445,-119.595,-131.950,421,419,380,357,389,2025-05-28T17:30:26.424758
28916,-1.0375,3.3062,0.3836,-98.700,-164.255,-127.855,391,338,385,368,370,2025-05-28T17:30:26.424758
28917,-1.0331,3.6210,0.4255,-132.440,-212.625,-108.675,425,409,382,406,401,2025-05-28T17:30:26.424758
28918,-1.1278,3.8308,0.4773,-162.820,-253.750,-75.775,409,416,393,415,404,2025-05-28T17:30:26.424758
28919,-1.1980,3.9450,0.3343,-182.875,-298.305,-49.560,390,409,391,395,389,2025-05-28T17:30:26.424758
28920,-1.1585,3.8596,0.1688,-201.075,-330.155,-22.400,422,426,379,410,405,2025-05-28T17:30:26.424758
28921,-0.7422,3.5819,-0.3777,-199.500,-360.395,31.115,414,430,381,407,408,2025-05-28T17:30:26.424758
28922,-0.6681,3.2208,-0.5973,-187.005,-365.680,82.110,431,406,351,344,406,2025-05-28T17:30:26.424758
28923,-0.6403,2.9295,-0.6612,-177.205,-353.570,109.095,407,420,374,337,402,2025-05-28T17:30:26.424758
28924,-0.6934,2.7538,-0.7349,-173.390,-329.840,117.670,402,353,367,382,356,2025-05-28T17:30:26.424758
28925,-0.6847,2.4273,-0.8418,-175.840,-309.610,105.210,408,403,374,357,376,2025-05-28T17:30:26.424758
28926,-0.6315,2.1589,-0.8735,-179.830,-279.650,73.080,423,392,335,325,396,2025-05-28T17:30:26.424758
28927,-0.6339,1.7119,-0.9189,-187.810,-252.035,35.735,386,397,366,391,406,2025-05-28T17:30:26.424758
28928,-0.3884,1.1854,-1.0365,-195.300,-234.605,-27.930,397,339,376,346,408,2025-05-28T17:30:26.424758
28929,0.0815,0.4763,-1.1922,-199.325,-220.430,-106.505,303,405,370,347,405,2025-05-28T17:30:26.424758
28930,0.5549,-0.2889,-1.1078,-200.480,-190.820,-192.395,389,422,385,400,374,2025-05-28T17:30:26.424758
28931,0.7344,-1.3025,-0.8877,-213.640,-149.205,-278.915,380,377,372,389,337,2025-05-28T17:30:26.424758
28932,0.8696,-2.4000,-0.5100,-233.590,-134.155,-361.445,427,404,336,301,373,2025-05-28T17:30:26.424758
28933,0.7071,-4.1704,-0.0425,-282.100,-144.970,-437.675,434,403,355,359,397,2025-05-28T17:30:26.662432
28934,0.8311,-6.2903,0.4851,-309.085,-221.970,-489.965,415,419,376,345,406,2025-05-28T17:30:26.662432
28935,0.9399,-6.7080,0.9409,-300.895,-313.740,-470.400,431,412,354,350,315,2025-05-28T17:30:26.662432
28936,1.4279,-5.5417,-0.1200,-194.250,-345.380,-423.430,417,404,331,364,337,2025-05-28T17:30:26.662432
28937,3.4180,-2.7484,-1.2424,30.940,-224.385,-315.630,405,391,363,334,343,2025-05-28T17:30:26.662432
28938,3.6571,-1.1439,0.0332,134.645,102.515,-132.790,399,390,335,380,342,2025-05-28T17:30:26.663433
28939,3.0002,0.1659,0.3177,46.130,454.685,137.795,358,399,354,394,397,2025-05-28T17:30:26.663433
28940,1.5518,-0.5666,0.3787,-76.370,671.510,313.390,412,428,371,403,380,2025-05-28T17:30:26.663433
28941,0.7686,-1.4142,0.5002,-94.080,693.000,357.980,406,437,379,345,394,2025-05-28T17:30:26.663433
28942,-0.3587,-1.8490,0.9052,-62.300,615.510,345.625,409,424,343,371,385,2025-05-28T17:30:26.663433
28943,-0.7935,-1.9886,1.2790,-14.700,506.695,314.125,399,399,355,383,394,2025-05-28T17:30:26.663433
28944,-0.9711,-1.8300,1.1922,25.935,405.300,317.730,425,424,338,408,405,2025-05-28T17:30:26.664161
28945,-1.3425,-1.7309,1.1580,62.650,322.770,314.090,398,307,362,360,389,2025-05-28T17:30:26.664161
28946,-1.5187,-1.3669,1.0375,90.510,259.840,300.860,412,411,359,380,398,2025-05-28T17:30:26.664161
28947,-1.3337,-0.8433,0.9355,75.915,213.990,297.290,401,388,336,300,346,2025-05-28T17:30:26.664161
28948,-1.1141,-0.3850,0.7208,59.710,206.290,309.680,408,392,333,371,372,2025-05-28T17:30:26.664161
28949,-1.1107,-0.2274,0.5636,43.400,208.915,305.340,366,344,314,366,383,2025-05-28T17:30:26.664161
28950,-0.9936,-0.1381,0.3967,41.440,213.885,290.885,422,394,311,383,396,2025-05-28T17:30:26.664161
28951,-0.8926,-0.0644,0.2230,58.275,206.885,277.130,360,389,351,384,396,2025-05-28T17:30:26.664161
28952,-0.7335,0.0834,-0.0073,86.485,189.945,260.085,379,424,367,379,402,2025-05-28T17:30:26.848162
28953,-0.5007,0.4939,-0.0264,101.815,183.295,247.450,409,413,378,355,406,2025-05-28T17:30:26.848162
28954,-0.4060,0.7584,0.0215,94.780,174.230,243.180,397,421,377,384,392,2025-05-28T17:30:26.848162
28955,-0.4319,0.8228,0.0756,82.355,150.255,241.535,369,391,376,415,388,2025-05-28T17:30:26.848162
28956,-0.4675,0.6974,0.0415,84.070,110.285,232.330,355,422,376,409,389,2025-05-28T17:30:26.848162
28957,-0.3475,0.6246,-0.0346,89.880,70.490,217.420,416,427,375,405,400,2025-05-28T17:30:26.848162
28958,-0.2347,0.6827,-0.1474,108.430,39.970,197.400,421,421,379,413,402,2025-05-28T17:30:26.848162
28959,-0.0142,0.7139,-0.2401,131.775,29.470,193.235,355,340,342,409,408,2025-05-28T17:30:26.848162
28960,0.2445,0.9087,-0.3157,151.830,30.345,180.180,389,383,360,398,396,2025-05-28T17:30:26.848162
28961,0.3250,1.1053,-0.2450,152.775,37.345,169.785,426,407,382,424,356,2025-05-28T17:30:26.848162
28962,0.3182,1.1629,-0.1820,133.175,40.950,163.380,406,349,382,420,393,2025-05-28T17:30:26.848162
28963,0.2806,1.1761,-0.2025,118.160,36.260,152.810,430,384,378,425,402,2025-05-28T17:30:26.848162
28964,0.2391,1.1663,-0.2743,116.130,18.795,130.795,426,375,339,405,390,2025-05-28T17:30:26.848162
28965,0.2294,1.2830,-0.2372,118.860,21.980,101.185,403,396,363,402,351,2025-05-28T17:30:26.848162
28966,0.2655,1.5001,-0.1596,115.990,25.410,78.435,408,347,375,342,374,2025-05-28T17:30:26.848162
28967,0.3045,1.7314,0.0073,105.315,29.820,54.215,352,406,306,384,386,2025-05-28T17:30:26.848162
28968,0.2899,2.0525,0.1698,82.740,30.520,39.550,401,411,340,345,380,2025-05-28T17:30:26.848162
28969,0.2279,2.2985,0.3499,56.910,29.855,28.700,427,402,370,372,355,2025-05-28T17:30:26.848162
28970,0.1254,2.4263,0.5007,22.715,28.805,15.330,355,410,366,361,368,2025-05-28T17:30:26.848162
28971,0.0371,2.4190,0.5973,-5.880,22.855,-6.405,380,377,380,364,384,2025-05-28T17:30:26.848162
28972,-0.0381,2.4127,0.6349,-26.355,8.015,-11.410,396,383,379,381,408,2025-05-28T17:30:27.113114
28973,-0.1181,2.2712,0.5783,-40.250,-10.080,-22.260,429,408,395,394,420,2025-05-28T17:30:27.113114
28974,-0.1405,2.0057,0.5017,-46.865,-26.495,-30.310,433,401,375,407,400,2025-05-28T17:30:27.113114
28975,-0.0981,1.7588,0.4011,-45.990,-36.925,-31.220,362,416,374,390,406,2025-05-28T17:30:27.113114
28976,-0.0878,1.4923,0.2552,-40.845,-41.020,-24.815,372,409,388,354,367,2025-05-28T17:30:27.113114
28977,-0.1635,1.2176,0.2352,-32.095,-42.140,-20.230,337,425,390,393,376,2025-05-28T17:30:27.113114
28978,-0.2206,1.0175,0.2362,-29.645,-41.895,-16.660,397,422,394,397,381,2025-05-28T17:30:27.421384
28979,-0.2289,0.8481,0.1752,-30.695,-38.780,-12.985,395,429,383,411,405,2025-05-28T17:30:27.421384
28980,-0.2650,0.7354,0.1249,-29.820,-31.080,-8.435,421,422,382,410,404,2025-05-28T17:30:27.421384
28981,-0.3143,0.6256,0.1161,-27.545,-22.540,-3.640,407,424,379,407,386,2025-05-28T17:30:27.421384
28982,-0.3372,0.5573,0.1010,-25.585,-16.415,1.295,420,385,384,413,388,2025-05-28T17:30:27.421384
28983,-0.3450,0.5319,0.0600,-22.575,-12.180,5.985,421,417,370,421,409,2025-05-28T17:30:27.421384
28984,-0.3499,0.5158,0.0439,-17.010,-8.995,9.380,407,423,339,350,392,2025-05-28T17:30:27.421384
28985,-0.3640,0.5192,0.0342,-10.990,-3.920,10.990,419,397,360,336,393,2025-05-28T17:30:27.421384
28986,-0.3782,0.5290,0.0224,-5.845,1.645,10.990,409,412,336,392,414,2025-05-28T17:30:27.421384
28987,-0.3782,0.5866,0.0268,-3.465,7.350,10.290,426,406,352,400,382,2025-05-28T17:30:27.421384
28988,-0.3767,0.6598,0.0132,-1.330,13.020,9.940,429,420,332,409,380,2025-05-28T17:30:27.421384
28989,-0.3880,0.7091,0.0342,0.385,20.055,8.750,363,422,353,404,407,2025-05-28T17:30:27.421384
28990,-0.3982,0.7398,0.0712,1.855,23.940,7.875,395,423,372,423,387,2025-05-28T17:30:27.421384
28991,-0.4592,0.7481,0.1093,1.995,23.380,5.635,406,356,335,393,397,2025-05-28T17:30:27.421384
28992,-0.4812,0.7852,0.1620,0.700,18.410,2.870,405,398,353,344,408,2025-05-28T17:30:27.421384
28993,-0.4890,0.8286,0.1679,0.700,12.145,-0.490,414,377,363,377,405,2025-05-28T17:30:27.421384
28994,-0.4943,0.8730,0.1923,3.150,7.140,-4.725,429,394,346,406,412,2025-05-28T17:30:27.421384
28995,-0.4812,0.9409,0.2152,5.180,1.960,-7.210,390,421,358,423,413,2025-05-28T17:30:27.421384
28996,-0.4660,0.9819,0.2211,5.775,-1.820,-9.170,424,424,370,413,354,2025-05-28T17:30:27.421384
28997,-0.4460,1.0121,0.2216,5.810,-3.255,-10.500,414,412,370,402,337,2025-05-28T17:30:27.421384
28998,-0.4446,1.0111,0.2216,5.425,-2.205,-10.920,437,343,369,389,384,2025-05-28T17:30:27.421384
28999,-0.4338,1.0067,0.2391,2.940,-0.490,-10.045,421,407,367,406,390,2025-05-28T17:30:27.421384
29000,-0.4460,0.9819,0.2396,-0.735,0.420,-8.820,421,400,338,389,384,2025-05-28T17:30:27.421384
29001,-0.4490,0.9648,0.2333,-3.255,-1.050,-7.735,435,432,367,387,382,2025-05-28T17:30:27.421384
29002,-0.4509,0.9418,0.2269,-4.060,-4.305,-6.265,425,427,382,368,390,2025-05-28T17:30:27.421384
29003,-0.4475,0.9116,0.2137,-3.605,-8.225,-5.005,422,372,375,403,408,2025-05-28T17:30:27.421384
29004,-0.4412,0.8799,0.2113,-2.800,-11.515,-4.550,415,412,339,409,402,2025-05-28T17:30:27.421384
29005,-0.4182,0.8589,0.1981,-2.765,-13.720,-4.375,405,418,326,418,394,2025-05-28T17:30:27.421384
29006,-0.4070,0.8359,0.1962,-2.520,-13.755,-4.655,407,345,347,393,392,2025-05-28T17:30:27.421384
29007,-0.3938,0.8145,0.1932,-1.890,-12.180,-5.145,378,404,375,414,365,2025-05-28T17:30:27.421384
29008,-0.4046,0.8003,0.2006,-1.820,-10.080,-5.775,404,348,348,398,376,2025-05-28T17:30:27.421384
29009,-0.4114,0.7930,0.1903,-1.960,-9.065,-6.685,394,398,374,424,403,2025-05-28T17:30:27.421384
29010,-0.4187,0.7696,0.1742,0.105,-9.135,-7.630,426,426,344,422,416,2025-05-28T17:30:27.421384
29011,-0.4265,0.7671,0.1874,1.890,-9.940,-8.645,428,388,365,402,404,2025-05-28T17:30:27.421384
29012,-0.4231,0.7515,0.1845,2.450,-10.150,-9.660,408,405,365,401,386,2025-05-28T17:30:27.421384
29013,-0.4338,0.7335,0.1742,4.165,-11.165,-11.305,372,404,381,413,349,2025-05-28T17:30:27.570107
29014,-0.4494,0.7135,0.1674,8.890,-13.405,-13.370,418,306,387,410,383,2025-05-28T17:30:27.570107
29015,-0.4412,0.6978,0.1728,10.430,-14.840,-15.750,395,386,392,403,341,2025-05-28T17:30:27.570343
29016,-0.4211,0.6798,0.1596,9.590,-13.825,-18.375,400,418,386,389,380,2025-05-28T17:30:27.570343
29017,-0.4124,0.6334,0.1347,9.205,-10.535,-21.665,348,303,384,368,393,2025-05-28T17:30:27.570343
29018,-0.4050,0.5797,0.1264,8.505,-7.000,-25.935,392,401,348,342,410,2025-05-28T17:30:27.570343
29019,-0.4041,0.5153,0.1210,6.405,-5.600,-29.330,398,414,372,385,359,2025-05-28T17:30:27.570343
29020,-0.4114,0.4470,0.1176,4.340,-7.035,-32.865,420,407,372,395,333,2025-05-28T17:30:27.571065
29021,-0.4011,0.3958,0.1113,2.135,-9.625,-36.855,408,348,340,371,373,2025-05-28T17:30:27.571065
29022,-0.3982,0.3411,0.1196,-0.175,-13.685,-40.530,417,402,363,379,382,2025-05-28T17:30:27.571065
29023,-0.4441,0.3011,0.1327,-0.700,-23.730,-44.625,431,416,374,397,409,2025-05-28T17:30:27.571065
29024,-0.5114,0.2630,0.1474,2.065,-41.965,-50.120,436,423,378,371,409,2025-05-28T17:30:27.571065
29025,-0.5573,0.2967,0.1430,8.470,-66.885,-56.315,408,360,351,370,399,2025-05-28T17:30:27.571065
29026,-0.6012,0.4036,0.1122,16.205,-90.370,-68.180,401,410,376,394,412,2025-05-28T17:30:27.571602
29027,-0.6154,0.5348,0.0996,26.810,-106.260,-85.085,431,405,372,397,395,2025-05-28T17:30:27.571602
29028,-0.6124,0.7178,0.1074,36.680,-123.410,-101.150,409,400,346,356,386,2025-05-28T17:30:27.571602
29029,-0.5880,1.0570,0.1176,38.220,-138.530,-122.675,404,430,321,382,386,2025-05-28T17:30:27.571602
29030,-0.4919,1.4084,0.2006,25.305,-143.535,-141.645,361,392,354,406,389,2025-05-28T17:30:27.571602
29031,-0.5207,2.0935,0.3133,-15.470,-140.420,-172.060,390,406,365,412,348,2025-05-28T17:30:27.571602
29032,-0.5983,2.7728,0.3606,-55.405,-133.875,-195.825,411,414,345,390,393,2025-05-28T17:30:27.571602
29033,-0.6930,3.4716,0.4128,-81.795,-135.240,-211.540,352,417,354,365,383,2025-05-28T17:30:27.739320
29034,-0.8252,4.0694,0.6407,-107.940,-145.005,-205.065,396,379,371,388,410,2025-05-28T17:30:27.739320
29035,-0.9575,4.5945,0.9550,-155.330,-167.125,-164.920,427,337,377,385,406,2025-05-28T17:30:27.739320
29036,-1.1488,4.8190,1.0204,-182.420,-223.475,-99.225,421,398,347,405,393,2025-05-28T17:30:27.739320
29037,-1.2869,4.9356,0.7862,-183.785,-305.060,-50.820,426,426,326,415,392,2025-05-28T17:30:27.739320
29038,-1.2517,4.8156,0.2987,-176.050,-398.405,12.635,396,419,349,397,413,2025-05-28T17:30:27.739320
29039,-0.8823,4.5399,-0.2318,-163.975,-465.255,84.980,417,415,369,390,375,2025-05-28T17:30:27.739320
29040,-0.6549,4.1075,-0.6769,-149.135,-485.030,148.645,417,413,362,413,386,2025-05-28T17:30:27.739320
29041,-0.6744,3.5214,-1.0272,-133.595,-483.140,185.220,418,435,370,415,379,2025-05-28T17:30:27.739320
29042,-0.5841,3.1295,-1.2361,-122.115,-461.930,179.830,421,427,378,417,382,2025-05-28T17:30:27.739320
29043,-0.2372,2.6801,-1.3888,-129.255,-422.030,135.625,438,306,353,390,358,2025-05-28T17:30:27.739320
29044,-0.0478,2.0696,-1.2546,-150.710,-341.670,43.540,357,396,332,404,392,2025-05-28T17:30:27.739320
29045,-0.0020,1.1556,-1.1990,-177.870,-257.915,-65.310,400,378,356,419,390,2025-05-28T17:30:27.739320
29046,0.3972,0.5295,-1.1414,-215.180,-207.725,-196.805,401,420,380,397,379,2025-05-28T17:30:27.739320
29047,0.7774,-0.8657,-1.2215,-251.230,-202.160,-311.570,427,422,395,341,389,2025-05-28T17:30:27.739320
29048,0.9980,-2.5405,-1.1004,-302.470,-230.755,-432.565,427,344,388,397,403,2025-05-28T17:30:27.941922
29049,1.6036,-4.6399,-0.4260,-381.535,-255.955,-530.600,429,380,363,404,371,2025-05-28T17:30:27.942921
29050,1.9403,-7.5884,0.2367,-454.615,-279.685,-600.740,421,394,367,346,377,2025-05-28T17:30:27.942921
29051,1.3776,-9.6443,1.3581,-477.610,-376.425,-591.500,416,360,344,352,358,2025-05-28T17:30:27.942921
29052,1.7714,-7.9168,0.2957,-438.375,-526.890,-543.550,420,405,357,371,381,2025-05-28T17:30:27.942921
29053,3.8996,-3.6390,-3.3740,23.905,-382.340,-612.220,429,397,357,386,398,2025-05-28T17:30:27.942921
29054,2.5625,0.6734,-0.3528,145.565,76.860,-213.325,441,341,367,399,401,2025-05-28T17:30:27.942921
29055,2.5630,1.4440,0.0551,38.465,360.850,218.820,429,326,342,407,393,2025-05-28T17:30:27.942921
29056,1.5670,0.2435,0.4660,-100.275,618.730,482.055,421,382,363,388,384,2025-05-28T17:30:27.942921
29057,0.7979,-1.6416,1.0858,-80.080,587.720,415.240,391,402,379,398,348,2025-05-28T17:30:27.943959
29058,0.4509,-2.0842,1.1844,10.640,471.380,338.660,435,414,395,402,384,2025-05-28T17:30:27.943959
29059,0.1352,-1.7197,1.4469,59.605,342.405,292.145,373,428,350,410,392,2025-05-28T17:30:27.943959
29060,-0.2133,-1.6553,1.4425,68.145,285.460,278.705,379,405,364,401,390,2025-05-28T17:30:27.943959
29061,-0.5510,-1.5718,1.2220,92.155,227.185,266.245,414,431,373,382,399,2025-05-28T17:30:27.943959
29062,-0.3465,-1.2654,1.0165,115.010,175.385,249.620,424,353,366,404,375,2025-05-28T17:30:27.943959
29063,-0.2279,-1.0570,0.8237,98.245,185.115,243.285,409,383,359,409,389,2025-05-28T17:30:27.943959
29064,-0.1810,-0.6256,0.6891,74.620,249.410,246.610,408,391,367,415,398,2025-05-28T17:30:28.188954
29065,-0.3016,-0.3680,0.5998,64.890,308.770,247.625,417,419,384,400,361,2025-05-28T17:30:28.188954
29066,-0.5124,-0.2523,0.5212,64.225,338.205,243.320,434,428,371,401,391,2025-05-28T17:30:28.188954
29067,-0.5451,-0.1586,0.4626,77.805,340.025,236.075,410,411,383,417,402,2025-05-28T17:30:28.188954
29068,-0.5251,0.0117,0.3572,103.250,314.685,228.410,429,413,384,418,400,2025-05-28T17:30:28.188954
29069,-0.4924,0.1732,0.1889,129.080,294.700,215.180,442,438,354,419,393,2025-05-28T17:30:28.188954
29070,-0.3987,0.3943,0.0156,137.795,288.050,202.825,407,402,360,411,399,2025-05-28T17:30:28.188954
29071,-0.2264,0.5573,-0.0864,132.160,284.235,197.295,396,417,374,375,391,2025-05-28T17:30:28.188954
29072,-0.2264,0.5602,-0.1859,122.990,274.505,195.055,402,394,382,403,351,2025-05-28T17:30:28.188954
29073,-0.2206,0.5583,-0.1796,111.720,256.375,192.885,403,401,381,405,364,2025-05-28T17:30:28.188954
29074,-0.2352,0.5080,-0.2152,109.375,237.650,186.305,432,425,341,393,395,2025-05-28T17:30:28.188954
29075,-0.2147,0.5470,-0.3065,115.500,209.335,179.095,424,388,370,411,400,2025-05-28T17:30:28.188954
29076,-0.2377,0.5929,-0.4060,130.830,181.195,171.010,430,404,378,418,410,2025-05-28T17:30:28.188954
29077,-0.2977,0.6920,-0.3636,145.740,148.680,162.330,428,419,378,420,369,2025-05-28T17:30:28.188954
29078,-0.2133,0.9155,-0.4856,149.625,117.250,154.000,412,298,384,360,385,2025-05-28T17:30:28.188954
29079,-0.1889,1.0795,-0.4451,147.420,99.120,139.755,410,376,344,389,407,2025-05-28T17:30:28.188954
29080,-0.0776,1.2493,-0.4412,143.675,98.525,120.645,412,421,371,401,353,2025-05-28T17:30:28.188954
29081,-0.0332,1.4103,-0.3699,135.940,110.635,103.565,419,406,380,393,330,2025-05-28T17:30:28.188954
29082,-0.1010,1.5738,-0.2591,124.215,121.695,82.250,422,425,378,409,385,2025-05-28T17:30:28.188954
29083,-0.2347,1.8515,-0.1664,117.110,126.875,74.795,406,352,368,370,388,2025-05-28T17:30:28.408354
29084,-0.3235,2.3395,0.0093,106.435,122.605,60.900,404,345,363,388,403,2025-05-28T17:30:28.408354
29085,-0.4163,2.6425,0.1318,90.790,113.750,50.295,412,393,378,407,390,2025-05-28T17:30:28.408354
29086,-0.4748,2.9490,0.2762,62.125,105.385,40.040,409,415,383,406,410,2025-05-28T17:30:28.408354
29087,-0.5417,3.0920,0.4982,17.990,91.000,32.480,431,416,379,409,417,2025-05-28T17:30:28.408354
29088,-0.6720,3.0715,0.6476,-18.550,68.705,29.225,402,416,389,351,353,2025-05-28T17:30:28.408354
29089,-0.7364,2.7679,0.6324,-57.120,39.865,23.975,413,407,385,374,396,2025-05-28T17:30:28.408354
29090,-0.7613,2.3053,0.5431,-77.350,-2.975,21.000,426,385,391,381,412,2025-05-28T17:30:28.408354
29091,-0.6930,1.9593,0.3743,-83.160,-40.145,15.575,429,418,396,409,392,2025-05-28T17:30:28.409395
29092,-0.4782,1.6133,0.2006,-76.615,-62.790,16.380,404,427,397,385,389,2025-05-28T17:30:28.409395
29093,-0.3245,1.2825,0.1127,-62.650,-70.700,30.065,408,378,399,381,379,2025-05-28T17:30:28.409395
29094,-0.2884,0.9960,0.1078,-52.430,-70.875,42.945,425,410,384,386,404,2025-05-28T17:30:28.409395
29095,-0.2821,0.7906,0.1088,-45.080,-69.125,47.740,401,395,373,406,415,2025-05-28T17:30:28.409395
29096,-0.2416,0.6212,0.0908,-43.540,-65.625,48.125,410,415,370,366,411,2025-05-28T17:30:28.409395
29097,-0.1903,0.3914,0.0420,-42.770,-60.305,46.865,418,424,331,395,356,2025-05-28T17:30:28.409395
29098,-0.1562,0.3860,-0.0298,-39.900,-54.565,39.060,425,416,354,372,372,2025-05-28T17:30:28.410501
29099,-0.1015,0.2625,-0.0791,-28.035,-46.445,31.710,413,387,357,385,398,2025-05-28T17:30:28.410501
29100,-0.0781,0.2411,-0.0795,-22.225,-35.175,22.050,412,352,370,397,385,2025-05-28T17:30:28.561994
29101,-0.0517,0.2347,-0.0800,-20.615,-20.685,10.570,408,407,383,397,345,2025-05-28T17:30:28.561994
29102,-0.0425,0.2513,-0.0800,-19.600,-8.855,-0.350,420,357,384,386,388,2025-05-28T17:30:28.561994
29103,-0.0649,0.2845,-0.1098,-15.400,3.990,-10.185,366,422,383,395,384,2025-05-28T17:30:28.561994
29104,-0.1088,0.4236,-0.1488,-4.235,16.100,-22.575,360,377,373,401,343,2025-05-28T17:30:28.561994
29105,-0.1669,0.6461,-0.1479,6.650,27.055,-34.370,395,391,376,400,384,2025-05-28T17:30:28.561994
29106,-0.2494,0.8384,-0.0747,11.305,32.655,-41.300,426,412,353,401,382,2025-05-28T17:30:28.561994
29107,-0.3362,0.9994,0.0439,12.425,30.835,-40.565,409,415,371,410,402,2025-05-28T17:30:28.561994
29108,-0.4275,1.0975,0.1723,9.590,22.225,-27.195,358,407,382,402,354,2025-05-28T17:30:28.561994
29109,-0.5812,1.1346,0.2728,6.580,5.985,-30.695,388,422,377,345,389,2025-05-28T17:30:28.561994
29110,-0.6622,1.1658,0.3377,5.320,-15.400,-26.705,422,412,348,401,350,2025-05-28T17:30:28.561994
29111,-0.6730,1.1912,0.3626,6.790,-34.405,-24.290,427,342,369,391,381,2025-05-28T17:30:28.561994
29112,-0.6071,1.2263,0.3494,7.210,-44.695,-21.980,426,332,337,386,386,2025-05-28T17:30:28.561994
29113,-0.5241,1.2268,0.2948,6.335,-45.850,-17.325,364,379,360,365,402,2025-05-28T17:30:28.561994
29114,-0.4758,1.1878,0.2752,4.515,-37.835,-13.055,355,393,378,348,390,2025-05-28T17:30:28.561994
29115,-0.4368,1.1302,0.2747,-0.805,-23.940,-8.680,380,400,371,381,400,2025-05-28T17:30:28.922617
29116,-0.4187,1.0458,0.2625,-9.030,-7.770,-4.165,363,385,359,338,359,2025-05-28T17:30:28.922617
29117,-0.3992,0.9804,0.2186,-17.255,8.295,0.490,386,417,373,369,367,2025-05-28T17:30:28.922617
29118,-0.4387,0.8823,0.1962,-21.245,19.180,3.080,343,426,372,347,338,2025-05-28T17:30:28.922617
29119,-0.4778,0.7774,0.2001,-22.365,20.370,4.410,391,400,372,335,380,2025-05-28T17:30:28.922617
29120,-0.5129,0.6852,0.1879,-19.880,14.000,4.410,415,414,377,377,390,2025-05-28T17:30:28.922617
29121,-0.5285,0.6163,0.1781,-13.860,1.085,3.220,408,352,379,396,415,2025-05-28T17:30:28.922617
29122,-0.5022,0.5841,0.1630,-6.685,-12.810,0.350,395,327,380,397,401,2025-05-28T17:30:28.922617
29123,-0.4587,0.5832,0.1371,1.575,-22.400,-2.695,403,382,392,388,409,2025-05-28T17:30:28.922617
29124,-0.3992,0.5817,0.1225,6.685,-26.565,-5.495,403,389,383,383,388,2025-05-28T17:30:28.922617
29125,-0.3772,0.5807,0.1176,10.850,-26.390,-8.330,379,412,341,390,404,2025-05-28T17:30:28.922617
29126,-0.3670,0.5793,0.1088,13.615,-21.840,-11.305,417,424,325,399,407,2025-05-28T17:30:28.922617
29127,-0.3538,0.5739,0.1137,15.295,-13.895,-15.540,429,435,348,351,400,2025-05-28T17:30:28.922617
29128,-0.3626,0.5988,0.1244,16.030,-4.515,-20.020,389,417,320,378,402,2025-05-28T17:30:29.393110
29129,-0.3904,0.6017,0.1283,17.675,3.185,-22.645,407,398,363,402,413,2025-05-28T17:30:29.393110
29130,-0.4260,0.5905,0.1322,21.210,5.320,-23.520,424,422,379,392,399,2025-05-28T17:30:29.393110
29131,-0.4504,0.5944,0.1362,25.550,3.360,-25.060,404,411,384,405,388,2025-05-28T17:30:29.393110
29132,-0.4729,0.6090,0.1396,29.400,-0.875,-26.810,424,416,373,408,350,2025-05-28T17:30:29.393110
29133,-0.4826,0.6124,0.1322,31.815,-4.760,-29.505,433,420,385,404,376,2025-05-28T17:30:29.393110
29134,-0.4817,0.6320,0.1293,32.620,-7.175,-32.235,440,349,377,410,345,2025-05-28T17:30:29.393110
29135,-0.4470,0.6515,0.1108,31.500,-7.350,-34.790,349,380,371,397,365,2025-05-28T17:30:29.393110
29136,-0.4216,0.6661,0.0859,29.680,-5.810,-36.680,412,348,376,358,382,2025-05-28T17:30:29.393110
29137,-0.4187,0.6373,0.0722,28.455,-4.165,-37.940,398,424,383,390,384,2025-05-28T17:30:29.393110
29138,-0.4563,0.5836,0.0810,26.845,-4.270,-40.495,426,399,384,367,372,2025-05-28T17:30:29.393110
29139,-0.5026,0.5363,0.1103,23.555,-11.340,-44.625,429,423,389,389,395,2025-05-28T17:30:29.393110
29140,-0.5436,0.5090,0.1288,18.690,-24.640,-48.615,408,425,388,397,387,2025-05-28T17:30:29.393110
29141,-0.6320,0.4856,0.1391,16.310,-41.545,-56.350,427,404,392,395,403,2025-05-28T17:30:29.393110
29142,-0.6866,0.6066,0.1420,17.010,-59.325,-68.845,403,335,387,411,348,2025-05-28T17:30:29.393110
29143,-0.7671,0.8311,0.1362,21.770,-72.205,-82.880,377,378,387,401,383,2025-05-28T17:30:29.393110
29144,-0.8281,1.1019,0.1791,23.275,-86.870,-94.185,345,397,373,412,392,2025-05-28T17:30:29.393110
29145,-0.8721,1.2722,0.1928,21.910,-99.750,-106.995,371,399,367,402,390,2025-05-28T17:30:29.393110
29146,-0.9248,1.4879,0.2338,19.670,-113.050,-121.485,398,345,377,406,411,2025-05-28T17:30:29.393110
29147,-0.9911,1.8910,0.3621,7.595,-130.690,-139.895,425,387,382,401,409,2025-05-28T17:30:29.393110
29148,-0.9941,2.4517,0.2977,-5.110,-140.385,-156.975,397,385,368,368,406,2025-05-28T17:30:29.393110
29149,-0.9682,2.9480,0.2850,-23.765,-141.785,-171.570,416,417,370,381,408,2025-05-28T17:30:29.393110
29150,-0.9140,3.2955,0.3909,-54.670,-144.165,-171.780,416,431,361,405,407,2025-05-28T17:30:29.393110
29151,-0.8862,3.6244,0.5529,-103.355,-161.630,-155.470,425,418,375,412,408,2025-05-28T17:30:29.393110
29152,-1.0146,3.9269,0.5841,-147.000,-209.860,-116.165,378,346,369,388,414,2025-05-28T17:30:29.393110
29153,-1.2410,4.2183,0.4987,-170.870,-296.555,-79.205,415,415,372,347,392,2025-05-28T17:30:29.393110
29154,-1.3230,4.3910,0.2684,-179.935,-399.630,-32.795,432,361,331,380,417,2025-05-28T17:30:29.393110
29155,-0.9989,4.0963,-0.1171,-185.535,-498.015,23.135,409,392,361,387,413,2025-05-28T17:30:29.393110
29156,-0.5827,3.8123,-0.6461,-181.650,-538.720,87.185,426,396,377,401,416,2025-05-28T17:30:29.393110
29157,-0.4612,3.5014,-1.2220,-165.655,-523.495,134.820,369,393,381,396,381,2025-05-28T17:30:29.393110
29158,-0.3152,3.2286,-1.5016,-148.890,-466.130,150.850,393,406,383,407,388,2025-05-28T17:30:29.393110
29159,-0.4426,2.9270,-1.5528,-144.025,-409.010,129.745,362,424,342,371,391,2025-05-28T17:30:29.393110
29160,-0.5568,2.5542,-1.4347,-148.645,-360.675,72.695,393,433,366,410,408,2025-05-28T17:30:29.393110
29161,-0.6271,1.9593,-1.2420,-157.325,-345.835,15.295,416,425,382,420,414,2025-05-28T17:30:29.393110
29162,-0.6495,1.4064,-1.1546,-159.565,-351.750,-101.815,426,430,377,409,397,2025-05-28T17:30:29.393110
29163,-0.1488,0.6608,-1.2483,-173.005,-360.815,-234.430,432,385,363,410,353,2025-05-28T17:30:29.393110
29164,0.7193,-0.2338,-1.3000,-207.130,-356.055,-339.710,351,398,373,389,376,2025-05-28T17:30:29.393110
29165,1.4045,-1.6011,-1.4542,-267.925,-336.595,-419.650,339,341,385,387,403,2025-05-28T17:30:29.393110
29166,2.0559,-4.1934,-1.2717,-356.580,-299.635,-496.580,408,404,356,345,385,2025-05-28T17:30:29.393110
29167,2.7206,-7.6299,0.3484,-449.540,-270.305,-591.815,425,423,368,357,381,2025-05-28T17:30:29.393110
29168,3.0368,-9.0558,1.9286,-528.255,-320.915,-580.615,423,397,369,397,396,2025-05-28T17:30:29.393110
29169,2.7064,-8.2160,-0.2523,-453.810,-372.155,-592.200,365,406,369,407,392,2025-05-28T17:30:29.393110
29170,4.3442,-4.5184,-2.0877,-26.670,-252.630,-560.735,393,401,367,396,384,2025-05-28T17:30:29.393110
29171,1.0063,-0.0420,1.0375,149.905,110.530,-211.050,426,417,373,403,384,2025-05-28T17:30:29.393110
29172,1.8495,1.4172,-0.4514,115.010,212.625,247.660,438,414,385,409,390,2025-05-28T17:30:29.393110
29173,2.3112,0.5031,0.8535,58.695,367.185,424.550,447,422,398,405,395,2025-05-28T17:30:29.393110
29174,0.9823,-0.9506,1.7656,-4.200,424.935,377.720,429,395,391,405,401,2025-05-28T17:30:29.539175
29175,1.7246,-1.5962,1.5089,-5.460,421.505,297.255,416,419,389,399,391,2025-05-28T17:30:29.539175
29176,1.2605,-1.1497,1.5592,34.160,402.080,251.020,406,400,386,391,408,2025-05-28T17:30:29.539175
29177,0.8316,-0.9345,1.5587,48.405,361.410,231.805,428,369,374,409,408,2025-05-28T17:30:29.539175
29178,0.1303,-1.0692,1.5108,62.860,317.030,210.455,404,372,338,364,409,2025-05-28T17:30:29.539175
29179,0.0425,-1.0868,1.2834,71.330,273.105,199.990,430,406,322,394,415,2025-05-28T17:30:29.539175
29180,0.1322,-0.8813,1.1566,71.155,267.960,200.865,406,399,346,415,396,2025-05-28T17:30:29.539175
29181,-0.1191,-0.7291,0.9965,54.705,311.570,205.765,363,392,356,401,394,2025-05-28T17:30:29.539175
29182,-0.3723,-0.5802,0.7579,44.205,365.505,209.160,421,414,375,408,408,2025-05-28T17:30:29.539175
29183,-0.6315,-0.5641,0.6207,37.555,390.145,219.870,403,399,387,401,405,2025-05-28T17:30:29.539175
29184,-0.7242,-0.5285,0.4338,43.960,391.020,226.345,429,402,396,399,347,2025-05-28T17:30:29.539175
29185,-0.7193,-0.5344,0.2181,52.780,365.260,227.150,410,425,384,384,395,2025-05-28T17:30:29.539175
29186,-0.8047,-0.4548,0.0537,70.595,343.350,221.305,424,404,384,394,390,2025-05-28T17:30:29.539175
29187,-0.7828,-0.2928,0.0020,84.070,317.695,210.560,424,420,374,400,373,2025-05-28T17:30:29.539175
29188,-0.6930,0.0268,-0.0434,85.575,285.145,202.265,395,398,380,352,351,2025-05-28T17:30:29.539175
29189,-0.6085,0.2728,-0.0049,80.570,244.125,201.740,406,427,380,294,330,2025-05-28T17:30:29.539175
29190,-0.5119,0.3377,0.0425,78.645,211.435,207.900,418,421,365,361,331,2025-05-28T17:30:29.539175
29191,-0.5270,0.2484,0.0522,84.980,177.555,210.210,402,360,346,381,367,2025-05-28T17:30:29.539175
29192,-0.5017,0.1976,-0.0630,96.425,146.125,207.655,420,420,363,384,381,2025-05-28T17:30:29.539175
29193,-0.4236,0.1898,-0.1815,114.240,118.055,199.255,404,375,366,403,411,2025-05-28T17:30:29.839356
29194,-0.2635,0.2777,-0.3943,133.805,110.250,189.280,425,403,377,392,398,2025-05-28T17:30:29.839356
29195,-0.0830,0.4021,-0.4675,150.395,120.365,182.385,438,410,375,403,387,2025-05-28T17:30:29.840157
29196,-0.1010,0.5588,-0.4509,153.790,131.775,174.825,409,419,382,401,395,2025-05-28T17:30:29.840157
29197,-0.1469,0.7374,-0.3475,139.545,132.685,168.280,395,398,384,422,399,2025-05-28T17:30:29.840157
29198,-0.1430,0.8974,-0.3274,117.320,125.300,162.890,406,400,389,408,352,2025-05-28T17:30:29.840157
29199,-0.0952,0.9692,-0.3943,107.030,112.525,152.005,410,425,374,410,389,2025-05-28T17:30:29.840157
29200,-0.0830,1.1380,-0.4075,103.775,104.790,143.745,427,396,339,350,384,2025-05-28T17:30:29.840157
29201,-0.0849,1.2717,-0.4031,110.915,104.090,135.730,409,412,318,400,399,2025-05-28T17:30:29.840157
29202,-0.2484,1.5518,-0.3533,120.120,97.265,122.080,408,397,356,413,407,2025-05-28T17:30:29.840157
29203,-0.2728,1.9657,-0.2377,127.785,83.195,104.475,407,342,376,357,380,2025-05-28T17:30:29.840157
29204,-0.2328,2.5527,-0.1010,125.510,75.565,89.600,345,383,369,377,398,2025-05-28T17:30:29.840157
29205,-0.2484,2.9827,0.0312,108.990,73.815,76.720,372,401,377,403,390,2025-05-28T17:30:29.840157
29206,-0.2708,3.3286,0.2489,70.770,69.265,63.105,300,410,374,406,401,2025-05-28T17:30:29.840157
29207,-0.2743,3.3984,0.5383,19.320,53.830,54.880,406,353,370,412,409,2025-05-28T17:30:29.840157
29208,-0.2089,3.3760,0.6881,-36.365,28.280,52.395,399,405,369,405,391,2025-05-28T17:30:29.840157
29209,-0.1767,2.9968,0.6305,-78.225,0.595,51.625,343,425,376,407,404,2025-05-28T17:30:29.840157
29210,-0.1757,2.3971,0.4529,-95.620,-25.760,43.365,391,429,368,426,356,2025-05-28T17:30:29.840157
29211,-0.0630,1.8315,0.2713,-88.690,-38.535,36.925,433,430,340,399,364,2025-05-28T17:30:29.840157
29212,0.0527,1.4045,0.1869,-68.460,-50.995,40.355,404,405,347,403,402,2025-05-28T17:30:29.841202
29213,0.0112,1.0048,0.2147,-51.205,-61.600,42.770,408,376,372,424,411,2025-05-28T17:30:30.012640
29214,-0.0166,0.7584,0.1913,-43.785,-69.475,39.795,345,409,372,422,418,2025-05-28T17:30:30.012640
29215,0.0312,0.7203,0.1327,-42.805,-71.085,33.250,353,411,380,318,394,2025-05-28T17:30:30.012640
29216,0.0639,0.6007,0.0571,-44.870,-63.630,27.685,405,425,368,368,410,2025-05-28T17:30:30.012640
29217,0.0639,0.4699,-0.0590,-42.875,-52.920,21.630,426,419,378,403,415,2025-05-28T17:30:30.012640
29218,0.0171,0.3411,-0.1259,-37.170,-43.330,13.090,422,416,373,413,403,2025-05-28T17:30:30.012640
29219,-0.0776,0.2503,-0.1503,-31.325,-37.170,1.085,405,415,371,418,393,2025-05-28T17:30:30.012640
29220,-0.0966,0.1767,-0.1659,-27.720,-28.350,-9.940,399,414,384,416,356,2025-05-28T17:30:30.012640
29221,-0.1200,0.1620,-0.1937,-23.800,-18.025,-21.490,424,409,392,402,349,2025-05-28T17:30:30.012640
29222,-0.1649,0.1737,-0.2035,-16.415,-7.420,-30.100,425,404,392,346,384,2025-05-28T17:30:30.019245
29223,-0.2655,0.2201,-0.1957,-6.440,0.805,-38.535,441,404,351,327,399,2025-05-28T17:30:30.019245
29224,-0.3235,0.3011,-0.1693,1.820,5.110,-46.655,409,423,357,384,408,2025-05-28T17:30:30.019245
29225,-0.4890,0.4002,-0.1498,12.740,5.950,-54.040,434,353,365,383,387,2025-05-28T17:30:30.019245
29226,-0.4299,0.5466,-0.0698,22.190,4.795,-58.485,421,409,363,396,400,2025-05-28T17:30:30.019245
29227,-0.4851,0.7032,-0.0137,33.390,0.105,-61.110,431,408,369,388,405,2025-05-28T17:30:30.019245
29228,-0.5495,0.9008,0.0522,44.065,-8.575,-61.075,434,385,367,397,347,2025-05-28T17:30:30.019245
29229,-0.5436,1.1073,0.1254,49.420,-16.590,-57.260,407,336,380,406,387,2025-05-28T17:30:30.019245
29230,-0.4973,1.2556,0.1810,50.785,-19.005,-49.630,414,411,373,414,390,2025-05-28T17:30:30.019245
29231,-0.4792,1.3503,0.2216,46.375,-15.505,-41.160,366,396,343,392,413,2025-05-28T17:30:30.019245
29232,-0.4709,1.3947,0.2557,36.890,-7.910,-35.700,337,419,321,409,352,2025-05-28T17:30:30.019245
29233,-0.4914,1.4069,0.2938,23.310,0.455,-30.170,395,407,356,369,381,2025-05-28T17:30:30.295213
29234,-0.5163,1.3971,0.3128,8.400,4.830,-23.905,401,387,371,380,400,2025-05-28T17:30:30.295213
29235,-0.5446,1.3366,0.2952,-2.415,3.185,-16.450,430,418,304,404,393,2025-05-28T17:30:30.295213
29236,-0.5695,1.2532,0.2850,-8.470,-3.430,-9.485,424,414,345,405,393,2025-05-28T17:30:30.295213
29237,-0.5671,1.1600,0.2430,-13.265,-9.625,-3.325,424,373,360,413,402,2025-05-28T17:30:30.295213
29238,-0.5339,1.0634,0.1923,-15.995,-16.380,0.805,358,421,376,407,346,2025-05-28T17:30:30.295213
29239,-0.5065,0.9819,0.1444,-17.675,-19.425,4.970,403,412,375,397,380,2025-05-28T17:30:30.296207
29240,-0.4734,0.8740,0.0991,-17.535,-19.075,7.245,360,407,379,407,392,2025-05-28T17:30:30.296207
29241,-0.4626,0.7823,0.0961,-16.835,-18.620,8.330,391,418,374,418,394,2025-05-28T17:30:30.296207
29242,-0.4509,0.7081,0.0717,-15.855,-18.830,8.120,396,412,378,387,386,2025-05-28T17:30:30.296207
29243,-0.4236,0.6754,0.0386,-14.175,-17.045,6.370,427,419,378,417,385,2025-05-28T17:30:30.296207
29244,-0.4046,0.6627,0.0366,-12.530,-12.250,4.410,421,396,343,399,394,2025-05-28T17:30:30.296207
29245,-0.4089,0.6349,0.0346,-10.920,-7.980,2.065,441,395,324,345,359,2025-05-28T17:30:30.296207
29246,-0.4255,0.6056,0.0317,-8.680,-7.035,-1.050,405,413,344,396,405,2025-05-28T17:30:30.296207
29247,-0.3831,0.6124,0.0366,-6.475,-6.825,-5.180,430,405,373,389,347,2025-05-28T17:30:30.296207
29248,-0.3577,0.6271,0.0259,-2.100,-3.920,-7.105,411,425,379,339,385,2025-05-28T17:30:30.297216
29249,-0.3870,0.6510,0.0722,1.400,1.855,-9.835,404,431,341,391,391,2025-05-28T17:30:30.297216
29250,-0.4036,0.7022,0.0893,3.535,5.145,-13.755,430,373,352,414,370,2025-05-28T17:30:30.443208
29251,-0.4104,0.7647,0.0874,5.215,7.070,-17.255,310,371,376,400,399,2025-05-28T17:30:30.443208
29252,-0.4158,0.8072,0.1064,6.440,10.675,-20.020,379,404,386,415,398,2025-05-28T17:30:30.443208
29253,-0.4324,0.8398,0.1435,6.300,14.245,-21.735,405,428,393,410,396,2025-05-28T17:30:30.443208
29254,-0.4665,0.8530,0.1688,4.690,15.785,-23.240,425,421,344,396,407,2025-05-28T17:30:30.443208
29255,-0.5022,0.8647,0.1825,5.110,12.145,-24.045,409,424,374,398,412,2025-05-28T17:30:30.443208
29256,-0.5402,0.8740,0.2050,6.825,5.740,-24.465,399,411,379,346,354,2025-05-28T17:30:30.444214
29257,-0.5397,0.8950,0.2259,7.525,-0.315,-23.905,374,403,385,389,382,2025-05-28T17:30:30.444214
29258,-0.5490,0.9052,0.2245,7.280,-4.970,-22.190,427,428,391,398,382,2025-05-28T17:30:30.444214
29259,-0.5563,0.8867,0.2133,7.875,-10.535,-21.105,366,408,376,346,383,2025-05-28T17:30:30.444214
29260,-0.5529,0.8662,0.2167,8.260,-14.210,-20.020,411,341,383,391,346,2025-05-28T17:30:30.444214
29261,-0.5305,0.8228,0.1967,6.965,-16.485,-19.285,370,391,390,408,391,2025-05-28T17:30:30.444214
29262,-0.5031,0.7598,0.1606,4.725,-16.975,-20.160,408,381,388,372,365,2025-05-28T17:30:30.444214
29263,-0.4914,0.6925,0.1235,3.080,-15.365,-22.925,413,388,393,333,373,2025-05-28T17:30:30.444214
29264,-0.4948,0.6305,0.0986,1.155,-14.035,-25.865,399,401,388,389,381,2025-05-28T17:30:30.444214
29265,-0.5187,0.5714,0.0659,0.735,-15.155,-28.525,418,428,377,395,381,2025-05-28T17:30:30.444214
29266,-0.5505,0.5197,0.0390,2.555,-20.720,-33.145,415,339,380,394,405,2025-05-28T17:30:30.444214
29267,-0.5724,0.4846,0.0551,4.270,-29.715,-38.115,425,396,388,390,355,2025-05-28T17:30:30.444214
29268,-0.6129,0.4651,0.0527,5.775,-40.320,-42.490,432,416,393,393,389,2025-05-28T17:30:30.704810
29269,-0.6608,0.4475,0.0669,7.875,-53.060,-47.705,405,345,389,393,400,2025-05-28T17:30:30.704810
29270,-0.6705,0.5012,0.0771,9.625,-62.825,-53.130,364,384,401,398,355,2025-05-28T17:30:30.704810
29271,-0.6812,0.5788,0.0547,10.360,-71.715,-58.345,357,412,383,414,402,2025-05-28T17:30:30.704810
29272,-0.6720,0.7676,0.0449,10.325,-75.810,-67.690,389,395,368,401,395,2025-05-28T17:30:30.704810
29273,-0.6383,1.0346,0.0459,7.280,-74.480,-81.375,393,389,364,392,350,2025-05-28T17:30:30.704810
29274,-0.5988,1.3679,0.0356,-0.350,-69.860,-101.290,395,422,339,400,396,2025-05-28T17:30:30.704810
29275,-0.5871,1.6685,0.1039,-15.820,-64.995,-125.405,407,409,365,410,408,2025-05-28T17:30:30.704810
29276,-0.5710,1.9496,0.2118,-37.205,-64.330,-144.340,404,423,358,374,405,2025-05-28T17:30:30.704810
29277,-0.6212,2.2482,0.3523,-61.810,-77.245,-162.890,412,351,353,407,394,2025-05-28T17:30:30.704810
29278,-0.6832,2.7255,0.5187,-90.650,-107.835,-170.730,429,420,361,415,381,2025-05-28T17:30:30.984999
29279,-0.7496,3.2145,0.6144,-122.640,-148.925,-166.740,417,424,376,354,362,2025-05-28T17:30:30.984999
29280,-0.7837,3.6449,0.5939,-147.000,-194.180,-146.930,423,427,377,395,385,2025-05-28T17:30:30.984999
29281,-0.7696,3.8879,0.3689,-160.020,-246.050,-112.000,421,436,377,392,358,2025-05-28T17:30:30.984999
29282,-0.5109,3.9543,0.1366,-171.920,-292.915,-68.040,422,423,381,405,386,2025-05-28T17:30:30.984999
29283,-0.4089,3.9572,-0.1044,-173.565,-339.465,-8.540,406,378,376,379,395,2025-05-28T17:30:30.984999
29284,-0.3967,3.7732,-0.3001,-173.110,-375.760,42.700,404,404,349,335,362,2025-05-28T17:30:30.984999
29285,-0.4368,3.4097,-0.5436,-165.410,-410.235,94.255,407,394,380,395,395,2025-05-28T17:30:30.984999
29286,-0.4982,3.3008,-0.9311,-147.385,-436.030,126.315,399,423,380,413,401,2025-05-28T17:30:30.984999
29287,-0.6891,3.0388,-1.1883,-122.675,-436.030,124.530,421,428,352,356,403,2025-05-28T17:30:30.984999
29288,-0.8179,2.7113,-1.1736,-101.185,-427.630,94.710,427,399,371,385,403,2025-05-28T17:30:30.984999
29289,-0.9428,2.3951,-1.0350,-98.560,-423.955,49.770,399,406,388,365,395,2025-05-28T17:30:30.984999
29290,-0.7666,1.9515,-0.8926,-114.100,-432.775,-13.825,343,410,389,404,400,2025-05-28T17:30:30.984999
29291,-0.5871,1.3200,-0.8091,-148.435,-440.615,-115.045,403,429,387,410,370,2025-05-28T17:30:30.984999
29292,0.2006,0.2977,-0.9248,-184.765,-405.020,-248.080,405,423,387,406,399,2025-05-28T17:30:30.984999
29293,1.3893,-0.9443,-0.8457,-264.075,-348.390,-374.185,419,417,376,355,394,2025-05-28T17:30:30.984999
29294,2.1843,-2.3927,-0.6237,-369.950,-246.155,-467.320,429,400,342,382,391,2025-05-28T17:30:30.984999
29295,2.4766,-4.6253,-0.5061,-468.370,-163.065,-521.570,423,396,371,391,386,2025-05-28T17:30:30.984999
29296,2.1970,-7.0780,0.2474,-518.945,-173.390,-570.080,422,421,334,391,383,2025-05-28T17:30:30.984999
29297,1.8378,-9.5594,1.9549,-487.060,-289.205,-578.900,436,363,353,381,377,2025-05-28T17:30:30.984999
29298,1.8622,-8.3863,1.2390,-361.620,-490.140,-554.855,435,411,357,387,382,2025-05-28T17:30:30.984999
29299,3.9479,-3.7434,-2.9690,11.340,-387.940,-583.835,439,408,375,404,390,2025-05-28T17:30:30.984999
29300,1.6851,0.8418,-0.2006,139.895,80.955,-244.195,355,413,370,415,403,2025-05-28T17:30:30.984999
29301,2.6635,1.0956,-0.7954,125.370,264.390,287.385,404,403,370,412,407,2025-05-28T17:30:30.984999
29302,2.6640,0.8325,0.4285,67.515,537.915,459.270,427,416,372,403,402,2025-05-28T17:30:30.984999
29303,1.3835,-0.6232,1.3957,-35.875,614.040,468.125,388,415,380,376,374,2025-05-28T17:30:30.984999
29304,1.2995,-1.7119,1.1893,-101.815,603.365,432.145,425,398,382,350,392,2025-05-28T17:30:31.013828
29305,0.3548,-2.1433,1.2937,-83.580,504.035,390.355,415,406,389,373,404,2025-05-28T17:30:31.017384
29306,-0.0151,-2.0154,1.3596,-4.130,379.190,351.435,441,423,381,379,388,2025-05-28T17:30:31.017384
29307,-0.5275,-2.0481,1.4074,60.620,247.065,311.815,432,402,371,391,401,2025-05-28T17:30:31.017384
29308,-0.3777,-1.7153,1.1678,105.385,177.590,285.285,431,410,368,411,391,2025-05-28T17:30:31.017384
29309,-0.3509,-1.3259,1.0741,125.720,140.525,262.080,422,402,382,355,392,2025-05-28T17:30:31.017384
29310,-0.1542,-0.8135,0.9004,128.835,167.020,245.560,366,391,383,393,391,2025-05-28T17:30:31.017384
29311,0.0112,-0.4641,0.5861,103.215,240.800,235.760,405,410,379,406,416,2025-05-28T17:30:31.017384
29312,-0.0766,-0.1479,0.4006,67.025,327.810,237.160,438,362,389,349,396,2025-05-28T17:30:31.017384
29313,-0.2455,0.0063,0.2669,32.550,384.860,247.065,428,397,387,391,408,2025-05-28T17:30:31.017384
29314,-0.5104,0.0473,0.1454,19.985,400.400,258.790,434,431,381,406,314,2025-05-28T17:30:31.017384
29315,-0.7208,0.0264,0.1240,24.920,378.280,260.785,434,421,369,346,361,2025-05-28T17:30:31.017384
29316,-0.8281,0.0586,0.1840,44.975,321.510,243.180,429,405,369,381,388,2025-05-28T17:30:31.017384
29317,-0.7681,0.1757,0.0678,71.330,254.905,242.550,440,424,334,351,375,2025-05-28T17:30:31.017384
29318,-0.5778,0.2289,-0.0395,97.615,200.830,237.335,411,419,349,393,377,2025-05-28T17:30:31.276082
29319,-0.4441,0.3201,-0.1845,124.880,169.190,236.320,397,424,358,359,393,2025-05-28T17:30:31.276082
29320,-0.2601,0.4065,-0.3440,144.200,153.370,230.965,402,407,367,375,409,2025-05-28T17:30:31.276082
29321,-0.1230,0.5568,-0.4602,150.920,151.935,223.930,415,428,347,391,415,2025-05-28T17:30:31.276082
29322,-0.0400,0.6334,-0.4734,148.400,154.035,215.775,352,403,357,396,319,2025-05-28T17:30:31.276082
29323,0.0449,0.7788,-0.3919,136.605,148.855,215.670,398,440,354,359,366,2025-05-28T17:30:31.276082
29324,0.1064,0.8808,-0.3509,117.740,132.090,218.120,309,419,366,379,380,2025-05-28T17:30:31.276082
29325,0.2011,0.9794,-0.4089,109.060,111.125,219.520,409,403,365,384,399,2025-05-28T17:30:31.276082
29326,0.2796,1.1024,-0.3797,114.485,97.790,207.725,427,400,351,401,382,2025-05-28T17:30:31.277078
29327,0.2708,1.3376,-0.2816,122.115,91.280,186.060,368,400,377,349,388,2025-05-28T17:30:31.277078
29328,0.1952,1.5811,-0.2406,126.840,84.735,161.805,377,397,389,389,399,2025-05-28T17:30:31.277078
29329,0.1220,1.9100,-0.0952,132.195,77.210,137.515,421,405,390,416,409,2025-05-28T17:30:31.277078
29330,0.1083,2.3531,0.0678,132.125,61.985,116.760,426,378,397,398,407,2025-05-28T17:30:31.277078
29331,0.0673,2.7479,0.2987,115.080,44.240,100.940,427,410,386,417,421,2025-05-28T17:30:31.277078
29332,0.0776,2.9397,0.5636,74.550,25.725,86.100,432,420,356,405,398,2025-05-28T17:30:31.277078
29333,0.1576,3.0910,0.7364,26.005,7.875,81.305,371,395,359,408,409,2025-05-28T17:30:31.277078
29334,0.1601,3.1169,0.8818,-13.090,-9.030,74.830,416,349,359,404,397,2025-05-28T17:30:31.277078
29335,0.0600,2.9256,0.7803,-50.610,-19.460,62.895,411,391,358,347,407,2025-05-28T17:30:31.277078
29336,0.0122,2.5381,0.6242,-66.710,-31.045,38.745,419,421,369,375,353,2025-05-28T17:30:31.277078
29337,0.0107,2.1877,0.4821,-58.450,-43.225,32.620,347,429,379,397,387,2025-05-28T17:30:31.443182
29338,-0.0644,1.8027,0.4368,-42.280,-59.710,26.880,394,380,348,399,402,2025-05-28T17:30:31.443182
29339,-0.1503,1.5294,0.3299,-26.250,-78.540,22.400,346,400,372,370,409,2025-05-28T17:30:31.443182
29340,-0.1298,1.2561,0.2362,-17.605,-90.405,16.870,406,391,362,401,403,2025-05-28T17:30:31.443182
29341,-0.0742,1.0360,0.1830,-18.550,-84.525,12.180,417,385,375,384,398,2025-05-28T17:30:31.443182
29342,-0.0278,0.8340,0.1259,-24.360,-65.940,8.680,348,341,363,383,404,2025-05-28T17:30:31.443182
29343,-0.0234,0.6539,0.0669,-31.745,-48.930,3.850,334,382,381,343,396,2025-05-28T17:30:31.443182
29344,-0.0464,0.4929,0.0029,-36.960,-30.625,-0.630,339,415,386,393,388,2025-05-28T17:30:31.443182
29345,-0.0903,0.4085,-0.0176,-40.775,-14.735,-5.530,390,415,378,395,381,2025-05-28T17:30:31.444190
29346,-0.1210,0.3553,-0.0039,-43.890,-1.645,-9.660,406,364,344,347,392,2025-05-28T17:30:31.444190
29347,-0.1601,0.3328,-0.0156,-44.170,6.965,-13.790,346,405,327,394,361,2025-05-28T17:30:31.444190
29348,-0.1854,0.3343,-0.0132,-40.460,10.220,-18.690,392,389,343,406,382,2025-05-28T17:30:31.444190
29349,-0.1928,0.3592,-0.0073,-33.985,11.445,-23.835,403,398,374,395,406,2025-05-28T17:30:31.444190
29350,-0.2133,0.3875,-0.0181,-25.690,10.990,-28.770,418,406,368,349,348,2025-05-28T17:30:31.444190
29351,-0.2372,0.4260,-0.0054,-17.115,8.365,-35.630,432,401,381,327,386,2025-05-28T17:30:31.444190
29352,-0.2625,0.4953,-0.0054,-8.330,6.510,-42.525,444,428,345,377,390,2025-05-28T17:30:31.444190
29353,-0.3284,0.5832,0.0278,-0.805,5.250,-49.525,416,349,368,385,385,2025-05-28T17:30:31.444190
29354,-0.3845,0.6856,0.0854,8.820,3.185,-54.460,405,415,367,393,402,2025-05-28T17:30:31.707717
29355,-0.4368,0.7993,0.1440,18.095,-1.575,-57.085,428,415,367,399,390,2025-05-28T17:30:31.707717
29356,-0.4963,0.8921,0.2118,26.740,-9.415,-58.240,428,384,350,411,400,2025-05-28T17:30:31.707717
29357,-0.5134,1.0204,0.2479,33.740,-17.535,-56.560,430,406,359,412,399,2025-05-28T17:30:31.707717
29358,-0.5017,1.0951,0.2733,37.100,-22.505,-52.745,399,413,362,410,410,2025-05-28T17:30:31.707717
29359,-0.4680,1.1570,0.2723,39.340,-21.315,-47.425,350,406,370,406,407,2025-05-28T17:30:31.707717
29360,-0.4504,1.1971,0.2869,37.800,-16.065,-41.790,407,397,381,394,409,2025-05-28T17:30:31.707717
29361,-0.4387,1.2132,0.2772,31.850,-6.300,-37.205,424,347,370,353,388,2025-05-28T17:30:31.708715
29362,-0.4372,1.1995,0.2572,23.240,4.060,-31.290,417,401,371,373,403,2025-05-28T17:30:31.708715
29363,-0.4514,1.1639,0.2220,14.945,11.270,-24.255,428,413,368,402,390,2025-05-28T17:30:31.708872
29364,-0.4802,1.1068,0.2011,8.680,13.965,-17.570,407,424,340,410,349,2025-05-28T17:30:31.708872
29365,-0.5085,1.0282,0.1859,0.840,12.705,-12.355,406,403,362,349,362,2025-05-28T17:30:31.708872
29366,-0.5104,0.9672,0.1796,-6.580,7.770,-8.190,414,423,372,348,378,2025-05-28T17:30:31.708872
29367,-0.4992,0.9116,0.1523,-11.585,0.665,-4.725,374,415,370,397,402,2025-05-28T17:30:31.708872
29368,-0.4865,0.8398,0.1352,-13.545,-7.000,-1.225,426,365,372,398,393,2025-05-28T17:30:31.709715
29369,-0.4504,0.7969,0.1347,-14.735,-12.215,0.070,425,393,378,418,400,2025-05-28T17:30:31.709715
29370,-0.4011,0.7740,0.1186,-15.855,-12.810,0.385,408,391,381,410,413,2025-05-28T17:30:31.709715
29371,-0.3909,0.7403,0.1035,-15.085,-10.920,-0.735,427,412,393,416,413,2025-05-28T17:30:31.709715
29372,-0.4026,0.7125,0.1220,-13.195,-9.205,-2.870,419,414,379,425,412,2025-05-28T17:30:31.709715
29373,-0.4050,0.7081,0.1469,-11.760,-8.610,-4.900,418,425,378,397,405,2025-05-28T17:30:31.709715
29374,-0.4085,0.6930,0.1479,-10.220,-6.755,-5.915,400,387,379,346,406,2025-05-28T17:30:31.826932
29375,-0.4158,0.6905,0.1737,-7.525,-4.340,-6.860,411,382,371,380,420,2025-05-28T17:30:31.826932
29376,-0.4372,0.6881,0.1859,-4.305,-2.870,-7.875,431,404,384,389,397,2025-05-28T17:30:31.826932
29377,-0.4353,0.6969,0.1991,-0.910,-2.205,-9.555,422,393,386,413,400,2025-05-28T17:30:31.826932
29378,-0.4128,0.7159,0.1854,3.220,0.385,-10.465,385,393,390,352,349,2025-05-28T17:30:31.826932
29379,-0.4177,0.7276,0.2137,7.140,6.230,-11.795,422,401,347,396,341,2025-05-28T17:30:31.826932
29380,-0.4446,0.7588,0.2411,7.035,10.640,-13.370,402,392,362,403,376,2025-05-28T17:30:31.826932
29381,-0.4719,0.7657,0.2279,6.825,11.305,-15.470,428,396,380,423,386,2025-05-28T17:30:31.826932
29382,-0.4880,0.7832,0.2235,8.120,10.220,-17.675,403,424,380,408,401,2025-05-28T17:30:31.826932
29383,-0.4763,0.7993,0.2079,10.710,9.065,-18.760,415,424,383,402,357,2025-05-28T17:30:31.826932
29384,-0.4860,0.8072,0.2069,12.110,9.030,-20.755,425,412,387,412,372,2025-05-28T17:30:31.826932
29385,-0.4914,0.8111,0.1898,12.880,8.050,-22.925,371,390,313,383,393,2025-05-28T17:30:31.826932
29386,-0.4968,0.8189,0.1854,13.405,7.455,-25.760,340,295,308,399,390,2025-05-28T17:30:32.098685
29387,-0.5261,0.8154,0.1879,13.125,6.720,-28.385,364,345,351,410,347,2025-05-28T17:30:32.098685
29388,-0.5388,0.8081,0.1874,12.005,4.515,-30.345,398,415,363,413,381,2025-05-28T17:30:32.098685
29389,-0.5427,0.7745,0.1810,11.480,0.525,-31.640,421,421,363,419,379,2025-05-28T17:30:32.098685
29390,-0.5456,0.7447,0.1845,11.025,-3.780,-32.480,428,407,359,417,390,2025-05-28T17:30:32.098685
29391,-0.5397,0.7027,0.1840,10.570,-8.505,-31.745,385,392,330,408,359,2025-05-28T17:30:32.099692
29392,-0.5295,0.6539,0.1664,10.360,-13.510,-30.660,340,395,361,399,377,2025-05-28T17:30:32.099692
29393,-0.5339,0.6115,0.1469,9.800,-17.325,-30.415,418,438,372,410,407,2025-05-28T17:30:32.099692
29394,-0.5309,0.5651,0.1069,9.835,-18.550,-31.360,427,400,338,350,410,2025-05-28T17:30:32.099692
29395,-0.5353,0.5173,0.0732,11.095,-18.760,-33.495,380,392,351,376,395,2025-05-28T17:30:32.099692
29396,-0.5510,0.4802,0.0586,12.390,-19.600,-36.540,428,423,355,385,397,2025-05-28T17:30:32.099692
29397,-0.5690,0.4534,0.0449,12.670,-21.910,-39.410,415,410,356,365,395,2025-05-28T17:30:32.099692
29398,-0.5954,0.4285,0.0351,12.740,-25.060,-43.155,413,426,359,398,355,2025-05-28T17:30:32.099692
29399,-0.6285,0.4231,0.0551,12.005,-30.380,-47.740,426,428,376,366,384,2025-05-28T17:30:32.099692
29400,-0.7466,0.4890,0.0737,9.940,-35.735,-53.865,430,434,383,403,392,2025-05-28T17:30:32.099692
29401,-0.6686,0.7222,0.1171,8.365,-45.325,-60.655,417,413,387,410,412,2025-05-28T17:30:32.099692
29402,-0.6998,0.8374,0.1322,10.605,-56.630,-72.905,412,424,381,411,403,2025-05-28T17:30:32.099692
29403,-0.7115,1.1204,0.1352,18.095,-70.140,-90.755,400,403,389,411,385,2025-05-28T17:30:32.099692
29404,-0.7022,1.5304,0.1376,21.175,-86.450,-109.095,348,414,347,404,406,2025-05-28T17:30:32.099692
29405,-0.7159,1.9520,0.2074,18.235,-105.455,-127.505,422,401,361,407,390,2025-05-28T17:30:32.099692
29406,-0.6993,2.4029,0.3221,2.835,-120.330,-142.240,359,419,374,417,406,2025-05-28T17:30:32.261631
29407,-0.7017,2.8162,0.4792,-22.750,-140.490,-149.625,343,411,380,422,410,2025-05-28T17:30:32.261631
29408,-0.6529,3.2188,0.5588,-53.515,-161.070,-147.490,401,422,343,421,390,2025-05-28T17:30:32.261631
29409,-0.6198,3.4619,0.5656,-80.185,-182.035,-134.645,403,400,356,365,343,2025-05-28T17:30:32.261631
