SeqNum,AccX,AccY,AccZ,GyroX,GyroY,GyroZ,Flex,Force1,Force2,Force3,Force4,TimestampReception
5196,-1.0482,-0.1903,0.0781,-22.330,39.620,-55.230,113,111,103,104,379,2025-05-23T21:10:55.077138
5197,-1.4455,-0.2074,0.1771,-1.050,1.470,-45.710,342,354,357,364,379,2025-05-23T21:10:55.077231
5198,-1.4103,-0.2020,0.2225,-4.200,-44.030,-30.870,384,394,395,401,398,2025-05-23T21:10:55.077252
5199,-1.3288,-0.2098,0.2616,-4.620,-85.750,-17.150,424,434,434,440,402,2025-05-23T21:10:55.077264
5200,-1.2356,-0.1976,0.2923,-0.350,-90.370,-5.740,447,456,456,462,410,2025-05-23T21:10:55.077274
5201,-1.0624,-0.1791,0.2582,1.190,-92.260,1.470,465,473,473,478,404,2025-05-23T21:10:55.159337
5202,-0.9428,-0.1606,0.2435,-0.070,-76.650,6.650,481,489,488,493,416,2025-05-23T21:10:55.159405
5203,-0.8491,-0.1674,0.2440,2.240,-51.870,9.590,495,504,503,507,406,2025-05-23T21:10:55.159417
5204,-0.9140,-0.1440,0.2542,4.410,-24.640,10.990,509,517,516,521,413,2025-05-23T21:10:55.159427
5205,-0.9809,-0.1157,0.2718,9.380,-9.310,8.540,523,531,530,534,407,2025-05-23T21:10:55.159438
5206,-1.0438,-0.0786,0.2591,10.010,-2.240,8.260,535,544,543,547,412,2025-05-23T21:10:55.211839
5207,-1.0521,-0.0688,0.2396,6.370,-6.720,7.700,548,556,556,560,361,2025-05-23T21:10:55.211893
5208,-1.0199,-0.0630,0.2074,-1.610,-18.550,9.520,559,568,566,571,377,2025-05-23T21:10:55.211909
5209,-0.9843,-0.0600,0.1610,-4.200,-24.150,12.460,570,579,578,582,390,2025-05-23T21:10:55.211937
5210,-0.8965,-0.0952,0.1259,-2.800,-21.000,12.180,580,588,587,591,404,2025-05-23T21:10:55.211948
5211,-0.8804,-0.0786,0.1230,2.800,-13.930,11.900,589,597,596,599,408,2025-05-23T21:10:55.211959
5212,-0.8730,-0.0732,0.1318,6.790,-6.440,11.060,599,606,604,608,416,2025-05-23T21:10:55.367436
5213,-0.9013,-0.0747,0.1386,6.230,-2.730,9.940,608,615,613,617,398,2025-05-23T21:10:55.367481
5214,-0.9194,-0.0898,0.1391,1.750,-3.920,9.240,617,624,622,626,406,2025-05-23T21:10:55.367494
5215,-0.9550,-0.1030,0.1615,-1.050,-7.630,6.860,625,633,631,634,413,2025-05-23T21:10:55.367504
5216,-0.9731,-0.1078,0.1796,-4.690,-11.410,5.040,634,642,640,643,393,2025-05-23T21:10:55.367514
5217,-0.9833,-0.1137,0.1957,-7.910,-12.600,4.340,643,651,649,652,356,2025-05-23T21:10:55.367542
5218,-1.0053,-0.1176,0.2201,-10.430,-15.610,3.640,652,659,657,660,398,2025-05-23T21:10:55.367552
5219,-1.0058,-0.1264,0.2294,-8.330,-20.650,2.660,660,668,665,668,398,2025-05-23T21:10:55.367561
5220,-0.9902,-0.1269,0.2577,-6.370,-21.980,1.680,668,675,673,675,395,2025-05-23T21:10:55.367570
5221,-0.9687,-0.1283,0.2835,-4.970,-20.860,1.120,676,683,680,684,413,2025-05-23T21:10:55.367580
5222,-0.9638,-0.1293,0.3118,-3.290,-15.470,0.910,684,690,688,690,406,2025-05-23T21:10:55.367590
5223,-0.9858,-0.1249,0.3318,-2.380,-8.750,1.610,691,698,695,698,360,2025-05-23T21:10:55.367599
5224,-0.9989,-0.1244,0.3299,-1.400,-2.590,2.170,699,706,703,705,380,2025-05-23T21:10:55.367612
5225,-1.0033,-0.1274,0.3245,-1.050,0.840,1.820,706,714,710,713,395,2025-05-23T21:10:55.470396
5226,-1.0028,-0.1244,0.3148,-1.330,1.680,1.960,713,719,717,719,407,2025-05-23T21:10:55.470440
5227,-1.0058,-0.1191,0.3001,-2.310,5.250,2.660,720,727,724,726,402,2025-05-23T21:10:55.470451
5228,-1.0180,-0.1122,0.2913,-1.330,7.840,4.550,728,734,731,733,414,2025-05-23T21:10:55.470461
5229,-1.0277,-0.1015,0.2933,1.470,7.840,7.000,735,741,738,740,407,2025-05-23T21:10:55.470471
5230,-1.0024,-0.0913,0.2869,1.750,7.980,10.990,741,748,745,747,411,2025-05-23T21:10:55.470480
5231,-0.9740,-0.0927,0.2811,0.210,10.430,12.320,748,754,751,753,409,2025-05-23T21:10:55.470505
5232,-0.9384,-0.0908,0.2450,2.380,13.930,12.670,755,761,758,761,411,2025-05-23T21:10:55.470514
5233,-0.8960,-0.0966,0.2172,4.690,22.610,11.410,762,768,765,768,413,2025-05-23T21:10:55.470523
5234,-0.8955,-0.1059,0.2108,7.490,35.910,9.870,769,775,772,774,420,2025-05-23T21:10:55.748050
5235,-0.9428,-0.1010,0.1786,9.450,49.770,8.890,776,781,778,781,400,2025-05-23T21:10:55.748120
5236,-0.9662,-0.0976,0.1386,8.610,58.380,11.970,783,788,785,788,400,2025-05-23T21:10:55.748137
5237,-0.9906,-0.0727,0.1376,6.720,66.290,14.770,789,794,791,794,412,2025-05-23T21:10:55.748153
5238,-1.0472,-0.0337,0.1059,2.170,68.880,16.240,794,800,797,800,393,2025-05-23T21:10:55.748194
5239,-1.0277,-0.0132,0.0795,-0.140,62.790,16.590,800,805,802,805,389,2025-05-23T21:10:55.748209
5240,-0.9584,-0.0127,0.0454,-10.150,57.330,15.960,806,811,808,811,401,2025-05-23T21:10:55.748223
5241,-0.9526,-0.0015,0.0249,-12.670,54.530,14.910,813,817,814,817,413,2025-05-23T21:10:55.748237
5242,-0.9389,0.0142,0.0005,-11.550,50.820,14.840,818,823,820,824,423,2025-05-23T21:10:55.748251
5243,-0.9638,-0.0298,0.0063,-17.500,54.460,10.710,825,830,827,831,399,2025-05-23T21:10:55.748264
5244,-0.9194,-0.0571,0.0034,-7.560,43.050,-2.940,831,835,832,835,406,2025-05-23T21:10:55.748278
5245,-0.9087,-0.0127,0.0073,-23.450,18.900,-4.060,835,840,836,839,419,2025-05-23T21:10:55.748309
5246,-1.0092,-0.0298,0.0259,-15.610,8.680,-6.650,838,842,839,842,408,2025-05-23T21:10:55.748326
5247,-1.0121,-0.0420,0.0107,-33.390,-1.540,-13.790,841,846,842,845,411,2025-05-23T21:10:55.748338
5248,-0.9511,-0.0864,0.0093,-35.490,-6.230,-20.440,846,852,848,850,417,2025-05-23T21:10:55.748399
5249,-0.8994,-0.1225,0.0122,-37.730,-11.970,-25.060,852,856,853,855,417,2025-05-23T21:10:55.748414
5250,-0.8662,-0.1698,0.0249,-30.030,-18.270,-31.150,860,863,860,862,420,2025-05-23T21:10:55.748426
5251,-0.8218,-0.2420,-0.0220,-28.210,-10.920,-36.820,867,870,866,868,404,2025-05-23T21:10:55.748438
5252,-0.7984,-0.3314,-0.0781,-24.710,18.690,-43.260,816,813,801,796,402,2025-05-23T21:10:55.748454
5253,-0.8764,-0.3694,-0.0966,-19.390,39.480,-51.800,785,785,775,772,350,2025-05-23T21:10:55.748468
5254,-0.9252,-0.3875,-0.1054,-13.720,59.990,-58.100,773,773,760,757,374,2025-05-23T21:10:55.816332
5255,-0.9682,-0.3997,-0.1401,-15.890,72.380,-60.900,764,765,755,753,382,2025-05-23T21:10:55.816386
5256,-1.0048,-0.4158,-0.1869,-25.130,82.600,-62.720,763,763,754,751,404,2025-05-23T21:10:55.816401
5257,-1.0224,-0.4226,-0.2255,-22.330,90.230,-64.820,762,763,753,751,405,2025-05-23T21:10:55.816413
5258,-1.0536,-0.4070,-0.2664,-10.080,95.760,-67.760,762,764,754,752,422,2025-05-23T21:10:55.816425
5259,-1.1117,-0.3719,-0.2933,5.320,106.680,-74.900,765,766,757,755,410,2025-05-23T21:10:55.816457
5260,-1.1829,-0.3558,-0.3426,15.260,118.230,-80.780,767,769,759,756,408,2025-05-23T21:10:55.816470
5261,-1.2366,-0.3484,-0.3943,22.540,120.960,-80.290,768,771,760,757,408,2025-05-23T21:10:55.816483
5262,-1.2605,-0.3445,-0.4524,27.860,126.980,-75.110,769,772,762,758,424,2025-05-23T21:10:55.897393
5263,-1.2820,-0.3284,-0.4895,31.640,130.270,-66.640,771,774,764,759,417,2025-05-23T21:10:55.897438
5264,-1.3044,-0.3055,-0.5192,28.350,138.250,-60.200,771,775,765,761,421,2025-05-23T21:10:55.897449
5265,-1.3166,-0.2987,-0.5495,24.500,144.760,-51.170,772,776,765,760,767,2025-05-23T21:10:55.897459
5266,-1.2898,-0.2538,-0.5451,21.700,144.620,-42.070,772,776,766,761,767,2025-05-23T21:10:55.897487
5267,-1.2815,-0.1986,-0.5163,13.930,130.620,-28.000,772,776,766,761,767,2025-05-23T21:10:55.897496
5268,-1.2883,-0.1771,-0.4792,10.500,112.490,-16.450,774,776,767,762,766,2025-05-23T21:10:55.897505
5269,-1.2971,-0.1459,-0.4168,4.060,85.820,-5.250,772,775,766,762,592,2025-05-23T21:10:56.087645
5270,-1.2664,-0.1435,-0.3889,-7.140,55.230,3.430,772,775,766,761,479,2025-05-23T21:10:56.087694
5271,-1.1966,-0.1635,-0.4294,-16.520,17.500,7.770,771,774,765,761,438,2025-05-23T21:10:56.087706
5272,-1.0614,-0.1435,-0.4543,-22.680,-4.410,8.400,771,775,766,761,410,2025-05-23T21:10:56.087717
5273,-0.9516,-0.0971,-0.4577,-24.500,0.700,9.800,772,774,766,762,404,2025-05-23T21:10:56.087750
5274,-0.9360,-0.0693,-0.4319,-30.730,25.200,11.270,771,773,765,761,393,2025-05-23T21:10:56.087767
5275,-0.9506,-0.0844,-0.3860,-41.790,45.710,11.970,770,773,764,760,381,2025-05-23T21:10:56.087778
5276,-0.9799,-0.1069,-0.3445,-58.310,53.900,14.420,769,771,763,759,390,2025-05-23T21:10:56.087788
5277,-1.0355,-0.1342,-0.2840,-70.560,41.440,15.890,768,770,762,758,397,2025-05-23T21:10:56.087797
5278,-1.0609,-0.1557,-0.2308,-82.670,13.930,19.320,767,770,761,758,411,2025-05-23T21:10:56.087806
5279,-1.0507,-0.1908,-0.2269,-86.800,-5.390,22.470,768,769,762,758,362,2025-05-23T21:10:56.087814
5280,-1.0165,-0.2245,-0.2216,-83.300,-18.480,24.850,768,770,762,758,386,2025-05-23T21:10:56.090400
5281,-0.9809,-0.2455,-0.2255,-75.950,-24.710,26.460,768,770,762,759,386,2025-05-23T21:10:56.090446
5282,-0.9701,-0.2577,-0.2420,-65.660,-32.270,28.420,769,771,763,759,348,2025-05-23T21:10:56.090453
5283,-0.9828,-0.3011,-0.2923,-61.180,-35.910,29.120,770,771,763,760,371,2025-05-23T21:10:56.090494
5284,-0.9877,-0.3401,-0.3240,-57.820,-34.860,29.960,771,772,765,761,394,2025-05-23T21:10:56.090500
5285,-0.9784,-0.3362,-0.3553,-59.290,-30.380,33.390,772,773,766,762,415,2025-05-23T21:10:56.296738
5286,-0.9989,-0.3411,-0.4055,-61.530,-18.270,34.930,773,774,767,764,416,2025-05-23T21:10:56.296783
5287,-1.0575,-0.3294,-0.4299,-66.220,-10.220,35.560,775,776,769,766,365,2025-05-23T21:10:56.296796
5288,-1.1224,-0.3148,-0.4558,-74.130,-11.760,36.960,777,779,772,769,379,2025-05-23T21:10:56.296807
5289,-1.1463,-0.2923,-0.4538,-82.040,-22.190,41.090,780,780,774,771,379,2025-05-23T21:10:56.296820
5290,-1.1390,-0.2586,-0.4294,-93.590,-43.190,46.900,781,782,775,772,345,2025-05-23T21:10:56.296829
5291,-1.0863,-0.2386,-0.4280,-103.670,-65.870,56.490,782,784,776,774,337,2025-05-23T21:10:56.296837
5292,-1.0043,-0.2220,-0.4055,-105.140,-80.080,63.910,784,785,779,776,378,2025-05-23T21:10:56.296846
5293,-0.8882,-0.1757,-0.3494,-99.680,-87.220,69.300,786,787,781,777,407,2025-05-23T21:10:56.296855
5294,-0.7998,-0.1249,-0.3070,-92.540,-79.380,73.780,787,788,782,779,412,2025-05-23T21:10:56.296907
5295,-0.7793,-0.0981,-0.2669,-83.860,-67.270,76.510,788,791,784,781,408,2025-05-23T21:10:56.296939
5296,-0.7818,-0.0717,-0.2298,-79.380,-45.080,72.380,790,791,784,781,394,2025-05-23T21:10:56.296947
5297,-0.8013,-0.0825,-0.2377,-75.320,-28.840,69.720,791,792,786,783,405,2025-05-23T21:10:56.296956
5298,-0.8257,-0.0444,-0.2089,-70.560,-22.190,67.130,794,796,790,787,414,2025-05-23T21:10:56.296964
5299,-0.8130,0.0454,-0.1752,-69.160,-25.620,67.060,799,801,796,792,413,2025-05-23T21:10:56.297009
5300,-0.8028,0.1132,-0.1610,-74.410,-31.640,66.290,801,803,797,794,364,2025-05-23T21:10:56.297018
5301,-0.7471,0.1220,-0.1649,-82.530,-33.180,62.370,803,803,799,795,395,2025-05-23T21:10:56.297026
5302,-0.6930,0.1186,-0.1889,-84.490,-27.720,58.170,803,804,799,794,383,2025-05-23T21:10:56.494803
5303,-0.6637,0.1274,-0.1932,-77.420,-14.210,54.040,803,804,798,795,403,2025-05-23T21:10:56.494868
5304,-0.6715,0.1493,-0.1830,-66.430,0.910,49.560,803,805,799,795,394,2025-05-23T21:10:56.494882
5305,-0.7017,0.1835,-0.1757,-65.450,14.350,48.020,804,804,799,796,355,2025-05-23T21:10:56.494897
5306,-0.7627,0.1913,-0.1664,-67.970,17.640,44.240,804,806,800,797,393,2025-05-23T21:10:56.494907
5307,-0.8179,0.2362,-0.1464,-70.770,8.400,38.290,808,809,804,802,415,2025-05-23T21:10:56.494917
5308,-0.8428,0.2738,-0.1420,-78.680,-4.200,31.290,821,822,818,814,404,2025-05-23T21:10:56.494927
5309,-0.8213,0.2982,-0.1288,-82.040,-10.150,25.550,824,827,821,817,404,2025-05-23T21:10:56.494939
5310,-0.8076,0.2991,-0.1196,-87.920,-12.320,20.720,826,828,823,819,392,2025-05-23T21:10:56.494948
5311,-0.8164,0.2664,-0.1200,-84.770,-10.430,12.670,828,830,824,821,397,2025-05-23T21:10:56.494958
5312,-0.8272,0.2460,-0.1118,-78.260,-5.180,4.830,829,830,824,821,395,2025-05-23T21:10:56.494967
5313,-0.8218,0.2591,-0.0825,-73.360,-0.070,-1.330,829,830,824,821,408,2025-05-23T21:10:56.494976
5314,-0.8291,0.2952,-0.0693,-71.750,2.800,-6.020,829,831,825,822,415,2025-05-23T21:10:56.494984
5315,-0.8457,0.3411,-0.0737,-70.210,5.950,-10.500,830,830,826,822,413,2025-05-23T21:10:56.494993
5316,-0.8769,0.3767,-0.0908,-69.860,7.420,-14.280,830,830,825,822,423,2025-05-23T21:10:56.495038
5317,-0.9052,0.3699,-0.1230,-64.960,7.070,-19.810,827,829,822,819,412,2025-05-23T21:10:56.495048
5318,-0.9023,0.3240,-0.1649,-59.010,8.120,-24.780,825,827,822,819,410,2025-05-23T21:10:56.495057
5319,-0.8979,0.3118,-0.1952,-53.760,13.090,-32.340,827,828,823,820,397,2025-05-23T21:10:56.699310
5320,-0.9170,0.3055,-0.2250,-45.080,24.780,-40.880,828,829,823,820,369,2025-05-23T21:10:56.699356
5321,-0.9716,0.3152,-0.2528,-38.710,41.160,-48.580,828,829,823,820,388,2025-05-23T21:10:56.699370
5322,-1.0516,0.3489,-0.2645,-38.710,53.830,-49.000,850,852,848,846,393,2025-05-23T21:10:56.699380
5323,-1.1522,0.3650,-0.2689,-42.910,55.370,-46.480,900,908,906,905,409,2025-05-23T21:10:56.699406
5324,-1.2498,0.3572,-0.2747,-54.670,43.680,-44.660,920,925,922,921,397,2025-05-23T21:10:56.699415
5325,-1.3581,0.3113,-0.2674,-62.440,28.420,-43.050,930,934,931,929,408,2025-05-23T21:10:56.699428
5326,-1.4123,0.2508,-0.2762,-69.020,9.100,-37.660,936,941,938,936,396,2025-05-23T21:10:56.699437
5327,-1.3937,0.1532,-0.2723,-70.560,-6.790,-29.330,942,946,943,940,412,2025-05-23T21:10:56.699446
5328,-1.3971,0.0620,-0.2562,-66.850,-14.070,-26.110,947,952,948,946,417,2025-05-23T21:10:56.699456
5329,-1.3420,0.0312,-0.2455,-56.070,-6.160,-26.040,952,956,952,950,367,2025-05-23T21:10:56.699465
5330,-1.2976,0.0210,-0.2411,-45.150,5.670,-26.040,956,959,955,954,394,2025-05-23T21:10:56.699479
5331,-1.2766,0.0122,-0.2450,-36.470,22.890,-26.180,959,963,959,957,393,2025-05-23T21:10:56.699488
5332,-1.2893,0.0132,-0.2362,-33.600,29.750,-25.270,963,966,963,961,405,2025-05-23T21:10:56.699497
5333,-1.2986,0.0444,-0.2308,-34.300,24.010,-23.520,966,970,965,964,393,2025-05-23T21:10:56.699536
5334,-1.3347,0.0542,-0.2416,-34.510,13.300,-23.870,969,973,969,966,403,2025-05-23T21:10:56.699545
5335,-1.3440,0.0625,-0.2440,-36.540,2.030,-22.610,971,975,972,969,399,2025-05-23T21:10:56.699553
5336,-1.3313,0.0449,-0.2264,-35.980,-7.420,-18.620,974,978,974,971,403,2025-05-23T21:10:56.905554
5337,-1.3283,0.0254,-0.2172,-31.430,-14.630,-19.040,977,980,977,974,399,2025-05-23T21:10:56.905621
5338,-1.2810,0.0190,-0.2196,-26.600,-7.070,-21.840,980,983,979,977,386,2025-05-23T21:10:56.905636
5339,-1.2405,0.0190,-0.2216,-16.310,16.240,-22.610,983,985,982,979,411,2025-05-23T21:10:56.905652
5340,-1.2834,0.0503,-0.2128,-11.270,40.180,-17.920,984,987,984,982,425,2025-05-23T21:10:56.905663
5341,-1.3176,0.0908,-0.2157,-10.430,52.010,-9.170,986,990,985,983,413,2025-05-23T21:10:56.905673
5342,-1.3361,0.1225,-0.2499,-15.680,48.020,1.330,989,992,987,985,402,2025-05-23T21:10:56.905683
5343,-1.3503,0.1352,-0.2962,-23.520,30.170,6.720,990,993,989,986,405,2025-05-23T21:10:56.905694
5344,-1.2888,0.1815,-0.3104,-28.490,5.390,10.780,993,995,991,989,388,2025-05-23T21:10:56.905708
5345,-1.2283,0.2045,-0.3323,-25.830,-5.530,15.610,995,998,993,991,402,2025-05-23T21:10:56.905723
5346,-1.2224,0.2211,-0.3460,-18.270,1.330,16.380,997,999,995,993,391,2025-05-23T21:10:56.905738
5347,-1.2034,0.2352,-0.3567,-15.470,14.210,17.220,999,1002,997,995,387,2025-05-23T21:10:56.905747
5348,-1.1971,0.2264,-0.3597,-15.400,19.250,24.290,931,923,915,909,394,2025-05-23T21:10:56.905757
5349,-1.2029,0.2089,-0.3597,-25.410,13.650,35.490,890,885,872,865,393,2025-05-23T21:10:56.905766
5350,-1.1751,0.2162,-0.3289,-37.730,1.890,44.940,862,859,851,847,398,2025-05-23T21:10:56.905807
5351,-1.1263,0.2050,-0.3099,-49.420,-11.480,54.110,849,847,840,835,392,2025-05-23T21:10:56.905821
5352,-1.0921,0.1645,-0.3035,-53.550,-21.210,58.870,840,839,832,828,401,2025-05-23T21:10:56.905831
5353,-1.0375,0.1293,-0.2962,-50.540,-30.240,61.180,831,829,822,817,395,2025-05-23T21:10:57.108786
5354,-0.9570,0.1171,-0.2713,-48.440,-37.030,63.280,820,819,812,808,354,2025-05-23T21:10:57.108856
5355,-0.9057,0.1015,-0.2518,-44.660,-43.960,68.180,815,813,806,802,341,2025-05-23T21:10:57.108874
5356,-0.8891,0.0517,-0.2557,-40.460,-42.630,66.500,810,809,803,798,378,2025-05-23T21:10:57.108889
5357,-0.8340,0.0732,-0.2152,-37.800,-40.250,68.110,806,805,799,795,399,2025-05-23T21:10:57.108908
5358,-0.7715,0.0937,-0.1908,-39.410,-41.230,72.380,803,802,795,792,409,2025-05-23T21:10:57.108953
5359,-0.7271,0.0849,-0.1898,-43.120,-40.950,73.430,798,797,791,787,407,2025-05-23T21:10:57.108967
5360,-0.6900,0.0956,-0.1835,-47.320,-45.780,71.960,795,794,788,784,407,2025-05-23T21:10:57.108980
5361,-0.6705,0.1010,-0.1674,-47.810,-54.110,70.280,792,791,785,782,406,2025-05-23T21:10:57.108993
5362,-0.6891,0.1093,-0.1581,-43.260,-60.970,67.340,790,789,783,779,402,2025-05-23T21:10:57.109006
5363,-0.6720,0.1308,-0.1454,-41.160,-72.100,66.570,789,789,782,778,408,2025-05-23T21:10:57.109292
5364,-0.6383,0.1454,-0.1283,-38.430,-76.160,65.380,788,788,782,778,421,2025-05-23T21:10:57.109306
5365,-0.6163,0.1532,-0.1303,-33.530,-72.660,64.120,788,788,782,779,408,2025-05-23T21:10:57.109323
5366,-0.6056,0.1835,-0.1225,-24.150,-58.450,66.500,788,789,783,779,359,2025-05-23T21:10:57.109335
5367,-0.6822,0.2157,-0.1166,-18.620,-41.580,68.530,790,791,786,782,380,2025-05-23T21:10:57.109388
5368,-0.7813,0.2386,-0.1205,-13.930,-33.950,70.140,792,793,788,784,410,2025-05-23T21:10:57.109400
5369,-0.8760,0.3001,-0.1171,-9.800,-41.020,71.960,794,794,790,785,399,2025-05-23T21:10:57.109414
5370,-0.9204,0.3562,-0.1244,-16.380,-55.860,72.940,796,795,789,786,404,2025-05-23T21:10:57.187610
5371,-0.9531,0.3855,-0.1684,-22.120,-64.960,78.750,796,796,791,788,415,2025-05-23T21:10:57.187655
5372,-1.0024,0.3958,-0.1762,-22.330,-64.120,87.710,798,799,792,789,361,2025-05-23T21:10:57.187667
5373,-0.9599,0.4538,-0.1718,-11.830,-53.900,97.790,799,799,795,790,335,2025-05-23T21:10:57.187678
5374,-1.0009,0.4836,-0.2084,-4.620,-28.490,109.550,801,801,796,793,365,2025-05-23T21:10:57.314410
5375,-1.0019,0.5412,-0.2313,-1.190,2.940,122.920,807,809,804,801,394,2025-05-23T21:10:57.314489
5376,-1.1507,0.5280,-0.2625,6.790,29.260,140.980,811,812,807,804,358,2025-05-23T21:10:57.314503
5377,-1.1790,0.6573,-0.1942,12.880,36.190,160.020,814,816,811,809,391,2025-05-23T21:10:57.314513
5378,-1.1522,0.7418,-0.2011,5.460,27.860,174.300,819,820,814,811,408,2025-05-23T21:10:57.314523
5379,-1.0116,0.7623,-0.2294,-5.390,21.980,188.020,820,820,814,810,411,2025-05-23T21:10:57.314532
5380,-0.8774,0.8072,-0.2074,-20.370,14.140,205.800,814,815,809,805,416,2025-05-23T21:10:57.314545
5381,-0.7896,0.7696,-0.2084,-29.540,12.740,217.770,812,813,807,803,420,2025-05-23T21:10:57.314555
5382,-0.7359,0.7086,-0.2162,-29.960,19.040,216.650,810,810,805,802,420,2025-05-23T21:10:57.314563
5383,-0.5592,0.7198,-0.2025,-28.350,25.830,220.780,809,810,804,802,406,2025-05-23T21:10:57.314572
5384,-0.4885,0.7335,-0.2420,-30.800,33.110,218.540,809,811,805,801,414,2025-05-23T21:10:57.314580
5385,-0.3162,0.8125,-0.2591,-38.710,38.500,219.240,809,810,804,801,394,2025-05-23T21:10:57.314589
5386,-0.2933,0.8286,-0.2606,-44.100,49.000,219.170,809,808,803,800,404,2025-05-23T21:10:57.370546
5387,-0.2733,0.8379,-0.2201,-47.740,58.520,215.600,807,808,802,799,418,2025-05-23T21:10:57.370598
5388,-0.2577,0.8384,-0.1313,-54.810,62.720,216.650,807,807,802,800,407,2025-05-23T21:10:57.370611
5389,-0.2728,0.7974,-0.0917,-62.720,62.300,212.800,798,797,792,787,405,2025-05-23T21:10:57.370621
5390,-0.2059,0.7935,-0.0600,-72.590,58.170,208.670,798,799,794,791,397,2025-05-23T21:10:57.370630
5391,-0.0898,0.7954,-0.0317,-77.350,54.390,205.800,819,822,818,818,361,2025-05-23T21:10:57.518843
5392,-0.0547,0.8106,0.0146,-76.930,53.550,199.640,839,841,837,833,380,2025-05-23T21:10:57.518884
5393,-0.0083,0.7666,0.0673,-71.540,52.710,188.790,883,896,897,900,363,2025-05-23T21:10:57.518896
5394,-0.0156,0.6891,0.1044,-61.670,55.930,175.980,924,930,928,927,384,2025-05-23T21:10:57.518932
5395,-0.0068,0.6866,0.1776,-55.650,55.720,165.970,940,889,870,863,339,2025-05-23T21:10:57.518941
5396,0.0000,0.6827,0.2308,-58.100,55.020,157.010,842,841,835,831,371,2025-05-23T21:10:57.544146
5397,0.0493,0.6939,0.2318,-69.790,49.980,143.080,833,834,828,824,380,2025-05-23T21:10:57.544185
5398,0.0766,0.6651,0.2108,-78.050,50.050,126.210,834,834,828,825,382,2025-05-23T21:10:57.544197
5399,0.0210,0.5724,0.1645,-76.230,39.550,107.660,833,834,828,825,391,2025-05-23T21:10:57.544206
5400,0.0127,0.5597,0.1376,-73.220,24.710,93.380,834,834,829,825,398,2025-05-23T21:10:57.544215
5401,0.0142,0.5714,0.1679,-54.880,16.030,78.190,831,832,826,823,829,2025-05-23T21:10:57.544224
5402,0.0346,0.6173,0.1732,-42.490,6.090,66.360,830,830,824,821,827,2025-05-23T21:10:57.544233
5403,0.1025,0.6320,0.1606,-34.930,2.380,54.040,818,817,810,807,811,2025-05-23T21:10:57.591318
5404,0.1161,0.6876,0.1327,-24.920,5.390,43.470,813,812,808,804,809,2025-05-23T21:10:57.591368
5405,0.0961,0.7213,0.1254,-19.390,6.370,34.650,811,810,804,802,805,2025-05-23T21:10:57.591385
5406,0.0791,0.7364,0.1015,-13.300,4.550,27.370,807,806,801,798,803,2025-05-23T21:10:57.591395
5407,0.0898,0.7808,0.0942,-13.230,1.330,25.620,803,803,797,794,797,2025-05-23T21:10:57.591405
5408,0.0708,0.7808,0.0825,-15.610,-0.560,25.970,799,799,793,791,793,2025-05-23T21:10:57.724318
5409,0.0688,0.7867,0.0800,-10.780,-4.550,25.970,797,796,790,787,791,2025-05-23T21:10:57.724364
5410,0.1166,0.7852,0.0781,-5.950,-11.060,23.800,794,794,788,784,788,2025-05-23T21:10:57.724376
5411,0.1688,0.8189,0.0781,0.210,-14.070,18.410,793,792,786,780,784,2025-05-23T21:10:57.724387
5412,0.2040,0.8686,0.0776,1.120,-8.890,15.540,787,786,779,776,779,2025-05-23T21:10:57.724398
5413,0.2025,0.8750,0.0952,6.020,-1.890,14.700,784,783,777,774,778,2025-05-23T21:10:57.724409
5414,0.1742,0.9028,0.1225,9.380,3.080,14.140,783,782,777,774,776,2025-05-23T21:10:57.724417
5415,0.1498,0.8901,0.1313,8.540,-2.800,14.980,782,781,776,773,775,2025-05-23T21:10:57.724426
5416,0.1366,0.8896,0.1405,-0.070,-17.290,16.380,779,779,773,770,773,2025-05-23T21:10:57.724436
5417,0.1747,0.9057,0.1318,-7.770,-30.660,16.380,778,777,773,768,772,2025-05-23T21:10:57.724445
5418,0.2533,0.9350,0.1235,-11.060,-30.590,15.610,777,777,773,768,771,2025-05-23T21:10:57.724453
5419,0.2694,0.9428,0.1093,-7.350,-21.420,15.120,777,777,773,769,771,2025-05-23T21:10:57.724462
5420,0.2411,0.9360,0.1210,1.400,-3.500,13.790,777,776,772,768,771,2025-05-23T21:10:57.772520
5421,0.2108,0.9487,0.1454,3.430,4.900,13.160,774,773,768,765,768,2025-05-23T21:10:57.772566
5422,0.1674,0.9604,0.1601,-0.350,-2.310,14.280,772,772,768,764,766,2025-05-23T21:10:57.772577
5423,0.1318,0.9609,0.1688,-7.420,-18.690,14.350,771,771,766,763,766,2025-05-23T21:10:57.772587
5424,0.1327,0.9516,0.1820,-11.690,-35.350,14.210,771,771,766,762,765,2025-05-23T21:10:57.823288
5425,0.1532,0.9394,0.2172,-13.160,-43.540,11.620,770,770,765,761,764,2025-05-23T21:10:57.823330
5426,0.1552,0.9614,0.2289,-12.180,-41.790,8.400,770,769,765,762,764,2025-05-23T21:10:57.823339
5427,0.1698,0.9838,0.2181,-4.830,-35.490,4.900,770,769,764,761,764,2025-05-23T21:10:57.823349
5428,0.1669,0.9975,0.1991,3.150,-25.130,-17.500,769,769,764,761,764,2025-05-23T21:10:57.930492
5429,0.1566,1.0028,0.2006,5.530,-20.090,-3.920,769,769,764,761,763,2025-05-23T21:10:57.930542
5430,0.1454,0.9950,0.2030,3.990,-19.390,-6.230,769,769,764,761,763,2025-05-23T21:10:57.930554
5431,0.1474,0.9941,0.2142,-2.870,-23.030,-7.560,768,768,764,761,763,2025-05-23T21:10:57.930564
5432,0.1479,1.0126,0.2201,-5.740,-27.090,-10.570,768,768,763,761,763,2025-05-23T21:10:57.930574
5433,0.1723,1.0643,0.2186,-4.060,-28.490,-14.560,768,767,763,760,763,2025-05-23T21:10:57.930584
5434,0.2074,1.1063,0.2030,-1.680,-27.650,-18.270,768,768,762,760,762,2025-05-23T21:10:57.930593
5435,0.2279,1.1170,0.2250,-1.610,-22.190,-22.330,767,766,762,759,761,2025-05-23T21:10:57.930602
5436,0.1864,1.1136,0.2830,-9.240,-20.020,-24.010,766,766,761,758,761,2025-05-23T21:10:57.930611
5437,0.1249,1.0868,0.3587,-21.700,-28.560,-24.010,765,765,760,757,759,2025-05-23T21:10:58.133910
5438,0.1093,1.0346,0.3655,-43.960,-44.870,-24.500,764,764,759,756,759,2025-05-23T21:10:58.133948
5439,0.0908,1.0077,0.3470,-53.270,-64.050,-28.490,763,764,758,756,757,2025-05-23T21:10:58.133957
5440,0.0986,1.0297,0.3582,-53.760,-79.450,-36.820,763,762,757,754,757,2025-05-23T21:10:58.133968
5441,0.1435,1.0468,0.3816,-49.280,-88.690,-42.140,762,761,757,753,757,2025-05-23T21:10:58.133975
5442,0.1898,1.0668,0.4519,-50.750,-99.050,-42.630,761,761,755,752,755,2025-05-23T21:10:58.133983
5443,0.2450,1.0780,0.4836,-62.650,-110.530,-40.810,760,760,755,752,754,2025-05-23T21:10:58.133991
5444,0.3235,1.0702,0.4421,-71.470,-119.980,-40.250,759,759,754,750,754,2025-05-23T21:10:58.134000
5445,0.4382,1.0809,0.3523,-73.710,-127.330,-48.370,759,759,753,751,754,2025-05-23T21:10:58.134007
5446,0.4943,1.1278,0.3314,-76.650,-136.430,-60.200,759,760,754,751,755,2025-05-23T21:10:58.134014
5447,0.6344,1.3288,0.4451,-91.700,-165.060,-63.840,760,759,754,751,755,2025-05-23T21:10:58.134021
5448,0.9921,1.4630,0.5763,-138.250,-232.120,-55.230,759,758,754,751,754,2025-05-23T21:10:58.134195
5449,1.4123,1.4811,0.5973,-208.810,-347.410,-38.500,757,757,752,749,752,2025-05-23T21:10:58.134205
5450,1.9818,1.3967,0.3611,-309.890,-481.950,-30.380,757,756,751,748,751,2025-05-23T21:10:58.134213
5451,2.6542,1.4030,-0.2542,-368.060,-574.910,-54.460,760,762,756,753,757,2025-05-23T21:10:58.134246
5452,3.1793,1.6704,-0.6617,-378.210,-604.030,-81.550,771,772,766,762,767,2025-05-23T21:10:58.134254
5453,3.3189,1.8207,-1.1239,-389.760,-582.890,-114.310,784,788,780,776,782,2025-05-23T21:10:58.134267
5454,3.2896,1.8744,-1.3030,-401.170,-524.370,-115.710,797,800,793,787,793,2025-05-23T21:10:58.182465
5455,3.1627,1.7885,-1.4245,-441.630,-440.860,-91.490,802,804,798,790,794,2025-05-23T21:10:58.182498
5456,2.8875,1.5557,-1.5562,-523.880,-364.210,-88.620,797,796,788,779,783,2025-05-23T21:10:58.182506
5457,2.5659,1.0536,-1.5689,-614.810,-271.180,-115.500,782,781,769,759,763,2025-05-23T21:10:58.182513
5458,2.1389,0.0717,-1.4347,-710.920,-204.470,-149.660,754,752,743,735,738,2025-05-23T21:10:58.234156
5459,1.5728,-1.0741,-0.9906,-777.280,-148.540,-203.210,740,739,731,724,726,2025-05-23T21:10:58.234203
5460,0.5949,-2.8680,-0.4914,-749.210,-94.290,-255.920,733,734,726,718,721,2025-05-23T21:10:58.234215
5461,-0.3533,-4.5594,0.4148,-859.320,22.610,-410.760,727,728,720,710,711,2025-05-23T21:10:58.234228
5462,-1.9520,-6.0673,1.6265,-1028.160,197.890,-714.140,715,717,709,699,701,2025-05-23T21:10:58.234238
5463,-1.7861,-6.3884,1.6294,-991.130,292.530,-672.350,709,710,702,693,695,2025-05-23T21:10:58.339109
5464,-2.8333,-6.5934,0.6027,-639.870,330.540,-589.050,704,705,697,689,690,2025-05-23T21:10:58.339166
5465,-4.1587,-4.5550,0.7569,-384.160,404.180,-363.300,699,700,692,685,686,2025-05-23T21:10:58.339182
5466,-3.7654,-2.9641,0.6764,-74.480,495.320,-75.670,697,697,690,683,685,2025-05-23T21:10:58.339194
5467,-1.0106,-3.6419,-0.0415,284.270,475.580,412.930,696,695,689,682,683,2025-05-23T21:10:58.339205
5468,0.4626,-3.5702,0.3045,42.420,97.160,760.410,693,694,686,680,681,2025-05-23T21:10:58.339215
5469,-0.6173,-3.7971,-0.0107,196.840,84.350,799.260,692,692,686,679,680,2025-05-23T21:10:58.339225
5470,-1.4098,-4.0392,-0.2333,486.430,-161.910,681.450,691,691,686,679,679,2025-05-23T21:10:58.339235
5471,-0.7998,-3.7225,0.0044,830.550,-293.440,504.910,691,692,686,679,678,2025-05-23T21:10:58.387618
5472,0.2718,-2.5923,0.3235,835.730,-222.810,463.890,691,692,686,679,679,2025-05-23T21:10:58.387664
5473,0.7813,-1.5172,0.0781,790.090,-85.470,450.450,691,692,685,678,679,2025-05-23T21:10:58.387679
5474,0.8111,-0.0356,0.3050,795.200,198.800,374.780,692,693,687,680,682,2025-05-23T21:10:58.387689
5475,0.4602,0.6368,0.4460,446.810,345.800,405.020,694,695,689,682,684,2025-05-23T21:10:58.551292
5476,0.2884,0.4826,0.5812,383.250,381.360,372.400,692,693,687,680,681,2025-05-23T21:10:58.551338
5477,0.2533,0.5139,0.5939,404.320,362.740,361.340,691,692,684,679,516,2025-05-23T21:10:58.551350
5478,0.8569,0.6661,0.6647,352.310,285.320,345.730,691,692,686,680,418,2025-05-23T21:10:58.551361
5479,1.7295,0.6934,0.3694,297.710,200.760,249.200,695,695,690,684,408,2025-05-23T21:10:58.551370
5480,2.0974,1.0316,0.0346,267.190,216.300,210.560,696,697,692,686,404,2025-05-23T21:10:58.551380
5481,1.8466,1.3283,0.0708,308.210,287.980,189.910,696,696,691,685,358,2025-05-23T21:10:58.551390
5482,1.3932,1.5235,0.4207,295.890,275.380,184.870,695,695,690,685,386,2025-05-23T21:10:58.551399
5483,1.3298,1.4869,0.5866,260.680,213.010,198.380,695,695,690,684,402,2025-05-23T21:10:58.551408
5484,1.4279,1.3181,0.5851,178.710,135.520,193.830,694,695,690,685,394,2025-05-23T21:10:58.551417
5485,1.7993,1.2332,0.5695,77.140,-20.020,177.730,696,695,690,685,385,2025-05-23T21:10:58.551427
5486,1.7954,0.9872,0.2411,88.900,-56.980,157.640,696,696,691,686,406,2025-05-23T21:10:58.551435
5487,1.7895,0.9511,0.1074,172.130,19.040,133.700,696,697,691,686,397,2025-05-23T21:10:58.551444
5488,1.4982,1.0902,0.4748,172.830,100.800,81.060,697,697,691,687,401,2025-05-23T21:10:58.774177
5489,1.3825,1.1644,0.6827,124.180,130.410,62.020,697,698,692,688,391,2025-05-23T21:10:58.774227
5490,1.1429,1.0248,0.8086,55.930,96.810,48.090,697,697,692,687,394,2025-05-23T21:10:58.774239
5491,1.0609,0.8760,0.7481,-46.270,13.160,23.590,697,698,692,688,386,2025-05-23T21:10:58.774250
5492,0.9418,0.7447,0.5778,-63.070,-61.390,-2.030,698,699,693,689,402,2025-05-23T21:10:58.774260
5493,0.9536,0.7701,0.3850,2.170,-68.600,-20.790,699,700,695,690,694,2025-05-23T21:10:58.774270
5494,0.8374,0.8569,0.1932,37.380,-19.250,-34.440,701,702,697,693,697,2025-05-23T21:10:58.774280
5495,0.6202,0.9428,0.2235,60.690,46.830,-37.170,705,706,701,697,700,2025-05-23T21:10:58.774290
5496,0.2342,1.0082,0.2464,59.500,76.370,-30.940,707,708,702,699,702,2025-05-23T21:10:58.774298
5497,-0.0015,1.0175,0.1986,52.570,67.480,-15.190,710,710,705,700,704,2025-05-23T21:10:58.774307
5498,-0.1376,0.9980,0.0869,27.370,24.290,-4.760,710,711,705,702,706,2025-05-23T21:10:58.774317
5499,-0.0825,0.9692,0.0210,-1.820,-29.540,-1.260,712,712,707,702,706,2025-05-23T21:10:58.774326
5500,0.0200,0.8862,-0.0083,0.420,-47.530,4.970,712,713,707,703,707,2025-05-23T21:10:58.774334
5501,0.1342,0.8784,0.0366,12.040,-31.570,7.910,713,714,708,704,707,2025-05-23T21:10:58.774343
5502,0.2133,0.9262,0.1884,23.660,3.080,7.280,713,713,708,704,708,2025-05-23T21:10:58.774382
5503,0.2391,0.9648,0.3148,26.460,19.390,8.610,713,715,709,705,708,2025-05-23T21:10:58.774391
5504,0.2962,0.9770,0.3553,14.770,16.450,10.990,714,714,709,705,708,2025-05-23T21:10:58.774400
5505,0.3065,0.9804,0.3162,6.300,-6.440,6.860,713,714,709,705,708,2025-05-23T21:10:58.774410
5506,0.3553,0.9750,0.2582,3.500,-29.750,3.780,713,714,709,705,709,2025-05-23T21:10:58.952620
5507,0.3265,0.9545,0.2167,9.730,-35.770,0.840,713,714,710,706,709,2025-05-23T21:10:58.952704
5508,0.3704,0.9296,0.2025,15.750,-32.760,-3.290,714,714,710,707,709,2025-05-23T21:10:58.952718
5509,0.4153,0.9184,0.2211,10.500,-20.790,-4.410,714,714,710,707,708,2025-05-23T21:10:58.952730
5510,0.3992,0.9287,0.2294,8.680,-8.820,-5.460,714,715,710,706,709,2025-05-23T21:10:58.952740
5511,0.3792,0.9711,0.2411,6.090,-0.070,-5.250,714,715,710,706,709,2025-05-23T21:10:58.952749
5512,0.3021,1.0141,0.2264,7.700,1.190,-6.440,715,715,710,707,710,2025-05-23T21:10:58.952759
5513,0.2801,1.0292,0.2035,3.850,-5.740,-4.550,714,715,711,707,710,2025-05-23T21:10:58.952770
5514,0.2830,0.9858,0.2377,-3.710,-21.700,-4.550,715,716,711,707,709,2025-05-23T21:10:58.952780
5515,0.3152,0.9501,0.2991,-17.920,-38.990,-3.710,716,716,711,708,709,2025-05-23T21:10:58.952789
5516,0.3704,0.8867,0.3392,-27.230,-46.410,-4.620,715,715,710,707,710,2025-05-23T21:10:58.952798
5517,0.4006,0.8545,0.3431,-25.130,-46.270,-11.900,714,714,709,705,709,2025-05-23T21:10:58.952807
5518,0.4626,0.8862,0.3284,-16.170,-44.520,-21.910,713,714,708,705,708,2025-05-23T21:10:58.952816
5519,0.4934,0.9609,0.3514,-3.710,-48.300,-28.000,713,713,709,704,707,2025-05-23T21:10:58.952824
5520,0.5314,1.0146,0.3875,-7.280,-62.440,-35.210,712,712,707,703,706,2025-05-23T21:10:58.952868
5521,0.6134,1.0873,0.4016,-25.410,-83.930,-43.470,711,711,706,703,704,2025-05-23T21:10:58.952878
5522,0.6817,1.1034,0.3714,-44.310,-110.600,-49.770,710,711,705,702,704,2025-05-23T21:10:59.157082
5523,0.7432,1.1200,0.3201,-66.150,-141.610,-58.590,710,710,705,702,704,2025-05-23T21:10:59.157161
5524,0.8935,1.0868,0.2450,-84.210,-170.590,-75.110,710,710,705,702,704,2025-05-23T21:10:59.157181
5525,1.0892,1.1082,0.1981,-101.080,-184.100,-87.570,710,711,705,702,705,2025-05-23T21:10:59.157208
5526,1.1429,1.1897,0.1171,-126.280,-196.280,-92.750,710,710,706,702,705,2025-05-23T21:10:59.157225
5527,1.2083,1.2986,0.0337,-160.860,-205.520,-94.570,710,711,705,702,705,2025-05-23T21:10:59.157241
5528,1.2244,1.4050,-0.0956,-205.170,-235.830,-92.750,710,711,705,702,705,2025-05-23T21:10:59.157256
5529,1.6455,1.5255,-0.3133,-256.340,-289.730,-85.680,711,711,705,702,705,2025-05-23T21:10:59.157273
5530,2.0867,1.7924,-0.5441,-300.790,-335.930,-80.990,710,710,706,702,704,2025-05-23T21:10:59.157289
5531,2.5181,2.1648,-0.8662,-337.610,-345.240,-78.750,709,710,705,701,704,2025-05-23T21:10:59.157305
5532,2.7118,2.3297,-1.1444,-372.470,-312.620,-77.490,709,709,704,701,703,2025-05-23T21:10:59.157496
5533,2.6996,2.3185,-1.3469,-396.760,-280.070,-72.100,709,709,704,700,703,2025-05-23T21:10:59.157511
5534,2.4410,2.1340,-1.4782,-428.260,-240.870,-73.220,707,707,703,699,701,2025-05-23T21:10:59.157526
5535,2.2428,1.7734,-1.6641,-475.230,-241.780,-68.110,704,705,699,696,697,2025-05-23T21:10:59.157595
5536,2.2180,1.0887,-1.9476,-566.020,-274.190,-74.200,699,699,693,689,689,2025-05-23T21:10:59.157611
5537,2.4078,-0.2908,-2.0842,-669.270,-311.570,-108.430,689,690,683,678,549,2025-05-23T21:10:59.157625
5538,2.2794,-1.8066,-1.6309,-761.320,-283.990,-190.400,681,681,675,669,449,2025-05-23T21:10:59.157640
5539,0.9248,-3.4955,-0.9711,-841.820,-173.320,-274.680,672,672,664,658,428,2025-05-23T21:10:59.362984
5540,-0.5924,-5.5505,0.1220,-956.130,4.270,-501.760,667,668,661,655,423,2025-05-23T21:10:59.363035
5541,-1.1522,-6.5329,0.2396,-1306.200,140.980,-587.510,664,663,656,650,416,2025-05-23T21:10:59.363050
5542,-2.5469,-8.2682,0.3401,-1232.000,318.290,-647.710,660,658,652,648,407,2025-05-23T21:10:59.363062
5543,-2.3444,-6.7876,1.0155,-702.240,35.140,-552.720,661,660,656,650,652,2025-05-23T21:10:59.363073
5544,-2.4815,-4.6243,1.1570,-339.360,141.960,-388.150,666,667,662,657,659,2025-05-23T21:10:59.363084
5545,-2.5874,-2.6942,1.0878,87.500,367.920,-74.410,672,673,666,662,663,2025-05-23T21:10:59.363098
5546,-1.0799,-2.1960,0.4880,281.400,487.550,295.190,675,675,669,664,663,2025-05-23T21:10:59.363109
5547,-0.1972,-2.2546,0.4948,249.970,243.880,527.940,673,674,668,660,662,2025-05-23T21:10:59.363119
5548,-1.0892,-2.8460,0.3714,228.410,45.500,531.440,671,672,666,659,660,2025-05-23T21:10:59.363129
5549,-1.3498,-3.0437,-0.0063,381.220,-280.630,450.800,671,672,666,660,662,2025-05-23T21:10:59.363140
5550,0.0102,-2.5966,0.2176,750.330,-552.580,418.460,675,675,670,664,666,2025-05-23T21:10:59.363150
5551,0.9072,-2.6567,0.0185,808.920,-472.780,279.580,681,681,678,672,675,2025-05-23T21:10:59.363159
5552,0.6920,-1.1692,0.5505,638.190,-16.170,265.720,687,688,683,677,680,2025-05-23T21:10:59.363200
5553,0.1664,-1.0038,0.9213,545.440,314.300,197.470,690,691,686,680,683,2025-05-23T21:10:59.363210
5554,-0.2108,-0.1796,1.0272,423.920,478.380,204.890,691,692,686,680,683,2025-05-23T21:10:59.363221
5555,-0.6139,0.1240,1.3854,409.290,472.080,245.700,689,689,683,678,680,2025-05-23T21:10:59.363232
5556,-0.7584,0.5714,1.4074,432.950,471.660,348.110,688,689,684,679,683,2025-05-23T21:10:59.567095
5557,-0.2738,0.3948,1.5553,325.290,279.650,259.420,692,693,688,682,686,2025-05-23T21:10:59.567143
5558,0.0303,0.6320,1.1634,193.900,199.640,203.490,695,695,689,685,688,2025-05-23T21:10:59.567156
5559,0.4133,0.7798,0.8101,130.970,212.170,186.760,697,697,692,687,529,2025-05-23T21:10:59.567167
5560,0.4841,0.9648,0.4255,343.000,199.990,191.660,699,699,693,688,466,2025-05-23T21:10:59.567177
5561,0.4368,1.1019,0.5168,447.370,189.910,192.850,700,700,694,689,435,2025-05-23T21:10:59.567187
5562,0.4573,1.1204,0.5056,427.070,191.100,210.210,699,700,694,689,409,2025-05-23T21:10:59.567197
5563,0.6627,1.0311,0.3675,372.680,166.320,236.320,700,700,694,690,417,2025-05-23T21:10:59.567207
5564,1.1092,1.1712,0.2015,252.000,124.180,266.630,701,701,696,691,420,2025-05-23T21:10:59.567216
5565,1.2546,1.0228,0.0044,237.440,108.290,241.640,702,703,697,692,409,2025-05-23T21:10:59.567226
5566,1.5411,1.1000,-0.0830,303.800,151.270,211.120,703,704,698,694,362,2025-05-23T21:10:59.567235
5567,1.5435,1.0721,0.2123,303.660,167.930,204.750,704,704,698,694,375,2025-05-23T21:10:59.567244
5568,1.6402,1.0370,0.4704,228.340,128.730,198.800,704,705,698,695,382,2025-05-23T21:10:59.567252
5569,1.9061,0.7603,0.4382,74.900,39.130,186.060,706,706,700,696,386,2025-05-23T21:10:59.567265
5570,2.3092,0.5319,0.2230,-15.400,-46.410,135.660,708,709,703,698,344,2025-05-23T21:10:59.567303
5571,2.5152,0.5534,0.0264,3.220,-50.540,82.600,711,712,707,703,381,2025-05-23T21:10:59.567312
5572,2.0433,0.6690,-0.1376,71.330,17.290,38.500,715,715,710,706,387,2025-05-23T21:10:59.567322
5573,1.5362,0.7852,0.0937,125.790,103.880,13.930,716,717,711,707,391,2025-05-23T21:10:59.781577
5574,0.8989,0.9794,0.4016,111.090,145.180,19.740,716,716,711,707,399,2025-05-23T21:10:59.781643
5575,0.2660,0.9775,0.5944,115.570,110.390,31.010,715,717,710,707,390,2025-05-23T21:10:59.781661
5576,0.2908,0.9975,0.2494,26.320,26.180,36.330,717,717,712,709,387,2025-05-23T21:10:59.781677
5577,0.4860,0.9116,0.0400,-25.830,-54.320,16.450,719,719,713,710,409,2025-05-23T21:10:59.781691
5578,0.5510,0.8808,-0.0039,-22.260,-53.060,10.710,720,720,715,711,398,2025-05-23T21:10:59.781705
5579,0.4987,0.8628,-0.0054,19.530,-5.040,0.280,721,721,715,712,402,2025-05-23T21:10:59.781720
5580,0.3084,0.8974,0.1381,34.440,58.450,1.470,721,721,716,712,408,2025-05-23T21:10:59.781733
5581,0.1503,0.9414,0.2918,29.120,75.390,9.450,721,720,715,712,397,2025-05-23T21:10:59.781746
5582,0.1962,0.9223,0.2338,-11.410,24.010,12.110,720,721,715,712,408,2025-05-23T21:10:59.781759
5583,0.2035,0.9116,0.2630,-46.830,-35.210,5.320,721,721,715,711,402,2025-05-23T21:10:59.781774
5584,0.2318,0.8755,0.3279,-53.480,-59.990,4.550,719,720,715,711,406,2025-05-23T21:10:59.781788
5585,0.3157,0.8808,0.3172,-28.630,-54.390,3.920,720,720,715,711,407,2025-05-23T21:10:59.781801
5586,0.4099,0.8725,0.3104,2.660,-10.010,3.150,719,720,715,711,411,2025-05-23T21:10:59.781813
5587,0.3611,0.8950,0.3245,29.050,28.280,0.490,719,720,715,711,403,2025-05-23T21:10:59.781874
5588,0.3016,0.9199,0.3089,38.990,39.060,1.470,719,719,715,711,403,2025-05-23T21:10:59.781887
5589,0.1815,0.9902,0.2777,36.400,15.820,5.530,718,719,714,710,406,2025-05-23T21:10:59.781900
5590,0.2489,1.0355,0.2084,10.710,-9.520,8.120,719,719,714,710,714,2025-05-23T21:10:59.978344
5591,0.2996,1.0043,0.1889,-5.950,-27.090,12.670,717,717,713,709,713,2025-05-23T21:10:59.978390
5592,0.3636,0.9623,0.2328,-16.310,-32.900,15.890,716,716,711,707,712,2025-05-23T21:10:59.978402
5593,0.4641,0.8969,0.2582,-13.160,-16.660,15.750,715,715,710,707,711,2025-05-23T21:10:59.978413
5594,0.4577,0.8369,0.2547,-5.040,3.220,11.130,714,715,710,705,710,2025-05-23T21:10:59.978423
5595,0.4309,0.8125,0.2499,3.990,13.440,6.370,714,714,710,707,711,2025-05-23T21:10:59.978433
5596,0.4070,0.8472,0.2411,15.120,11.130,2.870,715,715,711,707,712,2025-05-23T21:11:00.260082
5597,0.3504,0.8716,0.2694,16.100,7.140,1.190,715,716,711,708,713,2025-05-23T21:11:00.260137
5598,0.3279,0.8813,0.2855,8.400,1.890,0.560,717,716,713,709,714,2025-05-23T21:11:00.260152
5599,0.3314,0.8852,0.2743,-0.560,-2.660,0.420,717,718,713,709,715,2025-05-23T21:11:00.260162
5600,0.3499,0.8930,0.2450,-0.770,-10.360,-2.380,718,718,713,710,715,2025-05-23T21:11:00.260173
5601,0.3894,0.8906,0.2059,-0.630,-14.210,-5.180,718,718,714,710,716,2025-05-23T21:11:00.260183
5602,0.3797,0.8603,0.1850,-1.120,-9.940,-8.050,718,719,714,711,715,2025-05-23T21:11:00.260193
5603,0.3841,0.8555,0.2162,-3.640,-2.100,-9.310,718,719,714,711,716,2025-05-23T21:11:00.260203
5604,0.3899,0.8608,0.2616,-5.040,0.560,-9.240,718,719,715,711,716,2025-05-23T21:11:00.260212
5605,0.4299,0.8652,0.2952,-9.240,-3.850,-12.320,719,720,715,712,716,2025-05-23T21:11:00.260284
5606,0.4890,0.8891,0.2991,-15.400,-10.780,-18.130,719,720,715,712,716,2025-05-23T21:11:00.260295
5607,0.5261,0.9496,0.2772,-18.760,-20.370,-24.360,718,719,714,711,715,2025-05-23T21:11:00.260304
5608,0.5846,0.9789,0.2586,-22.260,-27.790,-31.290,719,718,713,710,715,2025-05-23T21:11:00.260314
5609,0.6071,0.9653,0.2855,-29.400,-34.230,-36.190,717,717,713,709,713,2025-05-23T21:11:00.260328
5610,0.6417,0.9941,0.3279,-49.630,-49.630,-38.920,715,716,712,708,711,2025-05-23T21:11:00.260337
5611,0.6744,1.0072,0.4250,-68.040,-72.940,-42.280,714,714,710,707,710,2025-05-23T21:11:00.260346
5612,0.7242,1.0063,0.4660,-96.600,-119.770,-45.780,712,712,707,703,706,2025-05-23T21:11:00.260354
5613,0.8106,0.9965,0.4338,-124.180,-143.990,-55.230,707,708,702,699,702,2025-05-23T21:11:00.260364
5614,1.0380,1.0799,0.2806,-143.850,-187.110,-65.660,707,707,702,699,702,2025-05-23T21:11:00.260373
5615,1.2859,1.0990,0.1523,-165.900,-212.800,-86.310,707,708,703,699,703,2025-05-23T21:11:00.260382
5616,1.6221,1.1732,0.0483,-182.350,-244.090,-118.510,705,704,700,696,698,2025-05-23T21:11:00.260491
5617,2.1599,1.2786,-0.0498,-215.250,-292.040,-100.800,700,699,693,690,694,2025-05-23T21:11:00.260501
5618,2.2643,1.2888,-0.2752,-266.560,-347.900,-95.410,697,697,692,688,691,2025-05-23T21:11:00.260510
5619,2.6977,1.2839,-0.7891,-338.520,-399.630,-104.650,696,696,691,688,691,2025-05-23T21:11:00.260533
5620,2.9817,1.6753,-1.2693,-379.470,-421.400,-113.400,698,699,693,690,694,2025-05-23T21:11:00.260543
5621,3.0261,2.0071,-1.5094,-401.170,-398.930,-99.680,700,702,696,692,695,2025-05-23T21:11:00.260552
5622,2.8338,1.8656,-1.6080,-435.680,-313.600,-82.880,701,701,697,693,696,2025-05-23T21:11:00.260561
5623,2.5986,1.5279,-1.5645,-500.710,-215.740,-88.480,701,701,695,691,695,2025-05-23T21:11:00.260570
5624,2.3351,1.0253,-1.3869,-552.860,-134.330,-110.110,694,695,688,684,687,2025-05-23T21:11:00.260578
5625,1.9608,0.4309,-1.1141,-611.730,-113.610,-135.870,680,678,672,666,668,2025-05-23T21:11:00.260588
5626,1.2180,-0.6046,-0.9980,-677.530,-153.370,-167.370,666,666,660,656,657,2025-05-23T21:11:00.397992
5627,0.6407,-2.0179,-0.7935,-728.560,-211.050,-260.890,671,673,670,665,667,2025-05-23T21:11:00.398043
5628,0.0800,-3.6600,-0.2001,-829.290,-199.710,-318.080,678,679,674,670,534,2025-05-23T21:11:00.398057
5629,-0.3460,-5.3363,1.0697,-939.820,-101.710,-546.630,679,680,675,669,452,2025-05-23T21:11:00.398070
5630,-0.9101,-5.9316,0.4865,-1095.780,138.390,-523.390,675,676,670,664,388,2025-05-23T21:11:00.398082
5631,-2.0974,-6.8218,1.3034,-1019.620,414.470,-478.870,672,672,668,662,404,2025-05-23T21:11:00.398092
5632,-2.1818,-4.7146,1.5587,-563.780,314.020,-504.280,671,672,667,661,408,2025-05-23T21:11:00.398102
5633,-3.1862,-3.0598,1.1165,-120.750,336.350,-360.850,671,673,667,663,665,2025-05-23T21:11:00.398114
5634,-2.6928,-2.1775,0.7427,185.290,405.160,-107.450,674,676,671,665,667,2025-05-23T21:11:00.398124
5635,-1.2893,-2.1516,0.7437,139.230,84.770,280.840,675,676,671,666,668,2025-05-23T21:11:00.398135
5636,-0.1732,-2.4293,0.5183,175.770,-24.990,402.850,675,676,670,666,667,2025-05-23T21:11:00.398146
5637,-0.4978,-2.4132,0.5695,191.100,-92.750,438.410,673,673,669,664,665,2025-05-23T21:11:00.398157
5638,-0.4856,-2.6903,0.4333,450.170,-322.910,421.050,673,674,669,665,667,2025-05-23T21:11:00.398167
5639,-0.1498,-2.6947,0.2962,696.430,-355.810,356.230,676,676,673,669,671,2025-05-23T21:11:00.398213
5640,0.1025,-2.3795,0.6344,625.100,-97.160,259.420,679,680,676,671,674,2025-05-23T21:11:00.398223
5641,-0.4011,-2.0150,1.0848,697.340,98.630,289.310,681,682,679,675,678,2025-05-23T21:11:00.398233
5642,-0.2786,-1.0433,1.2317,501.340,365.120,245.560,691,693,689,685,688,2025-05-23T21:11:00.591371
5643,-0.4397,-0.6695,1.2507,375.970,463.750,275.520,695,695,692,687,689,2025-05-23T21:11:00.591420
5644,-0.7037,-0.4143,1.1741,394.310,480.970,281.190,694,694,689,685,686,2025-05-23T21:11:00.591458
5645,-0.7959,-0.0547,1.2185,356.230,457.100,278.740,691,692,686,682,685,2025-05-23T21:11:00.591469
5646,-0.7481,0.2455,1.2444,319.900,418.460,244.580,692,692,688,683,687,2025-05-23T21:11:00.591480
5647,-0.2923,0.7096,1.0067,252.140,354.690,224.280,693,695,691,687,689,2025-05-23T21:11:00.591490
5648,0.0312,1.0843,0.7808,275.520,279.580,255.080,697,699,694,690,693,2025-05-23T21:11:00.591500
5649,0.3436,1.1712,0.7271,382.970,124.600,298.970,698,699,694,691,695,2025-05-23T21:11:00.591512
5650,0.7335,1.1356,0.5544,474.040,20.370,294.630,700,701,696,692,696,2025-05-23T21:11:00.591521
5651,1.0331,1.0760,0.5012,397.740,59.780,265.230,700,702,697,693,696,2025-05-23T21:11:00.591534
5652,1.5040,1.1531,0.4480,294.560,120.610,262.080,700,700,696,691,694,2025-05-23T21:11:00.591543
5653,1.6895,1.2151,0.2645,275.800,180.810,244.510,696,697,693,688,691,2025-05-23T21:11:00.591552
5654,1.5840,1.3835,0.1972,295.680,207.270,217.630,690,690,686,681,683,2025-05-23T21:11:00.591561
5655,1.4991,1.3122,0.1791,289.450,193.690,237.510,686,686,681,676,493,2025-05-23T21:11:00.591569
5656,1.5714,1.1868,0.5876,255.080,130.550,220.500,678,679,675,671,445,2025-05-23T21:11:00.591610
5657,1.8095,0.9638,0.8023,119.630,7.980,191.730,680,680,676,672,432,2025-05-23T21:11:00.591619
5658,2.0813,0.6915,0.7847,15.400,-53.900,169.400,681,682,678,673,404,2025-05-23T21:11:00.795275
5659,2.2370,0.5022,0.5173,17.290,-38.430,135.940,687,687,684,680,361,2025-05-23T21:11:00.795323
5660,2.1794,0.4358,0.1210,39.830,23.730,111.160,691,692,689,684,353,2025-05-23T21:11:00.795335
5661,1.4372,0.5529,0.0015,128.660,100.240,48.300,700,702,698,695,375,2025-05-23T21:11:00.795347
5662,1.0921,0.6900,0.1552,159.040,112.910,8.750,706,708,703,700,407,2025-05-23T21:11:00.795357
5663,0.8760,0.7149,0.2528,161.420,74.340,14.560,709,709,705,701,404,2025-05-23T21:11:00.795367
5664,0.6066,0.8428,0.0312,46.550,-28.280,27.860,710,711,707,703,397,2025-05-23T21:11:00.795376
5665,0.6847,0.6481,-0.1420,-84.700,-126.700,-2.240,710,712,707,703,408,2025-05-23T21:11:00.795387
5666,0.6056,0.6281,-0.0561,-50.260,-96.740,-13.580,712,712,709,705,409,2025-05-23T21:11:00.795397
5667,0.4353,0.7481,-0.1039,-9.310,-31.290,-21.840,713,713,710,706,414,2025-05-23T21:11:00.795407
5668,0.2186,0.8520,0.0268,26.110,27.090,-15.820,713,714,710,707,401,2025-05-23T21:11:00.795416
5669,-0.1274,0.8555,0.4768,31.500,65.520,-9.450,716,717,713,710,403,2025-05-23T21:11:00.795425
5670,0.1635,0.8794,0.4573,31.850,41.300,-13.020,721,722,719,715,390,2025-05-23T21:11:00.795434
5671,0.3196,0.9662,0.2830,-24.710,-27.650,-21.840,724,725,721,718,405,2025-05-23T21:11:00.795442
5672,0.2455,0.9453,0.2176,-37.660,-55.160,-23.100,725,726,722,718,414,2025-05-23T21:11:00.795481
5673,0.2157,0.9223,0.1381,-18.130,-30.590,-17.150,725,725,721,718,400,2025-05-23T21:11:00.795492
5674,0.2094,0.9570,0.1430,6.020,-9.450,-9.870,723,724,720,717,406,2025-05-23T21:11:00.795501
5675,0.2728,0.9872,0.1542,20.510,4.130,-3.640,723,724,719,716,400,2025-05-23T21:11:01.000671
5676,0.3753,0.9682,0.1835,19.600,-2.380,-3.360,721,723,718,715,411,2025-05-23T21:11:01.000718
5677,0.3640,0.9438,0.2743,-7.490,-23.590,-5.320,722,723,719,715,412,2025-05-23T21:11:01.000731
5678,0.4426,0.9087,0.3172,-16.240,-41.090,-6.860,723,724,720,716,379,2025-05-23T21:11:01.000742
5679,0.5549,0.9101,0.2962,-7.980,-45.500,-11.900,725,725,721,718,388,2025-05-23T21:11:01.000753
5680,0.5558,0.8857,0.2416,2.870,-34.370,-18.830,726,727,723,720,353,2025-05-23T21:11:01.000763
5681,0.4490,0.8838,0.2411,8.050,-8.120,-21.070,727,728,724,721,335,2025-05-23T21:11:01.000774
5682,0.2972,0.8999,0.2372,0.420,4.270,-17.920,728,729,725,722,369,2025-05-23T21:11:01.000784
5683,0.1449,0.9204,0.2250,-6.020,-7.490,-13.930,728,729,726,723,392,2025-05-23T21:11:01.000793
5684,0.1142,0.9565,0.1932,-7.000,-39.340,-14.000,729,731,726,724,404,2025-05-23T21:11:01.000802
5685,0.1840,0.9399,0.1518,-16.800,-60.480,-14.910,731,731,727,724,411,2025-05-23T21:11:01.000810
5686,0.2064,0.9048,0.1942,-20.790,-70.210,-17.780,731,732,727,726,415,2025-05-23T21:11:01.000819
5687,0.2445,0.8945,0.2362,-15.750,-68.320,-19.600,732,733,729,726,405,2025-05-23T21:11:01.000828
5688,0.2216,0.8911,0.2889,-0.490,-63.350,-26.670,732,733,729,727,387,2025-05-23T21:11:01.000837
5689,0.1771,0.9067,0.2987,4.200,-61.460,-30.450,733,734,730,727,408,2025-05-23T21:11:01.000881
5690,0.1288,0.9130,0.3133,-0.560,-63.700,-27.580,734,735,731,728,357,2025-05-23T21:11:01.000890
5691,0.0849,0.9038,0.3318,-7.560,-66.570,-28.000,735,736,731,729,384,2025-05-23T21:11:01.000899
5692,0.0810,0.9101,0.3065,-13.650,-76.090,-33.600,735,736,732,729,402,2025-05-23T21:11:01.210393
5693,0.1147,0.9209,0.2752,-16.450,-83.650,-36.470,736,737,733,730,417,2025-05-23T21:11:01.210458
5694,0.1254,0.9189,0.2552,-17.570,-87.290,-42.140,736,737,733,730,413,2025-05-23T21:11:01.210474
5695,0.1176,0.9267,0.2723,-20.720,-90.020,-45.640,737,738,733,731,406,2025-05-23T21:11:01.210488
5696,0.1083,0.9038,0.2860,-25.620,-98.840,-48.230,737,737,734,731,409,2025-05-23T21:11:01.210500
5697,0.0615,0.8969,0.3011,-25.620,-104.790,-49.700,738,738,735,731,403,2025-05-23T21:11:01.210512
5698,0.0600,0.9482,0.3182,-24.850,-111.580,-47.810,738,740,736,733,418,2025-05-23T21:11:01.210526
5699,0.0532,0.9789,0.3045,-28.000,-115.850,-46.060,744,747,742,740,373,2025-05-23T21:11:01.210539
5700,0.0503,0.9862,0.2865,-25.970,-116.900,-44.800,749,751,748,745,393,2025-05-23T21:11:01.210687
5701,0.0102,0.9872,0.2811,-26.320,-118.580,-43.610,753,755,751,748,405,2025-05-23T21:11:01.210700
5702,0.0107,0.9780,0.2762,-24.850,-123.410,-41.230,758,759,755,753,411,2025-05-23T21:11:01.210713
5703,0.0098,0.9565,0.2640,-25.410,-126.980,-36.120,763,765,762,760,415,2025-05-23T21:11:01.210726
5704,0.0137,0.9252,0.2645,-26.950,-127.260,-37.100,769,771,767,764,397,2025-05-23T21:11:01.210737
5705,0.0322,0.8945,0.2733,-26.390,-127.260,-37.450,771,777,774,772,406,2025-05-23T21:11:01.210750
5706,0.0600,0.9038,0.2577,-27.090,-130.410,-37.800,791,795,793,791,393,2025-05-23T21:11:01.210801
5707,0.0937,0.8955,0.2264,-26.600,-132.790,-38.430,858,864,864,863,359,2025-05-23T21:11:01.210813
5708,0.0991,0.8808,0.2079,-23.590,-132.930,-42.140,875,882,880,878,383,2025-05-23T21:11:01.210825
5709,0.0986,0.8506,0.1967,-22.050,-136.080,-46.970,888,893,892,889,406,2025-05-23T21:11:01.256744
5710,0.0913,0.8442,0.2152,-23.940,-142.520,-49.840,897,902,901,897,420,2025-05-23T21:11:01.256798
5711,0.0752,0.8262,0.2294,-28.210,-147.630,-50.960,906,911,909,905,425,2025-05-23T21:11:01.256813
5712,0.0786,0.8003,0.2176,-36.820,-148.680,-56.840,913,918,916,911,429,2025-05-23T21:11:01.256824
5713,0.0834,0.7998,0.2172,-38.990,-149.240,-61.880,919,923,921,917,421,2025-05-23T21:11:01.312697
5714,0.0625,0.8198,0.2206,-38.360,-145.740,-67.060,924,929,927,922,404,2025-05-23T21:11:01.312742
5715,0.0610,0.8335,0.2289,-34.090,-142.450,-72.100,930,934,931,927,397,2025-05-23T21:11:01.312753
5716,0.0654,0.8525,0.2372,-35.490,-140.910,-73.570,934,939,936,932,404,2025-05-23T21:11:01.312762
5717,0.0649,0.8594,0.2533,-34.860,-141.050,-74.690,939,943,940,611,392,2025-05-23T21:11:01.409738
5718,0.0922,0.8584,0.2484,-38.290,-145.110,-74.900,943,947,944,489,382,2025-05-23T21:11:01.409784
5719,0.1166,0.8413,0.2240,-38.010,-144.410,-76.510,947,952,948,449,392,2025-05-23T21:11:01.409796
5720,0.1435,0.8364,0.1810,-31.500,-139.300,-75.390,951,955,951,414,404,2025-05-23T21:11:01.409806
5721,0.1215,0.8579,0.1532,-21.140,-129.570,-83.230,954,958,953,397,386,2025-05-23T21:11:01.409816
5722,0.0776,0.8779,0.1469,-8.050,-122.220,-89.810,958,962,956,403,403,2025-05-23T21:11:01.409825
5723,0.0239,0.9150,0.1488,-3.710,-124.880,-92.610,961,965,958,403,413,2025-05-23T21:11:01.409834
5724,0.0146,0.9521,0.1771,-9.380,-137.410,-92.470,964,968,962,416,362,2025-05-23T21:11:01.409845
5725,0.0317,0.9809,0.1889,-19.530,-150.780,-88.060,968,972,964,415,384,2025-05-23T21:11:01.409856
5726,0.0688,0.9823,0.1581,-30.590,-153.090,-84.070,971,975,968,408,387,2025-05-23T21:11:01.624247
5727,0.1171,0.9531,0.1283,-28.490,-142.870,-80.990,975,979,971,409,393,2025-05-23T21:11:01.624295
5728,0.1030,0.9243,0.0800,-10.500,-122.850,-80.430,976,980,973,410,413,2025-05-23T21:11:01.624308
5729,0.1020,0.9301,0.0547,12.180,-101.850,-82.320,978,983,975,412,403,2025-05-23T21:11:01.624319
5730,0.0947,0.9882,0.0415,27.020,-86.240,-82.530,981,984,977,398,400,2025-05-23T21:11:01.624329
5731,0.0390,1.0404,0.0390,30.800,-78.540,-78.960,983,987,979,408,349,2025-05-23T21:11:01.624338
5732,-0.0195,1.0468,0.0420,28.490,-78.190,-81.060,985,988,981,411,365,2025-05-23T21:11:01.624347
5733,-0.0791,1.0272,0.0444,20.930,-82.320,-82.110,987,991,982,400,358,2025-05-23T21:11:01.624358
5734,-0.0815,0.9965,0.0586,11.550,-89.880,-80.710,988,992,984,419,382,2025-05-23T21:11:01.624367
5735,-0.0776,0.9599,0.0478,0.000,-89.880,-76.860,991,994,986,428,394,2025-05-23T21:11:01.624376
5736,-0.0581,0.9389,0.0376,-3.010,-76.860,-74.340,993,996,987,431,401,2025-05-23T21:11:01.624385
5737,-0.0649,0.9443,0.0224,-2.310,-57.120,-73.010,994,998,990,422,390,2025-05-23T21:11:01.624394
5738,-0.0698,0.9750,0.0224,5.040,-45.430,-73.150,996,999,991,400,399,2025-05-23T21:11:01.624402
5739,-0.0786,1.0106,0.0332,9.030,-38.010,-73.780,997,1001,993,401,408,2025-05-23T21:11:01.624411
5740,-0.1244,1.0116,0.0703,5.600,-35.840,-73.430,999,1002,994,412,375,2025-05-23T21:11:01.624453
5741,-0.1742,0.9872,0.0913,-2.170,-36.260,-71.750,1001,1004,996,409,393,2025-05-23T21:11:01.624464
5742,-0.2045,0.9282,0.1181,-10.150,-39.620,-65.030,1002,1006,998,404,412,2025-05-23T21:11:01.624474
5743,-0.2045,0.8491,0.1269,-11.900,-39.480,-63.910,1003,1006,999,412,375,2025-05-23T21:11:01.824609
5744,-0.1884,0.8311,0.1347,-11.480,-36.470,-61.600,1005,1008,1000,391,391,2025-05-23T21:11:01.824663
5745,-0.1908,0.8740,0.1181,-7.140,-28.420,-62.580,1007,1009,1002,420,387,2025-05-23T21:11:01.824680
5746,-0.2069,0.9340,0.0961,2.660,-16.450,-64.680,1008,1011,1003,397,405,2025-05-23T21:11:01.824690
5747,-0.2377,0.9706,0.1020,8.190,-16.800,-68.250,1009,1012,1005,418,415,2025-05-23T21:11:01.824700
5748,-0.2987,0.9823,0.1049,10.430,-24.570,-71.050,1011,1014,1006,422,415,2025-05-23T21:11:01.824710
5749,-0.3665,0.9804,0.1259,4.620,-35.910,-70.350,1013,1015,1007,430,418,2025-05-23T21:11:01.824720
5750,-0.4177,0.9399,0.1459,-2.100,-42.140,-68.530,1013,1016,1009,405,409,2025-05-23T21:11:01.824730
5751,-0.4211,0.9296,0.1420,-4.970,-41.720,-68.600,1015,1017,1009,395,409,2025-05-23T21:11:01.824739
5752,-0.4109,0.9370,0.1347,-6.650,-36.190,-66.850,1016,1019,1011,390,412,2025-05-23T21:11:01.824748
5753,-0.4397,0.9506,0.1415,-5.390,-23.870,-64.120,1018,1021,1012,398,394,2025-05-23T21:11:01.824759
5754,-0.4534,0.9633,0.1449,-2.310,-10.360,-59.990,1019,1021,1013,416,402,2025-05-23T21:11:01.824769
5755,-0.4587,0.9794,0.1488,-3.640,-9.940,-54.740,1020,1022,1016,413,393,2025-05-23T21:11:01.824778
5756,-0.4802,0.9721,0.1523,-3.640,-12.180,-50.820,1021,1023,1016,418,390,2025-05-23T21:11:01.824839
5757,-0.4865,0.9740,0.1571,-2.730,-16.100,-49.280,1023,1023,1017,421,390,2025-05-23T21:11:01.824848
5758,-0.4900,0.9672,0.1645,-4.060,-16.940,-48.090,1023,1023,1018,419,384,2025-05-23T21:11:01.824858
5759,-0.4997,0.9745,0.1737,-3.010,-15.890,-47.180,1023,1023,1018,392,354,2025-05-23T21:11:01.824867
5760,-0.5104,0.9819,0.1928,-4.060,-14.980,-45.920,1023,1023,1018,345,383,2025-05-23T21:11:02.024800
5761,-0.5217,0.9936,0.2220,-6.230,-16.240,-42.140,1023,1023,1019,394,348,2025-05-23T21:11:02.024848
5762,-0.5275,0.9994,0.2274,-10.150,-18.200,-42.840,1023,1023,1019,407,374,2025-05-23T21:11:02.024862
5763,-0.5485,1.0121,0.2484,-10.220,-17.150,-42.770,1023,1023,1019,358,391,2025-05-23T21:11:02.024872
5764,-0.5568,1.0302,0.2577,-8.610,-14.490,-43.260,1023,1023,1021,384,389,2025-05-23T21:11:02.024883
5765,-0.5758,1.0448,0.2747,-5.950,-12.110,-43.540,1023,1023,1022,416,353,2025-05-23T21:11:02.024894
5766,-0.6144,1.0477,0.2913,-3.500,-10.080,-43.750,1023,1023,1023,415,384,2025-05-23T21:11:02.024903
5767,-0.6354,1.0424,0.2957,-3.990,-11.270,-43.050,1023,1023,1023,424,387,2025-05-23T21:11:02.024913
5768,-0.6490,1.0263,0.2928,-4.340,-12.250,-41.230,1023,1023,1023,431,394,2025-05-23T21:11:02.024922
5769,-0.6578,1.0048,0.2923,-5.880,-10.570,-38.990,1023,1023,1023,437,384,2025-05-23T21:11:02.024936
5770,-0.6500,0.9809,0.2821,-7.420,-7.140,-36.190,1023,1023,1023,445,391,2025-05-23T21:11:02.024945
5771,-0.6490,0.9716,0.2743,-6.510,-3.010,-33.880,1023,1023,1023,448,408,2025-05-23T21:11:02.024955
5772,-0.6500,0.9648,0.2547,-4.690,0.980,-32.130,1023,1023,1023,464,421,2025-05-23T21:11:02.024964
5773,-0.6539,0.9638,0.2440,-0.980,3.010,-29.400,1023,1023,1023,465,416,2025-05-23T21:11:02.025006
5774,-0.6564,0.9526,0.2303,1.540,1.820,-26.670,1023,1023,1023,464,418,2025-05-23T21:11:02.025016
5775,-0.6529,0.9374,0.2211,1.400,-0.910,-23.590,1023,1023,1023,461,360,2025-05-23T21:11:02.025025
5776,-0.6432,0.9345,0.2220,0.840,-3.430,-19.810,1023,1023,1023,443,388,2025-05-23T21:11:02.025034
5777,-0.6134,0.9365,0.2137,-1.820,-4.480,-16.170,1023,1023,1023,444,406,2025-05-23T21:11:02.229414
5778,-0.5841,0.9267,0.1962,-3.570,-2.730,-13.090,1023,1023,1023,455,392,2025-05-23T21:11:02.229461
5779,-0.5734,0.9106,0.1918,-4.410,-0.420,-11.900,1023,1023,1023,459,402,2025-05-23T21:11:02.229474
5780,-0.5588,0.8994,0.1962,-5.180,0.280,-10.500,1023,1023,1023,463,395,2025-05-23T21:11:02.229486
5781,-0.5685,0.8794,0.2074,-5.600,0.140,-9.730,1023,1023,1023,465,395,2025-05-23T21:11:02.229497
5782,-0.5778,0.8633,0.2269,-7.000,-0.910,-8.330,1023,1023,1023,447,397,2025-05-23T21:11:02.229507
5783,-0.5675,0.8398,0.2396,-7.910,-1.540,-5.530,1023,1023,1023,460,355,2025-05-23T21:11:02.229631
5784,-0.5573,0.8291,0.2435,-7.280,-0.910,-3.710,1023,1023,1023,444,389,2025-05-23T21:11:02.229642
5785,-0.5534,0.8247,0.2489,-5.810,0.560,-2.800,1023,1023,1023,456,409,2025-05-23T21:11:02.229651
5786,-0.5519,0.8276,0.2528,-4.690,0.070,-2.660,1023,1023,1023,468,408,2025-05-23T21:11:02.229661
5787,-0.5524,0.8286,0.2523,-5.110,-2.170,-2.660,1023,1023,1023,462,415,2025-05-23T21:11:02.229670
5788,-0.5470,0.8179,0.2503,-4.900,-3.780,-2.170,1023,1023,1023,460,379,2025-05-23T21:11:02.229679
5789,-0.5558,0.8072,0.2518,-4.270,-4.060,-2.100,1023,1023,1023,446,402,2025-05-23T21:11:02.229688
5790,-0.5632,0.7945,0.2494,-2.450,-2.660,-2.170,1023,1023,1023,457,384,2025-05-23T21:11:02.229696
5791,-0.5627,0.7891,0.2494,-1.470,-1.400,-1.470,1023,1023,1023,435,388,2025-05-23T21:11:02.229740
5792,-0.5724,0.7925,0.2528,-1.400,-1.540,-2.170,1023,1023,1023,458,411,2025-05-23T21:11:02.229750
5793,-0.5690,0.7910,0.2460,-2.520,-3.290,-2.660,1023,1023,1023,439,404,2025-05-23T21:11:02.229758
5794,-0.5656,0.7891,0.2381,-2.730,-4.550,-2.940,1023,1023,1023,461,406,2025-05-23T21:11:02.441330
5795,-0.5666,0.7910,0.2342,-1.960,-4.270,-3.430,1023,1023,1023,457,410,2025-05-23T21:11:02.441391
5796,-0.5592,0.7832,0.2269,-1.610,-3.780,-3.780,1023,1023,1023,443,357,2025-05-23T21:11:02.678177
5797,-0.5524,0.7769,0.2196,-0.420,-3.080,-4.830,1023,1023,1023,460,396,2025-05-23T21:11:02.678225
5798,-0.5451,0.7715,0.2108,-0.560,-2.870,-6.160,1023,1023,1023,473,395,2025-05-23T21:11:02.678239
5799,-0.5441,0.7666,0.2045,-0.490,-0.630,-6.930,1023,1023,1023,447,398,2025-05-23T21:11:02.678252
5800,-0.5549,0.7764,0.2050,0.070,2.170,-8.050,1023,1023,1023,443,394,2025-05-23T21:11:02.678264
5801,-0.5578,0.7813,0.2040,-0.490,3.080,-8.750,1023,1023,1023,435,401,2025-05-23T21:11:02.678273
5802,-0.5588,0.7818,0.2050,-1.750,2.170,-9.660,1023,1023,1023,459,394,2025-05-23T21:11:02.678283
5803,-0.5651,0.7901,0.2167,-4.340,0.490,-10.220,1023,1023,1023,470,359,2025-05-23T21:11:02.678292
5804,-0.5636,0.7876,0.2216,-7.630,-0.280,-10.080,1023,1023,1023,448,390,2025-05-23T21:11:02.678302
5805,-0.5583,0.7837,0.2240,-8.260,0.770,-10.150,1023,1023,1023,456,359,2025-05-23T21:11:02.678311
5806,-0.5588,0.7896,0.2420,-7.140,2.450,-10.780,1023,1023,1023,449,379,2025-05-23T21:11:02.678320
5807,-0.5558,0.7974,0.2464,-6.090,3.360,-11.200,1023,1023,1023,463,387,2025-05-23T21:11:02.678328
5808,-0.5446,0.8052,0.2479,-5.320,4.900,-11.340,1023,1023,1023,466,381,2025-05-23T21:11:02.678388
5809,-0.5285,0.8091,0.2464,-5.460,5.950,-11.900,1023,1023,1023,441,387,2025-05-23T21:11:02.678397
5810,-0.5231,0.8076,0.2606,-5.810,5.740,-12.880,1023,1023,1023,452,359,2025-05-23T21:11:02.678407
5811,-0.5612,0.8169,0.2943,-7.630,4.900,-13.790,1023,1023,1023,434,392,2025-05-23T21:11:02.678416
5812,-0.5773,0.8179,0.3113,-11.620,0.210,-13.300,1023,1023,1023,456,406,2025-05-23T21:11:02.678426
5813,-0.5890,0.8154,0.3148,-13.580,-3.570,-11.690,1023,1023,1023,464,373,2025-05-23T21:11:02.678435
5814,-0.5880,0.8106,0.3128,-11.340,-5.810,-10.010,1023,1023,1023,444,358,2025-05-23T21:11:02.678445
5815,-0.5851,0.8150,0.3084,-7.000,-3.990,-8.190,1023,1023,1023,448,338,2025-05-23T21:11:02.678454
5816,-0.5876,0.8150,0.3006,-3.010,-0.280,-7.210,1023,1023,1023,460,336,2025-05-23T21:11:02.678463
5817,-0.5954,0.8159,0.3006,-0.420,0.910,-6.650,1023,1023,1023,467,359,2025-05-23T21:11:02.678472
5818,-0.6139,0.8174,0.3006,-0.420,-1.820,-5.740,1023,1023,1023,461,368,2025-05-23T21:11:02.678480
5819,-0.6227,0.8086,0.2913,-1.610,-5.880,-4.270,1023,1023,1023,462,395,2025-05-23T21:11:02.678489
5820,-0.6129,0.7993,0.2855,-2.450,-7.770,-3.290,1023,1023,1023,455,396,2025-05-23T21:11:02.678497
5821,-0.6027,0.7964,0.2713,-1.680,-6.860,-2.800,1023,1023,1023,451,384,2025-05-23T21:11:02.678506
5822,-0.5993,0.7935,0.2601,0.000,-4.060,-2.660,1023,1023,1023,453,382,2025-05-23T21:11:02.678529
5823,-0.5988,0.7896,0.2518,0.840,-1.960,-2.730,1023,1023,1023,445,386,2025-05-23T21:11:02.678538
5824,-0.5983,0.7910,0.2455,0.840,-2.520,-3.080,1023,1023,1023,461,394,2025-05-23T21:11:02.678547
5825,-0.5924,0.7920,0.2406,0.840,-3.710,-3.150,1023,1023,1023,440,405,2025-05-23T21:11:02.678556
5826,-0.5919,0.7930,0.2435,1.190,-3.080,-3.150,1023,1023,1023,446,414,2025-05-23T21:11:02.678564
5827,-0.5910,0.7940,0.2464,1.330,-1.820,-3.080,1023,1023,1023,437,390,2025-05-23T21:11:02.678573
5828,-0.5934,0.7886,0.2484,1.120,-0.070,-3.080,1023,1023,1023,428,371,2025-05-23T21:11:02.843878
5829,-0.6012,0.7886,0.2552,0.980,0.140,-3.080,1023,1023,1023,451,388,2025-05-23T21:11:02.843920
5830,-0.6007,0.7857,0.2621,0.350,-0.980,-2.660,1023,1023,1023,449,387,2025-05-23T21:11:02.843931
5831,-0.5988,0.7828,0.2655,-0.140,-1.120,-2.310,1023,1023,1023,457,378,2025-05-23T21:11:02.843940
5832,-0.5949,0.7847,0.2679,-0.840,-1.120,-2.310,1023,1023,1023,446,405,2025-05-23T21:11:02.843950
5833,-0.5861,0.7867,0.2655,-0.490,-0.770,-2.240,1023,1023,1023,439,350,2025-05-23T21:11:02.843958
5834,-0.5719,0.7876,0.2557,1.120,0.140,-2.660,1023,1023,1023,443,390,2025-05-23T21:11:02.843966
5835,-0.5773,0.7945,0.2557,2.100,1.890,-3.570,1023,1023,1023,451,381,2025-05-23T21:11:02.843974
5836,-0.5807,0.7969,0.2621,1.330,2.590,-3.430,1023,1023,1023,456,413,2025-05-23T21:11:02.843982
5837,-0.5817,0.7906,0.2635,-0.560,1.750,-3.150,1023,1023,1023,444,356,2025-05-23T21:11:02.843989
5838,-0.5851,0.7852,0.2743,-1.750,0.140,-3.290,1023,1023,1023,447,336,2025-05-23T21:11:02.843996
5839,-0.5671,0.7828,0.2694,-2.520,-1.680,-2.870,1023,1023,1023,464,345,2025-05-23T21:11:02.844004
5840,-0.5539,0.7745,0.2640,-1.610,-0.630,-2.520,1023,1023,1023,470,381,2025-05-23T21:11:02.844010
5841,-0.5417,0.7725,0.2674,-0.840,1.190,-2.730,1023,1023,1023,408,384,2025-05-23T21:11:02.844017
5842,-0.5422,0.7662,0.2704,-1.190,1.330,-3.150,1023,1023,1023,435,384,2025-05-23T21:11:02.844055
5843,-0.5466,0.7603,0.2845,-1.260,0.210,-4.060,1023,1023,1023,438,389,2025-05-23T21:11:02.844063
5844,-0.5461,0.7569,0.2865,-3.710,-2.730,-4.060,1023,1023,1023,453,401,2025-05-23T21:11:02.844070
5845,-0.5500,0.7540,0.2830,-4.480,-4.340,-3.710,1023,1023,1023,463,395,2025-05-23T21:11:03.078867
5846,-0.5612,0.7666,0.2840,-3.710,-4.620,-4.690,1023,1023,1023,401,348,2025-05-23T21:11:03.078905
5847,-0.5656,0.7710,0.2855,-3.430,-6.020,-5.670,1023,1023,1023,425,385,2025-05-23T21:11:03.078915
5848,-0.5744,0.7652,0.2840,-3.010,-7.560,-5.530,1023,1023,1023,430,413,2025-05-23T21:11:03.078926
5849,-0.5963,0.7662,0.2982,-3.710,-8.120,-5.880,1023,1023,1023,440,366,2025-05-23T21:11:03.078935
5850,-0.6110,0.7623,0.3040,-3.850,-8.260,-5.740,1023,1023,1023,441,372,2025-05-23T21:11:03.078944
5851,-0.6129,0.7540,0.3030,-2.870,-7.420,-4.620,1023,1023,1023,454,346,2025-05-23T21:11:03.078951
5852,-0.6149,0.7510,0.2948,-1.470,-5.250,-4.270,1023,1023,1023,465,386,2025-05-23T21:11:03.078958
5853,-0.6061,0.7462,0.2811,-1.330,-4.270,-3.990,1023,1023,1023,458,355,2025-05-23T21:11:03.078966
5854,-0.6032,0.7398,0.2660,-0.210,-2.590,-4.270,1023,1023,1023,448,344,2025-05-23T21:11:03.078973
5855,-0.6012,0.7427,0.2567,0.560,-2.310,-4.550,1023,1023,1023,397,379,2025-05-23T21:11:03.078981
5856,-0.5910,0.7413,0.2489,-0.070,-2.590,-4.620,1023,1023,1023,430,348,2025-05-23T21:11:03.078989
5857,-0.5880,0.7432,0.2435,-0.770,-1.960,-5.110,1023,1023,1023,439,377,2025-05-23T21:11:03.078996
5858,-0.5924,0.7457,0.2445,-2.800,-1.820,-5.180,1023,1023,1023,442,356,2025-05-23T21:11:03.079003
5859,-0.5973,0.7515,0.2464,-4.200,-1.750,-5.040,1023,1023,1023,456,397,2025-05-23T21:11:03.079042
5860,-0.5929,0.7505,0.2508,-5.110,-1.610,-5.250,1023,1023,1023,464,390,2025-05-23T21:11:03.079052
5861,-0.5949,0.7515,0.2508,-5.740,-1.330,-5.810,1023,1023,1023,461,401,2025-05-23T21:11:03.079060
5862,-0.5983,0.7515,0.2586,-5.250,-0.630,-6.720,1023,1023,1023,401,389,2025-05-23T21:11:03.079067
5863,-0.6134,0.7535,0.2757,-4.900,-0.350,-7.700,1023,1023,1023,380,363,2025-05-23T21:11:03.079074
5864,-0.6120,0.7530,0.2811,-5.390,-0.210,-7.840,1023,1023,1023,434,379,2025-05-23T21:11:03.330020
5865,-0.6129,0.7554,0.2796,-5.810,0.420,-8.050,1023,1023,1023,444,405,2025-05-23T21:11:03.330049
5866,-0.6207,0.7588,0.2908,-5.530,0.980,-8.400,1023,1023,1023,397,399,2025-05-23T21:11:03.330179
5867,-0.6237,0.7662,0.2967,-5.180,0.980,-8.400,1023,1023,1023,378,392,2025-05-23T21:11:03.330187
5868,-0.6344,0.7720,0.3065,-4.970,0.770,-8.190,1023,1023,1023,413,405,2025-05-23T21:11:03.330193
5869,-0.6373,0.7696,0.3084,-4.830,-0.420,-7.700,1023,1023,1023,434,397,2025-05-23T21:11:03.330199
5870,-0.6373,0.7657,0.3074,-4.480,-2.590,-7.210,1023,1023,1023,452,411,2025-05-23T21:11:03.330205
5871,-0.6354,0.7549,0.3070,-3.360,-3.360,-6.650,1023,1023,1023,460,405,2025-05-23T21:11:03.330210
5872,-0.6222,0.7535,0.2943,-1.610,-2.660,-6.020,1023,1023,1023,446,361,2025-05-23T21:11:03.330215
5873,-0.6183,0.7598,0.2806,0.280,-0.280,-5.880,1023,1023,1023,456,381,2025-05-23T21:11:03.330222
5874,-0.6144,0.7686,0.2738,2.030,1.050,-5.950,1023,1023,1023,464,308,2025-05-23T21:11:03.330228
5875,-0.6129,0.7793,0.2699,1.820,0.350,-5.670,1023,1023,1023,439,372,2025-05-23T21:11:03.330233
5876,-0.6173,0.7818,0.2694,1.260,-0.280,-5.320,1023,1023,1023,447,405,2025-05-23T21:11:03.330238
5877,-0.6178,0.7784,0.2762,-0.840,-1.750,-4.410,1023,1023,1023,460,383,2025-05-23T21:11:03.330243
5878,-0.6232,0.7725,0.2806,-1.820,-2.240,-3.640,1023,1023,1023,465,403,2025-05-23T21:11:03.330252
5879,-0.6261,0.7676,0.2806,-1.260,-2.450,-2.940,1023,1023,1023,462,411,2025-05-23T21:11:03.330299
5880,-0.6285,0.7671,0.2889,-0.350,-1.680,-2.520,1023,1023,1023,465,390,2025-05-23T21:11:03.330308
5881,-0.6212,0.7671,0.2943,0.840,-1.470,-2.030,1023,1023,1023,467,386,2025-05-23T21:11:03.330317
5882,-0.6232,0.7662,0.2913,0.910,-1.260,-1.470,1023,1023,1023,403,344,2025-05-23T21:11:03.330326
5883,-0.6266,0.7623,0.2952,2.100,-1.470,-1.400,1023,1023,1023,422,385,2025-05-23T21:11:03.330334
5884,-0.6232,0.7588,0.2913,1.610,-2.660,-0.840,1023,1023,1023,434,350,2025-05-23T21:11:03.330343
5885,-0.6173,0.7530,0.2923,1.610,-3.290,-0.280,1023,1023,1023,456,350,2025-05-23T21:11:03.380086
5886,-0.6227,0.7496,0.2928,0.630,-3.290,-0.350,1023,1023,1023,438,373,2025-05-23T21:11:03.380130
5887,-0.6202,0.7359,0.2918,-0.700,-3.920,-0.140,1023,1023,1023,455,379,2025-05-23T21:11:03.380142
5888,-0.6110,0.7271,0.2884,-0.560,-4.410,-0.140,1023,1023,1023,445,404,2025-05-23T21:11:03.380154
5889,-0.6027,0.7237,0.2806,-0.420,-4.410,-0.770,1023,1023,1023,458,407,2025-05-23T21:11:03.380167
5890,-0.5944,0.7257,0.2704,0.070,-3.500,-1.610,1023,1023,1023,463,387,2025-05-23T21:11:03.426642
5891,-0.5885,0.7237,0.2645,0.140,-2.940,-1.960,1023,1023,1023,456,386,2025-05-23T21:11:03.426686
5892,-0.5822,0.7178,0.2596,-1.190,-3.290,-2.730,1023,1023,1023,443,392,2025-05-23T21:11:03.426698
5893,-0.5812,0.7115,0.2572,-2.450,-3.430,-3.710,1023,1023,1023,465,388,2025-05-23T21:11:03.426707
5894,-0.5836,0.7071,0.2562,-3.570,-3.570,-4.760,1023,1023,1023,466,389,2025-05-23T21:11:03.474653
5895,-0.5895,0.6998,0.2562,-3.990,-3.010,-5.810,1023,1023,1023,452,347,2025-05-23T21:11:03.474701
5896,-0.5944,0.7047,0.2645,-3.920,-3.150,-7.420,1023,1023,1023,463,375,2025-05-23T21:11:03.474714
5897,-0.5934,0.7144,0.2655,-4.760,-3.920,-8.400,1023,1023,1023,464,380,2025-05-23T21:11:03.474724
5898,-0.5998,0.7174,0.2630,-4.970,-3.150,-9.310,1023,1023,1023,442,400,2025-05-23T21:11:03.520332
5899,-0.6071,0.7203,0.2757,-3.780,-1.540,-10.290,1023,1023,1023,462,405,2025-05-23T21:11:03.520380
5900,-0.6085,0.7198,0.2757,-3.010,0.490,-10.570,1023,1023,1023,467,410,2025-05-23T21:11:03.520393
5901,-0.6290,0.7237,0.2869,-1.960,1.820,-10.850,1023,1023,1023,457,394,2025-05-23T21:11:03.567351
5902,-0.6266,0.7242,0.2860,-2.240,0.000,-10.220,1023,1023,1023,445,387,2025-05-23T21:11:03.567460
5903,-0.6163,0.7198,0.2874,-3.290,-2.660,-9.660,1023,1023,1023,450,398,2025-05-23T21:11:03.567494
5904,-0.5988,0.7169,0.2904,-4.130,-5.740,-9.660,1023,1023,1023,399,382,2025-05-23T21:11:03.567505
5905,-0.5880,0.7164,0.3011,-4.900,-7.070,-10.430,1023,1023,1023,441,343,2025-05-23T21:11:03.618729
5906,-0.5822,0.7178,0.3079,-4.690,-6.790,-11.620,1023,1023,1023,436,373,2025-05-23T21:11:03.618775
5907,-0.5710,0.7135,0.3148,-4.900,-7.840,-11.970,1023,1023,1023,444,348,2025-05-23T21:11:03.618789
5908,-0.5778,0.7076,0.3255,-4.200,-7.980,-12.950,1023,1023,1023,461,389,2025-05-23T21:11:03.618800
5909,-0.5851,0.7003,0.3401,-4.690,-9.030,-14.070,1023,1023,1023,454,393,2025-05-23T21:11:03.618810
5910,-0.5890,0.6934,0.3440,-5.110,-9.870,-14.420,1023,1023,1023,441,411,2025-05-23T21:11:03.665849
5911,-0.5836,0.6866,0.3465,-4.620,-12.320,-14.980,1023,1023,1023,433,412,2025-05-23T21:11:03.665904
5912,-0.5578,0.6788,0.3382,-6.580,-16.450,-15.190,1023,1023,1023,429,356,2025-05-23T21:11:03.665919
5913,-0.5436,0.6681,0.3357,-7.770,-19.530,-16.940,1023,1023,1023,437,387,2025-05-23T21:11:03.745013
5914,-0.5378,0.6568,0.3348,-10.080,-22.260,-20.440,1023,1023,1023,433,400,2025-05-23T21:11:03.745059
5915,-0.5363,0.6427,0.3338,-12.040,-25.900,-23.030,1023,1023,1023,445,410,2025-05-23T21:11:03.745071
5916,-0.5378,0.6285,0.3318,-13.720,-29.610,-24.850,1023,1023,1023,454,412,2025-05-23T21:11:03.745081
5917,-0.5466,0.6227,0.3338,-15.890,-31.990,-27.230,1023,1023,1023,444,371,2025-05-23T21:11:03.874448
5918,-0.5666,0.6178,0.3387,-18.130,-33.460,-30.380,1023,1023,1023,430,337,2025-05-23T21:11:03.874495
5919,-0.5671,0.6129,0.3279,-20.160,-33.110,-33.320,1023,1023,1023,448,386,2025-05-23T21:11:03.874508
5920,-0.5646,0.6095,0.3201,-21.070,-30.730,-34.860,1023,1023,1023,445,384,2025-05-23T21:11:03.874519
5921,-0.5778,0.6115,0.3231,-21.070,-25.970,-36.470,1023,1023,1023,446,407,2025-05-23T21:11:03.874529
5922,-0.6251,0.6232,0.3377,-20.230,-22.120,-38.570,1023,1023,1023,460,356,2025-05-23T21:11:03.874539
5923,-0.6642,0.6256,0.3436,-22.470,-23.730,-39.970,1023,1023,1023,455,369,2025-05-23T21:11:03.874548
5924,-0.6647,0.6266,0.3475,-26.530,-30.660,-40.460,1023,1023,1023,461,402,2025-05-23T21:11:03.874557
5925,-0.6544,0.6222,0.3489,-29.680,-35.140,-41.090,1023,1023,1023,456,408,2025-05-23T21:11:03.874568
5926,-0.6856,0.6080,0.3811,-29.890,-33.740,-42.700,1023,1023,1023,469,411,2025-05-23T21:11:03.874577
5927,-0.7115,0.6124,0.3933,-30.590,-27.230,-44.730,1023,1023,1023,467,401,2025-05-23T21:11:03.874587
5928,-0.7242,0.6159,0.4006,-24.640,-21.910,-43.820,1023,1023,1023,451,387,2025-05-23T21:11:03.874595
5929,-0.7266,0.6251,0.4080,-21.630,-21.280,-42.000,1023,1023,1023,451,380,2025-05-23T21:11:03.874604
5930,-0.7471,0.6407,0.4197,-20.370,-19.530,-42.140,1023,1023,1023,457,379,2025-05-23T21:11:04.072552
5931,-0.7681,0.6461,0.4343,-24.080,-21.420,-41.790,1023,1023,1023,460,343,2025-05-23T21:11:04.072670
5932,-0.7623,0.6373,0.4270,-26.250,-25.620,-39.830,1023,1023,1023,445,385,2025-05-23T21:11:04.072688
5933,-0.7954,0.6305,0.4441,-23.030,-26.670,-39.620,1023,1023,1023,466,404,2025-05-23T21:11:04.072700
5934,-0.8106,0.6256,0.4416,-21.980,-24.920,-37.660,1023,1023,1023,448,362,2025-05-23T21:11:04.072712
5935,-0.8330,0.6261,0.4412,-19.530,-19.180,-34.440,1023,1023,1023,435,369,2025-05-23T21:11:04.072723
5936,-0.8564,0.6242,0.4475,-15.960,-16.660,-30.800,1023,1023,1023,463,383,2025-05-23T21:11:04.072735
5937,-0.8730,0.6188,0.4543,-13.230,-16.240,-26.320,1023,1023,1023,466,391,2025-05-23T21:11:04.072746
5938,-0.8838,0.6266,0.4509,-9.800,-16.590,-22.540,1023,1023,1023,465,404,2025-05-23T21:11:04.072757
5939,-0.8745,0.6305,0.4465,-8.890,-16.450,-18.060,1023,1023,1023,455,385,2025-05-23T21:11:04.072769
5940,-0.8711,0.6276,0.4421,-8.050,-14.630,-14.560,1023,1023,1023,458,412,2025-05-23T21:11:04.072780
5941,-0.8667,0.6183,0.4309,-7.420,-11.830,-11.550,1023,1023,1023,453,390,2025-05-23T21:11:04.072790
5942,-0.8613,0.6027,0.4255,-5.740,-8.960,-8.470,1023,1023,1023,463,345,2025-05-23T21:11:04.072800
5943,-0.8618,0.5934,0.4314,-2.730,-5.950,-5.320,1023,1023,1023,453,386,2025-05-23T21:11:04.072856
5944,-0.8603,0.5900,0.4412,-0.490,-2.940,-3.080,1023,1023,1023,461,406,2025-05-23T21:11:04.072868
5945,-0.8486,0.5817,0.4407,-0.840,-1.120,-0.630,1023,1023,1023,462,357,2025-05-23T21:11:04.072881
5946,-0.8311,0.5641,0.4329,-1.400,-0.070,1.120,1023,1023,1023,437,371,2025-05-23T21:11:04.072892
5947,-0.8145,0.5563,0.4358,-1.820,0.490,2.520,1023,1023,1023,447,391,2025-05-23T21:11:04.123521
5948,-0.7969,0.5519,0.4363,-1.610,1.400,3.710,1023,1023,1023,440,350,2025-05-23T21:11:04.123572
5949,-0.7881,0.5436,0.4368,-1.960,3.500,4.410,1023,1023,1023,433,367,2025-05-23T21:11:04.123816
5950,-0.7715,0.5358,0.4363,-2.030,4.970,4.690,1023,1023,1023,452,402,2025-05-23T21:11:04.123830
5951,-0.7584,0.5270,0.4397,-3.150,4.480,4.620,1023,1023,1023,460,366,2025-05-23T21:11:04.276957
5952,-0.7520,0.5212,0.4465,-3.850,4.480,4.550,1023,1023,1023,448,382,2025-05-23T21:11:04.276991
5953,-0.7501,0.5173,0.4607,-5.180,3.990,4.620,1023,1023,1023,452,342,2025-05-23T21:11:04.277000
5954,-0.7437,0.5119,0.4758,-7.280,3.640,4.690,1023,1023,1023,395,324,2025-05-23T21:11:04.277007
5955,-0.7408,0.5104,0.4865,-7.630,2.730,4.480,1023,1023,1023,441,322,2025-05-23T21:11:04.277014
5956,-0.7393,0.5080,0.4948,-7.980,1.750,3.990,1023,1023,1023,439,372,2025-05-23T21:11:04.277021
5957,-0.7218,0.5104,0.3762,-7.910,0.910,3.500,1023,1023,1023,448,405,2025-05-23T21:11:04.277026
5958,-0.7174,0.5041,0.5022,-7.210,0.490,2.450,1023,1023,1023,451,352,2025-05-23T21:11:04.277033
5959,-0.7013,0.4982,0.5022,-5.880,0.420,1.260,1023,1023,1023,439,372,2025-05-23T21:11:04.277039
5960,-0.6900,0.4943,0.4924,-4.760,0.700,0.280,1023,1023,1023,450,399,2025-05-23T21:11:04.277045
5961,-0.6915,0.4973,0.4909,-2.870,2.030,-1.470,1023,1023,1023,437,409,2025-05-23T21:11:04.277051
5962,-0.6930,0.5017,0.4836,-2.100,1.750,-2.730,1023,1023,1023,452,408,2025-05-23T21:11:04.277057
5963,-0.6998,0.5148,0.4856,-0.700,0.210,-3.290,1023,1023,1023,448,410,2025-05-23T21:11:04.277062
5964,-0.7032,0.5251,0.4778,-0.910,-2.450,-3.640,1023,1023,1023,441,411,2025-05-23T21:11:04.350410
5965,-0.7037,0.5246,0.4699,-0.700,-4.200,-4.270,1023,1023,1023,442,412,2025-05-23T21:11:04.350445
5966,-0.7052,0.5290,0.4573,0.490,-5.320,-5.040,1023,1023,1023,445,395,2025-05-23T21:11:04.350452
5967,-0.7061,0.5324,0.4509,1.610,-5.460,-5.810,1023,1023,1023,455,400,2025-05-23T21:11:04.350459
5968,-0.7159,0.5407,0.4460,2.450,-4.410,-6.230,1023,1023,1023,453,390,2025-05-23T21:11:04.481726
5969,-0.7276,0.5461,0.4407,2.590,-3.220,-6.440,1023,1023,1023,436,367,2025-05-23T21:11:04.481777
5970,-0.7364,0.5495,0.4387,2.450,-3.290,-6.090,1023,1023,1023,448,340,2025-05-23T21:11:04.481791
5971,-0.7413,0.5549,0.4372,2.660,-4.060,-5.600,1023,1023,1023,444,383,2025-05-23T21:11:04.481803
5972,-0.7442,0.5539,0.4353,1.960,-4.270,-5.040,1023,1023,1023,456,406,2025-05-23T21:11:04.481813
5973,-0.7403,0.5451,0.4333,1.470,-3.850,-4.690,1023,1023,1023,460,409,2025-05-23T21:11:04.481824
5974,-0.7388,0.5353,0.4348,1.120,-4.060,-4.130,1023,1023,1023,461,411,2025-05-23T21:11:04.481835
5975,-0.7271,0.5192,0.4338,1.400,-4.760,-3.710,1023,1023,1023,461,418,2025-05-23T21:11:04.481845
5976,-0.7105,0.5153,0.4343,1.680,-4.900,-3.920,1023,1023,1023,444,400,2025-05-23T21:11:04.481854
5977,-0.7032,0.5139,0.4426,1.680,-3.710,-4.550,1023,1023,1023,449,391,2025-05-23T21:11:04.481864
5978,-0.6988,0.5139,0.4470,1.050,-2.730,-4.830,1023,1023,1023,437,399,2025-05-23T21:11:04.481874
5979,-0.6876,0.5114,0.4504,0.210,-2.660,-4.270,1023,1023,1023,431,404,2025-05-23T21:11:04.481884
5980,-0.6788,0.5104,0.4582,-0.770,-4.200,-4.200,1023,1023,1023,451,389,2025-05-23T21:11:04.481893
5981,-0.6568,0.5090,0.4719,-2.730,-6.720,-4.270,1023,1023,1023,457,404,2025-05-23T21:11:04.692200
5982,-0.6310,0.5095,0.4900,-4.480,-9.660,-4.900,1023,1023,1023,448,399,2025-05-23T21:11:04.692280
5983,-0.6188,0.5061,0.5012,-6.300,-12.600,-5.950,1023,1023,1023,463,400,2025-05-23T21:11:04.692299
5984,-0.6178,0.5100,0.5207,-6.860,-14.350,-8.610,1023,1023,1023,454,373,2025-05-23T21:11:04.692314
5985,-0.6076,0.5119,0.5246,-7.350,-16.030,-10.990,1023,1023,1023,435,380,2025-05-23T21:11:04.692327
5986,-0.5993,0.5197,0.5285,-6.860,-16.590,-12.810,1023,1023,1023,456,398,2025-05-23T21:11:04.692340
5987,-0.5983,0.5231,0.5256,-6.230,-15.260,-14.280,1023,1023,1023,447,393,2025-05-23T21:11:04.692353
5988,-0.5983,0.5266,0.5256,-5.530,-13.230,-14.910,1023,1023,1023,396,363,2025-05-23T21:11:04.692366
5989,-0.5919,0.5353,0.5251,-5.530,-12.390,-14.350,1023,1023,1023,414,394,2025-05-23T21:11:04.692378
5990,-0.5758,0.5344,0.5226,-6.440,-14.070,-12.810,1023,1023,1023,438,407,2025-05-23T21:11:04.692390
5991,-0.5719,0.5290,0.5280,-7.840,-16.660,-11.830,1023,1023,1023,438,409,2025-05-23T21:11:04.692402
5992,-0.5724,0.5241,0.5197,-9.030,-19.670,-12.250,1023,1023,1023,453,355,2025-05-23T21:11:04.692414
5993,-0.6295,0.5231,0.5363,-8.260,-20.790,-15.750,1023,1023,1023,447,390,2025-05-23T21:11:04.692426
5994,-0.6544,0.5158,0.5353,-8.190,-22.960,-18.130,1023,1023,1023,450,390,2025-05-23T21:11:04.692485
5995,-0.6515,0.5075,0.5207,-9.450,-24.570,-18.550,1023,1023,1023,462,349,2025-05-23T21:11:04.692497
5996,-0.6505,0.5031,0.5026,-10.710,-24.220,-18.830,1023,1023,1023,459,389,2025-05-23T21:11:04.712080
5997,-0.6305,0.4846,0.4743,-12.460,-19.040,-19.530,1023,1023,1023,442,409,2025-05-23T21:11:04.712119
5998,-0.6564,0.4616,0.4582,-11.410,-14.490,-21.210,1023,1023,1023,434,415,2025-05-23T21:11:04.747254
5999,-0.6710,0.4538,0.4529,-10.640,-11.550,-22.960,1023,1023,1023,448,400,2025-05-23T21:11:04.747326
6000,-0.6705,0.4597,0.4431,-9.730,-10.220,-26.110,1023,1023,1023,439,394,2025-05-23T21:11:04.747348
6001,-0.6715,0.4490,0.4363,-10.290,-2.730,-30.030,1023,1023,1023,447,393,2025-05-23T21:11:04.747362
6002,-0.6427,0.4451,0.4153,-10.850,6.440,-32.690,1023,1023,1023,456,407,2025-05-23T21:11:04.747377
6003,-0.6120,0.4392,0.3924,-4.620,23.800,-34.230,1023,1023,1023,445,389,2025-05-23T21:11:04.800801
6004,-0.5885,0.4421,0.3850,3.150,38.080,-33.950,1023,1023,1023,456,405,2025-05-23T21:11:04.800854
6005,-0.5895,0.4543,0.3767,5.670,49.140,-34.510,1023,1023,1023,444,374,2025-05-23T21:11:04.800869
6006,-0.6842,0.4685,0.4104,6.230,53.060,-39.480,1023,1023,1023,431,390,2025-05-23T21:11:04.800881
6007,-0.7544,0.4734,0.4368,1.330,44.590,-45.360,1023,1023,1023,438,409,2025-05-23T21:11:04.852408
6008,-0.7847,0.4968,0.4163,-4.550,29.400,-46.690,1023,1023,1023,433,405,2025-05-23T21:11:04.852460
6009,-0.7818,0.5061,0.3943,-7.140,23.030,-43.820,1023,1023,1023,390,400,2025-05-23T21:11:04.852473
6010,-0.8194,0.5119,0.3841,-9.310,27.020,-41.300,1023,1023,1023,440,410,2025-05-23T21:11:04.852483
6011,-0.8579,0.5070,0.3767,-11.830,34.020,-39.340,1023,1023,1023,454,398,2025-05-23T21:11:04.852493
6012,-0.9243,0.5100,0.3811,-10.290,39.900,-35.980,1023,1023,1023,437,392,2025-05-23T21:11:04.903834
6013,-1.1073,0.5187,0.4270,-9.170,35.350,-32.550,1023,1023,1023,393,383,2025-05-23T21:11:04.903881
6014,-1.2010,0.5358,0.4621,-15.540,14.000,-22.750,1023,1023,1023,443,400,2025-05-23T21:11:04.903895
6015,-1.2205,0.5524,0.4631,-30.380,-14.210,-8.890,1023,1023,1023,440,404,2025-05-23T21:11:04.903906
6016,-1.1614,0.5427,0.4616,-49.070,-39.480,5.530,1023,1023,1023,440,378,2025-05-23T21:11:05.095905
6017,-1.0731,0.5061,0.4382,-58.590,-50.750,17.220,1023,1023,1023,459,400,2025-05-23T21:11:05.095980
6018,-0.9770,0.4602,0.4197,-60.620,-47.040,23.590,1023,1023,1023,461,400,2025-05-23T21:11:05.096004
6019,-0.8960,0.4299,0.3977,-49.980,-34.580,26.740,1023,1023,1023,440,314,2025-05-23T21:11:05.096019
6020,-0.8081,0.4002,0.3899,-38.710,-21.630,27.790,1023,1023,1023,453,377,2025-05-23T21:11:05.096032
6021,-0.7520,0.3762,0.3811,-37.380,-13.440,28.140,1023,1023,1023,454,408,2025-05-23T21:11:05.096047
6022,-0.7520,0.3401,0.3943,-43.120,-12.180,25.200,1023,1023,1023,463,403,2025-05-23T21:11:05.096059
6023,-0.7530,0.3021,0.4304,-48.930,-15.050,19.740,1023,1023,1023,446,415,2025-05-23T21:11:05.096071
6024,-0.7291,0.2899,0.4641,-51.100,-17.850,16.030,1023,1023,1023,460,401,2025-05-23T21:11:05.096083
6025,-0.7022,0.2704,0.4792,-50.330,-12.110,14.350,1023,1023,1023,457,405,2025-05-23T21:11:05.096098
6026,-0.6891,0.2538,0.4856,-50.610,2.030,12.460,1023,1023,1023,447,403,2025-05-23T21:11:05.096115
6027,-0.6720,0.2298,0.4895,-47.950,13.580,10.150,1023,1023,1023,437,400,2025-05-23T21:11:05.096126
6028,-0.6437,0.2030,0.4841,-38.850,19.530,9.310,1023,1023,1023,439,387,2025-05-23T21:11:05.096137
6029,-0.6334,0.1972,0.4875,-31.990,23.240,9.730,1023,1023,1023,429,345,2025-05-23T21:11:05.096186
6030,-0.6549,0.1810,0.4821,-27.160,28.280,7.700,1023,1023,1023,436,369,2025-05-23T21:11:05.096197
6031,-0.6881,0.1591,0.4939,-20.580,30.730,4.550,1023,1023,1023,455,371,2025-05-23T21:11:05.096207
6032,-0.7120,0.1615,0.5344,-11.340,30.870,0.700,1023,1023,1023,449,388,2025-05-23T21:11:05.146698
6033,-0.7008,0.2079,0.5500,-6.020,31.360,0.700,1023,1023,1023,442,388,2025-05-23T21:11:05.146830
6034,-0.7198,0.2430,0.5763,-4.130,42.210,4.270,1023,1023,1023,444,311,2025-05-23T21:11:05.146855
6035,-0.7623,0.2718,0.5641,-5.040,60.200,6.860,1023,1023,1023,454,365,2025-05-23T21:11:05.146866
6036,-0.8032,0.2621,0.5305,-5.740,67.760,7.280,1023,1023,1023,455,391,2025-05-23T21:11:05.301378
6037,-0.8525,0.2352,0.5002,-3.500,63.840,6.160,1023,1023,1023,454,410,2025-05-23T21:11:05.301432
6038,-0.9189,0.2435,0.4943,-3.010,55.370,0.350,1023,1023,1023,470,421,2025-05-23T21:11:05.301447
6039,-0.9321,0.2650,0.4875,-1.610,45.640,-4.760,1023,1023,1023,446,403,2025-05-23T21:11:05.301460
6040,-0.9418,0.2738,0.4807,6.510,42.910,-5.810,1023,1023,1023,445,395,2025-05-23T21:11:05.301472
6041,-0.9316,0.2762,0.4577,10.220,47.530,-0.840,1023,1023,1023,457,385,2025-05-23T21:11:05.301485
6042,-1.1683,0.2240,0.8072,10.710,49.630,-1.540,1023,1023,1023,443,396,2025-05-23T21:11:05.301496
6043,-1.2805,0.4616,0.5007,14.490,60.060,19.670,1023,1023,1023,452,397,2025-05-23T21:11:05.301506
6044,-1.3010,0.4939,0.5397,13.580,39.900,39.690,1023,1023,1023,443,386,2025-05-23T21:11:05.301517
6045,-1.2639,0.5100,0.4734,22.750,52.780,46.200,992,984,971,416,347,2025-05-23T21:11:05.301527
6046,-1.1829,0.4412,0.4343,22.750,46.480,48.090,966,962,951,414,389,2025-05-23T21:11:05.301538
6047,-1.0126,0.3787,0.3348,28.000,34.650,46.830,956,955,943,425,390,2025-05-23T21:11:05.301548
6048,-0.8740,0.3255,0.3187,29.610,13.860,40.250,949,948,937,407,394,2025-05-23T21:11:05.301559
6049,-0.7598,0.2840,0.2816,29.260,12.670,31.430,942,941,931,392,405,2025-05-23T21:11:05.506047
6050,-0.7549,0.2923,0.2791,37.170,28.350,25.970,937,936,926,401,400,2025-05-23T21:11:05.506099
6051,-0.8379,0.3357,0.3196,47.320,45.010,20.720,928,926,917,408,414,2025-05-23T21:11:05.506112
6052,-0.8930,0.3714,0.3309,58.450,59.360,14.910,911,908,899,418,366,2025-05-23T21:11:05.506125
6053,-0.9672,0.3987,0.2894,61.740,57.540,10.990,903,900,890,418,399,2025-05-23T21:11:05.506136
6054,-0.9682,0.4182,0.2464,52.850,43.470,8.540,895,893,884,426,416,2025-05-23T21:11:05.506146
6055,-0.9467,0.4353,0.2274,44.730,32.830,5.880,882,879,870,418,319,2025-05-23T21:11:05.506157
6056,-0.9311,0.4485,0.2020,44.170,32.060,2.800,866,863,852,401,376,2025-05-23T21:11:05.506167
6057,-0.9194,0.4636,0.1898,46.970,37.940,2.030,857,855,845,415,383,2025-05-23T21:11:05.506177
6058,-0.9272,0.4802,0.1806,48.090,39.410,2.870,850,848,838,423,388,2025-05-23T21:11:05.506187
6059,-0.9233,0.4836,0.1737,42.420,29.330,5.390,842,840,831,414,357,2025-05-23T21:11:05.506196
6060,-0.9140,0.5007,0.1684,30.730,11.130,8.540,837,834,825,419,386,2025-05-23T21:11:05.506206
6061,-0.9033,0.4997,0.1688,17.640,-2.170,10.080,832,830,821,421,384,2025-05-23T21:11:05.506320
6062,-0.9043,0.5026,0.1742,14.070,-7.070,10.430,828,825,817,407,346,2025-05-23T21:11:05.506331
6063,-0.9004,0.4943,0.1796,14.280,-6.720,10.220,823,822,813,418,374,2025-05-23T21:11:05.506375
6064,-0.8965,0.5017,0.1903,12.810,-8.470,9.870,819,817,809,363,399,2025-05-23T21:11:05.506384
6065,-0.8740,0.4948,0.2015,9.100,-12.880,9.100,815,813,806,373,391,2025-05-23T21:11:05.506393
6066,-0.8394,0.4758,0.2059,5.180,-18.060,8.400,812,810,803,402,390,2025-05-23T21:11:05.710409
6067,-0.8369,0.4656,0.2240,5.530,-17.710,8.400,808,808,800,349,393,2025-05-23T21:11:05.710453
6068,-0.8438,0.4651,0.2445,10.640,-12.530,7.840,805,804,796,403,385,2025-05-23T21:11:05.710465
6069,-0.8525,0.4680,0.2503,14.630,-6.580,5.810,801,800,793,404,405,2025-05-23T21:11:05.710476
6070,-0.8618,0.4704,0.2469,20.860,-1.470,5.180,798,797,790,398,355,2025-05-23T21:11:05.710485
6071,-0.8599,0.4807,0.2342,20.510,-1.680,5.180,794,794,786,398,385,2025-05-23T21:11:05.710494
6072,-0.8599,0.4865,0.2235,18.760,-1.680,5.320,791,791,783,411,399,2025-05-23T21:11:05.710503
6073,-0.8477,0.4948,0.2284,18.270,-1.190,6.510,787,787,780,367,407,2025-05-23T21:11:05.710516
6074,-0.8423,0.4997,0.2240,17.500,0.210,8.750,785,784,777,383,394,2025-05-23T21:11:05.710524
6075,-0.8462,0.5129,0.2172,17.290,2.380,9.240,782,782,776,408,406,2025-05-23T21:11:05.710533
6076,-0.8652,0.5134,0.2098,14.420,3.290,9.450,780,780,773,405,408,2025-05-23T21:11:05.710542
6077,-0.8613,0.5007,0.1962,14.910,2.590,9.800,777,778,771,410,423,2025-05-23T21:11:05.710550
6078,-0.8686,0.5104,0.1884,14.070,0.700,9.730,776,775,769,418,422,2025-05-23T21:11:05.710558
6079,-0.8779,0.5090,0.1850,13.510,0.280,8.820,774,774,767,412,406,2025-05-23T21:11:05.710566
6080,-0.8769,0.5080,0.1737,14.000,0.140,7.840,772,772,765,350,409,2025-05-23T21:11:05.710574
6081,-0.8711,0.5144,0.1718,12.810,-1.540,8.260,770,769,763,378,408,2025-05-23T21:11:05.710610
6082,-0.8511,0.5109,0.1771,10.710,-3.850,9.940,768,768,761,415,357,2025-05-23T21:11:05.710619
6083,-0.8530,0.5222,0.1776,8.820,-3.640,11.830,767,767,761,403,385,2025-05-23T21:11:05.946217
6084,-0.8530,0.5065,0.1854,7.630,-3.080,10.290,766,766,759,407,397,2025-05-23T21:11:05.946263
6085,-0.8545,0.5187,0.1879,12.320,-3.710,8.960,764,764,757,411,397,2025-05-23T21:11:05.946277
6086,-0.8564,0.5187,0.1928,13.720,-5.950,7.630,762,762,755,358,387,2025-05-23T21:11:05.946287
6087,-0.8540,0.5187,0.1810,13.790,-5.250,6.860,760,761,753,396,363,2025-05-23T21:11:05.946297
6088,-0.8545,0.5197,0.1791,11.970,-4.550,6.650,758,759,752,393,373,2025-05-23T21:11:05.946309
6089,-0.8608,0.5231,0.1801,10.570,-4.130,5.390,757,758,751,400,404,2025-05-23T21:11:05.946321
6090,-0.8623,0.5163,0.1801,11.340,-4.830,3.920,756,757,751,348,389,2025-05-23T21:11:05.946331
6091,-0.8721,0.5217,0.1591,10.430,-7.000,4.410,756,757,749,379,386,2025-05-23T21:11:05.946340
6092,-0.8730,0.5251,0.1566,8.260,-11.060,5.110,754,755,749,397,343,2025-05-23T21:11:05.946349
6093,-0.8799,0.5417,0.1449,6.160,-15.750,5.670,754,755,748,387,381,2025-05-23T21:11:05.946358
6094,-0.8857,0.5524,0.1469,4.340,-22.330,7.490,753,754,747,408,390,2025-05-23T21:11:05.946367
6095,-0.8740,0.5588,0.1518,-0.210,-30.240,9.310,753,753,746,390,393,2025-05-23T21:11:05.946376
6096,-0.8813,0.5553,0.1576,-6.230,-36.540,12.390,752,753,746,397,387,2025-05-23T21:11:05.946385
6097,-0.8799,0.5524,0.1630,-12.670,-44.660,14.420,751,752,745,399,397,2025-05-23T21:11:05.946427
6098,-0.8789,0.5675,0.1684,-18.480,-53.200,16.170,751,752,744,415,400,2025-05-23T21:11:05.946438
6099,-0.8677,0.5734,0.1781,-26.040,-61.740,18.830,750,750,743,397,400,2025-05-23T21:11:05.946447
6100,-0.8603,0.5832,0.2113,-35.770,-68.110,20.860,750,750,743,398,413,2025-05-23T21:11:05.946455
6101,-0.8560,0.5680,0.2142,-41.580,-71.680,21.560,749,750,743,407,395,2025-05-23T21:11:05.946464
6102,-0.8535,0.5539,0.2318,-45.500,-76.090,21.770,749,751,744,407,391,2025-05-23T21:11:05.946473
6103,-0.8154,0.5514,0.2596,-46.270,-82.110,22.960,750,751,744,360,348,2025-05-23T21:11:06.120116
6104,-0.7920,0.5754,0.3099,-47.040,-82.530,24.710,750,751,744,390,395,2025-05-23T21:11:06.120182
6105,-0.7774,0.5749,0.3265,-51.380,-78.330,24.850,750,752,745,398,393,2025-05-23T21:11:06.120201
6106,-0.7637,0.5661,0.3523,-48.720,-72.800,23.660,751,752,746,411,351,2025-05-23T21:11:06.120217
6107,-0.7598,0.5514,0.3660,-45.850,-73.290,22.120,751,752,745,395,370,2025-05-23T21:11:06.120232
6108,-0.7803,0.5539,0.3723,-44.240,-76.650,20.230,751,752,746,396,400,2025-05-23T21:11:06.120246
6109,-0.7491,0.5412,0.3909,-43.610,-82.530,18.480,751,751,745,413,408,2025-05-23T21:11:06.120261
6110,-0.7081,0.5431,0.4182,-46.130,-85.960,20.300,751,752,745,420,410,2025-05-23T21:11:06.120275
6111,-0.7003,0.5680,0.4812,-48.720,-82.460,21.980,751,752,746,434,416,2025-05-23T21:11:06.120288
6112,-0.6676,0.5558,0.4904,-50.260,-70.490,21.210,751,752,747,406,417,2025-05-23T21:11:06.120300
6113,-0.6320,0.5436,0.5090,-41.510,-56.350,19.040,752,753,747,403,402,2025-05-23T21:11:06.120313
6114,-0.6188,0.5300,0.5197,-34.370,-45.220,14.000,755,756,657,412,398,2025-05-23T21:11:06.120327
6115,-0.6041,0.5568,0.5314,-30.660,-31.080,11.620,758,760,505,404,409,2025-05-23T21:11:06.120339
6116,-0.5895,0.5656,0.5187,-24.290,-19.530,8.610,766,768,421,391,392,2025-05-23T21:11:06.120353
6117,-0.6066,0.5812,0.5226,-15.820,-6.650,2.310,770,772,371,379,400,2025-05-23T21:11:06.324854
6118,-0.6085,0.6525,0.4958,-13.930,5.600,-2.450,774,776,353,408,403,2025-05-23T21:11:06.325077
6119,-0.6300,0.6822,0.4890,-16.520,10.290,-1.190,775,777,378,417,400,2025-05-23T21:11:06.325096
6120,-0.6544,0.7496,0.4621,-27.930,11.550,5.180,778,779,377,414,363,2025-05-23T21:11:06.325111
6121,-0.6510,0.7823,0.4363,-42.280,14.000,14.840,778,780,375,392,337,2025-05-23T21:11:06.325126
6122,-0.6320,0.7623,0.4182,-55.930,19.040,22.330,777,780,382,405,366,2025-05-23T21:11:06.325139
6123,-0.6246,0.7725,0.3899,-60.060,25.760,26.670,779,781,387,398,401,2025-05-23T21:11:06.325151
6124,-0.6002,0.7540,0.3587,-62.860,33.320,30.800,779,781,392,421,389,2025-05-23T21:11:06.325163
6125,-0.5695,0.7354,0.3562,-62.090,41.720,36.820,791,793,353,401,403,2025-05-23T21:11:06.325179
6126,-0.6232,0.7364,0.3694,-62.930,53.340,38.220,797,799,362,414,316,2025-05-23T21:11:06.325191
6127,-0.6315,0.7276,0.3884,-66.290,57.960,41.510,801,803,373,397,374,2025-05-23T21:11:06.325203
6128,-0.6476,0.7174,0.3919,-73.010,56.000,43.120,815,819,341,397,395,2025-05-23T21:11:06.325214
6129,-0.6944,0.7096,0.3845,-84.420,48.440,49.840,829,834,375,405,399,2025-05-23T21:11:06.325227
6130,-0.7447,0.7130,0.4065,-96.390,36.050,56.980,835,838,382,421,404,2025-05-23T21:11:06.325236
6131,-0.7950,0.6661,0.3787,-108.920,22.610,58.660,839,842,353,415,388,2025-05-23T21:11:06.325289
6132,-0.7481,0.6027,0.3338,-114.030,20.090,61.670,841,844,361,417,407,2025-05-23T21:11:06.325301
6133,-0.7188,0.6364,0.2796,-110.180,29.960,69.790,837,838,380,383,407,2025-05-23T21:11:06.325312
6134,-0.7979,0.5622,0.4280,-100.940,41.090,75.950,825,829,373,408,406,2025-05-23T21:11:06.530343
6135,-0.7222,0.5705,0.3479,-96.880,50.470,73.220,820,822,386,354,367,2025-05-23T21:11:06.530394
6136,-0.7027,0.5104,0.3660,-95.410,46.690,70.210,818,819,375,391,394,2025-05-23T21:11:06.530408
6137,-0.7071,0.4563,0.3704,-99.820,35.280,68.740,811,813,389,409,404,2025-05-23T21:11:06.530420
6138,-0.7632,0.4524,0.4499,-101.500,27.930,68.740,810,811,396,379,406,2025-05-23T21:11:06.530431
6139,-0.7696,0.4455,0.5183,-104.720,22.540,69.510,810,812,399,399,388,2025-05-23T21:11:06.530442
6140,-0.7530,0.3065,0.0942,-95.970,35.350,57.960,798,799,384,414,386,2025-05-23T21:11:06.530452
6141,-0.9409,0.3372,0.2801,-82.950,99.050,64.400,772,772,393,411,395,2025-05-23T21:11:06.530462
6142,-1.0897,0.3670,0.5119,-76.230,75.740,70.700,767,768,400,371,389,2025-05-23T21:11:06.530472
6143,-0.9453,0.3006,0.5344,-88.900,73.990,64.470,765,766,759,385,387,2025-05-23T21:11:06.530482
6144,-0.7740,0.2547,0.5178,-89.670,18.690,60.200,760,761,754,407,384,2025-05-23T21:11:06.530491
6145,-0.6593,0.2430,0.5261,-120.820,-38.780,63.980,758,758,752,396,402,2025-05-23T21:11:06.530505
6146,-0.5895,0.2040,0.6193,-119.350,-58.730,63.210,755,757,751,407,389,2025-05-23T21:11:06.530515
6147,-0.5866,0.2015,0.7413,-92.890,-23.590,62.230,754,755,749,388,383,2025-05-23T21:11:06.530525
6148,-0.6666,0.2040,0.8301,-66.850,9.450,59.920,753,754,749,397,393,2025-05-23T21:11:06.530568
6149,-0.7086,0.2128,0.8228,-35.840,23.380,57.960,752,753,746,393,385,2025-05-23T21:11:06.530579
6150,-0.7544,0.2386,0.8481,-22.050,14.000,48.860,750,751,745,411,392,2025-05-23T21:11:06.530590
6151,-0.8120,0.2811,0.7823,-23.240,-10.640,46.480,748,750,743,402,344,2025-05-23T21:11:06.778056
6152,-0.7520,0.2982,0.7130,-26.250,-15.260,42.350,747,749,742,345,381,2025-05-23T21:11:06.778106
6153,-0.6783,0.3089,0.7252,-15.470,1.610,35.630,747,747,742,382,387,2025-05-23T21:11:06.778120
6154,-0.6202,0.3421,0.7110,-1.120,21.770,31.710,747,748,742,388,401,2025-05-23T21:11:06.778132
6155,-0.6315,0.3518,0.6993,-0.560,27.230,29.330,747,747,742,411,389,2025-05-23T21:11:06.778143
6156,-0.6793,0.3767,0.6934,-4.900,21.630,26.460,747,749,742,421,380,2025-05-23T21:11:06.778154
6157,-0.7091,0.3772,0.6832,-9.590,5.390,23.730,747,748,742,432,403,2025-05-23T21:11:06.778164
6158,-0.7427,0.3362,0.6739,-7.420,-6.230,20.930,747,747,742,427,396,2025-05-23T21:11:06.778174
6159,-0.7096,0.3670,0.6803,1.610,-9.240,17.920,747,748,742,429,400,2025-05-23T21:11:06.778184
6160,-0.5817,0.4255,0.6764,6.300,-6.090,16.520,747,747,742,415,405,2025-05-23T21:11:06.778194
6161,-0.5592,0.4680,0.6578,14.350,1.470,18.130,745,748,741,427,413,2025-05-23T21:11:06.778204
6162,-0.5973,0.5236,0.6271,16.870,11.550,18.690,746,747,741,409,403,2025-05-23T21:11:06.778213
6163,-0.6251,0.5353,0.6022,18.270,18.620,17.710,746,747,741,416,392,2025-05-23T21:11:06.778222
6164,-0.6427,0.5417,0.6056,20.300,15.680,17.010,746,747,742,359,406,2025-05-23T21:11:06.778231
6165,-0.6622,0.5832,0.6120,18.690,8.680,16.240,748,749,743,382,364,2025-05-23T21:11:06.778274
6166,-0.6334,0.5680,0.5841,11.690,2.800,14.070,752,753,747,393,393,2025-05-23T21:11:06.778284
6167,-0.7808,0.2469,0.3289,2.590,13.720,10.430,757,759,755,406,407,2025-05-23T21:11:06.778294
6168,-0.5729,0.6754,0.6446,13.790,5.530,7.280,760,761,756,418,404,2025-05-23T21:11:06.940800
6169,-0.6124,0.5973,0.5202,-20.930,7.910,8.470,763,764,759,420,406,2025-05-23T21:11:06.940866
6170,-0.6490,0.5768,0.5373,-11.340,-9.240,1.120,784,786,782,400,410,2025-05-23T21:11:06.940882
6171,-0.6061,0.6285,0.4997,-16.450,-15.120,1.190,789,792,786,400,372,2025-05-23T21:11:06.940897
6172,-0.6476,0.6349,0.5973,-13.790,-34.720,5.250,786,789,783,408,402,2025-05-23T21:11:06.940910
6173,-0.6427,0.6554,0.5758,-30.660,-35.560,12.670,796,801,796,357,408,2025-05-23T21:11:06.940923
6174,-0.6237,0.5866,0.5993,-34.510,-44.450,11.900,807,816,813,385,407,2025-05-23T21:11:06.940938
6175,-0.5973,0.5607,0.5968,-32.830,-46.830,9.450,865,877,877,418,406,2025-05-23T21:11:06.940950
6176,-0.5841,0.5446,0.6085,-33.530,-54.600,7.560,897,905,902,413,393,2025-05-23T21:11:06.940962
6177,-0.5841,0.5431,0.6417,-39.760,-55.370,7.910,913,919,916,402,353,2025-05-23T21:11:06.940973
6178,-0.5651,0.5295,0.6749,-42.840,-59.570,8.890,924,930,928,392,377,2025-05-23T21:11:06.940985
6179,-0.5231,0.5007,0.6881,-38.920,-58.800,10.920,934,940,936,413,386,2025-05-23T21:11:06.940996
6180,-0.4968,0.4973,0.7056,-29.610,-35.980,5.180,942,948,944,414,395,2025-05-23T21:11:06.941007
6181,-0.4831,0.4782,0.7115,-23.170,-43.540,1.540,950,954,951,398,391,2025-05-23T21:11:06.941019
6182,-0.4978,0.4651,0.7198,-19.810,-35.350,-0.070,955,961,956,385,409,2025-05-23T21:11:06.941068
6183,-0.4978,0.4573,0.7403,-16.450,-30.590,0.560,960,965,961,406,403,2025-05-23T21:11:06.941081
6184,-0.5075,0.4665,0.7413,-11.130,-21.980,0.980,965,970,966,410,417,2025-05-23T21:11:06.941092
6185,-0.4997,0.4753,0.7178,-6.790,-11.550,-0.140,970,975,970,391,414,2025-05-23T21:11:07.144125
6186,-0.5080,0.5026,0.7037,-2.450,-5.810,-1.820,974,979,975,347,393,2025-05-23T21:11:07.144178
6187,-0.5305,0.5309,0.6983,-2.030,-8.960,-3.360,978,982,978,397,390,2025-05-23T21:11:07.144192
6188,-0.5485,0.5388,0.6964,-4.760,-17.710,-4.130,981,985,981,412,413,2025-05-23T21:11:07.144208
6189,-0.5368,0.5383,0.6715,-7.910,-24.710,-3.920,984,988,984,400,402,2025-05-23T21:11:07.144218
6190,-0.5026,0.5446,0.6642,-8.960,-20.930,-2.100,986,990,986,359,387,2025-05-23T21:11:07.144229
6191,-0.5085,0.5480,0.6720,-6.090,-13.650,-0.560,988,992,989,378,407,2025-05-23T21:11:07.144240
6192,-0.4880,0.5485,0.6744,-2.310,-8.260,1.190,991,995,991,402,357,2025-05-23T21:11:07.144249
6193,-0.4768,0.5836,0.6739,2.940,-1.960,1.400,993,997,993,411,365,2025-05-23T21:11:07.144259
6194,-0.4519,0.6046,0.6407,7.000,3.850,-0.210,995,999,995,392,391,2025-05-23T21:11:07.144270
6195,-0.4699,0.5866,0.6505,10.010,10.710,-3.430,998,1001,997,408,399,2025-05-23T21:11:07.144283
6196,-0.5104,0.5924,0.6471,11.480,13.020,-4.690,999,1003,999,395,397,2025-05-23T21:11:07.164368
6197,-0.5012,0.5890,0.6568,10.640,13.580,-3.850,1001,1006,1001,394,408,2025-05-23T21:11:07.164411
6198,-0.5090,0.5949,0.6446,7.560,16.380,-2.240,1003,1007,1003,395,410,2025-05-23T21:11:07.164423
6199,-0.5095,0.5924,0.6412,6.580,23.870,-0.840,1005,1009,1005,392,414,2025-05-23T21:11:07.164488
6200,-0.5519,0.5714,0.6398,4.830,26.460,0.420,1007,1010,1006,415,406,2025-05-23T21:11:07.164499
6201,-0.5397,0.5710,0.6744,5.880,24.430,1.890,1009,1012,1007,400,365,2025-05-23T21:11:07.164509
6202,-0.5407,0.5217,0.6710,1.190,18.060,4.550,1010,1014,1009,396,392,2025-05-23T21:11:07.192399
6203,-0.5510,0.5329,0.7086,-4.620,14.280,7.280,1013,1016,1011,415,406,2025-05-23T21:11:07.192569
6204,-0.5558,0.4929,0.7296,-7.210,5.530,8.610,1014,1018,1012,416,390,2025-05-23T21:11:07.192584
6205,-0.5314,0.4031,0.7759,-2.730,36.960,8.400,1016,1019,1013,403,390,2025-05-23T21:11:07.192596
6206,-0.5412,0.3865,0.7740,13.300,35.420,3.010,1017,1021,1015,400,393,2025-05-23T21:11:07.244394
6207,-0.5353,0.3709,0.7803,16.100,25.410,-1.190,1019,1023,1017,418,404,2025-05-23T21:11:07.244439
6208,-0.5266,0.3665,0.7832,7.000,7.350,-3.290,1020,1023,1019,400,355,2025-05-23T21:11:07.244452
6209,-0.5309,0.3675,0.7910,2.450,7.700,-5.250,1022,1023,1020,402,359,2025-05-23T21:11:07.244464
6210,-0.5534,0.3592,0.7871,11.620,11.900,-7.560,1023,1023,1021,394,394,2025-05-23T21:11:07.351390
6211,-0.5802,0.3792,0.7408,16.380,14.980,-10.850,1023,1023,1023,409,350,2025-05-23T21:11:07.351443
6212,-0.6168,0.3797,0.7296,16.170,12.530,-12.180,1023,1023,1023,424,362,2025-05-23T21:11:07.351460
6213,-0.6339,0.4075,0.6876,8.050,3.710,-9.940,1023,1023,1023,449,395,2025-05-23T21:11:07.351473
6214,-0.6051,0.4416,0.6466,7.490,4.340,-3.500,1023,1023,1023,466,407,2025-05-23T21:11:07.351487
6215,-0.6285,0.4890,0.6403,10.080,9.660,0.210,1023,1023,1023,466,417,2025-05-23T21:11:07.351498
6216,-0.6310,0.5158,0.6349,17.220,11.200,2.170,1023,1023,1023,458,405,2025-05-23T21:11:07.351508
6217,-0.6134,0.5558,0.6329,17.430,8.470,3.430,918,913,902,418,350,2025-05-23T21:11:07.351519
6218,-0.6178,0.5646,0.6242,12.880,-0.210,4.970,898,896,887,402,393,2025-05-23T21:11:07.351529
6219,-0.5924,0.5666,0.6198,5.670,-7.560,5.950,889,888,880,400,362,2025-05-23T21:11:07.433204
6220,-0.5856,0.5739,0.6383,0.490,-10.920,5.250,883,883,875,408,380,2025-05-23T21:11:07.433261
6221,-0.5812,0.5573,0.6432,-3.360,-12.180,4.270,879,878,870,418,363,2025-05-23T21:11:07.433277
6222,-0.5646,0.5378,0.6422,-3.500,-12.390,2.590,876,876,868,420,375,2025-05-23T21:11:07.433289
6223,-0.5456,0.5256,0.6549,-4.270,-13.090,0.840,873,873,865,404,339,2025-05-23T21:11:07.433301
6224,-0.5553,0.5226,0.6666,-3.290,-12.600,-1.050,870,871,864,413,377,2025-05-23T21:11:07.556900
6225,-0.5602,0.5192,0.6681,-1.960,-11.620,-2.310,869,869,862,428,406,2025-05-23T21:11:07.556947
6226,-0.5544,0.5236,0.6647,0.560,-10.570,-3.080,869,870,864,424,375,2025-05-23T21:11:07.556962
6227,-0.5597,0.5222,0.6588,2.800,-10.150,-3.920,871,872,865,358,400,2025-05-23T21:11:07.556973
6228,-0.5573,0.5192,0.6603,5.320,-10.150,-3.920,871,872,866,384,409,2025-05-23T21:11:07.556985
6229,-0.5602,0.5197,0.6549,4.900,-7.980,-3.150,870,873,866,414,369,2025-05-23T21:11:07.556996
6230,-0.5754,0.5104,0.6578,5.670,-5.460,-2.660,871,872,866,418,392,2025-05-23T21:11:07.557006
6231,-0.6139,0.4714,0.7271,3.010,-8.050,-2.870,871,873,866,414,395,2025-05-23T21:11:07.557016
6232,-0.5944,0.4914,0.6456,6.020,-8.470,-4.200,871,872,865,424,361,2025-05-23T21:11:07.557026
6233,-0.5876,0.5388,0.6373,9.310,-9.870,-5.320,889,922,928,420,386,2025-05-23T21:11:07.557036
6234,-0.5836,0.5656,0.6305,5.180,-14.140,-4.690,958,964,961,405,399,2025-05-23T21:11:07.557045
6235,-0.5749,0.5744,0.6373,0.000,-18.410,-2.380,974,979,976,404,353,2025-05-23T21:11:07.557055
6236,-0.5646,0.5758,0.6320,-7.140,-22.400,0.210,984,990,985,411,335,2025-05-23T21:11:07.768122
6237,-0.5700,0.5539,0.6549,-12.320,-25.620,2.100,992,997,992,405,375,2025-05-23T21:11:07.768182
6238,-0.5553,0.5222,0.6705,-12.670,-19.810,4.480,998,1002,998,425,385,2025-05-23T21:11:07.768198
6239,-0.5309,0.5007,0.6759,-7.840,-13.510,5.810,1003,1006,1002,403,347,2025-05-23T21:11:07.768336
6240,-0.5261,0.4860,0.6964,-9.380,-7.770,7.490,1006,1010,1005,398,380,2025-05-23T21:11:07.768357
6241,-0.5100,0.4773,0.7081,-8.470,-2.870,8.680,1011,1014,1008,409,389,2025-05-23T21:11:07.768370
6242,-0.5051,0.4924,0.7291,-3.500,4.130,7.700,1013,1017,1011,397,401,2025-05-23T21:11:07.768384
6243,-0.4987,0.4904,0.7047,2.870,13.020,4.270,1016,1019,1014,401,389,2025-05-23T21:11:07.768396
6244,-0.5353,0.5012,0.6637,7.000,14.210,0.490,1018,1022,1017,347,401,2025-05-23T21:11:07.768409
6245,-0.5329,0.4851,0.6861,11.060,13.510,-1.680,1021,1023,1019,335,403,2025-05-23T21:11:07.768421
6246,-0.5475,0.4948,0.6876,11.900,11.620,-3.010,1023,1023,1022,387,411,2025-05-23T21:11:07.768520
6247,-0.5958,0.4704,0.6827,12.250,9.590,-5.460,1023,1023,1023,430,364,2025-05-23T21:11:07.768560
6248,-0.5978,0.4724,0.6754,12.810,6.650,-6.860,1023,1023,1023,441,385,2025-05-23T21:11:07.768574
6249,-0.5905,0.5158,0.6383,9.800,3.920,-5.600,1023,1023,1023,448,386,2025-05-23T21:11:07.768588
6250,-0.6085,0.5104,0.6466,6.930,2.660,-3.920,1023,1023,1023,463,380,2025-05-23T21:11:07.768675
6251,-0.6076,0.5124,0.6544,3.710,2.030,-2.380,1023,1023,1023,453,343,2025-05-23T21:11:07.768688
6252,-0.5861,0.5226,0.6529,3.570,0.210,-2.030,1023,1023,1023,463,375,2025-05-23T21:11:07.768700
6253,-0.5666,0.5256,0.6476,2.800,0.840,-1.260,1023,1023,1023,442,397,2025-05-23T21:11:07.768712
6254,-0.5832,0.5241,0.6573,4.550,0.560,-0.980,1023,1023,1023,450,370,2025-05-23T21:11:07.964426
6255,-0.5900,0.5114,0.6534,4.340,-0.420,-0.070,1023,1023,1023,452,387,2025-05-23T21:11:07.964473
6256,-0.5880,0.4929,0.6505,5.110,-3.150,-0.140,1023,1023,1023,446,403,2025-05-23T21:11:07.964490
6257,-0.5773,0.5114,0.6559,4.340,-3.920,-0.560,1023,1023,1023,462,413,2025-05-23T21:11:07.964498
6258,-0.5612,0.5236,0.6281,3.990,-3.920,-0.770,1023,1023,1023,453,410,2025-05-23T21:11:07.964506
6259,-0.5758,0.5266,0.6407,2.240,-1.680,-0.770,1023,1023,1023,459,407,2025-05-23T21:11:07.964514
6260,-0.5797,0.5353,0.6407,1.960,0.280,0.280,1023,1023,1023,469,399,2025-05-23T21:11:07.964522
6261,-0.5827,0.5251,0.6407,1.470,0.000,-0.210,1023,1023,1023,463,402,2025-05-23T21:11:07.964529
6262,-0.5788,0.5256,0.6285,0.280,-1.540,-0.350,1023,1023,1023,461,408,2025-05-23T21:11:07.964536
6263,-0.6163,0.5070,0.6520,-0.560,-1.050,-0.560,1023,1023,1023,446,355,2025-05-23T21:11:07.964544
6264,-0.6168,0.5061,0.6364,-17.850,-3.640,-1.260,1023,1023,1023,456,338,2025-05-23T21:11:07.964551
6265,-0.6149,0.4978,0.6490,0.140,-5.810,-2.030,1023,1023,1023,449,363,2025-05-23T21:11:07.964558
6266,-0.6178,0.4900,0.6334,0.770,-4.620,-2.590,1023,1023,1023,452,342,2025-05-23T21:11:07.964565
6267,-0.6144,0.4963,0.6383,2.590,-5.740,-3.710,1023,1023,1023,441,364,2025-05-23T21:11:07.964571
6268,-0.6212,0.4934,0.6364,0.420,-6.720,-4.060,1023,1023,1023,437,384,2025-05-23T21:11:07.964609
6269,-0.6373,0.5090,0.6276,-0.560,-11.130,-4.270,1023,1023,1023,449,394,2025-05-23T21:11:07.964616
6270,-0.6242,0.5178,0.6237,-1.960,-15.050,-3.640,1023,1023,1023,448,413,2025-05-23T21:11:08.016866
6271,-0.5841,0.5212,0.6359,-2.730,-17.080,-3.150,1023,1023,1023,459,396,2025-05-23T21:11:08.016911
6272,-0.5754,0.5256,0.6368,-5.530,-12.390,-1.750,1023,1023,1023,454,416,2025-05-23T21:11:08.016923
6273,-0.5802,0.5334,0.6505,-6.300,-10.850,0.000,1023,1023,1023,462,400,2025-05-23T21:11:08.016934
6274,-0.5656,0.5412,0.6515,-7.980,-10.920,1.050,1023,1023,1023,445,411,2025-05-23T21:11:08.016944
6275,-0.5519,0.5402,0.6549,-7.350,-12.880,1.330,1023,1023,1023,460,415,2025-05-23T21:11:08.064373
6276,-0.5397,0.5446,0.6671,-5.530,-12.740,-0.070,1023,1023,1023,449,357,2025-05-23T21:11:08.064420
6277,-0.5241,0.5519,0.6578,-2.590,-14.000,-2.940,1023,1023,1023,444,371,2025-05-23T21:11:08.064433
6278,-0.5041,0.5729,0.6632,1.610,-11.970,-5.740,1023,1023,1023,457,374,2025-05-23T21:11:08.064464
6279,-0.4851,0.5983,0.6490,5.250,-11.970,-6.720,1023,1023,1023,439,391,2025-05-23T21:11:08.169401
6280,-0.4743,0.6412,0.6525,4.200,-10.920,-6.020,1023,1023,1023,451,400,2025-05-23T21:11:08.169463
6281,-0.4587,0.6476,0.6520,0.910,-10.430,-3.710,1023,1023,1023,450,405,2025-05-23T21:11:08.169479
6282,-0.4616,0.6417,0.6642,-2.030,-7.980,-0.210,1023,1023,1023,441,398,2025-05-23T21:11:08.169492
6283,-0.4592,0.6373,0.6578,-4.480,-5.880,2.240,1023,1023,1023,431,409,2025-05-23T21:11:08.169505
6284,-0.4807,0.5861,0.6622,-5.740,-3.010,3.220,1023,1023,1023,392,411,2025-05-23T21:11:08.169518
6285,-0.5041,0.5490,0.6754,-5.460,-0.770,2.660,1023,1023,1023,378,395,2025-05-23T21:11:08.169529
6286,-0.5231,0.5266,0.6773,-2.730,0.000,1.540,1023,1023,1023,433,393,2025-05-23T21:11:08.169541
6287,-0.5466,0.4973,0.6803,-0.700,1.400,-0.770,1023,1023,1023,428,405,2025-05-23T21:11:08.169679
6288,-0.5466,0.5368,0.6681,0.840,2.520,-0.630,1023,1023,1023,449,405,2025-05-23T21:11:08.379024
6289,-0.5597,0.5417,0.6559,2.170,0.350,-1.680,1023,1023,1023,457,412,2025-05-23T21:11:08.379095
6290,-0.5739,0.5402,0.6529,0.490,-3.220,-1.260,1023,1023,1023,470,368,2025-05-23T21:11:08.379230
6291,-0.5758,0.5427,0.6505,-1.470,-6.650,-0.910,1023,1023,1023,457,392,2025-05-23T21:11:08.379303
6292,-0.5695,0.5412,0.6564,-3.850,-9.660,-0.350,1023,1023,1023,467,347,2025-05-23T21:11:08.379319
6293,-0.5636,0.5329,0.6608,-5.390,-10.640,0.560,1023,1023,1023,444,350,2025-05-23T21:11:08.379333
6294,-0.5617,0.5217,0.6686,-5.810,-10.710,1.120,1023,1023,1023,453,381,2025-05-23T21:11:08.379345
6295,-0.5431,0.5183,0.6744,-5.530,-10.500,1.050,1023,1023,1023,444,348,2025-05-23T21:11:08.379357
6296,-0.5344,0.5202,0.6734,-4.340,-10.150,0.000,1023,1023,1023,454,391,2025-05-23T21:11:08.379370
6297,-0.5348,0.5222,0.6783,-3.010,-9.590,-0.910,1023,1023,1023,455,399,2025-05-23T21:11:08.379381
6298,-0.5431,0.5231,0.6715,-3.430,-9.310,-1.540,1023,1023,1023,458,416,2025-05-23T21:11:08.379393
6299,-0.5544,0.5168,0.6744,-3.640,-9.730,-1.610,1023,1023,1023,458,419,2025-05-23T21:11:08.379404
6300,-0.5553,0.5144,0.6754,-3.570,-9.800,-1.050,1023,1023,1023,452,412,2025-05-23T21:11:08.379415
6301,-0.5446,0.5139,0.6827,-3.710,-8.050,-0.210,1023,1023,1023,459,398,2025-05-23T21:11:08.379427
6302,-0.5407,0.5158,0.6812,-3.290,-6.650,-0.350,1023,1023,1023,445,415,2025-05-23T21:11:08.379497
6303,-0.5402,0.5144,0.6812,-2.380,-5.880,-0.700,1023,1023,1023,462,415,2025-05-23T21:11:08.379510
6304,-0.5431,0.5197,0.6808,-1.890,-6.020,-0.910,1023,1023,1023,403,410,2025-05-23T21:11:08.379522
6305,-0.5427,0.5202,0.6812,-2.030,-6.440,-0.910,1023,1023,1023,425,406,2025-05-23T21:11:08.579112
6306,-0.5427,0.5183,0.6822,-2.030,-6.300,-1.120,1023,1023,1023,431,389,2025-05-23T21:11:08.579371
6307,-0.5402,0.5134,0.6861,-1.890,-6.020,-1.050,1023,1023,1023,448,352,2025-05-23T21:11:08.579391
6308,-0.5378,0.5183,0.6871,-1.470,-5.180,-1.050,1023,1023,1023,450,376,2025-05-23T21:11:08.579402
6309,-0.5353,0.5144,0.6842,-1.260,-3.710,-0.980,1023,1023,1023,448,385,2025-05-23T21:11:08.579413
6310,-0.5344,0.5114,0.6881,-0.560,-2.520,-0.700,1023,1023,1023,468,390,2025-05-23T21:11:08.579423
6311,-0.5407,0.5114,0.6891,0.350,-1.680,-0.350,1023,1023,1023,443,397,2025-05-23T21:11:08.579434
6312,-0.5314,0.5148,0.6886,0.700,-1.050,-0.630,1023,1023,1023,447,399,2025-05-23T21:11:08.579446
6313,-0.5324,0.5183,0.6817,1.610,-0.840,-1.680,1023,1023,1023,444,391,2025-05-23T21:11:08.579456
6314,-0.5388,0.5168,0.6808,2.030,-1.190,-2.310,1023,1023,1023,441,386,2025-05-23T21:11:08.579466
6315,-0.5495,0.5148,0.6808,1.750,-1.820,-2.030,1023,1023,1023,457,402,2025-05-23T21:11:08.579570
6316,-0.5519,0.5139,0.6783,1.470,-1.120,-1.610,1023,1023,1023,443,405,2025-05-23T21:11:08.579583
6317,-0.5480,0.5173,0.6773,1.050,-0.770,-0.910,1023,1023,1023,462,413,2025-05-23T21:11:08.579594
6318,-0.5519,0.5183,0.6739,0.490,-1.120,-0.700,1023,1023,1023,456,378,2025-05-23T21:11:08.579603
6319,-0.5563,0.5202,0.6769,-0.490,-1.750,-0.280,1023,1023,1023,449,343,2025-05-23T21:11:08.579655
6320,-0.5490,0.5226,0.6788,-0.980,-2.730,-0.070,1023,1023,1023,447,380,2025-05-23T21:11:08.579667
6321,-0.5427,0.5163,0.6822,-0.420,-3.010,-0.210,1023,1023,1023,467,384,2025-05-23T21:11:08.579676
6322,-0.5392,0.5187,0.6842,-17.920,-2.100,-0.350,1023,1023,1023,451,394,2025-05-23T21:11:08.625683
6323,-0.5431,0.5100,0.6837,0.280,-1.330,-0.140,1023,1023,1023,450,392,2025-05-23T21:11:08.625721
6324,-0.5407,0.5168,0.6856,1.050,-1.470,-0.140,1023,1023,1023,466,407,2025-05-23T21:11:08.625731
6325,-0.5334,0.5158,0.6812,1.540,-0.910,-0.490,1023,1023,1023,459,406,2025-05-23T21:11:08.625742
6326,-0.5422,0.5173,0.6817,2.100,0.140,-0.700,1023,1023,1023,451,400,2025-05-23T21:11:08.674384
6327,-0.5490,0.5202,0.6778,1.610,0.280,-0.700,1023,1023,1023,434,409,2025-05-23T21:11:08.674427
6328,-0.5529,0.5192,0.6739,1.540,-0.700,-0.490,1023,1023,1023,451,406,2025-05-23T21:11:08.674439
6329,-0.5505,0.5207,0.6769,0.910,-1.330,-0.630,1023,1023,1023,458,410,2025-05-23T21:11:08.674448
6330,-0.5475,0.5226,0.6744,0.700,-1.400,-0.700,1023,1023,1023,462,362,2025-05-23T21:11:08.728385
6331,-0.5519,0.5178,0.6744,0.980,-1.400,-1.050,1023,1023,1023,399,374,2025-05-23T21:11:08.728430
6332,-0.5485,0.5187,0.6739,0.910,-2.030,-1.050,1023,1023,1023,429,405,2025-05-23T21:11:08.728442
6333,-0.5456,0.5178,0.6749,0.630,-2.310,-0.980,1023,1023,1023,456,397,2025-05-23T21:11:08.728452
6334,-0.5510,0.5173,0.6739,0.490,-1.820,-0.770,1023,1023,1023,399,393,2025-05-23T21:11:09.027082
6335,-0.5592,0.5202,0.6739,0.420,-2.030,-0.560,1023,1023,1023,420,410,2025-05-23T21:11:09.027132
6336,-0.5505,0.5236,0.6759,-0.140,-2.730,-0.490,1023,1023,1023,442,421,2025-05-23T21:11:09.027145
6337,-0.5485,0.5226,0.6725,-0.350,-3.850,-0.840,1023,1023,1023,453,401,2025-05-23T21:11:09.027156
6338,-0.5461,0.5231,0.6759,-0.910,-4.060,-0.840,1023,1023,1023,459,405,2025-05-23T21:11:09.027166
6339,-0.5475,0.5148,0.6754,-1.120,-4.060,-0.420,1023,1023,1023,455,397,2025-05-23T21:11:09.027176
6340,-0.5456,0.5158,0.6798,-0.630,-3.640,-0.420,1023,1023,1023,446,394,2025-05-23T21:11:09.027186
6341,-0.5436,0.5119,0.6822,-0.140,-2.660,-0.490,1023,1023,1023,457,346,2025-05-23T21:11:09.027196
6342,-0.5456,0.5158,0.6842,0.560,-1.890,-0.630,1023,1023,1023,461,370,2025-05-23T21:11:09.027205
6343,-0.5436,0.5187,0.6788,0.840,-1.890,-1.050,1023,1023,1023,465,394,2025-05-23T21:11:09.027214
6344,-0.5485,0.5192,0.6739,1.330,-1.960,-1.260,1023,1023,1023,468,368,2025-05-23T21:11:09.027223
6345,-0.5549,0.5202,0.6725,0.980,-1.820,-0.980,1023,1023,1023,469,390,2025-05-23T21:11:09.027238
6346,-0.5578,0.5246,0.6720,0.210,-2.380,-0.910,1023,1023,1023,473,384,2025-05-23T21:11:09.027247
6347,-0.5597,0.5231,0.6700,-0.140,-3.430,-0.910,1023,1023,1023,449,400,2025-05-23T21:11:09.027255
6348,-0.5514,0.5212,0.6730,-0.490,-4.830,-0.980,1023,1023,1023,448,394,2025-05-23T21:11:09.027298
6349,-0.5490,0.5153,0.6749,-0.840,-4.340,-0.840,1023,1023,1023,440,387,2025-05-23T21:11:09.027307
6350,-0.5490,0.5109,0.6798,-0.210,-4.060,-1.190,1023,1023,1023,456,352,2025-05-23T21:11:09.027316
6351,-0.5441,0.5148,0.6817,0.210,-2.800,-0.910,1023,1023,1023,435,384,2025-05-23T21:11:09.027325
6352,-0.5466,0.5187,0.6773,0.770,-1.820,-0.980,1023,1023,1023,442,361,2025-05-23T21:11:09.027336
6353,-0.5500,0.5163,0.6759,0.700,-1.400,-0.840,1023,1023,1023,458,397,2025-05-23T21:11:09.027345
6354,-0.5514,0.5168,0.6749,0.630,-1.540,-0.700,1023,1023,1023,448,416,2025-05-23T21:11:09.074779
6355,-0.5466,0.5222,0.6715,0.630,-1.680,-0.420,1023,1023,1023,439,392,2025-05-23T21:11:09.074823
6356,-0.5475,0.5207,0.6749,0.490,-2.030,-0.560,1023,1023,1023,454,403,2025-05-23T21:11:09.074835
6357,-0.5480,0.5202,0.6759,0.560,-1.470,-0.700,1023,1023,1023,459,404,2025-05-23T21:11:09.074846
6358,-0.5500,0.5202,0.6783,0.140,-1.750,-0.910,1023,1023,1023,450,390,2025-05-23T21:11:09.074855
6359,-0.5485,0.5158,0.6754,0.630,-1.820,-0.910,1023,1023,1023,451,409,2025-05-23T21:11:09.074865
6360,-0.5461,0.5178,0.6710,0.630,-1.400,-1.050,1023,1023,1023,437,395,2025-05-23T21:11:09.074875
6361,-0.5510,0.5187,0.6715,0.490,-1.260,-1.120,1023,1023,1023,452,395,2025-05-23T21:11:09.074883
6362,-0.5534,0.5173,0.6754,0.490,-1.750,-1.190,1023,1023,1023,444,360,2025-05-23T21:11:09.074892
6363,-0.5519,0.5197,0.6778,0.350,-2.030,-1.260,1023,1023,1023,392,346,2025-05-23T21:11:09.122517
6364,-0.5519,0.5173,0.6705,-0.210,-2.170,-1.120,1023,1023,1023,425,383,2025-05-23T21:11:09.122562
6365,-0.5524,0.5173,0.6705,-0.140,-2.310,-0.980,1023,1023,1023,455,381,2025-05-23T21:11:09.122573
6366,-0.5563,0.5178,0.6734,-0.840,-2.590,-0.630,1023,1023,1023,436,354,2025-05-23T21:11:09.122582
6367,-0.5524,0.5173,0.6725,-0.700,-2.660,-0.490,1023,1023,1023,453,371,2025-05-23T21:11:09.370618
6368,-0.5558,0.5183,0.6730,-1.260,-2.800,-0.350,1023,1023,1023,465,394,2025-05-23T21:11:09.370642
6369,-0.5519,0.5178,0.6764,-0.630,-2.730,-0.280,1023,1023,1023,468,406,2025-05-23T21:11:09.370651
6370,-0.5500,0.5187,0.6720,-0.910,-2.800,-0.280,1023,1023,1023,464,415,2025-05-23T21:11:09.370656
6371,-0.5514,0.5173,0.6744,-0.700,-2.800,-0.350,1023,1023,1023,448,402,2025-05-23T21:11:09.370724
6372,-0.5539,0.5183,0.6720,-1.190,-3.080,-0.280,1023,1023,1023,460,376,2025-05-23T21:11:09.370729
6373,-0.5549,0.5173,0.6778,-0.980,-3.430,-0.140,1023,1023,1023,461,378,2025-05-23T21:11:09.370734
6374,-0.5466,0.5153,0.6773,-0.840,-3.290,-0.280,1023,1023,1023,449,339,2025-05-23T21:11:09.370738
6375,-0.5475,0.5187,0.6744,-0.490,-2.590,-0.560,1023,1023,1023,466,386,2025-05-23T21:11:09.370742
6376,-0.5519,0.5192,0.6725,-0.420,-2.240,-0.560,1023,1023,1023,442,387,2025-05-23T21:11:09.370746
6377,-0.5495,0.5153,0.6700,-0.210,-2.310,-0.350,1023,1023,1023,432,362,2025-05-23T21:11:09.370750
6378,-0.5529,0.5163,0.6715,-17.920,-2.100,-0.420,1023,1023,1023,457,386,2025-05-23T21:11:09.370754
6379,-0.5568,0.5192,0.6734,-0.280,-2.380,-0.420,1023,1023,1023,447,402,2025-05-23T21:11:09.370758
6380,-0.5539,0.5168,0.6739,-0.070,-2.310,-0.630,1023,1023,1023,437,387,2025-05-23T21:11:09.370762
6381,-0.5519,0.5168,0.6739,-0.350,-2.520,-0.560,1023,1023,1023,443,389,2025-05-23T21:11:09.370783
6382,-0.5558,0.5202,0.6749,-0.280,-2.520,-0.560,1023,1023,1023,440,350,2025-05-23T21:11:09.370786
6383,-0.5553,0.5197,0.6730,-0.560,-2.730,-0.280,1023,1023,1023,436,335,2025-05-23T21:11:09.370790
6384,-0.5549,0.5163,0.6710,-0.630,-2.590,-0.140,1023,1023,1023,430,391,2025-05-23T21:11:09.370794
6385,-0.5544,0.5158,0.6734,-0.840,-2.870,-0.070,979,971,958,390,348,2025-05-23T21:11:09.370797
6386,-0.5553,0.5192,0.6690,-1.260,-2.940,0.350,957,952,942,397,384,2025-05-23T21:11:09.370801
6387,-0.5568,0.5187,0.6710,-1.050,-3.850,0.070,946,942,932,391,401,2025-05-23T21:11:09.422149
6388,-0.5534,0.5187,0.6730,-1.400,-3.920,-0.140,928,925,913,410,365,2025-05-23T21:11:09.422183
6389,-0.5505,0.5144,0.6778,-1.190,-3.990,-0.350,916,912,902,402,389,2025-05-23T21:11:09.422191
6390,-0.5495,0.5134,0.6725,-1.540,-3.430,-0.140,908,905,896,419,385,2025-05-23T21:11:09.422198
6391,-0.5480,0.5139,0.6734,-0.700,-2.660,-0.210,901,900,890,411,400,2025-05-23T21:11:09.422204
6392,-0.5534,0.5134,0.6754,-0.840,-2.800,-0.140,896,894,884,400,389,2025-05-23T21:11:09.621779
6393,-0.5553,0.5163,0.6744,-1.260,-2.870,0.070,890,890,881,394,400,2025-05-23T21:11:09.621828
6394,-0.5544,0.5158,0.6778,-0.280,-3.150,0.000,886,886,878,409,408,2025-05-23T21:11:09.621841
6395,-0.5495,0.5129,0.6778,-0.140,-2.800,-0.140,882,881,873,394,413,2025-05-23T21:11:09.621852
6396,-0.5510,0.5163,0.6739,0.560,-2.170,-0.280,879,879,871,416,415,2025-05-23T21:11:09.636687
6397,-0.5519,0.5144,0.6778,0.490,-2.240,-0.420,876,876,868,422,397,2025-05-23T21:11:09.636726
6398,-0.5519,0.5148,0.6739,1.190,-2.100,-0.700,865,864,856,427,400,2025-05-23T21:11:09.636738
6399,-0.5485,0.5134,0.6764,1.470,-2.100,-0.980,861,860,852,410,366,2025-05-23T21:11:09.636749
6400,-0.5539,0.5158,0.6734,1.400,-2.030,-0.700,857,856,849,394,391,2025-05-23T21:11:09.636757
6401,-0.5514,0.5197,0.6744,2.170,-1.890,-0.560,853,853,846,395,400,2025-05-23T21:11:09.636766
6402,-0.5534,0.5192,0.6803,0.840,-1.050,0.070,850,849,843,346,385,2025-05-23T21:11:09.636775
6403,-0.5510,0.5246,0.6754,0.210,-0.140,0.910,839,838,832,382,399,2025-05-23T21:11:09.636783
6404,-0.5612,0.5275,0.6676,-1.260,-0.210,1.540,832,832,824,400,354,2025-05-23T21:11:09.636791
6405,-0.5651,0.5129,0.6622,-2.450,-0.770,2.100,829,828,821,412,373,2025-05-23T21:11:09.636800
6406,-0.5695,0.5192,0.6681,-3.010,-2.030,1.960,825,824,818,405,380,2025-05-23T21:11:09.636807
6407,-0.5578,0.5153,0.6700,-3.290,-3.780,1.960,822,822,815,351,382,2025-05-23T21:11:09.636860
6408,-0.5475,0.5080,0.6739,-3.010,-3.570,1.890,819,819,813,394,347,2025-05-23T21:11:09.636869
6409,-0.5451,0.5148,0.6778,-2.380,-2.870,0.980,817,816,810,351,358,2025-05-23T21:11:09.672734
6410,-0.5451,0.5114,0.6788,-0.490,-2.660,0.210,814,814,808,405,391,2025-05-23T21:11:09.672782
6411,-0.5466,0.5109,0.6764,0.630,-2.450,-0.350,812,812,807,400,403,2025-05-23T21:11:09.672794
6412,-0.5500,0.5109,0.6759,0.980,-2.310,-0.630,809,810,804,411,385,2025-05-23T21:11:09.672805
6413,-0.5510,0.5148,0.6744,1.120,-1.750,-0.630,807,808,802,417,387,2025-05-23T21:11:09.808169
6414,-0.5529,0.5173,0.6715,0.910,-1.750,-0.420,806,807,801,414,410,2025-05-23T21:11:09.808217
6415,-0.5592,0.5207,0.6695,0.490,-2.170,-0.350,806,807,801,419,413,2025-05-23T21:11:09.808231
6416,-0.5558,0.5197,0.6666,0.070,-2.730,-0.420,805,806,801,418,402,2025-05-23T21:11:09.808242
6417,-0.5573,0.5173,0.6749,0.210,-3.570,-0.490,804,806,800,406,388,2025-05-23T21:11:09.808252
6418,-0.5470,0.5129,0.6754,0.910,-3.220,-0.560,804,805,800,415,350,2025-05-23T21:11:09.808262
6419,-0.5456,0.5153,0.6773,1.470,-2.100,-0.910,803,804,800,426,390,2025-05-23T21:11:09.808271
6420,-0.5466,0.5158,0.6749,1.890,-1.680,-0.980,802,804,798,427,400,2025-05-23T21:11:09.808281
6421,-0.5529,0.5183,0.6730,1.960,-1.610,-1.120,810,812,807,433,408,2025-05-23T21:11:09.808291
6422,-0.5588,0.5178,0.6676,1.750,-1.890,-0.980,819,823,821,415,408,2025-05-23T21:11:09.808300
6423,-0.5617,0.5187,0.6666,0.980,-2.170,-0.630,828,832,828,411,397,2025-05-23T21:11:09.808309
6424,-0.5578,0.5212,0.6661,0.280,-3.080,-0.280,832,834,831,411,404,2025-05-23T21:11:09.860067
6425,-0.5534,0.5187,0.6725,-0.280,-3.290,-0.350,833,836,831,393,385,2025-05-23T21:11:09.860112
6426,-0.5544,0.5202,0.6715,-0.700,-2.940,-0.280,834,837,832,412,406,2025-05-23T21:11:09.860125
6427,-0.5578,0.5183,0.6725,-0.630,-2.870,-0.140,835,838,833,397,394,2025-05-23T21:11:09.860135
6428,-0.5539,0.5153,0.6734,-0.490,-3.080,-0.140,836,839,833,404,405,2025-05-23T21:11:09.860144
6429,-0.5529,0.5173,0.6715,-0.560,-3.150,-0.210,837,839,834,358,415,2025-05-23T21:11:10.011848
6430,-0.5529,0.5148,0.6730,-0.490,-3.080,0.000,836,839,835,381,419,2025-05-23T21:11:10.011902
