SeqNum,AccX,AccY,AccZ,GyroX,GyroY,GyroZ,Flex,Force1,Force2,Force3,Force4,TimestampReception
1503,-0.1425,0.1293,0.9501,-2.275,-7.665,6.475,336.00,504,414,415,325,2025-06-04T19:40:47.477388
1504,-0.1313,-0.1288,1.0277,0.840,-9.450,1.610,390.00,512,438,415,308,2025-06-04T19:40:47.477388
1505,-0.1274,-0.1293,1.0277,0.840,-10.325,2.030,396.00,467,436,389,352,2025-06-04T19:40:47.477388
1506,-0.1235,-0.1254,1.0209,0.805,-11.025,2.135,402.00,444,445,412,360,2025-06-04T19:40:47.477388
1507,-0.1235,-0.1220,1.0175,0.805,-11.480,2.240,397.00,432,422,425,365,2025-06-04T19:40:47.477388
1508,-0.1191,-0.1161,1.0126,0.875,-12.075,2.170,388.00,418,439,429,370,2025-06-04T19:40:47.477388
1509,-0.1166,-0.1127,1.0077,0.945,-12.460,1.890,403.00,422,407,339,373,2025-06-04T19:40:47.477388
1510,-0.1137,-0.1088,1.0087,0.910,-12.495,1.610,406.00,425,395,402,384,2025-06-04T19:40:47.477388
1511,-0.1025,-0.1088,1.0067,1.120,-12.110,1.050,400.00,390,417,396,379,2025-06-04T19:40:47.478462
1512,-0.1020,-0.1069,1.0106,0.910,-11.410,0.455,402.00,403,420,305,377,2025-06-04T19:40:47.478462
1513,-0.0971,-0.1103,1.0121,1.435,-10.605,-0.280,398.00,407,399,381,342,2025-06-04T19:40:47.478462
1514,-0.0903,-0.1157,1.0111,1.995,-9.520,-0.945,388.00,406,420,418,363,2025-06-04T19:40:47.478462
1515,-0.0849,-0.1191,1.0146,2.275,-8.085,-1.715,387.00,413,428,387,371,2025-06-04T19:40:47.478462
1516,-0.0888,-0.1225,1.0150,2.765,-6.615,-2.345,380.00,423,430,417,381,2025-06-04T19:40:47.478462
1517,-0.0878,-0.1200,1.0170,3.220,-6.160,-3.290,339.00,424,408,422,399,2025-06-04T19:40:47.478462
1518,-0.0888,-0.1215,1.0175,3.500,-4.865,-3.360,356.00,414,410,405,392,2025-06-04T19:40:47.478462
1519,-0.0976,-0.1166,1.0204,3.710,-4.515,-3.290,343.00,412,437,390,396,2025-06-04T19:40:47.478462
1520,-0.0922,-0.1171,1.0189,3.990,-5.110,-3.290,383.00,413,349,384,385,2025-06-04T19:40:47.478462
1521,-0.0917,-0.1103,1.0194,2.835,-5.425,-3.220,384.00,412,415,404,394,2025-06-04T19:40:47.478462
1522,-0.0864,-0.1113,1.0185,3.010,-5.600,-3.080,349.00,420,422,361,386,2025-06-04T19:40:47.478462
1523,-0.0830,-0.1098,1.0199,2.940,-5.215,-2.975,384.00,394,351,387,382,2025-06-04T19:40:47.728760
1524,-0.0839,-0.1132,1.0180,2.730,-4.935,-2.485,382.00,375,412,347,366,2025-06-04T19:40:47.728760
1525,-0.0756,-0.1147,1.0185,2.450,-4.690,-2.170,345.00,371,397,397,376,2025-06-04T19:40:47.728760
1526,-0.0776,-0.1083,1.0189,2.765,-4.165,-1.855,370.00,393,409,410,344,2025-06-04T19:40:47.728760
1527,-0.0781,-0.1049,1.0204,2.625,-2.940,-1.645,390.00,398,403,418,358,2025-06-04T19:40:47.728760
1528,-0.0800,-0.1054,1.0243,2.485,-1.575,-1.400,386.00,410,407,421,373,2025-06-04T19:40:47.728760
1529,-0.0937,-0.1078,1.0209,1.925,-0.840,-1.295,401.00,402,407,403,379,2025-06-04T19:40:47.728760
1530,-0.1044,-0.1137,1.0238,1.295,-1.435,-1.260,345.00,406,429,404,393,2025-06-04T19:40:47.728760
1531,-0.1196,-0.1171,1.0287,0.980,-3.150,-0.980,381.00,403,400,421,395,2025-06-04T19:40:47.728760
1532,-0.1249,-0.1215,1.0302,0.525,-4.375,-0.595,373.00,411,403,404,381,2025-06-04T19:40:47.728760
1533,-0.1274,-0.1264,1.0277,0.070,-5.600,-0.350,380.00,408,407,420,393,2025-06-04T19:40:47.728760
1534,-0.1259,-0.1244,1.0185,-0.280,-6.370,-0.280,387.00,405,403,427,385,2025-06-04T19:40:47.728760
1535,-0.1215,-0.1244,1.0136,-0.560,-6.755,0.035,394.00,403,428,411,395,2025-06-04T19:40:47.728760
1536,-0.1181,-0.1200,1.0150,-0.490,-7.385,0.315,391.00,402,429,418,358,2025-06-04T19:40:47.728760
1537,-0.1191,-0.1161,1.0155,-0.385,-7.805,0.245,406.00,405,418,403,370,2025-06-04T19:40:47.728760
1538,-0.1176,-0.1122,1.0175,-0.210,-7.945,0.175,352.00,386,432,359,372,2025-06-04T19:40:47.728760
1539,-0.1157,-0.1103,1.0160,0.000,-7.665,0.140,381.00,391,429,407,370,2025-06-04T19:40:47.728760
1540,-0.1152,-0.1103,1.0136,0.070,-7.350,-0.035,409.00,400,430,421,370,2025-06-04T19:40:47.728760
1541,-0.1186,-0.1147,1.0111,0.280,-6.720,-0.175,396.00,409,355,416,350,2025-06-04T19:40:47.728760
1542,-0.1196,-0.1161,1.0072,0.595,-6.090,-0.350,404.00,408,388,360,357,2025-06-04T19:40:47.728760
1543,-0.1240,-0.1157,1.0072,1.085,-5.250,-0.420,412.00,410,412,376,376,2025-06-04T19:40:47.932564
1544,-0.1298,-0.1157,1.0087,1.645,-4.620,-0.700,395.00,406,351,336,384,2025-06-04T19:40:47.932564
1545,-0.1303,-0.1108,1.0160,2.205,-4.200,-0.735,391.00,415,380,418,393,2025-06-04T19:40:47.932564
1546,-0.1108,-0.1176,1.0185,2.730,-3.465,-0.245,384.00,415,400,422,395,2025-06-04T19:40:47.932564
1547,-0.0903,-0.1293,1.0189,4.270,-1.750,0.385,394.00,423,394,415,377,2025-06-04T19:40:47.932564
1548,-0.0839,-0.1269,1.0243,5.845,0.420,0.280,390.00,387,417,344,351,2025-06-04T19:40:47.932564
1549,-0.0639,-0.1449,1.0350,7.455,3.185,-0.560,398.00,410,434,337,372,2025-06-04T19:40:47.932564
1550,-0.0454,-0.1615,1.0487,10.360,8.190,-0.980,388.00,386,437,402,369,2025-06-04T19:40:47.932564
1551,-0.0210,-0.1874,1.0497,14.945,15.680,-1.155,393.00,401,415,386,385,2025-06-04T19:40:47.932564
1552,-0.0390,-0.1854,1.0829,19.425,25.025,-3.255,407.00,401,423,409,373,2025-06-04T19:40:47.932564
1553,-0.0625,-0.2045,1.0921,24.780,34.580,-6.860,407.00,400,354,416,376,2025-06-04T19:40:47.932564
1554,-0.1000,-0.2147,1.1053,30.275,43.470,-9.415,400.00,403,414,373,387,2025-06-04T19:40:47.932564
1555,-0.2230,-0.2274,1.1322,36.225,39.620,-15.715,410.00,349,409,392,385,2025-06-04T19:40:47.932564
1556,-0.2064,-0.2245,1.0960,39.270,33.985,-21.385,398.00,383,412,364,381,2025-06-04T19:40:47.932564
1557,-0.2279,-0.2362,1.0853,38.920,28.665,-26.355,397.00,381,404,343,368,2025-06-04T19:40:47.933459
1558,-0.1996,-0.2494,1.0824,42.525,24.535,-29.575,401.00,405,406,402,378,2025-06-04T19:40:47.933459
1559,-0.2025,-0.2704,1.0956,43.715,28.175,-30.940,402.00,416,416,411,339,2025-06-04T19:40:47.933459
1560,-0.2162,-0.2860,1.1458,48.405,33.250,-30.205,342.00,405,422,432,357,2025-06-04T19:40:47.933459
1561,-0.2557,-0.2889,1.1873,53.200,40.705,-28.035,381.00,417,420,400,382,2025-06-04T19:40:48.032758
1562,-0.2865,-0.2713,1.1990,59.745,47.880,-24.605,302.00,393,411,412,391,2025-06-04T19:40:48.032758
1563,-0.3148,-0.2308,1.1980,65.555,55.405,-21.560,351.00,373,345,390,394,2025-06-04T19:40:48.032758
1564,-0.3562,-0.2094,1.2049,72.485,60.270,-17.955,373.00,394,361,383,398,2025-06-04T19:40:48.032758
1565,-0.3826,-0.1454,1.1800,78.785,61.460,-15.925,380.00,368,384,391,379,2025-06-04T19:40:48.032758
1566,-0.4290,-0.1171,1.1629,83.335,59.885,-13.930,381.00,387,405,415,389,2025-06-04T19:40:48.032758
1567,-0.4197,-0.0752,1.1414,90.510,55.580,-11.585,384.00,405,351,400,394,2025-06-04T19:40:48.032758
1568,-0.4377,-0.0356,1.1234,94.185,52.360,-8.890,377.00,401,379,400,314,2025-06-04T19:40:48.032758
1569,-0.4187,0.0142,1.0902,100.695,51.205,-6.895,383.00,411,420,427,351,2025-06-04T19:40:48.150503
1570,-0.3865,0.0356,1.0736,106.645,56.490,-4.200,395.00,405,397,409,375,2025-06-04T19:40:48.150503
1571,-0.3719,0.0644,1.0516,111.615,69.825,-1.085,402.00,416,397,392,380,2025-06-04T19:40:48.150503
1572,-0.3392,0.1118,1.0126,120.050,87.675,3.290,354.00,421,409,417,345,2025-06-04T19:40:48.150503
1573,-0.4080,0.1645,0.9521,123.375,106.750,9.695,383.00,419,401,415,365,2025-06-04T19:40:48.150503
1574,-0.4343,0.1801,0.8979,129.430,122.500,17.430,396.00,425,404,435,371,2025-06-04T19:40:48.150503
1575,-0.5173,0.2582,0.8784,133.105,133.210,26.005,385.00,416,368,403,369,2025-06-04T19:40:48.151517
1576,-0.5949,0.3406,0.8296,134.820,136.745,34.090,397.00,421,413,405,368,2025-06-04T19:40:48.151517
1577,-0.7359,0.1776,0.6666,126.595,134.715,36.610,351.00,419,430,433,389,2025-06-04T19:40:48.151517
1578,-0.6749,0.6090,0.7203,132.965,136.185,34.090,380.00,414,418,440,314,2025-06-04T19:40:48.371607
1579,-0.7120,0.3899,0.5383,111.370,129.045,55.510,381.00,411,400,432,316,2025-06-04T19:40:48.371607
1580,-0.7388,0.4885,0.5822,108.640,88.235,67.410,404.00,423,399,418,371,2025-06-04T19:40:48.371607
1581,-0.9277,0.4309,0.3802,87.360,50.400,70.385,404.00,394,421,418,399,2025-06-04T19:40:48.371607
1582,-1.0760,0.3709,0.4563,71.470,7.630,68.565,413.00,373,410,429,396,2025-06-04T19:40:48.371607
1583,-1.0609,0.2586,0.4812,66.360,-64.925,63.350,410.00,400,402,424,364,2025-06-04T19:40:48.371607
1584,-0.6900,0.2045,0.5568,56.875,-106.750,57.610,411.00,406,430,351,377,2025-06-04T19:40:48.371607
1585,-0.3548,0.3670,0.7603,54.495,-99.540,57.155,406.00,410,404,424,387,2025-06-04T19:40:48.372679
1586,-0.3128,0.4412,0.8286,52.710,-66.710,52.360,405.00,412,365,426,378,2025-06-04T19:40:48.372679
1587,-0.3274,0.4524,0.7769,51.380,-37.485,44.835,415.00,414,404,432,389,2025-06-04T19:40:48.372679
1588,-0.4451,0.4577,0.7881,52.010,-38.500,40.390,406.00,380,406,437,386,2025-06-04T19:40:48.372679
1589,-0.4402,0.4875,0.7466,44.765,-51.170,38.010,407.00,362,368,436,383,2025-06-04T19:40:48.372679
1590,-0.3777,0.4548,0.7222,41.370,-61.145,36.785,401.00,385,400,368,381,2025-06-04T19:40:48.372679
1591,-0.2850,0.4680,0.7149,35.700,-59.360,41.020,400.00,405,415,413,385,2025-06-04T19:40:48.372679
1592,-0.3392,0.4748,0.6734,26.495,-58.975,45.185,405.00,399,397,405,380,2025-06-04T19:40:48.372679
1593,-0.3294,0.4558,0.5866,20.825,-60.725,45.395,358.00,372,363,421,392,2025-06-04T19:40:48.372679
1594,-0.3904,0.5524,0.5661,13.475,-58.835,38.045,376.00,386,411,399,378,2025-06-04T19:40:48.372679
1595,-0.2889,0.5309,0.5983,14.910,-57.365,34.020,392.00,391,418,424,352,2025-06-04T19:40:48.372679
1596,-0.2538,0.5388,0.6134,15.610,-54.425,32.270,404.00,408,413,426,380,2025-06-04T19:40:48.666029
1597,-0.2045,0.5090,0.6154,17.745,-50.365,29.470,396.00,418,357,414,388,2025-06-04T19:40:48.666029
1598,-0.1893,0.5100,0.5910,17.640,-40.600,27.440,407.00,411,395,421,373,2025-06-04T19:40:48.666029
1599,-0.1942,0.5178,0.5680,18.795,-30.660,27.230,398.00,380,426,421,382,2025-06-04T19:40:48.666029
1600,-0.2460,0.4953,0.5617,21.595,-28.420,27.230,410.00,407,433,421,345,2025-06-04T19:40:48.666029
1601,-0.2503,0.5022,0.5627,23.380,-26.110,27.720,396.00,406,439,415,372,2025-06-04T19:40:48.666029
1602,-0.2669,0.5285,0.5822,24.920,-22.820,26.635,349.00,403,436,363,372,2025-06-04T19:40:48.666029
1603,-0.2645,0.5378,0.6012,29.610,-18.130,26.390,334.00,385,430,409,377,2025-06-04T19:40:48.666029
1604,-0.2333,0.5695,0.6105,34.685,-13.545,27.335,363.00,398,408,371,381,2025-06-04T19:40:48.666029
1605,-0.2386,0.5856,0.5871,37.485,-11.235,28.945,374.00,401,341,410,384,2025-06-04T19:40:48.666029
1606,-0.2669,0.6207,0.6120,39.480,-11.025,29.575,400.00,373,414,353,382,2025-06-04T19:40:48.666029
1607,-0.2455,0.6476,0.6124,40.775,-11.515,31.185,403.00,391,423,387,390,2025-06-04T19:40:48.666029
1608,-0.2377,0.6974,0.6539,40.880,-11.340,32.550,395.00,405,435,346,359,2025-06-04T19:40:48.666029
1609,-0.2508,0.7257,0.6622,39.200,-12.075,32.620,379.00,412,374,416,382,2025-06-04T19:40:48.666029
1610,-0.2176,0.7422,0.6754,40.530,-14.035,34.265,398.00,408,414,426,373,2025-06-04T19:40:48.666029
1611,-0.1928,0.7735,0.6827,41.125,-16.240,36.785,393.00,412,382,421,384,2025-06-04T19:40:48.764936
1612,-0.1664,0.7891,0.7135,41.090,-18.165,38.850,388.00,421,402,391,380,2025-06-04T19:40:48.764936
1613,-0.1288,0.7764,0.7091,40.110,-18.375,40.845,390.00,394,394,410,340,2025-06-04T19:40:48.764936
1614,-0.1503,0.7940,0.7247,44.065,-8.925,43.295,368.00,409,393,414,375,2025-06-04T19:40:48.764936
1615,-0.1879,0.7579,0.7466,43.470,-15.190,44.870,394.00,402,409,398,385,2025-06-04T19:40:48.764936
1616,-0.1869,0.7564,0.7237,43.260,-22.925,46.130,384.00,416,407,405,385,2025-06-04T19:40:48.764936
1617,-0.1366,0.7984,0.6681,42.245,-21.700,49.840,386.00,424,406,393,393,2025-06-04T19:40:48.764936
1618,-0.1649,0.7818,0.6515,38.990,-24.395,53.900,382.00,420,358,401,379,2025-06-04T19:40:48.764936
1619,-0.3665,0.6539,0.5812,31.080,-34.405,46.340,383.00,421,398,429,381,2025-06-04T19:40:48.764936
1620,-0.0620,0.6656,0.7340,45.675,-39.340,44.940,386.00,386,417,427,384,2025-06-04T19:40:48.764936
1621,-0.0468,0.7144,0.8447,51.975,-39.585,44.380,406.00,406,375,427,375,2025-06-04T19:40:48.764936
1622,-0.0073,0.7027,0.8306,52.395,-32.760,42.000,398.00,379,406,420,382,2025-06-04T19:40:48.764936
1623,-0.0693,0.6983,0.7286,57.120,-31.465,38.465,402.00,399,416,431,385,2025-06-04T19:40:48.764936
1624,-0.0644,0.6759,0.6842,58.170,-27.370,34.860,394.00,414,403,413,382,2025-06-04T19:40:48.764936
1625,-0.0112,0.6773,0.6559,62.510,-22.505,32.270,402.00,414,355,424,359,2025-06-04T19:40:48.764936
1626,-0.0078,0.6998,0.6568,63.280,-12.845,30.765,392.00,381,406,429,363,2025-06-04T19:40:48.764936
1627,-0.0361,0.7466,0.6451,63.420,-6.300,29.260,402.00,401,427,415,384,2025-06-04T19:40:48.770828
1628,-0.0693,0.7286,0.6232,62.195,0.420,27.160,409.00,401,398,417,344,2025-06-04T19:40:49.021411
1629,-0.0742,0.7344,0.6012,62.440,4.270,25.830,380.00,411,341,436,365,2025-06-04T19:40:49.021411
1630,-0.0839,0.7393,0.5754,62.440,5.390,25.095,400.00,410,404,420,388,2025-06-04T19:40:49.021411
1631,-0.0791,0.7676,0.5602,61.005,6.300,24.570,372.00,385,420,441,385,2025-06-04T19:40:49.021411
1632,-0.0703,0.7862,0.5324,59.430,7.945,23.975,383.00,392,378,422,347,2025-06-04T19:40:49.021411
1633,-0.0673,0.7989,0.5119,57.575,10.885,23.730,397.00,399,415,426,338,2025-06-04T19:40:49.021411
1634,-0.0747,0.8184,0.5022,55.265,12.075,23.765,373.00,406,423,352,357,2025-06-04T19:40:49.021411
1635,-0.0800,0.8208,0.4753,51.765,10.885,24.290,398.00,412,391,392,379,2025-06-04T19:40:49.021411
1636,-0.0917,0.8350,0.4592,49.385,8.470,24.360,389.00,412,389,413,375,2025-06-04T19:40:49.021411
1637,-0.0913,0.8438,0.4504,46.620,5.530,24.430,382.00,417,392,402,381,2025-06-04T19:40:49.021411
1638,-0.0854,0.8579,0.4353,43.855,2.100,24.640,389.00,404,362,349,383,2025-06-04T19:40:49.021411
1639,-0.0712,0.8667,0.4290,40.460,0.315,25.305,386.00,410,401,392,347,2025-06-04T19:40:49.022495
1640,-0.0620,0.8730,0.4250,37.135,-1.645,25.515,391.00,404,363,395,359,2025-06-04T19:40:49.022495
1641,-0.0503,0.8721,0.4197,34.545,-3.570,25.340,386.00,412,397,406,368,2025-06-04T19:40:49.022495
1642,-0.0346,0.8764,0.4099,31.535,-5.040,25.060,351.00,401,411,396,379,2025-06-04T19:40:49.022495
1643,-0.0434,0.8779,0.4187,28.210,-7.210,24.920,369.00,407,402,401,386,2025-06-04T19:40:49.022495
1644,-0.0317,0.8818,0.4089,25.340,-8.575,24.535,341.00,402,407,342,377,2025-06-04T19:40:49.022495
1645,-0.0298,0.8755,0.4026,23.170,-12.460,23.520,385.00,397,405,402,383,2025-06-04T19:40:49.022495
1646,-0.0185,0.8696,0.3928,20.930,-17.045,22.225,388.00,377,399,417,376,2025-06-04T19:40:49.022495
1647,-0.0068,0.8613,0.3792,19.145,-21.665,21.420,359.00,403,419,408,391,2025-06-04T19:40:49.022495
1648,0.0010,0.8599,0.3748,17.395,-24.605,20.230,381.00,412,432,355,394,2025-06-04T19:40:49.293163
1649,0.0366,0.8642,0.3699,15.610,-24.325,18.620,390.00,423,414,405,392,2025-06-04T19:40:49.293163
1650,0.0488,0.8628,0.3665,13.405,-22.680,17.255,406.00,428,424,377,382,2025-06-04T19:40:49.293163
1651,0.0581,0.8701,0.3680,11.550,-20.090,15.785,416.00,419,405,397,375,2025-06-04T19:40:49.293163
1652,0.0708,0.8745,0.3709,10.185,-16.800,13.965,406.00,423,404,391,386,2025-06-04T19:40:49.293163
1653,0.0747,0.8750,0.3675,8.050,-13.405,12.180,318.00,423,395,343,381,2025-06-04T19:40:49.294226
1654,0.0810,0.8716,0.3640,6.300,-10.325,10.535,379.00,417,397,377,387,2025-06-04T19:40:49.294226
1655,0.0820,0.8716,0.3694,5.075,-8.960,8.995,404.00,412,373,411,382,2025-06-04T19:40:49.294226
1656,0.0659,0.8750,0.3743,3.850,-9.905,7.525,400.00,407,397,403,379,2025-06-04T19:40:49.294226
1657,0.0742,0.8662,0.3616,3.430,-13.405,6.650,399.00,402,434,408,379,2025-06-04T19:40:49.294226
1658,0.0673,0.8682,0.3587,3.080,-17.290,5.600,349.00,399,427,404,383,2025-06-04T19:40:49.294226
1659,0.0761,0.8789,0.3689,2.380,-20.195,4.165,374.00,384,429,410,358,2025-06-04T19:40:49.294226
1660,0.0971,0.8779,0.3626,1.960,-22.645,2.940,396.00,406,414,427,383,2025-06-04T19:40:49.295174
1661,0.0952,0.8789,0.3606,1.435,-24.500,2.275,389.00,403,417,406,341,2025-06-04T19:40:49.295174
1662,0.1039,0.8843,0.3665,1.260,-25.270,0.770,383.00,399,418,350,335,2025-06-04T19:40:49.445377
1663,0.0874,0.8047,0.3684,-1.750,-22.645,-0.315,381.00,408,400,349,367,2025-06-04T19:40:49.445377
1664,0.1566,0.9067,0.3699,4.655,-17.745,-2.695,389.00,405,419,391,381,2025-06-04T19:40:49.445377
1665,0.1371,0.9043,0.3553,2.030,-15.470,-3.255,400.00,384,430,422,346,2025-06-04T19:40:49.445377
1666,0.1147,0.9072,0.3528,-0.665,-12.600,-4.375,414.00,405,420,398,382,2025-06-04T19:40:49.445377
1667,0.0888,0.9043,0.3528,0.910,-13.405,-5.565,393.00,400,415,417,376,2025-06-04T19:40:49.445377
1668,0.0810,0.9013,0.3455,0.630,-14.560,-6.440,349.00,407,415,350,343,2025-06-04T19:40:49.449791
1669,0.0693,0.9077,0.3562,0.910,-16.975,-6.930,384.00,411,400,345,365,2025-06-04T19:40:49.449791
1670,0.0586,0.8979,0.3723,1.610,-19.250,-6.790,383.00,410,407,408,338,2025-06-04T19:40:49.449791
1671,0.0556,0.9023,0.3694,1.715,-20.720,-6.755,307.00,415,424,386,365,2025-06-04T19:40:49.449791
1672,0.0503,0.8994,0.3567,1.995,-19.355,-7.105,359.00,420,387,388,344,2025-06-04T19:40:49.449791
1673,0.0669,0.8969,0.3572,2.765,-14.910,-7.805,374.00,414,344,409,359,2025-06-04T19:40:49.449791
1674,0.0805,0.9008,0.3650,3.150,-6.825,-8.050,397.00,419,381,423,371,2025-06-04T19:40:49.449791
1675,0.0683,0.8969,0.3743,3.290,0.910,-7.245,407.00,415,406,410,393,2025-06-04T19:40:49.449791
1676,0.0244,0.8935,0.3850,3.290,4.760,-6.055,392.00,420,426,359,391,2025-06-04T19:40:49.449791
1677,-0.0049,0.8867,0.3884,3.535,3.990,-4.620,400.00,388,303,409,397,2025-06-04T19:40:49.450805
1678,-0.0322,0.8852,0.4031,3.675,1.365,-2.870,399.00,406,383,428,363,2025-06-04T19:40:49.450805
1679,-0.0322,0.8843,0.4046,3.640,-2.205,-1.190,406.00,414,416,419,366,2025-06-04T19:40:49.450805
1680,-0.0264,0.8823,0.4006,3.255,-5.670,0.315,350.00,381,423,401,362,2025-06-04T19:40:49.450805
1681,-0.0151,0.8789,0.3982,2.870,-8.120,2.065,373.00,396,381,405,361,2025-06-04T19:40:49.450805
1682,-0.0068,0.8843,0.4006,2.555,-9.415,3.290,381.00,404,404,429,378,2025-06-04T19:40:49.567570
1683,0.0093,0.8823,0.3884,2.380,-8.820,3.885,404.00,417,350,403,389,2025-06-04T19:40:49.567570
1684,0.0161,0.8818,0.3904,2.345,-7.140,4.060,410.00,422,393,422,382,2025-06-04T19:40:49.567570
1685,0.0146,0.8784,0.3933,2.345,-5.670,3.815,409.00,413,424,414,376,2025-06-04T19:40:49.567570
1686,0.0200,0.8764,0.3914,2.590,-4.760,3.465,404.00,386,357,341,379,2025-06-04T19:40:49.567570
1687,0.0166,0.8779,0.3894,3.010,-4.725,3.080,348.00,405,388,389,373,2025-06-04T19:40:49.567570
1688,0.0078,0.8833,0.3938,3.220,-5.390,2.170,365.00,402,349,415,367,2025-06-04T19:40:49.567570
1689,0.0107,0.8867,0.4041,3.675,-6.650,1.050,372.00,416,416,384,343,2025-06-04T19:40:49.567570
1690,0.0205,0.8916,0.3997,3.675,-7.770,0.105,384.00,388,409,397,362,2025-06-04T19:40:49.567570
1691,0.0195,0.8926,0.4026,3.850,-8.260,-0.910,404.00,406,408,355,364,2025-06-04T19:40:49.567570
1692,0.0342,0.8906,0.3992,3.815,-7.910,-1.715,403.00,401,414,416,385,2025-06-04T19:40:49.567570
1693,0.0366,0.8857,0.4016,3.920,-7.315,-2.485,409.00,396,351,428,383,2025-06-04T19:40:49.567570
1694,0.0400,0.8852,0.4046,3.920,-6.895,-3.045,414.00,397,412,433,389,2025-06-04T19:40:49.898721
1695,0.0371,0.8857,0.3992,3.990,-6.370,-3.535,390.00,399,419,421,390,2025-06-04T19:40:49.898721
1696,0.0327,0.8882,0.4041,4.130,-5.705,-4.025,400.00,381,411,393,383,2025-06-04T19:40:49.898721
1697,0.0351,0.8940,0.4080,4.200,-5.110,-4.200,386.00,392,429,389,389,2025-06-04T19:40:49.898721
1698,0.0337,0.8950,0.4016,3.990,-4.515,-4.410,391.00,397,396,351,391,2025-06-04T19:40:49.898721
1699,0.0288,0.8969,0.3948,3.570,-3.990,-4.550,380.00,403,392,348,349,2025-06-04T19:40:49.898721
1700,0.0220,0.8950,0.3904,3.360,-4.060,-4.760,384.00,369,410,417,368,2025-06-04T19:40:49.898721
1701,0.0098,0.8965,0.3894,3.115,-4.795,-4.970,385.00,386,408,415,378,2025-06-04T19:40:49.898721
1702,0.0083,0.8935,0.3743,2.625,-6.580,-4.900,410.00,403,401,416,385,2025-06-04T19:40:49.898721
1703,-0.0059,0.8930,0.3738,2.415,-9.065,-4.830,403.00,405,420,359,383,2025-06-04T19:40:50.208571
1704,-0.0029,0.8921,0.3811,1.960,-10.465,-4.725,384.00,405,423,397,344,2025-06-04T19:40:50.208571
1705,0.0063,0.8979,0.3797,1.715,-10.465,-4.725,395.00,399,421,412,374,2025-06-04T19:40:50.208571
1706,0.0107,0.8950,0.3728,1.120,-8.820,-5.005,388.00,405,430,435,379,2025-06-04T19:40:50.208571
1707,0.0073,0.8994,0.3762,0.595,-6.545,-5.180,383.00,416,384,425,387,2025-06-04T19:40:50.208571
1708,0.0068,0.8969,0.3719,0.735,-4.970,-5.320,380.00,395,403,422,389,2025-06-04T19:40:50.208571
1709,-0.0044,0.8989,0.3772,0.665,-3.920,-5.355,376.00,399,422,406,390,2025-06-04T19:40:50.208571
1710,-0.0142,0.9008,0.3850,0.525,-3.500,-5.075,383.00,395,393,414,386,2025-06-04T19:40:50.209568
1711,-0.0190,0.8979,0.3772,0.525,-4.620,-4.970,346.00,410,395,398,356,2025-06-04T19:40:50.209568
1712,-0.0283,0.8911,0.3767,0.665,-6.755,-4.585,351.00,410,415,412,376,2025-06-04T19:40:50.209568
1713,-0.0322,0.8921,0.3836,1.085,-17.605,-4.375,387.00,404,409,405,381,2025-06-04T19:40:50.209568
1714,-0.0234,0.8926,0.3850,1.050,-10.955,-4.200,376.00,413,405,419,387,2025-06-04T19:40:50.209568
1715,-0.0176,0.8877,0.3826,0.910,-12.460,-4.340,400.00,419,342,365,392,2025-06-04T19:40:50.209568
1716,-0.0039,0.8921,0.3816,1.225,-12.250,-4.480,391.00,413,414,419,383,2025-06-04T19:40:50.209568
1717,0.0054,0.8955,0.3787,1.575,-10.605,-4.655,379.00,409,432,431,391,2025-06-04T19:40:50.209568
1718,0.0059,0.8984,0.3850,1.680,-8.015,-4.830,374.00,409,408,436,385,2025-06-04T19:40:50.209568
1719,0.0029,0.8984,0.3802,1.890,-6.125,-4.900,385.00,413,423,410,376,2025-06-04T19:40:50.209568
1720,-0.0122,0.9008,0.3802,2.030,-5.180,-4.795,407.00,419,399,426,386,2025-06-04T19:40:50.209568
1721,-0.0166,0.9067,0.3831,2.275,-4.865,-4.480,406.00,414,406,411,382,2025-06-04T19:40:50.209568
1722,-0.0244,0.9116,0.3816,2.380,-5.215,-4.025,365.00,407,415,390,391,2025-06-04T19:40:50.209568
1723,-0.0288,0.9096,0.3831,2.485,-5.985,-3.570,389.00,404,412,344,363,2025-06-04T19:40:50.209568
1724,-0.0332,0.9096,0.3792,2.870,-7.665,-2.800,379.00,410,425,399,361,2025-06-04T19:40:50.209568
1725,-0.0351,0.9101,0.3802,3.185,-8.575,-2.345,394.00,414,414,425,378,2025-06-04T19:40:50.209568
1726,-0.0264,0.9087,0.3728,3.150,-8.960,-1.785,403.00,408,413,422,355,2025-06-04T19:40:50.209568
1727,-0.0146,0.9077,0.3714,3.045,-6.965,-1.505,383.00,397,421,422,377,2025-06-04T19:40:50.209568
1728,-0.0132,0.9106,0.3762,3.115,-3.885,-1.050,377.00,409,427,420,376,2025-06-04T19:40:50.209568
1729,-0.0229,0.9062,0.3670,2.975,-1.820,-0.560,388.00,413,429,409,379,2025-06-04T19:40:50.209568
1730,-0.0376,0.9057,0.3699,3.080,-1.890,-0.105,387.00,412,413,408,389,2025-06-04T19:40:50.209568
1731,-0.0381,0.9116,0.3758,3.010,-1.995,0.315,381.00,414,388,421,391,2025-06-04T19:40:50.209568
1732,-0.0327,0.9140,0.3714,2.730,-1.855,0.840,399.00,405,418,406,351,2025-06-04T19:40:50.209568
1733,-0.0410,0.9096,0.3665,2.135,-1.925,1.470,403.00,415,348,423,361,2025-06-04T19:40:50.209568
1734,-0.0420,0.9043,0.3640,2.170,-2.415,2.345,396.00,411,408,429,360,2025-06-04T19:40:50.209568
1735,-0.0371,0.9067,0.3636,1.610,-2.240,2.940,393.00,417,417,399,364,2025-06-04T19:40:50.209568
1736,-0.0342,0.9033,0.3640,0.945,-2.135,3.675,346.00,421,413,419,385,2025-06-04T19:40:50.209568
1737,-0.0361,0.9013,0.3680,0.805,-2.625,4.165,376.00,426,425,432,352,2025-06-04T19:40:50.209568
1738,-0.0346,0.9062,0.3753,0.840,-3.045,4.935,341.00,423,406,369,364,2025-06-04T19:40:50.209568
1739,-0.0361,0.9018,0.3714,0.245,-4.235,5.180,365.00,423,394,398,333,2025-06-04T19:40:50.209568
1740,-0.0303,0.8989,0.3787,-0.315,-5.390,5.495,393.00,414,367,422,293,2025-06-04T19:40:50.209568
1741,-0.0327,0.8955,0.3831,-0.455,-6.230,5.390,397.00,417,427,397,338,2025-06-04T19:40:50.209568
1742,-0.0195,0.8901,0.3811,-0.105,-7.350,5.425,415.00,417,409,398,355,2025-06-04T19:40:50.209568
1743,-0.0195,0.8882,0.3782,-0.105,-7.525,5.215,406.00,412,398,423,381,2025-06-04T19:40:50.209568
1744,-0.0176,0.8901,0.3821,-0.070,-6.965,4.445,390.00,408,404,374,379,2025-06-04T19:40:50.209568
1745,-0.0146,0.8867,0.3802,0.105,-5.845,3.745,398.00,408,413,411,391,2025-06-04T19:40:50.486467
1746,-0.0156,0.8857,0.3889,0.070,-4.970,3.150,388.00,385,347,339,345,2025-06-04T19:40:50.486467
1747,-0.0200,0.8901,0.3924,0.035,-4.515,2.765,388.00,390,388,424,328,2025-06-04T19:40:50.486467
1748,-0.0312,0.8901,0.3914,-0.035,-4.795,2.205,347.00,387,407,349,362,2025-06-04T19:40:50.486467
1749,-0.0405,0.8872,0.3992,-0.175,-6.335,1.960,380.00,400,397,412,340,2025-06-04T19:40:50.486467
1750,-0.0410,0.8896,0.4085,0.105,-8.330,1.540,397.00,408,413,403,356,2025-06-04T19:40:50.486467
1751,-0.0434,0.8852,0.4070,-0.035,-9.940,1.470,403.00,402,401,399,376,2025-06-04T19:40:50.486467
1752,-0.0400,0.8833,0.4060,0.175,-11.305,1.400,367.00,414,424,422,375,2025-06-04T19:40:50.487483
1753,-0.0346,0.8828,0.4026,0.665,-11.620,1.435,387.00,415,413,439,382,2025-06-04T19:40:50.487483
1754,-0.0337,0.8808,0.4060,0.665,-11.060,1.330,410.00,388,410,385,382,2025-06-04T19:40:50.487483
1755,-0.0244,0.8808,0.4006,0.630,-10.150,1.400,395.00,390,435,415,375,2025-06-04T19:40:50.487483
1756,-0.0332,0.8735,0.3948,0.840,-9.800,1.330,397.00,367,429,438,354,2025-06-04T19:40:50.487483
1757,-0.0444,0.8721,0.3909,0.455,-11.200,0.980,404.00,382,403,391,360,2025-06-04T19:40:50.487483
1758,-0.0483,0.8662,0.3933,0.385,-15.155,0.700,392.00,400,424,416,370,2025-06-04T19:40:50.487483
1759,-0.0444,0.8506,0.3816,0.175,-20.860,0.035,413.00,400,424,390,384,2025-06-04T19:40:50.487483
1760,-0.0332,0.8579,0.3743,-0.280,-25.270,-0.735,371.00,412,404,391,370,2025-06-04T19:40:50.487483
1761,-0.0205,0.8584,0.3753,0.525,-29.995,-2.030,378.00,417,424,426,384,2025-06-04T19:40:50.488475
1762,0.0024,0.8613,0.3733,0.490,-31.430,-3.710,387.00,411,424,350,348,2025-06-04T19:40:50.488475
1763,0.0425,0.8652,0.3670,1.085,-28.315,-5.110,405.00,409,408,395,369,2025-06-04T19:40:50.488475
1764,0.0727,0.8677,0.3650,1.575,-21.420,-6.545,414.00,412,306,384,382,2025-06-04T19:40:50.488475
1765,0.0742,0.9975,0.3606,2.065,-13.580,-7.385,404.00,411,396,349,381,2025-06-04T19:40:50.620122
1766,0.0586,0.8867,0.3592,2.975,-7.840,-8.225,408.00,419,421,388,360,2025-06-04T19:40:50.620122
1767,0.0322,0.8955,0.3523,3.010,-4.900,-8.820,399.00,405,415,391,372,2025-06-04T19:40:50.620122
1768,0.0190,0.9023,0.3465,3.185,-4.095,-9.170,406.00,374,362,413,385,2025-06-04T19:40:50.620122
1769,0.0059,0.9126,0.3431,3.290,-5.005,-8.925,388.00,399,409,408,383,2025-06-04T19:40:50.621111
1770,-0.0068,0.9194,0.3489,2.765,-7.315,-8.715,396.00,397,400,434,381,2025-06-04T19:40:50.621111
1771,-0.0073,0.9292,0.3514,1.855,-11.550,-8.750,383.00,374,424,432,376,2025-06-04T19:40:50.621111
1772,0.0146,0.9384,0.3523,0.630,-14.280,-8.120,356.00,364,426,403,389,2025-06-04T19:40:50.621111
1773,0.0508,0.9443,0.3514,-0.875,-15.575,-7.245,386.00,362,427,416,392,2025-06-04T19:40:50.621111
1774,0.0561,0.9623,0.3514,-3.080,-17.885,-7.385,401.00,382,423,397,351,2025-06-04T19:40:50.621111
1775,0.0947,0.9731,0.3479,-5.425,-23.835,-7.840,383.00,385,419,406,376,2025-06-04T19:40:50.621111
1776,0.1635,0.9941,0.3377,-8.120,-32.095,-9.310,402.00,405,348,421,389,2025-06-04T19:40:50.621111
1777,0.2079,1.0424,0.3250,-11.095,-43.680,-13.055,400.00,401,379,413,389,2025-06-04T19:40:50.621111
1778,0.2655,1.1322,0.2752,-16.030,-67.550,-20.160,391.00,373,393,416,377,2025-06-04T19:40:50.621111
1779,0.3065,1.2283,0.2030,-20.020,-103.180,-29.365,389.00,393,402,412,375,2025-06-04T19:40:50.799615
1780,0.4168,1.3664,0.1118,-24.815,-157.535,-40.250,388.00,405,347,426,380,2025-06-04T19:40:50.799615
1781,0.4724,1.5143,-0.0376,-26.845,-216.685,-53.375,401.00,376,414,387,377,2025-06-04T19:40:50.799615
1782,0.6476,1.7470,-0.2284,-25.095,-277.410,-67.130,386.00,389,424,395,375,2025-06-04T19:40:50.799615
1783,0.9487,2.0799,-0.5378,-32.340,-315.770,-84.490,376.00,406,426,348,334,2025-06-04T19:40:50.799615
1784,1.5387,2.4834,-0.8896,-35.770,-296.170,-101.010,399.00,408,419,383,358,2025-06-04T19:40:50.799615
1785,1.8895,2.8494,-1.2302,-63.910,-219.310,-114.660,406.00,385,418,386,332,2025-06-04T19:40:50.799615
1786,1.7978,3.0837,-1.4533,-100.310,-118.545,-122.535,373.00,400,420,300,330,2025-06-04T19:40:50.800589
1787,1.3766,3.2432,-1.5582,-159.250,-35.665,-130.480,339.00,409,418,349,354,2025-06-04T19:40:50.800589
1788,0.7486,3.2023,-1.3947,-226.975,-11.305,-143.990,325.00,409,417,381,330,2025-06-04T19:40:50.800589
1789,0.0678,2.7821,-1.1278,-305.620,-55.965,-160.055,284.00,410,306,407,369,2025-06-04T19:40:50.800589
1790,-0.6715,2.2609,-0.7354,-391.090,-144.795,-188.755,303.00,410,383,399,368,2025-06-04T19:40:50.800589
1791,-0.6949,1.3835,-0.5534,-468.650,-254.100,-210.595,375.00,416,429,389,333,2025-06-04T19:40:50.800589
1792,-0.2918,-0.1381,-0.8628,-529.375,-362.810,-191.800,396.00,414,307,402,355,2025-06-04T19:40:50.800589
1793,-0.2777,-1.7353,-0.1976,-526.225,-427.945,-183.645,380.00,406,415,420,380,2025-06-04T19:40:50.800589
1794,0.3196,-2.5635,0.8228,-635.005,-386.995,-204.295,393.00,418,441,426,384,2025-06-04T19:40:50.847334
1795,0.7891,-4.8551,1.7300,-321.720,-345.870,-250.950,396.00,416,414,417,390,2025-06-04T19:40:50.847334
1796,0.3348,-6.1659,1.5113,-416.045,-42.280,-240.380,410.00,418,364,418,355,2025-06-04T19:40:50.847334
1797,0.5246,-5.4158,0.7340,-228.270,51.135,-167.160,357.00,412,430,359,366,2025-06-04T19:40:50.847334
1798,1.1448,-4.2378,0.5036,60.340,9.520,16.205,400.00,411,432,434,389,2025-06-04T19:40:50.892841
1799,0.6364,-3.1569,0.7203,101.325,35.805,160.020,390.00,385,417,424,380,2025-06-04T19:40:50.892841
1800,0.3045,-2.4683,0.9150,205.275,36.015,185.395,355.00,405,405,434,378,2025-06-04T19:40:50.892841
1801,0.3133,-1.6104,1.2678,269.535,43.295,162.015,389.00,417,425,407,346,2025-06-04T19:40:50.892841
1802,0.6564,-1.1180,1.2717,232.995,58.765,157.045,391.00,416,421,402,372,2025-06-04T19:40:50.995200
1803,0.6359,-0.9204,1.0531,236.635,69.055,147.035,378.00,391,430,369,372,2025-06-04T19:40:50.995200
1804,0.6744,-0.7637,0.8672,222.040,108.150,127.610,404.00,400,431,393,374,2025-06-04T19:40:50.995200
1805,0.7886,-0.5041,0.7808,221.060,168.140,118.545,402.00,375,422,430,391,2025-06-04T19:40:50.995200
1806,0.7803,-0.0952,0.7725,221.655,227.640,124.075,395.00,395,427,404,404,2025-06-04T19:40:50.995200
1807,0.3445,0.2284,0.7706,201.880,273.980,127.610,402.00,373,406,438,410,2025-06-04T19:40:50.995200
1808,0.0903,0.4299,0.7281,194.985,295.925,123.970,442.00,395,393,430,366,2025-06-04T19:40:50.995200
1809,-0.0224,0.5510,0.6246,177.520,281.225,126.525,418.00,405,396,377,368,2025-06-04T19:40:50.995200
1810,-0.2464,0.7476,0.4514,175.140,246.680,125.020,413.00,408,381,408,302,2025-06-04T19:40:51.344939
1811,-0.5109,1.0082,0.4446,173.040,211.785,117.495,410.00,408,429,403,342,2025-06-04T19:40:51.344939
1812,-0.4968,1.1653,0.4109,186.480,164.605,99.855,416.00,390,390,358,357,2025-06-04T19:40:51.344939
1813,-0.3328,1.1995,0.3030,189.210,126.770,85.645,405.00,392,424,399,366,2025-06-04T19:40:51.344939
1814,-0.2884,1.2302,0.2108,181.685,83.825,72.275,400.00,345,401,418,383,2025-06-04T19:40:51.344939
1815,-0.1781,1.2644,0.0903,186.410,45.745,63.035,385.00,376,391,398,390,2025-06-04T19:40:51.344939
1816,-0.0820,1.3644,0.0732,183.680,21.315,54.180,406.00,389,348,373,380,2025-06-04T19:40:51.344939
1817,0.0083,1.3942,0.1152,169.365,7.560,44.940,372.00,403,328,410,387,2025-06-04T19:40:51.344939
1818,0.1362,1.4162,0.0991,153.825,1.015,40.670,377.00,407,395,395,380,2025-06-04T19:40:51.344939
1819,0.1815,1.4396,0.0996,135.730,5.390,35.595,386.00,413,417,406,353,2025-06-04T19:40:51.344939
1820,0.1596,1.4030,0.1000,121.625,16.975,26.740,394.00,410,397,431,365,2025-06-04T19:40:51.344939
1821,0.2152,1.3474,0.0766,109.130,28.945,22.505,376.00,393,406,410,375,2025-06-04T19:40:51.344939
1822,0.2220,1.3064,0.0776,99.855,37.555,21.910,399.00,405,424,428,385,2025-06-04T19:40:51.344939
1823,0.1674,1.2878,0.1181,93.870,42.980,20.370,397.00,412,423,407,390,2025-06-04T19:40:51.344939
1824,0.0786,1.2673,0.1440,84.630,41.965,18.060,401.00,410,367,401,343,2025-06-04T19:40:51.344939
1825,-0.0312,1.2444,0.1596,75.600,28.840,13.825,347.00,409,414,404,364,2025-06-04T19:40:51.344939
1826,-0.0503,1.2283,0.1474,68.145,10.745,10.220,376.00,377,412,411,377,2025-06-04T19:40:51.344939
1827,-0.0298,1.1941,0.1347,62.055,-7.420,6.720,391.00,393,406,428,389,2025-06-04T19:40:51.430012
1828,0.0063,1.1771,0.1244,56.280,-24.115,4.410,391.00,405,421,426,384,2025-06-04T19:40:51.430012
1829,0.0449,1.1502,0.1157,51.380,-35.350,3.955,348.00,409,418,375,388,2025-06-04T19:40:51.430012
1830,0.0356,1.1429,0.1571,47.530,-40.005,2.835,364.00,417,346,294,351,2025-06-04T19:40:51.430012
1831,0.0664,1.1405,0.1928,40.775,-37.135,0.700,387.00,409,402,322,376,2025-06-04T19:40:51.430012
1832,0.0903,1.1287,0.2176,32.165,-28.525,-1.155,379.00,402,411,403,370,2025-06-04T19:40:51.430012
1833,0.0795,1.1004,0.2142,23.415,-16.030,-3.395,386.00,414,402,405,360,2025-06-04T19:40:51.430012
1834,0.0361,1.0619,0.2211,16.905,-3.815,-6.370,363.00,423,409,387,375,2025-06-04T19:40:51.430012
1835,-0.0039,1.0365,0.2216,11.305,2.905,-8.505,384.00,426,397,416,375,2025-06-04T19:40:51.430012
1836,0.0190,1.0038,0.2147,7.245,6.720,-7.035,338.00,420,425,419,389,2025-06-04T19:40:51.430012
1837,0.0581,0.9906,0.2220,6.230,9.695,-0.595,373.00,424,420,364,350,2025-06-04T19:40:51.430012
1838,0.0083,0.9745,0.2294,4.375,12.915,5.110,339.00,429,394,415,374,2025-06-04T19:40:51.430012
1839,-0.0522,0.9599,0.2328,4.655,15.855,6.825,346.00,390,359,422,373,2025-06-04T19:40:51.430012
1840,-0.0849,0.9516,0.2430,4.270,18.375,6.160,379.00,402,406,402,385,2025-06-04T19:40:51.430012
1841,-0.0673,0.9526,0.2450,3.780,19.670,6.440,395.00,411,427,429,378,2025-06-04T19:40:51.430786
1842,-0.0908,0.9404,0.2557,2.765,20.475,6.510,383.00,420,407,411,374,2025-06-04T19:40:51.430786
1843,-0.1054,0.9414,0.2508,2.275,19.915,6.230,367.00,420,417,342,373,2025-06-04T19:40:51.430786
1844,-0.1274,0.9316,0.2440,1.260,18.900,5.110,375.00,408,397,376,386,2025-06-04T19:40:51.430920
1845,-0.1108,0.9248,0.2352,1.330,16.590,5.495,370.00,415,416,409,379,2025-06-04T19:40:51.697767
1846,-0.1415,0.9223,0.2269,1.540,12.950,5.600,395.00,413,348,377,382,2025-06-04T19:40:51.697767
1847,-0.1498,0.9189,0.2264,2.485,8.225,4.690,366.00,379,395,409,376,2025-06-04T19:40:51.697767
1848,-0.1484,0.9155,0.2318,2.590,3.640,3.675,392.00,358,420,363,375,2025-06-04T19:40:51.697767
1849,-0.1362,0.9199,0.2342,2.870,0.560,2.940,407.00,348,430,417,380,2025-06-04T19:40:51.697767
1850,-0.1142,0.9238,0.2352,3.850,1.575,2.240,370.00,383,410,399,368,2025-06-04T19:40:51.697767
1851,-0.0917,0.9296,0.2450,4.025,5.635,1.050,343.00,386,407,413,385,2025-06-04T19:40:51.697767
1852,-0.0742,0.9394,0.2416,3.675,13.650,0.140,384.00,362,359,412,346,2025-06-04T19:40:51.697767
1853,-0.1025,0.9438,0.2499,3.255,20.440,-0.875,397.00,384,363,410,360,2025-06-04T19:40:51.946682
1854,-0.1381,0.9394,0.2494,3.185,23.345,-1.435,396.00,404,421,429,381,2025-06-04T19:40:51.946682
1855,-0.1537,0.9467,0.2552,3.080,22.540,-1.435,401.00,408,436,427,377,2025-06-04T19:40:51.946682
1856,-0.1645,0.9545,0.2596,2.520,20.685,-1.715,388.00,405,425,397,369,2025-06-04T19:40:51.946682
1857,-0.1713,0.9467,0.2577,2.450,17.535,-1.540,381.00,402,422,398,385,2025-06-04T19:40:51.946682
1858,-0.1767,0.9399,0.2508,2.905,12.110,-1.050,398.00,408,311,386,378,2025-06-04T19:40:51.946682
1859,-0.1752,0.9389,0.2606,3.115,5.075,0.245,347.00,406,386,415,373,2025-06-04T19:40:51.946682
1860,-0.1767,0.9428,0.2791,2.590,-2.170,0.455,364.00,409,429,415,388,2025-06-04T19:40:51.946682
1861,-0.1742,0.9379,0.2791,1.295,-7.245,-0.420,377.00,408,413,425,391,2025-06-04T19:40:51.946682
1862,-0.1327,0.9311,0.2733,0.840,-8.225,-1.820,376.00,414,412,421,387,2025-06-04T19:40:51.946682
1863,-0.1113,0.9292,0.2757,-0.140,-5.215,-2.345,374.00,423,420,390,387,2025-06-04T19:40:51.946682
1864,-0.1176,0.9174,0.2738,-0.805,-1.925,-2.730,387.00,415,401,412,386,2025-06-04T19:40:51.946682
1865,-0.1488,0.9038,0.2757,-1.155,-1.050,-3.465,395.00,407,410,351,342,2025-06-04T19:40:51.946682
1866,-0.1669,0.8994,0.2845,-1.225,-2.520,-3.745,308.00,418,375,413,360,2025-06-04T19:40:51.946682
1867,-0.1810,0.8852,0.2840,-1.085,-5.670,-3.885,370.00,422,419,397,369,2025-06-04T19:40:51.946682
1868,-0.1850,0.8940,0.2977,0.175,-9.415,-4.095,337.00,424,412,355,374,2025-06-04T19:40:51.946682
1869,-0.1810,0.8965,0.3030,1.400,-11.585,-5.110,382.00,427,396,396,377,2025-06-04T19:40:51.946682
1870,-0.1576,0.9048,0.3001,2.730,-11.375,-5.810,394.00,394,428,347,382,2025-06-04T19:40:51.946682
1871,-0.1484,0.9091,0.2879,2.835,-9.170,-6.090,403.00,374,386,363,343,2025-06-04T19:40:51.946682
1872,-0.1391,0.9179,0.2860,3.430,-7.420,-5.495,348.00,395,403,412,373,2025-06-04T19:40:51.946682
1873,-0.1620,0.9248,0.2830,3.535,-7.140,-5.565,380.00,345,425,388,372,2025-06-04T19:40:51.946682
1874,-0.1713,0.9331,0.2894,3.640,-8.785,-5.705,348.00,388,417,423,375,2025-06-04T19:40:51.946682
1875,-0.1708,0.9428,0.2894,3.885,-10.780,-5.495,383.00,393,434,441,377,2025-06-04T19:40:51.946682
1876,-0.1576,0.9428,0.2728,3.535,-12.250,-4.620,381.00,400,405,418,378,2025-06-04T19:40:51.946682
1877,-0.1454,0.9516,0.2660,4.130,-12.250,-3.395,387.00,405,400,399,368,2025-06-04T19:40:51.946682
1878,-0.1362,0.9545,0.2586,3.640,-10.815,-2.170,380.00,416,425,429,381,2025-06-04T19:40:51.946682
1879,-0.1308,0.9628,0.2664,3.325,-9.625,-0.840,377.00,418,424,422,382,2025-06-04T19:40:51.946682
1880,-0.1401,0.9584,0.2469,1.750,-9.380,0.490,380.00,391,422,428,390,2025-06-04T19:40:51.946682
1881,-0.1440,0.9545,0.2425,1.820,-9.835,0.980,389.00,404,392,424,396,2025-06-04T19:40:51.946682
1882,-0.1308,0.9658,0.2474,1.680,-9.380,1.645,395.00,410,420,431,387,2025-06-04T19:40:51.946682
1883,-0.1293,0.9594,0.2460,0.770,-7.245,2.240,382.00,414,414,407,390,2025-06-04T19:40:52.059992
1884,-0.1298,0.9501,0.2347,0.070,-4.865,2.730,404.00,412,375,403,376,2025-06-04T19:40:52.059992
1885,-0.1288,0.9482,0.2318,0.210,-3.745,3.500,408.00,405,414,419,386,2025-06-04T19:40:52.059992
1886,-0.1410,0.9414,0.2352,-0.455,-3.920,4.200,397.00,414,413,408,384,2025-06-04T19:40:52.059992
1887,-0.1410,0.9399,0.2377,-0.595,-5.145,4.970,409.00,413,416,374,382,2025-06-04T19:40:52.059992
1888,-0.1357,0.9350,0.2440,-0.280,-6.230,5.460,402.00,415,400,420,381,2025-06-04T19:40:52.059992
1889,-0.1337,0.9301,0.2440,-0.035,-6.160,5.495,403.00,406,354,384,380,2025-06-04T19:40:52.059992
1890,-0.1186,0.9267,0.2484,1.155,-5.495,5.425,393.00,405,415,342,373,2025-06-04T19:40:52.059992
1891,-0.1108,0.9228,0.2542,1.050,-3.255,5.180,383.00,412,350,365,367,2025-06-04T19:40:52.059992
1892,-0.1166,0.9174,0.2513,0.665,-1.155,4.935,378.00,387,406,399,376,2025-06-04T19:40:52.059992
1893,-0.1259,0.9252,0.2557,0.525,0.490,4.200,382.00,372,357,399,373,2025-06-04T19:40:52.059992
1894,-0.1332,0.9199,0.2557,0.280,1.610,3.605,387.00,394,414,422,345,2025-06-04T19:40:52.059992
1895,-0.1396,0.9170,0.2523,0.175,1.190,3.325,383.00,408,401,403,363,2025-06-04T19:40:52.059992
1896,-0.1435,0.9150,0.2523,0.245,-0.350,3.185,396.00,418,377,418,367,2025-06-04T19:40:52.356677
1897,-0.1620,0.9213,0.2650,-0.035,-2.065,2.030,393.00,408,405,348,381,2025-06-04T19:40:52.356677
1898,-0.1537,0.9184,0.2655,-0.560,-3.535,1.050,389.00,418,354,337,385,2025-06-04T19:40:52.356677
1899,-0.1435,0.9174,0.2660,-0.560,-4.550,0.805,341.00,414,418,288,386,2025-06-04T19:40:52.356677
1900,-0.1440,0.9170,0.2669,-0.280,-5.075,0.665,381.00,416,404,390,385,2025-06-04T19:40:52.356677
1901,-0.1542,0.9184,0.2762,0.140,-5.740,-0.140,377.00,405,421,411,371,2025-06-04T19:40:52.356677
1902,-0.1503,0.9218,0.2821,0.210,-6.300,-0.910,375.00,411,402,398,369,2025-06-04T19:40:52.356677
1903,-0.1557,0.9209,0.2767,0.210,-6.755,-1.400,392.00,408,395,398,391,2025-06-04T19:40:52.356677
1904,-0.1469,0.9184,0.2694,1.015,-6.510,-1.820,395.00,417,342,345,380,2025-06-04T19:40:52.356677
1905,-0.1459,0.9228,0.2679,1.400,-5.040,-2.170,350.00,422,410,408,391,2025-06-04T19:40:52.356677
1906,-0.1396,0.9257,0.2660,1.680,-3.850,-1.470,366.00,432,401,422,386,2025-06-04T19:40:52.356677
1907,-0.1581,0.9267,0.2645,1.505,-3.605,-1.155,354.00,420,373,346,391,2025-06-04T19:40:52.356677
1908,-0.1654,0.9248,0.2596,1.785,-4.270,-1.330,378.00,423,377,404,399,2025-06-04T19:40:52.356677
1909,-0.1562,0.9360,0.2616,2.135,-5.075,-1.260,378.00,427,394,433,397,2025-06-04T19:40:52.356677
1910,-0.1469,0.9384,0.2562,1.890,-4.830,-1.190,394.00,422,403,424,398,2025-06-04T19:40:52.357496
1911,-0.1498,0.9443,0.2547,1.715,-3.920,-1.155,388.00,363,416,386,384,2025-06-04T19:40:52.506620
1912,-0.1523,0.9433,0.2469,1.505,-4.305,-0.945,369.00,388,363,388,384,2025-06-04T19:40:52.506620
1913,-0.1620,0.9453,0.2474,1.225,-5.775,-0.805,354.00,406,413,396,374,2025-06-04T19:40:52.506620
1914,-0.1630,0.9462,0.2445,1.015,-7.875,-0.210,376.00,417,402,403,375,2025-06-04T19:40:52.506620
1915,-0.1571,0.9457,0.2455,0.840,-10.150,0.175,389.00,423,421,426,379,2025-06-04T19:40:52.506620
1916,-0.1469,0.9428,0.2381,0.595,-12.355,0.980,393.00,424,420,352,389,2025-06-04T19:40:52.506620
1917,-0.1396,0.9428,0.2411,0.455,-13.405,1.330,385.00,421,409,385,391,2025-06-04T19:40:52.506620
1918,-0.1288,0.9418,0.2416,0.070,-12.565,1.050,382.00,417,344,421,373,2025-06-04T19:40:52.506620
1919,-0.1176,0.9374,0.2362,-0.175,-10.290,0.875,341.00,407,392,352,348,2025-06-04T19:40:52.506620
1920,-0.1137,0.9316,0.2406,-0.630,-7.035,0.770,326.00,404,369,396,359,2025-06-04T19:40:52.506620
1921,-0.1132,0.9252,0.2377,-1.085,-4.375,0.980,361.00,403,409,390,367,2025-06-04T19:40:52.506620
1922,-0.1347,0.9223,0.2391,-1.680,-3.640,1.015,386.00,412,417,385,338,2025-06-04T19:40:52.506620
1923,-0.1469,0.9145,0.2342,-1.820,-5.180,0.630,378.00,378,427,420,358,2025-06-04T19:40:52.506620
1924,-0.1566,0.9150,0.2416,-1.680,-7.595,-0.070,393.00,396,371,336,371,2025-06-04T19:40:52.506620
1925,-0.1469,0.9155,0.2503,-1.785,-9.380,-0.805,406.00,397,400,388,376,2025-06-04T19:40:52.506620
1926,-0.1259,0.9184,0.2513,-1.680,-9.380,-1.295,413.00,407,396,425,371,2025-06-04T19:40:52.506620
1927,-0.1152,0.9213,0.2518,-1.680,-7.070,-1.750,395.00,403,401,415,364,2025-06-04T19:40:52.506620
1928,-0.1210,0.9228,0.2547,-1.750,-4.235,-2.415,400.00,406,404,425,368,2025-06-04T19:40:52.506620
1929,-0.1405,0.9189,0.2547,-1.785,-2.800,-3.010,372.00,416,378,428,344,2025-06-04T19:40:52.506620
1930,-0.1523,0.9165,0.2616,-1.610,-3.570,-2.870,394.00,411,394,434,356,2025-06-04T19:40:52.506620
1931,-0.1523,0.9155,0.2645,-1.295,-5.285,-2.695,400.00,419,403,433,360,2025-06-04T19:40:52.738184
1932,-0.1503,0.9233,0.2655,-0.630,-6.265,-2.555,406.00,414,424,425,375,2025-06-04T19:40:52.738184
1933,-0.1405,0.9262,0.2689,-0.455,-5.565,-2.835,390.00,417,407,403,368,2025-06-04T19:40:52.738184
1934,-0.1430,0.9262,0.2625,-0.595,-4.375,-2.765,352.00,380,409,418,373,2025-06-04T19:40:52.738184
1935,-0.1469,0.9272,0.2640,-0.665,-3.395,-3.255,380.00,360,411,403,368,2025-06-04T19:40:52.738184
1936,-0.1503,0.9267,0.2660,-1.190,-2.765,-3.325,355.00,354,421,405,374,2025-06-04T19:40:52.738184
1937,-0.1591,0.9272,0.2596,-1.645,-2.975,-3.535,374.00,382,429,398,335,2025-06-04T19:40:52.738184
1938,-0.1610,0.9301,0.2625,-1.505,-4.130,-3.780,375.00,399,415,406,359,2025-06-04T19:40:52.738184
1939,-0.1615,0.9277,0.2655,-1.540,-5.635,-3.745,337.00,406,407,417,361,2025-06-04T19:40:52.738184
1940,-0.1669,0.9248,0.2694,-1.925,-6.825,-3.815,361.00,407,424,380,298,2025-06-04T19:40:52.738184
1941,-0.1630,0.9248,0.2664,-1.715,-7.735,-3.780,334.00,376,357,386,344,2025-06-04T19:40:52.738184
1942,-0.1620,0.9252,0.2718,-1.540,-7.805,-4.060,327.00,389,396,410,362,2025-06-04T19:40:52.738184
1943,-0.1591,0.9248,0.2684,-1.435,-6.930,-4.025,370.00,407,404,414,366,2025-06-04T19:40:52.738184
1944,-0.1606,0.9262,0.2723,-0.980,-6.055,-3.815,399.00,413,392,425,371,2025-06-04T19:40:52.738184
1945,-0.1640,0.9262,0.2782,-0.945,-5.320,-3.220,396.00,381,402,433,366,2025-06-04T19:40:52.738184
1946,-0.1703,0.9199,0.2699,-1.155,-5.425,-2.415,396.00,399,406,401,377,2025-06-04T19:40:52.738184
1947,-0.1728,0.9184,0.2679,-0.700,-6.020,-1.995,343.00,403,413,425,365,2025-06-04T19:40:52.738184
1948,-0.1703,0.9184,0.2640,-0.525,-6.335,-1.540,378.00,402,428,429,361,2025-06-04T19:40:52.883850
1949,-0.1664,0.9248,0.2704,0.035,-6.580,-1.085,384.00,408,403,404,377,2025-06-04T19:40:52.884235
1950,-0.1659,0.9223,0.2684,0.350,-6.790,-0.980,404.00,415,395,339,372,2025-06-04T19:40:52.884235
1951,-0.1649,0.9272,0.2733,0.420,-7.280,-0.770,347.00,415,405,402,384,2025-06-04T19:40:52.884235
1952,-0.1640,0.9287,0.2684,0.595,-7.910,-0.910,380.00,421,396,427,392,2025-06-04T19:40:52.884235
1953,-0.1596,0.9218,0.2679,0.385,-8.295,-0.980,339.00,411,394,302,396,2025-06-04T19:40:52.884235
1954,-0.1503,0.9257,0.2684,0.735,-7.735,-1.015,377.00,404,401,369,398,2025-06-04T19:40:52.884235
1955,-0.1464,0.9267,0.2630,0.000,-6.195,-1.085,386.00,383,408,419,383,2025-06-04T19:40:52.884235
1956,-0.1498,0.9252,0.2572,0.245,-5.460,-1.120,379.00,386,387,421,377,2025-06-04T19:40:52.884235
1957,-0.1586,0.9252,0.2611,0.070,-5.600,-1.505,377.00,390,407,431,371,2025-06-04T19:40:52.884235
1958,-0.1508,0.9233,0.2567,-0.245,-6.335,-1.575,391.00,407,426,414,378,2025-06-04T19:40:52.884235
1959,-0.1469,0.9301,0.2572,0.035,-6.825,-1.610,393.00,400,401,424,343,2025-06-04T19:40:52.884235
1960,-0.1513,0.9262,0.2669,-0.385,-6.545,-2.135,380.00,402,430,407,366,2025-06-04T19:40:52.884235
1961,-0.1410,0.9311,0.2669,-0.455,-6.405,-2.275,378.00,415,424,412,336,2025-06-04T19:40:52.884235
1962,-0.1523,0.9257,0.2582,-0.875,-6.720,-2.730,381.00,409,430,349,363,2025-06-04T19:40:52.884235
1963,-0.1420,0.9267,0.2557,-0.035,-6.615,-2.870,396.00,417,352,395,365,2025-06-04T19:40:52.884235
1964,-0.1396,0.9248,0.2572,-0.490,-5.355,-2.835,395.00,420,391,417,360,2025-06-04T19:40:53.173826
1965,-0.1503,0.9267,0.2630,-0.560,-4.445,-3.080,407.00,423,339,425,374,2025-06-04T19:40:53.173826
1966,-0.1571,0.9238,0.2660,-1.365,-4.025,-3.500,388.00,396,408,424,377,2025-06-04T19:40:53.173826
1967,-0.1606,0.9204,0.2630,-1.155,-4.970,-3.605,406.00,410,427,412,384,2025-06-04T19:40:53.173826
1968,-0.1649,0.9213,0.2640,-0.945,-6.825,-3.990,313.00,414,414,428,381,2025-06-04T19:40:53.173826
1969,-0.1674,0.9204,0.2645,-0.910,-8.155,-4.725,357.00,417,401,424,373,2025-06-04T19:40:53.173826
1970,-0.1566,0.9223,0.2684,-1.190,-7.840,-5.355,376.00,410,365,415,378,2025-06-04T19:40:53.173826
1971,-0.1484,0.9209,0.2674,-1.785,-5.810,-5.880,398.00,380,393,417,380,2025-06-04T19:40:53.173826
1972,-0.1523,0.9179,0.2635,-2.030,-3.885,-6.195,386.00,399,414,415,389,2025-06-04T19:40:53.173826
1973,-0.1630,0.9155,0.2616,-1.960,-3.395,-5.740,389.00,409,409,424,379,2025-06-04T19:40:53.174822
1974,-0.1737,0.9145,0.2640,-1.750,-4.200,-5.250,393.00,420,305,410,387,2025-06-04T19:40:53.174822
1975,-0.1850,0.9174,0.2684,-1.540,-4.970,-5.145,402.00,423,407,421,378,2025-06-04T19:40:53.174822
1976,-0.1845,0.9213,0.2660,-0.980,-5.635,-4.900,386.00,432,374,415,379,2025-06-04T19:40:53.174822
1977,-0.1830,0.9189,0.2655,-0.875,-6.335,-4.760,399.00,427,410,408,383,2025-06-04T19:40:53.174822
1978,-0.1815,0.9248,0.2679,-0.350,-7.000,-4.480,388.00,399,418,430,384,2025-06-04T19:40:53.268365
1979,-0.1791,0.9204,0.2704,-0.455,-7.560,-4.550,391.00,399,429,434,355,2025-06-04T19:40:53.268365
1980,-0.1776,0.9233,0.2743,-0.350,-7.910,-4.445,396.00,412,426,420,377,2025-06-04T19:40:53.268365
1981,-0.1742,0.9248,0.2723,-0.385,-7.770,-4.585,403.00,406,415,422,388,2025-06-04T19:40:53.268365
1982,-0.1728,0.9243,0.2660,-0.490,-7.350,-4.690,414.00,407,407,418,381,2025-06-04T19:40:53.268365
1983,-0.1718,0.9257,0.2660,-0.700,-6.230,-4.690,413.00,377,411,422,358,2025-06-04T19:40:53.268365
1984,-0.1698,0.9262,0.2674,-0.910,-5.250,-4.830,357.00,395,416,399,373,2025-06-04T19:40:53.268365
1985,-0.1669,0.9228,0.2630,-1.540,-4.305,-4.305,365.00,369,410,428,388,2025-06-04T19:40:53.268365
1986,-0.1747,0.9257,0.2625,-1.400,-4.375,-3.850,337.00,381,432,369,375,2025-06-04T19:40:53.268365
1987,-0.1781,0.9243,0.2669,-1.610,-5.250,-3.710,386.00,389,431,407,376,2025-06-04T19:40:53.268365
1988,-0.1801,0.9272,0.2728,-1.715,-5.950,-4.060,404.00,398,408,433,376,2025-06-04T19:40:53.268365
1989,-0.1742,0.9252,0.2738,-1.995,-6.370,-4.270,371.00,409,427,421,373,2025-06-04T19:40:53.268365
1990,-0.1684,0.9209,0.2699,-1.890,-7.315,-4.480,375.00,407,424,421,381,2025-06-04T19:40:53.269389
1991,-0.1669,0.9238,0.2689,-1.610,-7.945,-4.620,393.00,407,421,395,343,2025-06-04T19:40:53.269389
1992,-0.1591,0.9228,0.2708,-1.505,-7.280,-5.180,381.00,409,423,342,359,2025-06-04T19:40:53.269389
1993,-0.1576,0.9252,0.2704,-1.820,-5.495,-5.635,370.00,386,408,402,365,2025-06-04T19:40:53.269389
1994,-0.1576,0.9213,0.2704,-1.960,-3.640,-5.565,379.00,402,429,419,380,2025-06-04T19:40:53.269389
1995,-0.1708,0.9165,0.2674,-1.855,-2.765,-5.180,378.00,412,361,424,346,2025-06-04T19:40:53.499332
1996,-0.1786,0.9218,0.2777,-2.030,-3.185,-4.865,392.00,420,418,306,356,2025-06-04T19:40:53.499332
1997,-0.1898,0.9204,0.2728,-2.310,-3.710,-4.900,403.00,407,400,408,367,2025-06-04T19:40:53.499332
1998,-0.1937,0.9199,0.2669,-2.170,-4.305,-5.460,406.00,412,370,419,366,2025-06-04T19:40:53.500326
1999,-0.1879,0.9199,0.2660,-2.170,-4.655,-5.775,353.00,401,408,406,367,2025-06-04T19:40:53.500326
2000,-0.1903,0.9165,0.2728,-2.275,-4.935,-6.055,370.00,378,426,403,369,2025-06-04T19:40:53.500326
2001,-0.1806,0.9199,0.2738,-2.450,-4.410,-6.300,383.00,398,425,419,382,2025-06-04T19:40:53.500326
2002,-0.1791,0.9189,0.2738,-2.660,-3.360,-6.370,396.00,375,430,416,359,2025-06-04T19:40:53.500326
2003,-0.1825,0.9194,0.2743,-2.765,-1.820,-6.510,407.00,392,397,408,365,2025-06-04T19:40:53.756415
2004,-0.1928,0.9184,0.2762,-3.115,-0.980,-6.860,406.00,396,411,404,384,2025-06-04T19:40:53.756415
2005,-0.1976,0.9145,0.2738,-3.325,-1.470,-6.895,400.00,400,420,425,385,2025-06-04T19:40:53.757388
2006,-0.2035,0.9130,0.2743,-3.220,-2.415,-6.790,379.00,398,428,386,383,2025-06-04T19:40:53.757388
2007,-0.2069,0.9150,0.2782,-3.115,-2.380,-6.895,387.00,405,434,412,387,2025-06-04T19:40:53.757388
2008,-0.2123,0.9130,0.2777,-3.465,-1.400,-7.420,377.00,408,433,417,388,2025-06-04T19:40:53.757388
2009,-0.2089,0.9091,0.2845,-3.150,-0.665,-7.630,389.00,418,359,397,384,2025-06-04T19:40:53.757388
2010,-0.2162,0.9008,0.2845,-3.885,-0.560,-7.385,386.00,390,416,434,345,2025-06-04T19:40:53.757388
2011,-0.2186,0.8999,0.2830,-3.290,-1.435,-6.650,378.00,374,355,394,364,2025-06-04T19:40:53.757388
2012,-0.2396,0.9004,0.2879,-3.745,-1.680,-6.895,385.00,388,374,399,366,2025-06-04T19:40:53.757388
2013,-0.2450,0.8930,0.2874,-3.465,-2.030,-6.720,346.00,400,370,422,370,2025-06-04T19:40:53.757388
2014,-0.2445,0.8886,0.2879,-3.605,-1.995,-6.545,391.00,406,400,424,383,2025-06-04T19:40:53.757388
2015,-0.2391,0.8843,0.2835,-3.325,-1.925,-5.845,343.00,405,422,405,382,2025-06-04T19:40:53.757388
2016,-0.2503,0.8828,0.2879,-3.430,-1.680,-5.285,387.00,410,355,412,392,2025-06-04T19:40:53.757388
2017,-0.2538,0.8789,0.2845,-3.220,-1.715,-5.180,400.00,404,373,418,378,2025-06-04T19:40:53.757388
2018,-0.2621,0.8760,0.2879,-3.115,-1.855,-5.320,408.00,401,385,417,374,2025-06-04T19:40:53.757388
2019,-0.2601,0.8760,0.2933,-2.625,-2.695,-5.285,370.00,410,415,342,390,2025-06-04T19:40:53.757388
2020,-0.2625,0.8789,0.2967,-2.590,-3.185,-5.355,397.00,408,415,378,385,2025-06-04T19:40:53.757388
2021,-0.2601,0.8857,0.3026,-1.820,-3.605,-5.600,405.00,417,406,395,389,2025-06-04T19:40:53.757388
2022,-0.2518,0.8857,0.3011,-1.855,-3.500,-5.810,404.00,423,415,341,377,2025-06-04T19:40:53.757388
2023,-0.2503,0.8843,0.2972,-1.295,-3.885,-5.670,388.00,394,397,388,340,2025-06-04T19:40:53.757388
2024,-0.2464,0.8852,0.3011,-0.770,-5.040,-5.530,307.00,405,404,424,331,2025-06-04T19:40:53.757388
2025,-0.2420,0.8886,0.3050,-0.455,-6.055,-5.565,350.00,405,416,414,350,2025-06-04T19:40:53.757388
2026,-0.2318,0.8950,0.3050,-0.035,-6.615,-5.600,343.00,402,420,432,373,2025-06-04T19:40:53.757388
2027,-0.2294,0.8984,0.3040,0.280,-6.335,-5.775,383.00,407,426,374,382,2025-06-04T19:40:53.757388
2028,-0.2240,0.9013,0.3021,0.350,-5.705,-6.300,388.00,416,418,421,369,2025-06-04T19:40:53.757388
2029,-0.2216,0.9091,0.3011,0.245,-4.655,-6.370,342.00,411,398,387,365,2025-06-04T19:40:53.880376
2030,-0.2245,0.9111,0.2967,0.245,-4.305,-6.230,325.00,402,424,359,373,2025-06-04T19:40:53.880376
2031,-0.2279,0.9165,0.2923,-0.070,-3.955,-6.125,362.00,419,405,399,384,2025-06-04T19:40:53.880376
2032,-0.2274,0.9126,0.2879,-0.455,-3.780,-6.090,332.00,385,342,360,389,2025-06-04T19:40:53.881431
2033,-0.2328,0.9116,0.2845,-0.455,-3.675,-5.705,375.00,399,408,392,396,2025-06-04T19:40:53.881431
2034,-0.2377,0.9135,0.2855,-0.595,-3.500,-5.425,358.00,402,382,400,392,2025-06-04T19:40:53.881431
2035,-0.2338,0.9121,0.2865,-0.665,-3.605,-5.040,374.00,408,402,400,380,2025-06-04T19:40:53.881431
2036,-0.2396,0.9091,0.2840,-0.875,-4.620,-4.760,392.00,416,405,418,377,2025-06-04T19:40:53.881431
2037,-0.2479,0.9038,0.2786,-0.805,-5.845,-4.935,385.00,413,404,366,376,2025-06-04T19:40:53.881431
2038,-0.2425,0.9018,0.2821,-0.875,-5.915,-5.600,396.00,389,417,400,373,2025-06-04T19:40:53.881431
2039,-0.2298,0.9018,0.2806,-1.120,-4.515,-5.810,384.00,402,401,338,306,2025-06-04T19:40:53.881431
2040,-0.2225,0.8979,0.2723,-1.400,-3.080,-5.285,396.00,373,341,397,354,2025-06-04T19:40:53.881431
2041,-0.2338,0.8979,0.2796,-1.575,-1.470,-5.075,351.00,385,384,401,331,2025-06-04T19:40:53.881431
2042,-0.2489,0.8989,0.2845,-1.820,-1.295,-5.460,366.00,407,397,344,367,2025-06-04T19:40:53.881431
2043,-0.2523,0.8950,0.2845,-1.855,-2.520,-5.600,385.00,414,427,406,391,2025-06-04T19:40:53.881431
2044,-0.2406,0.8979,0.2889,-1.540,-4.165,-5.565,398.00,423,436,423,391,2025-06-04T19:40:53.881431
2045,-0.2386,0.8935,0.2855,-1.610,-5.005,-5.915,406.00,428,432,430,383,2025-06-04T19:40:54.129302
2046,-0.2264,0.8969,0.2879,-1.400,-5.285,-6.475,407.00,421,410,387,386,2025-06-04T19:40:54.129302
2047,-0.2152,0.8999,0.2879,-1.470,-4.795,-6.685,417.00,409,425,412,390,2025-06-04T19:40:54.129302
2048,-0.2098,0.8940,0.2874,-1.435,-3.675,-7.070,413.00,401,417,416,380,2025-06-04T19:40:54.129302
2049,-0.2089,0.8979,0.2845,-1.400,-1.960,-7.350,364.00,372,432,412,346,2025-06-04T19:40:54.130331
2050,-0.2225,0.8994,0.2869,-1.400,0.000,-8.015,395.00,390,405,387,364,2025-06-04T19:40:54.130331
2051,-0.2303,0.9004,0.2894,-1.260,1.050,-8.400,358.00,404,422,356,344,2025-06-04T19:40:54.130331
2052,-0.2396,0.8969,0.2962,-1.225,0.875,-8.260,335.00,412,413,385,369,2025-06-04T19:40:54.130331
2053,-0.2494,0.8969,0.2933,-1.505,-0.245,-7.910,386.00,421,421,402,384,2025-06-04T19:40:54.130331
2054,-0.2669,0.8965,0.2894,-1.540,-1.785,-8.330,398.00,416,429,393,384,2025-06-04T19:40:54.130331
2055,-0.2689,0.8969,0.2943,-1.225,-3.710,-9.065,391.00,421,435,419,375,2025-06-04T19:40:54.131276
2056,-0.2640,0.8965,0.2967,-1.645,-5.040,-9.450,399.00,412,366,368,380,2025-06-04T19:40:54.131276
2057,-0.2616,0.8935,0.2938,-1.960,-5.355,-10.465,359.00,398,397,405,381,2025-06-04T19:40:54.131276
2058,-0.2528,0.8901,0.2884,-2.170,-4.690,-11.060,385.00,402,412,407,386,2025-06-04T19:40:54.131276
2059,-0.2538,0.8906,0.2879,-2.170,-3.220,-11.375,381.00,397,424,355,375,2025-06-04T19:40:54.132277
2060,-0.2547,0.8960,0.2957,-2.345,-1.995,-11.690,378.00,380,429,403,370,2025-06-04T19:40:54.132277
2061,-0.2650,0.8940,0.2987,-2.940,-1.470,-12.320,358.00,405,402,398,386,2025-06-04T19:40:54.132277
2062,-0.2704,0.8926,0.2933,-3.290,-2.240,-12.390,334.00,403,416,304,338,2025-06-04T19:40:54.132277
2063,-0.2621,0.8935,0.2879,-3.395,-3.150,-11.865,384.00,415,420,386,373,2025-06-04T19:40:54.132277
2064,-0.2660,0.8940,0.2855,-3.955,-2.590,-12.040,340.00,422,405,387,374,2025-06-04T19:40:54.396217
2065,-0.2523,0.8935,0.2845,-3.815,-1.470,-11.620,383.00,408,365,414,388,2025-06-04T19:40:54.396217
2066,-0.2425,0.8960,0.2840,-4.270,0.035,-10.605,404.00,379,413,409,371,2025-06-04T19:40:54.396217
2067,-0.2557,0.9062,0.2811,-4.725,1.260,-9.765,402.00,398,430,424,372,2025-06-04T19:40:54.396217
2068,-0.2664,0.9135,0.2860,-4.480,2.940,-10.185,353.00,374,386,423,374,2025-06-04T19:40:54.396217
2069,-0.2826,0.9111,0.2747,-5.460,3.920,-10.815,390.00,358,410,389,374,2025-06-04T19:40:54.396217
2070,-0.2738,0.9135,0.2616,-5.635,3.815,-10.290,399.00,382,382,404,383,2025-06-04T19:40:54.396217
2071,-0.2879,0.9101,0.2645,-7.350,3.885,-9.520,397.00,406,424,429,381,2025-06-04T19:40:54.396217
2072,-0.2943,0.8979,0.2845,-6.160,3.640,-9.345,407.00,415,409,416,341,2025-06-04T19:40:54.396217
2073,-0.3079,0.9072,0.2850,-7.770,3.815,-9.415,410.00,388,429,417,362,2025-06-04T19:40:54.396217
2074,-0.3104,0.8940,0.2855,-8.575,3.640,-9.555,396.00,401,401,419,336,2025-06-04T19:40:54.396217
2075,-0.3123,0.8974,0.2850,-9.170,3.745,-9.415,383.00,398,413,422,367,2025-06-04T19:40:54.396217
2076,-0.3196,0.8945,0.2991,-8.855,4.725,-9.240,385.00,402,412,422,338,2025-06-04T19:40:54.396217
2077,-0.3070,0.8911,0.2913,-10.045,6.160,-8.540,345.00,411,417,394,372,2025-06-04T19:40:54.396217
2078,-0.3265,0.8799,0.2908,-10.745,6.965,-7.840,373.00,414,398,420,368,2025-06-04T19:40:54.396217
2079,-0.3455,0.8823,0.2811,-12.110,6.720,-7.770,394.00,419,414,418,381,2025-06-04T19:40:54.397205
2080,-0.3548,0.8618,0.2996,-12.390,6.020,-7.525,405.00,405,345,343,382,2025-06-04T19:40:54.499938
2081,-0.3533,0.8579,0.3065,-12.880,5.005,-7.245,410.00,411,415,388,343,2025-06-04T19:40:54.499938
2082,-0.3523,0.8550,0.3128,-12.670,4.480,-6.580,384.00,422,410,400,325,2025-06-04T19:40:54.499938
2083,-0.3533,0.8394,0.3133,-13.125,3.850,-6.440,383.00,413,419,416,315,2025-06-04T19:40:54.499938
2084,-0.3587,0.8389,0.3118,-12.635,3.465,-6.405,393.00,410,353,413,343,2025-06-04T19:40:54.499938
2085,-0.3587,0.8316,0.3123,-12.880,3.535,-6.335,402.00,423,401,402,324,2025-06-04T19:40:54.499938
2086,-0.3640,0.8228,0.3138,-11.970,3.710,-5.915,354.00,393,413,411,354,2025-06-04T19:40:54.499938
2087,-0.3665,0.8154,0.3240,-11.445,4.865,-5.390,381.00,396,384,384,359,2025-06-04T19:40:54.499938
2088,-0.3811,0.8179,0.3338,-10.920,5.180,-5.180,373.00,400,418,418,379,2025-06-04T19:40:54.499938
2089,-0.3894,0.8135,0.3465,-9.835,5.320,-4.795,399.00,403,346,403,380,2025-06-04T19:40:54.499938
2090,-0.3914,0.8062,0.3499,-9.625,4.865,-4.305,399.00,406,396,428,373,2025-06-04T19:40:54.500577
2091,-0.4065,0.8013,0.3401,-9.310,3.220,-4.095,402.00,408,395,419,373,2025-06-04T19:40:54.500577
2092,-0.4153,0.7930,0.3338,-8.435,1.960,-4.515,393.00,413,419,425,367,2025-06-04T19:40:54.500577
2093,-0.4085,0.7871,0.3318,-8.190,1.505,-4.655,399.00,407,395,415,383,2025-06-04T19:40:54.500577
2094,-0.4114,0.7774,0.3392,-7.315,1.260,-5.005,405.00,415,430,421,382,2025-06-04T19:40:54.500577
2095,-0.4133,0.7857,0.3445,-7.070,1.225,-5.390,403.00,410,428,430,389,2025-06-04T19:40:54.814422
2096,-0.4138,0.7759,0.3538,-5.985,0.560,-5.670,409.00,418,429,430,361,2025-06-04T19:40:54.814604
2097,-0.4148,0.7871,0.3645,-4.725,-0.280,-6.440,396.00,392,307,412,333,2025-06-04T19:40:54.815091
2098,-0.4002,0.8086,0.3338,-2.065,0.280,-8.120,408.00,374,384,366,353,2025-06-04T19:40:54.815091
2099,-0.3977,0.8413,0.3084,-1.645,4.550,-10.535,392.00,333,333,408,364,2025-06-04T19:40:54.815604
2100,-0.4304,0.8438,0.2850,-3.115,9.835,-14.315,398.00,344,384,433,378,2025-06-04T19:40:54.815604
2101,-0.4553,0.8306,0.2806,-3.745,15.225,-17.675,410.00,346,417,422,383,2025-06-04T19:40:54.815604
2102,-0.4768,0.8096,0.2777,-6.370,18.095,-19.425,408.00,382,384,354,376,2025-06-04T19:40:54.815604
2103,-0.5168,0.7984,0.2982,-6.335,20.545,-19.390,411.00,392,426,344,349,2025-06-04T19:40:54.816016
2104,-0.5573,0.7745,0.3328,-3.570,19.145,-17.465,405.00,389,425,411,367,2025-06-04T19:40:54.816696
2105,-0.5666,0.7510,0.3518,0.665,14.840,-14.595,407.00,393,437,424,348,2025-06-04T19:40:54.816696
2106,-0.5797,0.7457,0.3333,-1.505,10.885,-11.865,389.00,398,431,426,361,2025-06-04T19:40:54.816696
2107,-0.5714,0.7222,0.3065,-0.105,6.020,-9.730,379.00,405,421,395,375,2025-06-04T19:40:54.816696
2108,-0.5505,0.7369,0.2996,0.070,3.010,-7.805,399.00,404,415,397,382,2025-06-04T19:40:54.816696
2109,-0.5275,0.7427,0.3021,-0.490,2.835,-6.440,409.00,401,399,388,375,2025-06-04T19:40:54.816696
2110,-0.5104,0.7476,0.3040,-0.630,2.415,-5.460,408.00,401,344,351,370,2025-06-04T19:40:54.816696
2111,-0.5100,0.7642,0.3221,-1.050,2.275,-4.725,398.00,407,407,417,339,2025-06-04T19:40:54.816696
2112,-0.4987,0.7662,0.3396,-0.665,1.820,-3.815,380.00,417,424,399,367,2025-06-04T19:40:54.891545
2113,-0.5017,0.7793,0.3431,-1.085,-0.280,-3.150,376.00,410,410,419,381,2025-06-04T19:40:54.891545
2114,-0.5002,0.7774,0.3377,-1.435,-3.430,-2.450,391.00,412,430,422,391,2025-06-04T19:40:54.891545
2115,-0.5007,0.7867,0.3436,-1.225,-7.525,-2.100,347.00,412,405,426,388,2025-06-04T19:40:54.892568
2116,-0.4890,0.8003,0.3528,-0.035,-10.990,-1.680,366.00,417,403,422,378,2025-06-04T19:40:54.892568
2117,-0.4558,0.8037,0.3670,1.645,-13.825,-0.490,385.00,413,420,381,382,2025-06-04T19:40:54.892568
2118,-0.4558,0.8198,0.3826,2.590,-16.800,0.175,393.00,416,410,419,392,2025-06-04T19:40:54.892568
2119,-0.4329,0.8262,0.3836,4.830,-18.900,0.455,401.00,421,427,351,388,2025-06-04T19:40:54.892568
2120,-0.4153,0.8379,0.3826,6.930,-19.810,0.455,351.00,419,418,386,341,2025-06-04T19:40:54.892568
2121,-0.3928,0.8481,0.3787,8.715,-19.460,0.385,377.00,420,419,412,367,2025-06-04T19:40:54.892568
2122,-0.3797,0.8574,0.3665,9.660,-17.605,-0.525,393.00,406,363,421,367,2025-06-04T19:40:54.892568
2123,-0.3621,0.8555,0.3562,11.340,-14.630,-1.750,394.00,411,397,426,341,2025-06-04T19:40:54.892568
2124,-0.3694,0.8701,0.3387,11.725,-11.340,-2.765,378.00,382,394,399,363,2025-06-04T19:40:54.892568
2125,-0.3528,0.8721,0.3392,12.845,-8.330,-3.675,372.00,363,388,403,377,2025-06-04T19:40:54.892568
2126,-0.3582,0.8808,0.3284,12.460,-6.510,-4.760,370.00,352,424,369,378,2025-06-04T19:40:54.892568
2127,-0.3606,0.8823,0.3118,11.655,-5.110,-5.950,373.00,379,415,412,338,2025-06-04T19:40:55.205231
2128,-0.3626,0.8843,0.2918,10.570,-4.585,-6.825,403.00,363,402,431,372,2025-06-04T19:40:55.205231
2129,-0.3640,0.8843,0.2840,8.505,-3.780,-7.385,350.00,379,431,346,376,2025-06-04T19:40:55.205231
2130,-0.3606,0.8823,0.2806,6.685,-3.080,-7.630,378.00,393,425,403,368,2025-06-04T19:40:55.205231
2131,-0.3626,0.8808,0.2772,4.480,-3.150,-7.175,377.00,403,413,402,388,2025-06-04T19:40:55.205231
2132,-0.3753,0.8774,0.2733,1.925,-3.185,-6.720,393.00,399,401,344,389,2025-06-04T19:40:55.205231
2133,-0.3753,0.8740,0.2664,0.385,-4.270,-6.125,408.00,372,406,419,385,2025-06-04T19:40:55.205231
2134,-0.3855,0.8721,0.2650,-1.505,-5.495,-5.705,389.00,391,418,355,375,2025-06-04T19:40:55.205231
2135,-0.3899,0.8662,0.2591,-2.835,-6.860,-5.320,398.00,406,421,385,382,2025-06-04T19:40:55.205231
2136,-0.3924,0.8628,0.2582,-3.885,-8.050,-5.110,389.00,413,418,403,342,2025-06-04T19:40:55.205231
2137,-0.3919,0.8530,0.2606,-4.620,-8.225,-5.180,383.00,417,415,424,362,2025-06-04T19:40:55.205231
2138,-0.3963,0.8486,0.2669,-5.040,-7.945,-5.285,391.00,415,403,423,365,2025-06-04T19:40:55.205231
2139,-0.4046,0.8389,0.2738,-5.320,-7.840,-5.740,392.00,391,425,432,371,2025-06-04T19:40:55.205231
2140,-0.4236,0.8403,0.2845,-5.635,-7.525,-6.440,381.00,399,351,397,365,2025-06-04T19:40:55.205231
2141,-0.4275,0.8174,0.2884,-5.285,-8.085,-6.650,371.00,403,405,417,377,2025-06-04T19:40:55.205231
2142,-0.4368,0.8130,0.2943,-5.215,-8.645,-6.930,394.00,380,382,408,384,2025-06-04T19:40:55.205231
2143,-0.4460,0.8101,0.2957,-4.865,-8.645,-6.755,351.00,365,396,362,375,2025-06-04T19:40:55.205231
2144,-0.4412,0.8081,0.3035,-3.955,-8.610,-7.140,383.00,394,402,340,377,2025-06-04T19:40:55.205231
2145,-0.4519,0.8076,0.3128,-4.480,-7.910,-7.420,390.00,409,400,398,395,2025-06-04T19:40:55.205231
2146,-0.4519,0.8062,0.3128,-4.445,-7.140,-7.525,399.00,416,410,379,391,2025-06-04T19:40:55.205231
2147,-0.4597,0.8028,0.3216,-3.815,-6.930,-7.490,388.00,421,424,420,380,2025-06-04T19:40:55.326986
2148,-0.4690,0.8028,0.3240,-3.885,-7.350,-7.315,356.00,416,437,408,385,2025-06-04T19:40:55.326986
2149,-0.4719,0.8023,0.3387,-3.395,-8.085,-7.245,329.00,419,434,415,374,2025-06-04T19:40:55.326986
2150,-0.4704,0.8052,0.3411,-3.255,-8.470,-6.965,368.00,421,421,386,377,2025-06-04T19:40:55.326986
2151,-0.4626,0.8047,0.3377,-3.535,-8.505,-6.370,374.00,429,422,403,385,2025-06-04T19:40:55.326986
2152,-0.4616,0.8057,0.3338,-2.800,-8.785,-5.705,388.00,429,425,420,364,2025-06-04T19:40:55.326986
2153,-0.4592,0.8067,0.3328,-2.590,-8.715,-5.075,344.00,429,420,432,349,2025-06-04T19:40:55.534343
2154,-0.4582,0.8120,0.3377,-2.030,-8.995,-4.655,373.00,424,364,406,333,2025-06-04T19:40:55.534343
2155,-0.4534,0.8145,0.3392,-1.750,-9.135,-4.270,367.00,388,415,419,348,2025-06-04T19:40:55.534343
2156,-0.4499,0.8154,0.3362,-1.645,-8.505,-3.990,391.00,404,404,387,372,2025-06-04T19:40:55.534343
2157,-0.4416,0.8194,0.3343,-1.085,-7.210,-3.570,402.00,380,407,421,378,2025-06-04T19:40:55.534343
2158,-0.4387,0.8159,0.3255,-0.980,-5.355,-3.045,365.00,396,361,420,392,2025-06-04T19:40:55.534343
2159,-0.4421,0.8140,0.3231,-0.350,-4.130,-2.590,385.00,396,388,425,389,2025-06-04T19:40:55.534343
2160,-0.4524,0.8179,0.3231,-0.595,-3.570,-2.310,395.00,406,396,407,383,2025-06-04T19:40:55.534343
2161,-0.4592,0.8140,0.3221,-0.280,-3.780,-2.100,386.00,381,419,346,391,2025-06-04T19:40:55.534343
2162,-0.4695,0.8135,0.3231,-0.315,-4.900,-1.820,374.00,395,404,389,382,2025-06-04T19:40:55.534343
2163,-0.4724,0.8086,0.3226,-0.350,-5.915,-1.575,396.00,346,423,421,385,2025-06-04T19:40:55.534343
2164,-0.4724,0.8062,0.3255,-0.350,-6.685,-1.260,385.00,371,405,398,381,2025-06-04T19:40:55.534742
2165,-0.4690,0.8047,0.3260,-0.490,-6.965,-0.980,386.00,360,426,425,372,2025-06-04T19:40:55.534742
2166,-0.4641,0.8018,0.3265,-0.595,-6.720,-0.840,350.00,382,413,415,383,2025-06-04T19:40:55.534742
2167,-0.4641,0.7993,0.3304,-0.840,-6.685,-0.770,384.00,387,414,430,356,2025-06-04T19:40:55.534742
2168,-0.4709,0.7998,0.3387,-0.945,-6.965,-0.770,391.00,395,412,379,327,2025-06-04T19:40:55.534742
2169,-0.4719,0.7979,0.3348,-1.330,-7.490,-0.840,397.00,402,429,399,369,2025-06-04T19:40:55.534742
2170,-0.4695,0.8023,0.3387,-1.155,-8.435,-0.665,400.00,411,413,395,380,2025-06-04T19:40:55.564940
2171,-0.4651,0.8003,0.3377,-1.085,-9.135,-0.280,397.00,417,419,418,380,2025-06-04T19:40:55.564940
2172,-0.4582,0.8037,0.3426,-0.875,-9.520,0.035,393.00,413,421,394,354,2025-06-04T19:40:55.564940
2173,-0.4582,0.8037,0.3431,-0.770,-9.800,0.210,347.00,407,414,426,381,2025-06-04T19:40:55.564940
2174,-0.4499,0.8057,0.3387,-0.630,-9.940,0.350,377.00,414,412,373,382,2025-06-04T19:40:55.564940
2175,-0.4480,0.8042,0.3338,0.000,-10.255,0.595,358.00,417,424,390,346,2025-06-04T19:40:55.564940
2176,-0.4397,0.8106,0.3333,0.210,-9.940,0.700,394.00,385,416,375,355,2025-06-04T19:40:55.564940
2177,-0.4319,0.8130,0.3353,0.665,-8.925,0.805,403.00,400,378,419,374,2025-06-04T19:40:55.564940
2178,-0.4255,0.8140,0.3279,1.015,-7.385,0.665,372.00,408,411,430,367,2025-06-04T19:40:55.564940
2179,-0.4299,0.8125,0.3231,1.120,-6.650,0.315,386.00,409,422,384,371,2025-06-04T19:40:55.564940
2180,-0.4353,0.8159,0.3250,1.715,-6.055,-0.070,380.00,407,425,343,362,2025-06-04T19:40:55.766915
2181,-0.4338,0.8145,0.3206,1.645,-6.195,-0.315,396.00,415,399,376,336,2025-06-04T19:40:55.766915
2182,-0.4363,0.8150,0.3187,1.295,-6.685,-0.420,366.00,414,352,424,354,2025-06-04T19:40:55.766915
2183,-0.4358,0.8154,0.3138,1.260,-7.210,-0.665,357.00,407,402,438,375,2025-06-04T19:40:55.766915
2184,-0.4333,0.8111,0.3123,0.980,-7.140,-0.770,393.00,401,392,430,335,2025-06-04T19:40:55.766915
2185,-0.4392,0.8120,0.3143,0.945,-6.965,-0.980,384.00,407,401,419,358,2025-06-04T19:40:55.766915
2186,-0.4377,0.8062,0.3152,0.665,-6.755,-1.050,389.00,414,353,396,365,2025-06-04T19:40:55.766915
2187,-0.4392,0.8091,0.3192,0.420,-6.440,-1.400,400.00,419,408,376,372,2025-06-04T19:40:55.766915
2188,-0.4368,0.8067,0.3143,-0.070,-5.915,-1.820,384.00,396,428,337,375,2025-06-04T19:40:55.766915
2189,-0.4348,0.8008,0.3118,-0.070,-5.355,-2.100,404.00,404,371,376,348,2025-06-04T19:40:55.766915
2190,-0.4382,0.8052,0.3123,-0.210,-4.725,-2.345,354.00,408,379,411,367,2025-06-04T19:40:55.766915
2191,-0.4441,0.8028,0.3182,-0.525,-4.235,-2.625,369.00,401,386,402,332,2025-06-04T19:40:55.766915
2192,-0.4397,0.8125,0.3240,-0.455,-3.850,-2.695,389.00,373,387,419,358,2025-06-04T19:40:55.766915
2193,-0.4499,0.8086,0.3235,-1.295,-3.710,-3.045,405.00,396,413,404,377,2025-06-04T19:40:55.766915
2194,-0.4529,0.8076,0.3192,-1.295,-4.130,-3.010,387.00,402,408,370,383,2025-06-04T19:40:55.766915
2195,-0.4582,0.8101,0.3255,-1.330,-4.725,-3.220,397.00,402,405,418,344,2025-06-04T19:40:55.766915
2196,-0.4607,0.8140,0.3294,-1.540,-4.970,-3.290,363.00,406,404,428,362,2025-06-04T19:40:55.766915
2197,-0.4616,0.8115,0.3318,-1.365,-5.285,-3.430,373.00,412,415,427,366,2025-06-04T19:40:55.933962
2198,-0.4616,0.8091,0.3309,-1.645,-5.390,-3.185,300.00,380,400,401,375,2025-06-04T19:40:55.933962
2199,-0.4656,0.8081,0.3323,-1.050,-5.705,-2.730,308.00,389,398,374,386,2025-06-04T19:40:55.933962
2200,-0.4641,0.8086,0.3333,-1.050,-5.845,-2.485,371.00,395,405,425,393,2025-06-04T19:40:55.933962
2201,-0.4709,0.8028,0.3382,-1.015,-5.915,-2.170,384.00,407,350,369,379,2025-06-04T19:40:55.933962
2202,-0.4660,0.8062,0.3421,-0.805,-6.300,-1.330,398.00,408,412,424,376,2025-06-04T19:40:55.933962
2203,-0.4704,0.8028,0.3348,-0.945,-6.510,-0.630,354.00,384,421,396,354,2025-06-04T19:40:55.933962
2204,-0.4724,0.7998,0.3338,-0.455,-7.245,0.105,391.00,398,408,405,370,2025-06-04T19:40:55.933962
2205,-0.4753,0.8003,0.3328,-0.420,-7.210,0.245,390.00,411,420,399,377,2025-06-04T19:40:55.933962
2206,-0.4699,0.7950,0.3348,-0.210,-6.790,0.315,377.00,403,421,421,368,2025-06-04T19:40:55.933962
2207,-0.4641,0.7959,0.3314,0.035,-6.300,0.455,383.00,403,420,411,376,2025-06-04T19:40:55.933962
2208,-0.4636,0.7930,0.3328,0.000,-5.495,0.350,345.00,377,423,418,389,2025-06-04T19:40:55.933962
2209,-0.4636,0.7964,0.3377,0.350,-5.075,0.385,378.00,335,398,425,390,2025-06-04T19:40:55.933962
2210,-0.4695,0.7954,0.3338,0.000,-5.215,0.245,341.00,364,400,431,371,2025-06-04T19:40:55.933962
2211,-0.4714,0.7959,0.3323,0.000,-6.300,0.175,374.00,380,362,431,336,2025-06-04T19:40:55.933962
2212,-0.4738,0.7993,0.3333,0.280,-7.700,0.070,392.00,392,417,398,368,2025-06-04T19:40:56.018668
2213,-0.4675,0.8032,0.3348,-0.140,-8.260,-0.035,346.00,379,403,347,375,2025-06-04T19:40:56.018668
2214,-0.4519,0.7993,0.3328,0.245,-8.645,0.175,382.00,400,381,388,389,2025-06-04T19:40:56.018668
2215,-0.4455,0.8018,0.3328,0.140,-7.840,0.245,400.00,402,413,395,376,2025-06-04T19:40:56.018668
2216,-0.4387,0.8042,0.3323,0.490,-6.685,0.315,371.00,402,392,385,375,2025-06-04T19:40:56.018668
2217,-0.4465,0.8072,0.3309,0.630,-5.810,0.210,387.00,412,424,399,380,2025-06-04T19:40:56.018668
2218,-0.4519,0.8086,0.3284,0.665,-5.985,0.105,398.00,405,347,410,342,2025-06-04T19:40:56.018668
2219,-0.4548,0.8125,0.3284,0.875,-6.580,0.035,396.00,377,378,402,371,2025-06-04T19:40:56.239703
2220,-0.4514,0.8086,0.3284,0.980,-7.420,0.035,407.00,384,345,413,365,2025-06-04T19:40:56.239703
2221,-0.4538,0.8076,0.3294,0.945,-7.735,-0.105,410.00,401,398,412,303,2025-06-04T19:40:56.239703
2222,-0.4499,0.8091,0.3289,1.015,-7.455,-0.140,406.00,376,423,423,338,2025-06-04T19:40:56.239703
2223,-0.4465,0.8072,0.3240,0.770,-6.860,-0.210,398.00,403,420,439,351,2025-06-04T19:40:56.239703
2224,-0.4519,0.8032,0.3221,0.525,-6.475,-0.140,384.00,376,431,403,355,2025-06-04T19:40:56.239703
2225,-0.4504,0.8057,0.3240,0.385,-6.160,-0.105,397.00,397,429,408,378,2025-06-04T19:40:56.239703
2226,-0.4504,0.8052,0.3192,-0.035,-6.195,-0.070,351.00,407,429,402,347,2025-06-04T19:40:56.239703
2227,-0.4582,0.8032,0.3221,0.035,-6.125,-0.140,384.00,411,439,343,372,2025-06-04T19:40:56.239703
2228,-0.4582,0.8057,0.3235,-0.280,-5.950,-0.140,406.00,417,427,405,366,2025-06-04T19:40:56.239703
2229,-0.4597,0.8067,0.3260,-0.385,-6.195,-0.280,416.00,414,430,417,381,2025-06-04T19:40:56.239703
2230,-0.4616,0.8032,0.3260,-0.420,-6.825,-0.210,404.00,375,351,420,360,2025-06-04T19:40:56.239703
2231,-0.4612,0.8028,0.3309,-0.245,-7.210,-0.175,408.00,364,416,425,371,2025-06-04T19:40:56.239703
2232,-0.4573,0.7979,0.3309,-0.350,-7.245,-0.210,386.00,395,407,401,372,2025-06-04T19:40:56.239703
2233,-0.4553,0.7989,0.3284,-0.630,-6.790,0.070,354.00,373,403,406,381,2025-06-04T19:40:56.239976
2234,-0.4573,0.7984,0.3284,-0.105,-6.335,0.140,381.00,387,400,371,375,2025-06-04T19:40:56.239976
2235,-0.4563,0.7979,0.3289,-0.035,-5.600,-8.960,372.00,401,396,415,341,2025-06-04T19:40:56.239976
2236,-0.4534,0.8003,0.3343,0.035,-4.970,-0.175,375.00,402,424,422,370,2025-06-04T19:40:56.239976
2237,-0.4612,0.8008,0.3367,-0.035,-5.075,-0.140,380.00,381,420,417,377,2025-06-04T19:40:56.559334
2238,-0.4602,0.7993,0.3372,-0.105,-5.600,0.000,374.00,390,356,379,388,2025-06-04T19:40:56.559334
2239,-0.4636,0.7954,0.3382,0.070,-6.510,0.000,394.00,408,392,422,384,2025-06-04T19:40:56.559334
2240,-0.4568,0.7974,0.3343,0.035,-7.000,0.035,356.00,402,430,428,396,2025-06-04T19:40:56.559334
2241,-0.4558,0.7998,0.3323,0.000,-7.385,0.000,350.00,416,308,421,394,2025-06-04T19:40:56.559334
2242,-0.4534,0.7974,0.3323,0.035,-7.070,-0.560,334.00,380,369,397,384,2025-06-04T19:40:56.559334
2243,-0.4519,0.7993,0.3377,0.245,-6.580,-0.735,365.00,393,384,409,370,2025-06-04T19:40:56.559334
2244,-0.4485,0.7989,0.3353,0.035,-6.160,-0.735,353.00,400,369,420,339,2025-06-04T19:40:56.559334
2245,-0.4553,0.8013,0.3338,0.245,-5.880,-0.805,368.00,379,414,413,363,2025-06-04T19:40:56.559334
2246,-0.4553,0.8003,0.3333,0.455,-6.020,-0.735,378.00,387,426,408,362,2025-06-04T19:40:56.559334
2247,-0.4573,0.8023,0.3314,0.350,-6.160,-0.770,401.00,389,416,412,345,2025-06-04T19:40:56.559334
2248,-0.4543,0.8023,0.3309,0.525,-6.230,-0.630,388.00,403,402,379,366,2025-06-04T19:40:56.559334
2249,-0.4504,0.8042,0.3274,0.385,-5.950,-0.385,385.00,413,423,407,379,2025-06-04T19:40:56.559334
2250,-0.4494,0.8062,0.3235,0.315,-5.495,-0.175,392.00,421,427,414,374,2025-06-04T19:40:56.559334
2251,-0.4465,0.8062,0.3221,0.280,-5.180,-0.280,394.00,412,399,419,382,2025-06-04T19:40:56.559334
2252,-0.4470,0.8062,0.3192,0.105,-4.585,-0.350,405.00,415,417,390,390,2025-06-04T19:40:56.559334
2253,-0.4465,0.8106,0.3196,-0.140,-4.235,-0.350,400.00,391,434,405,387,2025-06-04T19:40:56.559334
2254,-0.4514,0.8072,0.3182,-0.420,-4.200,-0.455,401.00,394,421,391,379,2025-06-04T19:40:56.559334
2255,-0.4563,0.8057,0.3152,-0.700,-4.585,-0.875,345.00,391,434,419,388,2025-06-04T19:40:56.559334
2256,-0.4543,0.8042,0.3187,-0.805,-5.005,-0.840,379.00,393,413,403,374,2025-06-04T19:40:56.648960
2257,-0.4563,0.7989,0.3182,-1.225,-5.215,-0.945,385.00,396,368,364,379,2025-06-04T19:40:56.648960
2258,-0.4529,0.7974,0.3216,-1.120,-5.075,-1.085,381.00,403,421,392,392,2025-06-04T19:40:56.648960
2259,-0.4563,0.7993,0.3226,-1.015,-4.620,-0.945,404.00,409,409,417,380,2025-06-04T19:40:56.648960
2260,-0.4577,0.7969,0.3318,-0.840,-4.200,-0.910,396.00,407,400,423,383,2025-06-04T19:40:56.648960
2261,-0.4612,0.8013,0.3284,-0.665,-4.060,-0.840,346.00,413,411,433,373,2025-06-04T19:40:56.648960
2262,-0.4685,0.7935,0.3348,-0.210,-4.375,-1.085,372.00,395,401,430,386,2025-06-04T19:40:56.648960
2263,-0.4787,0.7901,0.3416,0.385,-5.670,-1.085,385.00,402,424,428,380,2025-06-04T19:40:56.648960
2264,-0.4802,0.7886,0.3450,0.665,-6.895,-0.980,358.00,415,416,383,380,2025-06-04T19:40:56.648960
2265,-0.4856,0.7881,0.3543,1.085,-8.295,-1.050,335.00,411,419,400,310,2025-06-04T19:40:56.648960
2266,-0.4734,0.7910,0.3548,1.260,-9.030,-1.190,360.00,381,389,430,354,2025-06-04T19:40:56.648960
2267,-0.4665,0.7920,0.3548,1.225,-8.960,-1.435,392.00,361,403,405,357,2025-06-04T19:40:56.648960
2268,-0.4724,0.7959,0.3514,1.260,-8.890,-1.750,397.00,383,338,432,378,2025-06-04T19:40:56.648960
2269,-0.4690,0.8028,0.3494,1.435,-8.995,-2.030,362.00,401,380,422,388,2025-06-04T19:40:56.648960
2270,-0.4577,0.8081,0.3455,0.980,-8.715,-2.170,390.00,372,394,427,342,2025-06-04T19:40:56.648960
2271,-0.4553,0.8120,0.3445,0.560,-7.910,-1.925,400.00,361,425,436,365,2025-06-04T19:40:56.937541
2272,-0.4587,0.8140,0.3436,0.630,-7.105,-1.575,402.00,391,354,395,365,2025-06-04T19:40:56.937541
2273,-0.4651,0.8130,0.3382,0.630,-7.245,-1.050,347.00,396,424,427,369,2025-06-04T19:40:56.937541
2274,-0.4734,0.8096,0.3353,0.210,-8.120,-0.490,385.00,400,403,413,375,2025-06-04T19:40:56.937541
2275,-0.4709,0.8052,0.3318,0.420,-9.275,0.175,380.00,382,401,394,389,2025-06-04T19:40:56.937541
2276,-0.4651,0.7989,0.3284,0.455,-9.835,0.665,376.00,404,422,378,353,2025-06-04T19:40:56.937541
2277,-0.4587,0.7993,0.3284,0.805,-9.275,0.875,378.00,380,429,336,327,2025-06-04T19:40:56.937541
2278,-0.4558,0.7935,0.3201,0.840,-8.575,0.945,402.00,400,430,385,366,2025-06-04T19:40:56.937541
2279,-0.4529,0.7925,0.3152,0.945,-7.420,0.875,406.00,380,391,413,370,2025-06-04T19:40:56.937541
2280,-0.4519,0.7910,0.3143,1.225,-6.475,0.630,372.00,388,351,387,375,2025-06-04T19:40:56.937541
2281,-0.4558,0.7920,0.3177,1.260,-5.880,0.525,377.00,392,402,426,376,2025-06-04T19:40:56.937541
2282,-0.4553,0.7920,0.3201,1.435,-5.985,0.105,382.00,399,402,439,381,2025-06-04T19:40:56.937541
2283,-0.4612,0.7964,0.3216,1.260,-6.195,-0.490,399.00,409,401,415,376,2025-06-04T19:40:56.937541
2284,-0.4646,0.7989,0.3255,1.365,-6.860,-0.980,386.00,380,415,425,342,2025-06-04T19:40:56.937541
2285,-0.4602,0.8018,0.3255,1.190,-7.315,-1.155,369.00,382,306,429,370,2025-06-04T19:40:56.937541
2286,-0.4529,0.7974,0.3270,0.700,-7.315,-0.875,301.00,396,405,409,380,2025-06-04T19:40:56.937541
2287,-0.4538,0.8003,0.3289,0.665,-6.965,-0.665,364.00,375,426,424,393,2025-06-04T19:40:57.050729
2288,-0.4538,0.8037,0.3318,0.665,-6.440,-0.700,382.00,374,430,409,389,2025-06-04T19:40:57.050729
2289,-0.4548,0.8037,0.3323,0.595,-6.300,-0.490,379.00,387,421,397,383,2025-06-04T19:40:57.050729
2290,-0.4543,0.8013,0.3284,0.490,-6.195,-0.315,395.00,407,422,381,378,2025-06-04T19:40:57.050729
2291,-0.4538,0.8057,0.3274,0.560,-5.740,-0.315,390.00,419,420,406,395,2025-06-04T19:40:57.050729
2292,-0.4548,0.8047,0.3240,0.490,-5.250,-0.595,394.00,423,399,423,394,2025-06-04T19:40:57.050729
2293,-0.4577,0.8023,0.3255,0.455,-5.460,-0.910,394.00,362,346,424,353,2025-06-04T19:40:57.050729
2294,-0.4665,0.8013,0.3211,0.245,-5.845,-1.260,386.00,377,394,433,373,2025-06-04T19:40:57.050729
2295,-0.4690,0.7964,0.3260,0.210,-6.510,-1.330,397.00,387,395,426,349,2025-06-04T19:40:57.050729
2296,-0.4607,0.7989,0.3265,0.245,-6.755,-1.190,409.00,391,417,435,370,2025-06-04T19:40:57.050729
2297,-0.4631,0.7993,0.3328,-0.210,-6.090,-1.435,407.00,394,401,396,370,2025-06-04T19:40:57.050729
2298,-0.4568,0.7969,0.3299,0.105,-5.600,-1.575,406.00,374,347,394,332,2025-06-04T19:40:57.051727
2299,-0.4670,0.7954,0.3318,-0.210,-5.425,-1.645,358.00,396,406,408,350,2025-06-04T19:40:57.051727
2300,-0.4641,0.7930,0.3338,-0.035,-5.775,-1.540,370.00,404,427,387,362,2025-06-04T19:40:57.051727
2301,-0.4636,0.7954,0.3328,-0.105,-5.670,-1.505,387.00,412,364,410,339,2025-06-04T19:40:57.051727
2302,-0.4573,0.7915,0.3338,-0.280,-5.390,-1.085,381.00,415,408,381,363,2025-06-04T19:40:57.051727
2303,-0.4587,0.7979,0.3396,0.350,-5.285,-1.190,379.00,413,431,411,377,2025-06-04T19:40:57.280730
2304,-0.4680,0.7969,0.3353,0.000,-5.565,-1.470,391.00,408,438,421,383,2025-06-04T19:40:57.280730
2305,-0.4665,0.7954,0.3343,0.210,-6.405,-1.785,340.00,383,426,412,354,2025-06-04T19:40:57.280730
2306,-0.4675,0.8013,0.3372,0.385,-7.140,-1.960,291.00,399,350,395,369,2025-06-04T19:40:57.280730
2307,-0.4612,0.8013,0.3382,0.280,-7.140,-2.030,341.00,371,326,402,345,2025-06-04T19:40:57.280730
2308,-0.4680,0.7993,0.3382,0.420,-6.930,-2.030,369.00,394,365,401,369,2025-06-04T19:40:57.280730
2309,-0.4641,0.7979,0.3382,0.420,-7.000,-1.960,388.00,409,394,437,338,2025-06-04T19:40:57.280730
2310,-0.4743,0.7979,0.3401,0.630,-7.280,-1.995,394.00,406,432,425,359,2025-06-04T19:40:57.280730
2311,-0.4704,0.7954,0.3401,0.770,-7.455,-1.925,388.00,417,428,407,378,2025-06-04T19:40:57.280730
2312,-0.4719,0.7959,0.3421,1.050,-7.875,-1.820,394.00,420,430,396,382,2025-06-04T19:40:57.280730
2313,-0.4758,0.7979,0.3401,1.155,-8.155,-1.680,363.00,387,423,397,381,2025-06-04T19:40:57.280730
2314,-0.4729,0.8003,0.3372,1.400,-8.400,-1.645,377.00,389,418,425,372,2025-06-04T19:40:57.280730
2315,-0.4675,0.7993,0.3289,1.400,-8.260,-1.470,399.00,391,421,421,375,2025-06-04T19:40:57.280730
2316,-0.4646,0.7989,0.3289,1.610,-7.595,-1.295,380.00,394,419,348,383,2025-06-04T19:40:57.280730
2317,-0.4641,0.8023,0.3333,1.855,-6.685,-0.910,377.00,402,423,414,380,2025-06-04T19:40:57.280730
2318,-0.4685,0.7998,0.3318,1.505,-6.230,-0.700,341.00,399,410,393,379,2025-06-04T19:40:57.280730
2319,-0.4748,0.7989,0.3309,1.505,-7.000,-0.700,364.00,405,430,415,373,2025-06-04T19:40:57.281725
2320,-0.4807,0.7959,0.3265,1.260,-7.875,-0.630,388.00,352,415,340,381,2025-06-04T19:40:57.281725
2321,-0.4734,0.8013,0.3328,1.470,-8.575,-0.630,391.00,371,420,404,382,2025-06-04T19:40:57.281725
2322,-0.4714,0.7974,0.3231,0.875,-8.400,-0.735,348.00,383,349,420,390,2025-06-04T19:40:57.553271
2323,-0.4651,0.7964,0.3206,0.805,-7.980,-0.630,381.00,363,410,435,388,2025-06-04T19:40:57.553271
2324,-0.4651,0.7959,0.3250,0.735,-7.070,-0.490,400.00,357,417,421,386,2025-06-04T19:40:57.553271
2325,-0.4646,0.7979,0.3235,0.350,-6.265,-0.525,407.00,368,435,396,357,2025-06-04T19:40:57.553271
2326,-0.4690,0.7950,0.3216,0.315,-6.335,-0.420,398.00,365,415,404,361,2025-06-04T19:40:57.553271
2327,-0.4724,0.7959,0.3240,0.315,-6.475,-0.385,401.00,378,362,419,364,2025-06-04T19:40:57.553271
2328,-0.4641,0.7954,0.3255,0.350,-6.790,-0.105,348.00,356,410,410,366,2025-06-04T19:40:57.554225
2329,-0.4656,0.7954,0.3299,0.560,-6.720,-0.070,386.00,379,350,375,368,2025-06-04T19:40:57.554225
2330,-0.4651,0.7950,0.3250,0.350,-6.685,-0.280,350.00,399,408,374,386,2025-06-04T19:40:57.554225
2331,-0.4646,0.7954,0.3226,0.420,-6.055,-0.420,349.00,395,398,413,372,2025-06-04T19:40:57.554225
2332,-0.4582,0.7974,0.3274,0.700,-5.845,-0.420,365.00,408,414,371,365,2025-06-04T19:40:57.554225
2333,-0.4656,0.7950,0.3279,0.245,-5.460,-0.385,391.00,409,396,413,371,2025-06-04T19:40:57.554225
2334,-0.4685,0.7930,0.3279,0.350,-5.740,-0.350,405.00,414,379,416,372,2025-06-04T19:40:57.554225
2335,-0.4724,0.7964,0.3299,0.315,-6.090,-0.385,391.00,409,404,386,374,2025-06-04T19:40:57.554225
2336,-0.4719,0.7964,0.3294,0.350,-6.335,-0.420,348.00,406,378,374,389,2025-06-04T19:40:57.554225
2337,-0.4680,0.8003,0.3333,0.455,-6.405,-0.385,380.00,408,386,364,392,2025-06-04T19:40:57.554225
2338,-0.4719,0.7979,0.3318,0.315,-6.125,-0.525,356.00,408,410,414,385,2025-06-04T19:40:57.554225
2339,-0.4656,0.7993,0.3357,0.525,-5.810,-0.560,384.00,384,411,397,368,2025-06-04T19:40:57.554225
2340,-0.4699,0.7989,0.3304,0.070,-5.530,-0.490,397.00,397,434,407,365,2025-06-04T19:40:57.554225
2341,-0.4719,0.8003,0.3338,0.245,-5.950,-0.525,386.00,399,433,416,370,2025-06-04T19:40:57.554225
2342,-0.4734,0.8008,0.3333,0.315,-6.580,-0.385,390.00,413,403,411,371,2025-06-04T19:40:57.678459
2343,-0.4724,0.7974,0.3314,-0.035,-7.105,-0.525,380.00,409,418,429,372,2025-06-04T19:40:57.678459
2344,-0.4709,0.7984,0.3328,-0.035,-7.280,-0.700,397.00,408,384,417,371,2025-06-04T19:40:57.678459
2345,-0.4602,0.7993,0.3382,0.140,-6.720,-0.595,399.00,377,415,424,391,2025-06-04T19:40:57.678459
2346,-0.4656,0.7998,0.3309,-0.070,-6.265,-0.700,382.00,402,428,418,349,2025-06-04T19:40:57.679451
2347,-0.4636,0.7935,0.3260,0.000,-6.055,-0.595,380.00,416,431,420,375,2025-06-04T19:40:57.679451
2348,-0.4719,0.7950,0.3289,0.210,-6.300,-0.700,392.00,423,419,418,351,2025-06-04T19:40:57.679451
2349,-0.4685,0.7969,0.3294,0.140,-6.580,-0.630,402.00,425,417,400,337,2025-06-04T19:40:57.679451
2350,-0.4690,0.7906,0.3314,0.595,-7.210,-0.770,404.00,393,424,426,372,2025-06-04T19:40:57.679451
2351,-0.4704,0.7906,0.3279,0.455,-7.315,-0.840,411.00,396,415,425,381,2025-06-04T19:40:57.679451
2352,-0.4665,0.7925,0.3299,0.665,-6.930,-1.050,412.00,410,414,411,384,2025-06-04T19:40:57.680090
2353,-0.4651,0.7930,0.3309,0.770,-6.265,-1.085,410.00,417,417,419,380,2025-06-04T19:40:57.680090
2354,-0.4714,0.7945,0.3289,0.210,-6.230,-1.155,401.00,416,427,416,373,2025-06-04T19:40:57.680090
2355,-0.4699,0.7950,0.3289,0.455,-6.230,-1.050,405.00,416,396,398,339,2025-06-04T19:40:57.724090
2356,-0.4743,0.7954,0.3309,0.070,-6.300,-1.120,400.00,393,416,347,348,2025-06-04T19:40:57.724090
2357,-0.4699,0.7964,0.3299,0.000,-6.545,-1.015,365.00,393,423,395,363,2025-06-04T19:40:57.724090
2358,-0.4753,0.7950,0.3289,-0.175,-6.545,-0.945,384.00,407,402,366,366,2025-06-04T19:40:57.724090
2359,-0.4724,0.7964,0.3314,-0.140,-6.615,-1.120,385.00,407,398,399,373,2025-06-04T19:40:57.909422
2360,-0.4734,0.7950,0.3338,0.070,-6.755,-1.190,391.00,405,408,367,385,2025-06-04T19:40:57.909422
2361,-0.4714,0.7940,0.3279,-0.210,-7.070,-0.735,393.00,413,411,406,376,2025-06-04T19:40:57.909690
2362,-0.4695,0.7954,0.3309,0.315,-7.210,-0.595,388.00,411,425,427,377,2025-06-04T19:40:57.909690
2363,-0.4724,0.7920,0.3294,0.315,-6.825,-0.560,396.00,383,407,414,350,2025-06-04T19:40:57.909690
2364,-0.4699,0.7950,0.3314,0.595,-6.685,-0.420,364.00,397,398,431,369,2025-06-04T19:40:57.909690
2365,-0.4714,0.7910,0.3318,0.455,-6.195,-0.210,372.00,410,435,432,348,2025-06-04T19:40:57.909690
2366,-0.4729,0.7915,0.3357,0.630,-6.125,-0.175,394.00,416,385,420,295,2025-06-04T19:40:57.909690
2367,-0.4758,0.7891,0.3304,0.665,-6.090,-0.140,387.00,417,398,402,336,2025-06-04T19:40:57.909690
2368,-0.4719,0.7920,0.3299,0.840,-6.405,-0.070,402.00,424,428,408,364,2025-06-04T19:40:57.909690
2369,-0.4709,0.7969,0.3328,0.910,-6.090,-0.490,403.00,420,413,392,334,2025-06-04T19:40:57.909690
2370,-0.4704,0.8023,0.3333,0.665,-5.705,-0.945,354.00,414,433,403,353,2025-06-04T19:40:57.909690
2371,-0.4704,0.8032,0.3318,0.420,-5.600,-0.980,385.00,412,425,398,336,2025-06-04T19:40:57.909690
2372,-0.4719,0.8018,0.3270,0.035,-5.845,-0.700,400.00,393,348,341,349,2025-06-04T19:40:57.909690
2373,-0.4753,0.7998,0.3333,0.105,-6.440,-0.455,403.00,394,405,381,359,2025-06-04T19:40:57.909690
2374,-0.4802,0.7959,0.3348,0.105,-7.105,-0.245,400.00,398,406,401,373,2025-06-04T19:40:58.099962
2375,-0.4768,0.7945,0.3348,0.140,-7.630,-0.210,404.00,377,422,424,389,2025-06-04T19:40:58.099962
2376,-0.4734,0.7915,0.3338,0.315,-7.595,0.140,403.00,386,422,383,371,2025-06-04T19:40:58.099962
2377,-0.4685,0.7871,0.3323,0.315,-6.860,0.385,385.00,391,395,399,381,2025-06-04T19:40:58.099962
2378,-0.4636,0.7867,0.3318,0.875,-6.020,0.525,379.00,397,392,376,389,2025-06-04T19:40:58.099962
2379,-0.4675,0.7886,0.3265,0.700,-5.425,0.245,374.00,397,429,414,357,2025-06-04T19:40:58.099962
2380,-0.4787,0.7857,0.3289,0.770,-5.705,-0.070,387.00,400,411,412,341,2025-06-04T19:40:58.100341
2381,-0.4812,0.7906,0.3304,0.735,-6.265,-0.630,380.00,414,355,399,350,2025-06-04T19:40:58.100341
2382,-0.4729,0.7891,0.3279,0.560,-6.895,-0.665,399.00,414,414,421,371,2025-06-04T19:40:58.100341
2383,-0.4748,0.7906,0.3289,0.455,-7.210,-0.665,399.00,410,400,373,375,2025-06-04T19:40:58.100341
2384,-0.4719,0.7901,0.3314,0.140,-6.860,-0.875,384.00,352,355,398,376,2025-06-04T19:40:58.100654
2385,-0.4670,0.7950,0.3304,0.210,-6.475,-1.190,363.00,379,389,398,347,2025-06-04T19:40:58.100728
2386,-0.4704,0.7910,0.3318,-0.210,-6.090,-1.330,387.00,392,357,341,354,2025-06-04T19:40:58.100728
2387,-0.4709,0.7935,0.3328,-0.140,-6.265,-1.365,385.00,402,398,393,365,2025-06-04T19:40:58.100728
2388,-0.4724,0.7935,0.3333,-0.140,-6.545,-1.155,385.00,411,409,383,363,2025-06-04T19:40:58.100728
2389,-0.4738,0.7935,0.3382,0.000,-6.790,-0.735,379.00,407,430,429,373,2025-06-04T19:40:58.311374
2390,-0.4714,0.7979,0.3309,0.000,-6.930,-0.490,392.00,421,353,429,365,2025-06-04T19:40:58.311374
2391,-0.4690,0.7989,0.3318,0.245,-6.720,-0.455,383.00,411,397,434,382,2025-06-04T19:40:58.311374
2392,-0.4670,0.7993,0.3309,0.525,-6.370,-0.350,388.00,407,395,415,373,2025-06-04T19:40:58.311374
2393,-0.4714,0.7993,0.3265,0.385,-5.670,-0.490,385.00,415,398,419,379,2025-06-04T19:40:58.311374
2394,-0.4719,0.7979,0.3274,0.910,-5.495,-0.280,389.00,416,351,417,387,2025-06-04T19:40:58.311374
2395,-0.4743,0.7959,0.3289,0.910,-5.320,-0.140,380.00,385,415,343,341,2025-06-04T19:40:58.311374
2396,-0.4768,0.7993,0.3333,0.840,-5.635,-0.210,380.00,399,423,372,359,2025-06-04T19:40:58.311374
2397,-0.4773,0.7940,0.3323,0.595,-6.510,-0.245,393.00,404,402,387,370,2025-06-04T19:40:58.311374
2398,-0.4763,0.7920,0.3284,0.315,-7.315,-0.315,404.00,403,391,412,377,2025-06-04T19:40:58.311374
2399,-0.4704,0.7871,0.3294,0.490,-7.770,-0.280,395.00,407,398,382,388,2025-06-04T19:40:58.311374
2400,-0.4616,0.7920,0.3328,0.455,-7.245,-0.315,398.00,382,403,406,385,2025-06-04T19:40:58.311374
2401,-0.4675,0.7906,0.3309,0.210,-6.230,-0.665,395.00,384,354,422,390,2025-06-04T19:40:58.312373
2402,-0.4675,0.7896,0.3318,0.665,-5.810,-0.910,384.00,339,395,406,390,2025-06-04T19:40:58.312373
2403,-0.4758,0.7906,0.3274,0.595,-5.775,-0.980,345.00,377,339,396,346,2025-06-04T19:40:58.312373
2404,-0.4782,0.7920,0.3323,0.665,-6.230,-1.085,395.00,357,332,343,368,2025-06-04T19:40:58.312373
2405,-0.4768,0.7906,0.3333,0.735,-6.580,-1.120,345.00,369,408,375,365,2025-06-04T19:40:58.312373
2406,-0.4817,0.7935,0.3343,0.385,-6.755,-1.225,369.00,384,439,390,384,2025-06-04T19:40:58.312373
2407,-0.4792,0.7886,0.3328,0.665,-7.490,-1.435,338.00,404,419,399,387,2025-06-04T19:40:58.489109
2408,-0.4797,0.7901,0.3333,0.385,-7.595,-1.575,377.00,377,422,299,375,2025-06-04T19:40:58.489109
2409,-0.4724,0.7920,0.3343,0.490,-7.595,-1.575,396.00,388,426,412,310,2025-06-04T19:40:58.489109
2410,-0.4675,0.7959,0.3304,0.315,-6.930,-1.645,406.00,408,415,418,358,2025-06-04T19:40:58.489109
2411,-0.4704,0.7930,0.3294,0.000,-5.810,-1.540,412.00,413,429,345,329,2025-06-04T19:40:58.489877
2412,-0.4758,0.7940,0.3294,0.385,-5.460,-1.365,415.00,419,403,388,370,2025-06-04T19:40:58.489877
2413,-0.4821,0.7954,0.3289,-0.035,-5.600,-1.085,397.00,412,403,424,369,2025-06-04T19:40:58.489877
2414,-0.4865,0.7969,0.3314,-0.035,-6.405,-0.630,383.00,418,420,427,380,2025-06-04T19:40:58.489877
2415,-0.4860,0.7915,0.3289,-0.070,-7.035,-0.350,359.00,417,417,437,390,2025-06-04T19:40:58.489877
2416,-0.4792,0.7915,0.3240,0.000,-7.315,-0.245,344.00,382,420,417,394,2025-06-04T19:40:58.489877
2417,-0.4753,0.7871,0.3245,0.140,-7.035,0.000,375.00,391,409,419,382,2025-06-04T19:40:58.489877
2418,-0.4704,0.7901,0.3289,0.210,-6.335,0.105,395.00,398,402,426,391,2025-06-04T19:40:58.489877
2419,-0.4738,0.7886,0.3304,0.280,-5.775,-0.175,383.00,403,423,425,374,2025-06-04T19:40:58.489877
2420,-0.4763,0.7915,0.3353,0.455,-5.250,-0.175,399.00,392,384,423,381,2025-06-04T19:40:58.489877
2421,-0.4782,0.7915,0.3333,0.385,-5.285,-0.175,405.00,404,429,351,387,2025-06-04T19:40:58.723596
2422,-0.4826,0.7940,0.3328,0.315,-5.985,-0.140,389.00,413,438,342,313,2025-06-04T19:40:58.723596
2423,-0.4836,0.7915,0.3357,0.420,-7.070,-0.035,381.00,406,425,400,361,2025-06-04T19:40:58.723596
2424,-0.4826,0.7910,0.3411,0.210,-7.665,-0.210,396.00,386,404,406,369,2025-06-04T19:40:58.723596
2425,-0.4792,0.7930,0.3416,0.280,-7.980,-0.315,388.00,393,425,344,384,2025-06-04T19:40:58.723596
2426,-0.4743,0.7896,0.3406,0.210,-7.770,-0.420,348.00,375,426,363,390,2025-06-04T19:40:58.724681
2427,-0.4714,0.7920,0.3396,0.525,-7.700,-0.455,388.00,389,419,391,387,2025-06-04T19:40:58.724681
2428,-0.4748,0.7930,0.3328,0.455,-7.630,-0.595,384.00,368,430,350,348,2025-06-04T19:40:58.724681
2429,-0.4704,0.7964,0.3353,0.665,-7.280,-0.560,404.00,385,433,394,373,2025-06-04T19:40:58.724681
2430,-0.4680,0.7969,0.3323,0.700,-6.825,-0.560,403.00,367,422,403,380,2025-06-04T19:40:58.724681
2431,-0.4670,0.7945,0.3294,0.770,-6.405,-0.420,368.00,365,425,415,341,2025-06-04T19:40:58.724681
2432,-0.4748,0.7925,0.3284,0.770,-6.405,-0.350,392.00,389,415,430,376,2025-06-04T19:40:58.724681
2433,-0.4826,0.7896,0.3274,0.665,-6.790,-0.245,398.00,397,422,425,373,2025-06-04T19:40:58.724681
2434,-0.4821,0.7852,0.3265,0.735,-7.385,-0.105,406.00,377,434,429,340,2025-06-04T19:40:58.724681
2435,-0.4797,0.7828,0.3279,0.700,-7.630,0.105,401.00,399,430,403,364,2025-06-04T19:40:58.724681
2436,-0.4797,0.7828,0.3274,0.840,-7.350,-0.245,393.00,369,419,340,327,2025-06-04T19:40:58.724681
2437,-0.4738,0.7842,0.3270,0.840,-6.895,-0.560,398.00,390,421,406,323,2025-06-04T19:40:58.724681
2438,-0.4709,0.7881,0.3260,0.595,-6.230,-0.560,388.00,370,433,407,349,2025-06-04T19:40:58.724681
2439,-0.4695,0.7925,0.3265,0.630,-5.845,-0.560,398.00,367,405,422,367,2025-06-04T19:40:58.724681
2440,-0.4724,0.7940,0.3250,0.350,-5.565,-0.630,398.00,389,401,407,373,2025-06-04T19:40:58.900036
2441,-0.4753,0.7974,0.3314,0.490,-5.600,-0.700,385.00,390,418,425,368,2025-06-04T19:40:58.900036
2442,-0.4738,0.7984,0.3328,0.245,-5.635,-0.490,386.00,407,347,343,359,2025-06-04T19:40:58.900036
2443,-0.4768,0.7974,0.3309,0.000,-6.090,-0.280,388.00,401,412,356,381,2025-06-04T19:40:58.901038
2444,-0.4768,0.7945,0.3289,0.350,-6.650,-0.210,393.00,405,420,423,375,2025-06-04T19:40:58.901038
2445,-0.4729,0.7915,0.3284,0.070,-6.615,0.000,404.00,405,403,401,379,2025-06-04T19:40:58.901038
2446,-0.4704,0.7930,0.3289,0.385,-6.160,-0.105,388.00,385,400,302,376,2025-06-04T19:40:58.901038
2447,-0.4695,0.7920,0.3250,0.455,-5.460,-0.175,392.00,368,401,376,373,2025-06-04T19:40:58.901038
2448,-0.4714,0.7886,0.3250,0.420,-4.970,-0.560,387.00,384,406,412,389,2025-06-04T19:40:58.901038
2449,-0.4763,0.7896,0.3265,0.560,-5.110,-0.700,381.00,394,427,425,389,2025-06-04T19:40:58.901038
2450,-0.4797,0.7906,0.3289,0.315,-5.355,-0.980,389.00,393,400,373,377,2025-06-04T19:40:58.901038
2451,-0.4821,0.7886,0.3270,0.210,-6.195,-0.875,341.00,401,393,394,377,2025-06-04T19:40:58.901038
2452,-0.4826,0.7906,0.3279,-0.035,-6.580,-0.910,377.00,398,394,346,390,2025-06-04T19:40:58.901038
2453,-0.4734,0.7901,0.3279,0.140,-6.300,-0.910,356.00,413,425,402,382,2025-06-04T19:40:59.099764
2454,-0.4846,0.7876,0.3338,0.035,-6.090,-1.190,375.00,416,411,404,345,2025-06-04T19:40:59.104632
2455,-0.4768,0.7891,0.3382,0.140,-6.265,-1.120,393.00,417,418,393,375,2025-06-04T19:40:59.104632
2456,-0.4831,0.7891,0.3382,0.140,-6.265,-1.155,386.00,417,406,383,369,2025-06-04T19:40:59.104632
2457,-0.4817,0.7896,0.3406,0.455,-6.580,-1.295,400.00,391,395,404,387,2025-06-04T19:40:59.104632
2458,-0.4836,0.7935,0.3377,0.490,-6.650,-1.470,412.00,401,414,425,385,2025-06-04T19:40:59.104632
2459,-0.4802,0.7979,0.3387,0.525,-6.895,-1.295,406.00,407,345,344,348,2025-06-04T19:40:59.104632
2460,-0.4831,0.8008,0.3377,0.490,-6.685,-1.365,410.00,404,355,411,367,2025-06-04T19:40:59.104632
2461,-0.4851,0.8003,0.3401,0.560,-6.755,-1.225,402.00,376,413,428,377,2025-06-04T19:40:59.104632
2462,-0.4851,0.8003,0.3392,0.560,-6.790,-0.945,400.00,365,425,410,355,2025-06-04T19:40:59.104632
2463,-0.4831,0.7954,0.3353,0.385,-7.210,-0.490,387.00,377,353,340,330,2025-06-04T19:40:59.104632
2464,-0.4880,0.7915,0.3357,0.315,-7.420,-0.175,408.00,386,408,338,362,2025-06-04T19:40:59.104632
2465,-0.4792,0.7896,0.3338,0.385,-7.525,0.420,406.00,400,399,412,382,2025-06-04T19:40:59.104632
2466,-0.4817,0.7847,0.3323,0.385,-7.280,0.665,398.00,403,415,416,394,2025-06-04T19:40:59.104632
2467,-0.4787,0.7823,0.3284,0.630,-7.070,0.770,350.00,412,363,422,343,2025-06-04T19:40:59.104632
2468,-0.4821,0.7837,0.3231,0.665,-6.895,0.665,376.00,388,345,400,328,2025-06-04T19:40:59.104632
2469,-0.4807,0.7823,0.3231,0.910,-6.755,0.420,358.00,397,330,427,350,2025-06-04T19:40:59.104632
2470,-0.4797,0.7857,0.3221,0.840,-6.615,0.280,350.00,401,382,377,364,2025-06-04T19:40:59.104632
2471,-0.4821,0.7828,0.3265,0.665,-6.475,0.070,369.00,403,389,401,381,2025-06-04T19:40:59.191826
2472,-0.4821,0.7871,0.3314,0.875,-6.685,-0.140,368.00,384,426,398,374,2025-06-04T19:40:59.191826
2473,-0.4836,0.7871,0.3338,0.455,-7.035,-0.350,383.00,395,401,424,385,2025-06-04T19:40:59.191826
2474,-0.4821,0.7906,0.3318,0.490,-7.665,-0.490,375.00,395,421,351,340,2025-06-04T19:40:59.191826
2475,-0.4807,0.7906,0.3333,0.350,-7.875,-0.665,340.00,398,427,409,368,2025-06-04T19:40:59.191826
2476,-0.4729,0.7954,0.3353,0.315,-7.665,-0.595,330.00,404,397,402,383,2025-06-04T19:40:59.191826
2477,-0.4709,0.7935,0.3348,0.175,-7.105,-0.105,373.00,409,392,424,379,2025-06-04T19:40:59.192826
2478,-0.4734,0.7964,0.3353,0.140,-6.825,0.175,387.00,402,397,401,380,2025-06-04T19:40:59.192826
2479,-0.4782,0.7954,0.3362,0.665,-7.000,0.455,402.00,410,348,419,384,2025-06-04T19:40:59.524176
2480,-0.4753,0.7945,0.3348,0.770,-7.385,0.420,406.00,417,390,410,347,2025-06-04T19:40:59.524176
2481,-0.4734,0.7910,0.3338,1.050,-7.700,0.385,383.00,410,405,422,337,2025-06-04T19:40:59.524176
2482,-0.4763,0.7881,0.3284,1.225,-7.595,0.070,397.00,408,352,395,364,2025-06-04T19:40:59.525177
2483,-0.4729,0.7876,0.3294,1.505,-7.210,-0.350,402.00,382,368,430,375,2025-06-04T19:40:59.525177
2484,-0.4753,0.7876,0.3260,1.750,-6.895,-0.735,383.00,397,417,407,379,2025-06-04T19:40:59.525424
2485,-0.4685,0.7867,0.3270,1.400,-6.510,-0.665,398.00,377,405,399,367,2025-06-04T19:40:59.525424
2486,-0.4699,0.7906,0.3284,1.190,-6.300,-0.770,397.00,395,397,387,368,2025-06-04T19:40:59.525424
2487,-0.4734,0.7886,0.3270,1.015,-6.160,-0.910,404.00,399,401,393,370,2025-06-04T19:40:59.525424
2488,-0.4792,0.7896,0.3279,0.840,-6.615,-0.840,367.00,401,402,342,302,2025-06-04T19:40:59.525424
2489,-0.4787,0.7925,0.3279,0.490,-7.070,-0.805,399.00,408,349,412,304,2025-06-04T19:40:59.525424
2490,-0.4782,0.7906,0.3284,0.350,-7.315,-0.840,361.00,401,379,408,342,2025-06-04T19:40:59.525424
2491,-0.4738,0.7925,0.3314,0.455,-7.070,-0.875,392.00,370,359,403,360,2025-06-04T19:40:59.525424
2492,-0.4699,0.7906,0.3294,0.315,-6.265,-0.980,406.00,394,416,384,372,2025-06-04T19:40:59.525424
2493,-0.4709,0.7906,0.3304,0.385,-5.810,-1.295,395.00,374,347,414,380,2025-06-04T19:40:59.525954
2494,-0.4778,0.7876,0.3284,0.630,-5.705,-1.750,399.00,391,385,405,370,2025-06-04T19:40:59.526064
2495,-0.4812,0.7881,0.3318,0.875,-6.055,-1.995,394.00,397,413,395,382,2025-06-04T19:40:59.526064
2496,-0.4846,0.7891,0.3318,1.015,-6.300,-1.925,350.00,372,384,398,388,2025-06-04T19:40:59.526064
2497,-0.4846,0.7881,0.3333,1.085,-6.615,-1.470,334.00,392,424,435,345,2025-06-04T19:40:59.526064
2498,-0.4914,0.7901,0.3338,0.945,-6.580,-1.085,360.00,404,428,393,371,2025-06-04T19:40:59.526064
2499,-0.4914,0.7910,0.3309,0.770,-6.300,-0.980,370.00,404,404,358,389,2025-06-04T19:40:59.617977
2500,-0.4865,0.7935,0.3289,0.735,-6.230,-0.490,371.00,379,407,403,391,2025-06-04T19:40:59.617977
2501,-0.4924,0.7935,0.3284,0.385,-6.125,-0.175,374.00,394,394,404,378,2025-06-04T19:40:59.617977
2502,-0.4904,0.7954,0.3318,0.350,-6.510,0.105,389.00,396,414,420,311,2025-06-04T19:40:59.617977
2503,-0.4875,0.7930,0.3328,0.105,-7.000,0.385,374.00,379,419,424,315,2025-06-04T19:40:59.617977
2504,-0.4875,0.7935,0.3289,0.035,-7.350,0.525,381.00,395,421,433,347,2025-06-04T19:40:59.617977
2505,-0.4821,0.7920,0.3309,0.350,-7.455,0.630,399.00,402,411,433,357,2025-06-04T19:40:59.617977
2506,-0.4773,0.7925,0.3309,0.315,-7.070,0.560,380.00,384,434,422,375,2025-06-04T19:40:59.617977
2507,-0.4763,0.7906,0.3299,0.630,-6.615,0.420,390.00,396,410,423,381,2025-06-04T19:40:59.617977
2508,-0.4768,0.7891,0.3289,0.875,-6.265,0.385,384.00,375,405,412,388,2025-06-04T19:40:59.617977
2509,-0.4787,0.7940,0.3318,0.700,-6.055,0.630,378.00,386,414,305,370,2025-06-04T19:40:59.617977
2510,-0.4821,0.7915,0.3304,0.840,-6.020,0.945,358.00,373,423,374,377,2025-06-04T19:40:59.617977
2511,-0.4846,0.7906,0.3294,0.700,-6.475,0.980,371.00,392,439,384,374,2025-06-04T19:40:59.617977
2512,-0.4841,0.7910,0.3279,0.490,-6.685,1.050,397.00,399,404,352,346,2025-06-04T19:40:59.617977
2513,-0.4826,0.7896,0.3289,0.525,-6.895,1.015,406.00,401,399,382,331,2025-06-04T19:40:59.885906
2514,-0.4782,0.7920,0.3299,0.385,-6.825,0.805,391.00,397,398,408,349,2025-06-04T19:40:59.885906
2515,-0.4743,0.7910,0.3279,0.210,-6.650,0.665,399.00,395,430,429,358,2025-06-04T19:40:59.885906
2516,-0.4738,0.7891,0.3270,0.140,-6.580,0.315,405.00,407,436,425,377,2025-06-04T19:40:59.885906
2517,-0.4709,0.7940,0.3299,0.035,-6.790,0.105,383.00,378,436,427,387,2025-06-04T19:40:59.885906
2518,-0.4704,0.7901,0.3274,-0.385,-7.175,0.035,378.00,391,353,401,386,2025-06-04T19:40:59.885906
2519,-0.4787,0.7881,0.3270,-0.315,-7.455,-0.350,343.00,396,402,380,382,2025-06-04T19:40:59.885906
2520,-0.4734,0.7867,0.3294,-0.035,-7.350,-0.490,373.00,398,372,418,378,2025-06-04T19:40:59.885906
2521,-0.4670,0.7876,0.3328,0.245,-6.650,-0.595,399.00,399,397,348,343,2025-06-04T19:40:59.885906
2522,-0.4729,0.7891,0.3338,0.000,-5.985,-0.630,382.00,379,340,404,328,2025-06-04T19:40:59.885906
2523,-0.4758,0.7891,0.3304,-0.070,-6.020,-0.735,357.00,395,391,416,352,2025-06-04T19:40:59.885906
2524,-0.4831,0.7881,0.3294,0.105,-6.720,-0.840,345.00,406,413,414,329,2025-06-04T19:40:59.886635
2525,-0.4743,0.7915,0.3318,0.245,-7.070,-0.910,346.00,380,381,340,364,2025-06-04T19:40:59.886635
2526,-0.4709,0.7901,0.3309,0.280,-7.140,-0.840,379.00,394,429,409,382,2025-06-04T19:40:59.886635
2527,-0.4709,0.7920,0.3289,0.245,-6.475,-0.945,396.00,407,400,354,384,2025-06-04T19:40:59.886635
2528,-0.4699,0.7954,0.3357,0.420,-5.425,-0.945,392.00,418,421,414,396,2025-06-04T19:40:59.886635
2529,-0.4773,0.7950,0.3323,0.175,-4.865,-0.840,389.00,418,433,415,392,2025-06-04T19:41:00.068876
2530,-0.4831,0.7915,0.3289,0.035,-5.530,-0.840,395.00,408,424,407,380,2025-06-04T19:41:00.068876
2531,-0.4880,0.7925,0.3260,-0.140,-6.405,-0.560,366.00,415,417,397,382,2025-06-04T19:41:00.068876
2532,-0.4846,0.7920,0.3284,0.035,-7.070,-0.595,340.00,409,415,402,374,2025-06-04T19:41:00.068876
2533,-0.4821,0.7910,0.3318,0.105,-7.105,-0.420,390.00,410,422,347,366,2025-06-04T19:41:00.068876
2534,-0.4738,0.7896,0.3299,0.035,-6.720,-0.595,367.00,414,381,389,381,2025-06-04T19:41:00.068876
2535,-0.4729,0.7901,0.3304,0.105,-5.705,-0.560,373.00,413,431,397,384,2025-06-04T19:41:00.068876
2536,-0.4792,0.7886,0.3270,0.105,-5.110,-0.700,379.00,411,412,422,382,2025-06-04T19:41:00.068876
2537,-0.4782,0.7901,0.3289,0.210,-5.145,-0.700,383.00,419,399,434,382,2025-06-04T19:41:00.068876
2538,-0.4856,0.7906,0.3314,-0.035,-5.460,-0.630,351.00,420,371,395,387,2025-06-04T19:41:00.068876
2539,-0.4880,0.7881,0.3299,0.000,-5.915,-0.560,377.00,421,413,420,393,2025-06-04T19:41:00.068876
2540,-0.4856,0.7906,0.3348,0.315,-6.370,-0.455,374.00,395,419,422,382,2025-06-04T19:41:00.068876
2541,-0.4821,0.7881,0.3328,-0.105,-6.650,-0.385,398.00,407,429,407,390,2025-06-04T19:41:00.068876
2542,-0.4831,0.7862,0.3343,0.175,-6.545,-0.455,349.00,409,414,371,378,2025-06-04T19:41:00.068876
2543,-0.4773,0.7886,0.3323,0.000,-6.265,-0.420,389.00,419,428,360,343,2025-06-04T19:41:00.068876
2544,-0.4782,0.7871,0.3299,-0.105,-5.880,-0.175,393.00,425,423,333,364,2025-06-04T19:41:00.068876
2545,-0.4817,0.7871,0.3314,-0.035,-5.810,-0.175,411.00,409,408,388,370,2025-06-04T19:41:00.068876
2546,-0.4856,0.7862,0.3333,0.000,-5.810,-0.035,399.00,411,420,421,381,2025-06-04T19:41:00.068876
2547,-0.4875,0.7867,0.3372,0.175,-6.125,0.035,384.00,386,437,405,386,2025-06-04T19:41:00.243870
2548,-0.4836,0.7871,0.3396,0.280,-6.335,-0.070,401.00,405,397,411,381,2025-06-04T19:41:00.250256
2549,-0.4817,0.7891,0.3387,0.385,-6.650,-0.280,401.00,409,396,427,391,2025-06-04T19:41:00.250256
2550,-0.4778,0.7910,0.3299,0.315,-6.685,-0.630,399.00,417,421,390,315,2025-06-04T19:41:00.250256
2551,-0.4734,0.7940,0.3294,0.595,-6.545,-0.735,380.00,387,417,399,356,2025-06-04T19:41:00.250256
2552,-0.4773,0.7974,0.3338,0.490,-6.055,-1.120,390.00,401,430,394,376,2025-06-04T19:41:00.250256
2553,-0.4807,0.7964,0.3377,0.350,-5.915,-1.015,403.00,404,420,424,377,2025-06-04T19:41:00.250256
2554,-0.4836,0.7925,0.3396,0.105,-6.580,-0.840,394.00,404,422,428,388,2025-06-04T19:41:00.250256
2555,-0.4880,0.7857,0.3382,0.000,-7.420,-0.490,348.00,398,413,343,388,2025-06-04T19:41:00.250256
2556,-0.4817,0.7862,0.3333,0.140,-7.945,-0.245,387.00,404,380,336,350,2025-06-04T19:41:00.250256
2557,-0.4787,0.7813,0.3299,0.350,-7.735,0.070,390.00,381,412,345,329,2025-06-04T19:41:00.250256
2558,-0.4729,0.7828,0.3314,0.630,-6.860,0.315,378.00,395,402,383,357,2025-06-04T19:41:00.250256
2559,-0.4763,0.7828,0.3309,0.630,-5.670,0.385,384.00,377,342,394,380,2025-06-04T19:41:00.250256
2560,-0.4817,0.7842,0.3309,0.910,-5.145,0.140,403.00,359,379,405,382,2025-06-04T19:41:00.250256
2561,-0.4870,0.7832,0.3265,0.910,-5.530,0.035,406.00,381,427,408,376,2025-06-04T19:41:00.250256
2562,-0.4900,0.7862,0.3294,0.945,-6.020,-0.105,410.00,401,397,424,385,2025-06-04T19:41:00.250256
2563,-0.4890,0.7881,0.3318,0.770,-6.895,-0.420,389.00,396,425,397,390,2025-06-04T19:41:00.250256
2564,-0.4860,0.7886,0.3294,0.490,-7.350,-0.595,348.00,414,444,421,378,2025-06-04T19:41:00.250256
2565,-0.4836,0.7847,0.3299,0.385,-7.490,-0.700,384.00,385,432,415,377,2025-06-04T19:41:00.545736
2566,-0.4807,0.7876,0.3333,0.315,-7.490,-0.490,380.00,407,418,422,308,2025-06-04T19:41:00.545736
2567,-0.4778,0.7915,0.3318,0.105,-7.210,-0.245,382.00,406,408,350,343,2025-06-04T19:41:00.545736
2568,-0.4812,0.7901,0.3367,0.070,-6.615,-0.210,389.00,410,403,382,372,2025-06-04T19:41:00.545736
2569,-0.4787,0.7901,0.3401,0.315,-6.300,-0.070,387.00,406,400,353,365,2025-06-04T19:41:00.545736
2570,-0.4773,0.7896,0.3377,0.385,-6.265,0.350,384.00,388,400,400,349,2025-06-04T19:41:00.546802
2571,-0.4817,0.7910,0.3357,0.560,-6.685,0.560,384.00,393,416,422,373,2025-06-04T19:41:00.546802
2572,-0.4797,0.7930,0.3304,0.735,-7.105,0.385,398.00,411,432,438,382,2025-06-04T19:41:00.546802
2573,-0.4768,0.7910,0.3304,1.085,-7.525,-0.035,403.00,410,416,436,354,2025-06-04T19:41:00.546802
2574,-0.4729,0.7920,0.3314,1.260,-7.490,-0.455,352.00,418,431,408,328,2025-06-04T19:41:00.546802
2575,-0.4709,0.7901,0.3328,1.365,-6.895,-0.735,345.00,421,400,433,364,2025-06-04T19:41:00.546802
2576,-0.4753,0.7862,0.3318,1.295,-6.370,-0.770,366.00,392,380,421,378,2025-06-04T19:41:00.546802
2577,-0.4797,0.7891,0.3314,1.155,-6.125,-0.840,398.00,344,342,358,382,2025-06-04T19:41:00.546802
2578,-0.4846,0.7881,0.3294,1.085,-6.370,-0.630,387.00,343,398,415,379,2025-06-04T19:41:00.546802
2579,-0.4909,0.7867,0.3318,0.735,-7.105,-0.525,374.00,354,417,391,390,2025-06-04T19:41:00.546802
2580,-0.4821,0.7881,0.3314,0.490,-7.665,-0.315,383.00,379,397,412,349,2025-06-04T19:41:00.640954
2581,-0.4817,0.7891,0.3309,0.490,-7.770,-0.350,402.00,400,378,427,362,2025-06-04T19:41:00.640954
2582,-0.4773,0.7920,0.3274,0.280,-7.455,-0.455,404.00,405,399,424,381,2025-06-04T19:41:00.640954
2583,-0.4734,0.7886,0.3235,0.245,-7.000,-0.700,411.00,397,401,399,381,2025-06-04T19:41:00.640954
2584,-0.4773,0.7925,0.3284,0.385,-6.580,-0.840,381.00,407,343,395,376,2025-06-04T19:41:00.640954
2585,-0.4812,0.7857,0.3240,0.000,-6.335,-1.050,337.00,404,423,345,383,2025-06-04T19:41:00.640954
2586,-0.4797,0.7876,0.3284,0.490,-6.300,-0.805,364.00,375,429,406,380,2025-06-04T19:41:00.640954
2587,-0.4831,0.7862,0.3299,0.280,-6.160,-0.630,378.00,362,412,416,312,2025-06-04T19:41:00.640954
2588,-0.4856,0.7876,0.3328,0.280,-6.370,-0.805,396.00,362,436,409,355,2025-06-04T19:41:00.640954
2589,-0.4821,0.7886,0.3299,0.385,-6.720,-0.980,381.00,386,424,304,375,2025-06-04T19:41:00.640954
2590,-0.4773,0.7906,0.3304,0.070,-7.035,-1.085,377.00,391,415,384,374,2025-06-04T19:41:00.640954
2591,-0.4709,0.7901,0.3323,0.175,-6.755,-1.470,378.00,410,423,414,372,2025-06-04T19:41:00.640954
2592,-0.4768,0.7871,0.3348,0.000,-6.090,-1.715,386.00,417,400,401,384,2025-06-04T19:41:00.640954
2593,-0.4758,0.7867,0.3343,0.035,-5.600,-1.645,404.00,390,402,379,371,2025-06-04T19:41:00.640954
2594,-0.4812,0.7842,0.3348,-0.140,-5.425,-1.470,402.00,397,394,418,389,2025-06-04T19:41:00.640954
2595,-0.4885,0.7901,0.3377,-0.245,-5.600,-1.645,409.00,399,346,404,396,2025-06-04T19:41:00.640954
2596,-0.4880,0.7901,0.3328,-0.385,-6.020,-1.820,369.00,398,390,400,360,2025-06-04T19:41:00.640954
2597,-0.4885,0.7867,0.3328,-0.455,-6.440,-1.575,376.00,372,298,348,377,2025-06-04T19:41:00.878229
2598,-0.4885,0.7896,0.3338,-0.420,-6.720,-1.365,396.00,361,391,412,390,2025-06-04T19:41:00.878229
2599,-0.4846,0.7925,0.3328,-0.315,-6.475,-1.225,408.00,381,397,431,381,2025-06-04T19:41:00.878229
2600,-0.4826,0.7896,0.3323,-0.210,-6.300,-1.155,350.00,391,390,399,381,2025-06-04T19:41:00.878229
2601,-0.4812,0.7896,0.3318,-0.175,-5.915,-1.225,388.00,391,394,422,348,2025-06-04T19:41:00.878229
2602,-0.4826,0.7876,0.3323,-0.035,-5.775,-1.120,401.00,402,352,383,371,2025-06-04T19:41:00.878229
2603,-0.4846,0.7867,0.3333,0.350,-6.055,-1.050,388.00,414,418,435,341,2025-06-04T19:41:01.152279
2604,-0.4870,0.7881,0.3353,0.175,-6.335,-0.770,396.00,390,421,421,366,2025-06-04T19:41:01.152279
2605,-0.4870,0.7857,0.3357,0.490,-6.405,-0.735,397.00,401,426,357,335,2025-06-04T19:41:01.152279
2606,-0.4870,0.7847,0.3367,0.525,-6.475,-0.910,398.00,401,420,376,332,2025-06-04T19:41:01.152279
2607,-0.4851,0.7862,0.3367,0.630,-6.615,-1.155,405.00,412,416,420,358,2025-06-04T19:41:01.152279
2608,-0.4851,0.7871,0.3382,0.805,-7.105,-1.085,416.00,418,430,412,380,2025-06-04T19:41:01.152279
2609,-0.4860,0.7837,0.3377,0.595,-7.315,-1.225,395.00,417,424,382,376,2025-06-04T19:41:01.152279
2610,-0.4856,0.7842,0.3333,0.700,-7.490,-1.400,403.00,414,426,403,366,2025-06-04T19:41:01.152279
2611,-0.4812,0.7832,0.3362,0.840,-7.245,-1.575,346.00,387,403,398,365,2025-06-04T19:41:01.152279
2612,-0.4836,0.7837,0.3396,0.490,-6.650,-1.750,328.00,373,416,301,377,2025-06-04T19:41:01.152279
2613,-0.4851,0.7842,0.3357,0.525,-6.545,-1.855,377.00,360,418,346,386,2025-06-04T19:41:01.152279
2614,-0.4924,0.7828,0.3304,0.315,-6.860,-1.820,394.00,390,355,397,382,2025-06-04T19:41:01.152279
2615,-0.4909,0.7862,0.3348,0.070,-7.105,-1.820,396.00,400,407,420,358,2025-06-04T19:41:01.152279
2616,-0.4870,0.7828,0.3323,0.315,-7.105,-1.540,391.00,397,406,429,365,2025-06-04T19:41:01.152279
2617,-0.4895,0.7818,0.3343,0.175,-6.860,-1.400,379.00,395,398,387,373,2025-06-04T19:41:01.152279
2618,-0.4870,0.7867,0.3353,0.350,-6.755,-1.400,391.00,402,359,390,384,2025-06-04T19:41:01.152279
2619,-0.4875,0.7837,0.3338,0.245,-6.160,-1.225,383.00,397,387,419,385,2025-06-04T19:41:01.152279
2620,-0.4900,0.7828,0.3333,0.665,-6.335,-1.155,387.00,405,416,363,386,2025-06-04T19:41:01.152279
2621,-0.4914,0.7842,0.3314,0.595,-6.475,-0.770,404.00,350,358,389,392,2025-06-04T19:41:01.152279
2622,-0.4900,0.7862,0.3314,0.560,-6.475,-0.560,396.00,382,415,399,387,2025-06-04T19:41:01.152279
2623,-0.4900,0.7837,0.3314,1.015,-6.195,-0.420,378.00,402,433,413,386,2025-06-04T19:41:01.152279
2624,-0.4885,0.7852,0.3318,0.805,-5.460,-0.245,359.00,406,359,420,391,2025-06-04T19:41:01.152279
2625,-0.4880,0.7871,0.3348,1.015,-5.215,0.070,365.00,401,390,420,347,2025-06-04T19:41:01.152279
2626,-0.4939,0.7881,0.3367,0.630,-4.970,0.140,370.00,411,390,414,374,2025-06-04T19:41:01.152784
2627,-0.4914,0.7871,0.3348,0.350,-5.425,0.280,391.00,417,418,437,374,2025-06-04T19:41:01.152813
2628,-0.4948,0.7867,0.3333,0.175,-6.405,0.280,402.00,408,409,351,378,2025-06-04T19:41:01.152813
2629,-0.4948,0.7881,0.3328,-0.105,-7.000,0.140,386.00,420,410,415,381,2025-06-04T19:41:01.152813
2630,-0.4826,0.7867,0.3348,0.210,-7.525,-0.175,401.00,421,425,397,382,2025-06-04T19:41:01.152813
2631,-0.4831,0.7832,0.3357,-0.140,-7.385,-0.245,388.00,423,409,406,383,2025-06-04T19:41:01.249411
2632,-0.4817,0.7818,0.3387,-0.070,-6.615,-0.455,397.00,412,357,399,381,2025-06-04T19:41:01.249411
2633,-0.4797,0.7808,0.3362,-0.140,-5.985,-0.560,391.00,413,389,424,346,2025-06-04T19:41:01.249411
2634,-0.4821,0.7798,0.3299,-0.315,-5.530,-0.875,387.00,404,424,432,342,2025-06-04T19:41:01.249411
2635,-0.4924,0.7784,0.3289,-0.175,-6.055,-1.015,385.00,411,440,408,376,2025-06-04T19:41:01.249411
2636,-0.4900,0.7808,0.3333,-0.210,-6.545,-1.085,344.00,419,402,354,388,2025-06-04T19:41:01.249411
2637,-0.4880,0.7793,0.3314,-0.280,-6.895,-1.190,331.00,418,419,401,389,2025-06-04T19:41:01.249411
2638,-0.4856,0.7774,0.3304,-0.455,-6.825,-1.190,371.00,422,425,412,389,2025-06-04T19:41:01.249411
2639,-0.4860,0.7842,0.3338,-0.245,-6.405,-1.400,400.00,421,430,406,386,2025-06-04T19:41:01.249411
2640,-0.4856,0.7832,0.3309,0.105,-6.090,-1.540,356.00,400,421,386,348,2025-06-04T19:41:01.249411
2641,-0.4831,0.7867,0.3250,-0.385,-5.670,-1.680,297.00,398,422,403,365,2025-06-04T19:41:01.249411
2642,-0.4856,0.7910,0.3338,0.245,-5.180,-1.890,371.00,407,426,425,378,2025-06-04T19:41:01.249411
2643,-0.4865,0.7930,0.3318,0.035,-5.040,-1.715,387.00,407,349,417,370,2025-06-04T19:41:01.249411
2644,-0.4875,0.7930,0.3294,-0.315,-5.250,-1.575,388.00,415,399,425,379,2025-06-04T19:41:01.249411
2645,-0.4924,0.7881,0.3289,-0.490,-5.285,-1.400,380.00,381,421,409,367,2025-06-04T19:41:01.249411
2646,-0.4870,0.7823,0.3323,-0.840,-4.760,-0.945,376.00,368,433,402,384,2025-06-04T19:41:01.249411
2647,-0.4924,0.7808,0.3323,-1.260,-4.340,-0.735,383.00,386,425,422,349,2025-06-04T19:41:01.361006
2648,-0.4987,0.7808,0.3328,-1.610,-4.445,-0.630,389.00,399,429,426,376,2025-06-04T19:41:01.361006
2649,-0.5002,0.7769,0.3333,-1.715,-5.460,-0.420,367.00,401,424,403,380,2025-06-04T19:41:01.361006
2650,-0.5012,0.7754,0.3279,-1.610,-6.475,-0.315,398.00,402,403,415,381,2025-06-04T19:41:01.361006
2651,-0.4963,0.7769,0.3328,-1.365,-6.580,-0.490,403.00,405,419,411,385,2025-06-04T19:41:01.361006
2652,-0.4904,0.7769,0.3377,-1.085,-5.600,-0.700,405.00,405,408,420,392,2025-06-04T19:41:01.361006
2653,-0.4900,0.7764,0.3372,-0.875,-4.830,-0.665,397.00,404,377,421,350,2025-06-04T19:41:01.361006
2654,-0.4982,0.7759,0.3431,-0.245,-4.375,-0.665,410.00,400,357,406,362,2025-06-04T19:41:01.361006
2655,-0.5022,0.7779,0.3460,-0.035,-4.970,-0.525,390.00,386,414,350,361,2025-06-04T19:41:01.361006
2656,-0.5022,0.7779,0.3514,0.175,-6.020,-0.560,403.00,393,417,388,377,2025-06-04T19:41:01.771820
2657,-0.5017,0.7813,0.3499,0.350,-6.825,-0.595,396.00,373,429,418,387,2025-06-04T19:41:01.771820
2658,-0.4978,0.7837,0.3445,0.350,-7.175,-0.560,398.00,386,386,422,377,2025-06-04T19:41:01.771820
2659,-0.4929,0.7818,0.3445,0.385,-7.175,-0.280,405.00,404,415,409,387,2025-06-04T19:41:01.771820
2660,-0.4914,0.7813,0.3426,0.420,-7.000,-0.140,387.00,400,402,402,379,2025-06-04T19:41:01.772515
2661,-0.4987,0.7788,0.3411,0.315,-7.490,0.070,341.00,375,388,381,382,2025-06-04T19:41:01.772515
2662,-0.5026,0.7818,0.3406,0.490,-8.785,0.140,330.00,365,388,420,355,2025-06-04T19:41:01.772515
2663,-0.4958,0.7837,0.3416,0.385,-9.380,-0.070,365.00,379,412,426,377,2025-06-04T19:41:01.772515
2664,-0.4939,0.7828,0.3396,0.245,-9.380,-0.245,370.00,404,406,427,381,2025-06-04T19:41:01.772515
2665,-0.4900,0.7808,0.3357,0.420,-9.450,-0.315,397.00,395,393,348,383,2025-06-04T19:41:01.772515
2666,-0.4880,0.7808,0.3333,0.525,-9.380,-0.385,401.00,370,421,379,374,2025-06-04T19:41:01.772515
2667,-0.4841,0.7793,0.3357,0.560,-9.065,-0.595,406.00,389,434,406,373,2025-06-04T19:41:01.772824
2668,-0.4821,0.7818,0.3357,0.490,-8.120,-0.595,401.00,393,438,411,385,2025-06-04T19:41:01.772824
2669,-0.4817,0.7808,0.3323,0.595,-7.140,-0.665,406.00,404,414,431,344,2025-06-04T19:41:01.772824
2670,-0.4812,0.7823,0.3304,0.875,-6.335,-0.490,395.00,416,417,419,369,2025-06-04T19:41:01.772824
2671,-0.4885,0.7832,0.3343,0.595,-5.810,-0.315,409.00,415,401,420,334,2025-06-04T19:41:01.772824
2672,-0.4919,0.7813,0.3343,0.700,-5.810,-0.210,402.00,393,399,425,364,2025-06-04T19:41:01.772824
2673,-0.4934,0.7798,0.3314,0.315,-6.020,-0.140,351.00,403,420,431,382,2025-06-04T19:41:01.772824
2674,-0.4934,0.7779,0.3328,0.350,-6.475,-0.140,353.00,408,394,442,342,2025-06-04T19:41:01.772824
2675,-0.4909,0.7788,0.3314,0.385,-6.580,-0.140,387.00,409,398,427,369,2025-06-04T19:41:01.772824
2676,-0.4885,0.7808,0.3333,0.140,-6.405,-0.350,396.00,404,400,419,362,2025-06-04T19:41:01.864481
2677,-0.4909,0.7749,0.3343,0.280,-6.300,-0.630,350.00,411,420,404,367,2025-06-04T19:41:01.864481
2678,-0.4914,0.7759,0.3387,0.070,-6.090,-0.595,361.00,413,426,301,379,2025-06-04T19:41:01.864481
2679,-0.4924,0.7808,0.3421,0.070,-6.160,-0.595,373.00,403,407,393,371,2025-06-04T19:41:01.864481
2680,-0.4987,0.7764,0.3396,0.000,-6.195,-0.805,378.00,413,399,421,371,2025-06-04T19:41:01.864481
2681,-0.4978,0.7793,0.3401,0.105,-6.720,-0.840,370.00,423,399,427,369,2025-06-04T19:41:01.864481
2682,-0.4973,0.7774,0.3416,0.105,-6.930,-0.840,399.00,385,392,398,386,2025-06-04T19:41:01.864481
2683,-0.4929,0.7769,0.3440,0.350,-6.825,-0.665,405.00,389,422,413,380,2025-06-04T19:41:01.864481
2684,-0.4900,0.7828,0.3455,0.490,-6.685,-0.525,392.00,374,416,389,367,2025-06-04T19:41:01.865005
2685,-0.4943,0.7842,0.3489,0.420,-6.125,-0.455,397.00,382,439,414,371,2025-06-04T19:41:01.865005
2686,-0.4939,0.7803,0.3445,0.980,-6.055,-0.420,387.00,401,410,347,363,2025-06-04T19:41:01.865005
2687,-0.4987,0.7842,0.3455,0.805,-6.230,-0.315,342.00,409,415,405,378,2025-06-04T19:41:01.865005
2688,-0.4992,0.7813,0.3445,0.735,-6.790,-0.140,373.00,409,429,405,374,2025-06-04T19:41:01.865005
2689,-0.5026,0.7793,0.3392,0.875,-7.560,0.000,393.00,414,407,413,379,2025-06-04T19:41:01.865005
2690,-0.4997,0.7798,0.3401,0.840,-8.015,0.105,391.00,382,404,431,382,2025-06-04T19:41:01.865005
2691,-0.4958,0.7828,0.3387,1.015,-8.015,0.350,339.00,365,387,419,386,2025-06-04T19:41:01.865005
2692,-0.4919,0.7847,0.3411,0.700,-7.105,0.385,388.00,386,352,426,395,2025-06-04T19:41:01.865005
2693,-0.4934,0.7813,0.3367,0.560,-6.580,0.455,387.00,396,384,404,346,2025-06-04T19:41:01.865005
2694,-0.4953,0.7788,0.3353,0.525,-6.265,0.595,404.00,407,383,392,331,2025-06-04T19:41:01.865005
2695,-0.4963,0.7779,0.3338,0.525,-6.580,0.770,399.00,402,428,344,365,2025-06-04T19:41:01.866001
2696,-0.4953,0.7769,0.3372,0.595,-7.070,0.910,382.00,411,420,405,374,2025-06-04T19:41:01.912539
2697,-0.4934,0.7808,0.3357,0.490,-7.490,0.770,397.00,403,421,399,369,2025-06-04T19:41:01.912539
2698,-0.4880,0.7774,0.3318,0.525,-7.315,0.805,346.00,405,394,359,377,2025-06-04T19:41:01.912539
2699,-0.4836,0.7788,0.3318,0.700,-6.685,0.875,363.00,412,351,409,377,2025-06-04T19:41:01.912539
2700,-0.4787,0.7818,0.3328,0.665,-5.880,0.805,392.00,383,336,421,383,2025-06-04T19:41:01.912539
2701,-0.4865,0.7798,0.3338,0.595,-5.600,0.560,375.00,386,409,424,384,2025-06-04T19:41:02.065729
2702,-0.4909,0.7754,0.3367,0.665,-6.090,0.315,339.00,397,427,417,389,2025-06-04T19:41:02.066588
2703,-0.4943,0.7788,0.3387,0.665,-6.965,0.070,325.00,405,421,396,375,2025-06-04T19:41:02.066588
2704,-0.4900,0.7769,0.3314,0.560,-7.630,-0.210,374.00,409,407,394,388,2025-06-04T19:41:02.066588
2705,-0.4836,0.7788,0.3348,0.700,-7.420,-0.245,337.00,379,423,401,391,2025-06-04T19:41:02.066588
2706,-0.4831,0.7779,0.3387,0.595,-6.230,-0.385,321.00,397,410,425,376,2025-06-04T19:41:02.066588
2707,-0.4856,0.7808,0.3416,0.665,-5.390,-0.525,362.00,409,408,409,369,2025-06-04T19:41:02.066588
2708,-0.4939,0.7837,0.3436,0.385,-5.320,-0.560,387.00,411,416,368,367,2025-06-04T19:41:02.066588
2709,-0.5002,0.7837,0.3460,0.525,-6.510,-0.350,392.00,377,419,382,386,2025-06-04T19:41:02.066588
2710,-0.5017,0.7852,0.3450,0.525,-7.840,-0.280,401.00,389,436,364,378,2025-06-04T19:41:02.066588
2711,-0.4939,0.7837,0.3421,0.490,-8.260,-0.315,388.00,375,434,336,341,2025-06-04T19:41:02.066588
2712,-0.4846,0.7862,0.3401,0.735,-7.875,0.105,399.00,392,380,284,368,2025-06-04T19:41:02.066588
2713,-0.4865,0.7832,0.3396,0.490,-6.580,0.210,410.00,394,394,374,348,2025-06-04T19:41:02.339773
2714,-0.4880,0.7823,0.3396,0.945,-6.055,0.175,402.00,373,397,385,364,2025-06-04T19:41:02.339773
2715,-0.4919,0.7803,0.3392,0.980,-5.810,0.245,352.00,364,422,429,363,2025-06-04T19:41:02.339773
2716,-0.4904,0.7788,0.3387,0.840,-6.090,0.350,384.00,363,410,383,366,2025-06-04T19:41:02.339773
2717,-0.4948,0.7754,0.3353,0.945,-6.650,0.140,385.00,349,391,412,389,2025-06-04T19:41:02.339773
2718,-0.4909,0.7808,0.3372,1.155,-7.105,-0.035,374.00,374,430,406,379,2025-06-04T19:41:02.339773
2719,-0.4860,0.7793,0.3372,0.980,-7.140,-0.140,396.00,365,354,300,382,2025-06-04T19:41:02.339773
2720,-0.4851,0.7818,0.3343,0.735,-6.790,-0.280,405.00,378,409,377,378,2025-06-04T19:41:02.340775
2721,-0.4846,0.7788,0.3323,0.630,-6.440,-0.455,403.00,396,383,417,382,2025-06-04T19:41:02.340818
2722,-0.4914,0.7803,0.3338,0.420,-6.055,-0.420,391.00,404,405,409,378,2025-06-04T19:41:02.340818
2723,-0.4924,0.7818,0.3357,0.420,-6.265,-0.455,406.00,381,409,425,375,2025-06-04T19:41:02.340818
2724,-0.5002,0.7808,0.3348,0.420,-7.000,-0.280,402.00,398,429,425,369,2025-06-04T19:41:02.340818
2725,-0.4997,0.7793,0.3357,0.315,-7.595,-0.420,397.00,410,418,422,379,2025-06-04T19:41:02.340818
2726,-0.4924,0.7803,0.3382,0.560,-7.665,-0.210,400.00,383,404,416,381,2025-06-04T19:41:02.340818
2727,-0.4875,0.7798,0.3367,0.490,-7.105,0.000,388.00,368,345,422,379,2025-06-04T19:41:02.340818
2728,-0.4880,0.7813,0.3343,0.595,-6.195,0.070,401.00,384,369,420,389,2025-06-04T19:41:02.340818
2729,-0.4851,0.7842,0.3387,0.875,-5.810,0.210,402.00,403,414,426,391,2025-06-04T19:41:02.500396
2730,-0.4919,0.7847,0.3401,0.525,-5.880,0.140,388.00,409,408,418,379,2025-06-04T19:41:02.500396
2731,-0.4924,0.7808,0.3396,0.630,-6.755,0.000,383.00,406,430,392,345,2025-06-04T19:41:02.500396
2732,-0.4934,0.7803,0.3455,0.560,-7.525,0.035,380.00,413,432,401,329,2025-06-04T19:41:02.500396
