SeqNum,AccX,AccY,AccZ,GyroX,GyroY,GyroZ,Flex,Force1,Force2,Force3,Force4,TimestampReception
6349,-0.6725,0.4324,0.5612,8.330,13.615,-3.185,488,2,208,325,328,2025-06-03T10:37:47.232468
6350,-0.1776,0.8535,0.3421,7.035,-2.205,20.650,492,1,203,362,339,2025-06-03T10:37:47.232468
6351,-0.1635,0.8608,0.3762,5.285,0.455,18.025,465,1,252,398,377,2025-06-03T10:37:47.232468
6352,-0.1957,0.8599,0.4065,2.870,0.875,15.540,444,2,283,402,387,2025-06-03T10:37:47.232468
6353,-0.2074,0.8647,0.4299,0.630,-1.435,13.965,430,2,286,391,392,2025-06-03T10:37:47.232468
6354,-0.1962,0.8686,0.4353,-1.715,-4.900,11.865,415,1,308,354,379,2025-06-03T10:37:47.232468
6355,-0.1864,0.8667,0.4431,-4.305,-7.630,10.150,404,1,325,371,395,2025-06-03T10:37:47.232468
6356,-0.1767,0.8599,0.4514,-6.825,-8.120,8.470,400,0,308,376,387,2025-06-03T10:37:47.232468
6357,-0.1801,0.8794,0.4582,-9.485,-5.880,7.560,391,1,322,380,398,2025-06-03T10:37:47.232468
6358,-0.1698,0.8979,0.4460,-13.090,-0.560,8.645,388,1,329,385,399,2025-06-03T10:37:47.232468
6359,-0.1679,0.8682,0.4714,-14.525,3.290,7.525,391,1,339,386,390,2025-06-03T10:37:47.232468
6360,-0.2191,0.8628,0.4646,-17.080,5.880,7.140,394,2,344,383,382,2025-06-03T10:37:47.232468
6361,-0.2386,0.8535,0.4494,-17.185,5.075,7.210,372,1,345,377,385,2025-06-03T10:37:47.331929
6362,-0.2420,0.8472,0.4372,-17.290,2.975,7.280,385,1,350,394,396,2025-06-03T10:37:47.331929
6363,-0.2435,0.8516,0.4392,-16.100,-0.490,7.000,390,2,359,393,394,2025-06-03T10:37:47.331929
6364,-0.2416,0.8608,0.4426,-14.140,-3.255,6.825,363,2,362,397,398,2025-06-03T10:37:47.331929
6365,-0.2435,0.8525,0.4299,-11.725,-7.420,6.405,374,1,365,393,397,2025-06-03T10:37:47.331929
6366,-0.2381,0.8418,0.4104,-0.595,-13.125,6.300,372,1,360,391,390,2025-06-03T10:37:47.331929
6367,-0.2401,0.8311,0.4109,-6.265,-17.080,6.930,385,1,353,399,351,2025-06-03T10:37:47.331929
6368,-0.2333,0.8169,0.4109,-2.765,-19.635,7.280,394,1,358,405,374,2025-06-03T10:37:47.331929
6369,-0.1962,0.8101,0.3889,1.225,-20.300,7.700,390,2,365,403,388,2025-06-03T10:37:47.393211
6370,-0.1771,0.8037,0.3758,4.410,-18.235,8.365,371,2,368,412,364,2025-06-03T10:37:47.393211
6371,-0.1776,0.7964,0.3548,7.910,-14.315,8.855,354,1,365,392,350,2025-06-03T10:37:47.393211
6372,-0.1771,0.8096,0.3353,10.080,-11.025,8.890,349,2,365,399,365,2025-06-03T10:37:47.393211
6373,-0.1732,0.8262,0.3314,12.250,-8.925,9.100,369,2,369,407,377,2025-06-03T10:37:47.393211
6374,-0.1781,0.8428,0.3304,14.420,-7.630,9.625,371,2,365,411,382,2025-06-03T10:37:47.529203
6375,-0.1991,0.8569,0.3372,16.765,-6.965,10.115,385,2,366,411,381,2025-06-03T10:37:47.529203
6376,-0.2113,0.8740,0.3367,19.005,-8.435,10.605,389,2,368,359,380,2025-06-03T10:37:47.529203
6377,-0.2050,0.8930,0.3318,21.280,-12.425,11.200,390,2,363,363,388,2025-06-03T10:37:47.529203
6378,-0.1903,0.9209,0.3299,23.485,-16.345,12.040,385,2,364,388,391,2025-06-03T10:37:47.529203
6379,-0.1737,0.9379,0.3406,25.515,-18.165,12.215,397,1,366,387,388,2025-06-03T10:37:47.529203
6380,-0.1235,0.9584,0.3377,28.035,-17.710,12.285,365,1,358,399,377,2025-06-03T10:37:47.529203
6381,-0.0864,0.9740,0.3060,29.645,-14.630,11.725,374,1,363,394,383,2025-06-03T10:37:47.529203
6382,-0.0503,0.9862,0.2757,30.240,-9.835,10.745,378,1,366,367,376,2025-06-03T10:37:47.529203
6383,-0.0239,0.9980,0.2591,29.610,-3.535,9.275,359,2,358,381,351,2025-06-03T10:37:47.529203
6384,-0.0322,0.9999,0.2440,28.490,0.280,7.980,378,1,360,375,373,2025-06-03T10:37:47.529203
6385,-0.0371,1.0009,0.2381,26.950,2.345,7.175,379,2,368,385,394,2025-06-03T10:37:47.529203
6386,-0.0464,0.9970,0.2142,25.340,1.855,6.440,394,2,369,393,381,2025-06-03T10:37:47.590506
6387,-0.0605,0.9965,0.1972,23.800,0.525,5.670,366,1,345,392,343,2025-06-03T10:37:47.590506
6388,-0.0834,0.9902,0.1859,21.595,-2.800,4.550,373,1,347,377,373,2025-06-03T10:37:47.590506
6389,-0.1098,0.9760,0.1898,19.950,-7.840,3.605,376,1,357,395,372,2025-06-03T10:37:47.590506
6390,-0.2484,0.9658,0.2089,18.200,-12.145,3.045,351,1,336,391,377,2025-06-03T10:37:47.590506
6391,-0.1313,0.9516,0.2196,17.115,-16.485,2.660,362,1,321,390,358,2025-06-03T10:37:47.846237
6392,-0.1210,0.9443,0.2079,15.960,-18.830,2.205,384,1,338,400,338,2025-06-03T10:37:47.846237
6393,-0.1166,0.9355,0.2074,14.805,-18.830,1.330,385,2,348,357,344,2025-06-03T10:37:47.846237
6394,-0.0917,0.9306,0.2162,14.000,-16.135,-0.035,398,1,353,375,372,2025-06-03T10:37:47.846237
6395,-0.0839,0.9150,0.2289,13.125,-11.795,-1.610,374,2,354,395,391,2025-06-03T10:37:47.846237
6396,-0.0956,0.9004,0.2450,12.565,-8.540,-3.465,383,1,361,390,368,2025-06-03T10:37:47.846237
6397,-0.1274,0.8955,0.2596,11.865,-6.405,-4.935,392,1,362,398,377,2025-06-03T10:37:47.846237
6398,-0.1557,0.8862,0.2591,11.480,-7.490,-6.265,397,1,366,395,375,2025-06-03T10:37:47.846237
6399,-0.1640,0.8852,0.2572,10.815,-10.465,-7.630,388,1,360,400,390,2025-06-03T10:37:47.846237
6400,-0.1513,0.8906,0.2499,10.115,-12.250,-9.310,392,1,357,399,389,2025-06-03T10:37:47.846237
6401,-0.1410,0.8882,0.2333,8.820,-12.880,-11.270,398,2,358,406,396,2025-06-03T10:37:47.846237
6402,-0.1264,0.8891,0.2259,8.050,-13.335,-12.880,369,1,361,397,401,2025-06-03T10:37:47.846237
6403,-0.1118,0.8872,0.2196,7.560,-13.195,-14.770,379,2,363,398,398,2025-06-03T10:37:47.846237
6404,-0.1225,0.8921,0.2084,7.280,-13.160,-16.660,392,2,359,384,402,2025-06-03T10:37:47.846237
6405,-0.1176,0.9028,0.1976,7.350,-14.140,-18.200,391,0,342,389,399,2025-06-03T10:37:47.846237
6406,-0.1318,0.9096,0.1815,7.175,-15.260,-19.320,396,1,347,385,396,2025-06-03T10:37:47.846237
6407,-0.1313,0.9209,0.1684,7.245,-15.155,-20.405,403,1,348,384,359,2025-06-03T10:37:47.846237
6408,-0.1469,0.9233,0.1659,7.035,-15.155,-20.965,401,1,350,353,366,2025-06-03T10:37:47.846237
6409,-0.1484,0.9350,0.1562,7.805,-15.960,-20.895,395,2,349,374,385,2025-06-03T10:37:47.846237
6410,-0.1327,0.9555,0.1322,8.435,-14.910,-20.580,368,1,349,388,353,2025-06-03T10:37:47.846237
6411,-0.1200,0.9750,0.1069,8.680,-11.830,-20.580,372,1,351,393,363,2025-06-03T10:37:47.846237
6412,-0.0922,0.9897,0.1093,8.085,-8.505,-20.475,389,2,360,399,381,2025-06-03T10:37:47.935425
6413,-0.0888,0.9945,0.1240,7.525,-4.830,-19.845,392,1,355,398,383,2025-06-03T10:37:47.935425
6414,-0.1064,1.0019,0.1313,7.455,-3.955,-18.795,388,2,355,404,388,2025-06-03T10:37:47.935425
6415,-0.1161,1.0165,0.1279,6.825,-6.580,-17.675,370,2,361,407,383,2025-06-03T10:37:47.935425
6416,-0.1059,1.0297,0.1337,6.370,-9.485,-16.625,378,2,366,397,376,2025-06-03T10:37:47.935425
6417,-0.0883,1.0404,0.1469,6.335,-11.340,-15.680,387,2,366,404,393,2025-06-03T10:37:47.935425
6418,-0.0776,1.0551,0.1547,6.195,-12.145,-14.840,388,1,364,365,390,2025-06-03T10:37:47.935425
6419,-0.0620,1.0741,0.1596,5.355,-9.835,-14.350,387,1,361,390,387,2025-06-03T10:37:47.935425
6420,-0.0571,1.0775,0.1571,4.095,-5.145,-14.455,401,2,368,401,383,2025-06-03T10:37:48.050960
6421,-0.0903,1.0824,0.1815,2.730,0.175,-14.070,394,2,372,409,391,2025-06-03T10:37:48.050960
6422,-0.1181,1.0746,0.2069,1.995,2.975,-13.440,397,1,370,411,397,2025-06-03T10:37:48.050960
6423,-0.1386,1.0673,0.2162,1.610,4.025,-12.005,394,2,370,404,401,2025-06-03T10:37:48.050960
6424,-0.1791,1.0634,0.2333,0.315,4.410,-10.395,396,2,372,360,398,2025-06-03T10:37:48.050960
6425,-0.1932,1.0507,0.2469,-0.840,3.290,-8.015,394,1,370,377,405,2025-06-03T10:37:48.050960
6426,-0.1981,1.0385,0.2708,-2.030,2.170,-5.495,400,1,348,384,396,2025-06-03T10:37:48.050960
6427,-0.1747,1.0258,0.2855,-2.905,1.855,-3.290,407,1,354,359,391,2025-06-03T10:37:48.051489
6428,-0.1762,1.0136,0.2933,-3.780,2.485,-1.610,396,1,352,375,357,2025-06-03T10:37:48.051489
6429,-0.1649,1.0082,0.2923,-4.235,4.305,-0.350,390,2,359,381,378,2025-06-03T10:37:48.144536
6430,-0.1820,0.9911,0.2908,-5.285,5.775,0.945,398,1,344,394,389,2025-06-03T10:37:48.144536
6431,-0.2172,0.9770,0.2913,-5.530,6.230,2.415,398,1,331,399,382,2025-06-03T10:37:48.144536
6432,-0.2562,0.9511,0.2957,-6.230,5.320,4.130,371,1,344,394,354,2025-06-03T10:37:48.144536
6433,-0.2830,0.9218,0.3030,-6.090,1.435,5.810,379,2,353,388,378,2025-06-03T10:37:48.144536
6434,-0.2640,0.8872,0.3040,-5.915,0.805,8.890,383,1,331,385,373,2025-06-03T10:37:48.144536
6435,-0.3021,0.8711,0.2967,-4.935,-3.115,9.275,391,1,340,398,390,2025-06-03T10:37:48.144536
6436,-0.2874,0.8525,0.2899,-6.125,-3.080,10.500,391,1,347,406,366,2025-06-03T10:37:48.144536
6437,-0.2767,0.8306,0.2860,-5.460,-2.240,11.725,404,2,357,406,377,2025-06-03T10:37:48.144536
6438,-0.2591,0.8189,0.2904,-5.635,-2.240,12.460,391,2,363,409,384,2025-06-03T10:37:48.191671
6439,-0.2591,0.8150,0.2899,-4.550,-2.310,12.985,373,2,369,395,386,2025-06-03T10:37:48.191671
6440,-0.2128,0.8130,0.2733,-3.570,0.140,12.705,389,2,360,389,379,2025-06-03T10:37:48.191671
6441,-0.2040,0.8115,0.2601,-2.940,3.815,11.970,393,1,363,394,387,2025-06-03T10:37:48.348728
6442,-0.1854,0.8174,0.2557,-2.065,7.070,10.885,393,2,367,389,381,2025-06-03T10:37:48.348728
6443,-0.1645,0.8257,0.2669,-1.470,9.485,9.520,362,2,360,348,343,2025-06-03T10:37:48.348728
6444,-0.1615,0.8296,0.2669,-0.735,9.975,7.490,371,1,362,364,363,2025-06-03T10:37:48.348728
6445,-0.1732,0.8350,0.2625,0.000,8.610,5.565,384,1,366,391,373,2025-06-03T10:37:48.348728
6446,-0.1791,0.8477,0.2669,0.560,5.075,2.590,391,1,365,348,374,2025-06-03T10:37:48.348728
6447,-0.1679,0.8667,0.2708,1.435,0.980,-0.420,362,1,366,365,378,2025-06-03T10:37:48.348728
6448,-0.1518,0.8789,0.2669,1.960,-1.225,-3.080,375,1,362,375,388,2025-06-03T10:37:48.348728
6449,-0.1464,0.8950,0.2674,2.135,-0.315,-5.180,389,1,360,377,386,2025-06-03T10:37:48.348728
6450,-0.1405,0.9087,0.2718,1.960,2.415,-7.420,364,2,365,394,365,2025-06-03T10:37:48.348728
6451,-0.1381,0.9301,0.2713,1.715,5.705,-9.065,378,2,367,387,339,2025-06-03T10:37:48.348728
6452,-0.1659,0.9492,0.2772,1.645,8.190,-9.835,376,1,371,373,371,2025-06-03T10:37:48.348728
6453,-0.1532,0.9701,0.2889,1.225,10.185,-10.185,377,1,372,382,356,2025-06-03T10:37:48.348728
6454,-0.1420,0.9716,0.2865,0.805,14.175,-9.695,386,2,367,389,375,2025-06-03T10:37:48.348728
6455,-0.1713,0.9799,0.2830,0.350,17.255,-8.785,360,2,369,394,376,2025-06-03T10:37:48.395631
6456,-0.2094,0.9936,0.2855,-0.350,16.415,-8.050,372,1,365,380,378,2025-06-03T10:37:48.395631
6457,-0.2460,0.9804,0.3221,-0.140,12.250,-5.495,387,1,362,397,375,2025-06-03T10:37:48.395631
6458,-0.2713,0.9726,0.3201,0.490,5.180,-2.730,384,2,361,394,356,2025-06-03T10:37:48.395631
6459,-0.3021,0.9638,0.3250,1.995,-5.950,-0.105,398,2,369,398,388,2025-06-03T10:37:48.552351
6460,-0.2782,0.9643,0.3279,3.640,-15.295,2.625,376,1,368,369,381,2025-06-03T10:37:48.552351
6461,-0.2069,0.9740,0.3231,4.725,-18.865,4.480,375,1,357,386,392,2025-06-03T10:37:48.552351
6462,-0.1615,0.9687,0.2938,5.180,-16.695,6.125,381,1,358,380,348,2025-06-03T10:37:48.552351
6463,-0.1513,0.9609,0.2777,5.880,-13.755,7.350,390,1,352,371,360,2025-06-03T10:37:48.552351
6464,-0.1508,0.9560,0.2904,6.405,-11.515,8.015,397,0,338,310,369,2025-06-03T10:37:48.552351
6465,-0.1747,0.9418,0.3021,7.700,-10.780,8.855,391,1,337,358,375,2025-06-03T10:37:48.552351
6466,-0.1874,0.9335,0.3016,17.885,-11.445,9.415,388,1,343,363,373,2025-06-03T10:37:48.552351
6467,-0.1859,0.9292,0.2894,10.045,-13.860,9.905,363,1,353,385,377,2025-06-03T10:37:48.552351
6468,-0.1640,0.9277,0.2733,10.605,-14.945,10.080,348,1,334,395,390,2025-06-03T10:37:48.552351
6469,-0.1557,0.9189,0.2557,10.885,-14.805,10.045,342,1,324,402,383,2025-06-03T10:37:48.552351
6470,-0.1596,0.9160,0.2689,11.060,-13.405,9.730,361,1,340,405,390,2025-06-03T10:37:48.552351
6471,-0.1523,0.9116,0.2738,11.585,-11.865,9.415,381,2,342,401,394,2025-06-03T10:37:48.552351
6472,-0.1532,0.9116,0.2533,11.795,-10.220,9.310,394,1,328,386,383,2025-06-03T10:37:48.765724
6473,-0.1523,0.9130,0.2274,11.515,-9.065,9.100,383,2,333,349,371,2025-06-03T10:37:48.765724
6474,-0.1381,0.9077,0.2167,11.270,-8.645,8.680,379,1,336,385,379,2025-06-03T10:37:48.765724
6475,-0.1352,0.9048,0.2162,10.920,-7.245,8.225,381,1,343,376,360,2025-06-03T10:37:48.765724
6476,-0.1318,0.9067,0.2147,10.115,-5.040,7.525,397,2,350,390,369,2025-06-03T10:37:48.765724
6477,-0.1327,0.9106,0.2094,9.520,-3.045,6.720,390,2,350,394,394,2025-06-03T10:37:48.765724
6478,-0.1376,0.9126,0.1937,8.785,-1.925,6.125,390,1,360,405,386,2025-06-03T10:37:48.765724
6479,-0.1386,0.9170,0.1898,7.910,-1.015,5.355,393,2,365,397,396,2025-06-03T10:37:48.765724
6480,-0.1254,0.9155,0.1752,6.615,0.910,4.585,392,2,344,407,400,2025-06-03T10:37:48.765724
6481,-0.1254,0.9223,0.1718,5.285,2.555,3.815,391,1,354,404,367,2025-06-03T10:37:48.765724
6482,-0.1157,0.9282,0.1796,4.375,4.375,2.940,392,2,357,401,375,2025-06-03T10:37:48.765724
6483,-0.1332,0.9262,0.1947,3.290,4.760,2.345,392,0,332,389,383,2025-06-03T10:37:48.765724
6484,-0.1459,0.9277,0.2128,2.765,3.745,2.135,396,1,338,359,391,2025-06-03T10:37:48.765724
6485,-0.1318,0.9394,0.2181,2.730,2.030,1.645,397,1,338,374,360,2025-06-03T10:37:48.765724
6486,-0.1103,0.9467,0.2108,2.660,2.205,1.540,401,2,352,376,372,2025-06-03T10:37:48.765724
6487,-0.1005,0.9614,0.2011,2.695,4.235,0.875,397,1,357,382,381,2025-06-03T10:37:48.765724
6488,-0.1171,0.9662,0.2137,2.275,5.845,0.175,402,1,355,392,390,2025-06-03T10:37:48.765724
6489,-0.1039,0.9658,0.2298,2.625,7.385,-0.525,409,1,356,387,393,2025-06-03T10:37:48.970250
6490,-0.1113,0.9618,0.2440,2.975,8.715,-0.630,407,2,366,388,356,2025-06-03T10:37:48.970250
6491,-0.1401,0.9633,0.2445,3.325,8.330,-0.665,399,1,358,383,380,2025-06-03T10:37:48.970250
6492,-0.1581,0.9682,0.2396,3.255,7.000,-0.665,375,2,367,390,380,2025-06-03T10:37:48.970250
6493,-0.1728,0.9706,0.2445,2.905,3.850,-0.525,394,1,364,390,387,2025-06-03T10:37:48.970250
6494,-0.1752,0.9701,0.2538,3.080,0.245,-0.175,396,1,368,351,391,2025-06-03T10:37:48.970250
6495,-0.1713,0.9672,0.2445,2.590,-3.080,0.035,399,2,343,375,397,2025-06-03T10:37:48.970250
6496,-0.1645,0.9653,0.2494,2.135,-5.285,0.385,398,1,356,376,353,2025-06-03T10:37:48.970250
6497,-0.1527,0.9672,0.2450,1.120,-5.635,0.455,399,1,352,385,379,2025-06-03T10:37:48.970250
6498,-0.1405,0.9662,0.2313,0.315,-4.025,0.560,391,1,358,401,377,2025-06-03T10:37:48.970250
6499,-0.1488,0.9648,0.2318,-0.910,-1.575,0.840,398,1,356,356,379,2025-06-03T10:37:48.970250
6500,-0.1645,0.9584,0.2318,-1.820,-0.665,0.700,388,1,360,338,375,2025-06-03T10:37:48.970250
6501,-0.1776,0.9511,0.2347,-2.730,-1.540,1.155,395,1,365,374,380,2025-06-03T10:37:48.970250
6502,-0.1806,0.9443,0.2235,-3.325,-4.165,1.295,364,1,363,384,391,2025-06-03T10:37:48.970250
6503,-0.1776,0.9428,0.2279,-4.095,-6.475,1.190,384,1,370,316,342,2025-06-03T10:37:48.970250
6504,-0.1625,0.9394,0.2289,-4.340,-7.385,0.770,333,1,360,347,365,2025-06-03T10:37:48.970250
6505,-0.1464,0.9379,0.2216,-4.760,-7.070,0.385,362,1,362,338,379,2025-06-03T10:37:48.970250
6506,-0.1459,0.9296,0.2181,-4.620,-6.650,0.105,370,2,341,376,387,2025-06-03T10:37:49.228263
6507,-0.1474,0.9272,0.2206,-4.655,-6.300,-0.105,368,1,349,392,400,2025-06-03T10:37:49.228263
6508,-0.1576,0.9243,0.2240,-4.480,-6.755,-0.245,387,2,350,395,387,2025-06-03T10:37:49.228263
6509,-0.1674,0.9306,0.2279,-4.235,-8.085,-0.035,383,2,356,404,392,2025-06-03T10:37:49.228263
6510,-0.1684,0.9292,0.2284,-4.130,-10.010,0.105,387,2,360,404,402,2025-06-03T10:37:49.228263
6511,-0.1664,0.9296,0.2269,-4.130,-11.480,0.140,397,1,363,408,361,2025-06-03T10:37:49.228263
6512,-0.1610,0.9374,0.2303,-4.025,-13.160,0.455,369,2,360,387,372,2025-06-03T10:37:49.228263
6513,-0.1591,0.9472,0.2372,-4.480,-13.615,0.385,351,2,356,399,388,2025-06-03T10:37:49.228263
6514,-0.1425,0.9589,0.2479,-4.690,-13.440,0.280,370,1,354,406,388,2025-06-03T10:37:49.228263
6515,-0.1347,0.9711,0.2562,-5.075,-12.950,0.420,375,1,335,396,346,2025-06-03T10:37:49.228263
6516,-0.1366,0.9833,0.2752,-5.495,-12.775,0.630,388,2,353,348,325,2025-06-03T10:37:49.228263
6517,-0.1391,0.9975,0.2855,-5.880,-13.230,0.945,383,1,354,336,364,2025-06-03T10:37:49.228263
6518,-0.1630,1.0043,0.2913,-5.985,-14.735,1.645,369,1,359,366,389,2025-06-03T10:37:49.228263
6519,-0.1552,1.0082,0.2850,-5.810,-16.520,2.660,383,1,359,388,355,2025-06-03T10:37:49.228263
6520,-0.1484,1.0019,0.2757,-5.740,-18.480,3.990,388,1,358,397,382,2025-06-03T10:37:49.228263
6521,-0.1396,1.0058,0.2796,-5.600,-19.320,5.460,399,1,356,402,388,2025-06-03T10:37:49.228263
6522,-0.1308,1.0014,0.2845,-5.915,-18.060,6.230,407,2,356,367,385,2025-06-03T10:37:49.228263
6523,-0.1283,0.9902,0.2777,-6.230,-16.765,7.140,402,2,353,380,362,2025-06-03T10:37:49.228263
6524,-0.1371,0.9706,0.2704,-6.370,-16.275,8.155,399,1,360,392,376,2025-06-03T10:37:49.228263
6525,-0.1488,0.9496,0.2718,-6.335,-16.520,9.065,404,1,358,399,377,2025-06-03T10:37:49.231724
6526,-0.1474,0.9331,0.2650,-5.915,-16.450,9.415,406,1,357,403,374,2025-06-03T10:37:49.231724
6527,-0.1591,0.9350,0.2464,-5.950,-15.400,10.115,404,2,354,357,378,2025-06-03T10:37:49.282318
6528,-0.1342,0.8969,0.2401,-4.515,-15.575,9.100,397,1,357,378,383,2025-06-03T10:37:49.282318
6529,-0.1327,0.8955,0.2264,-4.830,-16.380,8.575,403,1,355,369,380,2025-06-03T10:37:49.282318
6530,-0.1347,0.8833,0.2333,-3.780,-15.715,7.840,408,2,355,378,347,2025-06-03T10:37:49.282318
6531,-0.1152,0.8818,0.2303,-3.850,-14.840,7.035,399,2,360,391,364,2025-06-03T10:37:49.282318
6532,-0.1035,0.8852,0.2289,-3.080,-14.000,6.230,407,1,360,352,369,2025-06-03T10:37:49.382096
6533,-0.0927,0.8804,0.2303,-2.870,-12.565,5.425,399,2,362,335,365,2025-06-03T10:37:49.382096
6534,-0.0883,0.8808,0.2264,-2.380,-11.480,4.445,393,2,366,371,391,2025-06-03T10:37:49.382096
6535,-0.0942,0.8828,0.2216,-2.030,-10.920,3.395,388,2,365,386,397,2025-06-03T10:37:49.382096
6536,-0.0898,0.9082,0.2186,-1.855,-10.150,2.625,389,1,367,377,395,2025-06-03T10:37:49.382096
6537,-0.0903,0.9277,0.2162,-2.310,-9.030,1.960,360,1,363,382,394,2025-06-03T10:37:49.382096
6538,-0.0864,0.9438,0.2167,-2.660,-7.875,1.645,383,1,360,392,387,2025-06-03T10:37:49.382096
6539,-0.0932,0.9506,0.2118,-3.185,-7.175,1.155,381,1,343,394,354,2025-06-03T10:37:49.382096
6540,-0.0966,0.9575,0.2128,-3.430,-7.420,1.260,379,2,356,404,348,2025-06-03T10:37:49.582222
6541,-0.0966,0.9682,0.2245,-3.955,-7.385,1.540,391,1,360,382,364,2025-06-03T10:37:49.582222
6542,-0.1005,0.9721,0.2338,-4.445,-6.475,1.925,365,2,360,391,380,2025-06-03T10:37:49.582222
6543,-0.1010,0.9843,0.2338,-5.180,-5.635,2.730,369,2,370,400,393,2025-06-03T10:37:49.582222
6544,-0.1054,0.9814,0.2435,-5.845,-5.215,3.605,352,2,371,354,392,2025-06-03T10:37:49.582222
6545,-0.1049,0.9760,0.2567,-6.300,-4.900,4.655,365,2,369,368,360,2025-06-03T10:37:49.582222
6546,-0.1186,0.9692,0.2689,-6.370,-4.480,5.880,389,1,372,378,392,2025-06-03T10:37:49.582222
6547,-0.1215,0.9706,0.2772,-6.125,-4.795,7.035,363,2,374,384,394,2025-06-03T10:37:49.582222
6548,-0.1303,0.9745,0.2845,-6.405,-6.020,8.190,386,1,366,398,389,2025-06-03T10:37:49.582222
6549,-0.1220,0.9731,0.2913,-6.300,-8.190,9.450,383,1,362,357,380,2025-06-03T10:37:49.716942
6550,-0.1035,0.9692,0.3060,-6.300,-9.520,10.605,364,1,357,366,384,2025-06-03T10:37:49.716942
6551,-0.0927,0.9589,0.3235,-6.195,-10.045,10.990,389,1,361,383,393,2025-06-03T10:37:49.716942
6552,-0.0810,0.9570,0.3250,-5.740,-9.975,11.165,383,2,361,377,394,2025-06-03T10:37:49.716942
6553,-0.0971,0.9472,0.3182,-5.775,-10.955,11.025,393,2,366,384,403,2025-06-03T10:37:49.716942
6554,-0.0800,0.9409,0.3309,-5.530,-11.865,10.360,387,2,371,389,403,2025-06-03T10:37:49.716942
6555,-0.0761,0.9272,0.3421,-5.285,-12.985,9.415,399,1,344,401,403,2025-06-03T10:37:49.716942
6556,-0.0805,0.9116,0.3455,-4.795,-14.280,8.575,389,1,356,396,403,2025-06-03T10:37:49.716942
6557,-0.0864,0.9013,0.3455,-4.445,-15.050,7.350,384,1,354,401,404,2025-06-03T10:37:49.716942
6558,-0.0956,0.8950,0.3377,-3.780,-15.750,6.615,383,1,335,391,388,2025-06-03T10:37:49.716942
6559,-0.0961,0.8911,0.3314,-3.325,-16.310,5.740,394,1,347,395,390,2025-06-03T10:37:49.716942
6560,-0.0917,0.8823,0.3279,-2.695,-15.680,5.005,392,2,352,367,376,2025-06-03T10:37:49.716942
6561,-0.0864,0.8804,0.3192,-2.380,-14.070,4.305,403,1,359,380,387,2025-06-03T10:37:49.716942
6562,-0.0966,0.8823,0.3138,-2.100,-12.880,3.850,393,1,364,361,373,2025-06-03T10:37:49.716942
6563,-0.1035,0.8882,0.3055,-2.030,-12.215,3.990,404,1,365,366,388,2025-06-03T10:37:49.716942
6564,-0.1049,0.8872,0.3026,-1.680,-12.320,4.480,345,1,360,372,385,2025-06-03T10:37:49.717936
6565,-0.1059,0.8886,0.2982,-1.680,-12.145,4.690,372,2,367,387,389,2025-06-03T10:37:49.717936
6566,-0.1049,0.8926,0.2816,-1.785,-12.145,4.760,388,2,370,389,382,2025-06-03T10:37:49.790827
6567,-0.1010,0.8882,0.2786,-2.065,-12.460,5.040,379,2,362,363,394,2025-06-03T10:37:49.790827
6568,-0.0976,0.8882,0.2782,-2.205,-12.705,5.005,356,1,367,339,384,2025-06-03T10:37:49.790827
6569,-0.0830,0.8926,0.2791,-2.030,-12.180,4.830,372,2,369,359,390,2025-06-03T10:37:49.790827
6570,-0.0703,0.8984,0.2762,-2.030,-11.060,4.585,351,2,373,375,399,2025-06-03T10:37:49.790827
6571,-0.0605,0.9008,0.2713,-1.855,-9.695,4.095,367,2,376,379,389,2025-06-03T10:37:49.790827
6572,-0.0537,0.8989,0.2674,-1.610,-8.715,3.570,381,1,377,386,389,2025-06-03T10:37:49.790827
6573,-0.0537,0.8965,0.2796,-1.400,-7.980,2.695,380,1,375,382,397,2025-06-03T10:37:49.790827
6574,-0.0556,0.8906,0.2850,-0.770,-8.295,1.715,377,2,375,386,392,2025-06-03T10:37:49.790827
6575,-0.0551,0.8872,0.2874,-0.105,-8.750,0.455,384,2,375,396,358,2025-06-03T10:37:49.987909
6576,-0.0415,0.8862,0.2879,0.525,-8.750,-0.700,401,2,379,346,343,2025-06-03T10:37:49.987909
6577,-0.0317,0.8926,0.2908,1.260,-7.245,-1.715,399,1,368,369,374,2025-06-03T10:37:49.987909
6578,-0.0303,0.8911,0.2982,1.645,-5.670,-2.520,405,2,366,389,388,2025-06-03T10:37:49.987909
6579,-0.0356,0.8974,0.3006,1.960,-4.200,-3.290,397,1,369,390,365,2025-06-03T10:37:49.987909
6580,-0.0508,0.9062,0.2957,2.380,-4.690,-3.920,401,2,366,349,379,2025-06-03T10:37:49.987909
6581,-0.0498,0.9160,0.3030,2.555,-5.355,-4.235,401,2,359,366,382,2025-06-03T10:37:49.987909
6582,-0.0512,0.9218,0.3196,2.870,-5.670,-4.725,372,1,357,370,391,2025-06-03T10:37:49.987909
6583,-0.0527,0.9292,0.3206,2.975,-6.300,-5.110,387,1,358,377,392,2025-06-03T10:37:49.987909
6584,-0.0595,0.9296,0.3245,3.220,-7.350,-5.215,370,1,364,376,376,2025-06-03T10:37:49.987909
6585,-0.0654,0.9326,0.3260,3.220,-7.910,-5.530,353,1,357,383,379,2025-06-03T10:37:49.987909
6586,-0.0698,0.9374,0.3314,3.185,-8.470,-5.880,374,1,360,404,395,2025-06-03T10:37:49.987909
6587,-0.0649,0.9477,0.3367,3.115,-9.310,-5.985,388,1,340,405,396,2025-06-03T10:37:49.987909
6588,-0.0649,0.9482,0.3274,3.115,-9.415,-5.915,384,2,344,395,380,2025-06-03T10:37:49.987909
6589,-0.0673,0.9536,0.3353,3.045,-9.030,-5.705,393,1,346,389,383,2025-06-03T10:37:49.987909
6590,-0.0678,0.9589,0.3372,2.765,-8.855,-5.565,395,1,350,397,391,2025-06-03T10:37:49.987909
6591,-0.0815,0.9540,0.3333,2.310,-9.310,-5.285,392,1,355,402,405,2025-06-03T10:37:49.987909
6592,-0.0883,0.9501,0.3387,2.065,-10.605,-4.935,395,2,362,399,403,2025-06-03T10:37:50.201715
6593,-0.0878,0.9457,0.3406,1.855,-12.005,-4.620,398,1,366,360,388,2025-06-03T10:37:50.201715
6594,-0.0874,0.9355,0.3323,1.715,-13.230,-4.165,402,2,359,368,390,2025-06-03T10:37:50.201715
6595,-0.0810,0.9331,0.3250,1.400,-13.790,-4.025,401,1,362,385,387,2025-06-03T10:37:50.201715
6596,-0.0742,0.9248,0.3255,1.155,-13.685,-3.710,401,1,365,386,389,2025-06-03T10:37:50.201715
6597,-0.0693,0.9218,0.3187,1.225,-13.230,-3.535,399,1,368,344,345,2025-06-03T10:37:50.201715
6598,-0.0732,0.9174,0.3035,1.330,-12.740,-3.465,401,2,367,373,363,2025-06-03T10:37:50.201715
6599,-0.0800,0.9111,0.3001,1.470,-12.635,-3.465,388,1,348,390,375,2025-06-03T10:37:50.201715
6600,-0.0732,0.9057,0.3001,1.820,-12.775,-3.815,386,1,357,383,368,2025-06-03T10:37:50.201715
6601,-0.0732,0.9052,0.2967,2.205,-12.915,-4.235,398,1,355,395,375,2025-06-03T10:37:50.201715
6602,-0.0844,0.8974,0.2908,2.730,-13.300,-4.655,394,1,354,396,396,2025-06-03T10:37:50.201715
6603,-0.0771,0.9043,0.2899,3.150,-13.965,-4.900,396,1,359,400,400,2025-06-03T10:37:50.201715
6604,-0.0703,0.9082,0.2889,3.465,-14.070,-5.215,404,2,355,393,403,2025-06-03T10:37:50.201715
6605,-0.0683,0.9087,0.2933,3.675,-13.195,-5.425,406,1,359,402,401,2025-06-03T10:37:50.201715
6606,-0.0712,0.9135,0.2977,3.780,-12.495,-5.565,373,1,353,392,391,2025-06-03T10:37:50.201715
6607,-0.0732,0.9160,0.2933,3.640,-11.865,-5.635,384,1,357,396,386,2025-06-03T10:37:50.201715
6608,-0.0786,0.9233,0.2913,4.060,-11.725,-5.670,358,1,353,392,381,2025-06-03T10:37:50.201715
6609,-0.0844,0.9311,0.2938,4.270,-11.585,-5.460,370,2,358,399,383,2025-06-03T10:37:50.303218
6610,-0.0888,0.9365,0.2962,4.375,-11.585,-5.075,381,1,357,388,396,2025-06-03T10:37:50.303218
6611,-0.0878,0.9453,0.2972,4.550,-11.375,-4.340,359,2,361,380,348,2025-06-03T10:37:50.303218
6612,-0.0922,0.9477,0.2952,4.515,-11.270,-3.605,346,2,363,380,329,2025-06-03T10:37:50.303218
6613,-0.0864,0.9550,0.2948,4.760,-11.060,-2.730,368,1,365,342,327,2025-06-03T10:37:50.303218
6614,-0.0752,0.9594,0.2908,4.585,-10.640,-1.960,383,1,357,367,366,2025-06-03T10:37:50.303218
6615,-0.0659,0.9687,0.2855,4.725,-10.185,-0.980,386,1,364,387,363,2025-06-03T10:37:50.303218
6616,-0.0600,0.9736,0.2913,4.515,-9.240,-0.455,383,1,360,394,387,2025-06-03T10:37:50.303218
6617,-0.0600,0.9726,0.2913,4.445,-8.400,0.000,394,2,365,389,379,2025-06-03T10:37:50.303218
6618,-0.0639,0.9667,0.2991,3.885,-8.400,0.420,394,3,364,349,389,2025-06-03T10:37:50.351970
6619,-0.0752,0.9589,0.3001,3.535,-9.660,0.665,389,1,365,373,377,2025-06-03T10:37:50.351970
6620,-0.0820,0.9511,0.3084,3.395,-11.515,0.805,388,1,366,376,380,2025-06-03T10:37:50.351970
6621,-0.0747,0.9443,0.3104,3.290,-13.090,0.770,388,2,371,385,379,2025-06-03T10:37:50.351970
6622,-0.0664,0.9384,0.3113,3.255,-14.000,0.700,392,1,368,348,389,2025-06-03T10:37:50.609688
6623,-0.0556,0.9340,0.3177,3.325,-13.265,0.140,395,1,369,378,403,2025-06-03T10:37:50.609688
6624,-0.0512,0.9267,0.3157,3.395,-12.320,-0.630,399,2,375,397,359,2025-06-03T10:37:50.609688
6625,-0.0664,0.9189,0.3118,3.710,-12.705,-0.945,368,1,371,395,371,2025-06-03T10:37:50.609688
6626,-0.0761,0.9272,0.3226,3.675,-11.970,-1.925,381,2,376,402,393,2025-06-03T10:37:50.609688
6627,-0.0874,0.8955,0.3201,5.460,-14.315,-2.275,375,1,374,402,357,2025-06-03T10:37:50.609688
6628,-0.0830,0.9077,0.3143,5.075,-16.660,-2.905,388,1,374,405,372,2025-06-03T10:37:50.609688
6629,-0.0795,0.8994,0.3157,6.580,-16.555,-3.360,390,0,349,393,379,2025-06-03T10:37:50.609688
6630,-0.0732,0.9023,0.3070,6.580,-15.960,-3.885,386,1,354,401,379,2025-06-03T10:37:50.609688
6631,-0.0761,0.9121,0.3074,7.770,-15.470,-4.095,392,1,360,358,393,2025-06-03T10:37:50.609688
6632,-0.0747,0.9213,0.2962,8.295,-14.210,-4.025,390,1,355,374,394,2025-06-03T10:37:50.609688
6633,-0.0698,0.9272,0.2923,8.890,-12.740,-3.920,393,2,363,385,385,2025-06-03T10:37:50.609688
6634,-0.0761,0.9296,0.2869,8.925,-11.760,-3.465,391,2,362,395,390,2025-06-03T10:37:50.609688
6635,-0.0844,0.9335,0.2860,9.205,-11.305,-2.870,403,2,369,388,381,2025-06-03T10:37:50.609688
6636,-0.0888,0.9394,0.2801,9.135,-11.270,-2.485,392,1,359,378,393,2025-06-03T10:37:50.609688
6637,-0.0893,0.9438,0.2767,9.240,-11.620,-2.100,397,1,357,396,395,2025-06-03T10:37:50.609688
6638,-0.0776,0.9467,0.2718,8.960,-11.515,-1.680,393,1,357,399,397,2025-06-03T10:37:50.609688
6639,-0.0703,0.9492,0.2699,8.680,-10.360,-1.470,391,1,361,405,384,2025-06-03T10:37:50.609688
6640,-0.0630,0.9492,0.2660,8.155,-8.505,-1.330,405,1,366,400,396,2025-06-03T10:37:50.609688
6641,-0.0576,0.9506,0.2621,7.490,-6.650,-1.295,407,1,361,395,398,2025-06-03T10:37:50.609688
6642,-0.0542,0.9516,0.2645,6.475,-4.585,-1.330,382,1,363,386,405,2025-06-03T10:37:50.609688
6643,-0.0542,0.9482,0.2523,5.390,-2.940,-1.225,395,2,370,395,399,2025-06-03T10:37:50.699925
6644,-0.0620,0.9462,0.2474,3.885,-2.695,-1.225,395,2,371,394,371,2025-06-03T10:37:50.699925
6645,-0.0752,0.9384,0.2503,2.765,-4.690,-1.400,394,1,363,349,380,2025-06-03T10:37:50.699925
6646,-0.0825,0.9321,0.2523,1.435,-7.035,-1.890,400,1,366,361,390,2025-06-03T10:37:50.699925
6647,-0.0761,0.9311,0.2513,0.350,-10.185,-2.415,398,1,369,366,399,2025-06-03T10:37:50.699925
6648,-0.0752,0.9326,0.2445,-0.490,-13.440,-3.325,401,2,363,383,400,2025-06-03T10:37:50.699925
6649,-0.0620,0.9404,0.2464,-0.945,-15.960,-3.955,397,2,361,394,402,2025-06-03T10:37:50.699925
6650,-0.0366,0.9423,0.2484,-1.050,-15.890,-4.585,395,2,357,385,396,2025-06-03T10:37:50.699925
6651,-0.0229,0.9487,0.2518,-1.015,-13.790,-5.285,367,1,360,358,382,2025-06-03T10:37:50.699925
6652,-0.0220,0.9550,0.2528,-1.120,-10.675,-5.705,350,2,363,366,394,2025-06-03T10:37:50.816673
6653,-0.0395,0.9560,0.2523,-1.400,-8.785,-6.090,378,2,363,366,365,2025-06-03T10:37:50.816673
6654,-0.0595,0.9570,0.2552,-1.435,-8.645,-6.055,380,2,369,372,382,2025-06-03T10:37:50.816673
6655,-0.0766,0.9526,0.2684,-1.575,-9.275,-5.985,385,1,346,369,378,2025-06-03T10:37:50.816673
6656,-0.0810,0.9482,0.2772,-1.575,-10.115,-6.090,386,2,356,355,341,2025-06-03T10:37:50.816673
6657,-0.0800,0.9457,0.2777,-1.540,-10.640,-6.055,381,2,358,329,358,2025-06-03T10:37:50.816673
6658,-0.0825,0.9438,0.2786,-1.365,-10.605,-5.810,399,2,357,371,382,2025-06-03T10:37:50.816673
6659,-0.0761,0.9438,0.2840,-1.365,-10.255,-5.425,395,1,344,385,393,2025-06-03T10:37:50.816673
6660,-0.0756,0.9409,0.2894,-1.050,-9.695,-4.830,393,2,358,403,388,2025-06-03T10:37:50.816673
6661,-0.0805,0.9394,0.2899,-0.980,-8.820,-4.410,400,1,358,394,360,2025-06-03T10:37:50.925068
6662,-0.0844,0.9370,0.2918,-0.455,-8.645,-3.675,395,1,358,390,378,2025-06-03T10:37:50.925068
6663,-0.0932,0.9345,0.2913,-0.070,-8.855,-2.940,392,3,361,399,381,2025-06-03T10:37:50.925068
6664,-0.0908,0.9345,0.2948,0.350,-9.170,-2.520,400,2,358,399,377,2025-06-03T10:37:50.925068
6665,-0.0883,0.9340,0.3001,0.630,-9.310,-2.380,394,2,364,398,388,2025-06-03T10:37:50.925068
6666,-0.0854,0.9306,0.2938,1.120,-9.625,-2.240,388,1,365,402,393,2025-06-03T10:37:50.925068
6667,-0.0859,0.9345,0.2904,1.365,-9.835,-2.380,397,1,341,387,394,2025-06-03T10:37:50.925068
6668,-0.0800,0.9379,0.2884,1.680,-9.905,-2.695,393,1,342,363,381,2025-06-03T10:37:50.925068
6669,-0.0815,0.9409,0.2840,1.855,-9.590,-3.010,384,1,347,379,389,2025-06-03T10:37:50.970802
6670,-0.0834,0.9428,0.2806,1.995,-9.625,-3.325,362,1,358,314,383,2025-06-03T10:37:50.970802
6671,-0.0834,0.9389,0.2777,1.715,-9.590,-3.535,383,1,356,370,403,2025-06-03T10:37:50.970802
6672,-0.0810,0.9389,0.2801,1.470,-9.765,-3.500,359,2,363,390,390,2025-06-03T10:37:50.970802
6673,-0.0844,0.9409,0.2899,1.400,-9.485,-3.500,384,1,365,376,388,2025-06-03T10:37:50.970802
6674,-0.0888,0.9355,0.2938,1.225,-9.310,-3.290,393,2,367,393,388,2025-06-03T10:37:51.017754
6675,-0.0956,0.9335,0.2904,1.190,-9.765,-2.975,366,2,372,392,383,2025-06-03T10:37:51.017754
6676,-0.1015,0.9311,0.2816,1.085,-10.465,-2.695,374,1,370,399,397,2025-06-03T10:37:51.017754
6677,-0.0947,0.9292,0.2855,1.085,-10.570,-2.555,387,2,370,363,390,2025-06-03T10:37:51.017754
6678,-0.0908,0.9272,0.2869,1.120,-9.835,-2.345,394,1,369,364,356,2025-06-03T10:37:51.064705
6679,-0.0908,0.9243,0.2869,1.365,-9.135,-2.310,399,2,360,334,371,2025-06-03T10:37:51.064705
6680,-0.0971,0.9282,0.2767,1.540,-9.380,-1.995,401,2,359,355,382,2025-06-03T10:37:51.064705
6681,-0.1015,0.9277,0.2786,1.540,-9.450,-1.785,401,2,367,380,392,2025-06-03T10:37:51.064705
6682,-0.0917,0.9282,0.2821,1.645,-8.995,-1.505,400,3,349,383,383,2025-06-03T10:37:51.222927
6683,-0.0927,0.9277,0.2855,1.715,-8.400,-1.365,388,2,355,386,394,2025-06-03T10:37:51.222927
6684,-0.0976,0.9311,0.2845,1.890,-8.015,-1.260,388,2,360,384,369,2025-06-03T10:37:51.222927
6685,-0.0996,0.9331,0.2840,1.820,-8.260,-1.225,387,2,364,381,380,2025-06-03T10:37:51.222927
6686,-0.0996,0.9374,0.2850,2.030,-8.575,-1.295,390,2,361,384,379,2025-06-03T10:37:51.222927
6687,-0.0878,0.9384,0.2806,1.855,-8.960,-1.225,388,1,361,396,390,2025-06-03T10:37:51.222927
6688,-0.0917,0.9414,0.2850,1.750,-8.575,-1.260,363,1,360,405,382,2025-06-03T10:37:51.222927
6689,-0.0888,0.9423,0.2884,1.365,-7.840,-1.260,372,1,353,391,379,2025-06-03T10:37:51.222927
6690,-0.0937,0.9423,0.2904,0.945,-7.490,-1.050,376,1,360,358,382,2025-06-03T10:37:51.222927
6691,-0.1000,0.9438,0.2840,0.525,-8.120,-0.910,389,2,364,371,386,2025-06-03T10:37:51.222927
6692,-0.1044,0.9355,0.2899,0.175,-9.170,-0.700,405,2,363,369,386,2025-06-03T10:37:51.222927
6693,-0.1000,0.9326,0.2904,-0.140,-9.835,-0.560,378,1,368,379,380,2025-06-03T10:37:51.222927
6694,-0.0981,0.9316,0.2894,-0.105,-9.975,-0.315,381,1,368,384,395,2025-06-03T10:37:51.222927
6695,-0.0898,0.9296,0.2850,0.000,-9.380,-0.455,394,1,363,390,406,2025-06-03T10:37:51.328353
6696,-0.0903,0.9272,0.2821,0.210,-8.610,-0.350,370,1,367,381,388,2025-06-03T10:37:51.328353
6697,-0.0883,0.9287,0.2811,0.385,-7.840,-0.455,355,2,362,395,389,2025-06-03T10:37:51.328353
6698,-0.0917,0.9292,0.2811,0.875,-7.560,-0.490,365,2,362,403,398,2025-06-03T10:37:51.328353
6699,-0.0966,0.9306,0.2786,1.330,-7.840,-0.455,375,2,358,414,399,2025-06-03T10:37:51.492882
6700,-0.0986,0.9331,0.2738,1.750,-8.295,-0.490,386,1,364,395,394,2025-06-03T10:37:51.492882
6701,-0.0947,0.9340,0.2723,1.960,-8.330,-0.700,387,2,358,386,351,2025-06-03T10:37:51.492882
6702,-0.0859,0.9331,0.2772,2.065,-8.085,-0.840,361,1,359,386,344,2025-06-03T10:37:51.492882
6703,-0.0834,0.9340,0.2743,1.995,-7.770,-0.980,376,1,365,389,363,2025-06-03T10:37:51.492882
6704,-0.0844,0.9326,0.2728,1.785,-7.595,-0.980,388,1,364,361,366,2025-06-03T10:37:51.492882
6705,-0.0834,0.9316,0.2796,1.505,-7.525,-0.980,399,2,344,383,384,2025-06-03T10:37:51.492882
6706,-0.0854,0.9345,0.2889,1.225,-7.035,-1.050,371,2,332,382,392,2025-06-03T10:37:51.492882
6707,-0.0849,0.9326,0.2855,0.980,-6.930,-1.295,360,1,340,403,388,2025-06-03T10:37:51.492882
6708,-0.0908,0.9326,0.2845,0.630,-7.000,-1.470,375,2,344,393,386,2025-06-03T10:37:51.492882
6709,-0.0952,0.9301,0.2918,0.315,-7.735,-1.925,359,1,343,394,385,2025-06-03T10:37:51.492882
6710,-0.0952,0.9277,0.2918,0.420,-7.980,-2.450,376,1,351,394,399,2025-06-03T10:37:51.492882
6711,-0.0952,0.9267,0.2923,0.455,-8.400,-2.660,383,2,361,382,386,2025-06-03T10:37:51.492882
6712,-0.0976,0.9238,0.2938,0.525,-8.645,-2.975,363,1,362,383,385,2025-06-03T10:37:51.492882
6713,-0.0922,0.9243,0.2948,0.665,-8.435,-3.045,377,1,342,384,362,2025-06-03T10:37:51.492882
6714,-0.0947,0.9248,0.2967,1.085,-7.875,-2.975,385,2,348,370,384,2025-06-03T10:37:51.502437
6715,-0.1010,0.9228,0.2957,1.365,-7.385,-2.765,359,1,346,312,377,2025-06-03T10:37:51.502437
6716,-0.1044,0.9267,0.3001,1.785,-7.280,-2.590,375,2,343,356,362,2025-06-03T10:37:51.502437
6717,-0.1064,0.9282,0.2972,2.380,-7.455,-2.310,381,1,358,339,365,2025-06-03T10:37:51.502437
6718,-0.1118,0.9316,0.2957,2.695,-7.840,-2.030,384,1,353,363,389,2025-06-03T10:37:51.631934
6719,-0.1118,0.9326,0.2884,2.800,-8.470,-1.645,385,2,359,378,349,2025-06-03T10:37:51.631934
6720,-0.1020,0.9350,0.2899,2.835,-8.260,-1.435,389,1,356,363,369,2025-06-03T10:37:51.631934
6721,-0.0952,0.9379,0.2948,2.800,-7.735,-1.155,394,1,354,389,374,2025-06-03T10:37:51.631934
6722,-0.0981,0.9399,0.2957,2.625,-7.245,-1.085,401,2,363,380,386,2025-06-03T10:37:51.631934
6723,-0.1044,0.9399,0.2967,2.240,-7.525,-1.190,397,1,341,377,394,2025-06-03T10:37:51.631934
6724,-0.1078,0.9418,0.2943,2.065,-8.680,-1.365,400,2,328,358,389,2025-06-03T10:37:51.631934
6725,-0.1059,0.9414,0.2913,1.890,-9.870,-1.435,368,2,335,374,400,2025-06-03T10:37:51.631934
6726,-0.1035,0.9365,0.2928,1.785,-10.220,-1.470,377,1,349,378,404,2025-06-03T10:37:51.631934
6727,-0.1010,0.9331,0.2923,1.470,-10.395,-1.680,394,2,357,386,397,2025-06-03T10:37:51.631934
6728,-0.1030,0.9335,0.2889,1.225,-10.570,-1.575,392,1,353,390,391,2025-06-03T10:37:51.631934
6729,-0.1039,0.9287,0.2860,1.225,-10.745,-1.540,388,1,357,384,397,2025-06-03T10:37:51.836869
6730,-0.1005,0.9228,0.2860,1.365,-10.850,-1.435,393,1,363,382,370,2025-06-03T10:37:51.836869
6731,-0.1039,0.9223,0.2845,1.400,-10.255,-1.295,394,1,341,375,378,2025-06-03T10:37:51.836869
6732,-0.1005,0.9204,0.2865,1.400,-10.080,-1.190,401,2,353,381,377,2025-06-03T10:37:51.836869
6733,-0.0976,0.9218,0.2826,1.715,-10.045,-0.980,395,2,359,380,389,2025-06-03T10:37:51.836869
6734,-0.0761,0.9048,0.2860,2.240,-8.120,0.035,394,1,355,380,354,2025-06-03T10:37:51.836869
6735,-0.0996,0.9282,0.2708,3.045,-9.730,-0.945,391,2,337,369,371,2025-06-03T10:37:51.836869
6736,-0.0917,0.9394,0.2850,2.555,-9.415,-0.980,386,1,339,380,350,2025-06-03T10:37:51.836869
6737,-0.0859,0.9345,0.2772,3.500,-8.400,-1.190,391,1,348,396,380,2025-06-03T10:37:51.836869
6738,-0.0864,0.9404,0.2767,2.940,-8.540,-1.120,393,1,352,392,381,2025-06-03T10:37:51.836869
6739,-0.0825,0.9423,0.2816,3.675,-8.680,-1.400,389,2,360,406,364,2025-06-03T10:37:51.836869
6740,-0.0815,0.9399,0.2777,3.465,-8.435,-1.610,399,1,366,409,370,2025-06-03T10:37:51.836869
6741,-0.0776,0.9418,0.2786,3.570,-8.575,-1.610,364,2,360,396,348,2025-06-03T10:37:51.836869
6742,-0.0800,0.9418,0.2826,3.255,-8.540,-1.610,388,1,362,395,379,2025-06-03T10:37:51.836869
6743,-0.0849,0.9394,0.2835,3.150,-8.225,-1.855,385,1,360,404,393,2025-06-03T10:37:51.836869
6744,-0.0849,0.9389,0.2830,3.045,-8.400,-1.995,394,1,360,405,382,2025-06-03T10:37:51.836869
6745,-0.0869,0.9389,0.2806,2.905,-8.785,-2.205,370,1,362,408,388,2025-06-03T10:37:51.836869
6746,-0.0913,0.9360,0.2816,2.660,-9.135,-2.310,374,1,359,401,397,2025-06-03T10:37:51.836869
6747,-0.0874,0.9350,0.2855,2.345,-9.065,-2.450,351,1,365,390,359,2025-06-03T10:37:51.884435
6748,-0.0874,0.9345,0.2869,2.170,-8.610,-2.310,370,2,360,357,369,2025-06-03T10:37:51.884435
6749,-0.0966,0.9365,0.2884,2.135,-8.225,-2.345,373,2,366,373,388,2025-06-03T10:37:51.884435
6750,-0.1005,0.9360,0.2869,2.065,-8.470,-2.240,388,1,363,374,386,2025-06-03T10:37:51.884435
6751,-0.1030,0.9374,0.2835,2.065,-9.170,-2.135,387,2,360,391,394,2025-06-03T10:37:51.928300
6752,-0.0961,0.9365,0.2840,2.030,-9.380,-2.100,364,2,364,399,395,2025-06-03T10:37:51.928300
6753,-0.0927,0.9345,0.2865,2.100,-9.485,-2.240,382,2,364,399,388,2025-06-03T10:37:51.928300
6754,-0.0937,0.9326,0.2826,2.170,-9.380,-2.170,395,2,360,398,393,2025-06-03T10:37:51.928300
6755,-0.0883,0.9350,0.2830,2.065,-9.030,-2.310,398,2,363,386,356,2025-06-03T10:37:51.979697
6756,-0.0913,0.9365,0.2850,2.100,-8.750,-2.205,392,1,354,392,369,2025-06-03T10:37:51.979697
6757,-0.0898,0.9374,0.2840,2.135,-8.785,-2.205,391,1,354,365,377,2025-06-03T10:37:51.979697
6758,-0.0913,0.9384,0.2786,2.030,-8.960,-2.205,388,1,356,359,375,2025-06-03T10:37:52.037014
6759,-0.0844,0.9384,0.2713,1.995,-8.960,-2.310,391,2,356,337,376,2025-06-03T10:37:52.037014
6760,-0.0864,0.9374,0.2723,1.715,-8.890,-2.380,398,2,358,380,346,2025-06-03T10:37:52.037014
6761,-0.0859,0.9404,0.2733,1.610,-8.505,-2.485,371,2,364,382,378,2025-06-03T10:37:52.037014
6762,-0.0849,0.9404,0.2723,1.330,-8.120,-2.555,392,1,361,389,381,2025-06-03T10:37:52.037014
6763,-0.0952,0.9399,0.2679,0.910,-8.435,-2.590,384,2,359,399,386,2025-06-03T10:37:52.155175
6764,-0.0981,0.9374,0.2669,0.385,-8.610,-2.590,398,1,366,389,351,2025-06-03T10:37:52.155175
6765,-0.0942,0.9404,0.2689,-0.245,-8.575,-2.835,399,1,362,348,325,2025-06-03T10:37:52.155175
6766,-0.0869,0.9409,0.2708,-0.770,-8.225,-3.045,387,2,357,373,362,2025-06-03T10:37:52.155175
6767,-0.0883,0.9399,0.2733,-1.330,-7.700,-3.360,386,1,368,382,335,2025-06-03T10:37:52.155175
6768,-0.0927,0.9399,0.2713,-1.855,-7.280,-3.535,390,1,363,345,348,2025-06-03T10:37:52.155175
6769,-0.0952,0.9404,0.2777,-2.415,-7.070,-3.745,373,2,367,376,367,2025-06-03T10:37:52.155175
6770,-0.0966,0.9384,0.2786,-2.870,-7.140,-3.605,375,1,369,373,378,2025-06-03T10:37:52.155175
6771,-0.0981,0.9379,0.2772,-3.430,-7.280,-3.780,385,1,363,380,392,2025-06-03T10:37:52.155175
6772,-0.0874,0.9365,0.2728,-3.745,-7.630,-3.885,391,1,369,393,398,2025-06-03T10:37:52.155175
6773,-0.0908,0.9374,0.2782,-4.165,-7.910,-4.095,366,2,362,400,388,2025-06-03T10:37:52.244725
6774,-0.0956,0.9355,0.2913,-4.165,-8.435,-4.410,358,2,362,358,393,2025-06-03T10:37:52.244725
6775,-0.1005,0.9331,0.2913,-3.815,-9.485,-4.445,371,1,363,363,378,2025-06-03T10:37:52.244725
6776,-0.0981,0.9335,0.2908,-3.360,-10.080,-4.375,357,1,360,338,340,2025-06-03T10:37:52.244725
6777,-0.0952,0.9389,0.2830,-3.115,-9.800,-4.480,372,1,358,359,363,2025-06-03T10:37:52.244725
6778,-0.0888,0.9379,0.2899,-2.660,-9.135,-4.410,375,2,365,385,384,2025-06-03T10:37:52.244725
6779,-0.0903,0.9345,0.2962,-2.135,-7.910,-4.130,358,1,345,390,396,2025-06-03T10:37:52.244725
6780,-0.0981,0.9379,0.2977,-1.715,-6.510,-3.570,372,1,349,349,373,2025-06-03T10:37:52.244725
6781,-0.1108,0.9360,0.2933,-1.260,-6.125,-3.080,384,2,355,363,377,2025-06-03T10:37:52.461131
6782,-0.1171,0.9345,0.2923,-1.015,-6.860,-2.450,391,3,316,345,369,2025-06-03T10:37:52.461131
6783,-0.1186,0.9326,0.2996,-0.665,-7.245,-1.715,385,1,326,364,354,2025-06-03T10:37:52.461131
6784,-0.1205,0.9316,0.3035,-0.350,-7.420,-1.225,396,2,335,371,377,2025-06-03T10:37:52.461131
6785,-0.1176,0.9287,0.3030,0.035,-7.490,-0.595,397,1,350,396,352,2025-06-03T10:37:52.461131
6786,-0.1147,0.9272,0.3040,0.245,-7.245,-0.070,396,1,357,390,379,2025-06-03T10:37:52.461131
6787,-0.1132,0.9287,0.2996,0.420,-7.210,0.175,389,1,358,394,381,2025-06-03T10:37:52.461131
6788,-0.1078,0.9267,0.3016,0.490,-7.210,0.175,389,1,360,391,385,2025-06-03T10:37:52.461131
6789,-0.1064,0.9282,0.3016,0.700,-7.070,-0.140,362,2,367,383,383,2025-06-03T10:37:52.461131
6790,-0.1049,0.9257,0.2977,0.700,-7.525,-0.280,381,1,364,403,398,2025-06-03T10:37:52.461131
6791,-0.1035,0.9272,0.3045,0.630,-7.875,-0.595,386,1,361,391,386,2025-06-03T10:37:52.461131
6792,-0.1035,0.9257,0.2996,0.805,-7.945,-0.980,387,1,339,387,381,2025-06-03T10:37:52.461131
6793,-0.1030,0.9282,0.2982,0.840,-7.735,-1.190,380,1,324,345,370,2025-06-03T10:37:52.461131
6794,-0.1020,0.9282,0.2938,0.700,-7.595,-1.435,395,2,339,379,380,2025-06-03T10:37:52.461131
6795,-0.1069,0.9296,0.2899,0.420,-7.490,-1.680,370,1,352,383,383,2025-06-03T10:37:52.461131
6796,-0.1078,0.9267,0.2904,0.245,-7.665,-1.820,349,1,347,376,390,2025-06-03T10:37:52.461131
6797,-0.1088,0.9292,0.2918,0.000,-7.770,-1.820,347,2,356,381,395,2025-06-03T10:37:52.461131
6798,-0.1152,0.9257,0.2904,-0.350,-7.700,-2.030,367,2,361,390,395,2025-06-03T10:37:52.657646
6799,-0.1142,0.9311,0.2889,-0.875,-7.980,-1.995,373,2,361,381,384,2025-06-03T10:37:52.657646
6800,-0.1171,0.9262,0.2938,-1.155,-8.470,-2.100,385,2,363,344,362,2025-06-03T10:37:52.657646
6801,-0.1181,0.9252,0.2977,-1.505,-8.750,-2.310,397,1,356,368,390,2025-06-03T10:37:52.657646
6802,-0.1161,0.9223,0.2962,-1.645,-9.135,-2.275,405,3,338,377,392,2025-06-03T10:37:52.657646
6803,-0.1220,0.9243,0.2996,-1.750,-9.765,-2.310,397,2,354,396,399,2025-06-03T10:37:52.657646
6804,-0.1235,0.9233,0.3040,-1.820,-10.710,-2.415,367,1,360,403,402,2025-06-03T10:37:52.657646
6805,-0.1166,0.9262,0.3006,-1.855,-11.130,-2.555,383,2,342,405,397,2025-06-03T10:37:52.657646
6806,-0.1176,0.9277,0.3070,-1.995,-10.955,-2.870,359,1,344,390,391,2025-06-03T10:37:52.657646
6807,-0.1240,0.9282,0.3089,-2.030,-10.815,-3.220,372,1,328,363,389,2025-06-03T10:37:52.657646
6808,-0.1244,0.9306,0.3177,-1.925,-11.060,-3.360,377,1,339,382,394,2025-06-03T10:37:52.657646
6809,-0.1225,0.9326,0.3074,-2.100,-11.690,-3.815,382,1,349,389,396,2025-06-03T10:37:52.657646
6810,-0.1235,0.9370,0.3123,-2.415,-12.320,-4.095,394,2,351,351,386,2025-06-03T10:37:52.657646
6811,-0.1259,0.9418,0.3201,-2.800,-12.600,-4.550,391,2,360,389,357,2025-06-03T10:37:52.657646
6812,-0.1283,0.9433,0.3314,-3.045,-12.915,-4.690,396,1,357,374,346,2025-06-03T10:37:52.657646
6813,-0.1303,0.9433,0.3284,-3.185,-14.105,-4.760,399,1,363,376,377,2025-06-03T10:37:52.657646
6814,-0.1381,0.9506,0.3357,-3.290,-15.540,-4.480,400,2,359,383,385,2025-06-03T10:37:52.657646
6815,-0.1381,0.9511,0.3421,-3.710,-16.730,-4.550,398,2,363,381,375,2025-06-03T10:37:52.859849
6816,-0.1342,0.9487,0.3401,-3.850,-17.745,-4.375,397,2,366,399,392,2025-06-03T10:37:52.859849
6817,-0.1381,0.9516,0.3445,-4.095,-18.795,-3.920,397,2,346,400,392,2025-06-03T10:37:52.859849
6818,-0.1425,0.9428,0.3353,-4.410,-20.160,-3.640,402,2,350,398,401,2025-06-03T10:37:52.859849
6819,-0.1386,0.9428,0.3401,-4.585,-21.000,-3.045,401,2,355,398,399,2025-06-03T10:37:52.859849
6820,-0.1386,0.9355,0.3450,-4.690,-21.350,-2.275,367,1,362,392,360,2025-06-03T10:37:52.859849
6821,-0.1376,0.9296,0.3450,-4.760,-21.140,-1.540,375,1,356,358,379,2025-06-03T10:37:52.859849
6822,-0.1337,0.9282,0.3431,-4.690,-20.615,-1.085,386,1,359,390,401,2025-06-03T10:37:52.859849
6823,-0.1337,0.9174,0.3333,-4.690,-20.545,-0.770,379,1,366,409,389,2025-06-03T10:37:52.859849
6824,-0.1244,0.9204,0.3318,-4.305,-20.860,-0.455,383,1,368,358,349,2025-06-03T10:37:52.859849
6825,-0.1215,0.9184,0.3299,-3.885,-20.650,-0.525,380,2,361,367,376,2025-06-03T10:37:52.859849
6826,-0.1152,0.9233,0.3279,-3.255,-19.810,-1.085,360,1,355,378,379,2025-06-03T10:37:52.859849
6827,-0.1054,0.9257,0.3182,-2.940,-19.845,-1.925,377,1,357,342,373,2025-06-03T10:37:52.859849
6828,-0.0961,0.9316,0.3177,-2.310,-19.740,-2.450,390,1,354,339,385,2025-06-03T10:37:52.859849
6829,-0.0952,0.9326,0.3192,-2.275,-19.075,-3.255,390,2,361,333,383,2025-06-03T10:37:52.859849
6830,-0.0854,0.9394,0.3216,-2.240,-18.235,-4.410,383,2,363,352,393,2025-06-03T10:37:52.859849
6831,-0.0898,0.9423,0.3211,-2.870,-17.395,-5.705,384,2,363,367,387,2025-06-03T10:37:52.859849
6832,-0.0883,0.9409,0.3201,-3.990,-17.010,-6.895,384,1,361,365,377,2025-06-03T10:37:53.064716
6833,-0.0864,0.9335,0.3226,-5.110,-16.695,-7.840,379,1,363,372,350,2025-06-03T10:37:53.064716
6834,-0.0878,0.9292,0.3333,-6.230,-15.855,-9.345,381,2,363,380,379,2025-06-03T10:37:53.064716
6835,-0.0922,0.9350,0.3470,-7.805,-14.910,-10.920,386,2,372,384,386,2025-06-03T10:37:53.064716
6836,-0.1118,0.9316,0.3401,-9.100,-15.120,-12.600,370,1,365,391,393,2025-06-03T10:37:53.064716
6837,-0.1230,0.9199,0.3235,-10.640,-17.850,-13.790,387,1,323,384,360,2025-06-03T10:37:53.065717
6838,-0.1449,0.9062,0.3211,-11.900,-20.965,-14.980,363,1,336,381,385,2025-06-03T10:37:53.065748
6839,-0.1606,0.8955,0.3372,-12.740,-24.325,-15.715,370,1,350,347,389,2025-06-03T10:37:53.065748
6840,-0.1532,0.8867,0.3328,-13.195,-26.810,-16.345,372,1,346,374,354,2025-06-03T10:37:53.065824
6841,-0.1493,0.8769,0.3289,-13.580,-28.840,-16.730,356,2,346,354,301,2025-06-03T10:37:53.065824
6842,-0.1625,0.8672,0.3445,-13.580,-31.115,-16.835,371,1,354,376,312,2025-06-03T10:37:53.065824
6843,-0.1440,0.8560,0.3587,-13.615,-32.165,-16.905,375,1,359,377,341,2025-06-03T10:37:53.065824
6844,-0.1474,0.8491,0.3587,-13.440,-32.270,-16.835,384,1,356,399,357,2025-06-03T10:37:53.065824
6845,-0.1601,0.8481,0.3392,-14.175,-32.760,-16.905,391,1,362,407,383,2025-06-03T10:37:53.065824
6846,-0.1601,0.8579,0.3372,-15.435,-32.620,-16.940,395,1,358,373,382,2025-06-03T10:37:53.065824
6847,-0.1620,0.8545,0.3304,-18.130,-33.215,-17.815,404,1,358,384,388,2025-06-03T10:37:53.065824
6848,-0.1864,0.8599,0.3548,-21.035,-34.475,-18.305,372,1,335,387,385,2025-06-03T10:37:53.065824
6849,-0.2094,0.8686,0.3811,-24.535,-36.820,-19.635,374,1,342,392,380,2025-06-03T10:37:53.271623
6850,-0.2030,0.8721,0.4143,-27.230,-40.565,-20.230,383,2,352,402,399,2025-06-03T10:37:53.271623
6851,-0.1932,0.8891,0.4392,-31.010,-43.820,-20.615,389,2,354,401,398,2025-06-03T10:37:53.271623
6852,-0.1757,0.9150,0.4460,-35.630,-48.090,-21.210,391,1,353,393,393,2025-06-03T10:37:53.271623
6853,-0.1488,0.9579,0.4573,-40.915,-52.535,-22.015,384,2,355,395,388,2025-06-03T10:37:53.271623
6854,-0.1244,0.9853,0.4592,-46.900,-56.000,-24.080,366,1,359,398,365,2025-06-03T10:37:53.271623
6855,-0.0874,1.0404,0.4714,-53.690,-57.470,-26.110,378,2,361,395,376,2025-06-03T10:37:53.271623
6856,-0.0146,1.1473,0.4778,-58.660,-58.135,-27.650,349,1,358,403,394,2025-06-03T10:37:53.271623
6857,0.1254,1.3659,0.4343,-66.605,-56.980,-27.335,377,2,366,392,383,2025-06-03T10:37:53.271623
6858,0.4948,1.6777,0.3226,-79.625,-52.360,-28.105,384,1,367,379,391,2025-06-03T10:37:53.271623
6859,0.6490,2.2306,0.0839,-101.675,-46.375,-29.925,386,1,366,392,378,2025-06-03T10:37:53.271623
6860,1.0072,2.8328,-0.2230,-129.325,-52.745,-34.370,361,2,359,389,379,2025-06-03T10:37:53.271623
6861,1.3488,3.7864,-0.4680,-159.250,-74.515,-36.505,369,2,356,384,389,2025-06-03T10:37:53.271623
6862,1.4381,4.3090,-0.7501,-197.155,-105.385,-41.335,377,2,356,398,387,2025-06-03T10:37:53.271623
6863,1.3327,4.5462,-1.0350,-217.840,-146.125,-56.245,382,1,357,394,403,2025-06-03T10:37:53.271623
6864,1.1444,4.3198,-1.3034,-251.125,-183.995,-79.415,365,1,365,400,365,2025-06-03T10:37:53.271623
6865,1.1180,3.7386,-1.4089,-306.880,-227.255,-114.940,375,1,369,389,342,2025-06-03T10:37:53.271623
6866,1.1117,3.3765,-1.3615,-362.005,-248.045,-162.470,393,2,366,401,375,2025-06-03T10:37:53.326018
6867,1.0565,2.4712,-1.4396,-424.900,-260.890,-204.400,398,1,362,357,373,2025-06-03T10:37:53.326018
6868,0.8745,1.6080,-1.4059,-486.290,-278.145,-266.560,389,1,356,359,380,2025-06-03T10:37:53.326018
6869,0.9067,-0.1327,-0.9633,-546.385,-289.135,-340.515,363,2,340,386,397,2025-06-03T10:37:53.326018
6870,1.0692,-2.1584,-0.4255,-596.295,-245.420,-433.440,378,1,351,387,396,2025-06-03T10:37:53.466118
6871,1.0146,-5.3265,0.2630,-602.595,-153.790,-529.480,408,1,369,407,374,2025-06-03T10:37:53.466118
6872,0.0869,-7.2751,0.5495,-508.445,-133.420,-568.050,446,1,400,429,403,2025-06-03T10:37:53.466118
6873,-1.1561,-8.2828,0.9950,-215.600,-221.865,-473.550,421,1,366,414,390,2025-06-03T10:37:53.466118
6874,-1.4328,-4.6214,0.5514,-3.430,-452.060,-232.995,399,1,353,381,378,2025-06-03T10:37:53.466118
6875,0.6764,-3.1466,-0.2752,76.125,-551.390,56.175,384,2,352,379,363,2025-06-03T10:37:53.466118
6876,3.9230,-2.7006,-0.6808,171.395,-282.625,216.090,381,1,347,375,358,2025-06-03T10:37:53.466118
6877,4.3178,-2.2341,0.0288,194.880,227.045,249.585,389,1,349,379,380,2025-06-03T10:37:53.466118
6878,2.0760,-1.9613,0.0712,204.050,526.855,252.595,377,1,357,395,388,2025-06-03T10:37:53.466118
6879,-0.6407,-1.9925,0.0874,252.455,433.370,266.105,345,1,349,381,371,2025-06-03T10:37:53.466118
6880,-1.2673,-1.8890,0.3943,253.505,177.030,265.790,365,1,351,378,377,2025-06-03T10:37:53.466118
6881,-0.6368,-1.4103,0.5002,276.255,44.275,239.645,373,1,349,388,386,2025-06-03T10:37:53.466118
6882,-0.0464,-0.8677,0.4265,274.820,23.310,202.930,355,1,359,402,364,2025-06-03T10:37:53.466118
6883,0.2469,-0.4319,0.3719,259.840,27.755,168.910,374,2,353,393,369,2025-06-03T10:37:53.692291
6884,0.2308,-0.1039,0.4807,262.570,47.600,140.140,372,1,359,393,343,2025-06-03T10:37:53.692291
6885,0.1786,0.3538,0.5597,246.365,83.825,121.905,379,2,363,386,332,2025-06-03T10:37:53.692291
6886,0.1830,0.5988,0.4973,241.010,105.945,102.690,357,1,365,394,366,2025-06-03T10:37:53.692291
6887,0.0908,0.9584,0.4163,228.585,122.150,83.405,345,2,374,394,343,2025-06-03T10:37:53.692291
6888,0.1630,1.0160,0.3758,213.220,149.625,67.795,337,2,377,380,345,2025-06-03T10:37:53.692291
6889,0.2547,0.9814,0.3616,206.570,162.505,55.475,358,1,373,377,366,2025-06-03T10:37:53.692291
6890,0.2128,1.0355,0.4060,197.960,173.390,45.640,341,1,371,391,372,2025-06-03T10:37:53.692291
6891,0.0986,1.1512,0.5724,190.820,183.960,41.440,334,1,368,400,354,2025-06-03T10:37:53.692291
6892,0.0054,1.1663,0.6212,181.755,178.640,39.690,355,1,346,391,378,2025-06-03T10:37:53.692291
6893,-0.1318,1.1273,0.6027,177.135,156.975,41.195,368,1,346,393,386,2025-06-03T10:37:53.692291
6894,-0.1903,1.0926,0.5958,173.635,131.775,43.015,373,1,349,357,376,2025-06-03T10:37:53.692291
6895,-0.1815,1.1688,0.6115,168.980,116.340,43.190,378,2,354,369,375,2025-06-03T10:37:53.692291
6896,-0.1874,1.1888,0.6193,161.175,101.255,41.300,378,1,359,380,395,2025-06-03T10:37:53.692291
6897,-0.1249,1.2610,0.5929,149.905,85.015,40.390,389,1,360,348,389,2025-06-03T10:37:53.692291
6898,-0.0815,1.2473,0.5573,137.165,74.480,42.875,392,2,361,365,382,2025-06-03T10:37:53.692291
6899,-0.0215,1.1941,0.5529,122.815,67.445,46.515,338,1,357,375,391,2025-06-03T10:37:53.692291
6900,0.0190,1.1839,0.5544,110.810,64.680,48.370,354,2,359,391,399,2025-06-03T10:37:53.692291
6901,-0.0029,1.1653,0.5231,96.915,63.140,48.020,374,2,369,394,406,2025-06-03T10:37:53.792849
6902,0.0029,1.1444,0.5007,85.260,56.035,47.215,391,2,365,404,395,2025-06-03T10:37:53.792849
6903,-0.0107,1.1112,0.4836,75.495,44.065,46.655,390,2,359,396,367,2025-06-03T10:37:53.792849
6904,-0.0171,1.1209,0.4607,67.445,32.620,44.135,394,1,359,396,373,2025-06-03T10:37:53.792849
6905,0.0127,1.1346,0.4226,60.725,21.910,39.620,396,2,357,399,378,2025-06-03T10:37:53.792849
6906,0.0185,1.1180,0.3684,54.915,14.735,35.875,370,1,362,391,381,2025-06-03T10:37:53.792849
6907,0.0122,1.0687,0.3675,47.565,10.150,32.270,381,1,362,389,348,2025-06-03T10:37:53.792849
6908,-0.0005,1.0424,0.3836,43.330,4.130,30.835,381,2,361,390,369,2025-06-03T10:37:53.792849
6909,-0.0224,1.0307,0.3670,41.405,-2.345,30.100,376,1,359,396,377,2025-06-03T10:37:53.886908
6910,0.0210,1.0277,0.3240,38.500,-4.830,28.490,384,1,357,380,389,2025-06-03T10:37:53.886908
6911,0.0820,1.0136,0.3001,35.735,0.350,25.690,380,2,355,384,347,2025-06-03T10:37:53.886908
6912,0.1518,0.9965,0.2952,32.585,11.445,21.770,389,1,351,371,354,2025-06-03T10:37:53.886908
6913,0.1654,0.9858,0.3050,27.685,23.030,17.710,378,3,330,386,379,2025-06-03T10:37:53.886908
6914,0.1459,0.9770,0.3221,22.015,35.315,14.910,386,1,336,402,379,2025-06-03T10:37:53.886908
6915,0.0644,0.9623,0.3187,16.275,43.015,12.460,395,1,350,359,370,2025-06-03T10:37:53.886908
6916,-0.0278,0.9482,0.3270,11.025,43.540,9.275,372,2,329,381,372,2025-06-03T10:37:53.886908
6917,-0.0903,0.9399,0.3440,8.015,37.590,6.160,375,1,338,364,374,2025-06-03T10:37:54.093614
6918,-0.1210,0.9233,0.3436,5.355,26.215,3.955,360,2,349,389,380,2025-06-03T10:37:54.093614
6919,-0.1142,0.9277,0.3533,4.900,15.890,2.520,342,1,351,382,391,2025-06-03T10:37:54.093614
6920,-0.1108,0.9457,0.3738,3.465,4.340,1.015,366,2,356,387,393,2025-06-03T10:37:54.093614
6921,-0.0752,0.9526,0.3880,3.115,-3.570,-1.400,368,2,332,395,397,2025-06-03T10:37:54.093614
6922,-0.0361,0.9570,0.3909,2.765,-4.200,-3.850,379,1,349,386,390,2025-06-03T10:37:54.093614
6923,-0.0054,0.9648,0.3806,2.065,-1.610,-6.755,382,2,348,383,383,2025-06-03T10:37:54.093614
6924,-0.0454,0.9565,0.3694,0.210,5.215,-8.995,388,1,344,361,378,2025-06-03T10:37:54.093614
6925,-0.0810,0.9482,0.3631,-0.700,10.080,-11.375,363,1,351,370,399,2025-06-03T10:37:54.093614
6926,-0.1225,0.9360,0.3831,-1.260,9.800,-12.600,371,1,355,340,404,2025-06-03T10:37:54.093614
6927,-0.1932,0.9331,0.4099,-0.700,7.035,-13.265,377,1,350,335,357,2025-06-03T10:37:54.093614
6928,-0.2054,0.9345,0.4080,1.225,1.855,-13.510,388,1,345,352,386,2025-06-03T10:37:54.093614
6929,-0.1981,0.9379,0.3753,2.380,-6.265,-13.510,394,1,357,377,381,2025-06-03T10:37:54.093614
6930,-0.1659,0.9409,0.3660,4.935,-11.375,-13.265,399,1,361,342,385,2025-06-03T10:37:54.093614
6931,-0.1244,0.9526,0.3621,6.300,-10.500,-13.545,394,2,364,377,386,2025-06-03T10:37:54.093614
6932,-0.1200,0.9565,0.3694,7.875,-5.845,-13.650,395,1,369,376,392,2025-06-03T10:37:54.093614
6933,-0.1215,0.9453,0.3616,8.505,-3.185,-13.370,395,2,366,401,395,2025-06-03T10:37:54.093614
6934,-0.1610,0.9433,0.3553,9.380,-2.835,-12.460,404,2,376,411,392,2025-06-03T10:37:54.188093
6935,-0.2011,0.9487,0.3714,9.380,-4.900,-11.795,403,1,369,387,392,2025-06-03T10:37:54.188093
6936,-0.2103,0.9457,0.3636,9.870,-8.575,-11.165,394,2,363,399,400,2025-06-03T10:37:54.188093
6937,-0.1898,0.9438,0.3626,9.450,-12.180,-9.415,370,2,362,394,400,2025-06-03T10:37:54.188093
6938,-0.1767,0.9399,0.3523,9.695,-13.615,-7.735,379,1,357,388,396,2025-06-03T10:37:54.188093
6939,-0.1728,0.9404,0.3475,8.820,-12.565,-6.510,352,1,334,373,384,2025-06-03T10:37:54.188093
6940,-0.1757,0.9321,0.3489,8.785,-12.110,-4.690,374,1,346,394,399,2025-06-03T10:37:54.188093
6941,-0.1952,0.9340,0.3445,7.910,-10.815,-3.360,385,1,357,382,388,2025-06-03T10:37:54.188093
6942,-0.2015,0.9296,0.3377,7.455,-10.115,-1.330,382,1,349,382,388,2025-06-03T10:37:54.188093
6943,-0.1967,0.9243,0.3382,6.790,-9.590,0.420,381,1,357,377,385,2025-06-03T10:37:54.282090
6944,-0.1962,0.9213,0.3440,6.090,-9.275,2.170,386,2,364,398,392,2025-06-03T10:37:54.282090
6945,-0.2011,0.9228,0.3601,5.845,-8.435,3.570,396,2,363,391,381,2025-06-03T10:37:54.282090
6946,-0.1918,0.9262,0.3416,5.530,-7.455,4.095,396,1,342,398,379,2025-06-03T10:37:54.282090
6947,-0.1703,0.9306,0.3226,5.110,-7.630,4.970,366,2,353,399,392,2025-06-03T10:37:54.282090
6948,-0.1630,0.9296,0.3270,4.445,-7.070,5.495,376,2,336,405,398,2025-06-03T10:37:54.282090
6949,-0.1635,0.9262,0.3343,3.605,-6.300,4.900,386,1,340,403,405,2025-06-03T10:37:54.282090
6950,-0.1586,0.9243,0.3538,2.870,-6.720,4.725,387,2,344,398,402,2025-06-03T10:37:54.282090
6951,-0.1508,0.9243,0.3431,1.925,-7.840,4.095,396,1,342,391,399,2025-06-03T10:37:54.502449
6952,-0.1542,0.9257,0.3372,1.120,-8.435,3.430,385,1,346,400,408,2025-06-03T10:37:54.502449
6953,-0.1581,0.9111,0.3465,0.385,-9.660,2.905,367,1,352,406,394,2025-06-03T10:37:54.502449
6954,-0.1610,0.9033,0.3538,0.350,-10.780,2.380,349,1,353,397,388,2025-06-03T10:37:54.502449
6955,-0.1532,0.8974,0.3665,-0.140,-10.640,1.820,378,2,363,401,376,2025-06-03T10:37:54.502449
6956,-0.1464,0.9004,0.3787,-0.280,-9.940,1.435,353,1,364,371,371,2025-06-03T10:37:54.502449
6957,-0.1552,0.8945,0.3694,-0.735,-8.680,0.525,373,1,359,384,382,2025-06-03T10:37:54.502449
6958,-0.1630,0.8921,0.3636,-0.840,-8.715,-0.420,374,2,367,378,394,2025-06-03T10:37:54.502449
6959,-0.1620,0.8930,0.3626,-1.260,-9.695,-1.715,392,2,370,352,393,2025-06-03T10:37:54.502449
6960,-0.1635,0.8882,0.3704,-1.435,-10.955,-2.975,390,2,368,381,389,2025-06-03T10:37:54.502449
6961,-0.1679,0.8838,0.3826,-1.225,-12.110,-3.920,398,2,366,391,392,2025-06-03T10:37:54.502449
6962,-0.1767,0.8711,0.3836,-0.980,-13.055,-5.005,371,0,349,384,402,2025-06-03T10:37:54.502449
6963,-0.1820,0.8642,0.3875,-0.840,-14.210,-5.775,377,1,350,396,391,2025-06-03T10:37:54.502449
6964,-0.1801,0.8579,0.3826,-0.525,-14.455,-6.475,377,1,353,382,399,2025-06-03T10:37:54.502449
6965,-0.1893,0.8642,0.3836,-0.070,-13.965,-6.895,389,1,350,361,400,2025-06-03T10:37:54.502449
6966,-0.1932,0.8672,0.3904,0.280,-13.510,-7.560,398,2,350,386,398,2025-06-03T10:37:54.502449
6967,-0.1942,0.8730,0.3884,1.225,-13.405,-7.770,397,2,355,388,391,2025-06-03T10:37:54.502449
6968,-0.1923,0.8804,0.3738,1.575,-13.615,-7.595,392,1,350,398,391,2025-06-03T10:37:54.502449
6969,-0.1962,0.8833,0.3606,1.925,-13.825,-7.770,401,2,362,400,386,2025-06-03T10:37:54.552006
6970,-0.1962,0.8916,0.3758,1.750,-13.965,-8.155,404,2,359,389,391,2025-06-03T10:37:54.552006
6971,-0.1937,0.8999,0.3787,1.330,-14.980,-8.575,403,1,354,401,395,2025-06-03T10:37:54.552006
6972,-0.1996,0.9096,0.3836,0.280,-16.205,-8.785,405,1,361,385,394,2025-06-03T10:37:54.552006
6973,-0.1942,0.9194,0.3850,-0.665,-17.990,-8.715,406,2,360,400,369,2025-06-03T10:37:54.598003
6974,-0.1952,0.9501,0.3963,-2.485,-19.145,-9.065,394,1,365,388,385,2025-06-03T10:37:54.598003
6975,-0.2015,0.9823,0.4192,-5.950,-20.055,-10.535,398,2,365,389,391,2025-06-03T10:37:54.598003
6976,-0.1874,1.0106,0.4534,-10.115,-23.170,-11.480,396,2,368,387,378,2025-06-03T10:37:54.598003
6977,-0.1664,1.0712,0.4856,-16.940,-27.370,-12.390,404,2,348,393,373,2025-06-03T10:37:54.650631
6978,-0.1454,1.1702,0.5090,-26.985,-31.710,-13.405,398,1,354,397,387,2025-06-03T10:37:54.650631
6979,-0.0869,1.3342,0.5671,-39.620,-39.480,-13.580,369,1,355,394,397,2025-06-03T10:37:54.650631
6980,0.0395,1.5323,0.5871,-49.840,-49.700,-10.815,374,1,360,410,391,2025-06-03T10:37:54.650631
6981,0.1889,1.7924,0.5388,-65.310,-59.500,-5.740,381,1,368,396,348,2025-06-03T10:37:54.700039
6982,0.4353,2.1779,0.4246,-85.330,-74.410,-2.730,397,1,360,401,375,2025-06-03T10:37:54.700039
6983,0.6856,2.6942,0.2699,-109.060,-97.440,2.485,392,2,370,399,387,2025-06-03T10:37:54.700039
6984,0.9858,3.4204,0.0107,-129.780,-127.120,6.125,393,2,366,401,396,2025-06-03T10:37:54.700039
6985,1.1585,3.9035,-0.2752,-155.785,-155.225,-0.070,401,2,373,390,394,2025-06-03T10:37:54.910986
6986,1.3898,4.0201,-0.5827,-180.880,-186.830,-31.115,411,1,371,394,392,2025-06-03T10:37:54.910986
6987,1.6089,3.8084,-0.7276,-209.475,-211.470,-74.200,412,2,375,401,391,2025-06-03T10:37:54.910986
6988,1.5045,3.7039,-0.8872,-240.695,-226.660,-128.625,401,1,377,358,387,2025-06-03T10:37:54.910986
6989,1.2117,3.3862,-1.0663,-285.180,-240.940,-197.085,402,1,371,382,400,2025-06-03T10:37:54.910986
6990,0.9560,2.7191,-1.3161,-341.670,-272.720,-245.210,368,2,375,381,396,2025-06-03T10:37:54.910986
6991,0.6242,2.0906,-1.4933,-399.525,-313.425,-312.025,380,1,371,374,399,2025-06-03T10:37:54.910986
6992,0.6642,0.7203,-1.5792,-471.835,-350.420,-367.535,378,1,370,373,394,2025-06-03T10:37:54.910986
6993,1.0868,-1.2093,-1.2908,-546.350,-337.260,-428.470,387,1,372,374,404,2025-06-03T10:37:54.910986
6994,1.6797,-4.1704,-0.4773,-589.750,-220.850,-500.850,346,1,378,399,412,2025-06-03T10:37:54.910986
6995,0.9560,-6.6183,0.4070,-603.435,-30.275,-550.270,398,1,396,419,440,2025-06-03T10:37:54.910986
6996,-0.8208,-9.3027,0.6544,-434.070,7.805,-514.080,396,1,384,409,433,2025-06-03T10:37:54.910986
6997,-2.0891,-4.8478,0.6188,-92.365,-218.050,-358.575,403,1,371,397,408,2025-06-03T10:37:54.910986
6998,-2.3727,-3.7556,-0.1103,63.910,-565.600,-64.610,380,1,339,382,397,2025-06-03T10:37:54.910986
6999,2.3219,-2.3878,-0.5358,131.355,-444.745,191.905,383,1,339,378,357,2025-06-03T10:37:55.547941
7000,4.1822,-2.3736,0.2255,199.955,-40.880,280.385,393,1,342,384,388,2025-06-03T10:37:55.547941
7001,3.1227,-2.1589,0.7105,217.910,392.000,307.825,358,2,353,391,379,2025-06-03T10:37:55.547941
7002,0.9179,-2.2916,0.2274,235.970,525.840,329.525,356,1,350,381,372,2025-06-03T10:37:55.547941
7003,-0.2342,-2.0647,0.1601,248.395,434.105,349.405,358,1,347,368,332,2025-06-03T10:37:55.547941
7004,-0.9501,-1.7646,0.3943,264.005,282.240,349.370,377,1,345,374,361,2025-06-03T10:37:55.547941
7005,-0.8921,-1.2293,0.4987,295.085,196.105,333.830,380,2,330,384,385,2025-06-03T10:37:55.547941
7006,-0.4734,-0.5963,0.3060,288.610,134.050,307.300,391,1,322,358,389,2025-06-03T10:37:55.547941
7007,-0.6525,-0.0010,0.0649,283.605,117.040,273.105,386,1,325,374,358,2025-06-03T10:37:55.547941
7008,-0.2733,0.3899,0.2196,274.890,114.625,240.380,389,2,338,341,362,2025-06-03T10:37:55.547941
7009,0.1513,0.7637,0.2176,258.895,122.745,220.920,394,2,337,379,377,2025-06-03T10:37:55.547941
7010,0.3338,1.1580,0.1693,246.190,143.255,199.045,404,1,353,350,387,2025-06-03T10:37:55.547941
7011,0.4338,1.2986,0.1796,224.665,173.040,172.515,400,1,356,338,393,2025-06-03T10:37:55.547941
7012,0.5553,1.3908,0.2523,207.970,196.840,153.615,407,2,359,372,393,2025-06-03T10:37:55.547941
7013,0.4885,1.5079,0.2782,202.650,201.355,140.280,396,1,366,387,398,2025-06-03T10:37:55.547941
7014,0.2674,1.5758,0.3128,192.395,185.185,128.100,399,2,365,396,399,2025-06-03T10:37:55.547941
7015,0.0693,1.5982,0.3948,182.140,145.530,114.415,398,2,363,379,395,2025-06-03T10:37:55.547941
7016,0.0205,1.6338,0.4226,171.465,85.225,101.605,390,1,364,349,381,2025-06-03T10:37:55.547941
7017,0.1581,1.7207,0.4294,159.005,29.155,88.550,388,2,357,333,371,2025-06-03T10:37:55.547941
7018,0.4543,1.7724,0.4163,142.450,2.310,75.635,390,1,334,360,386,2025-06-03T10:37:55.547941
7019,0.6598,1.7139,0.4333,117.880,1.890,64.890,388,2,348,387,387,2025-06-03T10:37:55.547941
7020,0.6681,1.6226,0.4470,93.240,17.430,56.560,378,1,346,394,381,2025-06-03T10:37:55.547941
7021,0.6129,1.5645,0.5080,71.540,26.845,49.245,373,2,355,383,342,2025-06-03T10:37:55.547941
7022,0.4992,1.4757,0.5797,55.755,32.830,43.890,382,1,345,373,363,2025-06-03T10:37:55.547941
7023,0.3836,1.4103,0.5636,45.780,35.490,36.680,383,2,347,374,384,2025-06-03T10:37:55.547941
7024,0.2640,1.3083,0.5797,36.540,29.540,29.330,378,1,353,384,379,2025-06-03T10:37:55.547941
7025,0.1401,1.2263,0.6456,30.590,15.085,22.435,376,1,346,356,382,2025-06-03T10:37:55.547941
7026,0.1362,1.1736,0.6446,25.235,-0.595,16.835,385,2,345,389,385,2025-06-03T10:37:55.547941
7027,0.1635,1.1370,0.5900,19.530,-9.240,12.635,380,1,354,385,387,2025-06-03T10:37:55.547941
7028,0.1815,1.1112,0.5378,14.630,-8.575,9.835,388,2,357,381,393,2025-06-03T10:37:55.547941
7029,0.1283,1.0712,0.5251,9.135,1.015,7.315,382,1,359,378,360,2025-06-03T10:37:55.547941
7030,0.0878,1.0253,0.5334,4.935,8.365,5.915,364,1,351,381,377,2025-06-03T10:37:55.547941
7031,0.0068,0.9872,0.5431,2.450,8.610,7.000,381,1,360,395,349,2025-06-03T10:37:55.547941
7032,-0.0834,0.9423,0.5187,1.750,3.920,9.100,381,1,356,383,373,2025-06-03T10:37:55.547941
7033,-0.1513,0.9292,0.5183,1.785,-8.435,11.410,393,1,358,356,379,2025-06-03T10:37:55.547941
7034,-0.1449,0.8930,0.5270,3.850,-20.125,13.160,364,2,359,384,383,2025-06-03T10:37:55.547941
7035,-0.1039,0.8774,0.5070,5.775,-26.110,13.825,371,2,371,393,351,2025-06-03T10:37:55.547941
7036,-0.0722,0.8603,0.4963,8.505,-27.230,14.315,383,2,369,378,375,2025-06-03T10:37:55.547941
7037,0.0185,0.8677,0.4724,11.970,-22.365,14.525,392,2,363,378,378,2025-06-03T10:37:55.547941
7038,0.0654,0.8833,0.4065,15.085,-14.280,14.700,390,1,365,389,388,2025-06-03T10:37:55.547941
7039,0.0644,0.8984,0.3587,16.030,-1.330,14.875,395,2,359,399,382,2025-06-03T10:37:55.547941
7040,0.0098,0.8877,0.3636,16.205,7.245,15.155,392,1,341,382,351,2025-06-03T10:37:55.547941
7041,-0.1449,0.8540,0.3665,17.115,2.135,15.435,392,1,347,382,364,2025-06-03T10:37:55.547941
7042,-0.1664,0.8374,0.3640,18.830,-15.225,15.330,400,1,355,395,383,2025-06-03T10:37:55.547941
7043,-0.0898,0.8447,0.3357,20.545,-28.665,14.455,402,2,358,400,393,2025-06-03T10:37:55.547941
7044,0.0151,0.8589,0.3089,20.230,-28.630,12.635,399,2,357,385,350,2025-06-03T10:37:55.547941
7045,0.1405,0.8647,0.3206,18.620,-20.755,9.800,368,2,363,379,375,2025-06-03T10:37:55.547941
7046,0.1606,0.8638,0.3396,15.400,-4.970,7.945,387,2,369,384,377,2025-06-03T10:37:55.547941
7047,0.1088,0.8613,0.3450,12.495,7.840,6.475,394,2,365,381,348,2025-06-03T10:37:55.547941
7048,0.0376,0.8633,0.3416,9.555,10.360,5.565,400,2,370,380,381,2025-06-03T10:37:55.547941
7049,-0.0161,0.8682,0.3440,7.980,4.970,4.340,404,1,372,400,392,2025-06-03T10:37:55.727613
7050,-0.0317,0.8467,0.3514,6.755,-2.520,3.045,370,1,369,398,350,2025-06-03T10:37:55.727613
7051,-0.0322,0.8457,0.3972,6.440,-6.545,1.295,382,1,343,348,379,2025-06-03T10:37:55.727613
7052,-0.0059,0.8442,0.4275,5.740,-8.575,-0.035,358,1,346,380,388,2025-06-03T10:37:55.727613
7053,-0.0059,0.8501,0.4392,5.180,-7.035,-1.120,357,1,357,390,389,2025-06-03T10:37:55.727613
7054,-0.0112,0.8560,0.4377,4.760,-4.515,-1.925,369,1,360,402,358,2025-06-03T10:37:55.727613
7055,-0.0468,0.8628,0.4412,5.635,-3.045,-2.485,364,2,341,393,377,2025-06-03T10:37:55.727613
7056,-0.0747,0.8672,0.4475,7.000,-3.010,-2.800,368,1,351,398,350,2025-06-03T10:37:55.727613
7057,-0.0747,0.8652,0.4304,9.275,-6.090,-2.730,381,2,356,406,339,2025-06-03T10:37:55.727613
7058,-0.0727,0.8818,0.4192,10.780,-9.100,-2.170,377,1,337,381,370,2025-06-03T10:37:55.727613
7059,-0.0327,0.9043,0.4426,11.655,-9.695,-2.100,329,2,345,381,370,2025-06-03T10:37:55.727613
7060,-0.0137,0.9116,0.4651,13.615,-8.505,-1.890,367,1,347,376,383,2025-06-03T10:37:55.727613
7061,-0.0059,0.9199,0.4485,14.945,-6.370,-2.030,370,2,357,391,391,2025-06-03T10:37:55.727613
7062,0.0029,0.9150,0.4182,15.750,-6.790,-1.785,376,1,354,402,358,2025-06-03T10:37:55.727613
7063,-0.0181,0.9174,0.4050,15.960,-8.435,-1.470,385,2,337,390,386,2025-06-03T10:37:55.727613
7064,-0.0132,0.9389,0.4036,15.715,-9.660,-1.925,393,1,343,383,382,2025-06-03T10:37:55.727613
7065,-0.0102,0.9404,0.3894,14.665,-10.850,-2.170,398,2,352,399,398,2025-06-03T10:37:55.727613
7066,-0.0127,0.9355,0.3650,14.105,-12.215,-2.170,395,2,332,396,393,2025-06-03T10:37:55.727613
7067,-0.0024,0.9360,0.3601,13.370,-12.145,-2.240,394,1,343,402,399,2025-06-03T10:37:55.727613
7068,-0.0044,0.9292,0.3538,12.915,-10.220,-2.765,392,1,328,360,395,2025-06-03T10:37:55.727613
7069,0.0068,0.9335,0.3738,12.110,-8.575,-3.045,393,1,339,385,400,2025-06-03T10:37:55.727613
7070,0.0020,0.9262,0.3723,11.130,-7.385,-2.870,368,1,346,356,399,2025-06-03T10:37:55.932609
7071,-0.0132,0.9209,0.3684,10.360,-6.685,-2.870,376,2,348,371,387,2025-06-03T10:37:55.932609
7072,-0.0127,0.9189,0.3689,10.220,-7.105,-3.045,382,1,349,377,381,2025-06-03T10:37:55.932609
7073,-0.0249,0.9267,0.3748,10.570,-7.315,-3.220,360,2,358,398,403,2025-06-03T10:37:55.932609
7074,-0.0351,0.9233,0.3670,10.500,-7.315,-3.500,380,1,360,403,409,2025-06-03T10:37:55.932609
7075,-0.0527,0.9170,0.3567,10.010,-7.700,-3.710,386,2,362,409,395,2025-06-03T10:37:55.932609
7076,-0.0551,0.9126,0.3719,9.345,-8.540,-4.095,391,1,365,401,383,2025-06-03T10:37:55.932609
7077,-0.0508,0.9140,0.3645,9.345,-8.925,-4.270,382,1,357,392,379,2025-06-03T10:37:55.932609
7078,-0.0683,0.9179,0.3704,9.310,-9.870,-4.095,381,2,360,362,376,2025-06-03T10:37:55.932609
7079,-0.0556,0.9135,0.3797,9.520,-11.095,-3.745,394,1,355,386,394,2025-06-03T10:37:55.932609
7080,-0.0537,0.8994,0.3728,10.010,-11.690,-3.220,394,2,364,354,380,2025-06-03T10:37:55.932609
7081,-0.0703,0.8945,0.3767,10.535,-11.830,-3.290,397,0,335,363,376,2025-06-03T10:37:55.932609
7082,-0.0712,0.8965,0.3753,11.410,-12.950,-3.605,379,1,338,391,386,2025-06-03T10:37:55.932609
7083,-0.0659,0.8994,0.3665,11.410,-14.385,-3.885,386,2,348,397,393,2025-06-03T10:37:55.932609
7084,-0.0581,0.8930,0.3392,10.955,-16.695,-4.270,391,1,354,410,386,2025-06-03T10:37:55.932609
7085,-0.0605,0.8799,0.3387,9.485,-18.620,-4.655,400,1,335,394,353,2025-06-03T10:37:55.932609
7086,-0.0400,0.8662,0.3362,8.260,-20.265,-5.180,397,1,337,392,379,2025-06-03T10:37:55.932609
7087,-0.0151,0.8696,0.3231,6.545,-20.055,-5.705,390,1,339,399,371,2025-06-03T10:37:55.932609
7088,-0.0142,0.8847,0.3148,3.780,-18.375,-6.545,386,1,344,389,383,2025-06-03T10:37:56.035127
7089,-0.0288,0.9008,0.3255,-0.035,-16.975,-8.225,361,1,350,401,378,2025-06-03T10:37:56.035127
7090,-0.0215,0.9013,0.3479,-3.500,-16.870,-10.920,371,2,334,355,385,2025-06-03T10:37:56.035127
7091,-0.0220,0.9204,0.3870,-8.330,-17.290,-13.440,373,2,338,384,384,2025-06-03T10:37:56.035127
7092,-0.0151,0.9677,0.3963,-14.000,-18.410,-15.785,356,1,340,394,386,2025-06-03T10:37:56.035127
7093,0.0161,1.0453,0.4480,-22.540,-18.760,-18.585,377,1,343,387,382,2025-06-03T10:37:56.035127
7094,0.0639,1.1585,0.5007,-33.705,-19.390,-23.030,380,2,328,397,349,2025-06-03T10:37:56.035127
7095,0.1118,1.2703,0.5412,-52.325,-22.365,-26.005,379,2,348,389,370,2025-06-03T10:37:56.035127
7096,0.1586,1.4298,0.5514,-57.015,-32.235,-29.050,360,2,361,395,390,2025-06-03T10:37:56.137486
7097,0.3967,1.7578,0.4260,-70.315,-50.995,-28.980,385,1,359,390,402,2025-06-03T10:37:56.137486
7098,0.6393,2.2272,0.2557,-87.640,-61.180,-27.230,396,1,362,410,366,2025-06-03T10:37:56.137486
7099,0.9848,2.8367,0.0542,-111.475,-80.920,-25.550,389,1,366,371,373,2025-06-03T10:37:56.137486
7100,1.4860,3.1715,-0.1327,-138.005,-102.585,-32.900,391,1,363,394,354,2025-06-03T10:37:56.137486
7101,1.9056,3.6283,-0.3860,-169.050,-118.895,-52.360,399,1,374,410,376,2025-06-03T10:37:56.137486
7102,1.9418,3.9235,-0.7471,-197.400,-129.815,-88.060,409,1,378,408,360,2025-06-03T10:37:56.137486
7103,1.8617,3.8801,-0.9799,-221.165,-141.995,-139.370,390,1,369,394,372,2025-06-03T10:37:56.137486
7104,1.7495,3.5512,-1.0936,-260.330,-155.855,-200.095,408,1,367,407,377,2025-06-03T10:37:56.137486
7105,1.5079,3.3770,-1.4225,-304.745,-183.365,-264.110,407,1,366,415,345,2025-06-03T10:37:56.247963
7106,1.3996,2.9236,-1.9437,-362.355,-211.120,-330.925,394,2,362,322,362,2025-06-03T10:37:56.247963
7107,1.2556,1.7885,-2.1609,-439.530,-247.835,-381.710,387,2,352,354,374,2025-06-03T10:37:56.247963
7108,1.4869,0.6734,-1.6851,-531.650,-250.110,-452.130,332,1,354,383,373,2025-06-03T10:37:56.247963
7109,1.5157,-1.9998,-1.0936,-633.150,-181.055,-563.500,361,2,369,353,381,2025-06-03T10:37:56.247963
7110,1.0970,-5.8633,-0.4577,-680.890,-82.355,-661.325,385,2,369,377,404,2025-06-03T10:37:56.247963
7111,-0.4470,-7.9276,0.1444,-583.940,-112.140,-685.895,382,1,391,406,434,2025-06-03T10:37:56.247963
7112,-3.1539,-8.3077,0.7427,-373.975,-366.730,-582.750,372,2,386,414,426,2025-06-03T10:37:56.247963
7113,-4.4413,-3.8162,0.4011,91.420,-965.055,-223.790,355,2,379,388,404,2025-06-03T10:37:56.247963
7114,2.7289,-2.6132,-1.7846,179.585,-1105.930,101.535,341,2,365,361,372,2025-06-03T10:37:56.302890
7115,6.7588,-2.3800,-0.3572,146.475,-378.105,238.280,355,2,307,358,361,2025-06-03T10:37:56.302890
7116,5.2806,-2.0418,1.0692,188.615,210.140,265.090,382,1,342,401,392,2025-06-03T10:37:56.302890
7117,2.2882,-2.0184,-0.0278,174.860,706.300,299.915,388,1,358,413,392,2025-06-03T10:37:56.302890
7118,-0.6334,-1.7958,0.1235,225.365,699.755,346.185,396,2,337,345,366,2025-06-03T10:37:56.550561
7119,-1.9598,-1.5489,0.5915,162.470,311.990,316.505,382,2,340,330,331,2025-06-03T10:37:56.550561
7120,-0.9243,-1.2190,0.5944,296.590,71.960,274.155,390,1,343,362,364,2025-06-03T10:37:56.550561
7121,0.1835,-0.6895,0.4368,314.860,40.180,217.210,371,2,359,395,388,2025-06-03T10:37:56.550561
7122,0.8028,-0.1610,0.5231,253.015,90.790,170.450,353,1,361,355,372,2025-06-03T10:37:56.550561
7123,0.6656,-0.0093,0.5104,285.915,130.375,142.205,371,2,354,364,385,2025-06-03T10:37:56.550561
7124,0.3611,0.2674,0.3953,266.735,191.975,119.140,379,2,352,368,385,2025-06-03T10:37:56.550561
7125,0.0581,0.5495,0.3192,241.150,255.395,112.980,387,2,361,387,381,2025-06-03T10:37:56.550561
7126,-0.3060,0.8023,0.3509,222.285,251.755,110.740,382,2,358,401,377,2025-06-03T10:37:56.550561
7127,-0.3943,0.8569,0.3094,194.915,222.355,113.505,384,1,358,367,371,2025-06-03T10:37:56.550561
7128,-0.5539,0.8164,0.3514,191.065,184.660,108.115,381,1,353,380,347,2025-06-03T10:37:56.550561
7129,-0.4631,0.9038,0.4900,180.040,156.415,98.665,379,1,358,342,365,2025-06-03T10:37:56.550561
7130,-0.3948,1.0341,0.5524,177.310,122.115,89.985,383,2,366,366,355,2025-06-03T10:37:56.550561
7131,-0.3348,1.1078,0.5144,168.770,91.105,85.085,357,2,362,383,380,2025-06-03T10:37:56.550561
7132,-0.2669,1.0980,0.4480,165.235,67.935,82.215,368,1,359,397,391,2025-06-03T10:37:56.550561
7133,-0.1967,1.0878,0.4475,160.720,58.275,80.990,375,2,365,403,381,2025-06-03T10:37:56.550561
7134,-0.0839,1.1936,0.4885,154.070,60.760,82.355,385,1,364,357,381,2025-06-03T10:37:56.550561
7135,-0.1240,1.2937,0.4885,142.695,69.125,82.215,388,2,362,385,399,2025-06-03T10:37:56.550561
7136,-0.1000,1.2776,0.5075,126.035,81.095,79.765,388,2,362,395,386,2025-06-03T10:37:56.550561
7137,-0.0991,1.2215,0.4953,112.665,80.815,79.240,370,2,362,318,311,2025-06-03T10:37:56.550561
7138,-0.1908,1.1253,0.4851,104.125,67.375,79.030,372,2,336,355,319,2025-06-03T10:37:56.602538
7139,-0.1806,1.1107,0.4758,99.155,43.260,79.415,381,1,349,365,347,2025-06-03T10:37:56.602538
7140,-0.1815,1.0843,0.4397,93.520,17.115,80.290,389,1,355,373,372,2025-06-03T10:37:56.602538
7141,-0.1186,1.1180,0.4255,88.585,-5.355,81.760,394,2,357,397,377,2025-06-03T10:37:56.602538
7142,-0.0210,1.1492,0.4250,81.095,-16.625,80.535,391,1,362,406,387,2025-06-03T10:37:56.602538
7143,0.0537,1.1814,0.3924,71.435,-21.595,77.525,390,1,363,392,361,2025-06-03T10:37:56.655303
7144,0.1015,1.1302,0.4216,61.670,-23.660,73.570,392,1,360,394,385,2025-06-03T10:37:56.655303
7145,0.1737,1.1649,0.4660,53.690,-21.945,71.225,386,2,359,395,386,2025-06-03T10:37:56.655303
7146,0.1815,1.1673,0.4407,46.130,-18.935,68.355,390,2,362,402,386,2025-06-03T10:37:56.655303
7147,0.2230,1.1527,0.3938,41.160,-18.165,63.630,361,2,339,385,383,2025-06-03T10:37:56.702796
7148,0.2577,1.1409,0.3504,35.210,-14.280,60.130,374,1,344,392,379,2025-06-03T10:37:56.702796
7149,0.2450,1.1605,0.3509,29.540,-8.960,56.420,374,2,327,381,370,2025-06-03T10:37:57.073938
7150,0.2050,1.1180,0.3816,25.270,-3.010,53.410,343,2,342,385,340,2025-06-03T10:37:57.073938
7151,0.1913,1.1053,0.3972,21.385,0.210,48.370,327,1,344,383,354,2025-06-03T10:37:57.073938
7152,0.1903,1.0394,0.3777,18.130,1.960,44.205,349,2,324,348,374,2025-06-03T10:37:57.073938
7153,0.1684,0.9960,0.4041,16.065,3.745,40.355,371,1,329,387,385,2025-06-03T10:37:57.073938
7154,0.1732,1.0082,0.4324,16.065,4.620,37.625,379,2,338,368,392,2025-06-03T10:37:57.073938
7155,0.1518,1.0019,0.4168,15.995,4.515,35.105,364,2,341,388,358,2025-06-03T10:37:57.073938
7156,0.1269,0.9892,0.3977,16.030,2.660,31.535,385,2,322,393,381,2025-06-03T10:37:57.073938
7157,0.1586,0.9633,0.3499,16.520,-1.505,28.420,383,2,341,355,373,2025-06-03T10:37:57.073938
7158,0.1508,0.9345,0.3416,16.450,-6.825,25.445,383,2,323,376,380,2025-06-03T10:37:57.073938
7159,0.1332,0.9301,0.3543,16.345,-10.780,21.490,386,2,335,387,390,2025-06-03T10:37:57.073938
7160,0.1293,0.9340,0.3455,15.575,-13.930,17.150,393,2,346,356,388,2025-06-03T10:37:57.073938
7161,0.1498,0.9262,0.3289,13.825,-14.245,12.810,373,1,343,372,404,2025-06-03T10:37:57.073938
7162,0.1664,0.9140,0.3333,12.600,-12.775,8.995,389,2,355,377,404,2025-06-03T10:37:57.073938
7163,0.1327,0.8974,0.3445,11.165,-11.235,4.550,369,2,360,361,357,2025-06-03T10:37:57.073938
7164,0.2284,0.8886,0.3392,11.165,-9.660,-0.070,379,1,366,385,369,2025-06-03T10:37:57.073938
7165,0.0922,0.8896,0.3138,10.395,-10.990,-3.185,393,1,365,379,385,2025-06-03T10:37:57.073938
7166,0.0932,0.9038,0.3050,8.785,-8.400,-5.390,395,1,363,388,395,2025-06-03T10:37:57.073938
7167,0.0839,0.8969,0.3289,7.770,-8.645,-7.140,397,1,360,350,392,2025-06-03T10:37:57.073938
7168,0.0654,0.8960,0.3626,6.650,-7.350,-8.225,405,1,353,366,351,2025-06-03T10:37:57.073938
7169,0.0786,0.8906,0.3816,5.985,-6.020,-8.715,405,1,360,384,348,2025-06-03T10:37:57.073938
7170,0.0810,0.9043,0.3670,6.160,-5.950,-9.135,398,2,361,347,329,2025-06-03T10:37:57.073938
7171,0.0761,0.9135,0.3616,5.180,-5.320,-10.255,403,1,354,381,367,2025-06-03T10:37:57.073938
7172,0.0649,0.9267,0.3772,4.865,-6.475,-11.200,369,2,360,399,382,2025-06-03T10:37:57.073938
7173,0.0439,0.9238,0.3743,3.395,-17.605,-11.515,392,1,359,403,393,2025-06-03T10:37:57.167306
7174,0.0054,0.9301,0.3723,3.675,-12.075,-11.585,396,2,366,397,392,2025-06-03T10:37:57.167306
7175,-0.0049,0.9438,0.3753,4.270,-14.945,-11.935,403,1,366,410,403,2025-06-03T10:37:57.167306
7176,0.0107,0.9482,0.3582,5.390,-16.170,-11.830,399,1,371,414,405,2025-06-03T10:37:57.167306
7177,0.0351,0.9477,0.3470,5.880,-13.860,-11.305,401,1,364,395,385,2025-06-03T10:37:57.167306
7178,0.0415,0.9477,0.3387,6.055,-10.325,-10.605,408,1,366,404,387,2025-06-03T10:37:57.167306
7179,0.0303,0.9496,0.3396,5.880,-8.435,-9.240,400,2,363,393,375,2025-06-03T10:37:57.167306
7180,0.0132,0.9550,0.3431,5.740,-6.965,-8.190,393,1,346,385,383,2025-06-03T10:37:57.167306
7181,0.0000,0.9501,0.3304,5.950,-6.545,-6.895,391,2,349,388,381,2025-06-03T10:37:57.167306
7182,-0.0146,0.9482,0.3289,5.670,-7.175,-5.320,386,1,355,393,388,2025-06-03T10:37:57.167306
7183,-0.0264,0.9496,0.3504,5.915,-7.980,-3.780,396,1,362,401,389,2025-06-03T10:37:57.167306
7184,-0.0278,0.9536,0.3528,5.740,-8.785,-2.800,399,1,353,391,353,2025-06-03T10:37:57.167306
7185,-0.0176,0.9492,0.3436,5.215,-9.660,-1.960,389,1,354,398,341,2025-06-03T10:37:57.167306
7186,0.0078,0.9521,0.3255,4.760,-10.430,-0.875,392,1,361,396,298,2025-06-03T10:37:57.167306
7187,0.0234,0.9531,0.3211,4.375,-9.415,-0.280,362,1,362,399,338,2025-06-03T10:37:57.167306
7188,0.0371,0.9565,0.3240,3.500,-7.490,-0.280,344,1,359,404,333,2025-06-03T10:37:57.167306
7189,0.0322,0.9467,0.3518,2.310,-4.305,-0.350,368,1,367,397,355,2025-06-03T10:37:57.167306
7190,0.0137,0.9331,0.3650,1.050,-3.430,-0.490,383,2,363,398,381,2025-06-03T10:37:57.365998
7191,-0.0146,0.9218,0.3699,0.035,-5.950,-0.700,395,1,365,357,386,2025-06-03T10:37:57.365998
7192,-0.0220,0.9116,0.3680,-0.420,-9.730,-0.805,360,2,359,380,391,2025-06-03T10:37:57.365998
7193,-0.0098,0.9116,0.3606,-0.525,-13.510,-1.260,370,1,366,397,382,2025-06-03T10:37:57.365998
7194,0.0102,0.9135,0.3499,-0.385,-14.175,-1.960,375,1,365,399,390,2025-06-03T10:37:57.365998
7195,0.0229,0.9126,0.3479,-0.455,-11.480,-3.080,384,1,358,322,372,2025-06-03T10:37:57.365998
7196,0.0468,0.9062,0.3440,-0.805,-7.875,-4.025,395,1,352,364,394,2025-06-03T10:37:57.365998
7197,0.0249,0.8984,0.3543,-1.225,-5.355,-4.865,403,1,337,363,396,2025-06-03T10:37:57.365998
7198,0.0024,0.9038,0.3694,-1.505,-4.445,-5.775,396,1,352,393,392,2025-06-03T10:37:57.365998
7199,-0.0181,0.9082,0.3645,-1.540,-6.370,-6.930,406,2,363,392,407,2025-06-03T10:37:57.365998
7200,-0.0244,0.9043,0.3387,-1.505,-8.855,-7.805,395,2,367,355,403,2025-06-03T10:37:57.365998
7201,-0.0185,0.9062,0.3333,-1.470,-10.605,-8.365,388,1,356,383,390,2025-06-03T10:37:57.365998
7202,-0.0054,0.9062,0.3426,-1.435,-11.690,-8.995,355,1,336,388,390,2025-06-03T10:37:57.365998
7203,-0.0010,0.9038,0.3450,-1.855,-11.445,-9.520,378,1,353,400,402,2025-06-03T10:37:57.365998
7204,-0.0029,0.9028,0.3504,-1.925,-10.395,-9.835,380,1,356,397,404,2025-06-03T10:37:57.365998
7205,-0.0112,0.9072,0.3475,-2.135,-9.730,-10.080,395,2,360,360,401,2025-06-03T10:37:57.365998
7206,-0.0303,0.9062,0.3504,-2.240,-9.800,-9.800,401,1,360,391,403,2025-06-03T10:37:57.365998
7207,-0.0429,0.9101,0.3636,-2.170,-10.745,-9.835,403,1,357,396,405,2025-06-03T10:37:57.410256
7208,-0.0468,0.9135,0.3792,-2.415,-12.600,-9.800,407,2,363,387,357,2025-06-03T10:37:57.410256
7209,-0.0376,0.9155,0.3865,-2.975,-13.580,-9.485,394,1,364,396,380,2025-06-03T10:37:57.410256
7210,-0.0444,0.9179,0.4041,-3.850,-13.825,-9.485,400,1,370,389,386,2025-06-03T10:37:57.410256
7211,-0.0415,0.9350,0.4407,-5.005,-14.385,-9.905,396,2,363,386,382,2025-06-03T10:37:57.465228
7212,-0.0434,0.9584,0.4646,-7.070,-16.170,-10.745,402,1,358,380,382,2025-06-03T10:37:57.465228
7213,-0.0420,0.9780,0.4836,-9.975,-19.425,-12.040,365,2,359,393,349,2025-06-03T10:37:57.465228
7214,-0.0249,0.9994,0.4934,-14.140,-22.995,-13.685,370,1,356,394,378,2025-06-03T10:37:57.465228
7215,-0.0044,1.0394,0.5129,-18.410,-26.285,-15.365,386,2,365,356,342,2025-06-03T10:37:57.582108
7216,0.0210,1.0721,0.5368,-26.145,-29.365,-17.640,396,2,365,366,377,2025-06-03T10:37:57.582108
7217,0.0630,1.1209,0.5544,-35.735,-32.130,-18.515,393,2,346,344,354,2025-06-03T10:37:57.582108
7218,0.1303,1.1897,0.5719,-48.370,-35.070,-18.060,393,2,350,370,382,2025-06-03T10:37:57.582108
7219,0.2269,1.2551,0.5470,-64.155,-35.735,-17.325,372,1,351,375,380,2025-06-03T10:37:57.582108
7220,0.3777,1.3586,0.4768,-81.585,-33.215,-17.990,391,0,335,369,344,2025-06-03T10:37:57.582108
7221,0.5768,1.5723,0.2948,-100.520,-30.030,-21.245,360,2,339,382,376,2025-06-03T10:37:57.582108
7222,0.7027,1.8339,0.0449,-118.580,-33.565,-25.375,377,1,347,380,391,2025-06-03T10:37:57.582108
7223,0.8213,2.1516,-0.1771,-143.360,-48.160,-27.055,389,2,351,379,383,2025-06-03T10:37:57.582108
7224,1.0024,2.5064,-0.3748,-169.820,-76.650,-24.850,385,2,353,379,388,2025-06-03T10:37:57.778348
7225,1.2473,2.9202,-0.5968,-199.325,-103.460,-35.035,385,1,359,373,384,2025-06-03T10:37:57.778348
7226,1.5718,3.2511,-0.7691,-231.420,-115.500,-37.135,370,1,367,378,358,2025-06-03T10:37:57.778348
7227,1.6514,3.4814,-0.8530,-262.955,-108.395,-60.270,392,1,368,354,343,2025-06-03T10:37:57.778348
7228,1.5274,3.4502,-0.8706,-289.520,-99.855,-98.490,404,2,371,383,369,2025-06-03T10:37:57.778348
7229,1.3308,3.2354,-0.8833,-315.175,-109.480,-143.885,410,1,370,363,388,2025-06-03T10:37:57.778348
7230,0.9472,2.8148,-1.0004,-347.655,-146.265,-192.010,374,1,369,387,379,2025-06-03T10:37:57.778348
7231,0.5749,2.2121,-1.3132,-377.370,-198.380,-243.530,372,1,362,360,374,2025-06-03T10:37:57.778348
7232,0.4900,1.3352,-1.4376,-416.675,-243.705,-296.170,372,1,348,370,385,2025-06-03T10:37:57.778348
7233,0.6505,0.1396,-1.1024,-460.915,-273.000,-336.875,377,1,352,392,387,2025-06-03T10:37:57.778348
7234,1.4254,-1.0555,-0.4753,-510.370,-227.220,-396.585,389,1,357,390,401,2025-06-03T10:37:57.778348
7235,1.7993,-3.2047,0.2645,-550.760,-77.070,-493.465,405,2,364,395,401,2025-06-03T10:37:57.778348
7236,1.1917,-5.3046,0.6490,-529.410,82.775,-585.935,428,2,383,415,418,2025-06-03T10:37:57.778348
7237,-0.1415,-7.4464,0.7481,-420.805,39.165,-595.350,415,1,376,405,394,2025-06-03T10:37:57.778348
7238,-2.4254,-5.5886,0.9511,-167.860,-230.160,-490.805,409,1,361,386,386,2025-06-03T10:37:57.778348
7239,-2.8899,-3.5424,0.6007,35.280,-564.410,-229.145,404,1,367,378,381,2025-06-03T10:37:57.778348
7240,0.8169,-2.1033,-0.8018,124.425,-699.405,66.990,398,0,336,344,376,2025-06-03T10:37:57.778348
7241,5.0718,-2.1667,-0.2518,134.085,-245.000,200.025,396,1,348,349,375,2025-06-03T10:37:57.972572
7242,4.1314,-1.8505,0.7422,115.430,265.125,244.265,397,2,363,375,380,2025-06-03T10:37:57.972572
7243,1.6826,-1.5226,0.3289,149.555,607.950,258.195,396,2,356,351,368,2025-06-03T10:37:57.972572
7244,-0.6290,-1.7124,0.0595,173.915,510.195,248.745,394,1,350,362,388,2025-06-03T10:37:57.972572
7245,-1.2215,-1.4211,0.3748,159.180,253.925,242.270,398,1,329,367,391,2025-06-03T10:37:57.972572
7246,-0.4753,-1.1156,0.5529,230.720,140.035,219.030,398,1,342,380,356,2025-06-03T10:37:57.972572
7247,0.1723,-0.8657,0.5109,248.185,106.190,183.820,346,1,325,371,370,2025-06-03T10:37:57.972572
7248,0.2996,-0.5383,0.4953,235.165,129.920,160.230,343,1,336,352,374,2025-06-03T10:37:57.972572
7249,-0.0054,-0.3416,0.5915,246.750,141.925,141.820,367,1,344,335,382,2025-06-03T10:37:57.972572
7250,-0.4382,0.0444,0.6080,234.780,164.360,128.520,371,1,345,360,382,2025-06-03T10:37:57.972572
7251,-0.6773,0.2879,0.5002,224.805,155.925,124.950,353,1,348,374,389,2025-06-03T10:37:57.972572
7252,-0.6871,0.3938,0.3831,207.235,131.180,125.965,375,1,345,393,392,2025-06-03T10:37:57.972572
7253,-0.6422,0.3675,0.4006,193.025,119.280,125.090,382,2,352,370,388,2025-06-03T10:37:57.972572
7254,-0.4768,0.4519,0.5758,187.390,114.240,121.100,395,2,351,382,399,2025-06-03T10:37:57.972572
7255,-0.3314,0.7193,0.5661,182.560,108.815,114.240,394,2,358,403,386,2025-06-03T10:37:57.972572
7256,-0.2967,0.9052,0.5148,176.785,102.900,107.275,394,1,356,383,373,2025-06-03T10:37:57.972572
7257,-0.3152,1.0438,0.5641,167.230,100.590,98.665,393,1,358,360,374,2025-06-03T10:37:57.972572
7258,-0.2977,1.1092,0.5871,160.930,98.280,91.420,389,1,359,377,347,2025-06-03T10:37:58.188901
7259,-0.2416,1.0453,0.5876,154.210,89.285,87.080,388,1,363,376,378,2025-06-03T10:37:58.188901
7260,-0.2123,1.0433,0.5973,150.990,82.985,80.080,396,2,364,390,353,2025-06-03T10:37:58.188901
7261,-0.1113,1.1356,0.6120,146.930,83.160,71.050,387,2,369,380,337,2025-06-03T10:37:58.188901
7262,-0.0410,1.2337,0.5544,138.670,81.130,66.115,395,2,372,391,356,2025-06-03T10:37:58.188901
7263,-0.0756,1.2415,0.4724,128.835,70.280,65.555,405,2,366,393,367,2025-06-03T10:37:58.188901
7264,-0.0908,1.2912,0.5353,117.705,62.335,64.505,400,2,363,388,308,2025-06-03T10:37:58.188901
7265,-0.0903,1.3025,0.5905,104.930,63.210,64.225,361,1,363,377,354,2025-06-03T10:37:58.188901
7266,-0.0956,1.2332,0.5880,97.510,54.145,63.140,371,1,369,347,367,2025-06-03T10:37:58.188901
7267,-0.0864,1.2376,0.5109,92.470,43.855,62.545,382,2,369,375,378,2025-06-03T10:37:58.188901
7268,-0.0908,1.2151,0.4436,87.675,32.550,62.125,393,2,373,386,349,2025-06-03T10:37:58.188901
7269,-0.0630,1.2015,0.3880,84.420,21.280,61.600,401,2,376,381,333,2025-06-03T10:37:58.188901
7270,-0.0293,1.2332,0.3758,78.820,16.065,60.865,392,1,369,373,366,2025-06-03T10:37:58.188901
7271,-0.0176,1.2800,0.4304,71.995,15.540,61.180,369,2,369,376,367,2025-06-03T10:37:58.188901
7272,0.0205,1.2732,0.3997,66.535,13.545,61.565,371,1,367,385,384,2025-06-03T10:37:58.188901
7273,-0.0015,1.2122,0.3797,57.715,9.765,62.440,356,2,343,395,377,2025-06-03T10:37:58.188901
7274,-0.0034,1.1688,0.3484,50.715,3.570,61.950,366,1,334,399,377,2025-06-03T10:37:58.188901
7275,-0.0312,1.1492,0.3353,44.345,-5.915,59.850,364,1,335,404,388,2025-06-03T10:37:58.287509
7276,0.0024,1.1453,0.3426,39.095,-14.315,56.560,369,2,347,397,378,2025-06-03T10:37:58.287509
7277,0.0483,1.1253,0.3289,34.265,-14.560,53.550,372,2,350,394,350,2025-06-03T10:37:58.287509
7278,0.1035,1.1019,0.3074,30.240,-12.250,50.680,388,2,356,404,363,2025-06-03T10:37:58.287509
7279,0.1005,1.0575,0.3333,25.305,-0.840,47.600,394,1,361,404,376,2025-06-03T10:37:58.287509
7280,0.0752,1.0150,0.3806,21.105,-5.950,43.890,397,1,355,408,379,2025-06-03T10:37:58.287509
7281,0.0600,0.9799,0.3855,17.920,-2.800,39.970,388,1,363,407,345,2025-06-03T10:37:58.287509
7282,0.0322,0.9467,0.3470,15.155,-0.140,35.525,382,1,357,385,362,2025-06-03T10:37:58.287509
7283,0.0561,0.9467,0.3157,13.020,2.660,32.130,379,2,364,362,373,2025-06-03T10:37:58.389667
7284,0.0634,0.9257,0.3148,10.605,6.020,29.365,385,2,364,371,377,2025-06-03T10:37:58.389667
7285,0.0342,0.8969,0.3484,8.960,10.080,26.565,356,2,365,372,390,2025-06-03T10:37:58.389667
7286,0.0107,0.8584,0.3728,7.945,8.295,23.345,371,3,362,396,370,2025-06-03T10:37:58.389667
7287,-0.0054,0.8638,0.3640,8.680,1.505,21.105,379,2,343,391,371,2025-06-03T10:37:58.389667
7288,-0.0020,0.8701,0.3406,10.465,-5.285,18.410,386,1,346,406,392,2025-06-03T10:37:58.389667
7289,0.0468,0.8847,0.3094,12.425,-8.190,15.995,359,1,353,404,399,2025-06-03T10:37:58.389667
7290,0.0825,0.9087,0.3011,12.985,-5.810,13.160,376,1,358,395,378,2025-06-03T10:37:58.389667
7291,0.0815,0.9145,0.3367,12.495,-0.665,10.325,381,1,354,400,360,2025-06-03T10:37:58.389667
7292,0.0717,0.9062,0.3538,11.655,5.040,8.015,379,2,355,397,375,2025-06-03T10:37:58.492206
7293,0.0420,0.8994,0.3323,10.640,6.020,5.320,374,2,337,388,380,2025-06-03T10:37:58.492206
7294,-0.0166,0.8994,0.3284,9.870,3.640,3.780,392,2,327,380,341,2025-06-03T10:37:58.492206
7295,-0.0444,0.9057,0.3411,10.290,-1.645,1.960,396,2,336,394,334,2025-06-03T10:37:58.492206
7296,-0.0361,0.9204,0.3640,10.360,-6.125,0.770,398,1,340,399,363,2025-06-03T10:37:58.492206
7297,-0.0107,0.9252,0.3694,9.485,-6.825,0.105,396,1,325,406,372,2025-06-03T10:37:58.492206
7298,-0.0098,0.9282,0.3772,8.050,-5.215,-0.560,371,1,341,406,393,2025-06-03T10:37:58.492206
7299,0.0020,0.9404,0.3689,7.140,-4.585,-1.190,374,2,329,403,395,2025-06-03T10:37:58.846798
7300,0.0122,0.9443,0.3406,6.405,-2.555,-2.170,383,2,335,406,401,2025-06-03T10:37:58.846798
7301,-0.0098,0.9360,0.3396,5.705,-0.385,-2.345,395,2,344,410,395,2025-06-03T10:37:58.846798
7302,-0.0434,0.9355,0.3597,5.390,0.665,-2.940,399,2,353,406,402,2025-06-03T10:37:58.846798
7303,-0.0698,0.9404,0.3645,5.075,0.455,-3.255,408,1,356,359,390,2025-06-03T10:37:58.846798
7304,-0.0903,0.9335,0.3709,4.830,-1.225,-2.835,406,1,357,339,388,2025-06-03T10:37:58.846798
7305,-0.0756,0.9365,0.3626,5.635,-3.955,-1.715,407,2,356,328,351,2025-06-03T10:37:58.846798
7306,-0.0659,0.9374,0.3406,5.950,-4.690,-0.840,409,2,356,319,360,2025-06-03T10:37:58.846798
7307,-0.0722,0.9326,0.3343,5.880,-4.445,-0.140,382,2,354,371,385,2025-06-03T10:37:58.846798
7308,-0.0776,0.9209,0.3436,5.425,-4.165,0.525,384,1,358,384,400,2025-06-03T10:37:58.846798
7309,-0.0888,0.9160,0.3567,4.865,-3.605,1.610,393,2,362,380,410,2025-06-03T10:37:58.846798
7310,-0.1000,0.9189,0.3582,3.850,-3.360,2.275,405,2,369,348,391,2025-06-03T10:37:58.846798
7311,-0.0859,0.9296,0.3616,2.555,-4.655,2.940,404,1,360,368,394,2025-06-03T10:37:58.846798
7312,-0.0590,0.9453,0.3504,1.960,-5.425,3.605,382,1,360,375,384,2025-06-03T10:37:58.846798
7313,-0.0522,0.9492,0.3357,1.015,-5.355,3.640,364,1,366,384,385,2025-06-03T10:37:58.846798
7314,-0.0532,0.9462,0.3396,0.385,-6.440,3.290,385,2,370,361,377,2025-06-03T10:37:58.846798
7315,-0.0503,0.9384,0.3528,-0.175,-8.015,2.450,392,2,368,340,387,2025-06-03T10:37:58.846798
7316,-0.0361,0.9316,0.3543,-0.280,-9.240,1.750,396,1,364,345,391,2025-06-03T10:37:58.846798
7317,-0.0195,0.9243,0.3416,-0.350,-9.730,1.435,400,1,363,360,390,2025-06-03T10:37:58.846798
7318,-0.0195,0.9238,0.3367,-0.560,-8.540,1.015,400,1,364,387,388,2025-06-03T10:37:58.846798
7319,-0.0215,0.9174,0.3362,-0.245,-6.440,0.665,409,0,350,388,388,2025-06-03T10:37:58.846798
7320,-0.0210,0.9072,0.3323,-0.210,-4.620,0.525,406,1,359,389,385,2025-06-03T10:37:58.846798
7321,-0.0434,0.8994,0.3416,0.070,-4.585,0.385,400,1,356,397,354,2025-06-03T10:37:58.846798
7322,-0.0595,0.9072,0.3436,0.140,-5.705,-0.105,405,1,355,389,364,2025-06-03T10:37:58.846798
7323,-0.0732,0.9052,0.3494,0.770,-8.435,-0.420,406,2,362,390,339,2025-06-03T10:37:58.846798
7324,-0.0576,0.9057,0.3640,1.855,-11.165,-0.665,405,1,359,391,329,2025-06-03T10:37:58.846798
7325,-0.0444,0.9072,0.3714,2.975,-11.340,-0.735,397,1,361,389,357,2025-06-03T10:37:58.846798
7326,-0.0366,0.9057,0.3562,3.570,-10.500,-1.155,400,2,365,397,374,2025-06-03T10:37:58.905159
7327,-0.0415,0.9096,0.3636,3.955,-9.625,-1.785,408,1,366,391,346,2025-06-03T10:37:58.905159
7328,-0.0429,0.9145,0.3665,3.745,-7.665,-2.205,405,2,359,391,362,2025-06-03T10:37:58.905159
7329,-0.0610,0.9135,0.3587,3.815,-6.370,-2.485,377,2,363,398,379,2025-06-03T10:37:58.905159
7330,-0.0800,0.9135,0.3489,3.465,-7.595,-2.730,391,2,365,404,356,2025-06-03T10:37:58.905159
7331,-0.0854,0.9111,0.3572,3.150,-10.150,-2.730,388,2,363,388,302,2025-06-03T10:37:58.905159
7332,-0.0766,0.9101,0.3587,2.835,-11.725,-2.625,387,1,368,385,354,2025-06-03T10:37:58.905159
7333,-0.0576,0.9111,0.3445,2.275,-13.020,-2.590,365,2,369,388,372,2025-06-03T10:37:58.905159
7334,-0.0405,0.9087,0.3392,1.645,-12.740,-2.555,349,1,346,402,389,2025-06-03T10:37:58.905159
7335,-0.0264,0.9082,0.3426,1.365,-11.235,-2.485,364,1,355,405,393,2025-06-03T10:37:59.005569
7336,-0.0278,0.9155,0.3299,1.225,-9.800,-2.590,381,2,365,405,385,2025-06-03T10:37:59.005569
7337,-0.0468,0.9135,0.3304,0.910,-9.450,-2.485,386,2,368,358,346,2025-06-03T10:37:59.005569
7338,-0.0498,0.9096,0.3289,0.945,-10.115,-2.485,385,1,340,383,375,2025-06-03T10:37:59.005569
7339,-0.0532,0.9057,0.3367,0.700,-10.745,-2.520,386,1,349,385,377,2025-06-03T10:37:59.005569
7340,-0.0630,0.9072,0.3455,0.805,-10.675,-2.695,393,2,350,386,383,2025-06-03T10:37:59.005569
7341,-0.0605,0.9101,0.3470,0.910,-10.780,-3.150,388,1,356,393,390,2025-06-03T10:37:59.005569
7342,-0.0620,0.9126,0.3514,1.225,-10.605,-3.255,402,1,355,380,396,2025-06-03T10:37:59.005569
7343,-0.0625,0.9170,0.3577,1.435,-10.010,-3.430,406,1,349,390,399,2025-06-03T10:37:59.050942
7344,-0.0581,0.9248,0.3523,1.820,-9.695,-3.500,394,2,359,396,360,2025-06-03T10:37:59.050942
7345,-0.0556,0.9252,0.3567,1.505,-9.730,-3.220,370,1,354,385,337,2025-06-03T10:37:59.050942
7346,-0.0590,0.9223,0.3655,1.680,-9.625,-2.800,383,1,359,394,367,2025-06-03T10:37:59.050942
7347,-0.0683,0.9233,0.3650,1.365,-9.940,-2.415,389,2,359,400,374,2025-06-03T10:37:59.216376
7348,-0.0678,0.9267,0.3645,1.365,-11.550,-1.890,398,1,357,386,342,2025-06-03T10:37:59.216376
7349,-0.0605,0.9321,0.3675,1.540,-12.740,-1.330,397,2,338,392,366,2025-06-03T10:37:59.216376
7350,-0.0512,0.9331,0.3636,1.715,-13.510,-1.015,389,2,345,393,376,2025-06-03T10:37:59.216376
7351,-0.0366,0.9306,0.3533,1.260,-13.860,-1.225,394,2,350,392,354,2025-06-03T10:37:59.216376
7352,-0.0322,0.9233,0.3523,0.805,-13.860,-1.470,372,1,354,352,336,2025-06-03T10:37:59.216376
7353,-0.0386,0.9179,0.3577,0.455,-13.230,-1.715,387,1,359,378,371,2025-06-03T10:37:59.216376
7354,-0.0405,0.9204,0.3645,0.035,-13.440,-1.925,393,1,364,398,383,2025-06-03T10:37:59.216376
7355,-0.0420,0.9194,0.3572,-0.140,-14.350,-2.240,384,1,342,401,383,2025-06-03T10:37:59.216376
7356,-0.0454,0.9165,0.3592,-0.490,-14.875,-2.590,385,1,351,395,380,2025-06-03T10:37:59.216376
7357,-0.0439,0.9140,0.3680,-0.350,-15.225,-3.150,381,1,357,398,382,2025-06-03T10:37:59.216376
7358,-0.0527,0.9140,0.3665,-0.875,-15.680,-3.920,359,1,353,400,364,2025-06-03T10:37:59.216376
7359,-0.0586,0.9228,0.3694,-1.785,-16.310,-4.725,368,1,349,393,338,2025-06-03T10:37:59.216376
7360,-0.0556,0.9121,0.3680,-2.835,-17.360,-5.145,372,2,357,377,357,2025-06-03T10:37:59.216376
7361,-0.0454,0.9184,0.3655,-4.375,-17.675,-6.055,380,1,363,397,381,2025-06-03T10:37:59.416889
7362,-0.0410,0.9374,0.3806,-5.740,-17.220,-7.805,385,1,366,322,339,2025-06-03T10:37:59.416889
7363,-0.0244,0.9555,0.3748,-8.575,-17.115,-10.605,389,1,364,353,360,2025-06-03T10:37:59.416889
7364,-0.0220,0.9916,0.3943,-12.950,-17.675,-13.090,402,2,374,369,373,2025-06-03T10:37:59.416889
7365,-0.0059,1.0072,0.4080,-19.320,-17.780,-17.115,391,1,374,348,371,2025-06-03T10:37:59.416889
7366,0.0346,1.0477,0.4143,-26.705,-18.445,-20.580,397,2,375,380,396,2025-06-03T10:37:59.416889
7367,0.0913,1.1058,0.4260,-36.575,-18.830,-22.610,372,1,366,399,399,2025-06-03T10:37:59.416889
7368,0.1781,1.1810,0.4299,-45.535,-18.655,-23.065,351,2,372,393,391,2025-06-03T10:37:59.416889
7369,0.2664,1.2878,0.4509,-59.115,-18.655,-22.435,364,1,370,402,407,2025-06-03T10:37:59.416889
7370,0.3001,1.4245,0.4568,-75.670,-21.805,-22.365,375,2,372,326,384,2025-06-03T10:37:59.416889
7371,0.3231,1.4991,0.4480,-91.175,-30.730,-21.980,374,1,366,291,371,2025-06-03T10:37:59.416889
7372,0.3899,1.6280,0.2757,-104.580,-46.305,-21.910,391,1,369,352,386,2025-06-03T10:37:59.416889
7373,0.5358,1.8729,0.2582,-119.420,-63.875,-22.365,401,1,351,364,386,2025-06-03T10:37:59.416889
7374,0.6359,2.1389,0.1405,-134.890,-83.195,-24.185,406,1,358,391,401,2025-06-03T10:37:59.416889
7375,0.7515,2.3390,0.0625,-153.370,-107.450,-25.340,402,1,364,400,409,2025-06-03T10:37:59.416889
7376,0.8760,2.5088,-0.1737,-171.605,-115.570,-30.240,406,1,368,413,398,2025-06-03T10:37:59.416889
7377,1.0175,2.9197,-0.4943,-186.760,-129.255,-34.895,384,2,350,409,358,2025-06-03T10:37:59.416889
7378,1.1775,3.2271,-0.7286,-208.495,-138.425,-49.350,394,1,361,404,372,2025-06-03T10:37:59.463035
7379,1.1663,3.4101,-0.7452,-237.090,-134.890,-77.175,365,2,369,409,384,2025-06-03T10:37:59.463035
7380,1.1527,3.2496,-0.7920,-271.495,-130.515,-118.825,362,2,349,403,383,2025-06-03T10:37:59.463035
7381,1.1785,2.8499,-0.9999,-307.790,-129.290,-172.165,374,2,332,402,393,2025-06-03T10:37:59.463035
7382,1.1175,2.2760,-1.2893,-351.575,-128.345,-240.205,384,1,344,351,384,2025-06-03T10:37:59.512965
7383,1.2195,1.5875,-1.3640,-395.920,-127.505,-321.685,384,1,343,358,358,2025-06-03T10:37:59.512965
7384,1.4137,0.3836,-1.1561,-450.135,-119.910,-416.500,396,2,351,358,373,2025-06-03T10:37:59.512965
7385,1.3376,-1.4562,-0.7647,-494.515,-81.970,-537.390,403,1,338,381,384,2025-06-03T10:37:59.512965
7386,0.9399,-4.5394,-0.0595,-524.895,-25.165,-653.135,408,2,362,394,397,2025-06-03T10:37:59.614593
7387,-0.0078,-7.1990,0.5348,-496.545,-8.750,-703.640,437,1,385,408,398,2025-06-03T10:37:59.614593
7388,-0.8779,-8.5483,0.4997,-335.090,-79.765,-619.815,430,1,374,409,384,2025-06-03T10:37:59.614593
7389,-3.1247,-4.4174,1.3259,-21.945,-400.050,-336.595,410,2,359,400,388,2025-06-03T10:37:59.614593
7390,-2.2629,-2.7962,-0.6847,95.830,-779.380,13.650,392,1,353,348,384,2025-06-03T10:37:59.614593
7391,4.8380,-2.4908,-0.7198,119.000,-480.270,269.185,375,1,354,367,378,2025-06-03T10:37:59.614593
7392,4.7326,-2.0159,1.3576,143.780,69.405,279.265,404,2,374,325,382,2025-06-03T10:37:59.614593
7393,3.1193,-1.7490,1.0243,173.845,600.985,289.520,391,1,373,366,363,2025-06-03T10:37:59.614593
7394,0.0044,-1.7573,0.2079,192.115,698.215,308.525,383,2,364,352,338,2025-06-03T10:37:59.669228
7395,-1.3278,-1.8720,0.7432,159.775,369.985,311.920,346,1,358,367,359,2025-06-03T10:37:59.669228
7396,-1.3518,-1.8076,0.9194,270.865,141.540,307.650,369,2,357,381,372,2025-06-03T10:37:59.669228
7397,-0.8603,-1.4962,0.7076,300.195,65.310,292.320,388,1,365,398,378,2025-06-03T10:37:59.669228
7398,-0.4099,-1.1058,0.6090,279.405,40.180,263.410,401,2,374,364,382,2025-06-03T10:37:59.826367
7399,-0.2977,-0.5836,0.5553,307.895,27.230,234.955,398,1,343,362,392,2025-06-03T10:37:59.826367
7400,-0.1937,0.0600,0.4397,301.980,77.245,208.005,384,1,351,378,380,2025-06-03T10:37:59.826367
7401,-0.2923,0.4817,0.2738,276.395,138.810,194.740,358,1,352,389,388,2025-06-03T10:37:59.826367
7402,-0.3079,0.5729,0.3201,277.445,152.495,189.070,372,1,351,382,353,2025-06-03T10:37:59.826367
7403,-0.2972,0.7208,0.3333,260.960,146.790,190.330,371,1,331,375,365,2025-06-03T10:37:59.826367
7404,-0.2035,0.9975,0.3148,256.410,138.215,188.825,372,1,341,391,388,2025-06-03T10:37:59.826367
7405,0.0185,1.3752,0.1591,245.350,117.320,184.450,358,1,352,386,388,2025-06-03T10:37:59.826367
7406,0.3284,1.5289,-0.0381,227.115,100.030,174.370,365,2,349,395,389,2025-06-03T10:37:59.826367
7407,0.4597,1.6641,-0.1840,200.620,101.430,158.095,379,1,347,390,399,2025-06-03T10:37:59.826367
7408,0.4939,1.6626,-0.0156,164.360,104.090,133.525,379,2,346,351,353,2025-06-03T10:37:59.826367
7409,0.5231,1.6870,0.1869,148.540,87.360,113.750,379,1,346,372,385,2025-06-03T10:37:59.826367
7410,0.4250,1.6285,0.1972,128.520,63.700,99.610,351,2,353,388,378,2025-06-03T10:37:59.826367
7411,0.4568,1.5728,0.1757,109.095,33.565,87.920,360,1,354,393,374,2025-06-03T10:37:59.881232
7412,0.5934,1.5069,0.1932,83.160,21.490,72.730,371,2,357,381,380,2025-06-03T10:37:59.881232
7413,0.6456,1.4474,0.3318,59.360,25.340,60.620,352,2,333,383,369,2025-06-03T10:37:59.881232
7414,0.4812,1.3937,0.4387,36.925,34.965,50.925,367,2,345,389,383,2025-06-03T10:37:59.881232
7415,0.2786,1.3049,0.5617,21.175,33.530,40.495,341,1,349,397,375,2025-06-03T10:37:59.881232
7416,0.2162,1.2337,0.5695,10.010,19.215,32.130,363,1,347,388,390,2025-06-03T10:38:00.036230
7417,0.1449,1.2063,0.5300,5.005,6.160,23.520,354,1,350,400,351,2025-06-03T10:38:00.036230
7418,0.1488,1.1536,0.4831,-0.980,-6.965,17.360,358,2,351,400,339,2025-06-03T10:38:00.036230
7419,0.1440,1.1239,0.4851,-0.175,-17.850,10.990,371,1,351,353,361,2025-06-03T10:38:00.036230
7420,0.1171,1.0834,0.5158,2.030,-23.660,7.000,368,2,354,377,371,2025-06-03T10:38:00.036230
7421,0.1347,1.0146,0.5363,6.125,-27.475,4.235,382,1,358,380,379,2025-06-03T10:38:00.036230
7422,0.1352,0.9628,0.5402,11.095,-28.595,3.780,385,1,365,346,389,2025-06-03T10:38:00.036230
7423,0.1552,0.9501,0.5090,16.380,-25.970,3.290,388,1,361,378,353,2025-06-03T10:38:00.036230
7424,0.1435,0.9501,0.4529,20.090,-16.275,2.835,387,1,359,376,382,2025-06-03T10:38:00.036230
7425,0.1259,0.9257,0.4377,20.860,-3.045,2.380,335,1,355,390,319,2025-06-03T10:38:00.036230
7426,0.0342,0.9028,0.4163,22.260,3.535,3.010,361,1,359,389,350,2025-06-03T10:38:00.036230
7427,-0.0527,0.8999,0.4002,22.085,3.430,3.780,378,2,369,399,364,2025-06-03T10:38:00.036230
7428,-0.1069,0.8994,0.4128,21.980,-0.875,3.990,394,1,372,372,376,2025-06-03T10:38:00.093675
7429,-0.1166,0.9023,0.4138,21.770,-7.980,3.885,396,2,370,386,390,2025-06-03T10:38:00.093675
7430,-0.0717,0.8706,0.3577,20.055,-15.225,4.270,393,2,369,379,381,2025-06-03T10:38:00.093675
7431,-0.0468,0.8740,0.3567,18.620,-19.495,4.830,396,2,363,343,386,2025-06-03T10:38:00.093675
7432,-0.0161,0.8857,0.3670,16.800,-17.745,4.515,394,1,366,381,395,2025-06-03T10:38:00.093675
7433,0.0303,0.8935,0.3445,15.610,-12.740,5.250,395,1,367,344,380,2025-06-03T10:38:00.227917
7434,0.0132,0.8769,0.3475,14.350,-6.230,6.230,400,1,365,360,362,2025-06-03T10:38:00.227917
7435,-0.0415,0.8725,0.3958,14.560,-4.655,7.315,406,2,363,371,386,2025-06-03T10:38:00.227917
7436,-0.0752,0.8682,0.4114,16.205,-10.045,7.350,402,2,369,390,357,2025-06-03T10:38:00.227917
7437,-0.0434,0.8843,0.4207,26.775,-16.135,6.895,405,1,371,397,372,2025-06-03T10:38:00.227917
7438,0.0195,0.9160,0.3992,19.705,-17.115,6.020,401,2,378,386,373,2025-06-03T10:38:00.227917
7439,0.0698,0.9296,0.3909,19.880,-14.140,4.340,392,1,373,379,388,2025-06-03T10:38:00.227917
7440,0.1069,0.9292,0.3719,19.740,-8.855,3.010,367,1,348,382,396,2025-06-03T10:38:00.227917
7441,0.0820,0.9155,0.3855,19.005,-5.320,1.260,383,1,349,388,400,2025-06-03T10:38:00.227917
7442,0.0454,0.9174,0.4192,18.445,-3.885,-0.840,366,1,356,357,394,2025-06-03T10:38:00.227917
7443,0.0239,0.9223,0.4148,17.115,-3.885,-2.695,358,1,358,386,364,2025-06-03T10:38:00.227917
7444,0.0098,0.9272,0.3748,14.560,-5.635,-3.815,369,2,365,372,391,2025-06-03T10:38:00.227917
7445,-0.0205,0.9282,0.3675,11.235,-9.520,-4.305,377,2,340,395,384,2025-06-03T10:38:00.227917
7446,-0.0161,0.9213,0.3587,9.030,-13.160,-4.445,387,1,352,405,381,2025-06-03T10:38:00.326725
7447,-0.0171,0.9091,0.3616,6.370,-15.120,-4.760,389,2,355,405,384,2025-06-03T10:38:00.326725
7448,0.0005,0.9082,0.3567,4.515,-14.385,-5.530,390,1,353,404,401,2025-06-03T10:38:00.326725
7449,-0.0117,0.9184,0.3665,3.255,-11.270,-6.125,394,1,361,408,392,2025-06-03T10:38:00.693618
7450,-0.0307,0.9252,0.3709,2.555,-8.995,-6.055,401,2,367,397,386,2025-06-03T10:38:00.693618
7451,-0.0498,0.9228,0.3562,3.080,-7.700,-5.320,411,2,361,405,393,2025-06-03T10:38:00.693618
7452,-0.0859,0.9165,0.3558,3.675,-7.770,-4.270,405,2,343,396,362,2025-06-03T10:38:00.693618
7453,-0.0942,0.9135,0.3699,4.515,-10.010,-3.010,408,2,347,378,375,2025-06-03T10:38:00.693618
7454,-0.0766,0.9072,0.3963,5.635,-11.550,-1.645,402,2,350,382,346,2025-06-03T10:38:00.693618
7455,-0.0488,0.9121,0.3992,6.790,-11.235,-0.420,373,2,353,380,363,2025-06-03T10:38:00.693618
7456,-0.0351,0.9101,0.3899,7.245,-9.415,0.245,384,2,354,389,377,2025-06-03T10:38:00.693618
7457,-0.0293,0.8965,0.3865,7.595,-7.560,1.295,387,2,360,397,386,2025-06-03T10:38:00.693618
7458,-0.0322,0.9018,0.3719,8.190,-6.790,2.415,387,2,369,394,396,2025-06-03T10:38:00.693618
7459,-0.0395,0.9013,0.3709,8.435,-7.280,3.570,397,2,373,392,358,2025-06-03T10:38:00.693618
7460,-0.0332,0.9091,0.3767,8.295,-8.540,4.200,399,2,367,385,337,2025-06-03T10:38:00.693618
7461,-0.0117,0.9106,0.3802,7.980,-8.225,4.515,403,1,361,390,331,2025-06-03T10:38:00.693618
7462,0.0059,0.9248,0.3699,7.070,-6.300,4.270,391,2,365,390,367,2025-06-03T10:38:00.693618
7463,-0.0073,0.9296,0.3709,6.230,-5.390,3.360,396,1,367,391,364,2025-06-03T10:38:00.693618
7464,-0.0190,0.9262,0.3665,5.635,-6.055,2.205,374,1,368,349,366,2025-06-03T10:38:00.693618
7465,-0.0195,0.9262,0.3709,5.250,-7.910,1.330,351,1,369,374,377,2025-06-03T10:38:00.693618
7466,-0.0171,0.9257,0.3738,5.600,-9.555,0.350,361,2,378,395,396,2025-06-03T10:38:00.693618
7467,-0.0112,0.9292,0.3660,5.565,-10.045,-1.050,353,2,381,382,392,2025-06-03T10:38:00.693618
7468,-0.0029,0.9301,0.3748,5.740,-9.870,-1.855,379,2,353,378,401,2025-06-03T10:38:00.693618
7469,-0.0068,0.9399,0.3943,5.845,-8.890,-2.240,379,1,353,375,396,2025-06-03T10:38:00.693618
7470,-0.0185,0.9384,0.3850,5.775,-8.680,-2.275,383,2,360,344,351,2025-06-03T10:38:00.693618
7471,-0.0283,0.9277,0.3792,5.530,-10.010,-2.100,394,2,355,325,375,2025-06-03T10:38:00.693618
7472,-0.0395,0.9121,0.3665,5.040,-11.270,-1.855,367,2,363,375,348,2025-06-03T10:38:00.693618
7473,-0.0410,0.9028,0.3548,4.865,-12.775,-0.980,379,2,370,395,361,2025-06-03T10:38:00.693618
7474,-0.0478,0.9140,0.3562,4.795,-13.090,-0.560,390,2,372,354,364,2025-06-03T10:38:00.693618
7475,-0.0376,0.9218,0.3489,4.550,-12.005,0.000,393,2,370,385,370,2025-06-03T10:38:00.693618
7476,-0.0322,0.9252,0.3533,3.815,-10.255,0.875,404,2,365,385,340,2025-06-03T10:38:00.693618
7477,-0.0346,0.9257,0.3572,2.975,-8.750,1.155,405,2,364,391,360,2025-06-03T10:38:00.693618
7478,-0.0288,0.9135,0.3572,1.890,-8.505,1.190,401,1,364,400,305,2025-06-03T10:38:00.693618
7479,-0.0366,0.9052,0.3597,1.085,-9.065,1.015,402,2,362,396,358,2025-06-03T10:38:00.693618
7480,-0.0293,0.9126,0.3616,0.350,-10.430,0.455,406,2,365,393,366,2025-06-03T10:38:00.755674
7481,-0.0166,0.9252,0.3723,-0.770,-10.535,-0.490,403,1,359,391,337,2025-06-03T10:38:00.755674
7482,-0.0024,0.9243,0.3806,-1.785,-9.660,-1.750,396,1,362,362,328,2025-06-03T10:38:00.755674
7483,0.0005,0.9199,0.3831,-3.255,-9.065,-3.010,390,2,355,378,360,2025-06-03T10:38:00.755674
7484,-0.0029,0.9174,0.3870,-4.445,-8.855,-4.060,403,1,363,392,347,2025-06-03T10:38:00.755674
7485,-0.0176,0.9174,0.3967,-4.935,-9.940,-5.110,395,1,360,349,357,2025-06-03T10:38:00.755674
7486,-0.0205,0.9121,0.4050,-4.550,-11.550,-5.670,402,1,362,379,376,2025-06-03T10:38:00.755674
7487,-0.0264,0.9135,0.3948,-4.340,-12.390,-6.020,395,1,339,372,345,2025-06-03T10:38:00.755674
7488,-0.0239,0.9116,0.3865,-4.655,-13.055,-6.720,392,2,343,381,363,2025-06-03T10:38:00.847093
7489,-0.0298,0.9111,0.3904,-4.865,-13.475,-7.105,394,2,358,364,380,2025-06-03T10:38:00.847093
7490,-0.0376,0.9048,0.4006,-4.620,-13.650,-7.315,398,1,361,384,394,2025-06-03T10:38:00.847093
7491,-0.0493,0.9048,0.3953,-4.305,-13.895,-7.140,397,2,370,399,397,2025-06-03T10:38:00.847093
7492,-0.0595,0.9048,0.3884,-4.095,-14.420,-6.965,390,2,367,388,383,2025-06-03T10:38:00.847093
7493,-0.0605,0.9072,0.3958,-4.200,-14.700,-6.860,400,2,361,393,378,2025-06-03T10:38:00.847093
7494,-0.0483,0.9101,0.4006,-4.760,-14.385,-6.580,408,1,360,389,374,2025-06-03T10:38:00.847093
7495,-0.0503,0.9111,0.4031,-5.705,-13.965,-6.510,374,2,364,355,363,2025-06-03T10:38:00.847093
7496,-0.0547,0.9116,0.3992,-6.965,-14.385,-6.370,377,1,354,330,339,2025-06-03T10:38:00.847093
7497,-0.0586,0.9189,0.4016,-7.875,-15.890,-6.895,352,2,358,369,371,2025-06-03T10:38:00.898702
7498,-0.0483,0.9301,0.4265,-9.450,-17.675,-7.805,369,1,368,354,349,2025-06-03T10:38:00.898702
7499,-0.0551,0.9496,0.4431,-11.620,-20.230,-9.170,376,2,345,380,380,2025-06-03T10:38:00.898702
7500,-0.0547,0.9648,0.4626,-14.560,-24.605,-11.900,383,1,354,382,381,2025-06-03T10:38:00.898702
7501,-0.0327,0.9809,0.4602,-18.340,-30.380,-15.295,396,1,336,391,383,2025-06-03T10:38:01.051835
7502,-0.0444,1.0092,0.4714,-23.240,-36.155,-18.970,366,2,343,401,396,2025-06-03T10:38:01.051835
7503,-0.0268,1.0653,0.4963,-28.560,-42.035,-23.940,375,1,342,408,363,2025-06-03T10:38:01.051835
7504,0.0678,1.1375,0.5090,-37.415,-48.440,-30.170,385,3,345,394,384,2025-06-03T10:38:01.052545
7505,0.2098,1.2210,0.5007,-48.755,-58.450,-43.750,366,2,350,391,393,2025-06-03T10:38:01.052545
7506,0.5446,1.3347,0.3572,-62.230,-69.965,-40.565,383,1,349,396,400,2025-06-03T10:38:01.052545
7507,0.7652,1.6660,0.2001,-81.865,-81.270,-45.780,392,1,327,390,389,2025-06-03T10:38:01.052545
7508,1.0443,2.0745,-0.0590,-103.075,-93.835,-54.005,397,1,340,400,399,2025-06-03T10:38:01.052545
7509,1.4191,2.5156,-0.3377,-122.780,-103.775,-62.405,390,1,343,360,360,2025-06-03T10:38:01.052545
7510,1.8427,3.1037,-0.6744,-149.975,-110.250,-79.660,397,2,355,383,376,2025-06-03T10:38:01.052545
7511,1.9076,3.5790,-0.8955,-181.265,-117.915,-101.675,413,2,370,406,404,2025-06-03T10:38:01.052545
7512,1.6904,3.6732,-0.8530,-215.215,-130.515,-124.670,417,1,378,373,405,2025-06-03T10:38:01.052545
7513,1.4445,3.5595,-0.8501,-243.810,-156.835,-162.680,415,1,379,393,409,2025-06-03T10:38:01.052545
7514,1.2883,3.4038,-0.9902,-288.995,-189.140,-212.065,409,2,385,405,405,2025-06-03T10:38:01.156470
7515,0.9155,2.9822,-1.2405,-343.560,-228.795,-265.720,412,1,357,380,354,2025-06-03T10:38:01.156470
7516,0.7091,2.1618,-1.5992,-392.735,-274.540,-316.855,396,1,357,366,367,2025-06-03T10:38:01.156470
7517,0.7725,0.6090,-1.6260,-477.540,-304.080,-353.570,391,2,351,369,377,2025-06-03T10:38:01.156470
7518,1.1697,-1.2171,-0.6583,-549.920,-257.460,-396.725,394,2,360,398,389,2025-06-03T10:38:01.156470
7519,1.3171,-3.8493,0.3865,-607.250,-135.660,-451.430,421,1,381,415,407,2025-06-03T10:38:01.156470
7520,0.8696,-5.4671,0.6446,-607.880,77.910,-493.430,432,1,394,393,426,2025-06-03T10:38:01.156470
7521,-0.2582,-8.5561,0.5290,-434.735,135.345,-486.885,369,1,377,389,404,2025-06-03T10:38:01.156470
7522,-1.5245,-5.2948,0.8467,-121.555,-26.950,-360.710,404,1,380,388,404,2025-06-03T10:38:01.246714
7523,-1.7280,-4.1524,0.7725,11.760,-281.855,-126.770,401,2,351,375,392,2025-06-03T10:38:01.246714
7524,0.6510,-2.4995,0.4543,77.875,-289.520,110.355,395,1,350,333,390,2025-06-03T10:38:01.246714
7525,2.0516,-2.5805,0.8072,151.865,-94.045,232.610,389,1,350,369,383,2025-06-03T10:38:01.246714
7526,1.6533,-2.1526,1.0531,160.370,183.470,270.445,388,1,359,371,383,2025-06-03T10:38:01.246714
7527,0.4690,-2.2121,0.9667,191.310,256.130,279.405,388,1,355,386,379,2025-06-03T10:38:01.246714
7528,-0.2586,-1.9242,0.8789,220.570,244.510,283.500,391,2,355,389,342,2025-06-03T10:38:01.246714
7529,-0.3606,-1.7261,0.8555,258.405,103.845,280.035,362,1,357,341,359,2025-06-03T10:38:01.246714
7530,-0.1586,-1.4542,0.7891,287.000,55.300,263.900,370,2,355,356,375,2025-06-03T10:38:01.246714
7531,-0.1537,-1.0272,0.7232,279.055,53.865,234.010,381,1,360,375,385,2025-06-03T10:38:01.473669
7532,-0.0376,-0.4929,0.7359,290.535,60.095,198.555,377,2,364,352,381,2025-06-03T10:38:01.473669
7533,0.0986,-0.0434,0.6144,289.625,93.345,172.340,381,1,362,379,389,2025-06-03T10:38:01.473669
7534,0.2015,0.3470,0.4265,281.085,151.690,152.565,381,1,368,382,400,2025-06-03T10:38:01.473669
7535,0.2045,0.6632,0.2913,270.480,203.315,136.990,378,2,370,384,405,2025-06-03T10:38:01.473669
7536,0.2420,0.9477,0.1498,250.950,233.940,130.585,382,1,361,394,402,2025-06-03T10:38:01.473669
7537,0.1879,1.1897,0.0615,226.940,245.700,130.795,359,1,362,389,386,2025-06-03T10:38:01.473669
7538,-0.1127,1.3898,0.0717,203.420,233.170,126.350,379,2,366,387,377,2025-06-03T10:38:01.473669
7539,-0.2284,1.4640,0.1362,181.195,203.630,112.595,373,2,347,370,348,2025-06-03T10:38:01.473669
7540,-0.1449,1.4030,0.1322,168.665,163.450,100.590,387,2,356,341,365,2025-06-03T10:38:01.473669
7541,-0.0586,1.5299,0.1508,162.610,125.370,90.125,391,1,338,375,381,2025-06-03T10:38:01.473669
7542,0.0932,1.5089,0.1806,156.345,98.980,81.340,384,1,347,381,380,2025-06-03T10:38:01.473669
7543,0.2167,1.5792,0.1503,147.910,86.065,76.475,391,1,346,391,381,2025-06-03T10:38:01.473669
7544,0.2655,1.5665,0.1479,132.685,74.550,72.415,381,1,354,392,392,2025-06-03T10:38:01.473669
7545,0.1737,1.5894,0.1806,115.535,63.315,64.610,389,2,357,398,399,2025-06-03T10:38:01.473669
7546,0.1908,1.6041,0.1957,94.465,56.315,53.620,396,2,360,394,399,2025-06-03T10:38:01.473669
7547,0.2250,1.5553,0.1606,78.890,55.230,45.570,391,1,365,388,394,2025-06-03T10:38:01.473669
7548,0.2401,1.4821,0.1732,62.615,57.225,39.130,369,2,364,355,390,2025-06-03T10:38:01.727446
7549,0.1274,1.3937,0.2216,49.945,58.835,34.685,389,1,360,371,378,2025-06-03T10:38:01.727446
7550,0.0420,1.3074,0.2479,37.520,59.290,31.885,359,1,361,339,387,2025-06-03T10:38:01.727446
7551,-0.0888,1.2576,0.2972,27.195,51.170,30.765,363,2,338,364,322,2025-06-03T10:38:01.727446
7552,-0.1850,1.2073,0.3323,18.305,35.665,30.450,373,2,342,326,326,2025-06-03T10:38:01.727446
7553,-0.2635,1.1624,0.3353,11.270,17.815,32.200,387,1,344,360,293,2025-06-03T10:38:01.727446
7554,-0.2743,1.1097,0.3850,7.770,0.910,33.600,392,1,354,387,308,2025-06-03T10:38:01.727446
7555,-0.1986,1.0882,0.4070,5.145,-6.510,35.280,389,1,351,394,322,2025-06-03T10:38:01.727446
7556,-0.1566,1.0512,0.3758,3.815,-8.610,36.785,396,1,350,406,318,2025-06-03T10:38:01.727446
7557,-0.1254,1.0136,0.3845,3.115,-8.890,37.835,394,2,358,402,314,2025-06-03T10:38:01.727446
7558,-0.1210,0.9980,0.4260,3.430,-8.855,38.115,371,1,353,356,346,2025-06-03T10:38:01.727446
7559,-0.1103,0.9531,0.4778,4.760,-8.645,37.100,381,2,350,377,368,2025-06-03T10:38:01.727446
7560,-0.1176,0.9248,0.4734,5.880,-8.015,36.190,356,2,333,344,338,2025-06-03T10:38:01.727446
7561,-0.1620,0.9033,0.4363,5.985,-8.400,35.595,335,2,341,360,377,2025-06-03T10:38:01.727446
7562,-0.1869,0.8969,0.4143,7.315,-12.005,35.000,350,1,354,389,379,2025-06-03T10:38:01.727446
7563,-0.1674,0.8999,0.3948,9.590,-15.330,36.050,367,0,313,385,372,2025-06-03T10:38:01.727446
7564,-0.1039,0.9018,0.3728,10.745,-15.505,36.575,379,1,327,396,380,2025-06-03T10:38:01.727446
7565,-0.0576,0.9043,0.3772,10.885,-12.425,36.505,360,2,345,402,392,2025-06-03T10:38:01.727446
7566,-0.0488,0.9087,0.3938,9.135,-7.420,35.385,375,2,353,383,351,2025-06-03T10:38:01.727446
7567,-0.0537,0.8994,0.4085,7.315,-4.375,33.670,380,1,352,357,359,2025-06-03T10:38:01.727446
7568,-0.0688,0.9228,0.3909,5.250,-3.220,31.605,391,2,358,385,381,2025-06-03T10:38:01.727446
7569,-0.0566,0.9379,0.3470,3.710,-5.950,28.210,383,2,365,398,389,2025-06-03T10:38:01.788029
7570,-0.0337,0.9409,0.3177,2.695,-11.585,24.955,383,1,366,393,395,2025-06-03T10:38:01.788029
7571,-0.0127,0.9404,0.3440,1.050,-15.435,20.790,381,1,359,381,395,2025-06-03T10:38:01.788029
7572,0.0259,0.9433,0.3475,-0.105,-19.390,17.815,380,1,356,395,393,2025-06-03T10:38:01.788029
7573,0.0273,0.9457,0.3504,-1.855,-21.455,14.770,379,1,354,403,388,2025-06-03T10:38:01.788029
7574,0.0303,0.9374,0.3606,-3.430,-20.965,11.690,359,1,351,402,391,2025-06-03T10:38:01.830594
7575,0.0527,0.9433,0.3670,-3.955,-17.675,8.575,372,2,360,362,391,2025-06-03T10:38:01.830594
7576,0.0625,0.9462,0.3553,-4.690,-12.880,6.055,348,1,352,341,381,2025-06-03T10:38:01.830594
7577,0.0488,0.9355,0.3518,-5.215,-10.185,3.780,340,2,333,362,400,2025-06-03T10:38:01.830594
7578,0.0303,0.9062,0.3323,-5.495,-7.630,1.995,373,2,342,351,396,2025-06-03T10:38:01.830594
7579,-0.0020,0.8901,0.3528,-5.670,-7.875,0.455,376,1,345,367,395,2025-06-03T10:38:01.884630
7580,-0.0200,0.8760,0.3670,-4.445,-9.660,-1.015,385,1,356,375,400,2025-06-03T10:38:01.884630
7581,-0.0503,0.8725,0.3743,-4.060,-9.520,-2.555,393,1,354,380,401,2025-06-03T10:38:01.884630
7582,-0.0605,0.8633,0.3884,-3.045,-9.975,-3.010,402,2,364,362,361,2025-06-03T10:38:01.884630
7583,-0.0800,0.8608,0.4060,-2.030,-9.450,-3.255,399,1,363,377,376,2025-06-03T10:38:01.929817
7584,-0.0869,0.8696,0.3806,-0.490,-8.540,-3.185,377,1,366,383,388,2025-06-03T10:38:01.929817
7585,-0.1035,0.8852,0.3714,0.840,-8.715,-2.765,365,1,359,379,389,2025-06-03T10:38:01.929817
7586,-0.0927,0.8989,0.3689,2.240,-9.310,-2.905,373,2,361,388,400,2025-06-03T10:38:01.929817
7587,-0.0752,0.9048,0.3787,3.500,-9.275,-2.870,357,2,363,387,358,2025-06-03T10:38:01.981329
7588,-0.0630,0.8930,0.3845,4.200,-7.875,-3.080,366,2,340,338,339,2025-06-03T10:38:01.981329
7589,-0.0527,0.8999,0.3777,5.460,-6.860,-3.325,382,1,342,375,381,2025-06-03T10:38:01.981329
7590,-0.0542,0.9130,0.3650,6.125,-6.055,-3.465,391,1,355,396,392,2025-06-03T10:38:01.981329
7591,-0.0517,0.9277,0.3738,7.210,-5.600,-3.010,397,1,362,394,396,2025-06-03T10:38:02.078223
7592,-0.0600,0.9345,0.3670,7.455,-5.355,-2.415,368,2,367,397,396,2025-06-03T10:38:02.078223
7593,-0.0683,0.9379,0.3733,6.440,-6.615,-1.995,388,2,362,403,394,2025-06-03T10:38:02.078223
7594,-0.0786,0.9316,0.3782,5.425,-8.995,-1.225,391,2,361,394,356,2025-06-03T10:38:02.078223
7595,-0.0688,0.9194,0.3636,4.410,-11.760,-0.805,368,1,363,379,367,2025-06-03T10:38:02.078223
7596,-0.0556,0.9184,0.3509,3.360,-13.160,-0.455,370,2,369,378,348,2025-06-03T10:38:02.078223
7597,-0.0532,0.9179,0.3655,2.835,-12.705,-0.560,387,1,367,392,380,2025-06-03T10:38:02.078223
7598,-0.0332,0.9150,0.3650,2.170,-9.625,-1.470,359,1,370,396,355,2025-06-03T10:38:02.078223
7599,-0.0317,0.9072,0.3611,1.085,-5.845,-2.205,377,1,364,383,336,2025-06-03T10:38:02.484211
7600,-0.0703,0.9077,0.3728,0.210,-3.815,-3.080,386,2,345,339,346,2025-06-03T10:38:02.484211
7601,-0.0937,0.8965,0.3733,-0.805,-5.110,-3.780,396,1,352,381,376,2025-06-03T10:38:02.484211
7602,-0.1215,0.8896,0.3816,-1.050,-8.330,-4.305,402,1,353,390,378,2025-06-03T10:38:02.484211
7603,-0.1064,0.8969,0.3826,-1.225,-11.270,-4.760,372,1,349,398,395,2025-06-03T10:38:02.484211
7604,-0.0820,0.8965,0.3762,-1.085,-12.320,-4.900,353,1,356,324,381,2025-06-03T10:38:02.484211
7605,-0.0732,0.8999,0.3870,-0.910,-11.760,-5.355,340,2,345,351,389,2025-06-03T10:38:02.484211
7606,-0.0693,0.9033,0.3894,-0.560,-10.325,-5.670,362,1,351,376,400,2025-06-03T10:38:02.484211
7607,-0.0678,0.9038,0.3855,0.140,-9.905,-5.845,348,1,351,382,368,2025-06-03T10:38:02.484211
7608,-0.0737,0.9008,0.3880,0.490,-10.290,-5.950,373,1,350,339,371,2025-06-03T10:38:02.484211
7609,-0.0786,0.8960,0.3836,1.155,-11.340,-5.670,385,1,354,381,390,2025-06-03T10:38:02.484211
7610,-0.0932,0.8960,0.3845,1.505,-12.320,-5.845,386,1,363,396,385,2025-06-03T10:38:02.484211
7611,-0.0986,0.8965,0.3924,2.240,-14.000,-5.810,382,1,361,398,348,2025-06-03T10:38:02.484211
7612,-0.0908,0.8965,0.3855,2.870,-14.805,-5.950,389,1,359,396,366,2025-06-03T10:38:02.484211
7613,-0.0898,0.9008,0.3743,3.045,-14.945,-5.635,398,2,362,360,369,2025-06-03T10:38:02.484211
7614,-0.1005,0.8969,0.3753,2.870,-13.790,-5.425,398,1,361,386,384,2025-06-03T10:38:02.484211
7615,-0.1039,0.8999,0.3723,2.975,-13.475,-4.900,398,0,337,393,380,2025-06-03T10:38:02.484211
7616,-0.1093,0.9013,0.3680,3.010,-14.035,-4.550,372,2,324,350,346,2025-06-03T10:38:02.536913
7617,-0.1093,0.9033,0.3694,2.135,-14.735,-3.920,384,2,330,367,368,2025-06-03T10:38:02.536913
7618,-0.1088,0.9106,0.3753,1.785,-15.085,-3.185,389,1,347,387,382,2025-06-03T10:38:02.536913
7619,-0.1176,0.9155,0.3719,1.190,-15.715,-3.115,400,1,351,395,379,2025-06-03T10:38:02.536913
7620,-0.1083,0.9150,0.3792,0.735,-16.905,-3.010,389,1,348,355,385,2025-06-03T10:38:02.536913
7621,-0.0991,0.9135,0.3943,0.315,-17.990,-2.765,396,1,357,382,400,2025-06-03T10:38:02.536913
7622,-0.1005,0.9106,0.4006,-0.385,-19.075,-2.765,361,2,354,347,392,2025-06-03T10:38:02.536913
7623,-0.1005,0.9091,0.4070,-1.365,-20.090,-2.555,384,1,359,377,390,2025-06-03T10:38:02.536913
7624,-0.1015,0.9033,0.4192,-1.960,-21.560,-2.590,397,1,359,377,383,2025-06-03T10:38:02.536913
7625,-0.1078,0.9111,0.4324,-2.905,-23.205,-3.115,386,1,363,341,388,2025-06-03T10:38:02.536913
7626,-0.0971,0.9213,0.4397,-4.060,-24.045,-3.395,400,2,359,328,381,2025-06-03T10:38:02.536913
7627,-0.0776,0.9292,0.4372,-5.950,-26.075,-4.900,393,1,361,359,385,2025-06-03T10:38:02.536913
7628,-0.0415,0.9531,0.4372,-8.890,-26.005,-5.915,399,1,369,384,400,2025-06-03T10:38:02.536913
7629,-0.0107,0.9838,0.4392,-11.130,-24.080,-6.580,407,1,375,384,391,2025-06-03T10:38:02.536913
7630,0.0200,1.0131,0.4416,-14.280,-23.345,-7.210,410,1,369,383,395,2025-06-03T10:38:02.536913
7631,0.0508,1.0512,0.4177,-17.570,-23.170,-7.350,374,0,350,350,395,2025-06-03T10:38:02.536913
