SeqNum,AccX,AccY,AccZ,GyroX,GyroY,GyroZ,Flex,Force1,Force2,Force3,Force4,TimestampReception
1,-0.6105,-0.7305,0.2840,9.450,86.485,-6.370,447,456,405,419,404,2025-05-28T17:15:06.213401
2,0.0605,0.0698,1.0258,-0.245,-15.890,-3.080,455,428,339,398,380,2025-05-28T17:15:06.213401
3,0.0742,0.0615,1.0253,-0.070,-8.400,-3.045,428,399,365,346,389,2025-05-28T17:15:06.213401
4,0.0771,0.0542,1.0189,-0.630,-3.570,-2.870,443,430,383,402,406,2025-05-28T17:15:06.213401
5,0.0512,0.0566,1.0146,-0.595,3.290,-2.765,447,437,373,416,318,2025-05-28T17:15:06.213401
6,0.0181,0.0400,1.0243,-0.420,8.120,-3.115,431,434,385,412,327,2025-05-28T17:15:06.352167
7,-0.0098,0.0332,1.0365,-0.735,9.135,-3.010,393,423,387,406,385,2025-05-28T17:15:06.352167
8,-0.0473,0.0303,1.0370,-0.350,7.665,-2.870,421,419,392,405,388,2025-05-28T17:15:06.352167
9,-0.0756,0.0293,1.0331,-0.210,4.830,-1.750,443,435,396,360,350,2025-05-28T17:15:06.352167
10,-0.0937,0.0342,1.0341,-0.035,0.070,0.035,423,413,377,369,370,2025-05-28T17:15:06.352167
11,-0.0927,0.0429,1.0331,0.420,-3.850,0.910,375,420,342,383,372,2025-05-28T17:15:06.352167
12,-0.0771,0.0478,1.0394,0.245,-7.525,1.190,372,415,355,402,392,2025-05-28T17:15:06.352167
13,-0.0508,0.0473,1.0365,0.175,-9.275,1.505,440,423,370,401,402,2025-05-28T17:15:06.352167
14,-0.0278,0.0493,1.0321,0.105,-9.135,1.680,398,384,383,390,418,2025-05-28T17:15:06.352167
15,-0.0068,0.0483,1.0272,-0.035,-7.945,1.400,375,349,382,394,400,2025-05-28T17:15:06.352167
16,0.0063,0.0498,1.0185,0.035,-5.110,1.155,377,407,392,411,394,2025-05-28T17:15:06.352167
17,0.0117,0.0493,1.0209,-0.070,-1.260,0.560,403,428,390,422,410,2025-05-28T17:15:06.352167
18,0.0137,0.0464,1.0228,-0.140,3.185,-0.245,441,414,389,427,387,2025-05-28T17:15:06.402849
19,-0.0049,0.0464,1.0189,-0.350,6.755,-0.805,361,406,361,428,407,2025-05-28T17:15:06.402849
20,-0.0224,0.0444,1.0677,-0.035,6.475,-0.210,434,433,367,427,352,2025-05-28T17:15:06.402849
21,-0.0429,0.0542,1.0341,-0.525,8.995,-0.455,435,409,370,405,388,2025-05-28T17:15:06.402849
22,-0.0830,0.0400,1.0189,-0.805,5.530,-1.610,401,414,388,353,382,2025-05-28T17:15:06.551945
23,-0.0786,0.0449,1.0414,-0.035,3.395,-0.385,413,407,379,327,404,2025-05-28T17:15:06.551945
24,-0.0981,0.0400,1.0365,-0.280,0.630,-0.490,434,445,384,383,395,2025-05-28T17:15:06.551945
25,-0.0786,0.0415,1.0238,-0.350,-1.645,-0.630,444,397,391,402,405,2025-05-28T17:15:06.551945
26,-0.0659,0.0410,1.0399,0.105,-4.305,-0.420,407,406,382,413,410,2025-05-28T17:15:06.551945
27,-0.0517,0.0459,1.0350,0.035,-4.375,-0.280,444,316,357,397,393,2025-05-28T17:15:06.551945
28,-0.0459,0.0425,1.0311,-0.035,-4.235,-0.910,436,423,376,390,405,2025-05-28T17:15:06.551945
29,-0.0303,0.0454,1.0292,0.175,-3.780,-0.875,411,424,381,410,416,2025-05-28T17:15:06.551945
30,-0.0386,0.0420,1.0282,0.105,-2.310,-0.945,446,436,393,413,412,2025-05-28T17:15:06.551945
31,-0.0381,0.0444,1.0282,0.000,-0.875,-1.400,382,419,389,400,380,2025-05-28T17:15:06.551945
32,-0.0371,0.0449,1.0404,0.210,-1.015,-1.260,422,421,375,397,390,2025-05-28T17:15:06.551945
33,-0.0400,0.0508,1.0272,0.000,-0.385,-1.225,397,423,391,417,389,2025-05-28T17:15:06.551945
34,-0.0493,0.0473,1.0311,-0.175,-0.280,-1.295,426,428,384,416,355,2025-05-28T17:15:06.551945
35,-0.0532,0.0468,1.0336,0.140,-0.560,-0.840,421,435,379,416,390,2025-05-28T17:15:06.769317
36,-0.0639,0.0459,1.0321,0.035,-1.715,-0.560,446,409,381,411,390,2025-05-28T17:15:06.769317
37,-0.0620,0.0459,1.0277,-0.140,-2.170,-0.490,429,426,389,411,388,2025-05-28T17:15:06.769317
38,-0.0610,0.0420,1.0272,0.105,-3.290,-0.350,395,355,387,395,396,2025-05-28T17:15:06.769317
39,-0.0581,0.0429,1.0263,0.140,-3.570,0.000,366,432,380,401,391,2025-05-28T17:15:06.769317
40,-0.0576,0.0415,1.0228,0.105,-3.955,-0.245,428,404,377,390,394,2025-05-28T17:15:06.769317
41,-0.0459,0.0473,1.0375,0.280,-4.410,0.140,424,385,380,355,408,2025-05-28T17:15:06.769317
42,-0.0464,0.0439,1.0424,0.175,-3.605,0.105,412,387,384,395,401,2025-05-28T17:15:06.769317
43,-0.0395,0.0483,1.0302,-0.140,-3.045,0.035,438,435,386,411,392,2025-05-28T17:15:06.769317
44,-0.0478,0.0434,1.0243,0.000,-2.625,-0.035,437,429,390,362,396,2025-05-28T17:15:06.769317
45,-0.0478,0.0429,1.0282,0.140,-2.660,0.140,331,426,394,405,408,2025-05-28T17:15:06.769317
46,-0.0542,0.0454,1.0277,0.140,-2.275,0.245,430,440,360,356,350,2025-05-28T17:15:06.769317
47,-0.0590,0.0434,1.0307,0.105,-3.115,0.140,393,406,375,380,356,2025-05-28T17:15:06.769317
48,-0.0542,0.0464,1.0355,0.070,-3.675,0.455,438,426,393,344,380,2025-05-28T17:15:06.769317
49,-0.0527,0.0429,1.0370,-0.070,-3.780,0.525,395,436,361,371,382,2025-05-28T17:15:06.769317
50,-0.0517,0.0454,1.0272,-0.070,-4.165,0.665,415,412,371,393,391,2025-05-28T17:15:06.769317
51,-0.0522,0.0439,1.0268,0.105,-4.305,0.525,418,435,374,399,402,2025-05-28T17:15:06.769317
52,-0.0512,0.0454,1.0272,0.105,-4.270,0.805,416,440,388,413,410,2025-05-28T17:15:06.969092
53,-0.0576,0.0425,1.0302,0.280,-4.445,0.910,436,439,398,357,389,2025-05-28T17:15:06.969092
54,-0.0590,0.0444,1.0282,0.280,-5.040,0.805,440,420,390,396,408,2025-05-28T17:15:06.969092
55,-0.0610,0.0468,1.0390,0.280,-5.985,1.015,368,372,360,409,389,2025-05-28T17:15:06.969092
56,-0.0498,0.0512,1.0419,0.035,-6.650,0.980,359,390,380,401,400,2025-05-28T17:15:06.969092
57,-0.0508,0.0439,1.0380,0.210,-6.930,1.260,421,408,377,392,404,2025-05-28T17:15:06.969092
58,-0.0571,0.0468,1.0277,0.140,-7.700,1.400,434,442,395,405,400,2025-05-28T17:15:06.969092
59,-0.0420,0.0410,1.0204,-0.140,-7.770,0.595,440,372,318,413,414,2025-05-28T17:15:06.969092
60,-0.0327,0.0429,1.0355,0.035,-6.405,0.595,436,420,315,417,396,2025-05-28T17:15:06.969092
61,-0.0400,0.0410,1.0350,0.210,-5.565,0.945,436,401,361,396,346,2025-05-28T17:15:06.969092
62,-0.0547,0.0464,1.0316,0.210,-5.915,0.735,399,402,378,410,385,2025-05-28T17:15:06.969092
63,-0.0517,0.0478,1.0390,-0.070,-7.035,0.735,406,435,378,397,383,2025-05-28T17:15:06.969092
64,-0.0542,0.0493,1.0375,-0.175,-7.350,0.910,410,392,359,397,381,2025-05-28T17:15:06.969092
65,-0.0576,0.0478,1.0336,-0.175,-8.260,1.085,416,395,373,410,404,2025-05-28T17:15:06.969092
66,-0.0566,0.0420,1.0292,-0.175,-9.100,1.155,441,402,387,403,402,2025-05-28T17:15:06.969092
67,-0.0498,0.0439,1.0253,-0.385,-10.045,1.085,441,432,348,412,372,2025-05-28T17:15:06.969092
68,-0.0390,0.0439,1.0297,-0.140,-10.080,0.840,440,426,334,415,384,2025-05-28T17:15:06.969092
69,-0.0288,0.0434,1.0307,0.070,-9.415,0.770,420,435,358,426,401,2025-05-28T17:15:06.969092
70,-0.0190,0.0449,1.0311,-0.350,-8.330,0.455,426,410,338,401,412,2025-05-28T17:15:07.069225
71,-0.0142,0.0464,1.0316,-0.350,-6.650,-0.315,445,413,369,410,363,2025-05-28T17:15:07.069225
72,-0.0117,0.0449,1.0302,-0.280,-4.305,-0.455,443,423,371,415,394,2025-05-28T17:15:07.069225
73,-0.0303,0.0454,1.0277,-0.350,-2.975,-0.455,441,439,386,360,348,2025-05-28T17:15:07.069225
74,-0.0327,0.0444,1.0263,-0.280,-2.800,-0.350,437,443,392,339,386,2025-05-28T17:15:07.069225
75,-0.0464,0.0415,1.0277,-0.315,-3.290,-0.490,442,454,393,384,389,2025-05-28T17:15:07.069225
76,-0.0420,0.0425,1.0394,-0.140,-4.410,-0.210,419,431,389,389,378,2025-05-28T17:15:07.069225
77,-0.0410,0.0459,1.0277,-0.315,-4.130,-0.245,415,415,394,344,345,2025-05-28T17:15:07.069225
78,-0.0386,0.0439,1.0331,-0.210,-5.145,-0.280,426,433,393,386,391,2025-05-28T17:15:07.185796
79,-0.0278,0.0454,1.0311,-0.105,-4.550,0.035,441,423,394,394,367,2025-05-28T17:15:07.185796
80,-0.0293,0.0449,1.0253,-0.315,-4.200,-0.210,443,428,392,415,396,2025-05-28T17:15:07.185796
81,-0.0254,0.0459,1.0253,8.855,-2.800,-0.385,433,428,353,411,389,2025-05-28T17:15:07.185796
82,-0.0244,0.0459,1.0365,0.070,-2.625,-0.630,433,416,363,403,386,2025-05-28T17:15:07.185796
83,-0.0249,0.0444,1.0341,-0.175,-1.925,-0.385,427,420,346,369,378,2025-05-28T17:15:07.185796
84,-0.0303,0.0420,1.0307,-0.210,-1.750,-0.455,421,432,345,381,383,2025-05-28T17:15:07.185796
85,-0.0322,0.0415,1.0272,-0.035,-1.540,-0.420,424,433,374,386,411,2025-05-28T17:15:07.185796
86,-0.0425,0.0420,1.0185,0.105,-1.610,-0.525,420,440,350,347,411,2025-05-28T17:15:07.185796
87,-0.0464,0.0395,1.0355,0.105,-2.450,-0.350,423,440,376,384,371,2025-05-28T17:15:07.185796
88,-0.0376,0.0483,1.0399,0.210,-2.940,0.070,436,440,377,379,386,2025-05-28T17:15:07.385278
89,-0.0444,0.0425,1.0341,0.035,-3.220,-0.210,443,426,378,362,401,2025-05-28T17:15:07.385278
90,-0.0312,0.0459,1.0302,-0.105,-3.220,-0.140,447,353,383,338,405,2025-05-28T17:15:07.385278
91,-0.0327,0.0434,1.0258,-0.070,-2.835,-0.140,362,412,340,397,415,2025-05-28T17:15:07.385278
92,-0.0322,0.0444,1.0233,-0.070,-1.995,-0.175,417,428,373,407,403,2025-05-28T17:15:07.385278
93,-0.0327,0.0429,1.0341,0.140,-2.100,-0.105,423,427,378,356,406,2025-05-28T17:15:07.385278
94,-0.0361,0.0464,1.0375,0.210,-2.030,0.070,440,320,382,402,413,2025-05-28T17:15:07.385278
95,-0.0381,0.0478,1.0321,-0.105,-2.030,0.070,407,396,391,400,361,2025-05-28T17:15:07.385278
96,-0.0376,0.0454,1.0307,-0.035,-2.345,0.035,416,410,399,404,376,2025-05-28T17:15:07.385278
97,-0.0405,0.0449,1.0302,0.070,-2.485,0.105,421,407,398,395,381,2025-05-28T17:15:07.385278
98,-0.0351,0.0444,1.0336,0.035,-2.415,0.210,431,428,397,407,393,2025-05-28T17:15:07.385278
99,-0.0390,0.0454,1.0287,-0.035,-1.995,0.070,436,437,390,420,353,2025-05-28T17:15:07.385278
100,-0.0415,0.0405,1.0258,0.105,-2.240,0.000,418,430,384,367,380,2025-05-28T17:15:07.385278
101,-0.0405,0.0459,1.0331,-0.140,-2.170,0.210,442,419,387,393,410,2025-05-28T17:15:07.385278
102,-0.0386,0.0434,1.0321,-0.070,-2.555,0.210,432,371,389,409,405,2025-05-28T17:15:07.385278
103,-0.0371,0.0415,1.0331,-0.070,-2.660,0.140,360,395,391,349,404,2025-05-28T17:15:07.385278
104,-0.0381,0.0429,1.0302,0.000,-2.275,0.105,392,408,396,397,411,2025-05-28T17:15:07.385278
105,-0.0400,0.0425,1.0297,0.035,-2.205,0.070,440,403,399,404,317,2025-05-28T17:15:07.435640
106,-0.0434,0.0415,1.0316,0.070,-2.730,0.175,419,422,403,399,376,2025-05-28T17:15:07.435640
107,-0.0493,0.0434,1.0365,0.000,-3.150,0.245,410,431,384,404,403,2025-05-28T17:15:07.435640
108,-0.0464,0.0444,1.0316,-0.035,-3.395,0.210,435,440,391,393,397,2025-05-28T17:15:07.435640
109,-0.0444,0.0439,1.0336,-0.035,-3.920,0.245,415,413,386,389,390,2025-05-28T17:15:07.485274
110,-0.0386,0.0449,1.0331,0.070,-4.025,0.385,425,407,390,409,392,2025-05-28T17:15:07.485274
111,-0.0376,0.0444,1.0336,-0.035,-3.885,0.210,373,423,385,390,395,2025-05-28T17:15:07.485274
112,-0.0332,0.0449,1.0287,0.000,-3.360,0.035,357,406,392,387,397,2025-05-28T17:15:07.485274
113,-0.0376,0.0464,1.0316,0.070,-2.975,-0.035,427,429,383,341,410,2025-05-28T17:15:07.585351
114,-0.0381,0.0454,1.0341,-0.105,-2.625,-0.070,373,414,344,333,350,2025-05-28T17:15:07.585351
115,-0.0449,0.0405,1.0365,0.070,-2.905,0.000,367,344,334,396,386,2025-05-28T17:15:07.585351
116,-0.0444,0.0464,1.0311,0.070,-3.115,-0.035,372,424,374,415,400,2025-05-28T17:15:07.585351
117,-0.0473,0.0400,1.0302,-0.035,-3.710,-0.070,400,427,383,403,409,2025-05-28T17:15:07.585351
118,-0.0444,0.0439,1.0375,0.175,-4.340,0.280,404,433,387,421,409,2025-05-28T17:15:07.585351
119,-0.0439,0.0464,1.0287,0.070,-4.130,-0.035,420,407,383,403,412,2025-05-28T17:15:07.585351
120,-0.0420,0.0449,1.0311,-0.035,-4.340,-0.315,366,414,379,404,413,2025-05-28T17:15:07.585351
121,-0.0405,0.0459,1.0311,-0.035,-3.955,-0.175,414,434,397,413,414,2025-05-28T17:15:07.785330
122,-0.0376,0.0459,1.0297,-0.070,-3.885,-0.280,374,434,358,403,401,2025-05-28T17:15:07.785330
123,-0.0346,0.0429,1.0307,-0.105,-3.570,-0.315,435,410,348,354,392,2025-05-28T17:15:07.785330
124,-0.0376,0.0410,1.0321,0.000,-3.325,-0.315,395,403,375,332,390,2025-05-28T17:15:07.785330
125,-0.0381,0.0429,1.0287,0.035,-3.255,-0.315,414,411,388,347,393,2025-05-28T17:15:07.785330
126,-0.0400,0.0400,1.0268,0.000,-3.220,-0.175,426,427,391,389,390,2025-05-28T17:15:07.785330
127,-0.0366,0.0429,1.0365,0.175,-3.570,0.280,435,419,379,341,387,2025-05-28T17:15:07.785330
128,-0.0405,0.0439,1.0331,0.000,-3.220,0.140,430,405,389,389,389,2025-05-28T17:15:07.785330
129,-0.0366,0.0444,1.0336,-0.070,-3.465,0.210,411,421,381,396,349,2025-05-28T17:15:07.785330
130,-0.0376,0.0464,1.0282,0.035,-3.325,0.315,416,432,354,412,386,2025-05-28T17:15:07.785330
131,-0.0395,0.0439,1.0272,-0.105,-3.185,0.175,420,441,372,403,397,2025-05-28T17:15:07.785330
132,-0.0366,0.0439,1.0292,-0.035,-2.905,0.455,409,423,383,352,399,2025-05-28T17:15:07.785330
133,-0.0390,0.0444,1.0360,0.175,-2.905,0.560,417,418,395,393,399,2025-05-28T17:15:07.785330
134,-0.0351,0.0444,1.0331,0.245,-2.485,0.455,365,418,392,393,401,2025-05-28T17:15:07.785330
135,-0.0405,0.0420,1.0307,0.070,-2.590,0.525,415,404,355,392,354,2025-05-28T17:15:07.785330
136,-0.0405,0.0444,1.0297,0.105,-2.765,0.455,418,390,334,386,376,2025-05-28T17:15:07.785330
137,-0.0400,0.0434,1.0311,0.140,-2.660,0.455,417,418,341,409,392,2025-05-28T17:15:07.785330
138,-0.0361,0.0410,1.0326,0.070,-2.310,0.420,414,411,360,404,407,2025-05-28T17:15:07.785330
139,-0.0395,0.0429,1.0297,0.105,-2.100,0.385,444,420,329,410,370,2025-05-28T17:15:07.918366
140,-0.0464,0.0444,1.0316,0.105,-2.380,0.350,426,435,362,395,395,2025-05-28T17:15:07.918366
141,-0.0454,0.0439,1.0326,0.105,-2.590,0.350,435,423,368,368,386,2025-05-28T17:15:07.918366
142,-0.0444,0.0454,1.0311,-0.035,-3.115,0.350,417,423,384,346,389,2025-05-28T17:15:07.918366
143,-0.0410,0.0464,1.0331,0.105,-3.080,0.560,408,426,378,392,364,2025-05-28T17:15:07.918366
144,-0.0395,0.0464,1.0350,0.000,-3.010,0.595,394,418,353,386,357,2025-05-28T17:15:07.918366
145,-0.0415,0.0464,1.0316,0.280,-3.150,0.595,430,318,373,404,399,2025-05-28T17:15:07.918366
146,-0.0444,0.0434,1.0282,0.140,-3.045,0.840,412,358,388,422,417,2025-05-28T17:15:07.918366
147,-0.0429,0.0483,1.0350,-0.070,-3.255,0.910,444,415,385,412,377,2025-05-28T17:15:07.985200
148,-0.0420,0.0498,1.0355,0.070,-3.430,0.770,408,416,356,407,382,2025-05-28T17:15:07.985200
149,-0.0444,0.0522,1.0311,0.000,-3.395,0.490,436,409,380,415,396,2025-05-28T17:15:07.985200
150,-0.0439,0.0473,1.0282,0.105,-3.115,0.210,441,410,377,415,409,2025-05-28T17:15:07.985200
151,-0.0415,0.0464,1.0292,0.175,-2.975,0.420,428,422,387,404,357,2025-05-28T17:15:07.985200
152,-0.0483,0.0425,1.0316,0.245,-3.115,0.455,442,360,352,386,389,2025-05-28T17:15:07.985200
153,-0.0386,0.0478,1.0331,0.245,-3.080,0.560,357,423,376,348,388,2025-05-28T17:15:07.985200
154,-0.0400,0.0478,1.0311,0.350,-3.045,0.595,390,433,379,392,367,2025-05-28T17:15:07.985200
155,-0.0439,0.0434,1.0307,0.455,-3.115,0.875,426,382,392,306,344,2025-05-28T17:15:07.985200
156,-0.0410,0.0464,1.0297,0.490,-3.570,1.155,426,427,381,384,396,2025-05-28T17:15:08.201728
157,-0.0410,0.0439,1.0311,0.420,-3.640,1.225,381,413,377,397,391,2025-05-28T17:15:08.201728
158,-0.0395,0.0444,1.0316,0.630,-3.185,1.225,438,383,389,387,399,2025-05-28T17:15:08.201728
159,-0.0356,0.0449,1.0341,0.350,-2.975,1.260,426,431,385,396,388,2025-05-28T17:15:08.201728
160,-0.0410,0.0439,1.0297,0.315,-2.695,1.190,445,400,380,397,402,2025-05-28T17:15:08.201728
161,-0.0410,0.0459,1.0297,0.175,-3.045,0.700,440,316,310,360,347,2025-05-28T17:15:08.201728
162,-0.0386,0.0410,1.0346,0.280,-2.240,0.910,420,419,354,341,386,2025-05-28T17:15:08.201728
163,-0.0420,0.0449,1.0360,0.070,-1.925,0.980,436,385,358,382,390,2025-05-28T17:15:08.201728
164,-0.0464,0.0444,1.0316,0.175,-2.380,0.805,429,416,380,347,380,2025-05-28T17:15:08.201728
165,-0.0522,0.0459,1.0355,-0.035,-2.975,0.980,405,402,377,390,406,2025-05-28T17:15:08.201728
166,-0.0512,0.0468,1.0302,-0.140,-3.815,1.330,412,414,381,392,417,2025-05-28T17:15:08.201728
167,-0.0517,0.0483,1.0282,-0.140,-4.585,1.400,417,429,384,351,410,2025-05-28T17:15:08.201728
168,-0.0434,0.0429,1.0287,-0.280,-5.460,1.260,371,432,343,371,408,2025-05-28T17:15:08.201728
169,-0.0415,0.0425,1.0336,-0.070,-4.795,1.190,422,435,371,389,410,2025-05-28T17:15:08.201728
170,-0.0371,0.0444,1.0287,-0.175,-4.690,0.910,428,414,382,347,391,2025-05-28T17:15:08.201728
171,-0.0400,0.0415,1.0287,-0.210,-4.060,0.735,363,435,390,392,390,2025-05-28T17:15:08.201728
172,-0.0395,0.0444,1.0297,-0.280,-4.095,0.455,415,422,318,384,364,2025-05-28T17:15:08.201728
173,-0.0395,0.0410,1.0258,-0.210,-4.025,0.210,324,410,347,393,382,2025-05-28T17:15:08.302668
174,-0.0405,0.0400,1.0297,-0.175,-3.640,0.105,441,399,361,407,400,2025-05-28T17:15:08.302668
175,-0.0390,0.0381,1.0326,-0.140,-3.710,0.035,386,426,336,400,348,2025-05-28T17:15:08.302668
176,-0.0400,0.0449,1.0263,-0.070,-3.185,-0.105,374,425,360,406,370,2025-05-28T17:15:08.302668
177,-0.0454,0.0415,1.0331,-0.175,-3.990,-0.210,435,413,365,410,385,2025-05-28T17:15:08.302668
178,-0.0429,0.0473,1.0375,0.105,-3.920,0.035,411,410,372,409,396,2025-05-28T17:15:08.302668
179,-0.0488,0.0478,1.0350,-0.070,-4.655,-0.385,425,423,381,409,394,2025-05-28T17:15:08.302668
180,-0.0395,0.0527,1.0307,0.000,-4.900,-0.700,413,409,390,417,387,2025-05-28T17:15:08.302668
181,-0.0410,0.0498,1.0287,-0.105,-4.585,-0.700,428,443,392,316,350,2025-05-28T17:15:08.302668
182,-0.0337,0.0483,1.0214,-0.070,-3.815,-0.630,424,391,376,371,392,2025-05-28T17:15:08.435824
183,-0.0346,0.0400,1.0292,0.070,-3.710,-0.455,371,397,388,388,368,2025-05-28T17:15:08.435824
184,-0.0337,0.0420,1.0336,0.070,-3.325,-0.175,437,405,386,350,394,2025-05-28T17:15:08.435824
185,-0.0381,0.0386,1.0326,-0.210,-2.940,-0.140,448,432,357,385,409,2025-05-28T17:15:08.435824
186,-0.0356,0.0405,1.0311,-0.140,-3.010,-0.035,430,427,380,402,411,2025-05-28T17:15:08.435824
187,-0.0327,0.0464,1.0277,-0.105,-2.520,0.105,436,444,381,389,396,2025-05-28T17:15:08.435824
188,-0.0351,0.0439,1.0321,-0.140,-2.065,0.000,440,399,374,367,401,2025-05-28T17:15:08.435824
189,-0.0410,0.0444,1.0375,-0.210,-1.750,0.000,427,431,382,385,391,2025-05-28T17:15:08.435824
190,-0.0493,0.0444,1.0355,-0.315,-1.855,-0.315,423,434,394,405,406,2025-05-28T17:15:08.435824
191,-0.0478,0.0454,1.0326,-0.525,-2.450,-0.035,414,423,390,415,392,2025-05-28T17:15:08.435824
192,-0.0508,0.0493,1.0233,-0.560,-3.360,0.000,420,447,385,404,391,2025-05-28T17:15:08.435824
193,-0.0493,0.0429,1.0380,-0.560,-4.165,0.315,414,440,389,394,393,2025-05-28T17:15:08.601795
194,-0.0283,0.0522,1.0346,-1.015,-3.465,-0.210,407,435,394,369,402,2025-05-28T17:15:08.601795
195,-0.0322,0.0405,1.0360,-0.805,-3.045,0.210,436,360,366,345,410,2025-05-28T17:15:08.601795
196,-0.0312,0.0390,1.0243,-0.840,-3.255,0.770,418,404,384,387,407,2025-05-28T17:15:08.601795
197,-0.0273,0.0410,1.0258,-0.735,-3.290,1.540,409,397,394,391,405,2025-05-28T17:15:08.601795
198,-0.0200,0.0556,1.0360,-0.805,-3.815,2.240,407,429,383,405,394,2025-05-28T17:15:08.601795
199,-0.0093,0.0659,1.0385,-1.190,-4.620,3.430,438,371,391,399,343,2025-05-28T17:15:08.601795
200,-0.0034,0.0625,1.0419,-1.400,-4.165,4.900,433,426,357,404,396,2025-05-28T17:15:08.601795
201,0.0010,0.0639,1.0414,-1.610,-3.780,6.790,398,420,385,393,387,2025-05-28T17:15:08.670989
202,0.0049,0.0630,1.0350,-1.540,-2.100,7.735,418,440,379,394,361,2025-05-28T17:15:08.670989
203,0.0093,0.0654,1.0307,-0.805,1.120,7.980,377,416,348,410,391,2025-05-28T17:15:08.670989
204,0.0425,0.0810,1.0414,-0.140,7.350,7.805,401,400,337,393,393,2025-05-28T17:15:08.670989
205,0.0527,0.0932,1.0458,0.945,12.180,5.775,411,422,372,396,413,2025-05-28T17:15:08.670989
206,0.0649,0.1118,1.0565,2.170,18.585,4.480,417,431,372,411,390,2025-05-28T17:15:08.670989
207,0.0898,0.1420,1.0716,1.680,29.295,1.960,380,429,385,422,413,2025-05-28T17:15:08.719696
208,-0.0239,0.0888,1.0643,-0.700,39.970,-6.895,416,429,375,406,410,2025-05-28T17:15:08.719696
209,-0.0473,0.0522,1.0873,3.640,49.840,-18.095,441,431,386,356,402,2025-05-28T17:15:08.719696
210,-0.1274,0.0547,1.0990,6.300,55.860,-26.810,436,445,382,390,416,2025-05-28T17:15:08.719696
211,-0.1454,0.0161,1.1473,4.690,58.030,-34.650,415,403,380,368,364,2025-05-28T17:15:08.719696
212,-0.1337,-0.0371,1.1078,9.275,51.450,-41.510,420,380,391,385,393,2025-05-28T17:15:08.719696
213,-0.2513,-0.0449,1.1468,9.870,32.585,-48.475,362,396,358,400,394,2025-05-28T17:15:08.719696
214,-0.2801,-0.1298,1.1912,15.330,11.375,-49.560,393,402,380,422,361,2025-05-28T17:15:08.719696
215,-0.2621,-0.1186,1.2688,25.620,0.735,-47.845,405,402,313,400,332,2025-05-28T17:15:08.719696
216,-0.2167,-0.1171,1.3225,29.750,1.540,-45.780,428,405,351,393,378,2025-05-28T17:15:08.719696
217,-0.2054,-0.1132,1.3127,33.845,10.290,-41.440,427,427,328,398,409,2025-05-28T17:15:08.771397
218,-0.2191,-0.0956,1.2668,37.905,19.530,-38.010,420,411,358,354,354,2025-05-28T17:15:08.771397
219,-0.2040,-0.0673,1.2410,44.765,29.540,-37.135,374,351,365,375,377,2025-05-28T17:15:08.771397
220,-0.1967,-0.0220,1.1775,48.755,41.545,-34.370,431,398,387,399,389,2025-05-28T17:15:08.771397
221,-0.2377,0.0132,1.1444,52.535,51.415,-33.355,424,425,396,375,395,2025-05-28T17:15:08.822734
222,-0.2791,0.0508,1.0873,54.320,53.095,-34.615,413,410,358,398,390,2025-05-28T17:15:08.822734
223,-0.3353,0.0956,1.0170,54.005,49.560,-31.045,366,416,379,405,401,2025-05-28T17:15:08.822734
224,-0.3845,0.1420,0.9550,51.240,44.660,-27.615,406,376,373,385,403,2025-05-28T17:15:08.822734
225,-0.4299,0.1723,0.8926,47.950,36.260,-23.135,406,400,385,392,394,2025-05-28T17:15:08.919026
226,-0.4250,0.2191,0.8355,40.565,28.840,-16.625,448,414,382,404,412,2025-05-28T17:15:08.919026
227,-0.6139,0.0761,0.7300,29.540,21.875,-9.205,442,444,391,385,413,2025-05-28T17:15:08.919026
228,-0.3606,0.2313,0.8672,31.535,3.675,-4.445,434,440,388,343,402,2025-05-28T17:15:08.919026
229,-1.1048,0.2752,0.5612,18.200,-34.615,42.455,446,372,388,401,397,2025-05-28T17:15:08.919026
230,-0.3182,0.2601,0.8023,-0.105,-29.190,32.305,435,426,388,415,394,2025-05-28T17:15:08.919026
231,-0.5563,0.0508,0.6124,-7.175,-17.255,37.415,423,429,389,419,381,2025-05-28T17:15:08.919026
232,-0.4612,0.1244,0.7798,1.155,0.700,28.455,442,440,347,393,396,2025-05-28T17:15:08.919026
233,-0.2289,0.1132,0.9233,5.390,-20.790,16.240,364,416,371,407,404,2025-05-28T17:15:09.117391
234,-0.1313,0.0673,0.9731,2.695,-50.365,13.090,428,401,371,407,390,2025-05-28T17:15:09.117391
235,0.1176,0.1157,0.9199,-6.685,-61.215,7.385,413,423,376,393,391,2025-05-28T17:15:09.117391
236,0.2298,0.1557,0.8994,-9.590,-34.650,5.880,415,434,384,417,396,2025-05-28T17:15:09.117391
237,0.1859,0.1562,0.9584,-10.080,-4.585,0.490,412,409,372,375,403,2025-05-28T17:15:09.117391
238,0.1069,0.0952,1.0292,-12.600,21.175,-6.300,426,415,365,338,408,2025-05-28T17:15:09.117898
239,0.0830,0.1566,1.1092,-14.630,28.385,-12.530,443,434,375,371,408,2025-05-28T17:15:09.117898
240,-0.0703,0.1791,1.0995,-20.580,21.245,-14.630,384,425,383,377,409,2025-05-28T17:15:09.117898
241,-0.1674,0.1669,1.0443,-26.565,7.840,-18.935,419,429,384,381,418,2025-05-28T17:15:09.117898
242,-0.1840,0.1762,1.0136,-23.205,0.875,-21.315,438,419,377,399,389,2025-05-28T17:15:09.117898
243,-0.2328,0.1776,1.0277,-14.840,-6.020,-18.760,411,435,345,381,402,2025-05-28T17:15:09.117898
244,-0.2367,0.1728,1.0453,-9.555,-10.500,-17.290,416,443,353,385,408,2025-05-28T17:15:09.117898
245,-0.1937,0.1684,1.1165,-8.190,-16.905,-14.560,366,435,361,400,398,2025-05-28T17:15:09.118054
246,-0.1742,0.1591,1.0985,-9.030,-24.640,-14.770,377,407,379,387,381,2025-05-28T17:15:09.118054
247,-0.0971,0.1283,1.0965,-8.540,-24.290,-16.765,404,379,381,411,341,2025-05-28T17:15:09.118143
248,-0.1005,0.0722,1.0853,-4.095,-14.525,-16.485,429,348,391,417,369,2025-05-28T17:15:09.118143
249,-0.1620,0.0742,1.0472,3.185,-5.880,-12.285,421,422,383,414,364,2025-05-28T17:15:09.118332
250,-0.1962,0.0400,1.0131,7.595,-2.695,-10.255,322,410,388,369,381,2025-05-28T17:15:09.272789
251,-0.2133,0.0132,1.0082,8.995,-2.695,-10.220,406,403,381,401,393,2025-05-28T17:15:09.272789
252,-0.2240,0.0102,0.9941,10.640,0.105,-10.080,436,411,385,397,411,2025-05-28T17:15:09.272789
253,-0.2035,0.0459,0.9335,10.920,5.285,-9.485,429,438,393,395,391,2025-05-28T17:15:09.272789
254,-0.1606,0.0586,0.8769,8.155,13.545,-10.710,421,431,378,345,342,2025-05-28T17:15:09.272789
255,-0.1552,0.0468,0.8120,5.075,25.725,-13.055,408,379,384,360,386,2025-05-28T17:15:09.272789
256,-0.1708,0.0181,0.7662,3.430,37.135,-13.370,428,426,395,335,403,2025-05-28T17:15:09.272789
257,-0.1840,0.0386,0.7603,2.765,47.740,-19.215,434,426,407,385,400,2025-05-28T17:15:09.272789
258,-0.2020,0.0400,0.8442,2.695,59.290,-27.300,410,383,398,388,409,2025-05-28T17:15:09.272789
259,-0.1484,-0.0166,0.8901,7.595,63.210,-26.145,417,410,400,397,407,2025-05-28T17:15:09.419279
260,-0.1425,-0.0083,0.9965,15.540,63.875,-28.630,408,407,390,415,398,2025-05-28T17:15:09.419279
261,-0.1200,0.0088,1.0594,29.225,62.265,-25.725,426,438,387,405,408,2025-05-28T17:15:09.419279
262,-0.1625,0.0317,1.0843,41.545,60.725,-20.475,438,422,381,416,408,2025-05-28T17:15:09.419279
263,-0.1967,0.0717,1.0531,53.865,63.245,-15.785,446,429,373,399,387,2025-05-28T17:15:09.419279
264,-0.2962,0.1147,1.0419,66.290,66.185,-12.425,441,444,385,421,397,2025-05-28T17:15:09.419279
265,-0.3694,0.1508,1.0077,79.590,66.990,-11.025,437,366,384,423,404,2025-05-28T17:15:09.419279
266,-0.4929,0.1845,1.0121,94.710,62.755,-11.620,399,405,389,403,389,2025-05-28T17:15:09.419279
267,-0.5861,0.2503,1.0024,104.685,43.050,-10.465,429,420,395,398,406,2025-05-28T17:15:09.419279
268,-0.3797,0.3065,1.0277,110.425,36.260,-18.130,408,422,404,405,411,2025-05-28T17:15:09.419279
269,-0.3392,0.2645,0.9160,103.915,49.175,-18.515,436,392,356,361,406,2025-05-28T17:15:09.419279
270,-0.4582,0.2894,1.0126,109.480,63.350,-24.220,377,405,379,374,371,2025-05-28T17:15:09.419279
271,-0.5197,0.3475,1.1214,117.950,59.115,-25.375,411,434,376,360,357,2025-05-28T17:15:09.419279
272,-0.6207,0.3489,1.1624,117.005,38.150,-21.245,428,448,391,338,389,2025-05-28T17:15:09.419279
273,-0.6242,0.3216,1.1790,115.150,23.800,-14.070,436,424,389,364,358,2025-05-28T17:15:09.419279
274,-0.5466,0.1039,1.0931,140.665,35.385,-18.655,441,409,377,397,332,2025-05-28T17:15:09.419279
275,-0.5261,0.2923,1.4699,154.595,54.460,-13.230,394,433,384,401,370,2025-05-28T17:15:09.419279
276,-0.4939,0.3509,1.4206,152.670,63.770,2.240,443,406,392,415,380,2025-05-28T17:15:09.534854
277,-0.6359,0.2669,1.2288,154.560,52.360,13.090,446,446,400,410,385,2025-05-28T17:15:09.534854
278,-0.6690,0.2713,1.0902,164.465,30.100,16.380,422,441,400,420,397,2025-05-28T17:15:09.534854
279,-0.6207,0.3099,1.0038,173.040,19.880,21.035,413,415,357,415,394,2025-05-28T17:15:09.534854
280,-0.5666,0.3484,0.9257,174.020,12.705,30.380,371,434,383,416,390,2025-05-28T17:15:09.534854
281,-0.5636,0.3606,0.8008,173.285,-2.870,38.080,415,428,394,396,403,2025-05-28T17:15:09.534854
282,-0.5173,0.4148,0.6759,172.270,-7.980,43.155,413,414,397,402,424,2025-05-28T17:15:09.534854
283,-0.4592,0.4626,0.5685,168.805,-2.275,48.370,425,404,357,393,395,2025-05-28T17:15:09.534854
284,-0.4280,0.5222,0.4890,161.910,5.810,52.885,417,434,384,391,385,2025-05-28T17:15:09.635749
285,-0.3977,0.5392,0.4050,152.565,11.060,56.840,442,429,376,344,409,2025-05-28T17:15:09.635749
286,-0.3880,0.5768,0.3314,143.325,18.410,61.810,418,413,377,388,361,2025-05-28T17:15:09.635749
287,-0.3972,0.6061,0.2782,133.595,23.940,63.630,442,421,372,347,374,2025-05-28T17:15:09.635749
288,-0.4216,0.6349,0.2264,117.355,20.020,63.945,417,419,376,403,404,2025-05-28T17:15:09.635749
289,-0.4046,0.6715,0.1776,116.235,10.955,62.475,449,436,380,406,421,2025-05-28T17:15:09.635749
290,-0.3631,0.7022,0.1410,105.840,4.690,60.060,425,424,380,420,400,2025-05-28T17:15:09.635749
291,-0.3226,0.7159,0.1196,96.215,0.315,57.575,387,417,387,392,410,2025-05-28T17:15:09.635749
292,-0.2528,0.7340,0.0776,86.485,-3.605,54.530,442,442,356,405,393,2025-05-28T17:15:09.635749
293,-0.2011,0.7701,0.1054,77.070,-7.000,49.980,425,407,332,367,393,2025-05-28T17:15:09.835879
294,-0.1118,0.7950,0.0976,67.760,-4.480,44.905,419,412,362,388,392,2025-05-28T17:15:09.835879
295,-0.0630,0.8247,0.1298,59.395,3.430,40.810,389,411,386,404,408,2025-05-28T17:15:09.835879
296,-0.0532,0.8394,0.1371,50.155,10.675,34.825,396,360,382,420,421,2025-05-28T17:15:09.835879
297,-0.0649,0.8520,0.1669,43.680,15.645,30.170,403,410,396,396,357,2025-05-28T17:15:09.835879
298,-0.0893,0.8647,0.1976,38.780,17.500,24.850,409,356,383,390,339,2025-05-28T17:15:09.835879
299,-0.1210,0.8804,0.2167,33.110,17.640,19.285,431,407,375,400,382,2025-05-28T17:15:09.835879
300,-0.1547,0.8711,0.2552,29.400,15.505,14.560,322,429,386,405,383,2025-05-28T17:15:09.835879
301,-0.1928,0.8603,0.2723,25.620,11.795,9.520,433,401,393,420,350,2025-05-28T17:15:09.835879
302,-0.1972,0.8579,0.2879,22.435,8.855,4.935,426,433,377,417,374,2025-05-28T17:15:09.835879
303,-0.2045,0.8506,0.3055,18.200,8.505,1.680,425,422,389,409,383,2025-05-28T17:15:09.835879
304,-0.2279,0.8408,0.3416,14.700,9.485,-1.995,406,389,390,423,402,2025-05-28T17:15:09.835879
305,-0.2621,0.8223,0.3436,13.790,8.365,-3.710,425,414,392,431,409,2025-05-28T17:15:09.835879
306,-0.3152,0.8311,0.3806,12.985,7.175,-6.720,413,437,389,414,408,2025-05-28T17:15:09.835879
307,-0.3348,0.8374,0.3850,10.430,7.560,-8.925,423,430,398,403,413,2025-05-28T17:15:09.835879
308,-0.3606,0.8472,0.4041,7.490,9.030,-9.660,430,361,352,356,354,2025-05-28T17:15:09.835879
309,-0.3992,0.8384,0.4270,5.495,8.260,-9.065,436,414,368,365,388,2025-05-28T17:15:09.835879
310,-0.4202,0.8306,0.4226,5.775,2.660,-8.050,377,424,387,375,399,2025-05-28T17:15:10.035639
311,-0.4089,0.8516,0.4558,6.650,-3.465,-8.225,425,411,379,391,389,2025-05-28T17:15:10.035639
312,-0.3289,0.8950,0.4821,4.725,-7.840,-8.050,405,408,397,347,383,2025-05-28T17:15:10.035639
313,-0.2162,0.9692,0.4909,0.980,-12.845,-8.820,421,415,377,402,398,2025-05-28T17:15:10.035639
314,-0.0937,1.1126,0.4851,-6.230,-17.955,-13.125,366,401,383,416,355,2025-05-28T17:15:10.035639
315,0.1054,1.2888,0.4699,-16.835,-24.500,-20.090,416,388,391,403,370,2025-05-28T17:15:10.035639
316,0.3035,1.5362,0.4319,-28.105,-33.495,-32.655,414,407,349,405,394,2025-05-28T17:15:10.035639
317,0.4446,1.8085,0.3963,-42.350,-50.785,-46.830,419,428,364,394,398,2025-05-28T17:15:10.035639
318,0.5344,2.0598,0.3362,-54.355,-80.570,-58.100,423,430,303,401,406,2025-05-28T17:15:10.035639
319,0.5856,2.2536,0.2669,-71.015,-112.280,-63.350,434,373,356,400,356,2025-05-28T17:15:10.035639
320,0.6202,2.3844,0.1649,-91.525,-148.680,-67.935,412,378,368,366,393,2025-05-28T17:15:10.035639
321,0.6554,2.4566,0.0351,-117.320,-171.185,-71.715,426,405,381,338,397,2025-05-28T17:15:10.035639
322,0.6715,2.4585,-0.0537,-146.825,-176.330,-79.170,432,400,391,364,400,2025-05-28T17:15:10.035639
323,0.5924,2.2877,-0.1928,-171.465,-179.165,-86.450,398,401,377,383,401,2025-05-28T17:15:10.035639
324,0.3797,2.0696,-0.2284,-189.455,-186.060,-96.495,415,409,368,405,404,2025-05-28T17:15:10.035639
325,0.2655,1.7817,-0.2874,-197.680,-205.065,-113.820,369,395,384,354,394,2025-05-28T17:15:10.035639
326,0.0498,1.4738,-0.1947,-207.935,-230.895,-138.705,308,429,387,389,350,2025-05-28T17:15:10.035639
327,-0.0117,1.0814,-0.1576,-217.630,-251.230,-158.690,415,420,383,397,377,2025-05-28T17:15:10.251736
328,-0.1884,0.6900,0.0854,-235.515,-272.825,-185.325,421,415,381,409,401,2025-05-28T17:15:10.251736
329,-0.2406,0.3323,0.2274,-261.835,-283.045,-205.800,425,415,384,363,391,2025-05-28T17:15:10.251736
330,-0.0669,-0.2323,0.3484,-285.530,-266.070,-229.075,427,411,376,382,366,2025-05-28T17:15:10.251736
331,0.0981,-1.1971,0.3655,-271.495,-224.595,-233.520,435,422,372,302,375,2025-05-28T17:15:10.251736
332,-0.1991,-1.9598,0.6163,-260.435,-160.580,-254.240,356,357,365,319,384,2025-05-28T17:15:10.251736
333,-0.4138,-2.7450,0.9804,-256.830,-100.695,-262.535,349,416,379,384,391,2025-05-28T17:15:10.251736
334,-0.9204,-3.2384,1.4381,-236.880,-71.505,-228.375,413,412,375,404,408,2025-05-28T17:15:10.251736
335,-1.2137,-3.3936,1.4498,-195.545,-48.790,-162.120,365,411,370,364,415,2025-05-28T17:15:10.251736
336,-1.3937,-3.1896,1.4674,-109.445,-76.265,-68.775,404,396,369,396,406,2025-05-28T17:15:10.251736
337,-1.1200,-2.6884,1.4757,-29.995,-101.640,15.855,420,382,374,422,414,2025-05-28T17:15:10.251736
338,-0.6778,-2.3575,1.3679,39.585,-83.160,105.770,430,369,374,412,397,2025-05-28T17:15:10.251736
339,-0.2396,-1.9418,1.3020,90.755,-46.305,156.870,431,404,381,417,409,2025-05-28T17:15:10.251736
340,-0.0732,-1.5279,1.2922,116.655,-6.965,169.995,404,429,384,420,401,2025-05-28T17:15:10.251736
341,0.0181,-1.2000,1.1883,139.055,12.880,173.425,416,390,377,414,412,2025-05-28T17:15:10.251736
342,0.0634,-0.9941,1.1039,149.940,12.390,166.425,431,396,341,412,364,2025-05-28T17:15:10.251736
343,0.1064,-0.8262,1.0292,158.830,11.410,158.375,361,414,365,411,374,2025-05-28T17:15:10.251736
344,0.1830,-0.7154,0.9331,169.820,21.840,142.975,406,413,371,403,380,2025-05-28T17:15:10.456442
345,0.2933,-0.4333,0.9370,177.520,53.760,130.130,396,435,384,398,347,2025-05-28T17:15:10.456442
346,0.2865,-0.2064,0.9321,178.185,89.915,123.655,419,416,392,397,361,2025-05-28T17:15:10.456442
347,0.2440,0.0151,0.9487,173.250,124.250,120.750,413,420,386,416,378,2025-05-28T17:15:10.456442
348,0.2225,0.2318,0.9223,168.700,153.615,117.285,424,426,397,391,391,2025-05-28T17:15:10.456442
349,0.1405,0.4553,0.8501,167.055,175.770,117.495,404,444,402,403,393,2025-05-28T17:15:10.456442
350,0.0537,0.6095,0.8047,165.865,187.810,118.440,409,418,401,403,390,2025-05-28T17:15:10.456442
351,-0.0727,0.8091,0.8106,167.300,185.885,100.905,433,442,400,397,392,2025-05-28T17:15:10.526352
352,-0.1254,0.8843,0.7022,171.360,165.095,96.495,435,425,388,371,345,2025-05-28T17:15:10.526352
353,-0.1137,0.9623,0.5861,176.960,134.260,85.505,432,444,392,338,386,2025-05-28T17:15:10.526352
354,-0.0264,1.0058,0.5090,184.170,105.280,78.330,443,408,378,372,392,2025-05-28T17:15:10.526352
355,0.0673,1.1219,0.4904,179.340,86.310,64.120,431,408,344,398,399,2025-05-28T17:15:10.526352
356,0.1264,1.1209,0.3650,186.550,75.040,57.470,433,410,364,370,415,2025-05-28T17:15:10.526352
357,0.1767,1.1771,0.2660,180.495,69.230,49.315,412,437,361,398,377,2025-05-28T17:15:10.526352
358,0.2035,1.2117,0.1791,173.845,65.205,47.530,439,357,365,380,387,2025-05-28T17:15:10.526352
359,0.2196,1.2693,0.1415,161.700,65.695,41.090,434,423,371,398,394,2025-05-28T17:15:10.526352
360,0.2377,1.3005,0.0073,145.810,66.360,37.100,438,434,381,385,404,2025-05-28T17:15:10.558751
361,0.2547,1.2917,0.0834,128.135,67.725,33.600,325,428,392,363,385,2025-05-28T17:15:10.558751
362,0.2298,1.2810,0.0859,110.950,70.945,28.350,404,320,345,395,397,2025-05-28T17:15:10.558751
363,0.2006,1.2571,0.1030,94.325,72.240,21.805,429,401,357,415,396,2025-05-28T17:15:10.558751
364,0.1318,1.2073,0.1279,81.550,66.920,15.260,412,411,373,400,406,2025-05-28T17:15:10.558751
365,0.0722,1.1629,0.1503,69.020,55.090,9.380,436,431,343,405,352,2025-05-28T17:15:10.558751
366,0.0205,1.1390,0.1854,60.165,36.960,4.725,415,402,368,354,391,2025-05-28T17:15:10.558751
367,-0.0356,1.1331,0.2216,52.185,20.090,-3.080,427,410,371,390,364,2025-05-28T17:15:10.558751
368,-0.0210,1.1239,0.2367,43.645,6.825,-9.520,440,424,351,407,394,2025-05-28T17:15:10.558751
369,-0.0083,1.1078,0.2450,36.505,2.065,-12.320,415,407,370,402,410,2025-05-28T17:15:10.651705
370,-0.0122,1.0917,0.2455,28.455,5.285,-14.000,364,419,379,413,397,2025-05-28T17:15:10.651705
371,-0.0224,1.0575,0.2528,21.140,13.230,-15.330,394,360,340,417,405,2025-05-28T17:15:10.651705
372,-0.0478,1.0448,0.2660,14.665,20.160,-15.260,427,409,356,379,344,2025-05-28T17:15:10.651705
373,-0.0956,1.0219,0.2752,8.645,26.460,-15.400,385,403,370,356,343,2025-05-28T17:15:10.651705
374,-0.1576,0.9975,0.2845,5.215,31.045,-15.190,400,416,307,388,292,2025-05-28T17:15:10.651705
375,-0.2294,0.9760,0.3133,2.695,31.290,-15.295,412,426,326,411,350,2025-05-28T17:15:10.651705
376,-0.2728,0.9628,0.3440,0.665,27.475,-14.910,430,392,364,387,387,2025-05-28T17:15:10.651705
377,-0.3211,0.9443,0.3548,-0.420,20.720,-14.700,407,404,339,397,392,2025-05-28T17:15:10.752469
378,-0.3387,0.9252,0.3606,-0.595,13.160,-13.405,417,391,354,369,406,2025-05-28T17:15:10.752469
379,-0.3323,0.9170,0.3631,-0.490,7.315,-11.900,386,407,370,395,351,2025-05-28T17:15:10.752469
380,-0.3362,0.9106,0.3558,-1.050,5.775,-11.095,412,360,384,395,375,2025-05-28T17:15:10.752469
381,-0.3216,0.9096,0.3592,-1.750,6.720,-10.045,407,399,384,412,399,2025-05-28T17:15:10.752469
382,-0.3084,0.9067,0.3504,-2.905,9.660,-8.995,405,412,344,413,385,2025-05-28T17:15:10.752469
383,-0.3016,0.8926,0.3372,-4.445,13.475,-7.735,437,424,374,366,392,2025-05-28T17:15:10.752469
384,-0.3157,0.8779,0.3279,-4.410,18.375,-6.090,368,388,350,378,408,2025-05-28T17:15:10.752469
385,-0.3475,0.8667,0.3406,-4.165,21.525,-5.075,403,425,375,404,405,2025-05-28T17:15:10.752469
386,-0.3792,0.8633,0.3611,-4.445,20.475,-5.040,353,406,372,412,394,2025-05-28T17:15:10.852484
387,-0.3855,0.8530,0.3704,-5.075,15.680,-4.550,424,434,382,421,404,2025-05-28T17:15:10.852484
388,-0.3904,0.8433,0.3714,-5.040,11.550,-4.655,322,356,375,396,369,2025-05-28T17:15:10.852484
389,-0.3865,0.8413,0.3660,-3.850,7.875,-4.970,391,389,379,381,395,2025-05-28T17:15:10.852484
390,-0.3733,0.8413,0.3680,-3.290,6.020,-5.040,393,402,390,411,399,2025-05-28T17:15:10.852484
391,-0.3562,0.8433,0.3714,-3.290,6.055,-5.075,405,423,374,375,397,2025-05-28T17:15:10.852484
392,-0.3440,0.8423,0.3597,-3.570,7.700,-4.830,400,389,384,386,389,2025-05-28T17:15:10.867968
393,-0.3567,0.8301,0.3538,-2.730,10.255,-4.655,425,406,396,400,352,2025-05-28T17:15:10.867968
394,-0.3616,0.8291,0.3626,-1.330,11.130,-4.270,402,425,350,387,371,2025-05-28T17:15:10.867968
395,-0.3670,0.8350,0.3782,-1.050,11.935,-4.060,422,409,372,397,387,2025-05-28T17:15:10.963260
396,-0.3772,0.8350,0.3831,-1.155,13.475,-4.200,420,375,380,346,393,2025-05-28T17:15:10.963260
397,-0.3836,0.8316,0.3772,-0.770,14.245,-4.515,352,422,375,399,351,2025-05-28T17:15:10.963260
398,-0.3743,0.8369,0.3743,-0.350,14.455,-4.200,403,416,372,411,383,2025-05-28T17:15:10.963260
399,-0.4055,0.8301,0.3792,0.105,12.460,-5.285,418,427,375,417,402,2025-05-28T17:15:10.963260
400,-0.4085,0.8281,0.3645,1.330,11.375,-5.460,418,408,385,400,390,2025-05-28T17:15:10.963260
401,-0.4290,0.8247,0.3728,1.995,8.715,-5.600,421,404,393,388,394,2025-05-28T17:15:10.963260
402,-0.4041,0.8325,0.3723,2.170,7.490,-4.865,425,405,379,407,403,2025-05-28T17:15:10.963260
403,-0.3992,0.8301,0.3694,2.380,7.140,-5.145,417,410,396,416,380,2025-05-28T17:15:11.168875
404,-0.3997,0.8247,0.3694,1.960,9.135,-5.285,414,418,391,422,401,2025-05-28T17:15:11.168875
405,-0.4065,0.8272,0.3631,2.135,10.745,-4.830,429,406,364,405,399,2025-05-28T17:15:11.168875
406,-0.4226,0.8228,0.4987,1.610,10.745,-4.655,408,406,379,391,407,2025-05-28T17:15:11.168875
407,-0.4275,0.8252,0.3787,1.190,9.730,-4.305,419,422,389,387,387,2025-05-28T17:15:11.168875
408,-0.4241,0.8237,0.3831,0.315,8.260,-3.990,424,415,381,379,348,2025-05-28T17:15:11.168875
409,-0.4246,0.8218,0.3738,-0.490,7.525,-3.780,381,424,349,400,336,2025-05-28T17:15:11.168875
410,-0.4085,0.8198,0.3816,-1.155,6.965,-3.780,423,431,370,394,385,2025-05-28T17:15:11.168875
411,-0.4329,0.8721,0.3392,-0.735,8.260,-5.215,403,421,379,398,400,2025-05-28T17:15:11.168875
412,-0.3928,0.8179,0.3767,-0.805,8.960,-5.880,419,433,390,351,387,2025-05-28T17:15:11.168875
413,-0.4026,0.8330,0.3636,-0.980,8.400,-6.475,401,431,346,395,392,2025-05-28T17:15:11.168875
414,-0.4041,0.8394,0.3709,-1.995,8.505,-6.650,361,412,377,402,388,2025-05-28T17:15:11.168875
415,-0.4109,0.8418,0.3680,-2.555,8.295,-6.790,431,438,389,396,354,2025-05-28T17:15:11.168875
416,-0.4168,0.8364,0.3684,-2.415,6.195,-6.580,426,422,396,367,382,2025-05-28T17:15:11.168875
417,-0.4246,0.8398,0.3767,-2.415,2.065,-5.775,430,433,394,392,354,2025-05-28T17:15:11.168875
418,-0.4275,0.8374,0.3748,-2.450,-1.435,-5.845,377,422,393,384,373,2025-05-28T17:15:11.168875
419,-0.4094,0.8599,0.3704,-2.415,-3.710,-5.950,408,416,383,342,381,2025-05-28T17:15:11.168875
420,-0.3943,0.8579,0.3753,-2.905,-4.480,-6.160,430,429,389,372,390,2025-05-28T17:15:11.285426
421,-0.3738,0.8550,0.3553,-2.240,-1.995,-5.915,407,426,396,387,393,2025-05-28T17:15:11.285426
422,-0.3694,0.8540,0.3567,-1.120,-0.315,-5.740,431,414,406,404,360,2025-05-28T17:15:11.285426
423,-0.3728,0.8608,0.3489,-0.175,1.925,-5.565,390,428,373,407,385,2025-05-28T17:15:11.285426
424,-0.3850,0.8608,0.3489,0.210,2.695,-6.055,408,404,392,375,395,2025-05-28T17:15:11.285426
425,-0.3894,0.8672,0.3548,0.560,1.820,-6.055,436,364,392,364,356,2025-05-28T17:15:11.285426
426,-0.3972,0.8642,0.3489,1.155,0.210,-6.020,427,417,379,376,393,2025-05-28T17:15:11.285426
427,-0.4065,0.8638,0.3470,1.505,-2.240,-6.265,409,431,380,383,392,2025-05-28T17:15:11.285426
428,-0.3997,0.8623,0.3445,1.925,-3.780,-6.265,436,419,390,403,343,2025-05-28T17:15:11.285426
429,-0.3924,0.8574,0.3357,2.100,-3.745,-5.880,410,427,378,392,371,2025-05-28T17:15:11.285426
430,-0.3963,0.8520,0.3357,2.835,-2.345,-5.425,418,404,371,403,394,2025-05-28T17:15:11.285426
431,-0.4050,0.8486,0.3372,4.060,-0.910,-4.795,411,417,376,414,394,2025-05-28T17:15:11.501531
432,-0.4114,0.8467,0.3328,4.760,0.210,-3.920,319,399,376,395,404,2025-05-28T17:15:11.501531
433,-0.4372,0.8491,0.3148,5.600,0.840,-3.220,426,432,394,402,418,2025-05-28T17:15:11.501531
434,-0.4299,0.8467,0.3201,6.405,2.100,-2.380,434,429,398,409,400,2025-05-28T17:15:11.501531
435,-0.4299,0.8438,0.3084,7.490,2.170,-1.715,434,410,358,413,404,2025-05-28T17:15:11.501531
436,-0.4304,0.8428,0.3021,8.085,2.345,-0.735,425,394,380,394,395,2025-05-28T17:15:11.501531
437,-0.4216,0.8374,0.2835,8.260,2.660,0.420,435,437,378,386,393,2025-05-28T17:15:11.501531
438,-0.4187,0.8379,0.2821,7.945,4.445,1.155,407,430,390,347,342,2025-05-28T17:15:11.501531
439,-0.4168,0.8335,0.2757,7.035,7.105,1.645,410,386,345,365,332,2025-05-28T17:15:11.501531
440,-0.4216,0.8330,0.2699,5.635,9.100,2.065,421,427,357,406,374,2025-05-28T17:15:11.501531
441,-0.4358,0.8272,0.2708,4.235,10.640,1.750,391,424,377,412,358,2025-05-28T17:15:11.501531
442,-0.4441,0.8257,0.2704,2.380,11.340,1.435,433,399,377,406,395,2025-05-28T17:15:11.501531
443,-0.4524,0.8203,0.2591,0.140,11.480,1.260,425,402,397,408,353,2025-05-28T17:15:11.501531
444,-0.4807,0.8062,0.2586,-2.415,11.200,-0.140,425,431,393,401,376,2025-05-28T17:15:11.501531
445,-0.4621,0.7979,0.2640,-4.830,11.305,-1.155,430,429,391,388,388,2025-05-28T17:15:11.501531
446,-0.4719,0.7910,0.2772,-7.595,10.010,-2.485,390,395,378,419,386,2025-05-28T17:15:11.501531
447,-0.4768,0.7915,0.2904,-9.380,7.105,-3.360,408,418,354,398,398,2025-05-28T17:15:11.501531
448,-0.4748,0.7881,0.3001,-10.430,3.780,-3.850,421,409,364,408,353,2025-05-28T17:15:11.685508
449,-0.4802,0.7930,0.3026,-10.255,1.505,-4.970,405,426,369,386,349,2025-05-28T17:15:11.685508
450,-0.4543,0.7954,0.3123,-9.975,0.105,-5.530,358,407,338,392,400,2025-05-28T17:15:11.685508
451,-0.4426,0.8003,0.3206,-8.750,-0.840,-5.740,429,397,349,406,405,2025-05-28T17:15:11.685508
452,-0.4275,0.8047,0.3216,-7.770,-0.070,-5.705,414,410,341,401,396,2025-05-28T17:15:11.685508
453,-0.4172,0.8120,0.3084,-5.530,2.275,-5.145,404,405,359,389,389,2025-05-28T17:15:11.685508
454,-0.4046,0.8223,0.2996,-3.360,7.140,-4.725,352,436,376,350,407,2025-05-28T17:15:11.685508
455,-0.3963,0.8291,0.2933,-1.295,13.125,-3.885,406,418,353,400,401,2025-05-28T17:15:11.685508
456,-0.4046,0.8340,0.2855,0.315,18.165,-2.590,430,425,384,417,395,2025-05-28T17:15:11.685508
457,-0.4148,0.8330,0.2757,1.890,21.210,-0.840,432,426,399,401,345,2025-05-28T17:15:11.685508
458,-0.4426,0.8413,0.2699,3.290,22.120,0.385,442,438,396,359,379,2025-05-28T17:15:11.685508
459,-0.4529,0.8462,0.2718,4.025,22.225,1.225,408,379,379,390,390,2025-05-28T17:15:11.685508
460,-0.4607,0.8433,0.2699,4.130,21.490,2.345,387,426,315,387,394,2025-05-28T17:15:11.685508
461,-0.4797,0.8281,0.2777,3.850,20.895,2.275,410,417,313,391,388,2025-05-28T17:15:11.685508
462,-0.4909,0.8091,0.2860,4.375,19.740,2.065,414,440,359,410,393,2025-05-28T17:15:11.685508
463,-0.5095,0.7901,0.3094,4.795,18.060,1.575,439,415,371,411,389,2025-05-28T17:15:11.685508
464,-0.5319,0.7793,0.3231,5.110,15.610,0.840,444,428,370,419,386,2025-05-28T17:15:11.736079
465,-0.5363,0.7686,0.3406,5.320,13.300,-0.070,420,453,376,424,411,2025-05-28T17:15:11.736079
466,-0.5466,0.7549,0.3455,5.915,10.675,-0.910,440,384,384,415,409,2025-05-28T17:15:11.736079
467,-0.5500,0.7535,0.3504,6.790,7.560,-1.715,374,430,351,396,371,2025-05-28T17:15:11.736079
468,-0.5529,0.7569,0.3626,7.910,4.935,-3.185,434,443,374,407,375,2025-05-28T17:15:11.785538
469,-0.5373,0.7647,0.3636,8.820,2.275,-4.340,431,444,389,398,408,2025-05-28T17:15:11.785538
470,-0.5183,0.7676,0.3601,9.695,0.770,-5.880,422,424,383,404,392,2025-05-28T17:15:11.785538
471,-0.5056,0.7837,0.3538,9.905,3.570,-7.630,384,404,383,410,413,2025-05-28T17:15:11.785538
472,-0.5144,0.8233,0.3372,9.765,14.420,-10.920,414,444,350,421,398,2025-05-28T17:15:11.885555
473,-0.4558,0.8916,0.4553,10.605,17.220,-4.165,413,446,377,415,392,2025-05-28T17:15:11.885555
474,-0.6105,0.8140,0.3689,8.400,16.835,-6.440,413,416,374,406,400,2025-05-28T17:15:11.885555
475,-0.5910,0.8237,0.3470,12.845,17.045,-8.120,433,424,350,414,355,2025-05-28T17:15:11.885555
476,-0.5217,0.8808,0.3543,12.285,11.305,-4.060,420,362,371,395,375,2025-05-28T17:15:11.885555
477,-0.5026,0.9448,0.4031,10.325,5.040,3.080,441,421,372,351,390,2025-05-28T17:15:11.885555
478,-0.5431,0.8935,0.3601,5.950,-6.160,4.200,417,434,371,383,411,2025-05-28T17:15:11.885555
479,-0.5324,0.8877,0.3558,4.900,-12.880,2.205,419,444,341,407,418,2025-05-28T17:15:11.885555
480,-0.5187,0.8857,0.3919,3.360,-22.295,2.345,421,441,369,410,417,2025-05-28T17:15:12.018874
481,-0.4875,0.8696,0.3855,3.290,-33.250,4.235,442,422,370,392,402,2025-05-28T17:15:12.018874
482,-0.4490,0.8745,0.3709,3.360,-42.525,5.390,451,430,369,402,362,2025-05-28T17:15:12.018874
483,-0.3733,0.8852,0.3567,2.590,-40.985,5.845,442,366,350,389,381,2025-05-28T17:15:12.018874
484,-0.3274,0.8926,0.3284,3.360,-29.365,6.790,429,434,343,405,403,2025-05-28T17:15:12.018874
485,-0.3211,0.9282,0.3523,3.185,-20.020,7.630,421,417,374,413,390,2025-05-28T17:15:12.018874
486,-0.3240,0.8682,0.2718,3.150,-9.275,8.190,388,391,378,414,387,2025-05-28T17:15:12.018874
487,-0.3401,0.8535,0.2416,4.025,-3.290,8.365,417,411,374,414,396,2025-05-28T17:15:12.018874
488,-0.3577,0.8496,0.2255,4.340,0.245,7.770,399,435,373,402,311,2025-05-28T17:15:12.018874
489,-0.3680,0.8472,0.2152,4.340,1.155,7.560,424,426,388,414,371,2025-05-28T17:15:12.201332
490,-0.3553,0.8774,0.1996,1.435,2.415,7.385,438,423,380,419,389,2025-05-28T17:15:12.201332
491,-0.4338,0.9194,0.2918,5.250,6.440,8.575,405,417,391,421,346,2025-05-28T17:15:12.201332
492,-0.4377,0.8657,0.3192,4.690,1.785,11.375,436,445,396,378,333,2025-05-28T17:15:12.201332
493,-0.4758,0.8394,0.2894,8.295,-11.165,12.425,428,372,365,394,373,2025-05-28T17:15:12.201332
494,-0.4480,0.8564,0.3221,11.095,-21.175,10.150,401,429,390,404,381,2025-05-28T17:15:12.201332
495,-0.3997,0.8594,0.3289,12.670,-23.800,8.890,431,428,384,403,401,2025-05-28T17:15:12.201332
496,-0.3489,0.8413,0.2952,12.985,-24.150,7.945,411,434,393,408,395,2025-05-28T17:15:12.201332
497,-0.3162,0.8403,0.2650,12.600,-21.245,5.775,418,411,384,416,407,2025-05-28T17:15:12.201332
498,-0.2840,0.8418,0.2323,11.620,-12.040,2.940,422,412,385,419,411,2025-05-28T17:15:12.201332
499,-0.2835,0.8433,0.2396,8.890,-2.065,1.260,408,413,345,389,405,2025-05-28T17:15:12.201332
500,-0.3240,0.8394,0.2479,6.405,3.010,0.420,417,411,367,343,402,2025-05-28T17:15:12.201332
501,-0.3650,0.8091,0.2216,4.935,4.900,-2.275,357,396,379,400,410,2025-05-28T17:15:12.237045
502,-0.3987,0.8203,0.2128,5.845,4.970,-4.130,391,404,351,397,396,2025-05-28T17:15:12.237045
503,-0.3762,0.8281,0.2303,7.805,5.845,-7.350,404,410,328,407,351,2025-05-28T17:15:12.237045
504,-0.4104,0.8306,0.2235,7.070,9.800,-8.155,433,406,357,388,341,2025-05-28T17:15:12.238063
505,-0.4304,0.8267,0.2040,6.160,11.655,-8.540,420,360,382,402,391,2025-05-28T17:15:12.238063
506,-0.4504,0.8306,0.2176,6.160,12.285,-0.105,421,404,380,417,400,2025-05-28T17:15:12.238063
507,-0.4582,0.8252,0.2098,5.705,11.655,-8.330,372,439,377,422,395,2025-05-28T17:15:12.285490
508,-0.4587,0.8286,0.2001,5.285,9.905,-6.650,407,422,391,419,380,2025-05-28T17:15:12.285490
509,-0.4421,0.8355,0.1967,5.320,9.030,-5.390,397,401,382,415,386,2025-05-28T17:15:12.285490
510,-0.4333,0.8433,0.1850,5.005,9.240,-4.060,397,422,362,418,405,2025-05-28T17:15:12.285490
511,-0.4236,0.8569,0.1771,4.410,10.745,-3.115,431,398,383,394,409,2025-05-28T17:15:12.285490
512,-0.4128,0.8652,0.1625,3.570,12.565,-2.730,429,406,379,404,403,2025-05-28T17:15:12.285490
513,-0.4158,0.8706,0.1498,2.590,15.540,-2.870,422,409,372,414,410,2025-05-28T17:15:12.285490
514,-0.4260,0.8789,0.1479,1.680,18.025,-3.535,441,435,369,399,412,2025-05-28T17:15:12.501577
515,-0.4333,0.8862,0.1396,0.175,19.460,-4.340,436,366,382,420,381,2025-05-28T17:15:12.501577
516,-0.4597,0.8950,0.1303,-1.050,21.350,-5.040,364,423,390,422,349,2025-05-28T17:15:12.501577
517,-0.4821,0.8999,0.1327,-2.520,21.840,-5.705,408,382,381,419,371,2025-05-28T17:15:12.501577
518,-0.4875,0.9096,0.1430,-3.780,20.615,-6.195,430,362,387,409,376,2025-05-28T17:15:12.501577
519,-0.5046,0.9126,0.1635,-5.565,18.445,-6.265,384,390,318,353,404,2025-05-28T17:15:12.501577
520,-0.5139,0.9184,0.1737,-7.070,16.625,-6.370,427,410,324,405,393,2025-05-28T17:15:12.501577
521,-0.5109,0.9170,0.1889,-7.980,15.995,-6.230,445,448,365,420,395,2025-05-28T17:15:12.501577
522,-0.4982,0.9101,0.2528,-8.400,11.550,-5.040,454,429,379,404,409,2025-05-28T17:15:12.501577
523,-0.5719,0.8652,0.2757,-8.400,6.930,-1.015,429,448,393,408,404,2025-05-28T17:15:12.501577
524,-0.4470,0.8833,0.2381,-7.910,4.130,-3.325,404,395,383,408,313,2025-05-28T17:15:12.501577
525,-0.4348,0.8682,0.2908,-7.140,11.340,-0.070,424,438,358,411,368,2025-05-28T17:15:12.501577
526,-0.4285,0.8789,0.3089,-6.160,21.175,4.025,402,440,338,356,354,2025-05-28T17:15:12.501577
527,-0.4826,0.8452,0.2440,-5.600,24.255,5.075,404,409,356,400,377,2025-05-28T17:15:12.501577
528,-0.4870,0.8584,0.1923,-5.005,25.235,5.495,424,376,373,394,394,2025-05-28T17:15:12.501577
529,-0.4948,0.9082,0.2054,-5.425,24.640,6.125,448,409,381,399,394,2025-05-28T17:15:12.501577
530,-0.5192,0.8891,0.1503,-7.875,25.375,8.085,424,406,380,390,362,2025-05-28T17:15:12.501577
531,-0.5339,0.8560,0.1376,-9.940,18.725,7.980,408,382,389,396,382,2025-05-28T17:15:12.501577
532,-0.5534,0.8550,0.1693,-11.095,13.090,8.330,437,435,386,422,385,2025-05-28T17:15:12.602014
533,-0.5636,0.8306,0.1576,-11.060,2.485,7.420,413,426,351,416,407,2025-05-28T17:15:12.602014
534,-0.5470,0.8301,0.1464,-9.065,-7.595,6.720,411,432,373,396,396,2025-05-28T17:15:12.602014
535,-0.5051,0.8403,0.1523,-8.400,-12.320,5.915,411,411,380,355,390,2025-05-28T17:15:12.602014
536,-0.4841,0.8418,0.1586,-9.555,-11.410,4.970,426,417,339,377,399,2025-05-28T17:15:12.602014
537,-0.4699,0.8374,0.1747,-10.640,-9.065,3.815,425,403,370,398,362,2025-05-28T17:15:12.602014
538,-0.4704,0.8296,0.1932,-11.235,-6.895,2.730,424,389,385,418,386,2025-05-28T17:15:12.602014
539,-0.4778,0.8233,0.2279,-10.710,-3.780,2.380,429,419,377,394,408,2025-05-28T17:15:12.602014
540,-0.4826,0.8237,0.2606,-8.995,-2.520,2.555,359,419,374,411,405,2025-05-28T17:15:12.700760
541,-0.4895,0.8320,0.2874,-6.125,-3.325,2.520,409,415,373,393,410,2025-05-28T17:15:12.700760
542,-0.4734,0.8267,0.2928,-4.410,-3.535,2.800,424,437,372,394,361,2025-05-28T17:15:12.700760
543,-0.4646,0.8511,0.3040,-1.085,-3.045,2.345,406,405,337,377,389,2025-05-28T17:15:12.700760
544,-0.4568,0.8579,0.3045,1.225,-2.450,1.890,426,398,334,413,405,2025-05-28T17:15:12.700760
545,-0.4353,0.8764,0.2816,2.520,-1.085,1.400,425,396,371,351,386,2025-05-28T17:15:12.700760
546,-0.4094,0.8560,0.2445,2.590,3.850,0.910,412,374,388,294,404,2025-05-28T17:15:12.700760
547,-0.4436,0.8930,0.2645,2.660,7.245,0.525,405,408,315,367,418,2025-05-28T17:15:12.700760
548,-0.4592,0.8799,0.2845,0.630,7.945,1.120,419,421,355,398,365,2025-05-28T17:15:12.902189
549,-0.4778,0.8652,0.2801,-0.980,5.040,2.135,405,403,377,391,394,2025-05-28T17:15:12.902189
550,-0.4904,0.8560,0.3060,-1.750,0.770,2.275,417,411,391,386,393,2025-05-28T17:15:12.902189
551,-0.5075,0.8535,0.3289,-1.785,-4.375,2.730,420,387,378,403,382,2025-05-28T17:15:12.902189
552,-0.5217,0.8491,0.3494,-2.205,-13.125,3.500,401,414,390,413,398,2025-05-28T17:15:12.902189
553,-0.5339,0.8423,0.3558,-1.890,-22.050,3.885,435,348,360,416,364,2025-05-28T17:15:12.902189
554,-0.5290,0.8428,0.3601,-0.525,-28.140,3.885,423,422,371,399,370,2025-05-28T17:15:12.902189
555,-0.5153,0.8462,0.3636,0.595,-34.020,4.130,433,429,372,410,386,2025-05-28T17:15:12.902189
556,-0.5051,0.8472,0.3621,1.295,-38.325,4.830,428,363,340,414,389,2025-05-28T17:15:12.902189
557,-0.4968,0.8545,0.3567,1.995,-40.775,5.810,401,394,374,406,395,2025-05-28T17:15:13.051267
558,-0.4880,0.8662,0.3455,3.395,-41.055,7.210,406,365,377,393,388,2025-05-28T17:15:13.051267
559,-0.4719,0.8857,0.3362,4.620,-38.430,9.730,371,419,370,390,408,2025-05-28T17:15:13.051267
560,-0.4665,0.9033,0.3099,6.545,-34.370,12.180,367,407,386,354,412,2025-05-28T17:15:13.051267
561,-0.4802,0.9179,0.2899,9.345,-27.370,14.070,427,407,384,381,411,2025-05-28T17:15:13.051267
562,-0.5129,0.9043,0.2874,11.620,-22.330,16.450,426,436,392,405,400,2025-05-28T17:15:13.051267
563,-0.5475,0.8974,0.2684,12.950,-21.665,19.145,434,406,386,393,400,2025-05-28T17:15:13.051267
564,-0.5861,0.8882,0.2650,14.840,-24.290,21.630,411,411,385,348,390,2025-05-28T17:15:13.051267
565,-0.5910,0.8662,0.2381,14.770,-32.235,25.865,429,420,392,400,371,2025-05-28T17:15:13.051267
566,-0.5783,0.8452,0.2123,14.490,-39.935,29.470,419,410,402,405,403,2025-05-28T17:15:13.051267
567,-0.5661,0.8179,0.1703,14.385,-49.385,30.590,436,429,355,384,350,2025-05-28T17:15:13.051267
568,-0.5119,0.8267,0.1698,14.245,-55.370,31.570,407,406,379,403,385,2025-05-28T17:15:13.051267
569,-0.4524,0.8154,0.1440,10.675,-57.295,31.815,436,424,377,410,352,2025-05-28T17:15:13.051267
570,-0.3958,0.7613,0.0917,8.400,-57.995,30.415,437,416,384,418,379,2025-05-28T17:15:13.051267
571,-0.3362,0.7764,0.1122,8.820,-55.195,28.140,425,424,360,315,396,2025-05-28T17:15:13.051267
572,-0.3006,0.7784,0.1098,5.495,-50.540,22.295,437,435,368,394,366,2025-05-28T17:15:13.051267
573,-0.2874,0.7554,0.1113,1.050,-46.760,16.520,426,431,374,384,374,2025-05-28T17:15:13.051267
574,-0.2460,0.7408,0.1083,-3.815,-50.750,7.875,419,431,374,404,400,2025-05-28T17:15:13.051267
575,-0.1625,0.7505,0.1552,-8.750,-59.045,-5.075,440,321,380,418,359,2025-05-28T17:15:13.051267
576,0.0181,0.8198,0.1488,-16.310,-68.740,-21.945,420,420,391,415,375,2025-05-28T17:15:13.051267
577,0.2450,0.9545,0.1313,-27.790,-74.480,-47.565,433,407,393,390,391,2025-05-28T17:15:13.502062
578,0.5675,1.1727,0.0176,-37.800,-82.530,-77.700,421,424,351,400,398,2025-05-28T17:15:13.502062
579,0.9858,1.5782,-0.0947,-51.310,-93.380,-110.005,432,427,331,396,377,2025-05-28T17:15:13.502062
580,1.2434,2.1916,-0.2342,-73.640,-105.805,-128.870,411,431,358,398,400,2025-05-28T17:15:13.502062
581,1.5621,2.7987,-0.5075,-104.895,-127.155,-141.435,434,431,367,403,389,2025-05-28T17:15:13.502062
582,1.4669,3.4638,-0.6627,-141.190,-149.030,-149.310,427,433,378,408,397,2025-05-28T17:15:13.502062
583,1.2864,3.8986,-0.8535,-177.520,-181.895,-155.505,427,435,374,313,338,2025-05-28T17:15:13.502062
584,1.0165,3.9909,-0.8672,-210.245,-220.115,-164.150,429,423,386,383,367,2025-05-28T17:15:13.502062
585,0.6427,3.7225,-0.8545,-251.720,-254.100,-169.855,422,414,351,337,383,2025-05-28T17:15:13.502062
586,0.2333,2.8197,-1.0028,-259.665,-305.585,-154.700,388,366,375,371,402,2025-05-28T17:15:13.502062
587,-0.4529,1.9452,-0.4060,-261.520,-371.805,-179.550,399,402,387,380,391,2025-05-28T17:15:13.502062
588,-0.3909,1.0482,-0.0776,-294.665,-428.120,-195.300,323,402,351,401,347,2025-05-28T17:15:13.502062
589,-0.1396,0.1308,0.1903,-340.865,-396.340,-229.600,379,404,348,408,391,2025-05-28T17:15:13.502062
590,0.3997,-0.9970,0.4446,-398.720,-282.380,-274.120,397,406,365,398,387,2025-05-28T17:15:13.502062
591,0.6847,-2.8558,0.4714,-405.265,-136.640,-300.370,389,339,370,422,409,2025-05-28T17:15:13.502062
592,0.1342,-5.0542,0.9555,-396.375,-59.640,-313.810,390,375,362,373,411,2025-05-28T17:15:13.502062
593,-0.6964,-6.1102,1.4967,-355.740,-24.325,-304.955,390,392,384,406,401,2025-05-28T17:15:13.502062
594,-1.2215,-5.4056,1.3322,-234.220,-59.430,-228.585,405,432,355,400,414,2025-05-28T17:15:13.502062
595,-1.3454,-4.3852,1.0594,-89.250,-100.765,-75.915,421,356,367,389,409,2025-05-28T17:15:13.502062
596,-0.7008,-3.4882,1.2976,7.000,-110.145,47.460,425,419,383,403,401,2025-05-28T17:15:13.502062
597,0.0449,-3.1256,1.0570,78.715,-53.025,168.875,431,440,376,344,406,2025-05-28T17:15:13.634736
598,0.0639,-2.9563,0.9028,156.065,34.545,221.865,364,407,387,399,410,2025-05-28T17:15:13.634736
599,0.2035,-2.5810,1.0624,205.730,117.250,240.730,373,420,358,353,392,2025-05-28T17:15:13.634736
600,0.2782,-2.4019,1.0902,218.085,182.525,269.185,392,435,369,392,370,2025-05-28T17:15:13.634736
601,0.0625,-2.0184,0.9955,214.655,244.965,291.445,441,402,386,410,393,2025-05-28T17:15:13.634736
602,-0.1962,-1.5235,0.9579,207.445,289.100,304.535,438,442,354,396,353,2025-05-28T17:15:13.634736
603,-0.1879,-0.8130,0.8413,203.490,320.600,305.795,438,425,375,402,341,2025-05-28T17:15:13.634736
604,-0.2069,-0.1781,0.6505,201.110,358.750,294.735,445,444,378,421,387,2025-05-28T17:15:13.634736
605,-0.2201,0.4241,0.5895,197.820,382.480,271.005,456,392,385,398,398,2025-05-28T17:15:13.634736
606,-0.4050,0.6193,0.5910,199.150,347.830,248.465,450,388,386,411,392,2025-05-28T17:15:13.634736
607,-0.4221,1.0067,0.6568,203.350,265.335,220.010,463,367,383,419,396,2025-05-28T17:15:13.634736
608,-0.3967,1.2322,0.5846,204.295,162.680,184.870,481,448,394,369,390,2025-05-28T17:15:13.634736
609,-0.1425,1.5162,0.4514,202.370,79.380,149.555,419,425,383,406,408,2025-05-28T17:15:13.634736
610,0.4006,1.7451,0.2464,196.910,47.775,118.860,457,429,384,393,416,2025-05-28T17:15:13.634736
611,0.7476,1.8329,0.0020,195.685,30.660,104.335,466,460,400,394,412,2025-05-28T17:15:13.634736
612,0.9540,2.0408,-0.0205,166.670,65.275,92.785,417,444,323,392,415,2025-05-28T17:15:13.634736
613,0.9326,2.1165,0.1166,133.000,103.250,82.565,400,401,317,404,374,2025-05-28T17:15:13.634736
614,0.7056,2.0974,0.0761,101.570,110.530,67.305,421,433,346,413,389,2025-05-28T17:15:13.634736
615,0.4875,1.9359,0.1215,82.180,78.050,55.755,484,461,371,415,387,2025-05-28T17:15:13.634736
616,0.2699,1.7627,0.1596,63.350,43.785,43.085,492,456,379,418,389,2025-05-28T17:15:13.634736
617,0.1166,1.5967,0.1781,50.575,-1.050,31.010,494,461,378,415,398,2025-05-28T17:15:13.634736
618,0.0161,1.4713,0.1606,42.490,-42.315,16.625,478,453,370,358,410,2025-05-28T17:15:13.817994
619,0.0249,1.3327,0.1444,33.880,-66.290,5.740,515,460,348,362,414,2025-05-28T17:15:13.817994
620,0.0346,1.2385,0.1283,24.640,-63.840,-1.680,475,456,372,379,399,2025-05-28T17:15:13.817994
621,-0.0210,1.1219,0.1386,17.500,-43.505,-5.915,480,404,344,385,413,2025-05-28T17:15:13.817994
622,-0.1625,0.9897,0.1645,13.055,-18.830,-7.665,489,444,364,374,358,2025-05-28T17:15:13.817994
623,-0.2913,0.9082,0.1835,9.065,-5.005,-4.550,476,440,389,382,339,2025-05-28T17:15:13.817994
624,-0.3919,0.8389,0.1986,7.735,5.635,-0.280,454,455,383,386,371,2025-05-28T17:15:13.817994
625,-0.5031,0.8125,0.2391,9.030,8.645,3.185,469,461,387,408,389,2025-05-28T17:15:13.817994
626,-0.5417,0.7974,0.2577,10.150,3.010,7.980,457,461,398,406,386,2025-05-28T17:15:13.817994
627,-0.5085,0.8032,0.2538,10.710,-6.370,12.530,427,449,396,397,380,2025-05-28T17:15:13.817994
628,-0.4265,0.8267,0.2562,11.410,-10.990,15.995,428,407,391,381,383,2025-05-28T17:15:13.817994
629,-0.3396,0.8452,0.2430,12.075,-7.210,18.305,456,423,380,394,386,2025-05-28T17:15:13.817994
630,-0.2879,0.8716,0.2489,11.445,2.275,18.550,444,424,355,396,308,2025-05-28T17:15:13.817994
631,-0.2196,0.8877,0.2484,9.590,16.555,18.410,425,440,379,399,359,2025-05-28T17:15:13.817994
632,-0.2250,0.8852,0.2469,7.280,29.960,18.130,446,407,389,404,380,2025-05-28T17:15:13.817994
633,-0.2582,0.8867,0.2679,4.900,38.360,15.960,435,420,392,408,388,2025-05-28T17:15:13.817994
634,-0.3138,0.8896,0.2948,2.555,36.855,14.700,387,430,383,412,400,2025-05-28T17:15:13.968176
635,-0.3616,0.8779,0.2982,0.875,27.755,12.530,416,440,391,392,399,2025-05-28T17:15:13.968176
636,-0.3704,0.8760,0.2962,-0.105,18.445,8.785,419,450,362,419,399,2025-05-28T17:15:13.968176
637,-0.3475,0.8779,0.2757,-0.910,8.015,6.265,425,449,379,410,392,2025-05-28T17:15:13.968176
638,-0.3045,0.8711,0.2611,-2.870,2.310,2.065,406,422,389,408,409,2025-05-28T17:15:13.968176
639,-0.2684,0.8672,0.2435,-5.355,2.520,-2.030,436,391,389,418,413,2025-05-28T17:15:13.968176
640,-0.2811,0.8413,0.2289,-7.805,7.665,-7.490,443,419,390,413,396,2025-05-28T17:15:13.968176
641,-0.3172,0.8359,0.2694,-10.220,10.500,-12.285,420,398,390,413,388,2025-05-28T17:15:13.968176
642,-0.3343,0.8364,0.2982,-12.285,7.665,-13.195,436,391,378,408,399,2025-05-28T17:15:13.968176
643,-0.3436,0.8467,0.3035,-14.525,3.395,-12.180,434,415,367,394,402,2025-05-28T17:15:13.968176
644,-0.3499,0.8579,0.2913,-15.470,5.145,-12.495,416,422,384,408,390,2025-05-28T17:15:13.968176
645,-0.3670,0.8667,0.3006,-14.595,11.830,-14.665,398,430,388,410,388,2025-05-28T17:15:13.968176
646,-0.3782,0.8794,0.3289,-12.600,15.505,-14.910,429,421,387,409,403,2025-05-28T17:15:13.968176
647,-0.4006,0.8823,0.3484,-10.780,16.065,-12.705,403,414,387,396,412,2025-05-28T17:15:13.968176
648,-0.4207,0.8833,0.3719,-9.625,15.330,-11.025,312,380,360,347,385,2025-05-28T17:15:13.968176
649,-0.4241,0.8764,0.3762,-6.755,15.225,-8.715,397,390,378,391,401,2025-05-28T17:15:13.968176
650,-0.4226,0.8750,0.3777,-4.025,15.225,-6.230,423,408,395,400,316,2025-05-28T17:15:13.968176
651,-0.4446,0.8696,0.3928,-2.730,14.490,-4.375,413,352,357,396,330,2025-05-28T17:15:14.252204
652,-0.4270,0.8730,0.3850,-1.715,13.195,-2.310,410,420,373,403,379,2025-05-28T17:15:14.252204
653,-0.4329,0.8613,0.3616,-1.085,12.565,-1.260,407,423,373,410,386,2025-05-28T17:15:14.252204
654,-0.4192,0.8599,0.3455,-0.455,12.250,-0.630,429,433,374,428,402,2025-05-28T17:15:14.252204
655,-0.4099,0.8594,0.3353,0.805,11.375,0.420,409,412,351,400,372,2025-05-28T17:15:14.252204
656,-0.4050,0.8642,0.3231,0.735,10.360,1.925,420,426,379,403,337,2025-05-28T17:15:14.252204
657,-0.4075,0.8769,0.3143,-0.070,9.345,1.015,402,398,375,383,383,2025-05-28T17:15:14.252204
658,-0.4089,0.8813,0.3109,-1.435,7.875,-0.665,435,423,377,394,369,2025-05-28T17:15:14.252204
659,-0.4294,0.8794,0.3362,-2.450,5.530,-2.310,352,421,372,413,384,2025-05-28T17:15:14.252204
660,-0.3792,0.8808,0.3113,-5.040,3.675,-0.700,432,413,367,414,343,2025-05-28T17:15:14.252204
661,-0.3963,0.8589,0.2923,-6.265,5.285,-1.435,415,410,337,410,373,2025-05-28T17:15:14.252204
662,-0.4055,0.8501,0.3113,-7.210,7.140,-4.690,358,384,367,403,378,2025-05-28T17:15:14.252204
663,-0.4333,0.8272,0.3143,-7.420,6.405,-7.455,443,430,379,411,382,2025-05-28T17:15:14.252204
664,-0.4368,0.8003,0.3099,-5.635,2.170,-7.350,384,372,376,415,380,2025-05-28T17:15:14.252204
665,-0.4250,0.8032,0.3089,-4.445,0.420,-5.915,402,421,365,396,402,2025-05-28T17:15:14.252204
666,-0.4148,0.8154,0.3055,-3.885,3.150,-7.350,431,420,340,311,382,2025-05-28T17:15:14.252204
667,-0.3943,0.8233,0.3079,-4.445,8.575,-9.065,423,434,326,365,399,2025-05-28T17:15:14.252204
668,-0.4094,0.8330,0.3138,-4.375,11.795,-10.745,410,384,358,395,384,2025-05-28T17:15:14.417799
669,-0.4250,0.8408,0.3104,-4.655,12.775,-11.445,429,420,349,385,381,2025-05-28T17:15:14.417799
670,-0.4407,0.8398,0.3001,-5.180,12.355,-11.270,412,422,329,388,400,2025-05-28T17:15:14.417799
671,-0.4529,0.8359,0.2972,-5.355,10.780,-11.760,362,429,346,392,368,2025-05-28T17:15:14.417799
672,-0.4573,0.8272,0.3001,-5.250,10.325,-11.550,382,424,362,407,400,2025-05-28T17:15:14.417799
673,-0.4446,0.8194,0.2967,-5.775,10.150,-9.765,375,420,372,407,397,2025-05-28T17:15:14.417799
674,-0.4719,0.8135,0.3245,-5.075,10.465,-8.120,429,423,382,414,404,2025-05-28T17:15:14.417799
675,-0.4792,0.8203,0.3309,-5.460,11.060,-7.070,445,431,388,413,392,2025-05-28T17:15:14.417799
676,-0.4978,0.8096,0.3231,-5.775,11.410,-5.110,442,431,387,407,399,2025-05-28T17:15:14.417799
677,-0.5134,0.7964,0.3045,-6.125,11.200,-2.520,409,417,396,402,385,2025-05-28T17:15:14.417799
678,-0.5300,0.7910,0.2967,-5.565,11.025,-0.805,428,366,403,407,396,2025-05-28T17:15:14.417799
679,-0.5534,0.7945,0.2977,-5.355,11.025,0.630,405,407,394,413,405,2025-05-28T17:15:14.417799
680,-0.5812,0.7774,0.2874,-4.130,9.135,1.960,433,423,395,414,416,2025-05-28T17:15:14.417799
681,-0.6090,0.7774,0.2938,-2.275,4.900,2.730,377,418,357,397,402,2025-05-28T17:15:14.417799
682,-0.6232,0.7813,0.3040,-0.630,0.420,2.695,425,407,382,417,395,2025-05-28T17:15:14.417799
683,-0.6071,0.7852,0.3040,0.560,-5.705,2.695,431,408,385,410,398,2025-05-28T17:15:14.417799
684,-0.5871,0.7813,0.2982,1.645,-9.975,2.170,442,425,385,411,388,2025-05-28T17:15:14.417799
685,-0.5661,0.7871,0.2948,2.695,-10.010,0.245,425,434,388,365,395,2025-05-28T17:15:14.552199
686,-0.5417,0.7862,0.2972,4.165,-8.120,-1.505,396,385,384,382,362,2025-05-28T17:15:14.552199
687,-0.5353,0.7930,0.3060,5.285,-6.930,-2.380,360,307,348,350,376,2025-05-28T17:15:14.552199
688,-0.5451,0.7915,0.3089,5.705,-5.460,-3.570,410,393,371,371,390,2025-05-28T17:15:14.552199
689,-0.5431,0.7910,0.3079,5.880,-5.390,-4.480,421,400,380,350,345,2025-05-28T17:15:14.552199
690,-0.5549,0.7950,0.3152,6.195,-6.825,-5.320,419,404,381,371,365,2025-05-28T17:15:14.552199
691,-0.5592,0.7896,0.3157,6.510,-9.520,-6.755,418,435,386,400,384,2025-05-28T17:15:14.552199
692,-0.5588,0.7891,0.3221,7.175,-14.245,-7.700,380,428,390,397,400,2025-05-28T17:15:14.552199
693,-0.5539,0.7964,0.3294,8.295,-19.495,-8.610,429,399,382,413,393,2025-05-28T17:15:14.552199
694,-0.5348,0.7979,0.3289,8.995,-23.310,-9.695,433,417,375,390,395,2025-05-28T17:15:14.552199
695,-0.5139,0.8003,0.3192,9.905,-25.305,-10.955,433,353,377,378,308,2025-05-28T17:15:14.552199
696,-0.4831,0.8062,0.3206,10.920,-25.130,-11.725,378,417,381,391,355,2025-05-28T17:15:14.552199
697,-0.4704,0.8076,0.3314,11.060,-22.330,-11.865,400,429,380,398,396,2025-05-28T17:15:14.552199
698,-0.4568,0.7969,0.3216,10.675,-18.795,-12.285,374,413,381,408,414,2025-05-28T17:15:14.552199
699,-0.4636,0.7852,0.3299,11.025,-15.890,-13.055,401,414,390,396,408,2025-05-28T17:15:14.552199
700,-0.4656,0.7759,0.3309,11.585,-14.140,-13.335,413,426,358,414,406,2025-05-28T17:15:14.552199
701,-0.4738,0.7637,0.3216,11.970,-14.455,-13.300,355,417,369,393,404,2025-05-28T17:15:14.552199
702,-0.4704,0.7564,0.3148,13.510,-15.855,-13.195,419,423,371,393,420,2025-05-28T17:15:14.868770
703,-0.4587,0.7603,0.3138,15.190,-16.030,-13.335,427,427,379,402,422,2025-05-28T17:15:14.868770
704,-0.4441,0.7671,0.3030,16.170,-14.945,-13.545,436,414,310,356,414,2025-05-28T17:15:14.868770
705,-0.4392,0.7745,0.2987,16.800,-13.405,-13.895,434,432,323,385,355,2025-05-28T17:15:14.868770
706,-0.4309,0.7837,0.2884,17.430,-10.815,-14.000,434,435,358,393,381,2025-05-28T17:15:14.868770
707,-0.4294,0.7852,0.2796,17.780,-7.525,-13.825,426,411,381,406,404,2025-05-28T17:15:14.868770
708,-0.4372,0.7886,0.2762,17.850,-4.795,-13.230,446,418,380,423,403,2025-05-28T17:15:14.868770
709,-0.4441,0.7940,0.2791,17.465,-3.675,-12.635,403,421,371,412,392,2025-05-28T17:15:14.868770
710,-0.4534,0.8013,0.2733,17.220,-3.080,-12.285,417,435,369,413,408,2025-05-28T17:15:14.868770
711,-0.4538,0.8018,0.2723,17.010,-3.045,-12.075,360,312,345,403,408,2025-05-28T17:15:14.868770
712,-0.4514,0.8106,0.2713,16.625,-2.870,-11.410,383,400,297,407,399,2025-05-28T17:15:14.868770
713,-0.4426,0.8159,0.2762,15.505,-2.170,-10.780,419,434,314,403,387,2025-05-28T17:15:14.868770
714,-0.4480,0.8184,0.2747,14.000,-0.875,-10.465,404,405,334,405,393,2025-05-28T17:15:14.868770
715,-0.4534,0.8223,0.2669,11.865,0.770,-10.430,357,425,319,388,401,2025-05-28T17:15:14.868770
716,-0.4534,0.8345,0.2616,9.520,2.240,-10.010,412,402,363,408,365,2025-05-28T17:15:14.868770
717,-0.4587,0.8433,0.2586,6.510,4.270,-9.590,358,408,368,414,384,2025-05-28T17:15:14.868770
718,-0.4660,0.8472,0.2538,3.290,6.755,-9.380,409,409,373,423,384,2025-05-28T17:15:14.868770
719,-0.4680,0.8608,0.2499,0.805,9.205,-9.275,416,414,344,368,393,2025-05-28T17:15:14.868770
720,-0.4807,0.8745,0.2464,-2.170,11.130,-9.975,408,418,377,398,416,2025-05-28T17:15:15.068659
721,-0.4870,0.8891,0.2552,-5.355,13.125,-10.570,373,424,390,402,402,2025-05-28T17:15:15.068659
722,-0.4997,0.8960,0.2523,-8.610,13.825,-10.955,411,416,348,366,398,2025-05-28T17:15:15.068659
723,-0.5222,0.8979,0.2582,-11.515,13.090,-11.760,435,430,341,377,389,2025-05-28T17:15:15.068659
724,-0.5261,0.8999,0.2601,-14.140,11.585,-11.585,402,421,367,379,396,2025-05-28T17:15:15.068659
725,-0.5261,0.9018,0.2640,-16.170,10.465,-10.535,444,440,373,385,391,2025-05-28T17:15:15.068659
726,-0.5187,0.9052,0.2621,-18.550,11.480,-9.205,430,415,385,387,395,2025-05-28T17:15:15.068659
727,-0.5114,0.9028,0.2562,-20.475,13.510,-7.350,412,390,379,403,389,2025-05-28T17:15:15.068659
728,-0.5100,0.8955,0.2582,-21.630,16.695,-6.020,412,437,391,417,406,2025-05-28T17:15:15.068659
729,-0.5251,0.8789,0.2606,-22.575,19.320,-4.585,431,411,377,409,413,2025-05-28T17:15:15.068659
730,-0.5329,0.8613,0.2586,-22.680,20.055,-3.255,423,404,351,411,407,2025-05-28T17:15:15.068659
731,-0.5329,0.8423,0.2503,-22.470,19.460,-1.925,408,436,374,411,351,2025-05-28T17:15:15.068659
732,-0.5348,0.8325,0.2416,-21.735,19.075,-1.435,421,418,383,410,391,2025-05-28T17:15:15.068659
733,-0.5295,0.8208,0.2347,-20.965,19.145,-1.785,419,411,383,423,385,2025-05-28T17:15:15.068659
734,-0.5339,0.8086,0.2176,-20.055,19.250,-2.205,414,404,376,422,385,2025-05-28T17:15:15.068659
735,-0.5529,0.7915,0.2137,-18.865,18.865,-2.765,436,444,343,394,404,2025-05-28T17:15:15.068659
736,-0.5568,0.7847,0.2157,-18.235,17.570,-2.905,439,410,369,389,398,2025-05-28T17:15:15.268736
737,-0.5724,0.7715,0.2108,-18.235,16.100,-3.010,400,418,378,393,388,2025-05-28T17:15:15.268736
738,-0.5714,0.7632,0.2045,-17.955,14.735,-2.800,429,409,387,343,401,2025-05-28T17:15:15.268736
739,-0.5749,0.7564,0.2108,-17.990,13.650,-2.065,414,422,387,382,399,2025-05-28T17:15:15.268736
740,-0.5714,0.7520,0.2172,-18.585,12.495,-1.015,439,439,385,381,354,2025-05-28T17:15:15.268736
741,-0.5797,0.7510,0.2196,-18.900,10.815,0.245,399,430,389,405,382,2025-05-28T17:15:15.268736
742,-0.5832,0.7486,0.2255,-18.935,9.275,1.155,451,434,383,392,396,2025-05-28T17:15:15.268736
743,-0.5978,0.7418,0.2279,-18.760,7.210,2.310,452,413,374,401,387,2025-05-28T17:15:15.268736
744,-0.6056,0.7286,0.2308,-17.535,4.690,3.955,419,421,371,400,407,2025-05-28T17:15:15.268736
745,-0.6037,0.7237,0.2391,-15.855,1.925,5.565,422,418,388,414,417,2025-05-28T17:15:15.268736
746,-0.6066,0.7174,0.2464,-14.000,1.330,7.490,358,373,374,397,410,2025-05-28T17:15:15.268736
747,-0.6115,0.7178,0.2499,-12.005,1.505,8.750,407,420,383,386,398,2025-05-28T17:15:15.268736
748,-0.6100,0.7120,0.2499,-10.255,2.030,9.415,382,414,389,340,374,2025-05-28T17:15:15.268736
749,-0.6066,0.7066,0.2479,-7.770,2.940,10.010,403,430,357,368,362,2025-05-28T17:15:15.268736
750,-0.6080,0.6983,0.2435,-4.865,3.605,10.360,440,322,383,385,392,2025-05-28T17:15:15.268736
751,-0.6080,0.6998,0.2416,-2.100,3.080,10.780,422,409,390,392,310,2025-05-28T17:15:15.268736
752,-0.6080,0.7047,0.2372,0.175,2.415,10.990,412,413,350,393,352,2025-05-28T17:15:15.268736
753,-0.6071,0.7086,0.2303,1.890,1.575,10.955,415,432,331,390,387,2025-05-28T17:15:15.465285
754,-0.6100,0.7208,0.2289,4.095,1.050,10.745,410,404,353,409,403,2025-05-28T17:15:15.465285
755,-0.6061,0.7257,0.2216,5.880,0.700,10.395,417,430,380,355,401,2025-05-28T17:15:15.465285
756,-0.6085,0.7291,0.2157,7.700,1.155,9.940,412,420,371,392,413,2025-05-28T17:15:15.465285
757,-0.6110,0.7354,0.2186,17.745,2.170,9.870,401,414,337,341,388,2025-05-28T17:15:15.465285
758,-0.6139,0.7422,0.2216,9.835,2.800,10.045,386,412,338,398,391,2025-05-28T17:15:15.465285
759,-0.6212,0.7437,0.2279,10.185,2.660,10.150,414,408,325,385,393,2025-05-28T17:15:15.465285
760,-0.6276,0.7486,0.2391,10.500,1.330,10.395,420,403,358,410,411,2025-05-28T17:15:15.465285
761,-0.6339,0.7505,0.2469,11.095,-1.015,10.885,432,430,380,372,415,2025-05-28T17:15:15.465285
762,-0.6271,0.7530,0.2660,11.550,-4.165,11.410,422,418,372,338,357,2025-05-28T17:15:15.465285
763,-0.6100,0.7603,0.2743,11.340,-6.335,12.285,416,314,348,326,390,2025-05-28T17:15:15.465285
764,-0.6002,0.7662,0.2767,11.165,-6.475,12.845,408,392,369,390,411,2025-05-28T17:15:15.465285
765,-0.6002,0.7720,0.2786,11.550,-6.160,12.180,354,425,383,389,405,2025-05-28T17:15:15.465285
766,-0.6022,0.7803,0.2908,11.865,-6.160,11.060,349,425,383,402,358,2025-05-28T17:15:15.465285
767,-0.6115,0.7803,0.2991,12.075,-7.350,9.240,418,409,372,304,289,2025-05-28T17:15:15.465285
768,-0.6149,0.7818,0.3055,12.145,-8.680,7.525,426,407,371,371,355,2025-05-28T17:15:15.465285
769,-0.6320,0.7749,0.3060,12.110,-10.710,5.390,349,421,389,403,329,2025-05-28T17:15:15.465285
770,-0.6378,0.7706,0.3143,11.480,-12.495,3.430,406,427,386,405,378,2025-05-28T17:15:15.465285
771,-0.5026,0.7627,0.3094,10.465,-15.365,1.995,411,420,387,387,394,2025-05-28T17:15:15.568790
772,-0.5822,0.7823,0.2972,8.575,-18.165,1.785,318,418,348,367,343,2025-05-28T17:15:15.568790
773,-0.5241,0.8052,0.3392,5.040,-21.840,0.455,412,429,362,396,382,2025-05-28T17:15:15.568790
774,-0.4358,0.8872,0.3802,-1.365,-33.530,-5.565,415,408,378,420,357,2025-05-28T17:15:15.568790
775,-0.2435,1.0799,0.5002,-11.340,-66.955,-23.205,416,437,385,422,379,2025-05-28T17:15:15.568790
776,0.0420,1.4991,0.5827,-28.490,-119.490,-54.180,402,422,399,353,385,2025-05-28T17:15:15.568790
777,0.2562,2.0154,0.6710,-45.430,-239.610,-97.685,401,397,396,374,391,2025-05-28T17:15:15.568790
778,0.8272,2.7592,0.4304,-63.455,-375.305,-142.835,404,377,388,341,400,2025-05-28T17:15:15.568790
779,1.3083,3.3360,0.0610,-84.840,-482.580,-200.165,411,411,378,392,418,2025-05-28T17:15:15.568790
780,1.6626,3.8049,-0.3719,-106.540,-516.005,-231.735,392,418,377,403,400,2025-05-28T17:15:15.568790
781,1.5177,4.0319,-0.5724,-141.015,-487.480,-248.640,278,325,381,405,411,2025-05-28T17:15:15.568790
782,1.1195,3.9182,-0.5724,-174.055,-429.765,-255.325,290,369,374,392,417,2025-05-28T17:15:15.568790
783,0.4099,3.2901,-0.5329,-216.230,-408.485,-254.205,365,381,383,405,413,2025-05-28T17:15:15.568790
784,-0.2811,2.1999,-0.4621,-231.805,-431.375,-240.765,350,330,374,403,400,2025-05-28T17:15:15.568790
785,-0.7052,1.2190,0.1220,-264.390,-451.570,-249.620,358,378,377,406,390,2025-05-28T17:15:15.568790
786,-0.5680,0.0947,0.1527,-307.650,-426.755,-254.625,349,359,378,354,410,2025-05-28T17:15:15.568790
787,0.0888,-1.5909,0.4358,-325.500,-355.670,-226.485,315,387,376,353,393,2025-05-28T17:15:15.768639
788,0.1728,-2.8192,0.9667,-348.530,-229.775,-262.675,379,391,344,397,386,2025-05-28T17:15:15.768639
789,0.6608,-4.1602,1.3000,-368.830,-80.885,-285.530,390,387,323,391,389,2025-05-28T17:15:15.768639
790,0.1103,-5.2675,1.4425,-348.740,19.110,-243.740,390,398,364,412,369,2025-05-28T17:15:15.768639
791,-0.5641,-4.9117,0.9575,-248.360,54.215,-169.015,402,414,378,404,386,2025-05-28T17:15:15.768639
792,-0.8769,-4.0577,0.8384,-96.040,6.615,-49.525,414,387,384,372,409,2025-05-28T17:15:15.768639
793,-0.7910,-3.0793,0.9687,35.280,-21.350,80.185,393,401,387,391,409,2025-05-28T17:15:15.768639
794,-0.1386,-2.5078,0.8438,111.510,-26.985,156.170,424,418,395,388,411,2025-05-28T17:15:15.768639
795,0.3436,-2.2209,0.7188,164.150,12.075,202.615,434,405,375,382,405,2025-05-28T17:15:15.768639
796,0.4943,-1.9095,0.6720,193.690,67.095,211.015,429,407,379,387,399,2025-05-28T17:15:15.768639
797,0.7261,-1.7129,0.5773,200.865,136.045,227.150,431,422,383,404,356,2025-05-28T17:15:15.768639
798,0.7930,-1.5221,0.4968,191.625,215.285,249.550,424,443,376,412,363,2025-05-28T17:15:15.768639
799,0.7647,-1.2302,0.5348,166.355,286.440,274.960,442,450,374,424,357,2025-05-28T17:15:15.768639
800,0.5163,-0.9033,0.4978,139.930,382.235,302.575,452,441,372,418,388,2025-05-28T17:15:15.768639
801,0.3802,-0.4597,0.4260,105.385,474.075,314.580,448,443,342,426,371,2025-05-28T17:15:15.819019
802,-0.0190,-0.1249,0.3963,71.330,531.020,321.860,446,378,329,413,376,2025-05-28T17:15:15.819019
803,-0.4099,0.2786,0.3884,49.700,535.745,317.555,409,412,366,358,387,2025-05-28T17:15:15.819019
804,-0.8774,0.4846,0.4416,52.045,484.120,303.100,470,459,371,399,388,2025-05-28T17:15:15.984615
805,-1.1956,0.7398,0.6988,74.515,390.075,273.245,427,468,391,407,401,2025-05-28T17:15:15.984615
806,-1.4123,0.8286,0.8325,102.200,268.065,236.845,479,466,392,414,419,2025-05-28T17:15:15.984615
807,-1.2083,1.0155,0.7998,123.480,146.685,201.110,475,466,356,418,423,2025-05-28T17:15:15.984615
808,-0.8257,1.2649,0.6305,145.355,52.080,168.910,467,440,380,411,398,2025-05-28T17:15:15.984615
809,-0.2518,1.5182,0.5026,144.830,19.950,137.200,463,461,389,345,406,2025-05-28T17:15:15.984615
810,0.1396,1.6499,0.2572,143.535,0.805,125.195,472,470,389,393,411,2025-05-28T17:15:15.984615
811,0.4602,1.8046,0.2181,111.055,27.545,109.025,476,444,396,393,401,2025-05-28T17:15:15.984615
812,0.5334,1.8232,0.2362,87.010,59.920,96.250,488,433,380,415,409,2025-05-28T17:15:15.984615
813,0.4021,1.7841,0.2835,63.770,70.315,75.390,480,447,387,413,396,2025-05-28T17:15:15.984615
814,0.2952,1.6314,0.3026,61.845,55.335,56.455,471,430,352,416,368,2025-05-28T17:15:15.984615
815,0.1732,1.4913,0.3723,54.705,32.725,41.860,411,423,376,374,393,2025-05-28T17:15:15.984615
816,0.0913,1.3542,0.4055,51.170,0.490,31.080,463,431,389,398,366,2025-05-28T17:15:15.984615
817,0.0190,1.2527,0.3865,49.735,-31.395,17.290,393,437,394,413,370,2025-05-28T17:15:15.984615
818,-0.0288,1.1629,0.3631,49.385,-54.460,3.745,435,449,400,416,394,2025-05-28T17:15:15.984615
819,-0.0454,1.1268,0.3489,48.265,-62.650,-7.875,463,439,382,419,405,2025-05-28T17:15:15.984615
820,-0.0913,1.0809,0.3172,45.185,-58.870,-16.590,442,449,376,418,394,2025-05-28T17:15:15.984615
821,-0.1464,1.0160,0.2528,40.390,-46.865,-20.755,466,455,387,387,349,2025-05-28T17:15:16.087653
822,-0.2240,0.9394,0.2128,36.925,-31.780,-21.700,455,427,379,404,355,2025-05-28T17:15:16.087653
823,-0.3367,0.8901,0.1918,33.810,-14.455,-21.805,449,440,399,406,392,2025-05-28T17:15:16.087653
824,-0.4724,0.8296,0.1742,31.850,-2.135,-19.285,453,428,401,399,402,2025-05-28T17:15:16.087653
825,-0.5939,0.7998,0.1698,30.905,0.560,-16.065,412,421,352,398,401,2025-05-28T17:15:16.087653
826,-0.6700,0.7974,0.1786,30.100,-3.255,-12.390,434,429,373,387,407,2025-05-28T17:15:16.087653
827,-0.6920,0.8096,0.1703,29.155,-7.595,-7.805,430,444,379,386,410,2025-05-28T17:15:16.087653
828,-0.6617,0.8101,0.1635,28.665,-12.180,-3.920,450,445,373,399,410,2025-05-28T17:15:16.087653
829,-0.6339,0.8169,0.1664,27.895,-12.985,0.350,435,448,396,404,368,2025-05-28T17:15:16.087653
830,-0.5724,0.8384,0.1747,26.565,-8.225,5.075,414,423,395,401,397,2025-05-28T17:15:16.188224
831,-0.5534,0.8486,0.1776,25.130,-1.645,9.800,437,445,389,411,402,2025-05-28T17:15:16.188224
832,-0.5295,0.8760,0.1898,24.220,2.030,13.195,446,414,395,395,391,2025-05-28T17:15:16.188224
833,-0.4895,0.9165,0.2220,22.400,3.885,16.205,422,436,395,406,406,2025-05-28T17:15:16.188224
834,-0.4753,0.9155,0.2196,19.495,6.300,18.165,399,435,392,370,398,2025-05-28T17:15:16.188224
835,-0.4587,0.9238,0.2172,17.535,6.790,19.075,451,407,394,344,396,2025-05-28T17:15:16.188224
836,-0.4626,0.9360,0.2298,15.645,4.690,18.095,426,433,389,370,355,2025-05-28T17:15:16.188224
837,-0.4226,0.9765,0.2611,12.810,2.625,18.060,438,416,352,350,371,2025-05-28T17:15:16.188224
838,-0.4148,0.9760,0.2450,8.155,0.490,18.025,429,415,331,377,374,2025-05-28T17:15:16.234653
839,-0.4275,0.9736,0.2357,4.760,-1.890,15.190,447,434,317,400,383,2025-05-28T17:15:16.234653
840,-0.4333,0.9643,0.2401,1.715,-5.285,11.305,419,438,364,404,403,2025-05-28T17:15:16.234653
841,-0.3943,0.9467,0.2362,-1.120,-8.505,8.680,370,438,369,390,411,2025-05-28T17:15:16.234653
842,-0.3611,0.9633,0.2567,-4.585,-8.470,10.465,431,424,372,392,397,2025-05-28T17:15:16.234653
843,-0.3860,0.9331,0.2411,-8.190,-3.815,8.680,436,397,380,389,396,2025-05-28T17:15:16.288383
844,-0.4158,0.8969,0.2284,-10.675,-0.560,4.095,429,440,390,408,396,2025-05-28T17:15:16.288383
845,-0.4324,0.8740,0.2303,-11.305,-1.505,0.210,415,426,397,410,391,2025-05-28T17:15:16.288383
846,-0.4202,0.8584,0.2474,-11.725,-3.360,-1.435,427,416,400,400,394,2025-05-28T17:15:16.288383
847,-0.4119,0.8608,0.2630,-13.335,-3.325,-2.450,429,438,390,426,417,2025-05-28T17:15:16.388696
848,-0.4177,0.8320,0.2284,-14.525,-2.835,-4.620,421,441,380,397,409,2025-05-28T17:15:16.388696
849,-0.4172,0.8057,0.2162,-14.280,-1.365,-7.805,446,447,375,396,354,2025-05-28T17:15:16.388696
850,-0.4016,0.7984,0.2162,-13.720,1.435,-8.960,430,430,395,405,387,2025-05-28T17:15:16.388696
851,-0.4006,0.7935,0.2137,-14.105,4.550,-9.450,448,436,366,415,377,2025-05-28T17:15:16.388696
852,-0.4158,0.7764,0.2054,-14.630,8.680,-9.905,437,423,378,416,406,2025-05-28T17:15:16.388696
853,-0.4304,0.7813,0.2191,-14.455,12.495,-10.745,449,437,381,412,416,2025-05-28T17:15:16.388696
854,-0.4577,0.7735,0.2240,-14.875,15.715,-11.865,382,411,370,375,404,2025-05-28T17:15:16.388696
855,-0.4914,0.7593,0.2103,-14.490,15.750,-12.215,434,416,375,337,396,2025-05-28T17:15:16.434868
856,-0.5158,0.7564,0.2181,-13.370,13.545,-13.055,385,423,382,393,389,2025-05-28T17:15:16.434868
857,-0.5212,0.7574,0.2284,-12.530,12.670,-13.510,438,409,385,390,388,2025-05-28T17:15:16.434868
858,-0.5256,0.7554,0.2323,-12.180,10.885,-12.390,385,427,375,384,395,2025-05-28T17:15:16.434868
859,-0.5300,0.7632,0.2318,-11.935,8.715,-11.900,410,421,383,345,384,2025-05-28T17:15:16.734898
860,-0.5290,0.7720,0.2372,-11.585,8.505,-11.025,442,438,375,324,395,2025-05-28T17:15:16.734898
861,-0.5358,0.7832,0.2381,-11.515,10.465,-9.695,429,412,387,393,409,2025-05-28T17:15:16.734898
862,-0.5617,0.7857,0.2528,-11.655,12.005,-8.540,439,349,377,338,389,2025-05-28T17:15:16.734898
863,-0.5646,0.7569,0.2006,-6.510,10.325,-0.980,416,422,395,380,408,2025-05-28T17:15:16.734898
864,-0.6056,0.7906,0.2645,-10.605,10.220,-5.495,393,436,387,387,410,2025-05-28T17:15:16.734898
865,-0.6232,0.7940,0.2850,-10.115,7.805,-4.655,434,446,396,344,416,2025-05-28T17:15:16.734898
866,-0.6354,0.7925,0.2962,-9.205,2.520,-2.205,424,361,380,396,405,2025-05-28T17:15:16.734898
867,-0.6446,0.7954,0.3099,-8.225,-3.010,-1.120,431,408,396,365,397,2025-05-28T17:15:16.734898
868,-0.6349,0.7959,0.3157,-7.035,-6.405,0.875,438,391,398,400,409,2025-05-28T17:15:16.734898
869,-0.6222,0.7920,0.3211,-6.090,-9.170,2.065,405,396,369,412,399,2025-05-28T17:15:16.734898
870,-0.5958,0.7896,0.3182,-5.075,-8.225,4.515,414,427,341,408,394,2025-05-28T17:15:16.734898
871,-0.5919,0.7837,0.3265,-4.340,-4.095,5.810,445,428,371,414,397,2025-05-28T17:15:16.734898
872,-0.5939,0.7730,0.3226,-3.710,-0.455,6.475,427,403,337,399,386,2025-05-28T17:15:16.734898
873,-0.6041,0.7608,0.3221,-2.555,0.980,6.650,386,408,327,388,347,2025-05-28T17:15:16.734898
874,-0.6090,0.7603,0.3240,-1.015,0.980,6.720,402,415,351,387,388,2025-05-28T17:15:16.734898
875,-0.6232,0.7505,0.2987,0.525,-0.630,6.090,431,410,375,405,393,2025-05-28T17:15:16.734898
876,-0.6207,0.7408,0.2850,2.170,-4.270,5.635,406,423,374,425,403,2025-05-28T17:15:16.734898
877,-0.5993,0.7486,0.2826,3.640,-6.755,4.760,431,426,388,405,389,2025-05-28T17:15:16.734898
878,-0.5846,0.7520,0.2640,3.745,-7.315,3.710,417,428,361,391,377,2025-05-28T17:15:16.734898
879,-0.5646,0.7481,0.2503,3.605,-6.790,2.905,422,418,371,379,385,2025-05-28T17:15:16.734898
880,-0.5519,0.7515,0.2430,3.150,-5.005,2.170,425,430,387,408,388,2025-05-28T17:15:16.789289
881,-0.5612,0.7554,0.2474,2.310,-2.135,0.490,396,419,390,401,395,2025-05-28T17:15:16.789289
882,-0.5558,0.7486,0.2430,1.540,-1.890,-0.280,423,426,381,385,407,2025-05-28T17:15:16.789289
883,-0.5588,0.7432,0.2352,0.630,-2.765,-0.945,437,357,388,408,396,2025-05-28T17:15:16.800764
884,-0.5700,0.7349,0.2362,0.315,-3.535,-2.135,376,406,397,409,406,2025-05-28T17:15:16.800989
885,-0.5636,0.7383,0.2469,0.210,-4.760,-3.430,434,439,395,402,401,2025-05-28T17:15:16.800989
886,-0.5675,0.7335,0.2474,-0.140,-6.440,-4.025,407,418,406,422,357,2025-05-28T17:15:16.800989
887,-0.5700,0.7310,0.2562,-0.105,-7.490,-4.620,395,433,383,392,295,2025-05-28T17:15:16.800989
888,-0.5675,0.7388,0.2650,0.490,-7.630,-5.145,403,425,386,390,355,2025-05-28T17:15:16.800989
889,-0.5675,0.7457,0.2699,1.330,-7.140,-5.600,424,426,316,368,353,2025-05-28T17:15:16.918489
890,-0.5695,0.7462,0.2743,1.785,-7.035,-5.845,431,434,354,393,386,2025-05-28T17:15:16.918489
891,-0.6022,0.7603,0.2664,2.520,-6.230,-6.790,438,432,377,403,411,2025-05-28T17:15:16.918489
892,-0.5700,0.7593,0.2957,2.660,-6.825,-6.755,359,347,384,397,415,2025-05-28T17:15:16.918489
893,-0.5734,0.7686,0.2982,2.905,-7.385,-6.230,405,408,397,350,397,2025-05-28T17:15:16.918489
894,-0.5822,0.7681,0.3045,3.080,-8.855,-5.670,421,412,387,380,358,2025-05-28T17:15:16.918489
895,-0.5910,0.7769,0.3089,3.465,-11.480,-5.670,364,424,384,338,399,2025-05-28T17:15:16.918489
896,-0.5910,0.7837,0.3074,3.955,-13.160,-5.635,402,437,386,375,384,2025-05-28T17:15:16.918489
897,-0.5812,0.7881,0.3011,4.515,-14.665,-5.215,378,407,386,351,342,2025-05-28T17:15:16.918489
898,-0.5734,0.7910,0.3021,4.935,-15.120,-4.375,407,414,356,352,349,2025-05-28T17:15:16.918489
899,-0.5661,0.7886,0.3079,4.935,-15.400,-2.975,401,427,362,399,383,2025-05-28T17:15:16.967733
900,-0.5431,0.7964,0.3089,4.655,-13.440,-0.420,418,420,380,397,398,2025-05-28T17:15:16.967733
901,-0.5353,0.7974,0.2996,3.605,-10.360,0.595,430,440,385,410,413,2025-05-28T17:15:16.967733
902,-0.5397,0.7910,0.2889,3.185,-5.670,1.365,421,355,344,376,401,2025-05-28T17:15:16.967733
903,-0.5485,0.7935,0.2826,2.940,-2.730,1.855,413,402,333,379,394,2025-05-28T17:15:16.967733
904,-0.5632,0.7906,0.2767,2.975,-1.890,2.415,406,414,365,407,397,2025-05-28T17:15:17.134368
905,-0.5739,0.7910,0.2782,3.220,-2.905,3.010,414,407,373,405,396,2025-05-28T17:15:17.134368
906,-0.5754,0.7920,0.2767,3.185,-5.670,3.290,447,437,378,394,402,2025-05-28T17:15:17.134368
907,-0.5739,0.7881,0.2689,3.010,-8.505,3.710,424,418,376,364,374,2025-05-28T17:15:17.134368
908,-0.5675,0.7896,0.2689,3.115,-10.675,3.675,415,435,387,388,392,2025-05-28T17:15:17.134368
909,-0.5534,0.7896,0.2679,2.870,-11.515,3.640,440,415,384,412,390,2025-05-28T17:15:17.134368
910,-0.5358,0.7881,0.2640,2.415,-11.445,3.535,399,427,383,415,406,2025-05-28T17:15:17.134368
911,-0.5270,0.7857,0.2586,1.995,-10.465,4.305,327,408,392,387,396,2025-05-28T17:15:17.134368
912,-0.5187,0.7901,0.2582,1.680,-8.260,4.900,379,346,393,379,348,2025-05-28T17:15:17.134368
913,-0.5158,0.7881,0.2572,1.435,-6.055,4.445,370,398,360,396,391,2025-05-28T17:15:17.134368
914,-0.5124,0.7832,0.2460,1.190,-4.095,3.955,422,403,367,401,381,2025-05-28T17:15:17.134368
915,-0.5192,0.7798,0.2484,0.945,-2.975,3.500,358,369,367,400,390,2025-05-28T17:15:17.134368
916,-0.5217,0.7837,0.2577,0.595,-1.610,3.185,418,427,383,420,352,2025-05-28T17:15:17.134368
917,-0.5236,0.7813,0.2552,0.280,-1.470,2.695,436,368,346,415,390,2025-05-28T17:15:17.134368
918,-0.5314,0.7730,0.2464,0.280,-1.925,1.890,377,421,357,400,401,2025-05-28T17:15:17.217757
919,-0.5388,0.7710,0.2538,0.595,-2.065,1.225,414,427,360,405,409,2025-05-28T17:15:17.217757
920,-0.5422,0.7857,0.2704,0.420,-2.205,1.085,358,406,365,399,398,2025-05-28T17:15:17.217757
921,-0.5451,0.7837,0.2689,-0.175,-2.660,1.260,435,415,374,373,390,2025-05-28T17:15:17.217757
922,-0.5529,0.7749,0.2679,0.035,-3.570,1.330,372,405,366,389,387,2025-05-28T17:15:17.217757
923,-0.5558,0.7798,0.2791,0.420,-4.235,1.190,422,437,367,394,393,2025-05-28T17:15:17.217757
924,-0.5558,0.7788,0.2777,0.735,-4.585,1.365,438,438,365,420,410,2025-05-28T17:15:17.217757
925,-0.5495,0.7852,0.2772,1.190,-5.320,1.820,376,393,374,399,386,2025-05-28T17:15:17.267619
926,-0.5495,0.7876,0.2806,1.750,-5.355,2.695,407,425,379,401,402,2025-05-28T17:15:17.267619
927,-0.5451,0.7910,0.2806,2.030,-4.585,3.360,447,412,385,409,384,2025-05-28T17:15:17.267619
928,-0.5431,0.7915,0.2743,2.240,-4.060,3.990,421,439,346,393,394,2025-05-28T17:15:17.267619
929,-0.5402,0.7935,0.2704,2.485,-3.885,4.620,432,314,380,368,346,2025-05-28T17:15:17.417554
930,-0.5378,0.7954,0.2669,2.940,-3.150,4.655,372,360,391,369,392,2025-05-28T17:15:17.417554
931,-0.5309,0.8052,0.2669,3.220,-2.765,4.725,372,378,383,400,351,2025-05-28T17:15:17.417554
932,-0.5324,0.8042,0.2655,3.185,-2.415,4.970,428,409,377,412,389,2025-05-28T17:15:17.417554
933,-0.5334,0.8081,0.2640,2.940,-2.135,4.865,407,415,371,418,400,2025-05-28T17:15:17.417554
934,-0.5392,0.8091,0.2640,2.590,-2.520,4.970,437,406,383,400,406,2025-05-28T17:15:17.417554
935,-0.5373,0.8106,0.2601,2.135,-4.025,5.250,440,439,379,411,395,2025-05-28T17:15:17.417554
936,-0.5334,0.8052,0.2523,1.715,-5.425,5.320,430,415,384,415,385,2025-05-28T17:15:17.417554
937,-0.5285,0.8081,0.2484,1.680,-5.600,5.145,414,440,381,353,388,2025-05-28T17:15:17.417554
938,-0.5202,0.8072,0.2508,1.365,-5.460,5.110,437,424,378,399,388,2025-05-28T17:15:17.417554
939,-0.5124,0.8106,0.2499,0.735,-5.040,5.040,439,409,376,397,385,2025-05-28T17:15:17.417554
940,-0.5100,0.8135,0.2474,0.035,-4.550,5.110,364,391,342,390,346,2025-05-28T17:15:17.417554
941,-0.5090,0.8096,0.2469,-0.490,-3.955,5.180,436,431,371,387,369,2025-05-28T17:15:17.617511
942,-0.5046,0.8111,0.2533,-0.700,-3.535,5.005,440,419,334,389,382,2025-05-28T17:15:17.617511
943,-0.5031,0.8101,0.2552,-1.365,-2.905,4.935,379,411,347,390,411,2025-05-28T17:15:17.617511
944,-0.5026,0.8145,0.2586,-1.680,-2.485,4.795,418,424,330,367,388,2025-05-28T17:15:17.617511
945,-0.4963,0.8140,0.2572,-1.960,-2.485,4.095,396,414,361,401,387,2025-05-28T17:15:17.617511
946,-0.4792,0.8135,0.2616,-2.100,-2.625,3.045,423,416,378,398,402,2025-05-28T17:15:17.617511
947,-0.4660,0.8140,0.2655,-2.240,-2.555,1.575,436,391,369,390,377,2025-05-28T17:15:17.617511
948,-0.4587,0.8150,0.2713,-2.415,-2.730,-0.280,414,436,384,393,343,2025-05-28T17:15:17.617511
949,-0.4460,0.8184,0.2757,-2.800,-3.255,-1.645,413,358,381,397,370,2025-05-28T17:15:17.617511
950,-0.4397,0.8159,0.2699,-2.800,-3.885,-3.290,435,425,396,413,337,2025-05-28T17:15:17.617511
951,-0.4255,0.8306,0.2694,-2.590,-3.780,-5.530,431,435,379,416,385,2025-05-28T17:15:17.676701
952,-0.4236,0.8599,0.2757,-3.185,-3.045,-9.100,417,432,341,409,395,2025-05-28T17:15:17.676701
953,-0.4143,0.8960,0.2879,-4.830,-3.570,-12.915,415,439,323,404,310,2025-05-28T17:15:17.676701
954,-0.4011,0.9379,0.2957,-7.210,-6.685,-18.620,430,419,350,411,366,2025-05-28T17:15:17.676701
955,-0.3831,1.0414,0.3157,-11.025,-13.020,-25.515,415,421,359,395,392,2025-05-28T17:15:17.676701
956,-0.3177,1.2019,0.3460,-15.680,-23.730,-33.180,425,426,376,400,397,2025-05-28T17:15:17.676701
957,-0.2664,1.4279,0.3914,-22.260,-42.210,-41.195,419,433,373,406,414,2025-05-28T17:15:17.676701
958,-0.2123,1.6934,0.3777,-28.980,-72.135,-49.140,434,367,385,417,389,2025-05-28T17:15:17.732301
959,-0.1762,1.9793,0.4031,-37.730,-104.370,-55.650,408,420,356,422,393,2025-05-28T17:15:17.732301
960,-0.0947,2.3356,0.3772,-50.645,-151.550,-57.260,419,426,378,404,405,2025-05-28T17:15:17.732301
961,0.0127,2.7226,0.2499,-65.450,-190.470,-53.830,406,399,367,407,385,2025-05-28T17:15:17.732301
962,0.1264,2.8641,0.0727,-81.900,-220.990,-45.290,404,421,383,389,406,2025-05-28T17:15:17.732301
963,0.1767,3.0266,-0.0776,-96.390,-239.155,-35.770,401,406,396,417,391,2025-05-28T17:15:17.732301
964,0.2450,3.0642,-0.3143,-108.185,-244.790,-31.360,375,389,386,423,389,2025-05-28T17:15:17.732301
965,0.2865,3.0017,-0.5275,-124.775,-250.005,-38.710,377,392,381,423,405,2025-05-28T17:15:17.732301
966,0.3001,2.8641,-0.6329,-145.600,-256.200,-65.450,365,396,357,419,388,2025-05-28T17:15:17.732301
967,0.3626,2.5181,-0.7091,-177.240,-269.640,-112.735,398,399,378,398,389,2025-05-28T17:15:17.817621
968,0.3626,1.8642,-0.8613,-219.380,-285.425,-171.395,360,389,382,396,351,2025-05-28T17:15:17.817621
969,0.1381,0.9819,-0.9658,-258.860,-315.490,-234.325,377,371,386,405,382,2025-05-28T17:15:17.817621
970,0.1620,0.1757,-0.8013,-299.040,-363.685,-287.035,377,392,349,411,387,2025-05-28T17:15:17.817621
971,0.4821,-0.6603,-0.8057,-350.910,-404.285,-333.970,386,389,373,420,400,2025-05-28T17:15:17.817621
972,0.7218,-2.4732,-0.5114,-392.245,-405.335,-341.250,326,401,369,398,397,2025-05-28T17:15:17.817621
973,0.3431,-5.1191,0.2523,-428.890,-413.945,-337.540,395,391,366,360,351,2025-05-28T17:15:17.817621
974,-0.1781,-6.3977,1.3313,-415.590,-393.365,-262.780,401,339,367,377,397,2025-05-28T17:15:17.817621
975,-0.6661,-6.7793,1.0560,-266.770,-365.680,-119.735,382,296,368,414,400,2025-05-28T17:15:18.017759
976,0.3767,-6.0117,0.9609,-45.325,-238.490,34.475,402,395,373,406,400,2025-05-28T17:15:18.017759
977,1.6973,-4.6277,1.3669,132.580,-46.305,153.895,405,404,373,417,394,2025-05-28T17:15:18.017759
978,2.0364,-3.4414,1.2224,222.705,275.940,177.660,408,430,390,402,393,2025-05-28T17:15:18.017759
979,1.3840,-2.3639,1.0238,223.720,575.680,239.190,425,424,396,376,391,2025-05-28T17:15:18.017759
980,0.4338,-1.7314,0.8633,194.215,679.350,287.840,401,409,378,407,411,2025-05-28T17:15:18.017759
981,-0.6100,-1.1688,0.9257,170.695,632.415,315.105,436,440,392,411,396,2025-05-28T17:15:18.017759
982,-1.0404,-0.7383,0.8706,158.795,505.050,312.690,454,440,380,374,389,2025-05-28T17:15:18.017759
983,-1.1458,-0.2699,0.8330,159.040,359.310,294.140,425,441,395,397,391,2025-05-28T17:15:18.017759
984,-1.0507,0.2313,0.7954,183.050,259.490,256.480,434,375,384,423,400,2025-05-28T17:15:18.017759
985,-0.7974,0.7471,0.7330,206.640,197.225,208.425,439,440,348,428,390,2025-05-28T17:15:18.017759
986,-0.6027,1.1888,0.5958,221.830,131.845,183.155,469,377,372,364,392,2025-05-28T17:15:18.017759
987,-0.2357,1.4474,0.3421,214.410,90.510,157.290,469,441,387,388,391,2025-05-28T17:15:18.017759
988,0.0732,1.6856,0.0503,191.345,91.385,139.160,471,437,371,390,391,2025-05-28T17:15:18.017759
989,0.2333,1.7568,-0.0464,169.925,120.435,133.805,480,461,381,404,408,2025-05-28T17:15:18.017759
990,0.1976,2.0115,-0.0649,148.820,159.355,124.670,426,429,387,405,413,2025-05-28T17:15:18.017759
991,0.0420,2.0130,-0.0434,117.845,168.945,112.665,484,444,394,418,396,2025-05-28T17:15:18.017759
992,-0.0805,1.9296,0.0215,91.700,143.990,102.340,441,437,391,403,379,2025-05-28T17:15:18.067692
993,-0.1757,1.7046,0.0390,76.055,91.385,89.740,450,436,363,389,391,2025-05-28T17:15:18.067692
994,-0.1972,1.5606,0.1113,69.160,35.000,78.540,446,429,378,355,399,2025-05-28T17:15:18.067692
995,-0.1098,1.4581,0.1762,62.265,-12.460,61.530,444,458,377,391,386,2025-05-28T17:15:18.234405
996,0.0488,1.3654,0.2181,53.515,-43.120,45.850,458,452,398,405,347,2025-05-28T17:15:18.234405
997,0.1601,1.2893,0.2342,45.990,-53.935,33.040,438,443,394,349,327,2025-05-28T17:15:18.234405
998,0.2401,1.2210,0.2425,41.055,-47.005,22.890,453,414,386,359,325,2025-05-28T17:15:18.234405
999,0.2499,1.1717,0.2582,36.645,-28.385,13.790,452,417,345,334,370,2025-05-28T17:15:18.234405
1000,0.1884,1.1029,0.2689,31.150,-11.690,4.760,378,420,364,375,404,2025-05-28T17:15:18.234405
1001,0.0966,1.0336,0.3045,26.950,6.300,-2.065,379,420,383,375,399,2025-05-28T17:15:18.234405
1002,-0.0381,0.9765,0.3362,23.940,17.920,-8.960,442,446,381,382,415,2025-05-28T17:15:18.234405
1003,-0.2079,0.9008,0.3406,22.540,18.795,-15.820,438,445,377,398,399,2025-05-28T17:15:18.234405
1004,-0.3309,0.8457,0.3245,22.960,9.030,-21.630,438,424,390,406,407,2025-05-28T17:15:18.234405
1005,-0.3845,0.8125,0.3035,22.750,-2.240,-24.885,430,418,378,406,405,2025-05-28T17:15:18.234405
1006,-0.3992,0.8194,0.2889,23.485,-9.240,-26.040,432,384,342,415,396,2025-05-28T17:15:18.234405
1007,-0.4060,0.8135,0.2616,22.190,-9.520,-26.600,395,422,360,369,386,2025-05-28T17:15:18.234405
1008,-0.4104,0.8296,0.2547,20.685,-3.850,-25.935,391,417,368,391,383,2025-05-28T17:15:18.234405
1009,-0.4529,0.8423,0.2625,18.795,4.270,-25.270,414,419,375,385,400,2025-05-28T17:15:18.284165
1010,-0.5119,0.8574,0.2645,16.800,9.730,-23.835,449,433,378,393,388,2025-05-28T17:15:18.284165
1011,-0.5563,0.8857,0.2869,15.855,11.060,-21.035,433,430,392,382,402,2025-05-28T17:15:18.284165
1012,-0.5958,0.8896,0.2967,15.015,10.885,-18.655,441,416,391,401,413,2025-05-28T17:15:18.284165
1013,-0.6178,0.9013,0.3182,14.630,8.575,-15.435,438,439,388,413,396,2025-05-28T17:15:18.435588
1014,-0.6154,0.9209,0.3401,13.930,4.690,-11.235,401,436,361,391,402,2025-05-28T17:15:18.435588
1015,-0.5998,0.9233,0.3362,13.125,1.015,-6.545,415,408,370,367,349,2025-05-28T17:15:18.435588
1016,-0.5695,0.9316,0.3465,12.285,-2.275,-2.520,419,410,376,358,381,2025-05-28T17:15:18.435588
1017,-0.5270,0.9414,0.3421,10.920,-4.305,2.170,440,428,350,390,365,2025-05-28T17:15:18.435588
1018,-0.4773,0.9472,0.3294,8.680,-3.570,5.915,416,431,363,411,392,2025-05-28T17:15:18.435588
1019,-0.4402,0.9414,0.3255,5.845,-0.105,8.855,392,425,376,402,388,2025-05-28T17:15:18.435588
1020,-0.4011,0.9662,0.3362,1.435,6.475,12.460,368,364,376,350,354,2025-05-28T17:15:18.435588
1021,-0.3938,0.9389,0.2996,-1.680,11.830,14.455,361,343,378,391,387,2025-05-28T17:15:18.435588
1022,-0.3943,0.9174,0.2855,-4.305,13.545,14.245,422,348,391,392,390,2025-05-28T17:15:18.435588
1023,-0.3987,0.9013,0.2699,-6.265,13.160,12.530,411,408,381,399,392,2025-05-28T17:15:18.435588
1024,-0.3772,0.8911,0.2713,-8.015,12.705,13.125,421,421,390,397,386,2025-05-28T17:15:18.435588
1025,-0.3875,0.8877,0.2738,-11.270,11.270,13.300,443,426,371,394,402,2025-05-28T17:15:18.435588
1026,-0.4177,0.8608,0.2377,-12.880,8.330,10.745,422,411,386,410,413,2025-05-28T17:15:18.635110
1027,-0.4246,0.8433,0.2211,-13.440,4.165,7.280,424,433,374,352,421,2025-05-28T17:15:18.635110
1028,-0.3875,0.8340,0.2201,-13.895,2.730,5.705,430,436,355,382,365,2025-05-28T17:15:18.635110
1029,-0.3870,0.8237,0.2216,-15.505,6.650,5.005,429,417,367,402,388,2025-05-28T17:15:18.635110
1030,-0.4080,0.8096,0.2240,-17.395,12.845,2.730,430,412,387,418,408,2025-05-28T17:15:18.635110
1031,-0.4202,0.7876,0.2235,-17.920,17.045,1.575,429,412,402,403,390,2025-05-28T17:15:18.635110
1032,-0.4485,0.7910,0.2513,-17.710,19.985,1.960,410,372,403,399,385,2025-05-28T17:15:18.635110
1033,-0.4724,0.7837,0.2762,-18.865,21.420,1.015,407,405,386,376,400,2025-05-28T17:15:18.635110
1034,-0.5002,0.7632,0.2689,-18.690,20.335,-0.210,392,437,391,385,410,2025-05-28T17:15:18.635110
1035,-0.5119,0.7530,0.2767,-17.010,17.325,-0.840,427,428,363,386,318,2025-05-28T17:15:18.635110
1036,-0.4978,0.7740,0.3045,-16.030,16.520,-0.315,420,437,378,363,356,2025-05-28T17:15:18.635110
1037,-0.4992,0.7754,0.3104,-15.890,18.585,-0.420,422,398,379,396,333,2025-05-28T17:15:18.635110
1038,-0.5022,0.7706,0.3089,-15.015,20.230,-0.735,432,386,382,402,376,2025-05-28T17:15:18.635110
1039,-0.5085,0.7730,0.3265,-13.650,21.945,-0.455,410,430,385,390,403,2025-05-28T17:15:18.635110
1040,-0.5383,0.7793,0.3426,-12.600,23.240,-0.490,435,423,388,414,411,2025-05-28T17:15:18.635110
1041,-0.5490,0.7764,0.3533,-11.060,21.980,-0.140,436,423,388,355,407,2025-05-28T17:15:18.635110
1042,-0.5744,0.7720,0.3543,-9.800,19.705,0.350,430,418,397,393,407,2025-05-28T17:15:18.635110
1043,-0.5890,0.7686,0.3558,-8.330,17.605,0.735,436,426,397,385,412,2025-05-28T17:15:18.751775
1044,-0.5851,0.7710,0.3562,-6.790,14.525,1.470,428,386,389,390,402,2025-05-28T17:15:18.751775
1045,-0.5876,0.7730,0.3499,-5.985,11.620,1.785,400,380,387,413,408,2025-05-28T17:15:18.751775
1046,-0.5871,0.7681,0.3465,-5.565,10.045,2.170,382,382,354,423,394,2025-05-28T17:15:18.751775
1047,-0.5841,0.7637,0.3362,-5.180,8.400,2.415,416,409,362,407,394,2025-05-28T17:15:18.751775
1048,-0.5851,0.7530,0.3274,-4.620,7.175,2.450,405,406,368,408,392,2025-05-28T17:15:18.751775
1049,-0.5793,0.7457,0.3167,-4.235,6.825,2.380,437,410,380,399,403,2025-05-28T17:15:18.751775
1050,-0.5690,0.7447,0.3138,-3.640,7.455,2.555,434,419,375,410,317,2025-05-28T17:15:18.751775
1051,-0.5710,0.7496,0.3138,-3.675,9.100,2.380,451,418,380,396,356,2025-05-28T17:15:18.751775
1052,-0.5895,0.7325,0.2982,-3.465,9.310,2.415,448,403,384,407,374,2025-05-28T17:15:18.851700
1053,-0.6066,0.7247,0.2948,-2.345,6.720,2.345,453,439,344,404,392,2025-05-28T17:15:18.851700
1054,-0.6139,0.7305,0.3001,-1.260,4.060,2.030,417,434,361,351,342,2025-05-28T17:15:18.851700
1055,-0.6046,0.7330,0.2977,-0.805,0.455,1.855,435,412,348,371,366,2025-05-28T17:15:18.851700
1056,-0.5846,0.7408,0.2923,-0.350,-2.135,1.925,417,425,374,353,383,2025-05-28T17:15:18.851700
1057,-0.5632,0.7510,0.2782,-0.035,-2.205,1.400,414,425,370,375,393,2025-05-28T17:15:18.851700
1058,-0.5402,0.7637,0.2738,0.140,-1.015,1.120,443,424,350,389,391,2025-05-28T17:15:18.851700
1059,-0.5290,0.7720,0.2733,-0.035,0.840,0.910,424,439,362,394,394,2025-05-28T17:15:18.851700
1060,-0.5324,0.7710,0.2669,0.140,1.785,0.980,369,422,380,413,393,2025-05-28T17:15:19.051753
1061,-0.5363,0.7759,0.2718,0.735,2.485,0.525,439,436,395,403,388,2025-05-28T17:15:19.051753
1062,-0.5417,0.7813,0.2811,1.190,2.870,-0.350,401,352,395,405,397,2025-05-28T17:15:19.051753
1063,-0.5358,0.7813,0.2811,1.435,2.380,-0.910,429,399,399,397,401,2025-05-28T17:15:19.051753
1064,-0.5436,0.7779,0.2811,1.715,1.400,-1.645,413,414,399,394,399,2025-05-28T17:15:19.051753
1065,-0.5363,0.7876,0.2913,2.310,0.560,-2.345,410,359,396,368,365,2025-05-28T17:15:19.051753
1066,-0.5427,0.7867,0.2938,2.520,-0.035,-3.325,427,408,384,379,400,2025-05-28T17:15:19.051753
1067,-0.5461,0.7906,0.2967,2.660,-1.190,-4.305,384,433,385,406,404,2025-05-28T17:15:19.051753
1068,-0.5431,0.7993,0.3055,2.800,-3.010,-4.515,445,415,392,413,410,2025-05-28T17:15:19.051753
1069,-0.5475,0.7945,0.3040,3.010,-4.375,-4.550,448,418,389,352,390,2025-05-28T17:15:19.051753
1070,-0.5510,0.7935,0.3079,3.220,-5.530,-4.935,438,435,380,342,390,2025-05-28T17:15:19.051753
1071,-0.5427,0.7945,0.3162,3.360,-5.880,-5.320,423,435,345,391,401,2025-05-28T17:15:19.051753
1072,-0.5524,0.7867,0.3094,3.010,-5.390,-5.495,417,414,332,355,401,2025-05-28T17:15:19.051753
1073,-0.5529,0.7842,0.3113,2.800,-5.075,-5.425,418,375,345,397,398,2025-05-28T17:15:19.051753
1074,-0.5549,0.7837,0.3113,2.345,-5.005,-5.355,424,372,370,414,390,2025-05-28T17:15:19.051753
1075,-0.5612,0.7784,0.3001,1.785,-4.690,-4.795,411,416,376,422,372,2025-05-28T17:15:19.051753
1076,-0.5675,0.7745,0.2899,1.540,-4.795,-4.795,426,418,396,423,389,2025-05-28T17:15:19.051753
1077,-0.5734,0.7745,0.2933,1.715,-5.320,-4.795,409,423,377,391,398,2025-05-28T17:15:19.051753
1078,-0.5739,0.7740,0.2889,1.365,-6.090,-4.585,440,361,373,392,313,2025-05-28T17:15:19.251564
1079,-0.5749,0.7754,0.2874,1.015,-7.210,-4.410,360,427,369,404,340,2025-05-28T17:15:19.251564
1080,-0.5812,0.7715,0.2850,1.050,-8.715,-4.340,380,385,366,418,389,2025-05-28T17:15:19.251564
1081,-0.5817,0.7735,0.2884,0.840,-10.290,-4.445,417,416,375,397,402,2025-05-28T17:15:19.251564
1082,-0.5700,0.7735,0.2899,0.630,-11.480,-3.990,428,421,381,414,356,2025-05-28T17:15:19.251564
1083,-0.5714,0.7745,0.2904,0.455,-11.795,-3.430,421,420,388,415,376,2025-05-28T17:15:19.251564
1084,-0.5632,0.7764,0.2943,0.245,-11.060,-2.695,391,407,386,411,390,2025-05-28T17:15:19.251564
1085,-0.5558,0.7759,0.2967,0.280,-10.220,-1.785,416,391,369,414,393,2025-05-28T17:15:19.251564
1086,-0.5544,0.7769,0.3030,0.490,-9.625,-1.260,441,425,367,348,307,2025-05-28T17:15:19.251564
1087,-0.5475,0.7798,0.3089,0.455,-9.310,-0.840,435,438,379,372,371,2025-05-28T17:15:19.251564
1088,-0.5451,0.7774,0.3035,0.840,-9.275,-0.385,442,435,370,392,400,2025-05-28T17:15:19.251564
1089,-0.5470,0.7759,0.2987,1.540,-10.080,-0.525,387,431,341,396,356,2025-05-28T17:15:19.251564
1090,-0.5412,0.7769,0.2972,2.065,-10.885,-0.490,397,432,358,395,380,2025-05-28T17:15:19.251564
1091,-0.5339,0.7784,0.2928,2.555,-11.095,-0.490,412,408,375,384,381,2025-05-28T17:15:19.251564
1092,-0.5285,0.7813,0.2923,2.590,-10.535,-0.595,357,402,377,400,354,2025-05-28T17:15:19.251564
1093,-0.5192,0.7857,0.2894,2.590,-9.135,-0.490,438,440,381,391,371,2025-05-28T17:15:19.251564
1094,-0.5202,0.7818,0.2806,2.275,-7.350,-0.455,440,420,391,388,399,2025-05-28T17:15:19.251564
1095,-0.5261,0.7808,0.2801,2.170,-5.950,-0.385,433,407,386,374,414,2025-05-28T17:15:19.351682
1096,-0.5266,0.7867,0.2757,1.715,-5.320,-0.280,420,387,394,392,369,2025-05-28T17:15:19.351682
1097,-0.5324,0.7818,0.2650,1.330,-4.655,-0.140,411,420,380,388,389,2025-05-28T17:15:19.351682
1098,-0.5392,0.7798,0.2708,1.400,-4.480,-0.245,436,435,369,341,399,2025-05-28T17:15:19.351682
1099,-0.5378,0.7896,0.2762,1.085,-3.955,0.350,411,397,373,374,411,2025-05-28T17:15:19.351682
1100,-0.5446,0.7842,0.2743,0.630,-3.150,0.385,435,409,369,398,376,2025-05-28T17:15:19.351682
1101,-0.5495,0.7793,0.2752,0.560,-3.045,0.455,374,406,375,392,402,2025-05-28T17:15:19.488558
1102,-0.5461,0.7828,0.2777,0.700,-2.835,0.560,410,408,390,354,387,2025-05-28T17:15:19.488558
1103,-0.5412,0.7808,0.2786,0.105,-1.715,0.700,408,411,376,336,364,2025-05-28T17:15:19.488558
1104,-0.5456,0.7769,0.2835,0.000,-0.770,0.560,437,409,383,394,407,2025-05-28T17:15:19.488558
1105,-0.5553,0.7735,0.2943,0.035,-0.840,0.595,365,428,396,346,351,2025-05-28T17:15:19.488558
1106,-0.5568,0.7740,0.2987,0.035,-1.855,0.490,432,432,349,366,378,2025-05-28T17:15:19.488558
1107,-0.5578,0.7701,0.2943,0.105,-3.080,0.315,440,432,379,404,383,2025-05-28T17:15:19.488558
1108,-0.5495,0.7740,0.2972,0.420,-3.150,0.385,427,420,384,363,398,2025-05-28T17:15:19.488558
1109,-0.5431,0.7788,0.2972,0.105,-1.610,0.805,370,418,391,378,365,2025-05-28T17:15:19.488558
1110,-0.5490,0.7749,0.2987,-0.420,-0.175,1.085,433,409,378,394,342,2025-05-28T17:15:19.488558
1111,-0.5578,0.7735,0.3030,-0.595,0.315,1.225,419,435,387,339,359,2025-05-28T17:15:19.488558
1112,-0.5734,0.7676,0.3074,-0.455,-0.560,1.645,407,432,350,368,403,2025-05-28T17:15:19.667236
1113,-0.5836,0.7657,0.3074,-0.070,-2.800,1.960,416,436,330,301,401,2025-05-28T17:15:19.667236
1114,-0.5876,0.7603,0.3079,0.420,-5.740,2.380,417,423,350,382,354,2025-05-28T17:15:19.667236
1115,-0.5866,0.7652,0.3167,1.085,-7.665,2.450,414,429,363,382,392,2025-05-28T17:15:19.667236
1116,-0.5807,0.7691,0.3148,1.365,-8.855,2.415,439,413,367,404,360,2025-05-28T17:15:19.667236
1117,-0.5685,0.7696,0.3118,1.540,-9.170,2.835,391,414,355,385,382,2025-05-28T17:15:19.667236
1118,-0.5632,0.7730,0.3133,1.715,-8.750,3.080,440,410,378,409,393,2025-05-28T17:15:19.667236
1119,-0.5553,0.7715,0.3118,2.100,-8.085,3.500,360,422,378,419,384,2025-05-28T17:15:19.667236
1120,-0.5519,0.7788,0.3138,2.100,-7.595,4.025,428,361,382,416,409,2025-05-28T17:15:19.667236
1121,-0.5466,0.7740,0.3026,2.345,-7.035,4.480,423,422,391,400,357,2025-05-28T17:15:19.667236
1122,-0.5480,0.7730,0.2996,2.730,-6.265,4.550,439,435,384,392,374,2025-05-28T17:15:19.667236
1123,-0.5466,0.7788,0.3035,2.905,-6.055,4.200,428,416,397,409,397,2025-05-28T17:15:19.667236
1124,-0.5431,0.7832,0.2952,2.485,-6.230,3.850,363,433,398,403,405,2025-05-28T17:15:19.667236
1125,-0.5407,0.7832,0.2879,2.415,-7.035,3.850,411,416,400,395,389,2025-05-28T17:15:19.667236
1126,-0.5412,0.7901,0.2889,2.660,-7.560,3.290,427,414,391,404,363,2025-05-28T17:15:19.667236
1127,-0.5353,0.7959,0.2869,2.520,-7.700,2.695,434,441,396,396,394,2025-05-28T17:15:19.667236
1128,-0.5314,0.7935,0.2821,2.275,-8.295,2.170,379,401,391,405,400,2025-05-28T17:15:19.667236
1129,-0.5217,0.7950,0.2826,2.205,-8.890,2.240,417,409,375,390,389,2025-05-28T17:15:19.667236
1130,-0.5202,0.7954,0.2860,1.995,-8.680,1.820,441,415,388,370,395,2025-05-28T17:15:19.867557
1131,-0.5192,0.7915,0.2845,1.575,-8.820,1.470,434,413,371,381,390,2025-05-28T17:15:19.867557
1132,-0.5168,0.7920,0.2826,1.750,-9.415,1.505,417,402,344,354,387,2025-05-28T17:15:19.867557
1133,-0.5187,0.7906,0.2845,1.680,-9.030,1.085,422,422,365,394,358,2025-05-28T17:15:19.867557
1134,-0.5192,0.7906,0.2830,1.365,-8.260,0.840,419,424,331,381,386,2025-05-28T17:15:19.867557
1135,-0.5178,0.7867,0.2830,1.435,-7.945,0.910,454,443,347,392,391,2025-05-28T17:15:19.867557
1136,-0.5178,0.7842,0.2855,1.365,-7.595,0.630,431,436,341,389,410,2025-05-28T17:15:19.867557
1137,-0.5139,0.7842,0.2889,1.330,-6.965,0.245,446,435,360,416,418,2025-05-28T17:15:19.867557
1138,-0.5139,0.7837,0.2928,1.330,-6.580,-0.035,392,400,364,401,410,2025-05-28T17:15:19.867557
1139,-0.5163,0.7837,0.2904,1.190,-6.685,-0.525,407,400,303,404,418,2025-05-28T17:15:19.867557
1140,-0.5197,0.7823,0.2938,1.190,-7.105,-0.735,426,432,318,393,395,2025-05-28T17:15:19.867557
1141,-0.5183,0.7857,0.2928,1.120,-7.525,-0.840,353,430,355,382,392,2025-05-28T17:15:19.867557
1142,-0.5202,0.7793,0.2874,1.435,-7.840,-1.015,410,425,370,396,410,2025-05-28T17:15:19.867557
1143,-0.5226,0.7842,0.2957,1.680,-7.840,-1.050,411,413,374,409,394,2025-05-28T17:15:19.867557
1144,-0.5246,0.7847,0.2987,1.645,-7.560,-1.120,417,418,378,353,383,2025-05-28T17:15:19.867557
1145,-0.5290,0.7823,0.2938,1.470,-7.560,-0.980,364,409,368,334,397,2025-05-28T17:15:19.867557
1146,-0.5261,0.7837,0.2952,1.750,-7.805,-0.630,353,418,367,366,407,2025-05-28T17:15:19.967657
1147,-0.5300,0.7881,0.2987,2.170,-7.630,-0.560,431,353,367,386,417,2025-05-28T17:15:19.967657
1148,-0.5256,0.7920,0.3006,2.345,-7.035,-0.420,410,373,381,394,407,2025-05-28T17:15:19.967657
1149,-0.5261,0.7930,0.2962,2.415,-6.860,-0.070,421,401,385,406,375,2025-05-28T17:15:19.967657
1150,-0.5270,0.7930,0.2972,2.590,-6.755,-0.035,425,425,389,389,342,2025-05-28T17:15:19.967657
1151,-0.5222,0.7959,0.2938,2.695,-6.930,0.140,428,382,381,384,391,2025-05-28T17:15:19.967657
1152,-0.5168,0.7984,0.2943,2.800,-7.210,-0.035,420,410,357,341,385,2025-05-28T17:15:19.967657
1153,-0.5144,0.7984,0.2923,2.800,-7.175,-0.385,414,407,361,388,408,2025-05-28T17:15:19.967657
1154,-0.5070,0.7979,0.2889,2.625,-6.580,-0.665,437,418,370,409,393,2025-05-28T17:15:19.967657
1155,-0.5100,0.8013,0.2899,2.380,-5.635,-1.085,449,358,386,425,384,2025-05-28T17:15:20.084872
1156,-0.5109,0.7969,0.2860,2.100,-4.865,-1.645,361,388,384,422,357,2025-05-28T17:15:20.084872
1157,-0.5144,0.7974,0.2913,1.925,-4.970,-1.925,425,417,388,373,381,2025-05-28T17:15:20.084872
1158,-0.5217,0.7950,0.2850,1.470,-5.320,-2.240,410,391,392,404,404,2025-05-28T17:15:20.084872
1159,-0.5192,0.7930,0.2855,1.295,-5.950,-2.205,440,395,378,401,413,2025-05-28T17:15:20.084872
1160,-0.5178,0.7969,0.2865,1.015,-5.950,-2.030,438,364,388,413,400,2025-05-28T17:15:20.084872
1161,-0.5192,0.7940,0.2894,0.665,-5.460,-1.785,402,425,392,363,386,2025-05-28T17:15:20.084872
1162,-0.5163,0.7940,0.2884,0.525,-4.795,-1.435,446,439,386,401,404,2025-05-28T17:15:20.084872
1163,-0.5187,0.7940,0.2894,0.595,-4.165,-1.120,411,427,395,406,355,2025-05-28T17:15:20.185010
1164,-0.5222,0.7954,0.2987,0.595,-3.885,-0.945,413,414,363,398,400,2025-05-28T17:15:20.185010
1165,-0.5202,0.7940,0.3026,0.595,-4.340,-0.595,328,435,384,424,395,2025-05-28T17:15:20.185010
1166,-0.5251,0.7867,0.3016,0.665,-4.935,-0.525,405,417,394,411,384,2025-05-28T17:15:20.185010
1167,-0.5222,0.7857,0.3055,1.050,-5.390,-0.280,432,396,385,408,395,2025-05-28T17:15:20.185010
1168,-0.5266,0.7823,0.3074,1.435,-5.740,-0.245,435,406,385,398,406,2025-05-28T17:15:20.185010
1169,-0.5246,0.7788,0.3094,1.435,-5.635,-0.070,426,381,391,407,405,2025-05-28T17:15:20.185010
1170,-0.5266,0.7832,0.3079,1.470,-5.460,0.385,429,414,392,415,391,2025-05-28T17:15:20.185010
1171,-0.5256,0.7823,0.3070,1.785,-5.075,0.735,427,351,379,403,405,2025-05-28T17:15:20.185010
1172,-0.5187,0.7867,0.3045,1.890,-4.165,1.120,433,421,377,394,407,2025-05-28T17:15:20.185010
1173,-0.5197,0.7837,0.3011,1.890,-2.765,1.610,434,357,367,380,411,2025-05-28T17:15:20.268333
1174,-0.5197,0.7867,0.2996,1.995,-1.820,1.855,410,427,376,367,402,2025-05-28T17:15:20.268333
1175,-0.5197,0.7901,0.2957,2.030,-1.050,2.240,399,432,393,407,413,2025-05-28T17:15:20.268333
1176,-0.5212,0.7925,0.2923,1.890,-0.315,2.030,361,427,382,407,411,2025-05-28T17:15:20.268333
1177,-0.5226,0.7950,0.2889,1.820,0.105,1.820,416,397,380,402,374,2025-05-28T17:15:20.268333
1178,-0.5280,0.7940,0.2850,1.995,-0.420,1.575,446,408,354,362,400,2025-05-28T17:15:20.268333
1179,-0.5314,0.7950,0.2889,2.240,-1.400,1.015,439,399,361,410,352,2025-05-28T17:15:20.268333
1180,-0.5295,0.7930,0.2884,1.855,-2.415,0.350,440,431,375,408,332,2025-05-28T17:15:20.484045
1181,-0.5246,0.7832,0.2811,1.295,-3.150,-0.490,430,433,365,396,373,2025-05-28T17:15:20.484045
1182,-0.5114,0.7813,0.2874,0.700,-3.080,-1.435,447,448,351,388,352,2025-05-28T17:15:20.484045
1183,-0.5129,0.7676,0.2865,-0.315,-2.380,-2.240,438,432,341,344,371,2025-05-28T17:15:20.484045
1184,-0.5129,0.7696,0.2830,-1.470,-3.150,-2.695,447,431,367,330,354,2025-05-28T17:15:20.484045
1185,-0.5388,0.7671,0.2884,-1.925,-4.410,-3.570,429,406,372,387,371,2025-05-28T17:15:20.484045
1186,-0.5851,0.7788,0.3226,-1.120,-7.770,-4.900,419,430,374,401,375,2025-05-28T17:15:20.484045
1187,-0.6417,0.7935,0.3904,-1.505,-19.320,-5.495,439,435,389,401,399,2025-05-28T17:15:20.484045
1188,-0.6700,0.8481,0.4348,-7.420,-38.150,-9.240,415,425,393,421,401,2025-05-28T17:15:20.484045
1189,-0.6217,0.8511,0.4231,-12.425,-56.980,-12.040,435,407,382,375,384,2025-05-28T17:15:20.484045
1190,-0.6085,0.8750,0.4109,-15.120,-69.510,-14.665,415,409,389,380,365,2025-05-28T17:15:20.484045
1191,-0.5763,0.8794,0.4451,-20.580,-74.690,-24.080,433,431,388,396,383,2025-05-28T17:15:20.484045
1192,-0.4856,0.9457,0.5144,-28.980,-76.755,-30.520,435,414,388,401,378,2025-05-28T17:15:20.484045
1193,-0.4299,0.9697,0.5363,-39.445,-77.840,-32.445,423,403,382,401,399,2025-05-28T17:15:20.484045
1194,-0.4695,1.0316,0.6134,-43.470,-75.425,-38.850,441,419,378,393,400,2025-05-28T17:15:20.484045
1195,-0.4016,1.1214,0.6822,-46.270,-77.840,-43.855,418,411,368,414,412,2025-05-28T17:15:20.484045
1196,-0.3323,1.2995,0.7549,-51.660,-79.555,-47.600,395,429,371,409,387,2025-05-28T17:15:20.484045
1197,-0.2162,1.3976,0.5939,-59.780,-78.995,-41.545,421,432,344,390,387,2025-05-28T17:15:20.484045
1198,-0.1410,1.5543,0.4207,-59.570,-76.790,-29.715,416,435,372,373,341,2025-05-28T17:15:20.584069
1199,-0.0737,1.9237,0.4075,-61.355,-58.835,-20.825,410,363,355,392,380,2025-05-28T17:15:20.584069
1200,-0.0288,2.2077,0.2557,-69.265,-34.685,-6.020,416,422,346,365,394,2025-05-28T17:15:20.584069
1201,-0.0844,2.4107,0.0956,-79.800,-14.525,19.600,423,409,368,395,412,2025-05-28T17:15:20.584069
1202,-0.1957,2.6591,0.0156,-91.875,-3.010,49.455,437,438,342,407,418,2025-05-28T17:15:20.584069
1203,-0.3450,2.8514,-0.1166,-109.060,-1.120,78.330,428,416,354,356,376,2025-05-28T17:15:20.584069
1204,-0.4607,2.8787,-0.3826,-134.260,-17.570,105.035,426,424,378,353,393,2025-05-28T17:15:20.584069
1205,-0.4582,2.9124,-0.7486,-160.405,-21.945,122.325,417,399,387,383,404,2025-05-28T17:15:20.584069
1206,-0.4177,2.7226,-1.3571,-187.250,-22.400,136.570,370,395,393,377,407,2025-05-28T17:15:20.683877
1207,-0.3860,2.5508,-1.7861,-207.935,-3.430,147.000,412,421,393,388,412,2025-05-28T17:15:20.683877
1208,-0.4641,2.3487,-2.1653,-241.955,31.640,131.775,396,425,392,396,359,2025-05-28T17:15:20.683877
1209,-0.6964,2.0150,-2.3668,-293.825,69.160,101.290,415,423,388,367,387,2025-05-28T17:15:20.683877
1210,-1.1780,1.4206,-2.3975,-344.085,74.375,65.870,421,417,386,412,406,2025-05-28T17:15:20.683877
1211,-1.7505,0.6315,-2.2531,-402.640,25.970,27.090,426,411,381,403,396,2025-05-28T17:15:20.683877
1212,-2.3936,-0.4285,-2.1492,-423.360,-59.045,11.165,415,410,381,399,385,2025-05-28T17:15:20.683877
1213,-2.9631,-1.2029,-1.5738,-427.700,-185.395,11.410,416,371,383,406,351,2025-05-28T17:15:20.683877
1214,-3.0207,-1.7002,-0.9853,-428.925,-315.735,35.805,417,412,354,390,398,2025-05-28T17:15:20.900638
1215,-2.4981,-2.6235,-0.5636,-421.120,-376.530,80.430,366,424,372,395,403,2025-05-28T17:15:20.900638
1216,-1.8129,-3.0256,-0.0922,-395.500,-354.095,112.105,411,420,387,401,406,2025-05-28T17:15:20.900638
1217,-1.1785,-3.5502,0.4002,-353.220,-296.485,155.400,349,343,388,371,406,2025-05-28T17:15:20.900638
1218,-0.7222,-3.8694,0.7359,-285.880,-237.230,181.580,353,387,349,331,407,2025-05-28T17:15:20.900638
1219,-0.0747,-3.8547,1.1165,-214.165,-188.440,195.580,333,404,344,377,353,2025-05-28T17:15:20.900638
1220,0.5622,-3.6454,1.4225,-165.095,-159.285,194.250,408,414,332,385,367,2025-05-28T17:15:20.900638
1221,1.2742,-3.3413,1.5001,-100.520,-111.020,173.355,393,416,373,397,374,2025-05-28T17:15:20.900638
1222,1.9164,-2.9397,1.5743,-34.930,-53.410,135.800,424,436,371,410,393,2025-05-28T17:15:20.900638
1223,2.1306,-2.6264,1.5992,25.235,24.780,96.810,420,445,337,399,386,2025-05-28T17:15:20.900638
1224,2.0706,-2.4215,1.6758,79.940,91.665,45.290,360,414,370,390,362,2025-05-28T17:15:20.900638
1225,1.7680,-2.1399,1.7524,126.070,114.485,-7.385,414,430,384,407,393,2025-05-28T17:15:20.900638
1226,1.3274,-1.9540,1.7378,159.320,107.905,-60.690,410,427,380,418,397,2025-05-28T17:15:20.900638
1227,0.9511,-1.7685,1.5777,199.500,93.625,-108.080,410,445,374,399,384,2025-05-28T17:15:20.900638
1228,0.5544,-1.5367,1.3864,236.285,84.700,-152.810,324,416,390,399,411,2025-05-28T17:15:20.900638
1229,0.3655,-1.2888,1.1771,262.815,93.765,-180.180,425,430,380,367,389,2025-05-28T17:15:20.900638
1230,-0.0112,-1.1117,0.9511,278.530,125.685,-198.415,406,442,346,377,399,2025-05-28T17:15:20.900638
1231,-0.4553,-0.9350,0.7457,289.660,172.445,-194.425,429,405,367,405,409,2025-05-28T17:15:21.000572
1232,-0.9970,-0.6744,0.3455,302.225,225.085,-173.110,438,418,375,408,414,2025-05-28T17:15:21.000572
1233,-1.5108,-0.4797,0.0215,316.925,267.120,-140.140,445,431,380,313,398,2025-05-28T17:15:21.000572
1234,-1.8603,-0.1684,-0.1488,326.585,271.355,-97.510,420,435,372,392,424,2025-05-28T17:15:21.000572
1235,-2.0374,0.1454,-0.3997,327.075,240.730,-57.435,456,426,387,387,416,2025-05-28T17:15:21.000572
1236,-1.9613,0.4782,-0.4973,315.595,179.165,-16.100,389,431,386,370,361,2025-05-28T17:15:21.000572
1237,-1.6738,0.6949,-0.5012,299.320,101.115,17.150,445,420,389,375,392,2025-05-28T17:15:21.000572
1238,-1.2854,0.8316,-0.5031,275.695,55.090,30.030,393,359,381,402,408,2025-05-28T17:15:21.000572
1239,-1.0785,0.9521,-0.4729,257.880,11.795,35.595,442,420,388,416,404,2025-05-28T17:15:21.000572
1240,-0.6739,1.0692,-0.3884,233.800,-6.125,32.410,433,431,392,410,407,2025-05-28T17:15:21.100675
1241,-0.3499,1.1370,-0.3567,212.765,-7.280,36.190,446,415,386,417,353,2025-05-28T17:15:21.100675
1242,-0.2303,1.2010,-0.2460,182.385,8.855,34.160,423,413,347,397,384,2025-05-28T17:15:21.100675
1243,-0.1474,1.2195,-0.1552,171.955,19.320,30.450,433,439,356,370,359,2025-05-28T17:15:21.100675
1244,-0.1752,1.2093,-0.0639,155.610,19.110,23.415,374,363,371,374,394,2025-05-28T17:15:21.100675
1245,-0.2006,1.2117,-0.0137,142.310,9.345,17.780,425,412,369,401,401,2025-05-28T17:15:21.100675
1246,-0.2001,1.2127,0.0220,133.525,-3.885,10.885,430,381,377,418,396,2025-05-28T17:15:21.100675
1247,-0.1908,1.2171,0.0620,126.385,-17.325,3.850,402,434,377,404,391,2025-05-28T17:15:21.100675
1248,-0.1615,1.2356,0.1479,118.265,-26.740,-3.255,432,417,380,396,411,2025-05-28T17:15:21.200689
1249,-0.1566,1.2176,0.1742,106.750,-32.445,-11.025,414,373,388,406,375,2025-05-28T17:15:21.200689
1250,-0.1381,1.2034,0.1752,98.070,-35.070,-16.695,435,409,378,391,384,2025-05-28T17:15:21.200689
1251,-0.1391,1.2127,0.2040,90.440,-32.900,-22.120,374,416,387,399,382,2025-05-28T17:15:21.304226
1252,-0.1366,1.2054,0.2123,81.935,-27.160,-24.465,420,409,389,409,396,2025-05-28T17:15:21.304226
1253,-0.1566,1.2015,0.2318,73.710,-20.720,-25.340,375,420,367,415,405,2025-05-28T17:15:21.304226
1254,-0.1908,1.1771,0.2406,65.870,-13.720,-25.655,436,443,374,416,418,2025-05-28T17:15:21.304226
1255,-0.2377,1.1605,0.2630,58.730,-10.465,-24.675,448,384,384,418,416,2025-05-28T17:15:21.304226
1256,-0.2674,1.1419,0.2684,53.690,-12.005,-22.610,380,381,377,400,419,2025-05-28T17:15:21.304226
1257,-0.2977,1.1224,0.2523,48.895,-15.120,-19.705,424,383,386,414,417,2025-05-28T17:15:21.304226
1258,-0.3123,1.1278,0.2542,45.325,-19.250,-9.240,439,415,395,413,402,2025-05-28T17:15:21.304226
1259,-0.2957,1.1326,0.2435,40.985,-22.330,-16.380,441,427,394,417,390,2025-05-28T17:15:21.304226
1260,-0.2894,1.1287,0.2338,35.910,-22.925,-14.945,394,430,319,411,402,2025-05-28T17:15:21.304226
1261,-0.2826,1.1082,0.2289,32.060,-22.645,-13.335,442,443,350,417,390,2025-05-28T17:15:21.304226
1262,-0.2987,1.0853,0.2440,28.035,-21.420,-13.020,449,425,357,409,378,2025-05-28T17:15:21.304226
1263,-0.3045,1.0590,0.2440,24.360,-20.965,-13.090,393,431,376,410,401,2025-05-28T17:15:21.304226
1264,-0.3074,1.0355,0.2464,20.615,-21.315,-12.635,419,418,383,348,367,2025-05-28T17:15:21.304226
1265,-0.3089,1.0189,0.2416,17.570,-20.930,-11.760,444,444,382,395,375,2025-05-28T17:15:21.366848
1266,-0.3065,1.0058,0.2386,14.315,-18.760,-11.445,424,377,382,407,374,2025-05-28T17:15:21.366848
1267,-0.3152,0.9975,0.2513,11.375,-16.030,-11.165,440,409,382,407,385,2025-05-28T17:15:21.366848
1268,-0.3231,0.9843,0.2528,8.295,-13.790,-10.395,447,413,348,393,398,2025-05-28T17:15:21.366848
1269,-0.3484,0.9555,0.2367,6.580,-12.075,-10.045,450,418,358,396,372,2025-05-28T17:15:21.366848
1270,-0.3533,0.9394,0.2508,5.215,-11.060,-10.010,445,417,376,409,389,2025-05-28T17:15:21.500533
1271,-0.3723,0.9267,0.2547,3.465,-8.855,-9.345,434,429,373,412,354,2025-05-28T17:15:21.500533
1272,-0.3758,0.9126,0.2494,1.925,-5.950,-8.505,399,414,370,395,333,2025-05-28T17:15:21.500533
