SeqNum,AccX,AccY,AccZ,GyroX,GyroY,GyroZ,Flex,Force1,Force2,Force3,Force4,TimestampReception
19065,-0.6608,0.6993,0.0893,-5.670,27.930,-12.740,285,88,131,140,110,2025-05-24T00:42:14.514509
19066,-0.7422,0.7130,-0.0044,4.550,-1.890,-1.540,404,363,409,406,395,2025-05-24T00:42:14.514745
19067,-0.7335,0.7193,-0.0117,3.360,-5.950,-2.030,407,398,440,434,420,2025-05-24T00:42:14.514766
19068,-0.7320,0.7188,-0.0171,1.610,-9.100,-1.470,434,409,445,436,420,2025-05-24T00:42:14.514778
19069,-0.7340,0.7154,-0.0200,1.400,-11.130,-1.190,427,412,452,436,426,2025-05-24T00:42:14.615079
19070,-0.7257,0.7120,-0.0229,2.310,-13.020,-1.820,415,411,449,437,427,2025-05-24T00:42:14.615131
19071,-0.7183,0.7110,-0.0200,3.220,-14.350,-2.730,423,415,454,436,423,2025-05-24T00:42:14.615166
19072,-0.7056,0.7203,-0.0107,1.820,-13.930,-3.430,363,410,449,438,425,2025-05-24T00:42:14.615178
19073,-0.6974,0.7237,-0.0049,-1.540,-12.390,-3.920,436,407,448,433,423,2025-05-24T00:42:14.615189
19074,-0.7056,0.7286,-0.0005,-4.620,-10.430,-3.640,406,412,449,434,424,2025-05-24T00:42:14.615201
19075,-0.7037,0.7427,0.0107,-9.870,-9.030,-3.990,430,411,451,438,427,2025-05-24T00:42:14.615212
19076,-0.7027,0.7427,0.0137,-16.240,-10.220,-5.250,407,419,461,442,437,2025-05-24T00:42:14.615223
19077,-0.7013,0.7364,0.0146,-22.820,-13.650,-7.770,410,418,462,451,440,2025-05-24T00:42:14.615235
19078,-0.6969,0.7218,0.0102,-27.160,-16.520,-11.060,431,426,464,443,439,2025-05-24T00:42:14.615246
19079,-0.6900,0.7086,0.0176,-27.230,-17.290,-11.760,418,427,465,455,444,2025-05-24T00:42:14.615258
19080,-0.6817,0.6930,0.0293,-23.520,-13.020,-11.480,372,420,463,448,438,2025-05-24T00:42:14.695016
19081,-0.6827,0.6934,0.0288,-17.990,-8.190,-11.830,446,414,454,440,426,2025-05-24T00:42:14.695063
19082,-0.6739,0.7154,0.0678,-18.410,-8.540,-10.780,359,411,433,416,408,2025-05-24T00:42:14.695076
19083,-0.6817,0.7135,0.0766,-23.100,-7.560,-12.250,378,408,412,394,387,2025-05-24T00:42:14.695087
19084,-0.6827,0.7154,0.0859,-30.800,-10.990,-15.120,406,383,371,351,353,2025-05-24T00:42:14.814255
19085,-0.7056,0.6764,0.0639,-36.330,-11.130,-17.570,392,354,327,335,320,2025-05-24T00:42:14.814320
19086,-0.7393,0.6354,0.0303,-34.720,-8.470,-17.780,388,341,299,311,289,2025-05-24T00:42:14.814334
19087,-0.7974,0.6300,0.0288,-27.370,-4.690,-15.960,351,334,293,305,291,2025-05-24T00:42:14.814345
19088,-0.7671,0.6608,0.0815,-21.770,-0.630,-13.720,319,282,281,291,274,2025-05-24T00:42:14.814355
19089,-0.8252,0.6749,0.0015,-12.040,6.370,-12.320,348,302,276,284,263,2025-05-24T00:42:14.814368
19090,-0.8438,0.6534,0.0156,-26.880,13.930,-3.990,330,285,268,278,255,2025-05-24T00:42:14.814378
19091,-0.8677,0.6398,0.0488,-24.080,14.840,0.070,341,313,262,272,249,2025-05-24T00:42:14.814389
19092,-0.8896,0.6027,0.0312,-16.170,11.550,2.520,351,312,257,264,250,2025-05-24T00:42:14.814401
19093,-0.9096,0.6608,0.0634,-15.820,3.010,8.120,301,313,229,257,256,2025-05-24T00:42:14.814410
19094,-0.8677,0.6461,0.1025,-14.700,4.550,11.060,363,299,229,253,258,2025-05-24T00:42:14.814422
19095,-0.8237,0.6368,0.0976,-8.330,-2.100,12.670,345,303,225,250,261,2025-05-24T00:42:14.814431
19096,-0.7691,0.6637,0.1376,-1.190,-9.030,16.730,367,296,227,238,252,2025-05-24T00:42:15.017294
19097,-0.7540,0.6603,0.1444,3.220,-8.050,18.200,334,309,230,254,263,2025-05-24T00:42:15.017342
19098,-0.7530,0.6798,0.1630,5.880,-8.470,17.780,347,275,230,253,263,2025-05-24T00:42:15.017355
19099,-0.7686,0.6734,0.1635,6.720,-16.030,16.520,372,318,238,258,265,2025-05-24T00:42:15.017382
19100,-0.7579,0.6603,0.1547,5.810,-22.820,13.510,354,337,239,255,264,2025-05-24T00:42:15.017392
19101,-0.7422,0.6690,0.1444,5.390,-26.740,11.760,376,320,248,260,260,2025-05-24T00:42:15.017402
19102,-0.7222,0.6642,0.1205,11.130,-27.790,10.990,366,318,249,255,265,2025-05-24T00:42:15.017412
19103,-0.7096,0.6749,0.1103,16.240,-22.750,11.480,380,333,255,267,269,2025-05-24T00:42:15.017421
19104,-0.7125,0.6866,0.0952,17.920,-16.240,12.460,333,409,395,402,411,2025-05-24T00:42:15.017430
19105,-0.7227,0.6891,0.0981,16.380,-10.850,13.020,424,418,493,486,500,2025-05-24T00:42:15.017443
19106,-0.7300,0.6964,0.1054,15.890,-7.770,13.580,402,403,365,349,345,2025-05-24T00:42:15.017456
19107,-0.7544,0.6808,0.0703,16.170,-6.720,11.270,370,356,298,292,294,2025-05-24T00:42:15.017465
19108,-0.7466,0.6934,0.0698,13.020,-7.630,11.270,384,324,281,283,279,2025-05-24T00:42:15.017474
19109,-0.7549,0.6886,0.0371,14.980,-13.160,12.600,374,319,274,261,272,2025-05-24T00:42:15.017482
19110,-0.7476,0.7091,0.0551,18.830,-20.930,13.930,382,319,239,250,246,2025-05-24T00:42:15.017524
19111,-0.7232,0.7222,0.0581,26.180,-31.080,14.630,370,254,247,246,245,2025-05-24T00:42:15.017533
19112,-0.7135,0.7520,0.0683,31.080,-37.800,16.520,372,302,245,257,243,2025-05-24T00:42:15.017542
19113,-0.6583,0.7481,0.0508,31.640,-40.740,18.060,319,307,226,235,223,2025-05-24T00:42:15.244533
19114,-0.6647,0.7808,0.0571,23.310,-38.920,19.320,367,295,231,230,226,2025-05-24T00:42:15.244593
19115,-0.6525,0.7945,0.0844,18.760,-33.880,17.570,354,299,242,254,248,2025-05-24T00:42:15.244608
19116,-0.6603,0.7623,0.0747,9.730,-26.950,14.980,372,320,262,290,258,2025-05-24T00:42:15.244621
19117,-0.6695,0.7515,0.0732,-2.170,-17.920,11.760,335,320,272,292,250,2025-05-24T00:42:15.244633
19118,-0.6598,0.7442,0.0703,-7.770,-9.940,9.870,332,309,284,299,260,2025-05-24T00:42:15.244666
19119,-0.6608,0.7393,0.0747,-10.710,-2.520,9.030,372,279,297,300,269,2025-05-24T00:42:15.244680
19120,-0.6403,0.7476,0.0810,-8.610,2.310,10.570,358,243,273,277,240,2025-05-24T00:42:15.244702
19121,-0.6407,0.7559,0.0947,-10.920,8.260,11.760,333,224,262,270,233,2025-05-24T00:42:15.244713
19122,-0.6510,0.7496,0.1078,-8.400,7.910,13.230,343,231,264,274,236,2025-05-24T00:42:15.244732
19123,-0.6598,0.7535,0.1191,-8.190,4.830,14.420,321,226,264,273,233,2025-05-24T00:42:15.244748
19124,-0.6739,0.7403,0.1196,-8.820,2.870,12.950,345,240,275,271,242,2025-05-24T00:42:15.244759
19125,-0.6749,0.7383,0.1152,-10.080,0.910,11.550,344,243,279,288,252,2025-05-24T00:42:15.244769
19126,-0.6734,0.7296,0.1078,-10.150,0.280,9.100,364,256,295,304,266,2025-05-24T00:42:15.244782
19127,-0.6734,0.7198,0.1035,-9.240,2.940,7.000,363,270,304,317,278,2025-05-24T00:42:15.244833
19128,-0.6788,0.7242,0.1161,-6.020,2.450,5.390,313,280,309,316,282,2025-05-24T00:42:15.244849
19129,-0.6647,0.7369,0.1249,-4.550,0.140,5.880,363,289,315,323,288,2025-05-24T00:42:15.244859
19130,-0.6593,0.7379,0.1279,-6.580,-0.420,5.460,367,280,318,329,294,2025-05-24T00:42:15.244871
19131,-0.6583,0.7344,0.1259,-8.120,-1.400,4.830,366,297,327,331,298,2025-05-24T00:42:15.244882
19132,-0.6647,0.7340,0.1210,-6.510,-4.130,4.480,376,299,331,339,304,2025-05-24T00:42:15.427819
19133,-0.6710,0.7335,0.1152,-6.090,-4.830,3.150,362,304,334,340,304,2025-05-24T00:42:15.427885
19134,-0.6705,0.7325,0.1122,-5.950,-5.320,2.450,293,209,241,248,205,2025-05-24T00:42:15.427903
19135,-0.6651,0.7291,0.1064,-5.810,-5.530,2.660,277,208,236,250,206,2025-05-24T00:42:15.427941
19136,-0.6593,0.7198,0.1010,-5.460,-2.730,2.870,302,208,238,251,207,2025-05-24T00:42:15.427955
19137,-0.6588,0.7344,0.1186,-2.800,0.280,3.500,318,198,239,254,208,2025-05-24T00:42:15.428032
19138,-0.6608,0.7354,0.1288,-1.960,2.450,3.220,318,207,240,252,209,2025-05-24T00:42:15.428046
19139,-0.6812,0.7310,0.1269,-3.500,1.120,2.870,327,211,244,254,211,2025-05-24T00:42:15.428060
19140,-0.6881,0.7266,0.1244,-4.060,-2.520,3.150,346,210,246,254,215,2025-05-24T00:42:15.428072
19141,-0.6852,0.7257,0.1176,-2.450,-5.180,3.080,338,209,253,261,220,2025-05-24T00:42:15.428085
19142,-0.6773,0.7305,0.1147,1.470,-6.790,3.150,320,222,258,269,228,2025-05-24T00:42:15.428109
19143,-0.6671,0.7383,0.1191,3.430,-7.210,3.080,295,233,265,279,237,2025-05-24T00:42:15.428123
19144,-0.6520,0.7413,0.1161,3.850,-6.300,4.970,406,346,387,382,376,2025-05-24T00:42:15.428135
19145,-0.6632,0.7510,0.1152,0.280,-4.550,3.640,424,400,428,423,405,2025-05-24T00:42:15.428147
19146,-0.6695,0.7476,0.1122,3.080,-3.850,3.500,437,457,489,485,471,2025-05-24T00:42:15.428224
19147,-0.6705,0.7549,0.1220,3.010,-3.920,3.920,471,511,546,580,613,2025-05-24T00:42:15.428238
19148,-0.6705,0.7701,0.1269,-0.140,-3.850,2.800,558,827,866,843,868,2025-05-24T00:42:15.638418
19149,-0.6710,0.7662,0.1200,-3.010,-6.580,1.960,627,917,947,905,933,2025-05-24T00:42:15.638491
19150,-0.6778,0.7608,0.1147,-4.480,-10.220,1.540,630,914,944,905,928,2025-05-24T00:42:15.642800
19151,-0.6817,0.7540,0.1161,-4.620,-11.830,0.490,521,633,655,629,616,2025-05-24T00:42:15.642831
19152,-0.6866,0.7501,0.1230,-3.570,-13.860,0.840,457,578,603,586,585,2025-05-24T00:42:15.642843
19153,-0.6920,0.7520,0.1288,-3.640,-16.310,0.770,491,572,597,579,577,2025-05-24T00:42:15.642856
19154,-0.6900,0.7486,0.1376,-2.800,-17.640,1.470,429,571,598,582,575,2025-05-24T00:42:15.642867
19155,-0.6871,0.7501,0.1459,17.500,-18.760,2.590,488,553,576,553,542,2025-05-24T00:42:15.642877
19156,-0.6832,0.7632,0.1635,2.030,-18.830,4.410,483,503,532,522,505,2025-05-24T00:42:15.642898
19157,-0.7037,0.7662,0.1532,1.120,-19.180,3.920,446,443,474,467,441,2025-05-24T00:42:15.642909
19158,-0.6988,0.7720,0.1488,-1.680,-23.730,3.780,425,407,431,426,402,2025-05-24T00:42:15.642927
19159,-0.7130,0.7666,0.1391,-3.710,-29.120,4.410,333,211,236,251,212,2025-05-24T00:42:15.642936
19160,-0.7218,0.7588,0.1420,-5.180,-31.080,5.530,325,205,232,250,204,2025-05-24T00:42:15.642945
19161,-0.7154,0.7584,0.1405,-5.390,-32.340,6.580,282,198,225,245,201,2025-05-24T00:42:15.642955
19162,-0.7037,0.7598,0.1362,-4.690,-32.620,8.540,326,199,226,242,199,2025-05-24T00:42:15.643012
19163,-0.6949,0.7793,0.1381,-2.170,-31.150,10.990,316,197,224,248,197,2025-05-24T00:42:15.643026
19164,-0.6876,0.7818,0.1415,-2.660,-26.810,13.160,333,200,221,242,197,2025-05-24T00:42:15.643036
19165,-0.6803,0.7906,0.1401,-5.180,-23.240,15.400,341,195,223,243,196,2025-05-24T00:42:15.870198
19166,-0.6769,0.7915,0.1479,-7.910,-20.650,18.130,242,198,219,244,196,2025-05-24T00:42:15.870262
19167,-0.6881,0.7915,0.1586,-10.500,-20.790,18.480,324,196,215,245,197,2025-05-24T00:42:15.870283
19168,-0.6891,0.7788,0.1527,-13.300,-24.150,19.810,270,199,215,242,195,2025-05-24T00:42:15.870300
19169,-0.6642,0.7784,0.1459,-14.000,-25.830,22.260,332,193,218,245,199,2025-05-24T00:42:15.870337
19170,-0.6359,0.7862,0.1459,-13.510,-22.820,24.780,332,200,219,233,199,2025-05-24T00:42:15.870357
19171,-0.6271,0.7886,0.1566,-11.970,-19.250,27.160,337,204,221,250,200,2025-05-24T00:42:15.870373
19172,-0.6207,0.7930,0.1791,-13.440,-17.080,28.630,307,204,222,246,204,2025-05-24T00:42:15.870387
19173,-0.6110,0.7998,0.1928,-16.450,-16.450,31.080,300,203,220,247,202,2025-05-24T00:42:15.870402
19174,-0.6139,0.8047,0.1957,-18.480,-15.120,32.480,326,202,221,249,201,2025-05-24T00:42:15.870524
19175,-0.6022,0.8086,0.1942,-19.600,-13.230,31.500,338,202,218,235,201,2025-05-24T00:42:15.870544
19176,-0.5963,0.8023,0.1889,-19.040,-10.850,30.590,335,203,222,251,202,2025-05-24T00:42:15.870559
19177,-0.5929,0.7979,0.1903,-16.450,-9.590,31.220,287,203,223,248,204,2025-05-24T00:42:15.870578
19178,-0.5836,0.7998,0.2074,-14.910,-9.940,30.800,325,202,221,244,201,2025-05-24T00:42:15.870592
19179,-0.5646,0.8003,0.2128,-14.840,-11.130,30.030,303,202,221,248,201,2025-05-24T00:42:15.870652
19180,-0.5592,0.8028,0.2191,-14.350,-13.160,29.540,313,198,218,248,201,2025-05-24T00:42:15.870667
19181,-0.5363,0.8145,0.2245,-13.650,-14.000,28.560,316,202,222,249,201,2025-05-24T00:42:15.870681
19182,-0.5187,0.8091,0.2206,-13.510,-13.510,28.000,281,204,222,237,204,2025-05-24T00:42:16.054111
19183,-0.5026,0.8115,0.2269,-13.370,-12.250,26.740,229,204,223,252,206,2025-05-24T00:42:16.054157
19184,-0.4841,0.8130,0.2269,-14.140,-9.380,24.850,274,211,230,255,211,2025-05-24T00:42:16.054183
19185,-0.4943,0.8086,0.2269,-15.610,-7.070,23.380,272,211,230,256,213,2025-05-24T00:42:16.054195
19186,-0.4968,0.8018,0.2216,-15.610,-4.900,21.770,281,213,234,258,216,2025-05-24T00:42:16.054207
19187,-0.4992,0.8081,0.2235,-14.840,-3.850,20.510,258,215,235,262,218,2025-05-24T00:42:16.054216
19188,-0.4958,0.8052,0.2333,-15.190,-4.690,18.410,300,217,233,265,220,2025-05-24T00:42:16.054226
19189,-0.5012,0.7964,0.2469,-16.590,-7.490,16.870,289,217,240,252,221,2025-05-24T00:42:16.054234
19190,-0.5061,0.7823,0.2503,-16.240,-10.920,15.750,292,217,237,264,223,2025-05-24T00:42:16.054244
19191,-0.5031,0.7759,0.2503,-12.810,-13.370,15.120,289,218,243,266,223,2025-05-24T00:42:16.054260
19192,-0.4821,0.7847,0.2582,-7.980,-12.950,15.540,295,221,243,268,224,2025-05-24T00:42:16.054269
19193,-0.4748,0.7901,0.2577,-8.540,-9.730,15.680,276,221,243,257,224,2025-05-24T00:42:16.054279
19194,-0.4841,0.7881,0.2635,-9.310,-7.210,15.120,312,223,244,272,226,2025-05-24T00:42:16.054290
19195,-0.4890,0.7769,0.2660,-8.330,-5.740,14.350,318,223,245,271,227,2025-05-24T00:42:16.054298
19196,-0.4939,0.7779,0.2733,-6.930,-4.410,12.040,333,223,246,273,228,2025-05-24T00:42:16.054335
19197,-0.4943,0.7788,0.2733,-6.230,-4.690,10.010,316,224,247,276,230,2025-05-24T00:42:16.054344
19198,-0.4817,0.7950,0.2743,-6.160,-6.020,8.750,321,226,249,262,230,2025-05-24T00:42:16.054358
19199,-0.4753,0.7984,0.2684,-7.000,-5.880,7.490,334,226,251,273,233,2025-05-24T00:42:16.054367
19200,-0.4773,0.7964,0.2621,-5.600,-5.460,6.510,329,227,249,276,233,2025-05-24T00:42:16.104607
19201,-0.4841,0.7989,0.2669,-2.520,-5.180,5.390,318,230,254,277,236,2025-05-24T00:42:16.104650
19202,-0.4846,0.7984,0.2704,-0.910,-4.550,4.900,285,228,251,279,236,2025-05-24T00:42:16.104661
19203,-0.4875,0.8028,0.2796,-1.260,-3.640,5.250,332,231,255,281,237,2025-05-24T00:42:16.104670
19204,-0.4929,0.8032,0.2826,-2.240,-2.030,5.460,328,233,256,280,237,2025-05-24T00:42:16.247046
19205,-0.4900,0.8096,0.2874,-1.680,0.000,5.390,334,233,258,278,239,2025-05-24T00:42:16.247108
19206,-0.4939,0.8286,0.2923,-0.700,1.190,4.410,281,235,257,279,238,2025-05-24T00:42:16.247121
19207,-0.4943,0.8355,0.2889,-0.770,0.420,3.710,331,234,258,280,239,2025-05-24T00:42:16.247131
19208,-0.4914,0.8350,0.2791,-2.170,-0.840,3.010,333,237,259,284,239,2025-05-24T00:42:16.247145
19209,-0.4856,0.8340,0.2767,-2.730,-1.190,2.800,336,235,260,273,241,2025-05-24T00:42:16.247154
19210,-0.4914,0.8384,0.2826,-2.450,-1.680,1.960,331,237,256,287,242,2025-05-24T00:42:16.247163
19211,-0.4987,0.8428,0.2894,-2.030,-3.220,1.190,321,236,257,285,244,2025-05-24T00:42:16.247172
19212,-0.4929,0.8394,0.2894,-2.800,-5.530,1.190,337,240,264,288,245,2025-05-24T00:42:16.247183
19213,-0.4851,0.8452,0.2874,-2.240,-4.690,1.330,334,240,260,289,244,2025-05-24T00:42:16.247192
19214,-0.4890,0.8481,0.2904,-1.260,-2.170,1.120,329,240,261,290,246,2025-05-24T00:42:16.247201
19215,-0.5002,0.8403,0.2899,-0.980,-1.890,1.050,330,241,262,291,247,2025-05-24T00:42:16.247212
19216,-0.5031,0.8291,0.2889,-1.890,-2.940,1.120,343,241,266,286,248,2025-05-24T00:42:16.452241
19217,-0.4914,0.8350,0.2899,-2.380,-3.850,0.980,324,242,266,289,248,2025-05-24T00:42:16.452282
19218,-0.4846,0.8350,0.2865,-1.610,-2.660,0.210,333,242,266,291,248,2025-05-24T00:42:16.452293
19219,-0.4802,0.8359,0.2811,-1.540,-1.680,-0.140,325,245,269,291,251,2025-05-24T00:42:16.452302
19220,-0.4792,0.8335,0.2791,-2.730,-1.330,0.490,337,244,268,289,250,2025-05-24T00:42:16.452326
19221,-0.4817,0.8272,0.2777,-2.870,-1.120,1.190,324,245,268,292,251,2025-05-24T00:42:16.452339
19222,-0.5012,0.8233,0.2816,0.350,-1.540,2.100,337,245,270,294,252,2025-05-24T00:42:16.452349
19223,-0.5085,0.8316,0.2879,2.030,-3.080,1.610,323,248,270,290,252,2025-05-24T00:42:16.452358
19224,-0.4978,0.8311,0.2860,1.330,-5.250,1.120,301,249,270,289,253,2025-05-24T00:42:16.452366
19225,-0.4909,0.8306,0.2806,-1.120,-5.110,1.750,339,248,268,292,253,2025-05-24T00:42:16.452374
19226,-0.4914,0.8316,0.2796,-1.750,-3.640,2.100,322,248,273,297,253,2025-05-24T00:42:16.452382
19227,-0.4997,0.8320,0.2767,-0.210,-3.290,1.750,327,248,273,293,254,2025-05-24T00:42:16.452660
19228,-0.4997,0.8394,0.2747,-0.630,-4.060,1.470,325,250,274,294,255,2025-05-24T00:42:16.452669
19229,-0.5002,0.8320,0.2689,-2.170,-4.690,2.170,333,250,273,298,256,2025-05-24T00:42:16.452677
19230,-0.5036,0.8345,0.2762,-2.870,-5.320,2.660,333,250,275,299,256,2025-05-24T00:42:16.452715
19231,-0.5070,0.8316,0.2782,-2.310,-6.230,2.310,318,253,275,298,256,2025-05-24T00:42:16.452723
19232,-0.5017,0.8325,0.2782,-2.240,-7.350,2.870,319,251,275,300,258,2025-05-24T00:42:16.452731
19233,-0.4953,0.8359,0.2830,-2.940,-7.630,3.710,334,252,276,300,257,2025-05-24T00:42:16.685737
19234,-0.4841,0.8428,0.2865,-3.360,-6.510,3.780,326,255,278,301,259,2025-05-24T00:42:16.685796
19235,-0.4787,0.8428,0.2889,-2.940,-5.040,3.500,293,253,277,288,259,2025-05-24T00:42:16.685963
19236,-0.4860,0.8325,0.2908,-2.940,-3.780,3.640,328,256,279,297,260,2025-05-24T00:42:16.685973
19237,-0.4948,0.8286,0.2991,-3.290,-3.990,3.780,343,257,279,297,262,2025-05-24T00:42:16.685982
19238,-0.4909,0.8345,0.3065,-3.640,-5.320,3.780,327,255,279,303,261,2025-05-24T00:42:16.685993
19239,-0.4758,0.8325,0.3065,-3.570,-5.950,3.710,324,256,281,303,262,2025-05-24T00:42:16.686001
19240,-0.4626,0.8281,0.3070,-2.940,-5.600,3.570,346,258,280,300,261,2025-05-24T00:42:16.686009
19241,-0.4568,0.8335,0.3045,-0.560,-5.600,3.850,339,255,281,304,262,2025-05-24T00:42:16.686020
19242,-0.4563,0.8403,0.3040,1.400,-4.410,3.640,353,260,280,300,263,2025-05-24T00:42:16.686028
19243,-0.4563,0.8452,0.3016,0.700,-4.340,2.520,333,259,278,306,263,2025-05-24T00:42:16.686036
19244,-0.4534,0.8442,0.2991,-0.980,-5.110,1.960,327,259,282,302,264,2025-05-24T00:42:16.686044
19245,-0.4499,0.8355,0.2923,-2.520,-3.990,1.680,344,260,281,301,264,2025-05-24T00:42:16.686051
19246,-0.4529,0.8403,0.2933,-1.330,-1.120,1.540,350,260,279,305,263,2025-05-24T00:42:16.686059
19247,-0.4631,0.8477,0.2972,0.000,-0.350,0.420,341,260,283,304,265,2025-05-24T00:42:16.686094
19248,-0.4607,0.8496,0.2918,-0.420,-1.610,-0.280,347,261,283,306,265,2025-05-24T00:42:16.686102
19249,-0.4563,0.8467,0.2865,-2.030,-2.590,-0.140,328,261,283,294,265,2025-05-24T00:42:16.686110
19250,-0.4582,0.8447,0.2933,-1.890,-1.680,0.070,353,263,283,294,266,2025-05-24T00:42:16.686118
19251,-0.4724,0.8403,0.2962,-0.420,-1.400,-0.420,278,262,284,301,267,2025-05-24T00:42:16.686125
19252,-0.4807,0.8359,0.3006,-0.210,-3.290,-0.770,333,263,285,303,267,2025-05-24T00:42:16.686132
19253,-0.4802,0.8345,0.2982,-1.260,-4.480,-0.490,334,261,285,308,268,2025-05-24T00:42:16.863407
19254,-0.4792,0.8325,0.2923,-1.330,-3.920,0.210,351,264,285,297,269,2025-05-24T00:42:16.863453
19255,-0.4807,0.8394,0.2957,0.280,-2.170,0.490,332,263,285,308,269,2025-05-24T00:42:16.863483
19256,-0.4821,0.8423,0.2972,-0.420,-2.100,-0.070,352,264,287,310,268,2025-05-24T00:42:16.863493
19257,-0.4763,0.8374,0.2913,-2.520,-4.410,-0.210,335,265,286,310,269,2025-05-24T00:42:16.863502
19258,-0.4753,0.8316,0.2899,-3.570,-5.460,-0.280,350,263,287,307,269,2025-05-24T00:42:16.863511
19259,-0.4690,0.8350,0.2933,-1.470,-4.620,-0.140,335,266,288,298,270,2025-05-24T00:42:16.863519
19260,-0.4704,0.8394,0.3026,0.700,-3.430,-0.420,332,267,287,311,269,2025-05-24T00:42:16.863528
19261,-0.4763,0.8389,0.3109,-0.070,-4.200,-0.630,346,266,288,307,271,2025-05-24T00:42:16.863536
19262,-0.4743,0.8350,0.3045,-0.980,-4.270,-0.210,334,266,286,311,271,2025-05-24T00:42:16.863548
19263,-0.4748,0.8276,0.3065,-0.560,-3.010,0.140,345,267,287,308,271,2025-05-24T00:42:16.863556
19264,-0.4782,0.8267,0.3094,1.540,-1.260,0.000,335,266,288,312,272,2025-05-24T00:42:16.863564
19265,-0.4797,0.8325,0.3138,2.240,-1.540,0.000,335,266,288,307,271,2025-05-24T00:42:17.036197
19266,-0.4812,0.8355,0.3109,1.190,-3.570,-0.210,349,267,287,309,272,2025-05-24T00:42:17.036231
19267,-0.4743,0.8398,0.3011,0.630,-4.760,-0.350,345,268,288,309,272,2025-05-24T00:42:17.036303
19268,-0.4636,0.8413,0.2996,1.540,-4.410,-0.350,339,267,289,310,271,2025-05-24T00:42:17.067726
19269,-0.4695,0.8350,0.2987,2.450,-3.570,-0.840,339,269,290,314,273,2025-05-24T00:42:17.067789
19270,-0.4729,0.8330,0.3045,2.590,-4.550,-0.980,333,269,290,314,272,2025-05-24T00:42:17.067802
19271,-0.4743,0.8311,0.3001,2.170,-5.040,-1.400,355,268,291,301,273,2025-05-24T00:42:17.067813
19272,-0.4743,0.8311,0.2987,2.240,-4.480,-1.470,339,268,291,311,273,2025-05-24T00:42:17.067825
19273,-0.4758,0.8330,0.2972,3.010,-3.360,-1.260,300,269,292,311,273,2025-05-24T00:42:17.067834
19274,-0.4778,0.8364,0.2972,2.940,-3.150,-1.960,335,270,291,316,274,2025-05-24T00:42:17.067844
19275,-0.4763,0.8335,0.2977,2.170,-5.250,-2.450,342,272,293,302,274,2025-05-24T00:42:17.067853
19276,-0.4748,0.8252,0.2918,1.400,-6.650,-3.150,352,270,293,313,275,2025-05-24T00:42:17.067862
19277,-0.4753,0.8247,0.2943,2.660,-7.070,-3.780,356,269,290,316,274,2025-05-24T00:42:17.067871
19278,-0.4753,0.8276,0.2977,3.780,-6.650,-3.710,331,272,293,304,275,2025-05-24T00:42:17.067879
19279,-0.4817,0.8242,0.2957,3.780,-5.670,-3.570,349,273,294,313,277,2025-05-24T00:42:17.067891
19280,-0.4831,0.8306,0.2972,2.940,-5.810,-3.080,351,273,293,318,277,2025-05-24T00:42:17.067899
19281,-0.4846,0.8330,0.2967,3.500,-5.460,-3.220,339,273,295,316,277,2025-05-24T00:42:17.067907
19282,-0.4831,0.8335,0.2967,4.130,-4.970,-3.850,348,274,295,315,278,2025-05-24T00:42:17.067948
19283,-0.4826,0.8359,0.2952,4.900,-5.180,-3.990,345,275,295,319,278,2025-05-24T00:42:17.067956
19284,-0.4831,0.8359,0.2996,4.830,-5.740,-4.060,356,275,295,318,278,2025-05-24T00:42:17.067964
19285,-0.4738,0.8306,0.2972,4.480,-6.860,-4.340,347,275,294,319,279,2025-05-24T00:42:17.268664
19286,-0.4704,0.8252,0.2943,4.900,-7.490,-4.480,345,273,296,304,279,2025-05-24T00:42:17.268728
19287,-0.4670,0.8276,0.2962,6.300,-7.210,-4.550,357,274,296,317,280,2025-05-24T00:42:17.268741
19288,-0.4685,0.8286,0.3026,6.860,-6.790,-4.970,352,274,296,321,280,2025-05-24T00:42:17.268758
19289,-0.4670,0.8345,0.3074,6.510,-7.420,-5.880,349,277,297,307,280,2025-05-24T00:42:17.268775
19290,-0.4646,0.8320,0.3128,5.670,-8.610,-6.580,346,277,297,320,280,2025-05-24T00:42:17.268785
19291,-0.4534,0.8301,0.3128,4.830,-9.310,-7.840,334,275,295,319,281,2025-05-24T00:42:17.268796
19292,-0.4314,0.8316,0.3109,5.600,-8.750,-8.470,354,276,297,318,280,2025-05-24T00:42:17.268806
19293,-0.4094,0.8311,0.3045,6.510,-6.580,-10.220,340,278,298,318,281,2025-05-24T00:42:17.268820
19294,-0.3699,0.8140,0.2991,5.740,-4.900,-14.140,339,276,298,308,281,2025-05-24T00:42:17.268830
19295,-0.3411,0.7710,0.2957,3.220,-7.490,-20.720,344,278,298,320,281,2025-05-24T00:42:17.268840
19296,-0.3250,0.7452,0.3387,0.280,-13.300,-32.410,354,275,299,320,283,2025-05-24T00:42:17.268850
19297,-0.3758,0.6891,0.4675,-6.930,-28.490,-46.200,345,278,299,320,282,2025-05-24T00:42:17.268859
19298,-0.4490,0.6378,0.5856,-16.100,-56.630,-65.660,358,281,300,320,282,2025-05-24T00:42:17.268870
19299,-0.4787,0.5514,0.6647,-24.360,-84.840,-83.020,323,281,302,322,286,2025-05-24T00:42:17.268917
19300,-0.4436,0.4768,0.7135,-27.860,-101.360,-97.580,308,281,302,321,285,2025-05-24T00:42:17.268932
19301,-0.3865,0.4177,0.7344,-20.510,-105.490,-111.230,338,281,301,313,285,2025-05-24T00:42:17.268943
19302,-0.3455,0.4207,0.7823,-3.570,-106.610,-129.640,355,282,302,322,286,2025-05-24T00:42:17.492972
19303,-0.3709,0.4348,0.8335,3.360,-105.280,-147.980,358,282,303,324,286,2025-05-24T00:42:17.493019
19304,-0.4548,0.4163,0.8857,-1.820,-108.850,-166.180,353,282,303,322,287,2025-05-24T00:42:17.493035
19305,-0.5812,0.3992,0.9501,-9.380,-124.740,-181.020,360,281,305,326,289,2025-05-24T00:42:17.493046
19306,-0.6422,0.4114,0.9496,-15.050,-150.920,-200.830,360,283,306,331,290,2025-05-24T00:42:17.493057
19307,-0.6934,0.4421,0.9477,-15.680,-179.480,-221.270,362,289,311,320,294,2025-05-24T00:42:17.493083
19308,-0.7471,0.5431,0.9531,-11.200,-212.730,-243.600,333,292,312,331,295,2025-05-24T00:42:17.493096
19309,-0.7096,0.7232,0.8652,-9.450,-248.500,-259.770,313,290,311,320,295,2025-05-24T00:42:17.493106
19310,-0.6046,0.9160,0.8257,-4.900,-304.220,-254.870,363,289,309,332,294,2025-05-24T00:42:17.493115
19311,-0.4446,1.3161,0.7032,-9.030,-333.060,-245.140,363,288,309,325,292,2025-05-24T00:42:17.493125
19312,-0.2572,2.2477,0.3597,-2.100,-359.870,-229.670,406,388,420,439,416,2025-05-24T00:42:17.493137
19313,-0.2284,3.2652,-0.0996,-85.540,-266.980,-213.990,399,472,490,496,476,2025-05-24T00:42:17.493147
19314,-0.7471,3.9323,-0.4890,-14.840,-156.030,-173.110,460,472,490,495,476,2025-05-24T00:42:17.493156
19315,-1.4996,3.9713,-0.7925,-90.230,-98.350,-83.650,460,474,495,501,481,2025-05-24T00:42:17.493192
19316,-2.0067,3.7957,-1.1663,-146.930,-116.900,30.240,476,482,500,500,482,2025-05-24T00:42:17.493202
19317,-2.1604,3.3477,-1.8036,-172.760,-150.710,130.830,473,478,502,500,485,2025-05-24T00:42:17.493217
19318,-2.0467,3.0119,-2.1906,-204.050,-104.860,177.940,489,481,503,506,486,2025-05-24T00:42:17.493226
19319,-1.9901,2.9002,-1.9813,-246.050,87.570,167.580,477,478,500,499,481,2025-05-24T00:42:17.493331
19320,-2.7108,2.2336,-1.5118,-244.440,53.830,185.010,479,481,504,503,485,2025-05-24T00:42:17.685878
19321,-3.4682,0.6368,-1.4718,-394.800,47.250,166.040,492,495,517,511,497,2025-05-24T00:42:17.685929
19322,-3.9884,-0.5104,-1.2015,-466.620,15.050,160.230,495,499,519,514,500,2025-05-24T00:42:17.685945
19323,-4.8454,-2.5078,-0.9423,-562.660,39.550,190.890,484,489,509,510,493,2025-05-24T00:42:17.685959
19324,-4.8063,-4.1734,-0.7632,-357.280,-12.740,271.320,491,504,521,521,506,2025-05-24T00:42:17.685971
19325,-3.9796,-4.1382,-0.0015,-225.890,-41.300,306.390,498,511,527,524,510,2025-05-24T00:42:17.686001
19326,-3.2369,-4.1236,0.2801,-252.840,-107.170,336.980,498,505,519,521,504,2025-05-24T00:42:17.686013
19327,-1.9022,-4.4169,0.2850,-295.120,-201.810,403.270,490,496,512,514,495,2025-05-24T00:42:17.686024
19328,-0.3728,-4.1709,0.3982,-322.840,-246.610,425.670,479,492,507,506,491,2025-05-24T00:42:17.686035
19329,0.5612,-3.6024,0.7091,-266.700,-288.470,438.620,333,298,319,330,303,2025-05-24T00:42:17.686046
19330,0.9682,-3.0939,1.0311,-185.780,-396.340,565.110,407,412,441,447,433,2025-05-24T00:42:17.686057
19331,1.8168,-3.9855,0.2918,-171.780,-278.600,329.210,439,442,460,463,443,2025-05-24T00:42:17.686067
19332,1.7563,-2.6820,0.7003,-34.300,-198.800,223.510,452,443,464,464,445,2025-05-24T00:42:17.686077
19333,1.8900,-2.2531,0.8291,-10.360,-134.120,122.010,454,444,465,464,445,2025-05-24T00:42:17.686130
19334,1.8349,-1.8832,0.8569,61.600,-69.230,44.730,454,442,462,463,443,2025-05-24T00:42:17.686141
19335,1.4879,-1.5538,0.9345,41.160,-16.730,-34.930,444,434,454,454,435,2025-05-24T00:42:17.686155
19336,1.0643,-1.3410,0.9096,35.140,21.000,-97.370,444,434,455,457,436,2025-05-24T00:42:17.906291
19337,0.6300,-1.1546,0.8672,13.230,74.270,-139.300,431,429,447,451,428,2025-05-24T00:42:17.906341
19338,0.3645,-0.9579,0.8403,15.470,124.670,-179.130,426,419,439,431,420,2025-05-24T00:42:17.906355
19339,0.0712,-0.7910,0.8135,49.700,163.940,-190.050,426,417,437,439,415,2025-05-24T00:42:17.906367
19340,-0.2611,-0.6759,0.8462,114.240,208.250,-199.850,414,403,423,427,406,2025-05-24T00:42:17.906382
19341,-0.5104,-0.5739,0.8086,113.610,242.270,-216.860,413,403,421,420,395,2025-05-24T00:42:17.906394
19342,-0.7828,-0.5041,0.9609,156.590,182.070,-179.130,395,380,402,408,380,2025-05-24T00:42:17.906405
19343,-0.9931,-0.4343,0.8896,168.070,139.300,-153.160,383,380,402,402,378,2025-05-24T00:42:17.906429
19344,-1.0399,-0.2982,0.8647,205.170,107.730,-129.920,388,377,401,402,378,2025-05-24T00:42:17.906440
19345,-1.0375,-0.1215,0.7974,237.370,100.450,-115.850,391,379,400,406,375,2025-05-24T00:42:17.906450
19346,-1.0141,0.0605,0.7110,265.020,91.630,-105.000,393,375,399,404,373,2025-05-24T00:42:17.906459
19347,-0.9350,0.1991,0.6251,291.830,71.890,-82.390,391,375,397,400,371,2025-05-24T00:42:17.906469
19348,-0.9340,0.2557,0.5675,304.360,61.180,-66.500,387,371,394,400,368,2025-05-24T00:42:17.906479
19349,-0.9706,0.3035,0.5602,311.920,56.840,-62.020,387,367,393,394,368,2025-05-24T00:42:17.906521
19350,-0.9755,0.3972,0.5212,284.200,88.830,-75.460,388,367,392,392,368,2025-05-24T00:42:17.906531
19351,-1.0341,0.4372,0.4553,264.530,99.470,-69.440,388,369,391,399,369,2025-05-24T00:42:17.906540
19352,-1.0116,0.5470,0.3650,251.230,96.110,-60.480,385,365,389,397,367,2025-05-24T00:42:17.906550
19353,-0.9228,0.6364,0.2908,244.790,90.300,-47.740,384,363,384,384,359,2025-05-24T00:42:18.119781
19354,-0.8350,0.6915,0.2840,239.330,95.620,-37.520,381,358,382,387,358,2025-05-24T00:42:18.119828
19355,-0.7940,0.7271,0.3065,234.920,87.150,-28.280,376,351,373,377,350,2025-05-24T00:42:18.119858
19356,-0.7613,0.7681,0.2991,235.480,63.770,-9.240,371,343,367,376,344,2025-05-24T00:42:18.119868
19357,-0.7359,0.8276,0.2440,228.900,38.080,10.430,369,339,364,372,342,2025-05-24T00:42:18.119878
19358,-0.7169,0.8730,0.1723,233.940,13.790,23.240,367,339,362,374,340,2025-05-24T00:42:18.119888
19359,-0.6700,0.9052,0.1176,224.350,18.550,24.360,368,343,364,370,342,2025-05-24T00:42:18.119897
19360,-0.6466,0.9311,0.1220,208.880,23.590,25.830,362,339,361,372,339,2025-05-24T00:42:18.119910
19361,-0.6139,0.9775,0.1649,191.800,19.320,26.670,362,335,358,366,336,2025-05-24T00:42:18.119920
19362,-0.6037,0.9677,0.1571,168.840,14.840,25.340,358,333,355,365,334,2025-05-24T00:42:18.119932
19363,-0.5895,0.9897,0.1537,148.890,8.820,23.310,358,332,354,352,332,2025-05-24T00:42:18.119941
19364,-0.5778,1.0004,0.1649,126.630,3.500,21.070,265,232,254,276,235,2025-05-24T00:42:18.119950
19365,-0.5314,1.0287,0.1659,106.540,-6.020,20.860,264,236,258,279,238,2025-05-24T00:42:18.119958
19366,-0.5012,1.0180,0.1610,91.350,-11.900,21.980,265,234,257,275,235,2025-05-24T00:42:18.119967
19367,-0.4841,1.0053,0.1566,77.210,-13.370,23.660,262,231,253,274,231,2025-05-24T00:42:18.120005
19368,-0.4934,1.0111,0.1825,70.350,-14.630,26.250,258,221,247,255,223,2025-05-24T00:42:18.120014
19369,-0.4973,1.0102,0.1976,63.070,-17.010,26.530,251,211,235,257,212,2025-05-24T00:42:18.302868
19370,-0.4743,1.0048,0.1820,53.480,-16.940,24.500,242,204,226,249,203,2025-05-24T00:42:18.302919
19371,-0.4470,1.0209,0.1854,42.000,-14.910,22.750,242,197,221,245,198,2025-05-24T00:42:18.302932
19372,-0.3748,1.0204,0.1771,31.360,-4.690,22.890,236,193,217,239,194,2025-05-24T00:42:18.302944
19373,-0.3601,1.0297,0.1708,24.430,11.900,21.420,234,193,211,235,195,2025-05-24T00:42:18.302972
19374,-0.3967,1.0004,0.1781,17.640,19.810,19.880,236,196,200,241,193,2025-05-24T00:42:18.302982
19375,-0.4094,0.9775,0.1996,16.380,28.770,19.600,290,182,186,222,184,2025-05-24T00:42:18.302992
19376,-0.4246,0.9916,0.2001,13.510,29.540,19.880,262,209,179,226,184,2025-05-24T00:42:18.303006
19377,-0.4290,0.9867,0.1976,7.560,26.950,19.880,320,215,183,225,180,2025-05-24T00:42:18.303018
19378,-0.4329,0.9384,0.1874,-0.420,18.200,18.970,314,198,192,223,183,2025-05-24T00:42:18.303028
19379,-0.4055,0.9243,0.1942,-4.410,8.540,16.660,328,197,199,222,204,2025-05-24T00:42:18.303041
19380,-0.3533,0.9248,0.2152,-3.220,0.980,15.960,331,194,193,230,205,2025-05-24T00:42:18.303051
19381,-0.3211,0.9004,0.2094,0.980,-4.620,14.980,265,185,196,228,208,2025-05-24T00:42:18.303060
19382,-0.3001,0.9087,0.2157,3.710,-1.050,13.160,354,185,182,222,208,2025-05-24T00:42:18.303069
19383,-0.3377,0.8886,0.2206,3.360,1.260,9.730,389,186,193,226,203,2025-05-24T00:42:18.303118
19384,-0.4304,0.8511,0.2416,-2.240,2.800,6.230,369,186,189,220,206,2025-05-24T00:42:18.303131
19385,-0.4982,0.8433,0.2591,-6.580,2.940,1.890,387,188,188,225,220,2025-05-24T00:42:18.303141
19386,-0.5275,0.8457,0.2645,-11.270,-0.350,-1.050,357,174,187,227,217,2025-05-24T00:42:18.303154
19387,-0.5666,0.8335,0.2591,-13.930,-3.990,-3.920,394,179,186,227,218,2025-05-24T00:42:18.348034
19388,-0.5944,0.8208,0.2591,-15.820,-9.730,-4.760,332,171,185,228,216,2025-05-24T00:42:18.348080
19389,-0.5729,0.8233,0.2582,-14.630,-14.210,-2.310,381,172,183,230,222,2025-05-24T00:42:18.348092
19390,-0.5539,0.8228,0.2738,-14.280,-14.420,4.760,400,175,183,230,223,2025-05-24T00:42:18.348101
19391,-0.5158,0.8306,0.2908,-13.930,-8.890,12.390,387,174,197,225,221,2025-05-24T00:42:18.399365
19392,-0.4904,0.8384,0.2967,-18.410,4.130,17.570,325,174,193,230,222,2025-05-24T00:42:18.399416
19393,-0.5183,0.8198,0.2865,-22.470,14.280,19.810,380,184,192,223,220,2025-05-24T00:42:18.399429
19394,-0.5475,0.8091,0.2996,-24.290,19.950,18.480,401,191,195,228,220,2025-05-24T00:42:18.399439
19395,-0.5456,0.8159,0.3016,-26.250,23.590,17.150,404,190,191,230,225,2025-05-24T00:42:18.497150
19396,-0.5519,0.7974,0.2996,-25.760,23.870,15.680,343,190,189,229,222,2025-05-24T00:42:18.497194
19397,-0.5373,0.7998,0.3138,-23.030,21.980,14.070,355,195,190,232,225,2025-05-24T00:42:18.497205
19398,-0.5187,0.8115,0.3250,-21.140,21.910,13.510,384,191,189,236,227,2025-05-24T00:42:18.497231
19399,-0.5095,0.8213,0.3284,-19.390,20.440,14.000,390,199,190,232,223,2025-05-24T00:42:18.497240
19400,-0.5041,0.8311,0.3309,-20.440,19.460,17.150,394,198,191,237,223,2025-05-24T00:42:18.497248
19401,-0.4900,0.8140,0.3167,-22.050,18.270,18.550,398,200,191,237,227,2025-05-24T00:42:18.497259
19402,-0.5090,0.7862,0.2967,-23.170,19.810,15.820,374,186,192,221,230,2025-05-24T00:42:18.497435
19403,-0.5475,0.7774,0.2938,-16.730,14.700,14.280,382,195,191,235,221,2025-05-24T00:42:18.702515
19404,-0.5485,0.7842,0.3055,-10.780,12.110,12.670,376,188,191,232,216,2025-05-24T00:42:18.702563
19405,-0.5427,0.7954,0.3118,-8.050,13.230,11.340,380,178,191,220,219,2025-05-24T00:42:18.702592
19406,-0.5134,0.8237,0.3167,-11.060,13.930,13.160,385,202,192,231,239,2025-05-24T00:42:18.702603
19407,-0.4948,0.8301,0.3148,-15.540,14.700,14.770,385,349,192,231,244,2025-05-24T00:42:18.702613
19408,-0.4856,0.8296,0.3157,-20.020,20.160,14.910,402,334,192,230,236,2025-05-24T00:42:18.702623
19409,-0.4826,0.8286,0.3079,-20.650,19.810,15.400,375,325,193,233,238,2025-05-24T00:42:18.702632
19410,-0.4792,0.8145,0.3128,-23.380,18.690,15.190,380,338,197,227,250,2025-05-24T00:42:18.702641
19411,-0.5075,0.7745,0.3055,-21.910,15.750,15.190,402,353,199,217,241,2025-05-24T00:42:18.702651
19412,-0.5173,0.7715,0.3094,-16.170,10.780,16.240,375,346,203,230,228,2025-05-24T00:42:18.702668
19413,-0.4768,0.7886,0.3231,-7.420,9.240,17.290,396,347,203,231,255,2025-05-24T00:42:18.702677
19414,-0.4514,0.8130,0.3299,-1.610,10.010,16.380,373,351,205,232,236,2025-05-24T00:42:18.702689
19415,-0.4285,0.8301,0.3353,-2.450,10.710,15.400,400,361,205,230,227,2025-05-24T00:42:19.136945
19416,-0.4070,0.8418,0.3318,-5.810,8.960,14.560,410,349,184,233,256,2025-05-24T00:42:19.136987
19417,-0.3967,0.8233,0.3045,-6.790,11.060,10.290,404,327,183,235,246,2025-05-24T00:42:19.137054
19418,-0.4046,0.8150,0.2957,-7.770,14.070,4.480,402,374,180,229,256,2025-05-24T00:42:19.137067
19419,-0.4338,0.8013,0.2826,-7.840,15.890,0.070,400,360,181,231,248,2025-05-24T00:42:19.137078
19420,-0.4851,0.7954,0.2625,-11.270,16.380,-3.990,340,351,182,236,240,2025-05-24T00:42:19.137088
19421,-0.4978,0.8018,0.2367,-14.700,14.070,-8.400,364,315,182,229,257,2025-05-24T00:42:19.137097
19422,-0.4851,0.8184,0.2186,-17.570,11.340,-8.890,392,349,186,223,251,2025-05-24T00:42:19.137107
19423,-0.4455,0.8350,0.2015,-22.330,15.610,-9.940,399,349,184,236,242,2025-05-24T00:42:19.137116
19424,-0.4104,0.8438,0.1864,-26.530,23.240,-9.800,383,339,183,235,251,2025-05-24T00:42:19.137125
19425,-0.3592,0.8642,0.1918,-33.600,35.350,-9.100,404,321,188,240,235,2025-05-24T00:42:19.137134
19426,-0.3353,0.8613,0.1810,-43.960,47.460,-9.940,399,326,188,245,247,2025-05-24T00:42:19.137143
19427,-0.3401,0.8272,0.1884,-56.700,63.910,-11.970,395,324,188,230,241,2025-05-24T00:42:19.137153
19428,-0.3758,0.7769,0.2362,-64.400,77.070,-16.100,368,317,188,232,229,2025-05-24T00:42:19.137162
19429,-0.3626,0.7549,0.3128,-62.510,86.310,-22.260,382,313,188,239,243,2025-05-24T00:42:19.137171
19430,-0.2874,0.7598,0.3714,-55.090,97.580,-27.650,381,308,189,236,231,2025-05-24T00:42:19.137179
19431,-0.2069,0.7891,0.3967,-49.560,117.670,-31.920,398,335,188,231,237,2025-05-24T00:42:19.137200
19432,-0.0903,0.8223,0.3982,-47.460,151.410,-33.810,397,320,190,238,249,2025-05-24T00:42:19.137211
19433,-0.1264,0.7847,0.3479,-50.890,182.980,-35.210,407,309,190,240,250,2025-05-24T00:42:19.137220
19434,-0.3035,0.7022,0.2996,-48.300,215.530,-39.270,341,198,185,270,247,2025-05-24T00:42:19.137229
19435,-0.5705,0.6451,0.3045,-43.960,226.100,-48.510,366,200,196,237,253,2025-05-24T00:42:19.137239
19436,-0.8174,0.5905,0.2904,-36.120,210.560,-58.310,376,330,202,244,218,2025-05-24T00:42:19.137248
19437,-0.9516,0.5856,0.2650,-22.470,176.330,-63.140,338,320,201,265,251,2025-05-24T00:42:19.137257
19438,-0.9048,0.6329,0.2133,-13.930,154.490,-67.340,376,302,202,263,258,2025-05-24T00:42:19.137269
19439,-0.7740,0.6671,0.1586,-18.200,155.610,-78.750,338,323,199,265,251,2025-05-24T00:42:19.137278
19440,-0.7257,0.7325,0.1200,0.840,142.240,-53.900,376,278,192,268,232,2025-05-24T00:42:19.137287
19441,-0.7242,0.7115,0.0781,6.160,135.660,-32.130,283,340,186,248,257,2025-05-24T00:42:19.137296
19442,-0.8306,0.6720,0.0454,3.990,133.700,-15.470,358,348,187,264,169,2025-05-24T00:42:19.137304
19443,-0.9960,0.6232,0.0371,10.010,115.710,-9.940,370,337,184,257,234,2025-05-24T00:42:19.137312
19444,-1.0775,0.5788,-0.0195,19.460,95.060,-10.360,386,341,182,269,251,2025-05-24T00:42:19.137321
19445,-1.0926,0.6310,0.0107,27.580,77.420,-13.650,390,330,193,273,247,2025-05-24T00:42:19.137330
19446,-0.9365,0.6861,0.0107,25.130,82.320,-16.590,377,286,196,271,283,2025-05-24T00:42:19.137349
19447,-0.8306,0.7232,-0.0122,11.060,93.940,-9.170,397,337,198,295,267,2025-05-24T00:42:19.137358
19448,-0.7720,0.7349,-0.0195,3.220,106.540,1.050,379,351,210,271,245,2025-05-24T00:42:19.137366
19449,-0.8037,0.6920,-0.1044,-7.210,114.170,6.790,413,235,200,282,221,2025-05-24T00:42:19.137375
19450,-0.8555,0.6529,-0.1288,-3.990,119.000,13.510,416,270,199,262,210,2025-05-24T00:42:19.137383
19451,-0.9433,0.6339,-0.1327,0.980,112.070,13.440,401,247,201,261,238,2025-05-24T00:42:19.137393
19452,-0.9496,0.6764,-0.1083,6.720,99.120,6.440,425,214,196,264,213,2025-05-24T00:42:19.137402
19453,-0.8247,0.7100,-0.1093,7.280,84.140,2.800,407,256,208,263,204,2025-05-24T00:42:19.137410
19454,-0.7828,0.7340,-0.1244,1.820,71.260,6.160,379,187,202,243,214,2025-05-24T00:42:19.316585
19455,-0.7681,0.7213,-0.1571,-18.200,63.140,11.690,391,281,206,242,219,2025-05-24T00:42:19.316663
19456,-0.7754,0.6934,-0.1791,-16.730,51.030,16.800,399,280,210,227,228,2025-05-24T00:42:19.316679
19457,-0.7564,0.6886,-0.1752,-8.680,42.490,16.100,399,271,206,238,236,2025-05-24T00:42:19.316691
19458,-0.7164,0.7052,-0.1386,3.220,36.470,13.860,378,328,204,240,256,2025-05-24T00:42:19.316703
19459,-0.6856,0.7149,-0.1108,0.770,36.610,9.240,363,208,207,253,233,2025-05-24T00:42:19.316715
19460,-0.6656,0.7032,-0.1142,9.240,31.080,6.720,411,278,200,248,232,2025-05-24T00:42:19.316726
19461,-0.6749,0.7066,-0.1098,4.340,38.010,1.750,388,262,196,253,230,2025-05-24T00:42:19.316736
19462,-0.6905,0.7247,-0.1166,-7.420,38.360,0.910,408,295,199,253,232,2025-05-24T00:42:19.316751
19463,-0.6842,0.7091,-0.1215,6.300,21.420,1.820,301,267,203,264,228,2025-05-24T00:42:19.316763
19464,-0.7003,0.6974,-0.1615,8.680,16.940,-1.260,383,270,237,249,207,2025-05-24T00:42:19.316775
19465,-0.7144,0.7022,-0.1698,12.810,2.240,1.120,395,284,248,250,193,2025-05-24T00:42:19.316786
19466,-0.6783,0.7169,-0.1698,17.360,-1.330,2.030,417,353,266,245,181,2025-05-24T00:42:19.316797
19467,-0.6837,0.7047,-0.1913,9.380,17.780,2.940,401,372,271,243,182,2025-05-24T00:42:19.316811
19468,-0.7247,0.7013,-0.2011,4.480,3.710,1.190,423,406,216,207,182,2025-05-24T00:42:19.316865
19469,-0.7237,0.7105,-0.2191,3.780,5.810,0.560,433,398,281,248,182,2025-05-24T00:42:19.316881
19470,-0.7462,0.7164,-0.2255,2.240,5.810,-0.140,353,386,243,250,183,2025-05-24T00:42:19.316894
19471,-0.6998,0.7257,-0.2313,-2.100,7.700,-2.030,399,410,274,249,180,2025-05-24T00:42:19.521441
19472,-0.6808,0.7335,-0.2303,-8.190,5.670,1.540,373,341,285,270,182,2025-05-24T00:42:19.521502
19473,-0.6930,0.7213,-0.2211,-7.560,6.160,2.520,417,391,248,286,183,2025-05-24T00:42:19.521517
19474,-0.6666,0.7266,-0.2157,-3.430,3.150,3.920,411,414,287,310,186,2025-05-24T00:42:19.521531
19475,-0.6608,0.7159,-0.2001,1.120,5.600,6.860,424,426,262,275,189,2025-05-24T00:42:19.521544
19476,-0.6910,0.6974,-0.1972,2.940,6.650,6.440,409,391,302,327,190,2025-05-24T00:42:19.521578
19477,-0.6725,0.7154,-0.1810,5.670,7.910,5.530,417,402,287,309,190,2025-05-24T00:42:19.521590
19478,-0.6856,0.7139,-0.1693,6.930,8.960,0.420,428,379,303,324,190,2025-05-24T00:42:19.521603
19479,-0.6759,0.7335,-0.1718,2.310,5.530,-2.450,436,414,325,329,188,2025-05-24T00:42:19.521619
19480,-0.6671,0.7291,-0.1825,3.010,-2.450,-2.380,415,414,336,334,191,2025-05-24T00:42:19.521630
19481,-0.6276,0.7496,-0.1796,3.850,-3.920,-3.150,345,418,341,347,282,2025-05-24T00:42:19.521643
19482,-0.5836,0.7486,-0.1815,-4.900,17.290,0.350,409,422,357,327,288,2025-05-24T00:42:19.521655
19483,-0.6417,0.7096,-0.2059,-6.230,12.040,3.850,388,434,363,349,219,2025-05-24T00:42:19.521670
19484,-0.6856,0.7091,-0.1893,-2.310,16.450,2.170,392,307,360,369,208,2025-05-24T00:42:19.521681
19485,-0.7047,0.7174,-0.1801,-2.240,16.730,0.560,353,393,376,399,312,2025-05-24T00:42:19.521746
19486,-0.7159,0.7183,-0.1708,0.280,13.300,0.350,410,422,349,339,333,2025-05-24T00:42:19.521758
19487,-0.7076,0.7203,-0.1659,-1.330,9.590,-0.420,388,369,371,360,358,2025-05-24T00:42:19.522145
19488,-0.6500,0.7330,-0.1635,-1.610,6.230,1.470,419,396,348,341,364,2025-05-24T00:42:19.743451
19489,-0.6393,0.7300,-0.1708,-0.840,10.290,4.200,402,365,325,367,365,2025-05-24T00:42:19.743507
19490,-0.6437,0.7320,-0.1801,-4.550,15.610,5.740,422,420,355,386,396,2025-05-24T00:42:19.743528
19491,-0.6539,0.7154,-0.2035,-5.880,20.300,6.650,407,422,378,400,397,2025-05-24T00:42:19.743540
19492,-0.6944,0.7169,-0.2084,-8.050,27.720,5.740,390,405,377,401,385,2025-05-24T00:42:19.743552
19493,-0.7149,0.7037,-0.2172,-9.660,25.760,3.290,385,416,387,397,395,2025-05-24T00:42:19.743563
19494,-0.7188,0.6920,-0.2259,-1.610,17.500,1.540,404,381,372,400,411,2025-05-24T00:42:19.743574
19495,-0.6871,0.7154,-0.2162,3.710,9.940,-0.280,393,389,375,404,398,2025-05-24T00:42:19.743585
19496,-0.6412,0.7330,-0.2211,6.090,-0.980,0.350,375,385,339,389,410,2025-05-24T00:42:19.743597
19497,-0.6115,0.7266,-0.2284,10.080,-5.320,2.100,416,418,366,395,396,2025-05-24T00:42:19.743608
19498,-0.5666,0.7437,-0.2186,11.830,-4.060,6.160,365,422,365,406,390,2025-05-24T00:42:19.743619
19499,-0.5617,0.7462,-0.2255,8.330,6.720,8.260,382,362,384,373,344,2025-05-24T00:42:19.743629
19500,-0.6012,0.7330,-0.2108,-0.280,20.860,5.670,366,410,377,378,348,2025-05-24T00:42:19.743640
19501,-0.6608,0.7071,-0.2011,-8.610,29.680,2.450,413,405,376,388,386,2025-05-24T00:42:19.743650
19502,-0.7037,0.6842,-0.2176,-7.070,31.290,-2.030,411,388,389,387,400,2025-05-24T00:42:19.743697
19503,-0.6993,0.6993,-0.2006,-6.650,24.430,-3.010,356,418,397,383,397,2025-05-24T00:42:19.743710
19504,-0.7008,0.6974,-0.2303,1.820,17.360,-1.960,327,396,351,404,357,2025-05-24T00:42:19.743737
19505,-0.6681,0.7203,-0.2333,7.350,2.380,-0.490,323,406,374,393,385,2025-05-24T00:42:19.743748
19506,-0.6495,0.7325,-0.2435,12.390,-5.110,2.800,407,418,379,393,383,2025-05-24T00:42:19.743758
19507,-0.6295,0.7432,-0.2523,10.570,-9.450,5.740,396,369,375,381,396,2025-05-24T00:42:19.788611
19508,-0.6505,0.7218,-0.2674,10.780,-6.090,5.320,360,412,344,408,365,2025-05-24T00:42:19.788862
19509,-0.6393,0.7213,-0.2591,7.980,1.330,4.270,330,416,362,356,338,2025-05-24T00:42:19.788876
19510,-0.6544,0.7169,-0.2762,4.270,10.150,3.850,403,417,373,387,381,2025-05-24T00:42:19.788891
19511,-0.6461,0.7242,-0.2552,3.010,18.340,0.770,394,431,341,407,396,2025-05-24T00:42:19.837239
19512,-0.6617,0.7178,-0.2479,3.500,20.020,-1.120,391,406,356,401,395,2025-05-24T00:42:19.837289
19513,-0.6769,0.7042,-0.2450,5.810,14.350,-2.380,411,422,327,405,405,2025-05-24T00:42:19.837302
19514,-0.6281,0.7247,-0.2308,8.680,5.740,-2.660,416,308,311,412,360,2025-05-24T00:42:19.837312
19515,-0.5934,0.7427,-0.2396,9.870,1.890,0.000,398,390,343,400,380,2025-05-24T00:42:19.941607
19516,-0.5993,0.7374,-0.2557,9.380,2.450,4.270,402,420,364,394,398,2025-05-24T00:42:19.941665
19517,-0.6242,0.7198,-0.2689,9.310,4.830,6.230,401,388,369,400,409,2025-05-24T00:42:19.941679
19518,-0.6520,0.7066,-0.2630,7.140,7.000,5.460,417,386,347,417,414,2025-05-24T00:42:19.941710
19519,-0.6456,0.7218,-0.2538,9.870,14.070,2.660,403,390,340,418,414,2025-05-24T00:42:19.941722
19520,-0.6315,0.7232,-0.2757,5.880,20.440,2.800,401,344,335,353,399,2025-05-24T00:42:19.941734
19521,-0.6578,0.7110,-0.2899,0.210,24.010,1.050,389,386,332,382,408,2025-05-24T00:42:19.941744
19522,-0.6700,0.7071,-0.2747,1.540,22.540,-0.980,300,421,349,404,406,2025-05-24T00:42:19.941755
19523,-0.6817,0.7071,-0.2850,4.060,14.630,-0.140,321,407,369,415,415,2025-05-24T00:42:20.135573
19524,-0.6686,0.7149,-0.2889,6.720,5.180,0.700,397,419,375,398,420,2025-05-24T00:42:20.135620
19525,-0.6159,0.7276,-0.3074,7.840,1.190,3.010,415,346,372,311,404,2025-05-24T00:42:20.135654
19526,-0.6163,0.7149,-0.3030,9.030,1.050,5.880,422,411,364,362,398,2025-05-24T00:42:20.135665
19527,-0.6495,0.7261,-0.2952,9.520,-0.140,5.180,383,420,375,400,418,2025-05-24T00:42:20.135676
19528,-0.6232,0.7344,-0.2904,8.050,-2.100,3.430,340,351,382,414,406,2025-05-24T00:42:20.135688
19529,-0.6124,0.7281,-0.3089,3.850,-0.350,2.730,335,378,346,424,423,2025-05-24T00:42:20.135698
19530,-0.6242,0.7208,-0.3070,2.100,3.360,-0.140,368,354,372,322,402,2025-05-24T00:42:20.135708
19531,-0.6373,0.6954,-0.3138,7.980,1.190,-2.030,395,402,382,393,410,2025-05-24T00:42:20.135718
19532,-0.6442,0.7071,-0.3133,12.880,-4.270,-1.960,347,419,384,410,362,2025-05-24T00:42:20.135732
19533,-0.6066,0.7408,-0.3099,12.040,-6.860,1.680,335,426,393,412,347,2025-05-24T00:42:20.135743
19534,-0.6046,0.7354,-0.3304,12.110,-11.060,4.620,399,429,388,408,381,2025-05-24T00:42:20.135757
19535,-0.6085,0.7125,-0.3338,11.410,-7.560,4.970,387,413,385,403,387,2025-05-24T00:42:20.135766
19536,-0.6310,0.7105,-0.3187,10.710,-5.950,3.990,393,417,379,415,384,2025-05-24T00:42:20.135776
19537,-0.6305,0.7100,-0.3016,14.000,-1.890,1.260,417,396,353,415,386,2025-05-24T00:42:20.135818
19538,-0.6163,0.7271,-0.2826,13.580,-2.590,-0.140,394,411,366,416,403,2025-05-24T00:42:20.135827
19539,-0.6242,0.7208,-0.2884,8.260,-6.720,-0.700,388,436,375,409,404,2025-05-24T00:42:20.135837
19540,-0.6285,0.7125,-0.2952,10.990,-7.700,-1.260,415,423,385,397,390,2025-05-24T00:42:20.375506
19541,-0.6310,0.7159,-0.3040,11.480,-9.030,-0.420,404,352,372,399,380,2025-05-24T00:42:20.375570
19542,-0.6383,0.7154,-0.3143,5.390,-10.080,0.490,350,342,388,370,381,2025-05-24T00:42:20.375583
19543,-0.6407,0.6852,-0.3489,11.760,-6.580,3.500,402,357,390,390,383,2025-05-24T00:42:20.375595
19544,-0.6476,0.7008,-0.3279,19.040,-5.320,5.250,403,403,347,385,386,2025-05-24T00:42:20.375605
19545,-0.6461,0.7261,-0.2972,16.800,-6.020,4.060,394,421,369,390,384,2025-05-24T00:42:20.375617
19546,-0.6305,0.7257,-0.2967,15.540,-4.760,1.190,412,430,348,413,392,2025-05-24T00:42:20.375627
19547,-0.6037,0.7374,-0.2943,10.290,-2.940,-1.610,433,427,353,394,388,2025-05-24T00:42:20.375639
19548,-0.6017,0.7344,-0.2977,3.990,-0.560,-3.640,358,371,369,402,309,2025-05-24T00:42:20.375649
19549,-0.6261,0.7135,-0.3099,3.640,1.330,-6.160,382,404,339,409,369,2025-05-24T00:42:20.375658
19550,-0.6486,0.6969,-0.3562,5.740,-2.170,-6.790,398,434,370,411,395,2025-05-24T00:42:20.375667
19551,-0.6407,0.6998,-0.3533,8.680,-2.870,-5.600,385,392,380,417,404,2025-05-24T00:42:20.375676
19552,-0.6437,0.7120,-0.3621,14.210,-1.260,-3.920,428,429,379,407,349,2025-05-24T00:42:20.375686
19553,-0.6539,0.7422,-0.3333,10.500,-2.870,-4.200,421,427,382,393,382,2025-05-24T00:42:20.375694
19554,-0.6417,0.7310,-0.3231,2.170,0.560,-6.510,420,410,378,417,390,2025-05-24T00:42:20.375742
19555,-0.6700,0.7252,-0.3431,-0.910,-0.490,-9.590,426,399,379,381,377,2025-05-24T00:42:20.375752
19556,-0.6510,0.7086,-0.3572,-3.500,-5.390,-14.700,414,395,382,346,320,2025-05-24T00:42:20.375761
19557,-0.6456,0.7013,-0.3738,-6.370,-13.370,-18.690,355,345,368,336,341,2025-05-24T00:42:20.375770
19558,-0.5958,0.7242,-0.3728,-4.130,-16.520,-18.270,382,412,352,319,337,2025-05-24T00:42:20.375779
19559,-0.6012,0.7442,-0.3533,-9.660,-11.690,-16.380,405,416,340,273,336,2025-05-24T00:42:20.552767
19560,-0.6276,0.7110,-0.3665,-15.960,-7.350,-12.600,415,409,315,265,312,2025-05-24T00:42:20.552822
19561,-0.6715,0.6734,-0.3309,-14.070,-6.090,-11.550,402,415,306,309,318,2025-05-24T00:42:20.552855
19562,-0.6974,0.6876,-0.3235,-9.030,-4.270,-13.020,398,418,289,296,321,2025-05-24T00:42:20.552871
19563,-0.6715,0.6895,-0.2948,-10.500,-3.920,-13.370,403,398,300,284,308,2025-05-24T00:42:20.552883
19564,-0.7008,0.6944,-0.2611,-13.650,-5.810,-14.910,416,358,302,316,271,2025-05-24T00:42:20.552897
19565,-0.7139,0.6715,-0.2801,-15.470,-10.570,-11.690,408,388,295,313,313,2025-05-24T00:42:20.722442
19566,-0.7247,0.6656,-0.2826,-12.460,-17.010,-6.020,411,356,281,284,180,2025-05-24T00:42:20.722474
19567,-0.6520,0.7056,-0.3006,-12.740,-22.330,-1.750,385,301,288,292,180,2025-05-24T00:42:20.722486
19568,-0.5915,0.7271,-0.2933,-22.050,-16.170,1.470,388,335,284,214,181,2025-05-24T00:42:20.722497
19569,-0.6603,0.6871,-0.3309,-30.590,-5.320,1.190,400,319,283,225,142,2025-05-24T00:42:20.722527
19570,-0.6529,0.6656,-0.3338,-26.880,-8.120,-2.380,356,268,273,224,145,2025-05-24T00:42:20.722541
19571,-0.6168,0.7135,-0.3060,-16.590,-13.510,-7.420,319,293,254,224,138,2025-05-24T00:42:20.722552
19572,-0.5295,0.7154,-0.2923,-12.040,-7.770,-10.080,325,258,244,231,139,2025-05-24T00:42:20.722750
19573,-0.5534,0.7105,-0.2874,-8.890,-4.060,-10.640,266,267,264,236,140,2025-05-24T00:42:20.722812
19574,-0.6076,0.7071,-0.2367,-8.330,-5.880,-11.270,340,262,238,221,140,2025-05-24T00:42:20.750229
19575,-0.6320,0.6925,-0.2552,-9.940,-8.610,-9.590,297,259,255,200,142,2025-05-24T00:42:20.750313
19576,-0.6588,0.6690,-0.2582,-7.910,-6.020,-6.790,285,272,244,229,143,2025-05-24T00:42:20.750340
19577,-0.6856,0.6578,-0.2455,-3.290,0.140,-4.620,266,249,264,226,144,2025-05-24T00:42:20.750360
19578,-0.7510,0.6642,-0.2386,-2.800,2.870,-3.220,304,252,269,224,144,2025-05-24T00:42:20.750379
19579,-0.7349,0.6578,-0.2650,-0.980,3.360,-1.890,328,247,239,236,143,2025-05-24T00:42:20.750397
19580,-0.7330,0.6773,-0.2752,-0.280,0.910,-1.190,322,249,272,235,137,2025-05-24T00:42:20.750413
19581,-0.7071,0.6822,-0.3118,-0.280,-2.310,-0.630,332,245,254,227,129,2025-05-24T00:42:20.750437
19582,-0.6764,0.6837,-0.3348,-1.890,-5.530,0.420,323,250,231,229,129,2025-05-24T00:42:20.750454
19583,-0.6515,0.6871,-0.3436,-1.680,-6.860,2.870,345,252,242,231,130,2025-05-24T00:42:20.750736
19584,-0.6344,0.7022,-0.3338,-0.630,-5.110,3.010,354,305,249,229,130,2025-05-24T00:42:20.750753
19585,-0.6544,0.7022,-0.3050,-1.330,-1.540,1.190,370,327,259,225,131,2025-05-24T00:42:20.750768
19586,-0.6622,0.7066,-0.2635,-0.700,-1.890,-1.400,398,318,244,216,130,2025-05-24T00:42:20.750784
19587,-0.6583,0.7110,-0.2450,-2.800,-0.350,-3.290,399,326,272,221,129,2025-05-24T00:42:20.750800
19588,-0.6608,0.7169,-0.2303,-2.450,-1.050,-5.250,392,269,271,214,130,2025-05-24T00:42:20.750873
19589,-0.6651,0.7071,-0.2523,-2.030,-4.970,-4.340,349,315,279,202,131,2025-05-24T00:42:20.750891
19590,-0.6622,0.7061,-0.2811,-3.010,-12.390,-1.960,334,299,265,212,132,2025-05-24T00:42:20.750906
19591,-0.6608,0.7008,-0.2923,-4.060,-13.160,0.490,383,328,275,211,133,2025-05-24T00:42:20.955327
19592,-0.6866,0.6895,-0.2923,-2.310,-12.530,2.870,395,308,241,213,134,2025-05-24T00:42:20.955382
19593,-0.7091,0.6915,-0.2796,0.910,-12.530,3.430,386,238,284,205,138,2025-05-24T00:42:20.955396
19594,-0.6793,0.7003,-0.2718,-1.190,-11.270,4.410,373,312,277,213,140,2025-05-24T00:42:20.955409
19595,-0.6617,0.6988,-0.2582,-2.870,-8.680,4.130,382,311,273,212,143,2025-05-24T00:42:20.955420
19596,-0.6764,0.7076,-0.2513,-4.270,-1.610,1.470,412,330,285,215,144,2025-05-24T00:42:20.955431
19597,-0.6866,0.6920,-0.2621,-4.760,-4.620,0.980,392,283,271,208,170,2025-05-24T00:42:20.955445
19598,-0.6837,0.6778,-0.2791,-0.770,-15.820,0.560,398,337,274,199,214,2025-05-24T00:42:20.955457
19599,-0.6271,0.6998,-0.2816,0.630,-20.720,-0.420,392,274,274,214,219,2025-05-24T00:42:20.955485
19600,-0.6124,0.7081,-0.2869,0.210,-20.860,0.490,414,290,277,204,221,2025-05-24T00:42:20.955496
19601,-0.6159,0.7047,-0.2708,0.980,-17.500,0.840,412,317,242,211,215,2025-05-24T00:42:20.955506
19602,-0.6583,0.6910,-0.2455,1.330,-14.840,-0.210,402,336,281,204,209,2025-05-24T00:42:20.955516
19603,-0.6651,0.7071,-0.2255,0.070,-13.580,-0.420,301,301,241,188,208,2025-05-24T00:42:20.955527
19604,-0.6686,0.6920,-0.2201,-0.910,-10.780,-0.210,378,319,279,219,220,2025-05-24T00:42:20.955541
19605,-0.6881,0.6910,-0.2142,0.630,-7.910,-0.420,401,318,249,211,223,2025-05-24T00:42:20.955587
19606,-0.7086,0.6812,-0.2274,4.060,-7.490,-1.540,413,335,240,216,147,2025-05-24T00:42:20.955599
19607,-0.7154,0.6910,-0.2416,7.490,-10.710,-1.470,381,266,278,207,147,2025-05-24T00:42:20.955610
19608,-0.6974,0.6983,-0.2499,8.470,-14.350,-1.330,392,297,280,213,147,2025-05-24T00:42:21.006163
19609,-0.6817,0.7076,-0.2508,7.140,-15.470,-2.240,371,321,293,234,165,2025-05-24T00:42:21.006215
19610,-0.6769,0.6930,-0.2621,5.740,-12.600,-2.800,369,321,255,198,169,2025-05-24T00:42:21.006228
19611,-0.6827,0.6934,-0.2484,6.790,-10.710,-3.640,329,342,290,243,168,2025-05-24T00:42:21.006240
19612,-0.6651,0.7096,-0.2089,7.140,-8.750,-6.930,311,351,290,237,167,2025-05-24T00:42:21.188006
19613,-0.6612,0.7091,-0.2108,1.960,-10.640,-9.030,382,337,279,243,169,2025-05-24T00:42:21.188033
19614,-0.6578,0.6681,-0.2796,-2.520,-12.250,-7.910,367,355,276,243,169,2025-05-24T00:42:21.188039
19615,-0.7174,0.6656,-0.2567,-2.590,-16.100,-4.970,323,350,296,251,188,2025-05-24T00:42:21.188044
19616,-0.7261,0.6559,-0.2396,-1.260,-3.500,-3.360,391,350,288,231,189,2025-05-24T00:42:21.188048
19617,-0.7374,0.6603,-0.2377,2.800,-19.390,-2.800,388,315,297,253,194,2025-05-24T00:42:21.188052
19618,-0.6959,0.6666,-0.1967,3.920,-28.000,-2.240,408,348,274,245,191,2025-05-24T00:42:21.188057
19619,-0.7047,0.6520,-0.2464,0.000,-19.950,-5.180,373,377,241,263,193,2025-05-24T00:42:21.188061
19620,-0.7164,0.6778,-0.2250,-6.160,-4.410,-11.130,400,329,229,270,192,2025-05-24T00:42:21.188076
19621,-0.7135,0.6744,-0.2455,-14.000,-25.200,-9.310,393,361,226,273,263,2025-05-24T00:42:21.188080
19622,-0.6983,0.6525,-0.3045,-6.720,-19.670,-10.710,395,384,218,301,313,2025-05-24T00:42:21.188084
19623,-0.7081,0.6939,-0.2445,2.590,-32.060,-9.380,339,375,208,285,327,2025-05-24T00:42:21.188088
19624,-0.7183,0.6983,-0.2269,1.610,-28.560,-8.050,375,376,215,317,338,2025-05-24T00:42:21.188091
19625,-0.7144,0.7008,-0.2381,-0.210,-30.940,-9.240,361,389,283,335,337,2025-05-24T00:42:21.188096
19626,-0.7183,0.6905,-0.2460,-1.820,-26.600,-11.830,399,378,282,345,320,2025-05-24T00:42:21.188117
19627,-0.7022,0.6925,-0.2791,-14.350,-20.930,-11.970,348,319,310,347,312,2025-05-24T00:42:21.364584
19628,-0.6934,0.6788,-0.2733,-14.700,-18.480,-13.790,377,376,315,338,327,2025-05-24T00:42:21.364635
19629,-0.7501,0.6954,-0.1996,-17.290,-15.960,-16.940,388,317,322,344,343,2025-05-24T00:42:21.364649
19630,-0.7666,0.7169,-0.2167,-20.370,-23.450,-18.690,384,342,291,329,332,2025-05-24T00:42:21.364660
19631,-0.7710,0.6720,-0.2596,-22.330,-32.760,-20.370,373,388,285,338,341,2025-05-24T00:42:21.364671
19632,-0.7784,0.6749,-0.2264,-21.420,-37.450,-19.390,379,368,284,341,284,2025-05-24T00:42:21.364681
19633,-0.7188,0.6666,-0.2303,-20.300,-50.190,-14.490,337,377,312,321,335,2025-05-24T00:42:21.364691
19634,-0.7139,0.6373,-0.1523,-23.030,-31.710,-15.470,378,348,326,322,325,2025-05-24T00:42:21.364701
19635,-0.7588,0.6227,-0.0825,-20.160,-38.850,-13.090,394,398,340,327,321,2025-05-24T00:42:21.364712
19636,-0.7842,0.6007,-0.0947,-11.690,-43.120,-11.480,395,385,335,327,328,2025-05-24T00:42:21.364722
19637,-0.7813,0.5954,-0.0966,-6.300,-33.110,-16.590,360,327,324,328,285,2025-05-24T00:42:21.364734
19638,-0.7393,0.6388,-0.0610,4.060,-32.340,-17.080,376,371,327,332,279,2025-05-24T00:42:21.364745
19639,-0.7242,0.6612,-0.0693,2.590,-22.890,-20.720,379,379,337,349,311,2025-05-24T00:42:21.364755
19640,-0.7666,0.6568,-0.0932,-2.030,-25.130,-21.140,421,384,332,337,336,2025-05-24T00:42:21.364803
19641,-0.7842,0.6437,-0.1064,2.170,-33.530,-19.880,428,390,326,332,286,2025-05-24T00:42:21.364813
19642,-0.7427,0.6656,-0.1074,-4.690,-28.630,-0.070,352,348,335,341,335,2025-05-24T00:42:21.570453
19643,-0.7232,0.6695,-0.1147,-9.660,-23.450,-15.260,401,327,346,348,331,2025-05-24T00:42:21.570496
19644,-0.7491,0.6520,-0.1342,-18.970,-27.650,-14.280,393,389,358,299,342,2025-05-24T00:42:21.570508
19645,-0.8003,0.6578,-0.1591,-19.810,-31.220,-16.310,347,333,362,365,336,2025-05-24T00:42:21.570519
19646,-0.7867,0.6690,-0.1601,-14.280,-40.950,-18.690,382,334,374,329,338,2025-05-24T00:42:21.570528
19647,-0.7549,0.6651,-0.1859,-16.100,-38.010,-17.710,341,401,384,356,338,2025-05-24T00:42:21.570537
19648,-0.7305,0.7135,-0.0996,-0.840,-32.130,-13.370,403,404,345,370,336,2025-05-24T00:42:21.570546
19649,-0.6564,0.6549,-0.0810,10.640,-20.370,-9.240,417,409,373,382,349,2025-05-24T00:42:21.570559
19650,-0.6895,0.6032,0.0034,9.940,-3.010,-5.320,426,405,380,347,335,2025-05-24T00:42:21.570568
19651,-0.7671,0.5754,0.0600,13.090,1.680,-3.850,416,413,372,366,346,2025-05-24T00:42:21.570576
19652,-0.7779,0.5617,0.0795,17.290,0.350,-4.480,397,403,379,376,357,2025-05-24T00:42:21.570585
19653,-0.7925,0.5646,0.0844,18.130,0.700,-5.110,406,394,377,374,353,2025-05-24T00:42:21.570594
19654,-0.7935,0.5822,0.0342,16.870,-3.500,-6.370,393,393,380,368,348,2025-05-24T00:42:21.570602
19655,-0.7959,0.5866,-0.0429,20.230,-18.130,-6.230,397,405,383,361,330,2025-05-24T00:42:21.570610
19656,-0.7442,0.6110,-0.1098,20.580,-22.750,-5.460,354,395,382,367,341,2025-05-24T00:42:21.570829
19657,-0.7149,0.6456,-0.1767,17.920,-19.600,-3.920,399,415,382,381,321,2025-05-24T00:42:21.570840
19658,-0.7403,0.6471,-0.2211,13.160,-13.510,1.190,414,427,371,361,334,2025-05-24T00:42:21.570849
19659,-0.7798,0.6344,-0.2089,11.550,-4.620,2.310,417,404,363,349,336,2025-05-24T00:42:21.776430
19660,-0.8355,0.6329,-0.1430,11.480,1.750,0.210,427,395,366,360,289,2025-05-24T00:42:21.776512
19661,-0.8535,0.6154,-0.0610,11.830,2.590,-0.910,427,390,379,347,328,2025-05-24T00:42:21.776534
19662,-0.8106,0.6154,-0.0190,13.860,-0.350,0.210,415,340,341,350,347,2025-05-24T00:42:21.776554
19663,-0.7818,0.6232,-0.0005,11.900,-0.980,0.490,416,360,357,356,305,2025-05-24T00:42:21.776574
19664,-0.7837,0.6398,-0.0483,7.210,-3.150,-0.490,418,408,328,363,329,2025-05-24T00:42:21.776592
19665,-0.7876,0.6261,-0.1093,6.580,-13.160,-3.150,433,415,346,354,330,2025-05-24T00:42:21.776611
19666,-0.7847,0.6481,-0.1586,6.930,-14.770,-3.150,415,422,372,377,346,2025-05-24T00:42:21.776628
19667,-0.7788,0.6598,-0.1576,3.780,-13.720,-1.540,379,422,371,382,338,2025-05-24T00:42:21.776644
19668,-0.7608,0.6632,-0.1752,4.060,-11.620,0.420,420,411,371,378,359,2025-05-24T00:42:21.776660
19669,-0.7515,0.6529,-0.1410,3.430,-1.120,-2.310,409,402,371,389,366,2025-05-24T00:42:21.776676
19670,-0.7930,0.6242,-0.0508,3.570,-3.850,-4.270,421,418,376,337,367,2025-05-24T00:42:21.776750
19671,-0.8252,0.6012,0.0127,4.410,-10.780,-6.160,419,408,383,358,384,2025-05-24T00:42:21.776770
19672,-0.8013,0.5832,0.0351,8.750,-14.700,-7.420,401,390,383,374,322,2025-05-24T00:42:21.776786
19673,-0.7901,0.6022,-0.0015,5.950,-17.640,-7.630,348,351,345,389,352,2025-05-24T00:42:21.776856
19674,-0.7901,0.6329,-0.0337,3.080,-17.010,-5.810,379,405,358,406,367,2025-05-24T00:42:21.776871
19675,-0.7720,0.6198,-0.0815,2.870,-8.330,-1.960,397,399,365,410,337,2025-05-24T00:42:21.776885
19676,-0.8062,0.6154,-0.1303,3.920,-5.460,0.840,406,436,370,413,373,2025-05-24T00:42:21.830892
19677,-0.8433,0.6027,-0.1171,3.710,-1.680,0.840,414,442,381,411,340,2025-05-24T00:42:21.830943
19678,-0.8691,0.6076,-0.0932,3.850,-0.210,0.350,349,428,395,403,366,2025-05-24T00:42:21.830956
19679,-0.8496,0.5929,-0.0712,3.430,-1.890,-1.400,390,431,380,410,375,2025-05-24T00:42:21.830966
19680,-0.8091,0.6159,-0.0795,3.290,-6.510,-3.430,387,426,390,351,374,2025-05-24T00:42:21.830976
19681,-0.7652,0.6173,-0.0834,4.060,-7.700,-3.220,343,404,348,357,377,2025-05-24T00:42:21.992374
19682,-0.7520,0.5983,-0.0488,6.860,-2.660,-0.420,377,413,357,366,393,2025-05-24T00:42:21.992421
19683,-0.7798,0.5861,-0.0366,7.210,0.770,2.380,394,349,363,385,375,2025-05-24T00:42:21.992433
19684,-0.7954,0.5944,-0.0717,4.830,-3.430,1.540,381,378,343,368,379,2025-05-24T00:42:21.992445
19685,-0.8032,0.5988,-0.1684,2.660,-8.330,1.470,394,422,367,385,358,2025-05-24T00:42:21.992455
19686,-0.8086,0.5988,-0.1752,3.780,-10.430,1.750,398,387,380,345,366,2025-05-24T00:42:21.992465
19687,-0.8028,0.6246,-0.1527,0.280,-5.390,-0.280,394,403,371,384,350,2025-05-24T00:42:21.992475
19688,-0.7906,0.6320,-0.1523,-5.600,-2.590,-3.850,412,420,367,391,377,2025-05-24T00:42:21.992484
19689,-0.7852,0.6393,-0.1122,-2.100,-6.160,-4.340,419,419,374,346,356,2025-05-24T00:42:21.992494
19690,-0.7706,0.6129,-0.1054,-3.780,-5.740,-5.390,407,398,376,379,384,2025-05-24T00:42:21.992503
19691,-0.7901,0.6100,-0.0854,-3.430,-7.280,-5.110,415,395,338,407,392,2025-05-24T00:42:21.992514
19692,-0.8208,0.6017,-0.0708,-1.540,-12.880,-5.740,418,436,363,417,390,2025-05-24T00:42:21.992523
19693,-0.8003,0.6090,-0.0405,0.280,-16.940,-6.510,422,422,374,409,404,2025-05-24T00:42:21.992532
19694,-0.7359,0.6202,-0.0268,0.350,-15.190,-6.930,358,368,349,408,367,2025-05-24T00:42:22.184063
19695,-0.6842,0.6315,-0.0215,-0.490,-5.880,-4.970,401,396,357,415,373,2025-05-24T00:42:22.184113
19696,-0.7457,0.6266,-0.0766,-4.970,5.180,-4.200,414,351,371,401,384,2025-05-24T00:42:22.184126
19697,-0.8257,0.6373,-0.1425,-9.520,7.700,-3.430,354,363,381,395,397,2025-05-24T00:42:22.184138
19698,-0.8647,0.6290,-0.1176,-7.280,8.470,-2.520,383,398,393,406,410,2025-05-24T00:42:22.184149
19699,-0.9482,0.5822,-0.0376,0.000,0.840,-0.630,416,418,355,413,400,2025-05-24T00:42:22.184159
19700,-0.9467,0.6168,-0.0215,0.840,-7.070,-2.450,417,425,362,426,390,2025-05-24T00:42:22.184170
19701,-0.8276,0.6193,-0.0185,5.110,-13.370,-3.360,428,425,362,409,389,2025-05-24T00:42:22.184179
19702,-0.7335,0.5963,-0.0049,7.980,-17.850,-2.310,343,431,362,416,411,2025-05-24T00:42:22.184189
19703,-0.7203,0.5880,-0.0210,10.640,-9.450,1.050,380,440,339,358,399,2025-05-24T00:42:22.184199
19704,-0.7647,0.5856,-0.0410,9.240,-4.340,4.550,382,425,346,340,392,2025-05-24T00:42:22.184208
19705,-0.8047,0.5871,-0.0688,10.710,-3.220,5.320,413,402,367,373,397,2025-05-24T00:42:22.184218
19706,-0.8150,0.5885,-0.0864,8.820,1.260,7.070,389,419,378,392,374,2025-05-24T00:42:22.184227
19707,-0.8213,0.5724,-0.0752,3.150,7.490,6.860,401,403,378,394,350,2025-05-24T00:42:22.184236
19708,-0.8369,0.5739,-0.0844,-0.140,11.970,4.410,400,421,371,387,386,2025-05-24T00:42:22.184279
19709,-0.8408,0.5871,-0.0917,0.980,10.010,2.450,418,360,381,378,400,2025-05-24T00:42:22.184289
19710,-0.8008,0.6007,-0.1108,3.010,-0.560,-4.480,429,384,349,395,413,2025-05-24T00:42:22.393183
19711,-0.7603,0.6212,-0.1415,1.330,-12.040,-8.120,396,415,372,408,414,2025-05-24T00:42:22.393234
19712,-0.7183,0.6364,-0.1786,2.520,-26.600,-7.210,393,412,342,355,413,2025-05-24T00:42:22.393251
19713,-0.7774,0.6110,-0.1591,3.080,-26.040,-3.080,393,415,356,347,398,2025-05-24T00:42:22.393263
19714,-0.8447,0.5788,-0.0742,2.310,-19.670,17.500,412,426,369,390,393,2025-05-24T00:42:22.393274
19715,-0.8838,0.5573,-0.0083,3.080,-12.530,3.990,423,396,374,407,411,2025-05-24T00:42:22.555660
19716,-0.8667,0.5671,0.0020,2.380,-5.670,2.940,344,375,381,391,401,2025-05-24T00:42:22.555713
19717,-0.8247,0.5915,-0.0142,0.140,-3.710,0.770,382,388,380,352,394,2025-05-24T00:42:22.555730
19718,-0.7959,0.5885,-0.0756,-0.490,-7.630,-2.870,404,401,374,397,412,2025-05-24T00:42:22.555744
19719,-0.7745,0.6139,-0.1440,1.680,-15.190,-4.690,420,381,374,354,419,2025-05-24T00:42:22.555759
19720,-0.7505,0.6266,-0.1513,7.420,-21.700,-4.270,397,404,346,395,425,2025-05-24T00:42:22.555778
19721,-0.7432,0.6124,-0.1054,10.780,-19.950,-0.840,402,349,374,401,414,2025-05-24T00:42:22.555795
19722,-0.7530,0.6202,-0.0561,7.350,-14.490,0.490,380,379,379,387,410,2025-05-24T00:42:22.555809
19723,-0.8096,0.6056,-0.0400,1.960,-9.590,1.680,393,421,387,395,394,2025-05-24T00:42:22.555821
19724,-0.8428,0.5797,-0.0137,0.420,-6.230,-1.050,366,426,382,388,404,2025-05-24T00:42:22.555929
19725,-0.8886,0.5636,-0.0298,0.630,-10.010,-1.750,405,397,389,402,416,2025-05-24T00:42:22.555943
19726,-0.8560,0.5700,-0.0522,3.360,-10.570,0.910,392,401,387,390,402,2025-05-24T00:42:22.555957
19727,-0.8442,0.5890,-0.0669,3.710,-6.720,3.430,299,407,384,361,400,2025-05-24T00:42:22.555969
19728,-0.8150,0.6041,-0.0898,5.530,-6.650,4.270,403,403,343,402,397,2025-05-24T00:42:22.625893
19729,-0.7618,0.6403,-0.0952,6.790,-10.080,3.080,421,409,371,402,399,2025-05-24T00:42:22.625941
19730,-0.7452,0.6276,-0.0732,6.720,-9.590,3.010,400,430,352,397,391,2025-05-24T00:42:22.625954
19731,-0.7652,0.6202,-0.0322,8.820,-2.730,3.360,402,425,360,309,398,2025-05-24T00:42:22.625965
19732,-0.8115,0.6232,-0.0298,3.990,1.540,3.500,411,428,371,358,410,2025-05-24T00:42:22.625975
19733,-0.8960,0.5973,-0.0351,0.140,0.910,4.270,402,356,383,382,399,2025-05-24T00:42:22.625988
19734,-0.9121,0.5841,-0.0390,1.610,-0.840,4.830,336,364,393,409,392,2025-05-24T00:42:22.625998
19735,-0.9091,0.5949,-0.0468,3.920,-1.820,6.440,402,415,391,396,406,2025-05-24T00:42:22.626007
19736,-0.9038,0.6007,-0.0454,4.690,-3.500,8.120,429,395,389,410,371,2025-05-24T00:42:22.626016
19737,-0.8696,0.6124,-0.0429,5.390,-7.980,6.160,391,414,388,417,395,2025-05-24T00:42:22.626025
19738,-0.8150,0.6354,-0.0820,2.590,-10.430,3.990,415,404,390,415,384,2025-05-24T00:42:22.626036
19739,-0.7749,0.6456,-0.1054,-0.420,-10.710,3.080,357,388,398,407,375,2025-05-24T00:42:22.626045
19740,-0.7740,0.6481,-0.1049,0.700,-11.200,3.080,377,386,389,395,385,2025-05-24T00:42:22.626053
19741,-0.7788,0.6456,-0.0971,1.610,-14.840,1.470,414,404,393,397,391,2025-05-24T00:42:22.626267
19742,-0.7657,0.6656,-0.0922,-0.700,-14.980,0.560,417,422,352,394,384,2025-05-24T00:42:22.626310
19743,-0.7486,0.6681,-0.1049,0.350,-14.560,1.050,395,404,370,376,407,2025-05-24T00:42:22.626320
19744,-0.7515,0.6647,-0.0976,2.520,-11.970,1.540,398,408,336,353,408,2025-05-24T00:42:22.626330
19745,-0.7471,0.6686,-0.0756,2.240,-10.780,1.750,368,354,368,387,410,2025-05-24T00:42:22.626339
19746,0.0000,0.0000,0.0000,0.000,0.000,0.000,396,388,334,390,412,2025-05-24T00:42:22.626347
19747,0.0000,0.0000,0.0000,0.000,0.000,0.000,419,398,365,395,402,2025-05-24T00:42:22.626356
19748,0.0000,0.0000,0.0000,0.000,0.000,0.000,425,419,364,346,353,2025-05-24T00:42:22.710011
19749,0.0000,0.0000,0.0000,0.000,0.000,0.000,409,409,379,371,379,2025-05-24T00:42:22.710055
19750,0.0000,0.0000,0.0000,0.000,0.000,0.000,417,401,371,379,344,2025-05-24T00:42:22.710066
19751,0.0000,0.0000,0.0000,0.000,0.000,0.000,398,304,373,390,374,2025-05-24T00:42:22.710075
19752,0.0000,0.0000,0.0000,0.000,0.000,0.000,407,383,340,374,381,2025-05-24T00:42:22.710084
19753,-0.8179,0.6046,-0.0508,-5.810,-4.830,9.310,400,399,365,397,395,2025-05-24T00:42:22.803594
19754,-0.7710,0.6388,-0.0556,-2.590,-6.720,9.310,393,389,377,406,362,2025-05-24T00:42:22.803646
19755,-0.7403,0.6559,-0.1074,-5.530,-6.580,7.840,413,390,345,393,382,2025-05-24T00:42:22.803661
19756,-0.7218,0.6100,-0.0210,-0.210,-7.420,7.280,384,369,357,408,403,2025-05-24T00:42:22.803673
19757,-0.7315,0.6417,-0.0190,5.460,-12.530,1.400,387,390,375,409,396,2025-05-24T00:42:22.803683
19758,-0.7281,0.5973,-0.0132,4.340,-16.450,1.750,414,359,384,401,394,2025-05-24T00:42:22.803695
19759,-0.7340,0.5958,0.0034,6.370,-15.470,1.050,424,384,389,389,400,2025-05-24T00:42:22.803705
19760,-0.7813,0.5851,-0.0102,6.440,-10.640,3.640,368,365,372,401,383,2025-05-24T00:42:22.803716
19761,-0.8052,0.5822,-0.0244,3.780,-9.170,4.620,414,401,367,385,377,2025-05-24T00:42:22.803726
19762,-0.8086,0.5919,-0.0791,3.920,-9.380,2.730,417,387,376,385,378,2025-05-24T00:42:22.803737
19763,-0.7910,0.6173,-0.1254,4.410,-11.340,2.030,400,367,377,390,400,2025-05-24T00:42:22.850948
19764,-0.7769,0.6198,-0.1240,2.170,-12.670,1.470,368,425,385,407,410,2025-05-24T00:42:22.850990
19765,-0.7720,0.6183,-0.1074,0.420,-13.860,1.330,339,433,394,351,406,2025-05-24T00:42:22.851000
19766,-0.7598,0.6271,-0.1035,0.700,-15.050,1.260,401,425,390,374,420,2025-05-24T00:42:22.851009
19767,-0.7701,0.6198,-0.0795,1.680,-13.790,-0.140,407,416,394,407,389,2025-05-24T00:42:22.899878
19768,-0.8091,0.5983,-0.0278,1.120,-15.540,1.120,411,412,318,383,387,2025-05-24T00:42:22.899922
19769,-0.8320,0.6017,-0.0117,2.030,-15.820,1.960,407,415,347,355,370,2025-05-24T00:42:22.899933
19770,-0.8272,0.6251,-0.0400,0.560,-14.140,2.310,366,390,333,285,367,2025-05-24T00:42:22.899944
19771,-0.8267,0.6315,-0.0654,-1.820,-16.520,2.590,418,401,343,294,357,2025-05-24T00:42:22.981550
19772,-0.7491,0.6422,-0.0561,0.000,-17.710,1.120,427,400,364,318,355,2025-05-24T00:42:22.981596
19773,-0.7291,0.6422,-0.0381,0.630,-13.300,1.400,346,377,378,351,332,2025-05-24T00:42:22.981608
19774,-0.7466,0.6315,-0.0161,-1.540,-9.940,2.800,404,396,385,343,342,2025-05-24T00:42:22.981618
19775,-0.7471,0.6124,0.0181,0.770,-4.830,3.430,412,420,381,337,322,2025-05-24T00:42:23.191827
19776,-0.7764,0.6032,0.0303,2.240,2.170,2.240,404,427,386,324,283,2025-05-24T00:42:23.191874
19777,-0.8081,0.6071,-0.0200,0.420,-2.870,1.470,420,418,398,331,328,2025-05-24T00:42:23.191887
19778,-0.7989,0.6188,-0.0415,1.820,-8.050,2.170,360,376,353,327,319,2025-05-24T00:42:23.191898
19779,-0.7906,0.6310,-0.0322,4.690,-8.750,2.450,408,398,378,289,325,2025-05-24T00:42:23.191908
19780,-0.7637,0.6446,-0.0229,3.570,-8.120,2.660,400,424,390,328,280,2025-05-24T00:42:23.191918
19781,-0.7525,0.6554,-0.0151,3.080,-6.580,1.540,401,421,375,344,307,2025-05-24T00:42:23.191928
19782,-0.7579,0.6442,-0.0122,0.140,-5.460,1.190,395,430,390,345,312,2025-05-24T00:42:23.191938
19783,-0.7540,0.6368,-0.0156,0.910,-1.890,-0.700,355,350,377,342,329,2025-05-24T00:42:23.191947
19784,-0.7520,0.6242,-0.0122,3.360,2.940,-2.170,322,363,366,331,303,2025-05-24T00:42:23.191957
19785,-0.7984,0.6159,0.0107,3.920,2.660,-2.450,389,411,376,304,294,2025-05-24T00:42:23.191967
19786,-0.8111,0.6256,0.0024,5.250,0.280,-2.520,344,305,366,334,282,2025-05-24T00:42:23.191977
19787,-0.7998,0.6310,-0.0464,6.370,-1.260,-2.870,380,391,368,251,301,2025-05-24T00:42:23.191986
19788,-0.7876,0.6481,-0.0874,6.160,-2.450,-3.990,402,425,369,338,343,2025-05-24T00:42:23.191994
19789,-0.7788,0.6676,-0.0908,7.490,-5.740,-4.690,414,422,384,330,330,2025-05-24T00:42:23.192037
19790,-0.7613,0.6690,-0.0712,7.560,-4.550,-6.300,402,408,385,367,383,2025-05-24T00:42:23.192049
19791,-0.7471,0.6715,-0.0600,1.260,-8.680,-6.930,412,412,385,390,399,2025-05-24T00:42:23.192058
19792,-0.7135,0.7037,-0.0293,7.210,-1.120,-7.070,412,350,346,399,400,2025-05-24T00:42:23.192066
19793,-0.7413,0.5866,0.0161,11.060,-4.900,-12.530,424,390,363,399,386,2025-05-24T00:42:23.192075
19794,-0.7291,0.6349,0.0205,6.300,-7.490,-6.580,409,396,378,356,398,2025-05-24T00:42:23.192084
19795,-0.7549,0.5993,0.0273,6.860,-5.740,-4.480,421,407,366,390,414,2025-05-24T00:42:23.431067
19796,-0.7964,0.5954,0.0288,11.340,-0.140,-2.380,404,394,376,407,352,2025-05-24T00:42:23.431115
19797,-0.8501,0.5983,0.0059,12.950,-2.240,0.350,396,300,383,412,385,2025-05-24T00:42:23.431128
19798,-0.8467,0.6041,-0.0366,12.390,-6.860,-0.070,409,367,386,380,360,2025-05-24T00:42:23.431139
19799,-0.8301,0.5885,-0.0444,14.630,-10.570,-0.770,424,388,394,340,342,2025-05-24T00:42:23.431149
19800,-0.7652,0.6349,-0.0932,13.510,-9.870,1.050,365,394,392,378,369,2025-05-24T00:42:23.431159
19801,-0.7901,0.6159,-0.1010,5.390,-7.770,1.190,375,412,354,390,376,2025-05-24T00:42:23.431168
19802,-0.8159,0.6032,-0.0747,3.220,-7.000,1.890,415,425,366,354,338,2025-05-24T00:42:23.431178
19803,-0.8345,0.5763,-0.0312,5.950,-8.820,1.960,366,423,381,337,347,2025-05-24T00:42:23.431187
19804,-0.8613,0.5876,-0.0166,5.320,-12.530,0.630,415,402,390,335,356,2025-05-24T00:42:23.431197
19805,-0.8281,0.6061,-0.0400,4.690,-19.390,-0.560,415,417,383,327,350,2025-05-24T00:42:23.431205
19806,-0.7701,0.6339,-0.0756,6.860,-22.050,-2.590,385,410,397,277,335,2025-05-24T00:42:23.431215
19807,-0.7627,0.6520,-0.0820,5.810,-25.060,-3.010,394,417,388,299,338,2025-05-24T00:42:23.431224
19808,-0.7593,0.6451,-0.0781,4.690,-25.550,-2.660,420,429,384,332,352,2025-05-24T00:42:23.431233
19809,-0.7720,0.6320,-0.0488,5.950,-21.840,-2.800,379,403,368,243,310,2025-05-24T00:42:23.431241
19810,0.0000,0.0000,0.0000,0.000,0.000,0.000,393,415,371,292,292,2025-05-24T00:42:23.431286
19811,0.0000,0.0000,0.0000,0.000,0.000,0.000,418,421,359,269,340,2025-05-24T00:42:23.431297
19812,0.0000,0.0000,0.0000,0.000,0.000,0.000,368,425,350,321,344,2025-05-24T00:42:23.431305
19813,0.0000,0.0000,0.0000,0.000,0.000,0.000,413,423,348,272,354,2025-05-24T00:42:23.431316
19814,0.0000,0.0000,0.0000,0.000,0.000,0.000,424,386,370,330,367,2025-05-24T00:42:23.431325
19815,0.0000,0.0000,0.0000,0.000,0.000,0.000,421,402,377,316,371,2025-05-24T00:42:23.431334
19816,0.0000,0.0000,0.0000,0.000,0.000,0.000,416,359,338,288,355,2025-05-24T00:42:23.477960
19817,0.0000,0.0000,0.0000,0.000,0.000,0.000,417,406,367,350,331,2025-05-24T00:42:23.478009
19818,0.0000,0.0000,0.0000,0.000,0.000,0.000,418,406,386,312,326,2025-05-24T00:42:23.478024
19819,0.0000,0.0000,0.0000,0.000,0.000,0.000,425,426,384,338,321,2025-05-24T00:42:23.478034
19820,0.0000,0.0000,0.0000,0.000,0.000,0.000,422,359,388,354,362,2025-05-24T00:42:23.478044
19821,0.0000,0.0000,0.0000,0.000,0.000,0.000,407,387,390,300,377,2025-05-24T00:42:23.478053
19822,0.0000,0.0000,0.0000,0.000,0.000,0.000,395,411,377,347,389,2025-05-24T00:42:23.528158
19823,0.0000,0.0000,0.0000,0.000,0.000,0.000,389,419,371,342,401,2025-05-24T00:42:23.528207
19824,0.0000,0.0000,0.0000,2.240,-13.370,2.520,340,411,338,353,402,2025-05-24T00:42:23.528219
19825,-0.7901,0.6139,0.0498,-0.560,-13.650,1.960,391,403,356,352,352,2025-05-24T00:42:23.528229
19826,-0.7842,0.6256,0.0078,-2.100,-18.970,-1.890,389,396,348,345,385,2025-05-24T00:42:23.753745
19827,-0.7706,0.6354,-0.0327,-4.060,-25.970,-3.290,414,412,341,385,399,2025-05-24T00:42:23.754012
19828,-0.7793,0.6251,-0.0371,-1.820,-26.040,-2.660,417,423,355,385,411,2025-05-24T00:42:23.754027
19829,-0.7984,0.6207,-0.0181,1.400,-23.940,-1.680,418,422,365,381,401,2025-05-24T00:42:23.754037
19830,-0.8101,0.6193,0.0020,2.170,-24.010,-2.450,400,411,336,344,352,2025-05-24T00:42:23.754140
19831,-0.7974,0.6134,0.0298,3.850,-26.600,-3.430,422,436,370,377,391,2025-05-24T00:42:23.754193
19832,0.0000,0.0000,0.0000,0.000,0.000,0.000,422,414,390,399,390,2025-05-24T00:42:23.754205
19833,0.0000,0.0000,0.0000,0.000,0.000,0.000,427,344,356,372,345,2025-05-24T00:42:23.754215
19834,0.0000,0.0000,0.0000,0.000,0.000,0.000,426,386,378,332,354,2025-05-24T00:42:23.754228
19835,0.0000,0.0000,0.0000,0.000,0.000,0.000,359,338,384,359,365,2025-05-24T00:42:23.754237
19836,0.0000,0.0000,0.0000,0.000,0.000,0.000,323,397,345,331,347,2025-05-24T00:42:23.754246
19837,0.0000,0.0000,0.0000,0.000,0.000,0.000,394,365,318,351,346,2025-05-24T00:42:23.754255
19838,0.0000,0.0000,0.0000,0.000,0.000,0.000,403,395,233,354,329,2025-05-24T00:42:23.754264
19839,0.0000,0.0000,0.0000,0.000,0.000,0.000,405,340,230,362,336,2025-05-24T00:42:23.754272
19840,-0.8335,0.7066,-0.0527,-4.970,17.360,0.000,419,377,224,317,322,2025-05-24T00:42:23.754281
19841,0.0000,0.0000,0.0000,0.000,0.000,0.000,407,400,231,220,335,2025-05-24T00:42:23.754341
19842,0.0000,0.0000,0.0000,0.000,0.000,0.000,424,347,295,219,326,2025-05-24T00:42:23.754351
19843,0.0000,0.0000,0.0000,0.000,0.000,0.000,411,414,312,220,312,2025-05-24T00:42:23.754359
19844,0.0000,0.0000,0.0000,0.000,0.000,0.000,382,409,226,216,255,2025-05-24T00:42:23.754367
19845,0.0000,0.0000,0.0000,0.000,0.000,0.000,398,430,218,217,333,2025-05-24T00:42:23.754376
19846,0.0000,0.0000,0.0000,0.000,0.000,0.000,405,420,219,222,329,2025-05-24T00:42:23.754384
19847,0.0000,0.0000,0.0000,0.000,0.000,0.000,420,337,216,265,321,2025-05-24T00:42:23.824740
19848,0.0000,0.0000,0.0000,0.000,0.000,0.000,404,403,216,275,311,2025-05-24T00:42:23.824813
19849,0.0000,0.0000,0.0000,0.000,0.000,0.000,395,398,232,215,332,2025-05-24T00:42:23.824831
19850,0.0000,0.0000,0.0000,0.000,0.000,0.000,403,404,301,204,331,2025-05-24T00:42:23.824845
19851,0.0000,0.0000,0.0000,0.000,0.000,0.000,410,406,331,205,329,2025-05-24T00:42:23.824858
19852,0.0000,0.0000,0.0000,0.000,0.000,0.000,424,367,326,209,338,2025-05-24T00:42:23.824871
19853,0.0000,0.0000,0.0000,0.000,0.000,0.000,415,400,341,210,323,2025-05-24T00:42:23.824884
19854,0.0000,0.0000,0.0000,0.000,0.000,0.000,428,402,338,212,340,2025-05-24T00:42:23.824896
19855,0.0000,0.0000,0.0000,0.000,0.000,0.000,412,347,306,212,332,2025-05-24T00:42:24.057508
19856,0.0000,0.0000,0.0000,0.000,0.000,0.000,391,383,327,211,284,2025-05-24T00:42:24.057555
19857,0.0000,0.0000,0.0000,0.000,0.000,0.000,345,395,333,209,332,2025-05-24T00:42:24.057567
19858,0.0000,0.0000,0.0000,0.000,0.000,0.000,287,406,353,208,338,2025-05-24T00:42:24.057579
19859,0.0000,0.0000,0.0000,0.000,0.000,0.000,398,391,343,208,341,2025-05-24T00:42:24.057588
19860,0.0000,0.0000,0.0000,0.000,0.000,0.000,418,406,357,209,345,2025-05-24T00:42:24.057599
19861,0.0000,0.0000,0.0000,0.000,0.000,0.000,409,413,334,208,326,2025-05-24T00:42:24.057609
19862,0.0000,0.0000,0.0000,0.000,0.000,0.000,425,419,352,211,336,2025-05-24T00:42:24.057621
19863,0.0000,0.0000,0.0000,0.000,0.000,0.000,418,420,350,238,340,2025-05-24T00:42:24.057630
19864,0.0000,0.0000,0.0000,0.000,0.000,0.000,399,425,346,245,289,2025-05-24T00:42:24.057639
19865,0.0000,0.0000,0.0000,0.000,0.000,0.000,416,424,342,258,295,2025-05-24T00:42:24.204730
19866,0.0000,0.0000,0.0000,0.000,0.000,0.000,401,401,351,260,348,2025-05-24T00:42:24.204744
19867,0.0000,0.0000,0.0000,0.000,0.000,0.000,391,425,344,342,363,2025-05-24T00:42:24.204749
19868,0.0000,0.0000,0.0000,0.000,0.000,0.000,392,420,341,328,369,2025-05-24T00:42:24.204753
19869,0.0000,0.0000,0.0000,0.000,0.000,0.000,388,398,323,325,375,2025-05-24T00:42:24.204757
19870,0.0000,0.0000,0.0000,0.000,0.000,0.000,410,397,326,355,333,2025-05-24T00:42:24.204791
19871,0.0000,0.0000,0.0000,0.000,0.000,0.000,424,355,341,367,317,2025-05-24T00:42:24.204795
19872,0.0000,0.0000,0.0000,0.000,0.000,0.000,422,337,333,302,348,2025-05-24T00:42:24.204799
19873,0.0000,0.0000,0.0000,0.000,0.000,0.000,403,373,338,342,331,2025-05-24T00:42:24.204804
19874,0.0000,0.0000,0.0000,0.000,0.000,0.000,397,408,309,340,328,2025-05-24T00:42:24.204809
19875,0.0000,0.0000,0.0000,0.000,0.000,0.000,399,420,338,346,369,2025-05-24T00:42:24.241777
19876,0.0000,0.0000,0.0000,0.000,0.000,0.000,418,372,317,339,375,2025-05-24T00:42:24.241805
19877,0.0000,0.0000,0.0000,0.000,0.000,0.000,424,393,298,343,357,2025-05-24T00:42:24.241811
19878,0.0000,0.0000,0.0000,0.000,0.000,0.000,427,380,324,288,333,2025-05-24T00:42:24.241816
19879,0.0000,0.0000,0.0000,0.000,0.000,0.000,407,407,337,319,352,2025-05-24T00:42:24.241820
19880,0.0000,0.0000,0.0000,0.000,0.000,0.000,428,412,343,275,346,2025-05-24T00:42:24.241825
19881,0.0000,0.0000,0.0000,0.000,0.000,0.000,426,408,354,287,360,2025-05-24T00:42:24.241830
19882,0.0000,0.0000,0.0000,0.000,0.000,0.000,374,395,343,271,360,2025-05-24T00:42:24.241835
19883,0.0000,0.0000,0.0000,0.000,0.000,0.000,375,405,226,263,357,2025-05-24T00:42:24.241839
19884,0.0000,0.0000,0.0000,0.000,0.000,0.000,405,335,230,253,338,2025-05-24T00:42:24.241842
19885,0.0000,0.0000,0.0000,0.000,0.000,0.000,415,318,225,233,336,2025-05-24T00:42:24.241846
19886,0.0000,0.0000,0.0000,0.000,0.000,0.000,377,381,223,255,328,2025-05-24T00:42:24.241850
19887,0.0000,0.0000,0.0000,0.000,0.000,0.000,385,381,223,256,297,2025-05-24T00:42:24.241854
19888,0.0000,0.0000,0.0000,0.000,0.000,0.000,396,390,222,250,322,2025-05-24T00:42:24.241860
19889,0.0000,0.0000,0.0000,0.000,0.000,0.000,369,386,223,253,253,2025-05-24T00:42:24.241863
19890,0.0000,0.0000,0.0000,0.000,0.000,0.000,412,349,275,248,293,2025-05-24T00:42:24.241885
19891,0.0000,0.0000,0.0000,0.000,0.000,0.000,414,392,280,250,297,2025-05-24T00:42:24.241889
19892,0.0000,0.0000,0.0000,0.000,0.000,0.000,399,403,304,250,316,2025-05-24T00:42:24.241894
19893,0.0000,0.0000,0.0000,0.000,0.000,0.000,371,400,305,247,337,2025-05-24T00:42:24.241898
19894,0.0000,0.0000,0.0000,0.000,0.000,0.000,376,368,281,248,317,2025-05-24T00:42:24.241902
19895,0.0000,0.0000,0.0000,0.000,0.000,0.000,395,394,310,250,278,2025-05-24T00:42:24.241905
19896,0.0000,0.0000,0.0000,0.000,0.000,0.000,403,390,303,243,324,2025-05-24T00:42:24.330525
19897,0.0000,0.0000,0.0000,0.000,0.000,0.000,400,378,277,246,338,2025-05-24T00:42:24.330556
19898,0.0000,0.0000,0.0000,0.000,0.000,0.000,342,364,307,231,327,2025-05-24T00:42:24.330563
19899,0.0000,0.0000,0.0000,0.000,0.000,0.000,389,390,315,247,299,2025-05-24T00:42:24.330569
19900,0.0000,0.0000,0.0000,0.000,0.000,0.000,415,383,313,244,329,2025-05-24T00:42:24.330575
19901,0.0000,0.0000,0.0000,0.000,0.000,0.000,386,344,249,244,292,2025-05-24T00:42:24.330580
19902,0.0000,0.0000,0.0000,0.000,0.000,0.000,346,393,308,246,310,2025-05-24T00:42:24.436973
19903,0.0000,0.0000,0.0000,0.000,0.000,0.000,389,386,223,250,336,2025-05-24T00:42:24.437017
19904,0.0000,0.0000,0.0000,0.000,0.000,0.000,412,290,222,252,322,2025-05-24T00:42:24.437031
19905,0.0000,0.0000,0.0000,0.000,0.000,0.000,406,396,239,249,306,2025-05-24T00:42:24.437041
19906,0.0000,0.0000,0.0000,0.000,0.000,0.000,383,422,321,232,328,2025-05-24T00:42:24.437052
19907,0.0000,0.0000,0.0000,0.000,0.000,0.000,350,384,321,252,319,2025-05-24T00:42:24.437062
19908,0.0000,0.0000,0.0000,0.000,0.000,0.000,384,407,305,250,325,2025-05-24T00:42:24.437071
19909,0.0000,0.0000,0.0000,0.000,0.000,0.000,406,428,324,241,311,2025-05-24T00:42:24.437080
19910,0.0000,0.0000,0.0000,0.000,0.000,0.000,412,400,326,252,326,2025-05-24T00:42:24.437088
19911,0.0000,0.0000,0.0000,0.000,0.000,0.000,418,357,283,248,275,2025-05-24T00:42:24.437097
19912,0.0000,0.0000,0.0000,0.000,0.000,0.000,405,374,308,244,287,2025-05-24T00:42:24.437105
19913,0.0000,0.0000,0.0000,0.000,0.000,0.000,373,388,279,242,313,2025-05-24T00:42:24.437114
19914,0.0000,0.0000,0.0000,0.000,0.000,0.000,346,368,317,243,296,2025-05-24T00:42:24.437122
19915,0.0000,0.0000,0.0000,0.000,0.000,0.000,335,387,308,235,320,2025-05-24T00:42:24.437350
19916,0.0000,0.0000,0.0000,0.000,0.000,0.000,331,417,203,268,271,2025-05-24T00:42:24.644359
19917,0.0000,0.0000,0.0000,0.000,0.000,0.000,337,337,195,275,302,2025-05-24T00:42:24.644410
19918,0.0000,0.0000,0.0000,0.000,0.000,0.000,355,390,188,292,261,2025-05-24T00:42:24.644423
19919,0.0000,0.0000,0.0000,0.000,0.000,0.000,335,380,191,250,246,2025-05-24T00:42:24.644434
19920,0.0000,0.0000,0.0000,0.000,0.000,0.000,332,364,192,269,267,2025-05-24T00:42:24.644447
19921,0.0000,0.0000,0.0000,0.000,0.000,0.000,344,351,192,287,227,2025-05-24T00:42:24.644457
19922,0.0000,0.0000,0.0000,0.000,0.000,0.000,348,315,197,249,186,2025-05-24T00:42:24.644466
19923,0.0000,0.0000,0.0000,0.000,0.000,0.000,352,373,189,299,184,2025-05-24T00:42:24.644475
19924,0.0000,0.0000,0.0000,0.000,0.000,0.000,330,350,189,292,185,2025-05-24T00:42:24.644485
19925,-0.8076,0.5924,0.1249,10.780,39.690,1.260,346,300,197,295,185,2025-05-24T00:42:24.644494
19926,0.0000,0.0000,0.0000,0.000,0.000,0.000,281,367,197,297,188,2025-05-24T00:42:24.644503
19927,0.0000,0.0000,0.0000,0.000,0.000,0.000,346,378,197,297,189,2025-05-24T00:42:24.644512
19928,0.0000,0.0000,0.0000,0.000,0.000,0.000,339,368,194,296,190,2025-05-24T00:42:24.644521
19929,0.0000,0.0000,0.0000,0.000,0.000,0.000,345,339,198,230,189,2025-05-24T00:42:24.644530
19930,0.0000,0.0000,0.0834,3.360,-21.630,5.600,306,315,183,275,146,2025-05-24T00:42:24.644538
19931,-0.7130,0.7086,0.0893,-4.620,-17.640,4.830,315,333,209,273,141,2025-05-24T00:42:24.644580
19932,-0.7081,0.6930,0.1118,-8.260,-11.760,3.780,290,300,210,231,146,2025-05-24T00:42:24.644590
19933,-0.7222,0.6730,0.1186,-12.390,-1.540,4.620,234,324,195,255,180,2025-05-24T00:42:24.644599
19934,-0.7325,0.6681,0.1205,-9.660,9.450,5.670,278,209,205,293,190,2025-05-24T00:42:24.644610
19935,-0.7598,0.6285,0.1259,-7.000,8.540,2.940,359,350,219,293,192,2025-05-24T00:42:24.696952
19936,-0.7847,0.6422,0.1918,0.630,-0.910,-0.840,386,349,291,295,192,2025-05-24T00:42:24.696998
19937,-0.7832,0.6446,0.2089,-3.150,-6.370,-4.410,409,370,318,295,194,2025-05-24T00:42:24.697010
19938,-0.7457,0.6446,0.1767,-8.960,-21.840,-3.990,408,379,318,305,196,2025-05-24T00:42:24.697019
19939,-0.7169,0.6495,0.2157,-8.470,-30.940,0.420,379,378,322,301,197,2025-05-24T00:42:24.697030
19940,-0.7305,0.6456,0.1972,-9.870,-36.750,7.280,409,377,316,300,196,2025-05-24T00:42:24.959099
19941,-0.6920,0.6368,0.1723,-6.930,-31.570,12.040,374,391,321,302,200,2025-05-24T00:42:24.959132
19942,-0.7091,0.6066,0.1581,0.350,-29.610,14.210,396,399,326,285,200,2025-05-24T00:42:24.959140
19943,-0.7188,0.6681,0.2616,17.920,-34.510,15.540,425,368,286,285,198,2025-05-24T00:42:24.959148
19944,-0.6959,0.7037,0.2674,20.650,-26.950,13.160,430,326,320,270,199,2025-05-24T00:42:24.959154
19945,-0.6803,0.6773,0.2230,12.180,-22.400,9.590,424,324,330,297,203,2025-05-24T00:42:24.959162
19946,-0.7291,0.6778,0.2108,1.540,-14.560,8.470,417,390,321,291,200,2025-05-24T00:42:24.959168
19947,-0.7222,0.6744,0.1918,-1.120,-12.530,7.280,380,362,324,271,200,2025-05-24T00:42:24.959175
19948,-0.6881,0.6866,0.1581,-1.680,-9.800,8.190,405,383,314,281,205,2025-05-24T00:42:24.959181
19949,-0.6822,0.6910,0.1449,4.410,-4.550,11.480,410,361,282,279,206,2025-05-24T00:42:24.959187
19950,-0.7032,0.6905,0.1674,18.970,1.820,18.690,411,394,323,274,205,2025-05-24T00:42:24.959193
19951,-0.7061,0.7096,0.2011,28.980,-3.570,24.010,396,373,323,282,207,2025-05-24T00:42:24.959199
19952,0.0000,0.0000,0.0000,0.000,0.000,0.000,386,370,322,285,200,2025-05-24T00:42:24.959205
19953,0.0000,0.0000,0.0000,0.000,0.000,0.000,402,379,317,278,262,2025-05-24T00:42:24.959211
19954,0.0000,0.0000,0.0000,0.000,0.000,0.000,424,356,330,276,298,2025-05-24T00:42:24.959242
19955,0.0000,0.0000,0.0000,0.000,0.000,0.000,421,296,266,262,313,2025-05-24T00:42:24.959248
19956,-0.6910,0.6730,0.1976,7.280,-12.040,18.830,418,353,312,246,267,2025-05-24T00:42:24.959254
19957,-0.7110,0.6647,0.2186,13.930,-13.860,13.370,416,338,318,216,268,2025-05-24T00:42:24.959261
19958,-0.7632,0.6686,0.2216,31.220,-20.090,10.710,394,351,331,236,255,2025-05-24T00:42:24.959267
19959,-0.7364,0.6339,0.2338,42.000,-30.380,11.200,388,312,296,205,272,2025-05-24T00:42:24.959272
19960,-0.7247,0.6085,0.2601,42.350,-37.100,9.730,318,275,308,224,289,2025-05-24T00:42:25.009689
19961,-0.7091,0.6525,0.3045,42.490,-51.660,8.820,289,339,312,231,274,2025-05-24T00:42:25.009730
19962,-0.6954,0.7056,0.3479,54.320,-76.790,17.640,331,345,323,312,306,2025-05-24T00:42:25.009741
19963,-0.6608,0.6920,0.2694,59.500,-93.450,14.420,410,424,364,441,410,2025-05-24T00:42:25.009751
19964,-0.7247,0.6593,0.2738,44.660,-83.860,9.520,490,463,440,510,437,2025-05-24T00:42:25.009760
19965,-0.6734,0.6315,0.2137,45.780,-85.820,13.300,503,496,461,496,476,2025-05-24T00:42:25.009768
19966,-0.7130,0.6412,0.2128,56.210,-80.990,9.940,426,458,448,438,433,2025-05-24T00:42:25.058897
19967,-0.7174,0.6549,0.2318,64.120,-76.440,2.030,410,433,416,421,431,2025-05-24T00:42:25.058940
19968,-0.7271,0.6852,0.2469,68.600,-73.780,-1.680,496,537,474,526,505,2025-05-24T00:42:25.058952
19969,-0.7198,0.6852,0.2479,62.160,-78.610,-5.670,553,556,507,573,543,2025-05-24T00:42:25.058962
19970,-0.7247,0.7052,0.2323,46.550,-83.090,-11.760,524,552,464,546,528,2025-05-24T00:42:25.278748
19971,-0.6242,0.7208,0.1942,34.510,-90.230,-11.900,513,540,514,558,524,2025-05-24T00:42:25.278799
19972,-0.6783,0.7291,0.1586,37.030,-85.260,-17.360,466,440,474,370,434,2025-05-24T00:42:25.278811
19973,-0.7188,0.7300,0.1606,32.550,-87.430,-21.490,335,353,355,318,304,2025-05-24T00:42:25.278821
19974,-0.6949,0.7139,0.2186,31.430,-98.210,-22.680,270,302,326,284,326,2025-05-24T00:42:25.278831
19975,-0.7598,0.7218,0.2791,22.330,-105.840,-27.440,266,267,310,280,324,2025-05-24T00:42:25.278842
19976,-0.7505,0.7096,0.3738,11.830,-119.630,-36.610,256,253,305,295,244,2025-05-24T00:42:25.278852
19977,-0.6686,0.6939,0.4153,-0.140,-131.250,-44.660,260,262,253,295,249,2025-05-24T00:42:25.278861
19978,-0.6056,0.6710,0.4148,-9.380,-135.730,-56.630,260,259,315,302,271,2025-05-24T00:42:25.278871
19979,-0.5915,0.6368,0.5144,-16.940,-138.670,-71.750,269,274,313,297,264,2025-05-24T00:42:25.278880
19980,-0.6037,0.5602,0.5773,-21.840,-153.300,-86.730,264,275,317,305,272,2025-05-24T00:42:25.278891
19981,-0.5876,0.4953,0.6803,-28.070,-168.420,-109.830,243,276,301,294,275,2025-05-24T00:42:25.278901
19982,-0.5100,0.4670,0.7564,-36.960,-180.810,-137.340,270,289,321,300,258,2025-05-24T00:42:25.278909
19983,-0.4514,0.5026,0.8154,-45.780,-194.810,-165.620,267,287,323,292,269,2025-05-24T00:42:25.278954
19984,-0.3865,0.5417,0.8145,-55.440,-204.260,-187.180,242,290,327,286,259,2025-05-24T00:42:25.278965
19985,-0.3665,0.5348,0.7886,-66.150,-210.350,-212.100,268,316,312,300,261,2025-05-24T00:42:25.278974
19986,-0.4675,0.5275,0.8325,-76.090,-222.320,-235.690,269,302,326,298,268,2025-05-24T00:42:25.278983
19987,-0.5973,0.5768,0.8950,-89.950,-238.350,-261.660,280,312,256,278,264,2025-05-24T00:42:25.465631
19988,-0.7198,0.6427,0.9892,-106.050,-266.770,-282.240,274,274,296,291,262,2025-05-24T00:42:25.465657
19989,-0.7330,0.6993,1.0702,-120.400,-294.210,-296.380,272,308,326,308,257,2025-05-24T00:42:25.465662
19990,-0.6783,0.7579,1.1219,-136.080,-303.940,-295.680,272,312,336,302,251,2025-05-24T00:42:25.465667
19991,-0.7003,0.8032,1.1722,-124.110,-303.240,-288.260,262,316,323,296,293,2025-05-24T00:42:25.465672
19992,-0.7974,0.8667,1.2507,-100.800,-292.880,-276.430,279,309,330,292,269,2025-05-24T00:42:25.465678
19993,-1.0219,1.0111,1.3186,-72.030,-297.640,-260.400,280,320,298,300,294,2025-05-24T00:42:25.465683
19994,-1.0038,1.2976,1.2551,-55.930,-291.620,-228.970,279,315,329,289,293,2025-05-24T00:42:25.465688
19995,-0.9316,1.8363,1.0375,-43.960,-248.010,-179.270,278,305,320,259,258,2025-05-24T00:42:25.465691
19996,-1.1082,2.3209,0.7437,-36.120,-164.010,-110.600,247,294,331,291,294,2025-05-24T00:42:25.465695
19997,-1.7495,2.5171,0.4675,-34.720,-86.030,-28.140,271,307,324,299,293,2025-05-24T00:42:25.465699
19998,-2.4766,2.5342,0.0859,-21.840,-68.320,59.990,282,299,312,291,300,2025-05-24T00:42:25.465703
19999,-2.8563,2.4932,-0.3348,-16.450,-60.130,112.560,243,313,317,282,287,2025-05-24T00:42:25.465803
20000,-2.9812,2.4405,-0.5314,-15.540,-52.150,182.700,274,290,287,285,289,2025-05-24T00:42:25.465826
20001,-3.0934,2.0511,-0.6246,-34.020,-86.940,226.520,273,307,303,278,287,2025-05-24T00:42:25.465830
20002,-3.1130,1.8085,-0.6207,-79.170,-71.680,270.830,257,280,281,289,281,2025-05-24T00:42:25.465834
20003,-3.3565,1.2654,-0.6915,-109.690,-43.890,322.350,260,289,317,295,246,2025-05-24T00:42:25.465838
20004,-3.6663,0.5187,-0.6393,-112.140,-33.950,356.370,260,301,315,289,284,2025-05-24T00:42:25.702332
20005,-4.1417,-0.3255,-0.3299,-114.100,-65.870,370.930,254,305,308,291,282,2025-05-24T00:42:25.702378
20006,-4.0938,-1.0658,0.0049,-99.750,-124.880,375.410,244,293,302,253,266,2025-05-24T00:42:25.702390
20007,-4.0236,-1.9134,0.1132,-131.950,-160.930,392.560,253,277,311,272,265,2025-05-24T00:42:25.702401
20008,-3.4863,-2.6591,0.1347,-164.850,-188.580,416.150,247,280,316,262,255,2025-05-24T00:42:25.702411
20009,-2.7967,-3.1281,-0.0508,-201.530,-170.660,436.730,252,248,295,267,233,2025-05-24T00:42:25.702421
20010,-1.9315,-3.4243,0.0307,-174.230,-143.290,459.270,238,262,305,279,264,2025-05-24T00:42:25.702431
20011,-1.0980,-3.8977,0.0346,-175.980,-150.150,494.900,232,243,299,267,258,2025-05-24T00:42:25.702440
20012,-0.0752,-4.2271,0.0942,-161.630,-174.650,514.150,247,274,306,280,273,2025-05-24T00:42:25.702452
20013,0.7340,-4.0719,0.3406,-151.130,-185.150,502.040,252,260,272,285,263,2025-05-24T00:42:25.702460
20014,1.2268,-3.9172,0.4885,-111.020,-222.460,480.060,252,255,302,273,257,2025-05-24T00:42:25.702469
20015,1.6538,-3.5829,0.4158,-90.650,-134.820,347.620,214,286,295,277,270,2025-05-24T00:42:26.131128
20016,1.8119,-3.1578,0.5758,-47.950,-87.500,262.080,242,275,303,281,266,2025-05-24T00:42:26.131154
20017,1.8773,-2.7753,0.7715,-23.590,-38.990,200.340,238,275,297,282,238,2025-05-24T00:42:26.131192
20018,1.8105,-2.4629,0.9257,2.590,-3.710,131.740,256,263,296,270,272,2025-05-24T00:42:26.131198
20019,1.6138,-2.1018,1.0131,3.080,35.280,65.590,249,294,297,285,235,2025-05-24T00:42:26.131203
20020,1.4211,-1.8036,1.0531,9.240,77.140,8.330,247,290,240,282,238,2025-05-24T00:42:26.131209
20021,1.1932,-1.5855,1.0429,19.390,121.240,-38.570,262,284,301,275,266,2025-05-24T00:42:26.131214
20022,0.8764,-1.4240,0.9760,43.820,151.410,-73.360,264,295,294,239,266,2025-05-24T00:42:26.131219
20023,0.6188,-1.2195,0.9072,77.700,177.450,-99.750,228,266,303,286,250,2025-05-24T00:42:26.131226
20024,0.2450,-1.0409,0.9350,109.900,195.230,-118.020,270,285,295,281,266,2025-05-24T00:42:26.131231
20025,-0.0522,-0.9072,0.9682,133.700,190.610,-130.340,257,251,306,270,248,2025-05-24T00:42:26.131237
20026,-0.3133,-0.7984,1.1234,153.090,174.510,-135.030,256,284,303,281,276,2025-05-24T00:42:26.131242
20027,-0.4602,-0.7081,0.9531,175.490,158.970,-138.670,231,295,311,266,282,2025-05-24T00:42:26.131247
20028,-0.4895,-0.6320,0.9101,196.490,141.820,-135.030,266,281,309,275,284,2025-05-24T00:42:26.131252
20029,-0.5563,-0.5363,0.8408,228.550,133.420,-128.450,269,298,310,280,245,2025-05-24T00:42:26.131257
20030,-0.6246,-0.3314,0.8169,252.070,129.710,-117.530,238,287,314,246,262,2025-05-24T00:42:26.131261
20031,-0.6886,-0.0190,0.7769,265.370,130.410,-105.000,243,290,304,281,269,2025-05-24T00:42:26.131273
20032,-0.8311,0.1932,0.6730,267.260,133.560,-97.790,230,269,274,277,282,2025-05-24T00:42:26.131279
20033,-0.9731,0.2855,0.5973,252.910,151.970,-88.830,245,253,305,272,283,2025-05-24T00:42:26.131284
20034,-1.1224,0.2245,0.5007,250.600,153.860,-78.400,243,299,307,283,287,2025-05-24T00:42:26.131290
20035,-1.1697,0.2025,0.4514,262.710,139.230,-69.930,233,300,320,279,290,2025-05-24T00:42:26.131295
20036,-1.1478,0.2635,0.3192,274.680,128.100,-67.340,214,298,319,263,281,2025-05-24T00:42:26.131300
20037,-1.0311,0.4128,0.2123,289.940,111.860,-59.710,233,295,270,269,283,2025-05-24T00:42:26.131305
20038,-0.8550,0.7237,0.1015,300.230,82.250,-32.340,231,294,305,265,285,2025-05-24T00:42:26.131312
20039,-0.6895,0.9531,0.0293,288.330,65.240,-2.730,239,285,273,265,282,2025-05-24T00:42:26.131317
20040,-0.6222,1.0336,0.0410,258.020,38.290,24.780,231,286,273,267,275,2025-05-24T00:42:26.131323
20041,-0.5778,1.0429,0.0966,254.660,-5.040,44.100,231,295,296,281,283,2025-05-24T00:42:26.131327
20042,-0.6212,0.9545,0.1010,196.910,22.610,36.330,223,288,275,271,271,2025-05-24T00:42:26.131333
20043,-0.6276,0.9048,0.1723,169.610,22.190,32.340,233,301,296,274,289,2025-05-24T00:42:26.131339
20044,-0.6339,0.8721,0.2372,153.650,22.820,18.130,232,270,315,262,249,2025-05-24T00:42:26.131346
20045,-0.5963,0.9028,0.2484,142.450,11.970,8.750,225,287,303,267,269,2025-05-24T00:42:26.131361
20046,-0.5070,0.9511,0.2601,133.840,14.070,8.960,234,293,310,279,277,2025-05-24T00:42:26.131367
20047,-0.3914,0.9823,0.2645,119.700,29.190,15.330,231,267,275,268,271,2025-05-24T00:42:26.131373
20048,-0.3240,0.9770,0.3074,109.340,47.040,23.380,227,299,311,268,247,2025-05-24T00:42:26.131379
20049,-0.3255,0.9492,0.3479,105.630,54.390,29.330,228,295,303,270,287,2025-05-24T00:42:26.131385
20050,-0.4143,0.9204,0.3723,105.840,51.450,29.960,227,289,318,277,275,2025-05-24T00:42:26.131390
20051,-0.4641,0.9536,0.3762,103.040,36.400,25.760,232,308,311,277,280,2025-05-24T00:42:26.131396
20052,-0.4846,0.9701,0.3670,95.550,12.600,22.750,223,302,279,271,278,2025-05-24T00:42:26.131402
20053,-0.4616,0.9970,0.3582,86.310,-6.720,18.830,202,301,309,283,288,2025-05-24T00:42:26.131408
20054,-0.3762,1.0067,0.3270,75.880,-17.850,16.590,200,307,272,278,245,2025-05-24T00:42:26.309258
20055,-0.2996,1.0150,0.2913,72.870,-21.420,20.230,196,303,304,264,253,2025-05-24T00:42:26.309303
20056,-0.2679,1.0097,0.2904,75.180,-13.370,23.730,196,294,313,279,268,2025-05-24T00:42:26.309314
20057,-0.2777,0.9926,0.2923,74.060,-2.100,22.050,201,306,274,276,273,2025-05-24T00:42:26.309324
20058,-0.2928,1.0097,0.2948,70.140,5.460,19.180,188,308,271,280,287,2025-05-24T00:42:26.309333
20059,-0.3187,1.0277,0.2850,56.420,14.560,15.680,173,299,295,264,243,2025-05-24T00:42:26.309342
20060,-0.3948,1.0472,0.2674,43.680,22.470,11.200,173,289,314,256,273,2025-05-24T00:42:26.309351
20061,-0.4851,1.0228,0.2152,37.380,16.870,6.650,174,303,307,279,278,2025-05-24T00:42:26.309360
20062,-0.5041,1.0507,0.1815,34.020,4.550,5.390,174,292,284,283,279,2025-05-24T00:42:26.309368
20063,-0.4738,1.0546,0.1606,28.420,-2.800,6.230,174,257,301,272,285,2025-05-24T00:42:26.309377
20064,-0.4621,1.0326,0.1566,23.240,-13.790,6.930,174,292,284,244,282,2025-05-24T00:42:26.309386
20065,-0.4270,1.0243,0.1810,21.700,-24.920,11.130,175,301,296,263,268,2025-05-24T00:42:26.309394
20066,-0.3958,1.0160,0.2084,14.280,-28.490,14.980,175,290,322,279,283,2025-05-24T00:42:26.309403
20067,-0.3855,0.9980,0.2381,3.850,-27.790,15.190,176,303,305,275,248,2025-05-24T00:42:26.309410
20068,-0.3875,0.9594,0.2562,-7.630,-26.110,14.070,177,289,310,263,275,2025-05-24T00:42:26.309453
20069,-0.3992,0.9111,0.2811,-18.690,-19.740,13.440,177,291,302,254,276,2025-05-24T00:42:26.309462
20070,-0.4426,0.8623,0.3109,-22.190,-9.940,12.320,177,298,314,242,245,2025-05-24T00:42:26.309472
20071,-0.4494,0.8520,0.3372,-18.410,-5.180,11.550,177,258,318,277,270,2025-05-24T00:42:26.493678
20072,-0.4260,0.8633,0.3660,-13.720,1.470,10.570,176,285,313,266,258,2025-05-24T00:42:26.493720
20073,-0.4011,0.8589,0.3753,-13.440,8.820,9.450,179,238,277,271,270,2025-05-24T00:42:26.493731
20074,-0.3997,0.8472,0.3938,-12.110,9.940,9.800,178,306,273,281,290,2025-05-24T00:42:26.493741
20075,-0.4275,0.8291,0.3977,-10.080,5.180,9.800,179,293,307,277,266,2025-05-24T00:42:26.493750
20076,-0.4426,0.8267,0.4011,-6.930,1.540,8.960,179,291,307,273,278,2025-05-24T00:42:26.493762
20077,-0.4446,0.8125,0.3850,-7.420,-3.570,7.210,179,293,289,276,273,2025-05-24T00:42:26.493771
20078,-0.4480,0.8047,0.3577,-5.530,-8.610,7.840,179,290,304,258,291,2025-05-24T00:42:26.493782
20079,-0.4314,0.8115,0.3465,-0.840,-8.260,6.370,179,296,318,253,244,2025-05-24T00:42:26.493791
20080,-0.4089,0.8257,0.3372,1.120,-3.010,4.340,180,295,317,266,282,2025-05-24T00:42:26.493800
20081,-0.4465,0.8169,0.3367,0.840,-0.980,1.050,180,303,317,283,271,2025-05-24T00:42:26.493808
20082,-0.4699,0.8081,0.3416,-2.450,-3.920,-0.700,180,280,309,277,278,2025-05-24T00:42:26.493916
20083,-0.4734,0.7984,0.3357,-4.970,-8.750,-1.260,181,292,321,275,261,2025-05-24T00:42:26.493925
20084,-0.4519,0.8091,0.3333,-4.620,-9.940,-3.080,180,290,280,240,248,2025-05-24T00:42:26.493933
20085,-0.4392,0.8223,0.3309,-3.920,-10.360,-4.970,181,290,316,276,257,2025-05-24T00:42:26.493970
20086,-0.4421,0.8189,0.3123,-4.480,-11.410,-5.880,182,309,302,286,280,2025-05-24T00:42:26.493979
20087,-0.4446,0.8125,0.3026,-5.740,-12.320,-2.590,182,313,305,284,286,2025-05-24T00:42:26.493987
20088,-0.4407,0.8076,0.3045,-4.340,-9.030,-0.980,182,272,272,249,289,2025-05-24T00:42:26.493995
20089,-0.4592,0.8018,0.3172,-1.610,-5.600,-2.660,183,283,305,281,284,2025-05-24T00:42:26.542330
20090,-0.4836,0.7989,0.3333,-0.770,-7.980,-4.620,183,288,319,237,274,2025-05-24T00:42:26.542377
20091,-0.4802,0.7940,0.3445,-3.850,-12.460,-5.810,184,290,325,241,272,2025-05-24T00:42:26.542388
20092,-0.4534,0.8008,0.3445,-6.650,-15.050,-5.740,183,307,318,283,293,2025-05-24T00:42:26.542398
20093,-0.4236,0.8174,0.3479,-4.480,-14.910,-5.530,184,274,306,283,276,2025-05-24T00:42:26.589960
20094,-0.3894,0.8325,0.3543,-1.750,-10.150,-5.670,184,291,308,282,270,2025-05-24T00:42:26.590003
20095,-0.3899,0.8286,0.3592,-1.960,-6.930,-5.810,185,301,303,239,243,2025-05-24T00:42:26.590014
20096,-0.4011,0.8184,0.3738,-2.870,-6.720,-6.580,185,301,320,219,291,2025-05-24T00:42:26.590023
20097,-0.4226,0.7964,0.3792,-2.310,-7.280,-8.680,185,272,291,284,251,2025-05-24T00:42:26.670820
20098,-0.4294,0.7940,0.3933,1.050,-8.540,-12.390,185,287,322,283,287,2025-05-24T00:42:26.670863
20099,-0.4255,0.7989,0.4085,3.990,-12.600,-14.980,186,304,307,287,280,2025-05-24T00:42:26.670874
20100,-0.4182,0.8052,0.4114,3.920,-16.730,-18.270,186,306,303,279,283,2025-05-24T00:42:26.670883
20101,-0.4070,0.8159,0.4114,2.940,-20.090,-19.810,186,308,306,287,248,2025-05-24T00:42:26.764963
20102,-0.3953,0.8213,0.4119,3.920,-22.540,-19.390,186,309,309,284,279,2025-05-24T00:42:26.765009
20103,-0.3831,0.8208,0.4231,4.620,-22.890,-18.550,187,291,319,276,294,2025-05-24T00:42:26.765021
20104,-0.3894,0.8072,0.4704,3.710,-24.080,-19.670,187,307,276,286,292,2025-05-24T00:42:26.765031
20105,-0.3841,0.7930,0.5187,0.840,-30.170,-21.420,187,305,308,284,268,2025-05-24T00:42:26.765041
20106,-0.3562,0.7647,0.5539,-3.710,-37.730,-25.340,188,265,309,284,257,2025-05-24T00:42:26.765050
20107,-0.3636,0.7227,0.5622,-9.100,-44.870,-32.690,188,308,294,286,294,2025-05-24T00:42:26.765060
20108,-0.3709,0.6910,0.5636,-11.970,-51.380,-44.100,189,259,272,261,292,2025-05-24T00:42:26.895903
20109,-0.4119,0.6486,0.5988,-15.400,-58.380,-56.840,188,305,285,283,292,2025-05-24T00:42:26.895989
20110,-0.4431,0.6227,0.6388,-19.810,-70.350,-69.720,189,300,287,281,279,2025-05-24T00:42:26.896017
20111,-0.4446,0.6041,0.6778,-24.850,-83.580,-75.670,189,309,318,246,298,2025-05-24T00:42:26.896033
20112,-0.4602,0.5983,0.6998,-32.550,-100.170,-81.830,189,300,325,285,288,2025-05-24T00:42:26.896050
20113,-0.4319,0.5988,0.7037,-40.110,-114.170,-92.750,189,299,318,285,292,2025-05-24T00:42:26.896067
20114,-0.3743,0.6324,0.7086,-46.480,-131.810,-105.560,190,301,304,275,295,2025-05-24T00:42:26.896084
20115,-0.3157,0.7164,0.7091,-53.060,-138.040,-117.530,190,317,322,289,293,2025-05-24T00:42:26.896101
20116,-0.3104,0.8184,0.6734,-61.740,-135.940,-129.150,190,319,310,293,296,2025-05-24T00:42:26.896116
20117,-0.3357,0.9204,0.6529,-80.360,-131.460,-139.440,191,306,321,240,258,2025-05-24T00:42:26.896133
20118,-0.4895,1.0604,0.6627,-100.380,-131.670,-148.750,191,311,317,280,267,2025-05-24T00:42:26.896150
20119,-0.6476,1.2454,0.7135,-115.780,-143.430,-156.380,192,290,285,287,294,2025-05-24T00:42:26.896166
20120,-0.8969,1.4801,0.7998,-122.150,-178.150,-160.510,193,319,309,287,279,2025-05-24T00:42:26.896181
20121,-0.9638,1.9896,0.7954,-130.830,-220.150,-161.070,193,301,323,276,268,2025-05-24T00:42:26.896260
20122,-0.9467,2.4273,0.7261,-145.740,-242.620,-138.950,191,243,309,285,282,2025-05-24T00:42:26.951595
20123,-0.9536,2.9270,0.3884,-150.500,-225.330,-92.330,191,269,316,285,288,2025-05-24T00:42:26.951848
20124,-1.2371,3.0983,-0.0405,-135.940,-190.610,-22.470,190,294,313,290,283,2025-05-24T00:42:26.951864
20125,-1.7446,3.1500,-0.4163,-128.940,-160.860,49.140,189,319,303,285,279,2025-05-24T00:42:26.951874
20126,-1.9271,3.2003,-0.7549,-127.680,-159.320,119.700,189,310,289,269,280,2025-05-24T00:42:26.951884
20127,-1.9647,3.0329,-1.1400,-146.580,-138.950,170.450,187,331,311,270,224,2025-05-24T00:42:27.126540
20128,-1.8554,2.9099,-1.3835,-165.060,-122.990,203.980,186,276,320,282,281,2025-05-24T00:42:27.126587
20129,-2.1160,2.5147,-1.5348,-188.370,-120.680,231.070,185,328,317,286,248,2025-05-24T00:42:27.126598
20130,-2.4654,1.8866,-1.7036,-219.030,-111.440,251.790,185,327,278,285,289,2025-05-24T00:42:27.126608
20131,-2.6552,1.0331,-1.6602,-268.240,-79.800,280.140,185,326,309,278,288,2025-05-24T00:42:27.126617
20132,-2.5864,-0.0908,-1.4440,-323.960,-27.790,302.610,185,305,310,275,271,2025-05-24T00:42:27.126626
20133,-2.4849,-0.8511,-0.9989,-338.450,0.770,290.640,183,307,304,280,288,2025-05-24T00:42:27.126634
20134,-2.2477,-1.8573,-0.9506,-401.170,-0.210,276.640,185,307,300,284,224,2025-05-24T00:42:27.126646
20135,-1.5836,-2.5527,-0.8867,-336.210,-34.930,270.620,184,306,319,239,279,2025-05-24T00:42:27.126655
20136,-1.2385,-2.9924,-0.4982,-333.130,-61.110,232.470,185,313,317,279,283,2025-05-24T00:42:27.126678
20137,-0.8711,-3.4931,-0.1000,-348.250,-133.910,187.180,184,295,302,272,286,2025-05-24T00:42:27.126686
20138,-0.5807,-3.8308,0.4734,-396.410,-230.650,152.810,184,319,321,283,278,2025-05-24T00:42:27.126695
20139,-0.1044,-4.1670,0.8057,-423.500,-342.790,140.770,184,310,283,272,249,2025-05-24T00:42:27.126702
20140,0.3967,-4.3959,0.8682,-388.150,-401.870,144.900,186,313,310,290,252,2025-05-24T00:42:27.126752
20141,1.0692,-4.3876,0.9448,-252.910,-366.800,182.770,186,299,308,284,275,2025-05-24T00:42:27.305042
20142,1.4206,-4.0406,0.7203,-131.810,-274.050,208.880,184,279,278,273,279,2025-05-24T00:42:27.305098
20143,1.5011,-3.4223,1.1883,35.560,-35.070,125.020,184,290,315,275,283,2025-05-24T00:42:27.305114
20144,1.2512,-2.9382,1.2215,131.110,66.710,100.030,185,303,312,259,274,2025-05-24T00:42:27.305127
20145,1.1043,-2.4371,1.0882,185.710,118.370,81.550,184,302,321,246,279,2025-05-24T00:42:27.305139
20146,0.9355,-2.0042,0.9677,175.420,152.460,38.710,184,298,285,268,240,2025-05-24T00:42:27.305151
20147,0.7906,-1.6655,0.7671,170.870,174.160,1.890,183,310,317,282,261,2025-05-24T00:42:27.305164
20148,0.6105,-1.4098,0.6349,191.520,209.020,-27.930,183,287,286,286,284,2025-05-24T00:42:27.305175
20149,0.3616,-1.2190,0.5949,222.880,236.110,-57.330,184,315,306,282,272,2025-05-24T00:42:27.305186
20150,0.1205,-1.0692,0.5685,247.240,244.580,-71.190,183,315,311,284,240,2025-05-24T00:42:27.305218
20151,-0.0322,-0.8394,0.5588,260.610,242.200,-70.140,182,300,276,269,266,2025-05-24T00:42:27.305228
20152,-0.1523,-0.6803,0.5139,261.170,238.490,-76.370,183,281,309,273,271,2025-05-24T00:42:27.305239
20153,-0.3172,-0.5353,0.5012,265.580,222.950,-86.520,183,300,288,238,275,2025-05-24T00:42:27.305249
20154,-0.5651,-0.3782,0.5226,282.590,186.270,-93.170,182,264,243,266,268,2025-05-24T00:42:27.305260
20155,-0.8135,-0.1723,0.5592,298.480,154.000,-100.590,181,308,308,279,282,2025-05-24T00:42:27.305310
20156,-0.9160,-0.0571,0.5505,300.720,117.740,-104.440,181,299,307,265,248,2025-05-24T00:42:27.511097
20157,-0.8896,-0.0176,0.4802,286.440,90.510,-100.030,183,303,316,280,251,2025-05-24T00:42:27.511160
20158,-0.8228,-0.0444,0.3924,275.170,79.100,-93.940,182,310,305,282,278,2025-05-24T00:42:27.511174
20159,-0.8042,-0.0361,0.3543,286.510,78.820,-89.880,184,319,319,285,273,2025-05-24T00:42:27.511189
20160,-0.8145,0.0556,0.3284,310.940,73.150,-87.360,183,302,318,272,277,2025-05-24T00:42:27.511198
20161,-0.8330,0.3338,0.2274,326.130,64.190,-82.950,185,311,305,271,276,2025-05-24T00:42:27.511209
20162,-0.8223,0.6076,0.0532,329.770,50.540,-77.700,185,309,317,283,276,2025-05-24T00:42:27.511220
20163,-0.8189,0.7657,-0.1030,318.710,52.010,-61.250,186,312,288,272,281,2025-05-24T00:42:27.511230
20164,-0.7940,0.8301,-0.1713,297.010,53.620,-46.690,187,304,275,242,268,2025-05-24T00:42:27.511340
20165,-0.7540,0.8223,-0.1469,275.730,54.460,-38.220,186,268,316,277,269,2025-05-24T00:42:28.039999
20166,-0.8442,0.7525,-0.1288,253.820,48.930,-37.450,186,310,322,267,279,2025-05-24T00:42:28.040040
20167,-0.9004,0.8472,-0.1322,242.970,31.570,-39.060,187,306,327,277,280,2025-05-24T00:42:28.040052
20168,-0.8813,1.0126,-0.1889,227.150,21.770,-35.700,186,309,324,281,277,2025-05-24T00:42:28.040062
20169,-0.7608,1.2141,-0.2723,213.010,15.540,-24.360,185,321,324,276,273,2025-05-24T00:42:28.040071
20170,-0.6232,1.3430,-0.2908,194.320,15.750,-3.500,184,300,319,284,248,2025-05-24T00:42:28.040125
20171,-0.5519,1.3854,-0.2479,166.320,24.570,14.350,185,296,274,274,280,2025-05-24T00:42:28.040136
20172,-0.5466,1.3337,-0.1444,134.890,29.190,23.240,184,286,310,286,279,2025-05-24T00:42:28.040145
20173,-0.6002,1.2668,-0.0361,112.350,21.840,27.230,184,309,316,254,241,2025-05-24T00:42:28.040156
20174,-0.6285,1.1707,0.0600,90.020,11.480,23.240,184,241,312,242,281,2025-05-24T00:42:28.040165
20175,-0.6198,1.1429,0.1098,76.440,-3.150,15.120,183,318,312,285,256,2025-05-24T00:42:28.040175
20176,-0.5461,1.1595,0.1645,67.830,-15.680,13.230,181,306,320,281,264,2025-05-24T00:42:28.040185
20177,-0.4402,1.1702,0.1918,59.780,-15.750,16.800,178,291,305,265,278,2025-05-24T00:42:28.040195
20178,-0.3074,1.1878,0.2235,51.940,-9.030,26.460,175,259,301,267,266,2025-05-24T00:42:28.040204
20179,-0.2601,1.1780,0.2616,46.690,1.050,36.330,176,236,305,234,268,2025-05-24T00:42:28.040213
20180,-0.2494,1.1614,0.3113,42.210,15.050,41.790,176,272,275,263,272,2025-05-24T00:42:28.040222
20181,-0.2738,1.1434,0.3421,32.550,28.630,42.560,176,274,315,270,270,2025-05-24T00:42:28.040231
20182,-0.3694,1.0921,0.3723,20.090,33.320,38.010,177,258,320,264,255,2025-05-24T00:42:28.040240
20183,-0.4211,1.1019,0.3802,13.160,30.030,30.450,175,290,278,272,254,2025-05-24T00:42:28.040248
20184,-0.4363,1.1248,0.3689,7.490,21.420,24.010,173,315,306,271,273,2025-05-24T00:42:28.040307
20185,-0.4455,1.1058,0.3460,3.780,8.680,19.670,173,300,271,278,254,2025-05-24T00:42:28.040318
20186,-0.3987,1.0980,0.3411,0.350,-1.120,17.990,173,303,302,271,265,2025-05-24T00:42:28.040327
20187,-0.3616,1.0702,0.3533,-1.190,-10.640,18.830,174,302,308,251,248,2025-05-24T00:42:28.040337
20188,-0.3450,1.0350,0.3528,-1.820,-18.060,21.140,173,294,320,277,272,2025-05-24T00:42:28.040351
20189,-0.3479,0.9941,0.3553,-4.900,-20.230,22.470,172,233,314,212,268,2025-05-24T00:42:28.040362
20190,-0.3558,0.9506,0.3460,-9.800,-19.600,21.420,173,268,316,255,267,2025-05-24T00:42:28.040371
20191,-0.3626,0.9135,0.3196,-14.070,-18.690,21.490,171,302,315,264,247,2025-05-24T00:42:28.040381
20192,-0.3640,0.8906,0.3309,-17.290,-10.290,20.650,173,291,301,263,270,2025-05-24T00:42:28.040390
20193,-0.3811,0.8735,0.3484,-19.810,-3.430,17.920,171,309,305,258,268,2025-05-24T00:42:28.040399
20194,-0.3719,0.8574,0.3606,-22.260,-4.270,15.260,171,257,284,274,259,2025-05-24T00:42:28.040407
20195,-0.3392,0.8384,0.3719,-25.410,-4.130,13.300,172,302,307,270,263,2025-05-24T00:42:28.040420
20196,-0.3318,0.8164,0.3845,-26.110,0.210,12.530,172,257,308,262,261,2025-05-24T00:42:28.040432
20197,-0.3387,0.8047,0.4041,-23.450,2.450,11.130,173,306,313,278,254,2025-05-24T00:42:28.040443
20198,-0.3626,0.7910,0.4168,-18.410,1.890,9.870,172,291,311,268,269,2025-05-24T00:42:28.040452
20199,-0.3967,0.7788,0.4246,-16.170,0.280,8.400,172,283,305,270,260,2025-05-24T00:42:28.040472
20200,-0.4119,0.7666,0.4275,-14.490,-2.520,8.540,173,301,299,261,271,2025-05-24T00:42:28.040481
20201,-0.3914,0.7779,0.4309,-11.620,-2.730,7.350,173,304,306,267,266,2025-05-24T00:42:28.040491
20202,-0.4031,0.7671,0.4285,-7.560,-0.840,4.060,174,302,320,265,266,2025-05-24T00:42:28.040499
20203,-0.4133,0.7735,0.4319,-4.060,-0.070,1.400,174,308,310,245,261,2025-05-24T00:42:28.040508
20204,-0.3972,0.7788,0.4246,-2.870,1.050,1.890,174,303,309,273,271,2025-05-24T00:42:28.040517
20205,-0.3811,0.7852,0.4177,-3.220,7.280,1.610,175,283,307,279,262,2025-05-24T00:42:28.040526
20206,-0.3963,0.7852,0.4221,-1.680,11.970,-0.350,174,279,271,273,271,2025-05-24T00:42:28.040534
20207,-0.4880,0.7462,0.4104,1.330,10.640,-5.110,174,296,304,278,258,2025-05-24T00:42:28.040543
20208,-0.5183,0.7520,0.3943,5.110,5.180,-5.880,174,311,304,269,235,2025-05-24T00:42:28.317417
20209,-0.4968,0.7837,0.3797,6.020,1.890,-5.110,175,306,317,270,242,2025-05-24T00:42:28.317569
20210,-0.4587,0.8052,0.3680,4.410,3.570,-4.200,176,303,307,271,235,2025-05-24T00:42:28.317591
20211,-0.4592,0.8130,0.3621,2.170,4.130,-2.590,176,256,316,279,235,2025-05-24T00:42:28.317601
20212,-0.4846,0.8091,0.3518,1.120,3.710,-0.210,177,311,300,245,275,2025-05-24T00:42:28.317611
20213,-0.4914,0.8111,0.3489,1.050,3.640,1.610,176,283,298,283,274,2025-05-24T00:42:28.317620
20214,-0.4738,0.8184,0.3582,0.840,4.620,1.610,177,292,268,247,273,2025-05-24T00:42:28.317630
20215,-0.4826,0.8130,0.3675,-1.050,4.900,0.070,177,307,307,266,266,2025-05-24T00:42:28.317639
20216,-0.5104,0.8135,0.3753,-2.870,2.800,-1.540,177,313,314,283,267,2025-05-24T00:42:28.317649
20217,-0.5095,0.8140,0.3684,-4.830,-0.070,-0.210,179,309,312,238,271,2025-05-24T00:42:28.317666
20218,-0.4870,0.8267,0.3694,-7.210,0.560,1.190,178,297,307,273,269,2025-05-24T00:42:28.317675
20219,-0.4621,0.8335,0.3792,-6.860,2.310,2.240,178,301,315,277,263,2025-05-24T00:42:28.317684
20220,-0.4563,0.8301,0.3880,-5.250,2.660,3.150,179,311,313,265,235,2025-05-24T00:42:28.317695
20221,-0.4665,0.8223,0.4006,-4.410,0.280,3.360,178,287,312,268,238,2025-05-24T00:42:28.317703
20222,-0.4758,0.8169,0.4046,-4.620,-2.240,2.310,179,253,271,267,261,2025-05-24T00:42:28.317712
20223,-0.4680,0.8194,0.4050,-4.690,-5.110,1.330,179,298,317,269,276,2025-05-24T00:42:28.317772
20224,-0.4524,0.8164,0.4036,-5.250,-4.550,0.280,179,298,307,236,273,2025-05-24T00:42:28.317786
20225,-0.4377,0.8179,0.4041,-5.390,-2.800,-0.210,179,296,245,275,261,2025-05-24T00:42:28.510474
20226,-0.4426,0.8111,0.4055,-4.900,-1.680,-0.280,179,300,307,277,271,2025-05-24T00:42:28.510521
20227,-0.4695,0.7940,0.4070,-2.870,-2.730,-0.490,180,297,310,282,277,2025-05-24T00:42:28.510533
20228,-0.4665,0.8013,0.4006,-0.560,-3.640,-0.140,179,305,311,278,273,2025-05-24T00:42:28.510543
20229,-0.4563,0.8067,0.3924,0.280,-4.410,-0.140,179,315,307,267,280,2025-05-24T00:42:28.510555
20230,-0.4436,0.8091,0.3875,-1.050,-3.850,-0.280,180,303,310,252,270,2025-05-24T00:42:28.510564
20231,-0.4621,0.7993,0.3845,-1.190,-4.200,-1.120,179,310,312,246,279,2025-05-24T00:42:28.510574
20232,-0.4812,0.7891,0.3787,0.630,-5.390,-1.470,181,275,304,275,274,2025-05-24T00:42:28.510583
20233,-0.4817,0.7974,0.3806,1.680,-4.340,-2.240,181,294,318,265,274,2025-05-24T00:42:28.510591
20234,-0.4836,0.8018,0.3704,0.350,-5.250,-3.010,181,313,299,271,277,2025-05-24T00:42:28.510623
20235,-0.4714,0.7989,0.3670,-3.290,-6.160,-2.660,180,240,318,268,241,2025-05-24T00:42:28.510632
20236,-0.4631,0.7930,0.3626,-4.830,-5.040,-2.730,181,302,285,277,268,2025-05-24T00:42:28.510641
20237,-0.4573,0.7896,0.3650,-4.060,-4.480,-1.960,182,320,284,281,277,2025-05-24T00:42:28.510649
20238,-0.4529,0.7935,0.3758,-1.050,-3.290,-1.610,181,299,297,277,274,2025-05-24T00:42:28.510658
20239,-0.4412,0.7974,0.3841,-1.890,-2.520,-2.450,182,319,298,280,278,2025-05-24T00:42:28.510702
20240,-0.4587,0.7852,0.3933,-4.270,-4.200,-4.480,181,311,299,280,286,2025-05-24T00:42:28.510714
20241,-0.4763,0.7808,0.3972,-4.060,-7.350,-6.090,182,261,301,265,278,2025-05-24T00:42:28.510724
20242,-0.4621,0.7871,0.3987,-1.820,-8.050,-6.230,182,310,309,273,282,2025-05-24T00:42:28.510734
20243,-0.4509,0.7930,0.4080,-0.210,-5.950,-6.370,182,292,275,274,243,2025-05-24T00:42:28.510742
20244,-0.4680,0.7920,0.4080,0.420,-5.810,-7.000,182,316,299,272,268,2025-05-24T00:42:28.510750
20245,-0.4758,0.7940,0.4128,0.350,-7.070,-6.300,182,307,300,281,241,2025-05-24T00:42:28.659651
20246,-0.4714,0.7896,0.4070,0.840,-6.300,-5.040,183,272,311,268,284,2025-05-24T00:42:28.659698
20247,-0.4787,0.7920,0.4114,2.310,-5.250,-5.320,182,296,245,278,240,2025-05-24T00:42:28.659710
20248,-0.4890,0.7959,0.4148,4.550,-5.390,-6.090,182,302,299,274,253,2025-05-24T00:42:28.659721
20249,-0.4929,0.7969,0.4168,4.550,-6.650,-6.020,182,296,305,272,275,2025-05-24T00:42:28.659850
20250,-0.4860,0.7993,0.4168,3.850,-7.350,-5.530,182,297,283,279,263,2025-05-24T00:42:28.659861
20251,-0.4846,0.7964,0.4124,3.990,-7.770,-5.740,183,258,283,277,275,2025-05-24T00:42:28.659871
20252,-0.4782,0.7964,0.4050,5.180,-7.770,-5.810,182,299,309,238,262,2025-05-24T00:42:28.659882
20253,-0.4831,0.7925,0.4002,5.390,-7.840,-5.950,182,313,309,262,269,2025-05-24T00:42:28.659891
20254,-0.4802,0.8013,0.3963,5.530,-8.680,-5.180,183,297,314,270,258,2025-05-24T00:42:28.659900
20255,-0.4602,0.8096,0.3860,5.670,-7.140,-4.200,183,300,319,237,272,2025-05-24T00:42:28.659909
20256,-0.4651,0.8076,0.3836,4.130,-5.250,-5.180,183,308,247,278,271,2025-05-24T00:42:28.659918
20257,-0.4797,0.8018,0.3797,3.990,-6.510,-6.230,183,316,302,248,249,2025-05-24T00:42:28.659927
20258,-0.4817,0.8052,0.3709,3.640,-7.560,-6.650,182,296,320,271,273,2025-05-24T00:42:28.659936
20259,-0.4817,0.8086,0.3723,3.220,-7.560,-7.070,184,306,278,242,267,2025-05-24T00:42:28.659945
20260,-0.4807,0.8169,0.3709,3.920,-7.840,-7.140,183,303,301,276,273,2025-05-24T00:42:28.660331
20261,-0.4812,0.8223,0.3704,3.430,-8.680,-6.300,184,264,304,285,250,2025-05-24T00:42:28.660346
20262,-0.4836,0.8213,0.3714,1.470,-9.030,-5.460,183,304,302,280,282,2025-05-24T00:42:28.660357
20263,-0.4812,0.8184,0.3675,0.840,-9.940,-4.410,183,313,306,257,268,2025-05-24T00:42:28.660365
20264,-0.4714,0.8179,0.3743,1.680,-9.030,-3.640,184,308,275,238,283,2025-05-24T00:42:28.660374
20265,-0.4758,0.8115,0.3782,1.190,-8.400,-3.780,183,308,304,284,274,2025-05-24T00:42:28.660382
20266,-0.4680,0.8086,0.3821,-0.420,-9.380,-3.850,184,318,310,268,277,2025-05-24T00:42:28.787951
20267,-0.4592,0.8013,0.3855,-2.450,-9.100,-3.920,184,295,297,282,281,2025-05-24T00:42:28.787999
20268,-0.4592,0.7974,0.3889,-1.540,-8.470,-4.410,183,296,317,280,281,2025-05-24T00:42:28.788011
20269,-0.4534,0.8013,0.3972,1.190,-8.190,-4.620,184,315,308,269,267,2025-05-24T00:42:28.788023
20270,-0.4485,0.7993,0.3967,1.400,-7.630,-5.250,184,275,302,275,280,2025-05-24T00:42:28.788034
20271,-0.4475,0.7974,0.3992,0.490,-7.490,-5.320,185,297,316,272,269,2025-05-24T00:42:28.788044
20272,-0.4548,0.7954,0.3997,0.980,-7.140,-5.530,185,295,312,273,267,2025-05-24T00:42:28.788079
20273,-0.4665,0.7867,0.3997,2.450,-6.580,-6.720,184,286,302,287,282,2025-05-24T00:42:28.788090
20274,-0.4802,0.7828,0.3953,3.360,-7.350,-7.420,186,298,286,241,260,2025-05-24T00:42:28.788099
20275,-0.4841,0.7823,0.3904,3.220,-9.030,-7.560,186,310,316,243,281,2025-05-24T00:42:28.788108
20276,-0.4836,0.7852,0.3850,3.500,-9.380,-7.490,186,318,306,281,274,2025-05-24T00:42:28.788117
20277,-0.4875,0.7876,0.3806,4.060,-9.100,-7.770,185,314,278,283,282,2025-05-24T00:42:28.788125
20278,-0.4841,0.7891,0.3787,4.410,-8.960,-6.930,186,320,275,268,244,2025-05-24T00:42:28.788134
20279,-0.4758,0.7876,0.3723,2.100,-7.280,-6.580,186,307,316,289,275,2025-05-24T00:42:28.955730
20280,-0.4758,0.7813,0.3680,0.840,-4.830,-5.600,186,317,321,273,277,2025-05-24T00:42:28.955778
20281,-0.4685,0.7867,0.3665,1.680,-1.190,-4.970,186,316,315,278,288,2025-05-24T00:42:28.955790
20282,-0.4626,0.7901,0.3719,1.400,2.380,-5.670,186,318,315,281,269,2025-05-24T00:42:28.955801
20283,-0.4738,0.7910,0.3733,-0.490,3.080,-6.720,185,317,306,284,279,2025-05-24T00:42:28.955811
20284,-0.4782,0.7891,0.3748,-1.400,1.540,-7.000,186,297,316,220,283,2025-05-24T00:42:28.955825
20285,-0.4651,0.7906,0.3753,-0.630,1.260,-7.560,187,293,312,243,269,2025-05-24T00:42:28.955835
20286,-0.4651,0.7930,0.3806,-0.490,0.980,-8.750,187,263,316,251,278,2025-05-24T00:42:28.955844
20287,-0.4685,0.7857,0.3875,-0.910,-0.140,-9.240,187,301,303,268,261,2025-05-24T00:42:28.955853
20288,-0.4758,0.7798,0.3894,-2.240,-1.330,-9.450,187,312,285,269,272,2025-05-24T00:42:28.955862
20289,-0.4748,0.7774,0.3914,-2.030,-1.890,-9.660,188,305,309,288,279,2025-05-24T00:42:28.955871
20290,-0.4685,0.7808,0.3953,-1.050,-0.280,-10.360,186,284,321,280,285,2025-05-24T00:42:28.955880
20291,-0.4797,0.7813,0.3967,-0.910,0.910,-11.480,188,319,306,282,255,2025-05-24T00:42:28.955889
20292,-0.4885,0.7793,0.3943,-2.030,0.490,-11.620,188,316,318,288,282,2025-05-24T00:42:28.955898
20293,-0.4973,0.7823,0.3870,-2.100,0.630,-11.830,188,310,306,269,279,2025-05-24T00:42:28.955936
20294,-0.4958,0.7896,0.3855,-0.070,1.330,-11.830,188,302,280,285,270,2025-05-24T00:42:29.147191
20295,-0.5026,0.7906,0.3831,1.050,1.960,-11.900,187,314,245,277,286,2025-05-24T00:42:29.147238
20296,-0.5192,0.7881,0.3821,-17.640,1.260,-11.970,188,292,273,284,283,2025-05-24T00:42:29.147250
20297,-0.5251,0.7823,0.3836,-1.820,0.000,-11.410,188,321,300,251,287,2025-05-24T00:42:29.147261
20298,-0.5226,0.7793,0.3826,-2.450,0.070,-11.130,189,312,290,271,285,2025-05-24T00:42:29.147273
20299,-0.5183,0.7828,0.3845,-2.170,1.050,-10.990,190,302,276,282,287,2025-05-24T00:42:29.147282
20300,-0.5104,0.7876,0.3860,-2.520,2.030,-10.570,189,296,309,273,277,2025-05-24T00:42:29.147292
20301,-0.5051,0.7847,0.3836,-4.410,2.800,-10.150,190,325,303,270,279,2025-05-24T00:42:29.147301
20302,-0.5051,0.7803,0.3870,-4.620,2.940,-10.360,189,304,317,282,260,2025-05-24T00:42:29.147329
20303,-0.4982,0.7754,0.3914,-3.360,2.800,-11.200,189,315,277,278,284,2025-05-24T00:42:29.147339
20304,-0.4987,0.7686,0.3967,-3.080,1.680,-12.390,189,309,312,286,272,2025-05-24T00:42:29.147352
20305,-0.4919,0.7647,0.3948,-3.780,0.420,-13.090,190,300,317,267,286,2025-05-24T00:42:29.147366
20306,-0.4860,0.7652,0.3914,-3.430,0.840,-13.930,190,321,322,253,288,2025-05-24T00:42:29.147414
20307,-0.4880,0.7662,0.3914,-2.730,1.890,-15.190,190,323,303,283,290,2025-05-24T00:42:29.147423
20308,-0.5036,0.7676,0.3899,-2.240,2.100,-16.870,191,296,319,278,285,2025-05-24T00:42:29.147466
