SeqNum,AccX,AccY,AccZ,GyroX,GyroY,GyroZ,Flex,Force1,Force2,Force3,Force4,TimestampReception
1,-0.1708,0.4641,0.8725,0.700,-8.610,0.280,1.34,1.26,1.22,1.27,1.24,2025-06-04T19:09:04.379877
2,-0.1610,0.4597,0.8721,0.665,-7.700,-0.070,1.29,1.25,1.28,1.38,1.24,2025-06-04T19:09:04.379877
3,-0.1698,0.4685,0.8672,0.595,-7.315,-0.420,1.28,1.26,1.39,1.39,1.23,2025-06-04T19:09:04.673732
4,-0.1703,0.4582,0.8740,0.595,-7.280,-0.350,1.34,1.23,1.38,1.24,1.16,2025-06-04T19:09:04.673732
5,-0.1674,0.4626,0.8691,0.665,-7.735,-0.140,1.30,1.22,1.35,1.19,1.20,2025-06-04T19:09:04.779095
6,-0.1708,0.4616,0.8701,0.630,-5.880,-0.875,1.30,1.24,1.35,1.33,1.25,2025-06-04T19:09:04.874459
7,-0.1757,0.4597,0.8691,0.455,-9.940,1.400,1.27,1.23,1.27,1.16,1.24,2025-06-04T19:09:05.078002
8,-0.1571,0.4597,0.8701,0.595,-6.510,-0.630,1.34,1.21,1.31,1.37,1.24,2025-06-04T19:09:05.078002
9,-0.1762,0.4636,0.8696,0.630,-7.665,0.105,1.35,1.22,1.36,1.31,1.25,2025-06-04T19:09:05.280888
10,-0.1664,0.4612,0.8721,0.595,-6.930,-0.385,1.33,1.23,1.33,1.19,1.24,2025-06-04T19:09:05.386899
11,-0.1684,0.4626,0.8711,0.630,-8.015,0.245,1.19,1.06,1.29,1.34,1.26,2025-06-04T19:09:05.489000
12,-0.1659,0.4626,0.8696,0.630,-7.210,-0.385,1.32,1.27,1.34,1.39,1.17,2025-06-04T19:09:05.797440
13,-0.1713,0.4616,0.8716,0.455,-7.350,-0.175,1.34,1.24,1.35,1.34,1.27,2025-06-04T19:09:05.797440
14,-0.1606,0.4563,0.8930,2.170,-5.670,2.240,1.35,1.25,1.35,1.30,1.14,2025-06-04T19:09:05.910249
15,-0.1425,0.4890,0.8725,-1.435,-10.710,-0.805,1.17,1.25,1.35,1.34,1.27,2025-06-04T19:09:05.910345
16,-0.2113,0.4734,0.8696,0.245,-1.540,-0.210,1.27,1.18,1.33,1.34,1.28,2025-06-04T19:09:06.101210
17,-0.1454,0.4900,0.8711,1.470,-11.095,2.800,1.33,1.22,1.32,1.26,1.29,2025-06-04T19:09:06.101210
18,-0.1918,0.4763,0.8555,-0.420,-3.885,-0.770,1.32,1.25,1.27,1.31,1.24,2025-06-04T19:09:06.203854
19,-0.1454,0.4446,0.8838,2.590,-13.440,4.340,1.32,1.25,1.36,1.30,1.28,2025-06-04T19:09:06.369564
20,-0.1742,0.4753,0.8574,3.290,-5.355,-1.680,1.29,1.25,1.33,1.34,1.28,2025-06-04T19:09:06.510433
21,-0.1444,0.4973,0.8511,0.945,-10.255,1.190,1.26,1.26,1.17,1.39,1.25,2025-06-04T19:09:06.617077
22,-0.0703,0.4065,0.8769,2.100,2.135,0.805,1.30,1.13,1.35,1.30,1.28,2025-06-04T19:09:06.691111
23,-0.1654,0.4782,0.8574,0.945,-2.835,0.245,1.36,1.37,1.23,1.40,1.16,2025-06-04T19:09:06.833530
24,-0.0903,0.4294,0.8403,-0.070,-0.175,-2.450,1.33,1.33,1.32,1.41,1.18,2025-06-04T19:09:07.038615
25,-0.1142,0.4280,0.8745,-3.290,-0.910,-4.970,1.34,1.16,1.39,1.27,1.15,2025-06-04T19:09:07.038615
26,-0.1127,0.4607,0.9238,-2.240,-1.295,5.005,1.17,1.19,1.37,1.39,1.28,2025-06-04T19:09:07.123427
27,-0.1196,0.4031,0.8389,4.690,-20.545,2.975,1.17,1.22,1.40,1.36,1.30,2025-06-04T19:09:07.241132
28,-0.1283,0.4807,0.8579,3.920,-12.635,2.590,1.37,1.31,1.43,1.42,1.28,2025-06-04T19:09:07.645854
29,-0.1293,0.4646,0.8281,-0.735,-2.170,-3.780,1.30,1.29,1.33,1.38,1.29,2025-06-04T19:09:07.645854
30,-0.1039,0.4792,0.8642,-2.730,-6.475,-2.590,1.36,1.29,1.31,1.38,1.19,2025-06-04T19:09:07.645854
31,-0.1435,0.4968,0.8750,0.595,-4.480,-1.330,1.36,1.28,1.33,1.39,1.35,2025-06-04T19:09:07.691876
32,-0.0844,0.4626,0.9223,-2.100,-15.925,6.300,1.38,1.27,1.36,1.34,1.36,2025-06-04T19:09:07.850330
33,-0.1220,0.4763,0.8296,-0.770,-9.870,0.455,1.36,1.31,1.32,1.36,1.29,2025-06-04T19:09:07.942731
34,-0.1357,0.4563,0.8867,7.910,1.925,-3.780,1.38,1.33,1.41,1.42,1.31,2025-06-04T19:09:08.043751
35,-0.1210,0.4734,0.8520,2.275,-11.200,0.840,1.29,1.26,1.17,1.17,1.32,2025-06-04T19:09:08.149064
36,-0.1127,0.5134,0.9008,3.465,-3.465,3.500,1.26,1.10,1.29,1.34,1.32,2025-06-04T19:09:08.352068
37,-0.1235,0.4621,0.8852,12.180,5.845,21.350,1.33,1.38,1.41,1.41,1.29,2025-06-04T19:09:08.455758
38,-0.1791,0.3836,0.9365,13.790,7.945,-1.785,1.31,1.21,1.37,1.30,1.25,2025-06-04T19:09:08.498085
39,-0.1030,0.4900,0.9043,-7.140,-7.210,-2.520,1.13,1.05,1.29,1.28,1.28,2025-06-04T19:09:08.863788
40,-0.1635,0.4436,0.9257,20.685,43.365,-5.670,1.29,1.13,1.36,1.33,1.33,2025-06-04T19:09:08.863788
41,-0.2308,0.4597,0.8389,0.245,2.415,-2.625,1.25,1.09,1.42,1.38,1.14,2025-06-04T19:09:08.970468
42,-0.2718,0.4656,0.7774,12.390,-4.480,-3.815,1.25,1.25,1.36,1.38,1.13,2025-06-04T19:09:08.970468
43,-0.2006,0.5031,0.9609,5.390,8.330,-2.415,1.27,1.25,1.39,1.27,1.22,2025-06-04T19:09:09.121700
44,-0.2274,0.4797,0.8843,-6.720,-8.715,4.095,1.30,1.19,1.42,1.33,1.20,2025-06-04T19:09:09.285453
45,-0.2011,0.4900,0.8364,-3.080,-13.055,0.630,1.32,1.28,1.28,1.17,1.25,2025-06-04T19:09:09.377861
46,-0.1791,0.4778,0.8457,5.600,-13.790,2.485,1.32,1.29,1.40,1.33,1.18,2025-06-04T19:09:09.491180
47,-0.2011,0.5173,0.8501,2.870,-8.365,2.450,1.24,1.31,1.18,1.26,1.20,2025-06-04T19:09:09.581867
48,-0.1698,0.4626,0.7906,-3.325,-14.945,4.655,1.26,1.29,1.32,1.34,1.22,2025-06-04T19:09:09.695158
49,-0.1776,0.5012,0.8438,0.595,-10.640,2.625,1.20,1.32,1.45,1.39,1.12,2025-06-04T19:09:09.775887
50,-0.1444,0.4885,0.8467,3.115,-16.450,4.060,1.15,1.28,1.30,1.37,1.20,2025-06-04T19:09:10.101774
51,-0.0776,0.4904,0.7998,-1.785,-12.425,1.680,1.29,1.28,1.35,1.28,1.24,2025-06-04T19:09:10.101774
52,-0.0654,0.4982,0.8291,-12.495,-22.050,-0.455,1.11,1.12,1.40,1.44,1.23,2025-06-04T19:09:10.196464
53,-0.1230,0.4924,0.8847,-4.375,-5.180,-3.465,0.98,1.26,1.37,1.36,1.28,2025-06-04T19:09:10.309112
54,-0.1366,0.4929,0.8560,1.505,9.135,-9.660,1.18,1.31,1.38,1.39,1.27,2025-06-04T19:09:10.387207
55,-0.1923,0.4797,0.8262,-0.840,-18.200,5.775,1.30,1.20,1.43,1.39,1.17,2025-06-04T19:09:10.515496
56,-0.0688,0.4841,0.8852,1.050,-14.875,2.800,1.29,1.25,1.46,1.42,1.26,2025-06-04T19:09:10.606861
57,-0.1810,0.4860,0.8706,2.450,-1.890,-1.295,1.32,1.22,1.40,1.17,1.28,2025-06-04T19:09:10.719455
58,-0.0742,0.4787,0.8511,1.050,-18.655,7.525,1.14,1.20,1.38,1.40,1.14,2025-06-04T19:09:10.810115
59,-0.1015,0.4890,0.8652,1.750,-8.435,1.400,0.96,1.28,1.34,1.31,1.23,2025-06-04T19:09:11.014960
60,-0.1454,0.5592,0.8516,5.845,0.805,-7.350,1.21,1.29,1.40,1.45,1.26,2025-06-04T19:09:11.014960
61,-0.1703,0.5236,0.8550,5.460,-3.150,-2.310,1.25,1.33,1.41,1.41,1.15,2025-06-04T19:09:11.434056
62,-0.1244,0.5129,0.8267,-38.535,-14.560,-0.385,1.08,1.34,1.39,1.39,1.14,2025-06-04T19:09:11.434056
63,-0.1659,0.4836,0.8306,-5.285,-2.065,-1.715,1.05,1.27,1.38,1.33,1.19,2025-06-04T19:09:11.434842
64,-0.2040,0.5031,0.9931,-7.280,-25.095,5.390,1.23,1.29,1.39,1.43,1.20,2025-06-04T19:09:11.545820
65,0.0234,0.5724,1.0111,-17.395,-121.450,53.760,1.24,1.26,1.41,1.35,1.26,2025-06-04T19:09:11.761888
66,0.2567,0.4172,0.8150,-10.850,-93.695,50.015,1.22,1.30,1.41,1.33,1.22,2025-06-04T19:09:11.761888
67,0.2918,0.3470,0.8096,-6.090,-21.770,1.540,1.27,1.08,1.28,1.41,1.22,2025-06-04T19:09:11.836821
68,0.3274,0.4319,0.7984,12.530,4.480,-1.645,1.30,1.17,1.44,1.31,1.12,2025-06-04T19:09:12.039735
69,0.2172,0.4538,0.8091,10.080,6.300,-6.965,1.27,1.24,1.35,1.25,1.26,2025-06-04T19:09:12.039735
70,0.2508,0.4602,0.9116,10.780,-30.205,-3.360,1.29,1.30,1.18,1.34,1.23,2025-06-04T19:09:12.159379
71,0.2435,0.4114,0.7784,23.695,-26.565,-10.955,1.22,1.29,1.35,1.42,1.26,2025-06-04T19:09:12.346207
72,0.2952,0.4792,0.8281,11.830,-24.745,-6.580,1.17,1.30,1.45,1.42,1.22,2025-06-04T19:09:12.460477
73,0.4055,0.4924,0.7627,7.280,-36.015,-2.205,1.25,1.23,1.43,1.39,1.26,2025-06-04T19:09:12.538749
74,0.2562,0.4538,0.9814,-14.770,-23.310,-11.620,1.29,1.02,1.43,1.43,1.27,2025-06-04T19:09:12.663528
75,0.4846,0.5256,0.6900,19.915,-20.195,-3.255,1.27,0.85,1.34,1.39,1.21,2025-06-04T19:09:12.749399
76,0.4387,0.5114,0.7008,-2.835,-1.925,13.440,1.27,0.86,1.41,1.15,1.27,2025-06-04T19:09:12.869229
77,0.4680,0.5026,0.6993,2.415,18.025,5.670,1.23,0.81,1.24,1.14,1.26,2025-06-04T19:09:13.074974
78,0.4504,0.5051,0.7247,7.280,-5.460,-0.280,1.12,0.90,1.42,1.38,1.20,2025-06-04T19:09:13.074974
79,0.4582,0.4748,0.7774,-0.070,8.785,-0.455,1.23,1.01,1.43,1.38,1.10,2025-06-04T19:09:13.368312
80,0.3943,0.5402,0.7164,-9.135,38.220,-3.255,1.28,1.05,1.43,1.33,1.19,2025-06-04T19:09:13.484811
81,0.2684,0.4997,0.7964,0.035,41.580,-28.140,1.15,1.16,1.19,1.02,1.21,2025-06-04T19:09:13.484811
82,0.3265,0.4875,0.7637,-7.525,-1.610,1.680,1.21,1.06,1.35,1.29,1.22,2025-06-04T19:09:13.765001
83,0.1781,0.4821,0.8784,0.560,-9.660,1.085,1.23,1.13,1.33,1.33,1.23,2025-06-04T19:09:13.765001
84,0.2850,0.5139,0.8008,4.200,-6.930,2.450,1.13,1.15,1.43,1.41,1.11,2025-06-04T19:09:13.884223
85,0.2308,0.5134,0.8389,-1.330,-20.825,11.690,1.23,1.16,1.41,1.42,1.19,2025-06-04T19:09:13.884223
86,0.2806,0.4860,0.8442,1.995,-6.650,0.595,1.26,1.12,1.42,1.40,1.21,2025-06-04T19:09:13.985532
87,0.2420,0.4543,0.8272,9.100,1.750,-8.785,1.21,1.13,1.42,1.37,1.24,2025-06-04T19:09:14.141819
88,0.1771,0.4987,0.7554,-22.505,-8.925,-7.910,1.20,1.03,1.38,1.39,1.12,2025-06-04T19:09:14.303084
89,0.2425,0.4685,0.7950,-4.305,-12.250,0.805,1.20,1.16,1.37,1.31,1.21,2025-06-04T19:09:14.597765
90,0.1991,0.4587,0.8140,3.360,0.420,-3.780,1.07,1.25,1.42,1.26,1.14,2025-06-04T19:09:14.597765
91,0.2318,0.4797,0.8394,11.235,-17.535,-5.530,1.19,1.23,1.39,1.39,1.10,2025-06-04T19:09:14.713273
92,0.2216,0.5017,0.8755,7.035,2.380,-9.205,1.20,1.26,1.20,1.27,1.22,2025-06-04T19:09:14.713273
93,0.2201,0.4250,0.8462,9.590,6.230,-7.420,1.27,1.30,1.45,1.33,1.01,2025-06-04T19:09:15.003682
94,0.2137,0.5026,0.8882,-5.565,4.025,-0.070,1.28,1.32,1.38,1.36,1.18,2025-06-04T19:09:15.003682
95,0.0996,0.4807,0.8799,-6.965,14.210,-2.135,1.11,1.29,1.33,1.34,1.25,2025-06-04T19:09:15.121340
96,0.1488,0.4319,0.8677,-26.880,-5.355,-13.930,1.25,1.39,1.36,1.34,1.27,2025-06-04T19:09:15.121340
97,0.1030,0.4455,0.8682,18.760,-12.635,-10.080,1.24,1.27,1.25,1.12,1.24,2025-06-04T19:09:15.531001
98,0.1454,0.5592,0.9926,13.510,-1.925,-6.650,1.24,0.97,1.12,1.36,0.97,2025-06-04T19:09:15.531001
99,0.0956,0.5256,0.8101,-0.805,6.335,-6.755,1.22,0.91,1.40,1.36,1.11,2025-06-04T19:09:15.826004
100,0.0556,0.5597,0.8272,9.030,-5.600,-2.555,1.20,0.92,1.36,1.26,1.20,2025-06-04T19:09:15.826004
101,0.0576,0.5666,0.8013,-14.560,-12.145,-7.490,1.06,0.86,1.40,1.37,1.21,2025-06-04T19:09:15.826004
102,0.0683,0.5104,0.8843,-3.675,-3.780,-3.290,1.17,0.95,1.25,1.12,1.22,2025-06-04T19:09:15.932087
103,0.0571,0.5324,0.8594,2.275,-5.670,0.175,1.21,0.97,1.05,1.36,1.21,2025-06-04T19:09:15.932087
104,0.0468,0.5173,0.8516,4.060,-9.030,0.980,1.28,0.95,1.15,1.41,1.09,2025-06-04T19:09:16.152023
105,0.0639,0.5241,0.8711,1.365,-13.090,2.310,1.20,1.05,1.20,1.08,1.15,2025-06-04T19:09:16.152023
106,0.0102,0.5197,0.8208,5.775,-10.570,-2.800,1.25,1.12,1.18,1.24,1.16,2025-06-04T19:09:16.359324
107,0.0508,0.5270,0.8486,-1.750,-5.495,0.420,1.24,0.96,1.17,1.20,0.96,2025-06-04T19:09:16.405557
108,0.0503,0.5383,0.8535,-3.955,0.980,-0.280,1.25,0.76,1.06,1.00,0.97,2025-06-04T19:09:16.562801
109,0.0102,0.5065,0.8579,-18.690,-7.560,1.680,1.13,0.71,1.10,0.96,1.00,2025-06-04T19:09:16.749995
110,0.0303,0.4934,0.8667,-2.380,-6.790,-0.105,1.26,0.61,1.09,1.22,0.94,2025-06-04T19:09:16.749995
111,0.0425,0.5153,0.8569,8.890,-5.250,-3.080,0.99,0.69,1.06,1.06,0.71,2025-06-04T19:09:16.966484
112,0.0386,0.5212,0.8520,2.940,0.350,-1.435,1.21,0.83,1.12,1.05,1.08,2025-06-04T19:09:16.967231
113,0.0337,0.5222,0.8516,5.075,-11.900,2.555,1.25,0.87,1.20,1.26,1.17,2025-06-04T19:09:17.258439
114,0.0171,0.4782,0.8189,-3.045,-6.685,1.505,1.26,0.95,1.20,1.36,1.10,2025-06-04T19:09:17.374571
115,0.0102,0.5080,0.8501,11.445,-5.950,0.910,1.15,1.02,1.28,1.30,1.24,2025-06-04T19:09:17.374571
116,0.0146,0.5290,0.8462,5.565,-17.815,0.280,1.25,1.13,1.30,1.43,1.15,2025-06-04T19:09:17.578989
117,0.0303,0.5392,0.8203,0.735,-2.940,1.085,1.29,1.01,1.33,1.35,1.24,2025-06-04T19:09:17.578989
118,0.0127,0.5466,0.8418,0.875,-3.010,-1.400,1.24,1.16,1.23,1.26,1.23,2025-06-04T19:09:17.843781
119,0.0215,0.5358,0.8491,1.890,-8.575,0.070,1.29,1.24,1.37,1.40,1.20,2025-06-04T19:09:17.843781
120,0.0307,0.5236,0.8203,4.515,-14.595,-0.630,1.26,1.16,1.33,1.33,1.11,2025-06-04T19:09:17.978264
121,0.0547,0.5070,0.8433,-1.855,-4.865,-2.765,1.31,1.25,1.37,1.42,1.17,2025-06-04T19:09:17.978264
122,0.0468,0.5412,0.8286,3.010,-10.255,2.555,1.11,1.25,1.42,1.25,1.06,2025-06-04T19:09:18.093405
123,0.0239,0.5500,0.8252,7.595,-8.715,2.030,1.21,1.26,1.27,1.32,1.07,2025-06-04T19:09:18.296733
124,0.0185,0.5422,0.8403,0.735,-4.830,-1.400,1.18,1.28,1.38,1.32,1.16,2025-06-04T19:09:18.391669
125,0.0527,0.5383,0.7925,2.065,-8.540,2.625,1.28,1.27,1.15,1.33,1.22,2025-06-04T19:09:18.440643
126,0.0337,0.5490,0.8452,-2.450,-15.155,1.960,1.25,1.22,1.30,1.25,1.23,2025-06-04T19:09:18.592674
127,0.0420,0.5544,0.8130,-3.850,-1.855,0.525,1.28,1.26,1.41,1.40,1.16,2025-06-04T19:09:18.706908
128,0.0244,0.5363,0.7828,1.155,-6.020,-2.625,1.27,1.25,1.22,1.28,1.21,2025-06-04T19:09:19.012348
129,0.0024,0.5319,0.7769,3.325,-2.310,4.165,1.24,1.15,1.41,1.39,1.23,2025-06-04T19:09:19.012348
130,0.0171,0.5544,0.8208,-1.505,-2.100,0.245,1.24,1.22,1.39,1.32,1.21,2025-06-04T19:09:19.012348
131,0.1196,0.5705,0.8154,-4.725,-14.980,1.505,1.24,1.24,1.37,1.25,1.17,2025-06-04T19:09:19.220525
132,0.0527,0.5675,0.8228,-0.910,-3.570,0.245,1.29,1.17,1.24,1.38,1.19,2025-06-04T19:09:19.421878
133,0.1069,0.5129,0.8047,-8.225,-12.635,5.250,1.25,1.23,1.38,1.27,1.20,2025-06-04T19:09:19.421878
134,0.0366,0.5256,0.8472,-2.660,1.050,-5.005,1.26,1.18,1.30,1.01,1.08,2025-06-04T19:09:19.713833
135,0.0508,0.5309,0.8364,0.070,-1.890,-4.690,1.27,1.23,1.42,1.43,1.17,2025-06-04T19:09:19.713833
136,0.0102,0.5173,0.8760,2.870,-2.065,-1.680,1.12,1.27,1.40,1.29,1.23,2025-06-04T19:09:19.821533
137,0.0361,0.5480,0.8154,-3.955,-2.485,2.380,1.22,1.26,1.36,1.34,1.18,2025-06-04T19:09:19.822489
138,0.0288,0.5051,0.8784,-1.680,-7.175,0.385,1.20,1.29,1.36,1.32,1.23,2025-06-04T19:09:20.037446
139,-0.0005,0.4670,0.7871,4.480,-7.350,1.925,1.18,1.28,1.20,1.29,1.17,2025-06-04T19:09:20.037446
140,0.0537,0.4817,0.8642,-2.765,-5.145,-1.575,1.23,1.16,1.14,1.36,1.20,2025-06-04T19:09:20.234449
141,0.0278,0.4860,0.8999,2.870,-8.435,-1.750,1.20,1.16,1.37,1.30,1.17,2025-06-04T19:09:20.428827
142,0.0415,0.4880,0.8398,4.095,-8.050,1.785,1.23,1.17,1.18,1.38,1.18,2025-06-04T19:09:20.428827
143,0.0561,0.5163,0.8101,0.245,-8.925,1.540,1.29,1.23,1.36,1.41,1.23,2025-06-04T19:09:20.542049
144,0.0342,0.5422,0.8320,-10.080,-6.195,-2.030,1.27,1.25,1.23,1.32,1.10,2025-06-04T19:09:20.636075
145,0.0220,0.5046,0.8594,1.435,-9.660,-0.140,1.29,1.30,1.33,1.39,1.19,2025-06-04T19:09:20.877324
146,0.0625,0.5280,0.8882,4.305,-20.825,4.410,1.29,1.16,1.23,1.37,1.17,2025-06-04T19:09:20.877324
147,0.0464,0.5070,0.8237,-1.295,-8.015,-1.155,1.26,1.15,1.33,1.38,1.13,2025-06-04T19:09:21.062867
148,0.0566,0.4870,0.8711,-1.855,-3.185,-1.960,1.28,1.11,1.32,1.19,1.09,2025-06-04T19:09:21.062867
149,-0.0205,0.4900,0.8345,-3.150,2.695,-8.785,1.21,1.23,1.40,1.37,1.16,2025-06-04T19:09:21.221464
150,0.0102,0.4870,0.8647,-5.250,12.600,-4.305,1.24,1.13,1.40,1.32,1.23,2025-06-04T19:09:21.459255
151,-0.0405,0.4924,0.8872,-6.405,0.875,1.190,1.13,1.12,1.41,1.41,1.22,2025-06-04T19:09:21.460250
152,-0.0312,0.4763,0.9023,-9.520,-4.690,4.760,1.24,1.14,1.45,1.43,1.24,2025-06-04T19:09:21.570545
153,-0.0044,0.4153,0.9160,-6.825,-7.210,1.225,1.21,1.19,1.36,1.33,1.10,2025-06-04T19:09:21.868182
154,-0.0400,0.4455,0.9150,0.350,-13.265,2.800,1.23,1.00,1.34,1.13,1.09,2025-06-04T19:09:21.868182
155,-0.0400,0.4392,0.9130,1.050,-10.080,1.750,1.26,1.09,1.40,1.28,1.22,2025-06-04T19:09:21.971866
156,-0.1283,0.4168,0.9492,12.880,-11.620,0.175,1.24,1.13,1.42,1.37,1.12,2025-06-04T19:09:21.971866
157,-0.0346,0.4675,0.8847,13.615,-23.660,-0.630,1.24,1.14,1.35,1.32,1.21,2025-06-04T19:09:22.176689
158,0.0415,0.4934,0.8403,0.630,-9.765,-0.490,1.28,1.22,1.40,1.38,1.21,2025-06-04T19:09:22.275718
159,0.0249,0.4807,0.8823,0.525,1.295,-6.755,1.24,1.26,1.05,1.30,1.12,2025-06-04T19:09:22.327947
160,-0.0220,0.4875,0.8857,0.805,-4.725,-1.505,1.26,1.17,1.36,1.32,1.18,2025-06-04T19:09:22.787824
161,0.0337,0.4714,0.9262,5.705,-17.920,1.400,1.27,1.25,1.32,1.40,1.22,2025-06-04T19:09:22.787824
162,0.0644,0.4900,0.8794,4.760,-17.430,2.730,1.14,1.20,1.35,1.29,1.18,2025-06-04T19:09:22.787824
163,0.0234,0.5158,0.8569,-1.820,-10.570,0.735,1.23,1.28,1.41,1.20,1.18,2025-06-04T19:09:22.893178
164,0.0161,0.5022,0.8477,-7.245,-0.035,-4.865,1.25,1.29,1.44,1.41,1.08,2025-06-04T19:09:22.893178
165,-0.0781,0.5007,0.9370,11.095,-18.340,11.165,1.09,1.27,1.15,1.20,1.21,2025-06-04T19:09:22.996978
166,0.0429,0.4914,0.8428,-0.280,1.925,-3.815,1.18,1.29,1.40,1.25,1.22,2025-06-04T19:09:23.107786
167,0.0693,0.4992,0.8662,-2.135,-7.665,1.750,1.24,1.31,1.44,1.32,1.22,2025-06-04T19:09:23.402886
168,-0.0083,0.4939,0.8525,-0.595,-10.675,2.030,1.20,1.27,1.04,1.32,1.22,2025-06-04T19:09:23.543936
169,0.0390,0.5031,0.8696,-0.700,-10.990,2.310,1.13,1.29,1.27,1.38,1.18,2025-06-04T19:09:23.543936
170,0.0508,0.4758,0.8462,-5.810,-8.820,1.540,1.21,1.33,1.28,1.37,1.20,2025-06-04T19:09:23.816321
171,0.0727,0.4494,0.8535,-8.470,-11.970,1.015,1.27,1.29,1.41,1.41,1.24,2025-06-04T19:09:23.816321
172,-0.0610,0.4377,0.8564,-20.335,10.920,-11.865,1.29,1.13,1.35,1.25,1.23,2025-06-04T19:09:23.917623
173,0.0654,0.4651,0.9101,-11.445,-30.940,14.595,1.27,1.04,1.38,1.32,1.10,2025-06-04T19:09:23.917623
174,0.0791,0.4738,0.9096,15.575,-3.675,-8.960,1.29,1.31,1.39,1.27,1.21,2025-06-04T19:09:24.027648
175,0.0537,0.4436,0.8696,1.120,-1.015,-5.810,1.27,1.34,1.30,1.44,1.23,2025-06-04T19:09:24.182964
176,-0.0146,0.4734,0.8935,0.350,-6.930,0.175,1.09,1.38,1.33,1.26,1.21,2025-06-04T19:09:24.327639
177,0.0356,0.4597,0.8647,3.850,-4.445,-1.295,0.94,1.27,1.38,1.37,1.22,2025-06-04T19:09:24.376960
178,-0.0132,0.4978,0.8804,1.330,-4.655,-1.645,1.21,1.37,1.21,1.40,1.23,2025-06-04T19:09:24.531380
179,0.0122,0.4787,0.8730,0.840,-7.770,0.595,1.11,1.39,1.35,1.38,1.20,2025-06-04T19:09:24.736653
180,0.0044,0.4802,0.8828,-0.980,-11.585,2.520,1.23,1.35,1.30,1.37,1.27,2025-06-04T19:09:24.736653
181,-0.0024,0.4909,0.8994,2.730,-3.465,-1.855,1.23,1.38,1.40,1.40,1.22,2025-06-04T19:09:24.839296
182,0.0117,0.4797,0.9599,9.730,-2.415,0.560,1.24,1.39,1.32,1.27,1.25,2025-06-04T19:09:25.245633
183,-0.0268,0.4982,0.8438,1.820,-2.555,-3.885,1.24,1.40,1.45,1.39,1.24,2025-06-04T19:09:25.245633
184,-0.0932,0.4919,0.8638,2.765,14.665,-12.180,1.28,1.34,1.39,1.34,1.28,2025-06-04T19:09:25.456667
185,-0.0717,0.4812,0.8189,-6.405,-30.240,12.005,1.24,1.37,1.34,1.33,1.27,2025-06-04T19:09:25.456667
186,-0.0371,0.4997,0.8389,-10.185,0.105,-5.215,1.29,1.12,1.35,1.35,1.23,2025-06-04T19:09:25.558772
187,-0.0439,0.4934,0.8725,-0.945,-13.580,3.045,1.27,1.22,1.32,1.33,1.19,2025-06-04T19:09:25.558772
188,0.0639,0.3177,1.4416,80.150,-9.765,-2.310,1.14,1.13,1.34,1.42,1.21,2025-06-04T19:09:25.860487
189,-0.0034,0.4900,0.9043,13.580,-5.005,2.100,1.29,1.21,1.15,1.38,1.25,2025-06-04T19:09:25.860487
190,-0.0005,0.4919,0.8579,-3.115,-13.720,3.605,1.11,1.26,1.37,1.42,1.20,2025-06-04T19:09:25.970611
191,-0.1176,0.5339,0.7359,-5.635,11.585,-1.645,1.21,1.31,1.38,1.36,1.24,2025-06-04T19:09:25.970611
192,-0.0146,0.4548,0.8823,26.320,2.905,-2.310,1.23,1.29,1.37,1.35,1.11,2025-06-04T19:09:26.181938
193,-0.0342,0.5002,0.8584,11.970,-1.680,-3.395,1.24,1.29,1.28,1.37,1.20,2025-06-04T19:09:26.474486
194,-0.0063,0.5134,0.8735,5.495,-9.135,0.315,1.22,1.33,1.42,1.38,1.23,2025-06-04T19:09:26.474486
195,-0.0112,0.5061,0.8242,-6.720,-12.180,1.120,1.22,1.34,1.38,1.41,1.24,2025-06-04T19:09:26.592383
196,-0.0356,0.5392,0.8696,-1.015,-5.880,0.245,1.26,1.34,1.37,1.22,1.24,2025-06-04T19:09:26.592383
197,-0.0483,0.5109,0.8677,-11.200,-15.890,5.040,1.21,1.32,1.44,1.45,1.19,2025-06-04T19:09:26.879766
198,0.0073,0.4880,0.8540,-5.425,-13.510,6.615,1.27,1.31,1.42,1.39,1.23,2025-06-04T19:09:26.879766
199,0.0644,0.4685,0.8745,0.665,3.465,-7.035,1.25,1.30,1.43,1.43,1.10,2025-06-04T19:09:27.001202
200,-0.0859,0.5051,0.8886,-0.175,-15.190,4.480,1.26,1.28,1.44,1.35,1.20,2025-06-04T19:09:27.001202
201,0.0029,0.5100,0.8740,0.280,-4.445,-2.765,1.24,1.31,1.47,1.40,1.22,2025-06-04T19:09:27.205045
202,-0.0903,0.4934,0.8930,-1.680,-13.055,3.605,1.23,1.29,1.39,1.27,1.25,2025-06-04T19:09:27.410130
203,-0.1269,0.4978,0.9155,1.120,3.570,-8.330,1.10,1.33,1.43,1.32,1.12,2025-06-04T19:09:27.410130
204,-0.0200,0.4939,0.8237,6.125,10.115,-4.445,1.22,1.30,1.40,1.39,1.20,2025-06-04T19:09:27.609190
205,-0.1200,0.4919,0.8564,18.305,-1.645,0.735,1.23,1.32,1.35,1.39,1.22,2025-06-04T19:09:27.609190
206,-0.0981,0.4216,0.8525,-3.535,-2.275,-18.690,1.25,1.34,1.37,1.39,1.08,2025-06-04T19:09:27.908258
207,-0.0752,0.4446,0.9062,16.555,-13.580,-5.600,1.22,1.30,1.36,1.32,1.09,2025-06-04T19:09:27.908258
208,0.0034,0.4748,0.9867,-28.945,-57.750,25.725,1.27,1.29,1.33,1.17,0.95,2025-06-04T19:09:28.023708
209,0.1362,0.3899,0.8818,-29.190,-40.670,13.475,1.09,1.26,1.13,1.30,1.15,2025-06-04T19:09:28.023708
210,0.2694,0.3533,0.9184,-36.575,-43.330,21.980,1.08,1.27,1.31,1.39,1.19,2025-06-04T19:09:28.220660
211,0.1005,0.2269,0.9989,-32.445,-2.695,-10.325,1.17,1.20,1.29,1.39,1.17,2025-06-04T19:09:28.309475
212,0.0386,0.1571,1.0458,-28.245,17.150,-31.080,1.24,1.27,1.30,1.25,1.23,2025-06-04T19:09:28.434381
213,0.0917,0.0639,0.9428,2.835,-13.755,10.920,1.29,1.31,1.41,1.26,1.21,2025-06-04T19:09:28.507200
214,0.1279,0.2230,1.0721,-16.205,-31.465,14.980,1.25,1.27,1.36,1.31,1.22,2025-06-04T19:09:28.638088
215,0.0859,0.1274,0.9760,-23.835,-29.050,-20.370,1.29,1.29,1.39,1.35,1.21,2025-06-04T19:09:28.845423
216,0.1747,0.0673,0.9877,2.660,-18.830,5.285,1.28,1.30,1.33,1.36,1.07,2025-06-04T19:09:28.845423
217,0.2591,0.1366,1.0019,-8.890,-12.110,30.030,1.18,1.31,1.33,1.35,1.18,2025-06-04T19:09:29.136680
218,0.3587,0.0537,0.9043,8.855,-112.875,86.345,1.22,1.27,1.40,1.35,1.18,2025-06-04T19:09:29.136680
219,0.4197,-0.0913,0.8296,-15.995,-9.450,10.395,1.20,1.31,1.34,1.40,1.19,2025-06-04T19:09:29.242132
220,0.6217,0.0425,0.8677,-0.770,-40.635,15.715,1.25,1.30,1.35,1.36,1.24,2025-06-04T19:09:29.293426
221,0.5197,0.0190,0.8745,-6.405,-13.090,13.405,1.16,1.31,1.37,1.40,1.20,2025-06-04T19:09:29.449372
222,0.5724,-0.0425,0.8486,0.280,-6.475,8.190,1.23,1.29,1.37,1.41,1.18,2025-06-04T19:09:29.752224
223,0.4695,-0.0410,0.9272,-1.190,-5.600,-4.795,1.27,1.32,1.38,1.31,1.23,2025-06-04T19:09:29.752224
224,0.5470,-0.0312,0.8799,16.905,0.630,-5.670,1.22,1.33,1.15,1.41,1.25,2025-06-04T19:09:29.866134
225,0.5222,-0.0059,0.9008,10.955,5.005,-12.110,1.21,1.31,1.40,1.39,1.11,2025-06-04T19:09:29.866134
226,0.4875,0.0024,0.8974,11.025,12.355,-12.635,1.23,1.35,1.40,1.35,1.21,2025-06-04T19:09:30.164161
227,0.4665,0.0137,0.9160,9.485,7.455,-12.705,1.21,1.26,1.31,1.30,1.22,2025-06-04T19:09:30.304510
228,0.4060,-0.0005,0.9228,3.080,-1.855,-4.795,1.20,1.30,1.39,1.38,1.21,2025-06-04T19:09:30.304510
229,0.3865,0.0381,0.8242,13.090,2.415,-6.055,1.21,1.34,1.41,1.41,1.25,2025-06-04T19:09:30.304510
230,0.4631,0.1405,0.9755,7.595,-4.690,-2.835,1.28,1.35,1.39,1.35,1.24,2025-06-04T19:09:30.560788
231,0.3924,0.1235,0.9335,-6.790,68.215,-17.150,1.25,1.32,1.35,1.34,1.22,2025-06-04T19:09:30.687554
232,0.0688,0.0917,0.9833,-22.155,54.635,-28.385,1.25,1.29,1.37,1.42,1.21,2025-06-04T19:09:30.687554
233,0.0854,0.0537,1.0004,2.345,-31.220,20.090,1.15,1.31,1.30,1.40,1.20,2025-06-04T19:09:30.981354
234,0.1967,0.0532,0.9931,0.455,6.020,-3.395,1.05,1.18,1.38,1.34,1.08,2025-06-04T19:09:30.981537
235,0.0610,0.0932,0.9545,1.120,-7.525,1.435,1.21,1.25,1.39,1.02,1.19,2025-06-04T19:09:31.096906
236,0.1205,0.0747,0.9975,1.295,-2.485,-4.235,1.08,1.18,1.27,1.14,1.07,2025-06-04T19:09:31.402716
237,0.0303,0.1020,0.9731,10.080,-7.140,-3.150,1.06,1.16,1.28,1.32,1.19,2025-06-04T19:09:31.402716
238,0.1610,0.0888,1.0126,7.245,-22.260,10.710,1.05,1.18,1.33,1.40,1.22,2025-06-04T19:09:31.495608
239,0.1791,0.1484,1.0385,4.725,-1.085,-3.150,1.18,1.18,1.33,1.43,1.24,2025-06-04T19:09:31.495608
240,0.1576,0.1230,0.9809,-2.135,-9.975,5.705,1.21,1.21,1.21,1.37,1.23,2025-06-04T19:09:31.598121
241,0.1742,0.0883,0.9760,8.960,-0.455,-4.935,1.27,1.25,1.32,1.38,1.24,2025-06-04T19:09:31.813768
242,0.1713,0.1479,1.0024,8.365,-12.600,-2.590,1.08,1.25,1.34,1.43,1.23,2025-06-04T19:09:31.813768
243,0.1908,0.1576,1.0048,1.295,-7.980,-0.735,1.10,1.21,1.27,1.37,1.13,2025-06-04T19:09:31.905487
244,0.1820,0.1332,0.9897,0.560,-2.485,-0.175,1.26,1.31,1.29,1.35,1.09,2025-06-04T19:09:32.018491
245,0.1552,0.1562,0.9950,6.755,0.210,-5.320,1.22,1.29,1.37,1.36,1.22,2025-06-04T19:09:32.229448
246,0.1547,0.1991,0.9965,2.135,-11.060,1.925,1.27,1.30,1.28,1.32,1.23,2025-06-04T19:09:32.314628
247,0.1459,0.1205,0.9623,9.240,-4.585,-4.305,1.25,1.30,1.16,1.31,1.17,2025-06-04T19:09:32.365387
248,0.1259,0.1801,0.9243,26.390,-4.235,-14.840,1.27,1.26,1.13,1.43,1.23,2025-06-04T19:09:32.520136
249,0.1118,0.2743,1.0243,24.465,-9.170,-21.420,1.27,1.30,1.16,1.24,1.08,2025-06-04T19:09:32.635761
250,0.1679,0.2908,0.9701,16.730,-32.375,-5.145,1.28,1.27,1.29,1.39,1.18,2025-06-04T19:09:32.726780
251,0.2201,0.3206,0.9052,27.055,-57.190,16.450,1.29,1.26,1.28,1.31,1.24,2025-06-04T19:09:32.844930
252,0.3235,0.4329,0.8252,3.920,-0.910,-24.885,1.28,1.25,1.35,1.38,1.08,2025-06-04T19:09:32.927949
253,0.2401,0.3343,0.8764,18.095,-1.855,-15.470,1.23,1.29,1.27,1.25,1.05,2025-06-04T19:09:33.185382
254,0.2289,0.4075,0.8608,13.055,11.795,-9.905,1.18,1.26,1.32,1.27,1.17,2025-06-04T19:09:33.185382
255,0.1649,0.4387,0.8369,22.085,13.300,-14.175,1.25,1.28,1.35,1.34,1.08,2025-06-04T19:09:33.333470
256,0.1449,0.4836,0.8638,3.990,18.830,-16.065,0.97,1.30,1.32,1.29,1.19,2025-06-04T19:09:33.390860
257,-0.0356,0.5139,0.9067,-2.135,2.765,-5.075,1.22,1.29,1.35,1.32,1.22,2025-06-04T19:09:33.544428
258,0.0898,0.4802,0.8564,0.630,16.240,-14.000,1.23,1.29,1.32,1.34,1.18,2025-06-04T19:09:33.657875
259,-0.0127,0.4719,0.8150,9.555,-6.335,-0.315,1.26,1.31,1.32,1.29,1.06,2025-06-04T19:09:33.748512
260,0.0000,0.4797,0.8686,0.525,1.190,-5.320,1.22,1.29,1.37,1.39,1.20,2025-06-04T19:09:34.053050
261,-0.0444,0.4909,0.8828,8.085,-5.845,-0.945,1.23,1.28,1.14,1.35,1.11,2025-06-04T19:09:34.154298
262,-0.0127,0.5085,0.8755,-4.375,-11.270,0.560,1.14,1.25,1.29,1.34,1.19,2025-06-04T19:09:34.154298
263,0.0059,0.4597,0.8638,3.745,-30.695,13.335,1.20,1.25,1.25,1.33,1.23,2025-06-04T19:09:34.475609
264,0.0410,0.4709,0.8774,-0.035,-2.450,-4.445,1.20,1.25,1.35,1.38,1.22,2025-06-04T19:09:34.475609
265,0.0098,0.5031,0.8901,-2.800,-11.270,2.485,1.29,1.25,1.38,1.34,1.21,2025-06-04T19:09:34.569802
266,0.0449,0.5158,0.9038,-0.910,2.625,-5.285,1.26,1.26,1.11,1.15,1.23,2025-06-04T19:09:34.569802
267,-0.0049,0.4982,0.8706,0.805,-21.700,8.820,1.23,1.14,1.04,1.05,1.17,2025-06-04T19:09:34.781172
268,-0.0117,0.4997,0.8452,1.400,-6.825,-0.140,1.25,1.24,1.32,1.28,1.00,2025-06-04T19:09:34.781172
269,0.1142,0.4558,0.8081,7.350,-18.410,4.305,1.26,1.28,1.33,1.37,1.14,2025-06-04T19:09:35.079053
270,0.0571,0.5251,0.8340,7.455,-8.085,0.840,1.11,1.27,1.31,1.26,1.14,2025-06-04T19:09:35.079053
271,0.0654,0.5168,0.8384,0.280,-6.720,-1.925,1.27,1.31,1.37,1.21,1.03,2025-06-04T19:09:35.182130
272,0.0083,0.5124,0.8447,2.695,-6.160,-0.070,1.24,1.39,1.40,1.35,1.11,2025-06-04T19:09:35.284750
273,0.0615,0.5031,0.8262,-0.420,-3.220,-3.500,1.30,1.38,1.35,1.39,1.00,2025-06-04T19:09:35.486257
274,0.0844,0.5129,0.8335,-0.280,-2.450,-4.095,1.31,1.31,1.41,1.32,1.05,2025-06-04T19:09:35.592928
275,0.0010,0.5305,0.8408,2.065,-2.765,-6.335,1.19,1.29,1.05,1.38,1.12,2025-06-04T19:09:35.592928
276,-0.0039,0.5212,0.8520,-1.820,-6.020,-0.735,1.16,1.39,1.41,1.37,1.16,2025-06-04T19:09:35.807526
277,0.0083,0.5158,0.8525,-1.365,-7.560,1.505,1.28,1.41,1.44,1.40,1.10,2025-06-04T19:09:35.807526
278,0.0015,0.5334,0.8189,1.645,-13.300,4.060,1.26,1.37,1.23,1.33,1.01,2025-06-04T19:09:36.101303
279,-0.0268,0.5192,0.8330,1.400,-13.755,3.115,1.32,1.33,1.42,1.36,1.05,2025-06-04T19:09:36.218573
280,0.0137,0.5451,0.8525,2.485,-9.590,1.820,1.27,1.31,1.41,1.37,1.11,2025-06-04T19:09:36.218573
281,0.0322,0.5363,0.8330,1.365,-3.990,-4.025,1.30,1.32,1.39,1.31,1.11,2025-06-04T19:09:36.510071
282,0.0073,0.5363,0.8345,-1.295,-5.145,-1.470,1.23,1.38,1.38,1.14,1.12,2025-06-04T19:09:36.510823
283,0.0210,0.5178,0.8301,-2.590,-6.965,-0.490,1.10,1.36,1.35,1.31,1.15,2025-06-04T19:09:36.616644
284,0.0176,0.5256,0.8438,-6.895,-10.640,3.115,1.24,1.35,1.36,1.34,1.13,2025-06-04T19:09:36.617650
285,0.0273,0.5095,0.8608,0.595,-6.125,-1.715,1.24,1.35,1.37,1.39,1.17,2025-06-04T19:09:36.816532
286,0.0020,0.5226,0.8428,-1.540,-9.660,0.455,1.26,1.32,1.34,1.34,1.18,2025-06-04T19:09:36.816532
287,0.0142,0.5183,0.8452,0.875,-6.370,-0.805,1.24,1.31,1.40,1.40,1.18,2025-06-04T19:09:36.982385
288,0.0200,0.4958,0.8672,-0.035,-7.315,-0.385,1.25,1.33,1.37,1.33,1.17,2025-06-04T19:09:37.240415
289,0.0000,0.5134,0.8540,3.570,-4.410,-2.415,1.23,1.31,1.34,1.13,1.15,2025-06-04T19:09:37.240415
290,0.0249,0.4616,0.8135,-1.925,-10.115,0.945,1.26,1.33,1.34,1.24,1.13,2025-06-04T19:09:37.452320
291,-0.0088,0.5222,0.8516,-0.350,-5.705,-0.735,1.25,1.26,1.33,1.25,1.19,2025-06-04T19:09:37.452320
292,-0.0176,0.4870,0.8525,1.295,-10.710,2.380,1.25,1.32,1.36,1.31,1.15,2025-06-04T19:09:37.661656
293,-0.0151,0.5207,0.8540,5.810,-4.060,-2.485,1.24,1.24,1.38,1.34,1.16,2025-06-04T19:09:37.661656
294,-0.0029,0.5485,0.8672,7.910,-9.695,2.520,1.20,1.31,1.34,1.38,1.06,2025-06-04T19:09:37.846787
295,-0.0015,0.5431,0.8501,0.770,-9.765,1.295,1.27,1.31,1.40,1.38,1.16,2025-06-04T19:09:37.846787
296,0.0034,0.5417,0.8086,0.735,-7.070,-0.595,1.26,1.32,1.29,1.23,1.14,2025-06-04T19:09:38.051258
297,0.0010,0.5344,0.8472,1.260,-5.775,-1.050,1.28,1.35,1.40,1.31,1.17,2025-06-04T19:09:38.257364
298,-0.0005,0.5446,0.8384,-1.015,-8.785,1.190,1.26,1.34,1.31,1.35,1.03,2025-06-04T19:09:38.257364
299,0.0020,0.5368,0.8398,0.770,-4.375,-2.100,1.28,1.36,1.38,1.25,1.11,2025-06-04T19:09:38.568359
300,0.0010,0.5275,0.8511,-2.065,-6.965,-1.855,1.28,1.37,1.39,1.33,1.10,2025-06-04T19:09:38.568359
301,0.0029,0.5178,0.8467,-1.680,-6.265,-0.035,1.16,1.35,1.43,1.33,1.15,2025-06-04T19:09:38.664359
302,-0.0024,0.5192,0.8584,-1.050,-11.690,3.010,1.21,1.28,1.37,1.33,1.14,2025-06-04T19:09:38.664359
303,0.0059,0.5261,0.8564,1.295,-9.555,0.980,1.14,1.34,1.35,1.41,1.05,2025-06-04T19:09:38.870340
304,0.0107,0.5183,0.8472,-1.120,-6.545,-0.525,1.25,1.32,1.35,1.27,1.10,2025-06-04T19:09:38.870340
305,0.0137,0.5129,0.8755,-0.350,-5.670,-2.170,1.23,1.24,1.14,1.33,1.14,2025-06-04T19:09:38.988454
306,0.0117,0.5168,0.8423,-0.070,-7.735,0.175,1.25,1.35,1.40,1.40,1.02,2025-06-04T19:09:39.286215
307,0.0034,0.5226,0.8276,1.785,-6.300,0.455,1.13,1.34,1.36,1.35,1.15,2025-06-04T19:09:39.286215
308,-0.0107,0.5392,0.8638,2.870,-5.950,-0.700,1.21,1.35,1.35,1.35,1.16,2025-06-04T19:09:39.363881
309,-0.0122,0.5202,0.8403,2.940,-9.905,1.785,1.20,1.34,1.45,1.38,1.10,2025-06-04T19:09:39.485788
310,-0.0068,0.5441,0.8413,2.940,-7.490,-0.245,1.20,1.37,1.45,1.37,1.11,2025-06-04T19:09:39.774317
311,0.0073,0.5412,0.8340,2.170,-4.620,-2.205,1.24,1.36,1.39,1.40,1.13,2025-06-04T19:09:39.774317
312,-0.0068,0.5348,0.8184,-4.900,-1.750,-4.970,1.25,1.41,1.41,1.34,1.15,2025-06-04T19:09:39.903308
313,-0.0615,0.5339,0.8462,-0.700,-1.155,-3.710,1.25,1.51,1.41,1.01,1.15,2025-06-04T19:09:39.903308
314,-0.0371,0.5392,0.8452,-0.035,-14.490,4.830,1.12,1.53,1.36,1.13,1.01,2025-06-04T19:09:40.100182
315,-0.0083,0.5192,0.8813,-61.985,-25.375,5.950,1.08,1.53,1.42,1.31,1.09,2025-06-04T19:09:40.198934
316,0.0151,0.4973,0.8789,1.785,-11.340,3.045,1.25,1.50,1.41,1.31,1.14,2025-06-04T19:09:40.249281
317,0.0078,0.5012,0.8633,-2.170,-2.380,-3.605,1.27,1.45,1.34,1.33,1.03,2025-06-04T19:09:40.605750
318,0.0220,0.4963,0.8691,2.905,-11.795,2.310,1.31,1.45,1.46,1.43,1.10,2025-06-04T19:09:40.605750
319,-0.0102,0.5012,0.8433,-0.315,-2.590,-3.885,1.32,1.43,1.29,1.37,1.15,2025-06-04T19:09:40.724432
320,-0.0063,0.5075,0.8657,-0.210,-8.190,0.280,1.13,1.41,1.29,1.39,1.15,2025-06-04T19:09:40.724432
321,-0.0195,0.4914,0.8564,-1.435,-12.600,0.595,1.24,1.40,1.44,1.43,1.16,2025-06-04T19:09:40.936242
322,0.0078,0.4895,0.8760,0.875,-6.720,-0.105,1.22,1.35,1.40,1.40,1.13,2025-06-04T19:09:40.936242
323,-0.0068,0.4978,0.8662,1.260,-7.490,-0.385,1.25,1.40,1.35,1.37,1.05,2025-06-04T19:09:41.223059
324,-0.0049,0.4914,0.9091,2.170,-6.930,-1.855,1.26,1.35,1.39,1.15,1.16,2025-06-04T19:09:41.336305
325,0.1030,0.5065,0.8794,-1.540,-8.365,0.350,1.28,1.26,1.39,1.41,1.17,2025-06-04T19:09:41.336305
326,-0.0190,0.4934,0.8555,-0.280,-7.770,0.595,1.29,1.20,1.20,1.32,1.03,2025-06-04T19:09:41.554831
327,-0.0054,0.4890,0.8945,4.410,-7.420,1.015,1.23,1.31,1.39,1.36,1.14,2025-06-04T19:09:41.554831
328,-0.0005,0.4973,0.8564,1.505,-5.845,-1.960,1.23,1.35,1.43,1.44,1.19,2025-06-04T19:09:41.748932
329,-0.0410,0.4919,0.8677,-1.295,-0.770,-2.660,1.13,1.39,1.40,1.30,1.24,2025-06-04T19:09:41.748932
330,-0.0098,0.4880,0.9013,7.210,-25.725,8.715,1.27,1.39,1.37,1.33,1.25,2025-06-04T19:09:42.040995
331,0.0068,0.5002,0.8691,1.505,-7.455,1.715,1.30,1.39,1.37,1.37,1.28,2025-06-04T19:09:42.040995
332,0.0634,0.4885,0.8799,-1.960,-15.365,4.130,1.24,1.35,1.26,1.15,1.24,2025-06-04T19:09:42.155418
333,0.0551,0.4870,0.8930,0.770,-9.835,1.995,1.23,1.16,1.30,1.20,1.15,2025-06-04T19:09:42.553056
334,0.0761,0.4778,0.8613,-0.805,-20.790,0.665,1.27,1.20,1.37,1.38,1.08,2025-06-04T19:09:42.553056
335,0.0864,0.4836,0.8623,1.225,-12.110,2.135,1.17,1.25,1.41,1.35,1.00,2025-06-04T19:09:42.553056
336,0.0747,0.4895,0.8638,2.275,-8.890,2.415,1.27,1.24,1.36,1.32,1.11,2025-06-04T19:09:42.553056
337,0.0952,0.4685,0.8804,-0.630,-5.670,0.630,1.28,1.29,1.41,1.16,1.09,2025-06-04T19:09:42.757284
338,0.0664,0.4826,0.9262,11.025,9.205,-3.360,1.30,1.27,1.37,1.33,1.14,2025-06-04T19:09:42.757284
339,0.0005,0.3343,0.7110,6.545,-18.200,1.715,1.27,1.29,1.37,1.33,1.10,2025-06-04T19:09:42.965370
340,0.0732,0.5056,0.8735,4.760,-4.585,-1.890,1.14,1.21,1.42,1.39,1.16,2025-06-04T19:09:43.267839
341,0.0971,0.4953,0.8686,-0.805,-2.275,-6.545,1.25,1.31,1.41,1.34,1.18,2025-06-04T19:09:43.267839
342,0.0756,0.4939,0.8647,-0.385,-12.740,3.710,1.23,1.35,1.42,1.32,1.21,2025-06-04T19:09:43.375670
343,0.0600,0.4900,0.8745,0.315,-3.675,-2.555,1.23,1.31,1.31,1.29,1.15,2025-06-04T19:09:43.375670
344,0.0195,0.4924,0.8691,0.700,-6.755,-0.770,1.23,1.38,1.37,1.39,1.05,2025-06-04T19:09:43.677215
345,0.0556,0.5070,0.8623,-1.820,-10.500,1.050,1.26,1.35,1.29,1.34,1.15,2025-06-04T19:09:43.677215
346,0.0869,0.4880,0.8569,0.665,-2.240,-3.185,1.27,1.35,1.46,1.33,1.16,2025-06-04T19:09:43.782926
347,0.0688,0.4860,0.8535,1.540,-9.870,0.840,1.24,1.38,1.39,1.35,1.20,2025-06-04T19:09:43.782926
348,0.1064,0.4402,0.8213,-13.405,-16.415,4.900,1.25,1.25,1.39,1.26,1.18,2025-06-04T19:09:43.991060
349,0.0805,0.5046,0.8857,-5.320,-2.975,0.245,1.28,1.34,1.40,1.37,1.21,2025-06-04T19:09:44.103860
350,0.0976,0.5022,0.9150,-24.360,-34.405,2.170,1.29,1.41,1.40,1.26,1.19,2025-06-04T19:09:44.192573
351,0.1908,0.3733,0.8023,-27.755,-9.240,-1.120,1.22,1.41,1.42,1.39,1.08,2025-06-04T19:09:44.348121
352,0.0649,0.2884,0.8125,-12.740,-44.135,12.985,1.19,1.31,1.36,1.41,1.13,2025-06-04T19:09:44.404006
353,0.1732,0.3333,0.9662,-14.000,-21.910,9.590,1.23,1.40,1.36,1.33,1.13,2025-06-04T19:09:44.500811
354,0.2972,0.3392,0.8872,-0.175,-14.245,17.780,1.27,1.39,1.44,1.42,1.19,2025-06-04T19:09:44.717014
355,0.1142,0.2816,0.9062,-4.410,11.095,-1.295,1.29,1.42,1.36,1.16,1.13,2025-06-04T19:09:44.717014
356,0.2499,0.3338,0.8833,-11.095,17.395,-45.115,1.25,1.34,1.41,1.26,1.05,2025-06-04T19:09:45.033263
357,0.1752,0.0508,0.8701,-21.875,4.130,-20.650,1.31,1.28,1.29,1.30,1.13,2025-06-04T19:09:45.116253
358,0.2157,0.2869,0.9536,22.400,-22.330,24.185,1.12,1.33,1.42,1.18,1.20,2025-06-04T19:09:45.116253
359,0.3030,0.3772,1.0726,4.935,0.315,36.435,1.22,1.32,1.29,1.31,1.19,2025-06-04T19:09:45.159942
360,0.1401,0.2557,1.0121,-13.860,-0.525,35.700,1.22,1.32,1.40,1.45,1.19,2025-06-04T19:09:45.522936
361,0.2591,0.1654,1.0663,-45.150,-51.030,62.825,1.25,1.18,1.30,1.23,1.15,2025-06-04T19:09:45.522936
362,0.3904,0.0561,0.8623,-79.100,-37.835,65.345,1.21,1.06,1.15,1.30,1.14,2025-06-04T19:09:45.634640
363,0.3538,-0.0215,0.7642,-123.235,-40.425,60.375,1.08,1.05,1.38,1.16,1.18,2025-06-04T19:09:45.634640
364,0.3436,-0.2747,0.8203,-152.565,-20.055,60.095,1.18,0.95,1.33,1.34,1.07,2025-06-04T19:09:46.043059
365,0.4158,-0.3845,0.9023,64.855,-80.185,32.235,1.25,0.97,1.22,1.31,1.22,2025-06-04T19:09:46.043059
366,0.5617,-0.8569,0.9111,11.270,-34.230,11.550,1.20,0.93,1.04,1.34,1.05,2025-06-04T19:09:46.043059
367,0.3255,-0.4187,0.8955,14.455,-7.420,2.975,1.25,0.98,1.28,1.40,1.18,2025-06-04T19:09:46.165337
368,0.3157,-0.5534,0.8764,-1.855,-36.575,21.315,1.10,0.96,1.26,1.43,1.04,2025-06-04T19:09:46.394769
369,0.4494,-0.4973,0.7154,3.255,-5.495,-1.890,1.25,0.97,1.32,1.33,1.16,2025-06-04T19:09:46.394769
370,0.3967,-0.4748,0.8642,5.565,-15.260,1.050,1.26,0.98,1.32,1.40,1.20,2025-06-04T19:09:46.557833
371,0.3816,-0.4900,0.8281,-2.275,-11.725,-1.925,1.17,0.97,1.30,1.20,1.15,2025-06-04T19:09:46.557833
372,0.3958,-0.4870,0.8194,-3.395,-13.825,-7.105,1.19,0.89,1.18,1.38,1.15,2025-06-04T19:09:46.852387
373,0.4602,-0.5041,0.8233,-5.250,-18.725,-8.890,1.26,0.86,1.29,1.15,1.14,2025-06-04T19:09:46.852387
374,0.4958,-0.4929,0.7340,2.695,-15.995,-7.630,1.26,0.88,1.24,1.40,1.21,2025-06-04T19:09:46.951590
375,0.5192,-0.4690,0.8233,4.270,-10.255,1.575,1.12,0.95,1.26,1.33,1.06,2025-06-04T19:09:47.063780
376,0.4612,-0.4646,0.7774,-1.995,-13.090,3.780,1.22,0.95,1.24,1.33,1.14,2025-06-04T19:09:47.150846
377,0.4743,-0.4987,0.7959,4.375,-22.890,2.170,1.24,0.96,1.25,1.15,1.17,2025-06-04T19:09:47.366911
378,0.5275,-0.4797,0.7608,21.105,-15.085,-2.835,1.21,0.89,1.29,1.33,1.07,2025-06-04T19:09:47.366911
379,0.4807,-0.4582,0.7759,2.870,-1.995,-0.560,1.27,0.98,1.23,1.32,1.01,2025-06-04T19:09:47.485448
380,0.4748,-0.4704,0.7935,6.020,-4.690,-2.940,1.22,0.98,1.19,1.32,1.15,2025-06-04T19:09:47.775948
381,0.4719,-0.4382,0.7993,6.510,-5.845,-2.065,1.23,0.97,1.29,1.41,1.20,2025-06-04T19:09:47.775948
382,0.4690,-0.4436,0.8067,11.305,-5.880,-1.820,1.10,0.88,1.29,1.42,1.18,2025-06-04T19:09:47.889798
383,0.4509,-0.3977,0.8194,18.270,-4.445,-4.900,1.19,0.99,1.36,1.42,1.22,2025-06-04T19:09:47.889798
384,0.4724,-0.3440,0.8784,22.995,0.105,-8.295,1.26,1.25,1.43,1.17,1.07,2025-06-04T19:09:48.295258
385,0.4651,-0.3221,0.8862,12.775,-10.745,-1.435,1.20,1.32,1.37,1.44,1.20,2025-06-04T19:09:48.295258
386,0.4665,-0.3109,0.8818,-22.890,-28.525,8.925,1.19,1.38,1.34,1.41,1.13,2025-06-04T19:09:48.382024
387,0.5080,-0.3963,0.7725,-15.575,-34.020,10.360,1.23,1.38,1.44,1.43,1.14,2025-06-04T19:09:48.382024
388,0.5475,-0.3704,0.7759,-21.630,-28.665,8.260,1.23,1.05,1.17,1.43,1.21,2025-06-04T19:09:48.490109
389,0.5832,-0.4616,0.7091,-15.050,-16.415,3.990,1.30,1.09,1.44,1.20,1.11,2025-06-04T19:09:48.799886
390,0.5841,-0.4553,0.7344,-12.565,-11.830,7.245,1.24,1.06,1.12,1.16,1.15,2025-06-04T19:09:48.799886
391,0.5568,-0.5017,0.7022,-4.340,-5.145,1.505,1.28,1.03,1.36,1.38,1.19,2025-06-04T19:09:48.914625
392,0.5583,-0.4987,0.6988,-1.855,-8.225,0.385,1.29,1.02,1.30,1.35,1.19,2025-06-04T19:09:48.914625
393,0.5563,-0.5075,0.6925,-0.735,-8.610,-2.135,1.17,1.02,1.27,1.30,1.26,2025-06-04T19:09:49.310281
394,0.5680,-0.5080,0.6876,6.230,-5.215,-3.850,1.21,1.04,1.34,1.29,1.25,2025-06-04T19:09:49.310281
395,0.5919,-0.5427,0.6881,-11.270,2.310,-1.155,1.07,1.07,1.38,1.39,1.19,2025-06-04T19:09:49.415716
396,0.5353,-0.4797,0.7471,5.075,0.385,-2.135,1.22,0.99,1.28,1.36,1.16,2025-06-04T19:09:49.415716
397,0.4973,-0.5475,0.6427,17.045,0.070,-3.780,1.22,1.06,1.34,1.32,1.17,2025-06-04T19:09:49.517483
398,0.5636,-0.4275,0.8174,22.505,48.265,-24.115,1.27,1.11,1.39,1.30,1.09,2025-06-04T19:09:49.734544
399,0.4158,-0.3582,0.8755,32.865,12.845,-0.945,1.27,1.25,1.17,1.34,1.14,2025-06-04T19:09:49.734544
400,0.3758,-0.3231,0.7842,26.705,24.045,-23.275,1.12,1.30,1.34,1.39,1.15,2025-06-04T19:09:49.886473
401,0.4046,-0.2479,0.9482,15.365,-9.240,-5.285,1.05,1.23,1.41,1.33,1.13,2025-06-04T19:09:50.029798
402,0.4387,-0.2830,0.9165,-11.305,-13.230,4.760,1.22,1.34,1.44,1.34,1.15,2025-06-04T19:09:50.082243
403,0.4202,-0.2777,0.9467,-0.665,-9.800,1.470,1.10,1.45,1.37,1.36,1.10,2025-06-04T19:09:50.235380
404,0.4192,-0.2845,0.8750,1.960,-2.555,-4.690,1.20,1.42,1.41,1.31,1.07,2025-06-04T19:09:50.352742
405,0.3928,-0.2977,0.8886,3.990,-5.915,-8.505,1.22,1.50,1.38,1.22,1.08,2025-06-04T19:09:50.395378
406,0.3836,-0.3436,0.8477,-16.030,-10.850,-0.980,1.27,1.42,1.33,1.39,1.11,2025-06-04T19:09:50.643176
407,0.4236,-0.3719,0.8252,-0.490,0.630,-12.635,1.28,1.46,1.42,1.34,1.17,2025-06-04T19:09:50.643176
408,0.4119,-0.2621,0.9072,42.595,-19.145,-29.750,1.28,1.39,1.35,1.33,1.15,2025-06-04T19:09:50.777616
409,0.4265,-0.2279,1.0014,-2.835,8.155,-12.880,1.25,1.14,1.29,1.33,1.14,2025-06-04T19:09:51.055243
410,0.3982,-0.2957,0.8794,-4.830,23.730,-40.215,1.25,0.97,1.31,1.33,1.18,2025-06-04T19:09:51.055243
411,0.2259,-0.1796,1.1058,-33.005,88.620,-60.235,1.22,1.15,1.27,1.29,1.18,2025-06-04T19:09:51.174271
412,0.0439,-0.2640,1.0951,33.250,-26.110,5.845,1.30,1.14,1.32,1.33,1.15,2025-06-04T19:09:51.223315
413,0.2967,-0.2879,0.9433,15.225,-37.975,4.480,1.12,1.21,1.14,1.31,1.16,2025-06-04T19:09:51.563864
414,0.3265,-0.0825,1.1161,21.735,-42.805,12.320,1.05,1.26,1.35,1.30,1.18,2025-06-04T19:09:51.563864
415,0.4397,-0.2011,0.8423,36.295,-49.035,36.330,1.24,1.25,1.39,1.42,1.19,2025-06-04T19:09:51.667637
416,0.3538,0.0966,1.1107,73.780,8.190,-10.640,1.23,1.30,1.45,1.27,1.15,2025-06-04T19:09:51.667637
417,0.3611,-0.0068,0.8779,-0.070,-26.355,38.640,1.24,1.34,1.47,1.40,1.18,2025-06-04T19:09:51.777378
418,0.4626,-0.1005,0.8428,7.525,-16.345,32.725,1.23,1.36,1.35,1.40,1.06,2025-06-04T19:09:52.341685
419,0.3562,-0.1039,0.9706,-19.250,-12.705,15.400,0.96,1.38,1.33,1.41,1.17,2025-06-04T19:09:52.341685
420,0.4382,-0.2523,0.8545,-18.340,-10.675,2.870,1.17,1.36,1.40,1.40,1.16,2025-06-04T19:09:52.521433
421,0.4412,-0.1405,0.8760,27.160,-11.410,-8.225,1.24,1.38,1.44,1.40,1.16,2025-06-04T19:09:52.521433
422,0.4675,-0.1230,0.8906,7.700,-8.155,-7.910,1.27,1.40,1.45,1.38,1.15,2025-06-04T19:09:52.521433
423,0.4207,-0.1913,0.8486,-2.275,-3.465,-9.870,1.26,1.27,1.42,1.36,1.17,2025-06-04T19:09:52.521433
424,0.3465,-0.1386,0.9628,-28.455,16.625,-22.575,1.17,1.36,1.41,1.36,1.20,2025-06-04T19:09:52.699922
425,0.4250,-0.1728,0.9472,-2.415,14.000,-23.275,1.23,1.38,1.46,1.42,1.15,2025-06-04T19:09:52.699922
426,0.2567,-0.1571,0.9087,-12.985,39.410,-45.115,1.26,1.28,1.43,1.26,1.17,2025-06-04T19:09:53.034762
427,0.2518,-0.0952,0.9965,-28.175,15.015,-36.540,1.27,1.20,1.30,1.35,1.14,2025-06-04T19:09:53.392683
428,0.2435,-0.0508,1.1248,1.260,26.005,-40.460,1.11,1.08,1.24,1.33,1.14,2025-06-04T19:09:53.392683
429,0.1254,-0.0942,1.0443,48.160,62.650,-28.840,1.08,1.04,1.27,1.35,1.17,2025-06-04T19:09:53.392683
430,-0.5978,0.5256,1.4001,18.235,-13.895,5.600,1.11,1.12,1.14,1.36,1.17,2025-06-04T19:09:53.392683
431,-0.0888,0.0454,1.0131,-6.265,-8.575,1.715,1.19,1.13,1.13,1.34,1.19,2025-06-04T19:09:53.540549
432,-0.0498,0.0322,0.9809,-5.950,-8.925,-0.140,1.24,1.14,1.35,1.31,1.04,2025-06-04T19:09:53.540549
433,-0.0605,0.0366,1.0067,-1.015,-8.435,1.085,1.24,1.11,1.40,1.40,1.14,2025-06-04T19:09:53.736211
434,-0.0576,0.0434,1.0204,-1.400,-9.485,1.260,1.24,1.15,1.35,1.43,1.18,2025-06-04T19:09:53.737207
435,-0.0425,0.0278,1.0097,0.105,-6.510,-0.035,1.26,1.17,1.20,1.39,1.18,2025-06-04T19:09:54.076952
436,-0.0478,0.0498,1.0141,1.855,-7.035,0.245,1.28,1.16,1.39,1.39,1.06,2025-06-04T19:09:54.248472
437,-0.0839,0.0547,1.0721,0.280,-9.240,1.610,1.23,1.00,1.28,1.23,0.99,2025-06-04T19:09:54.248472
438,-0.0342,-0.0083,0.9555,3.850,-8.120,-1.645,1.09,0.95,1.26,1.30,0.96,2025-06-04T19:09:54.248472
439,-0.0576,0.0576,1.0024,-2.870,-6.370,0.210,1.17,0.92,1.37,1.34,1.10,2025-06-04T19:09:54.668123
440,-0.0547,0.0688,1.0272,3.045,-8.120,-0.175,1.25,0.82,1.31,1.32,1.10,2025-06-04T19:09:54.668123
441,-0.0264,0.0551,0.9658,-18.445,-9.520,-0.350,1.21,0.82,1.26,1.34,1.18,2025-06-04T19:09:54.668123
442,-0.0503,0.0517,1.0063,-0.245,-6.895,0.000,1.23,0.89,1.19,1.24,1.17,2025-06-04T19:09:55.201732
443,-0.0493,0.0425,1.0067,0.630,-6.895,-1.435,1.21,0.91,1.19,1.26,1.18,2025-06-04T19:09:55.201732
444,-0.0522,0.0717,1.0316,0.105,-8.785,-0.140,1.19,0.81,1.15,1.25,1.14,2025-06-04T19:09:55.201732
445,-0.0581,0.0590,1.0253,0.385,-8.435,1.085,1.08,0.92,1.19,1.28,1.03,2025-06-04T19:09:55.201732
446,-0.0839,0.0786,1.0311,-2.870,-0.280,-0.140,1.09,0.93,1.02,1.28,1.13,2025-06-04T19:09:55.363547
447,-0.0508,0.0288,0.9838,-3.010,-9.310,-0.210,1.25,0.78,1.17,1.27,1.18,2025-06-04T19:09:55.363547
448,-0.0542,0.0508,1.0170,-4.620,-11.410,-0.245,1.22,0.88,1.26,1.24,1.02,2025-06-04T19:09:55.363547
449,-0.0537,0.0669,1.0341,0.735,-9.730,0.700,1.26,0.88,1.10,1.22,1.11,2025-06-04T19:09:55.887633
450,-0.0429,0.0727,1.0282,0.910,-9.485,0.315,1.23,0.91,1.24,1.26,1.03,2025-06-04T19:09:55.887633
451,-0.0337,0.0415,1.0053,0.805,-9.450,0.630,1.21,0.76,1.05,1.00,0.74,2025-06-04T19:09:56.272599
452,-0.0473,0.0459,1.0092,2.030,-7.875,-0.350,0.85,0.72,0.95,1.10,0.84,2025-06-04T19:09:56.272599
453,-0.0273,0.0566,1.0116,-0.105,-6.545,-0.175,0.90,0.72,1.05,1.08,0.83,2025-06-04T19:09:56.272599
454,-0.0395,0.0586,1.0160,-1.470,-7.770,-0.630,0.96,0.78,1.14,1.13,0.81,2025-06-04T19:09:56.272599
455,-0.0381,0.0581,1.0243,-0.420,-8.470,-0.420,1.09,0.84,1.05,1.05,1.00,2025-06-04T19:09:56.272599
456,-0.0429,0.0493,1.0297,-0.245,-8.645,-0.105,1.03,0.81,1.22,1.13,1.03,2025-06-04T19:09:56.380455
457,-0.0390,0.0659,1.0385,-1.260,-5.285,-0.875,1.11,0.83,1.21,1.23,1.06,2025-06-04T19:09:56.380455
458,-0.0278,0.0551,1.0038,-0.175,-7.525,-0.805,1.21,0.67,1.14,1.23,1.04,2025-06-04T19:09:56.488128
459,-0.0439,0.0473,1.0170,2.450,-6.440,-0.630,1.20,0.86,1.25,1.04,1.06,2025-06-04T19:09:56.581103
460,-0.0429,0.0678,1.0414,2.170,-7.315,0.000,1.16,0.90,1.11,1.24,1.09,2025-06-04T19:09:56.906023
461,-0.0439,0.0547,1.0258,-1.820,-5.985,-1.085,1.19,0.88,1.23,1.25,1.13,2025-06-04T19:09:56.906023
462,-0.0659,0.0371,1.0429,0.140,-8.715,-0.035,1.19,0.91,1.16,1.19,0.95,2025-06-04T19:09:57.016526
463,-0.0381,0.0400,1.0160,0.840,-7.770,-0.070,1.24,0.88,1.14,1.25,1.07,2025-06-04T19:09:57.246300
464,-0.0068,0.0361,1.0253,2.765,-5.600,1.015,1.22,0.86,1.23,1.06,1.07,2025-06-04T19:09:57.246300
465,-0.1762,0.1474,1.0443,-63.560,102.305,7.525,1.27,0.90,1.21,1.23,1.10,2025-06-04T19:09:57.538850
466,-0.0917,0.1820,0.9331,-7.420,-15.260,-2.065,1.25,0.89,1.10,1.14,1.15,2025-06-04T19:09:57.538850
467,-0.0795,0.1259,1.0092,-18.725,-20.475,-0.105,1.25,0.92,1.21,1.30,1.16,2025-06-04T19:09:57.538850
468,-0.0566,0.1020,0.8745,1.995,-5.145,-0.945,1.26,0.81,1.11,1.36,1.18,2025-06-04T19:09:57.815068
469,-0.0542,0.0961,1.0028,-2.170,-7.315,0.420,1.26,0.87,1.25,1.33,1.18,2025-06-04T19:09:57.815068
470,-0.0952,0.1152,0.9828,-62.580,-31.990,0.770,1.23,0.82,1.18,1.30,1.15,2025-06-04T19:09:58.120411
471,-0.0698,0.0303,1.0477,9.240,-11.970,0.245,1.23,1.09,1.39,1.48,1.23,2025-06-04T19:09:58.120411
472,-0.0410,0.0727,1.0702,3.045,-15.575,-1.365,1.26,1.20,1.42,1.51,1.09,2025-06-04T19:09:58.226117
473,-0.0303,-0.0176,0.8984,9.205,-4.410,-0.630,1.19,1.14,1.33,1.17,1.02,2025-06-04T19:09:58.226117
474,-0.0498,0.0698,1.0429,3.920,-6.300,-0.595,1.21,1.08,1.38,1.34,1.12,2025-06-04T19:09:58.334536
475,-0.0537,0.0278,0.9867,14.140,-8.120,-0.945,1.27,1.02,1.30,1.33,1.05,2025-06-04T19:09:58.527410
476,-0.0547,0.0561,1.0019,3.605,-7.840,0.070,1.28,1.05,1.29,1.33,1.15,2025-06-04T19:09:58.527410
477,-0.0317,0.0830,1.0028,0.910,-9.695,0.700,1.26,0.94,1.15,1.31,1.17,2025-06-04T19:09:58.633196
478,-0.0517,-0.0010,0.9194,-6.510,-2.345,-2.800,1.23,1.00,1.33,1.30,1.14,2025-06-04T19:09:58.936807
479,-0.0493,0.0137,0.9623,9.695,-4.760,-0.525,1.24,0.93,1.15,1.25,1.17,2025-06-04T19:09:59.043635
480,-0.0522,0.0922,1.0370,-0.875,-7.595,-0.490,1.25,1.04,1.36,1.27,1.17,2025-06-04T19:09:59.043635
481,-0.0371,0.0874,1.0141,2.450,-5.495,-0.385,1.15,0.90,1.29,1.31,1.12,2025-06-04T19:09:59.247091
482,-0.0317,0.0698,1.0063,-1.925,-7.280,0.105,1.09,1.00,1.22,1.28,1.11,2025-06-04T19:09:59.247091
483,-0.0503,0.0712,1.0180,-0.350,-6.965,-0.140,1.22,1.00,1.27,1.33,1.15,2025-06-04T19:09:59.336950
484,-0.0556,0.0688,1.0170,0.455,-7.175,-0.280,1.27,1.01,1.30,1.27,1.19,2025-06-04T19:09:59.449673
485,-0.0503,0.0669,1.0097,-0.455,-7.455,-0.805,1.09,0.97,1.20,1.25,1.12,2025-06-04T19:09:59.643700
486,-0.0542,0.0722,1.0175,0.385,-7.245,0.035,1.19,0.94,1.19,1.20,1.15,2025-06-04T19:09:59.643700
487,-0.0566,0.0503,1.0043,2.800,-6.895,0.245,1.14,0.84,1.16,1.09,1.15,2025-06-04T19:09:59.866689
488,-0.0590,0.0766,1.0233,1.330,-7.245,-0.245,1.24,0.92,1.04,1.16,1.13,2025-06-04T19:09:59.917020
489,-0.0571,0.0722,1.0126,-0.280,-7.245,0.000,1.26,0.86,1.20,1.26,1.12,2025-06-04T19:10:00.064862
490,-0.0542,0.0708,1.0146,0.980,-7.000,-1.120,1.23,0.93,1.27,1.25,1.15,2025-06-04T19:10:00.411671
491,-0.0590,0.0766,1.0263,-5.145,-0.560,-5.390,1.20,0.84,1.04,1.25,1.03,2025-06-04T19:10:00.411671
492,-0.1030,0.0063,0.9799,0.980,-6.825,0.245,1.25,0.95,1.17,1.31,1.13,2025-06-04T19:10:00.683197
493,-0.0703,0.0473,1.0063,2.870,-10.570,2.240,1.24,0.94,1.19,1.09,1.13,2025-06-04T19:10:00.683197
494,-0.0649,0.0576,1.0185,2.380,-7.560,-0.105,1.10,0.95,1.22,1.15,1.05,2025-06-04T19:10:00.683197
495,-0.0678,0.0639,1.0111,0.910,-7.140,-0.175,1.23,0.97,1.26,1.12,1.12,2025-06-04T19:10:00.683197
496,-0.0634,0.0610,1.0146,-0.140,-7.875,0.350,1.27,0.91,1.26,1.34,1.18,2025-06-04T19:10:00.893427
497,-0.0786,0.0454,1.0131,0.630,-8.505,0.000,1.22,0.93,1.02,1.12,1.16,2025-06-04T19:10:00.947614
498,-0.0654,0.0615,1.0155,0.140,-6.580,-0.210,1.26,0.94,1.17,1.26,1.18,2025-06-04T19:10:01.090995
499,-0.0693,0.0664,1.0194,0.875,-8.400,0.700,1.22,0.85,1.25,1.22,1.12,2025-06-04T19:10:01.456346
500,-0.0669,0.0508,1.0077,1.225,-7.490,0.105,1.28,0.87,1.22,1.30,1.13,2025-06-04T19:10:01.456346
501,-0.0688,0.0625,1.0258,0.245,-6.825,-0.035,1.20,0.93,1.26,1.27,1.14,2025-06-04T19:10:01.704709
502,-0.0952,0.0146,1.0180,-0.035,-10.360,1.190,1.23,0.97,1.20,1.22,1.14,2025-06-04T19:10:01.704709
503,-0.0478,0.0756,1.0233,2.625,-8.610,0.805,1.22,0.92,1.13,1.31,1.16,2025-06-04T19:10:01.704709
504,-0.0600,0.0703,1.0126,1.050,-7.420,0.245,1.22,0.91,1.24,1.04,1.15,2025-06-04T19:10:01.704918
505,-0.0834,0.0185,1.0546,0.945,-8.435,-0.840,1.20,0.92,1.24,1.25,1.17,2025-06-04T19:10:01.817576
506,-0.0039,0.0688,0.9135,4.970,-4.305,-5.005,1.26,0.85,1.26,1.21,1.03,2025-06-04T19:10:02.114872
507,-0.0551,0.0771,1.0370,2.065,-6.265,0.175,1.29,0.95,1.17,1.18,1.15,2025-06-04T19:10:02.348825
508,-0.0581,0.0639,1.0160,0.665,-7.770,-0.175,1.26,0.92,1.26,1.27,1.15,2025-06-04T19:10:02.348825
509,-0.0673,0.0859,1.0302,0.350,-7.455,0.385,1.11,0.86,1.18,1.25,1.12,2025-06-04T19:10:02.348825
510,-0.0576,0.0537,1.0033,-0.280,-8.225,-0.140,1.09,0.95,1.26,1.22,1.16,2025-06-04T19:10:02.630717
511,-0.0547,0.0649,1.0072,0.805,-7.840,-0.315,1.20,0.90,1.27,1.21,1.01,2025-06-04T19:10:02.631303
512,-0.0508,0.0615,1.0102,0.770,-8.015,-0.385,1.08,0.84,1.25,1.32,1.14,2025-06-04T19:10:02.725560
513,-0.0517,0.0649,1.0063,1.575,-7.665,-0.840,1.23,0.83,1.29,1.22,1.11,2025-06-04T19:10:02.725560
514,-0.0566,0.0703,1.0185,0.140,-8.015,-0.945,1.21,0.95,1.21,1.25,1.11,2025-06-04T19:10:03.133498
515,-0.0488,0.0839,1.0053,7.525,-9.275,-0.525,1.25,0.94,1.26,1.01,1.14,2025-06-04T19:10:03.133498
516,-0.0512,0.0732,1.0219,1.295,-6.965,0.630,1.26,0.87,1.25,1.20,1.13,2025-06-04T19:10:03.247313
517,-0.0527,0.0693,1.0087,1.855,-7.805,0.140,1.27,0.94,1.23,1.15,1.16,2025-06-04T19:10:03.247313
518,-0.0508,0.0698,1.0199,1.470,-7.245,-0.175,1.23,0.91,1.19,1.12,1.14,2025-06-04T19:10:03.542947
519,-0.0542,0.0732,1.0126,0.280,-7.385,-0.420,1.28,0.96,1.30,1.19,1.18,2025-06-04T19:10:03.542947
520,-0.0532,0.0693,1.0116,0.980,-7.385,0.175,1.28,0.86,1.09,1.23,1.16,2025-06-04T19:10:03.655630
521,-0.0449,0.0708,1.0175,0.420,-7.875,-0.140,1.20,0.74,1.07,1.10,1.10,2025-06-04T19:10:03.655630
522,-0.0620,0.0698,1.0214,-0.280,-6.545,0.175,1.20,0.86,0.89,1.20,1.14,2025-06-04T19:10:03.858772
523,-0.0473,0.0727,1.0165,0.210,-7.805,-0.035,1.23,0.95,1.02,1.22,1.13,2025-06-04T19:10:03.910932
524,-0.0522,0.0664,1.0160,0.280,-6.755,-0.210,1.26,0.92,1.21,1.19,1.17,2025-06-04T19:10:04.056816
525,-0.0522,0.0781,1.0150,0.000,-7.385,-0.315,1.25,0.85,1.18,1.18,1.14,2025-06-04T19:10:04.162143
526,-0.0517,0.0595,1.0028,0.245,-7.000,0.210,1.21,0.83,1.05,1.19,0.92,2025-06-04T19:10:04.368775
527,-0.0561,0.0708,1.0160,0.175,-7.595,0.035,1.20,0.94,1.20,1.26,1.11,2025-06-04T19:10:04.369015
528,-0.0590,0.0669,1.0194,-1.225,-7.735,-0.210,1.25,0.93,1.21,1.09,1.11,2025-06-04T19:10:04.686282
529,0.0059,0.1064,1.0268,3.430,-5.565,-0.630,1.23,0.92,0.91,1.20,1.14,2025-06-04T19:10:04.686282
530,-0.0644,0.0874,1.0253,-0.280,-5.915,-0.455,1.26,0.93,1.18,1.07,1.15,2025-06-04T19:10:04.779031
531,-0.0625,0.0688,1.0565,-12.075,4.025,-2.800,1.26,0.85,1.27,1.10,1.02,2025-06-04T19:10:05.090223
532,-0.0473,0.0498,1.0243,4.270,-8.330,1.225,1.25,0.94,1.05,1.14,1.09,2025-06-04T19:10:05.090223
533,-0.0615,0.0800,1.0282,0.315,-7.280,-0.245,1.28,0.96,1.25,1.28,1.14,2025-06-04T19:10:05.387736
534,-0.0673,0.0639,1.0087,1.295,-6.615,1.015,1.09,0.94,1.23,1.20,1.15,2025-06-04T19:10:05.387736
535,-0.0625,0.0600,1.0165,1.050,-6.825,-1.085,0.95,0.85,0.89,1.15,1.12,2025-06-04T19:10:05.387736
536,0.0264,0.0781,1.0219,0.490,-11.760,1.260,1.16,0.93,1.18,1.05,1.14,2025-06-04T19:10:05.713986
537,-0.0605,0.0761,1.0204,0.595,-7.560,0.070,1.20,0.91,1.17,1.26,1.11,2025-06-04T19:10:05.713986
538,-0.0771,0.0634,1.0189,0.910,-7.420,0.035,1.20,0.96,1.19,1.24,1.12,2025-06-04T19:10:05.713986
