SeqNum,AccX,AccY,AccZ,GyroX,GyroY,GyroZ,Flex,Force1,Force2,Force3,Force4,TimestampReception
5290,0.0678,0.3055,0.9804,-0.070,-4.270,-0.140,20,43,1,336,330,2025-06-06T10:06:19.951446
5291,-0.0337,0.7759,0.7510,21.175,-36.715,16.485,1,2,2,344,339,2025-06-06T10:06:19.951446
5292,-0.0537,0.7515,0.8706,14.455,-42.700,1.995,2,2,1,365,363,2025-06-06T10:06:19.951446
5293,-0.0786,0.6334,0.9916,-9.205,-8.050,-6.055,1,1,1,379,342,2025-06-06T10:06:19.951446
5294,0.0288,0.6451,1.1268,-18.865,7.875,-10.080,2,1,1,374,377,2025-06-06T10:06:19.951446
5295,0.0288,0.6749,1.1063,-12.110,1.085,-13.650,1,1,1,396,348,2025-06-06T10:06:19.951446
5296,0.0815,0.7584,1.0102,0.525,-10.010,-15.715,1,2,2,387,376,2025-06-06T10:06:19.951446
5297,-0.0073,0.7178,0.8706,-9.730,-8.365,-19.950,1,2,2,395,386,2025-06-06T10:06:19.951446
5298,-0.0171,0.7154,0.9994,-18.795,5.040,-22.575,1,1,2,361,382,2025-06-06T10:06:19.951446
5299,-0.0010,0.6720,0.9828,-20.930,6.405,-23.940,1,1,0,333,372,2025-06-06T10:06:19.951446
5300,0.1405,0.7349,0.8433,-19.215,-2.555,-18.900,2,1,0,328,342,2025-06-06T10:06:19.951446
5301,0.1791,0.6647,0.6388,-25.900,6.440,-9.765,1,1,2,350,382,2025-06-06T10:06:19.951446
5302,0.0839,0.4924,0.5724,-35.805,18.235,-2.905,1,2,1,372,355,2025-06-06T10:06:19.951446
5303,0.0825,0.5344,0.6852,-27.510,24.500,3.010,1,1,1,379,377,2025-06-06T10:06:19.951446
5304,0.1347,0.6066,0.6852,-29.120,20.510,12.670,1,2,2,371,376,2025-06-06T10:06:20.050933
5305,0.0639,0.5436,0.6744,-29.785,21.000,21.070,2,2,2,390,350,2025-06-06T10:06:20.050933
5306,-0.0205,0.5500,0.7647,-29.750,22.610,24.605,2,3,1,382,380,2025-06-06T10:06:20.050933
5307,-0.1069,0.5422,0.8955,-31.010,17.395,20.615,1,2,2,378,385,2025-06-06T10:06:20.050933
5308,-0.1493,0.5275,1.0141,-20.580,14.490,16.030,2,2,1,385,391,2025-06-06T10:06:20.050933
5309,-0.1444,0.5373,1.0829,-14.875,11.445,11.725,1,2,0,356,382,2025-06-06T10:06:20.050933
5310,-0.1137,0.5065,1.0838,-15.995,6.615,6.020,2,2,1,380,402,2025-06-06T10:06:20.050933
5311,-0.1161,0.4978,1.0521,-13.125,-1.365,2.065,1,1,2,398,333,2025-06-06T10:06:20.050933
5312,-0.0366,0.5309,1.0629,-3.010,-7.805,-2.660,1,2,1,375,367,2025-06-06T10:06:20.106957
5313,0.0278,0.6324,1.0468,-1.855,-15.645,-1.610,2,2,1,396,374,2025-06-06T10:06:20.106957
5314,0.0093,0.5431,0.8862,-6.720,-21.035,-0.140,1,2,1,349,364,2025-06-06T10:06:20.106957
5315,-0.0166,0.4817,0.8311,3.990,-22.925,-0.840,2,2,1,372,370,2025-06-06T10:06:20.106957
5316,0.0483,0.5544,0.8867,12.075,-27.440,-2.275,2,2,1,371,388,2025-06-06T10:06:20.106957
5317,0.0600,0.5305,0.8345,18.095,-30.135,-2.485,2,1,2,369,383,2025-06-06T10:06:20.358953
5318,0.1098,0.5061,0.7515,4.060,-26.215,-2.205,1,2,2,392,402,2025-06-06T10:06:20.358953
5319,0.0917,0.5007,0.7159,-2.485,-17.360,-4.060,2,2,1,395,399,2025-06-06T10:06:20.358953
5320,0.1771,0.5446,0.7647,-4.655,-9.765,-6.405,2,2,1,396,400,2025-06-06T10:06:20.358953
5321,0.1381,0.5095,0.6988,-17.885,-0.525,-8.925,1,1,2,387,395,2025-06-06T10:06:20.358953
5322,0.0922,0.4577,0.6700,-15.085,12.565,-13.825,1,3,1,376,382,2025-06-06T10:06:20.358953
5323,0.0986,0.4997,0.7422,-18.830,24.605,-17.255,1,3,1,391,395,2025-06-06T10:06:20.358953
5324,0.0630,0.5353,0.8281,-22.680,34.615,-18.760,1,1,1,393,396,2025-06-06T10:06:20.358953
5325,0.0488,0.5427,0.9379,-23.590,34.825,-17.640,1,2,0,372,398,2025-06-06T10:06:20.358953
5326,-0.0029,0.5353,0.8813,-26.880,28.140,-12.705,1,2,0,337,357,2025-06-06T10:06:20.358953
5327,-0.1074,0.5002,0.8813,-22.645,20.440,-11.200,1,2,1,319,363,2025-06-06T10:06:20.358953
5328,-0.0776,0.5300,0.9814,-11.025,10.150,-8.540,2,1,2,370,384,2025-06-06T10:06:20.358953
5329,0.0000,0.5822,1.0502,-3.920,-0.805,-5.040,1,2,1,362,349,2025-06-06T10:06:20.358953
5330,0.0888,0.6202,1.0580,-3.605,-5.915,3.465,1,1,1,334,366,2025-06-06T10:06:20.358953
5331,0.1025,0.6217,1.0233,-4.795,-6.160,12.040,1,1,1,366,348,2025-06-06T10:06:20.358953
5332,0.0825,0.6305,0.9906,-4.480,-4.830,18.760,1,1,1,333,361,2025-06-06T10:06:20.358953
5333,0.0337,0.5915,0.9350,-3.080,-2.485,21.280,1,2,1,359,388,2025-06-06T10:06:20.358953
5334,0.0034,0.5827,0.9301,0.070,-0.665,21.980,1,1,1,372,345,2025-06-06T10:06:20.358953
5335,0.0102,0.5295,0.8872,-1.085,-1.190,20.755,1,1,1,343,365,2025-06-06T10:06:20.358953
5336,-0.0224,0.4709,0.7862,0.070,-4.095,16.030,1,2,1,367,381,2025-06-06T10:06:20.358953
5337,-0.0815,0.3977,0.7017,-0.420,-0.210,5.705,1,1,1,379,385,2025-06-06T10:06:20.358953
5338,-0.2708,0.3172,0.6988,0.175,9.975,-5.810,2,3,1,348,380,2025-06-06T10:06:20.557141
5339,-0.2279,0.4055,0.8677,7.350,16.100,-18.445,1,2,1,361,345,2025-06-06T10:06:20.557141
5340,-0.0278,0.5085,0.9018,7.910,8.925,-20.020,2,2,1,379,367,2025-06-06T10:06:20.557141
5341,-0.0020,0.5031,0.8520,5.180,4.830,-14.280,2,1,1,342,340,2025-06-06T10:06:20.557141
5342,-0.0346,0.5017,0.8652,5.565,4.165,-0.840,2,2,1,365,370,2025-06-06T10:06:20.557141
5343,0.0244,0.5427,0.9360,2.695,0.315,-4.760,2,2,1,391,374,2025-06-06T10:06:20.557141
5344,0.0473,0.5368,0.9165,5.180,3.920,0.070,1,0,1,386,390,2025-06-06T10:06:20.557141
5345,0.0508,0.5431,0.8647,1.715,5.250,5.670,1,1,1,355,352,2025-06-06T10:06:20.557141
5346,-0.1015,0.5075,0.7993,-5.425,7.245,8.015,1,2,1,353,363,2025-06-06T10:06:20.557141
5347,-0.1981,0.4407,0.7647,-0.595,10.745,5.390,2,2,1,341,380,2025-06-06T10:06:20.557141
5348,-0.0722,0.5788,0.8984,2.380,4.165,3.955,1,2,1,379,391,2025-06-06T10:06:20.557141
5349,-0.0215,0.5671,0.9048,0.350,-1.260,5.775,2,1,1,372,359,2025-06-06T10:06:20.557141
5350,-0.0551,0.5270,0.8974,-5.705,-0.245,6.335,2,3,1,383,387,2025-06-06T10:06:20.557141
5351,-0.0805,0.5134,0.8921,-3.255,-0.630,4.095,1,2,1,371,387,2025-06-06T10:06:20.557141
5352,-0.0639,0.5129,0.9135,-1.400,-2.730,-0.350,1,2,2,388,357,2025-06-06T10:06:20.557141
5353,-0.0195,0.4773,0.8628,-1.995,-1.820,-4.060,0,2,1,377,374,2025-06-06T10:06:20.557141
5354,-0.0185,0.4524,0.7832,-8.715,1.190,-6.790,2,2,1,386,374,2025-06-06T10:06:20.557141
5355,-0.0576,0.4016,0.7427,-10.570,4.410,-10.920,2,3,1,381,395,2025-06-06T10:06:20.603999
5356,-0.0464,0.4221,0.8032,-6.090,8.365,-16.380,2,2,1,369,377,2025-06-06T10:06:20.603999
5357,0.0420,0.4680,0.8267,-9.520,9.940,-17.255,2,2,1,372,387,2025-06-06T10:06:20.603999
5358,0.0229,0.5124,0.8603,-16.730,14.910,-15.715,2,2,2,380,399,2025-06-06T10:06:20.603999
5359,-0.0229,0.5148,0.8589,-20.930,12.495,-15.225,3,2,1,346,351,2025-06-06T10:06:20.768018
5360,-0.0322,0.5261,0.9321,-15.435,13.160,-14.455,2,3,1,330,372,2025-06-06T10:06:20.768018
5361,-0.0556,0.5075,0.9287,-14.910,11.095,-14.105,2,3,2,355,371,2025-06-06T10:06:20.768018
5362,0.0034,0.5119,0.9072,-18.795,8.015,-12.285,3,2,1,370,353,2025-06-06T10:06:20.768018
5363,-0.0449,0.4699,0.8545,-20.335,9.765,-11.130,3,2,2,371,377,2025-06-06T10:06:20.768018
5364,-0.1005,0.4421,0.8438,-22.015,8.890,-13.160,2,2,1,375,378,2025-06-06T10:06:20.768018
5365,-0.1069,0.4343,0.8516,-19.285,6.615,-14.210,3,3,1,383,379,2025-06-06T10:06:20.768018
5366,-0.0717,0.4782,0.8872,-15.750,1.575,-13.440,3,2,1,382,387,2025-06-06T10:06:20.768018
5367,-0.0542,0.5183,0.9433,-15.505,-1.680,-10.815,3,3,1,392,363,2025-06-06T10:06:20.768018
5368,-0.0786,0.5065,0.9384,-16.625,-3.815,-8.050,3,3,1,388,371,2025-06-06T10:06:20.768018
5369,-0.0639,0.5168,0.9496,-16.730,-3.500,-6.790,4,2,1,395,369,2025-06-06T10:06:20.768018
5370,-0.0317,0.5363,0.9345,-14.840,-5.110,-4.515,3,2,1,397,375,2025-06-06T10:06:20.768018
5371,-0.0537,0.5129,0.8984,-17.745,-3.080,-3.325,4,3,0,362,340,2025-06-06T10:06:20.768018
5372,-0.0288,0.5056,0.9492,-19.180,2.275,-1.960,4,3,1,378,376,2025-06-06T10:06:20.872931
5373,-0.0688,0.4719,0.9179,-18.760,3.780,2.310,4,3,1,391,379,2025-06-06T10:06:20.872931
5374,-0.1405,0.5334,1.0360,-10.535,-8.995,8.715,5,3,1,378,375,2025-06-06T10:06:20.872931
5375,-0.2264,0.4285,1.0121,-13.055,-16.800,6.055,4,3,2,393,386,2025-06-06T10:06:20.872931
5376,-0.1518,0.4299,0.9477,-5.145,-22.610,5.635,4,4,1,395,373,2025-06-06T10:06:20.872931
5377,-0.1566,0.4285,0.9443,-0.140,-25.690,3.570,4,4,2,385,394,2025-06-06T10:06:20.872931
5378,-0.0468,0.4250,0.8628,-2.310,-25.760,0.350,5,4,1,379,393,2025-06-06T10:06:20.872931
5379,0.0205,0.4099,0.8037,-2.205,-11.095,-0.980,4,3,1,342,393,2025-06-06T10:06:20.872931
5380,0.0010,0.4192,0.8623,-4.830,-1.260,-2.485,4,3,2,375,393,2025-06-06T10:06:20.872931
5381,-0.0020,0.4182,0.9360,-5.215,1.260,-3.465,4,3,1,379,387,2025-06-06T10:06:21.010556
5382,-0.1088,0.4207,0.9965,0.000,5.075,-4.655,4,3,2,387,400,2025-06-06T10:06:21.010556
5383,-0.0864,0.4675,0.9926,-5.705,0.140,-5.180,4,2,0,357,385,2025-06-06T10:06:21.010556
5384,-0.0312,0.4265,0.9048,-5.950,3.710,-3.710,4,3,2,378,356,2025-06-06T10:06:21.010556
5385,-0.0010,0.4436,0.8877,-4.130,6.370,-0.665,4,3,1,387,382,2025-06-06T10:06:21.010556
5386,-0.0273,0.4665,0.8725,-4.305,4.550,1.435,3,2,1,372,379,2025-06-06T10:06:21.010556
5387,-0.0600,0.5031,0.8974,-5.005,4.480,2.870,3,3,1,386,399,2025-06-06T10:06:21.010556
5388,-0.1313,0.4690,0.9306,-7.910,4.795,2.450,4,2,1,392,371,2025-06-06T10:06:21.010556
5389,-0.1488,0.4348,0.9326,-7.805,5.635,2.310,4,2,1,380,375,2025-06-06T10:06:21.010556
5390,-0.1298,0.4675,0.9540,-3.395,3.605,3.010,3,3,2,351,370,2025-06-06T10:06:21.010556
5391,-0.1337,0.4704,0.9545,-2.975,-1.050,4.200,4,2,1,370,370,2025-06-06T10:06:21.010556
5392,-0.0956,0.4348,0.9555,-4.970,-5.565,6.230,4,2,1,381,377,2025-06-06T10:06:21.059292
5393,-0.0922,0.4280,0.9560,-3.850,-9.345,7.350,4,2,1,377,386,2025-06-06T10:06:21.059292
5394,-0.0795,0.4480,0.8847,-3.850,-10.360,6.335,4,2,1,390,392,2025-06-06T10:06:21.059292
5395,-0.0532,0.4172,0.8847,-1.225,-8.610,5.775,4,3,2,389,400,2025-06-06T10:06:21.059292
5396,-0.0468,0.4168,0.8818,-1.960,-7.035,5.460,4,3,1,394,388,2025-06-06T10:06:21.059292
5397,-0.1181,0.4075,0.8335,-4.375,-3.430,3.045,4,3,1,399,381,2025-06-06T10:06:21.174132
5398,-0.1488,0.4075,0.8569,-0.595,1.400,-1.260,5,2,1,378,376,2025-06-06T10:06:21.174132
5399,-0.0913,0.4426,0.9423,-1.610,6.055,-2.905,4,3,1,382,350,2025-06-06T10:06:21.174132
5400,-0.0561,0.4441,0.9340,-2.730,7.840,-2.135,3,3,2,374,369,2025-06-06T10:06:21.174132
5401,-0.0298,0.4636,0.9326,-2.870,9.835,0.000,3,3,1,389,367,2025-06-06T10:06:21.174132
5402,-0.0649,0.4616,0.9370,-3.885,8.820,3.115,3,3,2,396,369,2025-06-06T10:06:21.174132
5403,-0.0864,0.4490,0.9526,-2.975,3.535,4.375,3,3,1,387,377,2025-06-06T10:06:21.174132
5404,-0.0966,0.4485,0.9921,-0.315,2.730,4.970,2,2,1,384,386,2025-06-06T10:06:21.174132
5405,-0.0703,0.4509,0.9672,-7.105,5.600,4.830,2,3,1,346,392,2025-06-06T10:06:21.174132
5406,-0.0805,0.3787,0.8872,-4.305,17.255,3.500,2,4,1,361,392,2025-06-06T10:06:21.174132
5407,-0.2455,0.3953,0.9087,3.115,12.880,2.625,2,4,1,384,370,2025-06-06T10:06:21.221031
5408,-0.1215,0.4665,0.9414,6.650,5.705,1.715,2,3,1,381,380,2025-06-06T10:06:21.221031
5409,-0.0361,0.4953,0.9052,2.380,4.725,2.030,2,5,1,398,392,2025-06-06T10:06:21.221031
5410,-0.0293,0.4670,0.8340,1.190,12.600,4.130,2,5,1,384,397,2025-06-06T10:06:21.221031
5411,-0.0327,0.4485,0.8120,2.065,17.955,6.860,1,5,1,397,385,2025-06-06T10:06:21.273904
5412,-0.0971,0.4353,0.8237,4.515,24.850,6.825,1,5,1,389,382,2025-06-06T10:06:21.273904
5413,-0.1083,0.4070,0.8716,9.240,25.760,5.040,2,4,1,377,386,2025-06-06T10:06:21.273904
5414,-0.0366,0.4773,0.9672,15.855,22.680,11.690,2,5,1,386,390,2025-06-06T10:06:21.273904
5415,-0.1484,0.4226,0.8599,16.485,27.160,14.210,2,6,1,374,379,2025-06-06T10:06:21.321933
5416,-0.0961,0.5256,1.0043,13.265,18.900,12.880,1,7,2,342,387,2025-06-06T10:06:21.321933
5417,-0.1986,0.4421,0.8384,12.600,29.995,13.545,2,6,2,379,396,2025-06-06T10:06:21.321933
5418,-0.1752,0.4548,0.9799,20.825,36.365,8.890,2,7,1,373,353,2025-06-06T10:06:21.321933
5419,-0.1327,0.5080,1.0136,24.115,44.170,9.835,2,7,1,379,377,2025-06-06T10:06:21.368343
5420,-0.0454,0.5412,0.9809,18.200,44.695,12.495,2,6,1,378,386,2025-06-06T10:06:21.368343
5421,-0.0508,0.5261,0.9052,16.835,50.890,17.675,2,7,2,395,386,2025-06-06T10:06:21.368343
5422,-0.0444,0.5285,0.9716,18.445,59.675,25.130,2,8,1,391,386,2025-06-06T10:06:21.368343
5423,-0.0288,0.4948,0.9516,17.080,62.265,32.585,2,9,1,378,378,2025-06-06T10:06:21.473893
5424,-0.0703,0.4865,0.9453,16.310,68.670,36.470,2,8,1,385,394,2025-06-06T10:06:21.473893
5425,-0.0571,0.4870,0.8979,19.320,73.255,40.810,2,8,1,390,401,2025-06-06T10:06:21.473893
5426,-0.2357,0.4612,0.8984,21.560,80.850,42.105,1,10,2,387,400,2025-06-06T10:06:21.473893
5427,-0.3035,0.4724,0.9623,24.255,78.540,37.730,2,8,1,389,399,2025-06-06T10:06:21.473893
5428,-0.3792,0.4402,0.9287,26.285,80.255,31.150,2,9,1,385,391,2025-06-06T10:06:21.473893
5429,-0.3455,0.4221,0.9584,36.680,85.400,22.330,2,9,1,351,380,2025-06-06T10:06:21.473893
5430,-0.2972,0.4704,0.9965,46.480,91.210,20.545,2,7,1,329,373,2025-06-06T10:06:21.473893
5431,-0.3348,0.5275,1.0146,46.305,90.230,20.195,1,9,1,347,375,2025-06-06T10:06:21.473893
5432,-0.3240,0.5939,0.8808,48.265,94.395,16.590,2,9,1,363,393,2025-06-06T10:06:21.473893
5433,-0.4260,0.5534,0.8135,40.880,108.185,12.215,1,10,2,384,396,2025-06-06T10:06:21.588813
5434,-0.5968,0.3684,0.7056,12.670,149.310,7.280,2,9,2,383,388,2025-06-06T10:06:21.588813
5435,-0.0839,0.3465,0.4392,63.945,118.370,3.955,2,11,1,377,398,2025-06-06T10:06:21.588813
5436,0.0044,0.5456,0.5802,81.410,159.530,3.465,2,10,1,377,380,2025-06-06T10:06:21.588813
5437,-0.4172,0.8008,1.0736,55.055,182.840,-9.660,2,9,1,386,401,2025-06-06T10:06:21.588813
5438,-0.7720,0.3689,0.6891,4.410,231.280,-8.575,2,9,1,383,379,2025-06-06T10:06:21.588813
5439,-0.7164,0.2401,0.0703,24.850,213.745,-12.670,2,11,1,396,387,2025-06-06T10:06:21.588813
5440,-0.3470,0.7061,0.4919,103.600,174.055,-1.225,2,10,1,375,388,2025-06-06T10:06:21.588813
5441,-0.2128,0.8921,0.9360,111.895,117.495,19.950,3,12,1,385,399,2025-06-06T10:06:21.635227
5442,-0.4729,0.7105,0.7037,70.525,104.825,50.960,3,14,2,389,406,2025-06-06T10:06:21.635227
5443,-0.6676,0.7154,0.6681,44.135,140.105,65.205,3,14,1,386,390,2025-06-06T10:06:21.635227
5444,-0.6974,0.5876,0.5490,53.200,163.555,70.070,2,14,1,391,386,2025-06-06T10:06:21.635227
5445,-0.5592,0.6486,0.7818,56.665,190.470,80.395,3,18,2,396,349,2025-06-06T10:06:21.681518
5446,-0.8984,0.6422,0.9418,66.010,169.750,81.165,2,17,1,390,373,2025-06-06T10:06:21.681518
5447,-0.9760,0.8316,0.9658,46.515,161.700,87.920,2,18,2,393,388,2025-06-06T10:06:21.681518
5448,-1.2073,0.7632,0.5475,55.860,100.345,82.180,2,20,2,387,390,2025-06-06T10:06:21.681518
5449,-1.0170,0.8213,0.8462,80.430,68.565,80.395,3,20,1,352,385,2025-06-06T10:06:21.785715
5450,-0.8067,0.9765,0.7959,99.785,28.350,82.320,2,20,2,371,401,2025-06-06T10:06:21.785715
5451,-0.8725,0.9648,0.7632,89.740,14.700,92.750,3,18,2,382,388,2025-06-06T10:06:21.785715
5452,-0.9311,1.0394,1.4250,78.505,53.270,88.375,2,19,2,391,397,2025-06-06T10:06:21.785715
5453,-0.7476,0.6822,0.2855,57.225,35.175,95.200,2,19,1,375,380,2025-06-06T10:06:21.785715
5454,-0.5017,0.7818,-0.0634,111.090,45.920,103.985,4,16,2,393,388,2025-06-06T10:06:21.785715
5455,-0.5910,0.6803,-0.0586,242.165,62.335,101.185,2,15,1,398,388,2025-06-06T10:06:21.785715
5456,-0.4006,0.7671,0.2533,290.360,56.805,98.175,2,12,1,348,376,2025-06-06T10:06:21.785715
5457,-0.2289,0.7120,-0.0112,288.435,78.715,98.770,2,10,1,333,382,2025-06-06T10:06:21.785715
5458,-0.2191,0.7032,-0.2499,246.400,128.555,92.750,2,11,2,355,381,2025-06-06T10:06:21.837180
5459,-0.1830,0.7418,-0.2152,198.730,181.755,86.065,2,9,2,383,380,2025-06-06T10:06:21.837180
5460,-0.1279,0.8194,0.0059,171.815,196.385,88.480,2,9,1,393,389,2025-06-06T10:06:21.837180
5461,-0.2503,0.7813,0.0517,168.525,196.735,89.215,2,10,1,397,388,2025-06-06T10:06:21.837180
5462,-0.2860,0.7476,-0.0386,176.015,196.630,81.655,3,9,1,393,382,2025-06-06T10:06:21.888084
5463,-0.3880,0.7662,0.0166,114.975,205.170,69.825,3,9,1,381,377,2025-06-06T10:06:21.888084
5464,-0.2933,0.8203,0.0415,105.630,208.145,64.540,2,8,2,391,380,2025-06-06T10:06:21.888084
5465,-0.1645,0.9555,0.0020,101.220,176.155,71.960,2,7,1,377,373,2025-06-06T10:06:21.888084
5466,-0.0649,1.0024,-0.0132,100.800,145.320,83.160,2,9,1,377,372,2025-06-06T10:06:21.949189
5467,-0.0420,0.9077,-0.0127,96.075,124.915,91.280,2,9,2,401,382,2025-06-06T10:06:21.949189
5468,-0.1444,0.8467,-0.0503,86.870,109.410,93.240,2,8,2,398,395,2025-06-06T10:06:21.949189
5469,-0.0317,0.8257,-0.0298,89.775,74.620,93.590,2,10,1,410,407,2025-06-06T10:06:21.949189
5470,-0.0634,0.7706,-0.0351,91.525,39.270,92.155,3,10,1,397,404,2025-06-06T10:06:21.949189
5471,0.0132,0.6715,-0.2528,87.850,26.845,84.210,2,9,1,381,386,2025-06-06T10:06:21.996258
5472,0.0815,0.6671,-0.3694,78.120,21.595,71.680,2,10,1,392,403,2025-06-06T10:06:21.999477
5473,0.1371,0.6588,-0.4836,67.515,25.375,56.490,2,11,2,391,397,2025-06-06T10:06:21.999477
5474,0.1362,0.6154,-0.5739,57.540,37.835,33.460,2,10,2,393,384,2025-06-06T10:06:21.999477
5475,0.1459,0.5519,-0.6032,55.055,45.150,11.095,2,10,2,352,387,2025-06-06T10:06:22.100478
5476,0.0234,0.6393,-0.5109,50.995,41.615,-5.670,2,11,2,379,384,2025-06-06T10:06:22.100478
5477,0.1191,0.7149,-0.5100,48.510,28.280,-14.140,2,12,2,390,398,2025-06-06T10:06:22.100478
5478,0.1244,0.6905,-0.4538,43.260,20.790,-19.355,2,12,1,392,398,2025-06-06T10:06:22.100478
5479,0.0473,0.7393,-0.3743,34.335,3.500,-20.055,3,13,2,402,363,2025-06-06T10:06:22.100478
5480,-0.0054,0.7554,-0.3631,24.255,-16.205,-21.910,3,14,1,382,369,2025-06-06T10:06:22.100478
5481,0.0400,0.7598,-0.3689,9.240,-25.235,-25.515,2,13,1,374,369,2025-06-06T10:06:22.100478
5482,0.0703,0.7208,-0.4163,-6.020,-27.160,-29.295,2,14,1,387,392,2025-06-06T10:06:22.100478
5483,0.0429,0.7169,-0.4148,-15.645,-26.635,-34.020,2,15,1,386,359,2025-06-06T10:06:22.100478
5484,0.0966,0.7261,-0.4377,-32.585,-26.250,-37.380,3,17,1,376,345,2025-06-06T10:06:22.201495
5485,0.1269,0.6749,-0.4992,-47.915,-21.840,-42.840,3,19,1,375,363,2025-06-06T10:06:22.201495
5486,0.1020,0.6608,-0.4729,-60.585,-23.345,-44.660,3,20,2,386,374,2025-06-06T10:06:22.201495
5487,0.1381,0.7222,-0.4651,-74.095,-33.005,-41.615,3,25,2,403,387,2025-06-06T10:06:22.201495
5488,0.1645,0.5563,-0.4407,-95.095,-41.055,-42.665,4,23,2,397,380,2025-06-06T10:06:22.201495
5489,0.2420,0.4895,-0.2367,-135.065,-61.845,-41.510,3,28,1,407,392,2025-06-06T10:06:22.201495
5490,0.6202,0.3601,-0.1215,-223.475,-76.405,-44.555,4,29,1,360,385,2025-06-06T10:06:22.314823
5491,0.9243,0.0234,0.1732,-295.260,-86.660,-58.835,3,30,0,341,375,2025-06-06T10:06:22.314823
5492,1.1004,-0.4231,0.3709,-412.510,-18.935,-130.305,3,36,2,366,394,2025-06-06T10:06:22.314823
5493,1.1375,-1.2215,-0.0464,-233.905,59.045,-149.940,4,37,2,379,393,2025-06-06T10:06:22.314823
5494,1.1180,-0.9980,0.1610,-341.355,118.790,-260.015,5,43,1,393,398,2025-06-06T10:06:22.314823
5495,-0.2357,-1.1936,-0.1942,-425.915,145.915,-393.260,5,53,1,382,392,2025-06-06T10:06:22.314823
5496,-1.4816,-1.0599,-1.4167,-379.680,88.095,-564.830,4,67,2,386,394,2025-06-06T10:06:22.314823
5497,-2.9212,0.0669,-0.1230,-157.815,22.540,-704.690,5,78,2,393,389,2025-06-06T10:06:22.314823
5498,-3.6263,1.3337,1.6807,-133.770,-85.960,-778.365,5,85,1,381,385,2025-06-06T10:06:22.314823
5499,-4.1270,1.7358,2.3331,-162.610,-164.150,-755.055,6,96,1,346,378,2025-06-06T10:06:22.314823
5500,-3.1525,2.0696,2.1892,-135.065,-279.370,-644.630,7,111,1,376,323,2025-06-06T10:06:22.314823
5501,-2.0784,1.6914,1.0233,-55.930,-370.055,-476.455,10,120,2,366,347,2025-06-06T10:06:22.373255
5502,-1.3518,1.6163,-0.0927,-22.470,-288.470,-260.365,10,137,2,394,388,2025-06-06T10:06:22.373255
5503,-2.3941,1.1751,0.3406,-46.970,-119.175,-126.840,11,151,1,392,348,2025-06-06T10:06:22.373255
5504,-2.4644,0.2513,-0.2069,-64.645,33.215,-55.685,14,161,1,397,371,2025-06-06T10:06:22.373255
5505,-1.6490,0.1523,-0.5124,0.910,50.610,6.195,16,172,2,397,381,2025-06-06T10:06:22.421821
5506,-1.5733,0.6227,0.3030,58.065,69.195,82.460,17,179,2,381,386,2025-06-06T10:06:22.421821
5507,-1.3122,0.5592,0.2362,37.590,89.495,126.525,19,191,2,399,385,2025-06-06T10:06:22.421821
5508,-1.1824,0.2181,0.0756,53.760,147.525,126.105,19,191,1,389,375,2025-06-06T10:06:22.421821
5509,-1.0712,0.2274,0.1254,37.275,179.550,107.485,22,198,1,395,376,2025-06-06T10:06:22.421821
5510,-1.0829,0.1015,0.4978,37.765,154.210,74.585,23,200,1,399,395,2025-06-06T10:06:22.467558
5511,-1.3322,-0.1064,0.8540,61.565,102.305,38.955,22,203,1,387,384,2025-06-06T10:06:22.467558
5512,-0.9984,-0.0444,0.8228,64.295,62.230,11.305,22,199,1,396,398,2025-06-06T10:06:22.467558
5513,-1.0019,0.0098,0.7232,57.435,25.760,-5.530,23,202,1,393,382,2025-06-06T10:06:22.467558
5514,-0.9004,0.0932,0.5963,54.460,-11.760,-12.180,23,203,1,397,390,2025-06-06T10:06:22.516794
5515,-0.9121,0.1913,0.3977,48.720,-34.230,-15.400,24,205,2,396,366,2025-06-06T10:06:22.516794
5516,-0.8013,0.3060,0.2050,42.595,-43.365,-10.780,25,206,1,385,375,2025-06-06T10:06:22.516794
5517,-0.8647,0.2508,-0.0239,37.065,-31.990,-5.915,27,199,1,391,396,2025-06-06T10:06:22.516794
5518,-0.9814,0.2133,-0.0786,27.580,-9.695,-5.005,26,204,2,399,390,2025-06-06T10:06:22.615891
5519,-1.0126,0.1845,-0.0415,25.200,20.125,-1.680,27,202,1,396,391,2025-06-06T10:06:22.615891
5520,-1.1541,0.2396,0.2206,28.910,40.285,6.440,28,197,1,387,388,2025-06-06T10:06:22.615891
5521,-1.1805,0.3240,0.4031,29.365,40.250,23.730,28,191,1,369,380,2025-06-06T10:06:22.615891
5522,-1.2478,0.3841,0.5344,31.185,28.665,45.325,26,182,1,376,383,2025-06-06T10:06:22.615891
5523,-1.2449,0.4709,0.5480,35.805,12.985,68.565,22,166,1,379,397,2025-06-06T10:06:22.615891
5524,-1.2268,0.4987,0.4758,41.965,0.840,91.595,20,149,1,351,373,2025-06-06T10:06:22.615891
5525,-1.1448,0.5397,0.3221,56.000,-13.755,120.680,16,132,1,380,383,2025-06-06T10:06:22.615891
5526,-1.1278,0.5173,0.1742,74.410,-15.645,141.190,13,120,2,381,367,2025-06-06T10:06:22.816658
5527,-0.9960,0.4670,0.1113,108.045,3.675,157.605,11,105,1,382,391,2025-06-06T10:06:22.816658
5528,-0.9126,0.4426,-0.0034,172.200,47.390,174.580,9,93,1,346,349,2025-06-06T10:06:22.816658
5529,-0.8808,0.4943,-0.0874,184.940,78.225,175.350,7,83,2,356,333,2025-06-06T10:06:22.816658
5530,-0.8379,0.5124,-0.0825,168.770,104.650,179.270,6,71,1,387,378,2025-06-06T10:06:22.816658
5531,-0.8257,0.5427,-0.0834,164.395,124.040,180.810,6,60,1,388,340,2025-06-06T10:06:22.816658
5532,-0.7569,0.5412,-0.0517,148.575,131.635,179.865,5,53,1,392,372,2025-06-06T10:06:22.816658
5533,-0.7149,0.5671,-0.0434,159.215,127.155,178.465,5,52,1,383,369,2025-06-06T10:06:22.816658
5534,-0.6320,0.5553,-0.0317,110.250,110.740,171.605,4,44,1,378,368,2025-06-06T10:06:22.816658
5535,-0.5705,0.4695,-0.0478,97.125,112.000,162.050,3,40,1,348,359,2025-06-06T10:06:22.816658
5536,-0.5305,0.4738,-0.0996,91.385,107.975,148.715,4,33,1,357,374,2025-06-06T10:06:22.816658
5537,-0.4704,0.5100,-0.1298,93.380,103.005,133.770,4,30,1,355,392,2025-06-06T10:06:22.816658
5538,-0.3953,0.5583,-0.1723,93.870,84.700,123.095,4,30,1,360,392,2025-06-06T10:06:22.816658
5539,-0.3333,0.5797,-0.2318,87.815,76.230,109.725,3,27,1,375,385,2025-06-06T10:06:22.816658
5540,-0.2547,0.5958,-0.2430,80.325,76.580,95.865,2,27,2,387,393,2025-06-06T10:06:22.816658
5541,-0.2704,0.6295,-0.2191,71.890,80.430,80.710,1,26,1,338,359,2025-06-06T10:06:22.816658
5542,-0.2377,0.6632,-0.1820,60.060,77.630,68.250,3,23,2,373,390,2025-06-06T10:06:22.816658
5543,-0.2894,0.6661,-0.1767,50.155,72.345,60.725,1,24,2,387,396,2025-06-06T10:06:22.875852
5544,-0.2772,0.7261,-0.1664,41.300,59.500,55.685,3,26,2,380,401,2025-06-06T10:06:22.875852
5545,-0.2601,0.7808,-0.2411,37.170,47.040,52.710,3,25,1,354,403,2025-06-06T10:06:22.875852
5546,-0.3074,0.8642,-0.2523,26.670,39.690,52.010,3,22,1,355,380,2025-06-06T10:06:22.875852
5547,-0.2830,0.8555,-0.3211,20.720,31.990,50.645,3,21,1,383,388,2025-06-06T10:06:22.875852
5548,-0.2743,0.8013,-0.3572,20.335,26.880,49.875,3,20,1,389,384,2025-06-06T10:06:23.019790
5549,-0.2650,0.8242,-0.3806,19.040,23.275,50.785,3,21,2,388,381,2025-06-06T10:06:23.019790
5550,-0.3260,0.8574,-0.3592,17.395,17.150,54.460,2,19,1,397,398,2025-06-06T10:06:23.019790
5551,-0.2123,0.8647,-0.3938,22.260,12.180,62.195,3,16,1,386,386,2025-06-06T10:06:23.019790
5552,-0.2728,0.8901,-0.3489,22.155,14.490,67.550,3,17,1,396,389,2025-06-06T10:06:23.019790
5553,-0.3636,0.8179,-0.3440,16.800,22.400,67.480,2,13,1,388,399,2025-06-06T10:06:23.019790
5554,-0.4607,0.7154,-0.3079,15.575,26.320,62.370,1,11,1,385,394,2025-06-06T10:06:23.019790
5555,-0.4114,0.6695,-0.2928,19.530,27.790,58.275,1,10,1,401,404,2025-06-06T10:06:23.019790
5556,-0.4524,0.6974,-0.2450,16.380,35.070,53.585,2,8,1,388,397,2025-06-06T10:06:23.019790
5557,-0.3553,0.7398,-0.2084,11.795,38.010,55.930,1,9,1,402,398,2025-06-06T10:06:23.019790
5558,-0.1742,0.7657,-0.2352,10.780,31.395,66.990,1,9,1,393,400,2025-06-06T10:06:23.019790
5559,0.0815,0.8979,-0.3055,13.475,27.335,81.690,2,9,1,380,383,2025-06-06T10:06:23.019790
5560,0.2948,0.9457,-0.4338,6.055,22.540,104.825,2,10,2,397,404,2025-06-06T10:06:23.083065
5561,0.5373,0.6993,-0.6129,-14.735,26.145,107.765,1,10,1,375,392,2025-06-06T10:06:23.083065
5562,1.0399,0.4768,-0.5963,-37.275,7.735,116.305,2,10,2,385,400,2025-06-06T10:06:23.083065
5563,1.2566,-0.1093,-0.4548,-96.565,-21.350,100.835,2,13,1,394,392,2025-06-06T10:06:23.083065
5564,1.1053,-0.7842,-0.2894,-153.405,-56.735,36.295,1,15,1,375,350,2025-06-06T10:06:23.083065
5565,2.3190,-1.4357,-0.0717,-306.320,-147.420,-204.225,2,19,1,376,383,2025-06-06T10:06:23.225745
5566,0.9916,-0.5934,1.1048,-377.160,67.060,-306.985,2,20,1,381,392,2025-06-06T10:06:23.225745
5567,-0.1503,-1.8871,0.2786,-394.870,196.770,-487.130,2,18,1,387,387,2025-06-06T10:06:23.225745
5568,-3.7249,-2.1945,-0.7047,-633.955,401.730,-768.635,2,26,1,384,399,2025-06-06T10:06:23.225745
5569,-4.3949,-0.2416,-0.2542,-95.480,105.035,-1046.605,3,28,1,395,387,2025-06-06T10:06:23.225745
5570,-4.4476,2.9939,1.3313,103.635,-331.975,-1134.245,3,29,1,389,353,2025-06-06T10:06:23.225745
5571,-3.1988,3.8005,1.6163,207.410,-789.285,-954.240,3,32,1,383,364,2025-06-06T10:06:23.225745
5572,-2.8665,1.0072,-0.2015,442.995,-778.225,-684.425,3,35,1,397,385,2025-06-06T10:06:23.225745
5573,-0.2406,-0.6700,-1.7885,-122.850,-420.070,-495.880,4,36,1,402,387,2025-06-06T10:06:23.225745
5574,0.4119,-0.9184,-1.2844,-219.940,-50.855,-326.305,3,41,1,385,375,2025-06-06T10:06:23.225745
5575,-1.3415,0.0878,0.1928,-263.760,310.660,-204.435,4,42,1,392,381,2025-06-06T10:06:23.225745
5576,-1.3849,0.7408,1.0141,-102.305,271.005,-8.680,3,48,1,391,374,2025-06-06T10:06:23.225745
5577,-2.1770,1.2507,0.8389,-9.730,86.310,135.135,5,52,1,353,384,2025-06-06T10:06:23.336137
5578,-1.9979,1.1653,0.2552,75.495,-74.585,236.075,5,56,2,368,387,2025-06-06T10:06:23.336137
5579,-1.7773,-0.1025,-0.5797,31.815,-129.675,234.255,6,63,1,375,382,2025-06-06T10:06:23.336137
5580,-1.7148,-0.8428,-0.8682,15.785,-68.600,158.725,5,64,2,390,392,2025-06-06T10:06:23.336137
5581,-1.2332,-0.7413,-0.3841,20.545,17.745,95.130,5,68,1,372,349,2025-06-06T10:06:23.336137
5582,-1.0497,-0.6559,0.1835,-5.460,89.530,28.035,5,74,1,377,379,2025-06-06T10:06:23.336137
5583,-1.0990,-0.4485,0.7491,26.425,102.445,-25.585,5,77,1,374,351,2025-06-06T10:06:23.336137
5584,-1.2512,-0.2196,1.1522,4.445,116.060,-52.850,5,74,2,374,375,2025-06-06T10:06:23.336137
5585,-1.1668,-0.0122,1.0575,-13.580,62.090,-66.395,6,77,1,392,363,2025-06-06T10:06:23.336137
5586,-1.0136,0.2816,0.8472,5.320,-9.835,-57.715,5,81,1,340,373,2025-06-06T10:06:23.429412
5587,-1.0077,0.5958,0.6720,43.855,-115.640,-40.355,6,84,2,368,376,2025-06-06T10:06:23.429412
5588,-0.9287,0.6437,0.2845,47.600,-180.880,-21.280,6,86,2,392,378,2025-06-06T10:06:23.429412
5589,-0.7720,0.4153,-0.1279,36.960,-187.600,4.270,5,86,1,353,380,2025-06-06T10:06:23.429412
5590,-0.8335,0.0464,-0.3850,-9.940,-123.445,18.725,5,83,1,341,378,2025-06-06T10:06:23.429412
5591,-0.9526,0.0029,-0.3265,-18.165,-56.140,22.960,4,81,1,364,362,2025-06-06T10:06:23.429412
5592,-0.7910,-0.0024,-0.2367,-12.530,1.505,39.270,4,73,1,372,386,2025-06-06T10:06:23.429412
5593,-0.8677,0.0078,0.0322,-2.345,22.400,55.825,4,68,1,392,387,2025-06-06T10:06:23.429412
5594,-0.9931,0.0346,0.1932,-5.600,54.565,73.640,5,63,1,390,349,2025-06-06T10:06:23.531753
5595,-1.1517,0.1684,0.4880,-12.110,72.870,89.985,5,53,1,350,383,2025-06-06T10:06:23.531753
5596,-1.2342,0.3470,0.5388,-16.030,60.480,105.385,4,46,1,356,357,2025-06-06T10:06:23.531753
5597,-1.2342,0.3392,0.5778,-11.060,32.935,119.525,4,43,1,368,386,2025-06-06T10:06:23.531753
5598,-1.2459,0.2850,0.4924,2.310,1.330,130.305,3,42,1,380,397,2025-06-06T10:06:23.531753
5599,-1.3191,0.2806,0.4177,12.880,-23.905,133.805,3,37,1,375,381,2025-06-06T10:06:23.531753
5600,-1.2742,0.2816,0.3411,19.460,-41.300,135.205,3,33,2,400,399,2025-06-06T10:06:23.531753
5601,-1.1814,0.1859,0.2655,24.640,-45.850,133.490,2,30,1,346,389,2025-06-06T10:06:23.531753
5602,-1.1190,0.2235,0.2011,35.105,-41.545,129.605,2,26,1,376,390,2025-06-06T10:06:23.531753
5603,-1.0721,0.1723,0.0844,43.785,-30.485,119.560,3,23,1,374,393,2025-06-06T10:06:23.586530
5604,-1.0878,0.2172,0.0537,45.815,-11.060,107.555,2,18,2,386,391,2025-06-06T10:06:23.586530
5605,-1.0214,0.2777,0.0737,44.835,12.670,89.950,3,18,1,391,399,2025-06-06T10:06:23.586530
5606,-1.0673,0.2352,0.0488,32.760,44.625,86.800,3,19,1,373,392,2025-06-06T10:06:23.586530
5607,-0.9687,0.2640,0.0917,32.865,65.310,76.825,3,19,2,387,394,2025-06-06T10:06:23.746067
5608,-0.9233,0.3084,0.2147,34.440,72.940,72.065,2,21,1,379,397,2025-06-06T10:06:23.746067
5609,-0.9496,0.3660,0.3187,36.540,72.800,69.335,2,19,1,384,393,2025-06-06T10:06:23.746067
5610,-0.8086,0.4368,0.3470,35.630,68.530,71.890,2,19,1,384,373,2025-06-06T10:06:23.746067
5611,-0.7115,0.4592,0.2752,30.205,64.575,84.385,2,18,1,381,387,2025-06-06T10:06:23.746067
5612,-0.7374,0.4636,0.2601,23.625,61.670,80.920,2,16,0,364,389,2025-06-06T10:06:23.746067
5613,-0.7710,0.4499,0.2967,17.675,60.235,79.030,2,17,1,387,386,2025-06-06T10:06:23.746067
5614,-0.8257,0.4553,0.2538,21.910,51.450,82.180,1,16,1,374,381,2025-06-06T10:06:23.746067
5615,-0.7554,0.5026,0.2035,25.550,40.565,86.485,2,14,1,398,386,2025-06-06T10:06:23.746067
5616,-0.7096,0.5563,0.1615,32.900,23.520,125.125,1,15,1,372,356,2025-06-06T10:06:23.746067
5617,-0.6715,0.6446,0.1313,40.915,22.610,96.495,1,15,1,370,383,2025-06-06T10:06:23.746067
5618,-0.7169,0.6193,0.0737,58.310,29.295,91.350,2,15,1,391,396,2025-06-06T10:06:23.746067
5619,-0.7257,0.5261,0.1484,59.780,27.895,97.055,2,14,2,393,379,2025-06-06T10:06:23.746067
5620,-0.6861,0.5222,0.1093,70.035,32.865,78.750,2,15,1,403,399,2025-06-06T10:06:23.845048
5621,-0.6730,0.5397,-0.0986,74.025,33.565,73.920,2,15,2,398,367,2025-06-06T10:06:23.845048
5622,-0.6339,0.4719,-0.2503,62.090,43.365,60.620,3,14,2,393,372,2025-06-06T10:06:23.845048
5623,-0.6256,0.4943,-0.1879,28.700,57.190,52.045,2,15,1,381,384,2025-06-06T10:06:23.845048
5624,-0.7061,0.5890,-0.0512,1.610,67.795,44.205,2,14,2,372,389,2025-06-06T10:06:23.845048
5625,-0.6876,0.6193,-0.0137,-8.015,70.000,39.165,3,14,1,400,409,2025-06-06T10:06:23.845048
5626,-0.7271,0.6432,-0.0429,-2.205,65.800,35.105,2,13,1,387,393,2025-06-06T10:06:23.845048
5627,-0.6988,0.6451,-0.0439,7.700,52.780,32.445,2,14,1,363,385,2025-06-06T10:06:23.845048
5628,-0.6773,0.7120,0.0688,27.685,37.275,34.580,2,15,1,370,400,2025-06-06T10:06:23.845048
5629,-0.7110,0.7130,-0.0537,38.850,25.515,37.520,2,16,1,381,387,2025-06-06T10:06:24.047870
5630,-0.6417,0.6827,-0.1244,42.525,20.720,37.205,1,16,2,389,400,2025-06-06T10:06:24.047870
5631,-0.6617,0.7393,-0.1113,45.710,22.015,36.575,2,16,1,383,381,2025-06-06T10:06:24.047870
5632,-0.6085,0.7193,-0.0825,40.950,21.175,37.240,3,15,2,390,384,2025-06-06T10:06:24.047870
5633,-0.6066,0.6876,-0.0839,35.350,20.125,38.640,2,14,1,386,346,2025-06-06T10:06:24.047870
5634,-0.6349,0.7042,-0.1322,31.850,18.900,39.760,1,14,1,379,328,2025-06-06T10:06:24.047870
5635,-0.6627,0.6964,-0.1527,32.165,16.520,39.550,1,15,0,360,365,2025-06-06T10:06:24.047870
5636,-0.6754,0.6964,-0.1523,34.650,11.725,39.585,1,16,1,375,372,2025-06-06T10:06:24.047870
5637,-0.6676,0.6891,-0.1806,37.625,6.895,38.500,2,16,1,385,370,2025-06-06T10:06:24.047870
5638,-0.7061,0.6988,-0.2181,29.365,1.995,36.785,1,18,1,393,374,2025-06-06T10:06:24.047870
5639,-0.6656,0.6266,-0.2342,15.400,4.130,34.965,2,18,1,393,377,2025-06-06T10:06:24.047870
5640,-0.5807,0.7632,-0.2220,8.015,13.930,35.035,1,16,1,406,386,2025-06-06T10:06:24.211981
5641,-0.6110,0.7291,-0.1957,0.770,21.560,35.175,2,17,1,395,373,2025-06-06T10:06:24.211981
5642,-0.6207,0.6969,-0.1854,-0.560,26.355,34.685,3,17,1,399,349,2025-06-06T10:06:24.211981
5643,-0.6202,0.6705,-0.1469,1.960,28.420,34.580,2,15,1,394,344,2025-06-06T10:06:24.211981
5644,-0.6720,0.6720,-0.1415,0.385,30.135,35.315,3,14,1,386,354,2025-06-06T10:06:24.211981
5645,-0.6198,0.6710,-0.1537,-2.380,31.360,38.115,3,15,1,385,369,2025-06-06T10:06:24.211981
5646,-0.5592,0.6388,-0.1664,-3.045,32.935,43.400,2,12,1,387,369,2025-06-06T10:06:24.211981
5647,-0.5529,0.6276,-0.1747,-3.500,34.510,48.055,2,11,1,389,372,2025-06-06T10:06:24.211981
5648,-0.5431,0.6261,-0.1732,-3.745,36.155,52.115,2,9,1,393,386,2025-06-06T10:06:24.211981
5649,-0.5295,0.5973,-0.1484,-6.440,37.205,55.825,2,11,1,398,392,2025-06-06T10:06:24.211981
5650,-0.5470,0.6295,-0.0800,-9.730,38.500,59.640,2,9,0,330,360,2025-06-06T10:06:24.211981
5651,-0.5017,0.6407,-0.0117,-14.980,38.045,64.820,2,8,1,314,373,2025-06-06T10:06:24.211981
5652,-0.5261,0.6388,0.0010,-27.160,39.340,69.755,2,11,0,321,385,2025-06-06T10:06:24.211981
5653,-0.4860,0.6515,0.0298,-35.910,38.605,76.300,2,7,1,357,389,2025-06-06T10:06:24.211981
5654,-0.5700,0.7198,0.0151,-43.470,30.380,83.755,2,10,2,361,388,2025-06-06T10:06:24.211981
5655,-0.5212,0.7974,-0.0400,-44.380,19.600,95.060,2,10,1,372,402,2025-06-06T10:06:24.211981
5656,-0.5070,0.8901,-0.1562,-41.580,13.090,99.260,2,9,1,367,398,2025-06-06T10:06:24.211981
5657,-0.4329,0.9252,-0.1952,-31.290,7.420,104.335,2,10,1,385,400,2025-06-06T10:06:24.211981
5658,-0.5226,0.9287,-0.2796,-24.150,8.365,104.020,3,12,1,380,387,2025-06-06T10:06:24.407714
5659,-0.4616,0.9316,-0.3333,-13.475,10.010,99.540,2,12,1,383,393,2025-06-06T10:06:24.407714
5660,-0.4128,1.1165,-0.3201,0.525,14.665,94.850,3,13,2,397,401,2025-06-06T10:06:24.407714
5661,-0.2401,1.2039,-0.2684,-2.310,22.120,93.835,3,14,2,382,387,2025-06-06T10:06:24.407714
5662,-0.2377,1.1619,-0.2318,-16.450,37.450,96.285,3,18,1,393,393,2025-06-06T10:06:24.407714
5663,-0.2025,1.1692,-0.1967,-18.130,40.005,101.395,2,17,1,384,360,2025-06-06T10:06:24.407714
5664,-0.1381,1.1634,-0.2157,-0.910,36.225,106.750,3,21,0,341,371,2025-06-06T10:06:24.407714
5665,-0.0854,1.0980,-0.2689,10.360,37.975,109.690,2,19,1,376,391,2025-06-06T10:06:24.407714
5666,-0.1562,1.0902,-0.3113,12.915,49.420,105.315,2,25,1,382,386,2025-06-06T10:06:24.407714
5667,-0.1347,1.0912,-0.3431,0.805,60.865,90.370,2,23,1,393,389,2025-06-06T10:06:24.407714
5668,-0.0342,1.0843,-0.2826,22.260,59.150,96.775,2,21,1,397,390,2025-06-06T10:06:24.407714
5669,-0.0571,1.0838,-0.2601,35.245,53.200,94.220,2,22,1,386,356,2025-06-06T10:06:24.407714
5670,0.0303,1.0409,-0.2645,42.280,47.950,91.455,2,21,2,395,384,2025-06-06T10:06:24.407714
5671,-0.0420,1.0799,-0.2991,47.565,48.930,85.365,3,21,1,348,383,2025-06-06T10:06:24.407714
5672,0.0756,1.0468,-0.2176,50.960,41.545,79.870,3,22,2,381,378,2025-06-06T10:06:24.407714
5673,0.1552,1.0341,-0.0771,77.700,29.330,77.910,3,23,2,395,381,2025-06-06T10:06:24.407714
5674,0.0249,0.9106,-0.1196,65.030,20.685,67.795,3,22,1,393,379,2025-06-06T10:06:24.407714
5675,0.0952,0.9121,-0.1405,70.945,3.465,55.300,3,22,1,392,349,2025-06-06T10:06:24.407714
5676,0.1659,0.8696,-0.1493,73.780,-7.735,38.535,2,23,1,387,371,2025-06-06T10:06:24.558904
5677,0.1122,0.7852,-0.2250,56.035,-4.760,17.360,3,22,1,397,378,2025-06-06T10:06:24.558904
5678,0.0449,0.6227,-0.3494,38.920,1.925,-13.195,2,19,2,386,354,2025-06-06T10:06:24.558904
5679,-0.1908,0.5680,-0.2948,42.245,-5.915,-31.920,3,18,1,370,342,2025-06-06T10:06:24.558904
5680,0.0410,0.8281,-0.2059,50.435,-38.535,-45.675,2,18,1,386,344,2025-06-06T10:06:24.558904
5681,0.3831,1.0199,-0.1083,40.880,-54.810,-50.925,1,15,1,388,328,2025-06-06T10:06:24.558904
5682,0.6803,1.0370,-0.0244,8.995,-63.350,-49.210,2,16,1,394,355,2025-06-06T10:06:24.558904
5683,1.5030,1.0126,0.0156,3.080,-91.490,-38.605,1,15,1,385,366,2025-06-06T10:06:24.558904
5684,2.1701,0.8667,0.0586,-38.955,-119.245,-28.245,1,14,1,376,377,2025-06-06T10:06:24.558904
5685,3.0890,0.1523,0.4060,-99.960,-131.495,-21.525,2,14,1,388,386,2025-06-06T10:06:24.558904
5686,3.3052,-1.1175,0.8335,-225.540,-143.605,-68.320,1,14,2,380,378,2025-06-06T10:06:24.558904
5687,2.2965,-1.9940,1.0985,-322.455,-136.395,-208.215,2,14,1,390,354,2025-06-06T10:06:24.558904
5688,-0.3187,-1.9886,1.6626,-319.410,0.070,-466.095,1,16,1,392,341,2025-06-06T10:06:24.599904
5689,-2.3214,-2.4951,0.1415,-414.645,49.595,-684.915,3,17,1,378,291,2025-06-06T10:06:24.599904
5690,-3.9147,-1.7880,-0.7320,-346.220,69.475,-887.985,2,17,1,391,353,2025-06-06T10:06:24.599904
5691,-5.6491,0.2240,-0.6383,-25.480,-29.575,-1012.830,2,18,1,392,358,2025-06-06T10:06:24.599904
5692,-5.1757,1.7875,0.3733,157.710,-256.445,-1132.670,2,20,1,394,346,2025-06-06T10:06:24.669409
5693,-2.4180,2.0374,0.3489,286.720,-422.555,-1077.265,2,20,2,405,336,2025-06-06T10:06:24.670155
5694,-0.9292,-0.8355,-0.4724,112.665,-205.940,-766.290,2,21,1,388,352,2025-06-06T10:06:24.670155
5695,-2.0003,-2.9661,0.2123,-222.320,227.185,-580.475,2,23,1,407,381,2025-06-06T10:06:24.670155
5696,-1.6494,-0.9579,0.5485,-310.800,373.310,-289.135,2,23,1,403,391,2025-06-06T10:06:24.670155
5697,-5.2392,1.4391,3.6878,145.320,6.755,257.215,2,23,2,406,384,2025-06-06T10:06:24.714452
5698,-2.1126,-0.6759,-0.8926,11.480,-214.445,280.070,2,23,1,406,389,2025-06-06T10:06:24.714452
5699,-3.7796,-0.3587,-2.5683,308.490,-115.115,172.235,2,21,1,402,396,2025-06-06T10:06:24.714452
5700,-1.9988,-0.2918,-1.3693,187.530,29.225,159.215,2,20,1,415,387,2025-06-06T10:06:24.714452
5701,-1.2220,0.7286,0.4851,-27.265,-18.865,154.735,2,19,1,383,382,2025-06-06T10:06:24.761917
5702,-0.5114,0.0293,-0.3396,127.960,-43.435,168.210,3,19,1,381,391,2025-06-06T10:06:24.761917
5703,-0.3216,-0.3904,-0.6944,113.645,9.485,158.795,2,18,2,401,403,2025-06-06T10:06:24.761917
5704,-0.7037,-0.2845,-0.2011,25.550,100.345,132.930,1,20,1,394,397,2025-06-06T10:06:24.761917
5705,-0.9311,-0.1049,0.3821,-69.895,180.460,112.630,2,20,2,405,394,2025-06-06T10:06:24.808628
5706,-1.0658,-0.0478,0.4153,-60.550,204.505,102.095,2,18,2,357,380,2025-06-06T10:06:24.808628
5707,-1.3527,-0.0737,0.1469,-26.670,152.180,88.690,3,17,1,366,384,2025-06-06T10:06:24.808628
5708,-1.3371,0.0717,0.2416,18.690,67.060,73.185,2,17,1,379,393,2025-06-06T10:06:24.808628
5709,-1.2298,0.2118,0.3572,11.445,-3.325,75.705,2,17,1,380,386,2025-06-06T10:06:24.852284
5710,-1.0882,0.1327,0.2865,2.835,-48.335,76.790,1,18,2,383,393,2025-06-06T10:06:24.852284
5711,-0.9355,0.0820,0.1010,7.630,-72.240,80.570,3,19,1,392,385,2025-06-06T10:06:24.852284
5712,-0.8789,0.0742,-0.0273,44.695,-79.835,85.505,2,20,1,391,393,2025-06-06T10:06:24.852284
5713,-0.8252,0.0883,-0.0532,69.475,-82.215,87.115,2,22,1,395,392,2025-06-06T10:06:24.909253
5714,-0.9062,0.0893,-0.1640,46.480,-61.985,89.845,3,25,2,381,392,2025-06-06T10:06:24.909253
5715,-1.0004,0.2323,-0.1235,40.180,-46.235,93.625,3,26,1,397,398,2025-06-06T10:06:24.909253
5716,-0.8301,0.1332,-0.0415,11.375,-19.425,94.395,2,30,2,352,396,2025-06-06T10:06:24.909253
5717,-1.0228,0.4943,-0.1327,27.055,-14.035,132.125,2,33,1,362,396,2025-06-06T10:06:25.070093
5718,-0.9770,0.3884,-0.1981,28.245,1.400,132.720,4,34,2,393,389,2025-06-06T10:06:25.070093
5719,-0.8008,0.4046,-0.2113,26.670,9.660,128.800,3,39,1,374,397,2025-06-06T10:06:25.070093
5720,-0.8281,0.4065,-0.1645,16.905,23.380,133.840,3,44,1,390,399,2025-06-06T10:06:25.070093
5721,-0.8833,0.5012,-0.1659,9.450,43.750,140.805,5,44,2,383,391,2025-06-06T10:06:25.070093
5722,-0.7764,0.5885,-0.1810,6.020,57.645,149.030,5,49,1,380,387,2025-06-06T10:06:25.070093
5723,-0.8252,0.5305,-0.1942,-2.030,67.760,143.290,4,52,2,354,382,2025-06-06T10:06:25.070093
5724,-0.8501,0.4865,-0.1479,-1.645,78.610,143.360,5,50,1,360,352,2025-06-06T10:06:25.070093
5725,-0.8491,0.4943,-0.1083,1.995,85.610,142.135,4,44,1,375,385,2025-06-06T10:06:25.070093
5726,-0.8599,0.4787,-0.0698,8.400,85.610,134.610,4,42,1,378,357,2025-06-06T10:06:25.070093
5727,-0.8984,0.5158,-0.0717,17.815,81.760,134.120,3,38,1,377,368,2025-06-06T10:06:25.070093
5728,-0.7393,0.5788,-0.0468,42.840,70.175,135.940,2,26,0,349,381,2025-06-06T10:06:25.070093
5729,-0.6403,0.6320,-0.0659,69.510,54.915,127.400,2,27,1,353,383,2025-06-06T10:06:25.070093
5730,-0.5719,0.7432,-0.0176,32.550,27.265,126.980,2,22,2,370,353,2025-06-06T10:06:25.070093
5731,-0.5329,0.6793,-0.1401,7.490,37.030,123.410,2,17,2,370,345,2025-06-06T10:06:25.272572
5732,-0.5656,0.6227,-0.1122,-22.330,63.910,123.970,2,16,1,387,358,2025-06-06T10:06:25.272572
5733,-0.4387,0.6481,-0.1430,-39.200,64.750,116.830,3,14,2,402,374,2025-06-06T10:06:25.272572
5734,-0.3206,0.6866,-0.2377,-27.510,54.530,116.620,2,15,1,393,380,2025-06-06T10:06:25.272572
5735,-0.2538,0.7120,-0.2586,-7.210,49.595,115.535,3,15,1,400,359,2025-06-06T10:06:25.272572
5736,-0.2552,0.7632,-0.2347,-9.170,64.540,111.125,2,13,1,393,376,2025-06-06T10:06:25.272572
5737,-0.3172,0.7266,-0.1850,-24.045,85.330,101.605,2,12,1,388,388,2025-06-06T10:06:25.272572
5738,-0.3762,0.7164,-0.0493,-30.590,92.925,92.890,2,11,1,385,386,2025-06-06T10:06:25.272572
5739,-0.4665,0.8579,-0.0107,-25.200,79.135,84.280,1,11,1,346,377,2025-06-06T10:06:25.272572
5740,-0.3045,0.9848,-0.0371,-15.260,63.980,84.245,2,11,1,367,392,2025-06-06T10:06:25.272572
5741,-0.2460,1.0390,-0.1503,-10.255,56.770,85.890,1,13,2,336,390,2025-06-06T10:06:25.272572
5742,-0.2577,1.0653,-0.2640,-12.740,53.340,84.595,2,12,1,367,381,2025-06-06T10:06:25.272572
5743,-0.2206,1.0331,-0.2606,-1.155,50.190,83.510,1,10,1,371,380,2025-06-06T10:06:25.272572
5744,-0.2747,0.9321,-0.2806,6.930,41.090,82.215,2,10,1,373,376,2025-06-06T10:06:25.272572
5745,-0.2762,0.9384,-0.2923,19.600,35.770,78.960,2,11,1,391,385,2025-06-06T10:06:25.272572
5746,-0.3109,0.9389,-0.3055,29.540,32.550,74.375,2,10,1,394,381,2025-06-06T10:06:25.272572
5747,-0.2582,0.9701,-0.2704,39.305,27.720,68.320,3,10,1,398,381,2025-06-06T10:06:25.376511
5748,-0.2840,0.9594,-0.2430,45.255,21.910,64.225,2,11,1,404,322,2025-06-06T10:06:25.376511
5749,-0.2098,0.9404,-0.2338,43.120,13.930,62.825,2,10,1,371,341,2025-06-06T10:06:25.376511
5750,-0.1225,0.9579,-0.2835,49.420,5.425,62.405,2,10,1,391,363,2025-06-06T10:06:25.376511
5751,-0.1796,0.8042,-0.3182,49.035,15.505,57.645,2,10,1,380,347,2025-06-06T10:06:25.376511
5752,-0.1391,0.8857,-0.2767,48.685,15.645,48.685,1,10,2,375,371,2025-06-06T10:06:25.376511
5753,-0.0971,0.9292,-0.4573,42.525,28.490,41.825,1,9,1,385,390,2025-06-06T10:06:25.376511
5754,-0.1649,0.9228,-0.4236,35.140,41.650,30.485,1,10,1,369,386,2025-06-06T10:06:25.376511
5755,-0.1889,0.9067,-0.3787,36.015,43.260,22.890,1,12,1,346,383,2025-06-06T10:06:25.376511
5756,-0.1542,0.8374,-0.3245,39.725,40.460,18.865,2,12,2,355,349,2025-06-06T10:06:25.424471
5757,-0.1464,0.8647,-0.2440,32.445,36.995,18.270,2,10,2,361,362,2025-06-06T10:06:25.424471
5758,-0.0098,0.6437,-0.1342,30.485,30.205,21.770,2,10,1,376,341,2025-06-06T10:06:25.424471
5759,-0.2547,0.8320,-0.1396,27.790,25.375,21.560,2,7,1,368,354,2025-06-06T10:06:25.424471
5760,-0.1674,0.8857,-0.2367,32.760,16.240,18.760,1,8,1,387,362,2025-06-06T10:06:25.568870
5761,-0.1049,0.9087,-0.2879,38.710,12.530,18.095,2,9,1,382,369,2025-06-06T10:06:25.568870
5762,-0.0815,1.0141,-0.2728,-22.295,29.120,17.815,2,10,1,390,380,2025-06-06T10:06:25.568870
5763,0.0000,0.8233,-0.2259,21.630,-22.680,19.600,1,9,1,398,385,2025-06-06T10:06:25.568870
5764,0.0195,0.8194,-0.2338,-25.585,32.865,18.970,2,7,1,388,391,2025-06-06T10:06:25.568870
5765,-0.0337,0.6632,-0.3504,2.835,-8.750,18.480,1,6,1,397,383,2025-06-06T10:06:25.568870
5766,-0.1069,0.7998,-0.3123,-29.750,8.960,12.285,1,9,1,381,386,2025-06-06T10:06:25.568870
5767,-0.1259,0.8296,-0.3274,-22.295,-1.190,5.040,2,7,1,385,385,2025-06-06T10:06:25.568870
5768,-0.0283,0.8804,-0.3211,-26.180,-6.055,-0.560,2,10,1,382,389,2025-06-06T10:06:25.568870
5769,0.0054,0.8769,-0.3572,-19.810,-6.160,-1.960,1,10,1,374,397,2025-06-06T10:06:25.568870
5770,-0.0205,0.8511,-0.2767,-26.810,-12.495,-2.800,1,9,0,361,383,2025-06-06T10:06:25.568870
5771,-0.1005,0.8325,-0.3113,-22.155,-17.360,-6.650,1,10,2,362,390,2025-06-06T10:06:25.568870
5772,-0.1586,0.8579,-0.2752,-35.315,-18.900,-12.530,1,11,1,378,402,2025-06-06T10:06:25.568870
5773,-0.1713,0.9204,-0.2767,-26.460,-28.560,-15.505,2,11,1,378,389,2025-06-06T10:06:25.638106
5774,-0.1459,1.0253,-0.2089,-23.625,-34.895,-13.720,2,10,2,385,380,2025-06-06T10:06:25.638106
5775,-0.1176,0.9399,-0.2406,-24.920,-46.970,-7.525,2,10,1,389,378,2025-06-06T10:06:25.638106
5776,-0.1596,0.9394,-0.2664,-23.275,-59.045,0.385,1,7,1,388,387,2025-06-06T10:06:25.638106
5777,-0.2157,0.8691,-0.2821,-21.420,-66.955,3.080,1,10,1,351,379,2025-06-06T10:06:25.638106
5778,-0.2206,0.8686,-0.3323,-24.080,-67.375,-0.385,2,10,1,375,395,2025-06-06T10:06:25.777662
5779,-0.2084,0.9145,-0.3889,-21.875,-54.390,-8.365,2,8,1,373,393,2025-06-06T10:06:25.777662
5780,-0.1645,0.9155,-0.4768,-22.715,-50.785,-24.850,2,10,2,397,409,2025-06-06T10:06:25.777662
5781,-0.1664,0.8359,-0.4768,-23.240,-28.980,-27.405,2,10,1,395,384,2025-06-06T10:06:25.777662
5782,-0.2523,0.8018,-0.4553,-26.320,-11.340,-38.045,2,8,2,385,391,2025-06-06T10:06:25.777662
5783,-0.3148,0.9067,-0.3992,-26.145,-9.170,-43.155,2,8,1,395,399,2025-06-06T10:06:25.777662
5784,-0.2308,0.9750,-0.3431,-22.680,-14.840,-41.125,2,8,1,379,388,2025-06-06T10:06:25.777662
5785,-0.2050,1.0370,-0.3455,-17.535,-14.420,-31.955,2,5,1,393,384,2025-06-06T10:06:25.777662
5786,-0.2220,1.0604,-0.3152,-16.205,-14.805,-21.350,1,4,2,388,358,2025-06-06T10:06:25.777662
5787,-0.1527,1.0067,-0.3128,-12.040,-20.545,-6.650,1,4,1,384,382,2025-06-06T10:06:25.777662
5788,-0.1806,0.9760,-0.2606,-1.855,-25.305,4.410,2,4,1,397,392,2025-06-06T10:06:25.777662
5789,-0.3284,0.9062,-0.3543,-1.785,-20.125,5.670,2,3,1,381,382,2025-06-06T10:06:25.777662
5790,-0.4314,0.9008,-0.3650,0.455,-14.455,-2.730,1,5,1,386,405,2025-06-06T10:06:25.910844
5791,-0.4821,0.8799,-0.3948,2.625,-7.105,-12.180,2,5,1,378,400,2025-06-06T10:06:25.910844
5792,-0.4529,0.8969,-0.3806,5.180,-2.345,-21.875,3,6,0,357,384,2025-06-06T10:06:25.910844
5793,-0.3416,0.9789,-0.3245,11.725,-3.045,-22.680,1,6,1,369,384,2025-06-06T10:06:25.910844
5794,-0.2489,1.0555,-0.2630,15.995,-8.575,-13.615,2,5,1,374,380,2025-06-06T10:06:25.910844
5795,-0.1810,1.0502,-0.2577,22.050,-13.615,-0.070,2,5,1,379,353,2025-06-06T10:06:25.910844
5796,-0.2289,1.0180,-0.2801,29.820,-16.625,9.450,2,5,1,369,371,2025-06-06T10:06:25.910844
5797,-0.2381,0.9765,-0.3475,34.160,-15.330,16.205,2,5,1,389,382,2025-06-06T10:06:25.910844
5798,-0.2728,0.9126,-0.3967,39.620,-5.705,16.275,2,6,1,399,378,2025-06-06T10:06:25.910844
5799,-0.3157,0.8862,-0.4231,40.530,9.345,12.390,2,9,2,396,352,2025-06-06T10:06:25.933867
5800,-0.2791,0.9018,-0.3826,45.885,19.355,9.695,2,9,1,400,382,2025-06-06T10:06:25.933867
5801,-0.2352,0.9697,-0.3192,52.290,22.540,12.180,3,11,1,387,372,2025-06-06T10:06:25.933867
5802,-0.2289,0.9711,-0.2874,58.940,24.325,17.185,1,10,2,387,383,2025-06-06T10:06:25.933867
5803,-0.2513,0.9565,-0.2840,65.100,20.685,25.095,2,9,1,384,380,2025-06-06T10:06:25.982559
5804,-0.2396,0.8926,-0.3196,72.275,12.460,30.310,2,9,1,389,379,2025-06-06T10:06:25.982559
5805,-0.2884,0.8496,-0.3577,77.350,17.010,29.925,2,8,1,396,391,2025-06-06T10:06:25.982559
5806,-0.2991,0.8579,-0.3240,79.590,19.355,28.420,2,8,1,391,391,2025-06-06T10:06:25.982559
5807,-0.2723,0.8501,-0.2689,82.355,13.090,28.455,2,8,1,384,402,2025-06-06T10:06:26.085729
5808,-0.2762,0.8398,-0.2621,78.925,9.065,30.205,2,9,1,380,393,2025-06-06T10:06:26.085729
5809,-0.2367,0.8233,-0.2713,71.085,3.815,32.060,2,10,1,339,374,2025-06-06T10:06:26.085729
5810,-0.2206,0.7784,-0.2987,56.980,-0.560,33.460,2,9,1,358,386,2025-06-06T10:06:26.085729
5811,-0.2054,0.7408,-0.3270,35.000,-1.155,32.305,1,9,1,368,389,2025-06-06T10:06:26.085729
5812,-0.2020,0.7281,-0.3353,21.630,1.050,29.645,1,8,0,340,397,2025-06-06T10:06:26.085729
5813,-0.1996,0.7227,-0.3157,10.640,-1.120,27.825,2,7,1,336,361,2025-06-06T10:06:26.085729
5814,-0.2279,0.7076,-0.3074,6.825,-11.270,26.180,1,7,1,351,371,2025-06-06T10:06:26.085729
5815,-0.2381,0.8140,-0.2640,5.915,-23.940,28.140,1,6,1,384,354,2025-06-06T10:06:26.085729
5816,-0.2664,0.8135,-0.4075,-5.110,-47.040,30.065,2,8,2,341,370,2025-06-06T10:06:26.194334
5817,-0.1337,0.8120,-0.4860,-25.655,-53.550,26.635,1,8,1,366,348,2025-06-06T10:06:26.194334
5818,0.0981,0.9116,-0.5441,-24.185,-67.060,27.125,1,8,1,374,377,2025-06-06T10:06:26.194334
5819,0.8603,0.9077,-0.7496,-27.265,-57.435,27.300,2,8,2,388,380,2025-06-06T10:06:26.194334
5820,1.4606,0.4607,-0.7618,-76.510,-20.720,22.575,2,9,2,393,377,2025-06-06T10:06:26.194334
5821,2.9900,-0.4397,-0.6481,-133.875,17.710,-1.925,2,9,1,374,379,2025-06-06T10:06:26.194334
5822,3.4058,-1.4113,-0.3806,-190.610,27.300,-111.510,3,10,1,383,379,2025-06-06T10:06:26.194746
5823,3.0798,-2.4161,0.3479,-333.725,-83.545,-270.725,2,10,1,394,392,2025-06-06T10:06:26.194746
5824,0.8047,-1.4162,1.9403,-408.205,4.165,-396.025,2,12,2,381,387,2025-06-06T10:06:26.299216
5825,-1.1082,-1.7563,1.7021,-570.780,79.030,-628.250,2,13,2,399,405,2025-06-06T10:06:26.299216
5826,-2.7977,-0.9228,0.6154,-299.355,113.750,-801.325,3,15,1,381,401,2025-06-06T10:06:26.299216
5827,-4.0016,0.5866,-0.1601,-152.845,-98.665,-937.790,3,19,1,394,392,2025-06-06T10:06:26.299216
5828,-6.6963,1.6197,0.4709,-12.110,-304.325,-1056.265,3,20,1,383,392,2025-06-06T10:06:26.299216
5829,-4.4745,2.7489,1.8593,272.265,-383.915,-1101.800,2,21,1,380,380,2025-06-06T10:06:26.299216
5830,-0.6217,0.7462,-1.3713,191.205,-371.000,-784.630,2,22,1,388,387,2025-06-06T10:06:26.299216
5831,0.0029,-1.0497,-2.0403,-61.775,-20.055,-548.135,2,22,1,388,396,2025-06-06T10:06:26.299216
5832,-1.0878,-0.6842,-0.5905,-109.130,166.880,-294.210,1,26,1,399,397,2025-06-06T10:06:26.299216
5833,-1.6089,-0.3299,-0.0620,-179.130,236.250,-117.565,2,25,2,404,400,2025-06-06T10:06:26.355224
5834,-5.1123,-1.3537,0.7525,6.790,111.125,78.505,3,26,1,390,396,2025-06-06T10:06:26.355224
5835,-2.5278,0.8750,-0.2230,254.520,-85.400,190.330,2,26,1,399,391,2025-06-06T10:06:26.355224
5836,-3.2716,-1.3147,-1.6680,84.420,-76.090,191.345,3,26,1,396,360,2025-06-06T10:06:26.355224
5837,-1.7085,0.0732,0.2318,98.035,7.525,206.885,3,25,2,384,337,2025-06-06T10:06:26.500409
5838,-1.0370,0.1747,0.2835,18.235,-83.020,246.295,3,26,1,395,378,2025-06-06T10:06:26.500409
5839,-0.8818,-0.0981,-0.2606,126.700,-68.215,243.180,3,23,2,400,375,2025-06-06T10:06:26.500409
5840,-0.7218,-0.2259,-0.4265,99.295,22.155,231.840,3,21,2,396,352,2025-06-06T10:06:26.500409
5841,-0.8374,-0.0659,-0.1972,65.240,132.685,207.550,3,20,1,395,363,2025-06-06T10:06:26.500409
5842,-1.0458,0.0742,-0.1737,46.165,158.900,178.710,2,20,1,391,379,2025-06-06T10:06:26.500409
5843,-1.4596,0.1196,-0.5256,54.425,150.885,117.320,1,19,0,360,380,2025-06-06T10:06:26.500409
5844,-1.2522,-0.0844,-0.3748,64.400,158.480,100.555,2,16,2,371,379,2025-06-06T10:06:26.500409
5845,-1.7329,0.0195,-0.1303,33.355,142.485,75.390,2,16,1,382,382,2025-06-06T10:06:26.500409
5846,-1.6011,0.2606,0.2137,-26.005,99.960,45.255,3,13,1,379,383,2025-06-06T10:06:26.500409
5847,-1.1151,0.3928,0.9194,24.815,27.055,45.220,2,12,1,377,377,2025-06-06T10:06:26.500409
5848,-0.9843,0.3016,0.5929,-16.205,-48.370,48.790,1,10,1,392,389,2025-06-06T10:06:26.500409
5849,-0.6705,0.1484,0.3314,-14.700,-78.995,56.700,2,10,1,389,380,2025-06-06T10:06:26.500409
5850,-0.6900,0.2147,0.2455,6.440,-117.355,67.655,2,9,1,396,366,2025-06-06T10:06:26.603932
5851,-0.7261,0.4148,0.3772,13.335,-133.420,77.700,2,7,1,383,385,2025-06-06T10:06:26.603932
5852,-0.7310,0.4290,0.1171,14.070,-142.380,87.290,2,7,1,397,387,2025-06-06T10:06:26.603932
5853,-0.8623,0.4455,-0.0986,17.255,-128.590,91.490,1,6,2,404,355,2025-06-06T10:06:26.603932
5854,-1.0575,0.3924,-0.2752,27.510,-111.895,91.770,2,7,1,386,344,2025-06-06T10:06:26.603932
5855,-0.9238,0.4709,-0.2957,20.370,-84.980,90.475,1,7,1,390,338,2025-06-06T10:06:26.603932
5856,-0.7749,0.5065,-0.3777,32.130,-64.575,97.230,2,6,1,380,360,2025-06-06T10:06:26.603932
5857,-0.7408,0.5309,-0.3787,26.670,-27.090,100.520,2,7,1,391,371,2025-06-06T10:06:26.603932
5858,-0.7164,0.5368,-0.3177,31.045,-2.065,106.120,2,7,1,384,376,2025-06-06T10:06:26.705903
5859,-0.7549,0.5329,-0.2523,22.610,24.045,110.810,2,7,2,381,369,2025-06-06T10:06:26.705903
5860,-0.7139,0.4197,-0.1610,15.470,38.220,113.330,2,9,1,379,374,2025-06-06T10:06:26.705903
5861,-0.7813,0.5436,-0.1166,18.970,40.320,118.020,2,10,1,390,372,2025-06-06T10:06:26.705903
5862,-0.8560,0.6178,-0.0605,28.490,31.815,157.570,2,11,1,389,341,2025-06-06T10:06:26.705903
5863,-0.8628,0.5036,-0.0449,22.085,36.645,117.285,2,11,1,362,377,2025-06-06T10:06:26.705903
5864,-0.8520,0.5480,-0.0464,28.420,38.360,119.910,2,12,1,344,364,2025-06-06T10:06:26.705903
5865,-0.7774,0.5978,-0.0190,35.805,31.465,110.320,1,13,0,341,343,2025-06-06T10:06:26.705903
5866,-0.8237,0.5641,0.0420,51.940,21.980,151.095,2,16,1,364,382,2025-06-06T10:06:26.705903
5867,-0.6085,0.6490,0.0522,54.145,15.225,124.425,2,19,1,371,378,2025-06-06T10:06:26.771522
5868,-0.5480,0.6481,0.0532,67.760,10.220,116.235,2,23,1,390,361,2025-06-06T10:06:26.771522
5869,-0.5368,0.6500,-0.0722,65.100,9.835,117.565,2,30,1,386,337,2025-06-06T10:06:26.771522
5870,-0.5500,0.6612,-0.0869,61.425,11.130,121.660,3,35,1,396,376,2025-06-06T10:06:26.771522
5871,-0.5905,0.6861,-0.0839,54.530,23.170,110.320,4,43,2,395,379,2025-06-06T10:06:26.910935
5872,-0.5636,0.6710,-0.0966,47.670,30.240,103.495,6,54,1,391,345,2025-06-06T10:06:26.910935
5873,-0.5334,0.6720,-0.1269,42.840,34.055,98.455,6,69,2,404,381,2025-06-06T10:06:26.910935
5874,-0.4885,0.7013,-0.1420,39.515,35.700,94.185,7,83,1,385,377,2025-06-06T10:06:26.910935
5875,-0.3987,0.7452,-0.1771,27.755,34.720,93.100,10,91,1,388,360,2025-06-06T10:06:26.910935
5876,-0.3021,0.7769,-0.2396,-12.915,35.735,95.410,12,109,0,341,374,2025-06-06T10:06:26.910935
5877,-0.4006,0.7847,-0.2294,-12.600,42.490,96.495,16,128,1,360,344,2025-06-06T10:06:26.910935
5878,-0.6149,0.7896,-0.2333,-19.180,49.105,94.255,18,141,2,389,387,2025-06-06T10:06:26.910935
5879,-0.5466,0.7657,-0.2186,-12.530,49.735,91.595,21,163,1,389,379,2025-06-06T10:06:26.910935
5880,-0.4377,0.7608,-0.1810,-7.385,41.300,91.630,24,182,2,401,388,2025-06-06T10:06:26.910935
5881,-0.2542,0.8062,-0.2084,-3.430,28.420,96.845,26,190,0,366,362,2025-06-06T10:06:26.910935
5882,-0.2357,0.8516,-0.1801,-3.500,30.485,100.380,30,200,1,378,365,2025-06-06T10:06:26.910935
5883,-0.2167,0.8311,-0.1127,-12.565,36.435,102.165,32,215,1,387,381,2025-06-06T10:06:26.910935
5884,-0.1454,0.8403,-0.0820,-18.130,40.005,103.215,35,224,1,376,377,2025-06-06T10:06:26.967700
5885,-0.3387,0.7881,-0.1098,-23.555,47.355,97.300,38,228,1,384,352,2025-06-06T10:06:26.967700
5886,-0.3977,0.7784,-0.1449,-29.540,52.535,85.190,40,234,2,349,357,2025-06-06T10:06:26.967700
5887,-0.3377,0.8218,-0.0971,-25.165,50.295,74.795,41,237,1,372,377,2025-06-06T10:06:26.967700
5888,-0.4582,0.8662,-0.0878,-32.235,48.265,67.655,41,241,2,404,396,2025-06-06T10:06:27.104726
5889,-0.3465,0.9038,-0.0737,-28.910,42.210,63.350,42,243,1,384,391,2025-06-06T10:06:27.104726
5890,-0.3196,0.8638,-0.0371,-27.580,32.095,64.330,40,246,2,393,382,2025-06-06T10:06:27.104726
5891,-0.2860,0.8301,-0.0156,-25.830,23.555,65.030,41,247,1,379,376,2025-06-06T10:06:27.104726
5892,-0.2264,0.8564,-0.0122,-24.990,17.955,67.900,41,245,1,367,368,2025-06-06T10:06:27.104726
5893,-0.1654,0.7735,-0.0512,-26.530,10.010,71.400,40,238,1,347,385,2025-06-06T10:06:27.104726
5894,-0.1474,0.8540,-0.2020,-17.010,9.975,68.145,38,231,1,353,390,2025-06-06T10:06:27.104726
5895,-0.1723,0.9614,-0.2879,-18.060,11.725,62.125,38,221,1,379,402,2025-06-06T10:06:27.104726
5896,-0.1274,0.8979,-0.3475,-16.835,21.035,51.975,36,213,1,380,409,2025-06-06T10:06:27.104726
5897,-0.2347,0.9184,-0.2904,-16.275,38.360,43.540,36,211,1,377,398,2025-06-06T10:06:27.104726
5898,-0.2245,0.9550,-0.1806,-20.020,45.080,38.080,35,207,1,395,396,2025-06-06T10:06:27.104726
5899,-0.0620,1.0194,-0.1288,-13.020,40.320,39.760,34,208,1,381,381,2025-06-06T10:06:27.104726
5900,-0.1396,1.0453,-0.0727,-15.295,39.305,47.740,35,213,1,349,381,2025-06-06T10:06:27.104726
5901,-0.0981,0.9970,-0.0493,-17.815,39.865,55.790,36,215,1,331,386,2025-06-06T10:06:27.316926
5902,-0.0576,1.0224,-0.0464,-11.830,38.815,62.825,37,219,1,365,378,2025-06-06T10:06:27.316926
5903,-0.0649,0.9936,-0.0869,-12.110,37.415,64.715,39,225,2,346,385,2025-06-06T10:06:27.316926
5904,-0.0410,1.0448,-0.0669,-10.430,47.250,58.135,39,234,1,361,380,2025-06-06T10:06:27.316926
5905,-0.1103,0.9418,-0.1347,-14.420,50.925,60.445,42,240,1,381,388,2025-06-06T10:06:27.316926
5906,0.0195,1.0014,-0.1303,-8.260,40.215,62.160,45,244,2,401,400,2025-06-06T10:06:27.316926
5907,0.0249,0.9633,-0.2030,-3.605,37.240,60.480,48,251,1,384,358,2025-06-06T10:06:27.316926
5908,0.0483,1.0155,-0.1606,0.945,36.015,57.995,51,258,1,388,342,2025-06-06T10:06:27.316926
5909,0.1025,1.0311,-0.2528,-2.170,34.930,54.460,50,262,1,380,332,2025-06-06T10:06:27.316926
5910,0.1113,0.9775,-0.3050,-2.135,25.585,55.020,52,266,1,378,361,2025-06-06T10:06:27.316926
5911,0.3792,0.9379,-0.3294,7.770,15.470,57.855,54,268,1,398,392,2025-06-06T10:06:27.316926
5912,0.4792,1.0707,-0.3284,17.220,15.785,58.135,54,271,1,388,360,2025-06-06T10:06:27.316926
5913,0.4207,1.1746,-0.2474,9.100,22.435,50.295,56,271,1,395,377,2025-06-06T10:06:27.316926
5914,0.5231,0.9984,-0.2050,3.185,20.895,42.805,55,272,1,392,345,2025-06-06T10:06:27.316926
5915,0.4890,1.0316,-0.1435,25.480,16.695,20.895,56,273,1,397,330,2025-06-06T10:06:27.316926
5916,0.5446,1.2210,-0.1069,20.510,-15.680,2.485,57,275,2,397,369,2025-06-06T10:06:27.316926
5917,0.6022,1.4982,-0.1157,27.930,-27.090,-25.935,57,274,1,384,379,2025-06-06T10:06:27.316926
5918,0.1274,1.3200,-0.4250,0.595,-39.865,-44.240,57,271,2,389,355,2025-06-06T10:06:27.367967
5919,0.3875,1.1000,-0.6515,24.045,-56.630,-75.495,53,262,2,383,368,2025-06-06T10:06:27.367967
5920,0.8154,1.6094,-0.1215,71.330,-95.480,-76.895,47,244,1,381,374,2025-06-06T10:06:27.367967
5921,0.8472,1.7875,0.2152,38.115,-107.730,-69.685,39,219,1,378,395,2025-06-06T10:06:27.367967
5922,0.7525,1.4167,0.0712,21.980,-87.360,-77.350,31,190,1,368,346,2025-06-06T10:06:27.417562
5923,0.6959,1.0609,-0.1566,42.560,-92.785,-105.805,29,166,2,394,347,2025-06-06T10:06:27.417562
5924,0.8804,1.0492,-0.3050,77.315,-111.685,-149.240,24,154,1,390,373,2025-06-06T10:06:27.417562
5925,1.0775,0.8496,-0.4402,58.485,-87.675,-200.935,20,147,1,398,378,2025-06-06T10:06:27.417562
5926,1.1785,0.2006,-0.4363,9.030,-26.250,-245.455,17,135,1,388,380,2025-06-06T10:06:27.570530
5927,1.8642,-0.1835,-0.0493,7.735,-38.955,-256.690,17,125,1,380,379,2025-06-06T10:06:27.570530
5928,2.8070,-0.1127,0.5226,12.775,-90.125,-260.680,16,120,1,357,383,2025-06-06T10:06:27.570530
5929,2.4707,-1.0199,0.8154,-43.050,-124.845,-284.270,15,111,2,372,389,2025-06-06T10:06:27.570530
5930,2.0467,-1.7939,0.5958,-80.080,-79.625,-382.515,12,104,2,379,352,2025-06-06T10:06:27.570530
5931,0.9404,-2.6606,0.3279,-86.835,-39.690,-524.405,10,97,1,372,372,2025-06-06T10:06:27.570530
5932,-1.4572,-3.0881,0.6017,-68.250,-18.060,-641.025,10,100,2,378,352,2025-06-06T10:06:27.570530
5933,-4.9000,-2.1579,1.2381,-9.590,61.040,-720.090,10,102,1,389,340,2025-06-06T10:06:27.570530
5934,-9.4692,-1.7500,0.4382,-60.725,-101.780,-753.095,10,105,1,385,363,2025-06-06T10:06:27.570530
5935,-9.4082,-0.2547,0.5178,-86.940,-292.460,-876.890,10,107,1,399,366,2025-06-06T10:06:27.570530
5936,0.9511,2.6562,4.6863,157.325,-623.245,-759.045,9,109,1,403,385,2025-06-06T10:06:27.570530
5937,-0.5641,1.0067,-0.4973,-153.160,-275.030,-380.625,10,107,1,396,377,2025-06-06T10:06:27.570530
5938,1.0887,0.7022,-3.5722,-178.640,44.940,-133.315,9,104,1,403,381,2025-06-06T10:06:27.570530
5939,0.2172,1.1824,-3.0105,119.175,182.455,73.360,8,99,1,390,382,2025-06-06T10:06:27.720794
5940,-1.8119,0.6037,-1.7656,99.225,173.250,132.055,7,90,1,381,393,2025-06-06T10:06:27.872315
5941,-2.6201,-0.1274,-0.6988,73.885,163.590,125.230,7,88,2,395,360,2025-06-06T10:06:27.872315
5942,-3.1325,-0.5280,0.2142,45.640,207.060,142.205,7,86,1,369,359,2025-06-06T10:06:27.872315
5943,-3.4985,-0.5597,0.5661,95.515,-22.960,93.520,6,83,2,397,378,2025-06-06T10:06:27.872315
5944,-2.8660,-0.5539,1.6743,-7.140,-37.345,93.030,5,82,1,389,385,2025-06-06T10:06:27.872315
5945,-2.6469,-0.1552,1.3235,18.235,-82.845,80.115,5,77,1,393,378,2025-06-06T10:06:27.872315
5946,-2.4317,-0.0034,0.5939,-33.705,-148.190,70.420,6,73,1,399,385,2025-06-06T10:06:27.872315
5947,-1.8051,-0.1669,-0.2904,-40.880,-170.450,65.520,5,65,1,377,379,2025-06-06T10:06:27.872315
5948,-1.0741,-0.2811,-0.8823,-30.765,-132.965,73.570,4,56,1,386,393,2025-06-06T10:06:27.872315
5949,-0.5436,0.0722,-0.6744,-14.070,-84.105,85.120,3,47,1,344,391,2025-06-06T10:06:27.872315
5950,-0.3499,0.3309,-0.5573,-12.810,-44.310,108.675,3,42,2,332,396,2025-06-06T10:06:27.872315
5951,-0.3401,0.2840,-0.4602,-33.845,12.145,131.635,3,36,1,372,410,2025-06-06T10:06:27.872315
5952,-0.4734,0.1703,-0.2220,-107.660,55.650,147.840,3,33,1,360,405,2025-06-06T10:06:27.981726
5953,-0.5266,0.2923,0.0098,-138.775,79.800,164.185,2,35,1,379,414,2025-06-06T10:06:27.981726
5954,-0.7374,0.2928,0.1161,-151.130,78.645,181.370,3,34,1,377,410,2025-06-06T10:06:27.981726
5955,-0.9662,0.2772,0.1308,-16.625,83.195,188.055,2,31,1,374,393,2025-06-06T10:06:27.981726
5956,-1.0736,0.3616,0.1825,-42.945,80.500,181.125,2,27,1,390,406,2025-06-06T10:06:27.981726
5957,-1.1649,0.4021,0.1830,-9.135,50.015,171.290,2,27,1,344,385,2025-06-06T10:06:27.981726
5958,-1.1453,0.4690,0.2552,-52.850,43.820,159.845,2,25,1,376,408,2025-06-06T10:06:27.981726
5959,-0.9643,0.5104,0.2430,-34.370,-5.530,143.780,2,21,1,377,397,2025-06-06T10:06:27.981726
5960,-0.8550,0.5236,0.1879,-14.420,-40.285,144.340,2,23,1,375,384,2025-06-06T10:06:27.981726
5961,-0.8833,0.4817,0.1781,-20.230,-45.500,134.855,2,22,1,381,390,2025-06-06T10:06:27.981726
5962,-0.8447,0.5407,0.1420,-20.335,-52.465,126.350,2,22,1,368,376,2025-06-06T10:06:27.981726
5963,-0.6608,0.5866,-0.0107,-15.505,-65.975,119.280,2,21,2,376,353,2025-06-06T10:06:27.981726
5964,-0.6915,0.5998,-0.0752,5.075,-67.830,110.460,3,22,2,339,360,2025-06-06T10:06:27.981726
5965,-0.7017,0.6734,0.0034,17.150,-55.825,102.935,2,20,2,371,369,2025-06-06T10:06:27.981726
5966,-0.5514,0.6710,-0.0673,13.125,-41.720,101.010,2,19,1,376,350,2025-06-06T10:06:27.981726
5967,-0.5905,0.6974,-0.0444,6.965,-27.300,102.445,2,18,2,336,364,2025-06-06T10:06:27.981726
5968,-0.6354,0.8018,-0.0664,8.960,-11.795,143.465,3,13,1,365,387,2025-06-06T10:06:27.981726
5969,-0.5070,0.6988,-0.0029,-3.325,6.755,104.160,3,13,1,369,382,2025-06-06T10:06:27.981726
5970,-0.3811,0.4197,0.0839,2.625,15.890,92.435,3,11,1,380,346,2025-06-06T10:06:27.981726
5971,-0.4494,0.6866,-0.0254,-2.870,25.795,101.465,1,12,2,376,374,2025-06-06T10:06:27.981726
5972,-0.4143,0.5183,0.0464,-11.725,41.090,89.145,3,9,1,370,334,2025-06-06T10:06:28.141176
5973,-0.5095,0.6676,0.0371,-10.080,52.815,86.240,2,10,1,377,370,2025-06-06T10:06:28.141176
5974,-0.5109,0.5475,0.1601,-12.215,68.880,71.295,2,6,1,396,387,2025-06-06T10:06:28.141176
5975,-0.5754,0.6285,0.1908,-28.000,73.500,71.470,2,8,1,395,388,2025-06-06T10:06:28.141176
5976,-0.4748,0.6608,0.1928,-19.320,68.740,63.035,2,7,2,407,401,2025-06-06T10:06:28.141176
5977,-0.3518,0.7198,0.1923,-5.110,48.825,57.925,1,6,2,388,390,2025-06-06T10:06:28.141176
5978,-0.1864,0.8311,0.2133,5.425,34.055,63.385,1,7,1,395,388,2025-06-06T10:06:28.141176
5979,-0.1362,0.8628,0.2562,1.995,28.245,82.880,1,6,1,376,391,2025-06-06T10:06:28.141176
5980,-0.1674,0.8623,0.2611,-7.420,31.640,96.075,2,8,1,383,383,2025-06-06T10:06:28.141176
5981,-0.2313,0.8237,0.2718,-16.555,29.925,113.295,2,7,1,385,395,2025-06-06T10:06:28.141176
5982,-0.2147,0.8755,0.1801,-10.990,6.720,134.820,1,7,1,376,393,2025-06-06T10:06:28.141176
5983,-0.2625,0.8179,0.0732,1.890,-9.625,119.315,1,7,1,386,355,2025-06-06T10:06:28.141176
5984,-0.3040,0.8150,-0.0278,10.500,-12.495,112.350,2,8,0,341,373,2025-06-06T10:06:28.141176
5985,-0.3011,0.8159,-0.0483,15.435,-5.740,101.955,2,9,1,375,346,2025-06-06T10:06:28.141176
5986,-0.2674,0.9048,-0.0229,7.630,10.395,96.005,2,11,1,375,370,2025-06-06T10:06:28.243558
5987,-0.2386,0.9584,0.0844,-3.570,24.745,94.045,2,15,2,377,373,2025-06-06T10:06:28.243558
5988,-0.1757,0.9736,0.1210,-11.970,26.075,97.930,2,17,1,382,382,2025-06-06T10:06:28.243558
5989,-0.2269,1.0448,0.0834,-3.605,24.710,103.635,2,18,2,345,384,2025-06-06T10:06:28.243558
5990,-0.2796,1.0878,0.0483,12.390,18.760,107.030,2,20,2,374,389,2025-06-06T10:06:28.243558
5991,-0.2186,1.0921,0.0059,39.200,12.040,111.055,2,32,1,374,372,2025-06-06T10:06:28.243558
5992,-0.0586,1.0804,-0.0410,60.305,6.580,114.345,2,42,1,330,365,2025-06-06T10:06:28.243558
5993,-0.0869,1.0848,-0.0146,82.565,14.350,118.895,3,54,1,368,350,2025-06-06T10:06:28.243558
5994,-0.0532,1.1014,-0.0517,44.590,28.525,116.270,6,72,1,364,375,2025-06-06T10:06:28.243558
5995,-0.1347,1.0438,-0.0464,23.905,48.790,110.285,9,91,2,373,378,2025-06-06T10:06:28.344865
5996,-0.1845,1.0355,-0.0346,13.440,61.635,98.280,12,117,1,391,394,2025-06-06T10:06:28.344865
5997,-0.1986,1.1258,-0.0395,35.000,59.360,87.080,16,145,2,375,389,2025-06-06T10:06:28.344865
5998,-0.1371,1.1902,-0.0522,69.825,46.620,83.790,23,166,2,399,383,2025-06-06T10:06:28.344865
5999,0.0908,1.2356,-0.1093,57.295,27.930,84.770,29,188,2,387,378,2025-06-06T10:06:28.344865
6000,0.0947,1.2078,-0.0854,30.625,32.550,89.215,33,209,1,382,392,2025-06-06T10:06:28.344865
6001,0.0288,1.1390,-0.0937,16.625,31.570,89.320,37,223,2,397,403,2025-06-06T10:06:28.344865
6002,0.2747,0.9453,-0.0810,32.270,11.235,91.245,39,232,2,349,383,2025-06-06T10:06:28.344865
6003,0.2264,1.0228,-0.1186,78.190,-4.970,87.010,42,244,1,378,392,2025-06-06T10:06:28.391371
6004,0.3216,1.0438,-0.2547,75.705,-10.150,77.245,46,256,1,377,383,2025-06-06T10:06:28.391371
6005,0.5075,0.9311,-0.3728,49.735,19.075,61.810,53,265,1,381,371,2025-06-06T10:06:28.391371
6006,0.4953,0.8867,-0.3811,44.835,49.735,47.915,54,272,2,397,394,2025-06-06T10:06:28.391371
6007,0.5739,0.9570,-0.2230,35.560,39.060,41.300,55,275,1,391,377,2025-06-06T10:06:28.439957
6008,0.5529,0.9902,-0.0434,33.320,26.460,31.185,56,279,2,401,382,2025-06-06T10:06:28.439957
6009,0.4695,0.7491,-0.1064,8.610,23.765,13.790,57,281,2,395,392,2025-06-06T10:06:28.439957
6010,0.4743,0.5998,-0.2040,3.850,14.000,-4.900,56,279,1,389,374,2025-06-06T10:06:28.439957
6011,0.7340,0.9335,0.2869,0.595,-28.000,-33.285,58,281,2,389,383,2025-06-06T10:06:28.549258
6012,0.9579,0.9145,0.1298,-11.830,-64.890,-68.740,58,284,2,383,368,2025-06-06T10:06:28.549258
6013,0.6671,0.9204,0.3953,-47.740,-44.065,-120.715,61,287,1,400,348,2025-06-06T10:06:28.549258
6014,0.2372,0.5207,-0.0234,-99.645,19.110,-182.945,61,286,1,388,343,2025-06-06T10:06:28.549258
6015,-0.4680,0.2347,-0.5266,-159.600,48.230,-247.485,61,288,1,380,369,2025-06-06T10:06:28.549258
6016,-0.3211,0.6022,-0.1679,-131.915,-16.555,-293.720,68,291,0,353,373,2025-06-06T10:06:28.549258
6017,0.1454,1.1287,0.4548,4.130,-107.835,-337.925,78,302,1,366,344,2025-06-06T10:06:28.549258
6018,0.5529,1.2512,0.3860,85.855,-199.010,-359.065,82,315,1,381,369,2025-06-06T10:06:28.549258
6019,0.8808,1.2551,-0.0415,98.140,-242.480,-362.845,93,322,1,387,373,2025-06-06T10:06:28.549258
6020,1.0687,1.0643,-0.2635,63.035,-220.955,-367.955,100,323,2,385,339,2025-06-06T10:06:28.655772
6021,1.5045,0.8198,-0.4963,-37.555,-173.285,-371.490,109,325,1,385,375,2025-06-06T10:06:28.655772
6022,1.4245,0.5148,-0.4865,-58.170,-111.055,-398.160,113,329,2,372,332,2025-06-06T10:06:28.655772
6023,1.4806,0.0815,-0.7359,-86.730,-47.215,-403.060,117,336,1,380,360,2025-06-06T10:06:28.655772
6024,1.0233,-0.3509,-0.9765,-89.565,14.210,-439.460,120,340,1,387,368,2025-06-06T10:06:28.655772
6025,0.1220,-0.6198,-0.5807,-66.080,75.320,-481.215,111,338,1,378,375,2025-06-06T10:06:28.655772
6026,-1.2000,-1.3620,0.2918,51.520,128.940,-533.400,102,338,1,386,400,2025-06-06T10:06:28.655772
6027,-3.0881,-1.6070,1.1380,45.465,87.220,-552.650,99,336,1,385,385,2025-06-06T10:06:28.655772
6028,-4.9376,-1.6543,1.4620,197.925,-33.110,-553.805,97,336,1,397,384,2025-06-06T10:06:28.655772
6029,-5.0645,-1.4079,0.4943,81.550,-164.150,-556.465,96,332,2,393,377,2025-06-06T10:06:28.710409
6030,-3.1374,-0.5046,0.3767,25.515,-198.870,-484.645,92,324,1,390,350,2025-06-06T10:06:28.710409
6031,-2.2184,-0.2069,0.1054,-20.405,-107.765,-332.360,85,307,1,384,376,2025-06-06T10:06:28.710409
6032,-0.9609,0.1342,-0.6637,-76.055,-11.235,-196.105,74,289,0,357,367,2025-06-06T10:06:28.710409
6033,-0.1025,0.8872,-0.7379,1.365,-21.910,1.400,62,270,2,384,377,2025-06-06T10:06:28.861688
6034,-0.4314,0.7696,-0.7993,2.800,-9.765,146.125,52,250,1,395,380,2025-06-06T10:06:28.861688
6035,-0.9721,0.0146,-0.6451,28.035,22.295,228.270,45,234,1,378,383,2025-06-06T10:06:28.861688
6036,-1.9296,-0.7510,-0.2728,28.875,45.080,226.940,33,216,2,386,404,2025-06-06T10:06:28.861688
6037,-2.3117,-0.9994,0.1064,32.795,36.015,202.930,28,190,1,376,349,2025-06-06T10:06:28.861688
6038,-2.5361,-1.0726,0.4407,21.665,19.075,180.775,24,171,1,381,376,2025-06-06T10:06:28.861688
6039,-2.1545,-0.7984,0.5539,18.375,18.130,163.100,20,150,1,389,379,2025-06-06T10:06:28.861688
6040,-1.7505,-0.3231,0.5119,-5.460,-8.330,171.325,17,137,2,376,350,2025-06-06T10:06:28.861688
6041,-1.2283,-0.1039,0.3660,-20.720,-30.135,197.365,13,116,1,398,379,2025-06-06T10:06:28.861688
6042,-0.9267,0.0112,0.1957,-8.855,-32.830,225.050,11,106,1,394,389,2025-06-06T10:06:28.861688
6043,-0.8477,0.1093,0.0059,-5.775,-37.345,242.095,9,94,1,386,356,2025-06-06T10:06:28.861688
6044,-0.7452,0.1386,-0.1810,-23.940,-45.850,245.875,8,79,1,391,365,2025-06-06T10:06:28.861688
6045,-0.7818,0.1566,-0.3216,-48.090,-45.220,239.890,6,65,2,393,378,2025-06-06T10:06:28.905899
6046,-0.7325,0.2733,-0.2650,-112.840,-40.740,228.130,4,49,1,395,385,2025-06-06T10:06:28.905899
6047,-0.5758,0.2723,-0.0288,-112.105,-19.845,217.665,3,41,1,386,379,2025-06-06T10:06:28.905899
6048,-0.5095,0.2557,0.0727,25.865,8.505,214.165,3,31,1,394,361,2025-06-06T10:06:28.905899
6049,-0.6603,0.4353,0.2445,17.360,13.860,205.100,3,25,1,400,382,2025-06-06T10:06:28.905899
6050,-0.7237,0.4602,0.3084,23.870,13.405,198.660,2,21,2,395,382,2025-06-06T10:06:29.061595
6051,-0.7813,0.5173,0.3494,-43.505,32.725,193.725,3,21,1,359,398,2025-06-06T10:06:29.061595
6052,-0.7032,0.5919,0.2630,-20.195,-8.085,188.475,3,16,1,374,399,2025-06-06T10:06:29.061595
6053,-0.5222,0.7261,0.1098,4.550,-36.120,184.730,2,14,2,377,395,2025-06-06T10:06:29.061595
6054,-0.4416,0.8525,0.0830,24.360,-58.415,182.490,2,11,1,391,406,2025-06-06T10:06:29.061595
6055,-0.5119,0.9882,0.0776,16.695,-65.170,177.485,2,10,1,371,393,2025-06-06T10:06:29.061595
6056,-0.6149,0.9101,0.0127,-1.085,-50.750,168.665,1,8,2,385,394,2025-06-06T10:06:29.061595
6057,-0.5470,0.8423,-0.0522,7.420,-42.665,163.100,1,7,1,383,383,2025-06-06T10:06:29.061595
6058,-0.4226,0.5475,-0.0010,20.405,-27.510,169.890,1,6,2,381,387,2025-06-06T10:06:29.061595
6059,-0.3704,0.9775,-0.1259,74.165,-13.510,167.790,1,5,2,398,397,2025-06-06T10:06:29.061595
6060,-0.3440,0.9370,-0.2303,72.975,9.450,134.575,2,4,1,384,395,2025-06-06T10:06:29.061595
6061,-0.3167,0.9609,-0.1659,57.330,25.095,115.185,1,3,2,392,405,2025-06-06T10:06:29.061595
6062,-0.3797,0.8018,-0.1962,46.410,46.130,104.685,2,4,2,391,382,2025-06-06T10:06:29.061595
6063,-0.4143,0.9365,-0.1484,36.190,65.275,113.505,2,4,1,350,374,2025-06-06T10:06:29.156764
6064,-0.3733,0.9360,0.0102,29.645,72.100,91.035,2,4,1,380,384,2025-06-06T10:06:29.156764
6065,-0.3216,0.9579,0.1581,55.370,55.370,93.065,3,4,1,374,344,2025-06-06T10:06:29.156764
6066,-0.3026,0.9970,0.1298,96.040,31.395,85.225,2,5,1,348,328,2025-06-06T10:06:29.156764
6067,-0.3762,0.9789,0.1098,132.930,8.120,84.665,2,4,1,370,370,2025-06-06T10:06:29.156764
6068,-0.3440,0.9906,0.1327,157.430,-5.810,82.880,1,5,1,372,387,2025-06-06T10:06:29.156764
6069,-0.1786,0.9701,0.2289,8.120,-24.640,85.085,2,2,1,394,357,2025-06-06T10:06:29.156764
6070,-0.0185,0.9311,-0.0542,35.805,-16.240,89.950,1,4,1,379,360,2025-06-06T10:06:29.156764
6071,0.1430,0.8867,-0.0947,29.925,13.510,98.385,2,3,2,381,377,2025-06-06T10:06:29.208868
6072,0.1825,0.8838,-0.1806,4.445,21.630,97.965,1,4,1,383,387,2025-06-06T10:06:29.208868
6073,0.0956,0.8398,-0.2152,12.320,35.175,89.915,2,4,2,389,384,2025-06-06T10:06:29.208868
6074,0.0112,0.7930,-0.2547,3.465,46.865,78.750,2,4,1,381,383,2025-06-06T10:06:29.208868
6075,-0.1723,0.8018,-0.2030,-1.260,59.080,64.260,1,4,1,382,348,2025-06-06T10:06:29.256754
6076,-0.2435,0.8418,-0.0825,-2.170,53.970,55.055,2,4,2,386,373,2025-06-06T10:06:29.256754
6077,-0.0566,0.8935,-0.0581,8.400,36.225,51.275,1,3,1,386,370,2025-06-06T10:06:29.256754
6078,0.1196,0.9209,-0.1157,12.635,25.515,54.215,2,3,1,382,309,2025-06-06T10:06:29.256754
6079,0.2006,0.9731,-0.1864,6.370,27.720,58.275,2,3,1,381,358,2025-06-06T10:06:29.373066
6080,0.0595,0.9823,-0.1786,-1.645,32.130,59.010,2,4,1,387,368,2025-06-06T10:06:29.373066
6081,-0.0459,0.9301,-0.1342,-3.395,28.350,56.805,2,4,1,402,391,2025-06-06T10:06:29.373066
6082,-0.0913,0.9355,-0.1157,6.370,21.980,50.750,2,3,1,385,388,2025-06-06T10:06:29.373066
6083,-0.1386,1.0209,-0.0708,9.800,18.095,41.020,3,4,1,383,393,2025-06-06T10:06:29.373066
6084,-0.0454,1.0638,-0.0717,9.450,17.850,30.625,2,4,1,380,403,2025-06-06T10:06:29.373066
6085,0.0600,1.0551,-0.1337,11.515,18.445,22.260,2,5,1,381,400,2025-06-06T10:06:29.373066
6086,0.0693,1.0555,-0.1532,13.125,20.755,16.730,1,5,0,351,395,2025-06-06T10:06:29.373066
6087,-0.0142,1.0424,-0.1137,12.600,19.985,11.340,2,4,1,361,393,2025-06-06T10:06:29.373066
6088,-0.1015,1.0526,-0.0600,16.590,12.495,8.785,2,5,1,371,379,2025-06-06T10:06:29.420955
6089,-0.1322,1.1043,-0.0049,24.150,-0.840,13.860,2,6,1,384,387,2025-06-06T10:06:29.420955
6090,0.0771,1.1190,0.0190,36.295,-20.755,28.140,2,5,2,380,390,2025-06-06T10:06:29.610040
6091,0.0805,1.1575,-0.0229,42.490,-31.605,42.840,2,5,2,387,393,2025-06-06T10:06:29.610040
6092,0.1484,1.0546,-0.2089,37.520,-31.535,52.990,2,5,1,387,385,2025-06-06T10:06:29.610040
6093,0.1059,0.8994,-0.2840,30.310,-18.340,50.785,1,6,2,397,389,2025-06-06T10:06:29.610040
6094,0.1005,0.8652,-0.3357,30.170,-10.080,44.695,2,6,2,404,362,2025-06-06T10:06:29.610040
6095,0.0488,0.7501,-0.3479,22.330,3.990,31.430,2,7,2,392,337,2025-06-06T10:06:29.610040
6096,-0.0249,0.7037,-0.3787,18.375,16.870,16.415,2,6,1,396,370,2025-06-06T10:06:29.610040
6097,-0.1449,0.8311,-0.2928,20.580,22.225,2.415,2,6,1,388,379,2025-06-06T10:06:29.610040
6098,-0.0537,0.9218,-0.1679,20.965,19.005,-4.655,2,6,1,390,370,2025-06-06T10:06:29.610040
6099,-0.0024,0.9692,-0.0830,20.230,13.650,-4.165,2,6,1,381,378,2025-06-06T10:06:29.610040
6100,-0.0200,0.9984,-0.0581,17.045,4.690,-0.700,2,6,1,386,383,2025-06-06T10:06:29.610040
6101,0.0171,0.9648,-0.1020,19.040,-4.760,1.330,2,6,1,399,383,2025-06-06T10:06:29.676303
6102,0.0049,0.9394,-0.1606,15.645,-6.090,-0.315,2,6,1,387,348,2025-06-06T10:06:29.676303
6103,-0.0732,0.8828,-0.2103,10.885,-6.055,-4.515,2,5,2,378,335,2025-06-06T10:06:29.676303
6104,-0.0971,0.8867,-0.2191,8.505,-9.135,-7.910,2,6,2,392,365,2025-06-06T10:06:29.676303
6105,0.0098,0.9409,-0.2289,11.550,-14.245,-8.050,3,6,2,382,363,2025-06-06T10:06:29.676303
6106,0.0361,1.0214,-0.2435,0.070,-15.015,-5.670,2,5,1,400,362,2025-06-06T10:06:29.676303
6107,0.0078,1.0355,-0.2723,5.285,-14.280,-5.705,2,5,1,378,379,2025-06-06T10:06:29.676303
6108,0.0161,1.0038,-0.2957,6.125,-12.250,-8.330,2,5,1,383,373,2025-06-06T10:06:29.676303
6109,0.0346,0.9999,-0.2806,3.955,-5.285,-11.480,3,5,1,388,394,2025-06-06T10:06:29.676303
6110,0.0537,0.9823,-0.2591,-0.350,3.430,-15.680,2,5,1,385,386,2025-06-06T10:06:29.676303
6111,0.0512,0.9594,-0.2469,-2.240,10.465,-19.390,1,5,1,386,399,2025-06-06T10:06:29.676303
6112,0.0639,0.9701,-0.2274,-3.185,14.910,-21.490,1,5,1,343,388,2025-06-06T10:06:29.676303
6113,0.0649,0.9950,-0.2342,-4.025,15.960,-20.195,2,5,1,365,396,2025-06-06T10:06:29.676303
6114,0.0644,1.0131,-0.2435,-2.205,11.095,-16.590,1,6,1,386,406,2025-06-06T10:06:29.728496
6115,0.0825,1.0409,-0.2318,2.275,4.340,-12.845,1,6,1,342,381,2025-06-06T10:06:29.728496
6116,0.0996,1.0443,-0.2011,4.830,-1.750,-10.780,2,5,1,335,352,2025-06-06T10:06:29.728496
6117,0.0722,0.9994,-0.1986,7.035,-7.350,-12.635,1,5,1,354,374,2025-06-06T10:06:29.728496
6118,0.0059,0.9326,-0.2303,7.875,-12.565,-17.745,2,6,1,383,378,2025-06-06T10:06:29.873431
6119,-0.0425,0.8774,-0.2957,9.835,-17.535,-23.065,2,5,2,398,393,2025-06-06T10:06:29.873431
6120,-0.0063,0.9311,-0.3494,15.155,-21.315,-29.575,1,5,2,397,348,2025-06-06T10:06:29.873431
6121,0.1552,1.0165,-0.3650,19.005,-22.085,-30.030,2,6,1,389,373,2025-06-06T10:06:29.873431
6122,0.2611,1.0892,-0.3694,20.825,-17.255,-26.740,2,6,1,376,372,2025-06-06T10:06:29.873431
6123,0.3094,1.1258,-0.3514,24.185,-12.670,-21.875,2,5,1,378,347,2025-06-06T10:06:29.873431
6124,0.2752,1.1097,-0.3318,30.590,-12.005,-20.335,1,5,1,343,373,2025-06-06T10:06:29.873431
6125,0.2830,1.0687,-0.3860,39.375,-11.515,-23.450,2,4,1,368,377,2025-06-06T10:06:29.873431
6126,0.3094,1.0116,-0.4592,47.600,-7.560,-31.850,2,4,1,345,378,2025-06-06T10:06:29.873431
6127,0.3045,0.9467,-0.5275,48.650,1.155,-43.610,2,5,1,362,384,2025-06-06T10:06:29.873431
6128,0.4348,0.8764,-0.5724,54.810,4.270,-56.070,2,5,1,386,402,2025-06-06T10:06:29.873431
6129,0.7310,0.9721,-0.5002,55.580,11.375,-63.070,1,5,2,395,409,2025-06-06T10:06:29.873431
6130,1.3449,0.7906,-0.2948,38.255,15.680,-63.385,2,5,1,391,390,2025-06-06T10:06:29.873431
6131,2.0730,0.2045,0.2943,2.485,46.550,-57.575,1,5,1,357,387,2025-06-06T10:06:29.982529
6132,3.0656,-0.2176,0.7842,-58.030,54.425,-46.375,2,6,2,369,374,2025-06-06T10:06:29.982529
6133,2.9807,-0.8384,1.2800,-104.195,22.400,-165.935,2,6,2,380,380,2025-06-06T10:06:29.982529
6134,1.4235,-1.8388,1.3220,-149.310,34.965,-208.040,2,6,1,393,351,2025-06-06T10:06:29.982529
6135,1.3503,-1.1858,3.2520,-130.655,237.125,-517.965,2,6,1,371,355,2025-06-06T10:06:29.982529
6136,-2.0472,-3.1618,1.0653,-122.010,90.335,-641.830,2,7,1,375,336,2025-06-06T10:06:29.982529
6137,-3.3877,-3.1871,-0.3650,1.085,7.280,-859.285,2,9,1,380,354,2025-06-06T10:06:29.982529
6138,-6.5250,-1.5709,-0.7696,120.225,-201.740,-1006.005,1,12,1,394,333,2025-06-06T10:06:29.982529
6139,-5.7735,1.9120,-0.2952,266.595,-478.135,-1014.825,2,13,2,380,331,2025-06-06T10:06:30.094934
6140,-5.9892,3.2384,-1.1278,160.020,-624.190,-987.280,2,14,2,388,351,2025-06-06T10:06:30.094934
6141,-2.3946,0.7052,-0.7178,3.080,-354.865,-852.670,2,16,1,390,362,2025-06-06T10:06:30.094934
6142,-0.7242,-3.6844,-2.5410,-287.840,86.695,-631.050,2,15,2,386,379,2025-06-06T10:06:30.094934
6143,-0.4870,-2.5747,-3.7527,-44.485,413.630,-323.505,2,16,2,399,388,2025-06-06T10:06:30.094934
6144,-8.2599,3.6707,1.8729,379.295,315.595,53.060,2,14,1,397,389,2025-06-06T10:06:30.094934
6145,-2.1008,0.1571,0.4568,-43.890,94.605,179.515,2,14,1,399,388,2025-06-06T10:06:30.094934
6146,-3.6898,-0.4465,-0.6481,137.200,248.220,206.570,1,15,0,363,391,2025-06-06T10:06:30.094934
6147,-2.4624,-0.7666,0.2762,68.425,125.405,243.110,2,14,1,376,388,2025-06-06T10:06:30.094934
6148,-1.0834,0.8481,1.2156,297.010,-173.740,281.540,2,16,1,382,395,2025-06-06T10:06:30.189750
6149,-0.4841,0.3148,0.1293,225.890,-202.125,358.680,2,18,1,380,400,2025-06-06T10:06:30.189750
6150,-0.3518,-0.4494,-0.5295,131.425,-45.500,387.870,3,15,1,372,399,2025-06-06T10:06:30.189750
6151,-0.2674,-0.7491,-0.7325,128.555,-47.950,368.095,2,15,1,395,412,2025-06-06T10:06:30.189750
6152,-1.2000,-0.3548,-1.3347,164.395,-81.550,321.440,2,13,1,349,389,2025-06-06T10:06:30.189750
6153,-0.5749,-0.4675,-0.6612,73.360,32.970,277.655,2,11,1,371,380,2025-06-06T10:06:30.189750
6154,-0.9809,-0.5558,-0.6349,12.775,122.885,215.110,1,9,1,384,397,2025-06-06T10:06:30.189750
6155,-1.2420,-0.7071,-0.5524,-20.300,126.735,170.590,2,9,0,345,393,2025-06-06T10:06:30.189750
6156,-1.1234,-0.4929,-0.6695,-49.525,150.185,124.180,2,9,1,368,398,2025-06-06T10:06:30.290684
6157,-0.9823,-0.2523,-0.3465,-74.095,154.840,97.265,2,9,1,366,407,2025-06-06T10:06:30.290684
6158,-0.7530,0.1088,0.0864,-81.830,112.070,96.285,2,10,1,364,400,2025-06-06T10:06:30.290684
6159,-0.7486,0.4621,0.6071,-84.315,86.975,97.230,1,9,1,378,404,2025-06-06T10:06:30.290684
6160,-0.7725,0.6549,0.8364,-116.515,87.395,110.495,1,10,1,379,394,2025-06-06T10:06:30.290684
6161,-0.7466,0.5963,0.4900,-85.540,67.410,140.805,1,9,1,384,392,2025-06-06T10:06:30.290684
6162,-0.8179,0.6642,0.1152,-84.070,15.575,160.895,2,7,1,388,402,2025-06-06T10:06:30.290684
6163,-0.8745,0.7286,0.0288,-8.540,-52.360,176.365,1,7,1,382,398,2025-06-06T10:06:30.290684
6164,-0.8691,0.8642,0.0073,62.125,-97.930,185.290,1,7,1,381,397,2025-06-06T10:06:30.290684
6165,-0.7437,0.7666,-0.2508,42.595,-105.070,176.155,2,7,1,376,380,2025-06-06T10:06:30.390109
6166,-0.5729,0.4568,-0.4734,24.780,-46.725,174.405,2,7,1,380,384,2025-06-06T10:06:30.390109
6167,-0.2596,0.3782,-0.6188,11.200,-22.645,167.790,2,6,1,388,404,2025-06-06T10:06:30.390109
6168,-0.3606,0.4577,-0.4060,13.510,-5.110,148.330,1,7,1,376,349,2025-06-06T10:06:30.390109
6169,-0.4372,0.5412,-0.4426,5.600,11.970,123.760,2,7,1,382,381,2025-06-06T10:06:30.390109
6170,-0.4631,0.5441,-0.3767,-3.465,45.710,104.755,1,8,1,341,366,2025-06-06T10:06:30.390109
6171,-0.4748,0.5207,-0.3909,-10.045,62.160,89.705,2,7,1,369,385,2025-06-06T10:06:30.390109
6172,-0.4099,0.5710,-0.3621,-5.005,59.745,76.580,1,6,1,349,389,2025-06-06T10:06:30.390109
6173,-0.3030,0.6788,-0.3079,-0.140,44.485,69.230,2,7,2,373,381,2025-06-06T10:06:30.597201
6174,-0.2425,0.8179,-0.2928,-1.960,36.470,68.950,1,7,1,393,384,2025-06-06T10:06:30.597201
6175,-0.2479,0.9784,-0.2342,-4.690,25.550,105.665,3,6,1,371,389,2025-06-06T10:06:30.597201
6176,-0.2464,0.9633,-0.1523,-11.480,33.915,73.255,1,5,2,381,396,2025-06-06T10:06:30.597201
6177,-0.2133,0.9126,-0.1074,-13.860,23.800,77.665,2,4,2,394,409,2025-06-06T10:06:30.597201
6178,-0.1547,0.8867,-0.1152,-9.555,13.650,81.165,2,4,1,393,391,2025-06-06T10:06:30.597201
6179,-0.2255,0.8506,-0.1288,-13.195,12.005,79.380,2,7,1,394,404,2025-06-06T10:06:30.597201
6180,-0.3455,0.7813,-0.2050,-19.670,22.225,73.115,2,6,2,385,382,2025-06-06T10:06:30.597201
6181,-0.2747,0.7813,-0.2157,-22.120,25.865,64.120,2,6,2,403,391,2025-06-06T10:06:30.597201
6182,-0.2118,0.8228,-0.3026,-21.245,25.445,57.155,2,6,2,390,403,2025-06-06T10:06:30.597201
6183,-0.1640,0.8081,-0.3372,-18.655,24.850,54.075,2,7,1,348,385,2025-06-06T10:06:30.597201
6184,-0.1830,0.9062,-0.3084,-20.965,31.745,50.365,2,6,1,366,405,2025-06-06T10:06:30.597201
6185,-0.1640,1.0048,-0.2884,-19.600,30.625,48.790,2,7,1,359,378,2025-06-06T10:06:30.597201
6186,-0.1591,1.0502,-0.2513,-26.775,34.825,50.995,1,7,1,373,387,2025-06-06T10:06:30.597201
6187,-0.1113,1.0336,-0.3040,-28.490,33.460,52.255,2,7,1,373,387,2025-06-06T10:06:30.597201
6188,-0.1288,0.9897,-0.3367,-22.750,36.750,52.045,1,8,1,388,361,2025-06-06T10:06:30.597201
6189,-0.2616,1.0263,-0.3919,-22.050,37.240,50.645,1,7,1,387,384,2025-06-06T10:06:30.597201
6190,-0.1347,1.0399,-0.3655,-22.260,32.340,53.760,2,8,2,379,380,2025-06-06T10:06:30.640866
6191,-0.0532,1.0111,-0.3157,-12.600,24.500,58.310,2,8,1,352,373,2025-06-06T10:06:30.640866
6192,-0.1845,1.0067,-0.2884,-13.300,24.220,58.450,2,8,1,361,380,2025-06-06T10:06:30.640866
6193,-0.1718,1.0116,-0.2625,-11.515,22.330,53.130,2,9,2,367,386,2025-06-06T10:06:30.640866
6194,-0.1137,0.9902,-0.2645,-8.855,25.655,48.090,1,8,2,377,397,2025-06-06T10:06:30.696708
6195,-0.1820,1.0155,-0.2655,-8.645,28.070,40.320,2,8,2,386,395,2025-06-06T10:06:30.696708
6196,-0.2211,1.0194,-0.2996,-8.365,30.450,30.380,1,8,2,385,390,2025-06-06T10:06:30.696708
6197,-0.1513,1.0072,-0.3416,-2.660,30.520,21.805,2,8,2,387,393,2025-06-06T10:06:30.696708
6198,-0.1098,0.9687,-0.3392,-3.850,35.175,15.785,2,8,0,357,383,2025-06-06T10:06:30.696708
6199,-0.1283,0.9374,-0.3040,-5.425,38.640,10.990,2,7,1,386,391,2025-06-06T10:06:30.741800
6200,-0.1293,0.9287,-0.2274,-1.330,33.705,7.840,1,7,1,370,391,2025-06-06T10:06:30.741800
6201,-0.1030,0.8965,-0.1972,2.380,27.755,7.735,1,8,1,396,356,2025-06-06T10:06:30.741800
6202,-0.1640,0.8974,-0.1664,5.600,24.150,5.845,1,8,1,392,381,2025-06-06T10:06:30.788162
6203,-0.2357,0.9760,-0.0712,3.990,12.810,3.920,2,8,2,383,382,2025-06-06T10:06:30.788162
6204,-0.2191,0.9819,-0.1030,1.435,4.585,2.555,2,8,1,398,367,2025-06-06T10:06:30.788162
6205,-0.1669,0.8706,-0.1986,1.050,1.610,0.560,2,9,2,385,376,2025-06-06T10:06:30.788162
6206,-0.1557,0.8721,-0.1942,5.670,-0.490,-1.925,2,9,1,401,375,2025-06-06T10:06:30.840973
6207,-0.1557,0.9004,-0.1713,7.525,-5.775,-3.500,1,10,1,400,360,2025-06-06T10:06:30.840973
6208,-0.1405,0.8828,-0.2186,3.640,-6.965,-6.265,2,10,2,391,368,2025-06-06T10:06:30.840973
6209,-0.1171,0.8857,-0.2503,0.420,-5.215,-8.925,2,9,1,393,377,2025-06-06T10:06:30.840973
6210,-0.1801,0.8926,-0.2172,-4.410,-4.760,-10.500,1,10,1,382,338,2025-06-06T10:06:30.993438
6211,-0.2011,0.9091,-0.1718,-7.280,-9.590,-6.685,2,9,1,390,367,2025-06-06T10:06:30.993438
6212,-0.1279,0.9506,-0.1747,-4.620,-19.005,0.210,2,10,1,383,369,2025-06-06T10:06:30.993438
6213,-0.0888,0.9775,-0.2186,-4.760,-25.935,12.180,2,10,2,395,366,2025-06-06T10:06:30.993438
6214,-0.0732,0.9565,-0.2782,-6.580,-24.990,20.405,2,9,1,408,380,2025-06-06T10:06:30.993438
6215,-0.0898,0.9384,-0.3201,-5.250,-19.145,22.155,2,9,1,386,387,2025-06-06T10:06:30.993438
6216,-0.1435,0.9379,-0.3294,-4.620,-11.970,17.185,1,9,1,397,391,2025-06-06T10:06:30.993438
6217,-0.1810,0.9243,-0.3206,-7.665,0.000,10.395,2,9,1,389,385,2025-06-06T10:06:30.993438
6218,-0.2050,0.9316,-0.2786,-8.680,9.520,2.135,2,10,1,346,336,2025-06-06T10:06:30.993438
6219,-0.2020,0.9677,-0.2420,-8.820,13.475,-1.995,2,10,1,369,372,2025-06-06T10:06:30.993438
6220,-0.1308,0.9897,-0.2450,-8.750,14.595,-0.910,2,9,1,376,382,2025-06-06T10:06:30.993438
6221,-0.1366,0.9814,-0.2499,-7.980,15.820,1.470,2,10,1,379,391,2025-06-06T10:06:30.993438
6222,-0.1688,0.9726,-0.2362,-6.685,14.035,4.200,2,9,1,384,398,2025-06-06T10:06:30.993438
6223,-0.1449,0.9453,-0.2469,-1.960,9.870,5.775,2,9,1,378,401,2025-06-06T10:06:30.993438
6224,-0.1889,0.9618,-0.2420,-1.050,10.220,5.110,3,9,2,381,411,2025-06-06T10:06:31.109564
6225,-0.2245,0.9428,-0.2196,-4.445,9.660,4.445,3,9,2,385,394,2025-06-06T10:06:31.109564
6226,-0.1845,0.9350,-0.2167,-0.735,6.195,5.425,2,9,1,386,395,2025-06-06T10:06:31.109564
6227,-0.1737,0.9887,-0.2137,4.725,2.205,6.335,3,9,1,387,400,2025-06-06T10:06:31.109564
6228,-0.1747,0.9838,-0.2523,1.050,5.005,6.090,2,10,1,393,379,2025-06-06T10:06:31.109564
6229,-0.1854,0.9130,-0.2806,1.680,8.995,3.710,2,10,1,401,388,2025-06-06T10:06:31.109564
6230,-0.1825,0.9121,-0.2757,5.775,9.870,0.560,2,9,1,379,344,2025-06-06T10:06:31.109564
6231,-0.1937,0.9394,-0.2704,6.965,10.500,-1.575,2,10,1,382,379,2025-06-06T10:06:31.109564
6232,-0.2074,0.9292,-0.2713,4.410,12.600,-2.170,2,11,1,371,384,2025-06-06T10:06:31.109564
6233,-0.1962,0.9321,-0.2264,7.280,10.010,-0.560,3,11,1,343,383,2025-06-06T10:06:31.154363
6234,-0.2157,0.9711,-0.1884,11.130,4.620,2.590,3,10,1,362,390,2025-06-06T10:06:31.154363
6235,-0.2113,0.9926,-0.2035,10.570,-1.680,7.700,2,10,1,329,344,2025-06-06T10:06:31.154363
6236,-0.1503,0.9687,-0.2362,15.330,-5.775,12.950,2,10,1,367,375,2025-06-06T10:06:31.154363
6237,-0.1547,0.9750,-0.2318,19.425,-10.325,15.925,3,10,1,377,378,2025-06-06T10:06:31.200848
6238,-0.1908,0.9531,-0.2611,19.355,-11.620,15.925,2,10,1,377,378,2025-06-06T10:06:31.200848
6239,-0.1654,0.8818,-0.2982,22.855,-11.130,12.250,2,10,1,388,354,2025-06-06T10:06:31.200848
6240,-0.1664,0.8511,-0.3231,22.190,-9.240,6.720,2,10,2,372,327,2025-06-06T10:06:31.658289
6241,-0.2094,0.9130,-0.3387,22.155,-6.090,-0.315,2,10,1,382,360,2025-06-06T10:06:31.658289
6242,-0.1005,0.8672,-0.4050,20.020,1.680,-3.290,2,9,1,376,342,2025-06-06T10:06:31.658289
6243,-0.0478,0.8955,-0.3445,22.260,9.030,-2.555,2,9,1,376,334,2025-06-06T10:06:31.658289
6244,-0.1254,0.9697,-0.2957,18.270,11.270,2.625,2,9,2,392,367,2025-06-06T10:06:31.658289
6245,-0.1264,0.9272,-0.2801,18.200,9.765,8.505,2,10,1,387,369,2025-06-06T10:06:31.658289
6246,-0.1088,0.9335,-0.2474,22.400,5.635,15.295,2,9,1,403,377,2025-06-06T10:06:31.658289
6247,-0.1464,0.9414,-0.2401,21.945,1.190,18.760,2,9,1,363,376,2025-06-06T10:06:31.658289
6248,-0.1708,0.8852,-0.2782,18.970,0.280,18.585,2,10,1,382,390,2025-06-06T10:06:31.658289
6249,-0.1957,0.8569,-0.3040,18.865,1.365,14.245,2,9,1,380,389,2025-06-06T10:06:31.658289
6250,-0.1874,0.8794,-0.3182,18.165,3.185,8.610,2,10,1,378,352,2025-06-06T10:06:31.658289
6251,-0.1479,0.8804,-0.3314,15.715,6.090,4.970,2,9,1,348,373,2025-06-06T10:06:31.658289
6252,-0.1527,0.9116,-0.3113,13.510,8.400,3.115,1,10,1,324,348,2025-06-06T10:06:31.658289
6253,-0.1693,0.9189,-0.2713,12.040,7.315,3.430,2,10,1,356,373,2025-06-06T10:06:31.658289
6254,-0.1215,0.9306,-0.2547,11.515,2.065,7.735,2,10,1,351,386,2025-06-06T10:06:31.658289
6255,-0.1015,0.9379,-0.2816,11.270,-4.060,12.320,2,10,1,364,353,2025-06-06T10:06:31.658289
6256,-0.1064,0.9028,-0.3128,7.280,-5.460,14.280,2,10,1,385,385,2025-06-06T10:06:31.658289
6257,-0.1161,0.8755,-0.3343,6.300,-7.630,13.965,2,9,1,355,375,2025-06-06T10:06:31.658289
6258,-0.1142,0.8677,-0.3455,5.285,-10.010,12.180,1,10,1,380,390,2025-06-06T10:06:31.658289
6259,-0.1059,0.8745,-0.3675,2.590,-7.455,8.015,2,10,2,398,402,2025-06-06T10:06:31.658289
6260,-0.1127,0.8896,-0.3621,-8.960,-5.180,3.605,2,10,1,398,404,2025-06-06T10:06:31.658289
6261,-0.1347,0.8979,-0.3601,-2.030,-1.750,1.050,2,10,2,394,369,2025-06-06T10:06:31.658289
6262,-0.0737,0.9599,-0.2904,-3.045,-4.620,1.715,3,10,1,380,368,2025-06-06T10:06:31.658289
6263,-0.0542,0.9667,-0.3138,-5.985,-5.740,4.620,1,9,1,388,388,2025-06-06T10:06:31.658289
6264,-0.0669,0.9023,-0.3035,-4.550,-8.645,7.140,2,10,1,381,387,2025-06-06T10:06:31.658289
6265,-0.1313,0.8823,-0.3762,-2.345,-8.015,5.285,1,10,1,386,350,2025-06-06T10:06:31.658289
6266,-0.1200,1.0126,-0.3601,1.470,-10.150,1.925,2,10,1,388,343,2025-06-06T10:06:31.658289
6267,-0.0488,1.0443,-0.4607,-1.190,-4.235,1.120,2,10,2,371,319,2025-06-06T10:06:31.658289
6268,-0.0205,0.9482,-0.4416,2.135,0.455,-0.070,2,10,1,371,358,2025-06-06T10:06:31.658289
6269,0.0073,0.9828,-0.3992,9.660,-0.980,1.960,2,9,1,376,384,2025-06-06T10:06:31.658289
6270,0.0434,0.9321,-0.3792,12.950,0.910,3.570,2,9,1,389,375,2025-06-06T10:06:31.658289
6271,0.0512,1.0228,-0.3558,20.405,-4.060,7.700,2,9,1,407,384,2025-06-06T10:06:31.658289
6272,0.1132,1.0165,-0.3821,19.425,-0.070,9.975,1,9,1,397,390,2025-06-06T10:06:31.658289
6273,0.1191,0.8872,-0.3509,18.900,0.210,8.540,2,9,1,406,393,2025-06-06T10:06:31.658289
6274,0.1010,0.7696,-0.3274,16.940,2.730,3.885,2,9,2,399,392,2025-06-06T10:06:31.658289
6275,0.0898,0.8257,-0.2943,20.195,-1.120,-2.975,2,9,2,400,361,2025-06-06T10:06:31.658289
6276,0.1137,0.8686,-0.2952,13.510,1.890,-9.835,2,10,2,396,354,2025-06-06T10:06:31.719056
6277,0.0522,0.8555,-0.2889,2.520,8.190,-19.775,2,10,2,380,371,2025-06-06T10:06:31.719056
6278,-0.0956,0.8306,-0.2538,1.365,2.380,-29.295,1,9,1,399,378,2025-06-06T10:06:31.719056
6279,-0.0151,0.8135,-0.2455,-0.105,-6.825,-34.545,2,10,1,393,385,2025-06-06T10:06:31.719056
6280,0.0566,0.9170,-0.2015,3.010,-13.370,-33.915,3,9,1,382,388,2025-06-06T10:06:31.719056
6281,-0.0063,0.9360,-0.1747,-1.435,-19.845,-31.325,2,9,1,395,389,2025-06-06T10:06:31.719056
6282,-0.1069,0.8745,-0.2133,-3.850,-29.505,-29.785,3,9,1,371,375,2025-06-06T10:06:31.719056
6283,-0.1527,0.8325,-0.2474,-5.460,-35.315,-31.850,2,8,1,384,394,2025-06-06T10:06:31.719056
6284,-0.2582,0.8398,-0.2172,-8.435,-40.985,-35.210,3,9,1,377,387,2025-06-06T10:06:31.719056
6285,-0.2791,0.8379,-0.2181,-14.525,-53.515,-36.540,2,8,1,372,385,2025-06-06T10:06:31.825745
6286,-0.2611,0.8203,-0.2137,-15.435,-49.210,-36.120,3,8,2,382,404,2025-06-06T10:06:31.825745
6287,-0.2669,0.8379,-0.2386,-16.345,-52.500,-35.490,2,8,1,382,364,2025-06-06T10:06:31.825745
6288,-0.3294,0.8150,-0.2689,-20.860,-49.770,-36.715,3,9,2,379,370,2025-06-06T10:06:31.825745
6289,-0.3436,0.7623,-0.3030,-22.295,-45.500,-40.145,1,8,2,386,376,2025-06-06T10:06:31.825745
6290,-0.4060,0.8013,-0.2904,-24.395,-42.350,-41.370,2,8,1,392,387,2025-06-06T10:06:31.825745
6291,-0.4046,0.8540,-0.2718,-27.020,-44.695,-37.135,2,6,2,387,388,2025-06-06T10:06:31.825745
6292,-0.3450,0.8725,-0.2811,-25.480,-49.140,-30.415,2,6,1,383,380,2025-06-06T10:06:31.825745
6293,-0.3084,0.8989,-0.2908,-22.435,-53.200,-19.320,2,5,1,398,378,2025-06-06T10:06:31.922695
6294,-0.2791,0.8911,-0.3104,-19.145,-54.005,-9.030,2,5,2,390,374,2025-06-06T10:06:31.922695
6295,-0.2513,0.8945,-0.3314,-18.970,-50.470,-1.435,2,5,2,394,388,2025-06-06T10:06:31.922695
6296,-0.2191,0.8974,-0.3684,-19.110,-43.225,3.220,1,6,1,392,401,2025-06-06T10:06:31.922695
6297,-0.2035,0.9048,-0.3919,-21.595,-34.860,5.600,2,5,1,382,356,2025-06-06T10:06:31.922695
6298,-0.2006,0.9126,-0.3963,-26.390,-23.625,6.895,1,4,1,380,388,2025-06-06T10:06:31.922695
6299,-0.1986,0.8857,-0.3709,-28.210,-13.370,7.070,1,5,1,371,375,2025-06-06T10:06:31.922695
6300,-0.1718,0.9140,-0.3538,-27.510,-8.050,7.945,1,4,1,381,380,2025-06-06T10:06:31.922695
6301,-0.2074,0.9326,-0.3260,-28.455,-3.815,7.350,1,5,1,393,385,2025-06-06T10:06:31.922695
6302,-0.2006,0.9335,-0.3011,-31.045,-0.735,7.105,2,5,1,394,342,2025-06-06T10:06:32.023034
6303,-0.1942,0.9296,-0.2791,-32.095,-0.700,5.705,2,5,2,392,379,2025-06-06T10:06:32.023034
6304,-0.1806,0.9360,-0.2499,-34.615,-1.155,2.555,2,7,1,361,365,2025-06-06T10:06:32.023034
6305,-0.1976,0.9267,-0.2308,-45.990,-1.890,-2.135,1,5,1,385,383,2025-06-06T10:06:32.023034
6306,-0.2084,0.9170,-0.2035,-51.205,-4.235,-6.580,2,6,1,386,386,2025-06-06T10:06:32.023034
6307,-0.2045,0.9292,-0.1918,-52.360,-8.470,-11.410,2,6,1,374,381,2025-06-06T10:06:32.023034
6308,-0.1484,0.9980,-0.1840,-44.940,-18.935,-14.455,2,8,2,385,393,2025-06-06T10:06:32.023034
6309,-0.1327,0.9501,-0.1586,-44.520,-27.755,-19.460,1,9,0,342,395,2025-06-06T10:06:32.023034
6310,-0.1669,0.8867,-0.1342,-47.670,-28.980,-25.655,1,9,1,373,395,2025-06-06T10:06:32.138027
6311,-0.2118,0.8877,-0.1196,-51.485,-29.855,-32.550,2,12,1,395,407,2025-06-06T10:06:32.138027
6312,-0.2137,0.9262,-0.0956,-49.700,-37.870,-38.535,2,9,1,395,400,2025-06-06T10:06:32.138027
6313,-0.1620,0.9453,-0.0659,-44.625,-48.720,-41.440,1,8,1,401,399,2025-06-06T10:06:32.138027
6314,-0.1586,0.9472,-0.0498,-39.795,-64.050,-41.545,2,8,1,383,394,2025-06-06T10:06:32.138027
6315,-0.1893,0.9321,-0.0893,-38.430,-75.775,-42.000,2,6,1,394,398,2025-06-06T10:06:32.138027
6316,-0.1908,0.8999,-0.2479,-38.535,-88.340,-45.150,1,7,1,391,400,2025-06-06T10:06:32.138027
6317,-0.1318,0.9145,-0.1674,-38.080,-101.220,-50.435,1,5,1,372,391,2025-06-06T10:06:32.138027
6318,-0.1157,0.9062,-0.2255,-45.605,-109.655,-62.615,1,5,2,388,373,2025-06-06T10:06:32.138027
6319,-0.1444,0.8926,-0.2133,-54.775,-111.160,-65.450,2,4,2,374,387,2025-06-06T10:06:32.223930
6320,-0.1308,0.9345,-0.1781,-61.740,-106.190,-77.560,2,5,1,393,384,2025-06-06T10:06:32.223930
6321,-0.2015,0.8891,-0.1464,-69.755,-96.635,-91.910,2,4,1,387,391,2025-06-06T10:06:32.223930
6322,-0.3045,0.8194,-0.1186,-77.910,-87.150,-101.640,2,4,1,376,383,2025-06-06T10:06:32.223930
6323,-0.2987,0.8198,-0.1030,-82.705,-86.555,-111.615,2,5,2,386,387,2025-06-06T10:06:32.223930
6324,-0.2869,0.8857,-0.0278,-81.445,-98.350,-116.935,2,3,1,374,384,2025-06-06T10:06:32.223930
6325,-0.2557,0.9043,0.0181,-77.000,-125.055,-114.555,1,2,1,388,319,2025-06-06T10:06:32.223930
6326,-0.2855,0.8657,0.0395,-71.435,-136.955,-112.840,1,2,1,377,348,2025-06-06T10:06:32.223930
6327,-0.3967,0.8164,0.0522,-71.015,-145.950,-113.820,2,2,1,372,356,2025-06-06T10:06:32.440805
6328,-0.5661,0.7920,0.1615,-75.285,-156.765,-118.230,2,2,1,387,369,2025-06-06T10:06:32.440805
6329,-0.5632,0.8296,0.2240,-67.410,-179.165,-123.410,2,2,1,388,337,2025-06-06T10:06:32.440805
6330,-0.6154,0.8364,0.3001,-54.845,-193.620,-130.340,2,3,2,391,372,2025-06-06T10:06:32.440805
6331,-0.7066,0.7281,0.3997,-54.075,-192.920,-138.320,1,2,2,388,348,2025-06-06T10:06:32.440805
6332,-0.7725,0.5109,0.4099,-64.470,-187.915,-149.730,1,2,1,340,334,2025-06-06T10:06:32.440805
6333,-0.7364,0.6310,0.5012,-56.700,-178.430,-156.975,2,2,2,383,368,2025-06-06T10:06:32.440805
6334,-0.9819,0.6539,0.6232,-54.285,-172.795,-158.095,1,3,1,389,377,2025-06-06T10:06:32.440805
6335,-1.4362,0.5783,0.6061,-52.395,-160.615,-164.185,1,3,1,383,372,2025-06-06T10:06:32.440805
6336,-1.1395,0.6359,0.3221,-29.260,-185.010,-159.810,1,4,1,377,385,2025-06-06T10:06:32.440805
6337,-0.1606,0.9784,0.4372,-6.195,-253.295,-116.515,2,3,0,339,375,2025-06-06T10:06:32.440805
6338,-0.1176,0.9140,0.4914,-94.955,-243.600,-61.355,1,3,1,331,349,2025-06-06T10:06:32.440805
6339,-0.3680,0.7300,0.5607,-80.955,-195.055,-29.750,1,2,1,352,363,2025-06-06T10:06:32.440805
6340,-0.3528,0.5700,0.2913,-106.645,-167.020,-19.705,2,2,1,358,387,2025-06-06T10:06:32.440805
6341,-0.5300,0.2162,0.2635,-109.865,-171.675,-20.545,1,2,0,342,397,2025-06-06T10:06:32.440805
6342,-1.0116,0.0049,0.3958,-108.990,-139.265,-36.680,2,2,1,320,318,2025-06-06T10:06:32.440805
6343,-0.8306,0.1620,0.6529,-96.145,-115.465,-48.195,2,2,1,348,369,2025-06-06T10:06:32.440805
6344,-0.4387,0.4587,0.8228,-86.415,-114.520,-39.935,1,3,1,355,377,2025-06-06T10:06:32.497873
6345,-0.2133,0.5446,0.8823,-86.695,-106.400,-17.885,2,3,2,372,391,2025-06-06T10:06:32.497873
6346,-0.2050,0.5139,0.8418,-81.165,-85.330,0.035,2,4,1,389,398,2025-06-06T10:06:32.497873
6347,-0.2860,0.4426,0.7579,-72.520,-79.135,16.415,2,3,1,377,394,2025-06-06T10:06:32.497873
6348,-0.4114,0.3787,0.7300,-61.670,-75.110,21.000,2,3,2,394,396,2025-06-06T10:06:32.640645
6349,-0.5500,0.3348,0.7964,-57.680,-69.510,17.990,2,2,2,397,386,2025-06-06T10:06:32.640645
6350,-0.7276,0.3206,0.9306,-58.730,-61.845,7.175,1,2,2,398,398,2025-06-06T10:06:32.640645
6351,-0.8384,0.2235,0.9814,-61.705,-63.630,-8.260,1,2,1,402,411,2025-06-06T10:06:32.640645
6352,-0.6207,0.2328,0.9721,-58.205,-61.075,-23.695,1,3,2,383,398,2025-06-06T10:06:32.640645
6353,-0.3528,0.3518,0.9999,-57.085,-56.105,-35.350,2,3,1,377,395,2025-06-06T10:06:32.640645
6354,-0.2850,0.4216,1.0204,-55.195,-26.320,-25.340,1,2,1,340,361,2025-06-06T10:06:32.640645
6355,-0.3323,0.4207,0.9721,-50.295,-15.540,-18.655,1,2,1,358,335,2025-06-06T10:06:32.640645
6356,-0.4197,0.4177,0.9096,-46.795,-25.585,-13.300,1,3,1,377,373,2025-06-06T10:06:32.640645
6357,-0.4865,0.4026,0.8433,-47.775,-42.945,-11.025,2,3,1,389,371,2025-06-06T10:06:32.640645
6358,-0.2611,0.4016,0.7681,-52.220,-51.730,-38.745,2,3,2,398,349,2025-06-06T10:06:32.640645
6359,0.2328,0.1840,0.3431,-50.435,-62.545,39.655,2,3,1,382,382,2025-06-06T10:06:32.640645
6360,0.2206,0.2054,0.5412,-86.730,-15.890,47.110,2,2,1,396,378,2025-06-06T10:06:32.640645
6361,-0.5505,0.7862,1.0121,-12.460,19.950,51.345,2,4,2,401,381,2025-06-06T10:06:32.701445
6362,-0.1825,0.7198,1.2834,-18.130,43.960,38.465,1,4,1,400,370,2025-06-06T10:06:32.701445
6363,-0.6827,0.3333,1.0775,10.570,14.665,31.605,1,4,1,405,387,2025-06-06T10:06:32.701445
6364,-0.6998,-0.1366,0.6124,-9.310,33.460,41.195,2,3,1,385,382,2025-06-06T10:06:32.701445
6365,-0.6769,0.0337,0.5876,-14.140,35.665,30.170,2,3,1,384,344,2025-06-06T10:06:32.701445
6366,-0.5134,0.4104,0.8740,-16.940,22.750,29.820,1,4,1,380,373,2025-06-06T10:06:32.850980
6367,-0.4553,0.5363,1.2517,-21.000,5.495,28.805,2,4,2,382,373,2025-06-06T10:06:32.850980
6368,-1.1810,0.6500,2.0867,5.670,31.360,9.135,2,4,1,380,392,2025-06-06T10:06:32.850980
6369,-1.1317,0.5500,1.1073,12.215,16.380,-18.480,2,4,2,377,381,2025-06-06T10:06:32.850980
6370,-0.5402,0.4114,0.8379,29.050,10.745,-25.865,2,3,1,374,384,2025-06-06T10:06:32.850980
6371,-0.2469,0.2904,0.6881,12.775,4.725,-26.075,1,4,1,396,354,2025-06-06T10:06:32.850980
6372,-0.2616,0.2606,0.3850,28.350,29.645,-20.370,1,4,1,389,369,2025-06-06T10:06:32.850980
6373,-0.4621,0.3079,0.7540,6.720,13.545,-6.195,2,4,1,364,375,2025-06-06T10:06:32.850980
6374,-0.4709,0.3152,0.8457,1.540,-16.800,-1.050,1,3,1,371,378,2025-06-06T10:06:32.850980
6375,-0.4665,0.4436,0.9306,-6.650,-12.425,1.645,2,3,1,379,383,2025-06-06T10:06:32.850980
6376,-0.4426,0.2747,0.8789,3.325,5.040,3.675,1,2,1,393,356,2025-06-06T10:06:32.850980
6377,-0.5470,0.2625,0.6105,-0.980,-0.315,12.530,1,2,1,379,368,2025-06-06T10:06:32.850980
6378,-0.6744,0.3548,0.7945,-23.975,-32.655,17.010,2,3,2,381,385,2025-06-06T10:06:32.893744
6379,-0.6227,0.3972,0.8447,-29.085,-47.355,16.240,2,2,2,381,387,2025-06-06T10:06:32.893744
6380,-0.5134,0.3841,0.8384,-36.575,-43.155,18.235,1,3,1,382,399,2025-06-06T10:06:32.893744
6381,-0.4948,0.2884,0.7310,-35.210,-46.200,22.435,2,2,1,396,398,2025-06-06T10:06:32.893744
6382,-0.4924,0.2772,0.7457,-55.790,-63.280,28.140,2,3,2,390,398,2025-06-06T10:06:33.058662
6383,-0.4826,0.2904,0.8037,-68.355,-81.235,32.620,2,2,1,397,390,2025-06-06T10:06:33.058662
6384,-0.4704,0.3099,0.8384,-77.210,-86.205,35.455,1,3,1,351,389,2025-06-06T10:06:33.058662
6385,-0.4675,0.2908,0.8398,-80.360,-88.655,37.835,1,3,1,370,390,2025-06-06T10:06:33.058662
6386,-0.4451,0.2567,0.8511,-82.425,-96.250,40.075,2,2,1,384,363,2025-06-06T10:06:33.058662
6387,-0.4270,0.2460,0.8003,-39.725,-99.260,43.750,1,2,2,389,381,2025-06-06T10:06:33.058662
6388,-0.3894,0.2455,0.8359,-34.195,-110.915,48.055,2,2,1,397,350,2025-06-06T10:06:33.058662
6389,-0.3733,0.2284,0.8252,-49.910,-111.300,52.220,2,2,1,372,342,2025-06-06T10:06:33.058662
6390,-0.3640,0.2621,0.8135,-42.105,-129.010,57.330,1,1,1,371,370,2025-06-06T10:06:33.262365
6391,-0.3396,0.2245,0.8252,-50.365,-139.965,60.655,1,2,1,392,343,2025-06-06T10:06:33.262365
6392,-0.3104,0.2338,0.8467,-36.470,-153.790,65.415,2,2,1,378,356,2025-06-06T10:06:33.262365
6393,-0.3001,0.2547,0.8608,-34.545,-175.770,64.610,2,2,1,382,380,2025-06-06T10:06:33.262365
6394,-0.3870,0.3499,1.3766,-32.200,-186.305,56.000,1,2,1,382,356,2025-06-06T10:06:33.262365
6395,-0.1718,0.3206,1.1209,-25.585,-218.190,49.525,1,3,2,386,382,2025-06-06T10:06:33.262365
6396,0.0176,0.3504,1.0433,-10.290,-238.595,50.155,1,2,2,399,381,2025-06-06T10:06:33.262365
6397,0.2567,0.5724,1.9320,-41.685,-183.260,50.435,1,3,2,387,380,2025-06-06T10:06:33.262365
6398,0.2840,0.3753,1.6636,-25.130,-216.090,47.460,2,3,1,397,388,2025-06-06T10:06:33.262365
6399,0.3011,0.2621,1.4977,3.710,-220.675,54.950,2,2,1,388,390,2025-06-06T10:06:33.262365
6400,0.1537,0.0571,0.7886,11.130,-226.835,49.315,2,2,1,380,395,2025-06-06T10:06:33.262365
6401,0.1747,0.1020,0.5514,29.750,-204.225,40.215,2,2,1,393,409,2025-06-06T10:06:33.262365
6402,0.2508,0.2040,0.4885,15.295,-169.295,42.280,1,2,1,377,385,2025-06-06T10:06:33.262365
6403,0.2782,0.3045,0.6964,11.515,-139.440,35.910,1,4,1,371,393,2025-06-06T10:06:33.262365
6404,0.4050,0.2757,0.9414,11.305,-128.870,35.210,2,2,1,383,397,2025-06-06T10:06:33.262365
6405,0.7974,-0.0220,0.9672,19.670,-110.005,26.565,2,2,1,362,353,2025-06-06T10:06:33.262365
6406,0.7261,0.3582,0.6266,30.695,-88.830,27.965,1,3,2,382,386,2025-06-06T10:06:33.262365
6407,0.5456,0.1752,0.4856,5.180,-43.995,21.175,1,3,1,380,380,2025-06-06T10:06:33.262365
6408,0.5163,0.2357,0.5510,13.720,2.660,13.685,2,1,1,395,391,2025-06-06T10:06:33.262365
6409,0.6403,0.3040,0.6886,-1.715,27.860,9.030,1,2,1,394,322,2025-06-06T10:06:33.262365
6410,0.6593,0.3143,0.6983,-1.470,50.960,5.495,2,3,1,372,363,2025-06-06T10:06:33.262365
6411,0.4885,0.1972,0.8760,-6.685,76.020,-3.325,0,2,1,395,381,2025-06-06T10:06:33.262365
6412,0.2840,0.1078,0.9858,-14.980,76.230,-18.200,1,2,1,395,366,2025-06-06T10:06:33.303216
6413,0.3650,0.1947,0.7930,-9.380,74.795,-24.920,2,3,1,397,388,2025-06-06T10:06:33.303216
6414,0.4548,0.3260,0.8150,-6.685,92.785,-26.810,2,3,1,398,396,2025-06-06T10:06:33.303216
6415,0.3782,0.1908,1.0302,-10.640,114.345,-24.360,2,3,1,387,395,2025-06-06T10:06:33.303216
6416,0.2762,0.1991,0.9921,-3.325,120.120,-28.035,2,3,2,399,392,2025-06-06T10:06:33.464664
6417,0.2826,0.2757,0.8886,-3.710,117.390,-31.045,1,3,1,380,359,2025-06-06T10:06:33.464664
6418,0.2528,0.2474,0.8691,-1.855,119.910,-34.965,2,2,2,389,387,2025-06-06T10:06:33.464664
6419,0.1791,0.2567,0.8911,-0.315,137.480,-35.140,1,2,2,401,384,2025-06-06T10:06:33.464664
6420,0.1161,0.2611,0.9316,1.015,147.105,-36.435,1,2,2,401,395,2025-06-06T10:06:33.464664
6421,0.0932,0.2367,0.9477,2.345,146.860,-39.550,2,3,1,363,380,2025-06-06T10:06:33.464664
6422,0.0708,0.2318,1.0053,11.060,141.505,-42.245,1,2,1,371,380,2025-06-06T10:06:33.464664
6423,0.0142,0.3538,1.2771,13.510,130.095,-36.470,1,2,1,392,385,2025-06-06T10:06:33.464664
6424,-0.1113,0.3987,1.5553,6.510,100.345,-28.525,2,2,1,390,380,2025-06-06T10:06:33.464664
6425,-0.1952,0.3631,1.5636,14.945,84.630,-27.195,2,2,2,392,355,2025-06-06T10:06:33.464664
6426,-0.1318,0.2855,1.1214,20.020,64.190,-24.535,1,1,1,394,384,2025-06-06T10:06:33.464664
6427,-0.2547,0.2596,0.7910,24.185,60.900,-17.535,1,2,1,388,386,2025-06-06T10:06:33.464664
6428,-0.3050,0.2445,0.7003,10.815,48.195,-13.440,2,2,1,386,392,2025-06-06T10:06:33.464664
6429,-0.2601,0.3719,0.7896,6.580,23.380,-10.465,2,2,1,387,402,2025-06-06T10:06:33.518295
6430,-0.2582,0.2704,0.9770,4.655,1.785,-6.090,2,1,2,387,393,2025-06-06T10:06:33.518295
6431,-0.3006,0.2191,1.0263,-0.665,-7.665,-0.455,2,3,2,390,398,2025-06-06T10:06:33.518295
6432,-0.2572,0.2108,0.9711,-2.345,-16.800,5.320,2,2,2,375,395,2025-06-06T10:06:33.518295
6433,-0.2201,0.2352,0.9013,-3.640,-29.015,10.220,1,2,1,386,394,2025-06-06T10:06:33.662823
6434,-0.1996,0.2718,0.8930,-5.530,-46.165,14.350,2,2,1,387,388,2025-06-06T10:06:33.662823
6435,-0.1898,0.2674,0.8891,-11.130,-58.380,16.415,2,2,1,385,386,2025-06-06T10:06:33.662823
6436,-0.1708,0.2757,0.9599,-12.005,-70.175,18.515,2,2,1,353,383,2025-06-06T10:06:33.662823
6437,-0.1113,0.2630,1.0033,-9.275,-80.955,19.985,2,3,1,378,374,2025-06-06T10:06:33.662823
6438,-0.0400,0.2669,1.0756,-6.685,-86.975,21.525,2,2,2,386,395,2025-06-06T10:06:33.662823
6439,0.0371,0.3919,1.2756,-14.770,-73.710,22.295,2,1,1,351,386,2025-06-06T10:06:33.662823
6440,0.0947,0.3611,1.1644,-2.730,-77.560,21.665,0,1,1,365,379,2025-06-06T10:06:33.662823
6441,0.1693,0.4153,1.2073,-1.925,-89.950,24.255,1,2,1,389,389,2025-06-06T10:06:33.662823
6442,0.0971,0.2098,0.9496,-4.865,-93.940,21.420,1,1,0,343,380,2025-06-06T10:06:33.662823
6443,0.1015,0.2157,0.8394,2.555,-81.760,17.675,2,2,1,375,385,2025-06-06T10:06:33.662823
6444,0.1688,0.2269,0.8198,-1.225,-61.495,14.525,1,2,1,371,383,2025-06-06T10:06:33.662823
6445,0.1801,0.2621,0.9321,2.660,-51.205,12.320,1,2,1,378,394,2025-06-06T10:06:33.662823
6446,0.2054,0.2923,0.9819,-0.560,-44.730,10.045,2,1,1,378,392,2025-06-06T10:06:33.662823
6447,0.2167,0.2460,0.9287,-0.770,-38.010,6.965,2,2,2,372,380,2025-06-06T10:06:33.763047
6448,0.2381,0.2225,0.8974,1.295,-24.150,4.025,2,2,1,390,382,2025-06-06T10:06:33.763047
6449,0.2357,0.2342,0.9082,1.225,-8.820,1.365,2,2,1,389,379,2025-06-06T10:06:33.763047
6450,0.2211,0.2616,0.9272,1.715,2.730,-1.645,1,2,2,382,394,2025-06-06T10:06:33.763047
6451,0.2181,0.2708,0.9292,0.385,9.065,-4.025,1,2,1,394,394,2025-06-06T10:06:33.763047
6452,0.2054,0.2611,0.9106,0.245,19.180,-6.720,1,2,1,383,395,2025-06-06T10:06:33.763047
6453,0.1932,0.2538,0.9155,-0.070,31.185,-8.960,2,1,1,388,403,2025-06-06T10:06:33.763047
6454,0.1752,0.2494,0.9472,0.805,40.075,-11.235,1,1,2,384,369,2025-06-06T10:06:33.763047
6455,0.1562,0.2518,0.9653,1.855,44.765,-13.300,2,2,2,381,368,2025-06-06T10:06:33.881152
6456,0.1371,0.2601,0.9648,2.870,50.225,-14.595,1,2,1,389,378,2025-06-06T10:06:33.881152
6457,0.1093,0.2640,0.9575,3.150,56.070,-15.750,2,2,1,379,383,2025-06-06T10:06:33.881152
6458,0.0805,0.2645,0.9599,3.850,59.745,-16.695,1,2,2,400,357,2025-06-06T10:06:33.881152
6459,0.0468,0.2689,0.9833,4.235,61.425,-17.290,1,2,1,383,366,2025-06-06T10:06:33.881152
6460,0.0327,0.3157,1.1156,2.030,54.250,-15.995,2,2,1,396,391,2025-06-06T10:06:33.881152
6461,-0.0200,0.2913,1.1375,2.415,45.290,-13.790,1,2,1,393,387,2025-06-06T10:06:33.881152
6462,-0.0703,0.3187,1.1048,6.370,33.810,-11.270,2,2,1,387,388,2025-06-06T10:06:33.881152
6463,-0.1020,0.3152,1.0634,5.985,26.600,-8.785,1,2,0,372,392,2025-06-06T10:06:33.881152
6464,-0.1157,0.2635,0.9770,0.630,19.110,-5.040,2,3,2,381,393,2025-06-06T10:06:33.931552
6465,-0.1420,0.2606,0.9072,1.015,6.895,-2.380,2,2,1,393,400,2025-06-06T10:06:33.931552
6466,-0.1386,0.2562,0.9282,-0.700,-4.235,8.715,1,1,1,398,396,2025-06-06T10:06:33.931552
6467,-0.1186,0.2635,0.9965,0.210,-16.415,2.555,1,1,1,388,359,2025-06-06T10:06:33.931552
6468,-0.0986,0.2664,0.9984,-1.295,-23.450,5.530,2,2,1,382,380,2025-06-06T10:06:33.978643
6469,-0.0830,0.3001,1.0072,-0.035,-29.715,6.405,2,1,1,390,346,2025-06-06T10:06:33.979652
6470,-0.0356,0.2850,1.0448,-3.815,-35.035,7.735,2,2,1,372,338,2025-06-06T10:06:33.979652
6471,0.0259,0.3152,1.0302,-1.540,-36.505,8.190,1,2,1,389,377,2025-06-06T10:06:33.979652
6472,0.0732,0.3079,1.0336,-0.210,-35.385,9.520,2,2,2,396,381,2025-06-06T10:06:34.024862
6473,0.0468,0.2567,0.9906,-1.050,-34.055,8.995,2,2,1,392,388,2025-06-06T10:06:34.024862
6474,0.0620,0.2669,0.9931,-1.785,-34.370,7.210,2,2,1,395,389,2025-06-06T10:06:34.024862
6475,0.0991,0.2606,0.9672,-1.190,-30.030,5.880,2,2,2,386,348,2025-06-06T10:06:34.024862
6476,0.1039,0.2611,0.9706,1.085,-23.590,4.935,1,2,1,376,380,2025-06-06T10:06:34.186948
6477,0.0942,0.2684,0.9511,-0.560,-16.065,3.360,2,2,2,384,342,2025-06-06T10:06:34.186948
6478,0.1030,0.2728,0.9399,0.665,-11.410,1.295,2,2,1,381,356,2025-06-06T10:06:34.186948
6479,0.1069,0.2679,0.9521,0.140,-4.515,-0.350,2,3,1,374,377,2025-06-06T10:06:34.186948
6480,0.1010,0.2635,0.9604,0.525,3.535,-1.925,1,2,1,380,392,2025-06-06T10:06:34.186948
6481,0.0981,0.2630,0.9672,0.455,7.875,-3.605,1,2,1,395,389,2025-06-06T10:06:34.186948
6482,0.0898,0.2606,0.9667,2.030,11.585,-4.760,2,1,1,348,388,2025-06-06T10:06:34.186948
6483,0.0761,0.2728,0.9667,1.855,16.870,-5.915,2,2,1,368,404,2025-06-06T10:06:34.186948
6484,0.0649,0.2816,0.9706,2.030,20.370,-6.055,2,2,1,377,392,2025-06-06T10:06:34.186948
6485,0.0429,0.2835,1.0219,0.875,18.690,-6.230,2,2,1,389,403,2025-06-06T10:06:34.186948
6486,0.0171,0.2738,1.0082,2.555,16.310,-6.020,2,1,2,384,392,2025-06-06T10:06:34.186948
6487,0.0005,0.2752,1.0067,1.015,14.280,-4.970,2,2,1,383,389,2025-06-06T10:06:34.186948
6488,-0.0283,0.2835,1.0180,1.190,10.220,-3.780,1,2,2,389,391,2025-06-06T10:06:34.186948
6489,-0.0371,0.2899,1.0072,1.400,5.425,-2.450,1,2,1,392,380,2025-06-06T10:06:34.295651
6490,-0.0420,0.2884,0.9960,0.805,-0.385,-1.155,1,2,2,382,357,2025-06-06T10:06:34.295651
6491,-0.0444,0.2811,0.9926,-0.175,-5.075,0.245,1,2,1,377,366,2025-06-06T10:06:34.295651
6492,-0.0312,0.2806,0.9999,-0.490,-9.870,1.540,2,1,1,385,371,2025-06-06T10:06:34.295651
6493,-0.0137,0.2796,1.0053,-0.560,-13.755,2.415,2,2,1,400,352,2025-06-06T10:06:34.295651
6494,0.0039,0.2772,0.9970,-0.560,-15.400,2.975,2,2,1,393,360,2025-06-06T10:06:34.295651
6495,0.0244,0.2772,0.9960,-0.385,-15.925,3.010,2,2,0,356,344,2025-06-06T10:06:34.295651
6496,0.0464,0.2796,0.9877,0.175,-15.505,3.080,1,1,2,377,363,2025-06-06T10:06:34.295651
6497,0.0522,0.2840,0.9906,0.700,-13.370,2.975,2,1,1,372,378,2025-06-06T10:06:34.295651
6498,0.0420,0.2664,0.9794,-0.735,-11.585,1.925,1,2,1,315,372,2025-06-06T10:06:34.389719
6499,0.0561,0.2733,0.9750,0.315,-9.870,1.225,2,3,1,343,374,2025-06-06T10:06:34.389719
6500,0.0639,0.2694,0.9833,0.245,-6.650,0.560,2,2,1,372,384,2025-06-06T10:06:34.389719
6501,0.0551,0.2718,0.9828,0.490,-3.185,-0.175,1,1,2,379,394,2025-06-06T10:06:34.389719
6502,0.0551,0.2762,0.9765,0.490,-1.365,-0.875,2,1,1,392,399,2025-06-06T10:06:34.389719
6503,0.0493,0.2747,0.9794,0.945,0.140,-1.400,2,3,1,386,401,2025-06-06T10:06:34.389719
6504,0.0400,0.2786,0.9882,0.630,2.135,-1.680,2,2,1,387,385,2025-06-06T10:06:34.389719
6505,0.0307,0.2762,0.9902,0.735,2.520,-1.680,1,1,1,396,364,2025-06-06T10:06:34.389719
6506,0.0224,0.2777,0.9960,0.735,1.610,-1.680,2,2,1,378,379,2025-06-06T10:06:34.389719
6507,0.0112,0.2772,0.9965,0.840,0.525,-1.575,2,3,2,400,357,2025-06-06T10:06:34.445309
6508,0.0093,0.2796,0.9945,0.525,-0.665,-1.050,1,3,2,389,369,2025-06-06T10:06:34.445309
6509,0.0068,0.2826,0.9960,0.560,-2.625,-0.455,1,2,1,392,372,2025-06-06T10:06:34.445309
6510,0.0068,0.2801,0.9960,0.280,-4.270,-0.105,1,2,1,384,390,2025-06-06T10:06:34.445309
6511,0.0078,0.2782,0.9931,0.140,-5.670,0.350,2,2,1,383,388,2025-06-06T10:06:34.445309
6512,0.0117,0.2801,0.9936,-0.035,-6.685,0.665,1,2,1,387,379,2025-06-06T10:06:34.596142
6513,0.0185,0.2767,0.9945,0.175,-7.630,0.805,1,2,2,351,388,2025-06-06T10:06:34.596142
6514,0.0268,0.2772,0.9906,0.070,-7.770,0.735,2,2,2,375,375,2025-06-06T10:06:34.596142
6515,0.0278,0.2747,0.9862,0.105,-7.385,0.735,2,2,1,375,384,2025-06-06T10:06:34.596142
6516,0.0322,0.2762,0.9877,0.070,-6.475,0.560,2,2,1,375,376,2025-06-06T10:06:34.596142
6517,0.0356,0.2757,0.9867,0.105,-5.670,0.280,2,1,1,386,343,2025-06-06T10:06:34.596142
6518,0.0390,0.2757,0.9848,0.245,-4.585,0.000,1,2,1,387,370,2025-06-06T10:06:34.596142
6519,0.0386,0.2767,0.9867,0.350,-3.675,-0.210,2,2,1,379,371,2025-06-06T10:06:34.596142
6520,0.0327,0.2757,0.9877,0.420,-2.905,-0.490,1,2,1,399,389,2025-06-06T10:06:34.596142
6521,0.0327,0.2791,0.9872,0.595,-2.345,-0.560,1,2,1,384,388,2025-06-06T10:06:34.596142
6522,0.0268,0.2777,0.9892,0.315,-2.170,-0.630,1,2,1,382,379,2025-06-06T10:06:34.596142
6523,0.0249,0.2796,0.9926,0.455,-2.310,-0.665,1,1,1,383,375,2025-06-06T10:06:34.596142
6524,0.0190,0.2796,0.9916,0.315,-2.765,-0.420,2,2,1,381,373,2025-06-06T10:06:34.754725
6525,0.0176,0.2782,0.9941,0.420,-3.430,-0.245,1,2,1,392,385,2025-06-06T10:06:34.754725
6526,0.0161,0.2786,0.9921,0.420,-3.920,-0.175,2,2,1,387,345,2025-06-06T10:06:34.754725
6527,0.0166,0.2786,0.9921,0.210,-4.515,0.035,2,2,2,397,365,2025-06-06T10:06:34.754725
6528,0.0200,0.2791,0.9941,0.350,-5.110,0.140,1,2,1,383,366,2025-06-06T10:06:34.754725
6529,0.0229,0.2791,0.9921,0.035,-5.460,0.175,1,2,1,385,384,2025-06-06T10:06:34.754725
6530,0.0264,0.2782,0.9897,0.245,-5.705,0.315,1,3,1,349,392,2025-06-06T10:06:34.754725
6531,0.0264,0.2777,0.9892,0.175,-5.565,0.280,2,2,1,360,349,2025-06-06T10:06:34.754725
6532,0.0303,0.2762,0.9897,0.210,-5.250,0.140,1,2,2,375,360,2025-06-06T10:06:34.754725
6533,0.0317,0.2801,0.9877,0.350,-4.900,0.105,1,3,2,341,369,2025-06-06T10:06:34.754725
6534,0.0307,0.2801,0.9877,0.175,-4.340,-0.140,1,2,2,379,390,2025-06-06T10:06:34.754725
6535,0.0303,0.2782,0.9872,0.315,-3.990,-0.210,2,2,2,382,403,2025-06-06T10:06:34.754725
6536,0.0298,0.2772,0.9911,0.315,-3.570,-0.245,2,2,1,395,393,2025-06-06T10:06:34.754725
6537,0.0283,0.2767,0.9897,0.385,-3.290,-0.420,1,2,1,385,402,2025-06-06T10:06:34.754725
6538,0.0244,0.2786,0.9892,0.385,-3.290,-0.315,2,3,1,383,381,2025-06-06T10:06:34.796581
6539,0.0234,0.2777,0.9916,0.315,-3.430,-0.245,1,2,1,381,393,2025-06-06T10:06:34.796581
6540,0.0224,0.2777,0.9906,0.420,-3.675,-0.280,1,2,2,383,385,2025-06-06T10:06:34.956151
6541,0.0224,0.2772,0.9921,0.385,-3.990,-0.105,1,2,1,380,380,2025-06-06T10:06:34.957148
6542,0.0229,0.2777,0.9911,0.280,-4.375,0.000,2,1,1,385,351,2025-06-06T10:06:34.957148
6543,0.0234,0.2791,0.9892,0.280,-4.550,0.070,2,2,1,382,378,2025-06-06T10:06:34.957148
6544,0.0244,0.2762,0.9906,0.245,-4.900,0.140,2,2,1,393,381,2025-06-06T10:06:34.957148
6545,0.0244,0.2786,0.9902,0.070,-4.970,0.175,1,2,2,379,378,2025-06-06T10:06:34.957148
6546,0.0259,0.2772,0.9897,0.175,-5.005,0.105,1,2,1,389,393,2025-06-06T10:06:34.957148
6547,0.0288,0.2806,0.9882,0.315,-4.900,0.035,1,2,2,407,388,2025-06-06T10:06:34.957148
6548,0.0283,0.2777,0.9902,0.070,-4.585,0.035,1,2,1,398,397,2025-06-06T10:06:34.957148
6549,0.0293,0.2767,0.9872,0.315,-4.410,0.000,1,2,1,391,360,2025-06-06T10:06:34.957148
6550,0.0298,0.2791,0.9897,0.315,-4.060,-0.175,1,2,1,382,341,2025-06-06T10:06:34.957148
6551,0.0283,0.2757,0.9897,0.315,-3.850,-0.210,1,2,1,347,364,2025-06-06T10:06:35.035819
6552,0.0273,0.2767,0.9906,0.420,-3.745,-0.210,1,2,1,337,373,2025-06-06T10:06:35.035819
6553,0.0254,0.2786,0.9926,0.420,-3.640,-0.210,1,3,2,365,369,2025-06-06T10:06:35.035819
6554,0.0239,0.2796,0.9887,0.315,-3.815,-0.280,2,2,2,390,400,2025-06-06T10:06:35.035819
6555,0.0239,0.2786,0.9921,0.175,-3.920,-0.140,2,1,1,388,404,2025-06-06T10:06:35.035819
6556,0.0229,0.2772,0.9902,0.385,-4.270,-0.105,1,2,2,391,389,2025-06-06T10:06:35.035819
6557,0.0220,0.2806,0.9936,0.210,-4.445,0.000,1,2,1,347,390,2025-06-06T10:06:35.035819
6558,0.0259,0.2791,0.9906,0.175,-4.690,0.035,2,2,1,369,392,2025-06-06T10:06:35.035819
6559,0.0254,0.2796,0.9902,0.280,-4.795,0.070,1,3,1,374,409,2025-06-06T10:06:35.035819
6560,0.0264,0.2806,0.9897,0.175,-4.760,0.035,2,2,1,384,370,2025-06-06T10:06:35.035819
6561,0.0303,0.2791,0.9906,0.210,-4.690,0.035,3,2,2,377,385,2025-06-06T10:06:35.035819
6562,0.0264,0.2796,0.9882,0.385,-4.515,-0.035,2,2,1,345,380,2025-06-06T10:06:35.080638
6563,0.0254,0.2796,0.9887,0.245,-4.270,-0.035,2,3,1,365,347,2025-06-06T10:06:35.080638
6564,0.0288,0.2796,0.9906,0.245,-4.025,-0.140,2,3,1,372,376,2025-06-06T10:06:35.080638
6565,0.0268,0.2782,0.9887,0.315,-3.885,-0.175,1,3,1,383,370,2025-06-06T10:06:35.080638
6566,0.0268,0.2786,0.9892,0.280,-3.955,-0.105,2,2,1,393,348,2025-06-06T10:06:35.253292
6567,0.0244,0.2791,0.9902,0.210,-3.885,-0.105,2,2,1,375,371,2025-06-06T10:06:35.253292
6568,0.0254,0.2772,0.9897,0.350,-4.130,-0.175,2,3,1,371,381,2025-06-06T10:06:35.253292
6569,0.0229,0.2782,0.9902,0.280,-4.165,-0.070,2,2,2,381,382,2025-06-06T10:06:35.253292
6570,0.0239,0.2782,0.9902,0.105,-4.235,0.070,2,2,1,374,382,2025-06-06T10:06:35.253292
6571,0.0229,0.2796,0.9892,0.385,-4.410,-0.035,2,2,1,389,402,2025-06-06T10:06:35.253292
6572,0.0220,0.2801,0.9902,0.210,-4.515,-0.035,2,2,2,386,388,2025-06-06T10:06:35.253292
6573,0.0244,0.2777,0.9897,0.350,-4.585,-0.070,1,1,1,355,392,2025-06-06T10:06:35.253292
6574,0.0249,0.2801,0.9906,0.245,-4.375,-0.035,1,2,1,386,329,2025-06-06T10:06:35.253292
6575,0.0239,0.2752,0.9887,0.105,-4.340,-0.035,2,1,1,366,362,2025-06-06T10:06:35.253292
6576,0.0268,0.2791,0.9902,0.350,-4.270,-0.035,2,3,2,384,347,2025-06-06T10:06:35.496949
6577,0.0278,0.2772,0.9926,0.175,-4.270,-0.035,2,2,1,384,367,2025-06-06T10:06:35.496949
6578,0.0273,0.2786,0.9882,0.455,-4.270,0.035,2,2,1,387,379,2025-06-06T10:06:35.496949
6579,0.0254,0.2752,0.9882,-0.035,-4.305,-0.105,2,3,1,393,388,2025-06-06T10:06:35.496949
6580,0.0283,0.2786,0.9882,0.525,-4.410,-0.140,2,2,2,390,379,2025-06-06T10:06:35.496949
6581,0.0234,0.2786,0.9877,0.210,-4.130,0.000,1,3,1,398,390,2025-06-06T10:06:35.496949
6582,0.0273,0.2796,0.9906,0.455,-4.410,-0.035,1,2,1,379,388,2025-06-06T10:06:35.496949
6583,0.0264,0.2796,0.9906,0.210,-4.410,-0.035,1,2,0,363,379,2025-06-06T10:06:35.496949
6584,0.0259,0.2796,0.9897,0.350,-4.410,-0.035,1,2,1,374,364,2025-06-06T10:06:35.496949
6585,0.0264,0.2791,0.9916,0.210,-4.235,0.000,1,2,2,376,380,2025-06-06T10:06:35.496949
6586,0.0234,0.2806,0.9877,0.315,-4.235,-0.105,1,2,1,347,387,2025-06-06T10:06:35.496949
6587,0.0259,0.2806,0.9906,0.315,-4.165,-0.070,2,2,1,360,320,2025-06-06T10:06:35.496949
6588,0.0259,0.2826,0.9877,0.350,-4.130,-0.070,1,2,1,377,367,2025-06-06T10:06:35.496949
6589,0.0268,0.2806,0.9916,0.175,-4.060,-0.140,2,3,2,376,369,2025-06-06T10:06:35.496949
6590,0.0249,0.2786,0.9906,0.350,-4.200,-0.105,2,2,1,384,380,2025-06-06T10:06:35.496949
6591,0.0244,0.2772,0.9882,0.140,-4.235,-0.105,2,3,1,382,373,2025-06-06T10:06:35.496949
6592,0.0268,0.2762,0.9911,0.350,-4.235,0.000,1,2,1,366,380,2025-06-06T10:06:35.496949
6593,0.0268,0.2811,0.9902,0.420,-4.410,-0.035,2,2,2,384,359,2025-06-06T10:06:35.496949
6594,0.0249,0.2806,0.9892,0.140,-4.410,-0.070,2,2,1,374,372,2025-06-06T10:06:35.496949
6595,0.0249,0.2801,0.9877,0.245,-4.550,-0.070,2,2,1,391,389,2025-06-06T10:06:35.496949
6596,0.0264,0.2801,0.9892,0.245,-4.445,-0.105,2,2,1,397,389,2025-06-06T10:06:35.496949
6597,0.0264,0.2811,0.9902,0.210,-4.235,-0.070,2,1,1,388,397,2025-06-06T10:06:35.496949
6598,0.0259,0.2811,0.9892,0.420,-4.270,0.000,1,2,2,399,401,2025-06-06T10:06:35.496949
6599,0.0254,0.2782,0.9877,0.350,-4.165,-0.105,2,2,1,385,383,2025-06-06T10:06:35.544145
6600,0.0259,0.2786,0.9877,0.245,-4.060,-0.105,2,2,1,362,392,2025-06-06T10:06:35.544145
6601,0.0244,0.2786,0.9902,0.315,-3.990,-0.175,2,2,1,372,391,2025-06-06T10:06:35.544145
6602,0.0264,0.2791,0.9906,0.385,-3.955,-0.140,2,2,1,383,382,2025-06-06T10:06:35.544145
6603,0.0234,0.2786,0.9897,0.280,-3.955,-0.105,2,2,1,351,385,2025-06-06T10:06:35.544145
6604,0.0249,0.2796,0.9897,0.385,-3.955,-0.105,2,3,1,374,360,2025-06-06T10:06:35.544145
6605,0.0200,0.2826,0.9872,0.315,-4.130,-0.035,2,2,1,375,384,2025-06-06T10:06:35.718674
6606,0.0259,0.2791,0.9882,0.210,-4.340,-0.035,1,2,1,384,352,2025-06-06T10:06:35.718674
6607,0.0244,0.2816,0.9887,0.315,-4.550,-0.035,2,2,2,383,374,2025-06-06T10:06:35.718674
6608,0.0249,0.2811,0.9897,0.210,-4.550,0.070,2,2,1,399,390,2025-06-06T10:06:35.718674
6609,0.0273,0.2821,0.9921,0.280,-4.655,-0.035,1,3,1,392,358,2025-06-06T10:06:35.718674
6610,0.0268,0.2806,0.9872,0.315,-4.550,-0.035,2,3,1,396,382,2025-06-06T10:06:35.718674
