SeqNum,AccX,AccY,AccZ,GyroX,GyroY,GyroZ,Flex,Force1,Force2,Force3,Force4,TimestampReception
1,-0.3294,-0.7413,0.6417,36.015,-3.885,-3.290,0.01,0.0184,0.0254,0.0100,0.0174,2025-06-11T08:03:28.204416
2,-0.3289,-0.7086,0.6837,56.210,-0.140,4.200,0.01,0.0368,0.0508,0.0100,0.0174,2025-06-11T08:03:28.204416
3,-0.3333,-0.6930,0.7066,57.890,0.735,3.990,0.00,0.0184,0.0508,0.0200,0.0000,2025-06-11T08:03:28.204416
4,-0.3475,-0.6666,0.7110,55.755,0.210,2.975,0.00,0.0368,0.0254,0.0200,0.0087,2025-06-11T08:03:28.204416
5,-0.3475,-0.6500,0.7183,40.355,-0.945,1.610,0.01,0.0552,0.0254,0.0200,0.0087,2025-06-11T08:03:28.204416
6,-0.3465,-0.6456,0.7315,26.775,-1.470,-0.280,0.01,0.0368,0.0508,0.0200,0.0087,2025-06-11T08:03:28.204416
7,-0.3518,-0.6437,0.7261,31.045,-2.730,-3.430,0.01,0.0368,0.0254,0.0100,0.0087,2025-06-11T08:03:28.204416
8,-0.3445,-0.6564,0.7359,47.705,-0.665,-4.655,0.01,0.0184,0.0254,0.0100,0.0262,2025-06-11T08:03:28.204416
9,-0.3411,-0.6686,0.7432,58.485,0.700,-4.830,0.01,0.0368,0.0254,0.0100,0.0087,2025-06-11T08:03:28.204416
10,-0.3192,-0.6764,0.7476,76.965,1.505,-2.415,0.01,0.0368,0.0508,0.0100,0.0087,2025-06-11T08:03:28.204416
11,-0.3221,-0.6568,0.7296,73.535,-0.805,0.840,0.01,0.0184,0.0254,0.0100,0.0087,2025-06-11T08:03:28.204416
12,-0.3348,-0.6295,0.7320,58.170,0.700,2.590,0.01,0.0368,0.0254,0.0100,0.0174,2025-06-11T08:03:28.204416
13,-0.3445,-0.6037,0.7310,32.655,-1.785,1.715,0.01,0.0368,0.0508,0.0100,0.0087,2025-06-11T08:03:28.204416
14,-0.3528,-0.5812,0.7418,17.010,-5.180,-0.175,0.01,0.0184,0.0508,0.0200,0.0174,2025-06-11T08:03:28.204416
15,-0.3499,-0.5778,0.7998,6.510,-5.355,-2.520,0.00,0.0184,0.0254,0.0100,0.0174,2025-06-11T08:03:28.204416
16,-0.3567,-0.5763,0.8072,3.850,-7.525,-4.655,0.01,0.0184,0.0000,0.0100,0.0087,2025-06-11T08:03:28.204416
17,-0.3416,-0.5817,0.8076,11.445,-5.845,-5.425,0.00,0.0184,0.0254,0.0200,0.0087,2025-06-11T08:03:28.204416
18,-0.3318,-0.6061,0.7891,25.025,-1.190,-6.335,0.00,0.0184,0.0254,0.0100,0.0087,2025-06-11T08:03:28.204416
19,-0.3289,-0.6227,0.7623,28.665,-1.855,-4.620,0.00,0.0184,0.0508,0.0100,0.0087,2025-06-11T08:03:28.204416
20,-0.3333,-0.6256,0.7466,25.060,-4.970,-1.575,0.01,0.0368,0.0508,0.0200,0.0174,2025-06-11T08:03:28.218303
21,-0.3260,-0.6037,0.7652,15.680,-4.270,1.470,0.01,0.0368,0.0508,0.0100,0.0174,2025-06-11T08:03:28.218303
22,-0.3411,-0.5846,0.7808,5.565,-3.325,2.625,0.01,0.0368,0.0254,0.0200,0.0174,2025-06-11T08:03:28.218303
23,-0.3528,-0.5578,0.8081,-4.025,-5.320,2.485,0.01,0.0368,0.0254,0.0200,0.0087,2025-06-11T08:03:28.218303
24,-0.3494,-0.5466,0.8189,-12.075,-6.545,1.120,0.01,0.0368,0.0508,0.0100,0.0174,2025-06-11T08:03:28.218303
25,-0.3470,-0.5539,0.8262,-5.845,-3.780,-3.150,0.01,0.0368,0.0508,0.0100,0.0087,2025-06-11T08:03:28.353595
26,-0.3475,-0.5744,0.7774,-2.800,-5.355,-5.005,0.01,0.0184,0.0508,0.0100,0.0087,2025-06-11T08:03:28.353595
27,-0.3309,-0.6076,0.7784,7.490,-3.430,-5.740,0.00,0.0368,0.0508,0.0100,0.0087,2025-06-11T08:03:28.353595
28,-0.3192,-0.6324,0.7696,10.815,-0.910,-4.025,0.01,0.0184,0.0254,0.0200,0.0087,2025-06-11T08:03:28.353595
29,-0.3318,-0.6281,0.7491,4.690,-6.405,2.135,0.01,0.0184,0.0508,0.0100,0.0087,2025-06-11T08:03:28.353595
30,-0.3314,-0.5963,0.7706,-3.920,-7.490,5.845,0.00,0.0368,0.0254,0.0100,0.0087,2025-06-11T08:03:28.353595
31,-0.3362,-0.5671,0.8062,-7.560,-4.305,4.200,0.00,0.0184,0.0254,0.0100,0.0087,2025-06-11T08:03:28.353595
32,-0.3567,-0.5568,0.8154,-10.920,-3.815,2.380,0.00,0.0184,0.0508,0.0100,0.0000,2025-06-11T08:03:28.353595
33,-0.3533,-0.5495,0.8135,-18.620,-6.545,0.595,0.01,0.0184,0.0254,0.0100,0.0000,2025-06-11T08:03:28.353595
34,-0.3499,-0.5695,0.8008,-14.245,-5.775,-3.150,0.00,0.0184,0.0254,0.0200,0.0087,2025-06-11T08:03:28.353595
35,-0.3450,-0.5851,0.7613,-8.750,-4.305,-5.250,0.01,0.0184,0.0508,0.0100,0.0087,2025-06-11T08:03:28.413724
36,-0.3226,-0.6271,0.7764,-1.435,-3.045,-3.500,0.00,0.0368,0.0254,0.0100,0.0087,2025-06-11T08:03:28.413781
37,-0.3201,-0.6329,0.7554,-4.585,-4.830,-0.175,0.01,0.0184,0.0254,0.0200,0.0087,2025-06-11T08:03:28.413781
38,-0.3240,-0.6232,0.7505,-4.760,-5.915,3.990,0.01,0.0184,0.0508,0.0200,0.0087,2025-06-11T08:03:28.413781
39,-0.3289,-0.6046,0.7715,-10.500,-4.060,4.690,0.01,0.0184,0.0254,0.0200,0.0174,2025-06-11T08:03:28.481314
40,-0.3411,-0.5856,0.7852,-12.425,-3.745,4.200,0.00,0.0184,0.0508,0.0200,0.0174,2025-06-11T08:03:28.481314
41,-0.3479,-0.5827,0.7901,-12.180,-4.725,2.240,0.01,0.0184,0.0254,0.0200,0.0087,2025-06-11T08:03:28.481314
42,-0.3431,-0.5812,0.7945,-11.305,-3.920,0.455,0.00,0.0184,0.0508,0.0100,0.0000,2025-06-11T08:03:28.481314
43,-0.3416,-0.5929,0.7828,-8.260,-3.535,-0.980,0.01,0.0184,0.0254,0.0200,0.0174,2025-06-11T08:03:28.481314
44,-0.3387,-0.6105,0.7730,-5.950,-4.095,-1.435,0.01,0.0368,0.0508,0.0200,0.0174,2025-06-11T08:03:28.529790
45,-0.3338,-0.6183,0.7540,-4.375,-4.130,-0.595,0.01,0.0368,0.0254,0.0200,0.0087,2025-06-11T08:03:28.529790
46,-0.3323,-0.6290,0.7540,-0.665,-3.010,0.525,0.00,0.0368,0.0508,0.0200,0.0087,2025-06-11T08:03:28.529790
47,-0.3328,-0.6290,0.7569,3.360,-2.450,1.575,0.01,0.0184,0.0254,0.0100,0.0087,2025-06-11T08:03:28.529790
48,-0.3367,-0.6085,0.7588,0.035,-4.060,2.730,0.01,0.0184,0.0254,0.0200,0.0174,2025-06-11T08:03:28.589196
49,-0.3436,-0.5919,0.7593,-5.180,-6.720,1.925,0.00,0.0184,0.0254,0.0200,0.0174,2025-06-11T08:03:28.589196
50,-0.3416,-0.5929,0.7745,-1.330,-5.180,-0.455,0.01,0.0368,0.0254,0.0100,0.0174,2025-06-11T08:03:28.589196
51,-0.3470,-0.6027,0.7915,3.150,-4.865,-2.520,0.01,0.0368,0.0254,0.0200,0.0087,2025-06-11T08:03:28.589196
52,-0.3489,-0.6110,0.7842,-1.750,-7.070,-2.870,0.00,0.0184,0.0508,0.0100,0.0087,2025-06-11T08:03:28.589196
53,-0.3460,-0.6100,0.7662,1.785,-6.825,-2.695,0.01,0.0368,0.0254,0.0200,0.0174,2025-06-11T08:03:28.641871
54,-0.3348,-0.6237,0.7540,9.380,-4.480,-2.380,0.01,0.0368,0.0254,0.0100,0.0087,2025-06-11T08:03:28.641871
55,-0.3323,-0.6207,0.7457,9.695,-4.655,-1.015,0.01,0.0368,0.0254,0.0200,0.0174,2025-06-11T08:03:28.641871
56,-0.3270,-0.6193,0.7681,5.600,-4.865,0.840,0.01,0.0368,0.0508,0.0200,0.0087,2025-06-11T08:03:28.641871
57,-0.3265,-0.6051,0.7774,-0.315,-3.500,1.925,0.01,0.0184,0.0508,0.0100,0.0087,2025-06-11T08:03:28.763056
58,-0.3343,-0.5910,0.7784,-2.415,-5.145,2.520,0.00,0.0368,0.0254,0.0100,0.0174,2025-06-11T08:03:28.763056
59,-0.3343,-0.5812,0.7784,-0.490,-4.165,1.645,0.00,0.0184,0.0254,0.0200,0.0087,2025-06-11T08:03:28.763056
60,-0.3392,-0.5929,0.7915,5.705,-2.240,-1.085,0.01,0.0368,0.0508,0.0100,0.0174,2025-06-11T08:03:28.763056
61,-0.3509,-0.6017,0.7798,6.370,-4.200,-2.520,0.00,0.0368,0.0508,0.0100,0.0087,2025-06-11T08:03:28.764039
62,-0.3431,-0.6105,0.7754,12.775,-4.095,-2.450,0.00,0.0184,0.0254,0.0100,0.0087,2025-06-11T08:03:28.764039
63,-0.3323,-0.6207,0.7710,19.355,-1.575,-1.960,0.01,0.0368,0.0508,0.0100,0.0087,2025-06-11T08:03:28.764039
64,-0.3343,-0.6193,0.7574,18.830,-2.695,-0.525,0.00,0.0184,0.0254,0.0100,0.0087,2025-06-11T08:03:28.764039
65,-0.3348,-0.6129,0.7608,24.290,-2.905,1.260,0.00,0.0368,0.0254,0.0100,0.0174,2025-06-11T08:03:28.764039
66,-0.3353,-0.5919,0.7725,18.900,-2.940,1.890,0.01,0.0368,0.0254,0.0100,0.0087,2025-06-11T08:03:28.813907
67,-0.3416,-0.5734,0.7910,16.835,-3.535,1.435,0.00,0.0368,0.0508,0.0200,0.0174,2025-06-11T08:03:28.813907
68,-0.3450,-0.5602,0.8028,10.290,-4.130,0.105,0.01,0.0368,0.0508,0.0200,0.0087,2025-06-11T08:03:28.813907
69,-0.3465,-0.5558,0.8130,4.445,-4.725,-1.960,0.01,0.0184,0.0254,0.0200,0.0087,2025-06-11T08:03:28.977837
70,-0.3416,-0.5485,0.7984,-2.240,-7.665,-3.955,0.01,0.0184,0.0254,0.0100,0.0087,2025-06-11T08:03:28.977837
71,-0.3377,-0.5690,0.7867,6.930,-7.805,-6.825,0.01,0.0368,0.0508,0.0200,0.0087,2025-06-11T08:03:28.977837
72,-0.3255,-0.5895,0.8081,8.785,-3.290,-7.280,0.01,0.0184,0.0508,0.0100,0.0174,2025-06-11T08:03:28.977837
73,-0.3216,-0.6120,0.8037,11.865,-3.570,-5.215,0.00,0.0368,0.0254,0.0200,0.0087,2025-06-11T08:03:28.977837
74,-0.3206,-0.6085,0.7857,12.075,-5.285,0.595,0.01,0.0184,0.0254,0.0200,0.0087,2025-06-11T08:03:28.977837
75,-0.3265,-0.5890,0.7662,4.725,-6.265,2.450,0.01,0.0368,0.0508,0.0200,0.0087,2025-06-11T08:03:28.977837
76,-0.3367,-0.5553,0.7842,-2.695,-6.090,2.205,0.00,0.0184,0.0254,0.0100,0.0174,2025-06-11T08:03:28.977837
77,-0.3431,-0.5373,0.8140,-26.810,-7.490,1.155,0.00,0.0184,0.0508,0.0200,0.0087,2025-06-11T08:03:28.977837
78,-0.3426,-0.5417,0.8633,-53.515,-10.080,-0.175,0.00,0.0184,0.0000,0.0100,0.0087,2025-06-11T08:03:28.977837
79,-0.3333,-0.5602,0.8525,-41.300,-5.845,-1.400,0.00,0.0184,0.0254,0.0100,0.0087,2025-06-11T08:03:28.977837
80,-0.3309,-0.5758,0.7823,-57.540,-4.095,-2.135,0.01,0.0184,0.0254,0.0100,0.0174,2025-06-11T08:03:28.977837
81,-0.3192,-0.6129,0.7647,-87.150,-3.920,-0.245,0.00,0.0184,0.0254,0.0100,0.0174,2025-06-11T08:03:29.173665
82,-0.3294,-0.6661,0.7505,-70.070,-5.390,0.770,0.00,0.0368,0.0254,0.0200,0.0087,2025-06-11T08:03:29.173665
83,-0.3640,-0.6705,0.6949,-50.470,-17.115,2.240,0.01,0.0184,0.0508,0.0200,0.0087,2025-06-11T08:03:29.173665
84,-0.3387,-0.6583,0.6695,-14.455,-12.215,-1.260,0.00,0.0184,0.0508,0.0100,0.0087,2025-06-11T08:03:29.173665
85,-0.3172,-0.6632,0.7135,0.000,-4.200,-4.690,0.01,0.0368,0.0254,0.0100,0.0174,2025-06-11T08:03:29.173665
86,-0.2996,-0.6617,0.7828,5.390,1.400,1.610,0.00,0.0184,0.0254,0.0100,0.0087,2025-06-11T08:03:29.173665
87,-0.3289,-0.6466,0.7540,-58.695,-13.405,6.650,0.00,0.0184,0.0254,0.0200,0.0087,2025-06-11T08:03:29.173665
88,-0.3206,-0.6476,0.7642,-72.800,-5.705,9.275,0.00,0.0184,0.0254,0.0100,0.0087,2025-06-11T08:03:29.173665
89,-0.3250,-0.6529,0.7623,-86.520,3.745,8.610,0.01,0.0184,0.0508,0.0100,0.0087,2025-06-11T08:03:29.173665
90,-0.3421,-0.6764,0.7252,-98.805,-0.385,10.570,0.00,0.0184,0.0254,0.0100,0.0087,2025-06-11T08:03:29.173665
91,-0.3250,-0.6905,0.7257,-82.810,-2.870,13.230,0.01,0.0184,0.0254,0.0100,0.0087,2025-06-11T08:03:29.173665
92,-0.3304,-0.7276,0.7096,-70.035,1.540,14.735,0.00,0.0184,0.0254,0.0100,0.0087,2025-06-11T08:03:29.173665
93,-0.3318,-0.7554,0.6681,-25.900,4.165,14.595,0.01,0.0368,0.0508,0.0200,0.0174,2025-06-11T08:03:29.173665
94,-0.3006,-0.7847,0.6886,33.775,22.890,24.605,0.01,0.0184,0.0254,0.0100,0.0087,2025-06-11T08:03:29.173665
95,-0.3660,-0.6934,0.5329,-4.305,25.060,43.715,0.00,0.0184,0.0254,0.0100,0.0087,2025-06-11T08:03:29.173665
96,-0.4368,-0.6442,0.3606,27.055,13.685,139.825,0.00,0.0368,0.0254,0.0200,0.0087,2025-06-11T08:03:29.232888
97,-0.4426,-0.6295,0.6686,81.970,4.270,43.015,0.00,0.0184,0.0254,0.0100,0.0087,2025-06-11T08:03:29.232888
98,-0.4050,-0.8164,0.8350,201.355,20.860,78.015,0.00,0.0184,0.0508,0.0100,0.0087,2025-06-11T08:03:29.232888
99,-0.3138,-0.5749,1.0282,298.060,56.175,119.280,0.01,0.0368,0.0508,0.0200,0.0174,2025-06-11T08:03:29.232888
100,-0.3870,-0.6364,0.9941,373.800,216.545,99.190,0.00,0.0368,0.0508,0.0200,0.0087,2025-06-11T08:03:29.378114
101,-0.4743,-0.4987,0.5597,350.910,361.305,132.650,0.01,0.0368,0.0508,0.0100,0.0087,2025-06-11T08:03:29.378114
102,-0.9384,-0.5226,0.2728,204.540,355.670,87.990,0.00,0.0184,0.0254,0.0200,0.0087,2025-06-11T08:03:29.378114
103,-0.9999,-0.5417,0.5012,147.630,328.020,14.875,0.00,0.0184,0.0508,0.0200,0.0174,2025-06-11T08:03:29.378114
104,-0.8013,-0.3723,0.6915,-62.125,-11.060,53.795,0.01,0.0184,0.0254,0.0200,0.0174,2025-06-11T08:03:29.378114
105,-0.8028,-0.2372,0.8960,84.420,-111.265,56.420,0.01,0.0368,0.0508,0.0000,0.0087,2025-06-11T08:03:29.378114
106,-0.6647,-0.0839,0.8389,47.180,-116.270,35.210,0.00,0.0000,0.0508,0.0200,0.0087,2025-06-11T08:03:29.378114
107,-0.6539,-0.0830,0.7330,59.745,-37.520,6.125,0.00,0.0184,0.0254,0.0200,0.0087,2025-06-11T08:03:29.378114
108,-0.6895,-0.1376,0.7037,29.890,-2.625,-15.995,0.00,0.0368,0.0254,0.0100,0.0087,2025-06-11T08:03:29.378114
109,-0.7003,-0.2308,0.7139,25.130,-21.665,-22.645,0.00,0.0184,0.0508,0.0100,0.0087,2025-06-11T08:03:29.378114
110,-0.6832,-0.2977,0.7501,37.555,-51.345,-18.235,0.01,0.0368,0.0254,0.0200,0.0087,2025-06-11T08:03:29.378114
111,-0.6417,-0.3206,0.7710,11.900,-78.400,-9.625,0.01,0.0368,0.0254,0.0100,0.0087,2025-06-11T08:03:29.587772
112,-0.6022,-0.3196,0.7549,-0.350,-81.375,-2.275,0.00,0.0368,0.0254,0.0100,0.0087,2025-06-11T08:03:29.587772
113,-0.6066,-0.3255,0.7462,1.575,-93.730,1.505,0.00,0.0184,0.0508,0.0100,0.0174,2025-06-11T08:03:29.587772
114,-0.6027,-0.3235,0.7296,44.170,-135.170,7.840,0.01,0.0184,0.0508,0.0100,0.0087,2025-06-11T08:03:29.587772
115,-0.5822,-0.3045,0.7544,96.775,-180.775,17.080,0.01,0.0184,0.0254,0.0200,0.0087,2025-06-11T08:03:29.587772
116,-0.4587,-0.2796,0.8018,114.100,-83.230,4.725,0.00,0.0184,0.0254,0.0100,0.0174,2025-06-11T08:03:29.587772
117,-0.4782,-0.3084,0.8672,114.940,19.880,-1.225,0.00,0.0184,0.0254,0.0200,0.0087,2025-06-11T08:03:29.587772
118,-0.5568,-0.3177,0.8730,112.945,19.110,13.685,0.00,0.0184,0.0254,0.0100,0.0000,2025-06-11T08:03:29.587772
119,-0.4407,-0.2347,0.9389,107.695,80.150,19.075,0.01,0.0184,0.0254,0.0100,0.0087,2025-06-11T08:03:29.587772
120,-0.5983,-0.2006,0.7998,78.645,24.080,36.680,0.00,0.0184,0.0508,0.0200,0.0087,2025-06-11T08:03:29.587772
121,-0.6056,-0.1137,0.6891,60.760,-4.480,37.345,0.00,0.0184,0.0254,0.0100,0.0087,2025-06-11T08:03:29.587772
122,-0.7115,0.0649,0.8891,-28.735,-58.485,40.110,0.00,0.0184,0.0254,0.0200,0.0087,2025-06-11T08:03:29.587772
123,-0.5202,0.1435,1.0946,-58.730,-19.110,19.915,0.00,0.0184,0.0508,0.0200,0.0087,2025-06-11T08:03:29.587772
124,-0.5632,0.1606,1.0292,-99.925,6.405,-4.795,0.00,0.0184,0.0254,0.0100,0.0087,2025-06-11T08:03:29.587772
125,-0.6105,0.0386,0.8755,-107.555,16.660,-25.585,0.00,0.0184,0.0254,0.0200,0.0087,2025-06-11T08:03:29.587772
126,-0.6163,-0.1030,0.7793,-60.025,-10.220,-33.355,0.00,0.0184,0.0254,0.0100,0.0087,2025-06-11T08:03:29.587772
127,-0.5793,-0.2167,0.7354,-56.945,-29.715,-35.980,0.00,0.0368,0.0254,0.0200,0.0087,2025-06-11T08:03:29.790720
128,-0.5314,-0.2889,0.7920,-67.655,-16.485,-35.105,0.01,0.0368,0.0508,0.0200,0.0174,2025-06-11T08:03:29.790720
129,-0.5178,-0.3123,0.8047,-105.805,-7.770,-25.900,0.00,0.0184,0.0254,0.0100,0.0087,2025-06-11T08:03:29.790720
130,-0.5690,-0.4060,0.8882,15.435,-22.540,-9.590,0.00,0.0368,0.0508,0.0200,0.0174,2025-06-11T08:03:29.790720
131,-0.4656,-0.2611,0.7818,-115.990,-14.035,2.625,0.00,0.0368,0.0254,0.0100,0.0087,2025-06-11T08:03:29.790720
132,-0.5622,-0.3855,0.8115,-93.625,38.360,2.835,0.00,0.0184,0.0254,0.0100,0.0087,2025-06-11T08:03:29.790720
133,-0.5558,-0.3094,0.7950,-41.300,-6.090,9.345,0.01,0.0184,0.0254,0.0100,0.0087,2025-06-11T08:03:29.790720
134,-0.5832,-0.2850,0.7671,-62.090,-16.065,9.450,0.00,0.0184,0.0254,0.0200,0.0087,2025-06-11T08:03:29.791726
135,-0.5719,-0.2655,0.8662,-30.905,-5.355,0.735,0.01,0.0184,0.0254,0.0200,0.0087,2025-06-11T08:03:29.791726
136,-0.5461,-0.2567,0.8882,-6.230,3.255,-2.940,0.00,0.0184,0.0254,0.0100,0.0087,2025-06-11T08:03:29.791726
137,-0.5675,-0.3001,0.8355,5.075,-9.100,-2.800,0.01,0.0184,0.0254,0.0100,0.0174,2025-06-11T08:03:29.791726
138,-0.5529,-0.3104,0.8062,15.120,-7.175,-4.060,0.00,0.0184,0.0254,0.0200,0.0087,2025-06-11T08:03:29.791726
139,-0.5368,-0.3211,0.7803,2.275,-6.685,-2.975,0.00,0.0184,0.0254,0.0200,0.0087,2025-06-11T08:03:29.791726
140,-0.5544,-0.3411,0.8032,0.105,-4.305,-0.350,0.00,0.0368,0.0254,0.0100,0.0087,2025-06-11T08:03:29.791726
141,-0.5363,-0.3255,0.8325,1.400,-2.940,1.820,0.00,0.0368,0.0254,0.0200,0.0087,2025-06-11T08:03:29.995542
142,-0.5446,-0.3099,0.8184,-1.400,-5.460,4.200,0.01,0.0368,0.0508,0.0200,0.0087,2025-06-11T08:03:29.995542
143,-0.5475,-0.2918,0.8081,0.700,-3.080,3.150,0.00,0.0368,0.0254,0.0200,0.0174,2025-06-11T08:03:29.995542
144,-0.5539,-0.2811,0.8223,-1.400,-2.975,0.805,0.00,0.0368,0.0508,0.0200,0.0174,2025-06-11T08:03:29.995542
145,-0.5553,-0.2821,0.8281,3.010,-6.405,-0.525,0.00,0.0368,0.0508,0.0200,0.0087,2025-06-11T08:03:29.995542
146,-0.5490,-0.2899,0.8267,2.940,-5.565,-1.785,0.01,0.0184,0.0254,0.0100,0.0087,2025-06-11T08:03:29.995913
147,-0.5495,-0.3030,0.8169,2.415,-3.990,-2.415,0.00,0.0368,0.0254,0.0200,0.0087,2025-06-11T08:03:29.995913
148,-0.5441,-0.3128,0.8101,2.450,-4.410,-1.295,0.00,0.0184,0.0254,0.0100,0.0087,2025-06-11T08:03:29.995913
149,-0.5466,-0.3167,0.8120,1.050,-5.180,-0.140,0.00,0.0184,0.0254,0.0100,0.0087,2025-06-11T08:03:29.995913
150,-0.5461,-0.3104,0.8140,1.085,-4.760,0.875,0.01,0.0184,0.0254,0.0100,0.0087,2025-06-11T08:03:29.995913
151,-0.5466,-0.3050,0.8184,-0.700,-3.885,1.575,0.00,0.0184,0.0254,0.0100,0.0087,2025-06-11T08:03:29.995913
152,-0.5451,-0.2977,0.8228,0.525,-4.095,1.295,0.00,0.0184,0.0254,0.0100,0.0087,2025-06-11T08:03:29.995913
153,-0.5495,-0.2913,0.8208,0.630,-4.795,0.735,0.00,0.0184,0.0254,0.0100,0.0087,2025-06-11T08:03:29.996916
154,-0.5485,-0.2908,0.8223,1.085,-4.480,-0.385,0.00,0.0368,0.0254,0.0200,0.0174,2025-06-11T08:03:29.996916
155,-0.5485,-0.2948,0.8213,1.610,-4.515,-0.980,0.00,0.0184,0.0254,0.0200,0.0087,2025-06-11T08:03:29.996916
156,-0.5466,-0.3016,0.8198,1.610,-4.795,-1.050,0.01,0.0184,0.0508,0.0200,0.0087,2025-06-11T08:03:29.996916
157,-0.5451,-0.3055,0.8150,1.610,-4.900,-0.665,0.00,0.0184,0.0508,0.0200,0.0174,2025-06-11T08:03:30.196923
158,-0.5451,-0.3070,0.8140,0.735,-4.480,0.035,0.00,0.0184,0.0508,0.0200,0.0087,2025-06-11T08:03:30.196923
159,-0.5461,-0.3040,0.8174,0.420,-4.340,0.630,0.00,0.0368,0.0254,0.0100,0.0087,2025-06-11T08:03:30.196923
160,-0.5490,-0.3001,0.8189,0.245,-4.270,0.805,0.00,0.0184,0.0508,0.0100,0.0087,2025-06-11T08:03:30.196923
161,-0.5466,-0.2933,0.8189,0.420,-4.375,0.560,0.01,0.0552,0.0254,0.0200,0.0174,2025-06-11T08:03:30.196923
162,-0.5470,-0.2943,0.8223,0.595,-4.515,0.105,0.00,0.0184,0.0254,0.0000,0.0087,2025-06-11T08:03:30.196923
163,-0.5470,-0.2938,0.8237,1.015,-4.550,-0.420,0.00,0.0184,0.0254,0.0100,0.0087,2025-06-11T08:03:30.196923
164,-0.5456,-0.2957,0.8233,1.365,-4.655,-0.630,0.00,0.0184,0.0254,0.0100,0.0087,2025-06-11T08:03:30.196923
165,-0.5456,-0.3016,0.8208,1.260,-4.515,-0.700,0.00,0.0184,0.0508,0.0100,0.0087,2025-06-11T08:03:30.196923
166,-0.5466,-0.3021,0.8174,1.015,-4.620,-0.245,0.00,0.0184,0.0254,0.0200,0.0087,2025-06-11T08:03:30.196923
167,-0.5451,-0.3026,0.8189,0.525,-4.620,0.070,0.00,0.0184,0.0254,0.0100,0.0087,2025-06-11T08:03:30.197918
168,-0.5446,-0.2991,0.8169,0.455,-4.445,0.560,0.00,0.0184,0.0508,0.0100,0.0087,2025-06-11T08:03:30.197918
169,-0.5466,-0.2977,0.8198,0.105,-4.305,0.630,0.01,0.0184,0.0254,0.0100,0.0087,2025-06-11T08:03:30.197918
170,-0.5480,-0.2948,0.8223,0.350,-4.305,0.385,0.00,0.0368,0.0508,0.0200,0.0087,2025-06-11T08:03:30.197918
171,-0.5456,-0.2948,0.8213,0.630,-4.480,0.035,0.00,0.0368,0.0508,0.0100,0.0087,2025-06-11T08:03:30.197918
172,-0.5485,-0.2938,0.8213,0.770,-4.585,-0.350,0.00,0.0184,0.0508,0.0100,0.0087,2025-06-11T08:03:30.403378
173,-0.5446,-0.2967,0.8203,1.085,-4.585,-0.525,0.01,0.0368,0.0254,0.0200,0.0087,2025-06-11T08:03:30.403378
174,-0.5470,-0.2967,0.8198,0.875,-4.585,-0.455,0.01,0.0368,0.0508,0.0100,0.0087,2025-06-11T08:03:30.403378
175,-0.5446,-0.3021,0.8198,0.910,-4.515,-0.210,0.00,0.0368,0.0508,0.0200,0.0174,2025-06-11T08:03:30.403378
176,-0.5456,-0.3001,0.8189,0.525,-4.550,0.105,0.00,0.0368,0.0254,0.0100,0.0087,2025-06-11T08:03:30.403378
177,-0.5461,-0.3001,0.8228,0.385,-4.410,0.245,0.00,0.0184,0.0254,0.0200,0.0087,2025-06-11T08:03:30.403378
178,-0.5466,-0.2972,0.8198,0.280,-4.305,0.350,0.00,0.0184,0.0254,0.0100,0.0087,2025-06-11T08:03:30.403378
179,-0.5470,-0.2938,0.8223,0.280,-4.305,0.280,0.00,0.0368,0.0508,0.0100,0.0087,2025-06-11T08:03:30.403378
180,-0.5480,-0.2938,0.8223,0.560,-4.410,0.070,0.01,0.0368,0.0254,0.0100,0.0087,2025-06-11T08:03:30.403378
181,-0.5480,-0.2943,0.8189,0.560,-4.515,-0.070,0.00,0.0000,0.0254,0.0100,0.0087,2025-06-11T08:03:30.403378
182,-0.5480,-0.2952,0.8228,0.735,-4.550,-0.315,0.01,0.0184,0.0508,0.0200,0.0087,2025-06-11T08:03:30.403378
183,-0.5461,-0.2982,0.8194,0.770,-4.515,-0.280,0.00,0.0368,0.0508,0.0100,0.0174,2025-06-11T08:03:30.403378
184,-0.5441,-0.2967,0.8213,0.595,-4.445,-0.210,0.00,0.0368,0.0254,0.0200,0.0087,2025-06-11T08:03:30.404377
185,-0.5441,-0.2996,0.8198,0.560,-4.480,-0.035,0.00,0.0184,0.0254,0.0100,0.0087,2025-06-11T08:03:30.404377
186,-0.5461,-0.2957,0.8218,0.315,-4.550,0.175,0.00,0.0184,0.0254,0.0100,0.0087,2025-06-11T08:03:30.404377
187,-0.5456,-0.2957,0.8184,0.455,-4.480,0.175,0.01,0.0184,0.0508,0.0100,0.0087,2025-06-11T08:03:30.607507
188,-0.5480,-0.2957,0.8247,0.350,-4.305,0.105,0.00,0.0368,0.0508,0.0200,0.0087,2025-06-11T08:03:30.607507
189,-0.5466,-0.2943,0.8237,0.455,-4.375,-0.035,0.00,0.0368,0.0508,0.0200,0.0087,2025-06-11T08:03:30.607507
190,-0.5470,-0.2952,0.8233,0.525,-4.515,-0.035,0.00,0.0368,0.0508,0.0200,0.0174,2025-06-11T08:03:30.607507
191,-0.5451,-0.2972,0.8228,0.525,-4.515,-0.105,0.01,0.0184,0.0508,0.0100,0.0087,2025-06-11T08:03:30.607507
192,-0.5480,-0.2938,0.8208,0.630,-4.515,-0.105,0.00,0.0184,0.0254,0.0100,0.0087,2025-06-11T08:03:30.607507
193,-0.5441,-0.2952,0.8208,0.455,-4.340,-0.140,0.01,0.0184,0.0254,0.0100,0.0087,2025-06-11T08:03:30.607507
194,-0.5475,-0.2957,0.8213,0.420,-4.445,-0.070,0.00,0.0184,0.0254,0.0100,0.0087,2025-06-11T08:03:30.607507
195,-0.5451,-0.2962,0.8223,0.350,-4.515,0.105,0.00,0.0368,0.0254,0.0200,0.0087,2025-06-11T08:03:30.607507
196,-0.5446,-0.2943,0.8228,0.385,-4.410,0.105,0.00,0.0184,0.0254,0.0200,0.0174,2025-06-11T08:03:30.607507
197,-0.5470,-0.2938,0.8218,0.385,-4.445,-0.035,0.00,0.0368,0.0254,0.0100,0.0087,2025-06-11T08:03:30.607507
198,-0.5461,-0.2962,0.8213,0.385,-4.410,-0.070,0.00,0.0184,0.0254,0.0100,0.0087,2025-06-11T08:03:30.607507
199,-0.5475,-0.2952,0.8203,0.490,-4.480,-0.070,0.00,0.0184,0.0254,0.0100,0.0087,2025-06-11T08:03:30.608510
200,-0.5461,-0.2972,0.8223,0.420,-4.515,0.000,0.01,0.0368,0.0254,0.0100,0.0174,2025-06-11T08:03:30.608510
201,-0.5461,-0.2962,0.8213,0.490,-4.305,0.035,0.00,0.0184,0.0254,0.0200,0.0087,2025-06-11T08:03:30.876296
202,-0.5461,-0.2952,0.8213,0.315,-4.410,0.070,0.01,0.0368,0.0254,0.0200,0.0087,2025-06-11T08:03:30.876296
203,-0.5470,-0.2957,0.8174,0.350,-4.515,0.105,0.01,0.0368,0.0508,0.0200,0.0087,2025-06-11T08:03:30.876296
204,-0.5495,-0.2972,0.8203,0.000,-4.340,0.105,0.01,0.0368,0.0508,0.0200,0.0174,2025-06-11T08:03:30.876296
205,-0.5524,-0.2928,0.8213,0.420,-4.200,0.035,0.01,0.0368,0.0508,0.0200,0.0087,2025-06-11T08:03:30.876296
206,-0.5441,-0.2928,0.8262,0.105,-4.060,-0.210,0.00,0.0368,0.0508,0.0200,0.0087,2025-06-11T08:03:30.876296
207,-0.5480,-0.2967,0.8198,0.875,-4.235,-0.315,0.01,0.0368,0.0508,0.0100,0.0087,2025-06-11T08:03:30.876296
208,-0.5446,-0.2943,0.8237,0.210,-4.095,-0.315,0.01,0.0184,0.0254,0.0200,0.0174,2025-06-11T08:03:30.876296
209,-0.5470,-0.2962,0.8213,0.490,-4.725,-0.070,0.00,0.0368,0.0254,0.0200,0.0087,2025-06-11T08:03:30.876296
210,-0.5485,-0.2977,0.8257,0.245,-4.410,0.280,0.00,0.0184,0.0508,0.0200,0.0087,2025-06-11T08:03:30.876296
211,-0.5451,-0.2933,0.8228,0.140,-3.850,0.245,0.00,0.0368,0.0254,0.0100,0.0000,2025-06-11T08:03:30.876296
212,-0.5446,-0.2918,0.8203,0.175,-4.725,0.350,0.00,0.0184,0.0254,0.0100,0.0087,2025-06-11T08:03:30.876296
213,-0.5480,-0.2908,0.8223,0.070,-4.445,0.035,0.00,0.0184,0.0508,0.0100,0.0087,2025-06-11T08:03:30.876296
214,-0.5436,-0.2913,0.8213,0.595,-4.340,-0.175,0.00,0.0184,0.0254,0.0100,0.0087,2025-06-11T08:03:30.876296
215,-0.5446,-0.2923,0.8228,0.245,-4.690,-0.210,0.00,0.0184,0.0254,0.0100,0.0087,2025-06-11T08:03:30.876296
216,-0.5461,-0.2957,0.8208,0.700,-4.515,-0.315,0.00,0.0368,0.0254,0.0100,0.0087,2025-06-11T08:03:30.876296
217,-0.5422,-0.2948,0.8213,0.245,-4.235,-0.140,0.00,0.0368,0.0254,0.0100,0.0174,2025-06-11T08:03:30.876296
218,-0.5427,-0.2962,0.8213,0.315,-4.585,0.000,0.00,0.0368,0.0508,0.0100,0.0087,2025-06-11T08:03:31.018264
219,-0.5461,-0.2948,0.8208,0.140,-4.375,0.175,0.00,0.0368,0.0508,0.0200,0.0087,2025-06-11T08:03:31.018264
220,-0.5436,-0.2933,0.8213,0.070,-4.445,0.140,0.00,0.0368,0.0254,0.0200,0.0087,2025-06-11T08:03:31.018264
221,-0.5466,-0.2913,0.8242,0.420,-4.655,0.280,0.01,0.0184,0.0254,0.0100,0.0087,2025-06-11T08:03:31.018264
222,-0.5466,-0.2933,0.8242,-0.035,-4.165,0.105,0.00,0.0184,0.0254,0.0100,0.0087,2025-06-11T08:03:31.018264
223,-0.5441,-0.2913,0.8213,0.455,-4.445,-0.035,0.00,0.0184,0.0508,0.0100,0.0087,2025-06-11T08:03:31.018264
224,-0.5490,-0.2933,0.8257,0.315,-4.410,-0.140,0.00,0.0184,0.0254,0.0100,0.0087,2025-06-11T08:03:31.018264
225,-0.5475,-0.2923,0.8223,0.560,-4.550,-0.210,0.00,0.0368,0.0254,0.0100,0.0087,2025-06-11T08:03:31.018264
226,-0.5451,-0.2948,0.8262,0.210,-4.375,-0.105,0.01,0.0184,0.0508,0.0100,0.0087,2025-06-11T08:03:31.019124
227,-0.5441,-0.2957,0.8233,0.385,-4.375,0.035,0.00,0.0184,0.0254,0.0100,0.0174,2025-06-11T08:03:31.019124
228,-0.5456,-0.2948,0.8233,0.280,-4.305,0.070,0.01,0.0368,0.0254,0.0100,0.0087,2025-06-11T08:03:31.019124
229,-0.5446,-0.2933,0.8228,0.175,-4.375,0.070,0.00,0.0184,0.0508,0.0100,0.0087,2025-06-11T08:03:31.019124
230,-0.5466,-0.2923,0.8218,0.350,-4.410,0.105,0.00,0.0184,0.0508,0.0200,0.0087,2025-06-11T08:03:31.019124
231,-0.5461,-0.2918,0.8242,0.035,-4.340,0.070,0.01,0.0184,0.0254,0.0100,0.0087,2025-06-11T08:03:31.019124
232,-0.5451,-0.2933,0.8252,0.455,-4.305,-0.105,0.01,0.0368,0.0508,0.0200,0.0087,2025-06-11T08:03:31.019124
233,-0.5456,-0.2904,0.8213,0.455,-4.060,0.035,0.00,0.0184,0.0508,0.0100,0.0087,2025-06-11T08:03:31.221272
234,-0.5480,-0.2928,0.8154,0.140,-4.375,0.000,0.01,0.0368,0.0508,0.0200,0.0087,2025-06-11T08:03:31.221272
235,-0.5480,-0.2913,0.8272,-0.035,-5.005,-0.070,0.01,0.0368,0.0254,0.0200,0.0174,2025-06-11T08:03:31.221272
236,-0.5431,-0.2899,0.8247,0.455,-4.725,0.210,0.00,0.0368,0.0508,0.0100,0.0174,2025-06-11T08:03:31.221272
237,-0.5470,-0.2928,0.8281,0.035,-3.605,-0.210,0.01,0.0184,0.0254,0.0100,0.0087,2025-06-11T08:03:31.222270
238,-0.5436,-0.2904,0.8203,0.560,-4.235,-0.210,0.00,0.0184,0.0508,0.0100,0.0087,2025-06-11T08:03:31.222270
239,-0.5446,-0.2957,0.8242,0.455,-4.760,-0.245,0.00,0.0184,0.0254,0.0100,0.0087,2025-06-11T08:03:31.222270
240,-0.5475,-0.2948,0.8213,0.420,-4.445,-0.315,0.01,0.0368,0.0254,0.0100,0.0087,2025-06-11T08:03:31.222270
241,-0.5417,-0.2957,0.8286,0.105,-4.060,0.140,0.00,0.0368,0.0508,0.0100,0.0087,2025-06-11T08:03:31.222270
242,-0.5470,-0.2957,0.8228,0.070,-4.130,0.350,0.00,0.0184,0.0254,0.0100,0.0174,2025-06-11T08:03:31.222270
243,-0.5480,-0.2894,0.8189,0.455,-4.095,0.385,0.00,0.0184,0.0508,0.0100,0.0087,2025-06-11T08:03:31.222270
244,-0.5470,-0.2899,0.8194,-0.420,-4.585,0.385,0.01,0.0184,0.0254,0.0100,0.0087,2025-06-11T08:03:31.222270
245,-0.5461,-0.2879,0.8276,0.455,-4.445,0.140,0.01,0.0184,0.0254,0.0100,0.0087,2025-06-11T08:03:31.222270
246,-0.5461,-0.2889,0.8281,0.140,-4.305,-0.070,0.00,0.0368,0.0254,0.0100,0.0087,2025-06-11T08:03:31.222270
247,-0.5441,-0.2913,0.8242,0.665,-4.270,-0.350,0.00,0.0368,0.0254,0.0100,0.0087,2025-06-11T08:03:31.222270
248,-0.5461,-0.2943,0.8208,0.595,-4.410,-0.455,0.00,0.0184,0.0254,0.0100,0.0087,2025-06-11T08:03:31.270311
249,-0.5475,-0.2952,0.8223,0.385,-4.270,-0.385,0.00,0.0184,0.0508,0.0200,0.0174,2025-06-11T08:03:31.270311
250,-0.5446,-0.2948,0.8242,0.455,-4.235,8.855,0.01,0.0000,0.0508,0.0100,0.0087,2025-06-11T08:03:31.270311
251,-0.5461,-0.2987,0.8179,0.035,-4.130,0.210,0.00,0.0368,0.0254,0.0200,0.0087,2025-06-11T08:03:31.270311
252,-0.5461,-0.2923,0.8247,-0.175,-4.130,0.525,0.01,0.0368,0.0508,0.0100,0.0087,2025-06-11T08:03:31.426970
253,-0.5490,-0.2918,0.8252,0.105,-4.410,0.350,0.01,0.0184,0.0508,0.0200,0.0087,2025-06-11T08:03:31.426970
254,-0.5461,-0.2884,0.8247,0.035,-4.375,0.210,0.00,0.0368,0.0254,0.0200,0.0087,2025-06-11T08:03:31.426970
255,-0.5456,-0.2889,0.8242,0.280,-4.480,-0.035,0.00,0.0184,0.0254,0.0100,0.0087,2025-06-11T08:03:31.426970
256,-0.5461,-0.2889,0.8257,0.490,-4.410,-0.315,0.00,0.0184,0.0254,0.0100,0.0087,2025-06-11T08:03:31.426970
257,-0.5466,-0.2908,0.8252,0.525,-4.620,-0.245,0.00,0.0184,0.0254,0.0100,0.0087,2025-06-11T08:03:31.426970
258,-0.5451,-0.2933,0.8233,0.525,-4.340,-0.350,0.01,0.0184,0.0254,0.0100,0.0087,2025-06-11T08:03:31.426970
259,-0.5446,-0.2938,0.8237,0.385,-4.340,-0.140,0.00,0.0368,0.0254,0.0100,0.0087,2025-06-11T08:03:31.426970
260,-0.5451,-0.2933,0.8218,0.070,-4.585,0.105,0.00,0.0184,0.0254,0.0100,0.0087,2025-06-11T08:03:31.426970
261,-0.5427,-0.2928,0.8257,0.175,-4.235,0.175,0.00,0.0184,0.0254,0.0000,0.0174,2025-06-11T08:03:31.426970
262,-0.5461,-0.2928,0.8247,-0.035,-4.305,0.350,0.00,0.0184,0.0508,0.0100,0.0087,2025-06-11T08:03:31.426970
263,-0.5427,-0.2894,0.8233,0.000,-4.270,0.175,0.00,0.0368,0.0508,0.0100,0.0087,2025-06-11T08:03:31.636813
264,-0.5470,-0.2874,0.8242,0.245,-4.340,0.140,0.00,0.0368,0.0508,0.0100,0.0174,2025-06-11T08:03:31.636813
265,-0.5470,-0.2889,0.8242,0.105,-4.270,-8.960,0.00,0.0368,0.0508,0.0100,0.0087,2025-06-11T08:03:31.636813
266,-0.5436,-0.2889,0.8252,0.280,-4.410,-0.175,0.00,0.0184,0.0254,0.0100,0.0087,2025-06-11T08:03:31.636813
267,-0.5451,-0.2918,0.8237,0.210,-4.270,-0.175,0.00,0.0184,0.0254,0.0100,0.0087,2025-06-11T08:03:31.636813
268,-0.5451,-0.2923,0.8242,0.315,-4.235,-0.280,0.01,0.0184,0.0254,0.0100,0.0087,2025-06-11T08:03:31.636813
269,-0.5451,-0.2948,0.8237,0.175,-4.375,-0.105,0.01,0.0184,0.0254,0.0100,0.0087,2025-06-11T08:03:31.637819
270,-0.4499,-0.2908,0.9701,1.680,3.185,-2.800,0.00,0.0184,0.0254,0.0100,0.0087,2025-06-11T08:03:31.637819
271,-0.5134,-0.1640,0.8159,6.090,0.630,-6.510,0.01,0.0184,0.0254,0.0100,0.0087,2025-06-11T08:03:31.637819
272,-0.6168,-0.2494,0.8106,5.985,-3.465,-9.030,0.00,0.0184,0.0508,0.0100,0.0000,2025-06-11T08:03:31.637819
273,-0.5675,-0.3548,0.7666,5.705,-4.655,-7.700,0.00,0.0368,0.0254,0.0100,0.0087,2025-06-11T08:03:31.637819
274,-0.5934,-0.2699,0.7910,9.135,-17.955,-8.400,0.00,0.0368,0.0254,0.0100,0.0087,2025-06-11T08:03:31.637819
275,-0.4387,-0.3245,0.7710,5.320,-31.115,-4.270,0.00,0.0184,0.0508,0.0200,0.0087,2025-06-11T08:03:31.638812
276,-0.5544,-0.4241,0.8969,-3.570,-15.155,7.560,0.00,0.0184,0.0508,0.0100,0.0087,2025-06-11T08:03:31.638812
277,-0.4865,-0.3201,0.7891,-7.630,23.415,9.205,0.01,0.0184,0.0508,0.0100,0.0087,2025-06-11T08:03:31.638812
278,-0.5104,-0.2655,0.8179,-13.510,-9.730,14.700,0.01,0.0368,0.0508,0.0100,0.0087,2025-06-11T08:03:31.638812
279,-0.5905,-0.2738,0.7691,-4.725,-12.250,10.290,0.01,0.0184,0.0508,0.0100,0.0087,2025-06-11T08:03:31.842446
280,-0.5568,-0.2089,0.8501,-4.900,-2.695,2.240,0.01,0.0368,0.0508,0.0100,0.0174,2025-06-11T08:03:31.842446
281,-0.5397,-0.2147,0.9121,1.785,-2.520,-2.730,0.00,0.0000,0.0508,0.0200,0.0087,2025-06-11T08:03:31.842446
282,-0.5675,-0.3743,0.8418,6.055,-4.200,-6.335,0.00,0.0368,0.0254,0.0100,0.0087,2025-06-11T08:03:31.842446
283,-0.5397,-0.2933,0.7950,7.350,-6.405,-7.315,0.00,0.0184,0.0254,0.0100,0.0087,2025-06-11T08:03:31.842446
284,-0.5358,-0.3250,0.7935,3.745,-6.650,-6.230,0.01,0.0184,0.0254,0.0100,0.0087,2025-06-11T08:03:31.842446
285,-0.5329,-0.3377,0.8213,1.155,-5.670,-1.575,0.00,0.0184,0.0254,0.0200,0.0087,2025-06-11T08:03:31.842446
286,-0.5280,-0.3270,0.8408,-1.575,-3.990,3.220,0.00,0.0184,0.0508,0.0100,0.0087,2025-06-11T08:03:31.842446
287,-0.5363,-0.3084,0.8281,-3.640,-2.170,5.740,0.00,0.0184,0.0254,0.0100,0.0087,2025-06-11T08:03:31.842446
288,-0.5470,-0.2777,0.8072,-3.290,-2.590,5.075,0.00,0.0368,0.0254,0.0100,0.0087,2025-06-11T08:03:31.842446
289,-0.5539,-0.2630,0.8281,-2.555,-4.655,2.835,0.00,0.0184,0.0508,0.0100,0.0087,2025-06-11T08:03:31.842446
290,-0.5505,-0.2562,0.8452,0.595,-5.495,-0.665,0.00,0.0184,0.0508,0.0100,0.0087,2025-06-11T08:03:31.842446
291,-0.5451,-0.2640,0.8462,1.750,-4.445,-2.835,0.00,0.0184,0.0254,0.0100,0.0087,2025-06-11T08:03:31.842446
292,-0.5544,0.0283,0.8154,15.225,0.070,-9.100,0.00,0.0184,0.0508,0.0200,0.0087,2025-06-11T08:03:31.842446
293,-0.6329,-0.3128,0.9662,19.460,-28.945,-46.200,0.00,0.0184,0.0254,0.0200,0.0087,2025-06-11T08:03:31.842446
294,-0.4548,-0.3987,0.9506,47.145,-19.950,-43.540,0.01,0.0184,0.0508,0.0200,0.0174,2025-06-11T08:03:32.073427
295,-0.4324,-0.4211,0.7574,13.125,-0.350,-10.990,0.00,0.0184,0.0254,0.0200,0.0087,2025-06-11T08:03:32.073427
296,-0.5280,-0.3572,0.7330,-2.835,19.915,-9.450,0.01,0.0184,0.0254,0.0200,0.0174,2025-06-11T08:03:32.073427
297,-0.5441,-0.3182,0.7584,15.295,2.660,-17.290,0.01,0.0368,0.0762,0.0200,0.0087,2025-06-11T08:03:32.073427
298,-0.5480,-0.3279,0.7603,-1.050,-19.285,-14.875,0.00,0.0368,0.0508,0.0100,0.0087,2025-06-11T08:03:32.073427
299,-0.4690,-0.3850,0.9165,2.765,-11.865,-5.145,0.01,0.0184,0.0254,0.0100,0.0087,2025-06-11T08:03:32.073427
300,-0.6778,-0.0961,0.7032,18.270,-9.345,-11.795,0.00,0.0184,0.0254,0.0200,0.0087,2025-06-11T08:03:32.073427
301,-0.5280,-0.1547,0.8311,-14.315,-15.820,-30.730,0.00,0.0184,0.0254,0.0100,0.0087,2025-06-11T08:03:32.073427
302,-0.7344,-0.5998,0.6983,-1.505,-52.465,29.295,0.00,0.0184,0.0508,0.0200,0.0087,2025-06-11T08:03:32.073427
303,-0.9423,-0.4065,0.8477,4.410,-0.595,95.095,0.00,0.0184,0.0508,0.0100,0.0087,2025-06-11T08:03:32.073427
304,-1.3810,-0.2098,0.6232,14.770,108.885,131.005,0.01,0.0184,0.0254,0.0100,0.0087,2025-06-11T08:03:32.073427
305,-1.4137,-0.0464,0.6007,23.765,155.470,140.315,0.00,0.0368,0.0254,0.0100,0.0087,2025-06-11T08:03:32.073427
306,-0.7745,0.1625,0.4080,31.710,171.220,151.445,0.00,0.0184,0.0254,0.0200,0.0087,2025-06-11T08:03:32.073427
307,-0.6808,0.0307,1.1014,36.120,140.455,167.650,0.00,0.0184,0.0254,0.0100,0.0087,2025-06-11T08:03:32.073427
308,-0.1810,0.0869,1.4484,36.435,131.320,169.715,0.00,0.0184,0.0508,0.0200,0.0174,2025-06-11T08:03:32.073427
309,0.2157,0.2020,0.8789,78.435,61.390,167.895,0.01,0.0368,0.0508,0.0100,0.0087,2025-06-11T08:03:32.293693
310,-0.3777,-0.3787,0.9404,71.365,18.375,156.135,0.00,0.0184,0.0254,0.0100,0.0087,2025-06-11T08:03:32.293693
311,-0.5607,-0.3328,0.9667,94.360,24.255,133.805,0.01,0.0368,0.0254,0.0100,0.0087,2025-06-11T08:03:32.293693
312,-0.6603,-0.4104,0.7369,86.555,-25.970,109.585,0.00,0.0184,0.0508,0.0100,0.0174,2025-06-11T08:03:32.293693
313,-0.6827,-0.2040,0.8115,60.060,-63.665,76.195,0.00,0.0184,0.0508,0.0100,0.0174,2025-06-11T08:03:32.293693
314,-0.6032,-0.2313,0.7139,32.655,-91.735,58.905,0.00,0.0368,0.0254,0.0200,0.0087,2025-06-11T08:03:32.293693
315,-0.5939,-0.1298,0.6671,22.050,-67.200,37.660,0.00,0.0368,0.0508,0.0100,0.0087,2025-06-11T08:03:32.293693
316,-0.7271,0.0059,0.7178,2.345,-20.020,19.915,0.00,0.0184,0.0254,0.0200,0.0087,2025-06-11T08:03:32.293693
317,-0.6978,0.0917,0.6842,-2.065,19.565,21.420,0.01,0.0184,0.0254,0.0200,0.0087,2025-06-11T08:03:32.293693
318,-0.7832,0.1293,0.7081,-4.235,2.765,49.140,0.00,0.0184,0.0508,0.0100,0.0087,2025-06-11T08:03:32.293693
319,-0.8359,0.1020,0.8965,2.415,3.710,67.025,0.00,0.0368,0.0254,0.0100,0.0087,2025-06-11T08:03:32.293693
320,-0.8150,0.0810,0.8994,31.710,-4.795,72.415,0.00,0.0368,0.0254,0.0100,0.0087,2025-06-11T08:03:32.293693
321,-0.8740,0.1376,1.0609,20.860,-2.170,55.965,0.00,0.0184,0.0254,0.0100,0.0087,2025-06-11T08:03:32.293693
322,-0.8086,0.1039,1.1136,20.405,-9.940,44.065,0.00,0.0184,0.0254,0.0100,0.0087,2025-06-11T08:03:32.294654
323,-0.8335,0.1210,1.0721,40.005,-37.975,33.180,0.01,0.0184,0.0254,0.0100,0.0087,2025-06-11T08:03:32.294654
324,-0.8921,0.2601,1.0634,43.680,-85.995,48.335,0.01,0.0368,0.0508,0.0100,0.0174,2025-06-11T08:03:32.294654
325,-0.8179,0.2889,1.0185,63.350,-130.760,83.160,0.01,0.0184,0.0508,0.0200,0.0174,2025-06-11T08:03:32.294654
326,-0.8511,0.3016,0.9438,89.355,-155.540,121.450,0.00,0.0184,0.0254,0.0200,0.0087,2025-06-11T08:03:32.477358
327,-0.6578,0.2743,0.9116,95.620,-167.090,146.650,0.00,0.0184,0.0508,0.0200,0.0087,2025-06-11T08:03:32.477358
328,-0.6373,0.1649,0.9048,101.255,-178.255,151.795,0.01,0.0184,0.0508,0.0200,0.0174,2025-06-11T08:03:32.477358
329,-0.6637,0.2186,0.8389,119.945,-171.150,141.225,0.00,0.0184,0.0254,0.0100,0.0087,2025-06-11T08:03:32.477358
330,-0.3738,0.0991,1.0541,119.665,-173.670,106.050,0.01,0.0184,0.0254,0.0200,0.0087,2025-06-11T08:03:32.477358
331,-0.5651,0.1381,0.9867,117.775,-133.700,73.115,0.00,0.0368,0.0254,0.0100,0.0087,2025-06-11T08:03:32.477358
332,-0.4680,0.3640,0.8281,104.720,-124.635,75.495,0.00,0.0184,0.0254,0.0100,0.0087,2025-06-11T08:03:32.477358
333,-0.4441,0.3148,0.8545,124.845,-125.300,89.845,0.00,0.0184,0.0254,0.0100,0.0174,2025-06-11T08:03:32.477358
334,-0.4934,0.5017,0.7808,128.555,-120.330,93.835,0.00,0.0368,0.0508,0.0100,0.0087,2025-06-11T08:03:32.477358
335,-0.3592,0.4992,0.6978,122.465,-121.240,129.920,0.00,0.0184,0.0254,0.0100,0.0087,2025-06-11T08:03:32.477358
336,-0.2167,0.7183,1.2200,149.590,-100.520,139.370,0.00,0.0368,0.0254,0.0100,0.0000,2025-06-11T08:03:32.477358
337,-0.1718,0.5222,0.8633,139.160,-138.950,173.355,0.00,0.0184,0.0254,0.0100,0.0087,2025-06-11T08:03:32.477358
338,-0.1684,0.5114,0.7056,80.500,-135.625,159.040,0.00,0.0184,0.0254,0.0200,0.0087,2025-06-11T08:03:32.478355
339,-0.1850,0.4368,0.6066,88.200,-107.590,144.550,0.00,0.0368,0.0508,0.0200,0.0087,2025-06-11T08:03:32.669795
340,-0.1142,0.5295,0.5983,94.780,-71.575,126.665,0.00,0.0368,0.0254,0.0100,0.0087,2025-06-11T08:03:32.669795
341,0.0224,0.5495,0.5729,76.125,-53.060,117.425,0.01,0.0368,0.0254,0.0200,0.0174,2025-06-11T08:03:32.669795
342,0.0498,0.5290,0.5905,69.860,-49.665,107.730,0.00,0.0368,0.0508,0.0100,0.0174,2025-06-11T08:03:32.669795
343,0.0181,0.5822,0.5734,60.900,-50.610,97.685,0.00,0.0184,0.0508,0.0100,0.0087,2025-06-11T08:03:32.669795
344,0.0547,0.6080,0.5802,48.160,-36.540,87.045,0.01,0.0368,0.0254,0.0200,0.0087,2025-06-11T08:03:32.669795
345,0.1020,0.6422,0.5646,50.645,-20.125,79.835,0.01,0.0368,0.0254,0.0200,0.0087,2025-06-11T08:03:32.669795
346,0.1025,0.6339,0.5758,51.555,11.025,66.675,0.00,0.0184,0.0254,0.0100,0.0087,2025-06-11T08:03:32.669795
347,0.0800,0.6398,0.6442,50.470,26.670,49.175,0.01,0.0184,0.0508,0.0100,0.0087,2025-06-11T08:03:32.669795
348,0.1161,0.4480,0.6149,34.020,35.700,24.920,0.00,0.0368,0.0254,0.0200,0.0087,2025-06-11T08:03:32.669795
349,0.0820,0.4519,0.6842,10.815,39.690,3.430,0.00,0.0368,0.0508,0.0100,0.0087,2025-06-11T08:03:32.669795
350,0.1771,0.6432,0.6891,-1.470,38.920,-12.740,0.00,0.0368,0.0254,0.0100,0.0087,2025-06-11T08:03:32.669795
351,0.1298,0.6642,0.6852,-4.060,30.100,-10.220,0.00,0.0184,0.0508,0.0000,0.0087,2025-06-11T08:03:32.838766
352,0.0717,0.6178,0.7369,-10.570,29.470,-15.820,0.00,0.0184,0.0508,0.0100,0.0087,2025-06-11T08:03:32.838766
353,0.0312,0.5797,0.6910,-13.930,29.435,-19.600,0.00,0.0184,0.0254,0.0200,0.0087,2025-06-11T08:03:32.838766
354,0.1327,0.6456,0.6637,-11.550,28.560,-23.135,0.00,0.0368,0.0508,0.0100,0.0087,2025-06-11T08:03:32.893965
355,0.0854,0.6344,0.7159,-21.735,23.520,-29.575,0.01,0.0184,0.0254,0.0200,0.0087,2025-06-11T08:03:32.893965
356,0.0010,0.6339,0.7169,-39.515,12.530,-52.745,0.00,0.0184,0.0254,0.0200,0.0087,2025-06-11T08:03:32.893965
357,0.0117,0.6476,0.6651,-65.275,-2.765,-76.405,0.01,0.0368,0.0254,0.0100,0.0087,2025-06-11T08:03:32.893965
358,0.1396,0.6788,0.6300,-73.290,-6.265,-93.380,0.00,0.0368,0.0254,0.0100,0.0174,2025-06-11T08:03:32.893965
359,0.1464,0.4963,0.5895,-106.400,-31.535,-113.435,0.00,0.0184,0.0254,0.0200,0.0174,2025-06-11T08:03:32.893965
360,0.2128,0.2572,0.6564,-161.560,-55.090,-150.815,0.00,0.0368,0.0508,0.0100,0.0087,2025-06-11T08:03:32.893965
361,0.3562,-0.1064,0.8564,-188.475,-37.625,-209.125,0.00,0.0184,0.0254,0.0100,0.0087,2025-06-11T08:03:32.893965
362,0.0864,-0.1430,0.9423,-179.445,50.120,-268.100,0.00,0.0184,0.0254,0.0100,0.0087,2025-06-11T08:03:32.893965
363,-0.5939,-0.3831,0.4997,-189.910,82.635,-331.800,0.01,0.0000,0.0000,0.0100,0.0087,2025-06-11T08:03:32.893965
364,-0.4338,-0.0156,0.9487,-209.125,166.145,-337.435,0.00,0.0184,0.0254,0.0100,0.0174,2025-06-11T08:03:32.893965
365,-1.2288,0.1054,1.7470,-177.415,244.510,-317.975,0.00,0.0184,0.0254,0.0100,0.0174,2025-06-11T08:03:32.893965
366,0.0986,0.8725,1.0165,-155.365,208.005,-291.760,0.00,0.0184,0.0508,0.0100,0.0087,2025-06-11T08:03:32.893965
367,-0.7569,0.9453,1.4713,-243.320,163.415,-214.690,0.00,0.0184,0.0254,0.0200,0.0087,2025-06-11T08:03:32.893965
368,-0.6510,1.4938,0.9614,-67.655,25.900,-69.615,0.00,0.0000,0.0254,0.0100,0.0087,2025-06-11T08:03:32.893965
369,-0.4338,1.5196,1.0990,14.665,-16.380,35.665,0.01,0.0368,0.0254,0.0200,0.0174,2025-06-11T08:03:32.893965
370,-0.3309,1.1497,1.2317,117.180,-168.315,229.565,0.00,0.0184,0.0508,0.0200,0.0174,2025-06-11T08:03:32.893965
371,-0.6349,0.8833,1.0404,203.875,-211.610,318.850,0.01,0.0368,0.0254,0.0200,0.0174,2025-06-11T08:03:33.098372
372,-0.4587,0.5207,0.7340,163.870,-181.510,356.405,0.00,0.0368,0.0508,0.0100,0.0087,2025-06-11T08:03:33.098372
373,-0.2064,-0.1337,0.6505,139.755,-91.910,306.915,0.00,0.0368,0.0254,0.0200,0.0087,2025-06-11T08:03:33.098779
374,-0.6632,-0.0771,0.5861,92.190,-7.560,172.935,0.00,0.0368,0.0508,0.0200,0.0174,2025-06-11T08:03:33.098779
375,-0.5290,-0.1420,0.6793,20.160,52.850,43.820,0.00,0.0184,0.0508,0.0200,0.0174,2025-06-11T08:03:33.098779
376,-0.4294,0.0356,0.7232,-70.595,80.290,-89.565,0.00,0.0184,0.0254,0.0100,0.0087,2025-06-11T08:03:33.099199
377,-0.3455,0.3323,0.8111,-105.210,71.050,-112.735,0.00,0.0184,0.0508,0.0100,0.0087,2025-06-11T08:03:33.099199
378,-0.2089,0.6466,1.1048,-41.125,81.340,-59.570,0.01,0.0184,0.0508,0.0200,0.0087,2025-06-11T08:03:33.099199
379,-0.2811,0.6773,1.2659,28.035,84.980,-14.910,0.01,0.0184,0.0254,0.0200,0.0174,2025-06-11T08:03:33.099772
380,-0.3592,0.5427,1.3786,-5.810,63.105,8.540,0.00,0.0368,0.0254,0.0100,0.0087,2025-06-11T08:03:33.099772
381,-0.3699,0.5104,1.3264,15.225,-19.215,9.450,0.00,0.0184,0.0254,0.0100,0.0087,2025-06-11T08:03:33.099772
382,-0.4211,0.5046,1.2927,4.935,-84.910,15.925,0.01,0.0000,0.0254,0.0100,0.0087,2025-06-11T08:03:33.099772
383,-0.3948,0.3279,1.1814,-1.575,-144.690,19.180,0.00,0.0368,0.0254,0.0100,0.0087,2025-06-11T08:03:33.099772
384,-0.3338,0.3084,0.9545,-3.395,-151.725,-8.890,0.01,0.0368,0.0508,0.0100,0.0087,2025-06-11T08:03:33.099772
385,-0.2826,0.3006,0.7437,-18.445,-125.440,-26.110,0.00,0.0368,0.0508,0.0100,0.0087,2025-06-11T08:03:33.270609
386,-0.2747,0.2830,0.5461,-35.140,-82.355,-53.550,0.00,0.0368,0.0508,0.0200,0.0174,2025-06-11T08:03:33.270609
387,-0.1220,0.3211,0.5046,-53.865,-23.555,-87.990,0.00,0.0368,0.0254,0.0200,0.0087,2025-06-11T08:03:33.270609
388,-0.1396,0.3426,0.5231,-76.230,35.805,-104.580,0.00,0.0368,0.0508,0.0200,0.0087,2025-06-11T08:03:33.270609
389,-0.1254,0.3235,0.6022,-75.285,79.275,-104.090,0.01,0.0368,0.0508,0.0300,0.0174,2025-06-11T08:03:33.270609
390,-0.1484,0.4607,0.8003,-70.210,97.965,-67.445,0.01,0.0184,0.0254,0.0200,0.0087,2025-06-11T08:03:33.270609
391,-0.2128,0.4158,0.9980,-65.135,104.020,-62.755,0.00,0.0184,0.0254,0.0100,0.0087,2025-06-11T08:03:33.271607
392,-0.4226,0.3684,1.0853,-53.165,84.070,-45.255,0.00,0.0184,0.0254,0.0100,0.0087,2025-06-11T08:03:33.271607
393,-0.3826,0.2679,1.1395,-51.870,58.380,-54.985,0.00,0.0184,0.0254,0.0200,0.0087,2025-06-11T08:03:33.271607
394,-0.4963,0.3021,1.0214,-45.080,19.775,-59.535,0.01,0.0184,0.0254,0.0100,0.0087,2025-06-11T08:03:33.271607
395,-0.3743,0.2250,1.0214,-45.500,-6.615,-51.660,0.00,0.0368,0.0254,0.0100,0.0087,2025-06-11T08:03:33.271607
396,-0.8018,0.4451,0.9833,-28.105,-7.910,-43.330,0.01,0.0368,0.0254,0.0200,0.0174,2025-06-11T08:03:33.271607
397,-0.7174,0.5051,0.9252,-15.995,22.365,-41.545,0.00,0.0184,0.0254,0.0100,0.0087,2025-06-11T08:03:33.271607
398,-0.4368,0.3528,0.8608,-9.415,38.150,-37.310,0.00,0.0184,0.0508,0.0200,0.0087,2025-06-11T08:03:33.271607
399,-0.1976,0.2674,0.8608,3.360,29.015,-29.680,0.00,0.0184,0.0254,0.0100,0.0087,2025-06-11T08:03:33.482656
400,-0.0649,0.2455,0.9262,-0.875,23.625,-13.930,0.00,0.0184,0.0254,0.0200,0.0087,2025-06-11T08:03:33.482656
401,-0.1074,0.1942,0.9984,7.525,21.560,-1.925,0.00,0.0184,0.0508,0.0200,0.0087,2025-06-11T08:03:33.482656
402,-0.1723,0.3318,0.9145,3.920,-23.660,28.595,0.00,0.0184,0.0254,0.0200,0.0087,2025-06-11T08:03:33.482656
403,-0.4719,0.3655,1.1405,21.980,-30.695,53.515,0.01,0.0368,0.0508,0.0200,0.0087,2025-06-11T08:03:33.482656
404,-0.5270,0.2323,0.9760,23.485,-36.890,53.305,0.01,0.0184,0.0254,0.0200,0.0087,2025-06-11T08:03:33.482656
405,-0.4416,0.3680,1.1434,58.135,-52.220,63.840,0.01,0.0184,0.0508,0.0200,0.0087,2025-06-11T08:03:33.482656
406,-0.5675,0.3577,1.0643,51.345,-86.590,104.300,0.00,0.0184,0.0254,0.0100,0.0087,2025-06-11T08:03:33.482656
407,-0.4636,0.4046,1.1092,94.920,-113.610,123.165,0.00,0.0184,0.0254,0.0200,0.0087,2025-06-11T08:03:33.482656
408,-0.4246,0.3538,1.0097,82.250,-122.115,148.890,0.00,0.0184,0.0254,0.0100,0.0087,2025-06-11T08:03:33.482656
409,-0.3187,0.3123,0.9960,106.435,-136.605,142.800,0.00,0.0184,0.0508,0.0100,0.0087,2025-06-11T08:03:33.482656
410,-0.2347,0.3465,0.8901,53.305,-132.475,120.470,0.00,0.0368,0.0254,0.0100,0.0174,2025-06-11T08:03:33.482656
411,-0.2181,0.2606,0.7823,56.175,-102.550,84.525,0.00,0.0184,0.0254,0.0100,0.0087,2025-06-11T08:03:33.482656
412,-0.1576,0.2577,0.6930,33.915,-77.385,53.445,0.00,0.0184,0.0254,0.0200,0.0087,2025-06-11T08:03:33.482656
413,-0.0996,0.2879,0.6881,61.775,-28.735,17.815,0.00,0.0184,0.0254,0.0100,0.0087,2025-06-11T08:03:33.482656
414,-0.0010,0.3909,0.7730,26.075,39.165,-3.815,0.01,0.0184,0.0508,0.0200,0.0174,2025-06-11T08:03:33.785797
415,-0.0063,0.3528,0.5192,-13.125,49.980,-20.475,0.00,0.0184,0.0508,0.0100,0.0087,2025-06-11T08:03:33.785797
416,-0.0039,0.3255,0.5075,-45.045,59.010,-30.345,0.00,0.0368,0.0254,0.0200,0.0087,2025-06-11T08:03:33.785797
417,-0.0332,0.2435,0.6056,-75.425,100.975,-44.765,0.01,0.0368,0.0254,0.0200,0.0174,2025-06-11T08:03:33.785797
418,-0.0966,0.1703,0.6320,-101.290,137.095,-62.475,0.00,0.0368,0.0508,0.0100,0.0087,2025-06-11T08:03:33.785797
419,-0.0425,0.1415,0.5534,-148.750,163.240,-83.755,0.00,0.0184,0.0254,0.0100,0.0087,2025-06-11T08:03:33.785797
420,-0.2054,0.1327,0.5144,-199.885,175.525,-94.290,0.00,0.0184,0.0254,0.0100,0.0087,2025-06-11T08:03:33.785797
421,-0.2523,0.0659,0.6012,-241.640,206.325,-90.125,0.00,0.0368,0.0508,0.0100,0.0087,2025-06-11T08:03:33.785797
422,-0.9184,-0.0761,0.9511,-240.555,269.045,-58.555,0.00,0.0184,0.0254,0.0100,0.0087,2025-06-11T08:03:33.785797
423,-1.4718,0.2694,1.4938,-229.635,304.745,14.875,0.00,0.0368,0.0254,0.0100,0.0174,2025-06-11T08:03:33.785797
424,-1.9237,0.5978,1.9837,-161.000,260.400,113.540,0.00,0.0184,0.0254,0.0200,0.0174,2025-06-11T08:03:33.785797
425,-2.0916,1.2190,3.0549,16.800,139.860,240.905,0.00,0.0184,0.0508,0.0100,0.0174,2025-06-11T08:03:33.785797
426,-3.0398,0.9477,5.8301,494.095,11.270,468.090,0.01,0.0184,0.0254,0.0100,0.0087,2025-06-11T08:03:33.785797
427,-2.1204,1.7114,2.9095,689.080,-360.815,895.405,0.00,0.0184,0.0254,0.0100,0.0087,2025-06-11T08:03:33.785797
428,-3.4004,1.2542,3.2491,903.875,-608.405,1057.945,0.01,0.0000,0.0254,0.0100,0.0087,2025-06-11T08:03:33.785797
429,-2.5913,-1.2991,1.0682,954.765,-970.830,1146.250,0.01,0.0368,0.0508,0.0100,0.0174,2025-06-11T08:03:33.785797
430,-3.7449,-1.9422,0.7354,508.375,-1146.740,1146.740,0.00,0.0184,0.0508,0.0100,0.0087,2025-06-11T08:03:33.883023
431,-4.8722,-5.0552,-1.4913,-444.255,-1146.740,1120.420,0.00,0.0184,0.0508,0.0100,0.0087,2025-06-11T08:03:33.883023
432,-4.2895,-2.8104,-4.5018,-1144.780,-1146.740,708.155,0.01,0.0184,0.0508,0.0200,0.0087,2025-06-11T08:03:33.883023
433,-0.6549,-1.2976,-7.7963,-1037.960,-1145.270,728.805,0.00,0.0184,0.0508,0.0100,0.0087,2025-06-11T08:03:33.883023
434,-0.3528,-1.3591,-5.2484,-883.330,-168.105,428.855,0.00,0.0368,0.0508,0.0100,0.0087,2025-06-11T08:03:33.883023
435,2.0740,0.6344,-2.4966,-354.480,492.345,200.655,0.01,0.0184,0.0254,0.0100,0.0087,2025-06-11T08:03:33.883023
436,3.4321,0.9194,-3.8147,-25.970,1087.485,47.180,0.00,0.0184,0.0254,0.0100,0.0174,2025-06-11T08:03:33.883023
437,0.0405,0.7164,-1.6899,227.465,1146.740,-212.625,0.01,0.0368,0.0508,0.0200,0.0087,2025-06-11T08:03:33.883023
438,-2.0789,-2.3082,-0.4480,356.895,1146.740,-606.130,0.01,0.0184,0.0508,0.0200,0.0087,2025-06-11T08:03:33.883023
439,-7.0931,-3.0705,-0.5666,214.305,1146.740,-687.505,0.00,0.0184,0.0508,0.0000,0.0087,2025-06-11T08:03:33.883023
440,-8.3755,5.8282,0.0083,433.300,1146.740,-187.670,0.00,0.0184,0.0508,0.0200,0.0087,2025-06-11T08:03:33.883023
441,-4.0997,3.6361,3.6293,-78.540,762.545,202.790,0.00,0.0368,0.0254,0.0100,0.0087,2025-06-11T08:03:33.883023
442,0.1366,-1.9325,7.1019,149.590,336.840,-88.340,0.00,0.0184,0.0254,0.0100,0.0087,2025-06-11T08:03:33.883023
443,0.2206,-1.0014,4.7902,-125.055,-124.215,-83.650,0.00,0.0184,0.0254,0.0200,0.0087,2025-06-11T08:03:33.883023
444,-0.6637,0.3240,2.2936,-340.515,-531.125,-258.825,0.01,0.0368,0.0508,0.0200,0.0087,2025-06-11T08:03:34.186000
445,-0.8799,1.6138,1.8656,-139.055,-836.185,-267.050,0.00,0.0184,0.0508,0.0200,0.0174,2025-06-11T08:03:34.186000
446,-1.0643,1.8993,0.9106,16.800,-869.225,-126.035,0.00,0.0184,0.0254,0.0200,0.0087,2025-06-11T08:03:34.186000
447,-0.6027,1.2761,-0.4577,209.125,-611.765,75.915,0.00,0.0368,0.0508,0.0200,0.0087,2025-06-11T08:03:34.186000
448,-0.2298,0.6080,-1.2898,189.280,-357.560,195.475,0.01,0.0184,0.0254,0.0200,0.0087,2025-06-11T08:03:34.186000
449,0.2181,-0.5714,-0.9370,31.430,-186.585,160.685,0.00,0.0184,0.0254,0.0100,0.0087,2025-06-11T08:03:34.186000
450,0.3592,-0.5563,-0.0395,3.990,-95.830,-19.250,0.00,0.0184,0.0508,0.0100,0.0087,2025-06-11T08:03:34.186000
451,0.1991,0.0976,-0.1518,-152.670,127.225,-81.865,0.00,0.0184,0.0254,0.0200,0.0087,2025-06-11T08:03:34.186000
452,0.0020,0.1157,0.2577,-115.395,374.080,-130.970,0.00,0.0184,0.0508,0.0000,0.0087,2025-06-11T08:03:34.186000
453,-0.2708,0.4070,0.5129,-91.420,436.135,-126.105,0.00,0.0368,0.0254,0.0200,0.0087,2025-06-11T08:03:34.186000
454,-0.4343,0.6310,0.9301,-63.490,397.250,-90.965,0.01,0.0184,0.0254,0.0100,0.0087,2025-06-11T08:03:34.186000
455,-0.5090,0.6061,1.4235,-56.875,260.015,-73.290,0.00,0.0184,0.0254,0.0200,0.0000,2025-06-11T08:03:34.186000
456,-0.4612,0.6388,1.8256,-93.415,156.415,-47.355,0.00,0.0184,0.0254,0.0100,0.0087,2025-06-11T08:03:34.186000
457,-0.3919,0.3201,1.9588,-86.415,84.140,-28.490,0.01,0.0184,0.0254,0.0100,0.0087,2025-06-11T08:03:34.186000
458,-0.3094,0.3948,2.1101,-39.690,21.350,-5.460,0.00,0.0368,0.0254,0.0100,0.0174,2025-06-11T08:03:34.186000
459,-0.3636,0.4275,1.7973,-51.555,-72.660,6.755,0.00,0.0368,0.0254,0.0200,0.0174,2025-06-11T08:03:34.330430
460,-0.3377,0.3806,1.3264,-50.785,-147.980,12.040,0.01,0.0184,0.0508,0.0100,0.0087,2025-06-11T08:03:34.331431
461,-0.2508,0.3606,1.0141,-46.480,-148.435,15.120,0.01,0.0184,0.0508,0.0100,0.0087,2025-06-11T08:03:34.331491
462,-0.1786,0.2860,0.8037,-34.790,-104.650,13.195,0.01,0.0368,0.0508,0.0100,0.0174,2025-06-11T08:03:34.331491
463,-0.1405,0.2255,0.6222,-28.910,-61.355,2.100,0.00,0.0368,0.0254,0.0100,0.0087,2025-06-11T08:03:34.331491
464,-0.0927,0.2289,0.5597,-34.300,-17.360,-15.750,0.01,0.0184,0.0254,0.0100,0.0087,2025-06-11T08:03:34.331491
465,-0.0503,0.2913,0.5915,-31.745,36.855,-22.995,0.00,0.0368,0.0508,0.0100,0.0087,2025-06-11T08:03:34.331491
466,-0.0468,0.3387,0.7056,-25.025,69.685,-22.365,0.00,0.0000,0.0254,0.0200,0.0087,2025-06-11T08:03:34.331491
467,-0.0434,0.3538,0.8477,-11.025,84.805,-19.390,0.01,0.0184,0.0254,0.0100,0.0087,2025-06-11T08:03:34.331491
468,-0.0820,0.3762,1.0067,-6.545,77.070,-14.000,0.00,0.0184,0.0508,0.0100,0.0087,2025-06-11T08:03:34.331491
469,-0.1049,0.3592,1.0848,-8.680,47.320,-6.440,0.00,0.0184,0.0254,0.0100,0.0087,2025-06-11T08:03:34.331491
470,-0.1186,0.3636,1.1234,-4.970,16.100,-1.260,0.00,0.0184,0.0254,0.0100,0.0087,2025-06-11T08:03:34.331491
471,-0.2440,0.3396,1.0838,-11.480,-10.990,4.060,0.00,0.0184,0.0254,0.0200,0.0087,2025-06-11T08:03:34.331491
472,-0.1352,0.3172,1.0370,-16.030,-24.360,-0.070,0.01,0.0184,0.0254,0.0200,0.0087,2025-06-11T08:03:34.331491
473,-0.1484,0.2752,0.9389,-11.620,-24.745,-6.125,0.00,0.0184,0.0000,0.0100,0.0087,2025-06-11T08:03:34.331491
474,-0.0776,0.2791,0.9150,-15.400,-15.470,-11.270,0.00,0.0184,0.0254,0.0200,0.0174,2025-06-11T08:03:34.331491
475,-0.1381,0.3109,0.9443,-13.755,-1.295,-11.060,0.01,0.0184,0.0254,0.0100,0.0174,2025-06-11T08:03:34.331491
476,-0.1649,0.3328,0.9170,0.315,3.570,-6.650,0.00,0.0368,0.0508,0.0200,0.0087,2025-06-11T08:03:34.331491
477,-0.1737,0.3201,0.9301,-6.755,9.485,1.610,0.01,0.0184,0.0508,0.0200,0.0174,2025-06-11T08:03:34.423912
478,-0.1967,0.2460,0.9838,0.595,9.625,4.375,0.00,0.0368,0.0508,0.0200,0.0174,2025-06-11T08:03:34.423912
479,-0.2377,0.2201,1.0609,-1.400,12.075,4.095,0.01,0.0184,0.0254,0.0100,0.0087,2025-06-11T08:03:34.423912
480,-0.2362,0.2167,1.0687,-5.985,7.735,-1.995,0.01,0.0368,0.0508,0.0100,0.0087,2025-06-11T08:03:34.423912
481,-0.2323,0.2450,1.0404,-12.565,-6.405,-4.410,0.00,0.0184,0.0254,0.0100,0.0087,2025-06-11T08:03:34.423912
482,-0.2181,0.2830,1.0058,-16.520,-11.515,-3.605,0.00,0.0184,0.0254,0.0200,0.0087,2025-06-11T08:03:34.423912
483,-0.2216,0.2625,0.9823,-14.000,-8.015,-2.695,0.00,0.0184,0.0508,0.0200,0.0087,2025-06-11T08:03:34.423912
484,-0.2201,0.3728,0.9379,-8.365,-2.310,-3.115,0.00,0.0184,0.0508,0.0100,0.0087,2025-06-11T08:03:34.515188
485,-0.2054,0.2835,0.9467,-3.920,5.810,-2.030,0.01,0.0368,0.0254,0.0200,0.0087,2025-06-11T08:03:34.515188
486,-0.1976,0.2679,0.9736,-4.340,11.340,-2.520,0.00,0.0368,0.0508,0.0100,0.0087,2025-06-11T08:03:34.515188
487,-0.1952,0.2499,0.9970,-1.715,11.340,-4.900,0.00,0.0368,0.0508,0.0200,0.0087,2025-06-11T08:03:34.515188
488,-0.1898,0.2513,0.9906,-5.670,2.975,-3.850,0.00,0.0184,0.0508,0.0200,0.0174,2025-06-11T08:03:34.515550
489,-0.1864,0.2528,0.9755,-7.210,-5.705,-3.535,0.01,0.0184,0.0508,0.0100,0.0087,2025-06-11T08:03:34.515550
490,-0.1771,0.2738,0.9550,-6.475,-7.875,-2.450,0.01,0.0368,0.0254,0.0100,0.0087,2025-06-11T08:03:34.515550
491,-0.1659,0.2987,0.9282,-2.415,-3.290,-1.400,0.00,0.0368,0.0508,0.0100,0.0087,2025-06-11T08:03:34.784844
492,-0.1640,0.3221,0.9213,1.470,-1.750,2.100,0.01,0.0184,0.0508,0.0100,0.0174,2025-06-11T08:03:34.784844
493,-0.1693,0.3026,0.9340,2.450,2.870,3.675,0.01,0.0184,0.0508,0.0200,0.0174,2025-06-11T08:03:34.784844
494,-0.1879,0.2796,0.9648,5.250,4.655,3.745,0.00,0.0368,0.0508,0.0200,0.0174,2025-06-11T08:03:34.784844
495,-0.2064,0.2547,0.9697,2.415,1.610,3.115,0.01,0.0184,0.0254,0.0100,0.0087,2025-06-11T08:03:34.784844
496,-0.2094,0.2333,0.9780,-0.070,-1.925,2.800,0.00,0.0184,0.0254,0.0100,0.0087,2025-06-11T08:03:34.784844
497,-0.2235,0.2133,0.9701,-2.695,-4.515,2.520,0.00,0.0184,0.0254,0.0200,0.0087,2025-06-11T08:03:34.784844
498,-0.2225,0.2220,0.9672,-4.480,-6.405,1.645,0.00,0.0184,0.0508,0.0200,0.0087,2025-06-11T08:03:34.784844
499,-0.2152,0.2391,0.9540,-7.840,-3.780,0.350,0.00,0.0368,0.0254,0.0100,0.0087,2025-06-11T08:03:34.784844
500,-0.2054,0.2679,0.9492,-5.005,-0.245,-1.015,0.00,0.0184,0.0254,0.0100,0.0087,2025-06-11T08:03:34.785257
501,-0.1928,0.2899,0.9609,-4.830,3.500,0.210,0.00,0.0368,0.0254,0.0200,0.0087,2025-06-11T08:03:35.463901
502,-0.1898,0.2913,0.9648,-1.470,4.585,-0.210,0.00,0.0184,0.0254,0.0200,0.0087,2025-06-11T08:03:35.463901
503,-0.1942,0.2962,0.9902,1.610,2.135,2.555,0.00,0.0184,0.0254,0.0100,0.0087,2025-06-11T08:03:35.464892
504,-0.1952,0.2723,1.0136,2.275,-1.085,4.305,0.01,0.0184,0.0508,0.0100,0.0087,2025-06-11T08:03:35.464892
505,-0.2045,0.2494,1.0189,1.575,-6.300,3.360,0.00,0.0184,0.0508,0.0100,0.0087,2025-06-11T08:03:35.464892
506,-0.2035,0.2464,0.9921,-2.835,-10.745,1.855,0.01,0.0184,0.0254,0.0200,0.0087,2025-06-11T08:03:35.464892
507,-0.1981,0.2577,0.9526,-2.625,-13.405,2.485,0.00,0.0184,0.0508,0.0100,0.0174,2025-06-11T08:03:35.464892
508,-0.1981,0.2425,0.9540,-2.065,-10.675,4.865,0.00,0.0184,0.0508,0.0200,0.0087,2025-06-11T08:03:35.464892
509,-0.2045,0.2206,0.9457,-2.450,-5.320,2.415,0.01,0.0184,0.0254,0.0200,0.0087,2025-06-11T08:03:35.464892
510,-0.2030,0.2420,0.9501,-3.850,0.875,-1.085,0.00,0.0184,0.0508,0.0200,0.0000,2025-06-11T08:03:35.464892
511,-0.1937,0.2791,0.9692,-2.870,5.110,-1.995,0.00,0.0184,0.0254,0.0100,0.0087,2025-06-11T08:03:35.464892
512,-0.1898,0.2967,1.0043,2.625,6.545,0.245,0.00,0.0184,0.0254,0.0100,0.0087,2025-06-11T08:03:35.464892
513,-0.1972,0.2782,1.0126,3.185,1.680,3.395,0.00,0.0184,0.0508,0.0200,0.0087,2025-06-11T08:03:35.465895
514,-0.2142,0.2518,1.0170,3.780,-8.400,4.865,0.00,0.0000,0.0254,0.0100,0.0087,2025-06-11T08:03:35.465895
515,-0.2157,0.2269,1.0033,0.420,-12.915,3.115,0.00,0.0184,0.0254,0.0100,0.0087,2025-06-11T08:03:35.465895
516,-0.2142,0.2318,0.9716,-1.960,-14.910,1.155,0.00,0.0368,0.0508,0.0200,0.0174,2025-06-11T08:03:35.465895
517,-0.2064,0.2416,0.9365,-1.820,-12.180,0.910,0.00,0.0184,0.0254,0.0100,0.0087,2025-06-11T08:03:35.465895
518,-0.2045,0.2381,0.9374,-1.715,-5.845,0.490,0.01,0.0368,0.0254,0.0200,0.0174,2025-06-11T08:03:35.465895
519,-0.1937,0.2494,0.9453,-0.595,1.050,-1.645,0.00,0.0368,0.0508,0.0200,0.0087,2025-06-11T08:03:35.465895
520,-0.1957,0.2757,0.9633,1.470,3.745,-1.050,0.01,0.0184,0.0508,0.0200,0.0087,2025-06-11T08:03:35.465895
521,-0.1972,0.2835,0.9760,0.315,2.310,-0.245,0.00,0.0368,0.0508,0.0200,0.0087,2025-06-11T08:03:35.465895
522,-0.2108,0.2664,0.9882,0.875,-2.205,1.050,0.01,0.0184,0.0508,0.0100,0.0087,2025-06-11T08:03:35.466904
523,-0.2089,0.2489,0.9892,1.225,-6.300,1.855,0.01,0.0368,0.0254,0.0100,0.0087,2025-06-11T08:03:35.466904
524,-0.2147,0.2420,0.9560,-3.080,-8.715,1.120,0.00,0.0368,0.0508,0.0200,0.0174,2025-06-11T08:03:35.466904
525,-0.2108,0.2523,0.9272,-3.570,-11.235,1.645,0.01,0.0184,0.0254,0.0100,0.0087,2025-06-11T08:03:35.466904
526,-0.2035,0.2533,0.9409,-4.900,-8.925,3.535,0.00,0.0184,0.0254,0.0100,0.0087,2025-06-11T08:03:35.466904
527,-0.2064,0.2401,0.9482,-5.250,-3.780,1.050,0.00,0.0184,0.0254,0.0100,0.0087,2025-06-11T08:03:35.467629
528,-0.2064,0.2577,0.9589,-5.740,-0.735,0.385,0.01,0.0184,0.0254,0.0100,0.0087,2025-06-11T08:03:35.467629
529,-0.2030,0.2552,0.9755,-5.845,-0.665,0.385,0.01,0.0184,0.0254,0.0100,0.0087,2025-06-11T08:03:35.467887
530,-0.1942,0.2586,0.9799,-7.350,-0.665,-1.365,0.01,0.0368,0.0254,0.0100,0.0087,2025-06-11T08:03:35.467887
531,-0.1991,0.2664,0.9653,-6.055,-3.115,-0.105,0.00,0.0184,0.0254,0.0100,0.0087,2025-06-11T08:03:35.467887
532,-0.1898,0.2674,0.9594,-5.040,-5.005,1.050,0.01,0.0184,0.0254,0.0200,0.0087,2025-06-11T08:03:35.467887
533,-0.1893,0.2674,0.9526,-3.745,-6.580,2.380,0.00,0.0368,0.0254,0.0100,0.0087,2025-06-11T08:03:35.467887
534,-0.1884,0.2640,0.9579,-3.815,-7.245,3.675,0.00,0.0368,0.0254,0.0100,0.0087,2025-06-11T08:03:35.467887
535,-0.1918,0.2367,0.9662,-3.325,-6.055,3.570,0.01,0.0184,0.0508,0.0100,0.0087,2025-06-11T08:03:35.467887
536,-0.1884,0.2333,0.9755,-2.660,-2.135,2.135,0.00,0.0184,0.0254,0.0100,0.0087,2025-06-11T08:03:35.467887
537,-0.1942,0.2445,0.9745,-2.800,-2.625,1.925,0.00,0.0184,0.0508,0.0200,0.0087,2025-06-11T08:03:35.467887
538,-0.1903,0.2391,0.9809,-4.410,-2.065,0.630,0.01,0.0184,0.0508,0.0100,0.0087,2025-06-11T08:03:35.467887
539,-0.2011,0.2342,0.9897,-2.975,0.630,-0.245,0.01,0.0368,0.0508,0.0100,0.0174,2025-06-11T08:03:35.467887
540,-0.2069,0.2264,0.9906,-2.415,3.185,-0.945,0.00,0.0368,0.0508,0.0100,0.0087,2025-06-11T08:03:35.468925
541,-0.2157,0.2191,0.9887,-4.270,4.410,-1.995,0.00,0.0368,0.0508,0.0100,0.0087,2025-06-11T08:03:35.468925
542,-0.2240,0.2128,0.9950,-4.305,4.655,-3.640,0.00,0.0184,0.0254,0.0100,0.0174,2025-06-11T08:03:35.468925
543,-0.2323,0.2176,1.0043,-3.850,4.130,-2.905,0.00,0.0184,0.0254,0.0100,0.0087,2025-06-11T08:03:35.468925
544,-0.2328,0.2401,1.0146,-2.940,2.100,-2.835,0.01,0.0184,0.0254,0.0100,0.0087,2025-06-11T08:03:35.468925
545,-0.2381,0.2499,1.0019,-3.675,-3.920,-1.715,0.00,0.0184,0.0508,0.0100,0.0087,2025-06-11T08:03:35.468925
546,-0.2328,0.2508,0.9887,-4.165,-10.885,0.175,0.00,0.0184,0.0254,0.0200,0.0087,2025-06-11T08:03:35.468925
547,-0.2245,0.2250,0.9433,-7.315,-15.820,0.735,0.00,0.0184,0.0254,0.0200,0.0087,2025-06-11T08:03:35.468925
548,-0.2118,0.2298,0.9213,-8.925,-13.125,-0.700,0.00,0.0184,0.0254,0.0100,0.0087,2025-06-11T08:03:35.468925
549,-0.1937,0.2518,0.9155,-8.995,-3.360,-2.765,0.00,0.0184,0.0254,0.0100,0.0087,2025-06-11T08:03:35.468925
550,-0.1932,0.2601,0.9277,-5.775,8.365,-1.610,0.01,0.0368,0.0254,0.0100,0.0087,2025-06-11T08:03:35.469928
551,-0.2020,0.2440,0.9672,-2.310,14.455,-1.610,0.00,0.0184,0.0508,0.0200,0.0087,2025-06-11T08:03:35.522832
552,-0.2045,0.2425,0.9960,-1.365,14.140,-2.310,0.00,0.0368,0.0508,0.0100,0.0087,2025-06-11T08:03:35.522832
553,-0.2108,0.2611,1.0043,0.315,2.730,-1.085,0.00,0.0368,0.0254,0.0200,0.0174,2025-06-11T08:03:35.522832
554,-0.2059,0.1279,1.0024,-2.240,-9.275,2.485,0.01,0.0184,0.0508,0.0200,0.0087,2025-06-11T08:03:35.522832
555,-0.2069,0.2303,0.9819,0.980,-18.200,3.535,0.00,0.0184,0.0508,0.0200,0.0087,2025-06-11T08:03:35.522832
556,-0.2079,0.2176,0.9453,-2.520,-15.995,1.715,0.01,0.0368,0.0254,0.0100,0.0087,2025-06-11T08:03:35.522832
557,-0.1981,0.2298,0.9262,0.385,-7.735,-0.665,0.00,0.0368,0.0508,0.0100,0.0087,2025-06-11T08:03:35.522832
558,-0.1932,0.2455,0.9301,2.625,2.380,1.085,0.01,0.0184,0.0254,0.0100,0.0087,2025-06-11T08:03:35.522832
559,-0.1991,0.2386,0.9506,3.115,5.425,1.715,0.00,0.0184,0.0254,0.0100,0.0174,2025-06-11T08:03:35.522832
560,-0.2113,0.2303,0.9965,3.745,5.250,1.925,0.00,0.0184,0.0254,0.0200,0.0174,2025-06-11T08:03:35.522832
561,-0.2294,0.2162,1.0228,3.920,-1.295,3.430,0.00,0.0000,0.0254,0.0200,0.0087,2025-06-11T08:03:35.522832
562,-0.2474,0.1893,1.0570,-1.155,-8.925,3.255,0.00,0.0368,0.0254,0.0100,0.0087,2025-06-11T08:03:35.522832
563,-0.2591,0.1830,1.0321,-3.115,-12.950,-1.680,0.00,0.0368,0.0254,0.0100,0.0087,2025-06-11T08:03:35.522832
564,-0.2503,0.2094,1.0106,-2.555,-10.955,-3.465,0.00,0.0184,0.0254,0.0200,0.0087,2025-06-11T08:03:35.522832
565,-0.2328,0.2381,0.9736,-1.400,-11.620,-2.380,0.00,0.0184,0.0508,0.0100,0.0087,2025-06-11T08:03:35.522832
566,-0.2220,0.2313,0.9579,-1.960,-8.890,-1.610,0.01,0.0184,0.0254,0.0200,0.0174,2025-06-11T08:03:35.863920
567,-0.2176,0.2235,0.9384,-2.730,-6.580,-1.785,0.01,0.0368,0.0508,0.0200,0.0174,2025-06-11T08:03:35.863920
568,-0.2015,0.2230,0.9218,-3.990,-2.030,-1.925,0.01,0.0184,0.0254,0.0100,0.0174,2025-06-11T08:03:35.863920
569,-0.1981,0.2157,0.9179,-5.985,3.640,-3.010,0.01,0.0368,0.0508,0.0200,0.0087,2025-06-11T08:03:35.863920
570,-0.2074,0.2137,0.9121,-7.280,11.690,-5.670,0.01,0.0184,0.0254,0.0100,0.0087,2025-06-11T08:03:35.864907
571,-0.2006,0.2308,0.9228,-6.930,17.185,-6.160,0.01,0.0184,0.0254,0.0100,0.0087,2025-06-11T08:03:35.864907
572,-0.2035,0.2552,0.9560,-6.020,16.765,-4.515,0.00,0.0184,0.0254,0.0100,0.0087,2025-06-11T08:03:35.864907
573,-0.2181,0.2562,0.9794,-5.040,8.785,-0.700,0.00,0.0368,0.0254,0.0100,0.0087,2025-06-11T08:03:35.864907
574,-0.2230,0.2430,1.0028,-4.585,-0.840,1.855,0.00,0.0368,0.0254,0.0100,0.0087,2025-06-11T08:03:35.864907
575,-0.2162,0.2274,0.9892,-5.705,-10.570,1.470,0.00,0.0184,0.0508,0.0100,0.0087,2025-06-11T08:03:35.864907
576,-0.2108,0.2352,0.9609,-6.895,-18.550,2.275,0.00,0.0368,0.0508,0.0200,0.0087,2025-06-11T08:03:35.864907
577,-0.2152,0.2118,0.9257,-9.485,-15.365,2.170,0.00,0.0184,0.0254,0.0100,0.0087,2025-06-11T08:03:35.864907
578,-0.2142,0.2079,0.9091,-8.400,-4.865,0.770,0.00,0.0184,0.0254,0.0100,0.0087,2025-06-11T08:03:35.864907
579,-0.2108,0.2201,0.9267,-8.015,6.545,-0.700,0.00,0.0368,0.0254,0.0200,0.0087,2025-06-11T08:03:35.864907
580,-0.2255,0.2162,0.9443,-7.560,13.650,-1.400,0.00,0.0184,0.0254,0.0100,0.0174,2025-06-11T08:03:35.864907
581,-0.2318,0.2176,0.9941,-6.755,13.860,-1.435,0.00,0.0368,0.0508,0.0100,0.0174,2025-06-11T08:03:35.965940
582,-0.2411,0.2098,1.0155,-8.155,8.435,-0.140,0.01,0.0368,0.0254,0.0200,0.0087,2025-06-11T08:03:35.965940
583,-0.2508,0.2025,1.0253,-8.785,-2.415,0.700,0.01,0.0368,0.0508,0.0200,0.0087,2025-06-11T08:03:35.965940
584,-0.2572,0.1952,1.0082,-8.785,-8.680,0.175,0.01,0.0184,0.0508,0.0100,0.0087,2025-06-11T08:03:35.965940
585,-0.2445,0.2181,0.9838,-6.510,-11.620,-0.070,0.01,0.0368,0.0254,0.0200,0.0087,2025-06-11T08:03:35.965940
586,-0.2450,0.2108,0.9565,-8.330,-11.095,2.660,0.00,0.0184,0.0254,0.0100,0.0087,2025-06-11T08:03:35.965940
587,-0.2455,0.1923,0.9443,-6.720,-6.825,1.610,0.00,0.0368,0.0254,0.0200,0.0087,2025-06-11T08:03:35.965940
588,-0.2396,0.1874,0.9531,-7.700,0.980,1.505,0.00,0.0368,0.0254,0.0100,0.0087,2025-06-11T08:03:35.965940
589,-0.2367,0.1976,0.9687,-5.950,3.045,2.100,0.00,0.0368,0.0254,0.0100,0.0087,2025-06-11T08:03:35.965940
590,-0.2328,0.2020,1.0009,-6.790,3.255,2.660,0.00,0.0368,0.0254,0.0100,0.0087,2025-06-11T08:03:35.965940
591,-0.2347,0.1957,1.0233,-4.235,0.595,1.855,0.00,0.0184,0.0254,0.0200,0.0174,2025-06-11T08:03:35.965940
592,-0.2308,0.1962,1.0243,-3.745,-3.080,0.070,0.01,0.0184,0.0254,0.0100,0.0087,2025-06-11T08:03:35.965940
593,-0.2367,0.1986,1.0175,-1.225,-7.210,-0.840,0.00,0.0184,0.0254,0.0100,0.0087,2025-06-11T08:03:35.965940
594,-0.2372,0.1957,0.9945,0.140,-6.370,-1.085,0.00,0.0184,0.0508,0.0200,0.0087,2025-06-11T08:03:35.965940
595,-0.2289,0.2001,0.9628,1.995,-3.885,-1.260,0.00,0.0184,0.0254,0.0200,0.0087,2025-06-11T08:03:35.965940
596,-0.2313,0.2079,0.9501,2.800,-3.780,0.595,0.01,0.0368,0.0508,0.0100,0.0174,2025-06-11T08:03:35.965940
597,-0.2367,0.1810,0.9521,1.400,-2.030,1.855,0.01,0.0184,0.0254,0.0100,0.0087,2025-06-11T08:03:35.965940
598,-0.2425,0.1664,0.9462,-0.070,2.730,-0.665,0.00,0.0184,0.0254,0.0200,0.0087,2025-06-11T08:03:36.136341
599,-0.2323,0.1879,0.9423,-1.575,7.525,-3.045,0.00,0.0184,0.0508,0.0100,0.0087,2025-06-11T08:03:36.136341
600,-0.2289,0.1913,0.9394,-2.800,13.020,-3.710,0.01,0.0184,0.0508,0.0200,0.0087,2025-06-11T08:03:36.136341
601,-0.2357,0.1762,0.9428,-4.480,19.460,-5.740,0.00,0.0184,0.0254,0.0100,0.0087,2025-06-11T08:03:36.137076
602,-0.2298,0.1947,0.9448,-3.885,26.740,-9.800,0.01,0.0368,0.0254,0.0200,0.0087,2025-06-11T08:03:36.137076
603,-0.2411,0.2108,0.9296,-3.535,40.705,-13.475,0.01,0.0184,0.0508,0.0200,0.0087,2025-06-11T08:03:36.137076
604,-0.2474,0.2230,0.9018,-0.910,56.000,-18.305,0.00,0.0184,0.0508,0.0100,0.0087,2025-06-11T08:03:36.137076
605,-0.2713,0.2040,0.8843,-0.490,78.190,-28.560,0.01,0.0184,0.0254,0.0200,0.0087,2025-06-11T08:03:36.137076
606,-0.3577,0.1435,0.8686,-10.325,101.395,-41.405,0.00,0.0184,0.0508,0.0200,0.0087,2025-06-11T08:03:36.137076
607,-0.4006,0.1157,0.8252,-9.660,119.910,-58.555,0.00,0.0184,0.0254,0.0100,0.0087,2025-06-11T08:03:36.137076
608,-0.5622,0.0761,0.8491,-27.650,131.215,-67.375,0.00,0.0368,0.0254,0.0100,0.0087,2025-06-11T08:03:36.137076
609,-0.4046,0.1171,0.8599,-29.855,130.690,-69.300,0.01,0.0368,0.0508,0.0200,0.0087,2025-06-11T08:03:36.137076
610,-0.4778,0.2230,0.8906,-28.140,125.090,-62.020,0.00,0.0368,0.0254,0.0200,0.0000,2025-06-11T08:03:36.137076
611,-0.4265,0.3309,0.9516,-16.275,111.650,-45.045,0.01,0.0368,0.0254,0.0200,0.0174,2025-06-11T08:03:36.137076
612,-0.3050,0.3289,0.9404,3.500,94.500,-26.215,0.00,0.0184,0.0254,0.0100,0.0087,2025-06-11T08:03:36.339256
613,-0.4011,0.3504,0.9296,28.070,89.600,0.245,0.01,0.0368,0.0254,0.0200,0.0087,2025-06-11T08:03:36.339256
614,-0.3831,0.2611,0.8584,48.545,83.825,18.270,0.01,0.0368,0.0508,0.0200,0.0087,2025-06-11T08:03:36.339256
615,-0.2689,0.1440,0.8262,55.510,65.415,18.900,0.01,0.0184,0.0508,0.0200,0.0174,2025-06-11T08:03:36.339256
616,-0.1972,0.1449,0.9038,60.165,28.770,2.520,0.00,0.0184,0.0508,0.0200,0.0087,2025-06-11T08:03:36.339256
617,-0.3279,0.2865,1.0965,85.295,-0.490,-9.520,0.00,0.0184,0.0254,0.0100,0.0087,2025-06-11T08:03:36.339256
618,-0.4782,0.3216,1.1195,99.470,-29.505,6.440,0.00,0.0184,0.0254,0.0200,0.0087,2025-06-11T08:03:36.339256
619,-0.4670,0.0293,0.9082,82.845,-78.260,46.060,0.00,0.0184,0.0254,0.0100,0.0174,2025-06-11T08:03:36.339256
620,-0.4246,-0.2460,0.7271,41.720,-126.735,36.715,0.00,0.0184,0.0254,0.0200,0.0087,2025-06-11T08:03:36.339256
621,-0.3943,-0.4041,0.3943,-80.325,-158.515,-4.375,0.00,0.0184,0.0254,0.0000,0.0087,2025-06-11T08:03:36.339256
622,-0.4211,-0.5427,0.5275,-139.790,-95.480,-117.565,0.00,0.0368,0.0254,0.0100,0.0087,2025-06-11T08:03:36.339256
623,-0.3894,-0.5114,0.5783,-145.670,36.050,-185.430,0.00,0.0000,0.0254,0.0100,0.0087,2025-06-11T08:03:36.339256
624,-1.2337,1.4025,3.0715,-105.000,-188.860,73.605,0.00,0.0184,0.0254,0.0100,0.0174,2025-06-11T08:03:36.340253
625,-1.3117,0.3475,1.1888,-56.140,-103.635,4.690,0.00,0.0184,0.0508,0.0100,0.0087,2025-06-11T08:03:36.340253
626,-0.4973,0.2518,0.9960,42.455,-12.530,-52.955,0.00,0.0368,0.0254,0.0100,0.0087,2025-06-11T08:03:36.340253
627,-0.4080,0.1688,1.0907,10.080,60.900,-3.395,0.00,0.0368,0.0254,0.0100,0.0174,2025-06-11T08:03:36.586017
628,-0.5285,-0.0634,0.3338,15.120,31.465,-26.670,0.00,0.0184,0.0254,0.0200,0.0174,2025-06-11T08:03:36.586017
629,-0.4934,0.2791,0.8242,-47.705,-41.860,-14.035,0.01,0.0184,0.0254,0.0100,0.0087,2025-06-11T08:03:36.586017
630,-0.4426,0.2621,1.0282,-38.850,-32.480,1.435,0.01,0.0368,0.0508,0.0100,0.0087,2025-06-11T08:03:36.586017
631,-0.3553,0.1098,1.1068,22.505,8.435,-5.530,0.01,0.0184,0.0508,0.0200,0.0087,2025-06-11T08:03:36.586017
632,-0.4787,0.0903,0.9399,8.680,11.830,0.455,0.00,0.0184,0.0254,0.0200,0.0087,2025-06-11T08:03:36.586017
633,-0.4875,0.0717,0.7344,2.765,-5.915,-3.535,0.00,0.0184,0.0254,0.0100,0.0087,2025-06-11T08:03:36.586017
634,-0.4626,0.1083,0.8691,-2.485,-9.205,1.680,0.00,0.0184,0.0508,0.0200,0.0087,2025-06-11T08:03:36.586017
635,-0.4480,0.1357,0.9496,-8.505,-2.730,5.390,0.01,0.0184,0.0254,0.0100,0.0174,2025-06-11T08:03:36.586017
636,-0.4407,0.1303,0.9501,1.750,-4.865,-5.075,0.00,0.0184,0.0254,0.0200,0.0000,2025-06-11T08:03:36.586017
637,-0.4543,0.0971,0.9267,-1.085,-3.220,-3.640,0.00,0.0184,0.0254,0.0100,0.0087,2025-06-11T08:03:36.586017
638,-0.4631,0.0771,0.8589,-1.890,-1.610,0.420,0.00,0.0368,0.0254,0.0200,0.0087,2025-06-11T08:03:36.586017
639,-0.4602,0.0888,0.9004,-2.555,-7.560,0.140,0.00,0.0184,0.0254,0.0200,0.0087,2025-06-11T08:03:36.586017
640,-0.4470,0.1039,0.9511,-5.950,-6.545,0.700,0.00,0.0184,0.0254,0.0100,0.0087,2025-06-11T08:03:36.586017
641,-0.4490,0.1137,0.9287,0.805,-1.365,-1.120,0.00,0.0184,0.0508,0.0200,0.0174,2025-06-11T08:03:36.586017
642,-0.4582,0.1049,0.8877,-2.205,-1.750,-1.015,0.00,0.0184,0.0508,0.0200,0.0087,2025-06-11T08:03:36.586017
643,-0.4670,0.0986,0.8813,-6.405,-6.825,-0.875,0.00,0.0368,0.0254,0.0200,0.0087,2025-06-11T08:03:36.586017
644,-0.4514,0.0966,0.9170,-6.230,-7.035,-0.735,0.00,0.0184,0.0254,0.0200,0.0087,2025-06-11T08:03:36.847608
645,-0.4460,0.0976,0.9428,-4.165,-2.940,-0.560,0.01,0.0368,0.0508,0.0200,0.0174,2025-06-11T08:03:36.847608
646,-0.4538,0.0956,0.9209,-4.550,-2.660,-1.295,0.01,0.0368,0.0254,0.0200,0.0087,2025-06-11T08:03:36.847608
647,-0.4587,0.0961,0.8930,-6.230,-4.095,-1.120,0.00,0.0184,0.0254,0.0100,0.0087,2025-06-11T08:03:36.847608
648,-0.4553,0.0937,0.8950,-8.680,-5.740,-0.665,0.01,0.0184,0.0254,0.0100,0.0087,2025-06-11T08:03:36.847608
649,-0.4553,0.0932,0.9130,-8.260,-5.880,-0.805,0.01,0.0368,0.0508,0.0200,0.0087,2025-06-11T08:03:36.848605
650,-0.4524,0.0917,0.9296,-7.105,-5.005,-1.295,0.00,0.0184,0.0508,0.0100,0.0087,2025-06-11T08:03:36.848605
651,-0.4519,0.0888,0.9165,-5.635,-3.395,-1.400,0.00,0.0368,0.0254,0.0100,0.0174,2025-06-11T08:03:37.086278
652,-0.4587,0.0830,0.9023,-3.885,-4.270,-1.225,0.00,0.0184,0.0254,0.0100,0.0087,2025-06-11T08:03:37.087274
653,-0.4553,0.0795,0.9087,-3.325,-4.515,-0.875,0.00,0.0000,0.0254,0.0100,0.0087,2025-06-11T08:03:37.087274
654,-0.4543,0.0800,0.9155,-5.320,-4.690,-0.350,0.00,0.0184,0.0254,0.0200,0.0087,2025-06-11T08:03:37.087274
655,-0.4543,0.0839,0.9204,-3.570,-4.935,-0.455,0.00,0.0184,0.0254,0.0100,0.0087,2025-06-11T08:03:37.087274
656,-0.4538,0.0825,0.9150,-2.170,-4.620,-0.490,0.00,0.0184,0.0508,0.0200,0.0087,2025-06-11T08:03:37.087274
657,-0.4553,0.0825,0.9140,-0.700,-4.095,-0.525,0.00,0.0184,0.0254,0.0200,0.0087,2025-06-11T08:03:37.087274
658,-0.4563,0.0815,0.9135,-0.140,-4.165,-0.595,0.01,0.0368,0.0254,0.0200,0.0087,2025-06-11T08:03:37.087274
659,-0.4568,0.0795,0.9121,0.630,-4.165,-0.350,0.00,0.0184,0.0254,0.0200,0.0174,2025-06-11T08:03:37.087274
660,-0.4695,0.0732,0.8872,0.875,-5.285,-0.385,0.00,0.0184,0.0508,0.0200,0.0087,2025-06-11T08:03:37.087274
661,-0.4582,0.0927,0.9457,-2.730,-5.250,1.085,0.01,0.0184,0.0254,0.0100,0.0087,2025-06-11T08:03:37.087274
662,-0.4470,0.0952,0.9238,2.345,-3.535,-0.770,0.01,0.0368,0.0254,0.0200,0.0087,2025-06-11T08:03:37.087274
663,-0.4475,0.0800,0.8906,-3.290,-4.200,-0.525,0.01,0.0184,0.0254,0.0100,0.0087,2025-06-11T08:03:37.087274
664,-0.4865,0.0927,0.9633,0.805,-2.380,-0.805,0.00,0.0184,0.0254,0.0200,0.0087,2025-06-11T08:03:37.087274
665,-0.4294,0.0654,0.8418,-2.380,-5.880,-1.085,0.00,0.0368,0.0254,0.0100,0.0087,2025-06-11T08:03:37.087274
666,-0.4704,0.0834,0.9438,-2.380,-4.935,0.420,0.00,0.0184,0.0254,0.0100,0.0087,2025-06-11T08:03:37.087274
667,-0.4582,0.0888,0.9506,2.590,-3.255,-0.210,0.00,0.0184,0.0254,0.0100,0.0000,2025-06-11T08:03:37.087274
668,-0.4358,0.0669,0.8716,-1.120,-4.690,-0.035,0.00,0.0368,0.0254,0.0100,0.0087,2025-06-11T08:03:37.087274
669,-0.4802,0.0917,0.9516,3.360,-2.870,-0.315,0.01,0.0368,0.0254,0.0100,0.0087,2025-06-11T08:03:37.088272
670,-0.4446,0.0830,0.8921,-1.085,-4.550,0.070,0.01,0.0368,0.0508,0.0200,0.0087,2025-06-11T08:03:37.088272
671,-0.4568,0.0810,0.9043,-2.380,-5.950,-0.350,0.00,0.0184,0.0254,0.0100,0.0087,2025-06-11T08:03:37.088272
672,-0.4690,0.0932,0.9511,-0.420,-4.480,-0.140,0.01,0.0184,0.0254,0.0100,0.0087,2025-06-11T08:03:37.088272
673,-0.4436,0.0776,0.8843,-2.590,-5.005,-0.525,0.01,0.0184,0.0508,0.0200,0.0174,2025-06-11T08:03:37.158084
674,-0.4636,0.0839,0.9130,-2.345,-5.530,-0.280,0.00,0.0368,0.0254,0.0100,0.0174,2025-06-11T08:03:37.158084
675,-0.4597,0.0810,0.9306,-1.890,-4.165,0.140,0.00,0.0368,0.0508,0.0100,0.0174,2025-06-11T08:03:37.158084
676,-0.4499,0.0737,0.8974,-0.560,-4.095,-0.455,0.01,0.0184,0.0508,0.0100,0.0174,2025-06-11T08:03:37.158084
677,-0.4631,0.0810,0.9252,-0.350,-3.465,0.035,0.00,0.0184,0.0508,0.0100,0.0174,2025-06-11T08:03:37.159109
678,-0.4529,0.0830,0.9121,2.065,-2.555,0.140,0.00,0.0368,0.0254,0.0200,0.0087,2025-06-11T08:03:37.159109
679,-0.4509,0.0717,0.8984,0.455,-3.955,0.280,0.01,0.0184,0.0254,0.0100,0.0087,2025-06-11T08:03:37.159109
680,-0.4631,0.0849,0.9292,0.875,-3.290,0.280,0.01,0.0184,0.0508,0.0200,0.0087,2025-06-11T08:03:37.159109
681,-0.4568,0.0810,0.9023,2.415,-2.800,0.000,0.00,0.0184,0.0254,0.0100,0.0087,2025-06-11T08:03:37.159109
682,-0.4573,0.0795,0.8984,2.275,-3.395,0.035,0.00,0.0184,0.0508,0.0100,0.0087,2025-06-11T08:03:37.159109
683,-0.4651,0.0830,0.9228,2.310,-4.340,0.455,0.01,0.0184,0.0254,0.0000,0.0087,2025-06-11T08:03:37.159109
684,-0.4548,0.0800,0.8994,1.260,-5.040,0.175,0.00,0.0000,0.0508,0.0100,0.0174,2025-06-11T08:03:37.159109
685,-0.4553,0.0815,0.9199,5.110,-3.430,0.070,0.01,0.0368,0.0508,0.0100,0.0174,2025-06-11T08:03:37.159109
686,-0.4646,0.0913,0.9150,1.645,-4.235,0.175,0.00,0.0184,0.0254,0.0100,0.0087,2025-06-11T08:03:37.159109
687,-0.4470,0.0800,0.8989,3.710,-4.270,-0.385,0.00,0.0184,0.0508,0.0200,0.0087,2025-06-11T08:03:37.159109
688,-0.4592,0.0864,0.9174,1.820,-4.235,0.140,0.01,0.0184,0.0508,0.0200,0.0174,2025-06-11T08:03:37.399076
689,-0.4538,0.0800,0.9087,-0.560,-4.795,0.105,0.00,0.0368,0.0254,0.0200,0.0087,2025-06-11T08:03:37.399076
690,-0.4597,0.0878,0.9135,-0.385,-4.585,-0.245,0.01,0.0184,0.0254,0.0100,0.0087,2025-06-11T08:03:37.399076
691,-0.4563,0.0849,0.9140,-0.350,-4.375,-0.315,0.01,0.0184,0.0508,0.0100,0.0087,2025-06-11T08:03:37.399076
692,-0.4558,0.0844,0.9121,0.630,-3.990,-0.315,0.00,0.0184,0.0254,0.0100,0.0000,2025-06-11T08:03:37.400144
693,-0.4563,0.0820,0.9140,1.120,-4.060,0.105,0.00,0.0184,0.0254,0.0100,0.0087,2025-06-11T08:03:37.400144
694,-0.4563,0.0810,0.9121,1.680,-3.675,0.175,0.00,0.0184,0.0508,0.0100,0.0174,2025-06-11T08:03:37.400144
695,-0.4597,0.0859,0.9121,1.330,-4.130,0.175,0.00,0.0184,0.0254,0.0100,0.0087,2025-06-11T08:03:37.400144
696,-0.4558,0.0869,0.9082,1.085,-4.270,0.140,0.00,0.0368,0.0508,0.0200,0.0087,2025-06-11T08:03:37.400144
697,-0.4573,0.0874,0.9204,2.170,-3.535,-0.035,0.00,0.0184,0.0508,0.0100,0.0087,2025-06-11T08:03:37.400144
698,-0.4573,0.0830,0.9091,1.295,-3.780,0.000,0.00,0.0184,0.0254,0.0100,0.0087,2025-06-11T08:03:37.400144
699,-0.4587,0.0820,0.9096,1.435,-4.095,0.070,0.01,0.0184,0.0508,0.0100,0.0087,2025-06-11T08:03:37.400144
700,-0.4587,0.0839,0.9096,2.520,-3.745,0.210,0.00,0.0184,0.0254,0.0100,0.0000,2025-06-11T08:03:37.400144
701,-0.4558,0.0839,0.9082,2.835,-3.955,0.315,0.00,0.0184,0.0254,0.0100,0.0087,2025-06-11T08:03:37.400144
702,-0.4592,0.0893,0.9165,2.940,-3.745,0.385,0.01,0.0368,0.0254,0.0100,0.0087,2025-06-11T08:03:37.400144
703,-0.4558,0.0893,0.9067,2.520,-3.605,0.350,0.01,0.0368,0.0508,0.0200,0.0174,2025-06-11T08:03:37.400144
704,-0.4631,0.0908,0.9087,3.360,-3.605,0.105,0.01,0.0368,0.0508,0.0200,0.0087,2025-06-11T08:03:37.400144
705,-0.4587,0.0903,0.9121,2.590,-4.095,0.245,0.00,0.0368,0.0254,0.0100,0.0087,2025-06-11T08:03:37.484882
706,-0.4597,0.0908,0.9072,1.435,-4.935,0.245,0.00,0.0184,0.0508,0.0100,0.0174,2025-06-11T08:03:37.484882
707,-0.4568,0.0917,0.9130,2.135,-3.815,0.140,0.01,0.0368,0.0508,0.0100,0.0174,2025-06-11T08:03:37.484882
708,-0.4587,0.0917,0.9155,2.800,-3.465,0.175,0.00,0.0368,0.0508,0.0200,0.0174,2025-06-11T08:03:37.484882
709,-0.4577,0.0888,0.9087,1.505,-3.745,0.140,0.00,0.0368,0.0508,0.0200,0.0174,2025-06-11T08:03:37.484882
710,-0.4587,0.0913,0.9067,0.595,-4.690,0.175,0.01,0.0184,0.0254,0.0100,0.0087,2025-06-11T08:03:37.484882
711,-0.4592,0.0932,0.9106,0.945,-4.550,0.140,0.01,0.0368,0.0508,0.0100,0.0174,2025-06-11T08:03:37.484882
712,-0.4534,0.0932,0.9106,1.960,-3.360,0.105,0.01,0.0184,0.0254,0.0200,0.0087,2025-06-11T08:03:37.672617
713,-0.4607,0.0932,0.9130,1.190,-4.060,0.070,0.00,0.0184,0.0508,0.0100,0.0087,2025-06-11T08:03:37.672617
714,-0.4577,0.0927,0.9062,1.820,-3.815,0.175,0.01,0.0184,0.0508,0.0200,0.0174,2025-06-11T08:03:37.672617
715,-0.4587,0.0956,0.9077,1.155,-3.955,0.350,0.00,0.0368,0.0254,0.0100,0.0174,2025-06-11T08:03:37.672617
716,-0.4582,0.0893,0.9106,0.035,-4.970,0.455,0.00,0.0368,0.0254,0.0100,0.0087,2025-06-11T08:03:37.672617
717,-0.4509,0.0537,0.9340,-1.855,-2.975,4.655,0.00,0.0368,0.0508,0.0200,0.0174,2025-06-11T08:03:37.672617
718,-0.4363,-0.0210,1.0419,-5.530,5.390,18.305,0.00,0.0184,0.0254,0.0100,0.0087,2025-06-11T08:03:37.672617
719,-0.4265,-0.0459,0.9941,14.105,16.625,25.200,0.01,0.0184,0.0254,0.0100,0.0087,2025-06-11T08:03:37.672617
720,-0.5100,-0.0195,0.7891,7.700,11.480,33.425,0.01,0.0368,0.0508,0.0200,0.0087,2025-06-11T08:03:37.672617
721,-0.4856,0.0937,0.7422,-15.680,-8.190,34.510,0.01,0.0184,0.0254,0.0100,0.0087,2025-06-11T08:03:37.672617
722,-0.4865,0.2064,0.9135,-26.110,-18.480,26.810,0.00,0.0368,0.0508,0.0200,0.0000,2025-06-11T08:03:37.672617
723,-0.4329,0.2445,0.9819,-20.930,-10.815,20.510,0.01,0.0368,0.0508,0.0200,0.0087,2025-06-11T08:03:37.672617
724,-0.4412,0.1947,0.9272,-2.765,1.260,15.225,0.00,0.0184,0.0254,0.0200,0.0174,2025-06-11T08:03:37.672617
725,-0.4792,0.1098,0.8745,-1.680,-0.770,11.060,0.00,0.0368,0.0508,0.0200,0.0174,2025-06-11T08:03:37.672617
726,-0.4660,0.0654,0.8696,-10.430,-9.310,11.410,0.00,0.0368,0.0508,0.0200,0.0174,2025-06-11T08:03:37.772236
727,-0.4602,0.0634,0.9262,-11.865,-7.875,14.350,0.01,0.0368,0.0508,0.0200,0.0087,2025-06-11T08:03:37.772236
728,-0.4426,0.0737,0.9443,-6.545,-3.955,15.120,0.00,0.0184,0.0508,0.0200,0.0087,2025-06-11T08:03:37.772236
729,-0.4597,0.0805,0.9301,-8.750,-3.850,14.910,0.00,0.0368,0.0508,0.0200,0.0087,2025-06-11T08:03:37.772236
730,-0.4577,0.0903,0.8808,-11.690,-4.935,16.065,0.00,0.0184,0.0508,0.0100,0.0087,2025-06-11T08:03:37.772236
731,-0.4656,0.0991,0.8735,-12.355,-7.070,17.010,0.00,0.0368,0.0508,0.0200,0.0087,2025-06-11T08:03:37.773209
732,-0.4621,0.1098,0.9126,-10.990,-8.400,17.500,0.00,0.0184,0.0254,0.0200,0.0087,2025-06-11T08:03:37.773209
733,-0.4460,0.1264,0.9252,-9.835,-7.945,14.595,0.01,0.0184,0.0254,0.0200,0.0087,2025-06-11T08:03:38.017180
734,-0.4494,0.1254,0.9316,-5.495,-6.300,11.270,0.01,0.0184,0.0508,0.0200,0.0174,2025-06-11T08:03:38.017180
735,-0.4504,0.1230,0.9165,-2.975,-3.395,9.940,0.01,0.0368,0.0254,0.0200,0.0087,2025-06-11T08:03:38.017180
736,-0.4529,0.1113,0.9057,-1.085,-3.675,8.330,0.01,0.0184,0.0254,0.0200,0.0087,2025-06-11T08:03:38.017180
737,-0.4543,0.1025,0.9028,-3.255,-4.935,7.980,0.00,0.0368,0.0508,0.0200,0.0174,2025-06-11T08:03:38.017180
738,-0.4514,0.1074,0.9111,-1.400,-5.460,6.125,0.01,0.0184,0.0508,0.0200,0.0087,2025-06-11T08:03:38.017180
739,-0.4553,0.1308,0.9257,1.435,-4.585,2.555,0.00,0.0368,0.0508,0.0200,0.0174,2025-06-11T08:03:38.017180
740,-0.4455,0.1508,0.9243,1.645,-3.815,-0.875,0.00,0.0184,0.0508,0.0100,0.0087,2025-06-11T08:03:38.017180
741,-0.4563,0.1293,0.9023,-0.840,-4.025,-2.765,0.00,0.0184,0.0508,0.0100,0.0087,2025-06-11T08:03:38.017180
742,-0.4568,0.0961,0.8862,-3.290,-5.740,-2.380,0.00,0.0184,0.0254,0.0100,0.0000,2025-06-11T08:03:38.017180
743,-0.4499,0.0742,0.9326,-2.170,-5.915,-1.540,0.01,0.0184,0.0254,0.0200,0.0087,2025-06-11T08:03:38.017180
744,-0.4465,0.0688,0.9345,0.700,-4.410,-0.700,0.00,0.0184,0.0508,0.0200,0.0087,2025-06-11T08:03:38.017180
745,-0.4460,0.0771,0.9160,2.520,-3.080,0.560,0.01,0.0184,0.0254,0.0100,0.0087,2025-06-11T08:03:38.017180
746,-0.4538,0.0942,0.9048,1.435,-3.850,1.260,0.00,0.0184,0.0254,0.0000,0.0174,2025-06-11T08:03:38.017180
747,-0.4529,0.1122,0.8984,0.455,-4.550,0.490,0.01,0.0368,0.0254,0.0100,0.0087,2025-06-11T08:03:38.017180
748,-0.4519,0.1132,0.9106,-1.190,-4.935,-0.385,0.00,0.0368,0.0508,0.0100,0.0087,2025-06-11T08:03:38.017180
749,-0.4519,0.1049,0.9165,-2.135,-4.865,-0.910,0.01,0.0000,0.0254,0.0100,0.0087,2025-06-11T08:03:38.017180
750,-0.4494,0.0956,0.9160,-1.470,-4.340,-0.805,0.01,0.0368,0.0508,0.0200,0.0174,2025-06-11T08:03:38.212437
751,-0.4494,0.0883,0.9140,0.315,-4.235,-0.840,0.00,0.0368,0.0254,0.0100,0.0174,2025-06-11T08:03:38.212437
752,-0.4499,0.0849,0.9121,-0.420,-4.165,0.560,0.01,0.0368,0.0508,0.0100,0.0087,2025-06-11T08:03:38.212437
753,-0.4514,0.0981,0.9223,0.630,-3.780,0.630,0.00,0.0184,0.0508,0.0100,0.0087,2025-06-11T08:03:38.212861
754,-0.4494,0.1020,0.9087,2.660,-3.675,-0.070,0.01,0.0184,0.0508,0.0100,0.0087,2025-06-11T08:03:38.212861
755,-0.4548,0.1020,0.9101,0.420,-3.885,0.140,0.00,0.0184,0.0508,0.0100,0.0087,2025-06-11T08:03:38.213857
756,-0.4524,0.1005,0.9135,-0.210,-4.095,-0.175,0.00,0.0184,0.0508,0.0100,0.0087,2025-06-11T08:03:38.213857
757,-0.4519,0.0956,0.9111,-0.280,-4.025,-0.420,0.01,0.0184,0.0254,0.0100,0.0087,2025-06-11T08:03:38.213857
758,-0.4538,0.0961,0.9140,-1.505,-4.375,-0.105,0.01,0.0184,0.0254,0.0100,0.0087,2025-06-11T08:03:38.213857
759,-0.4504,0.0952,0.9067,-2.380,-4.760,0.070,0.00,0.0184,0.0254,0.0100,0.0087,2025-06-11T08:03:38.213857
760,-0.4534,0.0981,0.9160,-2.065,-4.970,-0.070,0.00,0.0368,0.0254,0.0100,0.0087,2025-06-11T08:03:38.213857
761,-0.4529,0.1010,0.9174,-1.995,-4.550,-0.175,0.00,0.0368,0.0254,0.0100,0.0087,2025-06-11T08:03:38.213857
762,-0.4519,0.0976,0.9111,-1.400,-4.375,-0.210,0.00,0.0184,0.0254,0.0200,0.0087,2025-06-11T08:03:38.213857
763,-0.4519,0.0966,0.9170,0.210,-3.780,-0.140,0.00,0.0368,0.0508,0.0100,0.0174,2025-06-11T08:03:38.213857
764,-0.4524,0.0922,0.9165,1.120,-3.955,-0.175,0.00,0.0368,0.0254,0.0200,0.0174,2025-06-11T08:03:38.213857
765,-0.4509,0.0898,0.9150,2.345,-3.535,0.035,0.01,0.0184,0.0508,0.0200,0.0087,2025-06-11T08:03:38.214853
766,-0.4509,0.0913,0.9184,3.500,-3.010,0.315,0.00,0.0368,0.0508,0.0200,0.0174,2025-06-11T08:03:38.407937
767,-0.4543,0.0981,0.9062,2.625,-3.745,0.210,0.00,0.0184,0.0508,0.0200,0.0087,2025-06-11T08:03:38.407937
768,-0.4538,0.1015,0.9062,0.805,-4.620,0.105,0.01,0.0184,0.0508,0.0200,0.0174,2025-06-11T08:03:38.407937
769,-0.4509,0.1030,0.9145,0.595,-4.305,0.175,0.01,0.0184,0.0508,0.0200,0.0087,2025-06-11T08:03:38.407937
770,-0.4514,0.1010,0.9155,1.505,-3.850,-0.140,0.00,0.0368,0.0254,0.0100,0.0174,2025-06-11T08:03:38.407937
771,-0.4524,0.0952,0.9160,1.645,-4.130,-0.315,0.00,0.0184,0.0508,0.0100,0.0087,2025-06-11T08:03:38.407937
772,-0.4534,0.0927,0.9101,1.820,-4.340,0.070,0.00,0.0184,0.0254,0.0100,0.0087,2025-06-11T08:03:38.408908
773,-0.4524,0.0976,0.9135,2.625,-4.025,0.280,0.01,0.0184,0.0254,0.0200,0.0087,2025-06-11T08:03:38.408999
774,-0.4519,0.1005,0.9145,2.765,-3.955,0.245,0.00,0.0184,0.0254,0.0100,0.0087,2025-06-11T08:03:38.408999
775,-0.4524,0.1030,0.9072,0.665,-4.830,-0.035,0.00,0.0184,0.0254,0.0100,0.0174,2025-06-11T08:03:38.408999
776,-0.4543,0.1059,0.9091,2.030,-4.830,-0.280,0.00,0.0184,0.0508,0.0100,0.0087,2025-06-11T08:03:38.408999
777,-0.4534,0.1025,0.9091,-0.945,-5.390,-0.035,0.00,0.0184,0.0254,0.0200,0.0174,2025-06-11T08:03:38.408999
778,-0.4407,0.1015,0.9067,2.520,-4.655,-1.120,0.00,0.0184,0.0508,0.0100,0.0087,2025-06-11T08:03:38.408999
779,-0.4631,0.0893,0.9150,0.385,-4.235,0.770,0.01,0.0184,0.0254,0.0100,0.0174,2025-06-11T08:03:38.408999
780,-0.4773,0.1069,0.8965,1.085,-4.550,-0.875,0.01,0.0368,0.0254,0.0100,0.0174,2025-06-11T08:03:38.592436
781,-0.4333,0.0966,0.9204,2.765,-3.570,0.770,0.01,0.0368,0.0508,0.0200,0.0087,2025-06-11T08:03:38.592436
782,-0.4524,0.1005,0.8969,-2.240,-4.270,0.875,0.00,0.0184,0.0254,0.0200,0.0174,2025-06-11T08:03:38.592436
783,-0.4602,0.1108,0.9213,0.210,-3.920,-0.560,0.01,0.0368,0.0254,0.0200,0.0174,2025-06-11T08:03:38.592436
784,-0.4499,0.1030,0.9018,-0.105,-4.235,0.000,0.01,0.0184,0.0508,0.0200,0.0087,2025-06-11T08:03:38.592436
785,-0.4543,0.1030,0.9101,-2.870,-3.920,0.070,0.00,0.0368,0.0254,0.0200,0.0087,2025-06-11T08:03:38.592436
786,-0.4538,0.0986,0.9140,1.540,-3.815,-0.385,0.01,0.0184,0.0254,0.0100,0.0087,2025-06-11T08:03:38.592436
787,-0.4504,0.0976,0.9116,-0.805,-4.445,0.280,0.00,0.0184,0.0254,0.0100,0.0087,2025-06-11T08:03:38.592436
788,-0.4548,0.0996,0.9111,-0.140,-3.990,0.385,0.00,0.0184,0.0254,0.0100,0.0087,2025-06-11T08:03:38.592436
789,-0.4499,0.1030,0.9140,1.855,-3.885,0.070,0.00,0.0368,0.0254,0.0100,0.0087,2025-06-11T08:03:38.592436
790,-0.4548,0.1049,0.9052,-1.295,-4.760,0.105,0.00,0.0368,0.0508,0.0100,0.0174,2025-06-11T08:03:38.592436
791,-0.4548,0.1059,0.9096,-1.050,-5.040,-0.175,0.00,0.0368,0.0254,0.0100,0.0087,2025-06-11T08:03:38.592436
792,-0.4485,0.1049,0.9145,-4.270,-4.305,0.035,0.00,0.0184,0.0508,0.0100,0.0087,2025-06-11T08:03:38.592436
793,-0.4548,0.1000,0.9096,-1.120,-5.390,-0.175,0.00,0.0184,0.0508,0.0100,0.0087,2025-06-11T08:03:38.592436
794,-0.4504,0.1000,0.9165,-2.275,-4.515,-0.245,0.01,0.0184,0.0508,0.0100,0.0174,2025-06-11T08:03:38.835329
795,-0.4534,0.1000,0.9106,-1.575,-4.445,0.140,0.00,0.0368,0.0254,0.0100,0.0174,2025-06-11T08:03:38.835329
796,-0.4514,0.1005,0.9130,-0.560,-4.200,-0.140,0.00,0.0368,0.0254,0.0100,0.0087,2025-06-11T08:03:38.835329
797,-0.4519,0.0996,0.9126,-0.525,-4.410,0.035,0.00,0.0368,0.0254,0.0200,0.0087,2025-06-11T08:03:38.835329
798,-0.4534,0.0981,0.9111,0.385,-4.235,0.070,0.01,0.0184,0.0254,0.0200,0.0087,2025-06-11T08:03:38.835329
799,-0.4529,0.0981,0.9126,0.665,-4.410,-0.210,0.00,0.0184,0.0254,0.0100,0.0087,2025-06-11T08:03:38.835329
800,-0.4524,0.0991,0.9135,0.350,-4.130,0.105,0.00,0.0184,0.0254,0.0100,0.0174,2025-06-11T08:03:38.835329
801,-0.4524,0.0996,0.9126,0.000,-4.480,0.035,0.00,0.0184,0.0254,0.0200,0.0087,2025-06-11T08:03:39.118086
802,-0.4529,0.1015,0.9130,0.280,-4.340,-0.035,0.01,0.0368,0.0254,0.0200,0.0000,2025-06-11T08:03:39.118086
803,-0.4529,0.1010,0.9126,-0.910,-4.200,0.210,0.00,0.0184,0.0254,0.0200,0.0087,2025-06-11T08:03:39.118086
804,-0.4534,0.1005,0.9126,-0.630,-4.200,-0.070,0.00,0.0184,0.0254,0.0100,0.0087,2025-06-11T08:03:39.118086
805,-0.4524,0.0981,0.9150,0.105,-3.745,-0.105,0.00,0.0184,0.0508,0.0100,0.0174,2025-06-11T08:03:39.118086
806,-0.4529,0.0986,0.9101,0.315,-3.815,0.105,0.00,0.0184,0.0254,0.0200,0.0087,2025-06-11T08:03:39.118086
807,-0.4524,0.0991,0.9116,0.630,-3.920,0.070,0.00,0.0184,0.0508,0.0100,0.0087,2025-06-11T08:03:39.118856
808,-0.4548,0.0961,0.9150,1.120,-4.025,0.175,0.01,0.0184,0.0254,0.0100,0.0174,2025-06-11T08:03:39.118856
809,-0.4490,0.1020,0.9165,1.645,-4.305,-0.455,0.00,0.0184,0.0254,0.0200,0.0087,2025-06-11T08:03:39.118856
810,-0.4368,0.0961,0.9111,-0.805,-4.620,0.805,0.01,0.0368,0.0254,0.0200,0.0087,2025-06-11T08:03:39.118856
811,-0.4719,0.1054,0.9028,1.820,-4.795,-0.840,0.00,0.0184,0.0508,0.0100,0.0087,2025-06-11T08:03:39.118856
812,-0.4470,0.1005,0.9106,0.490,-4.375,0.490,0.01,0.0368,0.0508,0.0100,0.0087,2025-06-11T08:03:39.118856
813,-0.4543,0.1000,0.9072,0.280,-4.935,0.105,0.01,0.0368,0.0254,0.0200,0.0087,2025-06-11T08:03:39.118856
814,-0.4558,0.1044,0.9209,0.210,-4.270,-0.420,0.00,0.0368,0.0508,0.0200,0.0087,2025-06-11T08:03:39.118856
815,-0.4509,0.1010,0.9023,0.525,-4.305,0.105,0.01,0.0184,0.0508,0.0100,0.0087,2025-06-11T08:03:39.118856
816,-0.4509,0.1000,0.9155,-0.595,-4.340,0.070,0.00,0.0368,0.0508,0.0200,0.0087,2025-06-11T08:03:39.118856
817,-0.4534,0.0996,0.9150,0.455,-3.955,0.035,0.01,0.0184,0.0254,0.0100,0.0087,2025-06-11T08:03:39.118856
818,-0.4504,0.0976,0.9150,0.805,-3.780,0.105,0.00,0.0184,0.0254,0.0100,0.0087,2025-06-11T08:03:39.118856
819,-0.4558,0.1010,0.9096,-0.840,-4.165,0.140,0.00,0.0184,0.0254,0.0100,0.0174,2025-06-11T08:03:39.118856
820,-0.4504,0.1010,0.9116,0.070,-4.270,0.035,0.00,0.0184,0.0508,0.0100,0.0087,2025-06-11T08:03:39.118856
821,-0.4529,0.1010,0.9082,-0.105,-4.165,0.175,0.00,0.0368,0.0254,0.0100,0.0174,2025-06-11T08:03:39.118856
822,-0.4543,0.1020,0.9184,1.785,-3.500,-0.070,0.01,0.0184,0.0254,0.0100,0.0087,2025-06-11T08:03:39.118856
823,-0.4519,0.0986,0.9101,1.190,-3.850,0.175,0.00,0.0184,0.0508,0.0100,0.0087,2025-06-11T08:03:39.118856
824,-0.4553,0.1025,0.9067,-0.420,-4.655,0.140,0.00,0.0184,0.0254,0.0200,0.0087,2025-06-11T08:03:39.118856
825,-0.4519,0.1039,0.9082,-1.295,-5.075,0.175,0.01,0.0368,0.0254,0.0200,0.0087,2025-06-11T08:03:39.118856
826,-0.4534,0.1039,0.9126,-1.925,-4.725,0.035,0.00,0.0368,0.0254,0.0100,0.0174,2025-06-11T08:03:39.118856
827,-0.4558,0.1039,0.9145,-2.135,-4.970,-0.455,0.00,0.0368,0.0254,0.0100,0.0087,2025-06-11T08:03:39.118856
828,-0.4534,0.0986,0.9048,-3.570,-5.355,-0.490,0.00,0.0368,0.0508,0.0200,0.0087,2025-06-11T08:03:39.118856
829,-0.4524,0.0966,0.9126,-2.170,-4.830,-0.210,0.01,0.0184,0.0508,0.0100,0.0087,2025-06-11T08:03:39.118856
830,-0.4538,0.0942,0.9184,-1.190,-4.515,-0.105,0.00,0.0368,0.0508,0.0200,0.0174,2025-06-11T08:03:39.118856
831,-0.4509,0.0952,0.9160,-0.070,-4.445,-0.175,0.01,0.0368,0.0254,0.0200,0.0174,2025-06-11T08:03:39.118856
832,-0.4538,0.0976,0.9126,0.805,-3.920,0.210,0.01,0.0184,0.0254,0.0000,0.0174,2025-06-11T08:03:39.118856
833,-0.4563,0.1025,0.9008,-0.105,-4.655,0.210,0.01,0.0184,0.0508,0.0100,0.0087,2025-06-11T08:03:39.316286
834,-0.4680,0.1010,0.9238,-0.455,-4.935,0.350,0.01,0.0184,0.0508,0.0100,0.0087,2025-06-11T08:03:39.316286
835,-0.4275,0.1005,0.9145,-0.910,-3.885,0.140,0.01,0.0184,0.0508,0.0200,0.0087,2025-06-11T08:03:39.316286
836,-0.4675,0.0976,0.9238,1.295,-5.530,-1.225,0.00,0.0368,0.0508,0.0100,0.0087,2025-06-11T08:03:39.316286
837,-0.4558,0.0991,0.9048,-3.010,-4.515,0.525,0.00,0.0184,0.0508,0.0100,0.0174,2025-06-11T08:03:39.317262
838,-0.4480,0.0952,0.9199,0.490,-4.725,-0.280,0.01,0.0368,0.0508,0.0100,0.0174,2025-06-11T08:03:39.317262
839,-0.4519,0.0956,0.9174,-0.385,-4.620,-0.420,0.00,0.0184,0.0254,0.0100,0.0087,2025-06-11T08:03:39.317262
840,-0.4490,0.0952,0.9091,-1.400,-3.885,0.455,0.01,0.0184,0.0254,0.0200,0.0087,2025-06-11T08:03:39.317262
841,-0.4524,0.0981,0.9184,-0.175,-4.235,0.070,0.00,0.0368,0.0508,0.0100,0.0174,2025-06-11T08:03:39.317262
842,-0.4548,0.0991,0.9111,-0.245,-4.200,-0.245,0.00,0.0368,0.0508,0.0100,0.0087,2025-06-11T08:03:39.317262
843,-0.4504,0.0976,0.9096,-1.050,-4.270,0.280,0.01,0.0184,0.0508,0.0100,0.0174,2025-06-11T08:03:39.318255
844,-0.4534,0.0981,0.9121,-0.525,-4.410,-0.245,0.00,0.0184,0.0254,0.0100,0.0087,2025-06-11T08:03:39.318255
845,-0.4538,0.0986,0.9130,-0.455,-4.585,-0.245,0.00,0.0368,0.0254,0.0200,0.0087,2025-06-11T08:03:39.318255
846,-0.4534,0.0976,0.9116,-0.630,-4.620,-0.105,0.00,0.0184,0.0254,0.0200,0.0174,2025-06-11T08:03:39.319263
847,-0.4524,0.0981,0.9165,-0.035,-4.375,0.000,0.00,0.0184,0.0254,0.0200,0.0087,2025-06-11T08:03:39.319263
848,-0.4509,0.0961,0.9130,-0.665,-4.235,0.070,0.00,0.0184,0.0508,0.0200,0.0174,2025-06-11T08:03:39.552137
849,-0.4534,0.0966,0.9140,-0.210,-4.375,-0.070,0.00,0.0368,0.0254,0.0200,0.0087,2025-06-11T08:03:39.552137
850,-0.4538,0.0966,0.9140,0.210,-4.060,0.000,0.00,0.0368,0.0254,0.0200,0.0087,2025-06-11T08:03:39.552137
851,-0.4504,0.0942,0.9116,-0.385,-4.515,0.070,0.00,0.0368,0.0254,0.0100,0.0087,2025-06-11T08:03:39.552137
852,-0.4538,0.0971,0.9126,0.525,-4.410,-0.140,0.00,0.0368,0.0508,0.0200,0.0087,2025-06-11T08:03:39.552137
853,-0.4509,0.0971,0.9160,0.420,-4.165,0.070,0.00,0.0184,0.0254,0.0100,0.0087,2025-06-11T08:03:39.552137
854,-0.4514,0.0971,0.9106,0.175,-4.270,0.140,0.00,0.0184,0.0254,0.0100,0.0174,2025-06-11T08:03:39.552137
855,-0.4558,0.0986,0.9116,-0.245,-4.305,0.000,0.00,0.0368,0.0254,0.0100,0.0087,2025-06-11T08:03:39.552137
856,-0.4509,0.0971,0.9106,-1.085,-4.410,0.070,0.00,0.0184,0.0508,0.0200,0.0087,2025-06-11T08:03:39.553123
857,-0.4538,0.0981,0.9126,-0.770,-4.445,-0.175,0.00,0.0184,0.0254,0.0100,0.0087,2025-06-11T08:03:39.553123
858,-0.4524,0.0966,0.9145,-0.875,-4.585,-0.245,0.00,0.0184,0.0254,0.0100,0.0174,2025-06-11T08:03:39.553123
859,-0.4519,0.0952,0.9121,-0.175,-4.375,-0.105,0.00,0.0184,0.0508,0.0200,0.0174,2025-06-11T08:03:39.553123
860,-0.4543,0.0908,0.9160,0.770,-4.165,0.000,0.01,0.0368,0.0508,0.0200,0.0087,2025-06-11T08:03:39.553123
861,-0.4509,0.0927,0.9155,0.735,-3.955,0.175,0.01,0.0368,0.0254,0.0100,0.0174,2025-06-11T08:03:39.553123
862,-0.4543,0.0961,0.9082,0.070,-4.445,0.175,0.01,0.0368,0.0254,0.0100,0.0087,2025-06-11T08:03:39.553123
863,-0.4529,0.1005,0.9130,-0.210,-4.445,0.105,0.00,0.0184,0.0508,0.0200,0.0087,2025-06-11T08:03:39.553123
864,-0.4519,0.0996,0.9121,-0.560,-4.480,0.035,0.01,0.0184,0.0254,0.0100,0.0087,2025-06-11T08:03:39.553123
865,-0.4534,0.0976,0.9121,-0.735,-4.515,-0.140,0.00,0.0184,0.0508,0.0200,0.0087,2025-06-11T08:03:39.817593
866,-0.4524,0.0971,0.9155,-0.630,-4.480,-0.245,0.00,0.0368,0.0254,0.0200,0.0087,2025-06-11T08:03:39.817593
867,-0.4519,0.0947,0.9130,0.070,-4.235,-0.140,0.00,0.0368,0.0254,0.0100,0.0174,2025-06-11T08:03:39.818565
868,-0.4529,0.0937,0.9126,0.490,-4.025,0.000,0.01,0.0184,0.0254,0.0000,0.0174,2025-06-11T08:03:39.818565
869,-0.4543,0.0991,0.9135,0.000,-4.375,0.140,0.01,0.0368,0.0254,0.0200,0.0087,2025-06-11T08:03:39.818565
870,-0.4524,0.0971,0.9116,0.210,-4.200,-0.035,0.00,0.0184,0.0508,0.0100,0.0087,2025-06-11T08:03:39.818565
871,-0.4543,0.0981,0.9121,0.140,-4.200,-0.035,0.00,0.0184,0.0254,0.0100,0.0087,2025-06-11T08:03:39.818565
872,-0.4577,0.0961,0.9096,-0.070,-4.515,-0.105,0.00,0.0368,0.0254,0.0100,0.0174,2025-06-11T08:03:39.818565
873,-0.4602,0.0917,0.9282,0.210,-4.375,0.000,0.00,0.0184,0.0254,0.0100,0.0087,2025-06-11T08:03:39.818565
874,-0.4246,0.0893,0.9121,-0.980,-3.500,0.875,0.00,0.0184,0.0254,0.0100,0.0000,2025-06-11T08:03:39.818565
875,-0.4778,0.0991,0.9184,2.380,-5.075,-1.400,0.00,0.0184,0.0254,0.0100,0.0087,2025-06-11T08:03:39.818565
876,-0.4460,0.0961,0.9140,-1.295,-4.130,1.295,0.00,0.0184,0.0254,0.0100,0.0087,2025-06-11T08:03:39.818565
877,-0.4485,0.0966,0.9091,2.170,-4.305,0.105,0.00,0.0184,0.0254,0.0100,0.0087,2025-06-11T08:03:39.818565
878,-0.4577,0.0991,0.9233,1.540,-3.920,-0.700,0.00,0.0368,0.0254,0.0100,0.0087,2025-06-11T08:03:39.818565
879,-0.4509,0.0952,0.8999,0.035,-4.480,0.595,0.01,0.0368,0.0254,0.0200,0.0087,2025-06-11T08:03:39.923264
880,-0.4524,0.0991,0.9204,-0.595,-4.340,-8.960,0.01,0.0184,0.0254,0.0200,0.0087,2025-06-11T08:03:39.923264
881,-0.4577,0.0991,0.9150,0.560,-4.375,-0.385,0.00,0.0184,0.0254,0.0100,0.0087,2025-06-11T08:03:39.923264
882,-0.4480,0.0942,0.9091,-1.330,-4.760,0.210,0.00,0.0368,0.0254,0.0200,0.0087,2025-06-11T08:03:39.923264
883,-0.4543,0.0956,0.9194,0.175,-4.095,-0.105,0.01,0.0184,0.0254,0.0200,0.0087,2025-06-11T08:03:39.923264
884,-0.4514,0.0952,0.9165,1.365,-3.990,-0.210,0.00,0.0368,0.0254,0.0200,0.0087,2025-06-11T08:03:39.923264
885,-0.4538,0.0932,0.9062,-0.140,-4.550,0.210,0.00,0.0368,0.0254,0.0100,0.0087,2025-06-11T08:03:39.923264
886,-0.4534,0.0996,0.9165,0.910,-4.095,0.245,0.01,0.0184,0.0254,0.0100,0.0087,2025-06-11T08:03:39.923264
887,-0.4524,0.0991,0.9072,0.140,-4.235,0.105,0.00,0.0184,0.0254,0.0100,0.0087,2025-06-11T08:03:39.923264
888,-0.4548,0.1020,0.9130,-0.875,-4.795,-0.210,0.01,0.0184,0.0254,0.0100,0.0087,2025-06-11T08:03:39.923264
889,-0.4519,0.0966,0.9126,-0.385,-4.375,-0.175,0.00,0.0184,0.0254,0.0100,0.0087,2025-06-11T08:03:39.923264
890,-0.4504,0.0952,0.9130,0.000,-4.130,-0.035,0.00,0.0184,0.0000,0.0100,0.0087,2025-06-11T08:03:39.923264
891,-0.4534,0.0947,0.9126,0.070,-4.375,-0.105,0.00,0.0368,0.0508,0.0100,0.0174,2025-06-11T08:03:39.923264
892,-0.4529,0.0932,0.9140,-0.245,-4.550,0.070,0.00,0.0184,0.0254,0.0100,0.0174,2025-06-11T08:03:39.923264
893,-0.4504,0.0976,0.9145,0.315,-4.130,0.315,0.00,0.0368,0.0254,0.0100,0.0087,2025-06-11T08:03:39.923264
894,-0.4524,0.0996,0.9121,0.875,-3.990,-0.140,0.00,0.0368,0.0508,0.0200,0.0174,2025-06-11T08:03:40.025468
895,-0.4548,0.0986,0.9106,-0.875,-4.795,-0.035,0.01,0.0368,0.0254,0.0100,0.0087,2025-06-11T08:03:40.025468
896,-0.4543,0.0981,0.9116,-1.295,-4.970,-0.035,0.01,0.0368,0.0254,0.0200,0.0087,2025-06-11T08:03:40.025468
897,-0.4504,0.0976,0.9150,0.420,-4.165,-0.105,0.00,0.0184,0.0508,0.0100,0.0174,2025-06-11T08:03:40.025468
898,-0.4529,0.0952,0.9160,-0.280,-4.165,-0.070,0.01,0.0368,0.0508,0.0100,0.0087,2025-06-11T08:03:40.025468
899,-0.4509,0.0937,0.9126,0.035,-4.200,-0.035,0.00,0.0184,0.0254,0.0100,0.0087,2025-06-11T08:03:40.025468
900,-0.4543,0.0961,0.9106,0.735,-4.025,0.035,0.00,0.0368,0.0254,0.0100,0.0087,2025-06-11T08:03:40.025468
901,-0.4529,0.0981,0.9121,0.105,-4.305,0.105,0.01,0.0368,0.0508,0.0200,0.0087,2025-06-11T08:03:40.271998
902,-0.4534,0.0986,0.9140,-0.315,-4.445,-0.105,0.01,0.0368,0.0508,0.0200,0.0087,2025-06-11T08:03:40.271998
903,-0.4519,0.0961,0.9111,0.315,-4.130,-0.105,0.01,0.0184,0.0508,0.0200,0.0087,2025-06-11T08:03:40.271998
904,-0.4538,0.0961,0.9106,-0.595,-4.235,-0.070,0.01,0.0184,0.0508,0.0100,0.0174,2025-06-11T08:03:40.272360
905,-0.4529,0.0956,0.9135,0.000,-4.410,0.000,0.00,0.0184,0.0254,0.0100,0.0087,2025-06-11T08:03:40.272360
906,-0.4538,0.0932,0.9174,0.525,-4.095,0.070,0.00,0.0184,0.0254,0.0200,0.0087,2025-06-11T08:03:40.272360
907,-0.4514,0.0956,0.9135,1.330,-3.780,0.210,0.00,0.0184,0.0254,0.0100,0.0087,2025-06-11T08:03:40.272360
908,-0.4543,0.0961,0.9145,1.960,-3.815,0.105,0.00,0.0184,0.0254,0.0100,0.0087,2025-06-11T08:03:40.272360
909,-0.4529,0.0981,0.9111,0.805,-3.885,0.140,0.00,0.0184,0.0254,0.0100,0.0087,2025-06-11T08:03:40.272360
910,-0.4538,0.0986,0.9121,0.175,-3.815,0.315,0.00,0.0368,0.0254,0.0200,0.0087,2025-06-11T08:03:40.272360
911,-0.4538,0.1005,0.9135,-0.525,-4.165,0.000,0.00,0.0184,0.0254,0.0100,0.0174,2025-06-11T08:03:40.272360
912,-0.4543,0.0991,0.9087,-0.595,-4.200,-0.140,0.00,0.0184,0.0254,0.0100,0.0087,2025-06-11T08:03:40.272360
913,-0.4553,0.0956,0.9116,-0.525,-4.515,-0.035,0.00,0.0000,0.0254,0.0100,0.0000,2025-06-11T08:03:40.273354
914,-0.4543,0.0942,0.9130,-0.595,-4.480,-0.105,0.00,0.0184,0.0254,0.0100,0.0087,2025-06-11T08:03:40.273354
915,-0.4534,0.0966,0.9111,-0.560,-4.795,-0.070,0.00,0.0368,0.0508,0.0100,0.0087,2025-06-11T08:03:40.273354
916,-0.4538,0.0976,0.9135,0.210,-4.515,-0.035,0.00,0.0368,0.0254,0.0200,0.0087,2025-06-11T08:03:40.273354
917,-0.4548,0.0976,0.9116,0.245,-4.620,-0.070,0.00,0.0184,0.0508,0.0200,0.0087,2025-06-11T08:03:40.273354
918,-0.4538,0.0996,0.9087,-1.120,-4.970,-0.070,0.00,0.0184,0.0508,0.0200,0.0174,2025-06-11T08:03:40.456596
919,-0.4548,0.0991,0.9116,-1.260,-5.040,-0.175,0.00,0.0368,0.0254,0.0100,0.0174,2025-06-11T08:03:40.456596
920,-0.4529,0.0952,0.9145,-0.420,-4.655,-0.140,0.00,0.0184,0.0508,0.0100,0.0087,2025-06-11T08:03:40.456596
921,-0.4514,0.0952,0.9135,-0.770,-4.340,-0.105,0.00,0.0368,0.0508,0.0200,0.0087,2025-06-11T08:03:40.456596
922,-0.4534,0.0956,0.9145,-0.140,-4.270,0.070,0.01,0.0368,0.0508,0.0100,0.0087,2025-06-11T08:03:40.457592
923,-0.4524,0.0947,0.9096,-0.560,-4.305,0.140,0.01,0.0368,0.0254,0.0100,0.0174,2025-06-11T08:03:40.457592
924,-0.4524,0.0952,0.9126,0.175,-4.235,0.105,0.01,0.0368,0.0254,0.0100,0.0087,2025-06-11T08:03:40.457592
925,-0.4563,0.0981,0.9135,0.280,-4.515,-0.035,0.00,0.0368,0.0254,0.0100,0.0174,2025-06-11T08:03:40.457592
926,-0.4529,0.0952,0.9140,0.490,-4.270,0.070,0.00,0.0368,0.0254,0.0100,0.0174,2025-06-11T08:03:40.457592
927,-0.4538,0.0956,0.9145,0.560,-3.990,-0.070,0.00,0.0184,0.0508,0.0100,0.0087,2025-06-11T08:03:40.457592
928,-0.4543,0.0961,0.9116,0.070,-4.060,0.105,0.01,0.0184,0.0254,0.0100,0.0174,2025-06-11T08:03:40.457592
929,-0.4519,0.0956,0.9126,-0.245,-3.955,0.175,0.00,0.0368,0.0508,0.0100,0.0087,2025-06-11T08:03:40.458616
930,-0.4509,0.0947,0.9165,0.350,-3.815,0.035,0.01,0.0368,0.0254,0.0200,0.0174,2025-06-11T08:03:40.458616
931,-0.4548,0.0976,0.9135,0.875,-3.535,0.070,0.01,0.0184,0.0254,0.0100,0.0087,2025-06-11T08:03:40.458616
932,-0.4553,0.0981,0.9121,0.840,-3.710,0.070,0.01,0.0368,0.0508,0.0100,0.0087,2025-06-11T08:03:40.458616
933,-0.4538,0.0952,0.9106,1.505,-3.500,0.280,0.01,0.0368,0.0508,0.0200,0.0087,2025-06-11T08:03:40.641679
934,-0.4534,0.0976,0.9140,2.555,-3.605,0.280,0.00,0.0368,0.0254,0.0200,0.0087,2025-06-11T08:03:40.641679
935,-0.4543,0.0961,0.9155,3.780,-3.815,0.175,0.00,0.0368,0.0254,0.0200,0.0174,2025-06-11T08:03:40.642308
936,-0.4538,0.0986,0.9140,3.535,-3.850,0.280,0.01,0.0368,0.0254,0.0100,0.0174,2025-06-11T08:03:40.642308
937,-0.4538,0.0991,0.9111,5.215,-3.570,0.175,0.00,0.0368,0.0508,0.0100,0.0174,2025-06-11T08:03:40.642308
938,-0.4553,0.1025,0.9082,2.905,-4.060,0.420,0.01,0.0368,0.0508,0.0200,0.0087,2025-06-11T08:03:40.642308
939,-0.4543,0.1044,0.9077,0.630,-4.550,0.280,0.00,0.0368,0.0254,0.0100,0.0087,2025-06-11T08:03:40.642308
940,-0.4577,0.1069,0.9140,0.000,-4.620,-0.105,0.00,0.0184,0.0254,0.0100,0.0087,2025-06-11T08:03:40.642308
941,-0.4529,0.1030,0.9116,0.805,-3.605,-0.035,0.00,0.0368,0.0254,0.0100,0.0087,2025-06-11T08:03:40.642308
942,-0.4553,0.1015,0.9106,1.680,-3.710,-0.210,0.00,0.0000,0.0254,0.0100,0.0087,2025-06-11T08:03:40.642308
943,-0.4548,0.0976,0.9057,0.455,-4.725,-0.175,0.00,0.0184,0.0254,0.0100,0.0087,2025-06-11T08:03:40.642308
944,-0.4543,0.1005,0.9062,-0.490,-5.390,0.105,0.00,0.0184,0.0254,0.0100,0.0087,2025-06-11T08:03:40.642308
945,-0.4538,0.1039,0.9155,-1.330,-5.390,0.175,0.00,0.0368,0.0254,0.0100,0.0087,2025-06-11T08:03:40.642308
946,-0.4543,0.1059,0.9106,0.350,-5.495,-0.350,0.00,0.0184,0.0508,0.0100,0.0174,2025-06-11T08:03:40.642308
947,-0.4524,0.1010,0.9130,2.450,-4.585,-0.210,0.00,0.0368,0.0508,0.0100,0.0174,2025-06-11T08:03:40.844412
948,-0.4529,0.1005,0.9121,2.660,-3.780,0.105,0.01,0.0368,0.0508,0.0100,0.0174,2025-06-11T08:03:40.844412
949,-0.4553,0.1010,0.9082,1.155,-5.005,-0.035,0.00,0.0184,0.0254,0.0200,0.0087,2025-06-11T08:03:40.844412
950,-0.4534,0.1039,0.9155,-0.140,-4.865,-0.035,0.01,0.0368,0.0508,0.0100,0.0087,2025-06-11T08:03:40.845480
951,-0.4553,0.1069,0.9101,-0.700,-4.655,0.245,0.00,0.0368,0.0254,0.0100,0.0087,2025-06-11T08:03:41.069573
952,-0.4548,0.1083,0.9067,-2.940,-5.145,-0.140,0.01,0.0184,0.0508,0.0100,0.0087,2025-06-11T08:03:41.069573
953,-0.4558,0.1059,0.9130,-3.465,-5.355,-0.455,0.00,0.0184,0.0254,0.0100,0.0087,2025-06-11T08:03:41.069573
954,-0.4524,0.1015,0.9111,-2.975,-4.725,-0.280,0.00,0.0184,0.0254,0.0100,0.0087,2025-06-11T08:03:41.069573
955,-0.4524,0.0961,0.9179,-0.630,-4.095,-0.420,0.00,0.0184,0.0254,0.0200,0.0087,2025-06-11T08:03:41.069573
956,-0.4534,0.0917,0.9174,0.840,-4.025,-0.070,0.00,0.0184,0.0254,0.0200,0.0087,2025-06-11T08:03:41.069573
957,-0.4538,0.0947,0.9091,0.105,-4.130,0.315,0.01,0.0184,0.0254,0.0100,0.0087,2025-06-11T08:03:41.069573
958,-0.4573,0.1015,0.9111,0.910,-4.165,0.455,0.00,0.0184,0.0254,0.0200,0.0087,2025-06-11T08:03:41.069573
959,-0.4534,0.1039,0.9130,4.200,-3.255,0.350,0.01,0.0000,0.0254,0.0200,0.0087,2025-06-11T08:03:41.069573
960,-0.4534,0.1044,0.9130,3.710,-3.115,0.140,0.00,0.0184,0.0508,0.0100,0.0174,2025-06-11T08:03:41.069573
961,-0.4587,0.1039,0.9091,2.415,-3.745,-0.070,0.00,0.0184,0.0254,0.0100,0.0087,2025-06-11T08:03:41.069573
962,-0.4543,0.1030,0.9052,1.540,-4.025,0.245,0.01,0.0184,0.0508,0.0200,0.0087,2025-06-11T08:03:41.089379
963,-0.4553,0.1039,0.9101,1.050,-4.480,0.140,0.01,0.0184,0.0508,0.0200,0.0087,2025-06-11T08:03:41.089379
964,-0.4538,0.1044,0.9130,0.735,-4.515,-0.070,0.01,0.0368,0.0508,0.0200,0.0087,2025-06-11T08:03:41.089379
965,-0.4534,0.1064,0.9111,0.980,-4.340,0.070,0.00,0.0184,0.0254,0.0200,0.0174,2025-06-11T08:03:41.089379
966,-0.4553,0.1039,0.9101,-0.840,-4.515,-0.035,0.00,0.0184,0.0508,0.0200,0.0087,2025-06-11T08:03:41.089379
967,-0.4534,0.1039,0.9106,-1.085,-4.340,0.035,0.00,0.0184,0.0254,0.0100,0.0087,2025-06-11T08:03:41.089379
968,-0.4548,0.1035,0.9106,-2.345,-4.410,0.105,0.00,0.0184,0.0254,0.0100,0.0087,2025-06-11T08:03:41.089379
969,-0.4568,0.1030,0.9096,-1.960,-4.760,-0.280,0.01,0.0368,0.0254,0.0100,0.0087,2025-06-11T08:03:41.090343
970,-0.4534,0.1020,0.9140,-0.385,-4.550,-0.105,0.00,0.0184,0.0254,0.0100,0.0087,2025-06-11T08:03:41.090343
971,-0.4529,0.0976,0.9160,1.470,-3.570,0.105,0.00,0.0184,0.0508,0.0100,0.0087,2025-06-11T08:03:41.090343
972,-0.4524,0.0981,0.9140,2.800,-3.535,0.175,0.00,0.0184,0.0254,0.0200,0.0087,2025-06-11T08:03:41.090343
973,-0.4548,0.1015,0.9087,2.905,-3.290,0.455,0.00,0.0184,0.0254,0.0100,0.0087,2025-06-11T08:03:41.090343
974,-0.4553,0.1059,0.9062,1.925,-3.605,0.490,0.01,0.0184,0.0254,0.0200,0.0087,2025-06-11T08:03:41.090343
975,-0.4563,0.1088,0.9067,0.770,-3.780,0.350,0.00,0.0184,0.0254,0.0200,0.0087,2025-06-11T08:03:41.090343
976,-0.4543,0.1078,0.9111,1.190,-3.885,0.035,0.01,0.0184,0.0254,0.0100,0.0174,2025-06-11T08:03:41.090343
977,-0.4538,0.1088,0.9096,0.000,-4.025,0.000,0.00,0.0184,0.0508,0.0200,0.0174,2025-06-11T08:03:41.090343
978,-0.4543,0.1059,0.9106,-0.805,-4.200,0.035,0.00,0.0368,0.0254,0.0100,0.0087,2025-06-11T08:03:41.090343
979,-0.4509,0.1025,0.9130,1.820,-4.270,0.105,0.01,0.0368,0.0508,0.0200,0.0087,2025-06-11T08:03:41.090343
980,-0.4592,0.1020,0.9135,2.065,-3.640,0.280,0.00,0.0184,0.0254,0.0200,0.0174,2025-06-11T08:03:41.249566
981,-0.4592,0.1030,0.9038,0.455,-4.410,0.350,0.00,0.0368,0.0254,0.0200,0.0087,2025-06-11T08:03:41.249566
982,-0.4573,0.1088,0.9072,0.280,-4.760,0.035,0.00,0.0368,0.0508,0.0200,0.0087,2025-06-11T08:03:41.249566
983,-0.4563,0.1127,0.9077,1.750,-4.865,0.140,0.01,0.0368,0.0508,0.0200,0.0087,2025-06-11T08:03:41.249566
984,-0.4582,0.1118,0.9077,-0.630,-4.865,-0.070,0.00,0.0184,0.0508,0.0100,0.0087,2025-06-11T08:03:41.249566
985,-0.4553,0.1083,0.9101,-0.665,-4.935,-0.315,0.00,0.0368,0.0254,0.0100,0.0174,2025-06-11T08:03:41.249566
986,-0.4558,0.1064,0.9082,-3.255,-5.005,-0.070,0.00,0.0184,0.0254,0.0100,0.0087,2025-06-11T08:03:41.249566
987,-0.4553,0.1064,0.9077,-3.710,-5.215,-0.140,0.00,0.0184,0.0508,0.0100,0.0087,2025-06-11T08:03:41.249566
988,-0.4558,0.1069,0.9082,-4.655,-5.320,-0.175,0.00,0.0368,0.0254,0.0200,0.0087,2025-06-11T08:03:41.249566
989,-0.4534,0.1044,0.9096,-5.390,-5.600,-0.210,0.00,0.0184,0.0254,0.0200,0.0087,2025-06-11T08:03:41.249566
990,-0.4529,0.1049,0.9130,-4.760,-5.145,-0.385,0.01,0.0184,0.0508,0.0100,0.0174,2025-06-11T08:03:41.249566
991,-0.4529,0.1005,0.9140,-3.430,-4.445,-0.210,0.01,0.0184,0.0254,0.0100,0.0087,2025-06-11T08:03:41.249566
992,-0.4543,0.0991,0.9135,-2.520,-4.340,-0.175,0.00,0.0184,0.0254,0.0100,0.0087,2025-06-11T08:03:41.249566
993,-0.4538,0.0961,0.9121,-0.630,-4.585,-0.245,0.01,0.0184,0.0508,0.0100,0.0174,2025-06-11T08:03:41.351392
994,-0.4538,0.0976,0.9111,-0.735,-4.760,0.070,0.00,0.0368,0.0254,0.0200,0.0087,2025-06-11T08:03:41.351392
995,-0.4529,0.0976,0.9121,0.385,-4.725,0.140,0.00,0.0368,0.0254,0.0200,0.0087,2025-06-11T08:03:41.351392
996,-0.4534,0.1005,0.9135,1.155,-4.165,0.000,0.01,0.0368,0.0508,0.0200,0.0087,2025-06-11T08:03:41.351392
997,-0.4538,0.1005,0.9116,1.050,-3.675,0.175,0.00,0.0368,0.0254,0.0200,0.0087,2025-06-11T08:03:41.459705
998,-0.4534,0.1035,0.9082,1.085,-3.780,0.035,0.01,0.0184,0.0508,0.0200,0.0087,2025-06-11T08:03:41.459705
999,-0.4529,0.0991,0.9106,1.470,-3.675,0.140,0.01,0.0368,0.0254,0.0100,0.0087,2025-06-11T08:03:41.459705
1000,-0.4548,0.1005,0.9101,0.805,-3.920,0.245,0.00,0.0368,0.0508,0.0200,0.0174,2025-06-11T08:03:41.459705
1001,-0.4548,0.1039,0.9096,0.350,-4.130,0.035,0.00,0.0184,0.0508,0.0100,0.0087,2025-06-11T08:03:41.459705
1002,-0.4553,0.1049,0.9077,-0.385,-4.445,-0.070,0.00,0.0184,0.0508,0.0100,0.0174,2025-06-11T08:03:41.460337
1003,-0.4553,0.1025,0.9116,-0.070,-4.200,0.140,0.00,0.0184,0.0254,0.0100,0.0087,2025-06-11T08:03:41.460337
1004,-0.4543,0.1015,0.9116,-0.385,-4.305,-0.070,0.00,0.0000,0.0254,0.0100,0.0087,2025-06-11T08:03:41.460337
1005,-0.4548,0.1000,0.9087,-0.630,-4.375,-0.105,0.00,0.0184,0.0254,0.0100,0.0174,2025-06-11T08:03:41.460337
1006,-0.4553,0.1005,0.9135,0.105,-4.130,0.035,0.00,0.0368,0.0254,0.0200,0.0174,2025-06-11T08:03:41.460337
1007,-0.4548,0.1000,0.9101,0.035,-4.025,0.070,0.00,0.0184,0.0254,0.0100,0.0087,2025-06-11T08:03:41.460337
1008,-0.4568,0.1015,0.9096,-0.490,-4.550,0.175,0.01,0.0368,0.0508,0.0200,0.0262,2025-06-11T08:03:41.716416
1009,-0.4534,0.1010,0.9116,-0.315,-4.550,-0.070,0.00,0.0368,0.0254,0.0100,0.0087,2025-06-11T08:03:41.716416
1010,-0.4543,0.1025,0.9121,0.840,-4.165,0.070,0.01,0.0368,0.0508,0.0100,0.0174,2025-06-11T08:03:41.716416
1011,-0.4543,0.1030,0.9150,1.050,-4.060,0.000,0.01,0.0184,0.0508,0.0200,0.0174,2025-06-11T08:03:41.716416
1012,-0.4548,0.0991,0.9087,-0.070,-4.095,-0.070,0.01,0.0184,0.0254,0.0100,0.0087,2025-06-11T08:03:41.716416
1013,-0.4534,0.1000,0.9072,-0.420,-4.305,0.245,0.00,0.0184,0.0508,0.0100,0.0174,2025-06-11T08:03:41.716416
1014,-0.4568,0.1049,0.9096,-1.155,-4.550,0.000,0.00,0.0184,0.0508,0.0100,0.0087,2025-06-11T08:03:41.716416
1015,-0.4548,0.1044,0.9082,-1.925,-5.005,-0.070,0.00,0.0000,0.0254,0.0200,0.0087,2025-06-11T08:03:41.716416
1016,-0.4534,0.1049,0.9126,-1.890,-4.935,-0.245,0.00,0.0184,0.0254,0.0100,0.0087,2025-06-11T08:03:41.716416
1017,-0.4529,0.0996,0.9116,-0.910,-4.620,-0.315,0.01,0.0368,0.0254,0.0100,0.0087,2025-06-11T08:03:41.716416
1018,-0.4553,0.0961,0.9126,-0.035,-4.480,-0.105,0.00,0.0184,0.0254,0.0200,0.0087,2025-06-11T08:03:41.716416
1019,-0.4534,0.0956,0.9145,1.085,-4.235,0.035,0.00,0.0184,0.0254,0.0200,0.0087,2025-06-11T08:03:41.716416
1020,-0.4534,0.0976,0.9116,1.890,-3.850,0.210,0.00,0.0368,0.0254,0.0200,0.0087,2025-06-11T08:03:41.716416
1021,-0.4529,0.1015,0.9096,1.645,-4.025,0.350,0.01,0.0368,0.0254,0.0100,0.0087,2025-06-11T08:03:41.716416
1022,-0.4573,0.1054,0.9091,2.205,-4.025,0.070,0.01,0.0184,0.0508,0.0200,0.0000,2025-06-11T08:03:41.716416
1023,-0.4548,0.1054,0.9087,0.700,-3.990,0.140,0.01,0.0184,0.0508,0.0100,0.0174,2025-06-11T08:03:41.716416
1024,-0.4548,0.1059,0.9087,0.560,-4.200,0.070,0.00,0.0368,0.0254,0.0100,0.0174,2025-06-11T08:03:41.716416
1025,-0.4543,0.1025,0.9082,0.105,-4.305,-0.140,0.01,0.0368,0.0254,0.0100,0.0087,2025-06-11T08:03:41.894657
1026,-0.4553,0.1010,0.9096,-0.280,-4.445,0.000,0.01,0.0184,0.0508,0.0100,0.0087,2025-06-11T08:03:41.894657
1027,-0.4538,0.1005,0.9111,0.840,-4.305,0.035,0.01,0.0184,0.0254,0.0100,0.0087,2025-06-11T08:03:41.894657
1028,-0.4534,0.1005,0.9130,2.310,-3.885,0.210,0.01,0.0184,0.0254,0.0200,0.0174,2025-06-11T08:03:41.894657
1029,-0.4558,0.1035,0.9101,2.310,-3.675,0.280,0.01,0.0184,0.0508,0.0200,0.0087,2025-06-11T08:03:41.894657
1030,-0.4568,0.1044,0.9082,2.765,-3.570,0.210,0.01,0.0184,0.0508,0.0100,0.0087,2025-06-11T08:03:41.894657
1031,-0.4543,0.1064,0.9101,1.855,-3.850,0.280,0.00,0.0184,0.0508,0.0200,0.0087,2025-06-11T08:03:41.894657
1032,-0.4548,0.1083,0.9072,0.910,-4.235,0.105,0.00,0.0184,0.0254,0.0100,0.0087,2025-06-11T08:03:41.894657
1033,-0.4553,0.1069,0.9082,0.910,-4.515,0.000,0.00,0.0184,0.0254,0.0100,0.0087,2025-06-11T08:03:41.894657
1034,-0.4558,0.1078,0.9101,-0.560,-4.480,-0.070,0.01,0.0368,0.0254,0.0100,0.0087,2025-06-11T08:03:41.894657
1035,-0.4548,0.1049,0.9087,-0.035,-4.445,-0.175,0.00,0.0368,0.0254,0.0100,0.0087,2025-06-11T08:03:41.894657
1036,-0.4543,0.1035,0.9106,-0.385,-4.130,0.000,0.00,0.0368,0.0254,0.0200,0.0087,2025-06-11T08:03:41.894657
1037,-0.4563,0.1049,0.9116,0.420,-4.340,0.140,0.01,0.0368,0.0254,0.0200,0.0087,2025-06-11T08:03:41.894657
1038,-0.4553,0.1025,0.9101,0.385,-4.410,0.000,0.00,0.0184,0.0254,0.0100,0.0087,2025-06-11T08:03:41.894657
1039,-0.4568,0.1054,0.9101,1.120,-4.060,0.175,0.00,0.0184,0.0254,0.0100,0.0087,2025-06-11T08:03:41.894657
1040,-0.4573,0.1069,0.9121,0.105,-4.235,0.140,0.01,0.0368,0.0508,0.0100,0.0087,2025-06-11T08:03:42.073607
1041,-0.4543,0.1059,0.9101,-0.525,-4.410,0.035,0.01,0.0368,0.0508,0.0100,0.0087,2025-06-11T08:03:42.073607
1042,-0.4573,0.1064,0.9116,0.280,-4.200,-0.035,0.00,0.0368,0.0508,0.0200,0.0174,2025-06-11T08:03:42.073607
1043,-0.4548,0.1074,0.9087,-0.420,-4.235,0.035,0.01,0.0368,0.0508,0.0100,0.0087,2025-06-11T08:03:42.073607
1044,-0.4548,0.1044,0.9077,-1.505,-4.515,0.035,0.00,0.0184,0.0508,0.0200,0.0174,2025-06-11T08:03:42.073975
1045,-0.4548,0.1035,0.9106,-1.575,-4.270,-0.070,0.00,0.0184,0.0254,0.0100,0.0087,2025-06-11T08:03:42.074067
1046,-0.4553,0.1030,0.9130,-0.455,-3.640,0.245,0.00,0.0184,0.0508,0.0100,0.0174,2025-06-11T08:03:42.074067
1047,-0.4548,0.1015,0.9126,-0.840,-3.640,0.105,0.01,0.0184,0.0254,0.0100,0.0000,2025-06-11T08:03:42.074067
1048,-0.4524,0.1020,0.9145,1.155,-2.730,0.000,0.00,0.0184,0.0254,0.0100,0.0087,2025-06-11T08:03:42.074067
1049,-0.4597,0.1049,0.9072,-1.295,-4.410,0.175,0.00,0.0184,0.0254,0.0100,0.0087,2025-06-11T08:03:42.074067
1050,-0.4568,0.1074,0.9062,-3.290,-5.635,-0.350,0.00,0.0184,0.0254,0.0100,0.0174,2025-06-11T08:03:42.074067
1051,-0.4558,0.1064,0.9106,-2.555,-5.600,-0.245,0.01,0.0368,0.0254,0.0100,0.0174,2025-06-11T08:03:42.074067
1052,-0.4543,0.1054,0.9135,-3.255,-5.215,-0.210,0.00,0.0184,0.0254,0.0100,0.0087,2025-06-11T08:03:42.074067
1053,-0.4563,0.1015,0.9111,-2.940,-5.425,-0.665,0.00,0.0184,0.0254,0.0100,0.0087,2025-06-11T08:03:42.074067
1054,-0.4553,0.0986,0.9121,-3.150,-5.040,-0.385,0.01,0.0368,0.0508,0.0200,0.0087,2025-06-11T08:03:42.278333
1055,-0.4534,0.0991,0.9140,-0.735,-4.445,-0.140,0.01,0.0368,0.0254,0.0100,0.0087,2025-06-11T08:03:42.278333
1056,-0.4538,0.1025,0.9145,-4.235,-4.235,0.035,0.01,0.0184,0.0254,0.0100,0.0174,2025-06-11T08:03:42.279335
1057,-0.4538,0.1010,0.9106,-1.925,-4.515,-0.140,0.00,0.0368,0.0254,0.0100,0.0174,2025-06-11T08:03:42.279335
1058,-0.4558,0.1020,0.9116,-5.495,-4.655,-0.105,0.01,0.0368,0.0254,0.0100,0.0087,2025-06-11T08:03:42.279335
1059,-0.4543,0.0991,0.9101,-2.310,-3.815,-0.070,0.00,0.0184,0.0508,0.0100,0.0087,2025-06-11T08:03:42.279335
1060,-0.4543,0.0947,0.9165,-3.850,-4.095,-0.245,0.01,0.0368,0.0254,0.0100,0.0087,2025-06-11T08:03:42.279335
1061,-0.4558,0.0903,0.9130,-0.910,-4.760,-0.350,0.00,0.0000,0.0254,0.0200,0.0087,2025-06-11T08:03:42.279335
1062,-0.4553,0.0903,0.9155,1.925,-3.920,-0.210,0.00,0.0184,0.0508,0.0100,0.0087,2025-06-11T08:03:42.279335
1063,-0.4538,0.0893,0.9140,4.585,-3.220,0.525,0.00,0.0184,0.0254,0.0100,0.0087,2025-06-11T08:03:42.279335
1064,-0.4553,0.0932,0.9111,3.990,-3.115,0.525,0.00,0.0184,0.0508,0.0100,0.0174,2025-06-11T08:03:42.280332
1065,-0.4548,0.0991,0.9096,3.465,-3.325,0.560,0.00,0.0184,0.0254,0.0200,0.0087,2025-06-11T08:03:42.280332
1066,-0.4563,0.1064,0.9067,1.890,-3.570,0.490,0.00,0.0184,0.0254,0.0100,0.0087,2025-06-11T08:03:42.280332
1067,-0.4558,0.1083,0.9062,1.715,-4.060,0.140,0.00,0.0184,0.0508,0.0100,0.0087,2025-06-11T08:03:42.280332
1068,-0.4568,0.1035,0.9043,0.665,-4.585,-0.175,0.00,0.0184,0.0254,0.0200,0.0087,2025-06-11T08:03:42.280332
1069,-0.4558,0.0981,0.9096,1.505,-5.145,-0.315,0.00,0.0184,0.0254,0.0200,0.0174,2025-06-11T08:03:42.523036
1070,-0.4534,0.0952,0.9111,2.380,-4.305,8.785,0.01,0.0368,0.0254,0.0200,0.0174,2025-06-11T08:03:42.523036
1071,-0.4573,0.0966,0.9087,1.540,-4.690,0.175,0.01,0.0184,0.0254,0.0200,0.0087,2025-06-11T08:03:42.523036
1072,-0.4563,0.1005,0.9106,1.925,-4.620,0.000,0.01,0.0184,0.0254,0.0200,0.0087,2025-06-11T08:03:42.523036
1073,-0.4553,0.1030,0.9111,1.890,-4.620,0.140,0.01,0.0368,0.0254,0.0200,0.0087,2025-06-11T08:03:42.523036
1074,-0.4543,0.1064,0.9062,-8.855,-4.550,0.000,0.00,0.0184,0.0508,0.0100,0.0087,2025-06-11T08:03:42.523036
1075,-0.4568,0.1064,0.9077,-0.910,-4.795,-0.280,0.01,0.0184,0.0254,0.0100,0.0087,2025-06-11T08:03:42.523036
1076,-0.4553,0.1020,0.9091,-2.485,-5.040,-0.210,0.00,0.0184,0.0254,0.0100,0.0087,2025-06-11T08:03:42.523036
1077,-0.4558,0.1005,0.9126,-1.085,-4.515,-0.105,0.01,0.0368,0.0254,0.0100,0.0087,2025-06-11T08:03:42.524108
1078,-0.4538,0.0991,0.9106,-2.625,-4.865,-0.140,0.00,0.0368,0.0254,0.0100,0.0174,2025-06-11T08:03:42.524108
1079,-0.4563,0.1010,0.9101,-3.465,-5.005,0.035,0.00,0.0184,0.0254,0.0100,0.0087,2025-06-11T08:03:42.524108
1080,-0.4548,0.1025,0.9096,-3.850,-4.725,0.000,0.01,0.0368,0.0508,0.0200,0.0087,2025-06-11T08:03:42.524108
1081,-0.4548,0.1010,0.9121,-3.045,-4.305,8.925,0.01,0.0184,0.0254,0.0100,0.0087,2025-06-11T08:03:42.524108
1082,-0.4538,0.1005,0.9121,-2.660,-4.375,-0.175,0.00,0.0184,0.0254,0.0200,0.0087,2025-06-11T08:03:42.524108
1083,-0.4543,0.0961,0.9121,-2.065,-3.990,-0.245,0.01,0.0368,0.0254,0.0100,0.0087,2025-06-11T08:03:42.524108
1084,-0.4543,0.0966,0.9116,-1.400,-3.885,0.000,0.01,0.0184,0.0508,0.0100,0.0087,2025-06-11T08:03:42.524108
1085,-0.4538,0.0956,0.9121,-2.310,-4.795,-0.070,0.01,0.0184,0.0254,0.0100,0.0087,2025-06-11T08:03:42.524108
1086,-0.4568,0.0952,0.9116,-0.595,-4.445,0.000,0.00,0.0184,0.0254,0.0200,0.0087,2025-06-11T08:03:42.698834
1087,-0.4558,0.0956,0.9165,0.175,-4.060,0.175,0.01,0.0368,0.0508,0.0100,0.0087,2025-06-11T08:03:42.698834
1088,-0.4519,0.0981,0.9126,1.120,-3.290,-0.070,0.00,0.0184,0.0254,0.0200,0.0087,2025-06-11T08:03:42.698834
1089,-0.4568,0.0961,0.9106,-1.085,-3.815,0.280,0.01,0.0368,0.0254,0.0100,0.0087,2025-06-11T08:03:42.698834
1090,-0.4538,0.0976,0.9091,0.525,-3.535,0.140,0.01,0.0368,0.0254,0.0200,0.0087,2025-06-11T08:03:42.698834
1091,-0.4563,0.0981,0.9106,-0.560,-3.780,0.245,0.01,0.0368,0.0254,0.0100,0.0087,2025-06-11T08:03:42.698834
1092,-0.4534,0.0956,0.9087,-1.295,-3.815,0.210,0.01,0.0368,0.0508,0.0200,0.0174,2025-06-11T08:03:42.698834
1093,-0.4573,0.0991,0.9096,-1.155,-3.850,-0.070,0.00,0.0368,0.0508,0.0200,0.0087,2025-06-11T08:03:42.698834
1094,-0.4558,0.0952,0.9101,-0.490,-4.025,0.105,0.00,0.0184,0.0254,0.0100,0.0174,2025-06-11T08:03:42.698834
1095,-0.4568,0.0956,0.9057,1.190,-3.955,-0.140,0.00,0.0184,0.0254,0.0100,0.0087,2025-06-11T08:03:42.698834
1096,-0.4646,0.0947,0.9126,1.960,-4.480,0.070,0.00,0.0184,0.0254,0.0200,0.0087,2025-06-11T08:03:42.698834
1097,-0.4455,0.0966,0.9135,1.505,-4.445,0.035,0.00,0.0184,0.0254,0.0100,0.0087,2025-06-11T08:03:42.698834
1098,-0.4480,0.0952,0.9292,1.785,-4.480,0.560,0.01,0.0184,0.0254,0.0100,0.0087,2025-06-11T08:03:42.698834
1099,-0.4504,0.1025,0.8989,1.295,-3.640,0.315,0.00,0.0184,0.0508,0.0100,0.0087,2025-06-11T08:03:42.698834
1100,-0.4719,0.0947,0.9077,2.590,-4.480,-0.875,0.00,0.0368,0.0508,0.0300,0.0087,2025-06-11T08:03:42.698834
1101,-0.4514,0.0956,0.8965,-2.625,-4.830,1.050,0.01,0.0184,0.0254,0.0200,0.0174,2025-06-11T08:03:42.927315
1102,-0.4582,0.1020,0.9194,-0.245,-4.830,-0.140,0.01,0.0184,0.0254,0.0200,0.0174,2025-06-11T08:03:42.927315
1103,-0.4597,0.0991,0.9165,0.630,-4.235,-0.630,0.01,0.0368,0.0508,0.0100,0.0087,2025-06-11T08:03:42.927315
1104,-0.4558,0.0937,0.9062,-2.415,-4.585,0.280,0.00,0.0184,0.0508,0.0200,0.0174,2025-06-11T08:03:42.927315
1105,-0.4577,0.1000,0.9121,-3.080,-4.655,-0.105,0.00,0.0184,0.0254,0.0100,0.0087,2025-06-11T08:03:42.927315
1106,-0.4592,0.0976,0.9082,-1.540,-4.830,-0.490,0.01,0.0368,0.0508,0.0100,0.0087,2025-06-11T08:03:42.927315
1107,-0.4529,0.0956,0.9033,-5.425,-6.055,0.280,0.01,0.0368,0.0508,0.0100,0.0087,2025-06-11T08:03:42.927315
1108,-0.4573,0.0986,0.9184,-2.380,-5.355,-0.455,0.00,0.0368,0.0508,0.0200,0.0087,2025-06-11T08:03:42.927315
1109,-0.4499,0.0913,0.9189,-0.350,-3.815,-0.525,0.00,0.0184,0.0254,0.0100,0.0087,2025-06-11T08:03:42.927315
1110,-0.4587,0.0888,0.9033,-2.380,-4.270,-0.280,0.00,0.0000,0.0254,0.0100,0.0000,2025-06-11T08:03:42.927315
1111,-0.4582,0.0937,0.9145,-5.145,-4.725,-0.105,0.00,0.0184,0.0508,0.0100,0.0087,2025-06-11T08:03:42.927315
1112,-0.4524,0.0917,0.9096,-3.010,-5.040,0.140,0.00,0.0184,0.0254,0.0100,0.0087,2025-06-11T08:03:42.927315
1113,-0.4529,0.0952,0.9209,-4.410,-4.235,0.035,0.00,0.0184,0.0508,0.0100,0.0087,2025-06-11T08:03:42.927315
1114,-0.4548,0.0917,0.9160,-1.085,-3.535,-0.175,0.00,0.0184,0.0254,0.0100,0.0087,2025-06-11T08:03:42.927315
1115,-0.4534,0.0854,0.9135,-0.280,-3.640,-0.175,0.01,0.0184,0.0254,0.0100,0.0087,2025-06-11T08:03:43.097335
1116,-0.4568,0.0878,0.9091,0.105,-4.025,0.035,0.01,0.0184,0.0508,0.0200,0.0174,2025-06-11T08:03:43.097335
1117,-0.4553,0.0874,0.9150,1.295,-4.060,0.350,0.00,0.0184,0.0254,0.0100,0.0087,2025-06-11T08:03:43.097335
1118,-0.4558,0.0903,0.9160,0.805,-4.025,0.175,0.00,0.0184,0.0508,0.0200,0.0174,2025-06-11T08:03:43.097335
1119,-0.4548,0.0927,0.9165,2.310,-3.605,-0.070,0.00,0.0368,0.0508,0.0200,0.0087,2025-06-11T08:03:43.097335
1120,-0.4568,0.0922,0.9057,1.505,-3.780,0.175,0.00,0.0184,0.0508,0.0200,0.0087,2025-06-11T08:03:43.097335
