SeqNum,AccX,AccY,AccZ,GyroX,GyroY,GyroZ,Flex,Force1,Force2,Force3,Force4,TimestampReception
10300,-0.2547,0.5807,0.6520,22.225,-37.695,5.530,2,1,1,353,333,2025-06-06T10:10:44.897345
10301,-0.4187,0.6617,0.9126,188.615,-132.475,22.610,3,2,1,351,318,2025-06-06T10:10:44.897345
10302,-0.3299,0.7144,0.8501,182.630,-188.755,38.850,1,3,2,375,362,2025-06-06T10:10:44.897345
10303,-0.1454,0.6686,0.6710,48.860,-169.995,46.340,2,3,1,389,381,2025-06-06T10:10:44.897345
10304,-0.0551,0.6407,0.4743,-21.630,-125.580,47.635,3,1,1,399,393,2025-06-06T10:10:44.897345
10305,0.0205,0.5344,0.4587,-64.365,-102.620,42.350,3,3,2,399,397,2025-06-06T10:10:44.944934
10306,0.0747,0.4455,0.3845,-14.420,-92.785,35.525,2,2,1,402,368,2025-06-06T10:10:44.944934
10307,0.1606,0.4080,0.3104,32.480,-73.885,29.785,1,2,1,403,391,2025-06-06T10:10:44.944934
10308,0.1757,0.4070,0.3265,18.410,-40.005,21.910,2,3,1,397,388,2025-06-06T10:10:44.944934
10309,0.1801,0.4085,0.3494,-17.045,8.995,10.150,2,1,2,397,388,2025-06-06T10:10:45.058300
10310,0.1484,0.4338,0.4475,-18.865,39.550,-1.505,1,4,1,388,396,2025-06-06T10:10:45.058300
10311,0.0922,0.4529,0.5144,-3.745,56.840,-10.360,2,1,2,397,394,2025-06-06T10:10:45.058300
10312,-0.0068,0.6110,0.5880,2.485,73.535,-15.540,1,2,2,401,387,2025-06-06T10:10:45.058300
10313,-0.0776,0.5680,0.6959,-6.755,84.735,-17.955,2,3,1,348,373,2025-06-06T10:10:45.058300
10314,-0.1444,0.6349,0.7876,-9.695,86.135,-17.535,2,2,1,377,391,2025-06-06T10:10:45.058300
10315,-0.2255,0.6778,0.8818,-8.120,78.120,-15.680,1,2,1,340,392,2025-06-06T10:10:45.058300
10316,-0.3089,0.6993,0.9496,-21.315,68.495,-13.895,2,2,1,365,386,2025-06-06T10:10:45.058300
10317,-0.3411,0.7193,0.9770,-52.395,52.640,-13.405,0,2,1,382,408,2025-06-06T10:10:45.058300
10318,-0.3548,0.7042,0.9784,-68.670,42.665,-12.285,1,3,1,372,400,2025-06-06T10:10:45.156697
10319,-0.3597,0.6798,0.9692,-80.640,29.260,-11.340,3,0,1,388,408,2025-06-06T10:10:45.156697
10320,-0.3079,0.6349,0.9365,-57.960,14.315,-9.765,2,3,2,383,396,2025-06-06T10:10:45.156697
10321,-0.2616,0.6134,0.8755,-24.710,0.315,-9.170,3,1,1,384,350,2025-06-06T10:10:45.156697
10322,-0.2323,0.6037,0.8154,16.625,-6.300,-9.730,1,3,1,385,370,2025-06-06T10:10:45.156697
10323,-0.2211,0.5944,0.7554,29.190,-6.510,-11.480,3,2,2,376,377,2025-06-06T10:10:45.156697
10324,-0.2323,0.5915,0.7305,10.885,0.945,-13.755,3,2,1,378,387,2025-06-06T10:10:45.156697
10325,-0.2108,0.6227,0.7540,-17.045,6.020,-13.895,1,3,1,387,381,2025-06-06T10:10:45.156697
10326,-0.2011,0.6393,0.7857,-31.955,7.420,-11.795,2,2,1,392,393,2025-06-06T10:10:45.156697
10327,-0.2147,0.6290,0.8072,-35.070,5.740,-9.205,1,2,1,403,396,2025-06-06T10:10:45.214296
10328,-0.2250,0.6183,0.8179,-22.260,2.415,-7.350,2,2,2,396,392,2025-06-06T10:10:45.214296
10329,-0.2235,0.6202,0.8096,-7.630,-1.715,-6.335,3,2,2,392,386,2025-06-06T10:10:45.214296
10330,-0.2347,0.6066,0.7759,1.785,-3.535,-5.495,2,4,2,385,376,2025-06-06T10:10:45.214296
10331,-0.2167,0.6041,0.7466,1.995,-5.495,-4.760,4,2,1,348,385,2025-06-06T10:10:45.361993
10332,-0.1830,0.6017,0.7061,-3.955,-6.020,-3.500,3,4,1,336,399,2025-06-06T10:10:45.361993
10333,-0.1640,0.5729,0.6632,-16.310,-4.690,-2.975,3,3,2,370,399,2025-06-06T10:10:45.361993
10334,-0.1527,0.5578,0.6476,-31.745,1.225,-3.500,2,2,2,379,390,2025-06-06T10:10:45.361993
10335,-0.1435,0.5485,0.6437,-51.450,10.605,-5.110,3,4,2,385,396,2025-06-06T10:10:45.361993
10336,-0.2630,0.5261,0.7222,-22.610,13.230,-7.490,4,2,1,389,390,2025-06-06T10:10:45.361993
10337,-0.2499,0.5466,0.7993,-8.645,16.590,-11.025,1,2,1,379,393,2025-06-06T10:10:45.361993
10338,-0.2596,0.5666,0.8428,4.655,15.365,-11.200,3,1,1,377,392,2025-06-06T10:10:45.361993
10339,-0.2933,0.5871,0.8696,1.085,13.860,-10.360,4,1,1,394,369,2025-06-06T10:10:45.361993
10340,-0.3318,0.5978,0.9052,-2.450,12.845,-8.575,2,3,1,378,347,2025-06-06T10:10:45.361993
10341,-0.3284,0.6027,0.9116,1.015,8.295,-6.475,3,0,1,385,353,2025-06-06T10:10:45.361993
10342,-0.3216,0.5968,0.8906,8.645,2.660,-4.900,2,2,1,384,382,2025-06-06T10:10:45.361993
10343,-0.3123,0.5944,0.8677,13.335,-0.630,-3.780,3,2,1,384,357,2025-06-06T10:10:45.361993
10344,-0.2464,0.5719,0.8233,10.465,-4.270,-2.835,3,2,1,394,389,2025-06-06T10:10:45.466352
10345,-0.2904,0.5592,0.7808,7.980,-3.150,-2.065,3,4,2,398,386,2025-06-06T10:10:45.466352
10346,-0.3348,0.6080,0.7959,10.045,-3.640,-3.920,4,1,1,396,355,2025-06-06T10:10:45.466352
10347,-0.2811,0.5973,0.7569,10.535,-8.050,-5.215,2,3,1,396,354,2025-06-06T10:10:45.466352
10348,-0.2225,0.5700,0.7242,13.405,-0.245,-4.095,4,2,1,393,371,2025-06-06T10:10:45.466352
10349,-0.2347,0.5714,0.7261,12.075,-8.820,-4.235,4,1,1,412,352,2025-06-06T10:10:45.466352
10350,-0.2962,0.5680,0.7305,10.325,-4.410,-4.480,2,2,1,385,374,2025-06-06T10:10:45.466352
10351,-0.3011,0.5744,0.7374,10.255,0.525,-6.405,4,2,1,371,383,2025-06-06T10:10:45.466352
10352,-0.2508,0.5939,0.7418,9.345,4.585,-6.160,2,3,1,388,391,2025-06-06T10:10:45.570814
10353,-0.2303,0.6163,0.7466,6.160,5.390,-3.955,3,3,1,388,381,2025-06-06T10:10:45.570814
10354,-0.2396,0.6324,0.7437,1.785,4.515,-1.715,4,1,1,382,398,2025-06-06T10:10:45.570814
10355,-0.2460,0.6232,0.7579,-1.225,4.375,0.070,3,4,2,391,381,2025-06-06T10:10:45.570814
10356,-0.2655,0.6017,0.7720,-1.820,4.060,0.000,4,2,1,388,389,2025-06-06T10:10:45.570814
10357,-0.3060,0.5885,0.7891,-1.435,5.110,-1.680,1,2,1,385,402,2025-06-06T10:10:45.570814
10358,-0.3270,0.5793,0.8150,-1.785,8.680,-4.690,4,2,1,382,400,2025-06-06T10:10:45.570814
10359,-0.3089,0.5636,0.8276,-3.710,10.080,-7.070,3,0,1,404,407,2025-06-06T10:10:45.570814
10360,-0.3035,0.5495,0.8276,-4.375,11.480,-7.980,2,3,1,370,370,2025-06-06T10:10:45.570814
10361,-0.3221,0.5456,0.8452,-3.360,12.040,-8.960,4,2,2,373,380,2025-06-06T10:10:45.622064
10362,-0.3314,0.5602,0.8579,-1.715,9.240,-9.135,1,4,1,373,395,2025-06-06T10:10:45.622064
10363,-0.3343,0.5763,0.8520,0.280,1.680,-9.065,2,2,1,363,377,2025-06-06T10:10:45.622064
10364,-0.2425,0.6085,0.8125,2.380,-6.755,-6.615,2,1,2,378,382,2025-06-06T10:10:45.622064
10365,-0.2640,0.6041,0.7637,2.450,-13.860,-4.025,1,3,1,379,382,2025-06-06T10:10:45.670018
10366,-0.0449,0.5646,0.9740,-1.015,-18.095,2.730,3,1,2,381,380,2025-06-06T10:10:45.670018
10367,-0.1859,0.5754,0.7696,-20.825,-17.990,9.520,1,2,2,393,385,2025-06-06T10:10:45.670018
10368,0.1064,0.4226,0.9228,-42.875,0.280,16.100,2,2,2,381,388,2025-06-06T10:10:45.670018
10369,-0.2196,0.5690,0.6476,-51.100,26.355,12.845,3,1,1,396,372,2025-06-06T10:10:45.720089
10370,-0.1923,0.6988,0.6993,-59.745,22.645,8.260,2,3,2,380,341,2025-06-06T10:10:45.720089
10371,-0.2777,0.5217,0.6393,-48.020,27.650,10.570,3,0,1,392,377,2025-06-06T10:10:45.720089
10372,-0.4519,0.5187,0.7315,-41.300,14.735,17.395,2,2,1,390,358,2025-06-06T10:10:45.720089
10373,-0.5880,0.5241,0.8325,-25.025,3.010,17.465,3,2,2,387,364,2025-06-06T10:10:45.875346
10374,-0.5934,0.6232,1.0751,-3.605,-15.190,17.150,3,2,1,388,390,2025-06-06T10:10:45.875346
10375,-0.3997,0.6593,1.1566,-4.865,-35.350,18.795,2,4,1,382,391,2025-06-06T10:10:45.875346
10376,-0.3919,0.6320,1.0136,-11.550,-26.250,23.205,4,2,1,384,392,2025-06-06T10:10:45.875346
10377,-0.4553,0.5797,0.9906,-29.785,-16.520,21.735,4,2,1,385,394,2025-06-06T10:10:45.875346
10378,-0.3889,0.5285,0.8101,-28.210,2.275,17.675,3,4,1,369,387,2025-06-06T10:10:45.875346
10379,-0.3860,0.4685,0.6700,-14.035,9.940,10.990,4,1,1,377,384,2025-06-06T10:10:45.875346
10380,-0.3675,0.4782,0.5329,-4.025,13.755,5.915,3,3,0,347,378,2025-06-06T10:10:45.875346
10381,-0.2835,0.4182,0.4353,7.315,22.785,-5.250,5,0,2,377,398,2025-06-06T10:10:45.875346
10382,-0.1440,0.3518,0.3953,-7.385,34.440,-7.490,3,2,1,397,405,2025-06-06T10:10:45.875346
10383,-0.1771,0.4548,0.4587,-21.350,44.695,-9.170,3,3,1,392,391,2025-06-06T10:10:45.875346
10384,-0.1371,0.5539,0.5407,-49.665,57.610,-8.715,4,1,1,400,399,2025-06-06T10:10:45.875346
10385,-0.1137,0.6071,0.6632,-31.220,61.810,-5.180,1,3,1,402,401,2025-06-06T10:10:45.875346
10386,-0.1181,0.6110,0.7257,-32.305,60.760,0.315,2,0,1,397,386,2025-06-06T10:10:45.978705
10387,-0.2308,0.5988,0.7666,-17.780,50.925,6.370,2,2,2,388,384,2025-06-06T10:10:45.978705
10388,-0.3113,0.6037,0.7793,-16.940,38.745,10.710,3,3,1,390,397,2025-06-06T10:10:45.978705
10389,-0.3606,0.5934,0.8340,3.605,42.420,16.520,3,1,2,387,388,2025-06-06T10:10:45.978705
10390,-0.3909,0.5734,0.9760,12.425,26.145,21.595,2,3,1,385,352,2025-06-06T10:10:45.978705
10391,-0.5280,0.4558,0.9043,4.620,11.270,22.435,2,1,1,379,372,2025-06-06T10:10:45.978705
10392,-0.5558,0.4568,0.8569,14.560,1.120,15.120,2,2,1,379,377,2025-06-06T10:10:45.978705
10393,-0.5710,0.4836,0.8530,23.240,-2.135,5.040,2,1,1,390,385,2025-06-06T10:10:45.978705
10394,-0.5436,0.4738,0.8189,31.290,-0.350,-6.440,3,1,1,390,362,2025-06-06T10:10:45.978705
10395,-0.5505,0.5119,0.7901,33.355,9.940,-15.015,1,4,1,345,362,2025-06-06T10:10:46.078474
10396,-0.4719,0.5417,0.7530,30.380,22.505,-18.655,3,0,2,367,363,2025-06-06T10:10:46.078474
10397,-0.3797,0.5431,0.7754,31.920,34.335,-16.485,3,2,2,378,384,2025-06-06T10:10:46.078605
10398,-0.2220,0.5724,0.7979,39.620,41.090,-8.785,2,3,1,384,394,2025-06-06T10:10:46.078605
10399,-0.2435,0.6002,0.8023,38.325,43.400,2.555,2,2,2,407,361,2025-06-06T10:10:46.078605
10400,-0.2782,0.5924,0.7940,39.760,51.485,13.195,1,3,1,381,336,2025-06-06T10:10:46.078605
10401,-0.4285,0.6295,0.8545,39.515,57.470,20.055,2,1,1,372,356,2025-06-06T10:10:46.078605
10402,-0.5163,0.6373,0.8457,39.305,54.880,24.570,1,2,1,382,385,2025-06-06T10:10:46.078605
10403,-0.4763,0.5529,0.7920,45.500,48.965,27.545,2,2,1,386,389,2025-06-06T10:10:46.181152
10404,-0.5539,0.6066,0.7481,49.700,36.505,29.750,3,0,1,398,359,2025-06-06T10:10:46.181152
10405,-0.5495,0.6617,0.7325,62.720,28.665,26.950,1,3,2,395,365,2025-06-06T10:10:46.181152
10406,-0.4592,0.6939,0.8067,70.980,24.220,24.395,3,1,1,397,382,2025-06-06T10:10:46.181152
10407,-0.4207,0.6861,0.7959,61.530,24.290,25.410,2,3,2,390,393,2025-06-06T10:10:46.181152
10408,-0.4475,0.6373,0.7130,53.550,31.080,25.235,2,3,1,374,361,2025-06-06T10:10:46.181152
10409,-0.5841,0.5744,0.7252,52.325,35.105,22.260,2,1,2,394,377,2025-06-06T10:10:46.181152
10410,-0.5470,0.6237,0.8286,60.410,22.365,18.165,1,3,1,381,371,2025-06-06T10:10:46.181152
10411,-0.4573,0.5944,0.7964,62.020,-4.970,19.320,3,2,1,382,385,2025-06-06T10:10:46.181152
10412,-0.4275,0.5392,0.6905,56.175,-20.545,19.950,1,1,1,384,353,2025-06-06T10:10:46.231049
10413,-0.4451,0.4831,0.6398,35.000,-25.060,27.230,1,3,1,371,369,2025-06-06T10:10:46.231049
10414,-0.4856,0.5334,0.6715,38.290,-18.725,11.410,3,1,1,391,387,2025-06-06T10:10:46.231049
10415,-0.5080,0.7574,0.8228,59.430,-2.555,-5.880,1,3,1,393,384,2025-06-06T10:10:46.231049
10416,-0.4524,0.7232,0.7271,49.525,7.700,-10.955,3,2,2,382,390,2025-06-06T10:10:46.392870
10417,-0.2874,0.5910,0.4851,30.765,26.775,-12.565,2,3,1,397,388,2025-06-06T10:10:46.392870
10418,-0.3577,0.5963,0.5270,30.765,41.230,-10.185,1,4,0,353,384,2025-06-06T10:10:46.392870
10419,-0.3240,0.7271,0.6959,46.585,17.150,-5.250,3,0,1,378,363,2025-06-06T10:10:46.392870
10420,-0.3250,0.6895,0.6764,52.815,-4.025,3.115,1,3,1,369,379,2025-06-06T10:10:46.392870
10421,-0.3972,0.6778,0.5671,51.765,-6.825,8.050,3,2,2,389,391,2025-06-06T10:10:46.392870
10422,-0.4207,0.6886,0.5690,40.040,-6.020,9.485,1,2,1,394,395,2025-06-06T10:10:46.392870
10423,-0.3865,0.7052,0.5641,31.535,-12.040,9.100,1,2,1,343,386,2025-06-06T10:10:46.392870
10424,-0.3221,0.7164,0.4929,61.670,-17.955,9.765,2,0,1,365,385,2025-06-06T10:10:46.392870
10425,-0.3733,0.6812,0.5231,59.605,-15.260,9.170,1,3,0,331,377,2025-06-06T10:10:46.392870
10426,-0.3411,0.6905,0.5187,38.150,-10.535,7.630,2,2,1,362,393,2025-06-06T10:10:46.392870
10427,-0.3187,0.6769,0.5012,38.255,-3.955,9.520,1,1,1,377,394,2025-06-06T10:10:46.392870
10428,-0.3431,0.7139,0.4631,1.610,3.430,8.365,1,2,1,376,376,2025-06-06T10:10:46.392870
10429,-0.3523,0.7227,0.4080,35.245,2.030,8.680,2,2,2,383,393,2025-06-06T10:10:46.448318
10430,-0.2689,0.7984,0.3709,37.660,-0.700,7.490,1,3,2,388,394,2025-06-06T10:10:46.448318
10431,-0.3484,0.7413,0.2352,25.795,17.885,11.095,2,2,1,319,371,2025-06-06T10:10:46.448318
10432,-0.4114,0.7935,0.3289,3.290,34.930,9.905,2,2,1,350,394,2025-06-06T10:10:46.448318
10433,-0.2596,0.7686,0.4021,5.845,39.095,10.570,2,3,2,362,362,2025-06-06T10:10:46.448318
10434,-0.2054,0.7818,0.4221,18.235,36.295,17.185,2,1,1,367,385,2025-06-06T10:10:46.590143
10435,-0.3070,0.8574,0.3948,14.350,32.900,22.330,1,4,1,378,375,2025-06-06T10:10:46.590143
10436,-0.4148,0.8428,0.3904,5.425,41.720,24.990,2,1,1,393,377,2025-06-06T10:10:46.590143
10437,-0.4270,0.7252,0.4353,-9.485,41.965,25.935,2,2,2,391,395,2025-06-06T10:10:46.590143
10438,-0.4621,0.7437,0.4080,5.950,47.040,26.355,2,3,1,393,381,2025-06-06T10:10:46.590143
10439,-0.4494,0.8755,0.4773,17.500,44.590,29.365,2,0,1,392,394,2025-06-06T10:10:46.590143
10440,-0.4675,0.8711,0.5148,16.380,43.505,34.195,0,3,1,390,400,2025-06-06T10:10:46.590143
10441,-0.4997,0.8311,0.5178,5.845,43.540,39.445,2,1,1,372,397,2025-06-06T10:10:46.590143
10442,-0.5378,0.8091,0.5148,6.300,34.440,39.445,2,2,1,372,369,2025-06-06T10:10:46.590143
10443,-0.5231,0.8057,0.4953,22.645,27.405,37.835,1,2,1,335,382,2025-06-06T10:10:46.590143
10444,-0.4865,0.8003,0.4787,24.955,21.525,35.210,2,0,1,331,393,2025-06-06T10:10:46.590143
10445,-0.4504,0.8154,0.4192,22.190,19.530,32.865,0,2,2,357,377,2025-06-06T10:10:46.590143
10446,-0.4153,0.8237,0.3665,25.375,22.400,32.550,1,1,2,384,398,2025-06-06T10:10:46.696566
10447,-0.3597,0.8228,0.3377,33.005,21.350,32.970,2,2,1,388,388,2025-06-06T10:10:46.696566
10448,-0.3074,0.8267,0.3050,37.555,24.220,34.790,1,2,2,350,383,2025-06-06T10:10:46.696566
10449,-0.2811,0.8320,0.2430,33.565,29.505,37.345,3,1,1,377,396,2025-06-06T10:10:46.696566
10450,-0.2967,0.8237,0.2245,31.325,36.295,38.640,1,3,2,371,379,2025-06-06T10:10:46.696566
10451,-0.3133,0.8140,0.2333,32.060,43.050,39.445,1,0,1,385,374,2025-06-06T10:10:46.696566
10452,-0.3338,0.8223,0.2474,36.155,44.905,39.620,1,2,1,385,375,2025-06-06T10:10:46.696566
10453,-0.3533,0.8423,0.2484,38.115,47.110,39.095,1,3,1,388,390,2025-06-06T10:10:46.696566
10454,-0.3621,0.8530,0.2894,37.975,49.175,38.150,3,2,1,393,399,2025-06-06T10:10:46.696566
10455,-0.3655,0.8808,0.3006,37.065,50.435,36.155,1,4,1,377,396,2025-06-06T10:10:46.795072
10456,-0.4002,0.8852,0.3118,34.860,52.465,33.950,3,0,2,390,403,2025-06-06T10:10:46.795072
10457,-0.4124,0.8916,0.3460,34.650,51.800,32.445,2,2,2,385,389,2025-06-06T10:10:46.795072
10458,-0.4148,0.8994,0.3523,34.825,48.335,31.780,1,3,1,375,386,2025-06-06T10:10:46.795072
10459,-0.4490,0.9028,0.3670,37.940,43.960,31.255,3,1,1,395,402,2025-06-06T10:10:46.795072
10460,-0.4041,0.9248,0.3479,37.590,36.225,31.010,0,3,1,393,381,2025-06-06T10:10:46.795072
10461,-0.4099,0.9223,0.3333,40.425,29.120,31.255,2,1,1,390,396,2025-06-06T10:10:46.795072
10462,-0.4207,0.9267,0.3284,40.005,20.755,30.100,1,2,0,363,387,2025-06-06T10:10:46.795072
10463,-0.3758,0.9335,0.2962,37.695,15.190,29.225,1,3,1,377,395,2025-06-06T10:10:46.896840
10464,-0.3489,0.9174,0.2640,38.500,12.705,28.560,3,0,2,397,387,2025-06-06T10:10:46.896840
10465,-0.3328,0.8969,0.2625,38.360,9.730,26.530,1,3,1,376,362,2025-06-06T10:10:46.896840
10466,-0.3318,0.9170,0.1108,46.305,7.525,26.145,3,0,1,390,374,2025-06-06T10:10:46.896840
10467,-0.2899,0.9467,0.1708,41.895,19.740,24.745,2,3,1,380,392,2025-06-06T10:10:46.896840
10468,-0.2904,0.9194,0.1947,40.075,15.225,21.525,0,2,1,380,395,2025-06-06T10:10:46.896840
10469,-0.2474,0.9360,0.1591,40.845,22.190,21.035,2,1,1,381,396,2025-06-06T10:10:46.896840
10470,-0.1962,0.9443,0.0854,23.065,30.870,20.195,0,3,1,387,393,2025-06-06T10:10:46.896840
10471,-0.2704,0.9248,0.0322,17.990,49.245,18.900,1,2,1,350,361,2025-06-06T10:10:46.896840
10472,-0.2943,0.9511,0.0659,22.505,69.020,19.285,1,2,2,367,378,2025-06-06T10:10:46.947176
10473,-0.2850,0.9755,0.1444,23.450,72.065,22.470,2,3,1,371,387,2025-06-06T10:10:46.947176
10474,-0.2948,0.9936,0.1806,27.020,67.760,31.045,3,1,1,383,383,2025-06-06T10:10:46.947176
10475,-0.3377,0.9780,0.2230,28.700,67.305,41.055,1,3,1,385,385,2025-06-06T10:10:46.947176
10476,-0.3514,0.9736,0.2728,27.160,61.530,49.385,3,1,1,351,377,2025-06-06T10:10:47.204655
10477,-0.3533,0.9745,0.2889,25.515,50.400,56.490,2,3,1,369,380,2025-06-06T10:10:47.204655
10478,-0.3753,0.9823,0.2586,24.430,39.305,59.920,1,3,1,367,389,2025-06-06T10:10:47.204655
10479,-0.4050,0.9721,0.2186,22.365,27.755,58.835,2,1,1,391,381,2025-06-06T10:10:47.204655
10480,-0.4246,0.9648,0.2474,19.250,21.315,54.845,1,4,1,377,377,2025-06-06T10:10:47.205118
10481,-0.4060,0.9252,0.2377,13.195,13.825,48.860,2,1,1,392,392,2025-06-06T10:10:47.205118
10482,-0.3445,0.9160,0.1972,11.690,7.980,43.540,1,2,1,386,366,2025-06-06T10:10:47.205118
10483,-0.3006,0.9257,0.2015,15.890,-8.085,39.725,1,3,1,387,369,2025-06-06T10:10:47.205118
10484,-0.2718,0.9292,0.1566,12.705,-4.795,37.555,2,0,1,398,387,2025-06-06T10:10:47.205118
10485,-0.2640,0.9301,0.1186,9.800,-5.740,34.615,2,2,1,388,388,2025-06-06T10:10:47.205118
10486,-0.2108,0.9511,0.1035,11.165,-11.340,32.900,1,0,1,395,350,2025-06-06T10:10:47.205118
10487,-0.1308,0.9428,0.0337,18.585,-12.565,32.095,1,1,1,346,364,2025-06-06T10:10:47.205118
10488,-0.1610,0.9316,0.0239,14.140,-5.215,29.050,1,3,2,363,378,2025-06-06T10:10:47.205118
10489,-0.1845,0.9184,0.0307,13.300,1.435,25.025,2,1,1,342,377,2025-06-06T10:10:47.205118
10490,-0.1893,0.9013,0.0312,17.255,-0.420,20.720,0,3,0,335,380,2025-06-06T10:10:47.205118
10491,-0.2284,0.9087,0.0708,23.380,-3.640,14.350,2,1,1,371,391,2025-06-06T10:10:47.205118
10492,-0.2430,0.9179,0.0459,21.035,-1.295,7.945,3,1,0,350,398,2025-06-06T10:10:47.205118
10493,-0.2811,0.9658,0.0434,21.070,-1.645,-3.115,0,2,1,367,389,2025-06-06T10:10:47.205118
10494,-0.3113,0.9667,0.0268,21.385,6.090,-11.935,2,1,1,382,405,2025-06-06T10:10:47.205118
10495,-0.2772,0.9418,0.0029,23.555,12.985,-22.575,1,2,1,352,385,2025-06-06T10:10:47.205118
10496,-0.2728,0.9516,0.0102,25.515,21.420,-33.845,2,2,1,382,368,2025-06-06T10:10:47.205118
10497,-0.2591,0.9565,0.0303,34.685,26.915,-40.530,1,2,1,384,312,2025-06-06T10:10:47.364790
10498,-0.2211,0.9648,0.0805,34.510,19.985,-43.540,2,4,2,386,360,2025-06-06T10:10:47.364790
10499,-0.1440,0.9736,0.1240,36.505,12.110,-38.605,2,1,1,385,369,2025-06-06T10:10:47.364790
10500,-0.1030,0.9745,0.1322,34.615,-6.615,-32.200,1,3,1,384,371,2025-06-06T10:10:47.564057
10501,-0.1035,1.0121,0.1396,29.750,-22.120,-21.560,2,3,1,400,382,2025-06-06T10:10:47.564057
10502,-0.1118,0.9409,0.0698,24.850,-23.135,-10.850,3,2,2,385,377,2025-06-06T10:10:47.564057
10503,-0.1113,0.9301,0.0346,23.485,-25.060,-1.015,1,2,1,390,375,2025-06-06T10:10:47.564057
10504,-0.0927,0.9438,0.0039,27.755,-29.680,8.085,2,1,2,386,393,2025-06-06T10:10:47.564057
10505,-0.1288,0.9106,-0.0498,29.995,-34.790,12.880,0,3,1,384,399,2025-06-06T10:10:47.564057
10506,-0.0195,0.8940,-0.0015,28.385,-37.275,19.355,3,1,0,365,398,2025-06-06T10:10:47.564057
10507,-0.1801,0.9082,-0.2157,21.490,-35.420,12.845,2,3,2,368,397,2025-06-06T10:10:47.564057
10508,-0.1967,0.8779,-0.2542,33.915,-28.140,7.805,2,4,2,378,402,2025-06-06T10:10:47.564057
10509,-0.1903,0.8926,-0.1093,44.590,-30.695,-3.220,3,1,1,383,390,2025-06-06T10:10:47.564057
10510,-0.0698,0.8560,-0.0142,46.445,-36.330,-5.180,2,3,1,374,396,2025-06-06T10:10:47.660635
10511,-0.2152,0.8408,0.0312,38.955,-39.620,-16.415,3,0,0,346,399,2025-06-06T10:10:47.660635
10512,-0.3460,0.7476,-0.0307,21.455,-41.930,-23.660,1,1,1,365,399,2025-06-06T10:10:47.660635
10513,-0.7013,0.9340,0.0254,25.970,-43.715,-44.555,1,4,2,339,385,2025-06-06T10:10:47.660635
10514,-0.6769,1.1829,0.2298,46.095,-35.770,-73.080,4,0,2,358,367,2025-06-06T10:10:47.660635
10515,-0.4646,1.0224,0.1937,38.220,-38.745,-78.890,1,3,2,370,367,2025-06-06T10:10:47.660635
10516,-0.2869,0.9867,0.2181,14.560,-62.860,-74.970,3,1,1,375,339,2025-06-06T10:10:47.660635
10517,-0.1796,0.8169,-0.0869,-6.265,-71.610,-62.055,2,2,1,372,338,2025-06-06T10:10:47.660635
10518,-0.2172,0.9618,-0.1601,6.440,-77.910,-50.785,2,3,1,374,366,2025-06-06T10:10:47.660635
10519,-0.1552,1.0419,-0.2503,7.980,-69.650,-36.855,3,0,1,349,371,2025-06-06T10:10:47.660635
10520,0.0254,1.0077,-0.2625,-6.720,-61.810,-19.460,1,4,1,363,366,2025-06-06T10:10:47.660635
10521,-0.0420,0.9970,-0.3343,-11.375,-49.595,-2.800,2,1,0,350,309,2025-06-06T10:10:47.660635
10522,0.0117,1.0009,-0.3904,-8.750,-33.390,9.240,2,3,1,367,344,2025-06-06T10:10:47.660635
10523,0.0425,0.9872,-0.3855,-1.820,-11.165,20.300,2,2,1,389,360,2025-06-06T10:10:47.660635
10524,-0.0551,1.0258,-0.3440,-10.150,9.170,32.550,2,1,0,361,366,2025-06-06T10:10:47.660635
10525,-0.1293,1.0385,-0.2938,-1.225,28.525,44.485,1,3,1,364,379,2025-06-06T10:10:47.660635
10526,-0.1410,1.0111,-0.1893,-2.345,39.060,54.775,3,0,0,354,344,2025-06-06T10:10:47.660635
10527,-0.4055,1.0385,-0.0649,-0.035,41.790,57.960,0,1,1,326,360,2025-06-06T10:10:47.660635
10528,-0.4333,1.0741,0.0059,5.950,40.530,57.470,2,2,1,365,376,2025-06-06T10:10:47.660635
10529,-0.3772,1.0931,0.1083,15.715,32.830,58.380,3,2,1,368,356,2025-06-06T10:10:47.660635
10530,-0.4973,1.1239,0.1459,17.045,23.905,57.120,1,3,1,374,367,2025-06-06T10:10:47.660635
10531,-0.4724,1.1624,0.2264,17.745,8.925,56.035,3,0,2,384,340,2025-06-06T10:10:47.819443
10532,-0.3699,1.1209,0.2216,24.920,-7.805,59.780,2,1,2,377,354,2025-06-06T10:10:47.819443
10533,-0.2216,1.0643,0.1718,42.140,-20.650,66.080,2,1,1,378,378,2025-06-06T10:10:47.819443
10534,-0.2269,1.2449,0.4041,69.195,-15.225,64.890,3,1,1,388,379,2025-06-06T10:10:47.819443
10535,-0.4036,1.0551,0.1703,61.670,-20.475,61.635,1,4,1,374,345,2025-06-06T10:10:47.819443
10536,0.0054,0.8979,-0.2240,120.225,-14.035,59.115,3,0,1,343,365,2025-06-06T10:10:47.819443
10537,-0.2528,0.6349,-0.5270,114.520,12.985,45.535,3,1,1,359,385,2025-06-06T10:10:47.819443
10538,-0.2801,0.6559,-0.7300,79.485,42.000,27.545,1,2,1,368,378,2025-06-06T10:10:47.819443
10539,-0.0708,0.8418,-0.4436,36.750,63.105,13.335,2,0,1,343,379,2025-06-06T10:10:47.819443
10540,0.0088,0.9443,-0.2133,31.360,80.780,5.320,1,3,1,354,342,2025-06-06T10:10:47.819443
10541,-0.0634,0.9775,-0.2098,13.685,88.620,2.485,2,1,1,373,381,2025-06-06T10:10:47.819443
10542,-0.0288,0.8774,-0.2713,3.185,95.795,5.145,2,0,1,390,386,2025-06-06T10:10:47.819443
10543,-0.0947,0.8633,-0.2869,8.085,96.740,14.245,1,3,1,384,385,2025-06-06T10:10:47.819443
10544,0.0727,1.0146,-0.1747,26.530,85.050,28.525,3,1,1,383,378,2025-06-06T10:10:47.819443
10545,0.2079,1.2044,-0.1054,45.570,74.515,37.940,1,3,2,382,382,2025-06-06T10:10:47.819443
10546,0.0913,1.2327,-0.0976,32.375,65.800,48.125,2,1,1,391,393,2025-06-06T10:10:47.819443
10547,0.0161,1.0902,-0.1986,21.735,65.170,42.490,2,2,1,395,393,2025-06-06T10:10:47.819443
10548,-0.0264,0.8833,-0.5017,19.495,57.855,22.225,2,3,1,392,401,2025-06-06T10:10:47.923371
10549,0.1225,0.6798,-0.7867,51.275,63.875,-17.920,3,3,1,379,406,2025-06-06T10:10:47.923371
10550,0.6451,0.5187,-0.9579,73.780,97.545,-59.850,2,4,1,384,401,2025-06-06T10:10:47.923371
10551,0.9628,0.5510,-0.5754,73.920,118.265,-94.255,4,1,1,349,399,2025-06-06T10:10:47.923371
10552,1.3049,0.4211,-0.0844,58.975,84.315,-115.080,7,2,1,364,409,2025-06-06T10:10:47.923371
10553,1.5006,0.1132,0.1342,-9.625,-30.170,-130.795,5,4,2,386,404,2025-06-06T10:10:47.923371
10554,1.3615,-0.2972,0.3172,-298.515,-186.690,-216.895,9,0,1,387,394,2025-06-06T10:10:47.923371
10555,1.4762,-0.4738,1.9803,-95.340,-18.935,-332.465,8,3,1,380,362,2025-06-06T10:10:47.923371
10556,0.9853,-0.6364,1.3142,-165.760,11.130,-380.870,11,0,1,382,379,2025-06-06T10:10:47.923371
10557,0.1571,-0.7832,1.0775,-190.015,-55.860,-492.310,16,2,2,388,392,2025-06-06T10:10:47.976498
10558,-0.8599,-0.5480,0.5217,-135.660,-170.555,-595.210,14,4,2,391,380,2025-06-06T10:10:47.976498
10559,-2.2580,0.0771,0.2625,-86.555,-267.190,-691.915,22,1,2,387,378,2025-06-06T10:10:47.976498
10560,-2.9583,0.2445,-0.1532,-31.570,-319.165,-734.860,23,3,1,387,371,2025-06-06T10:10:47.976498
10561,-2.9963,0.1967,-0.2972,18.025,-301.980,-720.825,24,2,1,397,385,2025-06-06T10:10:48.125083
10562,-2.1701,-0.1967,-0.5222,85.610,-149.730,-616.980,27,1,1,390,383,2025-06-06T10:10:48.125083
10563,-2.0511,-0.0844,-0.1537,69.090,74.165,-452.130,27,5,1,387,384,2025-06-06T10:10:48.125083
10564,-1.7578,0.4904,-0.0756,28.945,189.560,-239.610,29,3,1,356,392,2025-06-06T10:10:48.125083
10565,-1.6807,1.1468,-0.1884,-14.805,144.935,-2.415,30,3,1,360,400,2025-06-06T10:10:48.125083
10566,-2.2365,1.0936,-0.4519,-83.265,100.870,171.395,33,3,1,389,392,2025-06-06T10:10:48.125083
10567,-2.1130,0.8413,-0.9648,-71.505,96.880,232.050,38,0,1,387,385,2025-06-06T10:10:48.125083
10568,-1.7929,0.5636,-0.7271,-38.045,116.585,252.175,39,3,0,341,376,2025-06-06T10:10:48.126088
10569,-1.7070,0.5344,-0.0395,18.375,143.955,226.485,40,2,1,361,391,2025-06-06T10:10:48.126088
10570,-1.5884,0.4041,0.6364,-14.665,127.925,196.420,42,3,1,376,359,2025-06-06T10:10:48.126088
10571,-1.7832,0.2186,0.9609,-43.330,77.035,134.435,44,1,1,390,386,2025-06-06T10:10:48.126088
10572,-1.7412,0.1708,0.6559,-64.470,16.905,69.125,45,1,1,395,390,2025-06-06T10:10:48.126088
10573,-1.6319,0.2464,0.3016,-54.775,-66.675,26.600,47,4,1,386,395,2025-06-06T10:10:48.126088
10574,-1.5421,0.2943,0.1547,-22.225,-145.320,-17.500,49,1,1,394,366,2025-06-06T10:10:48.180952
10575,-1.3893,0.4426,-0.0805,-2.345,-204.610,-42.420,49,4,1,382,369,2025-06-06T10:10:48.180952
10576,-1.2298,0.4441,-0.3113,18.515,-214.025,-51.730,50,5,2,381,387,2025-06-06T10:10:48.180952
10577,-1.0341,0.4294,-0.5168,27.895,-183.540,-50.750,48,1,2,394,366,2025-06-06T10:10:48.180952
10578,-0.9838,0.3318,-0.4982,33.635,-122.395,-41.825,46,4,2,389,374,2025-06-06T10:10:48.331401
10579,-0.7608,0.3548,-0.5017,46.375,-60.795,-21.595,48,2,1,399,381,2025-06-06T10:10:48.331401
10580,-0.7520,0.4587,-0.4187,55.055,-16.905,7.350,47,2,1,386,353,2025-06-06T10:10:48.331401
10581,-0.8794,0.4753,-0.2943,54.250,39.340,31.500,49,4,1,380,336,2025-06-06T10:10:48.331401
10582,-1.0507,0.4836,-0.1454,37.765,83.965,57.855,49,1,2,382,361,2025-06-06T10:10:48.331401
10583,-1.0399,0.5671,-0.0142,26.705,110.635,82.040,47,3,1,386,377,2025-06-06T10:10:48.331401
10584,-1.0048,0.6608,0.0937,20.615,112.245,108.185,49,3,1,386,356,2025-06-06T10:10:48.331401
10585,-0.9428,0.6642,0.0913,18.690,102.585,129.185,51,2,1,390,377,2025-06-06T10:10:48.331401
10586,-0.9335,0.6022,0.0464,13.440,100.345,146.125,52,2,0,358,390,2025-06-06T10:10:48.331401
10587,-0.9560,0.5319,0.0581,0.105,112.245,155.400,54,0,1,378,360,2025-06-06T10:10:48.331401
10588,-0.9228,0.4641,0.0239,-0.770,130.620,161.560,52,3,1,378,369,2025-06-06T10:10:48.331401
10589,-0.8857,0.4368,0.0307,23.940,159.285,163.240,54,0,1,391,391,2025-06-06T10:10:48.331401
10590,-0.7398,0.4875,-0.0220,57.330,157.780,162.260,53,2,1,392,356,2025-06-06T10:10:48.331401
10591,-0.4856,0.5700,-0.0190,99.575,127.785,161.350,52,1,1,390,384,2025-06-06T10:10:48.389834
10592,-0.3187,0.6193,-0.1015,155.575,109.235,159.950,55,1,1,402,403,2025-06-06T10:10:48.389834
10593,-0.2342,0.5856,-0.2323,135.765,61.075,155.015,54,5,1,398,389,2025-06-06T10:10:48.389834
10594,-0.1723,0.5212,-0.3196,131.215,64.260,154.840,56,2,2,401,381,2025-06-06T10:10:48.389834
10595,-0.1708,0.5061,-0.3436,101.395,67.900,147.875,58,3,2,399,347,2025-06-06T10:10:48.436021
10596,-0.2220,0.4987,-0.3567,75.635,75.285,136.535,58,3,1,391,364,2025-06-06T10:10:48.436021
10597,-0.2508,0.5529,-0.3074,63.175,71.470,121.730,61,2,1,389,374,2025-06-06T10:10:48.436021
10598,-0.2142,0.6202,-0.2889,41.265,68.215,108.465,60,3,0,362,363,2025-06-06T10:10:48.436021
10599,-0.1610,0.6354,-0.2396,23.240,64.155,97.545,62,4,1,380,386,2025-06-06T10:10:48.480395
10600,-0.2435,0.5563,-0.2606,20.195,61.355,85.960,63,2,1,378,394,2025-06-06T10:10:48.480395
10601,-0.3040,0.7476,-0.2069,27.790,52.080,70.665,62,3,1,386,322,2025-06-06T10:10:48.480395
10602,-0.2718,0.7315,-0.3099,4.970,54.215,54.705,63,0,1,387,353,2025-06-06T10:10:48.480395
10603,-0.2338,0.6891,-0.3455,2.765,47.110,43.435,60,3,1,380,364,2025-06-06T10:10:48.537071
10604,-0.2699,0.6949,-0.3821,2.975,35.560,35.455,63,2,2,391,385,2025-06-06T10:10:48.537071
10605,-0.3396,0.7247,-0.3611,-1.330,25.270,29.995,61,2,1,401,380,2025-06-06T10:10:48.537071
10606,-0.3387,0.7735,-0.3396,-3.710,9.625,26.215,62,4,1,390,354,2025-06-06T10:10:48.537071
10607,-0.2826,0.7437,-0.3553,-8.190,-1.960,24.885,64,1,1,394,385,2025-06-06T10:10:48.591241
10608,-0.2908,0.7588,-0.3841,-11.515,-11.445,24.500,63,2,1,354,373,2025-06-06T10:10:48.591241
10609,-0.2582,0.7535,-0.4236,-9.205,-13.090,22.085,62,3,1,374,345,2025-06-06T10:10:48.591241
10610,-0.1937,0.7691,-0.4285,-9.485,-7.105,21.280,63,1,1,368,383,2025-06-06T10:10:48.591241
10611,-0.2045,0.7745,-0.4128,-12.180,-5.635,22.610,64,3,2,339,379,2025-06-06T10:10:48.591241
10612,-0.1801,0.8184,-0.4133,-12.390,-4.830,24.290,64,2,1,369,385,2025-06-06T10:10:48.849964
10613,-0.2367,0.7774,-0.4548,-16.975,3.150,25.655,65,2,1,369,392,2025-06-06T10:10:48.849964
10614,-0.3294,0.7403,-0.4529,-11.340,8.960,24.150,63,4,1,374,385,2025-06-06T10:10:48.849964
10615,-0.4192,0.7393,-0.4446,-14.350,17.430,19.670,63,0,2,392,395,2025-06-06T10:10:48.849964
10616,-0.4714,0.7579,-0.3997,-15.995,20.510,14.245,65,4,1,377,391,2025-06-06T10:10:48.849964
10617,-0.4236,0.7910,-0.3475,-17.290,19.635,12.250,65,1,1,392,369,2025-06-06T10:10:48.849964
10618,-0.4128,0.8101,-0.3084,-32.760,14.770,12.600,67,1,1,393,374,2025-06-06T10:10:48.849964
10619,-0.3675,0.8442,-0.2586,-43.890,4.165,16.030,68,4,2,393,386,2025-06-06T10:10:48.849964
10620,-0.3660,0.8969,-0.2625,-41.230,-8.960,20.650,70,1,1,389,392,2025-06-06T10:10:48.849964
10621,-0.3460,0.9360,-0.2586,-27.265,-20.650,24.885,70,3,1,391,397,2025-06-06T10:10:48.849964
10622,-0.2718,0.9238,-0.2943,-34.615,-36.855,30.940,73,0,1,403,404,2025-06-06T10:10:48.849964
10623,-0.2621,0.9013,-0.3416,-27.790,-46.725,34.510,75,2,2,393,360,2025-06-06T10:10:48.849964
10624,-0.2157,0.9052,-0.4172,-19.040,-53.200,34.125,76,1,1,380,348,2025-06-06T10:10:48.849964
10625,-0.2152,0.8911,-0.4612,-15.225,-48.720,31.290,78,0,1,379,372,2025-06-06T10:10:48.849964
10626,-0.1493,0.8818,-0.4543,-17.850,-41.720,25.865,77,3,1,374,387,2025-06-06T10:10:48.849964
10627,-0.0727,0.9267,-0.4138,-16.765,-35.875,21.385,76,1,0,352,396,2025-06-06T10:10:48.849964
10628,-0.0190,0.9755,-0.3479,-20.790,-31.500,17.010,72,3,1,360,365,2025-06-06T10:10:48.849964
10629,0.0283,1.0917,-0.2733,-31.780,-32.865,11.655,72,3,2,373,372,2025-06-06T10:10:48.849964
10630,0.0034,1.0814,-0.2664,-36.505,-32.865,5.915,74,1,1,382,395,2025-06-06T10:10:48.849964
10631,-0.0161,1.1161,0.0307,-41.160,-48.755,-9.590,74,3,1,382,395,2025-06-06T10:10:48.849964
10632,0.6925,1.1614,-0.0390,-30.975,-107.590,-8.960,78,1,1,392,327,2025-06-06T10:10:48.849964
10633,2.0799,1.2708,-0.1913,-15.610,-195.335,5.320,77,4,1,367,364,2025-06-06T10:10:48.948013
10634,3.5697,0.9809,-0.3187,-80.185,-357.035,19.705,73,2,1,378,369,2025-06-06T10:10:48.948013
10635,4.6336,0.7349,-0.9004,-211.435,-473.410,-12.250,72,1,1,387,373,2025-06-06T10:10:48.948013
10636,4.2061,-0.4612,-0.6817,-161.560,31.745,-4.480,71,3,1,380,341,2025-06-06T10:10:48.948013
10637,2.6391,-1.1927,-1.5323,-555.730,364.490,-88.620,68,2,2,349,364,2025-06-06T10:10:48.948013
10638,-0.7296,-2.8099,-0.7691,-518.420,738.255,-307.685,65,2,1,377,373,2025-06-06T10:10:48.948013
10639,-5.0244,-2.8870,-1.1219,-92.295,668.780,-519.960,64,3,1,378,376,2025-06-06T10:10:48.948013
10640,-4.8312,0.1401,-0.2621,347.620,112.315,-738.920,64,0,1,391,382,2025-06-06T10:10:48.948013
10641,-4.4935,1.1058,0.1610,379.190,-280.000,-846.510,64,4,1,385,379,2025-06-06T10:10:48.948013
10642,-5.8404,0.8379,-0.7222,224.630,-319.165,-915.180,68,1,0,355,373,2025-06-06T10:10:49.003171
10643,-4.0709,-1.2029,-0.6490,113.750,-75.320,-826.700,69,1,1,332,389,2025-06-06T10:10:49.003171
10644,-2.4341,-0.4939,-0.7735,55.580,110.985,-631.925,69,3,2,354,398,2025-06-06T10:10:49.003171
10645,-1.6397,-0.1537,-0.9770,87.325,183.330,-346.465,72,2,1,373,405,2025-06-06T10:10:49.003171
10646,-0.2069,1.4723,-0.5890,63.700,58.310,-85.610,69,3,1,382,399,2025-06-06T10:10:49.153124
10647,-0.9794,1.1810,-0.7862,4.060,-3.605,112.175,70,2,1,380,410,2025-06-06T10:10:49.153124
10648,-0.9140,0.8613,-1.1527,23.485,-31.500,194.495,69,1,1,376,396,2025-06-06T10:10:49.153124
10649,-0.7637,0.4119,-1.3152,68.600,-8.960,232.295,71,3,1,339,389,2025-06-06T10:10:49.153124
10650,-1.1326,-1.2722,0.0522,23.275,53.760,129.255,71,1,2,376,366,2025-06-06T10:10:49.305587
10651,-1.9969,-0.7203,-0.1918,68.670,90.755,64.050,68,2,2,370,340,2025-06-06T10:10:49.306584
10652,-1.0541,-0.1893,0.8569,10.570,-24.500,53.620,70,3,1,389,375,2025-06-06T10:10:49.306584
10653,-1.3235,-0.1830,-0.3172,-34.615,-51.765,15.785,71,2,2,384,391,2025-06-06T10:10:49.306584
10654,-2.1472,-0.4841,-0.5827,-86.975,26.740,-48.405,70,2,1,379,390,2025-06-06T10:10:49.306584
10655,-1.6631,0.0937,-0.2279,-22.260,-29.680,-83.720,69,1,1,378,360,2025-06-06T10:10:49.306584
10656,-0.9531,0.3460,-0.0044,16.800,-47.355,-73.605,66,2,1,366,380,2025-06-06T10:10:49.306584
10657,-0.5500,0.4558,-0.1103,-22.960,-58.520,-43.890,67,2,1,385,395,2025-06-06T10:10:49.306584
10658,-0.5900,0.4543,-0.2352,-22.855,-54.250,-1.260,68,2,2,400,393,2025-06-06T10:10:49.306584
10659,-0.7803,0.4158,-0.2855,-13.090,-55.020,34.650,66,3,1,398,363,2025-06-06T10:10:49.306584
10660,-0.7901,0.2572,-0.3396,0.875,-45.080,66.220,66,1,1,392,377,2025-06-06T10:10:49.306584
10661,-0.9370,0.1771,-0.2674,5.425,-20.195,89.670,67,2,2,381,374,2025-06-06T10:10:49.306584
10662,-1.0951,0.1449,-0.2323,0.595,-6.755,99.855,69,2,1,392,386,2025-06-06T10:10:49.306584
10663,-1.1766,0.1679,-0.2103,14.980,-8.435,101.080,71,4,2,389,389,2025-06-06T10:10:49.357757
10664,-1.2952,0.3694,-0.1869,6.090,-23.450,95.795,70,4,1,396,379,2025-06-06T10:10:49.357757
10665,-1.3654,0.2513,-0.3553,9.625,-23.275,87.325,73,1,1,384,390,2025-06-06T10:10:49.357757
10666,-1.3054,0.3377,-0.4890,25.725,-51.030,69.895,72,3,2,377,381,2025-06-06T10:10:49.357757
10667,-1.0555,0.4968,-0.0878,9.625,-27.475,77.735,75,1,1,389,387,2025-06-06T10:10:49.357757
10668,-0.8594,0.5456,-0.0200,5.985,-42.315,83.475,74,2,2,399,399,2025-06-06T10:10:49.357757
10669,-0.7032,0.5290,-0.1659,-7.000,-37.485,100.135,74,3,1,385,378,2025-06-06T10:10:49.357757
10670,-0.7496,0.4353,-0.2357,15.750,-42.630,115.465,75,0,1,400,356,2025-06-06T10:10:49.357757
10671,-0.8789,0.4382,-0.2904,37.695,-53.410,124.215,74,1,1,386,377,2025-06-06T10:10:49.357757
10672,-0.7486,0.4519,-0.3118,65.380,-60.060,131.040,75,1,1,387,377,2025-06-06T10:10:49.357757
10673,-0.7530,0.3196,-0.2747,31.150,-69.055,137.410,74,2,2,397,376,2025-06-06T10:10:49.357757
10674,-0.9326,0.4685,-0.0996,37.275,-19.355,139.335,72,4,1,378,380,2025-06-06T10:10:49.357757
10675,-0.8657,0.4187,-0.2133,8.925,-4.725,136.185,74,1,1,395,388,2025-06-06T10:10:49.357757
10676,-0.7300,0.3645,-0.4778,4.865,15.785,136.185,73,1,1,389,385,2025-06-06T10:10:49.404365
10677,-0.8228,0.4221,-0.4509,35.560,3.395,127.435,73,3,1,389,384,2025-06-06T10:10:49.404365
10678,-0.7691,0.5056,-0.1464,55.195,22.260,128.660,74,1,2,393,352,2025-06-06T10:10:49.404365
10679,-0.8228,0.5241,-0.0356,44.765,29.610,122.045,72,3,1,381,374,2025-06-06T10:10:49.404365
10680,-0.7735,0.4943,-0.0610,7.350,47.425,118.755,71,0,1,349,382,2025-06-06T10:10:49.615589
10681,-0.8062,0.5017,-0.1591,4.235,43.960,115.815,71,1,1,378,394,2025-06-06T10:10:49.615589
10682,-0.6925,0.3626,0.0059,12.530,22.715,116.725,70,2,1,388,397,2025-06-06T10:10:49.615589
10683,-0.7442,0.4265,-0.1283,13.545,-6.335,116.305,71,1,0,357,399,2025-06-06T10:10:49.615589
10684,-0.4392,-0.0605,0.1659,20.720,-13.965,122.605,70,3,1,367,399,2025-06-06T10:10:49.615589
10685,-1.0756,0.3211,-0.0659,11.795,-15.120,98.665,71,0,1,377,396,2025-06-06T10:10:49.615589
10686,-0.6837,0.5348,-0.0669,36.540,-14.630,55.510,72,3,1,367,397,2025-06-06T10:10:49.615589
10687,-0.8130,1.0702,-0.3206,27.440,-22.330,46.235,71,1,1,368,360,2025-06-06T10:10:49.615589
10688,-0.7979,0.4294,-0.4748,-22.155,-4.165,26.670,72,0,1,379,383,2025-06-06T10:10:49.615589
10689,-0.7232,0.4114,-0.1210,-10.710,73.045,22.890,72,3,1,387,394,2025-06-06T10:10:49.615589
10690,-0.4290,0.5417,0.1952,-13.965,32.200,16.205,72,1,2,407,397,2025-06-06T10:10:49.615589
10691,-0.2567,0.7242,0.0264,13.965,-23.485,32.760,74,3,1,395,395,2025-06-06T10:10:49.615589
10692,-0.2967,0.6568,-0.2762,30.135,-29.575,43.820,74,3,1,403,392,2025-06-06T10:10:49.615589
10693,-0.3997,0.7442,-0.3577,22.785,-14.350,46.515,75,2,1,389,393,2025-06-06T10:10:49.615589
10694,-0.3587,0.8447,-0.4124,1.715,-5.775,65.240,75,3,2,385,398,2025-06-06T10:10:49.615589
10695,-0.2821,0.8072,-0.4748,0.945,10.150,62.755,77,1,2,402,397,2025-06-06T10:10:49.615589
10696,-0.3260,0.7896,-0.4343,-9.100,29.645,69.825,79,3,1,397,385,2025-06-06T10:10:49.764634
10697,-0.3665,0.7642,-0.3216,-26.495,39.935,78.015,75,1,2,397,382,2025-06-06T10:10:49.764634
10698,-0.4514,0.7398,-0.2816,-27.650,44.450,81.655,76,1,1,399,350,2025-06-06T10:10:49.764634
10699,-0.4778,0.7340,-0.2884,-24.045,48.650,80.920,77,4,1,373,365,2025-06-06T10:10:49.764634
10700,-0.4778,0.7203,-0.2918,-25.340,59.955,78.505,80,1,1,377,384,2025-06-06T10:10:49.764634
10701,-0.5114,0.7422,-0.3070,-32.165,70.175,73.045,84,1,2,374,358,2025-06-06T10:10:49.764634
10702,-0.5456,0.8111,-0.3465,-30.380,78.680,64.540,83,2,1,384,343,2025-06-06T10:10:49.764634
10703,-0.5700,0.7945,-0.3162,-28.700,87.990,55.930,82,0,1,385,368,2025-06-06T10:10:49.764634
10704,-0.5832,0.7286,-0.2772,-31.815,91.770,49.595,81,3,1,382,338,2025-06-06T10:10:49.764634
10705,-0.5993,0.8457,-0.1318,-28.350,83.160,41.860,82,1,1,388,339,2025-06-06T10:10:49.764634
10706,-0.5139,0.8940,-0.1308,-26.180,78.855,38.045,80,2,1,392,373,2025-06-06T10:10:49.764634
10707,-0.5178,0.8062,-0.1625,-35.385,74.795,34.790,80,3,1,397,376,2025-06-06T10:10:49.764634
10708,-0.5763,0.8764,-0.0908,-32.375,59.360,30.975,77,1,1,398,381,2025-06-06T10:10:49.764634
10709,-0.4748,0.9272,-0.1430,-22.260,49.525,27.580,73,3,1,383,383,2025-06-06T10:10:49.764634
10710,-0.3475,0.8433,-0.2079,-20.790,43.925,28.315,73,1,1,388,356,2025-06-06T10:10:49.822891
10711,-0.3401,0.7847,-0.2328,-20.895,31.570,31.465,70,3,1,386,369,2025-06-06T10:10:49.822891
10712,-0.1923,0.6959,-0.0327,-9.590,3.815,38.780,68,2,1,401,384,2025-06-06T10:10:49.822891
10713,-0.2601,0.8496,-0.1127,-1.645,-6.615,39.760,69,1,1,388,394,2025-06-06T10:10:49.822891
10714,-0.3201,0.8276,-0.1059,-10.115,-18.165,37.240,67,4,2,382,360,2025-06-06T10:10:49.971271
10715,-0.3543,0.8262,-0.1732,-26.950,-35.280,34.055,69,1,1,385,381,2025-06-06T10:10:49.971271
10716,-0.2743,0.7056,-0.3372,-23.135,-34.230,28.000,68,2,1,382,385,2025-06-06T10:10:49.971271
10717,-0.3231,0.7818,-0.1937,-17.500,-33.775,21.000,71,3,2,389,397,2025-06-06T10:10:49.971271
10718,-0.3787,0.7759,-0.2840,-23.800,-29.610,14.420,70,0,0,323,348,2025-06-06T10:10:49.971271
10719,-0.3889,0.7935,-0.3050,-20.720,-20.755,7.945,69,4,1,351,334,2025-06-06T10:10:49.971271
10720,-0.3631,0.8974,-0.2606,-12.635,-16.380,4.445,71,0,1,372,366,2025-06-06T10:10:49.971271
10721,-0.3977,0.9662,-0.2147,-12.810,-12.320,1.610,70,3,1,377,379,2025-06-06T10:10:49.971271
10722,-0.4060,1.0682,-0.2006,-20.930,-11.935,1.400,70,3,1,392,347,2025-06-06T10:10:49.971271
10723,-0.3889,1.0565,-0.2352,-21.980,-13.195,3.045,74,0,2,394,369,2025-06-06T10:10:49.971271
10724,-0.3045,1.0912,-0.2064,-7.840,-13.860,6.580,72,4,1,394,374,2025-06-06T10:10:49.971271
10725,-0.2962,1.2088,-0.1996,-6.685,-19.915,12.530,73,4,1,369,389,2025-06-06T10:10:49.971271
10726,-0.1791,1.2527,-0.2796,-3.185,-25.620,18.795,73,3,1,371,387,2025-06-06T10:10:49.971271
10727,0.0361,1.3513,-0.3377,12.845,-32.305,25.550,74,3,1,373,382,2025-06-06T10:10:50.018159
10728,0.3367,1.6089,-0.2469,47.215,-27.090,23.135,75,0,0,344,383,2025-06-06T10:10:50.018159
10729,1.1429,2.0091,-0.0307,44.800,-39.935,22.050,73,4,1,355,374,2025-06-06T10:10:50.018159
10730,2.6059,2.2253,0.3972,60.095,-84.910,33.670,74,2,1,381,378,2025-06-06T10:10:50.018159
10731,3.7391,1.5553,0.5666,-67.235,-287.350,16.695,72,2,2,386,387,2025-06-06T10:10:50.068292
10732,3.9879,1.0692,0.7886,157.710,-263.480,20.930,73,1,1,397,393,2025-06-06T10:10:50.068292
10733,3.4946,-0.0249,-0.1025,157.745,18.760,-95.025,74,0,1,397,386,2025-06-06T10:10:50.068292
10734,2.1091,-0.2176,0.7588,-142.065,233.520,-256.375,72,4,1,390,375,2025-06-06T10:10:50.068292
10735,-0.7676,0.1542,1.7070,-284.830,393.120,-453.285,73,2,1,394,378,2025-06-06T10:10:50.116835
10736,-3.1891,-1.1019,1.6192,-80.360,304.885,-596.715,74,3,0,359,380,2025-06-06T10:10:50.116835
10737,-4.2183,-0.4626,1.1175,381.045,-254.800,-675.640,75,3,1,370,396,2025-06-06T10:10:50.116835
10738,-2.9358,0.0703,0.9618,773.710,-842.205,-775.390,75,2,2,393,399,2025-06-06T10:10:50.116835
10739,-2.0525,-1.3435,0.6725,81.445,-704.760,-647.850,74,4,2,397,397,2025-06-06T10:10:50.164215
10740,-1.7119,-4.7951,-1.7368,-99.120,-75.565,-579.005,73,2,1,410,401,2025-06-06T10:10:50.164215
10741,-2.2087,-5.1499,-2.3975,68.565,449.855,-480.060,73,3,2,405,394,2025-06-06T10:10:50.164215
10742,-2.8026,-1.4128,-0.7096,17.710,257.670,-259.595,73,3,2,400,388,2025-06-06T10:10:50.164215
10743,-2.2448,0.1459,0.5231,52.150,58.765,-29.855,75,1,1,408,391,2025-06-06T10:10:50.212795
10744,-2.0067,0.5519,-0.1967,6.895,27.335,113.365,72,3,1,404,349,2025-06-06T10:10:50.212795
10745,-1.7334,0.5524,-0.5685,-78.365,-22.190,188.825,74,2,1,399,364,2025-06-06T10:10:50.212795
10746,-1.1854,0.3660,-0.6320,21.805,-125.370,216.195,75,1,2,397,366,2025-06-06T10:10:50.212795
10747,-1.0546,-0.1298,-0.8530,19.040,-99.995,185.885,75,3,1,387,366,2025-06-06T10:10:50.262124
10748,-1.1268,-0.4392,-0.8140,-95.620,32.025,118.685,78,2,1,398,349,2025-06-06T10:10:50.262124
10749,-1.0951,-0.0708,-0.5461,-70.000,105.105,50.960,77,3,2,382,373,2025-06-06T10:10:50.262124
10750,-0.8052,0.3182,-0.3928,-47.250,115.185,20.510,76,3,1,383,387,2025-06-06T10:10:50.262124
10751,-0.7549,0.5270,-0.2660,-35.560,93.940,-2.940,78,3,1,386,388,2025-06-06T10:10:50.378681
10752,-0.4168,0.9960,-0.2908,-41.895,39.585,3.885,78,3,2,385,382,2025-06-06T10:10:50.378681
10753,-0.5632,0.8267,-0.4695,-43.365,-19.740,11.795,79,1,1,397,357,2025-06-06T10:10:50.378681
10754,-0.6988,0.4060,-0.5134,-18.515,-51.800,10.150,77,2,2,375,373,2025-06-06T10:10:50.378681
10755,-0.8433,0.0654,-0.3743,-20.405,-44.695,-3.570,78,2,1,396,357,2025-06-06T10:10:50.378681
10756,-0.9301,-0.0688,-0.2377,-30.485,-16.555,-19.775,78,1,1,380,361,2025-06-06T10:10:50.378681
10757,-1.0824,-0.1244,-0.1566,-35.560,22.715,-40.880,76,3,1,374,378,2025-06-06T10:10:50.378681
10758,-1.0233,-0.0922,-0.0063,-39.445,47.775,-48.825,76,0,1,381,375,2025-06-06T10:10:50.378681
10759,-1.2517,0.1161,-0.1083,-40.460,44.450,-49.070,75,2,1,391,376,2025-06-06T10:10:50.378681
10760,-1.2410,0.3289,0.0527,-37.590,44.345,-41.720,77,2,1,350,344,2025-06-06T10:10:50.378681
10761,-1.1863,0.5392,0.0049,-45.570,17.360,-24.710,76,1,1,367,375,2025-06-06T10:10:50.482039
10762,-1.0014,0.5685,-0.1908,-39.550,-16.205,-6.790,74,3,1,377,387,2025-06-06T10:10:50.482039
10763,-0.9589,0.5314,-0.2918,-35.000,-40.145,14.175,73,1,2,381,393,2025-06-06T10:10:50.482039
10764,-0.9443,0.4290,-0.3304,-26.600,-47.460,28.980,69,3,2,386,361,2025-06-06T10:10:50.482039
10765,-0.9579,0.3348,-0.4831,-22.365,-36.085,39.795,68,1,1,380,363,2025-06-06T10:10:50.482039
10766,-0.9814,0.3118,-0.4094,-27.125,-6.300,46.340,67,1,1,358,368,2025-06-06T10:10:50.482039
10767,-1.0263,0.1942,-0.3338,-37.135,23.870,48.370,64,4,1,378,374,2025-06-06T10:10:50.482039
10768,-1.0873,0.2216,-0.1884,-39.935,35.910,49.385,65,1,1,374,394,2025-06-06T10:10:50.482039
10769,-1.2342,0.3045,-0.1835,-49.105,24.535,46.060,66,2,1,379,382,2025-06-06T10:10:50.584889
10770,-1.2127,0.2259,-0.1708,-39.585,18.410,43.680,69,1,1,393,380,2025-06-06T10:10:50.584889
10771,-1.2132,0.2704,-0.1796,-35.245,-1.680,37.345,69,0,1,389,378,2025-06-06T10:10:50.584889
10772,-1.1663,0.3206,-0.1630,-36.645,-16.100,32.165,69,4,1,392,390,2025-06-06T10:10:50.584889
10773,-1.1488,0.2889,-0.1815,-30.520,-35.315,19.040,70,3,1,400,401,2025-06-06T10:10:50.584889
10774,-1.0873,0.2289,-0.2230,-20.125,-41.755,21.105,68,3,1,392,402,2025-06-06T10:10:50.584889
10775,-0.9501,0.2830,-0.1923,-8.995,-43.610,18.900,69,2,1,401,388,2025-06-06T10:10:50.584889
10776,-0.8769,0.3157,-0.2455,-12.565,-43.575,21.560,70,2,1,390,393,2025-06-06T10:10:50.584889
10777,-0.8662,0.2630,-0.3113,-17.395,-30.870,23.905,70,2,1,382,387,2025-06-06T10:10:50.584889
10778,-0.9043,0.2025,-0.3421,-21.525,-10.640,24.080,74,1,1,379,385,2025-06-06T10:10:50.635102
10779,-0.8579,0.3065,-0.3089,-20.790,-0.560,24.465,72,2,1,376,389,2025-06-06T10:10:50.635102
10780,-0.8525,0.2762,-0.3148,-28.175,3.255,26.915,72,2,2,390,398,2025-06-06T10:10:50.635102
10781,-0.8398,0.2572,-0.2777,-27.720,11.655,28.035,72,1,1,387,392,2025-06-06T10:10:50.635102
10782,-0.8511,0.2621,-0.2406,-30.275,15.750,30.205,72,3,1,388,367,2025-06-06T10:10:50.683046
10783,-0.8813,0.2948,-0.2045,-32.620,15.995,32.935,74,1,1,383,379,2025-06-06T10:10:50.683046
10784,-0.8974,0.3040,-0.1571,-30.660,10.185,33.915,73,2,2,390,398,2025-06-06T10:10:50.683046
10785,-0.9057,0.3231,-0.0922,-31.500,2.870,35.210,74,2,2,389,397,2025-06-06T10:10:50.683046
10786,-0.8886,0.3455,-0.0888,-28.000,-12.215,35.525,75,2,2,382,404,2025-06-06T10:10:50.927722
10787,-0.8516,0.3567,-0.1166,-24.290,-25.935,36.610,73,4,1,390,405,2025-06-06T10:10:50.927722
10788,-0.8750,0.3450,-0.1435,-24.290,-36.470,37.030,75,1,2,403,391,2025-06-06T10:10:50.927722
10789,-0.9179,0.3572,-0.1791,-22.260,-37.415,35.490,75,3,1,382,383,2025-06-06T10:10:50.927722
10790,-0.8076,0.3850,-0.2006,-18.270,-34.370,34.685,72,4,1,382,384,2025-06-06T10:10:50.928175
10791,-0.7940,0.3977,-0.1606,-18.585,-32.445,34.895,71,0,1,392,357,2025-06-06T10:10:50.928175
10792,-0.8686,0.3767,-0.1571,-20.510,-29.995,33.075,69,2,1,388,377,2025-06-06T10:10:50.928175
10793,-0.8896,0.3963,-0.1625,-20.440,-27.195,30.170,72,0,1,400,387,2025-06-06T10:10:50.928175
10794,-0.8418,0.4333,-0.1532,-14.070,-31.955,29.085,72,2,1,397,378,2025-06-06T10:10:50.928175
10795,-0.7759,0.4763,-0.1205,-10.815,-36.120,31.815,74,2,1,397,347,2025-06-06T10:10:50.928175
10796,-0.7803,0.4690,-0.1000,-9.240,-38.080,35.805,75,2,1,395,337,2025-06-06T10:10:50.928175
10797,-0.8145,0.4704,-0.1083,-8.610,-34.335,38.465,74,3,1,394,363,2025-06-06T10:10:50.928175
10798,-0.8203,0.5080,-0.0698,-8.015,-28.280,41.020,75,2,1,406,337,2025-06-06T10:10:50.928175
10799,-0.7998,0.5729,-0.0732,-11.900,-25.620,43.295,76,3,1,394,358,2025-06-06T10:10:50.928175
10800,-0.7442,0.5758,-0.0937,-11.725,-21.665,46.795,76,3,1,393,368,2025-06-06T10:10:51.106291
10801,-0.7349,0.5734,-0.1059,-14.105,-19.740,48.335,76,2,1,393,388,2025-06-06T10:10:51.106291
10802,-0.8111,0.5758,-0.1035,-16.205,-14.665,49.525,75,3,1,378,386,2025-06-06T10:10:51.106291
10803,-0.8501,0.5114,-0.1122,-21.525,-4.585,49.455,76,1,1,378,392,2025-06-06T10:10:51.106291
10804,-0.8194,0.5056,-0.0717,-21.910,6.720,47.005,74,2,2,388,383,2025-06-06T10:10:51.106291
10805,-0.7891,0.5754,-0.0522,-25.515,15.435,49.630,73,2,1,397,378,2025-06-06T10:10:51.106291
10806,-0.7315,0.6017,-0.0820,-22.750,20.755,51.800,74,1,1,404,395,2025-06-06T10:10:51.106291
10807,-0.7130,0.6237,-0.0869,-23.450,21.875,47.635,73,4,1,398,397,2025-06-06T10:10:51.106291
10808,-0.7627,0.6573,-0.0893,-25.375,24.500,48.685,75,2,1,395,395,2025-06-06T10:10:51.106291
10809,-0.7505,0.6608,-0.1103,-26.775,26.775,46.410,74,2,1,398,360,2025-06-06T10:10:51.106291
10810,-0.7071,0.6642,-0.0610,-24.885,26.390,46.585,74,3,1,393,383,2025-06-06T10:10:51.106291
10811,-0.7305,0.6651,-0.0239,-25.830,22.505,44.310,76,1,1,386,387,2025-06-06T10:10:51.106291
10812,-0.7135,0.6666,-0.0127,-24.325,25.130,43.680,76,3,1,385,380,2025-06-06T10:10:51.106291
10813,-0.6710,0.6788,-0.0151,-25.690,26.845,43.295,77,1,1,394,358,2025-06-06T10:10:51.106291
10814,-0.7120,0.6671,-0.0517,-25.480,25.480,38.465,78,2,1,387,363,2025-06-06T10:10:51.106291
10815,-0.7286,0.6803,-0.0532,-23.065,28.070,35.000,75,2,2,395,370,2025-06-06T10:10:51.106291
10816,-0.7393,0.7164,-0.0185,-25.445,27.790,31.430,75,2,1,401,385,2025-06-06T10:10:51.106291
10817,-0.7174,0.7388,0.0068,-27.965,22.750,29.155,74,4,1,396,389,2025-06-06T10:10:51.106291
10818,-0.6837,0.7193,0.0625,-28.770,19.460,32.130,75,0,1,406,393,2025-06-06T10:10:51.106291
10819,-0.6622,0.7296,0.0986,-31.045,10.255,33.110,72,2,1,404,350,2025-06-06T10:10:51.106291
10820,-0.6734,0.7379,0.0664,-31.185,9.100,37.730,73,3,2,396,374,2025-06-06T10:10:51.106291
10821,-0.6788,0.7369,0.0220,-29.820,4.900,38.885,73,1,2,404,376,2025-06-06T10:10:51.304813
10822,-0.6715,0.7496,-0.0010,-27.300,5.040,43.295,72,3,1,365,366,2025-06-06T10:10:51.304813
10823,-0.6456,0.7623,-0.0181,-26.495,1.820,38.640,73,2,2,388,387,2025-06-06T10:10:51.304813
10824,-0.6783,0.7691,-0.0454,-25.340,2.940,41.510,72,3,2,386,383,2025-06-06T10:10:51.304813
10825,-0.5983,0.8223,-0.0181,-20.440,2.905,40.285,73,4,1,392,388,2025-06-06T10:10:51.304813
10826,-0.5319,0.7998,-0.0117,-18.340,1.680,43.015,73,1,1,398,387,2025-06-06T10:10:51.304813
10827,-0.5797,0.7476,-0.0508,-18.305,6.685,46.200,73,2,2,401,387,2025-06-06T10:10:51.304813
10828,-0.6471,0.7754,-0.0366,-15.330,15.470,46.305,75,0,1,391,392,2025-06-06T10:10:51.304813
10829,-0.6310,0.8208,-0.0185,-12.075,21.910,44.835,74,2,1,381,379,2025-06-06T10:10:51.304813
10830,-0.6544,0.7544,-0.0532,-13.475,23.310,43.120,75,3,1,379,384,2025-06-06T10:10:51.304813
10831,-0.6993,0.7501,-0.0215,-9.870,22.575,41.335,75,1,2,351,376,2025-06-06T10:10:51.304813
10832,-0.7505,0.9780,0.0229,-3.500,21.070,41.335,74,3,1,372,393,2025-06-06T10:10:51.304813
10833,-0.6525,0.8574,0.0390,5.635,16.660,56.805,75,0,1,390,399,2025-06-06T10:10:51.304813
10834,-0.5305,0.8618,0.0625,-3.815,-4.165,49.175,75,2,1,379,355,2025-06-06T10:10:51.304813
10835,-0.5988,0.8364,-0.0176,-1.295,-11.620,54.635,77,3,2,377,366,2025-06-06T10:10:51.304813
10836,-0.5061,0.8130,-0.0283,1.365,-0.455,55.475,78,1,1,390,350,2025-06-06T10:10:51.304813
10837,-0.5144,0.8257,-0.1313,14.735,6.055,59.710,79,3,2,392,376,2025-06-06T10:10:51.304813
10838,-0.5300,0.8091,-0.1381,7.210,10.395,57.680,79,1,2,401,374,2025-06-06T10:10:51.403527
10839,-0.5514,0.8154,-0.2011,6.300,20.475,54.635,81,3,2,397,391,2025-06-06T10:10:51.403527
10840,-0.5710,0.8359,-0.0732,11.900,24.920,48.370,81,4,1,402,350,2025-06-06T10:10:51.403527
10841,-0.5148,0.8672,-0.0956,10.815,30.695,47.880,82,1,1,392,378,2025-06-06T10:10:51.403527
10842,-0.4919,0.7935,-0.0439,10.535,27.090,46.410,83,3,1,392,389,2025-06-06T10:10:51.403527
10843,-0.4953,0.8252,-0.0239,11.515,17.710,40.670,82,1,1,396,367,2025-06-06T10:10:51.403527
10844,-0.5436,0.8242,-0.0654,14.035,11.795,35.455,81,2,2,379,380,2025-06-06T10:10:51.403527
10845,-0.5339,0.7979,-0.0825,13.930,7.175,31.360,84,2,1,387,384,2025-06-06T10:10:51.403527
10846,-0.6817,0.9570,-0.0795,32.865,13.790,94.325,83,1,2,381,390,2025-06-06T10:10:51.450179
10847,-0.5319,0.7828,-0.0693,20.125,-2.940,20.825,81,3,1,386,385,2025-06-06T10:10:51.450179
10848,-0.5568,0.8120,-0.0927,19.145,-3.745,20.615,82,1,2,394,359,2025-06-06T10:10:51.450179
10849,-0.4841,0.8403,-0.1215,22.365,1.750,19.320,81,2,1,372,368,2025-06-06T10:10:51.450179
10850,-0.4138,0.8696,-0.1113,15.540,-3.325,18.025,81,3,1,381,366,2025-06-06T10:10:51.502203
10851,-0.3787,0.7642,-0.1337,14.000,-3.850,20.720,80,1,2,396,393,2025-06-06T10:10:51.502203
10852,-0.4636,0.8550,-0.1557,4.585,-0.385,21.385,78,4,1,404,398,2025-06-06T10:10:51.502203
10853,-0.5051,0.8657,-0.1313,4.620,7.875,24.500,78,2,2,395,401,2025-06-06T10:10:51.502203
10854,-0.4431,0.9160,-0.0908,14.350,1.680,33.950,77,2,1,396,368,2025-06-06T10:10:51.549396
10855,-0.4724,0.8013,-0.0878,23.170,2.660,45.500,81,2,2,384,382,2025-06-06T10:10:51.549396
10856,-0.4748,0.8867,-0.1718,11.130,0.385,39.060,82,1,2,385,374,2025-06-06T10:10:51.549396
10857,-0.4817,0.8599,-0.1932,15.645,9.660,39.620,80,3,2,385,383,2025-06-06T10:10:51.549396
10858,-0.4695,0.8481,-0.2098,21.420,18.935,39.585,79,1,1,399,389,2025-06-06T10:10:51.717916
10859,-0.4577,0.8301,-0.2137,21.945,25.480,38.640,79,3,2,400,399,2025-06-06T10:10:51.717916
10860,-0.3553,0.8447,-0.1776,24.080,27.895,40.180,82,2,1,393,387,2025-06-06T10:10:51.717916
10861,-0.3841,0.8789,-0.1835,26.565,25.375,41.510,82,2,1,385,378,2025-06-06T10:10:51.717916
10862,-0.3811,0.8677,-0.2216,25.480,27.090,42.420,82,4,2,389,381,2025-06-06T10:10:51.717916
10863,-0.3601,0.8511,-0.2157,28.910,29.400,43.365,84,2,1,397,387,2025-06-06T10:10:51.717916
10864,-0.4392,0.8350,-0.2206,28.140,30.800,41.860,82,2,1,385,394,2025-06-06T10:10:51.717916
10865,-0.4255,0.8106,-0.1898,29.330,32.375,38.920,83,2,1,347,393,2025-06-06T10:10:51.717916
10866,-0.4114,0.8242,-0.1664,27.615,29.645,32.515,85,1,1,372,328,2025-06-06T10:10:51.717916
10867,-0.3928,0.8374,-0.1674,24.955,28.280,31.815,83,4,1,336,365,2025-06-06T10:10:51.717916
10868,-0.4314,0.8550,-0.1889,21.280,25.725,29.890,84,2,1,376,392,2025-06-06T10:10:51.717916
10869,-0.3621,0.8491,-0.1371,16.520,18.235,19.425,84,2,1,375,399,2025-06-06T10:10:51.717916
10870,-0.3016,0.8638,-0.0839,14.490,3.570,18.480,85,2,1,383,395,2025-06-06T10:10:51.717916
10871,-0.2679,0.8642,-0.1332,5.635,-8.085,16.555,86,1,1,396,392,2025-06-06T10:10:51.717916
10872,-0.2040,0.8569,-0.1923,3.360,-13.790,13.265,84,4,1,392,383,2025-06-06T10:10:51.915401
10873,-0.0112,0.8618,-0.2211,-0.140,-19.460,8.400,84,3,2,399,393,2025-06-06T10:10:51.915401
10874,-0.0615,0.9189,-0.2079,-4.130,-21.455,1.120,82,1,1,395,377,2025-06-06T10:10:51.915401
10875,0.1630,0.9648,-0.1108,-10.955,-17.920,-10.675,81,4,1,394,393,2025-06-06T10:10:51.915401
10876,0.6598,1.1195,0.2089,-18.480,-37.205,-21.000,80,1,2,402,393,2025-06-06T10:10:51.915401
10877,1.8495,1.4376,0.8125,-36.680,-101.640,-21.910,77,3,2,393,383,2025-06-06T10:10:51.915401
10878,3.3501,1.6973,1.3591,-132.545,-266.525,-5.985,76,2,1,387,350,2025-06-06T10:10:51.915401
10879,3.9338,1.7802,0.1005,-232.680,-536.445,-104.195,73,2,2,374,379,2025-06-06T10:10:51.915401
10880,3.6707,0.6276,-0.7462,227.955,-237.265,-66.010,71,3,1,389,385,2025-06-06T10:10:51.915401
10881,2.8894,0.2752,-0.8462,148.645,-64.995,-134.820,68,1,2,398,384,2025-06-06T10:10:51.915401
10882,0.8257,-0.2342,-0.2040,-100.275,140.700,-291.165,65,4,1,390,346,2025-06-06T10:10:51.915401
10883,-1.5294,-0.7422,0.5866,-434.595,278.985,-497.980,64,2,1,383,359,2025-06-06T10:10:51.915401
10884,-4.4364,-1.3864,0.7798,-390.320,353.815,-678.335,64,1,1,394,385,2025-06-06T10:10:51.915401
10885,-6.7539,-0.5822,1.8646,220.255,-95.270,-831.460,61,3,1,397,389,2025-06-06T10:10:51.915401
10886,-6.0146,-0.2015,2.8006,138.005,-406.105,-863.660,62,1,1,362,392,2025-06-06T10:10:51.915401
10887,-3.4477,-1.9105,0.4563,366.625,-715.050,-768.110,58,2,1,350,385,2025-06-06T10:10:51.915401
10888,0.5417,-2.7094,-1.8725,463.470,-639.520,-481.670,59,2,1,365,385,2025-06-06T10:10:52.017876
10889,-0.7666,-1.6328,-1.9242,199.080,-232.855,-188.195,57,1,2,368,360,2025-06-06T10:10:52.017876
10890,-1.2991,-0.7886,-2.2238,-34.755,196.455,-51.485,56,4,2,380,379,2025-06-06T10:10:52.017876
10891,-2.1204,-0.0083,-1.2766,-190.015,413.420,71.400,56,1,2,388,363,2025-06-06T10:10:52.017876
10892,-1.9169,0.8862,-1.3205,-115.150,350.560,181.720,56,2,2,384,346,2025-06-06T10:10:52.017876
10893,-1.7051,0.6886,-1.3366,15.680,215.110,209.230,52,2,1,392,374,2025-06-06T10:10:52.017876
10894,-1.4577,0.3821,-0.6373,48.895,133.595,177.450,52,0,2,407,380,2025-06-06T10:10:52.017876
10895,-1.2127,0.1508,0.4041,2.695,122.185,147.140,49,3,1,388,388,2025-06-06T10:10:52.017876
10896,-1.5870,-0.0830,0.8525,-44.485,93.660,104.580,51,0,1,391,386,2025-06-06T10:10:52.017876
10897,-1.7265,-0.2577,0.7671,-40.320,72.660,34.055,50,2,1,393,382,2025-06-06T10:10:52.120399
10898,-1.3542,-0.2279,0.2518,-48.475,15.890,-29.050,49,2,2,395,387,2025-06-06T10:10:52.120399
10899,-1.4591,0.0747,0.1254,-64.925,-12.530,-67.095,50,0,2,386,402,2025-06-06T10:10:52.120399
10900,-1.3166,0.3192,-0.1718,-82.810,-42.490,-89.530,48,3,2,348,394,2025-06-06T10:10:52.120399
10901,-1.1151,0.4246,-0.4651,-52.010,-55.090,-98.525,48,1,1,362,403,2025-06-06T10:10:52.120399
10902,-0.6559,0.5939,-0.5202,-23.065,-41.265,-83.440,48,2,1,364,388,2025-06-06T10:10:52.120399
10903,-0.4714,0.5851,-0.3587,-27.825,-3.850,-59.465,46,3,1,372,395,2025-06-06T10:10:52.120399
10904,-0.6076,0.4729,-0.1288,-28.140,18.340,-23.695,49,0,1,390,413,2025-06-06T10:10:52.120399
10905,-0.8042,0.3938,-0.0346,-21.945,23.450,5.075,49,4,1,392,371,2025-06-06T10:10:52.326815
10906,-0.9428,0.3455,0.1118,2.415,15.925,28.735,51,1,1,384,389,2025-06-06T10:10:52.326815
10907,-1.1585,0.4148,0.0161,-16.520,13.440,46.970,49,3,2,392,383,2025-06-06T10:10:52.326815
10908,-1.2654,0.3021,-0.0317,-11.550,14.805,55.755,49,3,1,396,394,2025-06-06T10:10:52.326815
10909,-1.2590,0.2640,-0.0620,-3.535,12.600,56.630,49,0,1,387,390,2025-06-06T10:10:52.326815
10910,-1.2215,0.2786,-0.0669,-2.695,11.410,56.805,48,3,1,372,390,2025-06-06T10:10:52.326815
10911,-1.2122,0.2777,-0.1513,-4.025,1.295,54.460,47,2,1,391,391,2025-06-06T10:10:52.326815
10912,-1.2224,0.2303,-0.1649,-2.835,-0.070,52.325,45,2,0,348,357,2025-06-06T10:10:52.326815
10913,-1.1814,0.2318,-0.0961,2.310,-7.455,50.400,44,4,1,371,376,2025-06-06T10:10:52.326815
10914,-1.1195,0.1913,-0.0756,0.035,-12.810,49.140,45,1,2,389,379,2025-06-06T10:10:52.326815
10915,-1.0921,0.2391,-0.0473,0.455,-26.600,47.530,46,3,1,390,375,2025-06-06T10:10:52.326815
10916,-1.0653,0.2762,-0.0859,-2.450,-43.190,46.515,46,2,1,389,385,2025-06-06T10:10:52.326815
10917,-1.0058,0.2479,-0.1049,-0.630,-47.075,45.745,45,3,1,390,386,2025-06-06T10:10:52.326815
10918,-0.9438,0.2357,-0.1015,0.945,-49.385,44.730,44,3,1,384,395,2025-06-06T10:10:52.326815
10919,-0.9477,0.2547,-0.1649,-1.890,-47.915,45.045,46,1,1,383,396,2025-06-06T10:10:52.326815
10920,-1.0053,0.1537,-0.2308,-2.625,-41.755,42.770,45,4,2,375,391,2025-06-06T10:10:52.326815
10921,-1.0790,0.2323,-0.1976,1.225,-34.125,39.060,46,3,2,392,397,2025-06-06T10:10:52.326815
10922,-1.0551,0.2660,-0.1889,2.870,-30.100,35.840,45,2,2,396,396,2025-06-06T10:10:52.427184
10923,-0.8935,0.3152,-0.1576,1.365,-20.930,38.710,45,3,1,352,390,2025-06-06T10:10:52.427184
10924,-0.7564,0.2796,-0.0625,5.180,-18.865,44.345,47,0,1,383,403,2025-06-06T10:10:52.427184
10925,-0.7188,0.3826,-0.0215,4.445,-22.120,50.715,45,4,1,388,404,2025-06-06T10:10:52.427184
10926,-0.7247,0.4314,-0.0771,4.865,-25.550,56.945,46,2,2,388,407,2025-06-06T10:10:52.427184
10927,-0.8008,0.4094,-0.0859,8.400,-25.830,57.960,45,2,1,385,395,2025-06-06T10:10:52.427184
10928,-0.8501,0.4099,-0.0195,3.745,-24.885,57.855,47,3,1,358,358,2025-06-06T10:10:52.427184
10929,-0.8779,0.3240,-0.0122,-2.135,-23.765,55.055,48,1,1,382,394,2025-06-06T10:10:52.427184
10930,-0.8804,0.3514,-0.0517,-2.485,-19.040,54.425,48,4,1,378,380,2025-06-06T10:10:52.427712
10931,-0.8725,0.3616,-0.0508,1.155,-9.975,51.660,49,3,2,385,350,2025-06-06T10:10:52.531547
10932,-0.7896,0.4490,-0.0337,-1.225,-5.985,50.820,48,2,2,386,384,2025-06-06T10:10:52.531547
10933,-0.7647,0.4968,-0.0195,-1.330,-5.495,51.065,48,3,1,387,385,2025-06-06T10:10:52.531547
10934,-0.7969,0.5763,-0.0098,-3.780,-7.595,50.680,50,2,1,398,401,2025-06-06T10:10:52.531547
10935,-0.6993,0.5919,-0.0264,-0.980,-8.015,53.655,48,4,2,394,389,2025-06-06T10:10:52.531547
10936,-0.6564,0.5949,-0.0059,-4.830,-9.135,58.170,48,2,2,391,392,2025-06-06T10:10:52.531547
10937,-0.6974,0.5563,0.0088,-12.250,-7.315,61.950,46,2,1,385,380,2025-06-06T10:10:52.531547
10938,-0.7305,0.5329,0.0039,-15.750,-2.555,66.150,43,3,1,394,389,2025-06-06T10:10:52.531547
10939,-0.7818,0.5285,-0.0224,-16.555,0.945,66.290,45,1,1,397,387,2025-06-06T10:10:52.531547
10940,-0.7901,0.5641,-0.0395,-13.230,2.800,65.170,41,4,1,383,390,2025-06-06T10:10:52.637320
10941,-0.7969,0.6188,0.0010,-9.905,3.850,63.070,41,2,2,385,382,2025-06-06T10:10:52.637320
10942,-0.7691,0.6266,0.0151,-14.805,6.860,63.455,40,1,2,379,392,2025-06-06T10:10:52.637320
10943,-0.7237,0.6266,-0.0195,-20.300,9.730,62.930,39,2,1,359,351,2025-06-06T10:10:52.637320
10944,-0.7061,0.6193,-0.0259,-22.295,14.525,63.385,37,2,1,383,364,2025-06-06T10:10:52.637320
10945,-0.7608,0.6095,-0.0244,-24.605,15.295,61.600,35,4,1,375,364,2025-06-06T10:10:52.637320
10946,-0.8306,0.5929,-0.0400,-27.160,20.545,60.690,35,1,1,386,380,2025-06-06T10:10:52.637320
10947,-0.8067,0.5905,-0.0298,-23.975,22.610,56.175,36,2,1,386,389,2025-06-06T10:10:52.637320
10948,-0.7593,0.6715,0.0288,-24.220,21.280,53.375,35,4,1,392,348,2025-06-06T10:10:52.738092
10949,-0.7100,0.6998,0.0102,-25.165,21.035,54.355,35,1,1,389,359,2025-06-06T10:10:52.738092
10950,-0.5485,0.5832,-0.0176,-26.250,22.575,57.435,32,4,1,376,364,2025-06-06T10:10:52.903202
10951,-0.6529,0.6627,0.0264,-28.980,21.210,59.570,33,2,2,394,384,2025-06-06T10:10:52.903202
10952,-0.6969,0.7291,-0.0664,-23.520,22.435,60.550,34,1,1,389,353,2025-06-06T10:10:52.903202
10953,-0.6627,0.7242,-0.1078,-19.075,19.355,60.130,33,3,1,393,378,2025-06-06T10:10:52.903202
10954,-0.6666,0.7052,-0.0356,-15.610,16.310,59.010,33,2,1,405,386,2025-06-06T10:10:52.903202
10955,-0.6617,0.7159,0.0171,-16.625,16.135,60.515,33,3,1,371,375,2025-06-06T10:10:52.903202
10956,-0.6681,0.7056,0.0220,-16.135,16.450,56.875,34,2,1,387,371,2025-06-06T10:10:52.903202
10957,-0.6549,0.6978,0.0000,-13.475,21.805,53.655,35,2,1,380,384,2025-06-06T10:10:52.903202
10958,-0.7218,0.8672,0.0156,-11.305,20.230,51.975,33,4,2,384,387,2025-06-06T10:10:52.903202
10959,-0.6964,0.8364,0.0220,-8.575,20.720,47.425,35,2,1,391,395,2025-06-06T10:10:52.903202
10960,-0.6412,0.8218,0.0005,-14.245,20.230,48.720,33,3,2,387,380,2025-06-06T10:10:52.903202
10961,-0.6007,0.7867,0.0166,-18.375,14.560,48.790,33,2,1,383,393,2025-06-06T10:10:52.903202
10962,-0.5822,0.7930,0.0698,-16.450,11.270,54.810,33,1,1,366,393,2025-06-06T10:10:52.904199
10963,-0.5802,0.8018,0.0825,-14.070,6.265,53.935,33,4,1,381,397,2025-06-06T10:10:52.904199
10964,-0.5022,0.7764,0.0991,-14.700,5.320,54.530,35,2,1,384,358,2025-06-06T10:10:52.904199
10965,-0.5080,0.7706,0.0669,-19.845,3.605,57.890,33,4,1,385,375,2025-06-06T10:10:52.940614
10966,-0.5026,0.7769,-0.0117,-14.280,4.970,61.950,33,2,1,385,384,2025-06-06T10:10:52.940614
10967,-0.3089,0.6373,-0.0752,-7.385,8.470,66.150,34,2,1,385,380,2025-06-06T10:10:52.940614
10968,-0.6178,0.9004,-0.0429,4.690,5.670,64.575,33,3,1,375,372,2025-06-06T10:10:52.940614
10969,-0.5714,0.9155,-0.0756,5.390,18.165,63.910,35,1,1,391,375,2025-06-06T10:10:52.940614
10970,-0.5261,0.9350,-0.0468,-3.290,21.630,62.510,33,3,2,377,379,2025-06-06T10:10:52.940614
10971,-0.4924,0.9550,0.0322,-6.895,21.980,61.005,33,3,1,391,347,2025-06-06T10:10:52.940614
10972,-0.4538,0.9008,0.1035,-5.705,23.100,62.300,33,1,2,388,376,2025-06-06T10:10:52.940614
10973,-0.4963,0.8345,0.1083,-7.105,18.480,62.825,33,4,1,383,379,2025-06-06T10:10:52.940614
10974,-0.5344,0.8335,0.0342,-5.215,16.100,64.365,34,2,1,397,348,2025-06-06T10:10:52.985361
10975,-0.3841,0.7086,-0.0581,7.385,20.545,65.555,33,3,1,357,361,2025-06-06T10:10:52.985361
10976,-0.4656,0.9116,0.0288,10.780,13.055,69.685,34,1,2,342,339,2025-06-06T10:10:52.985361
10977,-0.4387,1.0087,-0.0312,13.405,19.355,72.835,34,2,1,368,364,2025-06-06T10:10:53.036845
10978,-0.3919,0.9653,-0.0049,1.190,22.015,71.855,33,4,1,379,363,2025-06-06T10:10:53.036845
10979,-0.3484,0.9448,0.0307,-5.005,23.310,68.320,35,1,2,389,368,2025-06-06T10:10:53.036845
10980,-0.3719,0.8935,0.0137,-6.020,23.065,69.930,34,2,1,383,372,2025-06-06T10:10:53.036845
10981,-0.4002,0.8823,-0.0322,-5.460,23.660,70.770,34,2,2,397,346,2025-06-06T10:10:53.082739
10982,-0.3762,0.8847,-0.0766,-0.945,22.785,73.885,34,1,1,384,377,2025-06-06T10:10:53.082739
10983,-0.3904,0.8872,-0.1005,1.820,21.630,74.865,36,4,1,380,386,2025-06-06T10:10:53.082739
10984,-0.3689,0.8838,-0.0820,9.100,25.165,85.050,36,1,2,354,389,2025-06-06T10:10:53.082739
10985,-0.3811,0.8901,-0.0571,5.355,23.730,76.090,36,4,1,376,381,2025-06-06T10:10:53.128374
10986,-0.3689,0.9248,-0.0522,2.555,28.070,74.410,36,3,1,382,383,2025-06-06T10:10:53.128374
10987,-0.3484,0.9043,-0.0512,0.035,31.185,74.165,37,1,2,390,393,2025-06-06T10:10:53.128374
10988,-0.2943,0.9828,-0.1693,-3.115,33.670,73.535,37,4,2,350,391,2025-06-06T10:10:53.128374
10989,-0.2196,0.9862,-0.1205,7.035,43.855,75.390,36,1,1,377,388,2025-06-06T10:10:53.348874
10990,-0.1342,1.0160,-0.0830,1.015,47.565,78.645,36,1,1,383,378,2025-06-06T10:10:53.348874
10991,-0.1303,0.9701,-0.1235,-7.035,47.740,83.370,35,3,1,393,387,2025-06-06T10:10:53.348874
10992,-0.0864,0.8228,-0.1039,-5.145,54.565,90.370,38,3,2,402,387,2025-06-06T10:10:53.348874
10993,-0.3026,0.9599,-0.0249,2.275,47.670,87.465,38,3,2,393,388,2025-06-06T10:10:53.348874
10994,-0.4953,1.0238,-0.0034,2.380,45.395,82.005,40,2,2,403,386,2025-06-06T10:10:53.348874
10995,-0.3050,1.0551,-0.1269,2.835,45.185,77.525,39,2,1,398,358,2025-06-06T10:10:53.348874
10996,-0.2747,1.0238,-0.0571,8.225,51.310,73.325,40,3,1,385,365,2025-06-06T10:10:53.348874
10997,-0.1396,1.1190,-0.0088,20.965,51.415,66.395,41,2,1,392,347,2025-06-06T10:10:53.348874
10998,0.0171,1.0551,-0.1444,21.805,62.965,65.310,41,3,1,344,332,2025-06-06T10:10:53.348874
10999,-0.0493,0.9638,-0.2445,-0.665,74.935,65.450,44,1,2,376,330,2025-06-06T10:10:53.348874
11000,-0.1313,0.9858,-0.1249,9.730,84.245,63.840,44,3,1,385,360,2025-06-06T10:10:53.348874
11001,-0.1015,0.9706,-0.0659,48.510,70.280,62.790,44,3,1,388,346,2025-06-06T10:10:53.348874
11002,-0.0439,0.9267,-0.1220,84.000,54.285,66.675,44,1,1,378,373,2025-06-06T10:10:53.348874
11003,-0.0478,1.0341,-0.0688,92.540,47.495,67.690,45,3,2,393,385,2025-06-06T10:10:53.348874
11004,-0.0298,1.0019,-0.1527,71.540,51.310,64.785,46,1,1,399,397,2025-06-06T10:10:53.348874
11005,-0.0268,1.0048,-0.0971,62.825,54.775,59.080,48,2,1,380,322,2025-06-06T10:10:53.348874
11006,0.0371,1.0360,-0.1566,65.205,49.700,57.435,48,2,1,386,369,2025-06-06T10:10:53.348874
11007,0.0786,0.9257,-0.2391,87.745,34.195,56.560,49,2,2,397,373,2025-06-06T10:10:53.348874
11008,0.0473,0.9833,-0.1161,91.245,23.520,52.780,49,3,1,395,385,2025-06-06T10:10:53.393516
11009,0.0420,1.0468,-0.0503,75.880,19.040,46.725,53,1,1,403,389,2025-06-06T10:10:53.393516
11010,0.0410,0.9370,-0.2220,62.965,27.370,36.785,51,2,1,383,398,2025-06-06T10:10:53.394519
11011,0.1659,0.8955,-0.2669,61.180,30.660,27.510,52,2,2,386,406,2025-06-06T10:10:53.447581
11012,0.3616,0.9389,-0.2987,76.720,28.840,19.215,54,1,1,351,386,2025-06-06T10:10:53.447581
11013,0.5856,0.8823,-0.4250,77.735,29.750,16.695,54,4,2,374,401,2025-06-06T10:10:53.447581
11014,0.7540,0.8838,-0.5144,70.140,40.180,9.030,55,1,2,385,362,2025-06-06T10:10:53.447581
11015,0.9174,0.7954,-0.4821,59.045,29.995,-5.215,54,2,1,377,341,2025-06-06T10:10:53.554598
11016,1.8237,0.7135,-0.1293,56.490,-45.360,-14.980,54,3,2,344,321,2025-06-06T10:10:53.554598
11017,1.9344,0.5388,0.6837,-98.245,-258.615,8.260,55,2,1,370,357,2025-06-06T10:10:53.554598
11018,2.6425,0.7232,3.0217,16.240,-91.490,-57.890,55,3,1,389,377,2025-06-06T10:10:53.554598
11019,2.6196,-0.1196,2.5117,-199.780,-57.120,-122.115,57,2,1,390,391,2025-06-06T10:10:53.554598
11020,1.9588,-1.1014,2.1701,-353.955,17.010,-247.555,59,1,2,394,351,2025-06-06T10:10:53.554598
11021,0.5280,-1.5362,1.4420,-407.610,104.160,-389.165,60,3,1,389,373,2025-06-06T10:10:53.554598
11022,0.0366,-1.6153,0.8638,-31.255,12.950,-560.945,62,2,2,410,399,2025-06-06T10:10:53.554598
11023,-0.7715,-0.6066,0.4904,244.230,-146.510,-703.605,61,4,0,325,372,2025-06-06T10:10:53.554598
11024,-2.7894,0.0727,-0.8140,251.545,-203.350,-790.965,61,2,1,350,378,2025-06-06T10:10:53.554598
11025,-5.8697,0.5861,-1.9554,189.105,-182.175,-815.710,61,1,1,363,394,2025-06-06T10:10:53.655980
11026,-4.3495,0.5549,-2.5600,185.465,-2.065,-746.410,61,4,1,376,393,2025-06-06T10:10:53.655980
11027,0.6871,0.4914,-3.3086,358.680,70.175,-427.245,62,0,1,394,403,2025-06-06T10:10:53.655980
11028,1.5152,0.0976,-4.1753,433.790,212.415,-83.300,62,3,2,394,391,2025-06-06T10:10:53.655980
11029,-1.6816,0.1562,-2.8772,391.335,528.850,106.855,63,1,1,390,388,2025-06-06T10:10:53.655980
11030,-3.7420,0.4329,-0.3572,753.410,232.365,167.720,64,1,1,381,392,2025-06-06T10:10:53.655980
11031,-3.7103,-0.1762,2.0506,61.670,208.810,113.505,65,3,1,354,387,2025-06-06T10:10:53.655980
11032,-2.9612,-0.4768,1.6572,123.270,-58.590,37.625,65,1,1,366,389,2025-06-06T10:10:53.655980
11033,-2.2428,-0.0425,1.0404,-156.520,-131.005,-17.115,65,3,1,367,392,2025-06-06T10:10:53.713271
11034,-0.8228,0.4080,-1.6172,-211.960,-157.675,-18.935,67,2,1,371,380,2025-06-06T10:10:53.713271
11035,0.0903,1.0882,-3.0427,-11.620,-20.055,14.910,69,2,1,381,388,2025-06-06T10:10:53.713271
11036,0.1942,0.6832,-1.5509,30.590,45.745,64.120,66,3,1,385,390,2025-06-06T10:10:53.713271
11037,-0.5300,0.5817,-1.0370,-32.270,90.405,85.540,67,1,1,354,388,2025-06-06T10:10:53.861915
11038,-0.9052,0.1142,-0.9145,-15.645,103.075,68.600,66,2,1,358,321,2025-06-06T10:10:53.861915
11039,-1.1200,0.2045,-0.5436,18.305,85.050,48.895,66,3,1,366,328,2025-06-06T10:10:53.861915
11040,-1.3108,0.4470,-0.1449,-40.635,45.955,34.475,67,2,2,375,374,2025-06-06T10:10:53.861915
11041,-1.2693,0.5314,-0.4890,-67.165,10.045,24.710,67,4,1,386,386,2025-06-06T10:10:53.861915
11042,-1.1644,0.5041,-0.5958,-129.080,-7.595,15.260,69,1,1,383,378,2025-06-06T10:10:53.861915
11043,-1.0502,0.5270,-0.3880,-126.490,-21.490,7.140,70,2,0,309,362,2025-06-06T10:10:53.861915
11044,-0.7017,0.7154,-0.5480,-108.990,-37.345,8.995,70,2,1,311,380,2025-06-06T10:10:53.861915
11045,-0.6686,0.6588,-0.7847,-100.905,-27.510,16.310,69,1,1,316,386,2025-06-06T10:10:53.861915
11046,-0.5944,0.8032,-0.9360,-56.455,-32.655,23.380,69,3,2,310,377,2025-06-06T10:10:53.861915
11047,-0.7008,0.8535,-0.9374,-70.910,19.880,39.655,68,1,1,353,387,2025-06-06T10:10:53.861915
11048,-0.7481,0.7842,-0.9272,-27.265,28.000,49.525,67,2,1,374,357,2025-06-06T10:10:53.861915
11049,-0.7476,0.7530,-0.5646,-6.685,26.635,58.065,66,2,1,366,341,2025-06-06T10:10:53.861915
11050,-0.8520,0.6305,-0.4250,-19.355,17.885,57.470,66,1,1,368,365,2025-06-06T10:10:53.917560
11051,-0.9228,0.5270,-0.3684,-20.265,-5.005,48.230,66,3,1,381,380,2025-06-06T10:10:53.917560
11052,-0.8813,0.5144,-0.3343,-25.760,-22.610,37.100,68,1,1,383,375,2025-06-06T10:10:53.917560
11053,-0.6939,0.5588,-0.3772,-29.085,-52.710,27.370,67,2,0,311,333,2025-06-06T10:10:53.917560
11054,-0.6700,0.5724,-0.5231,-28.140,-65.205,22.365,67,2,1,325,353,2025-06-06T10:10:53.971660
11055,-0.5778,0.6412,-0.7218,-39.585,-45.465,26.635,68,1,2,357,366,2025-06-06T10:10:53.971660
11056,-0.4412,0.6324,-0.8506,-35.210,-30.520,37.345,66,4,1,361,377,2025-06-06T10:10:53.971660
11057,-0.4421,0.6544,-0.7544,-22.155,-20.755,45.010,65,1,1,370,395,2025-06-06T10:10:53.971660
11058,-0.4626,0.6310,-0.6281,-23.065,-8.750,56.595,62,2,1,377,388,2025-06-06T10:10:53.971660
11059,-0.5144,0.5158,-0.5641,-19.565,-2.695,62.300,61,3,1,382,358,2025-06-06T10:10:54.065816
11060,-0.5758,0.4851,-0.4382,-21.525,-7.070,61.845,60,1,1,377,380,2025-06-06T10:10:54.065816
11061,-0.6324,0.4738,-0.3504,-28.910,-21.105,55.020,58,3,1,389,387,2025-06-06T10:10:54.065816
11062,-0.6246,0.4265,-0.3333,-33.600,-34.160,45.955,59,2,1,402,406,2025-06-06T10:10:54.065816
11063,-0.6032,0.4763,-0.3470,-37.695,-48.055,37.940,57,2,1,390,392,2025-06-06T10:10:54.065816
11064,-0.5104,0.5544,-0.4065,-42.490,-57.680,33.180,57,3,1,380,396,2025-06-06T10:10:54.065816
11065,-0.5104,0.5241,-0.4675,-44.555,-57.190,34.860,56,1,1,348,382,2025-06-06T10:10:54.065816
11066,-0.5817,0.5090,-0.5202,-37.485,-52.325,32.270,54,3,1,370,378,2025-06-06T10:10:54.065816
11067,-0.5041,0.5983,-0.4846,-34.230,-46.340,34.755,55,1,1,389,387,2025-06-06T10:10:54.121416
11068,-0.5163,0.5832,-0.4773,-32.830,-42.735,36.365,53,2,1,348,353,2025-06-06T10:10:54.121416
11069,-0.4870,0.6495,-0.3514,-27.475,-40.075,36.155,52,3,2,367,363,2025-06-06T10:10:54.121416
11070,-0.4460,0.6871,-0.2211,-42.770,-44.765,39.655,50,0,1,379,375,2025-06-06T10:10:54.121416
11071,-0.3733,0.6110,-0.2508,-44.485,-52.710,42.630,47,3,1,376,380,2025-06-06T10:10:54.373124
11072,-0.3909,0.5622,-0.2606,-37.765,-52.220,45.640,48,2,2,386,383,2025-06-06T10:10:54.373124
11073,-0.4509,0.5900,-0.2508,-35.000,-42.735,52.675,46,3,2,390,396,2025-06-06T10:10:54.373124
11074,-0.4031,0.5758,-0.2625,-34.020,-42.630,49.700,44,4,2,392,402,2025-06-06T10:10:54.373124
11075,-0.4412,0.6163,-0.2216,-38.150,-43.435,47.425,45,1,1,383,394,2025-06-06T10:10:54.373124
11076,-0.4885,0.5885,-0.1679,-41.230,-44.170,47.145,44,4,1,374,366,2025-06-06T10:10:54.373124
11077,-0.4587,0.5719,-0.0342,-44.065,-50.680,43.400,44,1,1,383,384,2025-06-06T10:10:54.373124
11078,-0.4060,0.5700,0.1376,-56.175,-59.255,46.830,44,2,1,390,385,2025-06-06T10:10:54.373124
11079,-0.4231,0.4616,0.1737,-71.015,-82.390,44.450,43,2,1,394,397,2025-06-06T10:10:54.373124
11080,-0.5134,0.5109,0.0830,-71.540,-100.065,45.360,44,1,1,401,400,2025-06-06T10:10:54.373124
11081,-0.5012,0.7535,0.0268,-55.685,-127.470,35.420,42,2,1,391,391,2025-06-06T10:10:54.373124
11082,-0.3606,0.9292,-0.1147,-60.060,-133.280,36.890,44,2,1,396,383,2025-06-06T10:10:54.373124
11083,-0.3655,0.9384,-0.3719,-71.540,-107.520,37.940,43,3,1,378,401,2025-06-06T10:10:54.373124
11084,-0.4416,0.9155,-0.6198,-81.305,-52.920,38.920,41,2,1,389,393,2025-06-06T10:10:54.373124
11085,-0.6832,0.9560,-0.6359,-82.005,2.205,24.395,42,0,1,390,394,2025-06-06T10:10:54.373124
11086,-0.1703,0.8603,-0.8276,-69.370,4.760,22.505,38,3,2,379,397,2025-06-06T10:10:54.373124
11087,-0.1440,0.9931,-0.6310,-39.270,-1.680,17.885,39,2,1,394,394,2025-06-06T10:10:54.373124
11088,-0.3943,1.0995,-0.1654,-29.505,8.400,19.215,38,3,1,383,377,2025-06-06T10:10:54.373124
11089,-0.4738,1.0165,0.1059,-41.650,15.470,17.920,39,3,1,377,379,2025-06-06T10:10:54.373124
11090,-0.3860,1.0575,0.1240,-50.155,11.165,27.335,39,1,1,374,380,2025-06-06T10:10:54.373124
11091,-0.3216,1.0682,0.0220,-35.245,-7.700,34.160,38,3,1,380,354,2025-06-06T10:10:54.373124
11092,-0.4211,1.1341,0.0273,-22.540,-22.470,39.795,38,2,1,380,384,2025-06-06T10:10:54.427989
11093,-0.4104,1.1512,0.0195,-28.665,-24.220,53.585,38,2,1,382,359,2025-06-06T10:10:54.427989
11094,-0.2591,1.1273,-0.0942,-29.050,-23.205,61.180,36,3,2,376,365,2025-06-06T10:10:54.427989
11095,-0.1952,1.1780,-0.1854,-26.600,-11.025,72.135,37,0,1,392,388,2025-06-06T10:10:54.427989
11096,-0.4021,1.2146,-0.1000,-21.770,30.625,80.605,35,4,1,379,378,2025-06-06T10:10:54.427989
11097,-0.6651,1.3303,-0.2411,-40.320,34.510,88.305,36,2,2,388,347,2025-06-06T10:10:54.577042
11098,-0.1332,0.7418,-0.3104,-18.445,55.475,86.205,35,2,2,378,374,2025-06-06T10:10:54.577042
11099,-0.2157,0.7335,0.0586,-1.610,22.645,78.260,34,3,1,387,369,2025-06-06T10:10:54.577042
11100,-0.7491,0.9233,0.2133,11.550,23.205,69.720,35,0,1,400,379,2025-06-06T10:10:54.736717
11101,-0.9789,1.0141,0.2450,3.430,37.030,53.200,34,3,1,394,377,2025-06-06T10:10:54.736717
11102,-0.5256,0.9277,0.4519,-6.720,35.630,43.225,35,1,1,394,393,2025-06-06T10:10:54.736717
11103,-0.3704,0.8808,0.4841,9.870,2.380,61.810,34,2,1,385,396,2025-06-06T10:10:54.736717
11104,-0.3948,1.0429,0.3040,16.800,-43.295,55.755,34,3,1,385,386,2025-06-06T10:10:54.736717
11105,-0.4607,1.0209,-0.2567,53.445,-36.330,36.050,35,0,1,399,379,2025-06-06T10:10:54.736717
11106,-0.0244,0.8384,-0.1659,58.940,-15.925,32.550,35,4,1,375,385,2025-06-06T10:10:54.736717
11107,-0.1874,0.8628,-0.0551,16.030,-15.330,24.500,36,1,0,359,376,2025-06-06T10:10:54.736717
11108,-0.2606,0.9365,-0.1864,-11.865,-9.730,17.815,36,3,1,366,350,2025-06-06T10:10:54.736717
11109,-0.1952,0.9052,-0.1435,-2.450,-9.940,3.535,36,3,1,361,361,2025-06-06T10:10:54.736717
11110,-0.2747,0.9126,-0.0361,4.025,-20.230,3.990,38,1,1,370,380,2025-06-06T10:10:54.736717
11111,-0.1591,0.8647,0.0166,6.860,-31.570,5.355,36,4,1,376,357,2025-06-06T10:10:54.736717
11112,-0.1835,0.8828,-0.1269,-0.525,-32.200,0.070,38,2,1,393,337,2025-06-06T10:10:54.736717
11113,-0.1767,0.8120,-0.1230,-0.385,-15.505,-0.700,38,2,2,375,362,2025-06-06T10:10:54.736717
11114,-0.0512,0.8101,0.0303,3.710,-12.495,-0.105,38,3,0,350,340,2025-06-06T10:10:54.736717
11115,-0.0839,0.7881,0.0127,0.700,-16.310,2.450,39,0,1,331,363,2025-06-06T10:10:54.736717
11116,-0.1801,0.9697,0.1322,17.220,-24.570,2.310,38,4,1,350,381,2025-06-06T10:10:54.736717
11117,-0.2235,0.9911,-0.0200,0.560,-18.410,-0.805,40,2,1,366,395,2025-06-06T10:10:54.736717
11118,-0.4709,1.0150,-0.0229,-2.100,-31.430,-9.905,41,3,1,379,387,2025-06-06T10:10:54.736717
11119,-0.3221,0.8945,-0.0805,-7.840,-26.005,-11.655,41,4,1,370,393,2025-06-06T10:10:54.736717
11120,-0.1020,0.8091,0.0098,26.460,-34.615,-11.375,43,1,1,380,399,2025-06-06T10:10:54.736717
11121,-0.0044,0.9858,-0.0171,21.350,-29.225,-10.780,42,4,1,383,397,2025-06-06T10:10:54.736717
11122,-0.0820,0.8608,-0.1264,-13.685,-16.975,-9.905,44,2,1,377,397,2025-06-06T10:10:54.986441
11123,-0.2508,0.8325,-0.0600,-12.075,-8.925,-11.585,44,2,1,384,401,2025-06-06T10:10:54.986441
11124,-0.1166,0.7408,-0.0473,11.130,-13.440,-5.635,45,4,1,393,390,2025-06-06T10:10:54.986441
11125,-0.3348,0.9287,0.2220,18.410,-36.890,-0.980,47,1,1,388,385,2025-06-06T10:10:54.986441
11126,-0.5612,1.4269,0.2020,8.890,-58.975,-7.455,46,3,2,395,379,2025-06-06T10:10:54.986441
11127,-0.3919,1.1248,0.1581,-10.885,-70.770,-0.175,47,3,1,395,385,2025-06-06T10:10:54.986441
11128,-0.2181,0.8594,0.0454,-9.415,-84.280,4.270,46,2,1,386,378,2025-06-06T10:10:54.986441
11129,-0.2064,0.8896,0.0234,8.120,-90.720,8.470,46,3,1,381,375,2025-06-06T10:10:54.986441
11130,-0.2601,0.8613,-0.0888,-9.695,-79.030,6.545,46,1,1,379,387,2025-06-06T10:10:54.986441
11131,-0.1786,0.8774,-0.1713,2.590,-64.260,1.120,46,3,1,374,388,2025-06-06T10:10:54.986441
11132,-0.0698,0.9579,-0.1947,5.530,-49.630,-1.715,46,2,1,391,395,2025-06-06T10:10:54.986441
11133,-0.0893,0.9184,-0.1776,-12.880,-37.870,-6.965,46,1,1,348,383,2025-06-06T10:10:54.986441
11134,-0.1020,0.8584,-0.1723,-15.820,-28.315,-12.285,44,4,1,359,394,2025-06-06T10:10:54.986441
11135,-0.1513,0.7579,-0.2216,-17.080,-9.940,-17.150,46,1,1,376,393,2025-06-06T10:10:54.986441
11136,-0.2850,0.8960,-0.1908,-8.820,-3.570,-21.140,45,3,2,374,390,2025-06-06T10:10:54.986441
11137,-0.1523,0.9926,-0.0649,-15.365,9.555,-16.660,47,1,2,377,392,2025-06-06T10:10:54.986441
11138,-0.0864,0.9438,0.1566,-12.285,7.000,-6.475,45,3,2,378,358,2025-06-06T10:10:54.986441
11139,-0.1298,1.0136,0.1757,-19.285,-1.050,8.785,44,3,0,357,368,2025-06-06T10:10:54.986441
11140,-0.2064,0.9570,0.0146,-33.285,-3.465,4.340,44,1,1,371,346,2025-06-06T10:10:54.986441
11141,-0.3470,0.9540,-0.0107,-29.295,6.265,2.310,43,4,1,366,297,2025-06-06T10:10:54.986441
11142,-0.4963,0.9277,-0.0478,-24.920,9.065,-3.990,45,1,1,383,348,2025-06-06T10:10:54.986441
11143,-0.4914,0.9970,0.1064,-5.250,5.915,-6.335,42,2,0,348,356,2025-06-06T10:10:55.035758
11144,-0.4621,1.0214,0.2074,-0.840,-6.300,-5.740,43,4,1,366,366,2025-06-06T10:10:55.035758
11145,-0.3933,0.9716,0.1474,0.560,-17.290,-4.130,42,2,1,382,390,2025-06-06T10:10:55.035758
11146,-0.3221,0.9335,0.0293,3.150,-15.505,-2.975,41,4,1,376,382,2025-06-06T10:10:55.035758
11147,-0.2367,0.9223,-0.0146,6.335,-6.685,-3.115,42,2,2,385,393,2025-06-06T10:10:55.035758
11148,-0.2172,0.9399,-0.0532,-2.135,2.380,-4.935,41,1,1,379,391,2025-06-06T10:10:55.083275
11149,-0.2850,0.9931,-0.0727,-9.765,12.915,-6.055,40,2,1,382,394,2025-06-06T10:10:55.083275
11150,-0.2972,0.9848,0.0268,-6.720,13.545,-2.380,40,1,2,381,404,2025-06-06T10:10:55.083275
11151,-0.3187,0.9804,0.1693,1.190,2.030,4.060,39,3,1,388,402,2025-06-06T10:10:55.083275
11152,-0.4099,0.9765,0.1137,0.000,-9.345,6.860,40,1,1,383,399,2025-06-06T10:10:55.145117
11153,-0.2996,0.9223,-0.0478,4.410,-11.165,8.505,38,2,1,377,392,2025-06-06T10:10:55.145117
11154,-0.2411,0.8979,-0.0639,13.160,-4.900,8.225,40,3,1,371,386,2025-06-06T10:10:55.145117
11155,-0.2928,0.9018,-0.0810,5.460,4.270,2.695,40,1,1,369,387,2025-06-06T10:10:55.146115
11156,-0.3631,0.9048,-0.1137,-0.490,14.140,-3.290,38,3,1,383,389,2025-06-06T10:10:55.146115
11157,-0.3562,0.9018,-0.0386,6.405,19.215,-6.055,39,1,2,351,394,2025-06-06T10:10:55.294056
11158,-0.3865,0.9604,0.0547,2.065,18.445,-7.000,39,3,1,376,325,2025-06-06T10:10:55.294415
11159,-0.3192,0.9277,0.1118,3.150,11.200,-5.950,38,4,1,381,354,2025-06-06T10:10:55.294415
11160,-0.3436,0.9540,0.0473,3.745,6.825,-7.560,38,2,1,395,373,2025-06-06T10:10:55.294415
11161,-0.4055,0.9423,-0.0078,11.130,4.375,-10.570,35,3,1,384,379,2025-06-06T10:10:55.294415
11162,-0.3421,0.9043,-0.0283,11.935,3.500,-15.785,36,1,1,381,391,2025-06-06T10:10:55.294415
11163,-0.3235,0.8608,-0.0386,12.740,4.760,-21.805,36,3,1,369,384,2025-06-06T10:10:55.294415
11164,-0.3880,0.8696,-0.0888,12.180,8.995,-28.105,36,2,1,385,375,2025-06-06T10:10:55.294415
11165,-0.3084,0.8862,-0.0400,18.620,6.020,-32.375,36,1,0,362,390,2025-06-06T10:10:55.294415
11166,-0.1078,0.9833,0.0454,28.245,0.910,-31.080,35,3,1,382,390,2025-06-06T10:10:55.294415
11167,0.0293,1.0028,0.1698,17.640,-11.025,-27.265,37,1,1,387,385,2025-06-06T10:10:55.294415
11168,0.1513,1.1546,0.1869,15.715,-24.255,-25.795,34,3,1,375,389,2025-06-06T10:10:55.294415
11169,0.6134,1.2298,0.0381,-8.505,-36.085,-26.845,35,2,2,393,385,2025-06-06T10:10:55.294415
11170,1.0878,1.4825,-0.2006,-5.040,-38.675,-34.825,34,1,1,397,393,2025-06-06T10:10:55.400126
11171,1.3859,1.7148,-0.5597,-63.035,-31.395,-55.475,34,3,1,379,395,2025-06-06T10:10:55.400126
11172,2.1111,1.6953,-0.7613,-77.385,-74.655,-73.605,35,1,2,392,356,2025-06-06T10:10:55.400126
11173,3.0861,2.0315,-0.4172,254.065,3.465,-37.415,35,2,1,374,342,2025-06-06T10:10:55.400126
11174,2.9051,2.0642,-0.5300,526.505,104.860,56.490,33,3,2,381,356,2025-06-06T10:10:55.400126
11175,2.0618,1.9037,-1.0433,611.590,225.085,90.580,34,0,1,395,371,2025-06-06T10:10:55.400126
11176,1.2839,1.8710,-1.1966,525.455,519.435,98.070,32,2,1,396,339,2025-06-06T10:10:55.400126
11177,0.1771,1.7993,-1.2790,285.040,650.860,101.640,32,1,1,387,368,2025-06-06T10:10:55.400126
11178,-1.3264,0.9101,-0.3884,210.875,758.870,132.370,31,3,1,397,367,2025-06-06T10:10:55.468383
11179,-3.2818,0.0820,0.8696,621.075,482.020,78.400,31,3,1,393,371,2025-06-06T10:10:55.468383
11180,-4.6087,-0.2147,1.4298,935.200,-0.350,-72.170,32,1,1,399,380,2025-06-06T10:10:55.468383
11181,-3.9699,-0.0678,1.2317,661.745,-282.065,-190.225,31,3,1,352,384,2025-06-06T10:10:55.468383
11182,-2.6767,0.2015,1.5631,192.710,-324.415,-175.840,30,1,1,383,385,2025-06-06T10:10:55.468383
11183,-1.0848,-1.5177,-1.2464,26.740,-262.920,-165.305,31,3,1,378,400,2025-06-06T10:10:55.468383
11184,1.2849,-1.5221,-3.2774,205.345,-53.305,-91.315,30,4,1,385,380,2025-06-06T10:10:55.519481
11185,0.7174,-0.1869,-2.4908,584.710,132.755,-34.685,31,1,2,386,399,2025-06-06T10:10:55.519481
11186,-0.0029,-0.3440,-1.1512,604.205,245.000,-24.850,30,4,1,379,399,2025-06-06T10:10:55.519481
11187,-1.4333,-0.6808,-0.8789,142.520,152.950,6.825,28,3,1,384,396,2025-06-06T10:10:55.519481
11188,-2.0740,-0.9906,-0.2255,109.305,25.375,-16.520,29,1,1,352,390,2025-06-06T10:10:55.566468
11189,-2.4834,-0.5583,0.0820,99.330,-108.325,-54.215,29,3,1,372,397,2025-06-06T10:10:55.566468
11190,-2.2511,-0.5666,-0.1645,-106.155,-199.640,-65.870,29,1,2,393,362,2025-06-06T10:10:55.566468
11191,-1.2351,-0.5222,-1.5333,-243.075,-209.510,-87.430,28,4,2,382,342,2025-06-06T10:10:55.566468
11192,-0.3733,0.2357,-1.8764,-249.445,-126.875,-80.990,28,1,2,347,324,2025-06-06T10:10:55.616852
11193,0.6285,0.5719,-1.9505,-118.370,-45.080,-1.820,28,1,1,377,327,2025-06-06T10:10:55.616852
11194,0.4060,0.6422,-2.1760,-81.165,20.405,71.540,27,4,2,382,349,2025-06-06T10:10:55.616852
11195,0.4050,0.5685,-2.1106,-31.185,70.420,134.540,28,1,2,397,359,2025-06-06T10:10:55.616852
11196,-0.5466,-0.0088,-1.5226,-39.970,95.130,141.085,27,3,2,383,366,2025-06-06T10:10:55.664508
11197,-0.3562,-0.3460,-2.1404,-58.415,38.290,120.295,27,3,1,390,387,2025-06-06T10:10:55.664508
11198,-1.2132,-0.0005,-1.0185,-24.640,83.440,79.660,27,1,1,388,393,2025-06-06T10:10:55.664508
11199,-1.2073,0.0844,-0.1601,-126.385,48.650,39.025,26,4,1,369,385,2025-06-06T10:10:55.664508
11200,-1.1322,0.0590,-0.5358,-263.445,5.880,-8.050,27,1,1,388,401,2025-06-06T10:10:55.914448
11201,-0.8823,0.2821,-0.6080,-300.160,-2.660,-47.355,27,3,1,389,399,2025-06-06T10:10:55.914448
11202,-0.7598,0.6793,-0.4094,-345.590,-26.670,-50.575,29,2,1,381,389,2025-06-06T10:10:55.914448
11203,-0.3748,0.8891,-0.4460,-273.910,-108.395,-52.150,29,3,1,389,385,2025-06-06T10:10:55.914448
11204,-0.0849,0.9809,-0.6876,-307.615,-141.750,-24.710,28,3,1,390,343,2025-06-06T10:10:55.914448
11205,-0.3201,0.8608,-1.1414,-282.940,-156.450,-7.280,29,1,0,353,351,2025-06-06T10:10:55.914448
11206,-0.4948,0.9658,-1.2141,-234.745,-176.505,16.135,27,2,1,370,363,2025-06-06T10:10:55.914448
11207,-0.5217,0.9770,-1.4045,-235.270,-147.770,29.365,29,2,1,374,385,2025-06-06T10:10:55.914448
11208,-0.2699,0.6739,-1.4172,-158.200,-165.165,44.975,27,1,1,344,351,2025-06-06T10:10:55.914448
11209,-0.6295,0.7257,-0.8877,-144.655,-151.900,65.520,27,3,2,369,378,2025-06-06T10:10:55.914448
11210,-0.6520,0.6573,-0.3997,-159.355,-189.140,64.085,28,2,1,390,398,2025-06-06T10:10:55.914448
11211,-0.7588,0.7227,-0.2172,-185.815,-208.600,60.060,27,2,1,393,385,2025-06-06T10:10:55.914448
11212,-0.6783,0.7535,-0.3426,-194.740,-247.170,49.560,27,2,1,394,394,2025-06-06T10:10:55.914448
11213,-0.3767,0.8120,-0.4846,-186.270,-263.900,51.345,27,1,1,388,357,2025-06-06T10:10:55.914448
11214,-0.0737,0.8340,-0.4656,-161.035,-252.560,65.170,25,3,1,376,367,2025-06-06T10:10:55.914448
11215,-0.0493,0.9262,-0.4168,-155.365,-235.060,88.725,26,1,2,401,369,2025-06-06T10:10:55.914448
11216,-0.1279,0.8886,-0.2987,-163.345,-197.330,107.275,25,2,2,400,356,2025-06-06T10:10:55.914448
11217,-0.2103,0.8769,-0.2469,-164.535,-150.430,124.460,25,2,0,351,355,2025-06-06T10:10:55.914448
11218,-0.3201,0.8867,-0.3001,-165.690,-137.900,124.180,26,0,1,364,368,2025-06-06T10:10:55.914448
11219,-0.3811,0.8618,-0.3855,-148.575,-120.575,116.270,25,3,1,367,380,2025-06-06T10:10:55.914448
11220,-0.3060,0.8608,-0.4846,-127.995,-103.495,102.515,28,0,1,384,357,2025-06-06T10:10:56.011856
11221,-0.4660,0.6427,-0.6964,-113.995,-64.855,90.895,26,2,1,380,365,2025-06-06T10:10:56.011856
11222,-0.4163,0.6661,-0.8589,-81.655,-25.795,69.895,25,3,2,349,377,2025-06-06T10:10:56.011856
11223,-0.3211,0.6461,-0.8223,-39.480,8.190,54.215,27,1,1,371,374,2025-06-06T10:10:56.011856
11224,-0.1898,0.5929,-0.6007,3.150,25.480,42.525,27,4,2,370,353,2025-06-06T10:10:56.011856
11225,-0.0747,0.5988,-0.3284,22.295,40.180,30.625,28,2,1,376,378,2025-06-06T10:10:56.011856
11226,-0.1893,0.7462,-0.2064,17.395,56.210,8.785,27,2,1,386,389,2025-06-06T10:10:56.011856
11227,-0.2025,0.7832,-0.1469,7.455,72.660,-13.055,27,2,2,393,393,2025-06-06T10:10:56.011856
11228,-0.3406,0.7759,-0.1762,6.475,91.455,-25.305,29,1,1,394,394,2025-06-06T10:10:56.011856
11229,-0.3938,0.7061,-0.1830,13.125,96.005,-53.200,29,3,2,386,352,2025-06-06T10:10:56.068156
11230,0.5056,0.9775,0.5588,54.145,110.985,-51.345,30,3,1,393,377,2025-06-06T10:10:56.068156
11231,1.1600,1.2312,0.4202,26.740,67.725,-11.585,30,0,1,382,394,2025-06-06T10:10:56.068156
11232,0.6486,1.2415,0.5539,-32.690,28.980,16.975,30,3,1,375,390,2025-06-06T10:10:56.068156
11233,-0.0176,0.8379,-0.2069,-77.105,28.595,25.340,33,1,2,389,388,2025-06-06T10:10:56.116759
11234,-0.4065,0.8530,-0.0020,-35.875,22.225,21.525,33,3,1,394,380,2025-06-06T10:10:56.116759
11235,-0.5226,0.8862,0.0898,-1.470,5.635,10.010,35,1,2,401,391,2025-06-06T10:10:56.116759
11236,-0.4285,0.8111,0.0864,1.050,-5.705,8.050,36,0,2,385,396,2025-06-06T10:10:56.116759
11237,-0.4260,0.8984,0.0893,-6.055,-3.745,5.110,36,5,2,389,387,2025-06-06T10:10:56.116759
11238,-0.2011,0.9887,0.0654,-7.525,-7.945,6.895,37,1,2,399,393,2025-06-06T10:10:56.169754
11239,-0.0537,1.0604,0.0142,8.365,5.495,19.880,37,4,1,351,377,2025-06-06T10:10:56.169754
11240,0.0361,1.1551,0.0547,-9.275,11.585,19.810,40,3,1,382,361,2025-06-06T10:10:56.169754
11241,-0.0415,1.0492,0.0312,-28.630,15.890,25.550,40,2,2,380,346,2025-06-06T10:10:56.169754
11242,-0.1435,0.9409,0.0664,-29.610,15.435,24.955,40,4,2,383,364,2025-06-06T10:10:56.217564
11243,-0.2733,0.9897,0.1152,-15.225,1.155,24.185,42,2,1,389,381,2025-06-06T10:10:56.217564
11244,-0.3743,0.9784,0.0298,-8.750,-10.465,23.135,42,3,1,379,385,2025-06-06T10:10:56.217564
11245,-0.3231,0.9706,0.0015,-5.145,-13.790,18.970,44,2,1,379,392,2025-06-06T10:10:56.217564
11246,-0.1923,1.0014,-0.0044,-3.045,-19.565,18.270,45,2,1,388,390,2025-06-06T10:10:56.274160
11247,-0.1425,0.9999,-0.0405,0.245,-20.965,11.480,43,3,1,390,394,2025-06-06T10:10:56.274160
11248,-0.1459,0.9701,-0.0376,-0.840,-19.600,6.370,47,2,2,403,402,2025-06-06T10:10:56.274160
11249,-0.1752,0.9902,-0.0259,-3.080,-18.900,3.360,47,4,2,405,396,2025-06-06T10:10:56.274160
11250,-0.1293,0.9135,0.0659,1.470,-16.380,-0.875,49,2,1,403,385,2025-06-06T10:10:56.426166
11251,-0.1967,0.9916,0.0795,-1.575,-24.885,-4.165,49,1,1,385,391,2025-06-06T10:10:56.426166
11252,-0.3899,1.0199,-0.0464,-3.990,-34.545,-5.005,49,4,1,385,389,2025-06-06T10:10:56.426166
11253,-0.0961,0.9072,-0.0947,7.560,-41.265,-0.560,51,0,2,396,353,2025-06-06T10:10:56.426166
11254,-0.0800,0.8418,-0.2206,21.770,-50.610,3.710,51,3,1,389,364,2025-06-06T10:10:56.426166
11255,-0.0551,0.9838,-0.1845,45.500,-49.035,1.610,50,2,1,384,371,2025-06-06T10:10:56.426166
11256,-0.1015,0.9623,-0.2645,34.230,-35.595,-4.515,53,2,2,388,390,2025-06-06T10:10:56.426166
11257,-0.2396,0.9130,-0.1976,21.840,-17.150,-12.250,52,3,1,383,390,2025-06-06T10:10:56.426166
11258,-0.1937,0.9248,-0.1615,27.685,-11.795,-18.585,52,1,1,386,403,2025-06-06T10:10:56.426166
11259,-0.0361,1.0150,-0.0849,31.010,1.015,-15.330,53,3,1,392,398,2025-06-06T10:10:56.426166
11260,-0.0644,1.0136,0.0146,14.385,6.545,-3.920,55,3,2,388,366,2025-06-06T10:10:56.426166
11261,-0.2191,0.9296,0.0220,-1.575,3.920,6.755,55,1,1,376,355,2025-06-06T10:10:56.426166
11262,-0.2342,0.9306,-0.0156,17.430,0.980,16.310,54,2,1,368,364,2025-06-06T10:10:56.426166
11263,-0.0878,0.9838,0.0020,27.370,0.735,28.000,57,2,1,372,372,2025-06-06T10:10:56.523120
11264,-0.1698,1.0165,-0.0034,8.575,1.540,34.335,54,3,1,349,372,2025-06-06T10:10:56.523120
11265,-0.1972,1.0238,-0.0712,2.240,8.365,32.620,55,3,1,369,378,2025-06-06T10:10:56.523120
11266,-0.3284,1.0160,-0.1157,-0.525,15.435,24.710,55,0,1,345,380,2025-06-06T10:10:56.523120
11267,-0.3201,1.0346,-0.0781,-5.250,19.670,17.465,56,3,1,348,341,2025-06-06T10:10:56.523120
11268,-0.2664,1.0126,-0.0259,-7.805,16.065,13.825,55,1,1,332,378,2025-06-06T10:10:56.523120
11269,-0.2484,0.9731,-0.0288,-4.865,8.855,10.045,55,3,1,366,381,2025-06-06T10:10:56.523120
11270,-0.2718,0.9501,-0.0566,-2.310,4.725,6.160,56,3,1,372,397,2025-06-06T10:10:56.523120
11271,-0.2826,0.9365,-0.0888,1.855,4.200,0.805,57,2,2,396,394,2025-06-06T10:10:56.523120
11272,-0.2318,0.9682,-0.0932,4.340,4.830,-3.640,57,4,1,375,394,2025-06-06T10:10:56.578309
11273,-0.2181,0.9950,-0.1025,1.015,6.685,-6.125,58,1,1,387,395,2025-06-06T10:10:56.578309
11274,-0.2030,0.9994,-0.0756,-5.355,5.880,-5.880,58,4,1,385,390,2025-06-06T10:10:56.578309
11275,-0.1674,0.9887,-0.0508,-3.745,-1.015,-3.290,57,2,1,397,387,2025-06-06T10:10:56.578309
11276,-0.1703,0.9496,-0.0590,-2.345,-9.310,1.085,56,2,1,398,390,2025-06-06T10:10:56.729141
11277,-0.1815,0.9101,-0.1152,-2.310,-10.780,1.750,55,4,1,391,390,2025-06-06T10:10:56.729141
11278,-0.1767,0.9057,-0.1972,-1.540,-3.675,-0.315,56,2,1,356,362,2025-06-06T10:10:56.729141
11279,-0.1576,0.9116,-0.1898,-5.005,10.045,-2.695,55,4,2,369,370,2025-06-06T10:10:56.729141
11280,-0.1498,0.9160,-0.1601,-10.185,23.520,-7.350,55,2,1,386,387,2025-06-06T10:10:56.729141
11281,-0.1996,0.9784,-0.1327,-11.655,25.095,-8.330,55,2,1,389,351,2025-06-06T10:10:56.729141
11282,-0.2225,0.9843,-0.0630,-8.820,17.465,-5.810,54,3,1,389,367,2025-06-06T10:10:56.729141
11283,-0.2523,0.9399,0.0312,-5.180,4.935,-2.345,56,0,1,396,376,2025-06-06T10:10:56.729141
11284,-0.3094,0.9370,-0.0420,-3.640,-7.770,-2.660,55,4,1,400,347,2025-06-06T10:10:56.729141
11285,-0.2240,0.9355,-0.1230,1.785,-9.520,-3.010,56,2,1,383,368,2025-06-06T10:10:56.729141
11286,-0.1357,0.9218,-0.1230,2.310,-8.225,-0.630,56,1,1,391,390,2025-06-06T10:10:56.729141
11287,-0.1508,0.9287,-0.0976,1.050,-8.785,0.805,56,3,1,398,385,2025-06-06T10:10:56.729141
11288,-0.1523,0.9438,-0.1298,1.225,-6.195,-0.175,57,0,1,393,396,2025-06-06T10:10:56.729141
11289,-0.1874,0.9170,-0.1664,-1.155,1.085,-3.430,56,3,2,350,376,2025-06-06T10:10:56.831025
11290,-0.2533,0.8965,-0.1615,0.245,7.735,-8.155,56,2,2,384,390,2025-06-06T10:10:56.831025
11291,-0.3084,0.9443,-0.1391,6.510,9.100,-13.720,56,3,1,379,399,2025-06-06T10:10:56.831025
11292,-0.3314,0.9643,-0.0976,8.435,7.770,-17.045,55,2,1,370,399,2025-06-06T10:10:56.831025
11293,-0.2987,0.9765,-0.0122,11.270,0.875,-16.555,55,2,2,393,393,2025-06-06T10:10:56.831025
11294,-0.2933,0.9838,0.0205,14.315,-10.745,-15.540,55,4,1,386,382,2025-06-06T10:10:56.831025
11295,-0.2113,0.9911,-0.0259,13.055,-16.765,-14.770,55,2,2,386,387,2025-06-06T10:10:56.831025
11296,-0.2450,0.9526,-0.1118,8.155,-12.320,-17.290,54,3,1,382,391,2025-06-06T10:10:56.831025
11297,-0.3113,0.9043,-0.1122,10.920,-5.180,-22.330,53,3,1,385,388,2025-06-06T10:10:56.888147
11298,-0.1903,0.9355,-0.2298,15.820,1.330,-29.645,53,1,1,391,394,2025-06-06T10:10:56.888147
11299,-0.0678,0.9731,-0.2913,18.760,13.545,-32.585,50,3,1,373,391,2025-06-06T10:10:56.888147
11300,-0.0966,0.9989,-0.2826,13.580,27.440,-37.485,49,3,1,386,399,2025-06-06T10:10:56.888147
11301,-0.2757,1.2781,0.1708,0.700,82.110,-54.915,48,2,1,384,393,2025-06-06T10:10:57.042764
11302,-0.1132,0.9492,-0.2064,-31.920,27.370,-59.745,48,3,2,386,399,2025-06-06T10:10:57.042764
11303,0.3489,1.0770,-0.1991,47.355,24.185,-52.780,48,1,2,387,387,2025-06-06T10:10:57.042764
11304,0.5412,1.2615,-0.2040,51.205,-9.450,-39.060,46,4,1,390,385,2025-06-06T10:10:57.042764
11305,0.4699,1.2795,-0.1035,37.765,-10.885,-42.140,46,1,1,401,395,2025-06-06T10:10:57.042764
11306,0.3841,1.1922,0.0034,2.695,-26.180,-54.670,45,1,1,390,395,2025-06-06T10:10:57.042764
11307,0.6061,1.2420,-0.1967,5.950,-53.760,-78.085,45,5,1,391,392,2025-06-06T10:10:57.042764
11308,1.3635,1.0590,-0.3201,24.675,-80.010,-97.755,46,1,1,394,407,2025-06-06T10:10:57.042764
11309,2.2960,1.1692,-0.1215,69.965,-113.785,-121.660,44,2,1,384,402,2025-06-06T10:10:57.042764
11310,2.5713,1.2546,0.1606,283.675,-16.835,-89.320,44,2,1,386,402,2025-06-06T10:10:57.042764
11311,2.6157,1.1961,-0.0024,424.340,3.395,-60.130,43,1,1,390,363,2025-06-06T10:10:57.042764
11312,2.0872,0.7081,0.0908,500.745,118.370,-40.635,42,2,2,348,370,2025-06-06T10:10:57.042764
11313,1.3249,0.1864,0.0849,318.465,281.680,-71.155,42,1,1,372,374,2025-06-06T10:10:57.042764
11314,0.1850,-0.0029,0.2865,24.535,347.550,-116.760,42,4,2,375,387,2025-06-06T10:10:57.139628
11315,-0.6690,-0.4587,-0.0717,-80.255,416.570,-158.200,43,2,1,380,386,2025-06-06T10:10:57.139628
11316,-2.4908,-0.8247,-0.6627,299.740,178.640,-231.630,42,2,1,394,396,2025-06-06T10:10:57.139628
11317,-4.9664,-0.4211,-1.3352,403.235,-24.920,-324.240,40,4,1,395,399,2025-06-06T10:10:57.139628
11318,-7.7255,-0.7598,-2.4795,390.495,-73.640,-466.760,42,2,1,388,398,2025-06-06T10:10:57.139628
11319,-5.6740,0.5973,-2.1872,495.495,-121.205,-606.970,42,2,2,384,359,2025-06-06T10:10:57.139628
11320,-0.6129,-0.3538,-1.0668,329.140,2.205,-415.030,42,1,1,377,384,2025-06-06T10:10:57.139628
11321,1.5665,-0.2167,-2.1204,61.460,116.235,-155.960,42,1,1,386,393,2025-06-06T10:10:57.139628
11322,0.2806,0.4587,-1.5445,209.230,306.915,49.735,41,3,1,374,318,2025-06-06T10:10:57.139628
11323,-0.1659,0.5529,-0.4221,175.315,224.700,196.210,43,1,1,366,368,2025-06-06T10:10:57.243961
11324,-1.0609,-0.3250,-0.0473,1.260,116.270,276.010,42,3,1,374,378,2025-06-06T10:10:57.243961
11325,-1.9227,-0.5222,-0.8633,-210.315,-8.995,255.255,42,2,2,378,395,2025-06-06T10:10:57.243961
11326,-2.1262,-0.1698,-1.1761,-224.595,-87.220,223.720,42,1,2,399,360,2025-06-06T10:10:57.243961
11327,-2.3810,-0.3958,-2.1633,-332.745,-76.160,172.375,41,2,2,395,371,2025-06-06T10:10:57.243961
11328,-1.7314,-0.4953,-1.5274,-278.845,-43.225,143.570,42,0,2,399,347,2025-06-06T10:10:57.243961
11329,-1.7441,0.0054,-0.6554,-371.245,-62.090,108.745,41,2,1,392,338,2025-06-06T10:10:57.243961
11330,-1.2600,0.5573,-0.5085,-372.995,-124.390,112.560,40,2,1,389,358,2025-06-06T10:10:57.243961
11331,-0.8013,1.0302,0.0332,-392.420,-209.650,135.240,41,1,1,355,368,2025-06-06T10:10:57.295308
11332,-0.3392,1.4508,0.1742,-421.960,-315.700,178.920,39,2,1,377,369,2025-06-06T10:10:57.295308
11333,-0.4451,1.8212,-0.4177,-418.215,-337.435,226.030,39,2,1,394,380,2025-06-06T10:10:57.295308
11334,-0.4114,1.4503,-0.9384,-379.680,-266.770,269.150,38,3,2,386,380,2025-06-06T10:10:57.295308
11335,0.0166,0.9004,-1.0878,-259.770,-162.330,287.700,37,2,1,391,373,2025-06-06T10:10:57.444479
11336,0.0410,0.7164,-0.7832,-293.230,-25.445,292.600,39,0,1,382,351,2025-06-06T10:10:57.444479
11337,0.1200,0.5695,-0.5544,-238.420,70.175,263.585,35,2,1,383,376,2025-06-06T10:10:57.444479
11338,-0.0346,0.6847,-0.3723,-192.780,82.075,205.660,37,2,1,381,381,2025-06-06T10:10:57.444479
11339,0.1196,0.6285,-0.5641,-138.215,113.330,157.430,37,3,1,369,342,2025-06-06T10:10:57.444479
11340,0.2699,0.4455,-0.4587,-42.840,158.305,133.315,36,3,2,365,361,2025-06-06T10:10:57.444479
11341,0.3138,0.3582,-0.0532,30.905,126.735,100.555,37,0,1,381,339,2025-06-06T10:10:57.444479
11342,0.6388,0.7466,0.5168,142.835,68.215,83.650,34,3,1,373,355,2025-06-06T10:10:57.444479
11343,0.8769,0.9218,1.1092,193.305,1.995,72.555,36,3,1,377,379,2025-06-06T10:10:57.444479
11344,0.7559,0.8316,0.3074,151.095,-3.710,63.875,34,2,1,380,355,2025-06-06T10:10:57.444479
11345,0.7120,0.6993,-0.2757,89.495,38.290,48.160,34,3,1,377,371,2025-06-06T10:10:57.444479
11346,0.4494,0.5519,-0.3723,7.420,47.215,45.045,35,1,1,381,377,2025-06-06T10:10:57.444479
11347,0.3889,0.8072,0.0542,12.845,28.280,39.340,33,3,2,387,380,2025-06-06T10:10:57.444479
11348,0.2899,1.0326,0.4455,51.975,8.155,29.610,35,1,1,393,380,2025-06-06T10:10:57.587709
11349,0.1913,1.1019,0.3353,9.660,-19.775,26.285,34,2,1,392,392,2025-06-06T10:10:57.587709
11350,0.1381,0.9892,0.0307,-22.050,-26.880,22.610,33,3,1,386,388,2025-06-06T10:10:57.587709
11351,0.1035,0.8159,-0.1147,4.060,-35.245,18.200,34,1,1,384,402,2025-06-06T10:10:57.587709
11352,-0.0454,0.8750,-0.0615,18.515,-46.165,9.730,31,4,2,346,378,2025-06-06T10:10:57.587709
11353,-0.0112,0.8901,-0.0986,22.750,-45.850,-7.385,33,2,1,360,393,2025-06-06T10:10:57.587709
11354,0.1220,0.8721,-0.0312,13.020,-36.750,-2.485,31,2,1,370,360,2025-06-06T10:10:57.587709
11355,0.2479,0.9052,0.0966,10.640,-31.745,1.890,31,3,1,363,373,2025-06-06T10:10:57.587709
11356,0.2142,0.9233,0.1069,4.970,-34.650,6.685,31,1,1,390,399,2025-06-06T10:10:57.587709
11357,0.0669,0.8594,-0.1366,-5.495,-29.540,2.870,29,4,1,386,400,2025-06-06T10:10:57.587709
11358,0.0595,0.7852,-0.2294,-0.175,-20.650,-3.745,30,2,2,402,405,2025-06-06T10:10:57.587709
11359,-0.0488,0.8579,-0.1932,2.100,-20.335,-7.735,29,2,1,400,399,2025-06-06T10:10:57.587709
11360,0.0288,0.9697,-0.1225,1.855,-28.210,-9.800,28,2,1,385,394,2025-06-06T10:10:57.635538
11361,0.1440,0.9374,-0.0830,-3.185,-29.505,-3.080,29,1,1,380,394,2025-06-06T10:10:57.635538
11362,0.0864,0.8799,-0.0761,-13.615,-26.635,1.190,28,4,1,379,394,2025-06-06T10:10:57.635538
11363,0.0088,0.8594,-0.1298,-23.625,-26.740,0.525,30,2,1,394,403,2025-06-06T10:10:57.635538
11364,-0.1820,0.8550,-0.3065,-33.390,-27.895,-5.530,29,2,1,350,392,2025-06-06T10:10:57.684965
11365,-0.0464,0.9667,-0.2225,-15.995,-26.075,-13.300,28,2,1,332,387,2025-06-06T10:10:57.684965
11366,0.2396,1.0316,-0.1147,-2.415,-30.170,-7.350,27,1,2,375,388,2025-06-06T10:10:57.684965
11367,0.1449,0.9980,-0.2094,-21.455,-23.800,-2.660,26,3,1,378,363,2025-06-06T10:10:57.684965
11368,0.0112,0.9623,-0.3157,-51.940,-12.005,-1.925,27,2,1,389,370,2025-06-06T10:10:57.753298
11369,-0.0737,0.9618,-0.2835,-52.045,-2.625,-8.505,27,3,1,399,375,2025-06-06T10:10:57.753298
11370,-0.0576,1.0634,-0.1381,-15.085,-6.965,-12.600,26,3,1,402,381,2025-06-06T10:10:57.753298
11371,0.0278,1.1424,-0.0971,14.140,-17.780,-10.465,27,1,1,392,380,2025-06-06T10:10:57.753298
11372,0.0327,1.0555,-0.1669,12.810,-16.730,-0.840,26,3,1,348,351,2025-06-06T10:10:57.753298
11373,0.0200,1.0751,-0.1527,-8.365,-13.510,1.540,28,2,1,374,368,2025-06-06T10:10:57.753298
11374,0.1859,1.0326,-0.1118,7.385,-13.405,11.620,27,3,2,386,379,2025-06-06T10:10:57.806807
11375,0.1464,0.9760,-0.1728,13.055,-6.195,16.135,26,3,1,382,375,2025-06-06T10:10:57.806807
11376,0.0547,0.9877,-0.1859,-8.715,5.600,14.280,27,1,2,385,377,2025-06-06T10:10:57.806807
11377,-0.0073,0.9740,-0.1547,-14.350,11.620,9.030,26,4,1,382,381,2025-06-06T10:10:57.806807
11378,-0.1357,0.9867,-0.1337,-3.675,3.850,3.570,28,2,1,397,351,2025-06-06T10:10:57.956674
11379,-0.0854,0.9667,-0.0346,18.200,-7.910,2.905,27,3,1,347,365,2025-06-06T10:10:57.956927
11380,-0.0922,1.0131,0.0488,27.615,-24.920,6.195,27,1,1,363,337,2025-06-06T10:10:57.956927
11381,-0.1454,1.0087,0.0649,22.470,-44.030,12.705,28,2,1,360,368,2025-06-06T10:10:57.956927
11382,0.0176,0.9467,0.0200,28.770,-61.565,26.040,28,3,2,369,376,2025-06-06T10:10:57.956927
11383,0.1191,0.9365,-0.1000,36.890,-71.960,40.355,29,2,1,345,374,2025-06-06T10:10:57.956927
11384,0.1908,1.0126,-0.1991,43.260,-67.795,47.705,27,2,2,363,370,2025-06-06T10:10:57.956927
11385,0.2747,0.9096,-0.3192,29.365,-49.245,49.700,27,3,1,336,384,2025-06-06T10:10:57.956927
11386,0.4065,0.8545,-0.4304,9.135,-10.675,42.385,29,1,1,357,385,2025-06-06T10:10:57.956927
11387,0.4451,1.0048,0.2850,14.910,75.425,11.480,28,4,0,340,376,2025-06-06T10:10:57.956927
11388,0.0176,0.8755,0.1928,-108.920,114.485,-2.905,30,2,1,329,390,2025-06-06T10:10:57.956927
11389,0.0742,0.8755,0.0869,-153.230,123.305,-21.140,28,1,1,354,398,2025-06-06T10:10:57.956927
11390,0.0517,0.7969,-0.1459,-131.320,118.615,-31.010,29,3,1,363,400,2025-06-06T10:10:57.956927
11391,-0.0683,0.8711,-0.5275,-105.980,70.980,-29.295,30,1,2,385,413,2025-06-06T10:10:58.058854
11392,-0.1728,0.9404,-0.5368,-63.875,43.470,-31.920,29,5,1,385,391,2025-06-06T10:10:58.058854
11393,-0.2660,1.0180,-0.3992,-26.390,16.240,-40.390,30,3,1,381,389,2025-06-06T10:10:58.058854
11394,-0.0727,0.9658,-0.1020,15.715,-1.470,-42.910,29,3,2,382,399,2025-06-06T10:10:58.058854
11395,0.0903,0.8974,0.1142,15.435,-25.410,-40.460,28,3,1,390,409,2025-06-06T10:10:58.058854
11396,0.0781,1.0516,0.2123,-7.035,-44.380,-33.425,29,1,1,367,409,2025-06-06T10:10:58.058854
11397,-0.1381,1.0053,0.0927,-24.010,-49.175,-37.415,28,2,1,336,402,2025-06-06T10:10:58.058854
11398,-0.2274,0.9780,0.0405,-17.465,-45.255,-39.725,29,4,1,354,393,2025-06-06T10:10:58.058854
11399,-0.2240,0.8877,-0.0517,-9.940,-53.620,-37.975,29,3,1,360,397,2025-06-06T10:10:58.103897
11400,0.0332,0.9355,-0.0742,16.380,-60.725,-27.615,29,4,1,366,386,2025-06-06T10:10:58.218757
11401,0.2884,1.1595,0.0415,36.505,-56.525,-11.690,30,1,1,367,389,2025-06-06T10:10:58.218757
11402,0.3162,1.1512,-0.0600,12.110,-39.970,4.095,28,4,1,372,365,2025-06-06T10:10:58.218757
11403,0.1610,0.9623,-0.3133,-45.920,-13.020,9.660,28,3,1,377,374,2025-06-06T10:10:58.218757
11404,0.0195,0.9145,-0.3489,-62.265,17.815,11.200,29,1,2,378,393,2025-06-06T10:10:58.218757
11405,-0.0210,0.9584,-0.1810,-23.415,30.345,12.250,29,4,1,380,381,2025-06-06T10:10:58.218757
11406,-0.0317,1.0594,-0.0517,3.675,35.105,14.000,30,1,2,384,388,2025-06-06T10:10:58.218757
11407,-0.0224,1.1248,0.0459,-5.425,36.400,19.845,29,3,1,379,351,2025-06-06T10:10:58.262489
11408,0.1318,1.1024,0.1376,-14.385,33.180,29.610,30,2,1,375,375,2025-06-06T10:10:58.263491
11409,0.1322,1.0458,0.1210,-9.590,24.220,38.605,30,2,1,391,344,2025-06-06T10:10:58.263491
11410,0.0049,0.9672,0.0386,-6.965,23.135,38.780,30,3,2,398,366,2025-06-06T10:10:58.263491
11411,0.0415,0.9579,0.0669,-3.325,18.270,34.370,32,2,1,361,375,2025-06-06T10:10:58.263491
11412,0.0996,0.8120,-0.0151,-9.975,9.765,32.095,31,3,1,340,351,2025-06-06T10:10:58.263491
11413,0.0259,0.7022,-0.1205,-9.415,2.660,30.135,32,1,2,373,380,2025-06-06T10:10:58.263491
11414,-0.1615,0.9350,0.2123,-4.445,-9.905,26.040,31,2,1,390,345,2025-06-06T10:10:58.263491
11415,-0.3284,1.1668,0.0107,-17.745,-28.280,12.880,31,3,1,382,367,2025-06-06T10:10:58.263491
11416,-0.2972,1.2732,0.0166,8.470,-10.710,-13.510,33,1,1,397,392,2025-06-06T10:10:58.366701
11417,0.1557,1.2839,0.2957,22.575,-23.170,-23.275,32,3,1,402,381,2025-06-06T10:10:58.366701
11418,0.1244,0.9560,0.0102,-12.810,-32.060,-24.500,33,3,2,405,374,2025-06-06T10:10:58.366701
11419,0.0181,0.7818,-0.0576,-8.015,-39.830,-31.990,33,2,2,357,382,2025-06-06T10:10:58.366701
11420,-0.0683,0.9018,-0.1322,13.930,-45.080,-42.525,31,3,1,372,358,2025-06-06T10:10:58.366701
11421,-0.0590,0.9184,-0.1498,18.900,-37.975,-55.860,33,0,1,375,368,2025-06-06T10:10:58.366701
11422,0.0678,0.9892,-0.1332,5.740,-25.235,-61.705,32,3,1,357,377,2025-06-06T10:10:58.366701
11423,0.0244,0.9438,-0.0991,6.545,-12.215,-64.505,33,3,1,368,391,2025-06-06T10:10:58.366701
11424,0.0229,0.9789,-0.0361,15.925,-3.430,-65.345,33,2,1,377,381,2025-06-06T10:10:58.366701
11425,0.0039,1.1448,0.0630,11.865,2.065,-60.165,31,4,1,373,386,2025-06-06T10:10:58.469442
11426,0.0971,0.8467,-0.1391,-15.190,12.985,-49.525,34,1,1,345,383,2025-06-06T10:10:58.469442
11427,0.1210,0.8804,-0.1415,-8.400,20.265,-37.555,32,3,1,359,376,2025-06-06T10:10:58.469442
11428,0.0908,1.1019,0.0239,4.585,22.785,-26.600,33,2,1,385,393,2025-06-06T10:10:58.469442
11429,-0.0137,1.0560,-0.0146,-18.970,29.785,-16.975,33,0,1,390,395,2025-06-06T10:10:58.469442
11430,-0.1430,0.9794,-0.0849,-45.710,38.010,-6.230,32,3,0,355,391,2025-06-06T10:10:58.469442
11431,-0.1322,0.9950,-0.0059,-22.225,37.660,2.800,34,2,1,378,395,2025-06-06T10:10:58.469442
11432,-0.1854,1.0814,0.0420,-10.710,32.095,9.100,32,3,1,371,392,2025-06-06T10:10:58.469442
11433,-0.2240,1.1029,0.0712,-12.075,25.900,14.105,33,2,1,370,384,2025-06-06T10:10:58.573510
11434,-0.2059,1.0585,0.0708,-9.730,13.965,19.985,32,1,1,383,388,2025-06-06T10:10:58.573510
11435,-0.2406,1.0951,0.0800,7.140,-0.070,20.755,32,3,1,376,387,2025-06-06T10:10:58.573510
11436,-0.2572,1.0433,0.0210,15.925,-5.005,20.020,33,1,1,394,389,2025-06-06T10:10:58.573510
11437,-0.0551,0.9755,0.0166,20.790,-12.040,18.060,32,2,2,390,391,2025-06-06T10:10:58.573510
11438,0.0117,0.9867,-0.0649,25.620,-13.650,16.730,32,2,2,383,394,2025-06-06T10:10:58.573510
11439,-0.1244,0.9296,-0.1859,24.955,-2.625,8.190,34,1,1,384,397,2025-06-06T10:10:58.573510
11440,-0.0825,0.8857,-0.1864,25.480,11.200,-8.750,32,3,1,379,386,2025-06-06T10:10:58.573510
11441,-0.0390,0.9809,-0.0737,38.885,18.865,-9.205,32,0,1,347,392,2025-06-06T10:10:58.573510
11442,-0.1054,1.0429,-0.0322,35.910,24.815,-15.645,32,3,1,359,389,2025-06-06T10:10:58.695601
11443,-0.0752,0.9531,-0.0312,26.215,25.305,-19.495,33,3,2,383,388,2025-06-06T10:10:58.695601
11444,-0.1020,0.9399,0.0630,34.580,14.490,-21.840,32,1,2,393,386,2025-06-06T10:10:58.695601
11445,-0.1547,0.9706,-0.0098,46.060,10.395,-26.180,30,4,2,381,383,2025-06-06T10:10:58.695601
11446,-0.1889,0.9677,-0.0825,43.505,4.410,-30.625,32,1,1,384,393,2025-06-06T10:10:58.695601
11447,-0.1039,0.9736,-0.0068,43.715,0.385,-31.780,31,2,2,376,382,2025-06-06T10:10:58.695601
11448,-0.1049,1.0443,-0.1074,50.890,-13.440,-33.565,31,2,1,377,397,2025-06-06T10:10:58.695601
11449,0.0303,1.1039,0.0522,59.325,-27.300,-32.410,31,1,0,359,383,2025-06-06T10:10:58.695601
11450,0.0683,1.0721,0.0376,48.790,-48.475,-25.270,30,4,1,376,356,2025-06-06T10:10:58.695601
11451,0.1991,0.9335,-0.0566,40.180,-59.080,-23.310,31,1,1,379,364,2025-06-06T10:10:58.695601
11452,0.3055,0.9823,-0.1293,50.085,-62.055,-28.210,30,3,2,344,380,2025-06-06T10:10:58.761554
11453,0.4348,1.0541,-0.1801,49.490,-45.780,-38.885,30,3,2,385,388,2025-06-06T10:10:58.761554
11454,0.4265,1.0282,-0.2079,15.505,-25.970,-59.255,29,0,1,396,367,2025-06-06T10:10:58.761554
11455,0.5373,0.9004,-0.1962,5.670,-17.255,-82.040,27,4,1,375,367,2025-06-06T10:10:58.761554
11456,0.4787,0.9745,0.0337,2.485,-13.545,-110.355,28,1,1,392,386,2025-06-06T10:10:58.883660
11457,1.4806,0.8477,0.1283,-19.390,-68.285,-134.610,28,3,1,383,384,2025-06-06T10:10:58.883660
11458,1.9891,0.7281,0.2284,-55.930,-113.190,-160.300,28,2,2,400,383,2025-06-06T10:10:58.883660
11459,1.7753,0.7764,0.6134,-11.025,-144.515,-210.735,27,1,1,386,351,2025-06-06T10:10:58.883660
11460,1.5255,0.8813,1.0790,147.385,-85.715,-246.400,26,2,1,374,371,2025-06-06T10:10:58.883660
11461,1.1424,0.6437,0.8540,183.015,-133.805,-313.285,27,2,1,380,386,2025-06-06T10:10:58.883660
11462,1.1941,0.7008,0.7100,233.870,-196.840,-381.605,25,3,2,346,379,2025-06-06T10:10:58.883660
11463,0.4353,0.7374,0.6725,226.520,-221.340,-444.815,24,3,1,364,359,2025-06-06T10:10:58.883660
11464,-0.1449,0.5075,0.6178,169.715,-205.135,-480.830,25,1,1,378,378,2025-06-06T10:10:58.883660
11465,-0.3850,0.4953,0.9355,18.830,-197.890,-468.370,24,3,1,376,348,2025-06-06T10:10:58.883660
11466,-2.1116,-0.8203,0.2460,-270.445,-205.695,-432.880,26,2,1,390,364,2025-06-06T10:10:58.883660
11467,-3.0944,-1.7783,-1.0780,-282.660,-65.310,-454.650,25,3,2,377,367,2025-06-06T10:10:58.980911
11468,-3.4189,-2.7079,-2.1653,-56.630,46.690,-404.635,26,3,1,378,342,2025-06-06T10:10:58.980911
11469,-4.6175,-3.1647,-1.9213,33.460,181.195,-352.625,27,1,1,346,364,2025-06-06T10:10:58.980911
11470,-6.4987,-3.1144,-0.1786,16.660,292.005,-298.165,24,4,2,371,340,2025-06-06T10:10:58.980911
11471,-3.9845,-2.1628,0.9697,-3.675,235.025,-138.355,25,3,1,378,342,2025-06-06T10:10:58.980911
11472,-1.7100,-0.7623,0.7632,-51.590,-47.005,96.775,24,1,2,381,353,2025-06-06T10:10:58.980911
11473,-1.0878,-0.2362,-1.1946,-51.100,-220.115,326.865,24,2,1,392,342,2025-06-06T10:10:58.980911
11474,-1.5645,-0.4670,-2.3136,-9.135,-132.300,494.340,24,2,1,403,359,2025-06-06T10:10:58.980911
11475,-2.2028,-0.9511,-2.1960,45.325,57.750,541.415,23,4,2,388,369,2025-06-06T10:10:58.980911
11476,-3.0646,-0.7120,-1.4367,35.525,232.540,513.030,24,1,1,401,378,2025-06-06T10:10:59.083384
11477,-2.6816,-0.6261,-0.6598,33.880,344.680,441.105,24,2,1,403,390,2025-06-06T10:10:59.083384
11478,-2.3239,0.1762,1.2995,34.860,401.380,353.605,22,4,1,393,350,2025-06-06T10:10:59.083384
11479,0.2020,1.0268,2.2331,-18.550,368.305,322.000,24,0,1,400,341,2025-06-06T10:10:59.083384
11480,1.6690,1.4445,2.1374,-84.420,282.940,345.905,22,3,2,392,371,2025-06-06T10:10:59.083384
11481,2.6825,1.7846,2.7967,-551.285,255.885,310.975,23,3,1,392,381,2025-06-06T10:10:59.083384
11482,3.9967,0.7847,3.5370,-228.900,502.320,513.310,24,2,1,352,379,2025-06-06T10:10:59.083384
11483,1.5967,1.2737,2.2838,-640.150,47.355,250.425,21,3,1,374,386,2025-06-06T10:10:59.083384
11484,0.0000,0.0000,0.0000,0.000,0.000,0.000,23,1,1,388,406,2025-06-06T10:10:59.083384
11485,0.0000,0.0000,0.0000,0.000,0.000,0.000,20,3,1,382,388,2025-06-06T10:10:59.187206
11486,0.0000,0.0000,0.0000,0.000,0.000,0.000,21,0,2,380,395,2025-06-06T10:10:59.187206
11487,0.0000,0.0000,0.0000,0.000,0.000,0.000,20,4,1,374,387,2025-06-06T10:10:59.187206
11488,0.0000,0.0000,0.0000,0.000,0.000,0.000,19,1,1,388,361,2025-06-06T10:10:59.187206
11489,0.0000,0.0000,0.0000,0.000,0.000,0.000,18,3,2,390,341,2025-06-06T10:10:59.187206
11490,0.0000,0.0000,0.0000,0.000,0.000,0.000,20,1,1,380,327,2025-06-06T10:10:59.187206
11491,0.0000,0.0000,0.0000,0.000,0.000,0.000,19,2,1,369,348,2025-06-06T10:10:59.187206
11492,0.0000,0.0000,0.0000,0.000,0.000,0.000,19,0,1,348,341,2025-06-06T10:10:59.187206
11493,0.0000,0.0000,0.0000,0.000,0.000,0.000,18,4,1,376,358,2025-06-06T10:10:59.187206
11494,0.0000,0.0000,0.0000,0.000,0.000,0.000,19,2,1,393,377,2025-06-06T10:10:59.187206
11495,0.0000,0.0000,0.0000,0.000,0.000,0.000,20,3,2,401,380,2025-06-06T10:10:59.291681
11496,0.0000,0.0000,0.0000,0.000,0.000,0.000,20,1,2,409,398,2025-06-06T10:10:59.291681
11497,0.0000,0.0000,0.0000,0.000,0.000,0.000,18,2,2,404,396,2025-06-06T10:10:59.291681
11498,0.0000,0.0000,0.0000,0.000,0.000,0.000,19,2,1,403,391,2025-06-06T10:10:59.291681
11499,0.0000,0.0000,0.0000,0.000,0.000,0.000,16,3,2,400,386,2025-06-06T10:10:59.291681
11500,0.0000,0.0000,0.0000,0.000,0.000,0.000,17,1,2,406,359,2025-06-06T10:10:59.291681
11501,0.0000,0.0000,0.0000,0.000,0.000,0.000,17,4,1,351,372,2025-06-06T10:10:59.291681
11502,0.0000,0.0000,0.0000,0.000,0.000,0.000,17,2,1,384,391,2025-06-06T10:10:59.291681
11503,0.0000,0.0000,0.0000,0.000,-26.215,45.780,17,2,1,392,393,2025-06-06T10:10:59.291681
11504,-0.4665,0.8886,0.0293,16.905,-19.005,40.005,19,2,2,390,397,2025-06-06T10:10:59.291681
11505,-0.5290,0.9023,-0.0449,-7.840,-17.955,23.940,18,3,1,375,390,2025-06-06T10:10:59.393130
11506,-0.3753,0.9599,-0.2084,-12.670,-20.300,13.860,18,3,2,378,401,2025-06-06T10:10:59.393130
11507,-0.3055,0.8979,-0.2918,-7.140,-30.520,6.405,17,2,1,390,405,2025-06-06T10:10:59.393130
11508,-0.1986,0.8735,-0.3528,-0.420,-37.380,-0.455,17,5,1,387,397,2025-06-06T10:10:59.393130
11509,-0.2489,0.8325,-0.4494,3.465,-33.705,-4.515,17,2,1,382,408,2025-06-06T10:10:59.393130
11510,-0.2318,0.8682,-0.3079,9.240,-27.720,-10.920,16,3,1,379,398,2025-06-06T10:10:59.393130
11511,-0.0595,0.9155,-0.1425,3.815,-20.685,-9.870,16,2,1,393,404,2025-06-06T10:10:59.393130
11512,-0.1508,0.8672,-0.1620,-10.955,-26.075,-5.705,17,2,1,396,405,2025-06-06T10:10:59.393130
11513,-0.1840,0.8940,-0.2240,-12.285,-30.205,-0.945,18,4,1,394,381,2025-06-06T10:10:59.492810
11514,-0.1928,0.9013,-0.2777,-15.855,-26.775,2.100,17,0,1,390,379,2025-06-06T10:10:59.492810
11515,-0.3919,0.9252,-0.3167,-17.220,-13.405,-1.085,16,2,1,391,388,2025-06-06T10:10:59.492810
11516,-0.3992,0.9243,-0.2684,-16.800,-5.110,-4.970,17,3,1,398,397,2025-06-06T10:10:59.492810
11517,-0.4929,0.0000,0.0000,0.000,0.000,0.000,17,2,1,352,355,2025-06-06T10:10:59.492810
11518,0.0000,0.0000,0.0000,0.000,0.000,0.000,16,2,1,354,384,2025-06-06T10:10:59.492810
11519,0.0000,0.0000,0.0000,0.000,0.000,0.000,14,2,0,349,388,2025-06-06T10:10:59.492810
11520,0.0000,0.0000,0.0000,0.000,0.000,0.000,15,1,1,363,382,2025-06-06T10:10:59.492810
11521,0.0000,0.0000,0.0000,0.000,0.000,0.000,15,3,1,383,399,2025-06-06T10:10:59.492810
11522,0.0000,0.0000,0.0000,0.000,0.000,0.000,15,2,1,371,397,2025-06-06T10:10:59.492810
11523,0.0000,0.0000,0.0000,0.000,0.000,0.000,15,2,2,399,399,2025-06-06T10:10:59.542996
11524,0.0000,0.0000,0.0000,0.000,0.000,0.000,15,3,2,378,358,2025-06-06T10:10:59.542996
11525,0.0000,0.0000,0.0000,0.000,0.000,0.000,16,1,2,395,380,2025-06-06T10:10:59.542996
11526,0.0000,0.0000,0.0000,0.000,0.000,0.000,15,2,2,387,371,2025-06-06T10:10:59.542996
11527,0.0000,0.0000,0.0000,0.000,0.000,0.000,16,2,1,397,386,2025-06-06T10:10:59.542996
11528,0.0000,0.0000,0.0000,0.000,0.000,0.000,16,3,1,393,377,2025-06-06T10:10:59.696247
11529,0.0000,0.0000,0.0000,0.000,0.000,0.000,15,3,1,403,390,2025-06-06T10:10:59.696247
11530,0.0000,0.0000,0.0000,0.000,0.000,0.000,15,3,2,401,388,2025-06-06T10:10:59.696247
11531,0.0000,0.0000,0.0000,0.000,0.000,0.000,15,3,1,397,400,2025-06-06T10:10:59.696247
11532,0.0000,0.0000,0.0000,0.000,0.000,0.000,15,1,1,387,394,2025-06-06T10:10:59.696247
11533,0.0000,0.0000,0.0000,0.000,0.000,0.000,15,2,1,358,393,2025-06-06T10:10:59.696247
11534,0.0000,0.0000,0.0000,0.000,0.000,0.000,14,1,1,357,348,2025-06-06T10:10:59.696247
11535,0.0000,0.0000,0.0000,0.000,0.000,0.000,14,2,1,363,369,2025-06-06T10:10:59.696247
11536,0.0000,0.0000,0.0000,0.000,0.000,0.000,15,2,1,376,367,2025-06-06T10:10:59.696247
11537,0.0000,0.0000,0.0000,0.000,0.000,0.000,16,3,1,386,386,2025-06-06T10:10:59.696247
11538,0.0000,0.0000,0.0000,0.000,0.000,0.000,16,3,1,381,384,2025-06-06T10:10:59.696247
11539,0.0000,0.0000,0.0000,0.000,0.000,0.000,16,3,1,360,358,2025-06-06T10:10:59.696247
11540,0.0000,0.0000,0.0000,0.000,0.000,0.000,17,2,1,361,361,2025-06-06T10:10:59.696247
11541,0.0000,0.0000,0.0000,0.000,0.000,0.000,17,2,1,385,383,2025-06-06T10:10:59.696247
11542,0.0000,0.0000,0.0000,0.000,0.000,0.000,17,2,1,378,395,2025-06-06T10:10:59.696247
11543,0.0000,0.0000,0.0000,0.000,0.000,0.000,17,3,1,399,391,2025-06-06T10:10:59.800622
11544,0.0000,0.0000,0.0000,0.000,0.000,0.000,17,3,1,382,378,2025-06-06T10:10:59.800622
11545,0.0000,0.0000,0.0000,0.000,0.000,0.000,16,3,1,391,387,2025-06-06T10:10:59.800622
11546,0.0000,0.0000,0.0000,0.000,0.000,0.000,16,2,1,378,388,2025-06-06T10:10:59.800622
11547,0.0000,0.0000,0.0000,0.000,0.000,0.000,17,2,1,399,401,2025-06-06T10:10:59.800622
11548,0.0000,0.0000,0.0000,0.000,0.000,0.000,19,1,1,385,394,2025-06-06T10:10:59.800622
11549,0.0000,0.0000,0.0000,0.000,0.000,0.000,18,2,1,388,367,2025-06-06T10:10:59.800622
11550,0.0000,0.0000,0.0000,0.000,0.000,0.000,16,2,1,366,337,2025-06-06T10:10:59.921493
11551,0.0000,0.0000,0.0000,0.000,0.000,0.000,18,1,1,388,334,2025-06-06T10:10:59.921493
11552,0.0000,0.0000,0.0000,0.000,0.000,0.000,17,2,1,364,345,2025-06-06T10:10:59.921493
11553,0.0000,0.0000,0.0000,0.000,0.000,0.000,17,2,1,387,382,2025-06-06T10:10:59.921493
11554,0.0000,0.0000,0.0000,0.000,0.000,0.000,17,3,1,380,388,2025-06-06T10:10:59.921493
11555,0.0000,0.0000,0.0000,0.000,0.000,0.000,15,2,1,394,390,2025-06-06T10:10:59.921493
11556,0.0000,0.0000,-0.2001,-2.450,-1.960,1.750,16,4,2,386,352,2025-06-06T10:10:59.921493
11557,-0.3802,0.9379,-0.1557,-0.700,-0.840,-2.450,16,1,1,378,374,2025-06-06T10:10:59.921493
11558,-0.2845,0.9740,-0.1000,-8.645,-2.520,-5.670,16,5,1,392,376,2025-06-06T10:11:00.007899
11559,-0.2860,0.9199,-0.0927,-16.170,-6.860,-6.580,15,1,1,385,369,2025-06-06T10:11:00.007899
11560,-0.3109,0.9355,-0.1127,-12.425,-9.870,-7.665,15,3,1,404,396,2025-06-06T10:11:00.007899
11561,-0.2850,0.9389,-0.1508,-10.080,-10.080,-7.910,15,2,1,376,393,2025-06-06T10:11:00.007899
11562,-0.2557,0.9213,-0.1854,-14.700,-7.910,-8.190,15,2,1,384,395,2025-06-06T10:11:00.007899
11563,-0.2118,0.9228,-0.1908,-10.885,-4.340,-7.280,17,5,1,378,400,2025-06-06T10:11:00.007899
11564,-0.1781,0.9248,-0.2011,-5.740,-2.450,-5.005,16,1,1,385,390,2025-06-06T10:11:00.007899
11565,-0.1937,0.8979,-0.1972,-5.985,0.140,-2.765,15,2,0,359,390,2025-06-06T10:11:00.007899
11566,-0.2069,0.8984,-0.1728,-3.815,2.205,-2.135,14,2,1,365,346,2025-06-06T10:11:00.007899
11567,-0.2489,0.9116,-0.1688,0.735,3.640,-1.715,13,3,1,388,377,2025-06-06T10:11:00.007899
11568,-0.2791,0.9170,-0.1566,-1.120,2.170,-1.540,15,3,2,351,369,2025-06-06T10:11:00.007899
11569,-0.2884,0.9057,-0.1230,-0.735,-1.995,-1.890,14,0,1,329,334,2025-06-06T10:11:00.007899
11570,-0.2894,0.9301,-0.1205,3.885,-5.040,-3.360,14,2,1,332,301,2025-06-06T10:11:00.007899
11571,-0.2508,0.9365,-0.1454,1.050,-3.815,-4.060,14,3,1,353,338,2025-06-06T10:11:00.114641
11572,0.0000,0.0000,0.0000,0.000,0.000,0.000,14,1,1,383,377,2025-06-06T10:11:00.114641
11573,0.0000,0.0000,0.0000,0.000,0.000,0.000,14,3,1,371,374,2025-06-06T10:11:00.114641
11574,0.0000,0.0000,0.0000,0.000,0.000,0.000,15,3,2,394,351,2025-06-06T10:11:00.114641
11575,0.0000,0.0000,0.0000,0.000,0.000,0.000,16,2,1,370,369,2025-06-06T10:11:00.114641
11576,0.0000,0.0000,0.0000,0.000,0.000,0.000,16,3,1,385,352,2025-06-06T10:11:00.114641
11577,0.0000,0.0000,0.0000,0.000,0.000,0.000,16,2,2,374,326,2025-06-06T10:11:00.114641
11578,0.0000,0.0000,0.0000,0.000,0.000,0.000,16,2,1,385,325,2025-06-06T10:11:00.114641
11579,0.0000,0.0000,0.0000,0.000,0.000,0.000,16,2,1,371,312,2025-06-06T10:11:00.114641
11580,0.0000,0.0000,0.0000,0.000,0.000,0.000,16,1,0,361,344,2025-06-06T10:11:00.114641
11581,0.0000,0.0000,0.0000,0.000,0.000,0.000,17,3,2,374,361,2025-06-06T10:11:00.114641
11582,-0.2743,0.9067,-0.1557,1.050,-9.905,-10.465,17,2,1,394,345,2025-06-06T10:11:00.170488
11583,-0.2664,0.9438,-0.1386,8.015,-8.435,-10.115,17,4,2,348,361,2025-06-06T10:11:00.170488
11584,-0.2079,0.9648,-0.1327,6.195,-6.335,-7.700,19,2,2,364,374,2025-06-06T10:11:00.170488
11585,-0.1884,0.9414,-0.1337,-2.485,-9.205,-3.465,20,2,1,376,382,2025-06-06T10:11:00.170488
11586,-0.2313,0.9321,-0.1527,-0.945,-10.290,-0.315,18,3,1,381,380,2025-06-06T10:11:00.223040
11587,-0.2469,0.9326,-0.1810,4.235,-8.155,1.330,19,1,1,400,390,2025-06-06T10:11:00.223040
11588,-0.2279,0.9711,-0.1571,-0.595,-5.390,2.030,19,4,1,397,378,2025-06-06T10:11:00.223040
11589,-0.2313,0.9409,-0.1625,-6.825,-1.085,3.290,19,2,1,364,379,2025-06-06T10:11:00.223040
11590,-0.2884,0.9087,-0.1488,-3.010,1.645,2.520,20,3,1,378,388,2025-06-06T10:11:00.223040
11591,-0.3211,0.9399,-0.1132,-0.840,-0.385,0.805,18,2,1,379,377,2025-06-06T10:11:00.269437
11592,-0.2938,0.9560,-0.1240,-4.445,-2.205,-0.245,18,1,1,394,390,2025-06-06T10:11:00.269437
11593,-0.2547,0.9467,-0.1288,-6.405,-4.025,0.105,18,4,2,387,379,2025-06-06T10:11:00.269437
11594,-0.2313,0.9428,-0.1235,-4.620,-6.755,0.875,17,1,1,389,381,2025-06-06T10:11:00.269437
11595,-0.2264,0.9526,-0.1610,-4.585,-7.945,1.505,16,3,1,384,394,2025-06-06T10:11:00.318001
11596,-0.2557,0.9457,-0.2172,-7.665,-3.430,1.330,15,2,1,375,389,2025-06-06T10:11:00.318001
11597,-0.2684,0.9282,-0.2015,-2.800,0.525,0.805,14,1,2,384,361,2025-06-06T10:11:00.318001
11598,-0.2928,0.9443,-0.1430,1.890,1.785,-0.665,14,4,1,376,372,2025-06-06T10:11:00.318001
11599,-0.3250,0.9550,-0.1425,2.240,1.715,-3.290,11,0,1,379,366,2025-06-06T10:11:00.366613
11600,-0.3421,0.9243,-0.1288,-0.140,1.995,-3.465,10,2,1,399,387,2025-06-06T10:11:00.366613
11601,-0.3489,0.9389,-0.1005,2.520,-2.100,-4.480,10,3,1,381,375,2025-06-06T10:11:00.366613
