SeqNum,AccX,AccY,AccZ,GyroX,GyroY,GyroZ,Flex,Force1,Force2,Force3,Force4,TimestampReception
1429,0.0000,0.0000,0.0000,0.000,0.000,0.000,486,1,206,367,325,2025-06-03T10:28:33.049162
1430,0.0000,0.0000,0.0000,0.000,0.000,0.000,481,2,201,362,343,2025-06-03T10:28:33.049162
1431,0.0000,0.0000,0.0000,0.000,0.000,0.000,452,1,258,350,334,2025-06-03T10:28:33.049162
1432,0.0000,0.0000,0.0000,0.000,0.000,0.000,438,1,282,386,375,2025-06-03T10:28:33.049162
1433,0.0000,0.0000,0.0000,0.000,0.000,0.000,418,1,305,392,381,2025-06-03T10:28:33.049162
1434,0.0000,0.0000,0.0000,0.000,0.000,0.000,416,2,322,402,361,2025-06-03T10:28:33.049162
1435,0.0000,0.0000,0.0000,0.000,0.000,0.000,413,1,336,353,375,2025-06-03T10:28:33.049162
1436,0.0000,0.0000,0.0000,0.000,0.000,0.000,414,1,339,367,388,2025-06-03T10:28:33.049162
1437,0.0000,0.0000,0.0000,0.000,0.000,0.000,413,2,351,388,387,2025-06-03T10:28:33.049162
1438,0.0000,0.0000,0.0000,0.000,0.000,0.000,408,1,350,315,378,2025-06-03T10:28:33.049162
1439,0.0000,0.0000,0.0000,0.000,0.000,0.000,412,1,343,357,347,2025-06-03T10:28:33.049162
1440,0.0000,0.0000,0.0000,0.000,0.000,0.000,409,1,353,377,373,2025-06-03T10:28:33.049162
1441,0.0000,0.0000,0.0000,0.000,0.000,0.000,413,1,355,390,387,2025-06-03T10:28:33.049162
1442,0.0000,0.0000,0.0000,0.000,0.000,0.000,403,1,356,396,390,2025-06-03T10:28:33.049162
1443,0.0000,0.0000,0.0000,0.000,0.000,0.000,411,2,354,396,389,2025-06-03T10:28:33.049162
1444,0.0000,0.0000,0.0000,0.000,0.000,0.000,410,1,353,394,396,2025-06-03T10:28:33.049162
1445,0.0000,0.0000,0.0000,0.000,0.000,0.000,402,1,333,385,398,2025-06-03T10:28:33.049162
1446,0.0000,0.0000,0.0000,0.000,0.000,0.000,380,1,345,400,394,2025-06-03T10:28:33.049162
1447,0.0000,0.0000,0.0000,0.000,0.000,0.000,387,2,360,393,380,2025-06-03T10:28:33.049162
1448,0.0000,0.0000,0.0000,0.000,0.000,0.000,369,2,365,392,351,2025-06-03T10:28:33.049162
1449,0.0000,0.0000,0.0000,0.000,0.000,0.000,385,1,367,393,371,2025-06-03T10:28:33.049162
1450,0.0000,0.0000,0.0000,0.000,0.000,0.000,379,1,373,402,377,2025-06-03T10:28:33.049162
1451,0.0000,0.0000,0.0000,0.000,0.000,0.000,358,1,362,401,389,2025-06-03T10:28:33.102540
1452,0.0000,0.0000,0.0000,0.000,0.000,0.000,366,2,367,405,380,2025-06-03T10:28:33.102540
1453,0.0000,0.0000,0.0000,0.000,0.000,0.000,371,1,368,411,389,2025-06-03T10:28:33.102540
1454,0.0000,0.0000,0.0000,0.000,0.000,0.000,383,2,372,404,383,2025-06-03T10:28:33.102540
1455,0.0000,0.0000,0.0000,0.000,0.000,0.000,386,2,340,400,391,2025-06-03T10:28:33.159339
1456,0.0000,0.0000,0.0000,0.000,0.000,0.000,392,1,327,408,396,2025-06-03T10:28:33.159339
1457,0.0000,0.0000,0.0000,0.000,0.000,0.000,392,2,343,416,386,2025-06-03T10:28:33.159339
1458,0.0000,0.0000,0.0000,0.000,0.000,0.000,397,2,355,410,392,2025-06-03T10:28:33.159339
1459,0.0000,0.0000,0.0000,0.000,0.000,0.000,376,1,357,402,397,2025-06-03T10:28:33.159339
1460,0.0000,0.0000,0.0000,0.000,0.000,0.000,354,1,362,412,391,2025-06-03T10:28:33.260382
1461,0.0000,0.0000,0.0000,0.000,0.000,0.000,364,1,359,397,390,2025-06-03T10:28:33.260382
1462,0.0000,0.0000,0.0000,0.000,0.000,0.000,382,1,361,408,390,2025-06-03T10:28:33.260382
1463,0.0000,0.0000,0.0000,0.000,0.000,0.000,386,2,360,325,382,2025-06-03T10:28:33.260382
1464,0.0000,0.0000,0.0000,0.000,0.000,0.000,365,1,358,355,348,2025-06-03T10:28:33.260382
1465,0.0000,0.0000,0.0000,0.000,0.000,0.000,376,0,342,379,381,2025-06-03T10:28:33.260382
1466,0.0000,0.0000,0.0000,0.000,0.000,0.000,385,1,354,397,389,2025-06-03T10:28:33.260382
1467,0.0000,0.0000,0.0000,0.000,0.000,0.000,388,1,353,401,387,2025-06-03T10:28:33.260382
1468,0.0000,0.0000,0.0000,0.000,0.000,0.000,384,1,360,370,358,2025-06-03T10:28:33.260382
1469,0.0000,0.0000,0.0000,0.000,0.000,0.000,394,1,361,382,389,2025-06-03T10:28:33.260382
1470,0.0000,0.0000,0.0000,0.000,0.000,0.000,401,2,344,385,385,2025-06-03T10:28:33.465522
1471,0.0000,0.0000,0.0000,0.000,0.000,0.000,392,1,343,379,392,2025-06-03T10:28:33.465522
1472,0.0000,0.0000,0.0000,0.000,0.000,0.000,368,2,354,356,386,2025-06-03T10:28:33.465522
1473,0.0000,0.0000,0.0000,0.000,0.000,0.000,379,1,355,374,394,2025-06-03T10:28:33.465522
1474,0.0000,0.0000,0.0000,0.000,0.000,0.000,385,1,354,381,386,2025-06-03T10:28:33.465522
1475,0.0000,0.0000,0.0000,0.000,0.000,0.000,391,1,351,388,397,2025-06-03T10:28:33.465522
1476,0.0000,0.0000,0.0000,0.000,0.000,0.000,390,2,356,400,408,2025-06-03T10:28:33.465522
1477,0.0000,0.0000,0.0000,0.000,0.000,0.000,398,1,358,392,406,2025-06-03T10:28:33.465522
1478,0.0000,0.0000,0.0000,0.000,0.000,0.000,365,1,351,394,359,2025-06-03T10:28:33.465522
1479,0.0000,0.0000,0.0000,0.000,0.000,0.000,381,1,357,391,369,2025-06-03T10:28:33.465522
1480,0.0000,0.0000,0.0000,0.000,0.000,0.000,390,2,356,401,380,2025-06-03T10:28:33.465522
1481,0.0000,0.0000,0.0000,0.000,0.000,0.000,368,1,337,388,395,2025-06-03T10:28:33.465522
1482,0.0000,0.0000,0.0000,0.000,0.000,0.000,368,1,349,383,377,2025-06-03T10:28:33.465522
1483,0.0000,0.0000,0.0000,0.000,0.000,0.000,384,2,334,382,380,2025-06-03T10:28:33.465522
1484,0.0000,0.0000,0.0000,0.000,0.000,0.000,394,1,343,346,386,2025-06-03T10:28:33.465522
1485,0.0000,0.0000,0.0000,0.000,0.000,0.000,404,2,346,384,358,2025-06-03T10:28:33.465522
1486,0.0000,0.0000,0.0000,0.000,0.000,0.000,401,2,360,377,380,2025-06-03T10:28:33.465522
1487,0.0000,0.0000,0.0000,0.000,0.000,0.000,395,1,358,358,395,2025-06-03T10:28:33.465522
1488,0.0000,0.0000,0.0000,0.000,0.000,0.000,364,1,355,379,397,2025-06-03T10:28:33.465522
1489,0.0000,0.0000,0.0000,0.000,0.000,0.000,350,1,362,395,402,2025-06-03T10:28:33.522455
1490,0.0000,0.0000,0.0000,0.000,0.000,0.000,378,1,359,385,405,2025-06-03T10:28:33.522455
1491,0.0000,0.0000,0.0000,0.000,0.000,0.000,391,1,359,395,388,2025-06-03T10:28:33.522455
1492,0.0000,0.0000,0.0000,0.000,0.000,0.000,383,2,355,384,390,2025-06-03T10:28:33.522455
1493,0.0000,0.0000,0.0000,0.000,0.000,0.000,389,2,363,386,387,2025-06-03T10:28:33.766253
1494,0.0000,0.0000,0.0000,0.000,0.000,0.000,393,2,368,401,382,2025-06-03T10:28:33.766253
1495,0.0000,0.0000,0.0000,0.000,0.000,0.000,361,1,366,390,384,2025-06-03T10:28:33.766253
1496,0.0000,0.0000,0.0000,0.000,0.000,0.000,369,1,362,406,348,2025-06-03T10:28:33.766253
1497,0.0000,0.0000,0.0000,0.000,0.000,0.000,386,2,359,382,325,2025-06-03T10:28:33.766253
1498,0.0000,0.0000,0.0000,0.000,0.000,0.000,359,2,356,380,368,2025-06-03T10:28:33.766253
1499,0.0000,0.0000,0.0000,0.000,0.000,0.000,352,1,361,382,355,2025-06-03T10:28:33.766253
1500,0.0000,0.0000,0.0000,0.000,0.000,0.000,376,1,355,388,331,2025-06-03T10:28:33.766253
1501,0.0000,0.0000,0.0000,0.000,0.000,0.000,385,1,355,344,363,2025-06-03T10:28:33.766253
1502,0.0000,0.0000,0.0000,0.000,0.000,0.000,383,1,353,372,348,2025-06-03T10:28:33.766253
1503,0.0000,0.0000,0.0000,0.000,0.000,0.000,379,1,353,371,332,2025-06-03T10:28:33.766253
1504,0.0000,0.0000,0.0000,0.000,0.000,0.000,378,1,360,376,357,2025-06-03T10:28:33.766253
1505,0.0000,0.0000,0.0000,0.000,0.000,0.000,385,1,367,381,374,2025-06-03T10:28:33.766253
1506,0.0000,0.0000,0.0000,0.000,0.000,0.000,393,1,372,382,348,2025-06-03T10:28:33.766253
1507,0.0000,0.0000,0.0000,0.000,0.000,0.000,392,2,373,377,376,2025-06-03T10:28:33.766253
1508,0.0000,0.0000,0.0000,0.000,0.000,0.000,394,2,377,380,388,2025-06-03T10:28:33.766253
1509,0.0000,0.0000,0.0000,0.000,0.000,0.000,397,1,373,400,387,2025-06-03T10:28:33.766253
1510,0.0000,0.0000,0.0000,0.000,0.000,0.000,400,2,377,401,384,2025-06-03T10:28:33.766253
1511,0.0000,0.0000,0.0000,0.000,0.000,0.000,393,2,378,359,382,2025-06-03T10:28:33.766253
1512,0.0000,0.0000,0.0000,0.000,0.000,0.000,398,1,373,371,391,2025-06-03T10:28:33.766253
1513,0.0000,0.0000,0.0000,0.000,0.000,0.000,390,1,368,383,394,2025-06-03T10:28:33.766253
1514,0.0000,0.0000,0.0000,0.000,0.000,0.000,393,2,364,379,383,2025-06-03T10:28:33.766253
1515,0.0000,0.0000,0.0000,0.000,0.000,0.000,404,1,370,385,350,2025-06-03T10:28:33.816698
1516,0.0000,0.0000,0.0000,0.000,0.000,0.000,404,2,364,375,361,2025-06-03T10:28:33.816698
1517,0.0000,0.0000,0.0000,0.000,0.000,0.000,405,2,363,377,381,2025-06-03T10:28:33.816698
1518,0.0000,0.0000,0.0000,0.000,0.000,0.000,372,2,367,389,392,2025-06-03T10:28:33.816698
1519,0.0000,0.0000,0.0000,0.000,0.000,0.000,377,2,366,401,395,2025-06-03T10:28:33.816698
1520,0.0000,0.0000,0.0000,0.000,0.000,0.000,386,2,372,397,392,2025-06-03T10:28:33.816698
1521,0.0000,0.0000,0.0000,0.000,0.000,0.000,398,2,372,356,347,2025-06-03T10:28:34.074281
1522,0.0000,0.0000,0.0000,0.000,0.000,0.000,387,1,372,334,377,2025-06-03T10:28:34.074281
1523,0.0000,0.0000,0.0000,0.000,0.000,0.000,388,1,363,370,390,2025-06-03T10:28:34.074281
1524,0.0000,0.0000,0.0000,0.000,0.000,0.000,365,1,368,348,386,2025-06-03T10:28:34.074281
1525,0.0000,0.0000,0.0000,0.000,0.000,0.000,378,2,366,387,379,2025-06-03T10:28:34.074281
1526,0.0000,0.0000,0.0000,0.000,0.000,0.000,390,2,375,395,377,2025-06-03T10:28:34.074281
1527,0.0000,0.0000,0.0000,0.000,0.000,0.000,381,1,370,394,377,2025-06-03T10:28:34.074281
1528,0.0000,0.0000,0.0000,0.000,0.000,0.000,394,1,374,399,371,2025-06-03T10:28:34.074281
1529,0.0000,0.0000,0.0000,0.000,0.000,0.000,392,1,372,408,367,2025-06-03T10:28:34.074281
1530,0.0000,0.0000,0.0000,0.000,0.000,0.000,384,1,368,365,361,2025-06-03T10:28:34.074281
1531,0.0000,0.0000,0.0000,0.000,0.000,0.000,380,1,363,378,388,2025-06-03T10:28:34.074281
1532,0.0000,0.0000,0.0000,0.000,0.000,0.000,381,1,366,395,389,2025-06-03T10:28:34.074281
1533,0.0000,0.0000,0.0000,0.000,0.000,0.000,391,1,368,403,378,2025-06-03T10:28:34.074281
1534,0.0000,0.0000,0.0000,0.000,0.000,0.000,389,2,364,389,387,2025-06-03T10:28:34.074281
1535,0.0000,0.0000,0.0000,0.000,0.000,0.000,400,1,367,393,399,2025-06-03T10:28:34.074281
1536,0.0000,0.0000,0.0000,0.000,0.000,0.000,394,1,345,397,401,2025-06-03T10:28:34.074281
1537,0.0000,0.0000,0.0000,0.000,0.000,0.000,403,2,353,394,391,2025-06-03T10:28:34.074281
1538,0.0000,0.0000,0.0000,0.000,0.000,0.000,406,1,360,400,401,2025-06-03T10:28:34.074281
1539,0.0000,0.0000,0.0000,0.000,0.000,0.000,404,1,340,392,399,2025-06-03T10:28:34.074281
1540,0.0000,0.0000,0.0000,0.000,0.000,0.000,368,1,344,382,389,2025-06-03T10:28:34.074281
1541,0.0000,0.0000,0.0000,0.000,0.000,0.000,382,2,354,387,387,2025-06-03T10:28:34.074281
1542,0.0000,0.0000,0.0000,0.000,0.000,0.000,378,2,361,376,320,2025-06-03T10:28:34.074281
1543,0.0000,0.0000,0.0000,0.000,0.000,0.000,392,1,365,380,368,2025-06-03T10:28:34.286146
1544,0.0000,0.0000,0.0000,0.000,0.000,0.000,362,1,342,382,379,2025-06-03T10:28:34.286146
1545,0.0000,0.0000,0.0000,0.000,0.000,0.000,377,2,348,384,372,2025-06-03T10:28:34.286146
1546,0.0000,0.0000,0.0000,0.000,0.000,0.000,392,2,351,395,383,2025-06-03T10:28:34.286146
1547,0.0000,0.0000,0.0000,0.000,0.000,0.000,385,2,351,399,382,2025-06-03T10:28:34.286146
1548,0.0000,0.0000,0.0000,0.000,0.000,0.000,390,2,362,389,384,2025-06-03T10:28:34.286146
1549,0.0000,0.0000,0.0000,0.000,0.000,0.000,370,1,359,398,397,2025-06-03T10:28:34.286146
1550,0.0000,0.0000,0.0000,0.000,0.000,0.000,380,2,369,355,351,2025-06-03T10:28:34.286146
1551,0.0000,0.0000,0.0000,0.000,0.000,0.000,377,1,368,335,379,2025-06-03T10:28:34.286146
1552,0.0000,0.0000,0.0000,0.000,0.000,0.000,380,1,365,361,395,2025-06-03T10:28:34.286146
1553,0.0000,0.0000,0.0000,0.000,0.000,0.000,394,1,369,378,391,2025-06-03T10:28:34.286146
1554,0.0000,0.0000,0.0000,0.000,0.000,0.000,399,1,372,357,377,2025-06-03T10:28:34.286146
1555,0.0000,0.0000,0.0000,0.000,0.000,0.000,401,1,368,381,388,2025-06-03T10:28:34.286146
1556,0.0000,0.0000,0.0000,0.000,0.000,0.000,406,1,368,355,377,2025-06-03T10:28:34.286146
1557,0.0000,0.0000,0.0000,0.000,0.000,0.000,374,1,357,361,382,2025-06-03T10:28:34.286146
1558,0.0000,0.0000,0.0000,0.000,0.000,0.000,379,1,361,368,387,2025-06-03T10:28:34.286146
1559,0.0000,0.0000,0.0000,0.000,0.000,0.000,392,2,371,383,384,2025-06-03T10:28:34.286146
1560,0.0000,0.0000,0.0000,0.000,0.000,0.000,392,1,374,385,384,2025-06-03T10:28:34.286146
1561,0.0000,0.0000,0.0000,0.000,0.000,0.000,394,1,374,391,391,2025-06-03T10:28:34.286146
1562,0.0000,0.0000,0.0000,0.000,0.000,0.000,388,2,366,363,381,2025-06-03T10:28:34.286146
1563,0.0000,0.0000,0.0000,0.000,0.000,0.000,391,1,344,374,353,2025-06-03T10:28:34.286146
1564,0.0000,0.0000,0.0000,0.000,0.000,0.000,391,1,356,342,358,2025-06-03T10:28:34.286146
1565,0.0000,0.0000,0.0000,0.000,0.000,0.000,401,2,362,350,375,2025-06-03T10:28:34.489820
1566,0.0000,0.0000,0.0000,0.000,0.000,0.000,387,1,365,373,380,2025-06-03T10:28:34.489820
1567,0.0000,0.0000,0.0000,0.000,0.000,0.000,397,1,370,391,379,2025-06-03T10:28:34.489820
1568,0.0000,0.0000,0.0000,0.000,0.000,0.000,398,1,367,404,385,2025-06-03T10:28:34.489820
1569,0.0000,0.0000,0.0000,0.000,0.000,0.000,401,2,369,400,393,2025-06-03T10:28:34.489820
1570,0.0000,0.0000,0.0000,0.000,0.000,0.000,368,0,324,363,383,2025-06-03T10:28:34.489820
1571,0.0000,0.0000,0.0000,0.000,0.000,0.000,382,1,328,373,395,2025-06-03T10:28:34.489820
1572,0.0000,0.0000,0.0000,0.000,0.000,0.000,388,1,343,390,361,2025-06-03T10:28:34.489820
1573,0.0000,0.0000,0.0000,0.000,0.000,0.000,360,1,353,390,379,2025-06-03T10:28:34.489820
1574,0.0000,0.0000,0.0000,0.000,0.000,0.000,348,2,361,404,391,2025-06-03T10:28:34.489820
1575,0.0000,0.0000,0.0000,0.000,0.000,0.000,361,2,360,400,394,2025-06-03T10:28:34.489820
1576,0.0000,0.0000,0.0000,0.000,0.000,0.000,374,1,355,388,357,2025-06-03T10:28:34.489820
1577,0.0000,0.0000,0.0000,0.000,0.000,0.000,349,1,356,392,382,2025-06-03T10:28:34.489820
1578,0.0000,0.0000,0.0000,0.000,0.000,0.000,367,1,341,399,384,2025-06-03T10:28:34.489820
1579,0.0000,0.0000,0.0000,0.000,0.000,0.000,354,1,354,395,381,2025-06-03T10:28:34.489820
1580,0.0000,0.0000,0.0000,0.000,0.000,0.000,342,1,359,384,393,2025-06-03T10:28:34.489820
1581,0.0000,0.0000,0.0000,0.000,0.000,0.000,363,2,368,353,382,2025-06-03T10:28:34.489820
1582,0.0000,0.0000,0.0000,0.000,0.000,0.000,371,1,360,381,391,2025-06-03T10:28:34.489820
1583,0.0000,0.0000,0.0000,0.000,0.000,0.000,382,2,369,388,396,2025-06-03T10:28:34.489820
1584,0.0000,0.0000,0.0000,0.000,0.000,0.000,391,2,374,399,383,2025-06-03T10:28:34.539870
1585,0.0000,0.0000,0.0000,0.000,0.000,0.000,398,2,368,387,387,2025-06-03T10:28:34.539870
1586,0.0000,0.0000,0.0000,0.000,0.000,0.000,389,1,372,366,352,2025-06-03T10:28:34.539870
1587,0.0000,0.0000,0.0000,0.000,0.000,0.000,399,2,372,379,362,2025-06-03T10:28:34.539870
1588,0.0000,0.0000,0.0000,0.000,0.000,0.000,393,1,371,379,382,2025-06-03T10:28:34.589579
1589,0.0000,0.0000,0.0000,0.000,0.000,0.000,390,1,373,396,320,2025-06-03T10:28:34.589579
1590,0.0000,0.0000,0.0000,0.000,0.000,0.000,401,2,373,375,355,2025-06-03T10:28:34.589579
1591,0.0000,0.0000,0.0000,0.000,0.000,0.000,369,1,370,404,349,2025-06-03T10:28:34.589579
1592,0.0000,0.0000,0.0000,0.000,0.000,0.000,373,2,376,323,350,2025-06-03T10:28:34.589579
1593,0.0000,0.0000,0.0000,0.000,0.000,0.000,387,1,370,356,371,2025-06-03T10:28:34.695856
1594,0.0000,0.0000,0.0000,0.000,0.000,0.000,394,1,371,376,388,2025-06-03T10:28:34.695856
1595,0.0000,0.0000,0.0000,0.000,0.000,0.000,391,2,374,395,386,2025-06-03T10:28:34.695856
1596,0.0000,0.0000,0.0000,0.000,0.000,0.000,403,1,370,396,403,2025-06-03T10:28:34.695856
1597,0.0000,0.0000,0.0000,0.000,0.000,0.000,394,1,362,360,363,2025-06-03T10:28:34.695856
1598,0.0000,0.0000,0.0000,0.000,0.000,0.000,389,2,367,365,370,2025-06-03T10:28:34.695856
1599,0.0000,0.0000,0.0000,0.000,0.000,0.000,394,1,364,384,373,2025-06-03T10:28:34.695856
1600,0.0000,0.0000,0.0000,0.000,0.000,0.000,402,1,365,396,392,2025-06-03T10:28:34.695856
1601,0.0000,0.0000,0.0000,0.000,0.000,0.000,377,1,359,384,385,2025-06-03T10:28:34.695856
1602,0.0000,0.0000,0.0000,0.000,0.000,0.000,387,1,359,396,397,2025-06-03T10:28:34.695856
1603,0.0000,0.0000,0.0000,0.000,0.000,0.000,383,1,360,389,382,2025-06-03T10:28:34.954059
1604,0.0000,0.0000,0.0000,0.000,0.000,0.000,359,1,363,381,372,2025-06-03T10:28:34.954059
1605,0.0000,0.0000,0.0000,0.000,0.000,0.000,344,1,361,380,379,2025-06-03T10:28:34.954059
1606,0.0000,0.0000,0.0000,0.000,0.000,0.000,361,1,359,379,386,2025-06-03T10:28:34.954059
1607,0.0000,0.0000,0.0000,0.000,0.000,0.000,363,2,367,379,397,2025-06-03T10:28:34.954059
1608,0.0000,0.0000,0.0000,0.000,0.000,0.000,380,1,363,390,390,2025-06-03T10:28:34.954059
1609,0.0000,0.0000,0.0000,0.000,0.000,0.000,393,1,360,376,354,2025-06-03T10:28:34.954059
1610,0.0000,0.0000,0.0000,0.000,0.000,0.000,360,1,363,393,379,2025-06-03T10:28:34.954059
1611,0.0000,0.0000,0.0000,0.000,0.000,0.000,373,1,362,365,383,2025-06-03T10:28:34.954059
1612,0.0000,0.0000,0.0000,0.000,0.000,0.000,380,1,365,385,384,2025-06-03T10:28:34.957447
1613,0.0000,0.0000,0.0000,0.000,0.000,0.000,388,2,366,402,400,2025-06-03T10:28:34.957447
1614,0.0000,0.0000,0.0000,0.000,0.000,0.000,394,1,370,368,397,2025-06-03T10:28:34.957447
1615,0.0000,0.0000,0.0000,0.000,0.000,0.000,402,1,366,391,386,2025-06-03T10:28:34.957447
1616,0.0000,0.0000,0.0000,0.000,0.000,0.000,372,1,364,360,390,2025-06-03T10:28:34.957447
1617,0.0000,0.0000,0.0000,0.000,0.000,0.000,381,1,340,351,385,2025-06-03T10:28:34.957447
1618,0.0000,0.0000,0.0000,0.000,0.000,0.000,376,1,349,372,396,2025-06-03T10:28:34.957447
1619,0.0000,0.0000,0.0000,0.000,0.000,0.000,384,1,353,385,358,2025-06-03T10:28:34.957447
1620,0.0000,0.0000,0.0000,0.000,0.000,0.000,396,1,339,386,371,2025-06-03T10:28:34.957447
1621,0.0000,0.0000,0.0000,0.000,0.000,0.000,367,2,348,399,390,2025-06-03T10:28:34.957447
1622,0.0000,0.0000,0.0000,0.000,0.000,0.000,381,1,334,394,392,2025-06-03T10:28:34.957447
1623,0.0000,0.0000,0.0000,0.000,0.000,0.000,364,2,347,399,387,2025-06-03T10:28:34.957447
1624,0.0000,0.0000,0.0000,0.000,0.000,0.000,347,2,350,397,390,2025-06-03T10:28:35.173507
1625,0.0000,0.0000,0.0000,0.000,0.000,0.000,335,2,335,380,398,2025-06-03T10:28:35.173507
1626,0.0000,0.0000,0.0000,0.000,0.000,0.000,370,1,342,388,404,2025-06-03T10:28:35.173507
1627,0.0000,0.0000,0.0000,0.000,0.000,0.000,376,2,353,404,396,2025-06-03T10:28:35.173507
1628,0.0000,0.0000,0.0000,0.000,0.000,0.000,358,2,361,404,405,2025-06-03T10:28:35.173507
1629,0.0000,0.0000,0.0000,0.000,0.000,0.000,366,2,360,362,389,2025-06-03T10:28:35.296997
1630,0.0000,0.0000,0.0000,0.000,0.000,0.000,383,1,355,381,401,2025-06-03T10:28:35.296997
1631,0.0000,0.0000,0.0000,0.000,0.000,0.000,390,1,361,388,362,2025-06-03T10:28:35.296997
1632,0.0000,0.0000,0.0000,0.000,0.000,0.000,372,1,357,389,380,2025-06-03T10:28:35.296997
1633,0.0000,0.0000,0.0000,0.000,0.000,0.000,359,1,354,387,391,2025-06-03T10:28:35.296997
1634,0.0000,0.0000,0.0000,0.000,0.000,0.000,342,1,359,400,402,2025-06-03T10:28:35.296997
1635,0.0000,0.0000,0.0000,0.000,0.000,0.000,371,2,367,385,390,2025-06-03T10:28:35.296997
1636,0.0000,0.0000,0.0000,0.000,0.000,0.000,393,2,369,383,378,2025-06-03T10:28:35.296997
1637,0.0000,0.0000,0.0000,0.000,0.000,0.000,358,1,369,392,388,2025-06-03T10:28:35.296997
1638,0.0000,0.0000,0.0000,0.000,0.000,0.000,369,1,371,385,379,2025-06-03T10:28:35.296997
1639,0.0000,0.0000,0.0000,0.000,0.000,0.000,382,1,367,395,392,2025-06-03T10:28:35.296997
1640,0.0000,0.0000,0.0000,0.000,0.000,0.000,393,2,364,385,387,2025-06-03T10:28:35.296997
1641,0.0000,0.0000,0.0000,0.000,0.000,0.000,362,2,335,384,357,2025-06-03T10:28:35.296997
1642,0.0000,0.0000,0.0000,0.000,0.000,0.000,370,2,353,390,371,2025-06-03T10:28:35.296997
1643,0.0000,0.0000,0.0000,0.000,0.000,0.000,383,2,364,394,342,2025-06-03T10:28:35.296997
1644,0.0000,0.0000,0.0000,0.000,0.000,0.000,353,2,342,380,362,2025-06-03T10:28:35.296997
1645,0.0000,0.0000,0.0000,0.000,0.000,0.000,381,2,355,389,383,2025-06-03T10:28:35.296997
1646,0.0000,0.0000,0.0000,0.000,0.000,0.000,388,1,359,384,357,2025-06-03T10:28:35.296997
1647,0.0000,0.0000,0.0000,0.000,0.000,0.000,388,1,361,379,371,2025-06-03T10:28:35.296997
1648,0.0000,0.0000,0.0000,0.000,0.000,0.000,395,2,367,390,389,2025-06-03T10:28:35.296997
1649,0.0000,0.0000,0.0000,0.000,0.000,0.000,387,2,372,405,380,2025-06-03T10:28:35.297995
1650,0.0000,0.0000,0.0000,0.000,0.000,0.000,396,1,374,399,377,2025-06-03T10:28:35.297995
1651,0.0000,0.0000,0.0000,0.000,0.000,0.000,388,2,373,405,382,2025-06-03T10:28:35.297995
1652,0.0000,0.0000,0.0000,0.000,0.000,0.000,389,2,367,398,394,2025-06-03T10:28:35.331166
1653,0.0000,0.0000,0.0000,0.000,0.000,0.000,394,1,373,388,398,2025-06-03T10:28:35.331166
1654,0.0000,0.0000,0.0000,0.000,0.000,0.000,397,2,366,363,383,2025-06-03T10:28:35.331166
1655,0.0000,0.0000,0.0000,0.000,0.000,0.000,400,2,368,373,383,2025-06-03T10:28:35.331166
1656,0.0000,0.0000,0.0000,0.000,0.000,0.000,402,2,368,341,386,2025-06-03T10:28:35.331166
1657,0.0000,0.0000,0.0000,0.000,0.000,0.000,406,2,368,335,380,2025-06-03T10:28:35.331166
1658,0.0000,0.0000,0.0000,0.000,0.000,0.000,396,2,371,328,393,2025-06-03T10:28:35.331166
1659,0.0000,0.0000,0.0000,0.000,0.000,0.000,399,2,374,368,403,2025-06-03T10:28:35.331166
1660,0.0000,0.0000,0.0000,0.000,0.000,0.000,402,1,352,380,405,2025-06-03T10:28:35.331166
1661,0.0000,0.0000,0.0000,0.000,0.000,0.000,402,2,366,396,411,2025-06-03T10:28:35.382961
1662,0.0000,0.0000,0.0000,0.000,0.000,0.000,405,2,346,402,377,2025-06-03T10:28:35.382961
1663,0.0000,0.0000,0.0000,0.000,0.000,0.000,399,1,355,387,387,2025-06-03T10:28:35.382961
1664,0.0000,0.0000,0.0000,0.000,0.000,0.000,387,1,356,357,375,2025-06-03T10:28:35.382961
1665,0.0000,0.0000,0.0000,0.000,0.000,0.000,382,1,353,371,383,2025-06-03T10:28:35.382961
1666,0.0000,0.0000,0.0000,0.000,0.000,0.000,389,1,360,383,347,2025-06-03T10:28:35.522365
1667,0.0000,0.0000,0.0000,0.000,0.000,0.000,392,1,365,389,335,2025-06-03T10:28:35.522365
1668,0.0000,0.0000,0.0000,0.000,0.000,0.000,385,1,360,396,374,2025-06-03T10:28:35.522365
1669,0.0000,0.0000,0.0000,0.000,0.000,0.000,366,2,364,371,364,2025-06-03T10:28:35.522365
1670,0.0000,0.0000,0.0000,0.000,0.000,0.000,372,2,362,395,384,2025-06-03T10:28:35.522365
1671,0.0000,0.0000,0.0000,0.000,0.000,0.000,350,1,367,351,377,2025-06-03T10:28:35.522365
1672,0.0000,0.0000,0.0000,0.000,0.000,0.000,363,1,359,336,394,2025-06-03T10:28:35.522365
1673,0.0000,0.0000,0.0000,0.000,0.000,0.000,377,1,358,366,406,2025-06-03T10:28:35.522365
1674,0.0000,0.0000,0.0000,0.000,0.000,0.000,390,1,363,370,372,2025-06-03T10:28:35.522365
1675,0.0000,0.0000,0.0000,0.000,0.000,0.000,389,1,358,346,379,2025-06-03T10:28:35.522365
1676,0.0000,0.0000,0.0000,0.000,0.000,0.000,397,1,337,329,380,2025-06-03T10:28:35.522365
1677,0.0000,0.0000,0.0000,0.000,0.000,0.000,394,2,344,370,399,2025-06-03T10:28:35.522365
1678,0.0000,0.0000,0.0000,0.000,0.000,0.000,393,1,355,377,391,2025-06-03T10:28:35.522365
1679,0.0000,0.0000,0.0000,0.000,0.000,0.000,395,2,360,351,395,2025-06-03T10:28:35.763603
1680,0.0000,0.0000,0.0000,0.000,0.000,0.000,404,1,358,373,402,2025-06-03T10:28:35.763603
1681,0.0000,0.0000,0.0000,0.000,0.000,0.000,407,2,365,390,410,2025-06-03T10:28:35.763603
1682,0.0000,0.0000,0.0000,0.000,0.000,0.000,410,1,368,364,371,2025-06-03T10:28:35.763983
1683,0.0000,0.0000,0.0000,0.000,0.000,0.000,395,2,367,382,357,2025-06-03T10:28:35.763983
1684,0.0000,0.0000,0.0000,0.000,0.000,0.000,366,1,340,340,361,2025-06-03T10:28:35.763983
1685,0.0000,0.0000,0.0000,0.000,0.000,0.000,381,1,341,367,370,2025-06-03T10:28:35.763983
1686,0.0000,0.0000,0.0000,0.000,0.000,0.000,381,2,345,372,356,2025-06-03T10:28:35.763983
1687,0.0000,0.0000,0.0000,0.000,0.000,0.000,364,2,357,394,386,2025-06-03T10:28:35.763983
1688,0.0000,0.0000,0.0000,0.000,0.000,0.000,384,2,360,407,382,2025-06-03T10:28:35.763983
1689,0.0000,0.0000,0.0000,0.000,0.000,0.000,387,1,365,390,396,2025-06-03T10:28:35.763983
1690,0.0000,0.0000,0.0000,0.000,0.000,0.000,386,1,359,399,398,2025-06-03T10:28:35.763983
1691,0.0000,0.0000,0.0000,0.000,0.000,0.000,394,1,355,389,357,2025-06-03T10:28:35.763983
1692,0.0000,0.0000,0.0000,0.000,0.000,0.000,394,2,338,390,338,2025-06-03T10:28:35.763983
1693,0.0000,0.0000,0.0000,0.000,0.000,0.000,361,1,345,387,370,2025-06-03T10:28:35.763983
1694,0.0000,0.0000,0.0000,0.000,0.000,0.000,375,1,343,401,384,2025-06-03T10:28:35.763983
1695,0.0000,0.0000,0.0000,0.000,0.000,0.000,380,1,351,399,394,2025-06-03T10:28:35.763983
1696,0.0000,0.0000,0.0000,0.000,0.000,0.000,392,1,351,388,365,2025-06-03T10:28:35.763983
1697,0.0000,0.0000,0.0000,0.000,0.000,0.000,394,2,362,385,385,2025-06-03T10:28:35.763983
1698,0.0000,0.0000,0.0000,0.000,0.000,0.000,400,1,363,377,373,2025-06-03T10:28:35.763983
1699,0.0000,0.0000,0.0000,0.000,0.000,0.000,400,1,360,390,378,2025-06-03T10:28:35.763983
1700,0.0000,0.0000,0.0000,0.000,0.000,0.000,401,2,344,348,336,2025-06-03T10:28:35.763983
1701,0.0000,0.0000,0.0000,0.000,0.000,0.000,365,2,351,359,366,2025-06-03T10:28:35.916752
1702,0.0000,0.0000,0.0000,0.000,0.000,0.000,384,1,362,377,371,2025-06-03T10:28:35.916752
1703,0.0000,0.0000,0.0000,0.000,0.000,0.000,379,1,360,383,384,2025-06-03T10:28:35.916752
1704,0.0000,0.0000,0.0000,0.000,0.000,0.000,381,2,363,388,353,2025-06-03T10:28:35.916752
1705,0.0000,0.0000,0.0000,0.000,0.000,0.000,390,2,345,383,334,2025-06-03T10:28:35.916752
1706,0.0000,0.0000,0.0000,0.000,0.000,0.000,403,1,355,349,364,2025-06-03T10:28:35.916752
1707,0.0000,0.0000,0.0000,0.000,0.000,0.000,393,2,360,376,381,2025-06-03T10:28:35.916752
1708,0.0000,0.0000,0.0000,0.000,0.000,0.000,399,2,361,387,396,2025-06-03T10:28:35.916752
1709,0.0000,0.0000,0.0000,0.000,0.000,0.000,401,2,364,387,381,2025-06-03T10:28:35.916752
1710,0.0000,0.0000,0.0000,0.000,0.000,0.000,403,2,361,392,381,2025-06-03T10:28:35.916752
1711,0.0000,0.0000,0.0000,0.000,0.000,0.000,371,2,361,395,387,2025-06-03T10:28:35.916752
1712,0.0000,0.0000,0.0000,0.000,0.000,0.000,350,1,365,352,383,2025-06-03T10:28:35.916752
1713,0.0000,0.0000,0.0000,0.000,0.000,0.000,365,1,356,334,394,2025-06-03T10:28:35.916752
1714,0.0000,0.0000,0.0000,0.000,0.000,0.000,372,2,363,357,398,2025-06-03T10:28:35.916752
1715,0.0000,0.0000,0.0000,0.000,0.000,0.000,384,2,345,382,395,2025-06-03T10:28:35.916752
1716,0.0000,0.0000,0.0000,0.000,0.000,0.000,384,2,355,395,400,2025-06-03T10:28:36.127384
1717,0.0000,0.0000,0.0000,0.000,0.000,0.000,395,1,353,386,395,2025-06-03T10:28:36.127384
1718,0.0000,0.0000,0.0000,0.000,0.000,0.000,396,2,353,396,396,2025-06-03T10:28:36.127384
1719,0.0000,0.0000,0.0000,0.000,0.000,0.000,407,2,363,382,400,2025-06-03T10:28:36.127384
1720,0.0000,0.0000,0.0000,0.000,0.000,0.000,377,1,355,391,400,2025-06-03T10:28:36.127384
1721,0.0000,0.0000,0.0000,0.000,0.000,0.000,386,2,359,384,390,2025-06-03T10:28:36.127384
1722,0.0000,0.0000,0.0000,0.000,0.000,0.000,392,1,361,390,360,2025-06-03T10:28:36.127384
1723,0.0000,0.0000,0.0000,0.000,0.000,0.000,395,1,359,384,385,2025-06-03T10:28:36.127384
1724,0.0000,0.0000,0.0000,0.000,0.000,0.000,397,0,343,379,351,2025-06-03T10:28:36.127384
1725,0.0000,0.0000,0.0000,0.000,0.000,0.000,397,2,351,345,357,2025-06-03T10:28:36.127384
1726,0.0000,0.0000,0.0000,0.000,0.000,0.000,402,2,356,299,360,2025-06-03T10:28:36.127384
1727,0.0000,0.0000,0.0000,0.000,0.000,0.000,392,1,351,348,341,2025-06-03T10:28:36.127384
1728,0.0000,0.0000,0.0000,0.000,0.000,0.000,397,1,365,329,362,2025-06-03T10:28:36.127384
1729,0.0000,0.0000,0.0000,0.000,0.000,0.000,403,1,361,358,382,2025-06-03T10:28:36.127384
1730,0.0000,0.0000,0.0000,0.000,0.000,0.000,403,1,367,368,394,2025-06-03T10:28:36.127384
1731,0.0000,0.0000,0.0000,0.000,0.000,0.000,400,1,365,380,386,2025-06-03T10:28:36.127384
1732,0.0000,0.0000,0.0000,0.000,0.000,0.000,405,2,362,378,353,2025-06-03T10:28:36.127384
1733,0.0000,0.0000,0.0000,0.000,0.000,0.000,407,2,334,378,336,2025-06-03T10:28:36.127384
1734,0.0000,0.0000,0.0000,0.000,0.000,0.000,395,2,349,391,371,2025-06-03T10:28:36.127384
1735,0.0000,0.0000,0.0000,0.000,0.000,0.000,397,2,354,409,374,2025-06-03T10:28:36.222401
1736,0.0000,0.0000,0.0000,0.000,0.000,0.000,392,2,357,394,390,2025-06-03T10:28:36.222401
1737,0.0000,0.0000,0.0000,0.000,0.000,0.000,397,2,356,359,389,2025-06-03T10:28:36.222401
1738,0.0000,0.0000,0.0000,0.000,0.000,0.000,367,2,351,362,388,2025-06-03T10:28:36.222401
1739,0.0000,0.0000,0.0000,0.000,0.000,0.000,349,1,357,369,394,2025-06-03T10:28:36.222401
1740,0.0000,0.0000,0.0000,0.000,0.000,0.000,366,2,362,344,396,2025-06-03T10:28:36.222401
1741,0.0000,0.0000,0.0000,0.000,0.000,0.000,354,2,338,362,405,2025-06-03T10:28:36.222401
1742,0.0000,0.0000,0.0000,0.000,0.000,0.000,369,2,353,364,392,2025-06-03T10:28:36.222401
1743,0.0000,0.0000,0.0000,0.000,0.000,0.000,349,1,357,372,386,2025-06-03T10:28:36.222401
1744,0.0000,0.0000,0.0000,0.000,0.000,0.000,345,2,362,396,356,2025-06-03T10:28:36.222401
1745,0.0000,0.0000,0.0000,0.000,0.000,0.000,344,1,361,386,383,2025-06-03T10:28:36.434759
1746,0.0000,0.0000,0.0000,0.000,0.000,0.000,367,1,364,397,395,2025-06-03T10:28:36.434759
1747,0.0000,0.0000,0.0000,0.000,0.000,0.000,376,2,371,397,397,2025-06-03T10:28:36.434759
1748,0.0000,0.0000,0.0000,0.000,0.000,0.000,389,1,373,389,395,2025-06-03T10:28:36.434759
1749,0.0000,0.0000,0.0000,0.000,0.000,0.000,385,1,349,380,359,2025-06-03T10:28:36.434759
1750,0.0000,0.0000,0.0000,0.000,0.000,0.000,385,1,348,371,384,2025-06-03T10:28:36.434759
1751,0.0000,0.0000,0.0000,0.000,0.000,0.000,396,1,352,388,346,2025-06-03T10:28:36.434759
1752,0.0000,0.0000,0.0000,0.000,0.000,0.000,396,1,335,388,338,2025-06-03T10:28:36.434759
1753,0.0000,0.0000,0.0000,0.000,0.000,0.000,391,1,340,362,365,2025-06-03T10:28:36.434759
1754,0.0000,0.0000,0.0000,0.000,0.000,0.000,391,1,343,387,381,2025-06-03T10:28:36.434759
1755,0.0000,0.0000,0.0000,0.000,0.000,0.000,398,2,350,351,370,2025-06-03T10:28:36.434759
1756,0.0000,0.0000,0.0000,0.000,0.000,0.000,400,1,329,361,391,2025-06-03T10:28:36.434759
1757,0.0000,0.0000,0.0000,0.000,0.000,0.000,392,2,338,353,384,2025-06-03T10:28:36.434759
1758,0.0000,0.0000,0.0000,0.000,0.000,0.000,367,2,353,377,396,2025-06-03T10:28:36.434759
1759,0.0000,0.0000,0.0000,0.000,0.000,0.000,375,2,365,378,370,2025-06-03T10:28:36.434759
1760,0.0000,0.0000,0.0000,0.000,0.000,0.000,377,2,367,387,389,2025-06-03T10:28:36.434759
1761,0.0000,0.0000,0.0000,0.000,0.000,0.000,388,2,377,385,392,2025-06-03T10:28:36.434759
1762,0.0000,0.0000,0.0000,0.000,0.000,0.000,385,1,366,388,397,2025-06-03T10:28:36.434759
1763,0.0000,0.0000,0.0000,0.000,0.000,0.000,390,1,364,386,406,2025-06-03T10:28:36.434759
1764,0.0000,0.0000,0.0000,0.000,0.000,0.000,387,2,359,400,395,2025-06-03T10:28:36.640778
1765,0.0000,0.0000,0.0000,0.000,0.000,0.000,384,2,362,396,390,2025-06-03T10:28:36.640778
1766,0.0000,0.0000,0.0000,0.000,0.000,0.000,382,2,361,352,358,2025-06-03T10:28:36.640778
1767,0.0000,0.0000,0.0000,0.000,0.000,0.000,395,2,359,360,380,2025-06-03T10:28:36.640778
1768,0.0000,0.0000,0.0000,0.000,0.000,0.000,399,1,360,376,397,2025-06-03T10:28:36.640778
1769,0.0000,0.0000,0.0000,0.000,0.000,0.000,388,0,335,375,399,2025-06-03T10:28:36.640778
1770,0.0000,0.0000,0.0000,0.000,0.000,0.000,395,1,346,401,392,2025-06-03T10:28:36.640778
1771,0.0000,0.0000,0.0000,0.000,0.000,0.000,401,1,356,408,395,2025-06-03T10:28:36.640778
1772,0.0000,0.0000,0.0000,0.000,0.000,0.000,398,1,352,359,382,2025-06-03T10:28:36.640778
1773,0.0000,0.0000,0.0000,0.000,0.000,0.000,405,2,353,382,391,2025-06-03T10:28:36.640778
1774,0.0000,0.0000,0.0000,0.000,0.000,0.000,403,2,364,400,400,2025-06-03T10:28:36.640778
1775,0.0000,0.0000,0.0000,0.000,0.000,0.000,410,1,366,383,395,2025-06-03T10:28:36.640778
1776,0.0000,0.0000,0.0000,0.000,0.000,0.000,407,2,369,382,388,2025-06-03T10:28:36.640778
1777,0.0000,0.0000,0.0000,0.000,0.000,0.000,373,2,363,343,390,2025-06-03T10:28:36.640778
1778,0.0000,0.0000,0.0000,0.000,0.000,0.000,376,1,365,363,399,2025-06-03T10:28:36.640778
1779,0.0000,0.0000,0.0000,0.000,0.000,0.000,375,2,371,390,390,2025-06-03T10:28:36.784566
1780,0.0000,0.0000,0.0000,0.000,0.000,0.000,380,2,374,396,323,2025-06-03T10:28:36.784566
1781,0.0000,0.0000,0.0000,0.000,0.000,0.000,378,1,377,393,350,2025-06-03T10:28:36.784566
1782,0.0000,0.0000,0.0000,0.000,0.000,0.000,363,1,378,391,363,2025-06-03T10:28:36.784566
1783,0.0000,0.0000,0.0000,0.000,0.000,0.000,377,2,379,395,372,2025-06-03T10:28:36.784566
1784,0.0000,0.0000,0.0000,0.000,0.000,0.000,385,1,374,386,377,2025-06-03T10:28:36.784566
1785,0.0000,0.0000,0.0000,0.000,0.000,0.000,388,2,372,385,387,2025-06-03T10:28:36.784566
1786,0.0000,0.0000,0.0000,0.000,0.000,0.000,385,2,376,399,388,2025-06-03T10:28:36.784566
1787,0.0000,0.0000,0.0000,0.000,0.000,0.000,390,1,370,410,400,2025-06-03T10:28:36.784566
1788,0.0000,0.0000,0.0000,0.000,0.000,0.000,395,1,365,407,399,2025-06-03T10:28:36.784566
1789,0.0000,0.0000,0.0000,0.000,0.000,0.000,397,2,370,403,395,2025-06-03T10:28:36.784566
1790,0.0000,0.0000,0.0000,0.000,0.000,0.000,397,1,362,399,383,2025-06-03T10:28:36.784566
1791,0.0000,0.0000,0.0000,0.000,0.000,0.000,384,1,358,401,379,2025-06-03T10:28:36.784566
1792,0.0000,0.0000,0.0000,0.000,0.000,0.000,391,2,356,394,385,2025-06-03T10:28:36.789553
1793,0.0000,0.0000,0.0000,0.000,0.000,0.000,400,1,364,368,395,2025-06-03T10:28:36.789553
1794,0.0000,0.0000,0.0000,0.000,0.000,0.000,392,2,366,395,358,2025-06-03T10:28:36.789553
1795,0.0000,0.0000,0.0000,0.000,0.000,0.000,392,2,366,392,382,2025-06-03T10:28:36.789553
1796,0.0000,0.0000,0.0000,0.000,0.000,0.000,397,2,347,352,343,2025-06-03T10:28:36.789553
1797,0.0000,0.0000,0.0000,0.000,0.000,0.000,399,1,348,378,380,2025-06-03T10:28:36.841588
1798,0.0000,0.0000,0.0000,0.000,0.000,0.000,403,2,352,397,385,2025-06-03T10:28:36.841588
1799,0.0000,0.0000,0.0000,0.000,0.000,0.000,369,2,352,402,365,2025-06-03T10:28:36.841588
1800,0.0000,0.0000,0.0000,0.000,0.000,0.000,370,2,361,400,385,2025-06-03T10:28:36.841588
1801,0.0000,0.0000,0.0000,0.000,0.000,0.000,376,1,356,405,387,2025-06-03T10:28:36.841588
1802,0.0000,0.0000,0.0000,0.000,0.000,0.000,386,1,358,410,404,2025-06-03T10:28:36.943657
1803,0.0000,0.0000,0.0000,0.000,0.000,0.000,382,2,359,406,392,2025-06-03T10:28:36.943657
1804,0.0000,0.0000,0.0000,0.000,0.000,0.000,390,2,355,387,382,2025-06-03T10:28:36.943657
1805,0.0000,0.0000,0.0000,0.000,0.000,0.000,397,2,337,393,380,2025-06-03T10:28:36.943657
1806,0.0000,0.0000,0.0000,0.000,0.000,0.000,393,2,344,392,359,2025-06-03T10:28:36.943657
1807,0.0000,0.0000,0.0000,0.000,0.000,0.000,395,1,355,385,336,2025-06-03T10:28:36.943657
1808,0.0000,0.0000,0.0000,0.000,0.000,0.000,396,2,364,401,375,2025-06-03T10:28:36.943657
1809,0.0000,0.0000,0.0000,0.000,0.000,0.000,396,1,368,417,387,2025-06-03T10:28:36.943657
1810,0.0000,0.0000,0.0000,0.000,0.000,0.000,400,1,371,402,360,2025-06-03T10:28:36.943657
1811,0.0000,0.0000,0.0000,0.000,0.000,0.000,404,1,362,405,382,2025-06-03T10:28:37.144555
1812,0.0000,0.0000,0.0000,0.000,0.000,0.000,379,2,366,411,389,2025-06-03T10:28:37.144555
1813,0.0000,0.0000,0.0000,0.000,0.000,0.000,388,1,369,393,390,2025-06-03T10:28:37.144555
1814,0.0000,0.0000,0.0000,0.000,0.000,0.000,364,1,368,364,390,2025-06-03T10:28:37.144555
1815,0.0000,0.0000,0.0000,0.000,0.000,0.000,353,1,361,389,399,2025-06-03T10:28:37.144555
1816,0.0000,0.0000,0.0000,0.000,0.000,0.000,364,2,343,376,403,2025-06-03T10:28:37.144555
1817,0.0000,0.0000,0.0000,0.000,0.000,0.000,371,2,348,390,397,2025-06-03T10:28:37.144555
1818,0.0000,0.0000,0.0000,0.000,0.000,0.000,370,1,354,393,396,2025-06-03T10:28:37.144555
1819,0.0000,0.0000,0.0000,0.000,0.000,0.000,358,2,356,396,390,2025-06-03T10:28:37.144555
1820,0.0000,0.0000,0.0000,0.000,0.000,0.000,382,2,360,406,403,2025-06-03T10:28:37.144555
1821,0.0000,0.0000,0.0000,0.000,0.000,0.000,388,2,366,364,401,2025-06-03T10:28:37.144555
1822,0.0000,0.0000,0.0000,0.000,0.000,0.000,392,1,358,374,393,2025-06-03T10:28:37.144555
1823,0.0000,0.0000,0.0000,0.000,0.000,0.000,402,1,364,396,372,2025-06-03T10:28:37.144555
1824,0.0000,0.0000,0.0000,0.000,0.000,0.000,344,2,369,380,383,2025-06-03T10:28:37.144555
1825,0.0000,0.0000,0.0000,0.000,0.000,0.000,357,1,369,396,358,2025-06-03T10:28:37.144555
1826,0.0000,0.0000,0.0000,0.000,0.000,0.000,376,1,372,388,367,2025-06-03T10:28:37.144555
1827,0.0000,0.0000,0.0000,0.000,0.000,0.000,385,1,342,358,382,2025-06-03T10:28:37.144555
1828,0.0000,0.0000,0.0000,0.000,0.000,0.000,387,2,353,376,400,2025-06-03T10:28:37.144555
1829,0.0000,0.0000,0.0000,0.000,0.000,0.000,382,1,358,384,395,2025-06-03T10:28:37.144555
1830,0.0000,0.0000,0.0000,0.000,0.000,0.000,394,2,361,387,402,2025-06-03T10:28:37.201665
1831,0.0000,0.0000,0.0000,0.000,0.000,0.000,362,1,365,396,404,2025-06-03T10:28:37.201665
1832,0.0000,0.0000,0.0000,0.000,0.000,0.000,382,2,373,402,402,2025-06-03T10:28:37.201665
1833,0.0000,0.0000,0.0000,0.000,0.000,0.000,389,1,365,398,398,2025-06-03T10:28:37.201665
1834,0.0000,0.0000,0.0000,0.000,0.000,0.000,387,1,365,380,382,2025-06-03T10:28:37.201665
1835,0.0000,0.0000,0.0000,0.000,0.000,0.000,364,1,360,387,381,2025-06-03T10:28:37.255597
1836,0.0000,0.0000,0.0000,0.000,0.000,0.000,349,1,370,399,380,2025-06-03T10:28:37.255597
1837,0.0000,0.0000,0.0000,0.000,0.000,0.000,348,2,375,404,357,2025-06-03T10:28:37.255597
1838,0.0000,0.0000,0.0000,0.000,0.000,0.000,375,2,372,402,336,2025-06-03T10:28:37.255597
1839,0.0000,0.0000,0.0000,0.000,0.000,0.000,380,1,371,388,364,2025-06-03T10:28:37.350658
1840,0.0000,0.0000,0.0000,0.000,0.000,0.000,394,1,371,388,307,2025-06-03T10:28:37.350658
1841,0.0000,0.0000,0.0000,0.000,0.000,0.000,402,1,365,382,280,2025-06-03T10:28:37.350658
1842,0.0000,0.0000,0.0000,0.000,0.000,0.000,372,1,364,385,338,2025-06-03T10:28:37.350658
1843,0.0000,0.0000,0.0000,0.000,0.000,0.000,379,2,373,398,365,2025-06-03T10:28:37.350658
1844,0.0000,0.0000,0.0000,0.000,0.000,0.000,382,1,375,360,332,2025-06-03T10:28:37.350658
1845,0.0000,0.0000,0.0000,0.000,0.000,0.000,381,1,370,374,362,2025-06-03T10:28:37.350658
1846,0.0000,0.0000,0.0000,0.000,0.000,0.000,382,2,349,382,370,2025-06-03T10:28:37.350658
1847,0.0000,0.0000,0.0000,0.000,0.000,0.000,362,1,355,390,394,2025-06-03T10:28:37.350658
1848,0.0000,0.0000,0.0000,0.000,0.000,0.000,349,1,360,398,391,2025-06-03T10:28:37.350658
1849,0.0000,0.0000,0.0000,0.000,0.000,0.000,369,1,369,391,391,2025-06-03T10:28:37.403500
1850,0.0000,0.0000,0.0000,0.000,0.000,0.000,381,1,366,398,360,2025-06-03T10:28:37.403500
1851,0.0000,0.0000,0.0000,0.000,0.000,0.000,385,1,366,390,342,2025-06-03T10:28:37.403500
1852,0.0000,0.0000,0.0000,0.000,0.000,0.000,386,2,364,387,366,2025-06-03T10:28:37.403500
1853,0.0000,0.0000,0.0000,0.000,0.000,0.000,400,2,363,391,384,2025-06-03T10:28:37.661466
1854,0.0000,0.0000,0.0000,0.000,0.000,0.000,392,1,364,402,397,2025-06-03T10:28:37.661466
1855,0.0000,0.0000,0.0000,0.000,0.000,0.000,391,2,372,403,389,2025-06-03T10:28:37.661466
1856,0.0000,0.0000,0.0000,0.000,0.000,0.000,398,2,373,406,356,2025-06-03T10:28:37.661466
1857,0.0000,0.0000,0.0000,0.000,0.000,0.000,396,2,377,399,380,2025-06-03T10:28:37.661466
1858,0.0000,0.0000,0.0000,0.000,0.000,0.000,401,2,373,395,380,2025-06-03T10:28:37.661466
1859,0.0000,0.0000,0.0000,0.000,0.000,0.000,400,1,363,382,394,2025-06-03T10:28:37.661466
1860,0.0000,0.0000,0.0000,0.000,0.000,0.000,396,1,365,398,390,2025-06-03T10:28:37.661466
1861,0.0000,0.0000,0.0000,0.000,0.000,0.000,396,1,367,391,386,2025-06-03T10:28:37.661466
1862,0.0000,0.0000,0.0000,0.000,0.000,0.000,404,2,362,387,384,2025-06-03T10:28:37.661466
1863,0.0000,0.0000,0.0000,0.000,0.000,0.000,410,1,366,384,355,2025-06-03T10:28:37.661466
1864,0.0000,0.0000,0.0000,0.000,0.000,0.000,397,1,367,379,371,2025-06-03T10:28:37.661466
1865,0.0000,0.0000,0.0000,0.000,0.000,0.000,399,2,372,388,375,2025-06-03T10:28:37.661466
1866,0.0000,0.0000,0.0000,0.000,0.000,0.000,400,1,366,381,382,2025-06-03T10:28:37.661466
1867,0.0000,0.0000,0.0000,0.000,0.000,0.000,393,1,360,391,381,2025-06-03T10:28:37.661466
1868,0.0000,0.0000,0.0000,0.000,0.000,0.000,386,2,369,391,384,2025-06-03T10:28:37.661466
1869,0.0000,0.0000,0.0000,0.000,0.000,0.000,385,2,349,389,393,2025-06-03T10:28:37.661466
1870,0.0000,0.0000,0.0000,0.000,0.000,0.000,361,2,360,319,376,2025-06-03T10:28:37.661466
1871,0.0000,0.0000,0.0000,0.000,0.000,0.000,350,2,353,350,399,2025-06-03T10:28:37.661466
1872,0.0000,0.0000,0.0000,0.000,0.000,0.000,370,2,365,379,400,2025-06-03T10:28:37.661466
1873,0.0000,0.0000,0.0000,0.000,0.000,0.000,375,1,346,380,389,2025-06-03T10:28:37.661466
1874,0.0000,0.0000,0.0000,0.000,0.000,0.000,384,2,354,384,364,2025-06-03T10:28:37.661466
1875,0.0000,0.0000,0.0000,0.000,0.000,0.000,353,2,359,386,352,2025-06-03T10:28:37.765190
1876,0.0000,0.0000,0.0000,0.000,0.000,0.000,382,2,370,380,381,2025-06-03T10:28:37.765190
1877,0.0000,0.0000,0.0000,0.000,0.000,0.000,379,2,370,319,382,2025-06-03T10:28:37.765190
1878,0.0000,0.0000,0.0000,0.000,0.000,0.000,366,1,366,320,355,2025-06-03T10:28:37.765190
1879,0.0000,0.0000,0.0000,0.000,0.000,0.000,371,2,363,346,387,2025-06-03T10:28:37.765190
1880,0.0000,0.0000,0.0000,0.000,0.000,0.000,387,2,374,382,324,2025-06-03T10:28:37.765190
1881,0.0000,0.0000,0.0000,0.000,0.000,0.000,388,1,368,391,363,2025-06-03T10:28:37.765190
1882,0.0000,0.0000,0.0000,0.000,0.000,0.000,395,2,368,388,370,2025-06-03T10:28:37.765190
1883,0.0000,0.0000,0.0000,0.000,0.000,0.000,393,2,365,381,386,2025-06-03T10:28:37.765190
1884,0.0000,0.0000,0.0000,0.000,0.000,0.000,364,2,369,397,392,2025-06-03T10:28:37.765190
1885,0.0000,0.0000,0.0000,0.000,0.000,0.000,345,1,362,387,391,2025-06-03T10:28:37.766196
1886,0.0000,0.0000,0.0000,0.000,0.000,0.000,360,2,367,384,355,2025-06-03T10:28:37.766196
1887,0.0000,0.0000,0.0000,0.000,0.000,0.000,370,2,371,382,380,2025-06-03T10:28:37.972692
1888,0.0000,0.0000,0.0000,0.000,0.000,0.000,373,1,368,351,375,2025-06-03T10:28:37.972692
1889,0.0000,0.0000,0.0000,0.000,0.000,0.000,385,2,363,364,393,2025-06-03T10:28:37.972692
1890,0.0000,0.0000,0.0000,0.000,0.000,0.000,383,2,371,385,388,2025-06-03T10:28:37.972692
1891,0.0000,0.0000,0.0000,0.000,0.000,0.000,394,2,367,376,365,2025-06-03T10:28:37.972692
1892,0.0000,0.0000,0.0000,0.000,0.000,0.000,386,1,368,348,377,2025-06-03T10:28:37.972692
1893,0.0000,0.0000,0.0000,0.000,0.000,0.000,363,1,367,371,396,2025-06-03T10:28:37.972692
1894,0.0000,0.0000,0.0000,0.000,0.000,0.000,385,1,367,389,400,2025-06-03T10:28:37.972692
1895,0.0000,0.0000,0.0000,0.000,0.000,0.000,358,2,371,395,385,2025-06-03T10:28:37.972692
1896,0.0000,0.0000,0.0000,0.000,0.000,0.000,380,1,366,404,399,2025-06-03T10:28:37.972692
1897,0.0000,0.0000,0.0000,0.000,0.000,0.000,357,2,371,405,403,2025-06-03T10:28:37.972692
1898,0.0000,0.0000,0.0000,0.000,0.000,0.000,344,1,348,392,390,2025-06-03T10:28:37.972692
1899,0.0000,0.0000,0.0000,0.000,0.000,0.000,338,1,347,386,391,2025-06-03T10:28:37.972692
1900,0.0000,0.0000,0.0000,0.000,0.000,0.000,357,1,357,401,381,2025-06-03T10:28:37.972692
1901,0.0000,0.0000,0.0000,0.000,0.000,0.000,379,1,361,392,352,2025-06-03T10:28:37.972692
1902,0.0000,0.0000,0.0000,0.000,0.000,0.000,382,1,363,352,376,2025-06-03T10:28:37.972692
1903,0.0000,0.0000,0.0000,0.000,0.000,0.000,356,2,362,347,371,2025-06-03T10:28:37.972692
1904,0.0000,0.0000,0.0000,0.000,0.000,0.000,372,2,359,360,390,2025-06-03T10:28:37.972692
1905,0.0000,0.0000,0.0000,0.000,0.000,0.000,380,1,368,383,397,2025-06-03T10:28:37.972692
1906,0.0000,0.0000,0.0000,0.000,0.000,0.000,394,2,367,392,407,2025-06-03T10:28:38.177144
1907,0.0000,0.0000,0.0000,0.000,0.000,0.000,384,1,365,386,394,2025-06-03T10:28:38.177144
1908,0.0000,0.0000,0.0000,0.000,0.000,0.000,366,1,369,392,365,2025-06-03T10:28:38.177144
1909,0.0000,0.0000,0.0000,0.000,0.000,0.000,383,2,364,351,373,2025-06-03T10:28:38.177144
1910,0.0000,0.0000,0.0000,0.000,0.000,0.000,390,1,360,380,380,2025-06-03T10:28:38.177144
1911,0.0000,0.0000,0.0000,0.000,0.000,0.000,388,1,363,390,390,2025-06-03T10:28:38.177144
1912,0.0000,0.0000,0.0000,0.000,0.000,0.000,402,1,366,406,391,2025-06-03T10:28:38.177144
1913,0.0000,0.0000,0.0000,0.000,0.000,0.000,391,2,372,406,389,2025-06-03T10:28:38.177144
1914,0.0000,0.0000,0.0000,0.000,0.000,0.000,398,1,365,404,386,2025-06-03T10:28:38.177144
1915,0.0000,0.0000,0.0000,0.000,0.000,0.000,397,1,366,411,383,2025-06-03T10:28:38.177144
1916,0.0000,0.0000,0.0000,0.000,0.000,0.000,389,1,361,404,398,2025-06-03T10:28:38.177144
1917,0.0000,0.0000,0.0000,0.000,0.000,0.000,398,1,360,394,394,2025-06-03T10:28:38.177144
1918,0.0000,0.0000,0.0000,0.000,0.000,0.000,376,2,358,354,398,2025-06-03T10:28:38.177144
1919,0.0000,0.0000,0.0000,0.000,0.000,0.000,381,1,363,372,403,2025-06-03T10:28:38.177144
1920,0.0000,0.0000,0.0000,0.000,0.000,0.000,396,2,367,372,401,2025-06-03T10:28:38.177144
1921,0.0000,0.0000,0.0000,0.000,0.000,0.000,403,1,369,376,404,2025-06-03T10:28:38.177144
1922,0.0000,0.0000,0.0000,0.000,0.000,0.000,398,1,372,347,397,2025-06-03T10:28:38.177144
1923,0.0000,0.0000,0.0000,0.000,0.000,0.000,392,2,377,362,359,2025-06-03T10:28:38.177144
1924,0.0000,0.0000,0.0000,0.000,0.000,0.000,363,2,368,366,373,2025-06-03T10:28:38.177144
1925,0.0000,0.0000,0.0000,0.000,0.000,0.000,380,1,368,349,378,2025-06-03T10:28:38.224694
1926,0.0000,0.0000,0.0000,0.000,0.000,0.000,352,2,369,383,378,2025-06-03T10:28:38.224694
1927,0.0000,0.0000,0.0000,0.000,0.000,0.000,377,2,377,380,380,2025-06-03T10:28:38.224694
1928,0.0000,0.0000,0.0000,0.000,0.000,0.000,389,1,369,393,392,2025-06-03T10:28:38.224694
1929,0.0000,0.0000,0.0000,0.000,0.000,0.000,399,1,365,382,403,2025-06-03T10:28:38.347701
1930,0.0000,0.0000,0.0000,0.000,0.000,0.000,395,2,370,363,391,2025-06-03T10:28:38.347701
1931,0.0000,0.0000,0.0000,0.000,0.000,0.000,388,2,340,384,369,2025-06-03T10:28:38.347701
1932,0.0000,0.0000,0.0000,0.000,0.000,0.000,386,1,352,402,387,2025-06-03T10:28:38.347701
1933,0.0000,0.0000,0.0000,0.000,0.000,0.000,393,1,364,398,393,2025-06-03T10:28:38.347701
1934,0.0000,0.0000,0.0000,0.000,0.000,0.000,404,2,347,396,400,2025-06-03T10:28:38.389374
1935,0.0000,0.0000,0.0000,0.000,0.000,0.000,380,2,350,408,400,2025-06-03T10:28:38.389374
1936,0.0000,0.0000,0.0000,0.000,0.000,0.000,399,1,357,405,397,2025-06-03T10:28:38.389374
1937,0.0000,0.0000,0.0000,0.000,0.000,0.000,398,2,358,409,393,2025-06-03T10:28:38.389374
1938,0.0000,0.0000,0.0000,0.000,0.000,0.000,405,2,368,415,383,2025-06-03T10:28:38.389374
1939,0.0000,0.0000,0.0000,0.000,0.000,0.000,396,2,371,400,354,2025-06-03T10:28:38.389374
1940,0.0000,0.0000,0.0000,0.000,0.000,0.000,405,1,371,387,379,2025-06-03T10:28:38.389374
1941,0.0000,0.0000,0.0000,0.000,0.000,0.000,405,2,376,398,381,2025-06-03T10:28:38.389374
1942,0.0000,0.0000,0.0000,0.000,0.000,0.000,393,2,351,378,381,2025-06-03T10:28:38.389374
1943,0.0000,0.0000,0.0000,0.000,0.000,0.000,394,1,357,383,383,2025-06-03T10:28:38.389374
1944,0.0000,0.0000,0.0000,0.000,0.000,0.000,402,2,366,408,391,2025-06-03T10:28:38.585767
1945,0.0000,0.0000,0.0000,0.000,0.000,0.000,404,2,377,416,361,2025-06-03T10:28:38.585767
1946,0.0000,0.0000,0.0000,0.000,0.000,0.000,410,2,381,398,394,2025-06-03T10:28:38.585767
1947,0.0000,0.0000,0.0000,0.000,0.000,0.000,433,2,393,368,388,2025-06-03T10:28:38.585767
1948,0.0000,0.0000,0.0000,0.000,0.000,0.000,419,1,378,385,389,2025-06-03T10:28:38.585767
1949,0.0000,0.0000,0.0000,0.000,0.000,0.000,420,1,382,406,368,2025-06-03T10:28:38.585767
1950,0.0000,0.0000,0.0000,0.000,0.000,0.000,419,1,376,409,383,2025-06-03T10:28:38.585767
1951,0.0000,0.0000,0.0000,0.000,0.000,0.000,387,1,358,382,375,2025-06-03T10:28:38.585767
1952,0.0000,0.0000,0.0000,0.000,0.000,0.000,386,1,356,340,332,2025-06-03T10:28:38.585767
1953,0.0000,0.0000,0.0000,0.000,0.000,0.000,386,2,356,287,355,2025-06-03T10:28:38.585767
1954,0.0000,0.0000,0.0000,0.000,0.000,0.000,376,1,354,317,367,2025-06-03T10:28:38.585767
1955,0.0000,0.0000,0.0000,0.000,0.000,0.000,383,1,351,343,377,2025-06-03T10:28:38.585767
1956,0.0000,0.0000,0.0000,0.000,0.000,0.000,373,1,349,366,379,2025-06-03T10:28:38.585767
1957,0.0000,0.0000,0.0000,0.000,0.000,0.000,381,1,346,378,387,2025-06-03T10:28:38.585767
1958,0.0000,0.0000,0.0000,0.000,0.000,0.000,380,2,353,380,378,2025-06-03T10:28:38.585767
1959,0.0000,0.0000,0.0000,0.000,0.000,0.000,375,2,356,384,382,2025-06-03T10:28:38.585767
1960,0.0000,0.0000,0.0000,0.000,0.000,0.000,390,1,361,399,390,2025-06-03T10:28:38.585767
1961,0.0000,0.0000,0.0000,0.000,0.000,0.000,392,1,364,395,389,2025-06-03T10:28:38.585767
1962,0.0000,0.0000,0.0000,0.000,0.000,0.000,394,1,358,402,349,2025-06-03T10:28:38.585767
1963,0.0000,0.0000,0.0000,0.000,0.000,0.000,388,1,355,393,334,2025-06-03T10:28:38.791543
1964,0.0000,0.0000,0.0000,0.000,0.000,0.000,396,1,357,392,321,2025-06-03T10:28:38.791543
1965,0.0000,0.0000,0.0000,0.000,0.000,0.000,399,1,360,401,358,2025-06-03T10:28:38.791543
1966,0.0000,0.0000,0.0000,0.000,0.000,0.000,361,2,361,399,377,2025-06-03T10:28:38.791543
1967,0.0000,0.0000,0.0000,0.000,0.000,0.000,369,1,363,382,376,2025-06-03T10:28:38.791543
1968,0.0000,0.0000,0.0000,0.000,0.000,0.000,357,3,338,392,380,2025-06-03T10:28:38.791543
1969,0.0000,0.0000,0.0000,0.000,0.000,0.000,340,0,322,393,347,2025-06-03T10:28:38.791543
1970,0.0000,0.0000,0.0000,0.000,0.000,0.000,355,1,339,396,336,2025-06-03T10:28:38.791543
1971,0.0000,0.0000,0.0000,0.000,0.000,0.000,380,1,345,400,370,2025-06-03T10:28:38.791543
1972,0.0000,0.0000,0.0000,0.000,0.000,0.000,330,1,352,379,386,2025-06-03T10:28:38.791543
1973,0.0000,0.0000,0.0000,0.000,0.000,0.000,336,1,333,382,381,2025-06-03T10:28:38.791543
1974,0.0000,0.0000,0.0000,0.000,0.000,0.000,360,1,350,382,389,2025-06-03T10:28:38.791543
1975,0.0000,0.0000,0.0000,0.000,0.000,0.000,373,1,350,391,383,2025-06-03T10:28:38.791543
1976,0.0000,0.0000,0.0000,0.000,0.000,0.000,378,2,335,379,384,2025-06-03T10:28:38.791543
1977,0.0000,0.0000,0.0000,0.000,0.000,0.000,388,1,324,347,347,2025-06-03T10:28:38.791543
1978,0.0000,0.0000,0.0000,0.000,0.000,0.000,381,1,330,343,359,2025-06-03T10:28:38.791543
1979,0.0000,0.0000,0.0000,0.000,0.000,0.000,389,1,339,363,368,2025-06-03T10:28:38.791543
1980,0.0000,0.0000,0.0000,0.000,0.000,0.000,360,0,328,305,359,2025-06-03T10:28:38.791543
1981,0.0000,0.0000,0.0000,0.000,0.000,0.000,377,1,314,328,370,2025-06-03T10:28:38.791543
1982,0.0000,0.0000,0.0000,0.000,0.000,0.000,383,3,317,363,393,2025-06-03T10:28:38.995142
1983,0.0000,0.0000,0.0000,0.000,0.000,0.000,390,2,289,364,398,2025-06-03T10:28:38.995142
1984,0.0000,0.0000,0.0000,0.000,0.000,0.000,390,2,318,392,390,2025-06-03T10:28:38.995142
1985,0.0000,0.0000,0.0000,0.000,0.000,0.000,366,2,330,357,379,2025-06-03T10:28:38.995142
1986,0.0000,0.0000,0.0000,0.000,0.000,0.000,380,1,331,378,379,2025-06-03T10:28:38.995142
1987,0.0000,0.0000,0.0000,0.000,0.000,0.000,385,1,322,387,375,2025-06-03T10:28:38.995142
1988,0.0000,0.0000,0.0000,0.000,0.000,0.000,382,2,341,396,350,2025-06-03T10:28:38.995142
1989,0.0000,0.0000,0.0000,0.000,0.000,0.000,379,1,326,386,363,2025-06-03T10:28:38.995142
1990,0.0000,0.0000,0.0000,0.000,0.000,0.000,384,2,341,385,367,2025-06-03T10:28:38.995142
1991,0.0000,0.0000,0.0000,0.000,0.000,0.000,389,1,350,384,382,2025-06-03T10:28:38.995142
1992,0.0000,0.0000,0.0000,0.000,0.000,0.000,367,1,350,391,386,2025-06-03T10:28:38.995142
1993,0.0000,0.0000,0.0000,0.000,0.000,0.000,384,1,351,388,394,2025-06-03T10:28:38.995142
1994,0.0000,0.0000,0.0000,0.000,0.000,0.000,350,1,359,387,350,2025-06-03T10:28:38.995142
1995,0.0000,0.0000,0.0000,0.000,0.000,0.000,369,2,355,344,359,2025-06-03T10:28:38.995142
1996,0.0000,0.0000,0.0000,0.000,0.000,0.000,376,1,357,373,375,2025-06-03T10:28:38.995142
1997,0.0000,0.0000,0.0000,0.000,0.000,0.000,384,1,361,390,387,2025-06-03T10:28:38.995142
1998,0.0000,0.0000,0.0000,0.000,0.000,0.000,375,1,354,379,385,2025-06-03T10:28:38.995142
1999,0.0000,0.0000,0.0000,0.000,0.000,0.000,387,1,360,403,399,2025-06-03T10:28:38.995142
2000,0.0000,0.0000,0.0000,0.000,0.000,0.000,389,2,361,355,386,2025-06-03T10:28:38.995142
2001,0.0000,0.0000,0.0000,0.000,0.000,0.000,395,1,357,380,387,2025-06-03T10:28:39.209528
2002,0.0000,0.0000,0.0000,0.000,0.000,0.000,392,1,354,376,351,2025-06-03T10:28:39.209528
2003,0.0000,0.0000,0.0000,0.000,0.000,0.000,383,2,357,367,370,2025-06-03T10:28:39.209528
2004,0.0000,0.0000,0.0000,0.000,0.000,0.000,384,2,358,375,380,2025-06-03T10:28:39.209528
2005,0.0000,0.0000,0.0000,0.000,0.000,0.000,392,2,357,388,383,2025-06-03T10:28:39.209528
2006,0.0000,0.0000,0.0000,0.000,0.000,0.000,394,1,357,385,393,2025-06-03T10:28:39.210525
2007,0.0000,0.0000,0.0000,0.000,0.000,0.000,395,1,336,402,392,2025-06-03T10:28:39.210525
2008,0.0000,0.0000,0.0000,0.000,0.000,0.000,393,1,345,407,383,2025-06-03T10:28:39.210525
2009,0.0000,0.0000,0.0000,0.000,0.000,0.000,393,1,358,412,380,2025-06-03T10:28:39.210525
2010,0.0000,0.0000,0.0000,0.000,0.000,0.000,367,2,363,399,387,2025-06-03T10:28:39.210525
2011,0.0000,0.0000,0.0000,0.000,0.000,0.000,387,1,368,370,389,2025-06-03T10:28:39.210525
2012,0.0000,0.0000,0.0000,0.000,0.000,0.000,393,1,370,377,399,2025-06-03T10:28:39.210525
2013,0.0000,0.0000,0.0000,0.000,0.000,0.000,397,1,376,353,380,2025-06-03T10:28:39.210525
2014,0.0000,0.0000,0.0000,0.000,0.000,0.000,400,1,377,386,389,2025-06-03T10:28:39.210525
2015,0.0000,0.0000,0.0000,0.000,0.000,0.000,396,1,373,387,399,2025-06-03T10:28:39.210525
2016,0.0000,0.0000,0.0000,0.000,0.000,0.000,368,2,375,394,400,2025-06-03T10:28:39.210525
2017,0.0000,0.0000,0.0000,0.000,0.000,0.000,355,2,375,393,401,2025-06-03T10:28:39.210525
2018,0.0000,0.0000,0.0000,0.000,0.000,0.000,375,1,380,389,386,2025-06-03T10:28:39.210525
2019,0.0000,0.0000,0.0000,0.000,0.000,0.000,391,1,377,395,395,2025-06-03T10:28:39.210525
2020,0.0000,0.0000,0.0000,0.000,0.000,0.000,390,2,380,397,386,2025-06-03T10:28:39.210525
2021,0.0000,0.0000,0.0000,0.000,0.000,0.000,401,2,384,412,392,2025-06-03T10:28:39.455766
2022,0.0000,0.0000,0.0000,0.000,0.000,0.000,409,2,388,413,388,2025-06-03T10:28:39.455766
2023,0.0000,0.0000,0.0000,0.000,0.000,0.000,375,2,387,411,400,2025-06-03T10:28:39.455766
2024,0.0000,0.0000,0.0000,0.000,0.000,0.000,365,2,389,362,393,2025-06-03T10:28:39.455766
2025,0.0000,0.0000,0.0000,0.000,0.000,0.000,384,1,382,348,387,2025-06-03T10:28:39.455766
2026,0.0000,0.0000,0.0000,0.000,0.000,0.000,387,1,376,344,397,2025-06-03T10:28:39.455766
2027,0.0000,0.0000,0.0000,0.000,0.000,0.000,400,2,381,371,363,2025-06-03T10:28:39.455766
2028,0.0000,0.0000,0.0000,0.000,0.000,0.000,396,1,376,377,379,2025-06-03T10:28:39.455766
2029,0.0000,0.0000,0.0000,0.000,0.000,0.000,402,1,372,396,385,2025-06-03T10:28:39.455766
2030,0.0000,0.0000,0.0000,0.000,0.000,0.000,401,1,375,392,353,2025-06-03T10:28:39.455766
2031,0.0000,0.0000,0.0000,0.000,0.000,0.000,402,1,374,388,367,2025-06-03T10:28:39.455766
2032,0.0000,0.0000,0.0000,0.000,0.000,0.000,405,1,365,347,375,2025-06-03T10:28:39.455766
2033,0.0000,0.0000,0.0000,0.000,0.000,0.000,399,1,354,325,368,2025-06-03T10:28:39.455766
2034,0.0000,0.0000,0.0000,0.000,0.000,0.000,376,1,352,331,377,2025-06-03T10:28:39.455766
2035,0.0000,0.0000,0.0000,0.000,0.000,0.000,391,1,337,356,397,2025-06-03T10:28:39.455766
2036,0.0000,0.0000,0.0000,0.000,0.000,0.000,430,1,375,388,416,2025-06-03T10:28:39.455766
2037,0.0000,0.0000,0.0000,0.000,0.000,0.000,404,1,373,350,414,2025-06-03T10:28:39.455766
2038,0.0000,0.0000,0.0000,0.000,0.000,0.000,441,1,390,404,424,2025-06-03T10:28:39.455766
2039,0.0000,0.0000,0.0000,0.000,0.000,0.000,451,2,400,330,418,2025-06-03T10:28:39.455766
2040,0.0000,0.0000,0.0000,0.000,0.000,0.000,397,2,345,344,366,2025-06-03T10:28:39.455766
2041,0.0000,0.0000,0.0000,0.000,0.000,0.000,364,1,344,362,338,2025-06-03T10:28:39.455766
2042,0.0000,0.0000,0.0000,0.000,0.000,0.000,390,2,360,387,359,2025-06-03T10:28:39.455766
2043,0.0000,0.0000,0.0000,0.000,0.000,0.000,391,2,364,391,360,2025-06-03T10:28:39.608822
2044,0.0000,0.0000,0.0000,0.000,0.000,0.000,355,2,356,390,332,2025-06-03T10:28:39.608822
2045,0.0000,0.0000,0.0000,0.000,0.000,0.000,371,2,353,376,363,2025-06-03T10:28:39.608822
2046,0.0000,0.0000,0.0000,0.000,0.000,0.000,349,2,361,398,384,2025-06-03T10:28:39.608822
2047,0.0000,0.0000,0.0000,0.000,0.000,0.000,372,1,358,365,370,2025-06-03T10:28:39.608822
2048,0.0000,0.0000,0.0000,0.000,0.000,0.000,346,2,334,377,343,2025-06-03T10:28:39.608822
2049,0.0000,0.0000,0.0000,0.000,0.000,0.000,364,1,349,379,371,2025-06-03T10:28:39.608822
2050,0.0000,0.0000,0.0000,0.000,0.000,0.000,365,2,351,386,372,2025-06-03T10:28:39.608822
2051,0.0000,0.0000,0.0000,0.000,0.000,0.000,372,2,358,405,376,2025-06-03T10:28:39.608822
2052,0.0000,0.0000,0.0000,0.000,0.000,0.000,351,2,363,397,345,2025-06-03T10:28:39.608822
2053,0.0000,0.0000,0.0000,0.000,0.000,0.000,365,1,357,401,360,2025-06-03T10:28:39.608822
2054,0.0000,0.0000,0.0000,0.000,0.000,0.000,346,1,361,391,364,2025-06-03T10:28:39.608822
2055,0.0000,0.0000,0.0000,0.000,0.000,0.000,309,1,361,353,383,2025-06-03T10:28:39.608822
2056,0.0000,0.0000,0.0000,0.000,0.000,0.000,341,2,368,391,394,2025-06-03T10:28:39.608822
2057,0.0000,0.0000,0.0000,0.000,0.000,0.000,356,1,365,400,352,2025-06-03T10:28:39.608822
2058,0.0000,0.0000,0.0000,0.000,0.000,0.000,376,2,371,401,377,2025-06-03T10:28:39.714243
2059,0.0000,0.0000,0.0000,0.000,0.000,0.000,384,2,368,392,387,2025-06-03T10:28:39.714243
2060,0.0000,0.0000,0.0000,0.000,0.000,0.000,391,2,372,374,385,2025-06-03T10:28:39.714243
2061,0.0000,0.0000,0.0000,0.000,0.000,0.000,386,2,371,371,379,2025-06-03T10:28:39.714243
2062,0.0000,0.0000,0.0000,0.000,0.000,0.000,390,1,373,388,396,2025-06-03T10:28:39.714243
2063,0.0000,0.0000,0.0000,0.000,0.000,0.000,396,2,369,393,394,2025-06-03T10:28:39.714243
2064,0.0000,0.0000,0.0000,0.000,0.000,0.000,394,1,362,403,404,2025-06-03T10:28:39.714243
2065,0.0000,0.0000,0.0000,0.000,0.000,0.000,394,1,340,397,403,2025-06-03T10:28:39.714243
2066,0.0000,0.0000,0.0000,0.000,0.000,0.000,392,2,350,398,403,2025-06-03T10:28:39.714243
2067,0.0000,0.0000,0.0000,0.000,0.000,0.000,384,2,355,402,393,2025-06-03T10:28:39.714243
2068,0.0000,0.0000,0.0000,0.000,0.000,0.000,392,1,358,406,397,2025-06-03T10:28:39.813440
2069,0.0000,0.0000,0.0000,0.000,0.000,0.000,392,2,364,400,400,2025-06-03T10:28:39.813440
2070,0.0000,0.0000,0.0000,0.000,0.000,0.000,370,2,367,387,353,2025-06-03T10:28:39.813440
2071,0.0000,0.0000,0.0000,0.000,0.000,0.000,374,1,359,344,379,2025-06-03T10:28:39.813440
2072,0.0000,0.0000,0.0000,0.000,0.000,0.000,383,2,362,380,396,2025-06-03T10:28:39.813440
2073,0.0000,0.0000,0.0000,0.000,0.000,0.000,394,1,363,371,400,2025-06-03T10:28:39.813440
2074,0.0000,0.0000,0.0000,0.000,0.000,0.000,385,1,364,383,392,2025-06-03T10:28:39.813440
2075,0.0000,0.0000,0.0000,0.000,0.000,0.000,396,1,367,378,391,2025-06-03T10:28:39.813440
2076,0.0000,0.0000,0.0000,0.000,0.000,0.000,399,1,357,370,399,2025-06-03T10:28:39.813440
2077,0.0000,0.0000,0.0000,0.000,0.000,0.000,385,1,361,386,394,2025-06-03T10:28:39.864235
2078,0.0000,0.0000,0.0000,0.000,0.000,0.000,388,1,364,380,394,2025-06-03T10:28:39.864235
2079,0.0000,0.0000,0.0000,0.000,0.000,0.000,390,1,359,388,393,2025-06-03T10:28:39.966743
2080,0.0000,0.0000,0.0000,0.000,0.000,0.000,394,1,339,389,384,2025-06-03T10:28:39.966743
2081,0.0000,0.0000,0.0000,0.000,0.000,0.000,403,1,353,381,389,2025-06-03T10:28:39.966743
2082,0.0000,0.0000,0.0000,0.000,0.000,0.000,372,1,355,403,385,2025-06-03T10:28:39.966743
2083,0.0000,0.0000,0.0000,0.000,0.000,0.000,389,1,364,406,394,2025-06-03T10:28:39.966743
2084,0.0000,0.0000,0.0000,0.000,0.000,0.000,393,2,369,395,392,2025-06-03T10:28:39.966743
2085,0.0000,0.0000,0.0000,0.000,0.000,0.000,398,1,359,384,399,2025-06-03T10:28:39.966743
2086,0.0000,0.0000,0.0000,0.000,0.000,0.000,395,1,364,367,381,2025-06-03T10:28:40.019026
2087,0.0000,0.0000,0.0000,0.000,0.000,0.000,401,1,364,381,391,2025-06-03T10:28:40.019026
2088,0.0000,0.0000,0.0000,0.000,0.000,0.000,393,2,365,375,353,2025-06-03T10:28:40.019026
2089,0.0000,0.0000,0.0000,0.000,0.000,0.000,392,2,366,385,365,2025-06-03T10:28:40.019026
2090,0.0000,0.0000,0.0000,0.000,0.000,0.000,393,1,368,348,345,2025-06-03T10:28:40.019026
2091,0.0000,0.0000,0.0000,0.000,0.000,0.000,362,1,361,378,372,2025-06-03T10:28:40.019026
2092,0.0000,0.0000,0.0000,0.000,0.000,0.000,375,2,368,347,380,2025-06-03T10:28:40.019026
2093,0.0000,0.0000,0.0000,0.000,0.000,0.000,358,2,364,373,396,2025-06-03T10:28:40.019026
2094,0.0000,0.0000,0.0000,0.000,0.000,0.000,381,2,363,341,380,2025-06-03T10:28:40.019026
2095,0.0000,0.0000,0.0000,0.000,0.000,0.000,387,2,360,363,384,2025-06-03T10:28:40.019026
2096,0.0000,0.0000,0.0000,0.000,0.000,0.000,392,1,359,376,357,2025-06-03T10:28:40.066605
2097,0.0000,0.0000,0.0000,0.000,0.000,0.000,390,1,363,371,380,2025-06-03T10:28:40.066605
2098,0.0000,0.0000,0.0000,0.000,0.000,0.000,368,2,360,396,382,2025-06-03T10:28:40.066605
2099,0.0000,0.0000,0.0000,0.000,0.000,0.000,352,2,358,393,388,2025-06-03T10:28:40.066605
2100,0.0000,0.0000,0.0000,0.000,0.000,0.000,366,2,358,358,393,2025-06-03T10:28:40.066605
2101,0.0000,0.0000,0.0000,0.000,0.000,0.000,365,1,355,371,391,2025-06-03T10:28:40.123131
2102,0.0000,0.0000,0.0000,0.000,0.000,0.000,368,2,360,307,385,2025-06-03T10:28:40.123131
2103,0.0000,0.0000,0.0000,0.000,0.000,0.000,381,1,362,363,388,2025-06-03T10:28:40.123131
2104,0.0000,0.0000,0.0000,0.000,0.000,0.000,391,1,344,339,383,2025-06-03T10:28:40.123131
2105,0.0000,0.0000,0.0000,0.000,0.000,0.000,362,1,354,360,364,2025-06-03T10:28:40.123131
2106,0.0000,0.0000,0.0000,0.000,0.000,0.000,353,2,360,368,351,2025-06-03T10:28:40.234108
2107,0.0000,0.0000,0.0000,0.000,0.000,0.000,369,2,367,366,377,2025-06-03T10:28:40.234108
2108,0.0000,0.0000,0.0000,0.000,0.000,0.000,372,1,368,351,374,2025-06-03T10:28:40.234108
2109,0.0000,0.0000,0.0000,0.000,0.000,0.000,359,2,361,359,386,2025-06-03T10:28:40.234108
2110,0.0000,0.0000,0.0000,0.000,0.000,0.000,371,2,361,381,394,2025-06-03T10:28:40.234108
2111,0.0000,0.0000,0.0000,0.000,0.000,0.000,381,2,370,403,400,2025-06-03T10:28:40.234108
2112,0.0000,0.0000,0.0000,0.000,0.000,0.000,383,2,371,407,394,2025-06-03T10:28:40.234108
2113,0.0000,0.0000,0.0000,0.000,0.000,0.000,387,1,374,408,403,2025-06-03T10:28:40.234108
2114,0.0000,0.0000,0.0000,0.000,0.000,0.000,386,1,373,395,388,2025-06-03T10:28:40.234108
2115,0.0000,0.0000,0.0000,0.000,0.000,0.000,368,1,374,406,398,2025-06-03T10:28:40.234108
2116,0.0000,0.0000,0.0000,0.000,0.000,0.000,385,2,383,402,365,2025-06-03T10:28:40.432690
2117,0.0000,0.0000,0.0000,0.000,0.000,0.000,394,1,383,408,384,2025-06-03T10:28:40.432690
2118,0.0000,0.0000,0.0000,0.000,0.000,0.000,407,1,389,406,391,2025-06-03T10:28:40.432690
2119,0.0000,0.0000,0.0000,0.000,0.000,0.000,415,1,387,403,397,2025-06-03T10:28:40.432690
2120,0.0000,0.0000,0.0000,0.000,0.000,0.000,403,1,377,402,393,2025-06-03T10:28:40.432690
2121,0.0000,0.0000,0.0000,0.000,0.000,0.000,407,1,374,400,393,2025-06-03T10:28:40.432690
2122,0.0000,0.0000,0.0000,0.000,0.000,0.000,408,1,373,397,397,2025-06-03T10:28:40.432690
2123,0.0000,0.0000,0.0000,0.000,0.000,0.000,400,1,370,387,394,2025-06-03T10:28:40.432690
2124,0.0000,0.0000,0.0000,0.000,0.000,0.000,399,1,364,346,349,2025-06-03T10:28:40.432690
2125,0.0000,0.0000,0.0000,0.000,0.000,0.000,403,1,364,336,378,2025-06-03T10:28:40.432690
2126,0.0000,0.0000,0.0000,0.000,0.000,0.000,422,1,373,365,357,2025-06-03T10:28:40.432690
2127,0.0000,0.0000,0.0000,0.000,0.000,0.000,441,2,397,388,396,2025-06-03T10:28:40.432690
2128,0.0000,0.0000,0.0000,0.000,0.000,0.000,383,1,375,388,398,2025-06-03T10:28:40.432690
2129,0.0000,0.0000,0.0000,0.000,0.000,0.000,415,2,388,408,380,2025-06-03T10:28:40.432690
2130,0.0000,0.0000,0.0000,0.000,0.000,0.000,402,1,389,412,410,2025-06-03T10:28:40.432690
2131,0.0000,0.0000,0.0000,0.000,0.000,0.000,403,1,374,372,382,2025-06-03T10:28:40.432690
2132,0.0000,0.0000,0.0000,0.000,0.000,0.000,393,2,368,361,376,2025-06-03T10:28:40.432690
2133,0.0000,0.0000,0.0000,0.000,0.000,0.000,364,1,357,377,375,2025-06-03T10:28:40.432690
2134,0.0000,0.0000,0.0000,0.000,0.000,0.000,374,2,364,355,366,2025-06-03T10:28:40.618515
2135,0.0000,0.0000,0.0000,0.000,0.000,0.000,380,2,363,357,363,2025-06-03T10:28:40.618515
2136,0.0000,0.0000,0.0000,0.000,0.000,0.000,384,1,366,368,367,2025-06-03T10:28:40.618515
2137,0.0000,0.0000,0.0000,0.000,0.000,0.000,379,1,359,377,337,2025-06-03T10:28:40.618515
2138,0.0000,0.0000,0.0000,0.000,0.000,0.000,392,1,366,391,370,2025-06-03T10:28:40.618515
2139,0.0000,0.0000,0.0000,0.000,0.000,0.000,356,1,341,399,379,2025-06-03T10:28:40.618515
2140,0.0000,0.0000,0.0000,0.000,0.000,0.000,379,1,354,395,389,2025-06-03T10:28:40.618515
2141,0.0000,0.0000,0.0000,0.000,0.000,0.000,385,2,357,390,400,2025-06-03T10:28:40.618515
2142,0.0000,0.0000,0.0000,0.000,0.000,0.000,359,1,353,391,399,2025-06-03T10:28:40.618515
2143,0.0000,0.0000,0.0000,0.000,0.000,0.000,370,1,356,359,351,2025-06-03T10:28:40.618515
2144,0.0000,0.0000,0.0000,0.000,0.000,0.000,370,1,332,337,377,2025-06-03T10:28:40.618515
2145,0.0000,0.0000,0.0000,0.000,0.000,0.000,383,2,348,344,358,2025-06-03T10:28:40.618515
2146,0.0000,0.0000,0.0000,0.000,0.000,0.000,391,1,330,366,384,2025-06-03T10:28:40.618515
2147,0.0000,0.0000,0.0000,0.000,0.000,0.000,395,1,337,387,395,2025-06-03T10:28:40.618515
2148,0.0000,0.0000,0.0000,0.000,0.000,0.000,392,1,347,386,393,2025-06-03T10:28:40.618515
2149,0.0000,0.0000,0.0000,0.000,0.000,0.000,397,1,346,385,390,2025-06-03T10:28:40.618515
2150,0.0000,0.0000,0.0000,0.000,0.000,0.000,399,2,346,386,387,2025-06-03T10:28:40.618515
2151,0.0000,0.0000,0.0000,0.000,0.000,0.000,391,1,352,355,386,2025-06-03T10:28:40.618515
2152,0.0000,0.0000,0.0000,0.000,0.000,0.000,401,1,353,366,358,2025-06-03T10:28:40.618515
2153,0.0000,0.0000,0.0000,0.000,0.000,0.000,407,2,350,302,373,2025-06-03T10:28:40.840398
2154,0.0000,0.0000,0.0000,0.000,0.000,0.000,405,2,350,353,388,2025-06-03T10:28:40.840398
2155,0.0000,0.0000,0.0000,0.000,0.000,0.000,413,1,336,381,381,2025-06-03T10:28:40.840398
2156,0.0000,0.0000,0.0000,0.000,0.000,0.000,404,1,348,378,383,2025-06-03T10:28:40.840398
2157,0.0000,0.0000,0.0000,0.000,0.000,0.000,394,2,349,393,351,2025-06-03T10:28:40.840398
2158,0.0000,0.0000,0.0000,0.000,0.000,0.000,399,1,333,389,368,2025-06-03T10:28:40.840398
2159,0.0000,0.0000,0.0000,0.000,0.000,0.000,372,1,345,387,376,2025-06-03T10:28:40.840398
2160,0.0000,0.0000,0.0000,0.000,0.000,0.000,376,1,353,386,345,2025-06-03T10:28:40.840398
2161,0.0000,0.0000,0.0000,0.000,0.000,0.000,374,1,352,376,365,2025-06-03T10:28:40.840398
2162,0.0000,0.0000,0.0000,0.000,0.000,0.000,382,2,352,348,376,2025-06-03T10:28:40.840398
2163,0.0000,0.0000,0.0000,0.000,0.000,0.000,377,1,346,368,390,2025-06-03T10:28:40.840398
2164,0.0000,0.0000,0.0000,0.000,0.000,0.000,329,1,346,379,399,2025-06-03T10:28:40.840398
2165,0.0000,0.0000,0.0000,0.000,0.000,0.000,356,1,329,388,361,2025-06-03T10:28:40.840398
2166,0.0000,0.0000,0.0000,0.000,0.000,0.000,364,1,336,396,309,2025-06-03T10:28:40.840398
2167,0.0000,0.0000,0.0000,0.000,0.000,0.000,378,1,346,385,341,2025-06-03T10:28:40.840398
2168,0.0000,0.0000,0.0000,0.000,0.000,0.000,374,1,330,382,338,2025-06-03T10:28:40.840398
2169,0.0000,0.0000,0.0000,0.000,0.000,0.000,383,1,342,352,354,2025-06-03T10:28:40.840398
2170,0.0000,0.0000,0.0000,0.000,0.000,0.000,353,1,346,351,374,2025-06-03T10:28:40.840398
2171,0.0000,0.0000,0.0000,0.000,0.000,0.000,376,1,347,361,371,2025-06-03T10:28:40.840398
2172,0.0000,0.0000,0.0000,0.000,0.000,0.000,379,2,348,373,370,2025-06-03T10:28:40.894816
2173,0.0000,0.0000,0.0000,0.000,0.000,0.000,382,2,360,376,372,2025-06-03T10:28:40.894816
2174,0.0000,0.0000,0.0000,0.000,0.000,0.000,390,2,366,386,387,2025-06-03T10:28:40.894816
2175,0.0000,0.0000,0.0000,0.000,0.000,0.000,363,2,371,391,394,2025-06-03T10:28:40.894816
2176,0.0000,0.0000,0.0000,0.000,0.000,0.000,377,2,373,386,387,2025-06-03T10:28:40.894816
2177,0.0000,0.0000,0.0000,0.000,0.000,0.000,389,1,367,380,363,2025-06-03T10:28:41.042376
2178,0.0000,0.0000,0.0000,0.000,0.000,0.000,390,2,371,345,337,2025-06-03T10:28:41.042376
2179,0.0000,0.0000,0.0000,0.000,0.000,0.000,386,1,362,363,357,2025-06-03T10:28:41.042376
2180,0.0000,0.0000,0.0000,0.000,0.000,0.000,391,2,372,394,375,2025-06-03T10:28:41.042376
2181,0.0000,0.0000,0.0000,0.000,0.000,0.000,401,1,369,385,393,2025-06-03T10:28:41.042376
2182,0.0000,0.0000,0.0000,0.000,0.000,0.000,402,2,348,346,394,2025-06-03T10:28:41.042376
2183,0.0000,0.0000,0.0000,0.000,0.000,0.000,404,2,354,382,404,2025-06-03T10:28:41.042376
2184,0.0000,0.0000,0.0000,0.000,0.000,0.000,393,1,352,390,410,2025-06-03T10:28:41.042376
2185,0.0000,0.0000,0.0000,0.000,0.000,0.000,394,2,353,383,392,2025-06-03T10:28:41.042376
2186,0.0000,0.0000,0.0000,0.000,0.000,0.000,368,2,360,383,394,2025-06-03T10:28:41.042376
2187,0.0000,0.0000,0.0000,0.000,0.000,0.000,390,1,355,384,406,2025-06-03T10:28:41.042376
2188,0.0000,0.0000,0.0000,0.000,0.000,0.000,366,1,362,391,407,2025-06-03T10:28:41.042376
2189,0.0000,0.0000,0.0000,0.000,0.000,0.000,347,1,368,390,401,2025-06-03T10:28:41.042376
2190,0.0000,0.0000,0.0000,0.000,0.000,0.000,372,2,372,388,400,2025-06-03T10:28:41.042376
2191,0.0000,0.0000,0.0000,0.000,0.000,0.000,379,2,376,382,386,2025-06-03T10:28:41.248051
2192,0.0000,0.0000,0.0000,0.000,0.000,0.000,351,1,369,388,388,2025-06-03T10:28:41.248051
2193,0.0000,0.0000,0.0000,0.000,0.000,0.000,361,2,363,391,396,2025-06-03T10:28:41.248051
2194,0.0000,0.0000,0.0000,0.000,0.000,0.000,351,1,357,400,400,2025-06-03T10:28:41.248051
2195,0.0000,0.0000,0.0000,0.000,0.000,0.000,360,2,360,323,393,2025-06-03T10:28:41.248051
2196,0.0000,0.0000,0.0000,0.000,0.000,0.000,363,1,355,376,395,2025-06-03T10:28:41.248051
2197,0.0000,0.0000,0.0000,0.000,0.000,0.000,368,1,367,377,391,2025-06-03T10:28:41.248051
2198,0.0000,0.0000,0.0000,0.000,0.000,0.000,386,1,369,386,403,2025-06-03T10:28:41.248051
2199,0.0000,0.0000,0.0000,0.000,0.000,0.000,395,1,368,396,394,2025-06-03T10:28:41.248051
2200,0.0000,0.0000,0.0000,0.000,0.000,0.000,403,2,368,393,394,2025-06-03T10:28:41.248051
2201,0.0000,0.0000,0.0000,0.000,0.000,0.000,400,1,372,369,394,2025-06-03T10:28:41.248051
2202,0.0000,0.0000,0.0000,0.000,0.000,0.000,404,2,374,396,372,2025-06-03T10:28:41.248051
2203,0.0000,0.0000,0.0000,0.000,0.000,0.000,375,2,368,398,392,2025-06-03T10:28:41.248051
2204,0.0000,0.0000,0.0000,0.000,0.000,0.000,357,2,354,388,354,2025-06-03T10:28:41.248051
2205,0.0000,0.0000,0.0000,0.000,0.000,0.000,384,2,356,393,368,2025-06-03T10:28:41.248051
2206,0.0000,0.0000,0.0000,0.000,0.000,0.000,388,2,372,363,364,2025-06-03T10:28:41.248051
2207,0.0000,0.0000,0.0000,0.000,0.000,0.000,391,1,367,375,385,2025-06-03T10:28:41.248051
2208,0.0000,0.0000,0.0000,0.000,0.000,0.000,395,2,368,385,386,2025-06-03T10:28:41.248051
2209,0.0000,0.0000,0.0000,0.000,0.000,0.000,406,2,372,398,389,2025-06-03T10:28:41.248051
2210,0.0000,0.0000,0.0000,0.000,0.000,0.000,397,2,378,397,392,2025-06-03T10:28:41.453123
2211,0.0000,0.0000,0.0000,0.000,0.000,0.000,370,1,378,405,397,2025-06-03T10:28:41.453123
2212,0.0000,0.0000,0.0000,0.000,0.000,0.000,386,2,371,384,323,2025-06-03T10:28:41.453123
2213,0.0000,0.0000,0.0000,0.000,0.000,0.000,379,2,360,380,360,2025-06-03T10:28:41.453123
2214,0.0000,0.0000,0.0000,0.000,0.000,0.000,376,1,356,355,379,2025-06-03T10:28:41.453123
2215,0.0000,0.0000,0.0000,0.000,0.000,0.000,381,1,364,386,358,2025-06-03T10:28:41.453123
2216,0.0000,0.0000,0.0000,0.000,0.000,0.000,409,1,381,408,386,2025-06-03T10:28:41.453123
2217,0.0000,0.0000,0.0000,0.000,0.000,0.000,418,2,396,415,407,2025-06-03T10:28:41.453123
2218,0.0000,0.0000,0.0000,0.000,0.000,0.000,406,1,382,410,402,2025-06-03T10:28:41.453123
2219,0.0000,0.0000,0.0000,0.000,0.000,0.000,424,1,391,370,367,2025-06-03T10:28:41.453123
2220,0.0000,0.0000,0.0000,0.000,0.000,0.000,424,1,382,389,377,2025-06-03T10:28:41.453123
2221,0.0000,0.0000,0.0000,0.000,0.000,0.000,389,1,366,388,375,2025-06-03T10:28:41.453123
2222,0.0000,0.0000,0.0000,0.000,0.000,0.000,364,2,366,386,336,2025-06-03T10:28:41.453123
2223,0.0000,0.0000,0.0000,0.000,0.000,0.000,381,1,369,378,355,2025-06-03T10:28:41.453123
2224,0.0000,0.0000,0.0000,0.000,0.000,0.000,383,1,372,359,368,2025-06-03T10:28:41.453123
2225,0.0000,0.0000,0.0000,0.000,0.000,0.000,378,1,365,385,381,2025-06-03T10:28:41.453123
2226,0.0000,0.0000,0.0000,0.000,0.000,0.000,381,1,365,389,370,2025-06-03T10:28:41.453123
2227,0.0000,0.0000,0.0000,0.000,0.000,0.000,390,2,364,352,340,2025-06-03T10:28:41.453123
2228,0.0000,0.0000,0.0000,0.000,0.000,0.000,396,1,357,366,370,2025-06-03T10:28:41.453123
2229,0.0000,0.0000,0.0000,0.000,0.000,0.000,398,1,365,383,380,2025-06-03T10:28:41.657351
2230,0.0000,0.0000,0.0000,0.000,0.000,0.000,391,1,360,392,378,2025-06-03T10:28:41.657351
2231,0.0000,0.0000,0.0000,0.000,0.000,0.000,399,2,370,386,383,2025-06-03T10:28:41.657351
2232,0.0000,0.0000,0.0000,0.000,0.000,0.000,366,2,343,390,393,2025-06-03T10:28:41.657351
2233,0.0000,0.0000,0.0000,0.000,0.000,0.000,346,1,351,398,393,2025-06-03T10:28:41.657351
2234,0.0000,0.0000,0.0000,0.000,0.000,0.000,367,2,360,392,399,2025-06-03T10:28:41.657351
2235,0.0000,0.0000,0.0000,0.000,0.000,0.000,372,1,354,392,359,2025-06-03T10:28:41.657351
2236,0.0000,0.0000,0.0000,0.000,0.000,0.000,375,1,349,385,368,2025-06-03T10:28:41.657351
2237,0.0000,0.0000,0.0000,0.000,0.000,0.000,348,1,353,395,384,2025-06-03T10:28:41.657351
2238,0.0000,0.0000,0.0000,0.000,0.000,0.000,363,2,358,409,383,2025-06-03T10:28:41.657351
2239,0.0000,0.0000,0.0000,0.000,0.000,0.000,373,1,362,399,351,2025-06-03T10:28:41.657351
2240,0.0000,0.0000,0.0000,0.000,0.000,0.000,375,1,339,346,376,2025-06-03T10:28:41.657351
2241,0.0000,0.0000,0.0000,0.000,0.000,0.000,357,1,336,387,378,2025-06-03T10:28:41.657351
2242,0.0000,0.0000,0.0000,0.000,0.000,0.000,380,1,347,384,343,2025-06-03T10:28:41.657351
2243,0.0000,0.0000,0.0000,0.000,0.000,0.000,356,1,352,396,365,2025-06-03T10:28:41.657351
2244,0.0000,0.0000,0.0000,0.000,0.000,0.000,381,2,362,390,374,2025-06-03T10:28:41.657351
2245,0.0000,0.0000,0.0000,0.000,0.000,0.000,390,1,340,404,341,2025-06-03T10:28:41.657351
2246,0.0000,0.0000,0.0000,0.000,0.000,0.000,398,1,345,402,334,2025-06-03T10:28:41.657351
2247,0.0000,0.0000,0.0000,0.000,0.000,0.000,391,1,353,397,363,2025-06-03T10:28:41.657351
2248,0.0000,0.0000,0.0000,0.000,0.000,0.000,393,1,333,389,372,2025-06-03T10:28:41.861410
2249,0.0000,0.0000,0.0000,0.000,0.000,0.000,364,2,339,401,368,2025-06-03T10:28:41.861410
2250,0.0000,0.0000,0.0000,0.000,0.000,0.000,371,2,348,389,362,2025-06-03T10:28:41.861410
2251,0.0000,0.0000,0.0000,0.000,0.000,0.000,384,1,348,390,382,2025-06-03T10:28:41.861410
2252,0.0000,0.0000,0.0000,0.000,0.000,0.000,395,2,355,389,344,2025-06-03T10:28:41.861410
2253,0.0000,0.0000,0.0000,0.000,0.000,0.000,390,2,356,346,371,2025-06-03T10:28:41.861410
2254,0.0000,0.0000,0.0000,0.000,0.000,0.000,384,1,357,383,375,2025-06-03T10:28:41.861410
2255,0.0000,0.0000,0.0000,0.000,0.000,0.000,390,1,366,359,391,2025-06-03T10:28:41.861410
2256,0.0000,0.0000,0.0000,0.000,0.000,0.000,395,2,363,368,398,2025-06-03T10:28:41.861410
2257,0.0000,0.0000,0.0000,0.000,0.000,0.000,396,2,363,378,405,2025-06-03T10:28:41.861410
2258,0.0000,0.0000,0.0000,0.000,0.000,0.000,396,1,364,380,410,2025-06-03T10:28:41.861410
2259,0.0000,0.0000,0.0000,0.000,0.000,0.000,400,1,366,357,401,2025-06-03T10:28:41.861410
2260,0.0000,0.0000,0.0000,0.000,0.000,0.000,400,1,360,376,392,2025-06-03T10:28:41.861410
2261,0.0000,0.0000,0.0000,0.000,0.000,0.000,402,2,368,376,393,2025-06-03T10:28:41.861410
2262,0.0000,0.0000,0.0000,0.000,0.000,0.000,407,2,370,384,356,2025-06-03T10:28:41.861410
2263,0.0000,0.0000,0.0000,0.000,0.000,0.000,377,2,347,380,348,2025-06-03T10:28:41.861410
2264,0.0000,0.0000,0.0000,0.000,0.000,0.000,390,1,357,382,369,2025-06-03T10:28:41.861410
2265,0.0000,0.0000,0.0000,0.000,0.000,0.000,393,1,357,349,369,2025-06-03T10:28:41.861410
2266,0.0000,0.0000,0.0000,0.000,0.000,0.000,394,1,356,351,381,2025-06-03T10:28:41.861410
2267,0.0000,0.0000,0.0000,0.000,0.000,0.000,387,2,357,382,396,2025-06-03T10:28:41.965066
2268,0.0000,0.0000,0.0000,0.000,0.000,0.000,396,2,360,313,385,2025-06-03T10:28:41.965066
2269,0.0000,0.0000,0.0000,0.000,0.000,0.000,385,2,359,364,401,2025-06-03T10:28:41.965066
2270,0.0000,0.0000,0.0000,0.000,0.000,0.000,391,2,362,382,385,2025-06-03T10:28:41.965066
2271,0.0000,0.0000,0.0000,0.000,0.000,0.000,388,2,363,379,392,2025-06-03T10:28:41.965066
2272,0.0000,0.0000,0.0000,0.000,0.000,0.000,399,1,365,379,385,2025-06-03T10:28:41.965066
2273,0.0000,0.0000,0.0000,0.000,0.000,0.000,401,2,366,387,393,2025-06-03T10:28:41.965066
2274,0.0000,0.0000,0.0000,0.000,0.000,0.000,400,1,364,401,359,2025-06-03T10:28:41.965066
2275,0.0000,0.0000,0.0000,0.000,0.000,0.000,400,1,367,382,363,2025-06-03T10:28:41.965066
2276,0.0000,0.0000,0.0000,0.000,0.000,0.000,398,1,366,388,388,2025-06-03T10:28:41.965066
2277,0.0000,0.0000,0.0000,0.000,0.000,0.000,378,2,362,392,385,2025-06-03T10:28:42.066767
2278,0.0000,0.0000,0.0000,0.000,0.000,0.000,375,2,369,399,383,2025-06-03T10:28:42.066767
2279,0.0000,0.0000,0.0000,0.000,0.000,0.000,377,1,368,358,383,2025-06-03T10:28:42.066767
2280,0.0000,0.0000,0.0000,0.000,0.000,0.000,381,1,368,386,352,2025-06-03T10:28:42.066767
2281,0.0000,0.0000,0.0000,0.000,0.000,0.000,385,1,368,385,381,2025-06-03T10:28:42.066767
2282,0.0000,0.0000,0.0000,0.000,0.000,0.000,386,1,370,393,390,2025-06-03T10:28:42.066767
2283,0.0000,0.0000,0.0000,0.000,0.000,0.000,395,2,370,407,396,2025-06-03T10:28:42.066767
2284,0.0000,0.0000,0.0000,0.000,0.000,0.000,367,1,362,408,391,2025-06-03T10:28:42.066767
2285,0.0000,0.0000,0.0000,0.000,0.000,0.000,386,2,362,371,378,2025-06-03T10:28:42.066767
2286,0.0000,0.0000,0.0000,0.000,0.000,0.000,393,2,365,371,375,2025-06-03T10:28:42.116589
2287,0.0000,0.0000,0.0000,0.000,0.000,0.000,392,2,367,379,386,2025-06-03T10:28:42.116589
2288,0.0000,0.0000,0.0000,0.000,0.000,0.000,397,2,371,387,385,2025-06-03T10:28:42.116589
2289,0.0000,0.0000,0.0000,0.000,0.000,0.000,398,1,364,384,343,2025-06-03T10:28:42.116589
2290,0.0000,0.0000,0.0000,0.000,0.000,0.000,366,2,367,375,375,2025-06-03T10:28:42.116589
2291,0.0000,0.0000,0.0000,0.000,0.000,0.000,367,2,374,394,398,2025-06-03T10:28:42.169309
2292,0.0000,0.0000,0.0000,0.000,0.000,0.000,377,1,371,403,386,2025-06-03T10:28:42.169309
2293,0.0000,0.0000,0.0000,0.000,0.000,0.000,389,2,348,349,377,2025-06-03T10:28:42.169309
2294,0.0000,0.0000,0.0000,0.000,0.000,0.000,390,1,352,367,386,2025-06-03T10:28:42.169309
2295,0.0000,0.0000,0.0000,0.000,0.000,0.000,364,2,354,346,396,2025-06-03T10:28:42.169309
2296,0.0000,0.0000,0.0000,0.000,0.000,0.000,346,2,362,380,374,2025-06-03T10:28:42.216102
2297,0.0000,0.0000,0.0000,0.000,0.000,0.000,363,1,364,376,392,2025-06-03T10:28:42.216102
2298,0.0000,0.0000,0.0000,0.000,0.000,0.000,379,1,343,342,379,2025-06-03T10:28:42.216102
2299,0.0000,0.0000,0.0000,0.000,0.000,0.000,386,2,344,328,384,2025-06-03T10:28:42.216102
2300,0.0000,0.0000,0.0000,0.000,0.000,0.000,393,2,354,378,325,2025-06-03T10:28:42.267995
2301,0.0000,0.0000,0.0000,0.000,0.000,0.000,386,2,360,349,356,2025-06-03T10:28:42.267995
2302,0.0000,0.0000,0.0000,0.000,0.000,0.000,397,2,363,386,375,2025-06-03T10:28:42.267995
2303,0.0000,0.0000,0.0000,0.000,0.000,0.000,399,2,374,399,395,2025-06-03T10:28:42.267995
2304,0.0000,0.0000,0.0000,0.000,0.000,0.000,398,1,373,401,395,2025-06-03T10:28:42.476675
2305,0.0000,0.0000,0.0000,0.000,0.000,0.000,365,1,365,399,386,2025-06-03T10:28:42.476675
2306,0.0000,0.0000,0.0000,0.000,0.000,0.000,373,1,364,387,398,2025-06-03T10:28:42.476675
2307,0.0000,0.0000,0.0000,0.000,0.000,0.000,390,1,359,401,401,2025-06-03T10:28:42.476675
2308,0.0000,0.0000,0.0000,0.000,0.000,0.000,382,2,367,402,389,2025-06-03T10:28:42.476675
2309,0.0000,0.0000,0.0000,0.000,0.000,0.000,394,2,370,389,387,2025-06-03T10:28:42.476675
2310,0.0000,0.0000,0.0000,0.000,0.000,0.000,389,1,367,394,398,2025-06-03T10:28:42.476675
2311,0.0000,0.0000,0.0000,0.000,0.000,0.000,400,2,374,393,389,2025-06-03T10:28:42.476675
2312,0.0000,0.0000,0.0000,0.000,0.000,0.000,394,1,372,400,364,2025-06-03T10:28:42.476675
2313,0.0000,0.0000,0.0000,0.000,0.000,0.000,400,1,371,381,381,2025-06-03T10:28:42.476675
2314,0.0000,0.0000,0.0000,0.000,0.000,0.000,402,1,370,350,394,2025-06-03T10:28:42.476675
2315,0.0000,0.0000,0.0000,0.000,0.000,0.000,406,2,367,378,362,2025-06-03T10:28:42.476675
2316,0.0000,0.0000,0.0000,0.000,0.000,0.000,407,1,366,378,378,2025-06-03T10:28:42.476675
2317,0.0000,0.0000,0.0000,0.000,0.000,0.000,409,1,368,397,380,2025-06-03T10:28:42.476675
2318,0.0000,0.0000,0.0000,0.000,0.000,0.000,383,1,344,355,375,2025-06-03T10:28:42.476675
2319,0.0000,0.0000,0.0000,0.000,0.000,0.000,388,2,353,366,349,2025-06-03T10:28:42.476675
2320,0.0000,0.0000,0.0000,0.000,0.000,0.000,393,1,348,389,385,2025-06-03T10:28:42.476675
2321,0.0000,0.0000,0.0000,0.000,0.000,0.000,389,2,359,386,394,2025-06-03T10:28:42.476675
2322,0.0000,0.0000,0.0000,0.000,0.000,0.000,393,2,358,390,394,2025-06-03T10:28:42.476675
2323,0.0000,0.0000,0.0000,0.000,0.000,0.000,389,1,353,398,403,2025-06-03T10:28:42.476675
2324,0.0000,0.0000,0.0000,0.000,0.000,0.000,397,1,361,357,377,2025-06-03T10:28:42.524677
2325,0.0000,0.0000,0.0000,0.000,0.000,0.000,397,1,359,382,401,2025-06-03T10:28:42.524677
2326,0.0000,0.0000,0.0000,0.000,0.000,0.000,397,2,368,398,404,2025-06-03T10:28:42.524677
2327,0.0000,0.0000,0.0000,0.000,0.000,0.000,366,2,346,390,391,2025-06-03T10:28:42.524677
2328,0.0000,0.0000,0.0000,0.000,0.000,0.000,385,2,336,390,363,2025-06-03T10:28:42.524677
2329,0.0000,0.0000,0.0000,0.000,0.000,0.000,393,2,346,402,381,2025-06-03T10:28:42.572535
2330,0.0000,0.0000,0.0000,0.000,0.000,0.000,388,2,356,376,390,2025-06-03T10:28:42.572535
2331,0.0000,0.0000,0.0000,0.000,0.000,0.000,365,2,338,394,392,2025-06-03T10:28:42.572535
2332,0.0000,0.0000,0.0000,0.000,0.000,0.000,373,2,349,396,400,2025-06-03T10:28:42.572535
2333,0.0000,0.0000,0.0000,0.000,0.000,0.000,377,2,352,358,396,2025-06-03T10:28:42.620093
2334,0.0000,0.0000,0.0000,0.000,0.000,0.000,391,2,360,379,396,2025-06-03T10:28:42.620093
2335,0.0000,0.0000,0.0000,0.000,0.000,0.000,369,2,367,379,358,2025-06-03T10:28:42.620093
2336,0.0000,0.0000,0.0000,0.000,0.000,0.000,348,2,362,382,374,2025-06-03T10:28:42.620093
2337,0.0000,0.0000,0.0000,0.000,0.000,0.000,361,1,360,379,371,2025-06-03T10:28:42.689264
2338,0.0000,0.0000,0.0000,0.000,0.000,0.000,380,1,356,370,347,2025-06-03T10:28:42.689264
2339,0.0000,0.0000,0.0000,0.000,0.000,0.000,378,2,361,383,375,2025-06-03T10:28:42.689264
2340,0.0000,0.0000,0.0000,0.000,0.000,0.000,392,1,360,355,382,2025-06-03T10:28:42.689264
2341,0.0000,0.0000,0.0000,0.000,0.000,0.000,399,1,362,336,396,2025-06-03T10:28:42.689264
2342,0.0000,0.0000,0.0000,0.000,0.000,0.000,392,2,362,362,363,2025-06-03T10:28:42.689264
2343,0.0000,0.0000,0.0000,0.000,0.000,0.000,397,2,367,378,359,2025-06-03T10:28:42.785783
2344,0.0000,0.0000,0.0000,0.000,0.000,0.000,397,2,367,391,381,2025-06-03T10:28:42.785783
2345,0.0000,0.0000,0.0000,0.000,0.000,0.000,400,2,370,361,345,2025-06-03T10:28:42.785783
2346,0.0000,0.0000,0.0000,0.000,0.000,0.000,402,2,345,371,373,2025-06-03T10:28:42.785783
2347,0.0000,0.0000,0.0000,0.000,0.000,0.000,398,2,358,396,394,2025-06-03T10:28:42.785783
2348,0.0000,0.0000,0.0000,0.000,0.000,0.000,393,2,362,405,397,2025-06-03T10:28:42.785783
2349,0.0000,0.0000,0.0000,0.000,0.000,0.000,385,1,360,396,390,2025-06-03T10:28:42.785783
2350,0.0000,0.0000,0.0000,0.000,0.000,0.000,391,1,357,379,399,2025-06-03T10:28:42.785783
2351,0.0000,0.0000,0.0000,0.000,0.000,0.000,382,2,358,353,378,2025-06-03T10:28:42.785783
2352,0.0000,0.0000,0.0000,0.000,0.000,0.000,354,2,361,360,361,2025-06-03T10:28:42.785783
2353,0.0000,0.0000,0.0000,0.000,0.000,0.000,374,1,358,380,386,2025-06-03T10:28:42.832413
2354,0.0000,0.0000,0.0000,0.000,0.000,0.000,380,1,358,359,381,2025-06-03T10:28:42.832413
2355,0.0000,0.0000,0.0000,0.000,0.000,0.000,377,2,340,377,379,2025-06-03T10:28:42.832413
2356,0.0000,0.0000,0.0000,0.000,0.000,0.000,383,2,354,348,378,2025-06-03T10:28:42.832413
2357,0.0000,0.0000,0.0000,0.000,0.000,0.000,392,2,354,344,382,2025-06-03T10:28:42.888860
2358,0.0000,0.0000,0.0000,0.000,0.000,0.000,394,1,363,372,388,2025-06-03T10:28:42.888860
2359,0.0000,0.0000,0.0000,0.000,0.000,0.000,369,2,369,377,389,2025-06-03T10:28:42.888860
2360,0.0000,0.0000,0.0000,0.000,0.000,0.000,376,2,372,359,384,2025-06-03T10:28:42.888860
2361,0.0000,0.0000,0.0000,0.000,0.000,0.000,381,2,367,378,377,2025-06-03T10:28:42.888860
2362,0.0000,0.0000,0.0000,0.000,0.000,0.000,381,1,360,390,384,2025-06-03T10:28:43.080693
2363,0.0000,0.0000,0.0000,0.000,0.000,0.000,378,2,342,352,345,2025-06-03T10:28:43.080693
2364,0.0000,0.0000,0.0000,0.000,0.000,0.000,379,1,346,376,368,2025-06-03T10:28:43.080693
2365,0.0000,0.0000,0.0000,0.000,0.000,0.000,358,1,348,346,382,2025-06-03T10:28:43.080693
2366,0.0000,0.0000,0.0000,0.000,0.000,0.000,373,2,357,363,383,2025-06-03T10:28:43.080693
2367,0.0000,0.0000,0.0000,0.000,0.000,0.000,350,2,356,339,390,2025-06-03T10:28:43.080693
2368,0.0000,0.0000,0.0000,0.000,0.000,0.000,369,2,362,367,391,2025-06-03T10:28:43.080693
2369,0.0000,0.0000,0.0000,0.000,0.000,0.000,382,1,367,388,388,2025-06-03T10:28:43.080693
2370,0.0000,0.0000,0.0000,0.000,0.000,0.000,386,1,341,400,400,2025-06-03T10:28:43.080693
2371,0.0000,0.0000,0.0000,0.000,0.000,0.000,333,1,352,391,394,2025-06-03T10:28:43.080693
2372,0.0000,0.0000,0.0000,0.000,0.000,0.000,370,1,352,391,359,2025-06-03T10:28:43.080693
2373,0.0000,0.0000,0.0000,0.000,0.000,0.000,384,2,357,345,368,2025-06-03T10:28:43.080693
2374,0.0000,0.0000,0.0000,0.000,0.000,0.000,369,1,358,370,392,2025-06-03T10:28:43.080693
2375,0.0000,0.0000,0.0000,0.000,0.000,0.000,359,1,363,346,380,2025-06-03T10:28:43.080693
2376,0.0000,0.0000,0.0000,0.000,0.000,0.000,343,2,364,338,396,2025-06-03T10:28:43.080693
2377,0.0000,0.0000,0.0000,0.000,0.000,0.000,360,2,368,375,403,2025-06-03T10:28:43.080693
2378,0.0000,0.0000,0.0000,0.000,0.000,0.000,364,1,348,372,399,2025-06-03T10:28:43.080693
2379,0.0000,0.0000,0.0000,0.000,0.000,0.000,368,2,353,381,407,2025-06-03T10:28:43.254825
2380,0.0000,0.0000,0.0000,0.000,0.000,0.000,378,1,361,388,390,2025-06-03T10:28:43.255823
2381,0.0000,0.0000,0.0000,0.000,0.000,0.000,390,1,357,391,383,2025-06-03T10:28:43.255823
2382,0.0000,0.0000,0.0000,0.000,0.000,0.000,394,2,356,385,393,2025-06-03T10:28:43.255823
2383,0.0000,0.0000,0.0000,0.000,0.000,0.000,397,2,354,363,382,2025-06-03T10:28:43.255823
2384,0.0000,0.0000,0.0000,0.000,0.000,0.000,391,2,336,382,384,2025-06-03T10:28:43.255823
2385,0.0000,0.0000,0.0000,0.000,0.000,0.000,370,2,351,379,392,2025-06-03T10:28:43.255823
2386,0.0000,0.0000,0.0000,0.000,0.000,0.000,388,1,357,393,401,2025-06-03T10:28:43.295057
2387,0.0000,0.0000,0.0000,0.000,0.000,0.000,396,2,363,391,395,2025-06-03T10:28:43.295057
2388,0.0000,0.0000,0.0000,0.000,0.000,0.000,397,2,368,352,346,2025-06-03T10:28:43.295057
2389,0.0000,0.0000,0.0000,0.000,0.000,0.000,389,2,365,359,374,2025-06-03T10:28:43.295057
2390,0.0000,0.0000,0.0000,0.000,0.000,0.000,390,1,365,368,356,2025-06-03T10:28:43.295057
2391,0.0000,0.0000,0.0000,0.000,0.000,0.000,395,2,373,375,367,2025-06-03T10:28:43.295057
2392,0.0000,0.0000,0.0000,0.000,0.000,0.000,390,1,376,383,387,2025-06-03T10:28:43.295057
2393,0.0000,0.0000,0.0000,0.000,0.000,0.000,393,1,369,390,398,2025-06-03T10:28:43.295057
2394,0.0000,0.0000,0.0000,0.000,0.000,0.000,394,1,361,402,404,2025-06-03T10:28:43.295057
2395,0.0000,0.0000,0.0000,0.000,0.000,0.000,385,1,360,402,385,2025-06-03T10:28:43.295057
2396,0.0000,0.0000,0.0000,0.000,0.000,0.000,394,1,356,390,394,2025-06-03T10:28:43.295057
2397,0.0000,0.0000,0.0000,0.000,0.000,0.000,400,2,356,407,399,2025-06-03T10:28:43.295057
2398,0.0000,0.0000,0.0000,0.000,0.000,0.000,400,1,359,397,393,2025-06-03T10:28:43.295057
2399,0.0000,0.0000,0.0000,0.000,0.000,0.000,402,1,357,396,387,2025-06-03T10:28:43.295057
2400,0.0000,0.0000,0.0000,0.000,0.000,0.000,403,2,358,391,383,2025-06-03T10:28:43.538312
2401,0.0000,0.0000,0.0000,0.000,0.000,0.000,370,1,362,393,398,2025-06-03T10:28:43.538312
2402,0.0000,0.0000,0.0000,0.000,0.000,0.000,385,2,364,390,400,2025-06-03T10:28:43.538312
2403,0.0000,0.0000,0.0000,0.000,0.000,0.000,356,2,363,399,394,2025-06-03T10:28:43.538312
2404,0.0000,0.0000,0.0000,0.000,0.000,0.000,339,1,356,367,380,2025-06-03T10:28:43.538312
2405,0.0000,0.0000,0.0000,0.000,0.000,0.000,368,1,360,345,380,2025-06-03T10:28:43.538312
2406,0.0000,0.0000,0.0000,0.000,0.000,0.000,385,2,362,370,393,2025-06-03T10:28:43.538312
2407,0.0000,0.0000,0.0000,0.000,0.000,0.000,386,2,370,377,392,2025-06-03T10:28:43.538312
2408,0.0000,0.0000,0.0000,0.000,0.000,0.000,393,2,376,386,325,2025-06-03T10:28:43.538312
2409,0.0000,0.0000,0.0000,0.000,0.000,0.000,390,1,373,390,327,2025-06-03T10:28:43.538312
2410,0.0000,0.0000,0.0000,0.000,0.000,0.000,391,1,374,394,355,2025-06-03T10:28:43.538312
2411,0.0000,0.0000,0.0000,0.000,0.000,0.000,394,1,380,402,304,2025-06-03T10:28:43.538312
2412,0.0000,0.0000,0.0000,0.000,0.000,0.000,392,1,351,394,340,2025-06-03T10:28:43.538312
2413,0.0000,0.0000,0.0000,0.000,0.000,0.000,368,1,335,397,357,2025-06-03T10:28:43.538312
2414,0.0000,0.0000,0.0000,0.000,0.000,0.000,382,1,352,364,380,2025-06-03T10:28:43.538312
2415,0.0000,0.0000,0.0000,0.000,0.000,0.000,392,0,328,354,391,2025-06-03T10:28:43.538312
2416,0.0000,0.0000,0.0000,0.000,0.000,0.000,384,1,345,368,357,2025-06-03T10:28:43.538312
2417,0.0000,0.0000,0.0000,0.000,0.000,0.000,394,1,345,366,342,2025-06-03T10:28:43.538312
2418,0.0000,0.0000,0.0000,0.000,0.000,0.000,368,1,353,369,360,2025-06-03T10:28:43.538312
2419,0.0000,0.0000,0.0000,0.000,0.000,0.000,383,1,357,390,374,2025-06-03T10:28:43.538312
2420,0.0000,0.0000,0.0000,0.000,0.000,0.000,363,2,366,409,375,2025-06-03T10:28:43.538312
2421,0.0000,0.0000,0.0000,0.000,0.000,0.000,376,2,362,409,373,2025-06-03T10:28:43.538312
2422,0.0000,0.0000,0.0000,0.000,0.000,0.000,388,1,366,379,369,2025-06-03T10:28:43.596647
2423,0.0000,0.0000,0.0000,0.000,0.000,0.000,390,2,362,387,376,2025-06-03T10:28:43.596647
2424,0.0000,0.0000,0.0000,0.000,0.000,0.000,398,2,344,395,390,2025-06-03T10:28:43.596647
2425,0.0000,0.0000,0.0000,0.000,0.000,0.000,404,2,334,359,374,2025-06-03T10:28:43.596647
2426,0.0000,0.0000,0.0000,0.000,0.000,0.000,397,1,343,374,391,2025-06-03T10:28:43.596647
2427,0.0000,0.0000,0.0000,0.000,0.000,0.000,398,2,348,397,386,2025-06-03T10:28:43.704850
2428,0.0000,0.0000,0.0000,0.000,0.000,0.000,376,2,354,362,397,2025-06-03T10:28:43.704850
2429,0.0000,0.0000,0.0000,0.000,0.000,0.000,353,1,355,375,401,2025-06-03T10:28:43.704850
2430,0.0000,0.0000,0.0000,0.000,0.000,0.000,362,1,363,388,373,2025-06-03T10:28:43.704850
2431,0.0000,0.0000,0.0000,0.000,0.000,0.000,381,2,364,400,396,2025-06-03T10:28:43.704850
2432,0.0000,0.0000,0.0000,0.000,0.000,0.000,381,2,363,397,396,2025-06-03T10:28:43.704850
2433,0.0000,0.0000,0.0000,0.000,0.000,0.000,357,1,360,398,406,2025-06-03T10:28:43.704850
2434,0.0000,0.0000,0.0000,0.000,0.000,0.000,367,1,363,395,390,2025-06-03T10:28:43.704850
2435,0.0000,0.0000,0.0000,0.000,0.000,0.000,374,1,343,391,378,2025-06-03T10:28:43.704850
2436,0.0000,0.0000,0.0000,0.000,0.000,0.000,391,2,354,359,387,2025-06-03T10:28:43.704850
2437,0.0000,0.0000,0.0000,0.000,0.000,0.000,399,1,357,386,404,2025-06-03T10:28:43.704850
2438,0.0000,0.0000,0.0000,0.000,0.000,0.000,408,1,340,382,394,2025-06-03T10:28:43.950718
2439,0.0000,0.0000,0.0000,0.000,0.000,0.000,376,1,350,397,394,2025-06-03T10:28:43.950718
2440,0.0000,0.0000,0.0000,0.000,0.000,0.000,387,2,353,389,386,2025-06-03T10:28:43.950718
2441,0.0000,0.0000,0.0000,0.000,0.000,0.000,398,2,360,386,394,2025-06-03T10:28:43.950718
2442,0.0000,0.0000,0.0000,0.000,0.000,0.000,368,2,359,394,399,2025-06-03T10:28:43.950718
2443,0.0000,0.0000,0.0000,0.000,0.000,0.000,380,1,364,391,396,2025-06-03T10:28:43.950718
2444,0.0000,0.0000,0.0000,0.000,0.000,0.000,359,1,359,398,391,2025-06-03T10:28:43.950718
2445,0.0000,0.0000,0.0000,0.000,0.000,0.000,361,1,362,407,382,2025-06-03T10:28:43.950718
2446,0.0000,0.0000,0.0000,0.000,0.000,0.000,343,1,359,406,394,2025-06-03T10:28:43.950718
2447,0.0000,0.0000,0.0000,0.000,0.000,0.000,361,1,357,392,384,2025-06-03T10:28:43.950718
2448,0.0000,0.0000,0.0000,0.000,0.000,0.000,370,2,365,399,395,2025-06-03T10:28:43.950718
2449,0.0000,0.0000,0.0000,0.000,0.000,0.000,386,2,365,404,388,2025-06-03T10:28:43.950718
2450,0.0000,0.0000,0.0000,0.000,0.000,0.000,362,0,350,404,385,2025-06-03T10:28:43.950718
2451,0.0000,0.0000,0.0000,0.000,0.000,0.000,371,2,353,399,383,2025-06-03T10:28:43.950718
2452,0.0000,0.0000,0.0000,0.000,0.000,0.000,384,1,335,382,397,2025-06-03T10:28:43.950718
2453,0.0000,0.0000,0.0000,0.000,0.000,0.000,389,1,348,382,397,2025-06-03T10:28:43.950718
2454,0.0000,0.0000,0.0000,0.000,0.000,0.000,393,1,347,377,386,2025-06-03T10:28:43.950718
2455,0.0000,0.0000,0.0000,0.000,0.000,0.000,390,2,349,384,350,2025-06-03T10:28:43.950718
2456,0.0000,0.0000,0.0000,0.000,0.000,0.000,397,2,355,394,378,2025-06-03T10:28:43.950718
2457,0.0000,0.0000,0.0000,0.000,0.000,0.000,364,2,366,362,391,2025-06-03T10:28:43.950718
2458,0.0000,0.0000,0.0000,0.000,0.000,0.000,383,2,367,390,389,2025-06-03T10:28:43.950718
2459,0.0000,0.0000,0.0000,0.000,0.000,0.000,389,2,370,383,396,2025-06-03T10:28:43.950718
2460,0.0000,0.0000,0.0000,0.000,0.000,0.000,356,1,360,359,395,2025-06-03T10:28:44.114594
2461,0.0000,0.0000,0.0000,0.000,0.000,0.000,379,1,339,378,401,2025-06-03T10:28:44.114594
2462,0.0000,0.0000,0.0000,0.000,0.000,0.000,389,1,352,388,405,2025-06-03T10:28:44.114594
2463,0.0000,0.0000,0.0000,0.000,0.000,0.000,384,2,356,400,401,2025-06-03T10:28:44.114594
2464,0.0000,0.0000,0.0000,0.000,0.000,0.000,391,2,355,395,360,2025-06-03T10:28:44.114594
2465,0.0000,0.0000,0.0000,0.000,0.000,0.000,394,1,356,402,340,2025-06-03T10:28:44.114594
2466,0.0000,0.0000,0.0000,0.000,0.000,0.000,396,2,357,385,356,2025-06-03T10:28:44.114594
2467,0.0000,0.0000,0.0000,0.000,0.000,0.000,377,1,352,404,374,2025-06-03T10:28:44.114594
2468,0.0000,0.0000,0.0000,0.000,0.000,0.000,391,1,353,393,373,2025-06-03T10:28:44.114594
2469,0.0000,0.0000,0.0000,0.000,0.000,0.000,394,1,349,353,381,2025-06-03T10:28:44.114594
2470,0.0000,0.0000,0.0000,0.000,0.000,0.000,393,1,350,382,391,2025-06-03T10:28:44.114594
2471,0.0000,0.0000,0.0000,0.000,0.000,0.000,393,2,360,400,386,2025-06-03T10:28:44.114594
2472,0.0000,0.0000,0.0000,0.000,0.000,0.000,364,1,360,366,393,2025-06-03T10:28:44.114594
2473,0.0000,0.0000,0.0000,0.000,0.000,0.000,368,1,362,396,405,2025-06-03T10:28:44.114594
2474,0.0000,0.0000,0.0000,0.000,0.000,0.000,373,1,366,394,357,2025-06-03T10:28:44.114594
2475,0.0000,0.0000,0.0000,0.000,0.000,0.000,382,1,371,386,378,2025-06-03T10:28:44.114594
2476,0.0000,0.0000,0.0000,0.000,0.000,0.000,387,2,376,406,318,2025-06-03T10:28:44.319596
2477,0.0000,0.0000,0.0000,0.000,0.000,0.000,398,1,369,387,357,2025-06-03T10:28:44.319596
2478,0.0000,0.0000,0.0000,0.000,0.000,0.000,401,1,371,388,379,2025-06-03T10:28:44.319596
2479,0.0000,0.0000,0.0000,0.000,0.000,0.000,393,1,370,388,385,2025-06-03T10:28:44.319596
2480,0.0000,0.0000,0.0000,0.000,0.000,0.000,362,2,364,365,385,2025-06-03T10:28:44.319596
2481,0.0000,0.0000,0.0000,0.000,0.000,0.000,380,1,361,372,366,2025-06-03T10:28:44.319596
2482,0.0000,0.0000,0.0000,0.000,0.000,0.000,394,1,357,381,385,2025-06-03T10:28:44.319596
2483,0.0000,0.0000,0.0000,0.000,0.000,0.000,390,1,363,396,376,2025-06-03T10:28:44.319596
2484,0.0000,0.0000,0.0000,0.000,0.000,0.000,364,1,355,399,372,2025-06-03T10:28:44.319596
2485,0.0000,0.0000,0.0000,0.000,0.000,0.000,351,1,364,406,348,2025-06-03T10:28:44.319596
2486,0.0000,0.0000,0.0000,0.000,0.000,0.000,367,1,370,395,370,2025-06-03T10:28:44.319596
2487,0.0000,0.0000,0.0000,0.000,0.000,0.000,387,1,371,400,372,2025-06-03T10:28:44.319596
2488,0.0000,0.0000,0.0000,0.000,0.000,0.000,388,1,363,408,356,2025-06-03T10:28:44.319596
2489,0.0000,0.0000,0.0000,0.000,0.000,0.000,396,2,344,370,335,2025-06-03T10:28:44.319596
2490,0.0000,0.0000,0.0000,0.000,0.000,0.000,386,1,326,345,360,2025-06-03T10:28:44.319596
2491,0.0000,0.0000,0.0000,0.000,0.000,0.000,385,2,336,376,371,2025-06-03T10:28:44.319596
2492,0.0000,0.0000,0.0000,0.000,0.000,0.000,393,1,350,358,313,2025-06-03T10:28:44.319596
2493,0.0000,0.0000,0.0000,0.000,0.000,0.000,392,2,356,334,361,2025-06-03T10:28:44.319596
2494,0.0000,0.0000,0.0000,0.000,0.000,0.000,365,2,364,351,369,2025-06-03T10:28:44.319596
2495,0.0000,0.0000,0.0000,0.000,0.000,0.000,377,2,360,330,383,2025-06-03T10:28:44.421503
2496,0.0000,0.0000,0.0000,0.000,0.000,0.000,379,1,359,373,396,2025-06-03T10:28:44.421503
2497,0.0000,0.0000,0.0000,0.000,0.000,0.000,385,1,359,385,396,2025-06-03T10:28:44.421503
2498,0.0000,0.0000,0.0000,0.000,0.000,0.000,394,2,369,386,392,2025-06-03T10:28:44.421503
2499,0.0000,0.0000,0.0000,0.000,0.000,0.000,369,2,363,389,353,2025-06-03T10:28:44.421503
2500,0.0000,0.0000,0.0000,0.000,0.000,0.000,380,1,360,398,386,2025-06-03T10:28:44.421503
2501,0.0000,0.0000,0.0000,0.000,0.000,0.000,392,1,357,391,385,2025-06-03T10:28:44.421503
2502,0.0000,0.0000,0.0000,0.000,0.000,0.000,388,1,354,387,349,2025-06-03T10:28:44.421503
2503,0.0000,0.0000,0.0000,0.000,0.000,0.000,388,2,360,397,372,2025-06-03T10:28:44.421503
2504,0.0000,0.0000,0.0000,0.000,0.000,0.000,387,2,363,384,374,2025-06-03T10:28:44.421503
2505,0.0000,0.0000,0.0000,0.000,0.000,0.000,361,1,366,362,356,2025-06-03T10:28:44.474558
2506,0.0000,0.0000,0.0000,0.000,0.000,0.000,381,2,360,373,370,2025-06-03T10:28:44.474558
2507,0.0000,0.0000,0.0000,0.000,0.000,0.000,361,1,360,399,383,2025-06-03T10:28:44.474558
2508,0.0000,0.0000,0.0000,0.000,0.000,0.000,379,2,369,393,372,2025-06-03T10:28:44.474558
2509,0.0000,0.0000,0.0000,0.000,0.000,0.000,396,2,372,403,379,2025-06-03T10:28:44.521667
2510,0.0000,0.0000,0.0000,0.000,0.000,0.000,402,2,375,405,377,2025-06-03T10:28:44.521667
2511,0.0000,0.0000,0.0000,0.000,0.000,0.000,404,2,352,392,344,2025-06-03T10:28:44.521667
2512,0.0000,0.0000,0.0000,0.000,0.000,0.000,373,2,351,376,379,2025-06-03T10:28:44.521667
2513,0.0000,0.0000,0.0000,0.000,0.000,0.000,383,2,354,360,391,2025-06-03T10:28:44.521667
2514,0.0000,0.0000,0.0000,0.000,0.000,0.000,394,2,361,391,386,2025-06-03T10:28:44.568505
2515,0.0000,0.0000,0.0000,0.000,0.000,0.000,399,1,364,393,394,2025-06-03T10:28:44.568505
2516,0.0000,0.0000,0.0000,0.000,0.000,0.000,390,1,369,397,396,2025-06-03T10:28:44.568505
2517,0.0000,0.0000,0.0000,0.000,0.000,0.000,369,2,374,411,401,2025-06-03T10:28:44.568505
2518,0.0000,0.0000,0.0000,0.000,0.000,0.000,378,1,379,407,408,2025-06-03T10:28:44.568505
2519,0.0000,0.0000,0.0000,0.000,0.000,0.000,388,1,383,415,371,2025-06-03T10:28:44.817946
2520,0.0000,0.0000,0.0000,0.000,0.000,0.000,407,1,385,415,379,2025-06-03T10:28:44.817946
2521,0.0000,0.0000,0.0000,0.000,0.000,0.000,399,2,363,366,349,2025-06-03T10:28:44.817946
2522,0.0000,0.0000,0.0000,0.000,0.000,0.000,400,1,363,339,360,2025-06-03T10:28:44.817946
2523,0.0000,0.0000,0.0000,0.000,0.000,0.000,380,2,361,368,373,2025-06-03T10:28:44.817946
2524,0.0000,0.0000,0.0000,0.000,0.000,0.000,381,1,364,397,395,2025-06-03T10:28:44.817946
2525,0.0000,0.0000,0.0000,0.000,0.000,0.000,385,2,373,386,402,2025-06-03T10:28:44.817946
2526,0.0000,0.0000,0.0000,0.000,0.000,0.000,389,1,369,391,399,2025-06-03T10:28:44.817946
2527,0.0000,0.0000,0.0000,0.000,0.000,0.000,387,2,365,394,351,2025-06-03T10:28:44.817946
2528,0.0000,0.0000,0.0000,0.000,0.000,0.000,389,2,360,343,367,2025-06-03T10:28:44.817946
2529,0.0000,0.0000,0.0000,0.000,0.000,0.000,400,1,320,342,336,2025-06-03T10:28:44.961274
2530,0.0000,0.0000,0.0000,0.000,0.000,0.000,414,1,320,335,363,2025-06-03T10:28:44.961274
2531,0.0000,0.0000,0.0000,0.000,0.000,0.000,424,1,348,380,357,2025-06-03T10:28:44.961274
2532,0.0000,0.0000,0.0000,0.000,0.000,0.000,405,1,353,384,387,2025-06-03T10:28:44.961274
2533,0.0000,0.0000,0.0000,0.000,0.000,0.000,399,2,360,388,399,2025-06-03T10:28:44.961274
2534,0.0000,0.0000,0.0000,0.000,0.000,0.000,408,1,362,392,406,2025-06-03T10:28:44.961274
2535,0.0000,0.0000,0.0000,0.000,0.000,0.000,365,2,354,393,384,2025-06-03T10:28:44.961274
2536,0.0000,0.0000,0.0000,0.000,0.000,0.000,362,2,351,382,346,2025-06-03T10:28:44.961274
2537,0.0000,0.0000,0.0000,0.000,0.000,0.000,380,1,355,370,365,2025-06-03T10:28:44.961274
2538,0.0000,0.0000,0.0000,0.000,0.000,0.000,384,1,360,394,366,2025-06-03T10:28:44.961274
2539,0.0000,0.0000,0.0000,0.000,0.000,0.000,403,1,342,392,338,2025-06-03T10:28:44.961274
2540,0.0000,0.0000,0.0000,0.000,0.000,0.000,385,2,347,381,364,2025-06-03T10:28:44.961274
2541,0.0000,0.0000,0.0000,0.000,0.000,0.000,392,2,351,394,381,2025-06-03T10:28:44.961274
2542,0.0000,0.0000,0.0000,0.000,0.000,0.000,389,2,352,406,390,2025-06-03T10:28:44.961274
2543,0.0000,0.0000,0.0000,0.000,0.000,0.000,394,2,334,403,377,2025-06-03T10:28:44.961274
2544,0.0000,0.0000,0.0000,0.000,0.000,0.000,390,1,320,398,386,2025-06-03T10:28:44.961274
2545,0.0000,0.0000,0.0000,0.000,0.000,0.000,357,1,334,392,348,2025-06-03T10:28:44.961274
2546,0.0000,0.0000,0.0000,0.000,0.000,0.000,380,1,335,391,375,2025-06-03T10:28:44.961274
2547,0.0000,0.0000,0.0000,0.000,0.000,0.000,377,1,344,364,372,2025-06-03T10:28:44.961274
2548,0.0000,0.0000,0.0000,0.000,0.000,0.000,358,1,351,375,383,2025-06-03T10:28:44.961274
2549,0.0000,0.0000,0.0000,0.000,0.000,0.000,373,1,351,372,359,2025-06-03T10:28:44.961274
2550,0.0000,0.0000,0.0000,0.000,0.000,0.000,387,1,330,351,374,2025-06-03T10:28:44.961274
2551,0.0000,0.0000,0.0000,0.000,0.000,0.000,381,1,341,369,372,2025-06-03T10:28:44.961274
2552,0.0000,0.0000,0.0000,0.000,0.000,0.000,358,2,327,366,381,2025-06-03T10:28:44.983400
2553,0.0000,0.0000,0.0000,0.000,0.000,0.000,377,2,345,382,383,2025-06-03T10:28:44.983400
2554,0.0000,0.0000,0.0000,0.000,0.000,0.000,390,1,342,390,390,2025-06-03T10:28:44.983400
2555,0.0000,0.0000,0.0000,0.000,0.000,0.000,387,1,350,359,384,2025-06-03T10:28:44.983400
2556,0.0000,0.0000,0.0000,0.000,0.000,0.000,396,1,351,383,380,2025-06-03T10:28:44.983400
2557,0.0000,0.0000,0.0000,0.000,0.000,0.000,375,2,358,398,383,2025-06-03T10:28:45.035456
2558,0.0000,0.0000,0.0000,0.000,0.000,0.000,377,2,364,386,356,2025-06-03T10:28:45.035456
2559,0.0000,0.0000,0.0000,0.000,0.000,0.000,375,1,340,353,329,2025-06-03T10:28:45.035456
2560,0.0000,0.0000,0.0000,0.000,0.000,0.000,376,2,348,339,348,2025-06-03T10:28:45.035456
2561,0.0000,0.0000,0.0000,0.000,0.000,0.000,379,1,359,380,375,2025-06-03T10:28:45.082747
2562,0.0000,0.0000,0.0000,0.000,0.000,0.000,390,2,364,352,385,2025-06-03T10:28:45.082747
2563,0.0000,0.0000,0.0000,0.000,0.000,0.000,385,2,359,366,400,2025-06-03T10:28:45.082747
2564,0.0000,0.0000,0.0000,0.000,0.000,0.000,381,1,354,383,386,2025-06-03T10:28:45.082747
2565,0.0000,0.0000,0.0000,0.000,0.000,0.000,361,1,364,377,375,2025-06-03T10:28:45.082747
2566,0.0000,0.0000,0.0000,0.000,0.000,0.000,369,2,367,391,390,2025-06-03T10:28:45.259124
2567,0.0000,0.0000,0.0000,0.000,0.000,0.000,353,1,366,402,395,2025-06-03T10:28:45.259124
2568,0.0000,0.0000,0.0000,0.000,0.000,0.000,374,1,372,398,402,2025-06-03T10:28:45.259124
2569,0.0000,0.0000,0.0000,0.000,0.000,0.000,392,2,366,399,403,2025-06-03T10:28:45.259124
2570,0.0000,0.0000,0.0000,0.000,0.000,0.000,392,2,361,395,400,2025-06-03T10:28:45.259124
2571,0.0000,0.0000,0.0000,0.000,0.000,0.000,370,2,368,390,385,2025-06-03T10:28:45.259124
2572,0.0000,0.0000,0.0000,0.000,0.000,0.000,376,2,368,359,385,2025-06-03T10:28:45.259124
2573,0.0000,0.0000,0.0000,0.000,0.000,0.000,381,1,341,384,387,2025-06-03T10:28:45.259124
2574,0.0000,0.0000,0.0000,0.000,0.000,0.000,379,1,347,347,388,2025-06-03T10:28:45.259124
2575,0.0000,0.0000,0.0000,0.000,0.000,0.000,356,1,343,379,401,2025-06-03T10:28:45.259124
2576,0.0000,0.0000,0.0000,0.000,0.000,0.000,376,1,355,372,389,2025-06-03T10:28:45.259124
2577,0.0000,0.0000,0.0000,0.000,0.000,0.000,384,1,354,388,394,2025-06-03T10:28:45.259124
2578,0.0000,0.0000,0.0000,0.000,0.000,0.000,333,1,335,392,395,2025-06-03T10:28:45.259124
2579,0.0000,0.0000,0.0000,0.000,0.000,0.000,360,1,351,389,400,2025-06-03T10:28:45.259124
2580,0.0000,0.0000,0.0000,0.000,0.000,0.000,337,2,359,395,400,2025-06-03T10:28:45.259124
2581,0.0000,0.0000,0.0000,0.000,0.000,0.000,332,2,361,382,406,2025-06-03T10:28:45.343817
2582,0.0000,0.0000,0.0000,0.000,0.000,0.000,354,2,366,404,403,2025-06-03T10:28:45.343817
2583,0.0000,0.0000,0.0000,0.000,0.000,0.000,368,2,362,407,389,2025-06-03T10:28:45.343817
2584,0.0000,0.0000,0.0000,0.000,0.000,0.000,375,1,360,364,344,2025-06-03T10:28:45.343817
2585,0.0000,0.0000,0.0000,0.000,0.000,0.000,352,1,358,390,368,2025-06-03T10:28:45.343817
2586,0.0000,0.0000,0.0000,0.000,0.000,0.000,376,1,366,407,376,2025-06-03T10:28:45.343817
2587,0.0000,0.0000,0.0000,0.000,0.000,0.000,367,2,371,396,347,2025-06-03T10:28:45.343817
2588,0.0000,0.0000,0.0000,0.000,0.000,0.000,376,1,369,353,365,2025-06-03T10:28:45.343817
2589,0.0000,0.0000,0.0000,0.000,0.000,0.000,387,1,360,385,389,2025-06-03T10:28:45.343817
2590,0.0000,0.0000,0.0000,0.000,0.000,0.000,390,2,367,395,381,2025-06-03T10:28:45.584492
2591,0.0000,0.0000,0.0000,0.000,0.000,0.000,395,2,370,395,392,2025-06-03T10:28:45.584492
2592,0.0000,0.0000,0.0000,0.000,0.000,0.000,392,1,361,398,384,2025-06-03T10:28:45.584492
2593,0.0000,0.0000,0.0000,0.000,0.000,0.000,388,2,361,385,394,2025-06-03T10:28:45.584492
2594,0.0000,0.0000,0.0000,0.000,0.000,0.000,393,2,365,397,395,2025-06-03T10:28:45.584492
2595,0.0000,0.0000,0.0000,0.000,0.000,0.000,381,1,366,406,399,2025-06-03T10:28:45.584492
2596,0.0000,0.0000,0.0000,0.000,0.000,0.000,395,1,371,406,357,2025-06-03T10:28:45.584492
2597,0.0000,0.0000,0.0000,0.000,0.000,0.000,395,1,343,395,366,2025-06-03T10:28:45.584492
2598,0.0000,0.0000,0.0000,0.000,0.000,0.000,400,1,345,391,374,2025-06-03T10:28:45.584492
2599,0.0000,0.0000,0.0000,0.000,0.000,0.000,391,1,353,383,381,2025-06-03T10:28:45.584492
2600,0.0000,0.0000,0.0000,0.000,0.000,0.000,396,1,352,397,387,2025-06-03T10:28:45.584492
2601,0.0000,0.0000,0.0000,0.000,0.000,0.000,395,2,355,392,397,2025-06-03T10:28:45.584492
2602,0.0000,0.0000,0.0000,0.000,0.000,0.000,391,2,353,403,394,2025-06-03T10:28:45.584492
2603,0.0000,0.0000,0.0000,0.000,0.000,0.000,400,1,360,410,367,2025-06-03T10:28:45.584492
2604,0.0000,0.0000,0.0000,0.000,0.000,0.000,393,2,342,390,373,2025-06-03T10:28:45.584492
2605,0.0000,0.0000,0.0000,0.000,0.000,0.000,385,1,343,386,376,2025-06-03T10:28:45.584492
2606,0.0000,0.0000,0.0000,0.000,0.000,0.000,388,2,354,396,356,2025-06-03T10:28:45.584492
2607,0.0000,0.0000,0.0000,0.000,0.000,0.000,361,1,352,389,377,2025-06-03T10:28:45.584492
2608,0.0000,0.0000,0.0000,0.000,0.000,0.000,377,1,354,322,387,2025-06-03T10:28:45.584492
2609,0.0000,0.0000,0.0000,0.000,0.000,0.000,387,2,351,366,403,2025-06-03T10:28:45.584492
2610,0.0000,0.0000,0.0000,0.000,0.000,0.000,397,1,355,388,359,2025-06-03T10:28:45.584492
2611,0.0000,0.0000,0.0000,0.000,0.000,0.000,404,1,365,385,384,2025-06-03T10:28:45.584492
2612,0.0000,0.0000,0.0000,0.000,0.000,0.000,407,2,365,379,396,2025-06-03T10:28:45.643838
2613,0.0000,0.0000,0.0000,0.000,0.000,0.000,381,1,342,379,385,2025-06-03T10:28:45.643838
2614,0.0000,0.0000,0.0000,0.000,0.000,0.000,381,1,345,395,393,2025-06-03T10:28:45.643838
2615,0.0000,0.0000,0.0000,0.000,0.000,0.000,378,1,347,385,381,2025-06-03T10:28:45.643838
2616,0.0000,0.0000,0.0000,0.000,0.000,0.000,377,2,355,375,394,2025-06-03T10:28:45.643838
2617,0.0000,0.0000,0.0000,0.000,0.000,0.000,391,2,365,383,394,2025-06-03T10:28:45.643838
2618,0.0000,0.0000,0.0000,0.000,0.000,0.000,360,1,365,393,402,2025-06-03T10:28:45.855446
2619,0.0000,0.0000,0.0000,0.000,0.000,0.000,371,1,359,400,395,2025-06-03T10:28:45.855446
2620,0.0000,0.0000,0.0000,0.000,0.000,0.000,386,1,367,398,393,2025-06-03T10:28:45.855446
2621,0.0000,0.0000,0.0000,0.000,0.000,0.000,383,2,365,381,379,2025-06-03T10:28:45.855446
2622,0.0000,0.0000,0.0000,0.000,0.000,0.000,382,1,362,384,395,2025-06-03T10:28:45.855446
2623,0.0000,0.0000,0.0000,0.000,0.000,0.000,395,1,366,397,397,2025-06-03T10:28:45.855446
2624,0.0000,0.0000,0.0000,0.000,0.000,0.000,388,1,370,405,393,2025-06-03T10:28:45.855446
2625,0.0000,0.0000,0.0000,0.000,0.000,0.000,387,1,367,398,398,2025-06-03T10:28:45.855446
2626,0.0000,0.0000,0.0000,0.000,0.000,0.000,384,1,363,396,355,2025-06-03T10:28:45.855446
2627,0.0000,0.0000,0.0000,0.000,0.000,0.000,390,2,363,391,372,2025-06-03T10:28:45.855446
2628,0.0000,0.0000,0.0000,0.000,0.000,0.000,386,2,370,399,373,2025-06-03T10:28:45.855446
2629,0.0000,0.0000,0.0000,0.000,0.000,0.000,389,1,369,402,377,2025-06-03T10:28:45.855446
2630,0.0000,0.0000,0.0000,0.000,0.000,0.000,388,1,372,398,392,2025-06-03T10:28:45.855446
2631,0.0000,0.0000,0.0000,0.000,0.000,0.000,368,1,348,388,390,2025-06-03T10:28:45.855446
2632,0.0000,0.0000,0.0000,0.000,0.000,0.000,378,2,360,387,351,2025-06-03T10:28:45.855446
2633,0.0000,0.0000,0.0000,0.000,0.000,0.000,385,1,355,374,329,2025-06-03T10:28:45.855446
2634,0.0000,0.0000,0.0000,0.000,0.000,0.000,394,2,355,387,362,2025-06-03T10:28:45.855446
2635,0.0000,0.0000,0.0000,0.000,0.000,0.000,405,2,366,361,377,2025-06-03T10:28:45.855446
2636,0.0000,0.0000,0.0000,0.000,0.000,0.000,400,2,368,376,385,2025-06-03T10:28:45.855446
2637,0.0000,0.0000,0.0000,0.000,0.000,0.000,391,1,361,383,394,2025-06-03T10:28:45.957322
2638,0.0000,0.0000,0.0000,0.000,0.000,0.000,393,1,360,379,383,2025-06-03T10:28:45.957322
2639,0.0000,0.0000,0.0000,0.000,0.000,0.000,395,1,337,391,389,2025-06-03T10:28:45.957322
2640,0.0000,0.0000,0.0000,0.000,0.000,0.000,397,2,344,386,394,2025-06-03T10:28:45.957322
2641,0.0000,0.0000,0.0000,0.000,0.000,0.000,395,1,330,352,397,2025-06-03T10:28:45.957322
2642,0.0000,0.0000,0.0000,0.000,0.000,0.000,395,2,343,381,360,2025-06-03T10:28:45.957322
2643,0.0000,0.0000,0.0000,0.000,0.000,0.000,394,1,326,354,379,2025-06-03T10:28:45.957322
2644,0.0000,0.0000,0.0000,0.000,0.000,0.000,396,1,334,371,394,2025-06-03T10:28:45.957322
2645,0.0000,0.0000,0.0000,0.000,0.000,0.000,395,1,320,376,384,2025-06-03T10:28:45.957322
2646,0.0000,0.0000,0.0000,0.000,0.000,0.000,367,2,339,375,382,2025-06-03T10:28:45.957322
2647,0.0000,0.0000,0.0000,0.000,0.000,0.000,376,2,343,389,394,2025-06-03T10:28:46.010781
2648,0.0000,0.0000,0.0000,0.000,0.000,0.000,384,2,348,355,388,2025-06-03T10:28:46.010781
2649,0.0000,0.0000,0.0000,0.000,0.000,0.000,360,2,346,367,393,2025-06-03T10:28:46.010781
2650,0.0000,0.0000,0.0000,0.000,0.000,0.000,370,1,349,375,387,2025-06-03T10:28:46.010781
2651,0.0000,0.0000,0.0000,0.000,0.000,0.000,380,2,359,390,402,2025-06-03T10:28:46.010781
2652,0.0000,0.0000,0.0000,0.000,0.000,0.000,362,2,364,400,370,2025-06-03T10:28:46.259257
2653,0.0000,0.0000,0.0000,0.000,0.000,0.000,383,2,368,369,375,2025-06-03T10:28:46.259257
2654,0.0000,0.0000,0.0000,0.000,0.000,0.000,384,1,369,371,376,2025-06-03T10:28:46.259257
2655,0.0000,0.0000,0.0000,0.000,0.000,0.000,391,1,373,381,381,2025-06-03T10:28:46.259257
2656,0.0000,0.0000,0.0000,0.000,0.000,0.000,400,2,373,396,355,2025-06-03T10:28:46.259257
2657,0.0000,0.0000,0.0000,0.000,0.000,0.000,403,1,372,398,381,2025-06-03T10:28:46.259257
2658,0.0000,0.0000,0.0000,0.000,0.000,0.000,368,1,370,395,386,2025-06-03T10:28:46.259257
2659,0.0000,0.0000,0.0000,0.000,0.000,0.000,388,2,349,389,382,2025-06-03T10:28:46.259257
2660,0.0000,0.0000,0.0000,0.000,0.000,0.000,367,1,332,394,380,2025-06-03T10:28:46.259257
2661,0.0000,0.0000,0.0000,0.000,0.000,0.000,386,1,342,389,391,2025-06-03T10:28:46.259257
2662,0.0000,0.0000,0.0000,0.000,0.000,0.000,391,1,343,399,386,2025-06-03T10:28:46.259257
2663,0.0000,0.0000,0.0000,0.000,0.000,0.000,397,1,354,365,387,2025-06-03T10:28:46.259257
2664,0.0000,0.0000,0.0000,0.000,0.000,0.000,389,2,358,354,397,2025-06-03T10:28:46.259257
2665,0.0000,0.0000,0.0000,0.000,0.000,0.000,391,1,363,382,367,2025-06-03T10:28:46.259257
2666,0.0000,0.0000,0.0000,0.000,0.000,0.000,399,1,360,385,388,2025-06-03T10:28:46.259257
2667,0.0000,0.0000,0.0000,0.000,0.000,0.000,402,1,370,394,348,2025-06-03T10:28:46.259257
2668,0.0000,0.0000,0.0000,0.000,0.000,0.000,396,1,367,377,367,2025-06-03T10:28:46.259257
2669,0.0000,0.0000,0.0000,0.000,0.000,0.000,390,2,372,347,376,2025-06-03T10:28:46.259257
2670,0.0000,0.0000,0.0000,0.000,0.000,0.000,361,2,363,364,396,2025-06-03T10:28:46.259257
2671,0.0000,0.0000,0.0000,0.000,0.000,0.000,341,1,366,396,359,2025-06-03T10:28:46.259257
2672,0.0000,0.0000,0.0000,0.000,0.000,0.000,365,2,371,399,380,2025-06-03T10:28:46.259257
2673,0.0000,0.0000,0.0000,0.000,0.000,0.000,343,2,370,404,396,2025-06-03T10:28:46.259257
2674,0.0000,0.0000,0.0000,0.000,0.000,0.000,360,2,373,409,401,2025-06-03T10:28:46.368941
2675,0.0000,0.0000,0.0000,0.000,0.000,0.000,343,2,373,363,396,2025-06-03T10:28:46.368941
2676,0.0000,0.0000,0.0000,0.000,0.000,0.000,376,1,347,383,358,2025-06-03T10:28:46.368941
2677,0.0000,0.0000,0.0000,0.000,0.000,0.000,376,2,334,343,333,2025-06-03T10:28:46.368941
2678,0.0000,0.0000,0.0000,0.000,0.000,0.000,388,1,336,336,328,2025-06-03T10:28:46.368941
2679,0.0000,0.0000,0.0000,0.000,0.000,0.000,366,1,350,377,372,2025-06-03T10:28:46.479329
2680,0.0000,0.0000,0.0000,0.000,0.000,0.000,373,1,362,398,385,2025-06-03T10:28:46.479329
2681,0.0000,0.0000,0.0000,0.000,0.000,0.000,374,1,362,407,382,2025-06-03T10:28:46.479329
2682,0.0000,0.0000,0.0000,0.000,0.000,0.000,391,2,368,413,398,2025-06-03T10:28:46.479329
2683,0.0000,0.0000,0.0000,0.000,0.000,0.000,394,1,370,414,385,2025-06-03T10:28:46.479329
2684,0.0000,0.0000,0.0000,0.000,0.000,0.000,398,1,368,372,314,2025-06-03T10:28:46.479329
2685,0.0000,0.0000,0.0000,0.000,0.000,0.000,392,1,358,338,356,2025-06-03T10:28:46.581079
2686,0.0000,0.0000,0.0000,0.000,0.000,0.000,401,1,361,362,389,2025-06-03T10:28:46.581079
2687,0.0000,0.0000,0.0000,0.000,0.000,0.000,402,2,372,376,395,2025-06-03T10:28:46.581079
2688,0.0000,0.0000,0.0000,0.000,0.000,0.000,395,1,366,381,396,2025-06-03T10:28:46.581079
2689,0.0000,0.0000,0.0000,0.000,0.000,0.000,398,1,372,365,388,2025-06-03T10:28:46.581079
2690,0.0000,0.0000,0.0000,0.000,0.000,0.000,393,2,366,372,362,2025-06-03T10:28:46.581079
2691,0.0000,0.0000,0.0000,0.000,0.000,0.000,398,1,345,370,376,2025-06-03T10:28:46.581079
2692,0.0000,0.0000,0.0000,0.000,0.000,0.000,393,1,355,385,376,2025-06-03T10:28:46.581079
2693,0.0000,0.0000,0.0000,0.000,0.000,0.000,401,1,341,377,388,2025-06-03T10:28:46.581079
2694,0.0000,0.0000,0.0000,0.000,0.000,0.000,395,2,345,388,388,2025-06-03T10:28:46.581079
2695,0.0000,0.0000,0.0000,0.000,0.000,0.000,393,2,356,392,321,2025-06-03T10:28:46.581079
2696,0.0000,0.0000,0.0000,0.000,0.000,0.000,399,1,358,344,343,2025-06-03T10:28:46.581079
2697,0.0000,0.0000,0.0000,0.000,0.000,0.000,405,1,355,378,338,2025-06-03T10:28:46.581079
2698,0.0000,0.0000,0.0000,0.000,0.000,0.000,399,2,361,379,359,2025-06-03T10:28:46.581079
2699,0.0000,0.0000,0.0000,0.000,0.000,0.000,404,1,359,398,368,2025-06-03T10:28:46.581079
2700,0.0000,0.0000,0.0000,0.000,0.000,0.000,404,1,343,388,356,2025-06-03T10:28:46.581079
2701,0.0000,0.0000,0.0000,0.000,0.000,0.000,407,2,355,382,335,2025-06-03T10:28:46.581079
2702,0.0000,0.0000,0.0000,0.000,0.000,0.000,403,1,354,398,364,2025-06-03T10:28:46.581079
2703,0.0000,0.0000,0.0000,0.000,0.000,0.000,414,2,368,416,394,2025-06-03T10:28:46.581079
2704,0.0000,0.0000,0.0000,0.000,0.000,0.000,423,2,379,413,395,2025-06-03T10:28:46.787129
2705,0.0000,0.0000,0.0000,0.000,0.000,0.000,427,2,384,415,401,2025-06-03T10:28:46.787129
2706,0.0000,0.0000,0.0000,0.000,0.000,0.000,419,2,381,416,404,2025-06-03T10:28:46.787129
2707,0.0000,0.0000,0.0000,0.000,0.000,0.000,391,1,378,396,400,2025-06-03T10:28:46.787129
2708,0.0000,0.0000,0.0000,0.000,0.000,0.000,367,2,380,402,398,2025-06-03T10:28:46.787129
2709,0.0000,0.0000,0.0000,0.000,0.000,0.000,386,1,380,385,382,2025-06-03T10:28:46.787129
2710,0.0000,0.0000,0.0000,0.000,0.000,0.000,371,1,370,395,376,2025-06-03T10:28:46.787129
2711,0.0000,0.0000,0.0000,0.000,0.000,0.000,389,2,380,403,381,2025-06-03T10:28:46.787129
2712,0.0000,0.0000,0.0000,0.000,0.000,0.000,406,1,386,375,394,2025-06-03T10:28:46.787129
2713,0.0000,0.0000,0.0000,0.000,0.000,0.000,411,1,385,398,407,2025-06-03T10:28:46.787129
2714,0.0000,0.0000,0.0000,0.000,0.000,0.000,407,1,389,400,367,2025-06-03T10:28:46.787129
2715,0.0000,0.0000,0.0000,0.000,0.000,0.000,419,1,382,405,382,2025-06-03T10:28:46.787129
2716,0.0000,0.0000,0.0000,0.000,0.000,0.000,390,1,359,372,333,2025-06-03T10:28:46.787129
2717,0.0000,0.0000,0.0000,0.000,0.000,0.000,378,1,352,371,356,2025-06-03T10:28:46.787129
2718,0.0000,0.0000,0.0000,0.000,0.000,0.000,348,1,352,341,366,2025-06-03T10:28:46.787129
2719,0.0000,0.0000,0.0000,0.000,0.000,0.000,380,1,351,365,372,2025-06-03T10:28:46.787129
2720,0.0000,0.0000,0.0000,0.000,0.000,0.000,399,1,367,394,387,2025-06-03T10:28:46.787129
2721,0.0000,0.0000,0.0000,0.000,0.000,0.000,390,1,360,381,379,2025-06-03T10:28:46.787129
2722,0.0000,0.0000,0.0000,0.000,0.000,0.000,352,1,351,378,345,2025-06-03T10:28:46.787129
2723,0.0000,0.0000,0.0000,0.000,0.000,0.000,370,1,348,390,366,2025-06-03T10:28:46.988644
2724,0.0000,0.0000,0.0000,0.000,0.000,0.000,381,2,359,398,345,2025-06-03T10:28:46.988644
2725,0.0000,0.0000,0.0000,0.000,0.000,0.000,389,1,360,384,362,2025-06-03T10:28:46.988644
2726,0.0000,0.0000,0.0000,0.000,0.000,0.000,395,1,364,358,370,2025-06-03T10:28:46.988644
2727,0.0000,0.0000,0.0000,0.000,0.000,0.000,389,2,370,389,386,2025-06-03T10:28:46.988644
2728,0.0000,0.0000,0.0000,0.000,0.000,0.000,399,2,367,382,355,2025-06-03T10:28:46.988644
2729,0.0000,0.0000,0.0000,0.000,0.000,0.000,391,2,362,379,372,2025-06-03T10:28:46.988644
2730,0.0000,0.0000,0.0000,0.000,0.000,0.000,391,1,366,360,384,2025-06-03T10:28:46.988644
2731,0.0000,0.0000,0.0000,0.000,0.000,0.000,399,1,364,337,384,2025-06-03T10:28:46.988644
2732,0.0000,0.0000,0.0000,0.000,0.000,0.000,402,2,357,372,386,2025-06-03T10:28:46.988644
2733,0.0000,0.0000,0.0000,0.000,0.000,0.000,397,1,335,368,392,2025-06-03T10:28:46.988644
2734,0.0000,0.0000,0.0000,0.000,0.000,0.000,398,1,324,381,384,2025-06-03T10:28:46.988644
2735,0.0000,0.0000,0.0000,0.000,0.000,0.000,402,1,338,382,391,2025-06-03T10:28:46.988644
2736,0.0000,0.0000,0.0000,0.000,0.000,0.000,391,2,349,383,398,2025-06-03T10:28:46.988644
2737,0.0000,0.0000,0.0000,0.000,0.000,0.000,403,1,356,362,398,2025-06-03T10:28:46.988644
2738,0.0000,0.0000,0.0000,0.000,0.000,0.000,403,1,350,382,354,2025-06-03T10:28:46.988644
2739,0.0000,0.0000,0.0000,0.000,0.000,0.000,405,1,357,386,344,2025-06-03T10:28:46.988644
2740,0.0000,0.0000,0.0000,0.000,0.000,0.000,394,1,360,355,359,2025-06-03T10:28:46.988644
2741,0.0000,0.0000,0.0000,0.000,0.000,0.000,389,1,353,380,369,2025-06-03T10:28:46.988644
2742,0.0000,0.0000,0.0000,0.000,0.000,0.000,360,2,355,346,375,2025-06-03T10:28:46.988644
2743,0.0000,0.0000,0.0000,0.000,0.000,0.000,367,2,357,382,385,2025-06-03T10:28:47.236238
2744,0.0000,0.0000,0.0000,0.000,0.000,0.000,382,1,364,363,387,2025-06-03T10:28:47.236238
2745,0.0000,0.0000,0.0000,0.000,0.000,0.000,387,2,362,385,390,2025-06-03T10:28:47.236238
2746,0.0000,0.0000,0.0000,0.000,0.000,0.000,396,1,341,392,403,2025-06-03T10:28:47.236238
2747,0.0000,0.0000,0.0000,0.000,0.000,0.000,386,2,349,400,400,2025-06-03T10:28:47.236238
2748,0.0000,0.0000,0.0000,0.000,0.000,0.000,389,1,359,402,392,2025-06-03T10:28:47.236238
2749,0.0000,0.0000,0.0000,0.000,0.000,0.000,401,1,358,392,393,2025-06-03T10:28:47.236238
2750,0.0000,0.0000,0.0000,0.000,0.000,0.000,386,1,357,393,395,2025-06-03T10:28:47.236238
2751,0.0000,0.0000,0.0000,0.000,0.000,0.000,380,1,358,387,399,2025-06-03T10:28:47.236238
2752,0.0000,0.0000,0.0000,0.000,0.000,0.000,387,2,365,385,390,2025-06-03T10:28:47.236238
2753,0.0000,0.0000,0.0000,0.000,0.000,0.000,398,1,368,395,392,2025-06-03T10:28:47.236238
2754,0.0000,0.0000,0.0000,0.000,0.000,0.000,403,1,365,397,384,2025-06-03T10:28:47.236238
2755,0.0000,0.0000,0.0000,0.000,0.000,0.000,394,2,366,365,378,2025-06-03T10:28:47.236238
2756,0.0000,0.0000,0.0000,0.000,0.000,0.000,388,1,363,373,388,2025-06-03T10:28:47.236238
2757,0.0000,0.0000,0.0000,0.000,0.000,0.000,384,2,369,376,386,2025-06-03T10:28:47.236238
2758,0.0000,0.0000,0.0000,0.000,0.000,0.000,394,1,362,342,383,2025-06-03T10:28:47.236238
2759,0.0000,0.0000,0.0000,0.000,0.000,0.000,386,2,356,344,390,2025-06-03T10:28:47.236238
2760,0.0000,0.0000,0.0000,0.000,0.000,0.000,392,1,338,329,396,2025-06-03T10:28:47.236238
2761,0.0000,0.0000,0.0000,0.000,0.000,0.000,370,2,346,324,386,2025-06-03T10:28:47.236238
2762,0.0000,0.0000,0.0000,0.000,0.000,0.000,388,2,351,369,390,2025-06-03T10:28:47.236238
2763,0.0000,0.0000,0.0000,0.000,0.000,0.000,399,2,363,380,397,2025-06-03T10:28:47.236238
2764,0.0000,0.0000,0.0000,0.000,0.000,0.000,388,2,361,378,395,2025-06-03T10:28:47.236238
2765,0.0000,0.0000,0.0000,0.000,0.000,0.000,389,2,369,390,393,2025-06-03T10:28:47.282629
2766,0.0000,0.0000,0.0000,0.000,0.000,0.000,389,1,374,392,362,2025-06-03T10:28:47.282629
2767,0.0000,0.0000,0.0000,0.000,0.000,0.000,384,1,373,375,368,2025-06-03T10:28:47.282629
2768,0.0000,0.0000,0.0000,0.000,0.000,0.000,359,1,372,382,385,2025-06-03T10:28:47.282629
2769,0.0000,0.0000,0.0000,0.000,0.000,0.000,376,2,366,352,386,2025-06-03T10:28:47.282629
2770,0.0000,0.0000,0.0000,0.000,0.000,0.000,380,2,366,346,380,2025-06-03T10:28:47.494604
2771,0.0000,0.0000,0.0000,0.000,0.000,0.000,359,1,362,375,376,2025-06-03T10:28:47.494604
2772,0.0000,0.0000,0.0000,0.000,0.000,0.000,371,2,365,344,378,2025-06-03T10:28:47.494604
2773,0.0000,0.0000,0.0000,0.000,0.000,0.000,387,1,363,376,378,2025-06-03T10:28:47.494604
2774,0.0000,0.0000,0.0000,0.000,0.000,0.000,362,2,372,392,392,2025-06-03T10:28:47.494604
2775,0.0000,0.0000,0.0000,0.000,0.000,0.000,381,2,366,391,394,2025-06-03T10:28:47.494604
