SeqNum,AccX,AccY,AccZ,GyroX,GyroY,GyroZ,Flex,Force1,Force2,Force3,Force4,TimestampReception
2318,-0.2133,0.0224,0.9184,-2.310,52.360,-64.680,476,441,296,405,378,2025-05-27T22:35:17.313884
2319,-0.4939,0.8613,0.1479,-6.755,-5.705,0.105,468,446,306,417,387,2025-05-27T22:35:17.314885
2320,-0.4943,0.8623,0.1581,-6.230,-7.980,0.210,432,407,334,314,389,2025-05-27T22:35:17.314885
2321,-0.4924,0.8657,0.1659,-5.320,-10.465,0.665,391,413,358,375,386,2025-05-27T22:35:17.314885
2322,-0.4943,0.8672,0.1718,-3.535,-12.565,0.385,342,349,362,384,402,2025-05-27T22:35:17.314885
2323,-0.5002,0.8735,0.1864,-2.100,-15.155,-0.140,400,409,379,394,352,2025-05-27T22:35:17.314885
2324,-0.4968,0.8774,0.1972,-0.455,-17.325,-0.455,422,426,351,402,390,2025-05-27T22:35:17.314885
2325,-0.4880,0.8823,0.2030,1.260,-19.355,-0.350,352,422,376,410,365,2025-05-27T22:35:17.314885
2326,-0.4753,0.9033,0.2128,2.800,-20.265,0.280,380,431,362,393,392,2025-05-27T22:35:17.462938
2327,-0.4763,0.9174,0.2191,2.765,-20.685,0.700,372,408,378,414,400,2025-05-27T22:35:17.462938
2328,-0.4548,0.9370,0.2191,1.995,-20.370,2.310,359,419,383,399,396,2025-05-27T22:35:17.462938
2329,-0.4348,0.9492,0.2133,1.505,-18.655,4.410,385,415,384,412,409,2025-05-27T22:35:17.462938
2330,-0.4158,0.9687,0.2030,1.050,-15.225,6.335,401,420,390,358,354,2025-05-27T22:35:17.462938
2331,-0.4099,0.9843,0.1996,0.840,-12.495,7.910,405,423,368,390,379,2025-05-27T22:35:17.462938
2332,-0.4338,0.9911,0.1923,0.280,-10.465,9.065,386,419,383,404,387,2025-05-27T22:35:17.462938
2333,-0.4446,0.9955,0.1874,-0.805,-10.255,11.130,411,411,380,380,363,2025-05-27T22:35:17.462938
2334,-0.4743,0.9809,0.1767,-1.260,-11.410,13.790,419,437,365,392,380,2025-05-27T22:35:17.462938
2335,-0.4909,0.9677,0.1693,-1.680,-13.265,17.045,415,418,383,407,397,2025-05-27T22:35:17.462938
2336,-0.4924,0.9536,0.1645,-2.835,-14.910,20.195,391,425,370,309,403,2025-05-27T22:35:17.462938
2337,-0.4846,0.9374,0.1586,-4.410,-14.700,22.575,409,427,373,359,396,2025-05-27T22:35:17.462938
2338,-0.4704,0.9121,0.1581,-5.390,-13.055,25.340,403,429,380,396,411,2025-05-27T22:35:17.624839
2339,-0.4577,0.8872,0.1606,-5.810,-11.655,27.545,397,426,382,412,411,2025-05-27T22:35:17.624839
2340,-0.4416,0.8657,0.1723,-6.160,-9.520,28.805,391,425,368,356,364,2025-05-27T22:35:17.624839
2341,-0.4246,0.8472,0.1806,-6.370,-7.595,29.260,417,408,379,391,402,2025-05-27T22:35:17.624839
2342,-0.4192,0.8272,0.1903,-6.125,-6.370,29.225,433,423,374,414,405,2025-05-27T22:35:17.624839
2343,-0.4070,0.8120,0.2089,-5.915,-5.600,28.490,399,408,373,399,406,2025-05-27T22:35:17.624839
2344,-0.3958,0.8057,0.2206,-5.950,-4.270,27.020,396,394,391,414,406,2025-05-27T22:35:17.624839
2345,-0.3928,0.7901,0.2318,-6.160,-3.955,25.340,412,421,379,400,414,2025-05-27T22:35:17.624839
2346,-0.3933,0.7857,0.2430,-6.440,-4.655,23.730,428,406,383,387,409,2025-05-27T22:35:17.624839
2347,-0.3894,0.7788,0.2416,-6.440,-5.565,22.225,427,406,393,391,412,2025-05-27T22:35:17.624839
2348,-0.3884,0.7725,0.2367,-5.425,-5.530,19.985,432,371,378,385,415,2025-05-27T22:35:17.624839
2349,-0.3899,0.7706,0.2294,-3.255,-4.585,17.395,400,295,375,397,390,2025-05-27T22:35:17.624839
2350,-0.3777,0.7813,0.2298,-1.470,-3.325,15.330,393,393,385,411,389,2025-05-27T22:35:17.624839
2351,-0.3806,0.7871,0.2425,-0.245,-1.785,13.195,416,409,345,411,382,2025-05-27T22:35:17.624839
2352,-0.3836,0.8081,0.2499,0.315,0.175,11.235,427,400,363,388,384,2025-05-27T22:35:17.725734
2353,-0.3792,0.8228,0.2538,-0.245,0.840,9.310,425,416,371,385,405,2025-05-27T22:35:17.725734
2354,-0.3811,0.8418,0.2621,-1.400,2.100,8.050,421,420,385,404,403,2025-05-27T22:35:17.725734
2355,-0.3738,0.8486,0.2577,-2.450,3.535,6.335,409,420,379,345,397,2025-05-27T22:35:17.725734
2356,-0.3597,0.8642,0.2640,-3.535,3.990,4.620,419,419,371,367,409,2025-05-27T22:35:17.725734
2357,-0.3660,0.8760,0.2625,-4.305,4.305,2.835,423,422,383,383,396,2025-05-27T22:35:17.725734
2358,-0.3758,0.8789,0.2596,-4.970,3.710,1.400,348,350,381,386,409,2025-05-27T22:35:17.725734
2359,-0.3904,0.8867,0.2679,-5.110,1.015,0.280,388,410,357,399,402,2025-05-27T22:35:17.725734
2360,-0.3919,0.8950,0.2752,-5.775,-2.765,-0.245,372,371,330,419,409,2025-05-27T22:35:17.873065
2361,-0.3948,0.8994,0.2660,-6.475,-5.390,-0.070,412,404,324,423,405,2025-05-27T22:35:17.873065
2362,-0.3919,0.9096,0.2664,-6.860,-7.105,0.385,413,426,347,393,389,2025-05-27T22:35:17.873065
2363,-0.3875,0.9096,0.2645,-7.455,-7.875,0.840,426,433,357,385,388,2025-05-27T22:35:17.873065
2364,-0.3850,0.9004,0.2596,-7.735,-7.385,1.435,417,424,363,399,393,2025-05-27T22:35:17.873065
2365,-0.3933,0.8984,0.2586,-7.210,-6.265,2.590,405,409,372,348,413,2025-05-27T22:35:17.873065
2366,-0.3943,0.8896,0.2689,-7.070,-5.635,3.745,393,412,347,377,414,2025-05-27T22:35:17.874067
2367,-0.3953,0.8906,0.2743,-7.595,-4.865,5.180,343,344,373,392,419,2025-05-27T22:35:17.874067
2368,-0.4055,0.8701,0.2630,-7.735,-4.200,6.650,321,396,383,388,378,2025-05-27T22:35:17.874067
2369,-0.4065,0.8691,0.2650,-7.035,-4.060,7.490,327,401,386,358,354,2025-05-27T22:35:17.874067
2370,-0.3963,0.8682,0.2591,-7.280,-3.185,8.505,339,397,391,370,384,2025-05-27T22:35:17.874067
2371,-0.3841,0.8545,0.2455,-7.385,-0.665,9.345,406,405,396,383,401,2025-05-27T22:35:17.874067
2372,-0.3831,0.8423,0.2333,-5.775,1.365,9.625,389,411,383,388,312,2025-05-27T22:35:18.275899
2373,-0.3787,0.8345,0.2308,-3.920,3.290,9.870,416,419,377,400,362,2025-05-27T22:35:18.275899
2374,-0.3797,0.8345,0.2372,-2.695,4.690,9.240,404,403,377,421,372,2025-05-27T22:35:18.276897
2375,-0.3753,0.8296,0.2352,-1.855,5.915,8.575,420,371,370,421,390,2025-05-27T22:35:18.277051
2376,-0.3767,0.8272,0.2352,-0.980,6.055,7.525,396,371,368,414,366,2025-05-27T22:35:18.277051
2377,-0.3909,0.8291,0.2445,-0.350,4.935,6.475,353,410,340,421,393,2025-05-27T22:35:18.277051
2378,-0.3933,0.8306,0.2474,0.560,1.190,5.600,405,398,353,392,345,2025-05-27T22:35:18.277051
2379,-0.3875,0.8384,0.2494,1.505,-3.850,3.990,390,408,375,390,390,2025-05-27T22:35:18.277051
2380,-0.3792,0.8472,0.2577,1.470,-8.225,1.855,370,427,368,347,393,2025-05-27T22:35:18.277051
2381,-0.3567,0.8511,0.2621,1.645,-11.130,0.805,403,409,361,376,312,2025-05-27T22:35:18.277051
2382,-0.3411,0.8638,0.2616,1.575,-11.515,0.175,401,410,369,375,368,2025-05-27T22:35:18.277051
2383,-0.3318,0.9955,0.2694,1.400,-9.835,-0.455,356,371,376,405,378,2025-05-27T22:35:18.277051
2384,-0.3314,0.8818,0.2796,1.120,-7.525,-1.820,328,363,370,310,394,2025-05-27T22:35:18.277051
2385,-0.3255,0.8921,0.2855,0.770,-4.970,-2.940,359,401,371,355,350,2025-05-27T22:35:18.277051
2386,-0.3367,0.9067,0.2991,0.210,-2.835,-3.850,402,427,376,332,343,2025-05-27T22:35:18.278063
2387,-0.3431,0.9140,0.3026,-0.840,-1.995,-4.480,387,418,384,365,383,2025-05-27T22:35:18.278063
2388,-0.3538,0.9150,0.3035,-1.015,-2.625,-4.795,400,386,387,390,393,2025-05-27T22:35:18.278063
2389,-0.3597,0.9213,0.3070,-0.840,-4.130,-5.180,392,406,352,415,344,2025-05-27T22:35:18.278063
2390,-0.3645,0.9267,0.3089,-1.015,-6.125,-5.425,410,397,361,389,366,2025-05-27T22:35:18.278063
2391,-0.3611,0.9272,0.3065,-1.330,-8.120,-5.075,416,418,376,400,362,2025-05-27T22:35:18.278063
2392,-0.3621,0.9257,0.2957,-1.680,-9.345,-4.795,423,431,386,413,336,2025-05-27T22:35:18.278063
2393,-0.3523,0.9218,0.2928,-2.135,-9.905,-4.235,399,432,386,354,320,2025-05-27T22:35:18.380509
2394,-0.3543,0.9165,0.2791,-2.380,-9.905,-3.675,356,420,380,357,379,2025-05-27T22:35:18.380509
2395,-0.3509,0.9126,0.2733,-2.240,-9.345,-2.870,401,436,376,296,381,2025-05-27T22:35:18.380509
2396,-0.3489,0.9004,0.2635,-2.100,-8.610,-1.925,406,437,371,367,388,2025-05-27T22:35:18.380509
2397,-0.3553,0.8896,0.2616,-2.100,-7.875,-1.435,356,425,383,376,349,2025-05-27T22:35:18.380509
2398,-0.3562,0.8882,0.2557,-2.065,-7.000,-0.805,409,405,380,401,366,2025-05-27T22:35:18.380509
2399,-0.3621,0.8779,0.3714,-1.890,-6.615,-0.455,418,426,375,344,351,2025-05-27T22:35:18.380509
2400,-0.3670,0.8735,0.2440,-1.260,-6.545,-0.350,420,409,373,391,368,2025-05-27T22:35:18.380509
2401,-0.3645,0.8672,0.2391,-0.525,-6.650,-0.210,423,422,376,369,372,2025-05-27T22:35:18.380509
2402,-0.3582,0.8647,0.2411,0.140,-6.335,-0.350,417,393,379,392,341,2025-05-27T22:35:18.380509
2403,-0.3587,0.8628,0.2440,0.945,-5.495,-0.595,395,416,395,400,346,2025-05-27T22:35:18.380509
2404,-0.3514,0.8569,0.2455,1.610,-4.200,-0.980,407,428,318,372,330,2025-05-27T22:35:18.380509
2405,-0.3509,0.8613,0.2518,1.715,-3.080,-1.645,400,373,349,401,361,2025-05-27T22:35:18.380509
2406,-0.3548,0.8584,0.2533,1.960,-2.240,-2.135,390,418,377,412,337,2025-05-27T22:35:18.380509
2407,-0.3650,0.8633,0.2547,2.380,-2.275,-2.520,403,430,393,396,382,2025-05-27T22:35:18.380509
2408,-0.3675,0.8608,0.2616,2.905,-3.500,-2.800,362,424,356,309,381,2025-05-27T22:35:18.381554
2409,-0.3636,0.8623,0.2557,3.220,-4.060,-2.940,397,427,356,382,408,2025-05-27T22:35:18.381554
2410,-0.3621,0.8677,0.2611,3.780,-3.115,-3.395,421,406,376,408,317,2025-05-27T22:35:18.381554
2411,-0.3572,0.8686,0.2591,3.850,-1.890,-3.920,419,428,389,396,369,2025-05-27T22:35:18.381554
2412,-0.3597,0.8725,0.2640,3.990,-0.770,-4.130,424,433,382,354,347,2025-05-27T22:35:18.381554
2413,-0.3636,0.8716,0.2704,4.235,-0.490,-4.165,430,408,395,373,378,2025-05-27T22:35:18.381554
2414,-0.3699,0.8730,0.2777,3.920,-1.190,-4.165,387,409,382,340,340,2025-05-27T22:35:18.598742
2415,-0.3684,0.8760,0.2767,3.535,-1.995,-4.375,395,415,369,376,390,2025-05-27T22:35:18.598742
2416,-0.3675,0.8799,0.2733,3.745,-2.275,-4.550,340,357,365,400,349,2025-05-27T22:35:18.598742
2417,-0.3660,0.8828,0.2713,3.920,-2.485,-4.830,382,417,370,419,393,2025-05-27T22:35:18.598742
2418,-0.3650,0.8882,0.2689,4.620,-2.590,-4.970,336,374,382,378,356,2025-05-27T22:35:18.598742
2419,-0.3714,0.8926,0.2699,5.110,-2.450,-5.215,284,416,379,379,373,2025-05-27T22:35:18.598742
2420,-0.3738,0.8999,0.2660,5.250,-2.590,-5.425,392,427,378,404,401,2025-05-27T22:35:18.598742
2421,-0.3728,0.9023,0.2630,4.900,-2.590,-5.250,412,373,378,415,386,2025-05-27T22:35:18.598742
2422,-0.3723,0.9033,0.2542,4.620,-2.135,-4.620,401,401,385,404,385,2025-05-27T22:35:18.598742
2423,-0.3762,0.9062,0.2542,4.130,-2.065,-3.955,389,421,386,400,389,2025-05-27T22:35:18.598742
2424,-0.3772,0.9018,0.2430,3.535,-2.660,-3.220,395,429,380,390,408,2025-05-27T22:35:18.598742
2425,-0.3836,0.9038,0.2347,3.395,-3.185,-2.415,391,425,380,392,371,2025-05-27T22:35:18.598742
2426,-0.3831,0.9023,0.2284,3.360,-3.535,-1.610,394,401,383,341,393,2025-05-27T22:35:18.598742
2427,-0.3821,0.9101,0.2289,2.765,-3.640,-0.980,407,394,392,393,388,2025-05-27T22:35:18.598742
2428,-0.3806,0.9072,0.2181,1.575,-2.870,-0.385,397,419,388,385,382,2025-05-27T22:35:18.765010
2429,-0.3850,0.9043,0.2103,0.770,-2.380,0.210,405,398,392,363,385,2025-05-27T22:35:18.765010
2430,-0.3875,0.9004,0.2098,0.455,-2.310,0.700,391,419,391,369,389,2025-05-27T22:35:18.773392
2431,-0.3909,0.8979,0.2094,0.245,-2.590,1.365,390,403,394,400,401,2025-05-27T22:35:18.773392
2432,-0.3884,0.8940,0.2074,0.105,-2.660,2.240,381,415,379,390,352,2025-05-27T22:35:18.773666
2433,-0.3894,0.8930,0.2084,-0.070,-2.800,2.695,364,343,381,409,392,2025-05-27T22:35:18.773732
2434,-0.3889,0.8960,0.2137,-0.735,-2.345,2.940,389,406,385,421,401,2025-05-27T22:35:18.773910
2435,-0.3855,0.8906,0.2123,-0.910,-2.345,3.710,398,354,387,409,390,2025-05-27T22:35:18.773910
2436,-0.3816,0.8877,0.2162,-0.805,-2.660,4.270,425,390,381,414,401,2025-05-27T22:35:18.774027
2437,-0.3743,0.8847,0.2162,-0.665,-2.695,4.515,432,418,371,415,345,2025-05-27T22:35:18.774027
2438,-0.3660,0.8867,0.2186,-0.630,-1.820,4.865,415,419,363,421,368,2025-05-27T22:35:18.774027
2439,-0.3611,0.8867,0.2206,-0.455,-0.945,4.795,406,397,368,403,379,2025-05-27T22:35:18.774027
2440,-0.3616,0.8877,0.2206,0.035,-0.245,4.725,340,394,371,396,380,2025-05-27T22:35:18.774027
2441,-0.3592,0.8852,0.2216,0.175,0.105,4.620,400,399,377,415,389,2025-05-27T22:35:18.774027
2442,-0.3587,0.8862,0.2245,0.525,0.560,4.550,393,419,374,367,402,2025-05-27T22:35:18.774027
2443,-0.3601,0.8852,0.2298,1.050,0.385,4.305,426,433,367,402,401,2025-05-27T22:35:18.774027
2444,-0.3597,0.8862,0.2318,1.295,-0.140,3.535,418,426,338,393,405,2025-05-27T22:35:18.774027
2445,-0.3626,0.8872,0.2338,1.505,-0.595,3.290,421,422,368,393,410,2025-05-27T22:35:18.774027
2446,-0.3597,0.8882,0.2323,1.890,-0.910,2.765,433,415,369,411,396,2025-05-27T22:35:18.774027
2447,-0.3616,0.8882,0.2362,2.310,-1.295,2.170,399,419,368,370,402,2025-05-27T22:35:18.957450
2448,-0.3577,0.8891,0.2411,2.380,-0.840,1.470,417,419,365,389,412,2025-05-27T22:35:18.957581
2449,-0.3548,0.8916,0.2367,2.205,-0.070,0.840,367,424,377,343,395,2025-05-27T22:35:18.957780
2450,-0.3587,0.8906,0.2328,2.415,-0.070,0.105,333,418,338,331,403,2025-05-27T22:35:18.957780
2451,-0.3655,0.8940,0.2338,2.835,0.035,-0.525,381,421,370,400,414,2025-05-27T22:35:18.957993
2452,-0.3665,0.8935,0.2342,3.010,-0.315,-0.875,371,408,380,418,395,2025-05-27T22:35:18.957993
2453,-0.3714,0.8994,0.2347,2.940,-0.665,-1.190,384,357,384,401,385,2025-05-27T22:35:18.958180
2454,-0.3743,0.8974,0.2352,2.730,-0.630,-1.225,418,409,384,406,344,2025-05-27T22:35:18.958180
2455,-0.3772,0.8984,0.2303,2.730,-0.665,-1.330,424,434,385,407,386,2025-05-27T22:35:18.958180
2456,-0.3792,0.8994,0.2294,2.625,-0.770,-1.540,361,431,384,359,397,2025-05-27T22:35:18.958180
2457,-0.3758,0.9004,0.2318,2.240,-1.085,-1.365,383,431,386,381,396,2025-05-27T22:35:18.958180
2458,-0.3787,0.8984,0.2289,1.855,-1.330,-1.190,365,396,340,391,396,2025-05-27T22:35:18.958180
2459,-0.3802,0.9052,0.2284,1.575,-1.540,-1.120,390,422,328,386,409,2025-05-27T22:35:18.958180
2460,-0.3728,0.9052,0.2250,1.120,-1.680,-0.910,411,434,363,406,424,2025-05-27T22:35:18.958180
2461,-0.3772,0.9048,0.2259,0.735,-1.540,-0.910,376,373,367,409,417,2025-05-27T22:35:18.958180
2462,-0.3758,0.9028,0.2259,0.350,-1.365,-1.015,403,398,384,413,393,2025-05-27T22:35:18.958180
2463,-0.3782,0.8979,0.2220,0.210,-1.925,-0.630,406,393,370,353,380,2025-05-27T22:35:19.174073
2464,-0.3772,0.8960,0.2240,0.560,-2.275,-0.735,392,343,368,357,398,2025-05-27T22:35:19.174073
2465,-0.3728,0.8955,0.2211,0.840,-1.890,-0.840,340,334,382,397,403,2025-05-27T22:35:19.174073
2466,-0.3714,0.8926,0.2181,0.805,-1.260,-0.910,399,402,392,415,404,2025-05-27T22:35:19.174073
2467,-0.3714,0.8930,0.2186,0.735,-0.595,-0.840,419,406,393,406,412,2025-05-27T22:35:19.174073
2468,-0.3743,0.8926,0.2235,0.385,-0.280,-0.735,372,357,348,399,405,2025-05-27T22:35:19.174073
2469,-0.3748,0.8877,0.2172,0.070,-0.490,-0.875,402,423,370,393,388,2025-05-27T22:35:19.174073
2470,-0.3767,0.8833,0.2176,0.525,-1.015,-0.945,403,403,378,352,397,2025-05-27T22:35:19.174073
2471,-0.3738,0.8896,0.2220,0.770,-1.400,-1.295,412,381,375,390,392,2025-05-27T22:35:19.174073
2472,-0.3650,0.8838,0.2186,0.700,-1.260,-1.505,408,422,386,393,387,2025-05-27T22:35:19.174073
2473,-0.3636,0.8799,0.2201,0.910,-1.015,-1.995,415,343,384,410,403,2025-05-27T22:35:19.174073
2474,-0.3601,0.8794,0.2211,1.120,-0.595,-3.150,419,386,360,407,394,2025-05-27T22:35:19.174073
2475,-0.3592,0.8833,0.2274,0.525,0.035,-3.885,401,380,345,407,395,2025-05-27T22:35:19.174073
2476,-0.3616,0.8857,0.2264,-0.035,0.280,-4.445,413,391,357,391,386,2025-05-27T22:35:19.174073
2477,-0.3606,0.8823,0.2225,0.000,0.490,-4.900,343,413,372,358,348,2025-05-27T22:35:19.174073
2478,-0.3660,0.8823,0.2245,0.210,0.420,-5.495,405,425,370,386,372,2025-05-27T22:35:19.174073
2479,-0.3684,0.8838,0.2279,-0.070,0.175,-5.880,421,414,371,389,377,2025-05-27T22:35:19.174073
2480,-0.3743,0.8862,0.2298,-0.245,-0.420,-6.405,423,392,373,382,384,2025-05-27T22:35:19.174073
2481,-0.3772,0.8886,0.2362,-0.630,-1.295,-6.860,428,377,368,374,399,2025-05-27T22:35:19.174073
2482,-0.3782,0.8867,0.2323,-0.560,-2.310,-6.825,408,415,381,407,407,2025-05-27T22:35:19.259154
2483,-0.3772,0.8857,0.2342,-0.210,-2.730,-6.860,393,336,307,391,408,2025-05-27T22:35:19.259154
2484,-0.3772,0.8955,0.2377,-0.105,-2.100,-6.895,407,414,339,389,387,2025-05-27T22:35:19.259154
2485,-0.3811,0.8969,0.2328,-0.280,-1.155,-6.825,400,405,364,388,399,2025-05-27T22:35:19.259154
2486,-0.3953,0.8960,0.2333,-0.105,-1.120,-6.510,418,348,367,408,374,2025-05-27T22:35:19.259154
2487,-0.4050,0.8960,0.2308,0.630,-1.855,-5.880,423,407,377,392,394,2025-05-27T22:35:19.259154
2488,-0.4080,0.8950,0.2240,1.120,-3.115,-5.390,401,425,380,360,363,2025-05-27T22:35:19.359802
2489,-0.4109,0.8969,0.2245,1.435,-3.500,-4.900,340,431,387,378,348,2025-05-27T22:35:19.359802
2490,-0.4075,0.8935,0.2220,1.400,-3.080,-4.340,375,415,393,335,379,2025-05-27T22:35:19.367907
2491,-0.4089,0.8926,0.2216,1.155,-2.730,-3.570,409,405,372,334,384,2025-05-27T22:35:19.367907
2492,-0.4128,0.8867,0.2152,1.435,-2.485,-2.730,398,394,373,388,348,2025-05-27T22:35:19.367907
2493,-0.4114,0.8867,0.2137,1.855,-2.030,-2.170,418,422,383,404,336,2025-05-27T22:35:19.367907
2494,-0.4089,0.8862,0.2230,1.435,-1.505,-1.610,355,342,351,341,370,2025-05-27T22:35:19.367907
2495,-0.4119,0.8852,0.2255,0.910,-1.610,-0.770,361,409,373,395,383,2025-05-27T22:35:19.367907
2496,-0.4065,0.8852,0.2186,0.980,-2.170,-0.350,331,396,376,369,395,2025-05-27T22:35:19.367907
2497,-0.4002,0.8896,0.2167,1.260,-2.835,0.000,394,407,340,403,408,2025-05-27T22:35:19.592764
2498,-0.3928,0.8926,0.2172,1.435,-2.870,0.210,397,419,367,415,399,2025-05-27T22:35:19.592764
2499,-0.3919,0.8979,0.2216,1.330,-2.450,0.315,414,420,347,416,376,2025-05-27T22:35:19.592764
2500,-0.3899,0.9004,0.2201,1.295,-2.345,0.420,382,407,374,402,364,2025-05-27T22:35:19.592764
2501,-0.3924,0.9008,0.2201,1.435,-2.870,0.700,347,397,335,410,355,2025-05-27T22:35:19.592764
2502,-0.3924,0.8994,0.2220,1.820,-3.465,0.770,404,356,365,393,392,2025-05-27T22:35:19.592764
2503,-0.3865,0.9033,0.2235,1.680,-3.570,0.840,396,416,387,388,405,2025-05-27T22:35:19.592764
2504,-0.3880,0.9067,0.2230,1.400,-3.010,0.945,397,419,378,385,400,2025-05-27T22:35:19.592764
2505,-0.3889,0.9043,0.2191,1.260,-2.660,1.330,418,361,372,409,407,2025-05-27T22:35:19.592764
2506,-0.3938,0.9057,0.2196,1.330,-2.485,1.470,413,413,385,395,403,2025-05-27T22:35:19.592764
2507,-0.3958,0.9033,0.2220,1.155,-2.380,1.575,418,395,341,385,400,2025-05-27T22:35:19.592764
2508,-0.3958,0.9008,0.2220,0.805,-2.450,1.750,378,414,369,413,398,2025-05-27T22:35:19.592764
2509,-0.3967,0.8989,0.2225,0.385,-2.765,2.065,411,430,375,399,390,2025-05-27T22:35:19.592764
2510,-0.3958,0.8960,0.2196,-8.960,-2.730,2.100,431,419,333,396,399,2025-05-27T22:35:19.592764
2511,-0.3924,0.8901,0.2201,-0.420,-2.940,2.135,422,407,364,420,392,2025-05-27T22:35:19.592764
2512,-0.3933,0.8896,0.2176,-0.770,-2.905,1.925,376,423,364,427,383,2025-05-27T22:35:19.592764
2513,-0.3924,0.8886,0.2176,-1.155,-2.590,1.575,406,431,367,415,396,2025-05-27T22:35:19.592764
2514,-0.3928,0.8877,0.2230,-1.890,-2.345,1.190,403,422,371,412,364,2025-05-27T22:35:19.592764
2515,-0.3948,0.8857,0.2181,-2.275,-2.660,0.875,393,425,386,404,342,2025-05-27T22:35:19.592764
2516,-0.3963,0.8838,0.2162,-2.345,-3.010,0.455,398,431,343,385,380,2025-05-27T22:35:19.823585
2517,-0.3933,0.8847,0.2172,-2.100,-3.010,0.000,404,381,350,396,409,2025-05-27T22:35:19.823585
2518,-0.3948,0.8862,0.2230,-2.205,-3.045,-0.280,408,425,367,398,410,2025-05-27T22:35:20.106649
2519,-0.3928,0.8886,0.2274,-2.275,-3.500,-0.280,409,427,364,411,409,2025-05-27T22:35:20.106649
2520,-0.3963,0.8901,0.2250,-2.205,-3.500,-0.560,385,428,368,363,408,2025-05-27T22:35:20.106649
2521,-0.3972,0.8906,0.2284,-2.345,-3.605,-0.595,414,420,338,390,417,2025-05-27T22:35:20.106649
2522,-0.3943,0.8950,0.2284,-2.450,-3.955,-0.385,421,387,366,398,373,2025-05-27T22:35:20.106649
2523,-0.3958,0.8926,0.2250,-2.345,-4.095,-0.070,406,426,347,397,380,2025-05-27T22:35:20.106649
2524,-0.3948,0.8935,0.2274,-2.135,-4.340,0.210,415,420,363,382,360,2025-05-27T22:35:20.106649
2525,-0.3909,0.8935,0.2230,-2.135,-4.480,0.665,428,400,375,395,381,2025-05-27T22:35:20.106649
2526,-0.3894,0.8926,0.2264,-2.450,-4.095,0.910,421,420,343,404,396,2025-05-27T22:35:20.106649
2527,-0.3889,0.8906,0.2206,-2.730,-3.955,1.260,434,385,356,373,393,2025-05-27T22:35:20.106649
2528,-0.3924,0.8823,0.2162,-2.520,-4.165,1.435,421,420,378,402,407,2025-05-27T22:35:20.106649
2529,-0.3880,0.8813,0.2181,-2.170,-4.095,1.645,410,378,386,406,355,2025-05-27T22:35:20.106649
2530,-0.3850,0.8769,0.2172,-1.960,-3.395,1.855,340,411,380,370,393,2025-05-27T22:35:20.106649
2531,-0.3802,0.8745,0.2191,-1.785,-2.730,1.680,380,401,387,395,384,2025-05-27T22:35:20.106649
2532,-0.3777,0.8755,0.2162,-1.645,-1.680,1.155,385,410,391,392,390,2025-05-27T22:35:20.106649
2533,-0.3758,0.8740,0.2152,-1.330,-0.875,0.700,417,417,390,351,390,2025-05-27T22:35:20.106649
2534,-0.3777,0.8760,0.2172,-0.945,-0.350,0.210,420,421,389,331,395,2025-05-27T22:35:20.106649
2535,-0.3811,0.8769,0.2211,-1.015,-0.105,-0.245,344,385,389,386,408,2025-05-27T22:35:20.106649
2536,-0.3841,0.8779,0.2191,-0.945,-0.210,-0.700,379,417,379,408,317,2025-05-27T22:35:20.106649
2537,-0.3865,0.8794,0.2235,-0.910,-0.665,-1.085,409,410,376,374,381,2025-05-27T22:35:20.106649
2538,-0.3904,0.8794,0.2250,-0.980,-1.120,-1.225,392,368,384,413,391,2025-05-27T22:35:20.106649
2539,-0.3889,0.8813,0.2240,-1.050,-1.575,-1.085,388,352,374,373,343,2025-05-27T22:35:20.106649
2540,-0.3963,0.8823,0.2298,-0.945,-1.750,-1.085,398,382,385,382,378,2025-05-27T22:35:20.106649
2541,-0.3943,0.8847,0.2328,-1.015,-1.610,-0.805,428,390,377,401,387,2025-05-27T22:35:20.106649
2542,-0.3963,0.8896,0.2318,-1.505,-1.295,-0.560,420,429,343,408,416,2025-05-27T22:35:20.106649
2543,-0.4046,0.8891,0.2357,-1.890,-0.980,-0.210,431,347,351,391,415,2025-05-27T22:35:20.106649
2544,-0.4128,0.8911,0.2347,-2.065,-1.295,0.140,408,388,363,398,412,2025-05-27T22:35:20.106649
2545,-0.4124,0.8916,0.2342,-2.100,-2.660,0.525,401,413,372,350,415,2025-05-27T22:35:20.106649
2546,-0.4114,0.8911,0.2347,-2.065,-3.430,0.910,399,400,374,408,425,2025-05-27T22:35:20.106649
2547,-0.4075,0.8891,0.2328,-1.785,-3.710,1.190,383,408,354,402,408,2025-05-27T22:35:20.106649
2548,-0.4011,0.8872,0.2362,-1.470,-3.570,1.575,419,406,344,400,412,2025-05-27T22:35:20.106649
2549,-0.3987,0.8911,0.2416,-1.470,-2.450,1.715,376,399,367,408,370,2025-05-27T22:35:20.106649
2550,-0.4002,0.8867,0.2391,-1.540,-1.925,1.820,408,402,379,402,357,2025-05-27T22:35:20.106649
2551,-0.3992,0.8808,0.2401,-1.365,-2.240,1.960,411,405,381,348,355,2025-05-27T22:35:20.106649
2552,-0.3977,0.8833,0.2425,-1.155,-2.800,2.240,407,404,383,397,387,2025-05-27T22:35:20.106649
2553,-0.3909,0.8823,0.2406,-1.365,-3.290,2.345,404,427,377,406,400,2025-05-27T22:35:20.106649
2554,-0.3860,0.8799,0.2362,-1.575,-3.710,2.275,413,424,393,414,408,2025-05-27T22:35:20.106649
2555,-0.3782,0.8818,0.2313,-1.540,-3.290,1.925,413,407,379,407,387,2025-05-27T22:35:20.106649
2556,-0.3723,0.8789,0.2284,-1.540,-2.765,1.505,420,424,388,409,402,2025-05-27T22:35:20.106649
2557,-0.3738,0.8794,0.2255,-1.505,-2.030,1.225,401,404,376,409,395,2025-05-27T22:35:20.173983
2558,-0.3772,0.8764,0.2264,-1.155,-1.715,0.980,399,386,387,388,385,2025-05-27T22:35:20.173983
2559,-0.3787,0.8769,0.2264,-0.805,-1.680,0.420,416,425,394,392,395,2025-05-27T22:35:20.173983
2560,-0.3831,0.8774,0.2245,-0.385,-1.750,0.350,415,407,390,303,340,2025-05-27T22:35:20.173983
2561,-0.3821,0.8804,0.2303,-0.175,-1.820,0.105,408,343,387,372,348,2025-05-27T22:35:20.173983
2562,-0.3870,0.8813,0.2342,-0.525,-1.785,-0.105,390,385,397,383,370,2025-05-27T22:35:20.173983
2563,-0.3865,0.8789,0.2303,-0.455,-1.995,0.035,407,399,381,403,376,2025-05-27T22:35:20.173983
2564,-0.3909,0.8779,0.2352,0.070,-2.520,-0.105,421,417,390,418,389,2025-05-27T22:35:20.173983
2565,-0.3860,0.8799,0.2328,0.280,-2.660,-0.105,343,400,356,405,396,2025-05-27T22:35:20.173983
2566,-0.3821,0.8823,0.2352,0.140,-2.135,-0.105,387,414,365,420,408,2025-05-27T22:35:20.391104
2567,-0.3850,0.8808,0.2342,0.245,-1.295,-0.210,410,408,378,418,367,2025-05-27T22:35:20.391104
2568,-0.3865,0.8813,0.2352,0.490,-1.365,-0.385,408,400,371,396,374,2025-05-27T22:35:20.391104
2569,-0.3889,0.8828,0.2372,0.735,-1.540,-0.385,400,348,382,408,352,2025-05-27T22:35:20.391104
2570,-0.3924,0.8818,0.2381,0.700,-1.820,-0.350,402,342,387,413,395,2025-05-27T22:35:20.391104
2571,-0.3909,0.8828,0.2391,0.665,-2.100,-0.490,401,412,343,416,367,2025-05-27T22:35:20.391104
2572,-0.3919,0.8823,0.2372,0.700,-2.205,-0.420,414,397,323,402,386,2025-05-27T22:35:20.391104
2573,-0.3943,0.8838,0.2362,0.665,-2.275,-0.490,426,422,349,409,384,2025-05-27T22:35:20.391104
2574,-0.3928,0.8852,0.2381,0.595,-2.555,-0.420,438,397,365,404,393,2025-05-27T22:35:20.391104
2575,-0.3977,0.8823,0.2352,0.735,-2.905,-0.175,417,408,373,389,399,2025-05-27T22:35:20.391104
2576,-0.3953,0.8862,0.2381,1.050,-3.080,-0.175,419,409,385,405,392,2025-05-27T22:35:20.391104
2577,-0.3914,0.8867,0.2357,0.735,-2.660,-0.280,403,429,373,400,407,2025-05-27T22:35:20.391104
2578,-0.3928,0.8843,0.2347,0.630,-2.310,-0.105,423,427,362,359,412,2025-05-27T22:35:20.391104
2579,-0.3948,0.8828,0.2342,1.120,-2.730,0.105,376,377,376,387,416,2025-05-27T22:35:20.391104
2580,-0.3958,0.8867,0.2333,1.470,-3.325,0.280,390,407,367,392,379,2025-05-27T22:35:20.391104
2581,-0.3972,0.8882,0.2342,1.365,-3.605,0.315,388,344,333,398,358,2025-05-27T22:35:20.391104
2582,-0.3948,0.8886,0.2298,1.435,-3.500,0.490,415,399,347,393,377,2025-05-27T22:35:20.391104
2583,-0.3933,0.8891,0.2303,1.400,-3.500,0.770,338,397,359,393,390,2025-05-27T22:35:20.391104
2584,-0.3924,0.8896,0.2313,1.260,-3.430,0.980,333,340,378,369,398,2025-05-27T22:35:20.490642
2585,-0.3884,0.8872,0.2274,1.225,-3.255,1.120,392,389,340,381,404,2025-05-27T22:35:20.490642
2586,-0.3909,0.8872,0.2250,1.295,-3.010,0.980,386,423,355,400,415,2025-05-27T22:35:20.490642
2587,-0.3909,0.8882,0.2264,0.945,-2.870,1.190,392,366,361,394,415,2025-05-27T22:35:20.490642
2588,-0.3928,0.8847,0.2294,0.910,-2.695,1.540,418,393,373,387,401,2025-05-27T22:35:20.490642
2589,-0.3919,0.8847,0.2303,0.525,-2.940,1.540,410,420,379,406,407,2025-05-27T22:35:20.490642
2590,-0.3938,0.8862,0.2298,0.385,-3.150,1.505,419,426,389,406,415,2025-05-27T22:35:20.490642
2591,-0.3904,0.8857,0.2284,0.315,-3.395,1.505,417,424,394,310,405,2025-05-27T22:35:20.490642
2592,-0.3802,0.8901,0.2269,0.560,-3.150,1.190,409,401,396,390,423,2025-05-27T22:35:20.593745
2593,-0.3797,0.8926,0.2269,0.455,-2.450,0.910,395,390,399,396,407,2025-05-27T22:35:20.593745
2594,-0.3816,0.8921,0.2264,0.490,-2.205,0.910,399,392,345,406,400,2025-05-27T22:35:20.593745
2595,-0.3836,0.8921,0.2284,0.805,-2.555,0.945,298,405,367,399,401,2025-05-27T22:35:20.593745
2596,-0.3850,0.8926,0.2338,0.735,-3.010,0.805,372,365,363,394,368,2025-05-27T22:35:20.593745
2597,-0.3870,0.8896,0.2333,0.385,-3.115,0.805,409,391,361,389,383,2025-05-27T22:35:20.593745
2598,-0.3826,0.8852,0.2308,0.175,-3.185,0.840,429,402,370,395,400,2025-05-27T22:35:20.593745
2599,-0.3855,0.8857,0.2303,0.000,-3.220,0.595,384,356,384,412,402,2025-05-27T22:35:20.593745
2600,-0.3841,0.8872,0.2250,-0.035,-3.045,0.805,424,360,378,353,401,2025-05-27T22:35:20.693456
2601,-0.3870,0.8872,0.2264,-0.140,-3.115,0.805,349,373,370,390,393,2025-05-27T22:35:20.693456
2602,-0.3855,0.8877,0.2255,-0.140,-2.940,0.910,388,338,384,386,405,2025-05-27T22:35:20.693456
2603,-0.3919,0.8882,0.2259,0.035,-2.905,0.980,407,383,384,414,356,2025-05-27T22:35:20.693456
2604,-0.3914,0.8901,0.2269,0.140,-3.430,1.120,402,407,387,392,389,2025-05-27T22:35:20.693456
2605,-0.3928,0.8896,0.2269,0.140,-3.465,1.085,420,352,390,412,347,2025-05-27T22:35:20.693456
2606,-0.3919,0.8872,0.2264,0.000,-3.185,1.085,396,402,358,413,381,2025-05-27T22:35:20.693456
2607,-0.3919,0.8867,0.2284,0.140,-2.870,1.120,402,409,379,400,301,2025-05-27T22:35:20.693456
2608,-0.3904,0.8867,0.2289,0.035,-2.835,1.330,394,409,385,338,361,2025-05-27T22:35:20.693456
2609,-0.3904,0.8833,0.2298,0.035,-3.080,1.575,404,417,340,391,336,2025-05-27T22:35:20.840729
2610,-0.3904,0.8828,0.2308,0.175,-3.395,1.645,379,404,364,390,367,2025-05-27T22:35:20.840729
2611,-0.3816,0.8867,0.2318,0.140,-3.710,1.785,406,404,370,392,343,2025-05-27T22:35:20.840729
2612,-0.3753,0.8857,0.2313,0.175,-3.325,1.540,387,387,381,413,362,2025-05-27T22:35:20.840729
2613,-0.3758,0.8872,0.2313,0.420,-2.555,1.260,407,406,384,374,384,2025-05-27T22:35:20.840729
2614,-0.3743,0.8862,0.2308,0.455,-2.520,0.980,422,426,353,377,399,2025-05-27T22:35:20.840729
2615,-0.3802,0.8867,0.2298,0.665,-2.625,0.770,411,339,365,404,416,2025-05-27T22:35:20.840729
2616,-0.3792,0.8877,0.2289,0.700,-2.835,0.385,366,408,366,364,395,2025-05-27T22:35:20.840729
2617,-0.3826,0.8886,0.2279,0.560,-3.080,0.105,384,361,378,379,400,2025-05-27T22:35:20.840729
2618,-0.3821,0.8877,0.2259,0.420,-3.115,-0.070,350,415,386,412,409,2025-05-27T22:35:20.840729
2619,-0.3855,0.8872,0.2255,0.420,-3.185,0.070,401,414,394,351,393,2025-05-27T22:35:20.840729
2620,-0.3836,0.8862,0.2259,0.140,-3.185,0.175,339,402,376,292,395,2025-05-27T22:35:20.840729
2621,-0.3836,0.8901,0.2289,-0.350,-2.800,0.070,399,405,376,341,393,2025-05-27T22:35:20.996281
2622,-0.3841,0.8877,0.2255,-0.490,-2.555,0.070,384,396,388,350,406,2025-05-27T22:35:20.996281
2623,-0.3875,0.8906,0.2264,-0.140,-2.450,0.210,406,436,351,392,415,2025-05-27T22:35:20.996281
2624,-0.3875,0.8921,0.2313,-0.140,-2.555,0.175,397,420,351,405,391,2025-05-27T22:35:20.996281
2625,-0.3875,0.8921,0.2338,-0.245,-2.625,0.420,398,375,358,363,400,2025-05-27T22:35:20.996281
2626,-0.3880,0.8896,0.2308,-0.245,-2.975,0.525,406,414,375,332,397,2025-05-27T22:35:20.996281
2627,-0.3836,0.8882,0.2284,-0.035,-2.940,0.560,407,389,370,330,385,2025-05-27T22:35:20.996281
2628,-0.3850,0.8901,0.2338,0.140,-2.870,0.735,418,395,365,380,356,2025-05-27T22:35:20.996281
2629,-0.3865,0.8896,0.2362,0.035,-2.975,0.700,377,396,383,380,335,2025-05-27T22:35:20.996281
2630,-0.3875,0.8872,0.2303,0.280,-3.185,0.525,414,426,393,383,379,2025-05-27T22:35:20.996281
2631,-0.3850,0.8886,0.2328,0.735,-3.395,0.700,399,430,388,352,385,2025-05-27T22:35:20.996281
2632,-0.3855,0.8921,0.2328,0.525,-3.325,0.665,414,431,389,380,346,2025-05-27T22:35:20.996281
2633,-0.3845,0.8926,0.2318,-0.035,-3.045,0.805,429,424,392,398,333,2025-05-27T22:35:20.996281
2634,-0.3836,0.8926,0.2289,-0.350,-2.765,1.050,388,409,388,410,392,2025-05-27T22:35:20.996281
2635,-0.3880,0.8891,0.2298,-0.385,-2.835,1.155,407,418,384,423,411,2025-05-27T22:35:21.115514
2636,-0.3884,0.8886,0.2298,-0.245,-3.885,1.295,338,398,375,408,418,2025-05-27T22:35:21.115514
2637,-0.3850,0.8896,0.2294,-0.035,-4.690,1.295,326,400,306,418,364,2025-05-27T22:35:21.115514
2638,-0.3792,0.8891,0.2269,0.175,-4.515,1.260,383,400,345,411,371,2025-05-27T22:35:21.115514
2639,-0.3743,0.8911,0.2294,0.175,-3.570,1.190,337,425,358,417,391,2025-05-27T22:35:21.115514
2640,-0.3797,0.8886,0.2269,0.385,-2.870,1.085,386,430,375,415,402,2025-05-27T22:35:21.115514
2641,-0.3811,0.8886,0.2274,0.560,-2.520,1.225,343,424,382,412,405,2025-05-27T22:35:21.115514
2642,-0.3816,0.8896,0.2313,0.420,-2.625,1.330,404,375,376,371,380,2025-05-27T22:35:21.115514
2643,-0.3841,0.8906,0.2279,0.140,-2.940,1.260,423,405,382,401,389,2025-05-27T22:35:21.242513
2644,-0.3826,0.8891,0.2245,0.105,-3.325,1.365,404,376,346,413,381,2025-05-27T22:35:21.242513
2645,-0.3831,0.8901,0.2264,0.140,-3.640,1.645,399,338,371,424,401,2025-05-27T22:35:21.242513
2646,-0.3743,0.8901,0.2225,0.140,-3.290,1.715,423,410,373,421,405,2025-05-27T22:35:21.242513
2647,-0.3743,0.8877,0.2240,-0.035,-2.590,1.365,420,346,378,408,413,2025-05-27T22:35:21.242513
2648,-0.3743,0.8867,0.2225,-0.175,-1.890,1.155,387,414,340,356,367,2025-05-27T22:35:21.242513
2649,-0.3772,0.8852,0.2225,0.000,-2.030,1.155,393,420,369,373,389,2025-05-27T22:35:21.242513
2650,-0.3782,0.8886,0.2255,0.070,-2.240,0.875,406,434,384,406,371,2025-05-27T22:35:21.242513
2651,-0.3772,0.8896,0.2259,0.035,-2.310,0.560,420,414,394,416,397,2025-05-27T22:35:21.242513
2652,-0.3758,0.8882,0.2274,0.035,-2.415,0.210,344,398,357,407,392,2025-05-27T22:35:21.242513
2653,-0.3792,0.8872,0.2284,0.315,-2.170,-0.035,326,416,335,408,409,2025-05-27T22:35:21.242513
2654,-0.3792,0.8872,0.2269,0.420,-1.645,-0.105,404,386,365,392,354,2025-05-27T22:35:21.242513
2655,-0.3806,0.8877,0.2284,0.175,-1.330,-0.105,404,395,361,391,368,2025-05-27T22:35:21.407667
2656,-0.3836,0.8828,0.2255,0.350,-1.540,0.420,368,398,369,342,378,2025-05-27T22:35:21.407667
2657,-0.3845,0.8877,0.2298,0.560,-1.750,0.770,417,411,330,341,341,2025-05-27T22:35:21.407667
2658,-0.3850,0.8911,0.2284,0.035,-1.855,0.840,404,379,346,396,394,2025-05-27T22:35:21.407667
2659,-0.3850,0.8901,0.2259,-0.280,-2.170,1.225,423,334,361,413,407,2025-05-27T22:35:21.407667
2660,-0.3894,0.8930,0.2240,-0.210,-2.555,1.365,402,326,336,369,398,2025-05-27T22:35:21.407667
2661,-0.3860,0.8930,0.2216,0.105,-3.115,1.680,400,407,366,406,414,2025-05-27T22:35:21.407667
2662,-0.3836,0.8965,0.2245,0.035,-3.150,1.820,356,423,376,415,413,2025-05-27T22:35:21.407667
2663,-0.3821,0.8935,0.2240,0.245,-2.695,2.065,380,348,336,376,362,2025-05-27T22:35:21.407667
2664,-0.3836,0.8945,0.2230,0.735,-2.170,2.345,400,400,327,396,400,2025-05-27T22:35:21.407667
2665,-0.3841,0.8960,0.2284,0.630,-1.750,2.380,416,358,361,415,398,2025-05-27T22:35:21.407667
2666,-0.3889,0.8950,0.2298,0.280,-2.135,2.485,426,408,302,417,397,2025-05-27T22:35:21.407667
2667,-0.3855,0.8906,0.2269,0.420,-3.080,2.905,432,375,343,353,398,2025-05-27T22:35:21.407667
2668,-0.3728,0.8882,0.2250,0.910,-3.535,3.220,428,353,362,357,389,2025-05-27T22:35:21.611262
2669,-0.3621,0.8867,0.2225,1.085,-2.730,3.150,418,335,365,371,402,2025-05-27T22:35:21.611262
2670,-0.3553,0.8862,0.2250,1.015,-1.505,2.835,426,368,338,338,401,2025-05-27T22:35:21.611262
2671,-0.3528,0.8833,0.2294,0.980,-1.260,2.450,433,394,357,381,408,2025-05-27T22:35:21.611262
2672,-0.3514,0.8794,0.2294,1.015,-1.435,1.855,412,369,366,397,405,2025-05-27T22:35:21.611262
2673,-0.3470,0.8677,0.2328,1.050,-2.310,1.050,401,340,363,407,411,2025-05-27T22:35:21.611262
2674,-0.3431,0.8628,0.2347,1.085,-3.430,0.175,424,391,372,348,410,2025-05-27T22:35:21.611262
2675,-0.3274,0.8501,0.2386,1.015,-4.340,-0.945,428,371,377,371,412,2025-05-27T22:35:21.611262
2676,-0.3152,0.8491,0.2416,1.155,-4.620,-2.170,359,400,386,362,362,2025-05-27T22:35:21.611262
2677,-0.2908,0.8516,0.2469,0.840,-4.445,-4.340,407,405,376,332,332,2025-05-27T22:35:21.611262
2678,-0.2782,0.8642,0.2547,-0.035,-4.340,-7.245,391,411,381,388,325,2025-05-27T22:35:21.726275
2679,-0.2630,0.8823,0.2606,-0.770,-5.425,-11.130,412,402,390,399,385,2025-05-27T22:35:21.726275
2680,-0.2499,0.9160,0.2713,-2.835,-7.840,-16.275,342,422,398,399,379,2025-05-27T22:35:21.726275
2681,-0.2338,0.9550,0.2987,-4.970,-12.460,-20.405,405,411,390,413,395,2025-05-27T22:35:21.726275
2682,-0.2074,1.0009,0.3206,-9.030,-18.305,-24.325,424,406,312,370,401,2025-05-27T22:35:21.726275
2683,-0.1815,1.0980,0.3294,-15.050,-26.215,-27.720,341,382,357,388,390,2025-05-27T22:35:21.726275
2684,-0.1376,1.1668,0.3816,-24.045,-36.715,-31.920,409,423,368,368,407,2025-05-27T22:35:21.726275
2685,-0.1498,1.3566,0.4080,-32.410,-51.660,-32.935,404,415,369,394,412,2025-05-27T22:35:21.726275
2686,-0.1176,1.5587,0.4363,-44.485,-68.460,-32.095,413,427,376,394,418,2025-05-27T22:35:21.726275
2687,-0.0908,1.7631,0.4353,-59.185,-93.135,-31.605,404,402,372,348,417,2025-05-27T22:35:21.726275
2688,-0.0581,1.9247,0.4089,-74.515,-116.130,-29.750,414,434,379,372,319,2025-05-27T22:35:21.726275
2689,-0.0122,2.0799,0.3821,-90.545,-143.780,-23.835,401,425,375,396,377,2025-05-27T22:35:21.726275
2690,0.0742,2.1989,0.3265,-106.085,-170.170,-15.890,420,382,388,373,395,2025-05-27T22:35:21.726275
2691,0.1659,2.2907,0.1976,-119.035,-187.215,-6.580,393,408,343,382,361,2025-05-27T22:35:21.726275
2692,0.2294,2.2858,0.0742,-131.250,-191.205,4.340,423,423,355,401,391,2025-05-27T22:35:21.726275
2693,0.3055,2.2267,-0.0737,-139.895,-193.200,15.225,428,400,335,412,352,2025-05-27T22:35:21.726275
2694,0.3396,2.1218,-0.2064,-146.300,-186.795,22.505,363,403,363,422,375,2025-05-27T22:35:21.726275
2695,0.3665,1.8788,-0.3645,-153.685,-170.345,24.990,381,395,381,412,392,2025-05-27T22:35:21.726275
2696,0.4026,1.8661,-0.4577,-161.665,-145.600,20.475,409,343,370,419,403,2025-05-27T22:35:21.811203
2697,0.4441,1.7046,-0.4831,-174.580,-114.380,7.945,417,414,338,410,405,2025-05-27T22:35:21.811203
2698,0.3221,1.5011,-0.4519,-187.285,-87.570,-4.620,421,416,370,416,390,2025-05-27T22:35:21.811203
2699,0.1796,1.2517,-0.4163,-191.205,-84.000,-17.395,423,403,368,405,404,2025-05-27T22:35:21.811203
2700,-0.0142,1.0629,-0.2830,-193.410,-94.570,-48.055,417,420,380,354,390,2025-05-27T22:35:21.811203
2701,-0.1576,0.8901,-0.0503,-205.555,-117.565,-89.600,361,391,385,379,390,2025-05-27T22:35:21.811203
2702,-0.1952,0.6832,0.0600,-224.245,-148.330,-120.540,417,391,374,409,397,2025-05-27T22:35:21.811203
2703,-0.1078,0.2630,-0.0898,-221.900,-197.960,-138.530,397,397,373,391,390,2025-05-27T22:35:21.908745
2704,-0.2528,-0.1200,0.1366,-213.885,-221.060,-176.155,340,418,369,401,387,2025-05-27T22:35:21.908745
2705,-0.2059,-0.4841,0.2752,-226.485,-230.265,-217.630,406,409,379,402,384,2025-05-27T22:35:21.908745
2706,-0.2059,-1.0072,0.4485,-256.130,-246.435,-246.435,384,418,381,392,388,2025-05-27T22:35:21.908745
2707,-0.2489,-1.7173,0.6222,-279.895,-252.945,-268.870,391,342,376,409,385,2025-05-27T22:35:21.908745
2708,-0.3367,-2.5220,0.8477,-305.270,-249.970,-278.530,420,288,341,411,394,2025-05-27T22:35:21.908745
2709,-0.3943,-3.0505,1.2678,-308.070,-242.830,-266.910,418,277,357,408,394,2025-05-27T22:35:21.908745
2710,-0.3967,-3.6053,1.4972,-274.610,-226.310,-230.300,422,374,380,418,402,2025-05-27T22:35:21.908745
2711,-0.5871,-3.7332,1.6280,-195.300,-183.260,-157.010,427,414,386,419,407,2025-05-27T22:35:22.166817
2712,-0.3484,-3.4487,1.5782,-66.220,-136.045,-21.840,427,398,352,397,414,2025-05-27T22:35:22.166817
2713,0.3030,-3.0441,1.5177,77.385,-67.550,61.075,365,398,334,405,410,2025-05-27T22:35:22.166817
2714,0.4465,-2.6777,1.5362,175.490,54.110,125.020,390,416,361,411,390,2025-05-27T22:35:22.166817
2715,0.3221,-2.2531,1.5855,209.895,169.645,161.770,362,425,370,414,393,2025-05-27T22:35:22.166817
2716,-0.0444,-1.9281,1.5543,217.350,191.765,179.690,379,427,363,388,365,2025-05-27T22:35:22.166817
2717,-0.2313,-1.7719,1.4215,231.035,144.760,181.370,379,419,375,413,386,2025-05-27T22:35:22.166817
2718,-0.1254,-1.5230,1.2044,250.075,119.525,174.230,402,438,375,407,404,2025-05-27T22:35:22.166817
2719,0.0781,-1.0399,0.9823,270.935,149.940,172.305,392,386,372,353,390,2025-05-27T22:35:22.166817
2720,0.2538,-0.4358,0.8379,277.900,212.730,174.930,371,394,368,379,391,2025-05-27T22:35:22.166817
2721,0.3792,0.0405,0.6886,268.240,267.750,171.605,408,415,379,398,403,2025-05-27T22:35:22.166817
2722,0.3416,0.4290,0.5958,249.340,313.145,176.085,415,397,388,423,402,2025-05-27T22:35:22.166817
2723,0.2128,0.6988,0.3904,244.055,333.725,176.295,422,382,391,394,366,2025-05-27T22:35:22.166817
2724,0.1005,0.8247,0.2650,244.020,328.160,156.205,419,332,390,407,389,2025-05-27T22:35:22.166817
2725,0.0444,1.0277,0.1645,243.740,309.155,143.815,423,325,385,398,403,2025-05-27T22:35:22.166817
2726,-0.0127,1.1444,0.0522,232.540,284.620,142.940,400,399,383,386,388,2025-05-27T22:35:22.166817
2727,-0.0752,1.2254,-0.0039,219.275,241.430,138.600,420,356,383,387,395,2025-05-27T22:35:22.166817
2728,-0.0112,1.2864,-0.0532,205.415,184.485,128.520,415,393,383,406,395,2025-05-27T22:35:22.166817
2729,0.0459,1.4381,0.0054,183.435,138.565,108.850,406,428,388,393,399,2025-05-27T22:35:22.166817
2730,0.1972,1.5221,-0.0010,156.345,104.160,94.150,393,411,391,402,420,2025-05-27T22:35:22.233959
2731,0.3118,1.4840,-0.0605,138.565,71.750,85.365,333,417,377,349,408,2025-05-27T22:35:22.239183
2732,0.4046,1.4562,-0.0517,124.075,45.780,75.530,399,408,377,392,406,2025-05-27T22:35:22.239183
2733,0.4738,1.4489,0.0073,111.230,36.925,60.235,396,434,384,348,409,2025-05-27T22:35:22.239183
2734,0.5022,1.4093,0.0893,93.205,33.880,48.230,413,352,342,389,411,2025-05-27T22:35:22.239183
2735,0.4514,1.3571,0.1254,79.380,29.015,34.895,407,334,357,399,400,2025-05-27T22:35:22.239183
2736,0.3562,1.2834,0.1503,74.515,16.940,21.315,405,320,376,396,398,2025-05-27T22:35:22.239183
2737,0.2552,1.2615,0.2216,63.350,1.680,9.240,364,333,376,347,393,2025-05-27T22:35:22.239183
2738,0.1825,1.2302,0.2640,66.745,-17.990,1.750,389,407,384,381,408,2025-05-27T22:35:22.333523
2739,0.1415,1.2137,0.2694,63.665,-37.835,-3.150,401,389,390,408,391,2025-05-27T22:35:22.333523
2740,0.1576,1.1863,0.2401,59.360,-45.955,-7.560,411,414,387,409,380,2025-05-27T22:35:22.333523
2741,0.1791,1.1810,0.2289,52.395,-39.760,-11.410,425,343,389,389,375,2025-05-27T22:35:22.333523
2742,0.1610,1.1536,0.2059,46.375,-23.240,-15.015,392,393,391,392,342,2025-05-27T22:35:22.333523
2743,0.0830,1.1161,0.2011,42.980,-10.010,-15.155,411,418,396,303,363,2025-05-27T22:35:22.333523
2744,-0.0063,1.0897,0.2128,40.390,-5.040,-15.855,421,416,363,362,378,2025-05-27T22:35:22.333523
2745,-0.0795,1.0760,0.2220,36.785,-2.800,-16.485,414,419,382,406,384,2025-05-27T22:35:22.476919
2746,-0.1264,1.0482,0.2255,31.780,-1.785,-16.030,393,419,380,404,404,2025-05-27T22:35:22.476919
2747,-0.1640,1.0316,0.2084,27.370,-2.555,-15.365,366,410,389,407,396,2025-05-27T22:35:22.476919
2748,-0.2113,1.0194,0.2015,22.855,-6.860,-13.755,409,405,383,412,396,2025-05-27T22:35:22.476919
2749,-0.2172,1.0350,0.1913,18.550,-11.900,-13.020,369,422,377,411,349,2025-05-27T22:35:22.476919
2750,-0.2020,1.0268,0.1718,13.300,-12.215,-11.970,328,368,384,408,391,2025-05-27T22:35:22.476919
2751,-0.1850,1.0248,0.1757,10.745,-7.350,-10.325,391,419,347,421,409,2025-05-27T22:35:22.476919
2752,-0.1967,1.0233,0.1893,8.260,-2.625,-9.625,407,396,328,355,407,2025-05-27T22:35:22.476919
2753,-0.2118,1.0150,0.2011,6.300,0.525,-0.140,389,400,353,397,391,2025-05-27T22:35:22.476919
2754,-0.2191,1.0028,0.2118,6.545,1.085,-7.245,401,419,362,420,401,2025-05-27T22:35:22.476919
2755,-0.2328,0.9960,0.2230,7.175,1.715,-5.810,401,348,369,393,383,2025-05-27T22:35:22.476919
2756,-0.2591,0.9999,0.2523,7.350,0.630,-4.725,383,375,372,403,390,2025-05-27T22:35:22.476919
2757,-0.2791,0.9906,0.2523,7.455,-2.835,-2.275,416,342,375,415,388,2025-05-27T22:35:22.792912
2758,-0.2762,0.9989,0.2547,7.385,-7.630,-1.330,431,411,338,358,369,2025-05-27T22:35:22.792912
2759,-0.2572,1.0009,0.2533,6.020,-7.910,-1.050,428,357,364,386,401,2025-05-27T22:35:22.792912
2760,-0.2294,1.0028,0.2445,4.550,-5.145,-0.175,418,415,369,403,411,2025-05-27T22:35:22.792912
2761,-0.2186,0.9911,0.2274,3.990,-2.205,1.085,421,424,340,377,408,2025-05-27T22:35:22.792912
2762,-0.1996,0.9853,0.2186,4.445,2.520,2.905,438,418,353,405,407,2025-05-27T22:35:22.792912
2763,-0.2108,0.9780,0.2211,4.865,7.875,4.095,428,427,358,424,412,2025-05-27T22:35:22.792912
2764,-0.2225,0.9775,0.2342,4.375,12.775,4.795,415,416,378,424,351,2025-05-27T22:35:22.792912
2765,-0.2494,0.9819,0.2435,3.710,13.090,5.670,420,399,385,398,398,2025-05-27T22:35:22.792912
2766,-0.2733,0.9799,0.2435,2.940,10.045,7.105,400,374,377,414,410,2025-05-27T22:35:22.792912
2767,-0.2816,0.9745,0.2445,2.555,4.760,8.645,406,397,368,355,397,2025-05-27T22:35:22.792912
2768,-0.2933,0.9658,0.2416,1.680,-0.560,9.310,389,416,381,380,401,2025-05-27T22:35:22.792912
2769,-0.2826,0.9565,0.2328,1.365,-7.000,9.520,418,430,385,405,413,2025-05-27T22:35:22.792912
2770,-0.2411,0.9658,0.2294,0.210,-9.310,8.785,409,349,385,343,403,2025-05-27T22:35:22.792912
2771,-0.2118,0.9614,0.2196,-1.855,-4.550,7.350,398,411,379,389,395,2025-05-27T22:35:22.792912
2772,-0.2108,0.9462,0.2094,-3.920,0.175,7.525,418,403,375,402,353,2025-05-27T22:35:22.792912
2773,-0.2216,0.9331,0.2001,-2.625,2.695,8.400,340,405,368,404,384,2025-05-27T22:35:22.792912
2774,-0.2435,0.9335,0.2191,-1.960,2.800,8.505,380,354,336,404,359,2025-05-27T22:35:22.792912
2775,-0.2538,0.9428,0.2347,-3.465,2.765,8.505,381,399,355,384,378,2025-05-27T22:35:22.792912
2776,-0.2567,0.9296,0.2333,-4.410,0.280,8.540,353,411,370,394,388,2025-05-27T22:35:22.792912
2777,-0.2611,0.9145,0.2362,-4.200,-2.345,8.120,416,441,379,409,392,2025-05-27T22:35:22.792912
2778,-0.2455,0.9135,0.2347,-3.570,-4.410,7.735,364,306,344,414,412,2025-05-27T22:35:22.985601
2779,-0.2216,0.9116,0.2298,-3.045,-4.515,7.560,344,359,365,395,416,2025-05-27T22:35:22.985601
2780,-0.2220,0.9087,0.2294,-3.430,-2.765,6.020,400,418,342,389,393,2025-05-27T22:35:22.985601
2781,-0.2181,0.9057,0.2338,-3.850,-2.275,5.320,405,343,371,393,389,2025-05-27T22:35:22.985601
2782,-0.2240,0.8960,0.2342,-3.605,-3.675,4.830,388,394,373,400,358,2025-05-27T22:35:22.985601
2783,-0.2074,0.9013,0.2298,-3.325,-3.430,4.200,415,414,338,395,399,2025-05-27T22:35:22.985601
2784,-0.2157,0.9121,0.2377,-3.535,-0.245,3.535,416,408,356,415,347,2025-05-27T22:35:22.985601
2785,-0.2284,0.9189,0.2386,-4.410,1.645,2.975,407,421,374,417,330,2025-05-27T22:35:22.985601
2786,-0.2411,0.9218,0.2372,-4.550,0.945,2.975,396,388,372,404,339,2025-05-27T22:35:22.985601
2787,-0.2450,0.9155,0.2352,-4.025,1.330,3.150,411,336,384,415,365,2025-05-27T22:35:22.985601
2788,-0.2557,0.9091,0.2338,-2.205,2.870,3.850,409,400,313,416,295,2025-05-27T22:35:22.985601
2789,-0.2772,0.9101,0.2523,-0.035,2.135,4.410,420,417,350,403,310,2025-05-27T22:35:22.985601
2790,-0.2850,0.9184,0.2655,-0.385,-1.190,4.130,423,400,337,419,374,2025-05-27T22:35:22.985601
2791,-0.2664,0.9062,0.2655,-1.365,-3.745,4.165,369,395,356,319,369,2025-05-27T22:35:22.985601
2792,-0.2557,0.8852,0.2586,-1.960,-4.655,3.150,400,347,369,357,385,2025-05-27T22:35:22.985601
2793,-0.2425,0.8574,0.2557,-0.735,-5.950,3.150,338,404,372,344,403,2025-05-27T22:35:22.985601
2794,-0.2445,0.8433,0.2601,1.155,-9.310,3.255,404,397,382,375,417,2025-05-27T22:35:22.985601
2795,-0.2362,0.8198,0.2635,1.750,-13.545,2.450,384,372,345,392,320,2025-05-27T22:35:22.986599
2796,-0.2084,0.8076,0.2699,1.085,-17.395,1.890,388,376,340,356,363,2025-05-27T22:35:22.986599
2797,-0.1620,0.7852,0.2523,0.140,-18.760,0.385,391,419,367,379,391,2025-05-27T22:35:22.986599
2798,-0.1313,0.7828,0.2435,-0.315,-16.940,-1.295,413,401,380,389,385,2025-05-27T22:35:22.986599
2799,-0.0791,0.7803,0.2352,-1.995,-13.860,-4.235,424,405,386,398,358,2025-05-27T22:35:23.223390
2800,-0.0332,0.7915,0.2250,-4.410,-10.710,-7.315,425,420,397,410,367,2025-05-27T22:35:23.223390
2801,0.0142,0.8384,0.2186,-7.420,-7.735,-9.660,423,428,384,410,382,2025-05-27T22:35:23.224393
2802,0.0644,0.9394,0.2133,-11.165,-7.140,-12.040,402,305,380,416,344,2025-05-27T22:35:23.224570
2803,0.1405,1.1122,0.2137,-18.235,-9.170,-13.895,365,389,386,366,388,2025-05-27T22:35:23.224570
2804,0.2050,1.3352,0.2162,-27.160,-13.685,-16.905,351,409,380,343,391,2025-05-27T22:35:23.224570
2805,0.3026,1.5601,0.2660,-39.305,-22.680,-20.160,375,402,378,377,401,2025-05-27T22:35:23.224570
2806,0.4114,1.8564,0.2962,-54.075,-39.760,-25.830,399,418,387,390,412,2025-05-27T22:35:23.224570
2807,0.5378,2.1355,0.3123,-68.495,-61.880,-30.835,407,422,398,362,398,2025-05-27T22:35:23.224570
2808,0.5851,2.3668,0.2655,-79.310,-85.575,-36.540,400,426,349,372,348,2025-05-27T22:35:23.224570
2809,0.5885,2.4976,0.2342,-89.530,-111.545,-44.310,428,352,359,380,375,2025-05-27T22:35:23.224570
2810,0.5695,2.5542,0.1679,-98.980,-137.165,-47.180,395,387,376,398,407,2025-05-27T22:35:23.224570
2811,0.5973,2.5586,0.0781,-110.285,-164.115,-46.970,399,413,384,383,397,2025-05-27T22:35:23.225563
2812,0.6090,2.4995,-0.0786,-124.670,-175.770,-47.320,412,366,378,343,404,2025-05-27T22:35:23.225563
2813,0.5734,2.4093,-0.2196,-142.660,-176.960,-52.745,358,425,388,372,362,2025-05-27T22:35:23.225563
2814,0.5456,2.2638,-0.3636,-161.315,-178.325,-60.760,388,431,381,378,389,2025-05-27T22:35:23.225563
2815,0.5329,2.0159,-0.6046,-177.625,-179.795,-62.475,400,429,368,340,364,2025-05-27T22:35:23.225563
2816,0.3816,1.7270,-0.6915,-170.485,-179.270,-66.500,425,425,374,392,392,2025-05-27T22:35:23.225563
2817,0.1283,1.5694,-0.6593,-172.445,-188.930,-80.815,408,362,376,394,392,2025-05-27T22:35:23.225563
2818,-0.0317,1.4904,-0.4895,-197.435,-222.495,-108.500,412,418,345,387,404,2025-05-27T22:35:23.435419
2819,-0.0659,1.2756,-0.4221,-237.650,-259.630,-135.590,421,344,324,347,393,2025-05-27T22:35:23.435419
2820,-0.0078,0.8057,-0.4987,-263.165,-285.460,-163.590,399,382,319,384,370,2025-05-27T22:35:23.435419
2821,0.3611,0.3411,-0.5324,-273.000,-272.370,-176.855,405,414,366,386,386,2025-05-27T22:35:23.435419
2822,0.7188,-0.3421,-0.3455,-275.170,-194.390,-175.420,424,352,367,409,392,2025-05-27T22:35:23.435419
2823,0.5466,-1.3840,-0.0669,-281.785,-38.220,-170.555,364,343,369,408,399,2025-05-27T22:35:23.435419
2824,-0.1669,-2.3619,0.6305,-302.925,118.755,-188.020,395,394,333,397,383,2025-05-27T22:35:23.435419
2825,-1.4943,-3.3101,1.2405,-308.875,172.270,-213.395,425,417,363,397,411,2025-05-27T22:35:23.435419
2826,-2.5161,-3.6078,1.8744,-310.240,87.850,-201.705,422,373,364,412,370,2025-05-27T22:35:23.435419
2827,-2.5596,-3.6029,1.8998,-253.470,-153.650,-147.560,419,395,336,390,340,2025-05-27T22:35:23.435419
2828,-1.7363,-3.3994,1.6841,-164.605,-342.195,-95.935,379,412,332,346,378,2025-05-27T22:35:23.435419
2829,-0.2323,-3.1369,1.4464,-62.615,-314.720,-7.070,338,422,362,362,400,2025-05-27T22:35:23.435419
2830,0.9819,-2.7426,1.3932,36.855,-104.510,79.730,405,432,366,396,351,2025-05-27T22:35:23.435419
2831,0.9760,-2.4273,1.3664,124.880,177.170,145.845,417,426,337,385,386,2025-05-27T22:35:23.435419
2832,0.5280,-1.9930,1.3591,157.045,305.200,169.995,428,434,353,391,396,2025-05-27T22:35:23.607243
2833,-0.0800,-1.5977,1.5557,168.140,302.540,181.545,432,408,338,391,348,2025-05-27T22:35:23.607243
2834,-0.4963,-1.4538,1.5440,172.305,234.815,190.540,363,385,361,394,352,2025-05-27T22:35:23.607243
2835,-0.5148,-1.3562,1.4064,180.775,160.825,196.770,412,410,380,395,384,2025-05-27T22:35:23.607243
2836,-0.3709,-1.0316,1.2620,193.935,137.830,195.650,406,397,368,309,394,2025-05-27T22:35:23.607243
2837,-0.0947,-0.7515,1.1424,201.600,163.870,193.620,415,402,345,356,408,2025-05-27T22:35:23.607243
2838,-0.0771,-0.4685,0.9550,202.650,209.020,197.575,397,392,368,378,395,2025-05-27T22:35:23.607243
2839,-0.1298,-0.1820,0.8140,213.675,251.860,207.900,404,403,371,400,405,2025-05-27T22:35:23.607243
2840,-0.3997,-0.0551,0.6466,227.850,265.055,204.540,404,374,339,397,345,2025-05-27T22:35:23.607243
2841,-0.3675,0.3782,0.4895,233.100,258.370,197.925,418,338,356,347,378,2025-05-27T22:35:23.607243
2842,-0.3728,0.6720,0.2928,216.055,244.300,195.335,381,373,359,370,385,2025-05-27T22:35:23.607243
2843,-0.2977,0.9160,0.1005,201.950,232.785,190.680,405,393,358,345,399,2025-05-27T22:35:23.607243
2844,-0.2123,1.0736,0.0644,185.920,190.470,180.600,412,411,377,389,390,2025-05-27T22:35:23.607243
2845,-0.0259,1.1380,-0.0571,174.160,136.570,162.190,431,393,378,388,399,2025-05-27T22:35:23.607243
2846,0.2118,1.2625,-0.0888,162.470,94.955,136.290,403,420,342,393,406,2025-05-27T22:35:23.607243
2847,0.4573,1.3352,-0.1649,152.110,67.585,117.635,413,401,361,392,374,2025-05-27T22:35:23.607243
2848,0.6002,1.4230,-0.1986,141.855,50.540,97.790,385,403,328,369,394,2025-05-27T22:35:23.774405
2849,0.6427,1.4752,-0.1508,126.035,40.635,83.615,420,423,318,402,346,2025-05-27T22:35:23.774405
2850,0.5549,1.4723,-0.1513,110.915,30.310,68.985,432,414,360,406,373,2025-05-27T22:35:23.774405
2851,0.5388,1.4762,-0.1220,99.575,7.035,58.835,348,411,364,407,391,2025-05-27T22:35:23.774405
2852,0.5368,1.4791,-0.0839,89.425,-16.205,46.445,406,408,352,399,348,2025-05-27T22:35:23.774405
2853,0.5568,1.4508,-0.0771,81.690,-25.620,37.380,416,404,365,407,387,2025-05-27T22:35:23.774405
2854,0.5324,1.4679,-0.0508,75.285,-28.210,27.055,417,423,363,396,362,2025-05-27T22:35:23.774405
2855,0.5353,1.4894,0.0010,65.135,-29.610,18.620,407,419,364,372,333,2025-05-27T22:35:23.774405
2856,0.4904,1.4660,0.0210,52.535,-27.125,11.200,420,382,372,405,372,2025-05-27T22:35:23.774405
2857,0.4534,1.4625,0.0810,41.615,-21.700,5.880,422,366,390,416,362,2025-05-27T22:35:23.774405
2858,0.3821,1.4601,0.1703,29.225,-19.880,-0.035,394,408,343,395,373,2025-05-27T22:35:23.774405
2859,0.2752,1.4054,0.2108,15.505,-22.505,-6.020,393,422,377,402,403,2025-05-27T22:35:23.774405
2860,0.1942,1.3181,0.2367,8.890,-28.175,-10.115,420,445,385,384,412,2025-05-27T22:35:23.774405
2861,0.1225,1.2356,0.2577,6.405,-31.500,-13.545,412,387,373,381,413,2025-05-27T22:35:23.774405
2862,0.0678,1.1805,0.2948,4.655,-30.380,-17.360,408,408,385,389,391,2025-05-27T22:35:23.774405
2863,-0.0029,1.1297,0.3084,4.130,-27.825,-19.285,425,402,340,388,412,2025-05-27T22:35:23.774405
2864,-0.0717,1.0716,0.3128,3.780,-27.790,-19.845,378,394,353,412,392,2025-05-27T22:35:23.774405
2865,-0.1166,1.0204,0.2943,3.325,-26.530,-19.005,386,375,361,404,350,2025-05-27T22:35:24.096263
2866,-0.1679,0.9931,0.2796,3.745,-23.205,-16.660,426,406,348,387,386,2025-05-27T22:35:24.096263
2867,-0.2084,0.9648,0.2489,5.915,-22.960,-13.860,383,422,362,364,391,2025-05-27T22:35:24.096263
2868,-0.2259,0.9604,0.2420,7.175,-24.780,-12.180,382,429,361,398,401,2025-05-27T22:35:24.096263
2869,-0.2142,0.9677,0.2186,5.845,-22.120,-9.730,407,346,334,414,408,2025-05-27T22:35:24.096263
2870,-0.2113,0.9701,0.2079,3.885,-15.505,-8.155,359,369,361,398,373,2025-05-27T22:35:24.096263
2871,-0.2386,0.9638,0.1913,3.255,-9.940,-7.805,398,419,330,393,390,2025-05-27T22:35:24.096263
2872,-0.2411,0.9687,0.1937,2.450,-7.910,-6.860,398,361,358,418,410,2025-05-27T22:35:24.096263
2873,-0.2679,0.9540,0.1928,3.990,-8.785,-4.025,347,405,360,374,407,2025-05-27T22:35:24.096263
2874,-0.2723,0.9570,0.2113,5.670,-11.620,-2.695,389,406,344,405,394,2025-05-27T22:35:24.096263
2875,-0.2455,0.9682,0.2269,5.810,-14.175,-0.805,416,407,369,406,412,2025-05-27T22:35:24.096263
2876,-0.2274,0.9677,0.2303,5.705,-13.125,0.700,419,416,377,410,421,2025-05-27T22:35:24.096263
2877,-0.1879,0.9780,0.2357,5.530,-11.235,1.505,403,432,375,407,388,2025-05-27T22:35:24.096263
2878,-0.1786,0.9897,0.2430,4.690,-7.910,2.695,406,418,378,403,400,2025-05-27T22:35:24.096263
2879,-0.1869,0.9877,0.2406,3.815,-5.635,4.130,378,428,355,389,405,2025-05-27T22:35:24.096263
2880,-0.1840,0.9950,0.2445,3.500,-7.315,5.775,382,429,370,407,407,2025-05-27T22:35:24.096263
2881,-0.1879,1.0009,0.2513,2.450,-9.975,6.300,407,436,386,415,406,2025-05-27T22:35:24.096263
2882,-0.1723,1.0019,0.2464,-0.245,-10.780,6.195,383,429,386,358,418,2025-05-27T22:35:24.096263
2883,-0.1674,0.9960,0.2411,-1.890,-10.850,5.845,343,383,380,365,387,2025-05-27T22:35:24.096263
2884,-0.1532,0.9897,0.2357,-3.500,-10.920,5.600,373,417,375,376,356,2025-05-27T22:35:24.096263
2885,-0.1362,0.9711,0.2162,-4.270,-7.560,5.215,412,438,389,400,405,2025-05-27T22:35:24.181014
2886,-0.1444,0.9579,0.2186,-4.060,-1.645,5.250,413,431,386,420,399,2025-05-27T22:35:24.181014
2887,-0.1664,0.9526,0.2289,-3.500,1.925,4.550,339,412,389,351,394,2025-05-27T22:35:24.181014
2888,-0.1840,0.9487,0.2484,-4.305,3.920,4.200,410,422,379,393,398,2025-05-27T22:35:24.181014
2889,-0.2015,0.9350,0.2577,-4.830,4.235,4.410,391,420,392,347,395,2025-05-27T22:35:24.181014
2890,-0.2367,0.9218,0.2669,-4.935,1.750,4.620,391,408,381,371,350,2025-05-27T22:35:24.181014
2891,-0.2401,0.9170,0.2738,-5.005,-3.920,5.040,372,432,346,376,398,2025-05-27T22:35:24.181014
2892,-0.2362,0.9116,0.2689,-4.795,-8.295,4.620,423,435,355,402,348,2025-05-27T22:35:24.181014
2893,-0.2186,0.9126,0.2621,-4.340,-10.885,4.480,431,424,358,398,372,2025-05-27T22:35:24.181014
2894,-0.1972,0.9082,0.2464,-3.780,-10.500,4.200,429,411,371,395,370,2025-05-27T22:35:24.181014
2895,-0.1664,0.9106,0.2420,-3.500,-6.965,3.395,349,417,377,389,403,2025-05-27T22:35:24.181014
2896,-0.1693,0.9116,0.2406,-3.465,-1.330,3.255,326,412,340,371,381,2025-05-27T22:35:24.181014
2897,-0.1781,0.9072,0.2411,-2.800,1.470,3.325,376,359,372,406,409,2025-05-27T22:35:24.181014
2898,-0.2035,0.8994,0.2469,-1.715,1.785,2.765,411,420,385,421,401,2025-05-27T22:35:24.181014
2899,-0.2196,0.9062,0.2582,-1.330,0.350,2.555,429,429,376,380,397,2025-05-27T22:35:24.277262
2900,-0.2338,0.9096,0.2616,-1.715,-3.360,2.835,405,421,370,392,411,2025-05-27T22:35:24.277262
2901,-0.2216,0.9091,0.2557,-2.065,-7.385,2.730,412,365,372,306,406,2025-05-27T22:35:24.277262
2902,-0.2006,0.9087,0.2435,-1.610,-7.980,2.380,417,416,365,374,380,2025-05-27T22:35:24.277262
2903,-0.1932,0.9057,0.2455,-1.260,-6.055,1.260,427,422,382,396,404,2025-05-27T22:35:24.278330
2904,-0.1864,0.9116,0.2513,-1.505,-4.830,0.770,414,389,367,394,404,2025-05-27T22:35:24.278330
2905,-0.1893,0.9096,0.2552,-1.960,-3.780,0.315,395,402,388,392,356,2025-05-27T22:35:24.278330
2906,-0.1967,0.9033,0.2552,-2.065,-2.030,-0.070,419,412,349,401,375,2025-05-27T22:35:24.278330
2907,-0.2059,0.8979,0.2625,-2.660,-1.925,-0.595,395,411,359,412,303,2025-05-27T22:35:24.425840
2908,-0.1976,0.8847,0.2582,-2.625,-3.395,-0.525,412,377,368,355,310,2025-05-27T22:35:24.425840
2909,-0.2035,0.8633,0.2528,-1.610,-3.290,0.035,425,415,380,387,380,2025-05-27T22:35:24.425840
2910,-0.2108,0.8501,0.2640,0.000,-3.815,0.420,405,417,392,417,396,2025-05-27T22:35:24.425840
2911,-0.2167,0.8311,0.2591,0.630,-6.720,0.280,377,401,386,419,388,2025-05-27T22:35:24.425840
2912,-0.2059,0.8106,0.2606,0.805,-9.415,0.140,421,411,388,366,381,2025-05-27T22:35:24.425840
2913,-0.1791,0.7950,0.2518,0.875,-10.080,-0.280,404,411,392,396,363,2025-05-27T22:35:24.425840
2914,-0.1484,0.7769,0.2420,0.385,-10.290,-1.470,336,393,390,366,376,2025-05-27T22:35:24.425840
2915,-0.1220,0.7676,0.2450,-0.280,-11.795,-3.465,413,397,377,383,394,2025-05-27T22:35:24.425840
2916,-0.0903,0.7559,0.2533,-1.365,-15.820,-6.370,394,391,378,419,403,2025-05-27T22:35:24.425840
2917,-0.0376,0.7520,0.2469,-2.765,-22.365,-10.255,406,348,390,413,405,2025-05-27T22:35:24.425840
2918,0.0244,0.7745,0.2294,-4.305,-27.965,-16.380,409,329,372,352,405,2025-05-27T22:35:24.425840
2919,0.0903,0.8350,0.2186,-6.440,-30.870,-25.480,414,407,337,382,407,2025-05-27T22:35:24.430035
2920,0.1669,0.9257,0.2059,-10.115,-34.510,-34.195,430,414,369,393,396,2025-05-27T22:35:24.596325
2921,0.2250,1.1009,0.1967,-15.190,-40.670,-47.355,368,388,348,391,404,2025-05-27T22:35:24.596325
2922,0.2567,1.3361,0.2030,-22.575,-52.255,-63.735,409,417,357,414,396,2025-05-27T22:35:24.596325
2923,0.3318,1.5626,0.2308,-32.270,-68.915,-78.750,420,436,339,419,379,2025-05-27T22:35:24.596325
2924,0.4119,1.7861,0.2157,-45.045,-85.680,-90.615,422,413,359,402,345,2025-05-27T22:35:24.596325
2925,0.6168,2.0506,0.1986,-61.985,-93.940,-98.245,422,421,359,342,330,2025-05-27T22:35:24.596325
2926,0.5407,2.2990,0.1937,-80.885,-97.580,-100.170,353,423,361,370,330,2025-05-27T22:35:24.596325
2927,0.5431,2.4581,0.1469,-101.150,-103.005,-97.615,409,406,381,383,360,2025-05-27T22:35:24.596325
2928,0.5607,2.5981,0.0781,-120.435,-106.610,-90.860,419,390,387,338,293,2025-05-27T22:35:24.596325
2929,0.5929,2.6655,-0.0337,-139.020,-95.620,-80.185,394,354,386,373,371,2025-05-27T22:35:24.596325
2930,0.5427,2.6508,-0.1669,-150.675,-70.140,-63.000,399,403,378,403,388,2025-05-27T22:35:24.596325
2931,0.4421,2.5366,-0.3157,-159.005,-54.075,-41.545,423,416,375,408,404,2025-05-27T22:35:24.596325
2932,0.1557,2.3824,-0.4075,-163.905,-43.820,-29.540,408,360,385,411,388,2025-05-27T22:35:24.596325
2933,0.0327,2.2121,-0.4499,-172.305,-50.995,-25.900,377,409,378,352,402,2025-05-27T22:35:24.823905
2934,-0.2186,2.0594,-0.4504,-187.425,-79.380,-24.150,421,423,372,343,391,2025-05-27T22:35:24.823905
2935,-0.3680,1.8695,-0.4333,-209.475,-129.360,-29.820,394,397,376,394,376,2025-05-27T22:35:24.823905
2936,-0.3616,1.6343,-0.3680,-236.390,-186.865,-45.780,420,406,386,406,348,2025-05-27T22:35:24.823905
2937,-0.2816,1.3015,-0.3416,-258.090,-225.400,-74.830,426,394,385,402,375,2025-05-27T22:35:24.823905
2938,-0.1396,0.8935,-0.5012,-261.800,-253.225,-86.030,401,392,397,396,401,2025-05-27T22:35:24.823905
2939,-0.0381,0.4763,-0.5505,-248.570,-262.675,-103.600,400,401,387,410,412,2025-05-27T22:35:24.823905
2940,0.3279,0.1596,-0.3616,-250.565,-245.560,-141.925,349,391,388,415,392,2025-05-27T22:35:24.823905
2941,0.5417,-0.4128,-0.0747,-288.120,-191.380,-193.340,407,418,390,423,344,2025-05-27T22:35:24.823905
2942,0.4782,-1.7217,-0.0181,-335.475,-138.005,-230.895,367,425,347,399,363,2025-05-27T22:35:24.823905
2943,0.1039,-3.3355,0.2635,-349.825,-96.250,-235.200,395,415,359,397,371,2025-05-27T22:35:24.823905
2944,-0.6671,-4.4022,0.8886,-355.985,-69.650,-265.545,410,348,367,385,381,2025-05-27T22:35:24.823905
2945,-1.3747,-5.0425,1.5035,-324.695,-92.855,-267.890,386,383,370,415,381,2025-05-27T22:35:24.823905
2946,-1.3108,-4.5638,1.5474,-236.390,-169.190,-199.535,336,340,383,407,397,2025-05-27T22:35:24.823905
2947,-0.7369,-4.0065,1.3908,-102.760,-203.980,-97.020,399,411,386,423,399,2025-05-27T22:35:24.823905
2948,0.3235,-3.2398,1.2503,4.025,-108.220,19.425,416,435,380,407,350,2025-05-27T22:35:24.823905
2949,0.8237,-2.6084,1.2220,112.595,54.215,129.955,410,420,387,346,372,2025-05-27T22:35:24.823905
2950,0.3875,-2.1350,1.3132,166.425,255.850,193.165,386,411,372,348,387,2025-05-27T22:35:24.999203
2951,-0.1928,-1.7529,1.5992,176.505,302.855,221.900,411,412,333,384,392,2025-05-27T22:35:24.999203
2952,-0.6120,-1.6368,1.6450,182.070,243.880,225.050,422,360,355,405,388,2025-05-27T22:35:24.999203
2953,-0.7632,-1.5665,1.5953,194.390,142.485,224.385,395,410,362,410,408,2025-05-27T22:35:24.999203
2954,-0.5778,-1.3113,1.5499,212.310,109.410,229.950,396,355,370,401,394,2025-05-27T22:35:24.999203
2955,-0.3719,-0.8408,1.5157,224.840,129.675,231.735,416,379,376,352,363,2025-05-27T22:35:24.999203
2956,-0.2225,-0.4519,1.4274,227.955,157.885,230.510,398,405,384,382,341,2025-05-27T22:35:24.999203
2957,-0.1371,-0.0820,1.2629,234.430,193.270,233.170,417,397,383,388,373,2025-05-27T22:35:24.999203
2958,-0.1425,0.2054,1.1000,246.960,212.380,235.725,400,418,355,395,396,2025-05-27T22:35:24.999203
2959,-0.1937,0.3533,0.9311,259.070,233.065,225.540,403,400,379,399,348,2025-05-27T22:35:24.999203
2960,-0.3265,0.4260,0.7940,270.690,227.115,219.625,411,426,387,408,385,2025-05-27T22:35:24.999203
2961,-0.3841,0.5549,0.7139,280.350,189.245,205.730,419,347,386,393,392,2025-05-27T22:35:24.999203
2962,-0.2777,0.6432,0.5305,283.360,131.880,198.135,415,403,377,406,394,2025-05-27T22:35:24.999203
2963,-0.1801,0.7715,0.2821,275.135,85.715,180.950,401,422,347,410,412,2025-05-27T22:35:24.999203
2964,0.1547,0.9048,0.0185,262.255,53.095,168.735,393,344,369,409,404,2025-05-27T22:35:24.999203
2965,0.3538,1.0238,-0.2181,241.465,35.840,158.270,423,375,364,398,354,2025-05-27T22:35:24.999203
2966,0.5407,1.1263,-0.3836,215.285,29.155,137.375,416,414,366,348,383,2025-05-27T22:35:25.000252
2967,0.6603,1.2210,-0.4865,185.710,21.910,117.425,433,405,373,370,388,2025-05-27T22:35:25.240432
2968,0.6281,1.3727,-0.5919,159.985,5.565,97.020,422,422,387,399,345,2025-05-27T22:35:25.896208
2969,0.6334,1.3391,-0.5539,129.955,-30.975,81.655,410,380,383,382,391,2025-05-27T22:35:25.896208
2970,0.7086,1.4132,-0.5700,96.740,-72.800,61.495,421,398,383,408,367,2025-05-27T22:35:25.896208
2971,0.8843,1.4152,-0.6159,70.175,-88.550,43.400,411,424,385,413,394,2025-05-27T22:35:25.896208
2972,1.0180,1.3835,-0.6266,43.400,-75.460,24.605,416,400,344,416,405,2025-05-27T22:35:25.896208
2973,1.0663,1.4074,-0.5339,23.520,-57.330,9.065,421,395,353,406,391,2025-05-27T22:35:25.896208
2974,1.0726,1.4264,-0.3963,7.175,-22.785,1.645,418,400,361,413,387,2025-05-27T22:35:25.896208
2975,0.9252,1.4020,-0.1430,-5.460,5.565,-5.950,406,412,337,412,410,2025-05-27T22:35:25.896208
2976,0.7042,1.3644,-0.0639,-11.095,17.150,-9.975,419,428,287,350,409,2025-05-27T22:35:25.896208
2977,0.4192,1.3074,0.1225,-13.720,5.005,-12.005,422,424,301,391,401,2025-05-27T22:35:25.896208
2978,0.2908,1.2864,0.2572,-14.665,-17.710,-13.300,411,391,338,401,392,2025-05-27T22:35:25.896208
2979,0.2928,1.2468,0.3040,-14.805,-42.630,-13.650,351,415,352,353,405,2025-05-27T22:35:25.896208
2980,0.3558,1.1902,0.3162,-12.635,-45.640,-13.265,400,377,357,393,409,2025-05-27T22:35:25.896208
2981,0.3836,1.1126,0.3070,-5.425,-28.490,-12.145,418,402,329,400,407,2025-05-27T22:35:25.896208
2982,0.3314,1.0775,0.3231,8.890,-6.370,-14.700,422,388,366,352,352,2025-05-27T22:35:25.896208
2983,0.2103,1.0477,0.3416,3.430,17.325,-15.610,380,393,367,330,386,2025-05-27T22:35:25.896208
2984,0.0786,1.0263,0.3411,5.915,16.765,-14.630,413,409,364,325,386,2025-05-27T22:35:25.896208
2985,-0.0537,1.0146,0.3279,8.155,10.290,-12.670,343,424,379,393,392,2025-05-27T22:35:25.896208
2986,-0.1279,1.0038,0.3040,8.750,-3.570,-9.100,392,416,346,365,398,2025-05-27T22:35:25.896208
2987,-0.1415,0.9965,0.2889,6.405,-12.495,-6.790,373,423,354,395,393,2025-05-27T22:35:25.896208
2988,-0.1352,0.9760,0.2606,4.760,-16.905,-4.305,381,426,364,400,401,2025-05-27T22:35:25.896208
2989,-0.1230,0.9575,0.2489,2.765,-18.410,-2.730,411,412,337,397,401,2025-05-27T22:35:25.896208
2990,-0.0903,0.9560,0.2396,0.210,-16.485,-1.295,406,392,367,403,390,2025-05-27T22:35:25.896208
2991,-0.0376,0.9423,0.2220,-1.715,-7.140,0.560,344,397,366,421,378,2025-05-27T22:35:25.896208
2992,-0.0049,0.9301,0.2201,-1.540,6.895,1.470,409,423,368,365,389,2025-05-27T22:35:25.896208
2993,-0.0307,0.9262,0.2269,-0.245,18.060,2.380,397,422,375,388,368,2025-05-27T22:35:25.896208
2994,-0.0795,0.9438,0.2489,1.260,20.790,3.220,379,424,389,401,386,2025-05-27T22:35:25.896208
2995,-0.1074,0.9433,0.2508,1.610,16.170,3.850,402,428,379,383,390,2025-05-27T22:35:25.896208
2996,-0.0991,0.9467,0.2484,2.310,8.855,4.375,419,408,386,301,395,2025-05-27T22:35:25.896208
2997,-0.0595,0.9428,0.2391,3.010,6.125,4.130,420,424,378,320,361,2025-05-27T22:35:25.896208
2998,-0.0244,0.9394,0.2333,3.150,9.415,2.625,398,427,367,360,348,2025-05-27T22:35:25.896208
2999,-0.0264,0.9345,0.2425,2.940,13.160,0.805,394,414,381,385,376,2025-05-27T22:35:25.896208
3000,-0.0322,0.9277,0.2542,2.625,15.085,-0.280,384,422,392,390,392,2025-05-27T22:35:25.896208
3001,-0.0752,0.9179,0.2786,2.520,14.000,-2.275,414,424,347,378,408,2025-05-27T22:35:25.896208
3002,-0.0795,0.9204,0.3016,2.415,11.795,-3.675,379,407,369,399,408,2025-05-27T22:35:25.896208
3003,-0.0810,0.9213,0.3118,1.925,11.410,-5.355,387,390,344,404,410,2025-05-27T22:35:25.896208
3004,-0.0956,0.9243,0.3177,1.505,13.685,-7.210,412,421,366,392,398,2025-05-27T22:35:25.896208
3005,-0.1157,0.9389,0.3270,0.980,16.380,-8.610,402,436,366,393,404,2025-05-27T22:35:25.896208
3006,-0.1630,0.9448,0.3392,0.175,14.875,-8.680,417,414,337,395,393,2025-05-27T22:35:25.896208
3007,-0.1815,0.9511,0.3440,-0.035,10.465,-7.630,416,408,354,396,399,2025-05-27T22:35:25.896208
3008,-0.1898,0.9682,0.3445,-0.595,7.770,-6.615,389,399,370,399,397,2025-05-27T22:35:25.896208
3009,-0.1854,0.9711,0.3382,-1.155,7.875,-5.145,409,405,378,351,382,2025-05-27T22:35:25.896208
3010,-0.1893,0.9784,0.3450,-2.030,8.575,-3.990,428,421,385,392,392,2025-05-27T22:35:25.896208
3011,-0.2030,0.9858,0.3533,-3.255,8.575,-2.870,427,395,394,402,345,2025-05-27T22:35:25.896208
3012,-0.2094,0.9789,0.3514,-4.480,5.950,-1.295,391,403,389,390,347,2025-05-27T22:35:25.896208
3013,-0.2206,0.9701,0.3445,-4.900,0.840,-0.560,392,298,388,392,394,2025-05-27T22:35:25.896208
3014,-0.1889,0.9648,0.3304,-4.900,-4.340,0.595,413,376,356,411,405,2025-05-27T22:35:25.896208
3015,-0.1635,0.9423,0.2943,-4.795,-6.895,2.065,416,393,360,411,404,2025-05-27T22:35:25.896208
3016,-0.1371,0.9287,0.2689,-5.705,-7.595,1.995,417,338,379,394,393,2025-05-27T22:35:25.896208
3017,-0.1132,0.9101,0.2557,-7.630,-6.335,2.030,396,409,372,388,355,2025-05-27T22:35:25.896208
3018,-0.0986,0.8799,0.2298,-10.745,-4.655,2.205,409,399,375,380,393,2025-05-27T22:35:25.896208
3019,-0.1010,0.8457,0.2172,-13.755,-5.075,1.575,402,393,368,344,369,2025-05-27T22:35:25.896208
3020,-0.0756,0.8194,0.1976,-18.970,-7.070,0.595,427,402,383,388,389,2025-05-27T22:35:25.896208
3021,-0.0586,0.7749,0.1874,-25.305,-9.905,0.035,403,415,371,392,347,2025-05-27T22:35:25.896208
3022,-0.0371,0.7364,0.1957,-30.415,-12.950,0.175,410,360,346,360,372,2025-05-27T22:35:25.896208
3023,-0.0210,0.6847,0.2094,-34.545,-17.710,-0.315,408,404,358,339,394,2025-05-27T22:35:25.896208
3024,0.0098,0.6251,0.2069,-36.575,-22.680,-1.365,413,385,362,384,402,2025-05-27T22:35:25.896208
3025,0.0732,0.6134,0.2069,-37.030,-24.850,-2.975,421,414,332,382,361,2025-05-27T22:35:25.896208
3026,0.1493,0.6261,0.1815,-36.330,-22.715,-7.000,419,405,357,394,400,2025-05-27T22:35:25.896208
3027,0.2216,0.6856,0.1742,-36.330,-15.260,-11.655,387,335,376,390,412,2025-05-27T22:35:25.896208
3028,0.2879,0.7525,0.1645,-36.225,-5.740,-19.460,395,383,370,397,397,2025-05-27T22:35:25.896208
3029,0.3445,0.8955,0.1903,-36.155,1.225,-29.925,412,375,372,357,403,2025-05-27T22:35:25.896208
3030,0.3728,1.1043,0.2625,-37.380,0.910,-43.190,426,336,336,339,385,2025-05-27T22:35:25.896208
3031,0.4216,1.3488,0.3704,-39.480,-9.310,-56.665,396,343,366,393,400,2025-05-27T22:35:25.896208
3032,0.4670,1.5948,0.4607,-44.065,-22.610,-67.445,412,400,376,418,371,2025-05-27T22:35:25.896208
3033,0.5226,1.8890,0.5251,-51.485,-46.340,-75.250,407,418,375,403,337,2025-05-27T22:35:25.896208
3034,0.6339,2.1179,0.5266,-61.880,-74.865,-82.845,411,342,389,413,383,2025-05-27T22:35:25.896208
3035,0.7505,2.4219,0.4246,-74.480,-100.170,-87.640,406,408,399,417,394,2025-05-27T22:35:26.058996
3036,0.9111,2.6479,0.2977,-88.655,-105.490,-91.420,397,406,356,404,400,2025-05-27T22:35:26.058996
3037,0.9882,2.7645,0.2025,-105.875,-89.530,-91.770,355,409,368,403,408,2025-05-27T22:35:26.058996
3038,0.8906,2.7953,0.0903,-120.960,-64.470,-87.990,380,400,384,422,364,2025-05-27T22:35:26.058996
3039,0.6632,2.7099,0.0098,-138.915,-52.640,-83.685,417,408,381,397,379,2025-05-27T22:35:26.058996
3040,0.4324,2.5342,-0.0654,-155.015,-62.545,-80.220,392,410,386,359,393,2025-05-27T22:35:26.058996
3041,0.1942,2.2541,-0.1069,-169.855,-93.905,-76.895,388,359,377,379,397,2025-05-27T22:35:26.058996
3042,-0.0561,2.1179,-0.1215,-186.760,-135.520,-80.710,420,430,390,392,361,2025-05-27T22:35:26.058996
3043,-0.1957,1.8071,-0.1674,-205.065,-177.380,-91.350,418,406,390,409,374,2025-05-27T22:35:26.058996
3044,-0.3196,1.4904,-0.2582,-220.395,-218.890,-100.310,358,349,380,371,391,2025-05-27T22:35:26.058996
3045,-0.2357,1.0287,-0.3489,-225.435,-238.595,-101.325,390,412,359,392,365,2025-05-27T22:35:26.058996
3046,-0.1332,0.6998,-0.1801,-233.870,-223.825,-116.060,424,417,370,400,387,2025-05-27T22:35:26.058996
3047,0.0298,0.3084,-0.0034,-252.875,-164.290,-140.280,403,401,336,400,389,2025-05-27T22:35:26.058996
3048,0.0488,-0.2357,0.1508,-279.825,-97.755,-165.305,412,424,326,417,346,2025-05-27T22:35:26.058996
3049,-0.0756,-0.7579,0.1635,-296.170,-61.460,-199.115,425,410,318,423,368,2025-05-27T22:35:26.058996
3050,-0.1552,-1.6206,0.0395,-282.030,-65.520,-227.500,402,396,324,377,372,2025-05-27T22:35:26.058996
3051,-0.1103,-2.5069,0.2499,-244.755,-74.900,-239.680,379,426,366,397,393,2025-05-27T22:35:26.058996
3052,-0.3928,-3.2701,0.6173,-243.460,-56.455,-277.725,404,418,376,398,387,2025-05-27T22:35:26.058996
3053,-0.7950,-3.8879,1.1483,-252.910,-45.570,-289.835,399,427,337,406,413,2025-05-27T22:35:26.058996
3054,-1.0126,-3.6932,1.5118,-256.900,-75.845,-230.825,409,413,361,385,416,2025-05-27T22:35:26.224725
3055,-1.2927,-3.6449,1.4142,-210.805,-129.990,-126.000,414,407,375,383,411,2025-05-27T22:35:26.224725
3056,-1.0619,-3.5219,1.0458,-98.420,-184.170,-18.270,426,402,377,394,406,2025-05-27T22:35:26.224725
3057,-0.0742,-3.3121,1.0053,47.390,-166.110,113.575,389,392,386,411,404,2025-05-27T22:35:26.224725
3058,0.6759,-2.8538,1.2605,167.265,-35.420,193.830,412,395,379,405,409,2025-05-27T22:35:26.224725
3059,0.6832,-2.3551,1.5850,195.475,141.120,228.795,410,426,339,396,412,2025-05-27T22:35:26.224725
3060,0.3235,-1.9852,1.6426,185.150,244.475,248.815,380,415,364,404,376,2025-05-27T22:35:26.224725
3061,-0.0830,-1.8334,1.5167,173.915,271.110,264.530,422,380,344,364,357,2025-05-27T22:35:26.224725
3062,-0.4460,-1.5474,1.3991,189.700,245.630,266.035,394,417,351,397,369,2025-05-27T22:35:26.224725
3063,-0.5417,-1.0131,1.4167,206.605,224.910,258.440,427,423,375,395,377,2025-05-27T22:35:26.224725
3064,-0.5305,-0.4592,1.3313,208.775,208.005,245.210,424,402,335,405,406,2025-05-27T22:35:26.224725
3065,-0.3997,-0.0888,1.1278,215.880,171.710,225.960,409,388,324,416,409,2025-05-27T22:35:26.224725
3066,-0.2552,0.2133,0.7701,237.405,126.630,202.405,399,394,322,402,391,2025-05-27T22:35:26.224725
3067,-0.0595,0.4929,0.7691,249.410,112.245,184.170,397,404,353,392,403,2025-05-27T22:35:26.224725
3068,0.0996,0.7422,0.6437,250.285,122.360,165.620,392,425,375,395,405,2025-05-27T22:35:26.224725
3069,0.2064,0.8574,0.4270,240.520,143.780,150.570,391,409,377,385,350,2025-05-27T22:35:26.323788
3070,0.1249,0.9296,0.1932,229.565,160.265,139.090,389,426,389,377,374,2025-05-27T22:35:26.323788
3071,0.0337,1.0111,0.0659,224.910,159.285,135.835,387,428,386,407,404,2025-05-27T22:35:26.323788
3072,-0.0190,1.1068,0.0259,218.295,124.250,127.540,365,423,348,394,399,2025-05-27T22:35:26.323788
3073,0.0088,1.1551,-0.0346,205.450,85.540,113.155,411,390,376,396,397,2025-05-27T22:35:26.323788
3074,0.1547,1.2385,-0.1181,188.755,57.680,102.305,421,387,374,394,407,2025-05-27T22:35:26.323788
3075,0.2103,1.2302,-0.2201,174.055,30.590,96.075,396,416,383,405,410,2025-05-27T22:35:26.323788
3076,0.2791,1.2581,-0.2938,163.240,-3.325,88.655,404,422,391,412,401,2025-05-27T22:35:26.323788
3077,0.4207,1.2854,-0.3196,147.490,-25.690,78.015,415,432,349,385,385,2025-05-27T22:35:26.472521
3078,0.5495,1.2893,-0.3455,132.195,-35.000,66.640,397,424,326,387,382,2025-05-27T22:35:26.472521
3079,0.6085,1.2971,-0.3436,119.665,-32.865,57.505,399,417,350,396,404,2025-05-27T22:35:26.473194
3080,0.6568,1.2966,-0.2977,108.360,-30.940,46.340,395,405,363,415,410,2025-05-27T22:35:26.473194
3081,0.6417,1.3488,-0.2279,94.885,-29.050,35.245,404,425,370,394,409,2025-05-27T22:35:26.473194
3082,0.6354,1.4069,-0.1279,79.660,-26.880,27.475,417,345,377,393,399,2025-05-27T22:35:26.473194
3083,0.6222,1.4523,-0.0376,66.570,-26.915,20.825,388,401,381,391,409,2025-05-27T22:35:26.473194
3084,0.5841,1.4303,0.0137,52.570,-25.235,15.435,421,401,376,409,395,2025-05-27T22:35:26.473194
3085,0.5636,1.4118,0.0795,41.405,-19.005,0.420,397,398,348,356,401,2025-05-27T22:35:26.473194
3086,0.5080,1.3928,0.1723,31.150,-8.400,1.715,417,420,339,391,411,2025-05-27T22:35:26.473194
3087,0.4187,1.3532,0.2401,21.140,-0.525,-4.410,405,422,328,404,367,2025-05-27T22:35:26.473194
3088,0.3030,1.2898,0.3133,15.785,-1.120,-8.960,392,433,347,386,379,2025-05-27T22:35:26.473194
3089,0.1747,1.2151,0.3699,13.930,-7.350,-12.215,406,383,351,405,385,2025-05-27T22:35:26.629756
3090,0.1000,1.1717,0.4089,13.860,-19.355,-15.330,415,393,374,405,383,2025-05-27T22:35:26.629756
3091,0.0815,1.1483,0.4187,12.145,-28.455,-17.535,339,399,374,407,379,2025-05-27T22:35:26.629756
3092,0.1088,1.1322,0.3826,9.555,-24.115,-18.165,400,417,368,415,393,2025-05-27T22:35:26.629756
3093,0.0815,1.1009,0.3362,9.240,-8.610,-16.590,387,414,382,399,399,2025-05-27T22:35:26.629756
3094,0.0205,1.0712,0.2816,11.375,6.160,-13.685,409,394,357,412,412,2025-05-27T22:35:26.629756
3095,-0.0781,1.0526,0.2542,14.210,14.315,-10.010,419,390,361,394,401,2025-05-27T22:35:26.629756
3096,-0.1547,1.0360,0.2338,14.875,17.605,-5.285,417,423,333,398,392,2025-05-27T22:35:26.629756
3097,-0.2264,1.0155,0.2054,14.245,12.495,0.980,437,429,356,412,394,2025-05-27T22:35:26.629756
3098,-0.2425,0.9965,0.1708,14.630,1.960,4.795,422,418,378,406,408,2025-05-27T22:35:26.629756
3099,-0.2259,0.9823,0.1381,13.545,-4.900,8.050,430,382,371,406,408,2025-05-27T22:35:26.629756
3100,-0.1645,0.9701,0.1152,11.025,-4.935,12.495,361,399,370,361,384,2025-05-27T22:35:26.629756
3101,-0.1293,0.9482,0.0952,8.645,-0.910,15.575,393,403,336,396,356,2025-05-27T22:35:26.629756
3102,-0.1010,0.9316,0.0927,7.490,6.510,17.535,416,408,362,405,390,2025-05-27T22:35:26.629756
3103,-0.0952,0.9287,0.1210,6.685,14.630,19.075,418,427,372,408,407,2025-05-27T22:35:26.732603
3104,-0.0913,0.9345,0.1454,4.900,19.810,19.390,427,428,384,405,402,2025-05-27T22:35:26.732603
3105,-0.1069,0.9335,0.1747,3.640,21.420,19.320,398,356,309,398,401,2025-05-27T22:35:26.732603
3106,-0.1240,0.9331,0.2059,2.835,19.250,18.375,389,399,339,392,348,2025-05-27T22:35:26.732603
3107,-0.1157,0.9350,0.2289,3.395,12.565,9.030,420,426,373,344,333,2025-05-27T22:35:26.732603
3108,-0.0942,0.9370,0.2508,3.745,7.210,16.205,426,353,377,383,379,2025-05-27T22:35:26.732603
3109,-0.0810,0.9506,0.2743,2.800,6.545,13.580,431,409,389,400,345,2025-05-27T22:35:26.732603
3110,-0.0615,0.9565,0.2826,1.645,7.665,10.675,413,405,390,412,374,2025-05-27T22:35:26.732603
3111,-0.0444,0.9589,0.2826,0.980,9.555,8.015,416,380,345,386,390,2025-05-27T22:35:26.877206
3112,-0.0464,0.9706,0.2904,0.735,15.785,6.265,431,399,360,393,377,2025-05-27T22:35:26.877206
3113,-0.0771,0.9760,0.2987,0.700,21.280,5.250,403,404,367,412,398,2025-05-27T22:35:26.877206
3114,-0.1274,0.9716,0.3035,0.875,20.825,3.745,412,406,368,357,387,2025-05-27T22:35:26.877206
3115,-0.1576,0.9833,0.3084,1.295,15.820,4.515,427,391,364,335,381,2025-05-27T22:35:26.877206
3116,-0.1796,0.9843,0.3070,0.805,11.375,4.585,421,411,376,391,390,2025-05-27T22:35:26.877206
3117,-0.1771,0.9799,0.2943,-0.665,6.475,3.710,404,431,371,405,343,2025-05-27T22:35:26.877206
3118,-0.1684,0.9755,0.2879,-1.365,2.065,4.445,417,416,387,404,381,2025-05-27T22:35:27.177578
3119,-0.1357,0.9706,0.2582,-2.030,2.765,6.195,400,353,371,397,395,2025-05-27T22:35:27.177578
3120,-0.1293,0.9599,0.2425,-2.730,7.350,5.425,410,339,368,360,389,2025-05-27T22:35:27.177578
3121,-0.1474,0.9560,0.2469,-2.975,10.465,4.795,400,389,376,389,399,2025-05-27T22:35:27.177578
3122,-0.1498,0.9521,0.2420,-4.130,10.955,5.635,407,402,340,388,399,2025-05-27T22:35:27.177578
3123,-0.1674,0.9394,0.2259,-4.340,11.165,6.615,340,354,368,347,390,2025-05-27T22:35:27.177578
3124,-0.1781,0.9355,0.2289,-3.395,10.780,6.615,386,408,337,387,384,2025-05-27T22:35:27.177578
3125,-0.1684,0.9477,0.2401,-3.255,8.085,7.070,391,426,332,409,401,2025-05-27T22:35:27.177578
3126,-0.1728,0.9389,0.2303,-3.220,5.985,7.210,404,423,360,418,408,2025-05-27T22:35:27.177578
3127,-0.1781,0.9345,0.2357,-1.995,4.235,7.490,400,381,373,411,398,2025-05-27T22:35:27.177578
3128,-0.1674,0.9379,0.2474,-0.105,0.350,8.505,352,402,390,419,390,2025-05-27T22:35:27.177578
3129,-0.1523,0.9418,0.2582,-0.700,-1.050,7.910,399,391,387,420,405,2025-05-27T22:35:27.177578
3130,-0.1298,0.9370,0.2582,-1.330,1.085,7.000,403,396,383,353,382,2025-05-27T22:35:27.177578
3131,-0.1220,0.9379,0.2674,-1.680,2.590,6.580,358,412,380,345,388,2025-05-27T22:35:27.177578
3132,-0.1308,0.9374,0.2650,-2.345,2.275,5.705,385,424,388,371,393,2025-05-27T22:35:27.177578
3133,-0.1254,0.9370,0.2616,-2.695,1.260,4.760,409,429,387,390,401,2025-05-27T22:35:27.177578
3134,-0.1279,0.9370,0.2528,-1.750,0.000,4.515,390,420,384,304,344,2025-05-27T22:35:27.177578
3135,-0.1279,0.9340,0.2552,-0.910,-1.645,3.080,415,424,389,379,388,2025-05-27T22:35:27.177578
3136,-0.1166,0.9389,0.2630,-1.015,-2.310,1.995,383,402,400,407,400,2025-05-27T22:35:27.177578
3137,-0.1191,0.9345,0.2684,-0.980,-2.240,0.805,370,419,396,373,403,2025-05-27T22:35:27.285524
3138,-0.1240,0.9282,0.2694,-0.525,-2.800,-0.245,396,439,348,410,413,2025-05-27T22:35:27.285524
3139,-0.1347,0.9223,0.2699,0.455,-4.725,-1.505,418,411,358,308,416,2025-05-27T22:35:27.285524
3140,-0.1293,0.9301,0.2684,0.490,-6.440,-2.835,366,406,371,384,413,2025-05-27T22:35:27.285524
3141,-0.1191,0.9306,0.2586,-0.035,-7.350,-3.675,384,343,364,351,384,2025-05-27T22:35:27.285524
3142,-0.1083,0.9311,0.2513,-0.490,-7.455,-4.270,419,387,375,332,360,2025-05-27T22:35:27.285524
3143,-0.1132,0.9301,0.2567,-0.630,-6.720,-4.725,397,401,366,389,394,2025-05-27T22:35:27.285524
3144,-0.1210,0.9277,0.2660,-1.260,-7.315,-5.180,352,417,374,409,393,2025-05-27T22:35:27.285524
3145,-0.1337,0.9248,0.2762,-2.275,-9.450,-5.250,380,367,368,413,403,2025-05-27T22:35:27.285524
3146,-0.1210,0.9135,0.2684,-2.660,-12.670,-5.425,412,405,367,390,363,2025-05-27T22:35:27.285524
3147,-0.0917,0.9096,0.2699,-2.695,-14.000,-5.600,422,408,378,413,389,2025-05-27T22:35:27.285524
3148,-0.0703,0.8969,0.2630,-3.395,-14.560,-6.580,425,344,386,408,390,2025-05-27T22:35:27.285524
3149,-0.0449,0.8760,0.2606,-4.165,-16.345,-8.295,431,385,389,412,407,2025-05-27T22:35:27.285524
3150,-0.0195,0.8608,0.2640,-5.075,-19.075,-10.640,429,387,380,413,408,2025-05-27T22:35:27.285524
3151,0.0112,0.8408,0.2518,-7.035,-21.735,-13.440,307,384,383,413,401,2025-05-27T22:35:27.285524
3152,0.0386,0.8316,0.2440,-9.450,-26.915,-15.750,391,392,389,415,400,2025-05-27T22:35:27.285524
3153,0.0781,0.8247,0.2250,-11.900,-33.320,-19.670,412,364,392,358,386,2025-05-27T22:35:27.285524
3154,0.1249,0.8237,0.2001,-14.210,-39.865,-23.905,400,379,393,394,386,2025-05-27T22:35:27.285524
3155,0.1776,0.8428,0.1757,-16.695,-46.550,-28.420,395,386,394,396,408,2025-05-27T22:35:27.285524
3156,0.2416,0.8882,0.1469,-19.180,-53.025,-33.600,421,403,389,415,388,2025-05-27T22:35:27.285524
3157,0.3201,0.9692,0.0956,-23.415,-55.965,-38.990,308,419,384,407,346,2025-05-27T22:35:27.525267
3158,0.4099,1.0887,0.0493,-28.455,-45.395,-45.430,358,422,349,393,362,2025-05-27T22:35:27.525267
3159,0.4446,1.2366,0.0054,-34.090,-46.445,-52.745,339,413,369,408,351,2025-05-27T22:35:27.525267
3160,0.4924,1.4215,-0.0459,-40.005,-35.805,-58.800,371,407,382,374,381,2025-05-27T22:35:27.525267
3161,0.5109,1.5748,-0.1127,-44.135,-22.820,-67.095,383,407,372,382,394,2025-05-27T22:35:27.525267
3162,0.5295,1.7670,-0.1337,-50.435,-8.085,-76.825,407,414,374,391,405,2025-05-27T22:35:27.525267
3163,0.5065,1.9281,-0.1357,-57.505,5.670,-83.860,416,437,379,391,395,2025-05-27T22:35:27.525267
3164,0.4285,2.0789,-0.0854,-71.015,10.325,-87.220,412,311,337,399,405,2025-05-27T22:35:27.525267
3165,0.3499,2.2204,-0.0439,-88.760,2.800,-84.665,394,384,292,351,398,2025-05-27T22:35:27.525267
3166,0.2957,2.3214,-0.0259,-108.885,-15.715,-79.590,424,430,341,334,405,2025-05-27T22:35:27.525267
3167,0.2333,2.3287,-0.0693,-127.610,-38.500,-72.555,408,378,356,383,394,2025-05-27T22:35:27.525267
3168,0.2191,2.3287,-0.1015,-148.330,-62.230,-63.665,420,430,386,390,407,2025-05-27T22:35:27.525267
3169,0.2025,2.2263,-0.1391,-169.540,-79.450,-57.050,420,434,350,410,416,2025-05-27T22:35:27.525267
3170,0.1713,2.0633,-0.1928,-187.110,-91.560,-50.400,400,424,358,421,407,2025-05-27T22:35:27.525267
3171,0.0937,1.8300,-0.2386,-203.455,-101.185,-45.885,408,416,366,372,397,2025-05-27T22:35:27.525267
3172,-0.0034,1.6236,-0.2011,-215.320,-117.530,-47.110,405,346,372,341,414,2025-05-27T22:35:27.525267
3173,-0.0849,1.4191,-0.1405,-226.905,-144.410,-51.205,417,376,374,378,407,2025-05-27T22:35:27.525267
3174,-0.2123,1.2668,-0.0561,-242.270,-180.635,-68.145,406,392,390,388,396,2025-05-27T22:35:27.525267
3175,-0.2499,1.0731,-0.0088,-260.260,-223.405,-95.585,433,417,397,378,389,2025-05-27T22:35:27.525267
3176,-0.1249,0.8013,-0.0293,-279.755,-272.160,-124.425,426,419,377,403,382,2025-05-27T22:35:27.525267
3177,0.1596,0.4280,-0.1288,-294.525,-298.235,-155.400,354,383,377,396,360,2025-05-27T22:35:27.689728
3178,0.4114,-0.1098,-0.0986,-303.590,-288.085,-183.960,410,413,389,388,376,2025-05-27T22:35:27.689728
3179,0.4953,-0.6368,0.0717,-309.435,-258.335,-209.125,426,403,387,404,368,2025-05-27T22:35:27.689728
3180,0.5500,-1.3283,0.3109,-318.220,-218.995,-231.210,416,416,392,403,369,2025-05-27T22:35:27.689728
3181,0.3650,-2.3312,0.5470,-332.920,-176.855,-266.175,395,415,383,394,377,2025-05-27T22:35:27.689728
3182,0.1615,-3.3535,0.9667,-341.180,-147.560,-292.005,408,402,378,347,372,2025-05-27T22:35:27.689728
3183,-0.1527,-3.9255,1.3391,-337.505,-119.385,-303.065,409,392,377,383,395,2025-05-27T22:35:27.689728
3184,-0.3436,-3.9133,1.4489,-284.480,-113.575,-277.935,419,425,384,406,393,2025-05-27T22:35:27.689728
3185,-0.4846,-3.6400,1.3127,-182.630,-120.540,-205.065,428,430,392,377,400,2025-05-27T22:35:27.689728
3186,-0.2869,-3.0022,1.2664,-59.955,-102.025,-97.195,399,409,388,342,406,2025-05-27T22:35:27.689728
3187,0.2713,-2.4610,1.3527,44.800,-26.110,31.710,416,426,382,377,395,2025-05-27T22:35:27.689728
3188,0.3797,-2.2468,1.3723,123.515,90.405,140.490,407,410,360,405,390,2025-05-27T22:35:27.689728
3189,0.1401,-2.0842,1.4445,159.740,178.815,195.895,412,347,362,354,385,2025-05-27T22:35:27.689728
3190,-0.3265,-1.8803,1.7100,192.465,194.635,224.350,421,405,375,377,388,2025-05-27T22:35:27.689728
3191,-0.5597,-1.8871,1.7182,207.200,157.010,237.615,413,414,375,401,400,2025-05-27T22:35:27.862197
3192,-0.4641,-1.8778,1.5406,225.505,99.575,239.190,430,436,384,403,384,2025-05-27T22:35:27.862197
3193,-0.1718,-1.5636,1.3235,255.010,111.125,233.450,430,439,391,388,387,2025-05-27T22:35:27.862197
3194,0.0839,-0.9906,1.2156,271.740,164.325,225.470,423,427,386,356,368,2025-05-27T22:35:27.862197
3195,0.2547,-0.4050,1.0053,270.095,235.445,215.285,421,346,376,338,361,2025-05-27T22:35:27.862197
3196,0.3104,-0.0468,0.8569,262.080,293.895,209.440,369,414,373,370,357,2025-05-27T22:35:27.863313
3197,0.2562,0.2655,0.7340,255.605,322.665,207.025,394,405,385,335,387,2025-05-27T22:35:27.863313
3198,0.1352,0.3738,0.5827,253.120,335.300,198.310,407,420,390,376,403,2025-05-27T22:35:27.863313
3199,0.0132,0.3762,0.3470,257.390,332.535,186.480,420,419,390,403,389,2025-05-27T22:35:27.863313
3200,-0.1976,0.4817,0.2245,269.045,300.965,170.870,418,403,391,415,401,2025-05-27T22:35:27.863313
3201,-0.1591,0.7110,0.1615,272.965,257.460,163.870,411,424,400,420,417,2025-05-27T22:35:27.863313
3202,-0.1357,0.8945,0.0703,262.325,188.055,157.990,391,422,397,421,415,2025-05-27T22:35:27.863313
3203,0.0327,1.0311,-0.0488,241.640,121.660,145.530,417,413,396,376,371,2025-05-27T22:35:27.863313
3204,0.2133,1.1629,-0.1786,216.090,74.410,127.015,411,346,392,341,386,2025-05-27T22:35:27.863313
3205,0.3938,1.2307,-0.3479,194.005,43.855,110.110,340,402,401,377,399,2025-05-27T22:35:28.191467
3206,0.4963,1.3166,-0.4192,172.165,16.590,91.210,386,414,387,387,405,2025-05-27T22:35:28.191984
3207,0.6168,1.4132,-0.4475,153.755,-2.275,71.435,410,412,375,395,402,2025-05-27T22:35:28.191984
3208,0.7115,1.4855,-0.4329,129.010,-7.000,53.865,404,435,384,403,403,2025-05-27T22:35:28.191984
3209,0.7466,1.5104,-0.4304,106.120,1.540,36.400,425,429,377,408,397,2025-05-27T22:35:28.191984
3210,0.6881,1.5284,-0.3558,85.400,17.220,21.805,398,399,340,406,399,2025-05-27T22:35:28.191984
3211,0.5758,1.5323,-0.2455,68.915,24.500,9.870,411,420,373,400,390,2025-05-27T22:35:28.191984
3212,0.4314,1.5065,-0.1581,56.910,18.165,2.415,419,426,344,349,393,2025-05-27T22:35:28.191984
3213,0.3538,1.4923,-0.0649,49.595,9.310,-2.695,400,401,364,392,393,2025-05-27T22:35:28.191984
3214,0.2694,1.4967,0.0386,40.915,6.720,-6.650,414,419,383,409,388,2025-05-27T22:35:28.191984
3215,0.1986,1.4552,0.1030,32.025,2.695,-6.825,359,417,382,402,413,2025-05-27T22:35:28.191984
3216,0.1044,1.4254,0.1464,26.985,-6.930,-3.255,394,405,372,355,417,2025-05-27T22:35:28.191984
3217,0.0210,1.3820,0.1698,24.395,-13.475,-1.365,403,387,370,389,404,2025-05-27T22:35:28.191984
3218,0.0044,1.3644,0.2098,21.735,-12.320,3.395,400,379,372,402,406,2025-05-27T22:35:28.191984
3219,-0.0600,1.3142,0.2474,18.060,-0.070,8.435,400,413,334,412,408,2025-05-27T22:35:28.191984
3220,-0.0937,1.2537,0.2845,13.615,-5.600,13.300,383,421,322,357,391,2025-05-27T22:35:28.191984
3221,-0.1488,1.2073,0.3099,7.770,-2.940,15.855,385,402,312,381,395,2025-05-27T22:35:28.191984
3222,-0.2001,1.1458,0.3240,2.170,-1.785,18.305,412,398,348,368,365,2025-05-27T22:35:28.191984
3223,-0.2445,1.0707,0.3089,0.035,-5.005,19.915,397,407,366,383,387,2025-05-27T22:35:28.191984
3224,-0.2757,1.0228,0.2972,1.155,-12.425,21.280,410,426,380,408,394,2025-05-27T22:35:28.191984
3225,-0.2557,0.9833,0.2767,3.780,-19.320,22.855,405,430,373,389,392,2025-05-27T22:35:28.272079
3226,-0.2284,0.9614,0.2738,3.885,-24.360,22.575,398,413,361,397,387,2025-05-27T22:35:28.272079
3227,-0.1791,0.9418,0.2391,3.010,-23.310,21.560,393,414,373,417,391,2025-05-27T22:35:28.272079
3228,-0.1240,0.9287,0.2172,2.485,-17.605,20.195,400,408,384,405,383,2025-05-27T22:35:28.272079
3229,-0.0888,0.9252,0.2020,1.540,-9.310,18.375,388,403,386,398,406,2025-05-27T22:35:28.272788
3230,-0.0830,0.9296,0.1957,-0.175,-1.960,16.345,389,419,383,399,413,2025-05-27T22:35:28.272931
3231,-0.0942,0.9267,0.1913,-1.785,-0.175,15.120,425,433,380,391,411,2025-05-27T22:35:28.272931
3232,-0.1030,0.9209,0.1942,-1.820,-1.365,14.665,415,414,387,408,400,2025-05-27T22:35:28.272931
3233,-0.1030,0.9287,0.2011,-1.190,-2.625,13.510,434,426,349,408,371,2025-05-27T22:35:28.272931
3234,-0.0932,0.9453,0.2128,-1.260,-3.045,12.320,426,416,366,351,377,2025-05-27T22:35:28.272931
3235,-0.0844,0.9560,0.2147,-1.610,-2.905,11.445,400,367,373,390,397,2025-05-27T22:35:28.272931
3236,-0.0815,0.9643,0.2098,-1.260,-1.155,9.870,395,381,376,401,405,2025-05-27T22:35:28.272931
3237,-0.0771,0.9750,0.2206,-1.050,1.645,8.995,401,406,388,398,412,2025-05-27T22:35:28.272931
3238,-0.0722,0.9784,0.2269,-0.665,3.255,7.945,386,429,371,402,358,2025-05-27T22:35:28.272931
3239,-0.0786,0.9770,0.2308,0.070,4.830,7.210,397,410,333,408,353,2025-05-27T22:35:28.574365
3240,-0.0942,0.9706,0.2416,0.875,7.000,6.685,395,402,323,409,381,2025-05-27T22:35:28.574365
3241,-0.1196,0.9716,0.2533,1.400,6.405,6.475,412,424,325,399,383,2025-05-27T22:35:28.574365
3242,-0.1352,0.9726,0.2650,0.910,3.605,5.985,388,371,355,404,393,2025-05-27T22:35:28.574365
3243,-0.1415,0.9633,0.2645,0.140,2.415,5.285,413,380,333,400,391,2025-05-27T22:35:28.574365
3244,-0.1449,0.9555,0.2606,-0.350,3.045,4.690,404,405,349,388,365,2025-05-27T22:35:28.574365
3245,-0.1493,0.9462,0.2596,-0.875,3.780,2.975,415,399,360,346,381,2025-05-27T22:35:28.574365
3246,-0.1557,0.9545,0.2713,-1.575,5.145,2.345,425,400,365,387,383,2025-05-27T22:35:28.574365
3247,-0.1610,0.9453,0.2557,-2.450,6.685,2.695,406,423,337,402,396,2025-05-27T22:35:28.574365
3248,-0.1845,0.9311,0.2577,-2.415,6.650,1.610,386,382,375,350,389,2025-05-27T22:35:28.574365
3249,-0.1908,0.9379,0.2713,-2.590,5.040,0.490,420,432,342,400,410,2025-05-27T22:35:28.574365
3250,-0.1820,0.9384,0.2713,-3.500,2.905,0.350,366,417,357,405,389,2025-05-27T22:35:28.574365
3251,-0.1845,0.9267,0.2528,-3.815,1.820,0.140,409,420,381,407,403,2025-05-27T22:35:28.574365
3252,-0.1923,0.9194,0.2552,-2.695,0.805,-0.735,386,418,338,352,391,2025-05-27T22:35:28.574365
3253,-0.1820,0.9228,0.2596,-2.520,-1.050,-1.820,411,433,350,399,414,2025-05-27T22:35:28.574365
3254,-0.1752,0.9228,0.2557,-2.975,-2.135,-2.380,413,418,362,411,393,2025-05-27T22:35:28.574365
3255,-0.1747,0.9209,0.2552,-2.625,-2.450,-2.380,403,395,375,409,412,2025-05-27T22:35:28.574365
3256,-0.1713,0.9238,0.2533,-1.855,-3.010,-2.170,301,393,369,352,408,2025-05-27T22:35:28.574365
3257,-0.1723,0.9287,0.2445,-1.295,-2.380,-2.380,397,393,332,400,418,2025-05-27T22:35:28.574365
3258,-0.1635,0.9282,0.2342,-0.665,0.140,-2.975,430,424,354,418,424,2025-05-27T22:35:28.574365
3259,-0.1630,0.9428,0.2381,0.315,2.240,-3.325,389,406,325,407,394,2025-05-27T22:35:28.574365
3260,-0.1645,0.9545,0.2391,0.105,4.165,-3.185,389,390,333,407,388,2025-05-27T22:35:28.673483
3261,-0.1654,0.9579,0.2420,-0.875,5.600,-3.255,370,408,355,407,402,2025-05-27T22:35:28.673483
3262,-0.1723,0.9506,0.2318,-1.505,6.930,-3.150,395,397,357,397,406,2025-05-27T22:35:28.673483
3263,-0.1703,0.9545,0.2416,-2.065,7.630,-2.345,396,361,327,409,414,2025-05-27T22:35:28.673483
3264,-0.1864,0.9579,0.2533,-2.765,7.805,-2.135,340,391,364,376,368,2025-05-27T22:35:28.673483
3265,-0.1986,0.9594,0.2635,-3.780,6.510,-2.240,407,416,338,340,378,2025-05-27T22:35:28.673483
3266,-0.1991,0.9575,0.2611,-3.990,3.115,-2.240,414,402,357,386,387,2025-05-27T22:35:28.673483
3267,-0.1976,0.9658,0.2645,-3.745,0.420,-1.365,389,415,379,406,350,2025-05-27T22:35:28.673483
3268,-0.1923,0.9604,0.2518,-3.780,-1.330,-0.700,398,400,352,416,375,2025-05-27T22:35:28.942563
3269,-0.1879,0.9589,0.2586,-3.255,-2.835,-1.015,391,414,332,399,396,2025-05-27T22:35:28.942563
3270,-0.1723,0.9623,0.2645,-3.465,-3.220,-0.980,350,406,362,413,400,2025-05-27T22:35:28.942563
3271,-0.1708,0.9570,0.2621,-4.130,-2.275,-0.840,415,339,367,398,404,2025-05-27T22:35:28.942563
3272,-0.1747,0.9536,0.2694,-4.270,-1.995,-0.735,363,323,378,373,386,2025-05-27T22:35:28.942563
3273,-0.1718,0.9540,0.2743,-4.655,-2.905,-0.595,390,390,374,386,387,2025-05-27T22:35:28.942563
3274,-0.1713,0.9462,0.2704,-5.215,-3.080,-0.175,398,409,368,391,389,2025-05-27T22:35:28.942563
3275,-0.1684,0.9384,0.2713,-5.250,-2.940,0.175,401,396,368,366,356,2025-05-27T22:35:28.942563
3276,-0.1728,0.9331,0.2708,-4.830,-3.115,0.350,376,346,366,380,399,2025-05-27T22:35:28.942563
3277,-0.1771,0.9374,0.2762,-4.655,-3.045,0.280,405,403,362,358,350,2025-05-27T22:35:28.942563
3278,-0.1825,0.9345,0.2801,-4.690,-3.255,-0.140,429,416,343,395,367,2025-05-27T22:35:28.942563
3279,-0.1801,0.9370,0.2782,-4.585,-3.885,-0.105,433,415,375,392,350,2025-05-27T22:35:28.942563
3280,-0.1845,0.9374,0.2762,-4.340,-4.445,-0.315,444,349,334,405,385,2025-05-27T22:35:28.942563
3281,-0.1820,0.9374,0.2728,-4.270,-4.830,-0.630,410,417,359,398,388,2025-05-27T22:35:28.942563
3282,-0.1874,0.9409,0.2713,-3.885,-6.090,-0.700,399,397,364,417,387,2025-05-27T22:35:28.942563
3283,-0.1859,0.9457,0.2733,-4.025,-7.350,-0.770,420,424,379,403,399,2025-05-27T22:35:28.942563
3284,-0.1786,0.9433,0.2669,-3.990,-7.805,0.245,421,421,388,401,409,2025-05-27T22:35:28.942563
3285,-0.1762,0.9453,0.2699,-3.535,-7.665,0.490,419,413,390,405,390,2025-05-27T22:35:28.942563
3286,-0.1674,0.9423,0.2743,-3.430,-6.580,0.455,425,418,355,405,379,2025-05-27T22:35:28.942563
3287,-0.1684,0.9379,0.2821,-3.185,-6.685,0.945,411,425,373,386,382,2025-05-27T22:35:28.942563
3288,-0.1654,0.9374,0.2845,-2.695,-6.475,1.680,402,400,370,418,389,2025-05-27T22:35:28.942563
3289,-0.1630,0.9374,0.2811,-2.345,-5.530,2.205,411,397,384,425,406,2025-05-27T22:35:28.942563
3290,-0.1635,0.9379,0.2772,-1.750,-4.690,2.730,413,419,383,398,394,2025-05-27T22:35:28.942563
3291,-0.1562,0.9355,0.2733,-0.805,-4.935,3.080,377,429,391,404,405,2025-05-27T22:35:28.942563
3292,-0.1518,0.9277,0.2713,0.035,-5.320,3.255,388,383,391,402,397,2025-05-27T22:35:28.942563
3293,-0.1459,0.9243,0.2708,0.280,-5.565,3.570,394,404,399,407,413,2025-05-27T22:35:28.989862
3294,-0.1313,0.9067,0.2704,0.630,-6.370,3.290,414,411,390,417,400,2025-05-27T22:35:28.989862
3295,-0.1235,0.8867,0.2762,0.665,-7.035,2.485,407,417,381,420,408,2025-05-27T22:35:28.989862
3296,-0.1147,0.8642,0.2743,0.770,-8.995,1.575,413,399,380,413,406,2025-05-27T22:35:28.989862
3297,-0.0898,0.8389,0.2694,1.260,-12.320,0.105,428,423,377,389,402,2025-05-27T22:35:28.989862
3298,-0.0600,0.8150,0.2669,1.155,-15.400,-2.240,426,398,374,396,402,2025-05-27T22:35:28.989862
3299,-0.0156,0.7930,0.2601,0.665,-26.565,-5.530,348,431,379,405,401,2025-05-27T22:35:28.989862
3300,0.0146,0.7730,0.2533,-0.840,-20.160,-9.485,399,430,388,415,389,2025-05-27T22:35:29.240465
3301,0.0376,0.7662,0.2420,-2.625,-23.800,-13.230,419,407,390,395,390,2025-05-27T22:35:29.240465
3302,0.0756,0.7701,0.2250,-5.180,-30.730,-18.410,386,417,390,419,407,2025-05-27T22:35:29.240465
3303,0.1318,0.8023,0.2133,-8.960,-39.305,-24.045,411,412,353,403,399,2025-05-27T22:35:29.240465
3304,0.1986,0.8779,0.1889,-12.705,-47.040,-30.100,422,427,352,309,341,2025-05-27T22:35:29.240465
3305,0.2523,1.0024,0.1547,-17.465,-54.880,-37.205,419,411,365,356,384,2025-05-27T22:35:29.240465
3306,0.3148,1.1741,0.1230,-23.730,-67.305,-43.260,414,407,376,377,403,2025-05-27T22:35:29.240465
3307,0.3977,1.4708,0.0766,-30.835,-78.750,-51.940,418,409,373,389,392,2025-05-27T22:35:29.240465
3308,0.4953,1.5621,0.0312,-38.990,-86.205,-61.320,397,397,372,407,385,2025-05-27T22:35:29.240465
3309,0.6139,1.7880,-0.0293,-49.175,-86.870,-72.100,388,409,377,409,405,2025-05-27T22:35:29.240465
3310,0.6598,1.9979,-0.0429,-57.925,-77.490,-82.530,406,421,382,421,386,2025-05-27T22:35:29.240465
3311,0.6271,2.1516,-0.0381,-69.895,-69.055,-90.965,403,425,389,389,405,2025-05-27T22:35:29.240465
3312,0.5329,2.2292,-0.0229,-81.830,-66.535,-96.530,393,424,344,346,405,2025-05-27T22:35:29.240465
3313,0.4089,2.2428,-0.0234,-92.190,-75.180,-97.930,394,420,376,382,377,2025-05-27T22:35:29.240465
3314,0.2821,2.2536,-0.0229,-102.375,-88.305,-96.110,418,435,384,411,393,2025-05-27T22:35:29.240465
3315,0.0986,2.2428,-0.0200,-115.185,-106.890,-91.700,339,397,370,421,393,2025-05-27T22:35:29.240465
3316,0.0044,2.2321,-0.0874,-128.695,-134.120,-86.030,370,418,340,384,404,2025-05-27T22:35:29.405309
3317,-0.1630,2.1321,-0.1923,-146.685,-166.460,-82.285,371,430,326,354,406,2025-05-27T22:35:29.406176
3318,-0.3748,1.9701,-0.3065,-163.100,-207.725,-81.060,392,362,322,395,391,2025-05-27T22:35:29.406176
3319,-0.6188,1.7832,-0.3226,-180.705,-256.340,-88.760,402,424,352,393,347,2025-05-27T22:35:29.406176
3320,-0.4846,1.6270,-0.3084,-202.090,-320.145,-94.605,408,304,329,378,374,2025-05-27T22:35:29.406176
3321,-0.1937,1.4645,-0.3787,-226.660,-377.125,-90.965,424,401,365,408,389,2025-05-27T22:35:29.406176
3322,0.2250,1.2678,-0.4948,-249.375,-386.400,-91.105,346,345,365,416,350,2025-05-27T22:35:29.406176
3323,0.6090,0.9526,-0.4168,-274.645,-343.420,-109.060,400,362,329,396,348,2025-05-27T22:35:29.406176
3324,1.0175,0.5012,-0.3221,-299.600,-262.080,-120.715,419,409,352,409,389,2025-05-27T22:35:29.406176
3325,0.8872,-0.3133,-0.0688,-329.770,-169.505,-140.420,425,426,379,419,390,2025-05-27T22:35:29.406176
3326,0.7222,-1.2542,0.2084,-347.375,-119.490,-162.540,398,415,374,425,391,2025-05-27T22:35:29.406176
3327,0.5202,-2.4795,0.6612,-356.055,-88.830,-182.840,389,418,305,414,403,2025-05-27T22:35:29.406176
3328,0.3362,-3.4550,1.1346,-355.460,-56.490,-206.430,390,418,339,417,388,2025-05-27T22:35:29.406176
3329,0.0732,-4.0333,1.4547,-347.060,-14.000,-216.300,400,436,335,422,344,2025-05-27T22:35:29.406176
3330,-0.4002,-4.2383,1.5226,-299.250,16.765,-196.910,408,409,362,359,343,2025-05-27T22:35:29.406176
3331,-0.8613,-3.9748,1.7207,-213.815,10.360,-143.220,421,433,367,371,368,2025-05-27T22:35:29.408188
3332,-0.6720,-3.3579,1.5948,-114.030,-34.125,-49.595,402,429,374,404,386,2025-05-27T22:35:29.408188
3333,-0.5183,-2.8792,1.5235,6.545,-55.580,51.415,415,413,375,406,348,2025-05-27T22:35:29.408188
3334,-0.1967,-2.4761,1.5260,112.140,-40.425,112.700,358,423,367,391,372,2025-05-27T22:35:29.496807
3335,0.1259,-1.8617,1.6411,168.700,-7.420,132.650,379,392,348,411,378,2025-05-27T22:35:29.496807
3336,0.2211,-1.5216,1.6797,184.625,23.065,146.160,391,387,322,415,379,2025-05-27T22:35:29.496807
3337,0.2874,-1.4230,1.5104,189.945,50.890,155.680,385,406,361,411,377,2025-05-27T22:35:29.496807
3338,0.4387,-1.4152,1.3249,210.735,95.270,162.680,414,365,330,400,391,2025-05-27T22:35:29.496807
3339,0.4821,-1.2127,1.1605,233.100,162.260,173.670,412,414,352,372,407,2025-05-27T22:35:29.496807
3340,0.4729,-0.8301,1.0634,240.730,248.395,184.240,418,404,374,385,405,2025-05-27T22:35:29.496807
3341,0.3343,-0.4982,0.8364,237.090,312.340,198.590,340,403,373,401,392,2025-05-27T22:35:29.813860
3342,0.2186,-0.1191,0.5573,237.545,373.800,217.385,400,382,381,399,349,2025-05-27T22:35:29.813860
3343,0.0405,0.2586,0.4582,236.670,403.585,225.680,407,381,375,387,389,2025-05-27T22:35:29.813860
3344,-0.1962,0.5485,0.4285,226.415,425.740,219.135,402,382,385,408,365,2025-05-27T22:35:29.813860
3345,-0.3597,0.6671,0.3284,214.620,408.170,202.230,407,409,385,399,378,2025-05-27T22:35:29.813860
3346,-0.6041,0.7379,0.2284,210.630,354.690,175.490,393,344,392,411,400,2025-05-27T22:35:29.813860
3347,-0.5485,0.8545,0.2133,206.220,271.810,158.340,361,377,390,373,386,2025-05-27T22:35:29.813860
3348,-0.4377,1.0131,0.0942,200.585,191.905,149.625,392,359,393,338,360,2025-05-27T22:35:29.813860
3349,-0.2425,1.1375,0.0151,186.270,128.135,137.410,423,402,396,369,399,2025-05-27T22:35:29.813860
3350,-0.0547,1.2283,-0.0488,169.295,80.150,126.070,418,409,384,386,365,2025-05-27T22:35:29.813860
3351,0.2357,1.2942,-0.1176,152.180,54.110,115.745,395,413,386,389,378,2025-05-27T22:35:29.813860
3352,0.2284,1.3098,-0.1645,138.880,37.730,105.630,341,401,371,388,384,2025-05-27T22:35:29.813860
3353,0.3806,1.3776,-0.1342,126.490,36.610,91.315,405,419,385,413,388,2025-05-27T22:35:29.813860
3354,0.4587,1.4425,-0.1049,113.540,44.380,79.765,346,425,345,409,393,2025-05-27T22:35:29.813860
3355,0.4333,1.4791,-0.0664,103.075,52.255,69.615,382,403,363,350,406,2025-05-27T22:35:29.813860
3356,0.3743,1.4479,-0.0317,97.125,49.245,59.605,429,431,376,333,406,2025-05-27T22:35:29.813860
3357,0.3089,1.4396,0.0278,91.035,37.345,51.345,385,416,384,372,415,2025-05-27T22:35:29.813860
3358,0.2464,1.4118,0.0830,84.805,18.270,45.185,406,415,388,401,390,2025-05-27T22:35:29.813860
3359,0.1869,1.3791,0.1098,79.380,-4.270,36.505,423,418,350,349,401,2025-05-27T22:35:29.813860
3360,0.1523,1.3732,0.1200,74.025,-27.580,28.525,401,424,363,381,385,2025-05-27T22:35:29.813860
3361,0.1947,1.3928,0.1118,66.045,-41.510,22.785,392,407,368,385,342,2025-05-27T22:35:29.912460
3362,0.2313,1.3781,0.0878,57.645,-37.835,18.970,397,413,376,412,389,2025-05-27T22:35:29.912460
3363,0.1840,1.3357,0.0878,47.110,-28.210,15.330,392,424,374,419,399,2025-05-27T22:35:29.912460
3364,0.1318,1.2883,0.0971,37.765,-17.115,13.720,401,419,337,411,410,2025-05-27T22:35:29.912460
3365,0.0244,1.2454,0.1176,30.800,-10.955,13.300,430,352,328,401,411,2025-05-27T22:35:29.912460
3366,-0.0688,1.2229,0.1523,24.570,-10.885,13.545,424,412,285,343,381,2025-05-27T22:35:29.912460
3367,-0.1415,1.1883,0.1728,17.990,-16.415,13.965,426,411,342,399,388,2025-05-27T22:35:29.912460
3368,-0.1728,1.1512,0.1713,13.125,-23.625,14.175,391,428,292,349,403,2025-05-27T22:35:29.921293
3369,-0.1557,1.1195,0.1654,7.770,-27.580,14.000,411,400,341,371,400,2025-05-27T22:35:29.922296
3370,-0.1425,1.0756,0.1566,2.590,-27.755,14.070,408,407,364,401,406,2025-05-27T22:35:29.922296
3371,-0.1308,1.0419,0.1381,-0.735,-25.935,14.420,350,407,367,408,373,2025-05-27T22:35:29.922557
3372,-0.1313,1.0136,0.1352,-1.330,-23.380,14.525,402,424,383,389,377,2025-05-27T22:35:29.922557
3373,-0.1210,0.9887,0.1318,-0.595,-19.985,15.610,343,420,373,390,382,2025-05-27T22:35:29.922557
3374,-0.1220,0.9799,0.1498,-0.525,-15.295,15.155,396,409,375,343,393,2025-05-27T22:35:29.922557
3375,-0.1137,0.9633,0.1537,-1.295,-10.850,13.615,409,403,383,381,389,2025-05-27T22:35:29.922557
3376,-0.1161,0.9531,0.1703,-2.205,-5.565,12.950,393,388,382,397,379,2025-05-27T22:35:30.141708
3377,-0.1366,0.9399,0.1830,-2.730,-2.800,12.320,393,394,389,387,372,2025-05-27T22:35:30.141708
3378,-0.1635,0.9179,0.1825,-1.505,-5.635,12.250,430,345,386,415,395,2025-05-27T22:35:30.141708
3379,-0.1781,0.9209,0.1986,-1.190,-11.550,11.270,403,399,389,400,411,2025-05-27T22:35:30.141708
3380,-0.1552,0.9184,0.1952,-1.995,-15.400,9.695,423,391,381,408,405,2025-05-27T22:35:30.141708
3381,-0.1127,0.9057,0.1742,-2.065,-14.770,9.065,422,393,387,415,398,2025-05-27T22:35:30.141708
3382,-0.0981,0.9077,0.1830,-1.505,-7.735,7.630,411,418,396,405,390,2025-05-27T22:35:30.141708
3383,-0.0947,0.9140,0.1918,-2.065,0.140,5.740,407,399,380,400,409,2025-05-27T22:35:30.141708
3384,-0.1186,0.9170,0.2045,-2.240,3.745,4.900,415,406,393,399,408,2025-05-27T22:35:30.141708
3385,-0.1449,0.9233,0.2074,-0.525,4.445,3.990,428,434,392,351,404,2025-05-27T22:35:30.141708
3386,-0.1488,0.9350,0.2201,0.280,4.375,2.730,418,412,388,399,413,2025-05-27T22:35:30.141708
3387,-0.1708,0.9409,0.2289,-0.035,2.275,1.085,407,401,390,418,396,2025-05-27T22:35:30.141708
3388,-0.1703,0.9374,0.2342,0.560,-2.415,-0.350,344,346,388,422,407,2025-05-27T22:35:30.141708
3389,-0.1713,0.9316,0.2347,1.575,-6.020,-1.260,381,403,379,405,353,2025-05-27T22:35:30.141708
3390,-0.1679,0.9428,0.2435,2.170,-7.315,-2.730,400,421,375,408,296,2025-05-27T22:35:30.141708
3391,-0.1474,0.9575,0.2323,1.295,-5.915,-3.395,343,338,334,395,363,2025-05-27T22:35:30.145232
3392,-0.1283,0.9575,0.2123,-0.140,1.120,-4.270,399,405,353,389,386,2025-05-27T22:35:30.145232
3393,-0.1532,0.9594,0.2147,0.280,9.695,-4.340,399,416,364,360,400,2025-05-27T22:35:30.145232
3394,-0.1962,0.9604,0.2396,0.665,11.865,-4.375,425,390,375,394,376,2025-05-27T22:35:30.145232
3395,-0.2191,0.9623,0.2499,0.245,9.695,-3.500,432,382,381,399,341,2025-05-27T22:35:30.222274
3396,-0.2474,0.9667,0.2582,-0.140,6.650,-2.170,401,411,340,351,367,2025-05-27T22:35:30.222274
3397,-0.2518,0.9736,0.2455,-0.490,3.745,-1.330,340,401,322,382,340,2025-05-27T22:35:30.222274
3398,-0.2401,0.9682,0.2391,-0.630,-0.070,-0.245,406,430,345,395,390,2025-05-27T22:35:30.222274
3399,-0.2484,0.9672,0.2420,-0.175,-1.995,1.540,406,353,356,349,393,2025-05-27T22:35:30.222274
3400,-0.2357,0.9706,0.2367,0.000,-3.605,2.940,415,413,366,377,399,2025-05-27T22:35:30.222274
3401,-0.2176,0.9662,0.2372,-0.490,-4.235,3.920,409,391,363,387,390,2025-05-27T22:35:30.222274
3402,-0.2050,0.9677,0.2460,-1.505,-2.870,4.620,410,424,372,414,405,2025-05-27T22:35:30.309495
3403,-0.1898,0.9550,0.2338,-2.555,-0.140,6.090,387,433,369,421,410,2025-05-27T22:35:30.309495
3404,-0.1889,0.9521,0.2303,-2.730,2.380,6.335,409,421,366,397,394,2025-05-27T22:35:30.309495
3405,-0.1957,0.9453,0.2347,-2.310,4.830,6.055,383,431,382,367,398,2025-05-27T22:35:30.309495
3406,-0.2084,0.9409,0.2357,-1.190,4.130,6.300,394,358,339,396,387,2025-05-27T22:35:30.309495
3407,-0.2172,0.9321,0.2367,0.560,0.700,6.825,399,392,369,393,383,2025-05-27T22:35:30.309495
3408,-0.2123,0.9360,0.2420,1.085,-2.695,6.300,406,410,376,404,400,2025-05-27T22:35:30.309495
3409,-0.2137,0.9414,0.2562,0.700,-5.635,5.495,407,416,377,406,409,2025-05-27T22:35:30.309495
3410,-0.2006,0.9301,0.2489,-0.455,-11.655,4.550,400,378,381,411,409,2025-05-27T22:35:30.623339
3411,-0.2030,0.9296,0.2391,-0.700,-18.515,4.060,412,399,387,350,403,2025-05-27T22:35:30.623339
3412,-0.2079,0.9287,0.2318,-1.085,-25.480,2.555,412,407,373,371,408,2025-05-27T22:35:30.623339
3413,-0.1684,0.9257,0.2167,-1.750,-31.430,0.665,427,426,354,341,388,2025-05-27T22:35:30.623339
3414,-0.1230,0.9199,0.1932,-2.275,-30.765,-0.385,308,409,359,370,349,2025-05-27T22:35:30.623339
3415,-0.1010,0.9218,0.1967,-2.765,-22.260,-1.190,367,393,370,402,393,2025-05-27T22:35:30.623339
3416,-0.0996,0.9209,0.2064,-3.640,-11.480,-2.030,388,389,378,391,384,2025-05-27T22:35:30.623339
3417,-0.1366,0.9179,0.2157,-3.955,-3.605,-2.590,396,421,375,406,403,2025-05-27T22:35:30.623339
3418,-0.1649,0.9184,0.2264,-3.500,1.715,-3.045,397,420,343,407,406,2025-05-27T22:35:30.905471
3419,-0.1903,0.9257,0.2338,-2.730,4.025,-2.835,397,395,367,396,393,2025-05-27T22:35:30.905471
3420,-0.2094,0.9311,0.2333,-1.925,3.850,-2.380,393,387,380,413,347,2025-05-27T22:35:30.905471
3421,-0.2357,0.9321,0.2362,-0.490,0.945,-1.575,409,385,378,373,330,2025-05-27T22:35:30.905471
3422,-0.2528,0.9282,0.2372,1.470,-4.690,-0.630,418,407,384,344,365,2025-05-27T22:35:30.905471
3423,-0.2474,0.9267,0.2372,2.520,-10.745,0.420,387,409,382,398,405,2025-05-27T22:35:30.905471
3424,-0.2386,0.9150,0.2338,2.695,-13.615,0.525,407,415,387,406,355,2025-05-27T22:35:30.905471
3425,-0.2206,0.9018,0.2211,2.660,-15.225,0.910,419,424,348,308,337,2025-05-27T22:35:30.905471
3426,-0.1962,0.8794,0.2050,2.660,-16.625,1.750,403,406,374,379,331,2025-05-27T22:35:30.905471
3427,-0.1571,0.8628,0.1908,1.820,-15.505,3.115,335,374,345,393,362,2025-05-27T22:35:30.905471
3428,-0.1376,0.8355,0.1703,0.490,-12.215,3.710,392,351,355,402,379,2025-05-27T22:35:30.905471
3429,-0.1054,0.8252,0.1645,-2.275,-10.710,4.200,396,350,372,355,399,2025-05-27T22:35:30.905471
3430,-0.0883,0.8154,0.1440,-5.705,-11.165,3.990,388,394,385,334,409,2025-05-27T22:35:30.905471
3431,-0.0805,0.8223,0.1449,-10.360,-14.630,2.555,385,419,370,372,377,2025-05-27T22:35:30.905471
3432,-0.0590,0.8516,0.1405,-16.275,-24.885,0.420,337,402,331,394,346,2025-05-27T22:35:30.905471
3433,-0.0268,0.8979,0.1357,-21.525,-41.335,-2.905,378,399,350,350,371,2025-05-27T22:35:30.905471
3434,0.0195,0.9765,0.1186,-27.335,-60.690,-7.525,403,414,379,333,369,2025-05-27T22:35:30.905471
3435,0.2386,1.1473,0.1103,-35.455,-77.770,-11.935,409,399,379,369,400,2025-05-27T22:35:30.905471
3436,0.2786,1.3806,0.0590,-46.480,-94.885,-15.120,347,423,385,384,396,2025-05-27T22:35:30.905471
3437,0.4607,1.6124,0.0044,-58.100,-98.945,-21.840,343,409,345,397,393,2025-05-27T22:35:30.905471
3438,0.6412,1.9530,-0.0151,-67.725,-90.265,-29.855,376,371,372,357,376,2025-05-27T22:35:30.905471
3439,0.7379,2.2014,-0.0034,-74.970,-77.140,-36.085,350,417,368,390,355,2025-05-27T22:35:30.905471
3440,0.7701,2.3614,0.0054,-83.510,-70.910,-38.430,401,395,368,403,377,2025-05-27T22:35:30.905471
3441,0.7447,2.3722,-0.0039,-90.720,-63.595,-38.990,385,420,347,394,345,2025-05-27T22:35:30.905471
3442,0.6900,2.3585,-0.0317,-97.125,-62.685,-39.445,391,392,357,409,393,2025-05-27T22:35:30.905471
3443,0.6149,2.3038,-0.0830,-104.370,-63.210,-42.350,384,355,358,400,369,2025-05-27T22:35:30.905471
3444,0.4934,2.1784,-0.2469,-112.140,-65.485,-47.740,407,416,375,388,378,2025-05-27T22:35:30.905471
3445,0.3938,2.0559,-0.1825,-122.290,-78.855,-50.050,409,399,333,389,382,2025-05-27T22:35:30.905471
3446,0.3250,1.9110,-0.2660,-136.500,-103.110,-49.945,401,408,356,348,395,2025-05-27T22:35:30.905471
3447,0.2147,1.7685,-0.3499,-153.055,-122.885,-50.960,415,403,369,397,412,2025-05-27T22:35:30.905471
3448,0.1928,1.6343,-0.4416,-165.655,-141.085,-50.820,420,388,335,404,401,2025-05-27T22:35:30.905471
3449,0.0303,1.5162,-0.4514,-183.365,-162.820,-59.745,424,409,358,363,396,2025-05-27T22:35:30.905471
3450,-0.0137,1.4010,-0.4255,-206.150,-194.530,-70.630,425,400,375,402,388,2025-05-27T22:35:30.905471
3451,-0.0542,1.2278,-0.3992,-229.915,-217.035,-82.320,418,405,382,352,409,2025-05-27T22:35:30.905471
3452,-0.0054,0.9970,-0.3933,-254.415,-247.905,-92.890,402,414,387,396,406,2025-05-27T22:35:31.038798
3453,0.0073,0.8374,-0.2694,-279.685,-272.230,-108.430,384,388,398,412,416,2025-05-27T22:35:31.038798
3454,0.1562,0.5080,-0.2381,-309.435,-289.625,-128.800,424,347,395,393,407,2025-05-27T22:35:31.039257
3455,0.2733,0.0537,-0.1967,-338.835,-293.825,-152.285,400,417,378,388,409,2025-05-27T22:35:31.039257
3456,0.5553,-0.6637,-0.1200,-361.550,-275.100,-166.145,416,426,389,404,397,2025-05-27T22:35:31.039525
3457,0.7813,-1.5206,0.1318,-383.950,-220.115,-190.085,342,401,377,403,392,2025-05-27T22:35:31.039626
3458,0.8140,-2.7299,0.4709,-408.100,-147.035,-218.610,406,355,372,347,390,2025-05-27T22:35:31.039626
3459,0.2513,-3.8981,1.0365,-417.830,-92.400,-248.080,378,412,379,382,386,2025-05-27T22:35:31.039626
3460,0.0156,-4.2251,1.4323,-400.540,-79.100,-256.270,401,397,373,387,387,2025-05-27T22:35:31.039626
3461,-0.2494,-4.2612,1.5596,-323.855,-93.065,-247.520,416,424,348,361,398,2025-05-27T22:35:31.039626
3462,-0.3323,-3.7649,1.5845,-210.000,-128.275,-198.415,414,403,370,397,384,2025-05-27T22:35:31.039626
3463,0.1132,-2.9612,1.4303,-84.315,-112.840,-100.730,369,406,381,401,391,2025-05-27T22:35:31.039626
3464,0.7330,-2.4698,1.1634,33.495,-17.745,15.925,417,413,344,371,408,2025-05-27T22:35:31.039626
3465,0.7730,-2.1106,1.2278,107.310,116.200,108.920,410,409,368,388,393,2025-05-27T22:35:31.039626
3466,0.4753,-1.6694,1.4425,156.730,195.580,158.690,420,408,377,406,388,2025-05-27T22:35:31.039626
3467,-0.0395,-1.4503,1.6455,171.395,187.950,176.610,420,301,335,388,394,2025-05-27T22:35:31.040599
3468,-0.1732,-1.5709,1.5172,179.305,125.790,175.805,428,327,364,391,391,2025-05-27T22:35:31.040599
3469,-0.0590,-1.6084,1.3357,202.195,69.755,167.335,432,385,376,413,405,2025-05-27T22:35:31.139839
3470,0.1845,-1.3840,1.1790,229.320,82.110,156.870,400,338,345,412,411,2025-05-27T22:35:31.139839
3471,0.3235,-1.0502,1.0834,242.445,149.415,155.435,389,399,371,398,400,2025-05-27T22:35:31.139839
3472,0.3152,-0.7769,0.9594,242.375,227.745,158.830,413,415,385,409,411,2025-05-27T22:35:31.139839
3473,0.1435,-0.4241,0.7549,241.920,302.190,168.665,340,398,343,409,417,2025-05-27T22:35:31.139839
3474,-0.0600,-0.0717,0.5710,240.590,362.530,181.650,375,412,323,395,414,2025-05-27T22:35:31.139839
3475,-0.3928,0.2469,0.4333,236.565,401.625,183.365,394,398,360,406,413,2025-05-27T22:35:31.139839
3476,-0.6076,0.5085,0.3357,228.515,395.220,175.245,406,414,373,411,398,2025-05-27T22:35:31.139839
3477,-0.8447,0.7022,0.3128,224.070,352.345,169.155,424,404,383,411,404,2025-05-27T22:35:31.139839
3478,-0.8491,0.7842,0.3211,219.310,252.700,163.205,421,410,381,391,399,2025-05-27T22:35:31.273458
3479,-0.6442,0.8755,0.2020,218.330,148.575,148.855,396,381,343,405,393,2025-05-27T22:35:31.273458
3480,-0.2450,1.0038,0.0346,214.025,84.175,136.780,413,390,376,353,396,2025-05-27T22:35:31.273458
3481,0.1215,1.1658,-0.0605,205.625,55.580,122.955,356,412,344,396,391,2025-05-27T22:35:31.273458
3482,0.4343,1.2903,-0.1332,196.700,49.910,110.250,398,401,349,347,402,2025-05-27T22:35:31.273458
3483,0.5124,1.3405,-0.1684,187.250,60.095,92.085,389,420,321,379,405,2025-05-27T22:35:31.273458
3484,0.5680,1.4342,-0.1859,179.130,69.405,75.040,386,419,354,346,398,2025-05-27T22:35:31.273458
3485,0.5612,1.5474,-0.1357,169.050,73.640,62.440,396,363,373,376,410,2025-05-27T22:35:31.273458
3486,0.5675,1.6348,-0.1098,155.085,78.470,51.310,422,419,385,397,410,2025-05-27T22:35:31.273458
3487,0.4402,1.6392,-0.0952,141.645,79.240,44.800,369,346,391,415,396,2025-05-27T22:35:31.288615
3488,0.2933,1.6773,-0.0498,128.555,62.265,41.475,406,387,396,353,398,2025-05-27T22:35:31.288615
3489,0.1908,1.6509,-0.0268,118.475,25.690,37.870,363,414,396,377,406,2025-05-27T22:35:31.288953
3490,0.1874,1.6572,0.0195,103.530,-3.010,33.600,390,434,390,403,400,2025-05-27T22:35:31.446889
3491,0.2201,1.6265,0.0210,88.620,-25.235,31.885,391,418,388,370,412,2025-05-27T22:35:31.446889
3492,0.2425,1.5894,0.0473,72.975,-33.915,28.840,347,417,383,377,411,2025-05-27T22:35:31.446889
3493,0.2991,1.5328,0.0717,57.120,-31.360,25.585,324,427,376,363,407,2025-05-27T22:35:31.446889
3494,0.2801,1.4381,0.0961,43.435,-20.510,22.435,385,399,379,393,413,2025-05-27T22:35:31.446889
3495,0.2172,1.3449,0.1523,34.545,-7.700,18.760,384,422,342,405,356,2025-05-27T22:35:31.446889
3496,0.1391,1.2566,0.2030,24.885,-1.715,16.380,414,430,359,398,346,2025-05-27T22:35:31.446889
3497,0.0337,1.1741,0.2264,17.500,2.485,13.370,412,390,334,406,294,2025-05-27T22:35:31.446889
3498,-0.0586,1.1175,0.2538,12.565,2.625,11.060,416,415,364,395,354,2025-05-27T22:35:31.446889
3499,-0.1742,1.0785,0.2582,8.855,-7.840,9.450,413,412,379,397,395,2025-05-27T22:35:31.446889
3500,-0.1942,1.0307,0.2416,5.040,-23.135,7.595,405,424,375,401,385,2025-05-27T22:35:31.446889
3501,-0.1474,0.9902,0.2059,2.870,-26.600,6.650,418,419,373,381,385,2025-05-27T22:35:31.446889
3502,-0.1069,0.9736,0.1923,1.015,-21.560,6.160,399,434,385,382,406,2025-05-27T22:35:31.446889
3503,-0.0981,0.9511,0.1845,-1.365,-11.445,5.845,365,422,389,404,365,2025-05-27T22:35:31.546767
3504,-0.1132,0.9414,0.1762,-2.905,-2.135,6.125,387,401,385,416,385,2025-05-27T22:35:31.546767
3505,-0.1425,0.9350,0.1850,-2.800,6.265,6.160,401,391,384,315,375,2025-05-27T22:35:31.546767
3506,-0.1962,0.9326,0.2040,-2.940,8.225,6.440,428,422,381,362,341,2025-05-27T22:35:31.546767
3507,-0.2245,0.9335,0.2172,-3.465,2.275,6.615,411,432,390,391,388,2025-05-27T22:35:31.546767
3508,-0.2420,0.9252,0.2216,-2.695,-3.745,7.245,424,429,385,413,344,2025-05-27T22:35:31.546767
3509,-0.2201,0.9355,0.2176,-1.610,-9.730,7.630,414,434,376,417,379,2025-05-27T22:35:31.546767
3510,-0.1747,0.9384,0.2147,-0.770,-10.955,7.805,403,406,346,355,389,2025-05-27T22:35:31.546767
3511,-0.1645,0.9492,0.2186,-0.420,-7.105,7.245,388,417,357,395,399,2025-05-27T22:35:31.546767
3512,-0.1440,0.9623,0.2196,-0.700,-2.065,7.770,387,436,345,389,401,2025-05-27T22:35:31.855359
3513,-0.1459,0.9697,0.2279,-1.925,2.625,7.770,405,347,363,386,391,2025-05-27T22:35:31.855359
3514,-0.1571,0.9711,0.2362,-2.870,8.505,8.155,417,404,338,387,386,2025-05-27T22:35:31.855359
3515,-0.1884,0.9740,0.2572,-3.045,9.835,8.785,427,401,350,389,381,2025-05-27T22:35:31.855359
3516,-0.2079,0.9711,0.2674,-3.955,6.580,9.240,423,390,379,393,403,2025-05-27T22:35:31.855359
3517,-0.2113,0.9711,0.2694,-4.515,3.500,9.940,391,414,346,401,384,2025-05-27T22:35:31.855359
3518,-0.1962,0.9658,0.2806,-4.305,1.610,9.625,418,351,357,397,381,2025-05-27T22:35:31.855359
3519,-0.1830,0.9531,0.2747,-4.235,1.050,9.555,389,405,374,348,339,2025-05-27T22:35:31.855359
3520,-0.1918,0.9487,0.2728,-3.780,-0.455,10.010,416,431,367,373,369,2025-05-27T22:35:31.855359
3521,-0.1757,0.9389,0.2704,-3.500,-1.610,9.660,396,364,369,399,380,2025-05-27T22:35:31.855359
3522,-0.1606,0.9321,0.2611,-2.660,-0.070,9.240,356,414,372,351,334,2025-05-27T22:35:31.855359
3523,-0.1586,0.9374,0.2664,-1.470,4.165,8.470,405,419,379,391,383,2025-05-27T22:35:31.855359
3524,-0.1557,0.9389,0.2694,-1.260,7.350,7.805,420,411,379,407,399,2025-05-27T22:35:31.855359
3525,-0.1859,0.9257,0.2650,-0.700,7.490,7.455,346,434,378,394,392,2025-05-27T22:35:31.855359
3526,-0.1874,0.9292,0.2747,-0.105,4.585,6.090,339,400,381,381,401,2025-05-27T22:35:31.855359
3527,-0.1825,0.9257,0.2640,-0.630,2.590,5.215,378,413,389,383,352,2025-05-27T22:35:31.855359
3528,-0.1688,0.9228,0.2372,-1.015,1.995,4.935,397,345,392,396,335,2025-05-27T22:35:31.857576
3529,-0.1610,0.9243,0.2303,-0.490,2.135,3.745,410,412,381,408,346,2025-05-27T22:35:31.857576
3530,-0.1635,0.9296,0.2391,-1.365,1.610,1.435,399,429,377,393,386,2025-05-27T22:35:31.858074
3531,-0.1620,0.9389,0.2694,-3.325,0.140,0.420,428,309,373,395,391,2025-05-27T22:35:32.024243
3532,-0.1576,0.9174,0.2259,-4.410,-0.035,0.875,415,378,336,406,401,2025-05-27T22:35:32.024243
3533,-0.1620,0.9130,0.2323,-3.290,0.070,-0.805,409,389,363,394,365,2025-05-27T22:35:32.024243
3534,-0.1527,0.9228,0.2699,-3.220,-0.175,-2.905,422,406,370,393,397,2025-05-27T22:35:32.024243
3535,-0.1815,0.9130,0.2840,-4.410,-2.485,-5.390,409,400,384,395,397,2025-05-27T22:35:32.024243
3536,-0.1596,0.9165,0.2728,-4.200,-5.040,-5.565,417,418,382,422,416,2025-05-27T22:35:32.024243
3537,-0.1728,0.9179,0.2664,-2.555,-3.850,-6.720,402,371,371,421,405,2025-05-27T22:35:32.024243
3538,-0.1635,0.9267,0.2694,-1.435,0.105,-7.665,413,393,378,414,420,2025-05-27T22:35:32.024243
3539,-0.1752,0.9365,0.2782,-0.945,1.890,-8.470,400,409,386,425,418,2025-05-27T22:35:32.024243
3540,-0.2030,0.9340,0.2791,-0.665,2.835,-9.380,408,421,345,406,398,2025-05-27T22:35:32.024243
3541,-0.2269,0.9536,0.3035,-0.700,2.940,-7.665,418,346,290,397,385,2025-05-27T22:35:32.024243
3542,-0.2435,0.9418,0.2738,-0.630,1.750,-5.985,416,414,340,395,402,2025-05-27T22:35:32.024243
3543,-0.2664,0.9477,0.2738,0.560,-1.435,-4.935,366,430,288,408,400,2025-05-27T22:35:32.024243
3544,-0.2582,0.9579,0.2743,1.225,-3.570,-3.570,388,375,330,412,365,2025-05-27T22:35:32.024243
3545,-0.2352,0.9623,0.2679,1.365,-3.430,-0.945,393,391,351,406,339,2025-05-27T22:35:32.024243
3546,-0.2313,0.9687,0.2596,1.540,-1.680,1.540,408,433,371,396,369,2025-05-27T22:35:32.024243
3547,-0.2401,0.9628,0.2591,1.365,0.245,2.450,401,415,374,411,391,2025-05-27T22:35:32.024243
3548,-0.2386,0.9618,0.2577,1.365,-0.420,3.640,392,429,373,407,402,2025-05-27T22:35:32.024243
3549,-0.2235,0.9565,0.2567,1.050,-1.820,5.460,397,424,376,377,397,2025-05-27T22:35:32.024243
3550,-0.2201,0.9399,0.2469,0.420,-1.995,6.020,395,397,384,347,399,2025-05-27T22:35:32.024243
3551,-0.2118,0.9282,0.2508,-0.175,-2.660,5.950,387,418,354,371,407,2025-05-27T22:35:32.024243
3552,-0.1918,0.9145,0.2469,-0.980,-4.690,5.985,420,429,356,413,411,2025-05-27T22:35:32.185753
3553,-0.1791,0.8882,0.2420,-1.365,-6.580,5.250,409,349,369,394,398,2025-05-27T22:35:32.185753
3554,-0.1527,0.8716,0.2411,-1.575,-8.085,4.620,428,414,348,343,389,2025-05-27T22:35:32.185753
3555,-0.1352,0.8418,0.2357,-2.450,-8.925,3.150,403,423,326,328,389,2025-05-27T22:35:32.185753
3556,-0.1303,0.8115,0.2352,-3.675,-9.205,1.295,394,438,366,399,406,2025-05-27T22:35:32.185753
3557,-0.1288,0.7886,0.2313,-4.760,-10.570,0.105,422,400,339,411,402,2025-05-27T22:35:32.185753
3558,-0.1332,0.7579,0.2220,-5.950,-13.335,-0.875,429,416,334,379,406,2025-05-27T22:35:32.185753
3559,-0.1118,0.7340,0.2035,-7.630,-15.470,-1.015,354,398,369,402,401,2025-05-27T22:35:32.185753
3560,-0.1020,0.7105,0.1815,-8.645,-15.435,-1.120,399,421,381,408,368,2025-05-27T22:35:32.185753
3561,-0.0820,0.7076,0.1649,-10.080,-14.385,-1.925,386,375,369,396,347,2025-05-27T22:35:32.185753
3562,-0.0678,0.7257,0.1591,-12.355,-12.320,-2.870,418,397,374,400,369,2025-05-27T22:35:32.185753
3563,-0.0395,0.7491,0.1537,-15.085,-8.155,-3.605,414,419,385,393,372,2025-05-27T22:35:32.186796
3564,-0.0127,0.8032,0.1469,-17.605,-3.500,-5.180,415,394,385,383,373,2025-05-27T22:35:32.186796
3565,0.0166,0.9028,0.1474,-19.565,1.505,-7.630,416,434,384,411,373,2025-05-27T22:35:32.266273
3566,0.0390,1.0468,0.1576,-22.925,5.670,-12.075,396,422,394,410,356,2025-05-27T22:35:32.266273
3567,0.0781,1.2668,0.1669,-27.370,6.930,-17.465,355,421,388,371,391,2025-05-27T22:35:32.266273
3568,0.1220,1.5894,0.1967,-33.110,4.165,-22.120,406,436,384,405,349,2025-05-27T22:35:32.533178
3569,0.2098,1.7358,0.2274,-40.950,-5.180,-27.440,400,369,371,393,376,2025-05-27T22:35:32.533178
3570,0.2816,1.9998,0.2606,-49.525,-20.825,-31.290,394,419,379,394,395,2025-05-27T22:35:32.533178
3571,0.3811,2.2160,0.2791,-56.980,-43.085,-31.500,416,437,381,408,351,2025-05-27T22:35:32.533178
3572,0.4929,2.3839,0.2557,-65.975,-70.105,-31.290,392,423,384,378,390,2025-05-27T22:35:32.533178
3573,0.6139,2.4878,0.1708,-74.865,-87.395,-30.135,395,414,340,360,409,2025-05-27T22:35:32.533178
