SeqNum,AccX,AccY,AccZ,GyroX,GyroY,GyroZ,Flex,Force1,Force2,Force3,Force4,TimestampReception
1,0.0307,-1.0863,0.2245,-4.480,79.800,-26.215,0.01,16.0028,32.0711,15.1036,4.3941,2025-06-12T14:09:05.267337
2,0.0264,-0.6022,0.5061,-2.415,30.730,3.990,0.01,16.0028,32.0711,32.8929,3.3647,2025-06-12T14:09:05.267337
3,0.0181,-0.6100,0.5065,-3.920,23.415,8.050,0.00,16.0028,32.0711,34.3672,4.3941,2025-06-12T14:09:05.267337
4,0.0151,-0.6163,0.5031,-5.880,18.095,11.095,0.00,19.4317,32.0711,35.8403,3.3647,2025-06-12T14:09:05.267337
5,0.0229,-0.6329,0.4934,-7.070,12.670,14.770,0.01,16.0028,27.0568,32.8929,4.3941,2025-06-12T14:09:05.267337
6,0.0166,-0.6500,0.4821,-8.855,9.415,17.325,0.01,16.0028,32.0711,34.3672,3.3647,2025-06-12T14:09:05.267337
7,0.0122,-0.6934,0.4773,-9.030,5.950,19.915,0.00,16.0028,27.0568,34.3672,3.3647,2025-06-12T14:09:05.267337
8,0.0088,-0.7559,0.4709,-8.855,3.500,21.630,0.00,16.0028,32.0711,32.8929,3.3647,2025-06-12T14:09:05.267337
9,0.0073,-0.8267,0.4670,-8.085,1.155,23.030,0.00,16.0028,32.0711,32.8929,3.3647,2025-06-12T14:09:05.268407
10,0.0054,-0.8994,0.4699,-6.055,0.070,23.450,0.00,16.0028,27.0568,32.8929,3.3647,2025-06-12T14:09:05.268407
11,-0.0024,-0.9916,0.4680,-3.745,-0.805,22.960,0.00,16.0028,27.0568,31.4173,3.3647,2025-06-12T14:09:05.268407
12,-0.0088,-1.0341,0.4558,-0.280,-1.680,22.400,0.00,16.0028,32.0711,31.4173,3.3647,2025-06-12T14:09:05.268407
13,0.0020,-1.0497,0.4402,3.150,-2.100,22.365,0.00,16.0028,27.0568,34.3672,3.3647,2025-06-12T14:09:05.268407
14,0.0127,-1.0682,0.4270,6.895,-1.470,23.205,0.00,16.0028,27.0568,32.8929,3.3647,2025-06-12T14:09:05.361468
15,0.0171,-1.1180,0.4368,9.800,1.015,23.695,0.01,19.4317,32.0711,32.8929,3.3647,2025-06-12T14:09:05.361468
16,0.0132,-1.2029,0.4494,11.900,5.040,21.910,0.01,19.4317,32.0711,29.9405,3.3647,2025-06-12T14:09:05.361468
17,0.0034,-1.2722,0.4587,13.440,11.270,17.325,0.01,16.0028,27.0568,29.9405,3.3647,2025-06-12T14:09:05.361468
18,0.0024,-1.3342,0.4548,14.910,17.570,12.180,0.00,16.0028,27.0568,29.9405,4.3941,2025-06-12T14:09:05.361468
19,0.0156,-1.3508,0.4397,16.835,25.690,6.755,0.00,16.0028,32.0711,29.9405,3.3647,2025-06-12T14:09:05.361468
20,0.0366,-1.3400,0.4207,18.795,33.775,3.815,0.01,16.0028,32.0711,31.4173,3.3647,2025-06-12T14:09:05.361468
21,0.0551,-1.3088,0.4158,19.390,45.255,2.835,0.01,19.4317,27.0568,32.8929,4.3941,2025-06-12T14:09:05.562300
22,0.0649,-1.2449,0.4094,18.550,55.895,2.240,0.01,16.0028,27.0568,32.8929,3.3647,2025-06-12T14:09:05.562300
23,0.0464,-1.1697,0.3967,15.260,67.270,2.065,0.01,16.0028,32.0711,34.3672,3.3647,2025-06-12T14:09:05.562300
24,0.0127,-1.0624,0.3875,11.900,73.150,2.590,0.00,19.4317,32.0711,32.8929,3.3647,2025-06-12T14:09:05.562300
25,-0.0190,-0.9770,0.3836,6.965,75.425,3.220,0.00,16.0028,27.0568,31.4173,3.3647,2025-06-12T14:09:05.562300
26,-0.0698,-0.8789,0.3860,1.785,63.455,3.290,0.01,12.5632,27.0568,28.4624,3.3647,2025-06-12T14:09:05.562300
27,-0.1020,-0.8247,0.3855,-3.605,63.070,2.800,0.00,19.4317,27.0568,28.4624,3.3647,2025-06-12T14:09:05.562300
28,-0.1488,-0.7793,0.3850,-7.875,51.100,1.505,0.00,16.0028,27.0568,26.9831,3.3647,2025-06-12T14:09:05.562300
29,-0.1747,-0.7603,0.3928,-11.935,32.830,-0.525,0.01,16.0028,27.0568,26.9831,3.3647,2025-06-12T14:09:05.563372
30,-0.1898,-0.7637,0.3967,-14.245,12.495,-4.095,0.00,16.0028,27.0568,25.5025,3.3647,2025-06-12T14:09:05.563372
31,-0.1923,-0.7803,0.3958,-16.170,-4.235,-8.190,0.00,16.0028,32.0711,26.9831,3.3647,2025-06-12T14:09:05.563372
32,-0.1728,-0.8101,0.3933,-16.765,-20.965,-14.840,0.00,16.0028,22.0186,26.9831,3.3647,2025-06-12T14:09:05.563372
33,-0.1420,-0.8491,0.3841,-17.045,-30.345,-21.070,0.00,16.0028,27.0568,28.4624,3.3647,2025-06-12T14:09:05.563372
34,-0.0991,-0.8940,0.3826,-16.730,-35.735,-29.295,0.00,16.0028,27.0568,28.4624,3.3647,2025-06-12T14:09:05.563372
35,-0.0595,-0.9633,0.3880,-16.800,-34.125,-36.505,0.00,16.0028,32.0711,29.9405,3.3647,2025-06-12T14:09:05.563372
36,-0.0156,-1.0180,0.4002,-16.695,-25.725,-45.920,0.00,16.0028,32.0711,31.4173,4.3941,2025-06-12T14:09:05.664183
37,0.0161,-1.0814,0.4114,-17.500,-14.700,-55.020,0.00,16.0028,27.0568,31.4173,3.3647,2025-06-12T14:09:05.664183
38,0.0483,-1.1312,0.4182,-18.025,2.135,-61.950,0.01,16.0028,32.0711,29.9405,3.3647,2025-06-12T14:09:05.664183
39,0.0664,-1.1658,0.4187,-18.620,16.940,-68.565,0.00,16.0028,32.0711,31.4173,4.3941,2025-06-12T14:09:05.664183
40,0.0786,-1.1717,0.4275,-18.305,34.265,-71.995,0.00,19.4317,27.0568,31.4173,4.3941,2025-06-12T14:09:05.664183
41,0.0800,-1.1878,0.4265,-19.075,46.655,-73.710,0.00,16.0028,27.0568,31.4173,3.3647,2025-06-12T14:09:05.664183
42,0.0717,-1.1814,0.4460,-19.810,58.345,-74.340,0.00,16.0028,32.0711,31.4173,4.3941,2025-06-12T14:09:05.665199
43,0.0512,-1.1390,0.4592,-20.930,64.715,-73.675,0.01,16.0028,32.0711,31.4173,3.3647,2025-06-12T14:09:05.803348
44,0.0386,-1.0560,0.4656,-21.875,65.030,-70.490,0.01,16.0028,32.0711,29.9405,4.3941,2025-06-12T14:09:05.803348
45,0.0405,-1.0004,0.4597,-22.050,59.115,-62.265,0.00,19.4317,32.0711,29.9405,3.3647,2025-06-12T14:09:05.803348
46,0.0468,-0.9428,0.4660,-21.875,49.805,-52.955,0.01,16.0028,32.0711,31.4173,3.3647,2025-06-12T14:09:05.803348
47,0.0307,-0.9116,0.4885,-22.295,34.825,-41.790,0.01,16.0028,27.0568,29.9405,3.3647,2025-06-12T14:09:05.803348
48,0.0063,-0.8857,0.5202,-22.540,19.005,-32.095,0.00,16.0028,27.0568,26.9831,3.3647,2025-06-12T14:09:05.803348
49,0.0029,-0.8721,0.5305,-21.910,-2.695,-24.920,0.00,16.0028,27.0568,28.4624,3.3647,2025-06-12T14:09:05.803348
50,0.0249,-0.8843,0.5173,-20.160,-20.650,-17.430,0.01,16.0028,32.0711,28.4624,4.3941,2025-06-12T14:09:05.803348
51,0.0825,-0.9028,0.5095,-17.220,-36.750,-13.195,0.01,16.0028,32.0711,25.5025,3.3647,2025-06-12T14:09:05.984307
52,0.1269,-0.9145,0.4953,-15.260,-44.170,-11.620,0.00,16.0028,32.0711,28.4624,3.3647,2025-06-12T14:09:05.984307
53,0.1947,-0.9267,0.4958,-12.215,-43.715,-12.110,0.00,16.0028,27.0568,26.9831,4.3941,2025-06-12T14:09:05.984307
54,0.2469,-0.9204,0.4802,-10.080,-36.680,-13.370,0.00,16.0028,32.0711,26.9831,3.3647,2025-06-12T14:09:05.984307
55,0.2908,-0.9204,0.4651,-6.405,-26.180,-14.210,0.00,16.0028,27.0568,25.5025,3.3647,2025-06-12T14:09:05.984307
56,0.3333,-0.9101,0.4626,-3.395,-8.505,-15.190,0.00,16.0028,27.0568,26.9831,3.3647,2025-06-12T14:09:05.984307
57,0.3509,-0.8969,0.4577,-2.100,8.225,-16.205,0.01,16.0028,32.0711,25.5025,3.3647,2025-06-12T14:09:05.984307
58,0.3284,-0.8794,0.4529,0.000,25.585,-16.275,0.01,16.0028,27.0568,25.5025,3.3647,2025-06-12T14:09:05.984307
59,0.2962,-0.8599,0.4446,2.345,35.560,-14.910,0.00,19.4317,32.0711,25.5025,3.3647,2025-06-12T14:09:05.984307
60,0.2562,-0.8511,0.4421,5.670,41.580,-12.355,0.00,16.0028,32.0711,26.9831,3.3647,2025-06-12T14:09:05.984307
61,0.2352,-0.8433,0.4465,8.190,43.120,-9.870,0.00,16.0028,27.0568,25.5025,3.3647,2025-06-12T14:09:05.984307
62,0.2250,-0.8301,0.4519,10.815,42.910,-8.435,0.00,16.0028,27.0568,25.5025,3.3647,2025-06-12T14:09:05.984307
63,0.2186,-0.8130,0.4524,11.970,41.580,-7.210,0.00,19.4317,27.0568,25.5025,3.3647,2025-06-12T14:09:05.984307
64,0.2152,-0.7989,0.4519,13.020,38.325,-6.335,0.01,19.4317,27.0568,25.5025,3.3647,2025-06-12T14:09:05.984307
65,0.2069,-0.7881,0.4455,13.335,34.825,-5.285,0.00,16.0028,27.0568,24.0207,3.3647,2025-06-12T14:09:05.984307
66,0.1947,-0.7925,0.4372,14.140,29.050,-4.655,0.00,16.0028,32.0711,24.0207,3.3647,2025-06-12T14:09:06.029871
67,0.1879,-0.7959,0.4348,14.490,24.045,-4.095,0.00,16.0028,27.0568,25.5025,4.3941,2025-06-12T14:09:06.029871
68,0.1913,-0.8003,0.4451,14.490,19.215,-4.060,0.01,16.0028,32.0711,25.5025,4.3941,2025-06-12T14:09:06.029871
69,0.1972,-0.8184,0.4529,14.070,16.730,-4.515,0.00,16.0028,32.0711,25.5025,3.3647,2025-06-12T14:09:06.029871
70,0.2137,-0.8389,0.4543,13.230,16.835,-5.320,0.00,16.0028,27.0568,26.9831,3.3647,2025-06-12T14:09:06.077182
71,0.2167,-0.8779,0.4568,12.320,19.285,-7.350,0.01,16.0028,32.0711,26.9831,4.3941,2025-06-12T14:09:06.077182
72,0.2216,-0.9179,0.4597,11.480,22.155,-9.100,0.00,16.0028,32.0711,25.5025,3.3647,2025-06-12T14:09:06.077182
73,0.2152,-0.9453,0.4646,11.305,25.935,-10.745,0.01,19.4317,27.0568,25.5025,3.3647,2025-06-12T14:09:06.165236
74,0.2157,-0.9687,0.4753,10.675,28.770,-11.305,0.01,19.4317,32.0711,25.5025,3.3647,2025-06-12T14:09:06.165824
75,0.2186,-0.9721,0.4831,10.325,31.955,-10.500,0.01,12.5632,32.0711,26.9831,3.3647,2025-06-12T14:09:06.165824
76,0.2216,-0.9623,0.4890,9.625,33.915,-8.435,0.00,16.0028,27.0568,26.9831,4.3941,2025-06-12T14:09:06.279199
77,0.2157,-0.9423,0.4934,8.855,34.650,-6.580,0.01,19.4317,27.0568,28.4624,4.3941,2025-06-12T14:09:06.279199
78,0.2020,-0.9130,0.4929,8.400,33.250,-4.410,0.00,19.4317,27.0568,26.9831,3.3647,2025-06-12T14:09:06.279199
79,0.1967,-0.8784,0.4870,8.190,30.800,-2.975,0.01,19.4317,32.0711,26.9831,3.3647,2025-06-12T14:09:06.279199
80,0.1898,-0.8555,0.4900,8.085,27.300,-1.645,0.01,19.4317,27.0568,26.9831,3.3647,2025-06-12T14:09:06.279199
81,0.1884,-0.8301,0.4948,7.840,24.395,-1.680,0.01,16.0028,32.0711,26.9831,3.3647,2025-06-12T14:09:06.279199
82,0.1874,-0.8145,0.4953,7.245,22.260,-3.185,0.00,16.0028,27.0568,25.5025,3.3647,2025-06-12T14:09:06.280215
83,0.1928,-0.8042,0.4904,6.510,21.140,-5.390,0.01,16.0028,27.0568,25.5025,3.3647,2025-06-12T14:09:06.280215
84,0.2025,-0.7959,0.4924,5.565,21.455,-7.945,0.01,16.0028,27.0568,24.0207,3.3647,2025-06-12T14:09:06.280215
85,0.2035,-0.8028,0.4900,4.270,22.610,-11.025,0.00,16.0028,27.0568,24.0207,3.3647,2025-06-12T14:09:06.280215
86,0.2025,-0.8037,0.4924,3.185,24.570,-13.860,0.00,12.5632,27.0568,24.0207,3.3647,2025-06-12T14:09:06.280215
87,0.1942,-0.8086,0.5002,1.400,26.425,-16.940,0.00,16.0028,27.0568,24.0207,3.3647,2025-06-12T14:09:06.280215
88,0.1815,-0.8164,0.5002,-0.595,27.055,-18.935,0.01,16.0028,32.0711,25.5025,4.3941,2025-06-12T14:09:06.382229
89,0.1703,-0.8272,0.5100,-1.925,26.425,-20.335,0.00,16.0028,27.0568,25.5025,4.3941,2025-06-12T14:09:06.382229
90,0.1547,-0.8355,0.5168,-3.920,24.395,-21.280,0.01,16.0028,32.0711,24.0207,3.3647,2025-06-12T14:09:06.382229
91,0.1444,-0.8540,0.5207,-5.390,21.595,-21.700,0.00,16.0028,32.0711,24.0207,3.3647,2025-06-12T14:09:06.382229
92,0.1342,-0.8745,0.5261,-6.405,17.045,-21.105,0.00,16.0028,27.0568,24.0207,3.3647,2025-06-12T14:09:06.382229
93,0.1366,-0.9096,0.5261,-6.720,11.795,-19.740,0.00,16.0028,27.0568,25.5025,3.3647,2025-06-12T14:09:06.382229
94,0.1415,-0.9360,0.5251,-6.160,7.735,-17.850,0.00,16.0028,32.0711,25.5025,4.3941,2025-06-12T14:09:06.382229
95,0.1571,-0.9545,0.5192,-4.970,3.990,-15.645,0.01,16.0028,27.0568,25.5025,3.3647,2025-06-12T14:09:06.483561
96,0.1708,-0.9594,0.5095,-2.730,2.520,-13.825,0.01,16.0028,27.0568,25.5025,4.3941,2025-06-12T14:09:06.483561
97,0.1942,-0.9570,0.5002,-1.470,2.940,-11.690,0.01,16.0028,27.0568,25.5025,4.3941,2025-06-12T14:09:06.483561
98,0.2128,-0.9496,0.4997,0.595,5.250,-10.080,0.01,16.0028,27.0568,24.0207,3.3647,2025-06-12T14:09:06.483561
99,0.2250,-0.9409,0.4909,1.960,10.080,-8.645,0.01,16.0028,27.0568,24.0207,2.3358,2025-06-12T14:09:06.483561
100,0.2298,-0.9331,0.4846,3.325,14.945,-8.190,0.00,16.0028,32.0711,22.5376,4.3941,2025-06-12T14:09:06.483561
101,0.2176,-0.9345,0.4797,4.375,20.370,-8.400,0.00,16.0028,27.0568,22.5376,4.3941,2025-06-12T14:09:06.483561
102,0.2069,-0.9252,0.4831,5.635,23.800,-8.995,0.00,16.0028,32.0711,24.0207,3.3647,2025-06-12T14:09:06.530260
103,0.1947,-0.9243,0.4782,6.370,26.530,-9.695,0.01,16.0028,27.0568,22.5376,4.3941,2025-06-12T14:09:06.530260
104,0.1874,-0.9160,0.4817,7.280,27.615,-10.115,0.00,16.0028,32.0711,24.0207,4.3941,2025-06-12T14:09:06.530260
105,0.1742,-0.9135,0.4909,7.560,27.475,-10.920,0.01,12.5632,32.0711,21.0533,3.3647,2025-06-12T14:09:06.530260
106,0.1747,-0.9018,0.4963,7.350,26.355,-12.040,0.01,19.4317,32.0711,22.5376,3.3647,2025-06-12T14:09:06.705671
107,0.1693,-0.8906,0.5002,6.650,25.200,-13.160,0.01,16.0028,27.0568,22.5376,3.3647,2025-06-12T14:09:06.705671
108,0.1669,-0.8886,0.5046,5.565,22.925,-13.790,0.01,16.0028,27.0568,24.0207,3.3647,2025-06-12T14:09:06.705671
109,0.1679,-0.8930,0.5095,4.760,20.545,-14.245,0.00,16.0028,32.0711,24.0207,4.3941,2025-06-12T14:09:06.705671
110,0.1640,-0.8989,0.5114,4.165,17.710,-14.630,0.00,16.0028,27.0568,25.5025,3.3647,2025-06-12T14:09:06.705671
111,0.1654,-0.9028,0.5178,3.745,15.225,-15.295,0.00,16.0028,32.0711,25.5025,3.3647,2025-06-12T14:09:06.705671
112,0.1732,-0.9004,0.5158,3.255,13.825,-15.645,0.00,19.4317,27.0568,24.0207,3.3647,2025-06-12T14:09:06.705671
113,0.1781,-0.9008,0.5173,3.010,12.740,-16.065,0.00,16.0028,27.0568,24.0207,3.3647,2025-06-12T14:09:06.705671
114,0.1810,-0.8984,0.5251,2.695,12.180,-16.415,0.00,16.0028,27.0568,24.0207,4.3941,2025-06-12T14:09:06.705671
115,0.1791,-0.8969,0.5334,2.520,11.970,-16.870,0.00,19.4317,32.0711,24.0207,3.3647,2025-06-12T14:09:06.705671
116,0.1781,-0.8950,0.5378,2.310,11.620,-17.255,0.00,19.4317,27.0568,25.5025,3.3647,2025-06-12T14:09:06.706744
117,0.1767,-0.8965,0.5407,2.450,11.095,-17.290,0.00,16.0028,32.0711,25.5025,3.3647,2025-06-12T14:09:06.706744
118,0.1845,-0.8896,0.5422,3.080,10.780,-17.045,0.01,19.4317,32.0711,25.5025,3.3647,2025-06-12T14:09:06.894250
119,0.1850,-0.8828,0.5373,3.605,11.025,-16.835,0.00,16.0028,32.0711,25.5025,3.3647,2025-06-12T14:09:06.894250
120,0.1850,-0.8794,0.5388,4.025,11.620,-17.080,0.01,19.4317,32.0711,25.5025,3.3647,2025-06-12T14:09:06.894250
121,0.1840,-0.8750,0.5417,4.550,12.670,-17.500,0.01,19.4317,32.0711,25.5025,4.3941,2025-06-12T14:09:06.894250
122,0.1830,-0.8716,0.5441,4.725,14.420,-18.515,0.01,19.4317,32.0711,24.0207,4.3941,2025-06-12T14:09:06.894250
123,0.1796,-0.8696,0.5490,4.620,15.715,-19.285,0.00,16.0028,32.0711,24.0207,3.3647,2025-06-12T14:09:06.894250
124,0.1825,-0.8672,0.5485,4.655,16.870,-19.845,0.00,19.4317,27.0568,24.0207,4.3941,2025-06-12T14:09:06.894250
125,0.1786,-0.8642,0.5505,4.690,17.430,-19.775,0.00,16.0028,27.0568,24.0207,3.3647,2025-06-12T14:09:06.894250
126,0.1723,-0.8618,0.5495,4.760,17.045,-19.635,0.00,16.0028,27.0568,24.0207,3.3647,2025-06-12T14:09:06.894250
127,0.1718,-0.8486,0.5529,4.550,16.415,-19.180,0.00,16.0028,32.0711,24.0207,2.3358,2025-06-12T14:09:06.894250
128,0.1679,-0.8428,0.5519,4.025,15.330,-19.110,0.00,19.4317,32.0711,25.5025,3.3647,2025-06-12T14:09:06.894250
129,0.1698,-0.8379,0.5558,3.640,13.825,-18.830,0.00,16.0028,27.0568,24.0207,3.3647,2025-06-12T14:09:06.894250
130,0.1767,-0.8374,0.5578,2.870,12.705,-18.375,0.00,16.0028,27.0568,25.5025,3.3647,2025-06-12T14:09:06.895323
131,0.1723,-0.8325,0.5583,2.380,11.655,-17.955,0.00,16.0028,27.0568,24.0207,3.3647,2025-06-12T14:09:06.895323
132,0.1742,-0.8272,0.5549,1.470,10.710,-17.745,0.00,16.0028,32.0711,24.0207,3.3647,2025-06-12T14:09:06.996352
133,0.1776,-0.8218,0.5597,0.630,9.625,-17.535,0.00,16.0028,32.0711,24.0207,3.3647,2025-06-12T14:09:06.996352
134,0.1728,-0.8247,0.5544,-0.455,8.540,-17.290,0.01,16.0028,27.0568,24.0207,4.3941,2025-06-12T14:09:06.996352
135,0.1654,-0.8184,0.5592,-1.785,7.105,-17.290,0.00,16.0028,32.0711,24.0207,3.3647,2025-06-12T14:09:06.996352
136,0.1625,-0.8096,0.5617,-2.870,5.285,-17.045,0.01,16.0028,27.0568,24.0207,3.3647,2025-06-12T14:09:06.996352
137,0.1684,-0.8169,0.5607,-4.200,2.835,-16.380,0.00,19.4317,27.0568,24.0207,3.3647,2025-06-12T14:09:06.996352
138,0.1688,-0.8237,0.5641,-5.075,0.665,-15.645,0.01,16.0028,27.0568,24.0207,3.3647,2025-06-12T14:09:06.996352
139,0.1703,-0.8213,0.5646,-5.985,-1.785,-15.015,0.00,19.4317,27.0568,24.0207,4.3941,2025-06-12T14:09:07.100273
140,0.1698,-0.8184,0.5671,-6.860,-4.690,-13.895,0.01,19.4317,32.0711,24.0207,2.3358,2025-06-12T14:09:07.100273
141,0.1708,-0.8198,0.5651,-7.070,-7.035,-12.635,0.00,19.4317,27.0568,25.5025,4.3941,2025-06-12T14:09:07.100273
142,0.1767,-0.8237,0.5622,-7.245,-9.485,-11.585,0.00,19.4317,27.0568,25.5025,3.3647,2025-06-12T14:09:07.100273
143,0.1796,-0.8272,0.5641,-7.245,-11.305,-10.570,0.00,16.0028,32.0711,24.0207,3.3647,2025-06-12T14:09:07.100273
144,0.1850,-0.8350,0.5622,-6.825,-12.390,-9.415,0.00,16.0028,27.0568,24.0207,3.3647,2025-06-12T14:09:07.100273
145,0.1850,-0.8525,0.5558,-5.775,-13.860,-7.910,0.00,16.0028,27.0568,24.0207,3.3647,2025-06-12T14:09:07.100273
146,0.1962,-0.8540,0.5558,-3.780,-14.315,-6.615,0.01,16.0028,27.0568,25.5025,4.3941,2025-06-12T14:09:07.100273
147,0.2084,-0.8560,0.5524,-2.485,-13.370,-5.565,0.00,16.0028,27.0568,24.0207,3.3647,2025-06-12T14:09:07.202454
148,0.2255,-0.8594,0.5475,-0.910,-11.410,-4.655,0.01,19.4317,32.0711,25.5025,3.3647,2025-06-12T14:09:07.202454
149,0.2377,-0.8613,0.5431,0.385,-6.895,-3.815,0.00,16.0028,32.0711,25.5025,3.3647,2025-06-12T14:09:07.202454
150,0.2323,-0.8623,0.5412,1.085,-3.220,-3.535,0.00,19.4317,32.0711,24.0207,3.3647,2025-06-12T14:09:07.203463
151,0.2225,-0.8555,0.5461,1.260,-0.140,-3.290,0.00,19.4317,27.0568,22.5376,3.3647,2025-06-12T14:09:07.203463
152,0.2118,-0.8481,0.5485,1.225,0.420,-2.800,0.00,19.4317,27.0568,24.0207,3.3647,2025-06-12T14:09:07.203463
153,0.1967,-0.8442,0.5461,1.155,-1.155,-1.785,0.00,16.0028,27.0568,24.0207,3.3647,2025-06-12T14:09:07.203463
154,0.1840,-0.8462,0.5500,1.225,-4.200,-0.805,0.01,16.0028,32.0711,25.5025,4.3941,2025-06-12T14:09:07.251188
155,0.1913,-0.8477,0.5544,1.680,-8.505,0.630,0.00,16.0028,27.0568,24.0207,3.3647,2025-06-12T14:09:07.251188
156,0.1957,-0.8511,0.5427,2.065,-11.655,2.100,0.01,16.0028,32.0711,24.0207,3.3647,2025-06-12T14:09:07.251188
157,0.2098,-0.8525,0.5348,2.695,-14.525,3.220,0.01,19.4317,27.0568,24.0207,3.3647,2025-06-12T14:09:07.251188
158,0.2289,-0.8579,0.5270,3.465,-15.540,4.375,0.00,16.0028,32.0711,24.0207,3.3647,2025-06-12T14:09:07.424328
159,0.2401,-0.8579,0.5348,4.480,-14.840,4.900,0.00,19.4317,27.0568,24.0207,3.3647,2025-06-12T14:09:07.424328
160,0.2572,-0.8530,0.5290,4.865,-12.810,5.110,0.01,16.0028,32.0711,24.0207,4.3941,2025-06-12T14:09:07.424328
161,0.2655,-0.8506,0.5285,4.725,-9.275,5.145,0.00,19.4317,32.0711,24.0207,4.3941,2025-06-12T14:09:07.424328
162,0.2630,-0.8520,0.5256,4.620,-6.895,5.355,0.01,16.0028,27.0568,22.5376,3.3647,2025-06-12T14:09:07.424328
163,0.2542,-0.8491,0.5251,4.690,-5.565,5.600,0.00,19.4317,22.0186,22.5376,3.3647,2025-06-12T14:09:07.424328
164,0.2435,-0.8520,0.5256,4.795,-6.090,5.950,0.00,16.0028,27.0568,22.5376,3.3647,2025-06-12T14:09:07.424328
165,0.2411,-0.8574,0.5246,5.285,-7.595,6.265,0.01,19.4317,32.0711,24.0207,2.3358,2025-06-12T14:09:07.424328
166,0.2430,-0.8545,0.5261,5.390,-9.205,6.335,0.01,19.4317,32.0711,22.5376,3.3647,2025-06-12T14:09:07.424328
167,0.2557,-0.8520,0.5246,5.285,-9.695,6.230,0.00,16.0028,27.0568,22.5376,3.3647,2025-06-12T14:09:07.425400
168,0.2616,-0.8535,0.5241,5.005,-9.835,5.950,0.00,16.0028,32.0711,22.5376,3.3647,2025-06-12T14:09:07.425400
169,0.2674,-0.8501,0.5290,4.690,-9.590,5.915,0.01,19.4317,27.0568,24.0207,3.3647,2025-06-12T14:09:07.425400
170,0.2645,-0.8535,0.5197,4.235,-9.485,5.880,0.01,19.4317,27.0568,22.5376,3.3647,2025-06-12T14:09:07.425400
171,0.2640,-0.8530,0.5207,3.815,-9.975,5.880,0.00,16.0028,32.0711,22.5376,3.3647,2025-06-12T14:09:07.514411
172,0.2625,-0.8520,0.5251,3.955,-10.955,5.670,0.00,16.0028,32.0711,22.5376,3.3647,2025-06-12T14:09:07.514411
173,0.2606,-0.8486,0.5207,3.570,-11.725,5.355,0.00,12.5632,32.0711,22.5376,3.3647,2025-06-12T14:09:07.514411
174,0.2660,-0.8467,0.5192,3.570,-12.180,4.760,0.00,16.0028,27.0568,22.5376,4.3941,2025-06-12T14:09:07.514411
175,0.2679,-0.8506,0.5222,3.535,-12.495,4.270,0.00,16.0028,27.0568,22.5376,3.3647,2025-06-12T14:09:07.514411
176,0.2733,-0.8550,0.5187,3.640,-12.075,3.920,0.00,16.0028,27.0568,22.5376,3.3647,2025-06-12T14:09:07.514411
177,0.2811,-0.8535,0.5124,3.850,-10.990,3.395,0.01,16.0028,32.0711,22.5376,3.3647,2025-06-12T14:09:07.604094
178,0.2879,-0.8530,0.5124,4.095,-9.240,2.870,0.01,16.0028,32.0711,22.5376,3.3647,2025-06-12T14:09:07.604094
179,0.2821,-0.8486,0.5163,3.920,-7.455,2.310,0.00,12.5632,32.0711,22.5376,4.3941,2025-06-12T14:09:07.604094
180,0.2782,-0.8511,0.5163,3.360,-5.460,1.610,0.00,16.0028,32.0711,24.0207,3.3647,2025-06-12T14:09:07.604094
181,0.2777,-0.8477,0.5212,2.730,-4.025,0.770,0.00,16.0028,32.0711,24.0207,4.3941,2025-06-12T14:09:07.713801
182,0.2650,-0.8457,0.5246,1.645,-3.360,0.035,0.01,16.0028,27.0568,24.0207,4.3941,2025-06-12T14:09:07.713801
183,0.2596,-0.8438,0.5290,0.945,-3.780,-0.560,0.00,16.0028,27.0568,22.5376,4.3941,2025-06-12T14:09:07.713801
184,0.2499,-0.8467,0.5236,0.140,-5.635,-0.700,0.00,16.0028,32.0711,22.5376,3.3647,2025-06-12T14:09:07.713801
185,0.2469,-0.8472,0.5197,0.000,-7.630,-0.490,0.01,16.0028,27.0568,22.5376,4.3941,2025-06-12T14:09:07.713801
186,0.2489,-0.8481,0.5173,-0.455,-9.660,-0.280,0.00,19.4317,27.0568,24.0207,3.3647,2025-06-12T14:09:07.713801
187,0.2508,-0.8418,0.5163,-0.805,-10.465,-0.385,0.00,16.0028,27.0568,22.5376,3.3647,2025-06-12T14:09:07.713801
188,0.2518,-0.8408,0.5129,-1.155,-10.710,-0.315,0.00,16.0028,27.0568,24.0207,3.3647,2025-06-12T14:09:07.713801
189,0.2542,-0.8389,0.5085,-1.435,-10.255,-0.280,0.00,19.4317,27.0568,21.0533,3.3647,2025-06-12T14:09:07.713801
190,0.2538,-0.8423,0.5051,-1.680,-9.205,-0.280,0.00,19.4317,27.0568,22.5376,3.3647,2025-06-12T14:09:07.713801
191,0.2474,-0.8520,0.4992,-1.610,-8.260,-0.385,0.00,19.4317,32.0711,22.5376,4.3941,2025-06-12T14:09:07.713801
192,0.2450,-0.8560,0.4963,-1.120,-7.420,-0.455,0.00,19.4317,32.0711,22.5376,3.3647,2025-06-12T14:09:07.814563
193,0.2484,-0.8550,0.4934,-0.875,-6.510,-0.175,0.00,19.4317,32.0711,22.5376,3.3647,2025-06-12T14:09:07.814563
194,0.2440,-0.8618,0.4890,-0.350,-5.250,0.350,0.01,19.4317,27.0568,22.5376,4.3941,2025-06-12T14:09:07.814563
195,0.2445,-0.8682,0.4870,0.140,-4.095,0.840,0.00,16.0028,27.0568,24.0207,3.3647,2025-06-12T14:09:07.814563
196,0.2450,-0.8682,0.4875,0.525,-2.310,0.875,0.00,12.5632,27.0568,22.5376,3.3647,2025-06-12T14:09:07.814563
197,0.2411,-0.8725,0.4802,0.630,-0.770,0.910,0.00,16.0028,27.0568,22.5376,3.3647,2025-06-12T14:09:07.814563
198,0.2411,-0.8725,0.4787,1.190,0.525,1.085,0.00,19.4317,27.0568,22.5376,4.3941,2025-06-12T14:09:07.814563
199,0.2401,-0.8740,0.4787,1.435,1.820,1.260,0.00,19.4317,27.0568,22.5376,3.3647,2025-06-12T14:09:07.917194
200,0.2420,-0.8828,0.4768,1.365,3.395,1.365,0.01,19.4317,27.0568,22.5376,4.3941,2025-06-12T14:09:07.917194
201,0.2372,-0.8891,0.4778,1.470,4.585,1.155,0.00,16.0028,32.0711,22.5376,4.3941,2025-06-12T14:09:08.178574
202,0.2377,-0.8886,0.4753,1.505,5.670,0.945,0.01,19.4317,27.0568,21.0533,4.3941,2025-06-12T14:09:08.178574
203,0.2391,-0.8882,0.4748,1.610,6.370,1.015,0.01,19.4317,32.0711,22.5376,3.3647,2025-06-12T14:09:08.178574
204,0.2401,-0.8843,0.4748,1.260,6.965,0.945,0.00,19.4317,27.0568,22.5376,3.3647,2025-06-12T14:09:08.178574
205,0.2362,-0.8769,0.4782,0.875,7.350,0.735,0.01,19.4317,27.0568,22.5376,3.3647,2025-06-12T14:09:08.178574
206,0.2357,-0.8682,0.4782,0.105,7.770,0.525,0.01,19.4317,32.0711,24.0207,3.3647,2025-06-12T14:09:08.178574
207,0.2357,-0.8501,0.4748,-0.525,7.315,0.280,0.00,19.4317,32.0711,24.0207,3.3647,2025-06-12T14:09:08.178574
208,0.2303,-0.8335,0.4792,-1.715,6.300,0.665,0.01,19.4317,32.0711,22.5376,3.3647,2025-06-12T14:09:08.178574
209,0.2201,-0.8067,0.4870,-3.045,4.060,1.365,0.01,16.0028,32.0711,22.5376,4.3941,2025-06-12T14:09:08.178574
210,0.2113,-0.7915,0.4929,-4.725,1.365,1.855,0.01,19.4317,32.0711,24.0207,4.3941,2025-06-12T14:09:08.178574
211,0.2064,-0.7915,0.4987,-5.985,-2.660,2.065,0.00,19.4317,27.0568,22.5376,3.3647,2025-06-12T14:09:08.178574
212,0.2118,-0.8111,0.5095,-6.720,-5.950,1.785,0.00,16.0028,27.0568,22.5376,2.3358,2025-06-12T14:09:08.178574
213,0.2167,-0.8257,0.5129,-6.615,-9.100,1.645,0.00,19.4317,27.0568,21.0533,3.3647,2025-06-12T14:09:08.178574
214,0.2269,-0.8286,0.5236,-5.775,-10.395,1.365,0.00,16.0028,27.0568,24.0207,3.3647,2025-06-12T14:09:08.178574
215,0.2367,-0.8262,0.5285,-5.040,-10.150,1.260,0.01,19.4317,32.0711,22.5376,4.3941,2025-06-12T14:09:08.178574
216,0.2474,-0.8150,0.5353,-4.340,-8.855,1.610,0.00,16.0028,27.0568,22.5376,3.3647,2025-06-12T14:09:08.178574
217,0.2474,-0.8037,0.5441,-4.095,-6.300,2.275,0.00,16.0028,22.0186,22.5376,3.3647,2025-06-12T14:09:08.178574
218,0.2425,-0.7935,0.5573,-4.340,-3.990,3.010,0.00,16.0028,27.0568,22.5376,3.3647,2025-06-12T14:09:08.178574
219,0.2333,-0.7862,0.5656,-4.725,-2.170,4.060,0.00,16.0028,27.0568,22.5376,4.3941,2025-06-12T14:09:08.178574
220,0.2245,-0.7842,0.5851,-4.795,-1.855,5.005,0.00,16.0028,27.0568,22.5376,3.3647,2025-06-12T14:09:08.178574
221,0.2186,-0.7906,0.5993,-4.725,-2.345,5.950,0.00,19.4317,27.0568,24.0207,3.3647,2025-06-12T14:09:08.178574
222,0.2196,-0.7964,0.6085,-4.060,-3.115,6.125,0.00,19.4317,27.0568,24.0207,3.3647,2025-06-12T14:09:08.178574
223,0.2333,-0.7979,0.6012,-3.010,-4.200,7.175,0.01,19.4317,27.0568,24.0207,3.3647,2025-06-12T14:09:08.243705
224,0.2533,-0.7862,0.5973,-2.205,-3.290,8.470,0.01,16.0028,27.0568,24.0207,3.3647,2025-06-12T14:09:08.244515
225,0.2689,-0.7740,0.6027,-2.170,-0.595,9.345,0.00,19.4317,27.0568,24.0207,3.3647,2025-06-12T14:09:08.244515
226,0.2860,-0.7603,0.6032,-2.835,4.620,10.395,0.00,19.4317,32.0711,24.0207,3.3647,2025-06-12T14:09:08.244515
227,0.2869,-0.7491,0.5954,-4.760,10.080,11.165,0.00,19.4317,32.0711,24.0207,4.3941,2025-06-12T14:09:08.244515
228,0.2733,-0.7379,0.5929,-6.475,15.225,11.795,0.01,16.0028,32.0711,25.5025,4.3941,2025-06-12T14:09:08.244515
229,0.2528,-0.7305,0.5949,-8.330,17.535,12.425,0.00,19.4317,27.0568,25.5025,3.3647,2025-06-12T14:09:08.244515
230,0.2274,-0.7213,0.5978,-9.835,16.730,12.880,0.00,16.0028,27.0568,25.5025,4.3941,2025-06-12T14:09:08.329076
231,0.2123,-0.7242,0.5998,-10.990,13.895,13.440,0.00,16.0028,27.0568,26.9831,3.3647,2025-06-12T14:09:08.329076
232,0.1986,-0.7169,0.5958,-12.355,9.065,13.370,0.01,19.4317,32.0711,28.4624,4.3941,2025-06-12T14:09:08.329076
233,0.1845,-0.7125,0.6115,-13.685,4.865,12.985,0.00,19.4317,27.0568,28.4624,3.3647,2025-06-12T14:09:08.329076
234,0.1903,-0.7081,0.6085,-15.505,-0.700,12.880,0.01,16.0028,32.0711,29.9405,4.3941,2025-06-12T14:09:08.329076
235,0.1810,-0.7174,0.5900,-16.415,-6.195,13.755,0.01,19.4317,32.0711,29.9405,3.3647,2025-06-12T14:09:08.329076
236,0.1825,-0.7286,0.5793,-16.905,-13.055,15.155,0.00,16.0028,32.0711,31.4173,3.3647,2025-06-12T14:09:08.431214
237,0.1918,-0.7466,0.5919,-16.450,-19.320,17.290,0.00,16.0028,32.0711,34.3672,3.3647,2025-06-12T14:09:08.431214
238,0.1942,-0.7647,0.5895,-15.715,-23.275,18.935,0.00,16.0028,32.0711,34.3672,4.3941,2025-06-12T14:09:08.431960
239,0.2113,-0.7749,0.5900,-15.295,-27.440,20.440,0.00,19.4317,27.0568,40.2520,3.3647,2025-06-12T14:09:08.431960
240,0.2245,-0.7788,0.5939,-13.020,-30.170,21.700,0.00,19.4317,27.0568,40.2520,3.3647,2025-06-12T14:09:08.431960
241,0.2489,-0.7862,0.5851,-11.060,-30.765,22.995,0.00,16.0028,27.0568,43.1869,4.3941,2025-06-12T14:09:08.431960
242,0.2650,-0.7930,0.5846,-9.310,-29.365,25.060,0.00,16.0028,32.0711,38.7827,3.3647,2025-06-12T14:09:08.431960
243,0.2679,-0.7974,0.5910,-6.510,-25.970,26.530,0.00,16.0028,32.0711,40.2520,4.3941,2025-06-12T14:09:08.431960
244,0.2855,-0.8184,0.5954,-3.640,-19.460,28.385,0.00,16.0028,32.0711,40.2520,4.3941,2025-06-12T14:09:08.530913
245,0.2869,-0.8662,0.6032,-1.505,-12.355,29.330,0.00,19.4317,27.0568,43.1869,3.3647,2025-06-12T14:09:08.530913
246,0.2640,-0.8906,0.6198,2.905,-3.325,30.205,0.00,16.0028,32.0711,44.6525,3.3647,2025-06-12T14:09:08.530913
247,0.2420,-0.9130,0.6276,6.195,3.220,31.360,0.00,16.0028,32.0711,43.1869,3.3647,2025-06-12T14:09:08.530913
248,0.2342,-0.9301,0.6324,10.290,10.780,33.810,0.00,16.0028,32.0711,44.6525,4.3941,2025-06-12T14:09:08.530913
249,0.2108,-0.9428,0.6305,14.105,15.610,36.855,0.01,16.0028,32.0711,44.6525,3.3647,2025-06-12T14:09:08.530913
250,0.1674,-0.9697,0.6344,18.900,19.600,38.640,0.01,16.0028,32.0711,47.5799,4.3941,2025-06-12T14:09:08.530913
251,0.1357,-0.9560,0.6422,22.365,21.910,40.285,0.01,16.0028,32.0711,54.8767,4.3941,2025-06-12T14:09:08.635756
252,0.1161,-0.9745,0.6710,24.745,25.445,40.530,0.01,16.0028,32.0711,53.4198,4.3941,2025-06-12T14:09:08.635756
253,0.0273,-0.9697,0.6856,23.625,31.360,38.290,0.00,16.0028,32.0711,51.9617,3.3647,2025-06-12T14:09:08.635756
254,-0.0381,-0.9877,0.6759,23.030,33.355,33.250,0.00,16.0028,27.0568,53.4198,3.3647,2025-06-12T14:09:08.635756
255,-0.1015,-0.9614,0.6549,24.360,31.605,29.610,0.00,16.0028,27.0568,51.9617,3.3647,2025-06-12T14:09:08.635756
256,-0.1484,-0.9819,0.6446,26.320,27.755,30.310,0.01,16.0028,27.0568,51.9617,3.3647,2025-06-12T14:09:08.635756
257,-0.1444,-0.9911,0.6212,31.255,17.745,35.385,0.01,19.4317,27.0568,50.5024,3.3647,2025-06-12T14:09:08.635756
258,-0.1762,-0.9755,0.5900,34.965,4.795,42.980,0.00,16.0028,32.0711,49.0418,4.3941,2025-06-12T14:09:08.635756
259,-0.1967,-0.9575,0.5998,38.535,-3.080,50.050,0.00,16.0028,27.0568,50.5024,3.3647,2025-06-12T14:09:08.730122
260,-0.1884,-0.9379,0.6017,39.445,-9.100,54.145,0.00,16.0028,32.0711,51.9617,4.3941,2025-06-12T14:09:08.730122
261,-0.1840,-0.9209,0.5905,39.270,-10.220,57.960,0.00,16.0028,27.0568,51.9617,3.3647,2025-06-12T14:09:08.730122
262,-0.1932,-0.9096,0.5739,37.450,-8.995,60.585,0.00,16.0028,32.0711,49.0418,4.3941,2025-06-12T14:09:08.730122
263,-0.2216,-0.9111,0.5685,35.000,-7.350,62.195,0.00,16.0028,32.0711,47.5799,3.3647,2025-06-12T14:09:08.730122
264,-0.2406,-0.8994,0.5919,31.885,-6.510,63.315,0.01,16.0028,27.0568,47.5799,3.3647,2025-06-12T14:09:08.730122
265,-0.2850,-0.8911,0.5671,28.910,-8.890,64.505,0.01,16.0028,32.0711,47.5799,4.3941,2025-06-12T14:09:08.730122
266,-0.3133,-0.8818,0.5285,25.480,-13.580,65.905,0.01,19.4317,27.0568,46.1168,3.3647,2025-06-12T14:09:08.873178
267,-0.3270,-0.8764,0.5119,21.630,-20.195,68.775,0.00,19.4317,27.0568,46.1168,4.3941,2025-06-12T14:09:08.873178
268,-0.3338,-0.8769,0.5144,18.410,-25.200,70.805,0.01,16.0028,27.0568,46.1168,4.3941,2025-06-12T14:09:08.873178
269,-0.3465,-0.8764,0.5275,13.195,-29.820,71.365,0.01,19.4317,27.0568,44.6525,3.3647,2025-06-12T14:09:08.873178
270,-0.3392,-0.8779,0.5529,8.750,-31.815,71.435,0.00,16.0028,32.0711,43.1869,3.3647,2025-06-12T14:09:08.873178
271,-0.3587,-0.8960,0.5207,3.430,-34.685,71.470,0.00,16.0028,27.0568,44.6525,3.3647,2025-06-12T14:09:08.873178
272,-0.3806,-0.9004,0.4973,0.420,-38.465,71.085,0.00,16.0028,27.0568,44.6525,3.3647,2025-06-12T14:09:08.873178
273,-0.3689,-0.8984,0.4778,-0.840,-43.365,71.435,0.01,16.0028,32.0711,44.6525,3.3647,2025-06-12T14:09:08.873178
274,-0.3411,-0.8896,0.4612,-0.840,-46.550,72.765,0.00,19.4317,27.0568,46.1168,3.3647,2025-06-12T14:09:08.873178
275,-0.3133,-0.8721,0.4626,-0.315,-45.430,73.605,0.00,16.0028,32.0711,46.1168,3.3647,2025-06-12T14:09:08.957234
276,-0.2908,-0.8564,0.4499,-0.175,-39.725,73.815,0.00,16.0028,32.0711,44.6525,3.3647,2025-06-12T14:09:08.957234
277,-0.2645,-0.8452,0.4446,0.560,-32.375,74.235,0.01,16.0028,32.0711,46.1168,3.3647,2025-06-12T14:09:08.957234
278,-0.2450,-0.8364,0.4480,0.945,-20.860,74.900,0.01,16.0028,27.0568,47.5799,3.3647,2025-06-12T14:09:08.957234
279,-0.2435,-0.8218,0.4607,1.575,-10.290,76.055,0.00,19.4317,32.0711,50.5024,4.3941,2025-06-12T14:09:08.957234
280,-0.2723,-0.8194,0.4704,1.960,1.295,76.090,0.00,16.0028,32.0711,50.5024,3.3647,2025-06-12T14:09:08.957234
281,-0.3196,-0.8189,0.4778,2.240,8.435,75.635,0.01,16.0028,27.0568,49.0418,4.3941,2025-06-12T14:09:08.957234
282,-0.3416,-0.8189,0.4880,2.975,13.475,74.445,0.01,12.5632,32.0711,50.5024,3.3647,2025-06-12T14:09:09.052639
283,-0.3655,-0.8218,0.5056,3.430,15.890,72.730,0.00,19.4317,32.0711,51.9617,3.3647,2025-06-12T14:09:09.052639
284,-0.3767,-0.8311,0.5266,4.795,16.765,71.260,0.00,19.4317,32.0711,49.0418,3.3647,2025-06-12T14:09:09.052639
285,-0.3963,-0.8276,0.5549,5.215,17.815,68.705,0.00,16.0028,27.0568,53.4198,3.3647,2025-06-12T14:09:09.052639
286,-0.4060,-0.8306,0.5700,3.675,17.255,66.430,0.00,16.0028,27.0568,54.8767,3.3647,2025-06-12T14:09:09.052639
287,-0.4270,-0.8428,0.5622,2.905,14.385,64.785,0.01,16.0028,27.0568,53.4198,3.3647,2025-06-12T14:09:09.052639
288,-0.4621,-0.8516,0.5758,2.695,8.190,63.875,0.01,16.0028,27.0568,50.5024,3.3647,2025-06-12T14:09:09.052639
289,-0.4548,-0.8520,0.5900,2.520,1.540,64.015,0.01,19.4317,32.0711,49.0418,2.3358,2025-06-12T14:09:09.148306
290,-0.4231,-0.8725,0.5866,1.925,-3.640,64.855,0.01,19.4317,32.0711,51.9617,3.3647,2025-06-12T14:09:09.148306
291,-0.3875,-0.9145,0.5734,2.135,-8.855,65.940,0.00,16.0028,32.0711,51.9617,3.3647,2025-06-12T14:09:09.148306
292,-0.3436,-0.9160,0.5836,1.295,-10.430,66.990,0.01,19.4317,32.0711,51.9617,3.3647,2025-06-12T14:09:09.148306
293,-0.3133,-0.8896,0.5861,-2.800,-8.820,67.025,0.01,19.4317,27.0568,54.8767,3.3647,2025-06-12T14:09:09.148306
294,-0.3099,-0.8716,0.6017,-7.980,-7.665,65.800,0.00,16.0028,27.0568,53.4198,4.3941,2025-06-12T14:09:09.148306
295,-0.3533,-0.8686,0.5846,-14.700,-13.405,63.035,0.00,19.4317,27.0568,51.9617,3.3647,2025-06-12T14:09:09.148306
296,-0.3967,-0.8701,0.6051,-19.390,-26.460,58.485,0.00,19.4317,32.0711,51.9617,3.3647,2025-06-12T14:09:09.250920
297,-0.4202,-0.9106,0.5944,-23.590,-44.205,53.865,0.01,19.4317,27.0568,53.4198,3.3647,2025-06-12T14:09:09.250920
298,-0.4504,-0.9423,0.5924,-25.725,-66.080,48.055,0.00,16.0028,27.0568,51.9617,3.3647,2025-06-12T14:09:09.250920
299,-0.4260,-1.0019,0.6217,-26.880,-80.430,36.750,0.01,19.4317,27.0568,54.8767,3.3647,2025-06-12T14:09:09.250920
300,-0.3475,-1.0043,0.6188,-27.790,-91.350,25.690,0.01,16.0028,27.0568,54.8767,4.3941,2025-06-12T14:09:09.251728
301,-0.2625,-0.9775,0.5949,-28.035,-90.020,14.770,0.00,16.0028,27.0568,54.8767,3.3647,2025-06-12T14:09:09.251728
302,-0.1591,-0.9662,0.6261,-29.575,-72.135,7.140,0.00,16.0028,32.0711,54.8767,3.3647,2025-06-12T14:09:09.251728
303,-0.0888,-0.9306,0.6578,-31.535,-51.695,-1.785,0.01,19.4317,27.0568,53.4198,3.3647,2025-06-12T14:09:09.357436
304,-0.0991,-0.9033,0.7178,-31.465,-19.110,-7.630,0.00,16.0028,32.0711,51.9617,4.3941,2025-06-12T14:09:09.357436
305,-0.1298,-0.8603,0.7593,-30.940,10.360,-13.685,0.00,16.0028,32.0711,50.5024,3.3647,2025-06-12T14:09:09.357436
306,-0.1991,-0.8003,0.7749,-25.795,26.880,-14.840,0.00,16.0028,27.0568,50.5024,3.3647,2025-06-12T14:09:09.357436
307,-0.2616,-0.7169,0.8120,-16.975,38.955,-12.600,0.01,19.4317,27.0568,49.0418,3.3647,2025-06-12T14:09:09.357436
308,-0.3767,-0.6124,0.8833,-9.135,43.085,-7.980,0.01,16.0028,27.0568,50.5024,2.3358,2025-06-12T14:09:09.357436
309,-0.4621,-0.5470,0.9570,1.925,40.845,-1.890,0.00,16.0028,32.0711,51.9617,4.3941,2025-06-12T14:09:09.357436
310,-0.5519,-0.4846,1.0136,13.265,32.025,6.930,0.00,19.4317,32.0711,54.8767,5.4240,2025-06-12T14:09:09.357436
311,-0.5968,-0.4646,1.0492,26.985,14.805,16.590,0.01,16.0028,32.0711,54.8767,3.3647,2025-06-12T14:09:09.411683
312,-0.6700,-0.4353,1.0624,38.325,-4.620,26.285,0.01,19.4317,32.0711,53.4198,4.3941,2025-06-12T14:09:09.411683
313,-0.7193,-0.4460,1.0892,54.075,-17.325,33.775,0.00,19.4317,27.0568,51.9617,3.3647,2025-06-12T14:09:09.411683
314,-0.7296,-0.5295,1.0921,67.095,-26.390,42.875,0.00,16.0028,32.0711,53.4198,3.3647,2025-06-12T14:09:09.585008
315,-0.7369,-0.6393,1.0643,85.575,-26.635,52.150,0.00,19.4317,27.0568,53.4198,3.3647,2025-06-12T14:09:09.585008
316,-0.7340,-0.7203,1.0443,102.585,-17.990,60.760,0.00,19.4317,27.0568,53.4198,3.3647,2025-06-12T14:09:09.585008
317,-0.7144,-0.7642,1.0560,115.500,-2.450,73.535,0.01,19.4317,27.0568,56.3323,3.3647,2025-06-12T14:09:09.585008
318,-0.7374,-0.7774,1.0512,128.135,11.060,86.835,0.00,19.4317,27.0568,53.4198,4.3941,2025-06-12T14:09:09.585008
319,-0.8062,-0.7871,1.0429,139.125,21.000,103.635,0.01,19.4317,27.0568,50.5024,3.3647,2025-06-12T14:09:09.585008
320,-0.8569,-0.7720,1.0126,148.155,23.030,119.525,0.01,19.4317,27.0568,50.5024,3.3647,2025-06-12T14:09:09.585008
321,-0.8969,-0.7257,0.9809,157.150,19.145,130.830,0.01,16.0028,27.0568,49.0418,3.3647,2025-06-12T14:09:09.585008
322,-0.8969,-0.6573,0.9882,162.155,12.670,141.645,0.00,19.4317,27.0568,46.1168,3.3647,2025-06-12T14:09:09.585008
323,-0.8862,-0.5885,1.0043,165.375,5.110,149.205,0.00,16.0028,27.0568,46.1168,2.3358,2025-06-12T14:09:09.586081
324,-0.8682,-0.5319,0.9843,166.355,-3.850,158.025,0.00,19.4317,27.0568,44.6525,4.3941,2025-06-12T14:09:09.586081
325,-0.8550,-0.4836,0.9877,167.335,-9.380,164.710,0.01,19.4317,27.0568,44.6525,4.3941,2025-06-12T14:09:09.586081
326,-0.8398,-0.4319,1.0067,168.175,-17.045,171.325,0.00,19.4317,27.0568,43.1869,4.3941,2025-06-12T14:09:09.586081
327,-0.8560,-0.3762,1.0150,169.260,-24.710,177.065,0.00,19.4317,27.0568,46.1168,4.3941,2025-06-12T14:09:09.675048
328,-0.8291,-0.3294,1.0233,170.415,-32.970,182.140,0.01,19.4317,27.0568,38.7827,3.3647,2025-06-12T14:09:09.675134
329,-0.7935,-0.2806,1.0350,172.690,-38.290,189.035,0.01,19.4317,27.0568,43.1869,3.3647,2025-06-12T14:09:09.675134
330,-0.7710,-0.2333,1.0263,174.510,-41.510,195.230,0.01,19.4317,27.0568,40.2520,4.3941,2025-06-12T14:09:09.675134
331,-0.7071,-0.1908,0.9975,177.730,-45.045,201.320,0.01,19.4317,27.0568,41.7201,3.3647,2025-06-12T14:09:09.675134
332,-0.6603,-0.1401,0.9765,179.165,-44.835,204.470,0.01,19.4317,27.0568,41.7201,4.3941,2025-06-12T14:09:09.675134
333,-0.6622,-0.1410,0.9448,179.900,-40.670,205.240,0.01,19.4317,32.0711,44.6525,3.3647,2025-06-12T14:09:09.675134
334,-0.5949,-0.1230,0.8647,182.105,-34.685,207.060,0.01,19.4317,32.0711,43.1869,3.3647,2025-06-12T14:09:09.771501
335,-0.5636,-0.0908,0.8150,182.035,-22.575,208.040,0.01,19.4317,27.0568,44.6525,4.3941,2025-06-12T14:09:09.771501
336,-0.5480,-0.0654,0.8047,178.395,-6.475,207.655,0.00,19.4317,32.0711,41.7201,4.3941,2025-06-12T14:09:09.771501
337,-0.6027,-0.0693,0.7925,175.840,0.595,208.250,0.01,19.4317,27.0568,41.7201,4.3941,2025-06-12T14:09:09.771501
338,-0.6183,-0.0400,0.7276,175.630,3.500,209.090,0.00,19.4317,27.0568,43.1869,3.3647,2025-06-12T14:09:09.771501
339,-0.5993,0.0029,0.6744,173.635,5.075,210.210,0.00,19.4317,32.0711,43.1869,3.3647,2025-06-12T14:09:09.771501
340,-0.5392,0.0615,0.6432,170.625,8.330,210.385,0.00,19.4317,27.0568,38.7827,3.3647,2025-06-12T14:09:09.771501
341,-0.5046,0.0820,0.5871,167.790,10.360,209.475,0.01,19.4317,32.0711,38.7827,4.3941,2025-06-12T14:09:09.967606
342,-0.4641,0.0800,0.5178,162.925,11.620,208.110,0.01,19.4317,32.0711,38.7827,3.3647,2025-06-12T14:09:09.967606
343,-0.3743,0.1083,0.4460,157.500,14.455,204.330,0.01,19.4317,32.0711,38.7827,4.3941,2025-06-12T14:09:09.967606
344,-0.3206,0.1410,0.3992,150.605,19.670,189.560,0.01,19.4317,27.0568,34.3672,3.3647,2025-06-12T14:09:09.967606
345,-0.2582,0.1430,0.3772,138.880,26.880,187.285,0.00,19.4317,32.0711,38.7827,3.3647,2025-06-12T14:09:09.967606
346,-0.1986,0.1425,0.3235,129.325,30.975,174.755,0.00,19.4317,27.0568,37.3121,3.3647,2025-06-12T14:09:09.967606
347,-0.1415,0.1381,0.2640,117.250,36.120,164.815,0.00,19.4317,27.0568,37.3121,3.3647,2025-06-12T14:09:09.967606
348,-0.0800,0.1498,0.2011,107.205,40.775,153.300,0.00,16.0028,27.0568,34.3672,3.3647,2025-06-12T14:09:09.967606
349,-0.0264,0.1845,0.1298,93.695,48.895,142.520,0.00,16.0028,27.0568,35.8403,3.3647,2025-06-12T14:09:09.967606
350,0.0386,0.2045,0.1137,81.445,59.920,128.905,0.00,19.4317,27.0568,37.3121,4.3941,2025-06-12T14:09:09.967606
351,0.0688,0.2313,0.0869,67.130,66.955,117.880,0.00,19.4317,32.0711,34.3672,3.3647,2025-06-12T14:09:10.263806
352,0.0771,0.2347,0.0630,54.985,72.065,104.965,0.00,19.4317,27.0568,35.8403,2.3358,2025-06-12T14:09:10.263806
353,0.0742,0.2674,0.0615,44.975,74.235,89.775,0.00,16.0028,27.0568,35.8403,3.3647,2025-06-12T14:09:10.263806
354,0.1098,0.3323,0.0556,34.580,76.650,75.460,0.01,19.4317,32.0711,37.3121,4.3941,2025-06-12T14:09:10.263806
355,0.1444,0.3802,0.0527,27.055,80.430,58.555,0.00,16.0028,27.0568,37.3121,3.3647,2025-06-12T14:09:10.263806
356,0.1835,0.4392,0.0776,17.395,86.170,45.255,0.00,16.0028,27.0568,35.8403,4.3941,2025-06-12T14:09:10.263806
357,0.1703,0.5075,0.0834,11.690,91.875,29.190,0.00,19.4317,32.0711,35.8403,4.3941,2025-06-12T14:09:10.263806
358,0.1874,0.5573,0.1054,0.245,96.775,18.515,0.00,16.0028,32.0711,34.3672,4.3941,2025-06-12T14:09:10.264804
359,0.2616,0.5519,0.1264,-8.260,104.790,8.155,0.00,16.0028,27.0568,35.8403,3.3647,2025-06-12T14:09:10.264804
360,0.1362,0.6891,0.1776,-17.745,110.985,-0.875,0.00,16.0028,27.0568,35.8403,3.3647,2025-06-12T14:09:10.264804
361,0.1508,0.8916,0.2542,-25.515,119.385,-12.250,0.00,16.0028,27.0568,35.8403,3.3647,2025-06-12T14:09:10.264804
362,0.1132,0.9804,0.2801,-31.500,124.110,-23.450,0.00,19.4317,27.0568,38.7827,3.3647,2025-06-12T14:09:10.264804
363,-0.0078,1.0580,0.2791,-38.570,123.795,-31.920,0.00,19.4317,32.0711,40.2520,3.3647,2025-06-12T14:09:10.264804
364,-0.0859,1.1351,0.2967,-44.940,115.535,-43.330,0.01,19.4317,27.0568,35.8403,4.3941,2025-06-12T14:09:10.264804
365,-0.1410,1.2063,0.3182,-52.850,105.210,-51.590,0.00,19.4317,27.0568,35.8403,3.3647,2025-06-12T14:09:10.264804
366,-0.2235,1.2586,0.3523,-59.500,92.365,-61.040,0.00,16.0028,27.0568,34.3672,4.3941,2025-06-12T14:09:10.264804
367,-0.2943,1.2468,0.4065,-66.535,79.030,-67.095,0.00,19.4317,27.0568,37.3121,2.3358,2025-06-12T14:09:10.264804
368,-0.4041,1.2112,0.4680,-71.365,60.340,-71.470,0.00,19.4317,27.0568,38.7827,3.3647,2025-06-12T14:09:10.264804
369,-0.4807,1.1736,0.5295,-75.565,42.630,-71.085,0.00,19.4317,32.0711,41.7201,3.3647,2025-06-12T14:09:10.308994
370,-0.5226,1.1409,0.5583,-77.105,21.140,-66.710,0.00,16.0028,32.0711,40.2520,3.3647,2025-06-12T14:09:10.308994
371,-0.4109,1.0936,0.5832,-78.050,18.060,-59.010,0.01,19.4317,27.0568,38.7827,3.3647,2025-06-12T14:09:10.308994
372,-0.4592,1.0541,0.6305,-77.385,24.010,-51.765,0.01,16.0028,27.0568,41.7201,3.3647,2025-06-12T14:09:10.308994
373,-0.5007,0.9945,0.6422,-76.405,33.705,-41.860,0.01,16.0028,32.0711,40.2520,3.3647,2025-06-12T14:09:10.308994
374,-0.6017,0.9487,0.6412,-73.500,37.555,-27.755,0.00,19.4317,32.0711,38.7827,2.3358,2025-06-12T14:09:10.308994
375,-0.6954,0.9174,0.6295,-68.495,31.465,-14.490,0.00,16.0028,32.0711,40.2520,3.3647,2025-06-12T14:09:10.308994
376,-0.7344,0.8799,0.6290,-61.950,17.920,2.520,0.00,19.4317,27.0568,40.2520,3.3647,2025-06-12T14:09:10.308994
377,-0.7476,0.8603,0.6525,-54.110,5.285,14.665,0.01,22.8498,32.0711,41.7201,3.3647,2025-06-12T14:09:10.308994
378,-0.6647,0.8316,0.6378,-48.125,-4.375,28.175,0.00,19.4317,27.0568,43.1869,4.3941,2025-06-12T14:09:10.308994
379,-0.5788,0.8218,0.6412,-40.530,-4.900,37.275,0.01,16.0028,32.0711,43.1869,3.3647,2025-06-12T14:09:10.356486
380,-0.5363,0.8164,0.6359,-34.265,-1.995,46.585,0.00,19.4317,32.0711,44.6525,4.3941,2025-06-12T14:09:10.357479
381,-0.5256,0.8008,0.6349,-29.120,0.105,51.415,0.01,16.0028,32.0711,44.6525,3.3647,2025-06-12T14:09:10.357479
382,-0.4880,0.8003,0.6407,-23.660,0.735,55.335,0.00,16.0028,27.0568,43.1869,3.3647,2025-06-12T14:09:10.357759
383,-0.4768,0.7652,0.6393,-19.425,0.385,58.975,0.00,16.0028,27.0568,43.1869,3.3647,2025-06-12T14:09:10.404526
384,-0.4670,0.7296,0.6315,-14.665,-3.430,60.725,0.01,16.0028,27.0568,46.1168,3.3647,2025-06-12T14:09:10.404526
385,-0.4304,0.6993,0.6329,-9.660,-9.380,63.175,0.00,19.4317,27.0568,44.6525,4.3941,2025-06-12T14:09:10.404526
386,-0.4094,0.6676,0.6442,-4.410,-13.790,63.980,0.01,19.4317,22.0186,43.1869,4.3941,2025-06-12T14:09:10.484286
387,-0.3928,0.6398,0.6422,-0.630,-18.375,63.035,0.01,19.4317,27.0568,43.1869,4.3941,2025-06-12T14:09:10.484286
388,-0.3704,0.6129,0.6193,2.345,-22.505,61.390,0.01,16.0028,32.0711,43.1869,4.3941,2025-06-12T14:09:10.484286
389,-0.3182,0.5900,0.5846,3.605,-25.830,59.570,0.00,16.0028,27.0568,43.1869,3.3647,2025-06-12T14:09:10.484286
390,-0.2733,0.5846,0.5510,4.340,-27.300,55.405,0.01,16.0028,32.0711,43.1869,4.3941,2025-06-12T14:09:10.682488
391,-0.2406,0.5754,0.5280,2.660,-27.090,49.630,0.01,19.4317,32.0711,41.7201,3.3647,2025-06-12T14:09:10.682488
392,-0.2074,0.5592,0.4987,-1.260,-25.865,40.495,0.00,19.4317,27.0568,41.7201,4.3941,2025-06-12T14:09:10.682488
393,-0.1742,0.5407,0.4646,-6.020,-25.865,31.780,0.00,16.0028,32.0711,40.2520,4.3941,2025-06-12T14:09:10.682488
394,-0.1366,0.5295,0.4372,-10.535,-26.880,20.650,0.00,19.4317,27.0568,40.2520,3.3647,2025-06-12T14:09:10.682488
395,-0.1054,0.5285,0.4168,-16.485,-27.510,11.095,0.01,16.0028,32.0711,35.8403,4.3941,2025-06-12T14:09:10.682488
396,-0.0742,0.5339,0.4021,-19.740,-28.735,-2.835,0.00,16.0028,27.0568,32.8929,3.3647,2025-06-12T14:09:10.682488
397,-0.0781,0.5436,0.3792,-26.985,-30.835,-15.260,0.01,12.5632,27.0568,31.4173,3.3647,2025-06-12T14:09:10.682488
398,-0.0024,0.5612,0.3538,-31.955,-30.345,-31.255,0.00,16.0028,32.0711,34.3672,3.3647,2025-06-12T14:09:10.683250
399,0.0200,0.5861,0.3465,-37.415,-26.775,-49.490,0.00,16.0028,27.0568,32.8929,3.3647,2025-06-12T14:09:10.683250
400,0.0527,0.6066,0.3767,-43.645,-17.290,-65.345,0.00,16.0028,32.0711,32.8929,3.3647,2025-06-12T14:09:10.683250
401,0.0600,0.6168,0.4143,-48.825,-6.580,-84.245,0.00,16.0028,27.0568,34.3672,3.3647,2025-06-12T14:09:10.683250
402,0.0112,0.6173,0.4460,-53.550,6.195,-99.085,0.00,16.0028,32.0711,35.8403,3.3647,2025-06-12T14:09:10.683250
403,-0.0561,0.5861,0.4875,-55.545,12.215,-115.500,0.00,16.0028,27.0568,35.8403,3.3647,2025-06-12T14:09:10.683250
404,-0.0800,0.5295,0.6105,-52.045,17.605,-127.925,0.01,16.0028,27.0568,35.8403,3.3647,2025-06-12T14:09:10.683250
405,-0.0913,0.5378,0.7452,-44.240,22.435,-137.830,0.00,19.4317,27.0568,37.3121,2.3358,2025-06-12T14:09:10.683250
406,-0.2128,0.5500,0.8325,-32.375,27.125,-143.570,0.00,19.4317,27.0568,38.7827,4.3941,2025-06-12T14:09:10.784239
407,-0.3601,0.6100,0.9531,-17.570,25.550,-151.445,0.00,16.0028,32.0711,38.7827,3.3647,2025-06-12T14:09:10.784239
408,-0.5207,0.6598,0.9701,-6.125,5.285,-156.205,0.00,19.4317,32.0711,40.2520,4.3941,2025-06-12T14:09:10.784952
409,-0.5617,0.6881,0.9906,7.175,-19.215,-157.115,0.00,16.0028,32.0711,41.7201,4.3941,2025-06-12T14:09:10.785120
410,-0.5539,0.7232,1.0360,18.235,-42.105,-155.190,0.01,16.0028,27.0568,44.6525,3.3647,2025-06-12T14:09:10.785204
411,-0.5275,0.7559,1.0741,26.915,-49.280,-152.040,0.00,16.0028,32.0711,43.1869,3.3647,2025-06-12T14:09:10.785371
412,-0.5436,0.7764,1.1444,35.000,-45.255,-147.035,0.01,16.0028,27.0568,46.1168,3.3647,2025-06-12T14:09:10.785536
413,-0.5417,0.7696,1.2503,43.400,-35.525,-135.940,0.00,16.0028,27.0568,44.6525,2.3358,2025-06-12T14:09:10.785702
414,-0.5973,0.7715,1.3405,55.370,-22.260,-122.080,0.01,19.4317,32.0711,47.5799,3.3647,2025-06-12T14:09:10.886687
415,-0.6847,0.7593,1.3649,69.055,-19.075,-102.865,0.01,19.4317,27.0568,49.0418,3.3647,2025-06-12T14:09:10.886687
416,-0.7247,0.7696,1.3796,86.765,-18.235,-86.450,0.01,19.4317,27.0568,49.0418,3.3647,2025-06-12T14:09:10.886687
417,-0.7437,0.7891,1.3693,101.605,-16.905,-66.745,0.01,19.4317,27.0568,46.1168,3.3647,2025-06-12T14:09:10.886687
418,-0.7335,0.7715,1.2820,118.755,-18.095,-46.340,0.00,19.4317,27.0568,49.0418,3.3647,2025-06-12T14:09:10.886687
419,-0.7091,0.7452,1.1834,134.470,-20.580,-30.170,0.00,16.0028,27.0568,44.6525,3.3647,2025-06-12T14:09:10.887685
420,-0.6959,0.7208,1.0648,143.465,-25.305,-12.880,0.00,12.5632,27.0568,43.1869,3.3647,2025-06-12T14:09:10.887685
421,-0.6754,0.6939,0.9335,152.250,-31.500,-0.140,0.01,19.4317,27.0568,41.7201,3.3647,2025-06-12T14:09:11.025944
422,-0.6486,0.6642,0.8140,156.625,-36.855,13.160,0.01,16.0028,32.0711,38.7827,3.3647,2025-06-12T14:09:11.025944
423,-0.6237,0.6495,0.6910,158.025,-40.110,22.715,0.01,16.0028,27.0568,38.7827,4.3941,2025-06-12T14:09:11.025944
424,-0.5783,0.6256,0.5929,156.590,-41.230,32.725,0.01,16.0028,32.0711,35.8403,3.3647,2025-06-12T14:09:11.025944
425,-0.5754,0.6027,0.4831,149.835,-41.650,40.145,0.00,19.4317,32.0711,32.8929,4.3941,2025-06-12T14:09:11.025944
426,-0.5563,0.5802,0.3914,140.700,-42.770,48.125,0.00,16.0028,27.0568,34.3672,3.3647,2025-06-12T14:09:11.025944
427,-0.5241,0.5622,0.3055,131.425,-43.085,54.705,0.00,16.0028,27.0568,31.4173,3.3647,2025-06-12T14:09:11.025944
428,-0.4738,0.5578,0.2508,117.880,-43.435,59.185,0.00,22.8498,32.0711,32.8929,3.3647,2025-06-12T14:09:11.025944
429,-0.4324,0.5422,0.1918,104.545,-53.620,63.280,0.01,19.4317,32.0711,28.4624,3.3647,2025-06-12T14:09:11.294216
430,-0.3958,0.5353,0.1347,87.990,-47.845,65.240,0.00,16.0028,32.0711,32.8929,3.3647,2025-06-12T14:09:11.294216
431,-0.3592,0.5353,0.1088,73.535,-51.660,65.415,0.00,16.0028,32.0711,31.4173,3.3647,2025-06-12T14:09:11.294216
432,-0.3177,0.5373,0.0976,56.175,-54.145,63.175,0.01,16.0028,27.0568,31.4173,4.3941,2025-06-12T14:09:11.294216
433,-0.2655,0.5431,0.0805,38.710,-55.720,57.925,0.00,16.0028,27.0568,31.4173,2.3358,2025-06-12T14:09:11.294216
434,-0.2079,0.5475,0.0781,24.220,-52.780,49.560,0.01,16.0028,27.0568,32.8929,3.3647,2025-06-12T14:09:11.294216
435,-0.1591,0.5558,0.0922,6.580,-45.150,40.005,0.00,16.0028,27.0568,32.8929,3.3647,2025-06-12T14:09:11.294216
436,-0.1103,0.5622,0.1200,-8.295,-35.315,26.740,0.00,16.0028,27.0568,31.4173,3.3647,2025-06-12T14:09:11.294216
437,-0.0820,0.5563,0.1484,-24.325,-21.595,14.805,0.01,16.0028,27.0568,34.3672,3.3647,2025-06-12T14:09:11.294216
438,-0.0830,0.5666,0.1986,-36.085,-11.515,0.455,0.00,16.0028,22.0186,32.8929,3.3647,2025-06-12T14:09:11.294216
439,-0.1039,0.5788,0.2562,-47.530,-2.485,-11.865,0.00,16.0028,27.0568,32.8929,3.3647,2025-06-12T14:09:11.294216
440,-0.1542,0.6066,0.3235,-54.495,-8.855,-26.390,0.00,16.0028,32.0711,34.3672,3.3647,2025-06-12T14:09:11.294216
441,-0.1928,0.6144,0.4055,-58.555,-4.060,-37.310,0.00,16.0028,27.0568,38.7827,3.3647,2025-06-12T14:09:11.295290
442,-0.2064,0.6300,0.4690,-57.540,-10.920,-47.845,0.00,12.5632,27.0568,37.3121,3.3647,2025-06-12T14:09:11.295290
443,-0.2128,0.6720,0.5890,-51.975,-15.050,-54.460,0.01,16.0028,27.0568,37.3121,3.3647,2025-06-12T14:09:11.295290
444,-0.1908,0.7437,0.6690,-47.530,-13.895,-60.515,0.00,16.0028,27.0568,38.7827,3.3647,2025-06-12T14:09:11.295290
445,-0.1703,0.8311,0.7437,-38.990,-5.285,-63.035,0.00,16.0028,32.0711,43.1869,4.3941,2025-06-12T14:09:11.400361
446,-0.2274,0.9096,0.8242,-29.855,7.805,-61.635,0.00,16.0028,32.0711,44.6525,3.3647,2025-06-12T14:09:11.400361
447,-0.3133,1.0141,0.8750,-19.145,14.035,-55.405,0.01,16.0028,27.0568,43.1869,3.3647,2025-06-12T14:09:11.400361
448,-0.4836,1.0936,0.8926,-4.200,13.265,-47.215,0.00,19.4317,27.0568,43.1869,3.3647,2025-06-12T14:09:11.400361
449,-0.6173,1.1497,0.8891,8.505,7.350,-33.145,0.01,19.4317,27.0568,44.6525,3.3647,2025-06-12T14:09:11.400361
450,-0.6568,1.1810,0.7510,24.010,-0.735,-17.745,0.01,16.0028,32.0711,43.1869,3.3647,2025-06-12T14:09:11.400361
451,-0.6617,1.2073,0.8501,34.895,-3.325,3.605,0.01,16.0028,27.0568,46.1168,4.3941,2025-06-12T14:09:11.400361
452,-0.6451,1.1907,0.7852,43.925,-1.435,20.545,0.00,16.0028,27.0568,44.6525,3.3647,2025-06-12T14:09:11.400361
453,-0.6212,1.1405,0.7159,48.195,1.540,38.710,0.01,16.0028,27.0568,44.6525,3.3647,2025-06-12T14:09:11.400361
454,-0.5910,1.0804,0.6266,50.015,2.275,52.430,0.00,19.4317,27.0568,44.6525,3.3647,2025-06-12T14:09:11.400361
455,-0.5636,0.9911,0.5607,50.610,-1.995,66.850,0.00,16.0028,27.0568,43.1869,3.3647,2025-06-12T14:09:11.400361
456,-0.5368,0.8935,0.4719,49.210,-10.955,76.020,0.01,19.4317,27.0568,43.1869,3.3647,2025-06-12T14:09:11.400361
457,-0.4592,0.7745,0.3884,47.740,-25.620,83.650,0.01,16.0028,27.0568,43.1869,4.3941,2025-06-12T14:09:11.401432
458,-0.3787,0.6188,0.2645,45.395,-38.605,86.380,0.00,16.0028,27.0568,43.1869,4.3941,2025-06-12T14:09:11.500944
459,-0.2835,0.4953,0.1606,40.250,-48.055,80.640,0.01,19.4317,27.0568,46.1168,3.3647,2025-06-12T14:09:11.500944
460,-0.2113,0.3309,0.0439,32.165,-46.445,61.985,0.00,16.0028,27.0568,43.1869,3.3647,2025-06-12T14:09:11.500944
461,-0.1371,0.1801,-0.0878,18.970,-34.440,37.065,0.01,16.0028,27.0568,44.6525,4.3941,2025-06-12T14:09:11.500944
462,-0.0947,0.0010,-0.1908,4.935,-10.465,-0.105,0.01,19.4317,27.0568,47.5799,3.3647,2025-06-12T14:09:11.500944
463,-0.0834,-0.1113,-0.2664,-14.525,-1.260,-34.370,0.00,16.0028,27.0568,50.5024,3.3647,2025-06-12T14:09:11.500944
464,-0.1440,-0.2381,-0.3196,-30.380,7.665,-77.525,0.00,16.0028,27.0568,51.9617,3.3647,2025-06-12T14:09:11.500944
465,-0.2259,-0.3348,-0.3245,-49.035,4.060,-114.240,0.00,19.4317,32.0711,63.5916,3.3647,2025-06-12T14:09:11.500944
466,-0.3387,-0.4089,-0.2889,-64.330,-13.615,-157.465,0.01,19.4317,32.0711,60.6916,3.3647,2025-06-12T14:09:11.610736
467,-0.3797,-0.4109,-0.2240,-86.135,-36.120,-197.365,0.00,16.0028,27.0568,63.5916,3.3647,2025-06-12T14:09:11.611446
468,-0.3299,-0.3797,-0.1703,-107.660,-61.040,-226.205,0.01,19.4317,32.0711,67.9322,3.3647,2025-06-12T14:09:11.611446
469,-0.3016,-0.3201,-0.1425,-127.015,-76.160,-260.365,0.01,19.4317,32.0711,78.0166,3.3647,2025-06-12T14:09:11.611446
470,-0.2689,-0.2064,-0.0195,-149.765,-77.840,-287.315,0.00,19.4317,27.0568,85.1823,3.3647,2025-06-12T14:09:11.611446
471,-0.2196,-0.0059,0.1854,-167.055,-59.815,-318.255,0.00,16.0028,27.0568,98.0020,4.3941,2025-06-12T14:09:11.611446
472,-0.3304,0.0678,0.5158,-179.935,-41.755,-337.085,0.01,16.0028,27.0568,102.2527,3.3647,2025-06-12T14:09:11.611446
473,-0.7032,0.1322,1.0873,-175.420,-34.230,-352.065,0.01,19.4317,27.0568,109.3124,3.3647,2025-06-12T14:09:11.749550
474,-1.1463,0.5636,1.5909,-156.695,-41.510,-360.220,0.00,19.4317,27.0568,112.1275,4.3941,2025-06-12T14:09:11.749550
475,-1.5577,0.9506,2.1169,-120.365,-49.490,-354.515,0.00,19.4317,27.0568,116.3408,3.3647,2025-06-12T14:09:11.749550
476,-1.9559,1.2488,2.5186,-80.675,-49.455,-325.360,0.00,19.4317,27.0568,114.9376,3.3647,2025-06-12T14:09:11.749550
477,-2.0940,1.6119,3.0861,-49.280,-30.940,-266.665,0.00,22.8498,27.0568,121.9411,3.3647,2025-06-12T14:09:11.749550
478,-2.3297,1.8529,3.3184,-26.320,-13.405,-200.795,0.00,19.4317,27.0568,124.7338,3.3647,2025-06-12T14:09:11.749550
479,-2.7338,2.3590,3.2774,-8.400,-42.560,-124.390,0.00,19.4317,27.0568,130.3041,3.3647,2025-06-12T14:09:11.749550
480,-2.9461,2.8475,3.0241,-3.990,-107.310,-70.000,0.00,19.4317,27.0568,131.6936,4.3941,2025-06-12T14:09:12.015885
481,-2.6655,3.2886,2.6059,-8.400,-210.805,2.380,0.00,19.4317,27.0568,127.5214,3.3647,2025-06-12T14:09:12.015885
482,-2.0247,3.5180,2.0589,-11.655,-278.390,87.920,0.00,19.4317,32.0711,121.9411,4.3941,2025-06-12T14:09:12.015885
483,-1.6031,3.7420,1.5411,-32.410,-312.375,160.545,0.00,22.8498,32.0711,120.5429,3.3647,2025-06-12T14:09:12.015885
484,-1.3249,4.0704,1.0350,-57.260,-303.485,243.845,0.00,22.8498,27.0568,123.3381,3.3647,2025-06-12T14:09:12.015885
485,-1.4572,4.3305,0.3109,-70.350,-292.040,311.115,0.00,22.8498,27.0568,123.3381,3.3647,2025-06-12T14:09:12.015885
486,-2.0047,4.5325,-0.4826,-70.000,-308.455,379.190,0.01,22.8498,27.0568,124.7338,3.3647,2025-06-12T14:09:12.015885
487,-2.2546,4.6253,-1.4494,-44.555,-353.885,434.385,0.01,22.8498,32.0711,126.1282,3.3647,2025-06-12T14:09:12.015885
488,-2.6230,4.4979,-2.0852,-40.110,-402.850,456.820,0.01,22.8498,27.0568,131.6936,2.3358,2025-06-12T14:09:12.016957
489,-2.2794,4.5667,-2.3063,-65.135,-413.910,444.955,0.01,22.8498,32.0711,130.3041,3.3647,2025-06-12T14:09:12.016957
490,-2.0042,4.1529,-1.9808,-146.930,-379.155,347.515,0.00,19.4317,37.0617,130.3041,3.3647,2025-06-12T14:09:12.016957
491,-1.8188,2.6669,-1.5723,-250.110,-337.505,101.010,0.00,26.2573,32.0711,120.5429,3.3647,2025-06-12T14:09:12.016957
492,-2.7801,-0.7906,-0.9692,-350.385,-405.545,-212.660,0.01,33.0399,27.0568,144.1426,3.3647,2025-06-12T14:09:12.016957
493,7.9285,-15.9888,-1.4513,-404.040,-344.680,4.270,0.01,36.4152,37.0617,296.7813,4.3941,2025-06-12T14:09:12.016957
494,-6.0248,-15.9835,4.7585,-461.160,-256.970,-7.630,0.01,16.0028,22.0186,110.7206,3.3647,2025-06-12T14:09:12.016957
495,9.3540,5.9204,-2.9197,433.055,-308.280,-125.265,0.01,33.0399,42.0284,99.4202,3.3647,2025-06-12T14:09:12.016957
496,-2.0315,-1.4079,-1.9686,230.650,-218.085,-382.480,0.01,36.4152,42.0284,93.7400,4.3941,2025-06-12T14:09:12.117288
497,4.5721,1.7417,0.1693,-151.165,266.210,-247.415,0.00,22.8498,22.0186,78.0166,3.3647,2025-06-12T14:09:12.117288
498,-0.2479,0.3299,1.2800,-368.690,397.040,-120.610,0.00,19.4317,32.0711,72.2616,3.3647,2025-06-12T14:09:12.117288
499,-1.6519,-3.2276,1.3181,-184.135,28.770,-167.300,0.00,19.4317,32.0711,70.8197,4.3941,2025-06-12T14:09:12.117288
500,-1.7758,-2.0662,2.0794,55.265,-104.965,-140.595,0.00,22.8498,32.0711,67.9322,3.3647,2025-06-12T14:09:12.117288
501,0.0390,-0.7857,2.2321,198.590,-42.105,-130.165,0.00,22.8498,32.0711,67.9322,3.3647,2025-06-12T14:09:12.893126
502,-0.0361,0.1166,1.8461,102.235,164.430,-56.035,0.00,22.8498,27.0568,67.9322,3.3647,2025-06-12T14:09:12.893126
503,-0.5495,0.0473,1.7021,64.365,216.580,-2.975,0.00,16.0028,27.0568,65.0397,3.3647,2025-06-12T14:09:12.893126
504,-1.1092,0.3304,1.7348,162.085,133.840,16.835,0.00,16.0028,32.0711,59.2398,2.3358,2025-06-12T14:09:12.893126
505,-0.8906,0.3396,1.6114,199.885,53.130,31.360,0.00,19.4317,27.0568,54.8767,3.3647,2025-06-12T14:09:12.893126
506,-0.6515,0.5124,1.3566,223.790,8.820,46.620,0.00,26.2573,27.0568,53.4198,3.3647,2025-06-12T14:09:12.894124
507,-0.1484,0.8091,1.1063,237.055,28.070,50.680,0.00,19.4317,32.0711,56.3323,2.3358,2025-06-12T14:09:12.894124
508,0.3684,1.0106,1.0365,250.215,92.225,55.125,0.00,19.4317,27.0568,46.1168,3.3647,2025-06-12T14:09:12.894124
509,0.4358,1.1141,0.9126,244.965,143.710,65.905,0.00,22.8498,27.0568,51.9617,3.3647,2025-06-12T14:09:12.894124
510,0.0825,1.1014,0.8276,236.145,163.380,81.025,0.01,22.8498,27.0568,50.5024,4.3941,2025-06-12T14:09:12.894124
511,-0.0639,1.0150,0.7442,233.695,138.250,88.340,0.00,22.8498,27.0568,56.3323,4.3941,2025-06-12T14:09:12.894124
512,0.0849,0.9536,0.5934,230.895,97.125,97.650,0.01,22.8498,27.0568,53.4198,4.3941,2025-06-12T14:09:12.895122
513,0.2216,0.8755,0.5207,230.055,71.925,108.325,0.00,22.8498,27.0568,44.6525,3.3647,2025-06-12T14:09:12.895122
514,0.3274,0.8140,0.3987,222.145,59.010,113.015,0.00,22.8498,27.0568,46.1168,3.3647,2025-06-12T14:09:12.895122
515,0.4246,0.7418,0.2616,212.695,60.060,114.975,0.01,22.8498,27.0568,43.1869,3.3647,2025-06-12T14:09:12.895122
516,0.3362,0.6686,0.1547,200.935,66.360,109.165,0.00,19.4317,27.0568,38.7827,3.3647,2025-06-12T14:09:12.895122
517,0.4524,0.6915,0.1108,183.505,79.835,92.855,0.01,22.8498,27.0568,43.1869,3.3647,2025-06-12T14:09:12.895122
518,0.6168,0.6744,0.0717,169.995,94.675,79.310,0.01,19.4317,32.0711,43.1869,3.3647,2025-06-12T14:09:12.895122
519,0.5812,0.6285,-0.0132,150.535,109.305,71.715,0.00,22.8498,27.0568,40.2520,4.3941,2025-06-12T14:09:12.895122
520,0.5578,0.5861,-0.0737,136.780,116.515,64.785,0.00,19.4317,32.0711,38.7827,3.3647,2025-06-12T14:09:12.895122
521,0.4992,0.6080,-0.0693,120.890,121.450,56.735,0.01,19.4317,32.0711,43.1869,4.3941,2025-06-12T14:09:12.896118
522,0.4285,0.6407,-0.0927,106.960,129.255,43.645,0.00,22.8498,32.0711,41.7201,4.3941,2025-06-12T14:09:12.896118
523,0.3489,0.6725,-0.0488,88.480,134.610,30.450,0.00,19.4317,27.0568,41.7201,2.3358,2025-06-12T14:09:12.896118
524,0.3899,0.6671,0.0161,68.775,138.740,16.975,0.00,22.8498,32.0711,47.5799,3.3647,2025-06-12T14:09:12.896118
525,0.4231,0.7208,0.0503,53.970,141.820,10.570,0.00,19.4317,32.0711,47.5799,4.3941,2025-06-12T14:09:12.896118
526,0.3943,0.7432,0.0800,36.225,145.425,5.215,0.00,22.8498,27.0568,46.1168,3.3647,2025-06-12T14:09:12.896118
527,0.3470,0.7896,0.1518,23.660,147.140,-4.865,0.01,16.0028,27.0568,46.1168,3.3647,2025-06-12T14:09:12.896118
528,0.2552,0.8579,0.2172,8.295,150.220,-18.760,0.00,22.8498,27.0568,43.1869,3.3647,2025-06-12T14:09:12.896118
529,0.2264,0.9213,0.2879,-3.465,151.340,-34.545,0.00,19.4317,27.0568,47.5799,3.3647,2025-06-12T14:09:12.896118
530,0.2499,0.9301,0.3475,-12.740,147.770,-44.100,0.00,19.4317,32.0711,46.1168,3.3647,2025-06-12T14:09:12.896118
531,0.1815,0.9643,0.4094,-19.740,143.990,-56.280,0.00,19.4317,27.0568,43.1869,3.3647,2025-06-12T14:09:12.897115
532,0.1825,1.0682,0.4802,-24.815,144.165,-66.080,0.01,19.4317,27.0568,47.5799,4.3941,2025-06-12T14:09:12.897115
533,0.1786,1.1527,0.5461,-32.340,150.710,-70.525,0.01,19.4317,27.0568,49.0418,3.3647,2025-06-12T14:09:12.897115
534,0.1523,1.1653,0.6012,-39.060,160.020,-70.035,0.00,19.4317,32.0711,47.5799,4.3941,2025-06-12T14:09:12.897115
535,0.0547,1.1439,0.6915,-45.220,163.870,-64.435,0.00,22.8498,32.0711,47.5799,3.3647,2025-06-12T14:09:12.897115
536,-0.0517,1.1136,0.7540,-47.915,160.510,-52.080,0.00,22.8498,27.0568,46.1168,3.3647,2025-06-12T14:09:12.897115
537,-0.1630,1.1434,0.7915,-48.475,150.885,-39.480,0.00,22.8498,27.0568,46.1168,3.3647,2025-06-12T14:09:12.897115
538,-0.2801,1.1683,0.8047,-48.545,136.080,-24.395,0.01,19.4317,32.0711,46.1168,3.3647,2025-06-12T14:09:12.897115
539,-0.3938,1.2298,0.8140,-48.475,125.160,-10.955,0.00,19.4317,32.0711,46.1168,4.3941,2025-06-12T14:09:12.897115
540,-0.4207,1.2298,0.8203,-46.375,115.885,1.575,0.01,19.4317,27.0568,46.1168,3.3647,2025-06-12T14:09:12.897115
541,-0.4304,1.2195,0.8213,-45.430,113.575,16.905,0.01,19.4317,27.0568,46.1168,4.3941,2025-06-12T14:09:12.897115
542,-0.4041,1.2063,0.8076,-43.050,117.110,30.940,0.00,19.4317,27.0568,46.1168,3.3647,2025-06-12T14:09:12.898112
543,-0.5100,1.1839,0.7188,-53.760,122.220,48.440,0.01,22.8498,32.0711,44.6525,3.3647,2025-06-12T14:09:12.898112
544,-0.5563,1.1234,0.6964,-42.945,120.540,70.385,0.00,22.8498,27.0568,44.6525,3.3647,2025-06-12T14:09:12.898112
545,-0.6398,1.0780,0.6544,-40.040,109.795,76.370,0.00,22.8498,27.0568,43.1869,4.3941,2025-06-12T14:09:12.898112
546,-0.6759,1.0390,0.6290,-36.750,98.210,88.340,0.00,19.4317,27.0568,44.6525,3.3647,2025-06-12T14:09:12.898112
547,-0.6690,1.0033,0.6393,-32.935,84.665,95.620,0.01,22.8498,27.0568,44.6525,3.3647,2025-06-12T14:09:12.898112
548,-0.6310,0.9614,0.6271,-29.400,76.055,101.150,0.01,19.4317,27.0568,44.6525,3.3647,2025-06-12T14:09:12.898112
549,-0.5939,0.8994,0.5885,-24.395,71.645,104.125,0.00,19.4317,27.0568,46.1168,3.3647,2025-06-12T14:09:12.898112
550,-0.5836,0.8550,0.5797,-18.830,67.795,106.680,0.01,19.4317,27.0568,46.1168,3.3647,2025-06-12T14:09:12.898112
551,-0.5705,0.8233,0.5841,-13.965,65.135,106.050,0.00,22.8498,27.0568,47.5799,3.3647,2025-06-12T14:09:12.898112
552,-0.5578,0.7735,0.5539,-8.505,61.635,104.195,0.00,19.4317,32.0711,46.1168,3.3647,2025-06-12T14:09:12.899110
553,-0.5363,0.7222,0.5578,-2.905,57.400,101.395,0.01,19.4317,32.0711,46.1168,3.3647,2025-06-12T14:09:12.899110
554,-0.4885,0.6910,0.5505,2.870,55.335,98.385,0.00,22.8498,32.0711,47.5799,3.3647,2025-06-12T14:09:12.899110
555,-0.4577,0.6554,0.5417,7.840,51.905,95.095,0.00,19.4317,27.0568,46.1168,3.3647,2025-06-12T14:09:12.899110
556,-0.4387,0.6183,0.5139,13.790,47.705,91.245,0.01,19.4317,27.0568,47.5799,3.3647,2025-06-12T14:09:12.899110
557,-0.3992,0.6027,0.4973,18.515,42.560,86.975,0.01,22.8498,32.0711,47.5799,3.3647,2025-06-12T14:09:12.899110
558,-0.3382,0.5856,0.4704,21.560,40.145,81.025,0.00,19.4317,27.0568,46.1168,4.3941,2025-06-12T14:09:12.899110
559,-0.3079,0.5695,0.4270,23.520,38.780,75.740,0.01,22.8498,32.0711,44.6525,4.3941,2025-06-12T14:09:12.899110
560,-0.2869,0.5666,0.4080,24.570,36.715,68.915,0.00,22.8498,27.0568,44.6525,3.3647,2025-06-12T14:09:12.900108
561,-0.2733,0.5768,0.3953,24.535,34.930,61.915,0.00,22.8498,32.0711,43.1869,3.3647,2025-06-12T14:09:12.933769
562,-0.2713,0.5773,0.3714,22.645,31.850,52.780,0.00,19.4317,27.0568,44.6525,3.3647,2025-06-12T14:09:12.933769
563,-0.2621,0.5778,0.3538,20.265,28.770,42.560,0.01,22.8498,27.0568,44.6525,4.3941,2025-06-12T14:09:12.933769
564,-0.2582,0.5895,0.3665,15.645,27.475,33.320,0.00,19.4317,27.0568,44.6525,4.3941,2025-06-12T14:09:12.933769
565,-0.2518,0.6154,0.3772,10.675,28.210,20.895,0.01,22.8498,27.0568,44.6525,3.3647,2025-06-12T14:09:12.934770
566,-0.2303,0.6242,0.3753,3.955,29.855,10.325,0.00,22.8498,32.0711,44.6525,3.3647,2025-06-12T14:09:12.934770
567,-0.2059,0.6359,0.3992,-3.255,33.180,-1.120,0.00,22.8498,27.0568,43.1869,3.3647,2025-06-12T14:09:12.934770
568,-0.1937,0.6632,0.4348,-9.905,35.770,-11.760,0.01,22.8498,32.0711,43.1869,3.3647,2025-06-12T14:09:12.934770
569,-0.1688,0.6949,0.4568,-17.885,39.130,-19.460,0.00,19.4317,27.0568,43.1869,3.3647,2025-06-12T14:09:13.038541
570,-0.1581,0.7403,0.4846,-24.780,41.650,-27.370,0.01,22.8498,27.0568,46.1168,3.3647,2025-06-12T14:09:13.039296
571,-0.1635,0.7740,0.5339,-32.060,42.630,-32.445,0.01,19.4317,32.0711,46.1168,4.3941,2025-06-12T14:09:13.039296
572,-0.1923,0.8076,0.5597,-36.855,41.160,-37.835,0.00,22.8498,32.0711,47.5799,4.3941,2025-06-12T14:09:13.039296
573,-0.2045,0.8311,0.5900,-41.965,38.115,-40.915,0.01,22.8498,32.0711,46.1168,3.3647,2025-06-12T14:09:13.039646
574,-0.2181,0.8359,0.6085,-42.980,32.305,-40.145,0.00,22.8498,27.0568,46.1168,3.3647,2025-06-12T14:09:13.039646
575,-0.2591,0.8589,0.6529,-42.350,24.605,-38.360,0.01,22.8498,32.0711,47.5799,4.3941,2025-06-12T14:09:13.039646
576,-0.3148,0.8691,0.6808,-39.900,12.460,-34.510,0.00,19.4317,32.0711,49.0418,3.3647,2025-06-12T14:09:13.139986
577,-0.3196,0.8852,0.7135,-34.685,2.275,-29.435,0.00,19.4317,27.0568,49.0418,3.3647,2025-06-12T14:09:13.139986
578,-0.3030,0.8872,0.7193,-28.735,-7.245,-24.360,0.00,22.8498,27.0568,51.9617,4.3941,2025-06-12T14:09:13.139986
579,-0.2977,0.8965,0.7174,-21.770,-10.115,-18.760,0.00,19.4317,32.0711,49.0418,4.3941,2025-06-12T14:09:13.139986
580,-0.3089,0.9023,0.7086,-15.400,-8.190,-13.685,0.00,22.8498,32.0711,47.5799,3.3647,2025-06-12T14:09:13.139986
581,-0.3201,0.8965,0.6934,-9.555,-3.955,-8.435,0.00,19.4317,32.0711,44.6525,3.3647,2025-06-12T14:09:13.139986
582,-0.3431,0.8755,0.6808,-2.520,-1.925,-3.360,0.00,22.8498,27.0568,44.6525,3.3647,2025-06-12T14:09:13.139986
583,-0.3841,0.8647,0.6749,3.325,-2.450,2.135,0.00,22.8498,27.0568,47.5799,3.3647,2025-06-12T14:09:13.139986
584,-0.3963,0.8506,0.6271,8.645,-4.340,6.090,0.00,26.2573,32.0711,47.5799,3.3647,2025-06-12T14:09:13.202686
585,-0.3889,0.8223,0.5924,11.900,-6.965,9.555,0.00,26.2573,32.0711,50.5024,3.3647,2025-06-12T14:09:13.203504
586,-0.3723,0.8081,0.5739,14.280,-8.085,11.340,0.01,22.8498,32.0711,47.5799,4.3941,2025-06-12T14:09:13.203504
587,-0.3572,0.7886,0.5363,14.875,-8.400,12.530,0.00,22.8498,27.0568,49.0418,4.3941,2025-06-12T14:09:13.203504
588,-0.3426,0.7701,0.5022,13.965,-8.400,12.915,0.01,26.2573,32.0711,44.6525,3.3647,2025-06-12T14:09:13.365164
589,-0.3089,0.7623,0.4948,11.865,-7.035,12.845,0.01,22.8498,27.0568,44.6525,4.3941,2025-06-12T14:09:13.366157
590,-0.3006,0.7515,0.4714,9.100,-5.985,12.075,0.00,22.8498,27.0568,41.7201,3.3647,2025-06-12T14:09:13.366157
591,-0.2977,0.7379,0.4392,5.705,-6.020,11.130,0.00,19.4317,27.0568,43.1869,3.3647,2025-06-12T14:09:13.366157
592,-0.2865,0.7281,0.4338,2.940,-6.510,9.415,0.01,19.4317,32.0711,40.2520,3.3647,2025-06-12T14:09:13.366157
593,-0.2757,0.7252,0.4324,-0.770,-5.950,7.525,0.00,19.4317,27.0568,40.2520,4.3941,2025-06-12T14:09:13.366157
594,-0.2860,0.7252,0.4343,-4.200,-4.620,4.025,0.00,19.4317,27.0568,40.2520,3.3647,2025-06-12T14:09:13.366157
595,-0.2943,0.7276,0.4377,-8.015,-3.360,0.840,0.00,19.4317,27.0568,41.7201,4.3941,2025-06-12T14:09:13.366157
596,-0.3065,0.7227,0.4553,-10.500,-1.995,-3.255,0.01,19.4317,32.0711,43.1869,3.3647,2025-06-12T14:09:13.366157
597,-0.3245,0.7218,0.4621,-12.915,-0.770,-6.440,0.00,19.4317,32.0711,40.2520,2.3358,2025-06-12T14:09:13.366157
598,-0.3577,0.7310,0.4797,-13.895,-0.210,-9.100,0.00,19.4317,32.0711,40.2520,4.3941,2025-06-12T14:09:13.366157
599,-0.3699,0.7393,0.5266,-13.475,-0.385,-10.640,0.01,22.8498,32.0711,38.7827,3.3647,2025-06-12T14:09:13.366157
600,-0.3728,0.7462,0.5353,-12.145,-0.280,-11.235,0.01,22.8498,32.0711,38.7827,4.3941,2025-06-12T14:09:13.458302
601,-0.3694,0.7574,0.5475,-10.290,0.315,-10.675,0.00,19.4317,32.0711,38.7827,4.3941,2025-06-12T14:09:13.458302
602,-0.3460,0.7720,0.5739,-7.840,2.030,-9.030,0.00,22.8498,32.0711,41.7201,3.3647,2025-06-12T14:09:13.458302
603,-0.3265,0.8008,0.6022,-5.740,5.005,-7.560,0.00,19.4317,27.0568,43.1869,4.3941,2025-06-12T14:09:13.458302
604,-0.3123,0.8247,0.6100,-4.130,10.010,-5.950,0.01,22.8498,27.0568,41.7201,3.3647,2025-06-12T14:09:13.549766
605,-0.3167,0.8408,0.6154,-2.240,12.355,-4.375,0.01,22.8498,27.0568,40.2520,4.3941,2025-06-12T14:09:13.549766
606,-0.3270,0.8506,0.6134,0.280,11.515,-1.330,0.00,26.2573,32.0711,41.7201,3.3647,2025-06-12T14:09:13.549766
607,-0.3362,0.8599,0.6173,1.680,8.540,1.995,0.00,22.8498,27.0568,41.7201,4.3941,2025-06-12T14:09:13.549766
608,-0.3514,0.8662,0.6266,3.080,3.255,4.270,0.00,19.4317,27.0568,41.7201,3.3647,2025-06-12T14:09:13.549766
609,-0.3431,0.8545,0.6227,3.605,-1.225,7.105,0.00,19.4317,27.0568,41.7201,3.3647,2025-06-12T14:09:13.549766
610,-0.3328,0.8330,0.5978,3.710,-5.600,9.415,0.00,22.8498,27.0568,40.2520,3.3647,2025-06-12T14:09:13.549766
611,-0.3196,0.8120,0.5788,3.325,-7.490,11.200,0.00,19.4317,32.0711,41.7201,3.3647,2025-06-12T14:09:13.550794
612,-0.3143,0.8013,0.5856,2.660,-7.840,12.425,0.01,19.4317,27.0568,40.2520,3.3647,2025-06-12T14:09:13.550794
613,-0.3074,0.7925,0.5812,1.995,-7.455,12.530,0.00,19.4317,32.0711,40.2520,3.3647,2025-06-12T14:09:13.550794
614,-0.3333,0.7749,0.5627,0.665,-7.595,11.830,0.00,22.8498,32.0711,38.7827,3.3647,2025-06-12T14:09:13.652259
615,-0.3226,0.7535,0.5431,-0.315,-8.680,10.990,0.00,22.8498,32.0711,40.2520,3.3647,2025-06-12T14:09:13.652259
616,-0.3216,0.7432,0.5505,-0.910,-9.135,10.045,0.01,19.4317,32.0711,37.3121,3.3647,2025-06-12T14:09:13.652259
617,-0.3240,0.7266,0.5339,-1.750,-9.170,8.470,0.00,22.8498,32.0711,40.2520,4.3941,2025-06-12T14:09:13.652259
618,-0.3182,0.7135,0.5178,-2.485,-9.625,6.860,0.01,19.4317,32.0711,41.7201,3.3647,2025-06-12T14:09:13.652259
619,-0.2957,0.7056,0.5124,-3.115,-0.315,5.005,0.00,19.4317,32.0711,40.2520,4.3941,2025-06-12T14:09:13.652259
620,-0.2972,0.7174,0.5212,-3.850,-7.035,2.730,0.00,22.8498,32.0711,41.7201,3.3647,2025-06-12T14:09:13.652259
621,-0.3011,0.7096,0.5124,-4.900,-4.130,-0.840,0.01,19.4317,32.0711,40.2520,3.3647,2025-06-12T14:09:13.756643
622,-0.2952,0.7076,0.5085,-5.705,-2.275,-3.045,0.00,19.4317,27.0568,40.2520,3.3647,2025-06-12T14:09:13.756643
623,-0.2928,0.7105,0.5314,-5.495,-0.665,-4.865,0.01,22.8498,27.0568,40.2520,4.3941,2025-06-12T14:09:13.756643
624,-0.2991,0.7222,0.5368,-5.950,1.085,-6.825,0.00,22.8498,27.0568,41.7201,3.3647,2025-06-12T14:09:13.756643
625,-0.3104,0.7335,0.5231,-6.265,1.645,-9.310,0.00,19.4317,27.0568,41.7201,3.3647,2025-06-12T14:09:13.756643
626,-0.3060,0.7447,0.5202,-6.825,1.540,-10.885,0.00,22.8498,32.0711,41.7201,3.3647,2025-06-12T14:09:13.757644
627,-0.3235,0.7530,0.5344,-6.580,-0.175,-11.935,0.00,22.8498,32.0711,41.7201,3.3647,2025-06-12T14:09:13.757644
628,-0.3148,0.7788,0.6007,-5.355,-1.435,-12.915,0.01,26.2573,27.0568,43.1869,3.3647,2025-06-12T14:09:13.822068
629,-0.3182,0.7847,0.5783,-5.005,-2.660,-13.160,0.00,22.8498,32.0711,41.7201,3.3647,2025-06-12T14:09:13.822068
630,-0.3143,0.7818,0.5671,-3.465,-4.655,-11.795,0.01,26.2573,27.0568,43.1869,3.3647,2025-06-12T14:09:13.822068
631,-0.3045,0.7984,0.6129,-1.680,-5.110,-10.430,0.00,26.2573,32.0711,41.7201,3.3647,2025-06-12T14:09:13.822068
632,-0.3177,0.8013,0.6100,-0.770,-5.075,-9.345,0.01,22.8498,27.0568,43.1869,4.3941,2025-06-12T14:09:13.822068
633,-0.3240,0.7935,0.5944,0.385,-5.880,-8.120,0.00,22.8498,32.0711,43.1869,4.3941,2025-06-12T14:09:13.911167
634,-0.3162,0.7876,0.5978,1.645,-7.315,-5.950,0.01,26.2573,27.0568,41.7201,3.3647,2025-06-12T14:09:13.911167
635,-0.3274,0.7896,0.5949,2.765,-8.400,-4.550,0.01,26.2573,32.0711,43.1869,3.3647,2025-06-12T14:09:13.911167
636,-0.3235,0.7862,0.5924,3.010,-9.100,-4.060,0.00,22.8498,27.0568,46.1168,3.3647,2025-06-12T14:09:13.911974
637,-0.3094,0.7842,0.5915,2.765,-8.960,-4.095,0.00,22.8498,32.0711,43.1869,4.3941,2025-06-12T14:09:14.088098
638,-0.3050,0.7696,0.5895,2.135,-7.980,-4.270,0.00,26.2573,32.0711,44.6525,3.3647,2025-06-12T14:09:14.088098
639,-0.3494,0.7608,0.5597,1.575,-11.235,-4.585,0.00,26.2573,27.0568,43.1869,3.3647,2025-06-12T14:09:14.088098
640,-0.3299,0.7432,0.5500,1.435,-12.915,-5.285,0.01,26.2573,32.0711,41.7201,4.3941,2025-06-12T14:09:14.088098
641,-0.3094,0.7422,0.5656,0.630,-12.250,-5.705,0.00,26.2573,27.0568,41.7201,3.3647,2025-06-12T14:09:14.088098
642,-0.3099,0.7364,0.5539,-0.665,-11.165,-7.105,0.00,26.2573,27.0568,40.2520,4.3941,2025-06-12T14:09:14.088098
643,-0.3113,0.7335,0.5510,-1.470,-10.220,-8.540,0.00,22.8498,27.0568,40.2520,3.3647,2025-06-12T14:09:14.088098
644,-0.3113,0.7266,0.5519,-2.030,-9.695,-9.940,0.00,19.4317,27.0568,41.7201,3.3647,2025-06-12T14:09:14.088098
645,-0.3235,0.7242,0.5632,-2.170,-9.555,-10.990,0.01,19.4317,27.0568,40.2520,3.3647,2025-06-12T14:09:14.088098
646,-0.3187,0.7227,0.5597,-2.065,-9.520,-12.250,0.00,22.8498,27.0568,40.2520,3.3647,2025-06-12T14:09:14.088098
647,-0.3162,0.7232,0.5592,-1.470,-9.415,-13.160,0.01,22.8498,32.0711,43.1869,3.3647,2025-06-12T14:09:14.088098
648,-0.3089,0.7315,0.5724,-1.120,-8.435,-14.315,0.00,22.8498,27.0568,44.6525,3.3647,2025-06-12T14:09:14.088098
649,-0.3099,0.7442,0.5797,-0.805,-7.455,-15.610,0.01,19.4317,32.0711,43.1869,2.3358,2025-06-12T14:09:14.088098
650,-0.3148,0.7505,0.5856,-0.595,-6.650,-16.975,0.01,22.8498,32.0711,43.1869,3.3647,2025-06-12T14:09:14.088098
651,-0.3235,0.7496,0.5841,-0.700,-6.650,-17.850,0.01,26.2573,32.0711,41.7201,4.3941,2025-06-12T14:09:14.284423
652,-0.3377,0.7452,0.5880,-0.105,-8.190,-18.025,0.01,22.8498,32.0711,41.7201,3.3647,2025-06-12T14:09:14.284423
653,-0.3401,0.7422,0.5998,0.455,-10.220,-17.675,0.00,19.4317,32.0711,43.1869,3.3647,2025-06-12T14:09:14.284423
654,-0.3460,0.7466,0.6115,1.330,-12.495,-17.010,0.00,26.2573,32.0711,43.1869,3.3647,2025-06-12T14:09:14.284423
655,-0.3445,0.7549,0.6173,1.750,-13.895,-16.415,0.01,22.8498,32.0711,41.7201,4.3941,2025-06-12T14:09:14.284423
656,-0.3411,0.7564,0.6183,2.275,-14.315,-16.100,0.01,19.4317,32.0711,43.1869,4.3941,2025-06-12T14:09:14.284423
657,-0.3348,0.7544,0.6144,2.590,-14.035,-15.645,0.01,19.4317,32.0711,43.1869,4.3941,2025-06-12T14:09:14.284423
658,-0.3445,0.7510,0.6168,2.765,-13.685,-15.295,0.00,22.8498,32.0711,43.1869,4.3941,2025-06-12T14:09:14.284423
659,-0.3392,0.7491,0.6139,3.220,-13.790,-14.560,0.01,22.8498,32.0711,43.1869,4.3941,2025-06-12T14:09:14.284423
660,-0.3455,0.7510,0.6017,3.570,-13.895,-14.000,0.01,26.2573,27.0568,44.6525,3.3647,2025-06-12T14:09:14.284423
661,-0.3426,0.7564,0.6017,3.290,-13.475,-13.895,0.00,22.8498,27.0568,44.6525,4.3941,2025-06-12T14:09:14.284423
662,-0.3504,0.7408,0.5861,3.395,-14.245,-13.300,0.00,22.8498,32.0711,44.6525,3.3647,2025-06-12T14:09:14.284423
663,-0.3499,0.7408,0.5910,3.850,-14.770,-12.565,0.00,22.8498,27.0568,44.6525,4.3941,2025-06-12T14:09:14.284423
664,-0.3436,0.7486,0.5983,3.570,-14.245,-12.390,0.00,22.8498,27.0568,43.1869,3.3647,2025-06-12T14:09:14.284423
665,-0.3411,0.7476,0.5778,3.395,-13.895,-12.180,0.01,22.8498,32.0711,44.6525,3.3647,2025-06-12T14:09:14.284423
666,-0.3470,0.7496,0.5793,3.220,-13.510,-12.250,0.00,22.8498,32.0711,43.1869,3.3647,2025-06-12T14:09:14.370639
667,-0.3499,0.7530,0.5802,2.590,-13.160,-12.250,0.00,22.8498,32.0711,43.1869,3.3647,2025-06-12T14:09:14.370639
668,-0.3572,0.7481,0.5739,2.205,-13.755,-12.075,0.01,22.8498,32.0711,43.1869,3.3647,2025-06-12T14:09:14.370639
669,-0.3411,0.7447,0.5612,2.030,-14.140,-11.515,0.00,22.8498,32.0711,44.6525,4.3941,2025-06-12T14:09:14.370639
670,-0.3440,0.7447,0.5675,1.715,-13.300,-10.745,0.00,26.2573,32.0711,41.7201,3.3647,2025-06-12T14:09:14.370639
671,-0.3436,0.7408,0.5734,1.085,-12.215,-10.115,0.00,22.8498,27.0568,41.7201,3.3647,2025-06-12T14:09:14.370639
672,-0.3431,0.7437,0.5705,0.420,-10.010,-9.415,0.01,19.4317,27.0568,41.7201,4.3941,2025-06-12T14:09:14.370639
673,-0.3431,0.7408,0.5646,-0.280,-8.295,-8.330,0.01,19.4317,32.0711,43.1869,4.3941,2025-06-12T14:09:14.470820
674,-0.3592,0.7408,0.5754,-0.700,-7.175,-7.700,0.01,19.4317,27.0568,41.7201,4.3941,2025-06-12T14:09:14.470820
675,-0.3753,0.7452,0.5797,-1.260,-7.630,-7.210,0.01,22.8498,32.0711,43.1869,3.3647,2025-06-12T14:09:14.470820
676,-0.3772,0.7442,0.5841,-1.470,-8.820,-6.755,0.00,19.4317,32.0711,41.7201,3.3647,2025-06-12T14:09:14.470820
677,-0.3709,0.7369,0.5793,-1.575,-9.800,-5.775,0.00,22.8498,32.0711,43.1869,3.3647,2025-06-12T14:09:14.470820
678,-0.3665,0.7340,0.5822,-1.890,-9.870,-5.110,0.01,22.8498,27.0568,44.6525,3.3647,2025-06-12T14:09:14.470820
679,-0.3606,0.7354,0.5919,-1.995,-8.785,-4.375,0.00,19.4317,27.0568,44.6525,3.3647,2025-06-12T14:09:14.470820
680,-0.3645,0.7310,0.5876,-2.450,-7.875,-4.165,0.00,22.8498,27.0568,44.6525,3.3647,2025-06-12T14:09:14.572996
681,-0.3543,0.7247,0.5856,-2.485,-6.720,-3.815,0.01,22.8498,27.0568,44.6525,4.3941,2025-06-12T14:09:14.573469
682,-0.3450,0.7247,0.5851,-2.555,-5.285,-3.220,0.01,22.8498,27.0568,44.6525,3.3647,2025-06-12T14:09:14.573469
683,-0.3445,0.7218,0.5856,-2.660,-4.340,-2.975,0.00,22.8498,27.0568,44.6525,4.3941,2025-06-12T14:09:14.573469
684,-0.3470,0.7261,0.5944,-2.625,-3.500,-2.730,0.00,22.8498,32.0711,46.1168,4.3941,2025-06-12T14:09:14.573469
685,-0.3494,0.7296,0.5919,-2.555,-3.430,-2.625,0.00,22.8498,32.0711,44.6525,3.3647,2025-06-12T14:09:14.573469
686,-0.3538,0.7305,0.5910,-2.310,-4.060,-2.415,0.01,26.2573,32.0711,44.6525,3.3647,2025-06-12T14:09:14.573469
687,-0.3528,0.7374,0.5895,-1.715,-4.690,-2.065,0.01,22.8498,32.0711,44.6525,4.3941,2025-06-12T14:09:14.573469
688,-0.3548,0.7437,0.5978,-1.470,-4.445,-1.925,0.01,22.8498,27.0568,43.1869,3.3647,2025-06-12T14:09:14.631643
689,-0.3533,0.7491,0.6002,-1.645,-3.570,-2.135,0.01,22.8498,32.0711,43.1869,4.3941,2025-06-12T14:09:14.631643
690,-0.3567,0.7452,0.5973,-2.240,-2.415,-2.065,0.00,22.8498,27.0568,44.6525,3.3647,2025-06-12T14:09:14.631643
691,-0.3616,0.7432,0.5963,-2.240,-1.925,-1.120,0.00,26.2573,32.0711,46.1168,3.3647,2025-06-12T14:09:14.631643
692,-0.3738,0.7422,0.6022,-2.695,-1.540,-0.315,0.01,22.8498,32.0711,46.1168,3.3647,2025-06-12T14:09:14.892849
693,-0.3811,0.7437,0.6071,-2.870,-1.750,0.595,0.01,22.8498,27.0568,46.1168,3.3647,2025-06-12T14:09:14.892849
694,-0.3831,0.7408,0.5978,-3.395,-2.555,1.785,0.01,22.8498,27.0568,46.1168,3.3647,2025-06-12T14:09:14.892849
695,-0.3816,0.7374,0.6032,-3.535,-2.660,3.325,0.00,26.2573,32.0711,44.6525,4.3941,2025-06-12T14:09:14.892849
696,-0.4065,0.7525,0.5915,-3.920,-2.100,4.515,0.01,19.4317,27.0568,46.1168,4.3941,2025-06-12T14:09:14.893851
697,-0.3811,0.7379,0.5900,-4.375,-0.910,6.475,0.00,22.8498,27.0568,44.6525,4.3941,2025-06-12T14:09:14.893851
698,-0.3777,0.7261,0.5880,-5.180,-0.875,7.910,0.00,22.8498,27.0568,46.1168,3.3647,2025-06-12T14:09:14.893851
699,-0.3797,0.7252,0.5988,-5.670,-0.980,8.820,0.00,22.8498,27.0568,44.6525,3.3647,2025-06-12T14:09:14.893851
700,-0.3797,0.7237,0.5939,-6.160,-0.630,9.380,0.01,22.8498,27.0568,44.6525,3.3647,2025-06-12T14:09:14.893851
701,-0.3704,0.7149,0.5807,-6.895,-0.035,9.905,0.00,22.8498,27.0568,44.6525,3.3647,2025-06-12T14:09:14.893851
702,-0.3562,0.7130,0.5641,-7.980,1.400,10.465,0.00,19.4317,27.0568,46.1168,4.3941,2025-06-12T14:09:14.893851
703,-0.3509,0.7174,0.5622,-8.750,3.220,11.060,0.00,22.8498,27.0568,46.1168,3.3647,2025-06-12T14:09:14.893851
704,-0.3523,0.7164,0.5627,-10.255,5.460,11.410,0.00,26.2573,32.0711,43.1869,4.3941,2025-06-12T14:09:14.894843
705,-0.3543,0.7183,0.5480,-11.725,6.895,11.655,0.01,22.8498,27.0568,41.7201,3.3647,2025-06-12T14:09:14.986400
706,-0.3655,0.7174,0.5412,-13.440,7.840,11.970,0.01,26.2573,32.0711,40.2520,3.3647,2025-06-12T14:09:14.986400
707,-0.3723,0.7232,0.5553,-15.155,8.120,11.725,0.01,22.8498,32.0711,43.1869,3.3647,2025-06-12T14:09:14.986400
708,-0.3772,0.7193,0.5612,-16.800,7.875,11.725,0.00,19.4317,32.0711,44.6525,4.3941,2025-06-12T14:09:14.986400
709,-0.3875,0.7120,0.5612,-18.235,7.490,12.040,0.00,22.8498,27.0568,44.6525,3.3647,2025-06-12T14:09:14.986400
710,-0.3499,0.6598,0.5680,-19.565,6.440,11.935,0.00,22.8498,27.0568,43.1869,3.3647,2025-06-12T14:09:14.986400
711,-0.2103,0.6900,0.6398,-16.765,19.425,8.400,0.00,22.8498,27.0568,41.7201,3.3647,2025-06-12T14:09:14.986400
712,-0.3704,0.7003,0.6700,-15.295,24.115,9.310,0.01,22.8498,27.0568,40.2520,3.3647,2025-06-12T14:09:14.986400
713,-0.4275,0.6656,0.6378,-12.635,24.325,7.315,0.01,22.8498,32.0711,43.1869,3.3647,2025-06-12T14:09:14.986400
714,-0.4309,0.6603,0.6690,-10.500,17.710,7.875,0.00,19.4317,27.0568,43.1869,4.3941,2025-06-12T14:09:14.987458
715,-0.4494,0.6651,0.6759,-6.510,11.795,8.505,0.00,22.8498,32.0711,40.2520,2.3358,2025-06-12T14:09:14.987458
716,-0.4114,0.6568,0.6642,-3.885,6.335,9.380,0.00,19.4317,27.0568,38.7827,3.3647,2025-06-12T14:09:14.987458
717,-0.4177,0.6529,0.6446,-2.135,2.625,10.500,0.00,26.2573,32.0711,43.1869,3.3647,2025-06-12T14:09:14.987458
718,-0.4309,0.6051,0.6412,-0.840,1.995,13.125,0.00,22.8498,27.0568,41.7201,3.3647,2025-06-12T14:09:15.084699
719,-0.4724,0.5226,0.7042,5.110,-9.170,12.180,0.01,19.4317,32.0711,40.2520,3.3647,2025-06-12T14:09:15.084699
720,-0.2933,0.6700,0.7174,6.720,-12.320,11.865,0.01,19.4317,27.0568,40.2520,3.3647,2025-06-12T14:09:15.084699
721,-0.3392,0.5080,0.5466,0.910,-5.495,11.270,0.00,22.8498,32.0711,40.2520,3.3647,2025-06-12T14:09:15.084699
722,-0.3152,0.6095,0.5773,-0.070,5.845,13.300,0.01,22.8498,32.0711,38.7827,3.3647,2025-06-12T14:09:15.084699
723,-0.2606,0.6383,0.5988,-3.360,17.010,12.670,0.00,22.8498,32.0711,32.8929,3.3647,2025-06-12T14:09:15.084699
724,-0.3416,0.6529,0.5480,-8.750,29.820,14.945,0.00,22.8498,27.0568,32.8929,3.3647,2025-06-12T14:09:15.084699
725,-0.3899,0.6227,0.5461,-13.020,35.350,16.835,0.00,19.4317,27.0568,32.8929,3.3647,2025-06-12T14:09:15.186323
726,-0.4187,0.6202,0.5656,-16.310,34.335,18.165,0.00,19.4317,32.0711,28.4624,4.3941,2025-06-12T14:09:15.187320
727,-0.3928,0.6027,0.5807,-18.130,33.670,21.070,0.00,19.4317,32.0711,29.9405,3.3647,2025-06-12T14:09:15.187320
728,-0.3518,0.5910,0.5758,-19.460,32.655,23.030,0.00,19.4317,32.0711,31.4173,3.3647,2025-06-12T14:09:15.187320
729,-0.3348,0.6032,0.5851,-20.720,30.100,24.010,0.00,19.4317,32.0711,29.9405,3.3647,2025-06-12T14:09:15.187320
730,-0.3289,0.6568,0.6476,-17.150,29.050,23.940,0.00,19.4317,32.0711,28.4624,3.3647,2025-06-12T14:09:15.187320
731,-0.2591,0.7110,0.6578,-20.125,38.220,21.735,0.00,16.0028,27.0568,25.5025,3.3647,2025-06-12T14:09:15.188314
732,-0.2396,0.7393,0.6202,-20.160,47.915,19.075,0.00,19.4317,27.0568,29.9405,4.3941,2025-06-12T14:09:15.301602
733,-0.3094,0.7720,0.5993,-21.140,55.370,17.605,0.00,19.4317,32.0711,35.8403,4.3941,2025-06-12T14:09:15.301602
734,-0.3152,0.8111,0.5588,-21.420,59.955,14.385,0.01,19.4317,32.0711,28.4624,3.3647,2025-06-12T14:09:15.301602
735,-0.3738,0.8433,0.5051,-22.715,64.225,12.180,0.01,19.4317,27.0568,34.3672,3.3647,2025-06-12T14:09:15.301602
736,-0.4055,0.8325,0.4802,-26.845,69.755,11.095,0.00,19.4317,32.0711,32.8929,3.3647,2025-06-12T14:09:15.301602
737,-0.4363,0.8384,0.4812,-29.190,70.455,10.535,0.00,19.4317,27.0568,31.4173,3.3647,2025-06-12T14:09:15.301602
738,-0.4734,0.8291,0.5222,-30.450,66.430,11.375,0.00,19.4317,32.0711,40.2520,3.3647,2025-06-12T14:09:15.301602
739,-0.5524,0.8316,0.5480,-30.695,60.410,12.355,0.00,19.4317,32.0711,38.7827,3.3647,2025-06-12T14:09:15.301602
740,-0.5685,0.8159,0.5973,-31.850,58.660,11.900,0.01,22.8498,32.0711,41.7201,3.3647,2025-06-12T14:09:15.392066
741,-0.5661,0.8340,0.5793,-32.935,58.485,11.830,0.00,22.8498,32.0711,40.2520,4.3941,2025-06-12T14:09:15.392066
742,-0.6207,0.8096,0.5685,-32.235,55.790,12.075,0.01,22.8498,32.0711,43.1869,4.3941,2025-06-12T14:09:15.392066
743,-0.4992,0.8145,0.5934,-30.975,58.275,16.275,0.01,22.8498,32.0711,41.7201,4.3941,2025-06-12T14:09:15.392066
744,-0.4089,0.7896,0.6446,-25.235,60.690,20.370,0.01,19.4317,27.0568,46.1168,3.3647,2025-06-12T14:09:15.392066
745,-0.5231,0.7749,0.6364,-24.990,56.490,23.975,0.00,19.4317,32.0711,43.1869,3.3647,2025-06-12T14:09:15.392066
746,-0.4182,0.7335,0.6359,-17.290,49.735,29.260,0.00,19.4317,32.0711,50.5024,3.3647,2025-06-12T14:09:15.392066
747,-0.4216,0.7735,0.5988,-11.515,45.010,33.530,0.00,22.8498,32.0711,41.7201,3.3647,2025-06-12T14:09:15.526976
748,-0.4080,0.7598,0.5622,-11.060,43.820,36.505,0.01,19.4317,27.0568,41.7201,4.3941,2025-06-12T14:09:15.526976
749,-0.4099,0.7847,0.5475,-9.485,41.930,38.010,0.01,19.4317,32.0711,46.1168,4.3941,2025-06-12T14:09:15.527807
750,-0.3787,0.7662,0.5480,-7.630,43.225,38.360,0.00,22.8498,32.0711,43.1869,3.3647,2025-06-12T14:09:15.527807
751,-0.3982,0.7452,0.5436,-7.175,44.450,37.835,0.01,19.4317,32.0711,47.5799,3.3647,2025-06-12T14:09:15.527971
752,-0.4504,0.7554,0.5153,-5.775,42.805,36.295,0.01,19.4317,32.0711,46.1168,3.3647,2025-06-12T14:09:15.527971
753,-0.4763,0.7388,0.4973,-3.885,37.310,35.105,0.01,16.0028,32.0711,47.5799,3.3647,2025-06-12T14:09:15.527971
754,-0.5329,0.7125,0.4831,-3.325,26.565,33.180,0.01,19.4317,32.0711,53.4198,3.3647,2025-06-12T14:09:15.527971
755,-0.5192,0.7086,0.5007,-3.430,18.025,31.010,0.01,19.4317,37.0617,60.6916,4.3941,2025-06-12T14:09:15.527971
756,-0.4973,0.7135,0.5036,-3.045,12.040,27.090,0.00,19.4317,32.0711,57.7867,3.3647,2025-06-12T14:09:15.527971
757,-0.4490,0.7105,0.5085,-5.425,14.840,21.560,0.00,22.8498,32.0711,57.7867,4.3941,2025-06-12T14:09:15.574157
758,-0.4685,0.7374,0.5085,-9.380,21.385,17.465,0.00,19.4317,32.0711,62.1422,3.3647,2025-06-12T14:09:15.574157
759,-0.4841,0.7013,0.5109,-11.620,22.750,14.210,0.01,22.8498,32.0711,62.1422,3.3647,2025-06-12T14:09:15.574396
760,-0.5124,0.7096,0.4982,-13.965,21.210,12.565,0.01,22.8498,32.0711,65.0397,3.3647,2025-06-12T14:09:15.622776
761,-0.5114,0.7213,0.4763,-18.340,14.945,10.885,0.00,19.4317,37.0617,60.6916,3.3647,2025-06-12T14:09:15.622776
762,-0.4494,0.7305,0.4997,-18.480,15.190,10.150,0.01,19.4317,32.0711,54.8767,4.3941,2025-06-12T14:09:15.623767
763,-0.4529,0.7310,0.5114,-19.075,15.680,9.415,0.01,22.8498,32.0711,51.9617,3.3647,2025-06-12T14:09:15.623767
764,-0.3987,0.7408,0.5334,-18.865,19.565,7.910,0.01,19.4317,32.0711,51.9617,3.3647,2025-06-12T14:09:15.881409
765,-0.3977,0.7462,0.5241,-17.920,24.535,7.245,0.01,22.8498,37.0617,50.5024,3.3647,2025-06-12T14:09:15.881409
766,-0.4329,0.7364,0.5339,-16.240,34.860,8.540,0.00,19.4317,32.0711,46.1168,3.3647,2025-06-12T14:09:15.882433
767,-0.5017,0.7676,0.5031,-17.990,40.075,10.780,0.00,22.8498,32.0711,43.1869,3.3647,2025-06-12T14:09:15.882433
768,-0.5417,0.7769,0.5095,-19.075,36.155,15.575,0.00,26.2573,32.0711,46.1168,3.3647,2025-06-12T14:09:15.882433
769,-0.5680,0.7910,0.4821,-19.705,29.680,20.300,0.00,22.8498,32.0711,43.1869,3.3647,2025-06-12T14:09:15.882433
770,-0.5241,0.8311,0.4460,-21.245,23.905,22.820,0.00,19.4317,32.0711,41.7201,4.3941,2025-06-12T14:09:15.882433
771,-0.4895,0.8418,0.4480,-22.470,24.465,26.355,0.00,19.4317,32.0711,37.3121,3.3647,2025-06-12T14:09:15.882433
772,-0.3875,0.8423,0.4719,-24.010,26.005,28.385,0.01,19.4317,32.0711,32.8929,3.3647,2025-06-12T14:09:15.882934
773,-0.4075,0.8594,0.4407,-24.255,31.850,28.000,0.00,19.4317,32.0711,35.8403,3.3647,2025-06-12T14:09:15.882934
774,-0.3665,0.8682,0.3714,-30.135,37.205,26.495,0.01,16.0028,27.0568,35.8403,3.3647,2025-06-12T14:09:15.882934
775,-0.3738,0.8472,0.3123,-33.040,42.490,25.515,0.00,19.4317,32.0711,31.4173,3.3647,2025-06-12T14:09:15.882934
776,-0.3777,0.8296,0.3240,-37.835,44.555,26.110,0.00,22.8498,32.0711,34.3672,3.3647,2025-06-12T14:09:15.882934
777,-0.4158,0.8247,0.3265,-41.930,48.335,26.215,0.00,19.4317,32.0711,31.4173,3.3647,2025-06-12T14:09:15.882934
778,-0.4616,0.8032,0.3494,-45.150,46.130,27.405,0.00,22.8498,32.0711,31.4173,4.3941,2025-06-12T14:09:15.882934
779,-0.4485,0.7935,0.3553,-45.885,44.940,28.595,0.00,19.4317,32.0711,24.0207,3.3647,2025-06-12T14:09:15.882934
780,-0.4465,0.7686,0.3665,-45.955,47.775,29.365,0.00,22.8498,32.0711,26.9831,3.3647,2025-06-12T14:09:15.927814
781,-0.4446,0.7598,0.3650,-45.115,56.700,30.205,0.01,19.4317,37.0617,22.5376,3.3647,2025-06-12T14:09:15.927814
782,-0.5163,0.7325,0.3255,-45.290,56.770,31.150,0.01,19.4317,32.0711,22.5376,3.3647,2025-06-12T14:09:15.927814
783,-0.5290,0.7183,0.3206,-45.325,54.635,33.215,0.00,19.4317,32.0711,18.0810,4.3941,2025-06-12T14:09:15.927814
784,-0.5329,0.7203,0.3235,-46.025,52.745,34.895,0.00,19.4317,32.0711,18.0810,3.3647,2025-06-12T14:09:15.927814
785,-0.5207,0.7291,0.3206,-45.850,55.965,35.385,0.00,22.8498,37.0617,18.0810,3.3647,2025-06-12T14:09:15.927814
786,-0.5392,0.7193,0.3299,-45.465,57.960,35.070,0.01,19.4317,32.0711,18.0810,4.3941,2025-06-12T14:09:16.006652
787,-0.5480,0.7120,0.3196,-43.890,58.450,35.700,0.01,19.4317,32.0711,13.6131,4.3941,2025-06-12T14:09:16.006652
788,-0.5919,0.7056,0.3543,-41.650,54.460,34.860,0.00,19.4317,32.0711,18.0810,3.3647,2025-06-12T14:09:16.006652
789,-0.5719,0.6939,0.3611,-39.690,49.140,34.650,0.01,16.0028,32.0711,15.1036,3.3647,2025-06-12T14:09:16.006652
790,-0.5500,0.7042,0.3533,-36.960,47.845,34.440,0.00,19.4317,32.0711,21.0533,3.3647,2025-06-12T14:09:16.006652
791,-0.5353,0.6925,0.3479,-36.540,46.060,33.880,0.00,19.4317,37.0617,19.5678,4.3941,2025-06-12T14:09:16.006652
792,-0.4724,0.6808,0.3558,-35.595,49.035,33.215,0.01,22.8498,32.0711,22.5376,4.3941,2025-06-12T14:09:16.111574
793,-0.5446,0.6949,0.3948,-36.505,49.280,30.590,0.01,19.4317,32.0711,22.5376,3.3647,2025-06-12T14:09:16.111574
794,-0.5168,0.6910,0.4158,-34.545,43.540,28.805,0.00,19.4317,32.0711,24.0207,3.3647,2025-06-12T14:09:16.111574
795,-0.5012,0.6910,0.4285,-34.370,43.645,27.755,0.00,22.8498,37.0617,25.5025,4.3941,2025-06-12T14:09:16.111574
796,-0.5163,0.6891,0.4587,-35.070,43.050,26.740,0.00,19.4317,27.0568,26.9831,3.3647,2025-06-12T14:09:16.112576
797,-0.5500,0.6978,0.4651,-34.265,40.530,25.970,0.00,19.4317,27.0568,29.9405,3.3647,2025-06-12T14:09:16.112576
798,-0.5778,0.6861,0.4939,-35.000,37.065,27.230,0.00,19.4317,32.0711,31.4173,3.3647,2025-06-12T14:09:16.112576
799,-0.5793,0.6910,0.5524,-36.120,31.955,28.525,0.01,22.8498,27.0568,35.8403,4.3941,2025-06-12T14:09:16.157360
800,-0.5588,0.6920,0.5919,-35.525,28.945,30.345,0.01,19.4317,32.0711,34.3672,3.3647,2025-06-12T14:09:16.157360
801,-0.5573,0.7003,0.6037,-35.350,27.790,32.620,0.01,19.4317,32.0711,34.3672,3.3647,2025-06-12T14:09:16.391591
802,-0.5632,0.7086,0.6276,-35.385,24.115,34.020,0.01,16.0028,32.0711,37.3121,3.3647,2025-06-12T14:09:16.391591
803,-0.5592,0.7105,0.6720,-36.820,24.955,35.070,0.01,19.4317,32.0711,37.3121,4.3941,2025-06-12T14:09:16.391591
804,-0.5402,0.7037,0.7227,-37.520,25.970,35.420,0.00,19.4317,32.0711,37.3121,3.3647,2025-06-12T14:09:16.391591
805,-0.5519,0.7061,0.7335,-38.185,26.565,36.610,0.00,19.4317,32.0711,35.8403,4.3941,2025-06-12T14:09:16.392586
806,-0.5841,0.7086,0.7349,-42.525,29.750,36.645,0.00,19.4317,32.0711,41.7201,3.3647,2025-06-12T14:09:16.426970
807,-0.5817,0.6661,0.7857,-43.610,32.410,37.310,0.01,16.0028,32.0711,40.2520,3.3647,2025-06-12T14:09:16.426970
808,-0.6290,0.6344,0.8281,-43.540,29.295,39.165,0.00,19.4317,27.0568,40.2520,3.3647,2025-06-12T14:09:16.426970
809,-0.7047,0.6237,0.8394,-43.925,26.495,42.140,0.01,19.4317,32.0711,43.1869,4.3941,2025-06-12T14:09:16.426970
810,-0.7906,0.6100,0.9106,-44.835,23.205,43.610,0.01,19.4317,32.0711,41.7201,3.3647,2025-06-12T14:09:16.426970
811,-0.8291,0.5783,0.9706,-43.295,19.600,44.800,0.01,19.4317,27.0568,49.0418,4.3941,2025-06-12T14:09:16.426970
812,-0.8076,0.5627,1.0077,-41.685,16.905,45.850,0.01,19.4317,27.0568,49.0418,3.3647,2025-06-12T14:09:16.426970
813,-0.6666,0.5378,0.9955,-38.605,13.230,47.040,0.01,19.4317,32.0711,51.9617,3.3647,2025-06-12T14:09:16.426970
814,-0.6100,0.5275,0.9902,-39.620,10.430,50.155,0.00,19.4317,32.0711,49.0418,4.3941,2025-06-12T14:09:16.426970
815,-0.5934,0.5168,0.9584,-40.705,5.215,49.945,0.00,22.8498,32.0711,53.4198,3.3647,2025-06-12T14:09:16.426970
816,-0.5192,0.5085,0.9443,-43.085,7.280,49.350,0.00,19.4317,32.0711,56.3323,3.3647,2025-06-12T14:09:16.426970
817,-0.5368,0.5041,0.9555,-45.710,9.205,47.355,0.00,19.4317,32.0711,54.8767,4.3941,2025-06-12T14:09:16.426970
818,-0.5002,0.4948,0.9316,-48.440,8.225,45.185,0.00,19.4317,32.0711,53.4198,4.3941,2025-06-12T14:09:16.426970
819,-0.4324,0.4719,0.8428,-50.960,7.700,43.855,0.00,19.4317,32.0711,59.2398,3.3647,2025-06-12T14:09:16.426970
820,-0.3421,0.4499,0.7793,-52.325,7.525,43.400,0.00,22.8498,32.0711,57.7867,4.3941,2025-06-12T14:09:16.426970
821,-0.2684,0.4138,0.7388,-51.940,7.665,45.535,0.00,19.4317,32.0711,62.1422,3.3647,2025-06-12T14:09:16.426970
822,-0.2762,0.4207,0.7252,-52.745,8.435,47.215,0.00,19.4317,32.0711,54.8767,3.3647,2025-06-12T14:09:16.521991
823,-0.2782,0.4065,0.6954,-53.900,10.430,47.565,0.00,19.4317,32.0711,60.6916,4.3941,2025-06-12T14:09:16.521991
824,-0.2469,0.4133,0.6759,-55.300,16.135,47.495,0.00,16.0028,32.0711,62.1422,4.3941,2025-06-12T14:09:16.521991
825,-0.3172,0.3787,0.6305,-54.355,18.270,48.125,0.01,19.4317,32.0711,67.9322,3.3647,2025-06-12T14:09:16.521991
826,-0.2830,0.3694,0.6051,-56.175,17.010,48.405,0.00,19.4317,32.0711,62.1422,3.3647,2025-06-12T14:09:16.521991
827,-0.3201,0.3753,0.5734,-54.320,14.560,49.245,0.00,22.8498,32.0711,59.2398,3.3647,2025-06-12T14:09:16.521991
828,-0.2860,0.3684,0.5612,-51.765,11.865,48.300,0.00,19.4317,32.0711,60.6916,3.3647,2025-06-12T14:09:16.521991
829,-0.1776,0.3738,0.5627,-47.005,16.940,46.935,0.00,19.4317,37.0617,70.8197,4.3941,2025-06-12T14:09:16.634490
830,-0.2845,0.3943,0.5470,-42.210,22.995,46.445,0.00,19.4317,27.0568,66.4866,3.3647,2025-06-12T14:09:16.634490
831,-0.3284,0.4392,0.6934,-43.960,28.105,41.125,0.01,19.4317,27.0568,63.5916,3.3647,2025-06-12T14:09:16.634490
832,-0.3182,0.4582,0.6895,-42.945,33.880,27.440,0.01,19.4317,27.0568,57.7867,3.3647,2025-06-12T14:09:16.634490
833,-0.3309,0.4895,0.7330,-39.060,44.415,30.065,0.00,19.4317,32.0711,50.5024,3.3647,2025-06-12T14:09:16.635184
834,-0.3606,0.5109,0.7418,-34.930,49.525,21.455,0.01,22.8498,27.0568,51.9617,4.3941,2025-06-12T14:09:16.635485
835,-0.3436,0.4778,0.7154,-29.015,48.895,19.215,0.01,19.4317,32.0711,51.9617,3.3647,2025-06-12T14:09:16.635485
836,-0.3806,0.4919,0.7139,-27.265,49.525,15.680,0.00,19.4317,32.0711,51.9617,3.3647,2025-06-12T14:09:16.873631
837,-0.3938,0.6183,0.6695,-29.190,52.885,15.295,0.01,19.4317,32.0711,56.3323,4.3941,2025-06-12T14:09:16.873631
838,-0.4734,0.4890,0.7222,-30.695,57.645,15.995,0.00,19.4317,32.0711,50.5024,4.3941,2025-06-12T14:09:16.873631
839,-0.4670,0.4743,0.7759,-30.695,58.905,17.815,0.01,22.8498,32.0711,54.8767,3.3647,2025-06-12T14:09:16.873631
840,-0.5158,0.4841,0.7998,-28.245,55.930,21.140,0.01,19.4317,32.0711,51.9617,3.3647,2025-06-12T14:09:16.873631
841,-0.4753,0.4919,0.8281,-25.130,52.745,24.745,0.00,19.4317,32.0711,46.1168,3.3647,2025-06-12T14:09:16.873631
842,-0.4211,0.5070,0.7876,-21.105,49.035,29.435,0.00,19.4317,32.0711,43.1869,3.3647,2025-06-12T14:09:16.873631
843,-0.3953,0.5397,0.7642,-20.545,48.440,34.370,0.01,19.4317,37.0617,46.1168,3.3647,2025-06-12T14:09:16.873631
844,-0.3670,0.5368,0.7432,-19.880,47.740,39.095,0.00,19.4317,32.0711,47.5799,3.3647,2025-06-12T14:09:16.873631
845,-0.3772,0.5612,0.7603,-18.970,48.510,43.645,0.00,19.4317,32.0711,49.0418,3.3647,2025-06-12T14:09:16.873631
846,-0.3704,0.5602,0.7754,-17.115,47.565,47.985,0.00,19.4317,32.0711,46.1168,3.3647,2025-06-12T14:09:16.873631
847,-0.4002,0.5744,0.7730,-14.665,46.585,52.745,0.01,16.0028,32.0711,40.2520,3.3647,2025-06-12T14:09:16.873631
848,-0.4119,0.5812,0.7637,-11.795,47.215,56.490,0.00,16.0028,27.0568,41.7201,2.3358,2025-06-12T14:09:16.873631
849,-0.4231,0.5973,0.7447,-11.130,51.240,61.005,0.00,19.4317,27.0568,47.5799,3.3647,2025-06-12T14:09:16.874383
850,-0.4621,0.6017,0.7081,-9.765,53.060,63.805,0.00,19.4317,32.0711,47.5799,4.3941,2025-06-12T14:09:16.874383
851,-0.4914,0.6032,0.6715,-8.400,50.960,65.800,0.00,19.4317,32.0711,46.1168,3.3647,2025-06-12T14:09:17.055269
852,-0.4982,0.6193,0.6559,-8.260,48.090,65.800,0.00,19.4317,32.0711,46.1168,4.3941,2025-06-12T14:09:17.055269
853,-0.5583,0.6364,0.6612,-9.835,46.025,63.630,0.00,22.8498,32.0711,44.6525,4.3941,2025-06-12T14:09:17.055269
854,-0.5378,0.6212,0.6671,-12.075,45.920,57.680,0.00,22.8498,32.0711,43.1869,3.3647,2025-06-12T14:09:17.055269
855,-0.4943,0.5924,0.6554,-12.705,51.310,53.830,0.01,16.0028,32.0711,46.1168,3.3647,2025-06-12T14:09:17.056321
856,-0.4573,0.5993,0.6159,-13.825,61.250,50.680,0.00,19.4317,32.0711,43.1869,3.3647,2025-06-12T14:09:17.056321
857,-0.4948,0.5963,0.5192,-13.755,64.750,46.550,0.00,19.4317,27.0568,41.7201,3.3647,2025-06-12T14:09:17.056321
858,-0.4104,0.6242,0.4880,-15.435,72.345,42.700,0.00,19.4317,27.0568,41.7201,3.3647,2025-06-12T14:09:17.056321
859,-0.3255,0.6461,0.4534,-17.220,81.305,39.900,0.00,19.4317,32.0711,43.1869,3.3647,2025-06-12T14:09:17.056321
860,-0.3919,0.6666,0.4197,-18.585,87.570,37.450,0.00,19.4317,27.0568,44.6525,3.3647,2025-06-12T14:09:17.056321
861,-0.3806,0.6661,0.3928,-21.630,92.260,36.995,0.01,19.4317,27.0568,47.5799,3.3647,2025-06-12T14:09:17.056321
862,-0.4202,0.6734,0.3709,-21.875,96.040,37.555,0.00,19.4317,27.0568,44.6525,3.3647,2025-06-12T14:09:17.056321
863,-0.4446,0.6959,0.3489,-23.870,99.190,39.865,0.00,19.4317,27.0568,49.0418,3.3647,2025-06-12T14:09:17.056321
864,-0.4485,0.6895,0.3274,-27.020,100.450,43.260,0.00,19.4317,32.0711,51.9617,3.3647,2025-06-12T14:09:17.056321
865,-0.5246,0.7359,0.2840,-32.550,98.700,45.570,0.00,19.4317,27.0568,50.5024,3.3647,2025-06-12T14:09:17.056321
866,-0.5573,0.7544,0.2796,-37.345,95.095,47.880,0.00,22.8498,27.0568,49.0418,3.3647,2025-06-12T14:09:17.056321
867,-0.6798,0.7930,0.2928,-43.470,85.155,50.050,0.00,19.4317,27.0568,51.9617,3.3647,2025-06-12T14:09:17.145614
868,-0.8306,0.7925,0.2777,-52.605,72.975,50.820,0.00,16.0028,27.0568,47.5799,4.3941,2025-06-12T14:09:17.145614
869,-0.8169,0.8154,0.2830,-57.645,39.970,52.010,0.00,19.4317,32.0711,47.5799,3.3647,2025-06-12T14:09:17.146611
870,-0.9199,0.8428,0.4851,-49.175,12.950,52.955,0.01,19.4317,27.0568,47.5799,4.3941,2025-06-12T14:09:17.146611
871,-0.8023,0.8867,0.5666,-49.350,-6.790,52.885,0.00,19.4317,27.0568,51.9617,3.3647,2025-06-12T14:09:17.240353
872,-0.5895,0.9111,0.5470,-57.435,-2.240,49.840,0.00,19.4317,32.0711,44.6525,3.3647,2025-06-12T14:09:17.240353
873,-0.2767,0.7569,0.2269,-71.645,12.950,50.785,0.01,22.8498,32.0711,44.6525,3.3647,2025-06-12T14:09:17.240353
874,-0.4548,0.6891,0.4075,-67.305,37.870,51.170,0.01,19.4317,32.0711,47.5799,3.3647,2025-06-12T14:09:17.240353
875,-0.5314,0.6978,0.5295,-66.885,54.320,53.760,0.00,19.4317,27.0568,44.6525,3.3647,2025-06-12T14:09:17.240353
876,-0.5036,0.7232,0.5861,-62.370,72.975,53.865,0.00,19.4317,27.0568,41.7201,3.3647,2025-06-12T14:09:17.240353
877,-0.6256,0.7022,0.5890,-57.890,81.480,55.895,0.00,19.4317,27.0568,47.5799,3.3647,2025-06-12T14:09:17.240353
878,-0.6154,0.7257,0.6085,-51.835,83.755,56.140,0.00,16.0028,27.0568,46.1168,3.3647,2025-06-12T14:09:17.240353
879,-0.6090,0.7159,0.5763,-48.230,81.865,56.910,0.00,16.0028,27.0568,47.5799,3.3647,2025-06-12T14:09:17.240353
880,-0.5968,0.7286,0.5431,-44.485,77.805,57.540,0.01,19.4317,27.0568,47.5799,4.3941,2025-06-12T14:09:17.241350
881,-0.5846,0.7364,0.5090,-41.755,72.975,57.260,0.00,19.4317,32.0711,46.1168,4.3941,2025-06-12T14:09:17.343161
882,-0.5807,0.7325,0.4665,-39.550,68.775,56.140,0.00,19.4317,27.0568,44.6525,3.3647,2025-06-12T14:09:17.343336
883,-0.5485,0.7374,0.4538,-36.610,64.400,54.915,0.00,22.8498,27.0568,44.6525,4.3941,2025-06-12T14:09:17.343336
884,-0.5339,0.7447,0.4441,-34.545,61.670,53.305,0.00,19.4317,32.0711,44.6525,3.3647,2025-06-12T14:09:17.343336
885,-0.5158,0.7491,0.4392,-32.865,59.080,51.765,0.00,19.4317,27.0568,43.1869,3.3647,2025-06-12T14:09:17.343336
886,-0.5051,0.7364,0.4158,-31.430,56.665,49.490,0.00,16.0028,27.0568,46.1168,3.3647,2025-06-12T14:09:17.343336
887,-0.4870,0.7340,0.3963,-29.750,53.060,47.705,0.00,19.4317,32.0711,46.1168,4.3941,2025-06-12T14:09:17.343336
888,-0.4748,0.7486,0.3728,-28.490,50.855,44.380,0.00,19.4317,27.0568,43.1869,5.4240,2025-06-12T14:09:17.440369
889,-0.4670,0.7696,0.3645,-29.645,51.030,40.320,0.01,16.0028,32.0711,43.1869,3.3647,2025-06-12T14:09:17.441341
890,-0.4738,0.7730,0.3465,-29.995,51.765,34.790,0.00,19.4317,27.0568,43.1869,3.3647,2025-06-12T14:09:17.441341
891,-0.4856,0.7637,0.3333,-31.395,51.660,30.170,0.00,19.4317,32.0711,43.1869,4.3941,2025-06-12T14:09:17.441341
892,-0.5046,0.7515,0.3255,-32.655,50.190,25.550,0.01,22.8498,22.0186,41.7201,3.3647,2025-06-12T14:09:17.441341
893,-0.5065,0.7486,0.3348,-32.165,46.865,22.225,0.00,19.4317,32.0711,43.1869,3.3647,2025-06-12T14:09:17.442194
894,-0.5007,0.7520,0.3460,-32.725,43.505,19.110,0.00,19.4317,27.0568,43.1869,3.3647,2025-06-12T14:09:17.442337
895,-0.5090,0.7462,0.3421,-33.740,42.035,15.820,0.00,22.8498,32.0711,41.7201,3.3647,2025-06-12T14:09:17.541845
896,-0.4987,0.7364,0.3538,-35.840,40.390,12.670,0.01,19.4317,27.0568,44.6525,4.3941,2025-06-12T14:09:17.541845
897,-0.4958,0.7257,0.3640,-35.805,38.115,9.310,0.00,19.4317,32.0711,44.6525,4.3941,2025-06-12T14:09:17.541845
898,-0.4895,0.6925,0.3533,-36.330,36.120,7.770,0.00,19.4317,27.0568,43.1869,3.3647,2025-06-12T14:09:17.541845
899,-0.4699,0.6456,0.3504,-35.350,33.565,7.035,0.00,19.4317,32.0711,43.1869,3.3647,2025-06-12T14:09:17.541845
900,-0.4665,0.6354,0.3762,-34.650,31.395,5.460,0.00,19.4317,27.0568,41.7201,3.3647,2025-06-12T14:09:17.542843
901,-0.4451,0.6105,0.4085,-34.125,30.485,2.555,0.00,19.4317,27.0568,43.1869,3.3647,2025-06-12T14:09:17.542843
902,-0.4187,0.5680,0.4416,-34.020,30.170,-2.275,0.01,19.4317,32.0711,40.2520,4.3941,2025-06-12T14:09:17.542843
903,-0.4436,0.5563,0.4880,-35.595,30.450,-8.715,0.01,19.4317,27.0568,41.7201,3.3647,2025-06-12T14:09:17.642112
904,-0.5065,0.4904,0.5348,-38.255,30.765,-20.405,0.00,22.8498,32.0711,35.8403,4.3941,2025-06-12T14:09:17.642112
905,-0.5797,0.4382,0.6159,-39.795,26.810,-29.960,0.01,19.4317,32.0711,37.3121,4.3941,2025-06-12T14:09:17.643115
906,-0.5880,0.3709,0.6812,-38.150,24.395,-34.335,0.01,22.8498,27.0568,35.8403,3.3647,2025-06-12T14:09:17.643115
907,-0.6100,0.3084,0.8247,-34.440,20.720,-34.125,0.01,22.8498,32.0711,41.7201,3.3647,2025-06-12T14:09:17.643115
908,-0.7056,0.2684,0.9443,-31.465,18.235,-32.340,0.01,19.4317,32.0711,40.2520,3.3647,2025-06-12T14:09:17.643115
909,-0.7627,0.2245,1.0136,-25.655,14.175,-29.925,0.00,19.4317,32.0711,35.8403,3.3647,2025-06-12T14:09:17.643115
910,-0.8486,0.1879,1.0287,-17.465,10.255,-25.865,0.01,19.4317,32.0711,40.2520,3.3647,2025-06-12T14:09:17.780838
911,-0.8725,0.1781,1.0687,-10.570,7.805,-23.450,0.01,19.4317,32.0711,38.7827,3.3647,2025-06-12T14:09:17.780838
912,-0.8535,0.1825,1.0912,-1.645,8.365,-21.630,0.00,19.4317,32.0711,44.6525,3.3647,2025-06-12T14:09:17.780838
913,-0.8530,0.2157,1.1175,3.920,12.180,-20.580,0.00,19.4317,27.0568,44.6525,3.3647,2025-06-12T14:09:17.780838
914,-0.8877,0.2381,1.1331,9.205,12.285,-20.545,0.00,19.4317,27.0568,43.1869,4.3941,2025-06-12T14:09:17.781630
915,-0.9228,0.2542,1.1385,13.860,4.865,-20.195,0.00,19.4317,32.0711,41.7201,3.3647,2025-06-12T14:09:17.781630
916,-0.9477,0.2777,1.1444,19.635,-10.360,-19.390,0.00,19.4317,27.0568,40.2520,3.3647,2025-06-12T14:09:17.781630
917,-0.9658,0.3196,1.1488,21.595,-33.495,-19.600,0.01,19.4317,32.0711,41.7201,3.3647,2025-06-12T14:09:17.781630
918,-0.9433,0.3148,1.1307,24.010,-42.420,-20.195,0.01,19.4317,27.0568,41.7201,4.3941,2025-06-12T14:09:17.781630
919,-0.9199,0.3231,1.1297,25.480,-59.430,-18.900,0.00,19.4317,32.0711,41.7201,3.3647,2025-06-12T14:09:17.781630
920,-0.8618,0.3484,1.1009,25.935,-71.085,-16.100,0.00,16.0028,32.0711,44.6525,4.3941,2025-06-12T14:09:17.957976
921,-0.7774,0.3845,1.0887,25.200,-80.360,-10.570,0.01,19.4317,32.0711,43.1869,3.3647,2025-06-12T14:09:17.957976
922,-0.7462,0.4314,1.0756,22.575,-86.415,-5.320,0.01,19.4317,32.0711,40.2520,3.3647,2025-06-12T14:09:17.958905
923,-0.7169,0.4480,1.0111,20.650,-96.740,1.680,0.01,19.4317,32.0711,43.1869,4.3941,2025-06-12T14:09:17.958905
924,-0.6939,0.4685,0.9697,19.600,-106.715,9.555,0.00,19.4317,32.0711,41.7201,3.3647,2025-06-12T14:09:17.958905
925,-0.6612,0.4660,0.9409,21.385,-121.835,15.785,0.00,19.4317,32.0711,41.7201,3.3647,2025-06-12T14:09:17.958905
926,-0.6173,0.4338,0.8891,23.345,-135.030,21.525,0.00,16.0028,32.0711,43.1869,3.3647,2025-06-12T14:09:17.958905
927,-0.5602,0.4094,0.8179,26.740,-145.530,23.905,0.01,19.4317,27.0568,41.7201,3.3647,2025-06-12T14:09:17.959904
928,-0.4490,0.4368,0.7745,27.825,-148.540,25.305,0.00,16.0028,27.0568,40.2520,4.3941,2025-06-12T14:09:17.960328
929,-0.3523,0.4675,0.7164,25.445,-141.470,25.480,0.00,19.4317,32.0711,40.2520,3.3647,2025-06-12T14:09:17.960904
930,-0.3055,0.4748,0.6930,21.840,-127.155,24.640,0.01,16.0028,32.0711,40.2520,3.3647,2025-06-12T14:09:17.960904
931,-0.3099,0.4699,0.6788,23.415,-120.225,23.065,0.01,19.4317,27.0568,38.7827,4.3941,2025-06-12T14:09:17.960904
932,-0.3030,0.4338,0.6359,23.695,-115.010,22.085,0.01,19.4317,32.0711,40.2520,3.3647,2025-06-12T14:09:17.960904
933,-0.2933,0.3938,0.5949,26.005,-112.385,21.770,0.01,22.8498,27.0568,40.2520,3.3647,2025-06-12T14:09:18.054414
934,-0.2333,0.4002,0.5549,29.190,-107.905,21.455,0.01,19.4317,32.0711,40.2520,3.3647,2025-06-12T14:09:18.054414
935,-0.1420,0.4231,0.5222,31.115,-99.400,22.505,0.01,19.4317,27.0568,41.7201,4.3941,2025-06-12T14:09:18.054414
936,-0.0776,0.4192,0.4992,30.695,-89.635,23.905,0.00,19.4317,32.0711,38.7827,3.3647,2025-06-12T14:09:18.054414
937,-0.0483,0.4548,0.5510,34.510,-78.680,27.160,0.00,19.4317,27.0568,40.2520,3.3647,2025-06-12T14:09:18.054414
938,-0.0810,0.4333,0.5388,30.905,-70.315,30.380,0.00,19.4317,32.0711,40.2520,3.3647,2025-06-12T14:09:18.054414
939,-0.0732,0.4221,0.5348,32.655,-58.240,32.760,0.01,19.4317,32.0711,40.2520,4.3941,2025-06-12T14:09:18.054414
940,-0.0913,0.4612,0.5588,30.345,-47.075,33.390,0.01,22.8498,27.0568,40.2520,3.3647,2025-06-12T14:09:18.158513
941,-0.1157,0.5036,0.6007,26.985,-31.990,32.655,0.00,19.4317,27.0568,40.2520,4.3941,2025-06-12T14:09:18.159191
942,-0.1981,0.5363,0.6017,20.405,-22.295,31.080,0.01,19.4317,32.0711,38.7827,3.3647,2025-06-12T14:09:18.159191
943,-0.2679,0.5871,0.6368,11.725,-19.845,29.855,0.01,22.8498,32.0711,40.2520,4.3941,2025-06-12T14:09:18.159508
944,-0.3728,0.6320,0.7520,3.570,-24.675,29.260,0.01,22.8498,27.0568,38.7827,4.3941,2025-06-12T14:09:18.159508
945,-0.4319,0.6642,0.8257,-5.670,-37.275,28.210,0.01,22.8498,32.0711,38.7827,3.3647,2025-06-12T14:09:18.159508
946,-0.4919,0.6871,0.8603,-13.545,-51.730,23.940,0.00,19.4317,27.0568,41.7201,2.3358,2025-06-12T14:09:18.159508
947,-0.5173,0.6959,0.9170,-23.520,-60.025,14.805,0.00,19.4317,27.0568,41.7201,3.3647,2025-06-12T14:09:18.259577
948,-0.4592,0.6476,0.9409,-29.365,-63.560,2.555,0.00,22.8498,32.0711,43.1869,3.3647,2025-06-12T14:09:18.260252
949,-0.3919,0.5661,0.9262,-33.810,-61.915,-4.410,0.00,19.4317,37.0617,41.7201,3.3647,2025-06-12T14:09:18.260252
950,-0.3933,0.5241,0.9618,-35.770,-59.955,-9.485,0.00,22.8498,27.0568,40.2520,4.3941,2025-06-12T14:09:18.260853
951,-0.3099,0.5051,0.9838,-38.640,-59.115,-11.620,0.00,22.8498,32.0711,41.7201,4.3941,2025-06-12T14:09:18.508056
952,-0.3192,0.5002,0.9848,-36.085,-59.605,-14.280,0.01,22.8498,32.0711,40.2520,3.3647,2025-06-12T14:09:18.508056
953,-0.3123,0.5207,1.0155,-34.965,-61.005,-17.045,0.00,22.8498,32.0711,40.2520,3.3647,2025-06-12T14:09:18.508056
954,-0.2455,0.5183,1.0194,-36.260,-56.455,-18.095,0.00,22.8498,27.0568,41.7201,3.3647,2025-06-12T14:09:18.509055
955,-0.1728,0.4914,0.9892,-36.015,-49.735,-18.690,0.00,19.4317,32.0711,40.2520,4.3941,2025-06-12T14:09:18.509055
956,-0.1322,0.4768,0.9677,-34.930,-42.770,-20.510,0.01,19.4317,27.0568,35.8403,4.3941,2025-06-12T14:09:18.509055
957,-0.0542,0.4651,0.9433,-33.950,-31.675,-23.415,0.01,19.4317,32.0711,37.3121,3.3647,2025-06-12T14:09:18.509055
958,-0.0610,0.4660,0.8999,-32.165,-23.975,-26.460,0.01,19.4317,32.0711,35.8403,3.3647,2025-06-12T14:09:18.509055
959,-0.0844,0.4738,0.8613,-29.820,-20.335,-31.465,0.00,22.8498,32.0711,37.3121,4.3941,2025-06-12T14:09:18.509055
960,-0.1010,0.4880,0.8398,-28.770,-20.825,-36.995,0.01,19.4317,32.0711,37.3121,3.3647,2025-06-12T14:09:18.509055
961,-0.1088,0.5075,0.8374,-27.650,-25.025,-41.300,0.00,19.4317,32.0711,37.3121,3.3647,2025-06-12T14:09:18.509055
962,-0.1332,0.4856,0.8037,-28.315,-30.870,-45.605,0.01,19.4317,32.0711,37.3121,4.3941,2025-06-12T14:09:18.509055
963,-0.1396,0.4465,0.7857,-27.930,-36.330,-48.475,0.00,22.8498,32.0711,37.3121,4.3941,2025-06-12T14:09:18.509055
964,-0.1152,0.4036,0.7793,-27.055,-40.250,-50.925,0.01,22.8498,32.0711,37.3121,4.3941,2025-06-12T14:09:18.509055
965,-0.1005,0.3723,0.7930,-25.305,-40.460,-52.535,0.00,19.4317,27.0568,35.8403,3.3647,2025-06-12T14:09:18.509055
966,-0.1103,0.3348,0.7808,-23.765,-39.760,-53.410,0.00,19.4317,27.0568,35.8403,4.3941,2025-06-12T14:09:18.509055
967,-0.1064,0.2826,0.7788,-21.945,-40.145,-52.640,0.00,19.4317,32.0711,35.8403,3.3647,2025-06-12T14:09:18.509055
968,-0.1191,0.2664,0.8145,-20.265,-42.245,-50.995,0.00,16.0028,27.0568,35.8403,3.3647,2025-06-12T14:09:18.509055
969,-0.1376,0.2557,0.8311,-19.985,-47.425,-48.650,0.00,19.4317,27.0568,32.8929,4.3941,2025-06-12T14:09:18.509055
970,-0.1484,0.2216,0.8486,-21.245,-58.590,-45.360,0.01,19.4317,32.0711,32.8929,4.3941,2025-06-12T14:09:18.509055
971,-0.1474,0.2035,0.8716,-22.120,-74.235,-42.175,0.00,19.4317,27.0568,35.8403,3.3647,2025-06-12T14:09:18.509055
972,-0.1440,0.2255,0.8179,-24.605,-86.310,-40.600,0.00,19.4317,32.0711,37.3121,3.3647,2025-06-12T14:09:18.677066
973,-0.1391,0.2928,0.8174,-28.455,-88.760,-49.070,0.01,16.0028,27.0568,34.3672,4.3941,2025-06-12T14:09:18.677066
974,-0.1069,0.2762,0.9267,-34.790,-79.380,-70.735,0.00,19.4317,32.0711,34.3672,4.3941,2025-06-12T14:09:18.677066
975,0.0181,0.2216,0.9814,-40.915,-62.055,-70.385,0.00,19.4317,32.0711,37.3121,3.3647,2025-06-12T14:09:18.677066
976,-0.1152,0.1532,1.0458,-45.710,-50.505,-67.725,0.00,16.0028,32.0711,35.8403,4.3941,2025-06-12T14:09:18.677066
977,-0.1210,0.1318,1.1234,-47.985,-53.165,-63.735,0.00,19.4317,27.0568,32.8929,3.3647,2025-06-12T14:09:18.677756
978,-0.1825,0.1469,1.2098,-51.450,-62.475,-61.215,0.00,19.4317,32.0711,34.3672,3.3647,2025-06-12T14:09:18.677756
979,-0.1781,0.1425,1.2054,-55.685,-74.760,-60.025,0.00,19.4317,27.0568,35.8403,3.3647,2025-06-12T14:09:18.677756
980,-0.1132,0.1166,1.1688,-57.085,-82.810,-57.400,0.00,19.4317,32.0711,32.8929,3.3647,2025-06-12T14:09:18.677756
981,-0.0283,0.1469,1.1570,-58.100,-82.635,-57.890,0.00,19.4317,37.0617,40.2520,4.3941,2025-06-12T14:09:18.677756
982,0.0478,0.1752,1.1380,-60.095,-70.770,-63.000,0.00,19.4317,27.0568,40.2520,3.3647,2025-06-12T14:09:18.677756
983,0.0786,0.1791,1.1029,-61.635,-58.590,-68.810,0.00,19.4317,27.0568,40.2520,4.3941,2025-06-12T14:09:18.677756
984,0.1078,0.2074,1.0863,-61.565,-43.575,-76.790,0.01,19.4317,37.0617,40.2520,3.3647,2025-06-12T14:09:18.677756
985,0.0820,0.1932,1.0536,-63.070,-33.705,-80.710,0.01,19.4317,37.0617,40.2520,3.3647,2025-06-12T14:09:18.766538
986,0.0649,0.1879,1.0429,-60.655,-25.970,-84.805,0.00,19.4317,32.0711,38.7827,3.3647,2025-06-12T14:09:18.766538
987,0.0839,0.1630,1.0394,-57.610,-20.405,-86.380,0.01,19.4317,32.0711,38.7827,4.3941,2025-06-12T14:09:18.766538
988,0.0342,0.1410,1.0453,-53.725,-18.340,-86.100,0.01,22.8498,32.0711,40.2520,3.3647,2025-06-12T14:09:18.766538
989,0.0312,0.1279,1.0365,-46.865,-20.195,-83.510,0.01,19.4317,32.0711,40.2520,3.3647,2025-06-12T14:09:18.875174
990,0.0439,0.1259,0.9838,-39.865,-21.700,-80.850,0.01,19.4317,32.0711,41.7201,4.3941,2025-06-12T14:09:18.875174
991,0.0952,0.1230,0.9575,-33.390,-19.460,-78.120,0.00,19.4317,32.0711,40.2520,4.3941,2025-06-12T14:09:18.875174
992,0.1337,0.1132,0.9414,-26.180,-13.160,-75.425,0.00,19.4317,32.0711,40.2520,3.3647,2025-06-12T14:09:18.875174
993,0.1327,0.0849,0.9345,-19.845,-4.690,-71.470,0.00,16.0028,32.0711,41.7201,4.3941,2025-06-12T14:09:18.875926
994,0.1342,0.0717,0.9248,-12.600,1.925,-68.040,0.00,19.4317,32.0711,41.7201,4.3941,2025-06-12T14:09:18.875926
995,0.1630,0.1069,0.9218,-5.390,9.730,-65.135,0.00,16.0028,32.0711,40.2520,3.3647,2025-06-12T14:09:18.875926
996,0.2011,0.1010,0.9013,-0.910,19.670,-65.065,0.01,19.4317,32.0711,40.2520,3.3647,2025-06-12T14:09:18.875926
997,0.1571,0.1288,0.9301,5.040,23.835,-69.335,0.00,19.4317,27.0568,41.7201,3.3647,2025-06-12T14:09:18.875926
998,0.1347,0.1596,0.9706,9.905,16.450,-77.630,0.00,19.4317,32.0711,40.2520,3.3647,2025-06-12T14:09:18.875926
999,0.1449,0.1606,0.9887,15.715,6.405,-84.560,0.00,19.4317,32.0711,38.7827,3.3647,2025-06-12T14:09:18.976910
1000,0.0956,0.1449,1.0272,20.300,2.100,-90.580,0.00,19.4317,32.0711,37.3121,3.3647,2025-06-12T14:09:18.976910
1001,-0.0307,0.1615,1.0599,24.815,3.605,-95.935,0.01,19.4317,32.0711,41.7201,3.3647,2025-06-12T14:09:18.976910
1002,-0.1723,0.2323,1.0677,26.495,5.530,-104.125,0.01,19.4317,32.0711,40.2520,3.3647,2025-06-12T14:09:18.976910
1003,-0.1547,0.2801,1.0970,25.620,13.720,-108.640,0.01,19.4317,32.0711,41.7201,4.3941,2025-06-12T14:09:18.976910
1004,-0.1718,0.2991,1.1312,22.470,28.315,-111.405,0.00,22.8498,32.0711,40.2520,3.3647,2025-06-12T14:09:18.976910
1005,-0.2708,0.2474,1.1649,19.145,35.105,-111.440,0.00,19.4317,32.0711,40.2520,3.3647,2025-06-12T14:09:18.976910
1006,-0.3436,0.1991,1.1761,17.850,31.290,-107.660,0.00,22.8498,32.0711,40.2520,4.3941,2025-06-12T14:09:18.976910
1007,-0.3704,0.2103,1.1971,17.255,22.855,-102.445,0.00,19.4317,32.0711,41.7201,3.3647,2025-06-12T14:09:19.079456
1008,-0.3806,0.2313,1.1956,14.595,12.845,-98.070,0.00,19.4317,27.0568,40.2520,4.3941,2025-06-12T14:09:19.079456
1009,-0.3577,0.2747,1.1644,10.990,7.805,-96.740,0.00,19.4317,32.0711,41.7201,4.3941,2025-06-12T14:09:19.079456
1010,-0.3299,0.2899,1.1580,4.165,7.595,-97.230,0.01,19.4317,32.0711,40.2520,4.3941,2025-06-12T14:09:19.079456
1011,-0.3148,0.2816,1.1468,-0.105,8.890,-97.825,0.01,19.4317,32.0711,40.2520,4.3941,2025-06-12T14:09:19.079456
1012,-0.3079,0.2606,1.1258,-5.845,10.885,-96.705,0.00,19.4317,32.0711,40.2520,3.3647,2025-06-12T14:09:19.079456
1013,-0.3436,0.2142,1.1063,-8.785,8.365,-93.730,0.00,19.4317,27.0568,38.7827,3.3647,2025-06-12T14:09:19.079456
1014,-0.3533,0.2050,1.1043,-10.745,5.145,-90.860,0.00,19.4317,32.0711,40.2520,4.3941,2025-06-12T14:09:19.212102
1015,-0.3680,0.1757,1.0878,-11.305,-1.610,-87.430,0.01,22.8498,37.0617,40.2520,3.3647,2025-06-12T14:09:19.212102
1016,-0.3587,0.1562,1.0375,-11.340,-7.840,-84.700,0.01,22.8498,32.0711,37.3121,4.3941,2025-06-12T14:09:19.212102
1017,-0.3152,0.1444,0.9882,-10.885,-12.845,-82.215,0.00,19.4317,32.0711,38.7827,3.3647,2025-06-12T14:09:19.212102
1018,-0.2782,0.1479,0.9355,-10.640,-13.300,-81.550,0.00,19.4317,32.0711,38.7827,3.3647,2025-06-12T14:09:19.212102
1019,-0.2425,0.1308,0.9052,-10.395,-9.905,-81.970,0.00,19.4317,32.0711,38.7827,2.3358,2025-06-12T14:09:19.212102
1020,-0.2162,0.1127,0.8745,-9.240,-5.740,-83.195,0.00,19.4317,27.0568,37.3121,3.3647,2025-06-12T14:09:19.212102
1021,-0.2206,0.0942,0.8618,-8.365,1.575,-84.875,0.00,22.8498,32.0711,35.8403,4.3941,2025-06-12T14:09:19.304854
1022,-0.2201,0.0800,0.8486,-6.545,6.020,-86.765,0.01,22.8498,32.0711,34.3672,3.3647,2025-06-12T14:09:19.304854
1023,-0.2313,0.1020,0.8291,-4.585,7.420,-88.060,0.00,22.8498,32.0711,32.8929,3.3647,2025-06-12T14:09:19.304854
1024,-0.2635,0.1225,0.8125,-2.485,8.260,-90.510,0.01,19.4317,32.0711,35.8403,3.3647,2025-06-12T14:09:19.304854
1025,-0.2743,0.1215,0.7857,-1.260,9.345,-93.135,0.01,22.8498,32.0711,35.8403,4.3941,2025-06-12T14:09:19.304854
1026,-0.2826,0.1298,0.7784,0.455,8.295,-96.040,0.01,19.4317,32.0711,34.3672,3.3647,2025-06-12T14:09:19.304854
1027,-0.2777,0.1435,0.7857,1.995,8.505,-99.470,0.00,19.4317,27.0568,34.3672,3.3647,2025-06-12T14:09:19.304854
1028,-0.2904,0.1498,0.7749,2.170,8.155,-102.690,0.00,19.4317,32.0711,32.8929,3.3647,2025-06-12T14:09:19.304854
1029,-0.3089,0.1386,0.7925,3.045,8.155,-107.135,0.00,19.4317,32.0711,32.8929,4.3941,2025-06-12T14:09:19.304854
1030,-0.3723,0.1122,0.8330,-4.305,6.475,-110.110,0.00,16.0028,32.0711,32.8929,4.3941,2025-06-12T14:09:19.354721
1031,-0.4065,0.0420,0.8662,8.715,-3.815,-112.385,0.00,22.8498,32.0711,32.8929,3.3647,2025-06-12T14:09:19.354721
1032,-0.4436,0.0283,0.8799,10.850,-11.760,-112.630,0.01,19.4317,32.0711,32.8929,4.3941,2025-06-12T14:09:19.354721
1033,-0.4768,0.0254,0.9048,15.750,-18.900,-115.395,0.00,19.4317,32.0711,34.3672,3.3647,2025-06-12T14:09:19.354721
1034,-0.4607,0.0117,0.9018,19.775,-21.560,-118.545,0.01,19.4317,27.0568,34.3672,3.3647,2025-06-12T14:09:19.489360
1035,-0.4075,0.0132,0.9243,24.675,-14.210,-122.430,0.01,16.0028,32.0711,37.3121,4.3941,2025-06-12T14:09:19.489360
1036,-0.4148,0.0093,0.9618,27.090,2.870,-128.835,0.01,19.4317,32.0711,37.3121,3.3647,2025-06-12T14:09:19.489360
1037,-0.4041,-0.0098,1.0019,30.135,20.265,-131.810,0.00,19.4317,32.0711,37.3121,3.3647,2025-06-12T14:09:19.489360
1038,-0.3914,-0.0532,1.0131,33.810,38.955,-128.485,0.00,16.0028,32.0711,35.8403,3.3647,2025-06-12T14:09:19.489360
1039,-0.4275,-0.0727,1.0438,37.590,51.520,-124.040,0.00,16.0028,27.0568,35.8403,3.3647,2025-06-12T14:09:19.489360
1040,-0.4875,-0.0703,1.0551,38.325,60.795,-120.855,0.01,19.4317,27.0568,35.8403,3.3647,2025-06-12T14:09:19.489360
1041,-0.5319,-0.0727,1.0741,38.885,61.985,-117.460,0.00,19.4317,27.0568,35.8403,3.3647,2025-06-12T14:09:19.489360
1042,-0.5705,-0.1078,1.0590,40.705,56.385,-112.910,0.01,19.4317,32.0711,32.8929,3.3647,2025-06-12T14:09:19.489360
1043,-0.6295,-0.1279,1.0687,39.900,47.320,-107.520,0.00,19.4317,32.0711,32.8929,4.3941,2025-06-12T14:09:19.588477
1044,-0.6407,-0.1537,1.0468,41.895,33.355,-103.320,0.00,22.8498,32.0711,32.8929,3.3647,2025-06-12T14:09:19.588477
1045,-0.6120,-0.1781,1.0380,43.855,20.230,-97.195,0.01,19.4317,32.0711,31.4173,4.3941,2025-06-12T14:09:19.588794
1046,-0.5724,-0.1835,1.0185,44.800,11.585,-92.960,0.00,19.4317,32.0711,29.9405,3.3647,2025-06-12T14:09:19.588794
1047,-0.5163,-0.1737,0.9897,45.325,8.050,-91.105,0.00,19.4317,27.0568,31.4173,3.3647,2025-06-12T14:09:19.588794
1048,-0.4748,-0.1459,0.9740,43.960,9.730,-91.350,0.00,16.0028,27.0568,34.3672,3.3647,2025-06-12T14:09:19.588794
1049,-0.4636,-0.1200,0.9667,41.370,13.825,-92.505,0.00,16.0028,32.0711,32.8929,3.3647,2025-06-12T14:09:19.588794
1050,-0.4465,-0.0952,0.9701,38.675,17.500,-93.415,0.00,16.0028,27.0568,29.9405,3.3647,2025-06-12T14:09:19.588794
1051,-0.4441,-0.1147,0.9745,36.120,18.060,-91.875,0.01,19.4317,27.0568,28.4624,4.3941,2025-06-12T14:09:19.694631
1052,-0.4641,-0.1220,0.9823,34.860,16.835,-88.900,0.00,16.0028,27.0568,28.4624,3.3647,2025-06-12T14:09:19.694631
1053,-0.4695,-0.1142,0.9916,31.745,14.035,-86.380,0.00,19.4317,27.0568,28.4624,4.3941,2025-06-12T14:09:19.695628
1054,-0.4377,-0.1088,0.9843,29.855,9.730,-83.370,0.00,16.0028,32.0711,28.4624,3.3647,2025-06-12T14:09:19.695628
1055,-0.4324,-0.1015,0.9833,27.545,7.455,-81.235,0.00,19.4317,27.0568,28.4624,3.3647,2025-06-12T14:09:19.696640
1056,-0.4329,-0.0976,0.9726,23.905,5.425,-80.255,0.01,19.4317,32.0711,26.9831,4.3941,2025-06-12T14:09:19.696640
1057,-0.4446,-0.1035,0.9618,21.490,3.220,-79.625,0.00,19.4317,27.0568,28.4624,3.3647,2025-06-12T14:09:19.696640
1058,-0.4416,-0.0976,0.9472,19.740,1.505,-79.030,0.00,16.0028,27.0568,26.9831,3.3647,2025-06-12T14:09:19.942908
1059,-0.4792,-0.0795,0.9628,16.730,-0.805,-78.750,0.01,19.4317,32.0711,28.4624,3.3647,2025-06-12T14:09:19.942908
1060,-0.5104,-0.0766,0.9609,15.960,-5.495,-78.015,0.00,16.0028,27.0568,28.4624,3.3647,2025-06-12T14:09:19.942908
1061,-0.5446,-0.0771,0.9506,15.085,-13.545,-74.900,0.01,19.4317,27.0568,29.9405,4.3941,2025-06-12T14:09:19.942908
1062,-0.5519,-0.0805,0.9487,15.435,-21.315,-70.000,0.00,16.0028,32.0711,28.4624,3.3647,2025-06-12T14:09:19.942908
1063,-0.5270,-0.0795,0.9252,16.800,-29.225,-64.225,0.00,16.0028,27.0568,26.9831,3.3647,2025-06-12T14:09:19.942908
1064,-0.5022,-0.0683,0.9121,17.745,-32.375,-56.560,0.00,16.0028,27.0568,29.9405,3.3647,2025-06-12T14:09:19.942908
1065,-0.4895,-0.0527,0.9233,17.955,-30.730,-50.960,0.00,19.4317,32.0711,25.5025,3.3647,2025-06-12T14:09:19.942908
1066,-0.4841,-0.0454,0.9170,17.780,-26.845,-44.765,0.00,12.5632,27.0568,26.9831,3.3647,2025-06-12T14:09:19.942908
1067,-0.4831,-0.0312,0.9252,17.535,-20.475,-39.550,0.00,22.8498,27.0568,31.4173,3.3647,2025-06-12T14:09:19.942908
1068,-0.4919,-0.0259,0.9199,15.995,-14.280,-33.670,0.00,22.8498,27.0568,29.9405,3.3647,2025-06-12T14:09:19.942908
1069,-0.5070,-0.0229,0.9150,15.505,-10.745,-28.420,0.01,19.4317,27.0568,28.4624,3.3647,2025-06-12T14:09:19.942908
1070,-0.5168,-0.0200,0.9155,15.015,-8.365,-21.770,0.00,16.0028,27.0568,24.0207,3.3647,2025-06-12T14:09:19.942908
1071,-0.5241,-0.0137,0.9209,13.790,-7.525,-17.185,0.01,16.0028,27.0568,26.9831,4.3941,2025-06-12T14:09:19.942908
1072,-0.5217,-0.0054,0.9106,11.305,-7.875,-12.950,0.00,16.0028,32.0711,22.5376,3.3647,2025-06-12T14:09:19.942908
1073,-0.5012,0.0088,0.8969,9.485,-8.400,-9.730,0.01,19.4317,32.0711,24.0207,4.3941,2025-06-12T14:09:20.202816
1074,-0.4743,0.0054,0.8794,6.790,-8.855,-5.110,0.00,16.0028,27.0568,22.5376,3.3647,2025-06-12T14:09:20.202816
1075,-0.4543,0.0151,0.8867,4.690,-8.575,-0.595,0.00,19.4317,32.0711,21.0533,3.3647,2025-06-12T14:09:20.202816
1076,-0.4426,0.0303,0.8882,1.890,-7.420,1.820,0.00,16.0028,32.0711,21.0533,3.3647,2025-06-12T14:09:20.202816
1077,-0.4387,0.0400,0.8808,-0.875,-6.020,3.710,0.01,16.0028,27.0568,24.0207,3.3647,2025-06-12T14:09:20.202816
1078,-0.4412,0.0449,0.8740,-3.780,-5.180,4.550,0.00,19.4317,27.0568,21.0533,3.3647,2025-06-12T14:09:20.203888
1079,-0.4407,0.0425,0.8662,-5.355,-5.530,6.195,0.00,19.4317,32.0711,21.0533,4.3941,2025-06-12T14:09:20.203888
1080,-0.4397,0.0468,0.8667,-6.545,-6.370,7.665,0.00,16.0028,27.0568,19.5678,3.3647,2025-06-12T14:09:20.203888
1081,-0.4368,0.0468,0.8838,-7.595,-6.510,8.365,0.00,19.4317,27.0568,22.5376,3.3647,2025-06-12T14:09:20.203888
