SeqNum,AccX,AccY,AccZ,GyroX,GyroY,GyroZ,Flex,Force1,Force2,Force3,Force4,TimestampReception
19917,-0.4934,0.7867,0.1313,0.665,0.840,6.860,414,424,383,388,384,2025-05-27T22:44:43.791059
19918,-0.3094,0.6564,0.1610,-10.815,-3.185,37.205,455,429,254,412,349,2025-05-27T22:44:43.791059
19919,-0.3304,0.6808,0.1781,-11.655,1.435,33.845,420,411,322,426,396,2025-05-27T22:44:43.791059
19920,-0.3792,0.6969,0.2020,-11.585,0.980,30.765,399,397,346,373,386,2025-05-27T22:44:43.791604
19921,-0.4104,0.7183,0.2377,-11.760,-3.920,28.210,415,396,337,383,395,2025-05-27T22:44:43.791604
19922,-0.4148,0.7422,0.2552,-12.320,-10.640,26.460,415,412,359,397,402,2025-05-27T22:44:43.791604
19923,-0.3909,0.7725,0.2596,-12.775,-15.820,25.200,404,435,364,388,392,2025-05-27T22:44:43.791604
19924,-0.3553,0.8023,0.2616,-13.265,-17.360,23.765,374,363,370,411,405,2025-05-27T22:44:43.791604
19925,-0.3333,0.8345,0.2625,-13.650,-16.310,22.750,386,409,366,415,393,2025-05-27T22:44:43.791604
19926,-0.3206,0.8638,0.2630,-14.070,-13.790,22.470,392,414,375,345,396,2025-05-27T22:44:43.791604
19927,-0.3309,0.8843,0.2664,-14.525,-10.850,22.225,415,403,335,364,409,2025-05-27T22:44:43.791604
19928,-0.3401,0.8999,0.2679,-14.875,-8.855,22.015,427,393,364,391,405,2025-05-27T22:44:43.791604
19929,-0.3504,0.9111,0.2689,-14.875,-8.855,22.085,406,405,371,394,396,2025-05-27T22:44:43.791604
19930,-0.3489,0.9106,0.2640,-14.735,-10.150,22.855,424,431,382,414,418,2025-05-27T22:44:43.791604
19931,-0.3479,0.9048,0.2523,-14.140,-11.865,24.675,416,431,387,417,407,2025-05-27T22:44:43.791604
19932,-0.3543,0.8945,0.2430,-13.825,-14.175,25.865,404,381,386,423,398,2025-05-27T22:44:43.791604
19933,-0.3572,0.8833,0.2318,-14.385,-16.975,26.845,361,424,393,418,355,2025-05-27T22:44:43.791604
19934,-0.3567,0.8623,0.2098,-15.085,-19.530,27.825,405,420,359,413,379,2025-05-27T22:44:43.791604
19935,-0.3533,0.8330,0.1864,-15.330,-21.735,28.315,405,402,380,357,372,2025-05-27T22:44:43.791604
19936,-0.3372,0.8198,0.1669,-15.225,-22.050,28.175,341,406,351,376,399,2025-05-27T22:44:43.791604
19937,-0.3216,0.8218,0.1518,-15.855,-19.915,27.720,406,406,370,408,369,2025-05-27T22:44:43.809449
19938,-0.3006,0.8223,0.1464,-16.380,-15.960,26.670,408,378,379,394,408,2025-05-27T22:44:43.809449
19939,-0.3123,0.8228,0.1327,-16.800,-12.705,24.920,348,292,379,392,390,2025-05-27T22:44:43.809449
19940,-0.3133,0.8374,0.1322,-16.555,-9.275,23.520,407,400,389,403,395,2025-05-27T22:44:43.809449
19941,-0.3196,0.8481,0.1371,-16.100,-6.755,22.085,412,393,391,397,400,2025-05-27T22:44:43.823244
19942,-0.3348,0.8550,0.1508,-15.400,-6.125,20.860,429,417,349,407,393,2025-05-27T22:44:43.823244
19943,-0.3411,0.8657,0.1703,-14.525,-7.105,19.390,401,400,363,387,382,2025-05-27T22:44:43.823669
19944,-0.3416,0.8740,0.1957,-14.070,-8.050,17.780,407,413,371,389,396,2025-05-27T22:44:43.823669
19945,-0.3465,0.8755,0.2084,-13.195,-9.205,17.045,400,378,383,344,365,2025-05-27T22:44:43.823669
19946,-0.3343,0.8730,0.2133,-11.655,-11.515,17.010,419,407,378,372,337,2025-05-27T22:44:43.823669
19947,-0.3192,0.8677,0.2167,-9.975,-12.040,16.800,419,415,382,396,338,2025-05-27T22:44:43.823669
19948,-0.3060,0.8725,0.2259,-8.330,-10.325,16.345,423,408,376,412,384,2025-05-27T22:44:43.823669
19949,-0.2962,0.8750,0.2303,-7.175,-8.540,16.030,419,424,389,397,396,2025-05-27T22:44:43.823669
19950,-0.3070,0.8721,0.2367,-6.265,-7.840,16.170,425,420,381,390,407,2025-05-27T22:44:43.824341
19951,-0.3201,0.8657,0.2479,-4.865,-8.610,16.625,407,425,376,415,391,2025-05-27T22:44:43.824341
19952,-0.3231,0.8633,0.2547,-3.535,-10.640,16.625,414,421,383,405,389,2025-05-27T22:44:43.824341
19953,-0.3211,0.8638,0.2552,-2.940,-11.795,16.695,419,406,342,415,396,2025-05-27T22:44:43.824341
19954,-0.3060,0.8652,0.2572,-2.555,-12.145,17.290,427,416,336,417,407,2025-05-27T22:44:43.824341
19955,-0.2933,0.8647,0.2508,-2.415,-12.250,17.570,422,404,323,395,349,2025-05-27T22:44:43.824341
19956,-0.2772,0.8618,0.2464,-2.065,-11.865,17.325,415,395,351,406,333,2025-05-27T22:44:43.824341
19957,-0.2596,0.8574,0.2425,-1.610,-10.815,16.800,374,401,369,421,382,2025-05-27T22:44:44.122787
19958,-0.2425,0.8682,0.2406,-1.365,-9.135,16.100,408,343,369,405,383,2025-05-27T22:44:44.122787
19959,-0.2216,0.8769,0.2420,-1.995,-5.985,15.470,383,402,379,397,393,2025-05-27T22:44:44.122787
19960,-0.2191,0.8847,0.2420,-3.150,-2.310,14.280,380,419,367,400,394,2025-05-27T22:44:44.122787
19961,-0.2255,0.8818,0.2450,-4.095,-0.630,12.670,413,429,361,403,397,2025-05-27T22:44:44.122787
19962,-0.2425,0.8877,0.2518,-4.550,-1.470,11.270,423,402,343,400,352,2025-05-27T22:44:44.122787
19963,-0.2533,0.8843,0.2523,-5.075,-3.745,9.870,397,416,371,407,387,2025-05-27T22:44:44.123551
19964,-0.2669,0.8769,0.2523,-4.620,-8.295,9.100,388,395,372,419,409,2025-05-27T22:44:44.123551
19965,-0.2562,0.8745,0.2469,-3.430,-12.565,8.190,405,418,352,367,385,2025-05-27T22:44:44.123551
19966,-0.2367,0.8608,0.2372,-1.995,-13.860,7.735,422,417,356,390,399,2025-05-27T22:44:44.123551
19967,-0.2201,0.8525,0.2303,-0.455,-11.620,7.140,406,427,365,402,408,2025-05-27T22:44:44.123551
19968,-0.2113,0.8496,0.2284,1.505,-8.505,5.950,383,422,375,395,406,2025-05-27T22:44:44.123551
19969,-0.2050,0.8496,0.2255,3.185,-3.325,4.865,389,402,306,387,385,2025-05-27T22:44:44.123551
19970,-0.2118,0.8525,0.2240,4.900,1.890,3.465,389,418,349,405,394,2025-05-27T22:44:44.123551
19971,-0.2328,0.8594,0.2245,6.440,5.075,2.205,371,343,370,419,382,2025-05-27T22:44:44.276021
19972,-0.2586,0.8599,0.2269,7.875,5.250,1.015,413,404,342,416,345,2025-05-27T22:44:44.276021
19973,-0.2738,0.8686,0.2342,9.415,4.200,0.245,414,422,325,398,371,2025-05-27T22:44:44.276021
19974,-0.2786,0.8862,0.2396,10.465,2.905,-0.420,388,385,346,414,352,2025-05-27T22:44:44.276021
19975,-0.2757,0.8896,0.2411,10.675,2.695,-1.470,400,401,358,383,386,2025-05-27T22:44:44.276021
19976,-0.2684,0.9082,0.2445,10.640,3.500,-2.415,346,412,344,398,410,2025-05-27T22:44:44.276021
19977,-0.2689,0.9218,0.2513,10.045,4.725,-3.395,397,415,362,415,411,2025-05-27T22:44:44.276021
19978,-0.2786,0.9404,0.2586,8.260,5.740,-4.235,394,416,370,393,402,2025-05-27T22:44:44.276021
19979,-0.2830,0.9540,0.2577,5.740,5.810,-4.795,418,401,374,416,410,2025-05-27T22:44:44.276021
19980,-0.2845,0.9521,0.2508,3.815,4.725,-5.600,414,425,368,406,397,2025-05-27T22:44:44.276021
19981,-0.2889,0.9643,0.2528,2.240,2.765,-5.985,401,435,377,407,392,2025-05-27T22:44:44.276021
19982,-0.2865,0.9780,0.2586,0.840,0.455,-6.230,410,430,382,379,387,2025-05-27T22:44:44.276021
19983,-0.2796,0.9804,0.2567,-0.840,-1.470,-6.055,389,424,377,395,401,2025-05-27T22:44:44.276021
19984,-0.2865,0.9789,0.2572,-1.855,-3.570,-5.810,397,412,343,398,411,2025-05-27T22:44:44.276021
19985,-0.2865,0.9784,0.2567,-2.415,-5.390,-5.390,403,411,369,403,405,2025-05-27T22:44:44.276021
19986,-0.2782,0.9687,0.2469,-2.590,-6.195,-4.935,339,414,385,407,393,2025-05-27T22:44:44.276021
19987,-0.2845,0.9575,0.2430,-2.415,-5.355,-4.305,378,408,376,348,361,2025-05-27T22:44:44.276021
19988,-0.2918,0.9389,0.2357,-1.610,-4.445,-3.360,378,410,338,383,372,2025-05-27T22:44:44.276021
19989,-0.2972,0.9267,0.2435,-1.085,-3.395,-2.590,412,422,370,365,374,2025-05-27T22:44:44.276021
19990,-0.3045,0.9140,0.2460,-0.770,-1.750,-1.505,403,393,383,389,400,2025-05-27T22:44:44.276021
19991,-0.3109,0.8994,0.2430,-0.420,-0.910,-0.385,429,397,371,414,356,2025-05-27T22:44:44.509524
19992,-0.3196,0.8916,0.2494,-0.140,-1.400,0.525,377,343,378,351,373,2025-05-27T22:44:44.523004
19993,-0.3226,0.8740,0.2464,0.140,-2.450,1.330,331,391,370,387,375,2025-05-27T22:44:44.523651
19994,-0.3206,0.8603,0.2416,0.980,-3.920,1.785,387,399,369,406,382,2025-05-27T22:44:44.524118
19995,-0.3079,0.8540,0.2381,2.205,-4.550,1.750,373,395,365,401,385,2025-05-27T22:44:44.524118
19996,-0.2957,0.8477,0.2347,3.430,-3.815,1.645,412,301,368,354,359,2025-05-27T22:44:44.524118
19997,-0.2821,0.8428,0.2323,4.760,-1.995,1.155,386,405,368,398,396,2025-05-27T22:44:44.524118
19998,-0.2821,0.8433,0.2396,6.545,-0.280,0.245,348,418,381,384,414,2025-05-27T22:44:44.524118
19999,-0.2826,0.8491,0.2455,7.735,1.960,-1.050,408,364,390,385,402,2025-05-27T22:44:44.524118
20000,-0.2967,0.8569,0.2547,8.645,3.185,-2.625,416,369,379,336,406,2025-05-27T22:44:44.524118
20001,-0.3128,0.8594,0.2596,9.240,1.260,-4.095,425,406,394,329,402,2025-05-27T22:44:44.524118
20002,-0.3157,0.8623,0.2577,10.185,-1.365,-5.495,435,409,389,367,404,2025-05-27T22:44:44.524118
20003,-0.3211,0.8667,0.2572,11.095,-4.480,-6.860,389,403,387,394,360,2025-05-27T22:44:44.524118
20004,-0.3084,0.8730,0.2533,11.935,-7.210,-7.735,388,364,389,402,363,2025-05-27T22:44:44.524118
20005,-0.2957,0.8784,0.2386,12.950,-8.785,-8.470,408,407,386,417,384,2025-05-27T22:44:44.524118
20006,-0.2782,0.8867,0.2255,13.615,-7.175,-9.135,419,408,347,353,377,2025-05-27T22:44:44.524118
20007,-0.2645,0.8999,0.2147,13.965,-3.850,-10.080,367,407,364,377,383,2025-05-27T22:44:44.525795
20008,-0.2713,0.9145,0.2045,13.720,-0.980,-11.165,395,396,363,373,397,2025-05-27T22:44:44.525795
20009,-0.2728,0.9243,0.1947,13.265,1.365,-11.690,385,404,367,393,385,2025-05-27T22:44:44.525795
20010,-0.2689,0.9389,0.1850,12.845,4.375,-12.040,411,399,380,407,405,2025-05-27T22:44:44.525795
20011,-0.2777,0.9506,0.1820,12.180,8.085,-11.515,412,374,387,412,406,2025-05-27T22:44:44.525795
20012,-0.3016,0.9589,0.1869,11.690,9.135,-10.605,351,397,375,391,411,2025-05-27T22:44:44.757240
20013,-0.3270,0.9721,0.1893,11.130,7.105,-9.940,413,398,392,402,371,2025-05-27T22:44:44.757240
20014,-0.3450,0.9701,0.1874,10.640,4.130,-9.555,410,426,396,371,382,2025-05-27T22:44:44.757240
20015,-0.3548,0.9658,0.1810,10.115,0.840,-8.960,422,399,385,392,345,2025-05-27T22:44:44.757240
20016,-0.3675,0.9614,0.1791,9.625,-4.130,-8.190,407,415,391,407,383,2025-05-27T22:44:44.757240
20017,-0.3645,0.9579,0.1781,8.540,-7.595,-7.700,404,412,395,414,396,2025-05-27T22:44:44.757240
20018,-0.3601,0.9487,0.1718,7.630,-8.680,-7.525,370,436,395,409,380,2025-05-27T22:44:44.757240
20019,-0.3587,0.9365,0.1684,6.580,-8.575,-7.245,390,408,379,395,378,2025-05-27T22:44:44.757240
20020,-0.3543,0.9262,0.1703,5.355,-7.560,-7.035,416,418,373,414,354,2025-05-27T22:44:44.757240
20021,-0.3577,0.9179,0.1732,4.095,-5.565,-6.405,394,425,374,417,393,2025-05-27T22:44:44.757240
20022,-0.3626,0.9033,0.1693,3.115,-3.815,-6.230,399,406,386,418,371,2025-05-27T22:44:44.757240
20023,-0.3699,0.8843,0.1591,3.010,-3.290,-6.405,413,427,390,403,386,2025-05-27T22:44:44.757240
20024,-0.3689,0.8769,0.1640,3.395,-3.640,-6.545,395,414,377,394,390,2025-05-27T22:44:44.757240
20025,-0.3723,0.8755,0.1786,3.570,-4.270,-7.035,365,402,371,404,397,2025-05-27T22:44:44.757240
20026,-0.3723,0.8711,0.1815,3.500,-4.620,-8.120,386,397,383,416,416,2025-05-27T22:44:44.757240
20027,-0.3762,0.8750,0.1874,4.025,-5.355,-9.205,419,419,386,416,361,2025-05-27T22:44:44.757240
20028,-0.3767,0.8779,0.1976,4.550,-6.265,-10.080,416,403,371,395,386,2025-05-27T22:44:44.757240
20029,-0.3831,0.8804,0.2006,4.830,-7.315,-10.640,415,420,340,415,395,2025-05-27T22:44:44.757240
20030,-0.3816,0.8901,0.2050,5.250,-8.785,-10.675,417,403,367,396,409,2025-05-27T22:44:44.757240
20031,-0.3680,0.8969,0.2098,5.320,-9.625,-10.500,340,419,371,392,410,2025-05-27T22:44:44.757240
20032,-0.3606,0.9048,0.2054,5.495,-9.310,-10.185,400,410,368,393,353,2025-05-27T22:44:44.757240
20033,-0.3543,0.9228,0.2040,5.460,-8.330,-9.975,398,405,379,392,331,2025-05-27T22:44:44.924546
20034,-0.3479,0.9360,0.1972,5.495,-7.560,-9.415,383,415,374,407,375,2025-05-27T22:44:44.924546
20035,-0.3489,0.9540,0.1898,5.145,-7.105,-8.750,401,390,389,398,393,2025-05-27T22:44:44.924546
20036,-0.3455,0.9672,0.1845,4.725,-6.475,-8.365,402,434,381,419,397,2025-05-27T22:44:44.924546
20037,-0.3475,0.9775,0.1864,4.025,-5.775,-7.770,401,406,378,399,405,2025-05-27T22:44:44.924546
20038,-0.3514,0.9819,0.1776,2.905,-6.055,-6.790,393,411,382,405,385,2025-05-27T22:44:44.924546
20039,-0.3601,0.9858,0.1737,2.240,-7.525,-5.355,391,391,378,348,393,2025-05-27T22:44:44.924546
20040,-0.3645,0.9862,0.1659,1.785,-8.575,-4.165,419,388,370,377,386,2025-05-27T22:44:44.924546
20041,-0.3577,0.9921,0.1596,0.875,-8.505,-2.555,426,431,369,406,394,2025-05-27T22:44:44.924546
20042,-0.3587,0.9926,0.1552,-0.560,-7.245,-1.190,418,434,378,364,402,2025-05-27T22:44:44.924546
20043,-0.3558,0.9819,0.1459,-1.855,-5.390,0.840,427,411,379,380,407,2025-05-27T22:44:44.924546
20044,-0.3577,0.9799,0.1469,-2.800,-3.185,2.835,344,423,372,344,410,2025-05-27T22:44:44.924546
20045,-0.3645,0.9726,0.1444,-4.270,-1.960,4.480,367,414,349,391,387,2025-05-27T22:44:44.924546
20046,-0.3670,0.9614,0.1459,-5.355,-0.770,5.635,407,402,324,386,389,2025-05-27T22:44:44.924546
20047,-0.3762,0.9516,0.1488,-6.230,-0.105,7.175,422,415,354,390,393,2025-05-27T22:44:44.924546
20048,-0.3831,0.9394,0.1527,-7.000,-0.770,8.750,406,350,368,350,387,2025-05-27T22:44:44.924546
20049,-0.3845,0.9252,0.1620,-7.560,-2.100,9.975,412,415,370,372,365,2025-05-27T22:44:44.924546
20050,-0.3811,0.9126,0.1723,-7.980,-3.185,10.745,429,438,385,395,384,2025-05-27T22:44:44.924546
20051,-0.3777,0.9008,0.1757,-8.085,-4.270,10.745,378,412,383,394,399,2025-05-27T22:44:45.191805
20052,-0.3728,0.8877,0.1771,-7.630,-5.530,10.675,391,411,382,395,395,2025-05-27T22:44:45.191805
20053,-0.3572,0.8794,0.1781,-6.895,-5.845,10.920,417,427,381,414,416,2025-05-27T22:44:45.191805
20054,-0.3484,0.8711,0.1742,-6.160,-4.095,10.780,349,413,385,404,319,2025-05-27T22:44:45.191805
20055,-0.3421,0.8682,0.1757,-5.215,-1.855,10.115,389,403,372,414,325,2025-05-27T22:44:45.191805
20056,-0.3377,0.8594,0.1747,-4.480,0.595,9.520,398,411,384,368,318,2025-05-27T22:44:45.191805
20057,-0.3431,0.8594,0.1810,-3.990,1.995,8.960,397,399,373,385,378,2025-05-27T22:44:45.191805
20058,-0.3572,0.8472,0.1874,-3.430,1.365,7.840,416,397,368,415,376,2025-05-27T22:44:45.191805
20059,-0.3645,0.8486,0.1962,-3.010,-0.945,6.650,405,415,371,408,346,2025-05-27T22:44:45.191805
20060,-0.3489,0.8457,0.1932,-2.625,-3.010,6.055,403,344,339,407,381,2025-05-27T22:44:45.191805
20061,-0.3377,0.8491,0.1952,-2.310,-4.095,5.285,413,409,368,427,395,2025-05-27T22:44:45.191805
20062,-0.3284,0.8506,0.1981,-1.960,-4.340,4.200,394,438,383,415,409,2025-05-27T22:44:45.191805
20063,-0.3211,0.8555,0.2025,-1.295,-4.655,3.255,400,410,386,423,415,2025-05-27T22:44:45.191805
20064,-0.3187,0.8701,0.2098,-0.665,-4.305,2.100,397,424,357,423,388,2025-05-27T22:44:45.191805
20065,-0.3167,0.8804,0.2137,-0.035,-3.605,1.050,416,384,342,418,368,2025-05-27T22:44:45.191805
20066,-0.3206,0.8906,0.2157,0.735,-3.745,0.035,426,420,374,353,393,2025-05-27T22:44:45.191805
20067,-0.3216,0.8999,0.2152,1.715,-4.515,-0.910,427,428,387,381,411,2025-05-27T22:44:45.191805
20068,-0.3196,0.9135,0.2181,2.485,-5.145,-1.855,436,425,377,402,406,2025-05-27T22:44:45.191805
20069,-0.3240,0.9209,0.2240,2.940,-5.740,-2.730,418,407,368,413,395,2025-05-27T22:44:45.191805
20070,-0.3240,0.9292,0.2220,3.255,-6.895,-3.045,424,425,387,395,383,2025-05-27T22:44:45.191805
20071,-0.3196,0.9360,0.2167,3.325,-7.315,-3.115,405,419,391,402,356,2025-05-27T22:44:45.340864
20072,-0.3270,0.9394,0.2123,2.940,-6.825,-3.325,421,422,393,390,386,2025-05-27T22:44:45.340864
20073,-0.3265,0.9467,0.2079,2.100,-6.615,-3.290,394,413,388,350,405,2025-05-27T22:44:45.340864
20074,-0.3314,0.9487,0.2030,1.330,-6.265,-2.800,411,419,385,383,412,2025-05-27T22:44:45.340864
20075,-0.3353,0.9467,0.1976,0.490,-6.300,-1.820,383,426,385,408,399,2025-05-27T22:44:45.340864
20076,-0.3372,0.9467,0.1967,-0.175,-6.860,-1.155,398,431,391,391,403,2025-05-27T22:44:45.340864
20077,-0.3382,0.9467,0.1976,-1.015,-7.105,-0.630,414,394,359,379,395,2025-05-27T22:44:45.340864
20078,-0.3426,0.9418,0.1972,-1.750,-8.015,-0.455,387,396,330,345,381,2025-05-27T22:44:45.340864
20079,-0.3377,0.9355,0.1898,-1.715,-9.590,0.000,390,432,350,399,396,2025-05-27T22:44:45.340864
20080,-0.3250,0.9365,0.1889,-1.750,-9.590,0.525,401,407,368,403,383,2025-05-27T22:44:45.340864
20081,-0.3177,0.9326,0.1913,-2.485,-7.840,0.665,402,431,380,367,393,2025-05-27T22:44:45.340864
20082,-0.3162,0.9267,0.1879,-3.115,-6.300,1.155,429,405,380,360,401,2025-05-27T22:44:45.340864
20083,-0.3279,0.9170,0.1845,-3.010,-6.125,1.540,426,430,377,393,410,2025-05-27T22:44:45.340864
20084,-0.3309,0.9160,0.1952,-2.905,-6.860,1.995,411,430,343,407,408,2025-05-27T22:44:45.340864
20085,-0.3274,0.9145,0.1986,-2.870,-7.560,2.205,431,401,366,413,411,2025-05-27T22:44:45.423702
20086,-0.3162,0.9091,0.2006,-2.555,-7.945,3.080,427,384,349,350,356,2025-05-27T22:44:45.423702
20087,-0.3089,0.9101,0.1981,-2.205,-7.175,3.640,412,403,367,326,395,2025-05-27T22:44:45.423702
20088,-0.3021,0.9096,0.2015,-1.925,-5.285,3.535,416,374,375,381,391,2025-05-27T22:44:45.423702
20089,-0.3045,0.9077,0.2001,-1.820,-3.780,3.465,393,332,372,399,408,2025-05-27T22:44:45.423702
20090,-0.3109,0.9057,0.2006,-1.190,-3.675,3.710,375,396,347,411,402,2025-05-27T22:44:45.423702
20091,-0.3113,0.9033,0.2001,-0.280,-4.305,3.920,417,337,365,344,364,2025-05-27T22:44:45.423702
20092,-0.3113,0.9043,0.2069,0.560,-4.550,3.955,387,385,365,369,386,2025-05-27T22:44:45.509039
20093,-0.3055,0.9067,0.2089,0.595,-3.780,3.640,403,418,384,342,344,2025-05-27T22:44:45.509039
20094,-0.3016,0.9077,0.2069,0.420,-2.730,3.430,400,381,380,389,332,2025-05-27T22:44:45.509039
20095,-0.3016,0.9111,0.2069,0.385,-2.345,3.150,400,424,374,394,367,2025-05-27T22:44:45.509039
20096,-0.2948,0.9130,0.2045,0.350,-2.170,2.835,403,406,388,417,374,2025-05-27T22:44:45.509039
20097,-0.3026,0.9130,0.2054,0.245,-2.415,2.450,422,380,341,394,353,2025-05-27T22:44:45.509039
20098,-0.3016,0.9130,0.2045,0.315,-3.115,2.100,341,415,353,408,294,2025-05-27T22:44:45.509039
20099,-0.3050,0.9140,0.2069,0.420,-3.325,1.610,395,393,368,405,371,2025-05-27T22:44:45.753561
20100,-0.3050,0.9160,0.2064,0.105,-3.045,1.330,419,399,336,417,339,2025-05-27T22:44:45.753561
20101,-0.3060,0.9140,0.2035,0.070,-2.415,0.980,408,373,317,397,366,2025-05-27T22:44:45.753561
20102,-0.3089,0.9165,0.2069,0.035,-1.890,0.735,418,398,343,410,402,2025-05-27T22:44:45.753561
20103,-0.3109,0.9135,0.2069,-0.140,-1.575,0.700,412,339,361,409,411,2025-05-27T22:44:45.753561
20104,-0.3172,0.9091,0.2084,-0.280,-1.855,0.910,414,422,367,384,360,2025-05-27T22:44:45.753561
20105,-0.3211,0.9101,0.2064,-0.490,-2.275,0.875,364,377,356,361,337,2025-05-27T22:44:45.753561
20106,-0.3255,0.9106,0.2040,-0.455,-2.765,0.665,327,416,377,375,323,2025-05-27T22:44:45.753561
20107,-0.3216,0.9072,0.2015,-0.035,-3.115,0.595,375,405,373,387,378,2025-05-27T22:44:45.753561
20108,-0.3192,0.9087,0.1991,0.420,-2.940,0.595,334,393,365,399,389,2025-05-27T22:44:45.753561
20109,-0.3177,0.9038,0.1986,0.630,-1.890,0.350,383,425,368,352,395,2025-05-27T22:44:45.753561
20110,-0.3206,0.9052,0.1957,1.015,-1.330,0.490,419,423,364,356,411,2025-05-27T22:44:45.753561
20111,-0.3328,0.9052,0.1986,1.610,-1.260,0.315,423,421,364,392,377,2025-05-27T22:44:45.753561
20112,-0.3343,0.9082,0.1962,1.785,-1.400,0.000,406,406,363,397,388,2025-05-27T22:44:45.753561
20113,-0.3348,0.9072,0.1981,1.715,-1.925,0.000,392,408,345,396,364,2025-05-27T22:44:45.753561
20114,-0.3274,0.9077,0.1957,1.715,-2.485,-0.105,348,432,360,406,381,2025-05-27T22:44:45.753561
20115,-0.3235,0.9077,0.1903,1.785,-2.450,-0.245,404,388,365,386,393,2025-05-27T22:44:45.753561
20116,-0.3167,0.9111,0.1913,1.505,-2.065,-0.070,420,421,379,399,404,2025-05-27T22:44:45.754559
20117,-0.3196,0.9130,0.1942,1.330,-1.645,0.000,388,373,373,402,411,2025-05-27T22:44:46.061029
20118,-0.3231,0.9106,0.1942,1.260,-1.610,-0.105,384,360,379,406,413,2025-05-27T22:44:46.061029
20119,-0.3206,0.9121,0.1937,1.505,-1.820,-0.315,397,408,340,398,419,2025-05-27T22:44:46.061029
20120,-0.3182,0.9140,0.1962,1.435,-1.680,-0.595,398,431,365,405,415,2025-05-27T22:44:46.061029
20121,-0.3182,0.9170,0.1976,1.120,-1.015,-1.050,393,402,343,396,379,2025-05-27T22:44:46.061029
20122,-0.3182,0.9174,0.1991,1.085,-1.155,-1.575,339,406,322,417,393,2025-05-27T22:44:46.061029
20123,-0.3206,0.9160,0.2006,1.155,-1.820,-1.925,410,399,347,420,350,2025-05-27T22:44:46.061029
20124,-0.3206,0.9179,0.2020,1.085,-2.310,-2.380,419,407,355,394,390,2025-05-27T22:44:46.061029
20125,-0.3206,0.9189,0.1991,1.050,-2.695,-2.835,430,421,359,407,387,2025-05-27T22:44:46.061029
20126,-0.3206,0.9223,0.1976,1.260,-3.115,-3.115,407,418,366,419,401,2025-05-27T22:44:46.077881
20127,-0.3216,0.9223,0.1981,1.400,-3.185,-3.080,394,388,344,409,386,2025-05-27T22:44:46.077881
20128,-0.3245,0.9228,0.1947,1.435,-3.220,-3.010,398,376,334,364,396,2025-05-27T22:44:46.077881
20129,-0.3289,0.9277,0.1991,1.505,-2.975,-3.150,361,382,365,388,409,2025-05-27T22:44:46.077881
20130,-0.3372,0.9262,0.1928,1.330,-3.115,-2.835,408,399,335,383,406,2025-05-27T22:44:46.077881
20131,-0.3387,0.9228,0.1835,1.295,-3.780,-2.590,418,432,326,346,409,2025-05-27T22:44:46.077881
20132,-0.3406,0.9238,0.1810,1.470,-4.305,-2.450,430,405,312,351,411,2025-05-27T22:44:46.077881
20133,-0.3362,0.9257,0.1806,1.260,-3.780,-2.275,427,433,335,379,403,2025-05-27T22:44:46.077881
20134,-0.3338,0.9306,0.1835,0.770,-2.905,-1.750,344,402,324,346,404,2025-05-27T22:44:46.077881
20135,-0.3357,0.9306,0.1825,0.245,-2.275,-1.330,384,300,356,353,391,2025-05-27T22:44:46.077881
20136,-0.3401,0.9267,0.1869,-0.210,-1.960,-0.980,394,379,370,357,396,2025-05-27T22:44:46.077881
20137,-0.3436,0.9277,0.1854,-0.665,-2.660,-0.455,417,401,382,405,418,2025-05-27T22:44:46.077881
20138,-0.3372,0.9243,0.1874,-0.945,-3.500,-0.035,412,423,385,384,375,2025-05-27T22:44:46.077881
20139,-0.3343,0.9199,0.1874,-1.225,-3.990,0.140,416,423,375,394,401,2025-05-27T22:44:46.077881
20140,-0.3245,0.9184,0.1923,-1.330,-3.815,0.140,411,395,383,343,398,2025-05-27T22:44:46.077881
20141,-0.3143,0.9174,0.1976,-1.295,-3.150,0.210,397,385,381,380,364,2025-05-27T22:44:46.077881
20142,-0.3123,0.9165,0.1957,-1.295,-2.135,0.105,407,407,371,395,378,2025-05-27T22:44:46.077881
20143,-0.3143,0.9145,0.1991,-1.015,-1.855,-0.245,402,425,372,414,403,2025-05-27T22:44:46.242600
20144,-0.3152,0.9135,0.1981,-0.595,-2.275,-0.665,404,355,373,404,408,2025-05-27T22:44:46.242600
20145,-0.3196,0.9126,0.2001,-0.385,-2.835,-1.015,362,421,369,402,413,2025-05-27T22:44:46.242600
20146,-0.3221,0.9091,0.1957,-0.175,-3.430,-1.330,404,381,375,403,411,2025-05-27T22:44:46.242600
20147,-0.3187,0.9082,0.1918,-0.035,-3.255,-1.575,428,365,381,401,395,2025-05-27T22:44:46.242600
20148,-0.3177,0.9067,0.1928,8.925,-2.625,-1.715,413,414,385,404,368,2025-05-27T22:44:46.242600
20149,-0.3206,0.9130,0.1918,-0.140,-1.750,-1.820,423,341,381,345,378,2025-05-27T22:44:46.242600
20150,-0.3216,0.9087,0.1913,-0.315,-0.805,-1.890,399,382,383,377,386,2025-05-27T22:44:46.242600
20151,-0.3299,0.9106,0.1898,-0.280,-0.700,-1.785,416,418,398,406,387,2025-05-27T22:44:46.242600
20152,-0.3353,0.9087,0.1937,-0.175,-1.050,-1.855,400,360,360,365,378,2025-05-27T22:44:46.242600
20153,-0.3387,0.9096,0.1942,-0.490,-1.470,-1.960,373,403,373,337,400,2025-05-27T22:44:46.242600
20154,-0.3436,0.9111,0.1913,-0.770,-2.030,-1.715,409,420,375,378,406,2025-05-27T22:44:46.242600
20155,-0.3416,0.9126,0.1889,-0.630,-3.045,-1.505,396,434,384,345,402,2025-05-27T22:44:46.242600
20156,-0.3338,0.9145,0.1923,-0.420,-2.940,-1.260,429,425,388,353,407,2025-05-27T22:44:46.242600
20157,-0.3284,0.9165,0.1893,-0.245,-1.785,-1.120,421,409,388,365,388,2025-05-27T22:44:46.242600
20158,-0.3284,0.9155,0.1918,0.000,-0.805,-0.910,405,388,397,404,351,2025-05-27T22:44:46.242600
20159,-0.3338,0.9140,0.1991,0.630,-0.525,-0.735,422,351,345,407,381,2025-05-27T22:44:46.243597
20160,-0.3382,0.9189,0.2054,0.700,-0.490,-0.630,403,402,375,412,395,2025-05-27T22:44:46.243597
20161,-0.3470,0.9111,0.2030,0.700,-1.295,-0.525,417,419,336,377,389,2025-05-27T22:44:46.325310
20162,-0.3426,0.9121,0.2059,0.630,-2.625,-0.420,406,380,333,388,416,2025-05-27T22:44:46.325310
20163,-0.3343,0.9140,0.2050,0.350,-3.080,-0.140,420,368,350,358,371,2025-05-27T22:44:46.325310
20164,-0.3245,0.9135,0.1986,0.105,-3.185,0.105,399,410,341,381,379,2025-05-27T22:44:46.325310
20165,-0.3192,0.9170,0.1947,0.280,-2.800,0.140,394,372,372,388,400,2025-05-27T22:44:46.325310
20166,-0.3143,0.9189,0.1962,0.455,-1.785,-0.245,418,344,374,413,352,2025-05-27T22:44:46.325310
20167,-0.3192,0.9184,0.1928,0.630,-1.155,-0.560,409,403,382,409,379,2025-05-27T22:44:46.325310
20168,-0.3255,0.9189,0.1932,0.980,-1.435,-0.945,413,421,382,418,389,2025-05-27T22:44:46.424895
20169,-0.3318,0.9252,0.1996,0.910,-1.820,-1.365,425,429,374,411,389,2025-05-27T22:44:46.424895
20170,-0.3328,0.9223,0.1962,0.385,-2.170,-1.575,415,427,377,400,382,2025-05-27T22:44:46.424895
20171,-0.3406,0.9238,0.1884,0.070,-2.555,-1.365,357,428,376,415,344,2025-05-27T22:44:46.439695
20172,-0.3445,0.9238,0.1884,0.070,-3.185,-0.805,408,439,371,391,375,2025-05-27T22:44:46.440728
20173,-0.3436,0.9252,0.1913,0.000,-3.465,-0.420,413,349,383,394,402,2025-05-27T22:44:46.440728
20174,-0.3450,0.9277,0.1903,-0.210,-3.395,0.140,398,401,381,391,405,2025-05-27T22:44:46.440728
20175,-0.3401,0.9267,0.1928,-0.455,-2.870,0.840,413,394,394,407,394,2025-05-27T22:44:46.440728
20176,-0.3421,0.9238,0.1928,-0.840,-2.310,1.260,399,333,347,401,393,2025-05-27T22:44:46.441532
20177,-0.3436,0.9199,0.1923,-0.805,-2.415,1.470,402,332,374,409,393,2025-05-27T22:44:46.724194
20178,-0.3455,0.9179,0.1942,-0.490,-3.220,2.065,394,409,381,388,348,2025-05-27T22:44:46.724194
20179,-0.3401,0.9135,0.1947,-0.490,-3.990,2.240,398,399,386,400,351,2025-05-27T22:44:46.724194
20180,-0.3323,0.9087,0.1952,-0.560,-4.130,2.135,390,405,379,416,332,2025-05-27T22:44:46.724194
20181,-0.3216,0.9072,0.1923,-0.455,-3.815,1.890,351,423,386,405,370,2025-05-27T22:44:46.724194
20182,-0.3192,0.8999,0.1889,-0.315,-3.185,1.365,362,412,376,354,356,2025-05-27T22:44:46.724194
20183,-0.3206,0.8984,0.1889,0.175,-2.940,0.630,402,424,348,391,382,2025-05-27T22:44:46.724194
20184,-0.3216,0.8974,0.1976,0.455,-2.975,0.035,402,434,359,389,388,2025-05-27T22:44:46.724194
20185,-0.3206,0.8999,0.1986,0.385,-2.940,-0.280,366,386,343,413,404,2025-05-27T22:44:46.724194
20186,-0.3235,0.8974,0.1947,0.315,-2.975,-1.050,369,424,365,413,400,2025-05-27T22:44:46.724194
20187,-0.3235,0.9013,0.1898,0.490,-3.045,-1.400,388,430,365,387,391,2025-05-27T22:44:46.724194
20188,-0.3265,0.9033,0.1893,0.595,-3.150,-1.750,402,441,364,399,383,2025-05-27T22:44:46.724194
20189,-0.3279,0.9077,0.1947,0.665,-3.150,-1.960,413,425,379,413,400,2025-05-27T22:44:46.724194
20190,-0.3333,0.9111,0.1889,0.630,-3.290,-1.960,345,433,389,406,418,2025-05-27T22:44:46.724194
20191,-0.3362,0.9145,0.1908,0.770,-3.605,-1.680,343,399,387,405,414,2025-05-27T22:44:46.724194
20192,-0.3362,0.9155,0.1889,0.840,-3.745,-1.225,371,417,394,396,402,2025-05-27T22:44:46.724194
20193,-0.3338,0.9194,0.1893,1.085,-3.220,-1.155,418,364,356,418,420,2025-05-27T22:44:46.724194
20194,-0.3318,0.9199,0.1903,1.085,-2.520,-0.945,343,385,371,391,395,2025-05-27T22:44:46.724194
20195,-0.3348,0.9209,0.1898,0.945,-2.240,-0.560,387,415,376,403,407,2025-05-27T22:44:46.897349
20196,-0.3367,0.9233,0.1874,1.015,-1.925,-0.700,407,423,380,420,400,2025-05-27T22:44:46.897349
20197,-0.3343,0.9277,0.1879,0.665,-1.820,-0.525,424,424,372,399,347,2025-05-27T22:44:46.897349
20198,-0.3421,0.9267,0.1869,0.385,-2.275,0.000,407,400,339,398,391,2025-05-27T22:44:46.897349
20199,-0.3406,0.9267,0.1874,0.140,-2.520,0.245,388,377,362,395,376,2025-05-27T22:44:46.897349
20200,-0.3440,0.9238,0.1889,-0.490,-2.380,0.455,378,404,349,410,382,2025-05-27T22:44:46.897349
20201,-0.3440,0.9233,0.1874,-0.910,-2.800,1.015,402,425,363,397,381,2025-05-27T22:44:46.897349
20202,-0.3421,0.9194,0.1864,-0.560,-3.395,1.540,410,411,358,392,393,2025-05-27T22:44:46.897349
20203,-0.3255,0.9218,0.1893,-0.525,-3.045,1.785,405,421,367,407,380,2025-05-27T22:44:46.897349
20204,-0.3231,0.9233,0.1957,-0.280,-2.170,1.785,432,403,378,391,382,2025-05-27T22:44:46.897349
20205,-0.3245,0.9160,0.1942,-0.175,-1.295,1.470,424,421,370,406,413,2025-05-27T22:44:46.897349
20206,-0.3250,0.9189,0.1967,0.175,-1.470,1.365,425,428,388,381,384,2025-05-27T22:44:46.897349
20207,-0.3250,0.9155,0.1952,0.315,-2.100,1.435,395,424,339,389,378,2025-05-27T22:44:46.897349
20208,-0.3304,0.9101,0.1884,0.980,-2.485,1.575,419,423,362,392,353,2025-05-27T22:44:46.897349
20209,-0.3294,0.9170,0.1932,0.945,-2.310,1.190,424,381,361,406,348,2025-05-27T22:44:46.898346
20210,-0.3309,0.9140,0.1903,0.315,-2.205,1.120,428,397,380,418,357,2025-05-27T22:44:46.898346
20211,-0.3338,0.9121,0.1928,0.210,-2.240,1.225,404,428,337,351,383,2025-05-27T22:44:46.898346
20212,-0.3328,0.9140,0.1889,0.105,-2.590,1.050,393,422,321,374,393,2025-05-27T22:44:46.898346
20213,-0.3279,0.9155,0.1874,-0.105,-2.660,1.155,391,403,341,379,403,2025-05-27T22:44:46.898346
20214,-0.3270,0.9170,0.1898,-0.525,-1.995,0.770,420,425,369,387,411,2025-05-27T22:44:46.898346
20215,-0.3294,0.9135,0.1859,-0.700,-1.715,0.700,405,390,376,393,392,2025-05-27T22:44:47.049477
20216,-0.3328,0.9121,0.1903,-0.700,-1.820,0.455,401,383,385,393,412,2025-05-27T22:44:47.049477
20217,-0.3357,0.9111,0.1908,-0.700,-2.030,0.525,344,404,354,421,400,2025-05-27T22:44:47.049477
20218,-0.3396,0.9096,0.1932,-0.700,-2.065,0.315,405,421,370,420,407,2025-05-27T22:44:47.049477
20219,-0.3387,0.9091,0.1952,-0.665,-2.310,0.105,423,402,370,404,354,2025-05-27T22:44:47.049477
20220,-0.3406,0.9048,0.1937,-0.490,-2.485,0.000,426,352,385,404,387,2025-05-27T22:44:47.049477
20221,-0.3411,0.9028,0.1932,-0.210,-2.310,-0.175,427,408,387,403,386,2025-05-27T22:44:47.049477
20222,-0.3411,0.9033,0.1957,-0.140,-2.240,-0.210,405,420,384,352,399,2025-05-27T22:44:47.049477
20223,-0.3406,0.9057,0.1981,-0.210,-2.170,-0.315,396,429,376,398,399,2025-05-27T22:44:47.049477
20224,-0.3445,0.9052,0.1991,-0.175,-2.170,-0.525,418,441,341,411,351,2025-05-27T22:44:47.049477
20225,-0.3396,0.9048,0.1972,0.105,-2.835,-0.560,400,408,370,411,363,2025-05-27T22:44:47.049477
20226,-0.3421,0.9067,0.2011,0.455,-3.430,-0.840,410,409,370,419,371,2025-05-27T22:44:47.049477
20227,-0.3392,0.9052,0.2011,0.525,-3.500,-1.400,418,424,383,404,398,2025-05-27T22:44:47.049477
20228,-0.3392,0.9087,0.2006,0.700,-3.080,-1.925,401,426,387,348,355,2025-05-27T22:44:47.049477
20229,-0.3440,0.9111,0.2011,0.665,-2.765,-1.960,396,369,373,391,334,2025-05-27T22:44:47.147410
20230,-0.3470,0.9135,0.1967,0.175,-2.835,-2.135,413,415,375,401,380,2025-05-27T22:44:47.147410
20231,-0.3509,0.9130,0.1923,0.000,-3.360,-2.170,419,397,377,396,347,2025-05-27T22:44:47.147410
20232,-0.3509,0.9145,0.1923,0.105,-4.165,-2.065,421,406,341,402,392,2025-05-27T22:44:47.147410
20233,-0.3465,0.9174,0.1937,-0.070,-4.340,-1.890,404,420,336,391,401,2025-05-27T22:44:47.147410
20234,-0.3455,0.9170,0.1932,-0.315,-3.955,-1.505,406,352,369,409,354,2025-05-27T22:44:47.147410
20235,-0.3431,0.9189,0.1913,-0.595,-3.500,-1.015,420,416,340,402,380,2025-05-27T22:44:47.147410
20236,-0.3494,0.9179,0.1957,-0.525,-3.395,-0.595,366,423,365,410,405,2025-05-27T22:44:47.147410
20237,-0.3504,0.9209,0.1981,-0.595,-3.675,-0.105,380,425,334,415,390,2025-05-27T22:44:47.306540
20238,-0.3475,0.9209,0.1942,-0.700,-4.235,0.210,391,414,355,391,391,2025-05-27T22:44:47.306727
20239,-0.3426,0.9204,0.1947,-0.980,-4.585,0.560,400,426,368,395,403,2025-05-27T22:44:47.306727
20240,-0.3318,0.9179,0.1918,-0.840,-4.410,0.910,412,426,368,369,394,2025-05-27T22:44:47.306727
20241,-0.3231,0.9218,0.1908,-0.525,-3.780,1.120,410,436,383,376,354,2025-05-27T22:44:47.307094
20242,-0.3221,0.9204,0.1913,-0.420,-2.870,1.085,417,409,381,399,384,2025-05-27T22:44:47.307287
20243,-0.3245,0.9194,0.1972,-0.315,-2.030,0.945,424,385,382,411,397,2025-05-27T22:44:47.307457
20244,-0.3333,0.9199,0.2025,-0.490,-1.890,0.595,400,404,390,414,408,2025-05-27T22:44:47.307457
20245,-0.3426,0.9184,0.2011,-1.050,-2.975,0.385,381,421,382,412,394,2025-05-27T22:44:47.307457
20246,-0.3499,0.9155,0.1986,-1.155,-4.620,0.315,391,415,386,393,383,2025-05-27T22:44:47.307457
20247,-0.3396,0.9150,0.1991,-1.260,-5.355,0.350,414,412,388,413,395,2025-05-27T22:44:47.307457
20248,-0.3372,0.9140,0.1996,-1.505,-5.005,0.525,410,428,388,360,350,2025-05-27T22:44:47.307457
20249,-0.3323,0.9140,0.1962,-1.680,-3.570,0.385,360,365,371,392,384,2025-05-27T22:44:47.307457
20250,-0.3343,0.9121,0.1957,-1.750,-2.240,0.630,386,429,377,344,387,2025-05-27T22:44:47.457135
20251,-0.3431,0.9121,0.2001,-1.925,-1.890,0.525,397,418,388,397,414,2025-05-27T22:44:47.457135
20252,-0.3509,0.9106,0.2015,-2.030,-2.485,0.700,363,392,350,410,318,2025-05-27T22:44:47.457135
20253,-0.3528,0.9101,0.2030,-2.100,-3.745,0.700,418,396,330,411,379,2025-05-27T22:44:47.457135
20254,-0.3450,0.9077,0.1967,-2.100,-4.375,0.490,393,402,356,412,382,2025-05-27T22:44:47.457135
20255,-0.3401,0.9082,0.1967,-1.995,-3.675,0.350,354,398,340,425,403,2025-05-27T22:44:47.457135
20256,-0.3421,0.9052,0.1962,-1.890,-2.870,0.070,392,412,359,398,365,2025-05-27T22:44:47.457135
20257,-0.3426,0.9082,0.2006,-1.645,-2.730,0.140,385,421,377,386,392,2025-05-27T22:44:47.457135
20258,-0.3436,0.9106,0.1986,-1.575,-2.310,0.245,396,361,369,379,402,2025-05-27T22:44:47.457135
20259,-0.3445,0.9101,0.1976,-1.960,-1.890,0.385,415,412,369,385,401,2025-05-27T22:44:47.457135
20260,-0.3431,0.9082,0.1947,-2.310,-1.715,0.525,341,336,332,392,411,2025-05-27T22:44:47.457135
20261,-0.3392,0.9052,0.1957,-2.765,-1.680,0.490,373,410,352,409,398,2025-05-27T22:44:47.457135
20262,-0.3416,0.9087,0.1986,-3.325,-1.820,0.385,391,415,362,409,346,2025-05-27T22:44:47.457135
20263,-0.3406,0.9062,0.2001,-3.640,-2.660,0.350,400,426,367,407,365,2025-05-27T22:44:47.711709
20264,-0.3406,0.9062,0.2059,-3.430,-3.815,0.245,410,411,365,398,340,2025-05-27T22:44:47.711709
20265,-0.3343,0.9082,0.2103,-3.220,-4.445,-0.070,400,411,361,392,382,2025-05-27T22:44:47.711709
20266,-0.3299,0.9052,0.2108,-2.800,-4.725,-0.280,397,422,376,401,399,2025-05-27T22:44:47.711709
20267,-0.3235,0.9067,0.2137,-2.345,-4.130,-0.560,392,412,372,381,390,2025-05-27T22:44:47.991944
20268,-0.3196,0.9052,0.2157,-1.645,-2.765,-0.735,429,428,381,399,388,2025-05-27T22:44:47.991944
20269,-0.3211,0.9072,0.2118,-1.085,-1.855,-0.560,391,422,377,398,348,2025-05-27T22:44:47.991944
20270,-0.3294,0.9082,0.2176,-0.700,-1.610,-0.490,408,373,367,385,367,2025-05-27T22:44:47.991944
20271,-0.3387,0.9111,0.2186,-0.350,-1.680,-0.525,410,392,382,409,393,2025-05-27T22:44:47.991944
20272,-0.3460,0.9121,0.2133,-0.210,-2.730,-0.315,405,420,311,405,407,2025-05-27T22:44:47.991944
20273,-0.3479,0.9106,0.2108,0.000,-4.025,0.000,417,401,352,373,394,2025-05-27T22:44:47.991944
20274,-0.3460,0.9106,0.2079,-0.105,-4.515,0.140,428,349,368,403,381,2025-05-27T22:44:47.991944
20275,-0.3372,0.9106,0.2020,-0.175,-4.410,0.455,412,362,386,418,348,2025-05-27T22:44:47.991944
20276,-0.3338,0.9111,0.1967,-0.175,-3.815,0.525,401,329,385,414,338,2025-05-27T22:44:47.991944
20277,-0.3323,0.9072,0.1976,-0.280,-2.660,0.350,395,379,383,389,389,2025-05-27T22:44:47.991944
20278,-0.3396,0.9072,0.1991,-0.490,-2.345,0.175,430,414,389,388,389,2025-05-27T22:44:47.991944
20279,-0.3416,0.9043,0.2035,-0.420,-2.835,0.105,422,406,390,361,397,2025-05-27T22:44:47.991944
20280,-0.3426,0.9043,0.2035,-0.735,-3.045,-0.280,415,393,372,336,386,2025-05-27T22:44:47.991944
20281,-0.3343,0.9057,0.2074,-1.120,-3.185,-0.350,408,407,379,383,392,2025-05-27T22:44:47.991944
20282,-0.3357,0.9091,0.2069,-1.540,-3.360,-0.595,365,422,394,388,393,2025-05-27T22:44:47.991944
20283,-0.3357,0.9048,0.2059,-1.575,-3.465,-0.875,386,422,385,393,388,2025-05-27T22:44:47.991944
20284,-0.3401,0.9057,0.2084,-1.610,-3.815,-0.875,414,388,357,387,402,2025-05-27T22:44:47.991944
20285,-0.3372,0.9062,0.2089,-1.505,-4.340,-0.840,369,410,364,412,356,2025-05-27T22:44:47.991944
20286,-0.3343,0.9018,0.2074,-1.085,-4.025,-0.700,419,423,363,416,335,2025-05-27T22:44:47.991944
20287,-0.3304,0.9048,0.2191,-0.525,-2.905,-0.840,419,400,331,396,322,2025-05-27T22:44:47.991944
20288,-0.3338,0.9072,0.2216,-0.735,-1.925,-1.120,377,416,358,398,386,2025-05-27T22:44:47.991944
20289,-0.3426,0.9048,0.2206,-0.770,-2.135,-1.225,369,423,361,406,405,2025-05-27T22:44:47.991944
20290,-0.3494,0.9096,0.2196,-0.385,-3.220,-1.155,405,348,366,376,353,2025-05-27T22:44:47.991944
20291,-0.3528,0.9077,0.2181,0.000,-4.935,-1.015,417,334,389,374,388,2025-05-27T22:44:47.991944
20292,-0.3450,0.9091,0.2152,0.070,-5.880,-0.770,364,416,388,392,406,2025-05-27T22:44:47.991944
20293,-0.3348,0.9087,0.2118,0.140,-5.355,-0.420,372,342,393,341,395,2025-05-27T22:44:47.991944
20294,-0.3299,0.9067,0.2074,0.070,-4.165,-0.350,409,385,387,377,390,2025-05-27T22:44:47.991944
20295,-0.3309,0.9082,0.2108,0.140,-3.115,-0.105,405,412,380,402,404,2025-05-27T22:44:47.991944
20296,-0.3392,0.9067,0.2176,0.385,-3.010,0.175,390,427,376,348,356,2025-05-27T22:44:47.991944
20297,-0.3362,0.9111,0.2162,0.245,-3.115,0.420,398,414,342,380,358,2025-05-27T22:44:47.991944
20298,-0.3353,0.9067,0.2059,0.175,-3.605,0.315,404,428,372,352,382,2025-05-27T22:44:47.991944
20299,-0.3328,0.9062,0.2050,0.665,-4.130,0.175,344,417,336,293,391,2025-05-27T22:44:47.991944
20300,-0.3294,0.9077,0.2040,0.735,-4.165,0.000,379,422,369,362,394,2025-05-27T22:44:47.991944
20301,-0.3270,0.9062,0.2025,0.525,-3.640,-0.385,408,353,365,383,396,2025-05-27T22:44:47.991944
20302,-0.3274,0.9091,0.2079,0.420,-2.975,-0.910,372,405,359,402,356,2025-05-27T22:44:47.991944
20303,-0.3396,0.9023,0.2113,0.105,-3.010,-1.120,351,409,379,407,391,2025-05-27T22:44:47.991944
20304,-0.3436,0.8965,0.2157,-0.105,-4.095,-0.910,378,426,380,383,394,2025-05-27T22:44:47.991944
20305,-0.3445,0.8989,0.2181,-0.280,-5.110,-0.770,363,407,384,391,382,2025-05-27T22:44:47.991944
20306,-0.3372,0.8979,0.2147,-0.175,-5.075,-0.805,389,391,380,406,350,2025-05-27T22:44:48.112283
20307,-0.3279,0.8955,0.2176,-0.105,-4.375,-0.910,407,410,386,405,386,2025-05-27T22:44:48.112283
20308,-0.3260,0.8950,0.2206,0.175,-3.745,-1.085,359,391,373,406,398,2025-05-27T22:44:48.112283
20309,-0.3284,0.8901,0.2250,0.420,-3.115,-1.295,336,419,368,355,387,2025-05-27T22:44:48.112283
20310,-0.3323,0.8901,0.2255,0.980,-3.325,-1.680,380,385,375,398,385,2025-05-27T22:44:48.112283
20311,-0.3304,0.8794,0.2235,1.470,-3.850,-2.170,392,401,369,384,398,2025-05-27T22:44:48.112283
20312,-0.3377,0.8721,0.2211,1.855,-4.375,-2.905,409,413,380,376,388,2025-05-27T22:44:48.112283
20313,-0.3367,0.8657,0.2216,2.485,-4.935,-3.640,403,430,384,384,407,2025-05-27T22:44:48.112283
20314,-0.3387,0.8613,0.2245,2.835,-5.425,-4.095,404,421,387,378,313,2025-05-27T22:44:48.112283
20315,-0.3367,0.8569,0.2279,3.465,-5.355,-4.725,395,417,342,400,340,2025-05-27T22:44:48.112283
20316,-0.3318,0.8545,0.2308,3.815,-5.355,-5.460,411,412,354,414,289,2025-05-27T22:44:48.112283
20317,-0.3362,0.8511,0.2298,5.320,-5.600,-6.405,387,417,354,414,371,2025-05-27T22:44:48.112283
20318,-0.3177,0.8574,0.2176,6.475,-4.795,-6.965,412,382,377,404,389,2025-05-27T22:44:48.273652
20319,-0.3026,0.8618,0.2196,6.615,-2.905,-8.470,413,427,384,413,386,2025-05-27T22:44:48.273652
20320,-0.3250,0.8799,0.2118,8.645,-1.435,-8.470,404,366,377,416,359,2025-05-27T22:44:48.273652
20321,-0.3309,0.8667,0.2045,9.660,0.035,-7.280,338,342,374,355,380,2025-05-27T22:44:48.273652
20322,-0.3187,0.8467,0.2025,13.230,2.030,-6.615,376,370,349,379,397,2025-05-27T22:44:48.273652
20323,-0.3235,0.8955,0.2113,13.125,6.615,-4.795,421,410,377,390,393,2025-05-27T22:44:48.273652
20324,-0.2982,0.8701,0.2147,17.780,17.640,-1.120,413,419,383,380,388,2025-05-27T22:44:48.273652
20325,-0.3494,0.8345,0.2196,33.635,25.305,3.150,403,403,385,408,415,2025-05-27T22:44:48.273652
20326,-0.3972,0.7891,0.1357,40.425,27.090,7.700,415,420,386,400,417,2025-05-27T22:44:48.273652
20327,-0.3353,0.8477,0.2547,45.290,35.805,5.005,413,415,381,414,420,2025-05-27T22:44:48.273652
20328,-0.3079,0.8154,0.2245,41.440,45.150,4.760,402,437,384,425,418,2025-05-27T22:44:48.273652
20329,-0.3338,0.7066,0.1479,36.890,53.550,6.195,423,424,357,399,415,2025-05-27T22:44:48.273652
20330,-0.3553,0.6788,0.1869,33.425,47.495,7.560,419,410,375,394,407,2025-05-27T22:44:48.273652
20331,-0.3167,0.6803,0.1054,30.450,37.205,7.630,406,420,385,394,405,2025-05-27T22:44:48.273652
20332,-0.3172,0.5783,0.1186,29.470,31.395,8.855,415,400,386,351,399,2025-05-27T22:44:48.381106
20333,-0.2933,0.5851,0.1088,28.490,21.490,6.685,410,418,353,391,352,2025-05-27T22:44:48.381106
20334,-0.1039,0.5441,0.0712,22.610,19.005,1.750,401,396,294,379,378,2025-05-27T22:44:48.381106
20335,-0.0278,0.4753,0.0400,15.960,32.725,-4.655,414,423,340,408,387,2025-05-27T22:44:48.381106
20336,0.1215,0.4548,0.0156,10.605,60.935,-12.110,402,409,362,416,392,2025-05-27T22:44:48.381106
20337,0.2367,0.3972,-0.0361,11.515,93.590,-12.880,362,360,380,359,339,2025-05-27T22:44:48.381106
20338,0.1991,0.2996,-0.0869,18.690,125.160,-13.265,408,416,352,382,388,2025-05-27T22:44:48.381106
20339,0.2635,0.3128,-0.0439,35.805,154.420,-13.370,354,410,382,346,400,2025-05-27T22:44:48.381106
20340,0.2982,0.4046,0.0259,45.115,182.035,-18.935,381,421,384,372,354,2025-05-27T22:44:48.528154
20341,0.2708,0.4392,0.0244,49.315,217.910,-27.195,392,404,355,331,386,2025-05-27T22:44:48.528154
20342,0.2123,0.5036,0.0156,57.155,239.260,-35.595,422,380,365,372,394,2025-05-27T22:44:48.529153
20343,0.3030,0.5422,-0.0181,70.665,244.020,-48.195,428,375,366,404,394,2025-05-27T22:44:48.529153
20344,0.3743,0.5612,-0.0864,82.495,259.840,-61.600,405,383,375,395,380,2025-05-27T22:44:48.529153
20345,0.3933,0.5793,-0.1957,96.005,291.130,-71.225,402,397,372,406,390,2025-05-27T22:44:48.529153
20346,0.3767,0.6163,-0.2357,117.530,313.530,-81.445,414,400,370,411,398,2025-05-27T22:44:48.529153
20347,0.3655,0.6446,-0.3362,141.225,320.285,-90.090,301,384,389,402,395,2025-05-27T22:44:48.529153
20348,0.3226,0.8023,-0.4231,169.960,326.130,-101.955,364,410,352,391,347,2025-05-27T22:44:48.529153
20349,0.4197,1.0243,-0.5866,204.295,331.450,-109.655,405,406,297,383,370,2025-05-27T22:44:48.529153
20350,0.5754,1.2815,-0.9296,233.485,342.545,-116.970,392,359,337,382,398,2025-05-27T22:44:48.529153
20351,0.7003,1.5904,-1.2693,258.965,366.940,-113.680,410,371,360,419,352,2025-05-27T22:44:48.529153
20352,0.8174,1.9598,-1.6080,272.160,395.150,-105.840,377,388,340,355,376,2025-05-27T22:44:48.688917
20353,0.8018,2.2414,-1.8920,266.700,415.765,-93.660,378,427,369,395,387,2025-05-27T22:44:48.688917
20354,0.6744,2.6533,-1.9730,234.465,421.435,-90.825,387,418,339,406,390,2025-05-27T22:44:48.688917
20355,0.4416,3.0607,-1.9984,173.145,408.695,-100.730,390,400,367,406,398,2025-05-27T22:44:48.688917
20356,0.2782,3.5175,-1.9569,82.285,357.035,-128.765,339,402,341,410,391,2025-05-27T22:44:48.688917
20357,0.2025,3.6605,-2.1843,-10.325,289.835,-143.675,383,393,354,362,406,2025-05-27T22:44:48.688917
20358,0.2220,3.6014,-2.6059,-88.900,219.065,-139.580,398,341,369,397,407,2025-05-27T22:44:48.688917
20359,0.2996,3.4463,-3.0110,-151.375,185.045,-122.115,413,414,342,360,399,2025-05-27T22:44:48.688917
20360,0.4768,3.1261,-3.3687,-213.745,200.655,-94.920,408,349,363,374,414,2025-05-27T22:44:48.688917
20361,0.3548,2.5859,-3.8396,-279.930,268.135,-74.480,402,406,369,411,393,2025-05-27T22:44:48.688917
20362,-0.1332,1.9427,-3.9640,-328.055,335.230,-59.360,413,343,369,350,388,2025-05-27T22:44:48.688917
20363,-0.7022,1.1395,-3.8737,-365.435,318.920,-49.070,352,412,341,393,389,2025-05-27T22:44:48.690230
20364,-1.2668,0.2123,-3.5604,-389.095,257.985,-53.375,375,413,368,368,392,2025-05-27T22:44:48.690342
20365,-1.6455,-0.8125,-3.1037,-385.980,134.645,-39.970,367,407,381,379,391,2025-05-27T22:44:48.791229
20366,-1.4542,-1.4137,-2.3873,-366.835,27.160,-6.370,328,374,392,407,388,2025-05-27T22:44:48.791229
20367,-0.7774,-2.3258,-1.8773,-338.660,-1.085,22.260,400,410,383,423,404,2025-05-27T22:44:48.791229
20368,-0.0249,-3.1681,-1.3196,-300.090,79.275,18.690,403,432,385,423,398,2025-05-27T22:44:48.791229
20369,-0.3987,-3.9948,-0.5485,-243.950,197.540,-9.170,356,370,378,398,414,2025-05-27T22:44:48.791229
20370,-1.3806,-4.2329,0.2669,-162.470,189.140,-30.345,405,411,379,415,404,2025-05-27T22:44:48.791229
20371,-1.6275,-4.1216,0.6163,-85.540,5.915,-32.375,394,422,384,359,390,2025-05-27T22:44:48.791229
20372,-1.1844,-3.6376,0.6817,17.500,-136.010,-41.615,421,406,384,391,393,2025-05-27T22:44:48.791229
20373,-0.6803,-2.8172,0.5807,98.315,-167.230,-41.160,415,427,373,343,402,2025-05-27T22:44:48.791229
20374,-0.3577,-2.0052,0.3343,159.355,-73.745,-38.675,407,417,375,372,417,2025-05-27T22:44:49.096192
20375,-0.2386,-1.1814,-0.0439,209.965,-6.335,-33.355,405,420,386,392,410,2025-05-27T22:44:49.096192
20376,-0.4319,-0.4133,-0.3650,241.500,21.140,-25.795,415,345,372,406,413,2025-05-27T22:44:49.096192
20377,-0.7208,0.4275,-0.6100,250.180,13.440,-22.995,420,409,374,401,406,2025-05-27T22:44:49.096192
20378,-0.9106,1.0316,-0.8150,247.310,-22.715,-15.470,426,429,371,416,371,2025-05-27T22:44:49.096192
20379,-0.8594,1.4640,-1.1122,240.940,-95.235,-10.010,391,431,385,404,388,2025-05-27T22:44:49.096192
20380,-0.6403,1.7129,-1.4528,223.580,-163.660,-6.125,420,431,383,391,382,2025-05-27T22:44:49.096192
20381,-0.3640,1.7534,-1.8163,202.965,-178.185,1.890,421,427,385,386,346,2025-05-27T22:44:49.096192
20382,-0.0063,1.8134,-2.0110,178.885,-150.675,7.700,420,404,355,391,377,2025-05-27T22:44:49.096192
20383,0.2274,1.8925,-1.9261,147.000,-87.815,10.745,408,396,362,407,398,2025-05-27T22:44:49.096192
20384,-0.0854,1.8666,-1.6314,113.505,-43.085,16.170,425,413,372,414,350,2025-05-27T22:44:49.096192
20385,-0.4148,1.8505,-1.5455,88.795,-64.925,20.440,403,416,352,306,390,2025-05-27T22:44:49.096192
20386,-0.6046,1.8471,-1.4333,76.055,-140.840,19.320,421,347,365,375,406,2025-05-27T22:44:49.096192
20387,-0.6642,1.7963,-1.3620,59.045,-206.640,19.215,382,414,384,405,415,2025-05-27T22:44:49.096192
20388,-0.6617,1.7436,-1.3522,39.725,-251.475,19.390,396,393,345,391,391,2025-05-27T22:44:49.096192
20389,-0.5719,1.6782,-1.4103,23.660,-294.700,20.720,393,428,363,395,397,2025-05-27T22:44:49.096192
20390,-0.2796,1.5997,-1.4416,7.070,-318.850,24.080,341,410,381,401,389,2025-05-27T22:44:49.096192
20391,-0.1118,1.5299,-1.3703,-11.655,-283.815,27.125,403,400,377,389,376,2025-05-27T22:44:49.096192
20392,-0.1713,1.4289,-1.2742,-26.075,-233.485,33.915,355,385,373,411,390,2025-05-27T22:44:49.096192
20393,-0.3792,1.3371,-1.1068,-35.140,-221.725,41.650,393,405,379,400,404,2025-05-27T22:44:49.257052
20394,-0.6256,1.2346,-0.9560,-43.715,-248.395,47.950,418,402,391,411,398,2025-05-27T22:44:49.257052
20395,-0.7867,1.1536,-0.8545,-49.420,-290.570,52.780,407,429,375,400,399,2025-05-27T22:44:49.257052
20396,-0.7369,1.0716,-0.8725,-52.745,-347.585,57.680,403,404,351,397,402,2025-05-27T22:44:49.257052
20397,-0.4699,1.0170,-0.9155,-53.480,-382.340,63.385,416,406,380,415,414,2025-05-27T22:44:49.257052
20398,-0.2777,0.9404,-0.9389,-55.475,-380.765,65.905,419,413,382,404,381,2025-05-27T22:44:49.257052
20399,-0.1327,0.8769,-0.9404,-55.265,-358.715,67.165,391,418,348,409,403,2025-05-27T22:44:49.257052
20400,-0.0342,0.8237,-0.9096,-54.985,-328.405,67.830,413,413,363,411,352,2025-05-27T22:44:49.257052
20401,-0.0756,0.7671,-0.8418,-55.720,-302.190,68.355,423,402,384,365,361,2025-05-27T22:44:49.257052
20402,-0.1542,0.7369,-0.7413,-56.980,-276.990,66.010,422,393,380,383,370,2025-05-27T22:44:49.257052
20403,-0.2274,0.7115,-0.6251,-57.435,-269.290,63.525,401,401,382,347,336,2025-05-27T22:44:49.257052
20404,-0.2865,0.6910,-0.5627,-57.540,-276.920,62.580,417,400,386,377,364,2025-05-27T22:44:49.257052
20405,-0.2377,0.6812,-0.5231,-57.890,-285.075,59.955,392,408,363,375,397,2025-05-27T22:44:49.257052
20406,-0.1030,0.6666,-0.5046,-53.515,-282.240,54.915,419,430,366,361,402,2025-05-27T22:44:49.257052
20407,-0.0527,0.6403,-0.4773,-51.625,-262.115,48.440,430,421,369,384,415,2025-05-27T22:44:49.257052
20408,-0.0283,0.6622,-0.3919,-50.085,-234.535,38.745,397,419,370,387,391,2025-05-27T22:44:49.257052
20409,-0.0259,0.6764,-0.3314,-49.035,-224.770,32.270,420,430,375,404,354,2025-05-27T22:44:49.257052
20410,-0.0444,0.6998,-0.2674,-47.425,-212.555,29.365,390,386,376,308,289,2025-05-27T22:44:49.257052
20411,-0.0693,0.7471,-0.2377,-45.710,-202.125,24.465,417,407,374,374,370,2025-05-27T22:44:49.257052
20412,-0.0737,0.7720,-0.1620,-44.450,-193.060,18.900,361,410,346,391,394,2025-05-27T22:44:49.509105
20413,-0.0346,0.7837,-0.1327,-44.135,-180.880,17.325,399,424,320,403,389,2025-05-27T22:44:49.509105
20414,0.0073,0.8223,-0.0947,-44.205,-164.570,14.280,415,415,348,401,397,2025-05-27T22:44:49.509105
20415,0.0166,0.8672,-0.0283,-44.450,-147.000,12.950,398,434,331,391,349,2025-05-27T22:44:49.509105
20416,0.0142,0.8662,0.0556,-45.220,-129.290,11.515,422,419,348,386,375,2025-05-27T22:44:49.509105
20417,-0.0127,0.8799,0.0547,-42.875,-119.700,9.695,404,440,328,397,372,2025-05-27T22:44:50.240306
20418,-0.0610,0.8721,0.1078,-38.465,-113.435,9.100,408,383,362,359,381,2025-05-27T22:44:50.240306
20419,-0.0493,0.8764,0.1298,-33.110,-109.340,11.095,415,408,368,401,399,2025-05-27T22:44:50.241307
20420,-0.0517,0.8721,0.1386,-29.645,-106.015,11.620,425,397,380,415,381,2025-05-27T22:44:50.241307
20421,0.0229,0.8613,0.1425,-25.655,-93.590,10.955,393,420,387,393,387,2025-05-27T22:44:50.241307
20422,0.0459,0.8457,0.1381,-23.100,-72.240,11.410,406,408,381,387,383,2025-05-27T22:44:50.241307
20423,0.0312,0.8525,0.1449,-19.915,-50.820,11.340,417,389,378,365,400,2025-05-27T22:44:50.241307
20424,-0.0273,0.8257,0.1684,-18.200,-36.540,10.535,402,362,389,402,412,2025-05-27T22:44:50.241307
20425,-0.0639,0.8189,0.1732,-14.595,-24.430,10.570,410,396,359,406,407,2025-05-27T22:44:50.241307
20426,-0.1166,0.8208,0.1972,-12.110,-17.780,10.080,397,411,358,354,394,2025-05-27T22:44:50.241307
20427,-0.1581,0.8169,0.1996,-9.870,-16.765,9.275,391,421,373,383,406,2025-05-27T22:44:50.241307
20428,-0.1898,0.7969,0.1884,-8.470,-18.445,9.275,408,412,337,381,413,2025-05-27T22:44:50.241307
20429,-0.1830,0.7989,0.1962,-6.895,-19.600,8.715,392,435,362,372,413,2025-05-27T22:44:50.241307
20430,-0.1850,0.8032,0.2064,-5.460,-20.860,8.050,396,428,331,375,388,2025-05-27T22:44:50.241307
20431,-0.1771,0.7925,0.2089,-5.285,-21.595,7.875,350,401,349,339,384,2025-05-27T22:44:50.241307
20432,-0.1518,0.8037,0.1942,-2.730,-20.055,6.895,362,411,371,382,393,2025-05-27T22:44:50.241307
20433,-0.1562,0.7984,0.1893,-1.470,-16.555,5.740,393,400,338,338,401,2025-05-27T22:44:50.241307
20434,-0.1396,0.8213,0.1893,0.210,-9.415,3.710,409,401,351,368,389,2025-05-27T22:44:50.241307
20435,-0.1708,0.8257,0.1976,1.470,-1.820,2.555,395,405,358,295,382,2025-05-27T22:44:50.241307
20436,-0.1825,0.8584,0.2235,2.380,4.130,0.595,413,396,378,387,402,2025-05-27T22:44:50.241307
20437,-0.2069,0.8769,0.2367,2.135,6.405,-1.260,407,414,373,341,393,2025-05-27T22:44:50.241307
20438,-0.2396,0.8838,0.2362,1.925,6.685,-1.750,394,436,344,355,340,2025-05-27T22:44:50.241307
20439,-0.2772,0.8945,0.3743,2.660,3.815,-2.940,365,411,363,394,390,2025-05-27T22:44:50.241307
20440,-0.2977,0.9106,0.2660,3.430,-2.380,-3.220,335,392,301,386,404,2025-05-27T22:44:50.241307
20441,-0.2938,0.9301,0.2796,3.535,-7.665,-2.555,335,406,340,414,407,2025-05-27T22:44:50.241307
20442,-0.2767,0.9521,0.2791,3.535,-10.710,-1.680,403,341,367,413,407,2025-05-27T22:44:50.241307
20443,-0.2499,0.9633,0.2733,3.325,-8.015,-1.190,410,419,377,409,382,2025-05-27T22:44:50.241307
20444,-0.2445,0.9828,0.2821,2.345,-1.820,-0.700,415,406,393,414,363,2025-05-27T22:44:50.241307
20445,-0.2645,0.9902,0.2713,2.485,4.200,0.000,388,382,348,358,342,2025-05-27T22:44:50.241307
20446,-0.2928,0.9833,0.2645,1.155,7.630,0.735,369,336,332,346,369,2025-05-27T22:44:50.241307
20447,-0.3250,0.9843,0.2713,1.015,9.135,1.540,378,377,348,353,384,2025-05-27T22:44:50.241307
20448,-0.3421,0.9853,0.2718,-0.385,7.770,2.520,361,399,366,398,396,2025-05-27T22:44:50.241307
20449,-0.3582,0.9721,0.2645,-1.750,4.935,4.375,416,344,349,408,403,2025-05-27T22:44:50.241307
20450,-0.3572,0.9604,0.2601,-2.030,1.680,6.090,343,327,356,369,385,2025-05-27T22:44:50.241307
20451,-0.3699,0.9516,0.2606,-2.730,-1.260,7.280,399,373,356,339,386,2025-05-27T22:44:50.241307
20452,-0.3631,0.9462,0.2577,-4.025,-4.515,8.015,355,415,375,393,405,2025-05-27T22:44:50.241307
20453,-0.3533,0.9374,0.2538,-5.285,-6.790,8.260,331,426,385,406,390,2025-05-27T22:44:50.241307
20454,-0.3318,0.9321,0.2435,-6.685,-7.350,8.260,400,408,385,401,397,2025-05-27T22:44:50.243523
20455,-0.3231,0.9111,0.2274,-7.175,-6.090,8.120,402,417,386,398,408,2025-05-27T22:44:50.243523
20456,-0.3226,0.8950,0.2240,-6.615,-5.110,7.735,410,409,375,408,356,2025-05-27T22:44:50.243523
20457,-0.3157,0.8808,0.2284,-5.530,-4.445,7.210,341,398,377,396,383,2025-05-27T22:44:50.243523
20458,-0.3099,0.8725,0.2391,-4.900,-3.990,6.650,377,391,385,380,366,2025-05-27T22:44:50.243523
20459,-0.2991,0.8652,0.2464,-4.690,-3.570,6.055,403,394,389,388,380,2025-05-27T22:44:50.243523
20460,-0.3109,0.8496,0.2518,-3.920,-4.550,5.250,410,405,378,395,388,2025-05-27T22:44:50.243523
20461,-0.3021,0.8516,0.2586,-3.080,-5.950,3.920,424,396,344,413,406,2025-05-27T22:44:50.243523
20462,-0.2743,0.8555,0.2557,-2.660,-5.040,2.835,430,360,361,417,389,2025-05-27T22:44:50.243523
20463,-0.2708,0.8550,0.2494,-2.205,-0.280,1.505,404,416,380,374,406,2025-05-27T22:44:50.243523
20464,-0.2865,0.8652,0.2547,-1.785,3.745,-0.175,377,400,346,401,418,2025-05-27T22:44:50.243523
20465,-0.3128,0.8725,0.2660,-1.470,3.535,-1.015,371,419,357,396,397,2025-05-27T22:44:50.243523
20466,-0.3318,0.8808,0.2738,-1.155,1.820,-1.750,412,418,372,402,363,2025-05-27T22:44:50.243523
20467,-0.3401,0.8760,0.2767,-0.630,-1.645,-1.750,421,402,340,372,398,2025-05-27T22:44:50.243523
20468,-0.3411,0.8799,0.2733,0.315,-5.530,-1.435,392,380,364,364,403,2025-05-27T22:44:50.243523
20469,-0.3192,0.8886,0.2718,0.280,-5.880,-1.435,424,365,334,401,396,2025-05-27T22:44:50.243523
20470,-0.3148,0.8935,0.2694,-0.070,-3.640,-1.365,305,405,317,400,351,2025-05-27T22:44:50.243523
20471,-0.3079,0.9023,0.2743,-0.420,-2.100,-1.400,390,427,308,421,388,2025-05-27T22:44:50.243523
20472,-0.3035,0.9111,0.2743,-1.155,0.070,-1.260,389,426,346,402,354,2025-05-27T22:44:50.243523
20473,-0.3001,0.9116,0.2718,-1.785,3.290,-1.050,413,428,374,419,387,2025-05-27T22:44:50.243523
20474,-0.2943,0.9106,0.2655,-1.680,6.545,-0.875,408,443,383,400,410,2025-05-27T22:44:50.243523
20475,-0.3187,0.9101,0.2733,-1.225,8.155,-1.260,424,427,389,411,416,2025-05-27T22:44:50.243523
20476,-0.3240,0.9199,0.2928,-1.505,7.805,-1.400,428,428,399,412,417,2025-05-27T22:44:50.243523
20477,-0.3494,0.9150,0.2952,-1.645,5.355,-1.260,408,362,393,396,379,2025-05-27T22:44:50.243523
20478,-0.3470,0.9116,0.2962,-1.365,1.715,-0.875,389,380,381,342,396,2025-05-27T22:44:50.243523
20479,-0.3377,0.9130,0.3016,-1.680,-2.415,-0.700,386,394,384,372,409,2025-05-27T22:44:50.244565
20480,-0.3123,0.9101,0.2845,-2.135,-4.970,0.000,402,406,377,386,371,2025-05-27T22:44:50.244565
20481,-0.2928,0.9072,0.2694,-2.135,-4.620,-0.980,404,426,374,404,402,2025-05-27T22:44:50.244565
20482,-0.2684,0.9199,0.2733,-2.415,-1.750,-1.715,427,421,384,421,397,2025-05-27T22:44:50.244565
20483,-0.2679,0.9292,0.2786,-3.395,1.540,-1.960,421,404,390,425,392,2025-05-27T22:44:50.244565
20484,-0.2796,0.9296,0.2767,-4.305,4.130,-2.660,370,419,391,416,405,2025-05-27T22:44:50.244565
20485,-0.3021,0.9350,0.2879,-5.040,5.250,-2.660,385,413,345,352,406,2025-05-27T22:44:50.244565
20486,-0.3211,0.9257,0.2938,-5.565,2.555,-2.170,402,430,359,380,402,2025-05-27T22:44:50.244565
20487,-0.3284,0.9135,0.2865,-4.235,-2.800,-0.665,407,423,375,387,408,2025-05-27T22:44:50.244565
20488,-0.3104,0.9243,0.2865,-3.920,-4.655,-0.175,428,405,377,384,413,2025-05-27T22:44:50.244565
20489,-0.2884,0.9287,0.2801,-4.655,-2.975,0.105,422,406,392,405,415,2025-05-27T22:44:50.244565
20490,-0.2869,0.9326,0.2704,-5.810,-1.120,-0.210,416,385,382,308,362,2025-05-27T22:44:50.244565
20491,-0.2869,0.9267,0.2616,-6.615,1.085,-0.420,357,390,370,381,395,2025-05-27T22:44:50.244565
20492,-0.3001,0.9287,0.2586,-7.910,2.975,-0.420,404,363,375,393,390,2025-05-27T22:44:50.244565
20493,-0.3011,0.9160,0.2577,-8.365,3.885,-0.280,411,412,345,384,406,2025-05-27T22:44:50.244565
20494,-0.3118,0.8989,0.2518,-8.330,4.900,0.035,403,430,377,406,420,2025-05-27T22:44:50.244565
20495,-0.3138,0.8926,0.2591,-8.085,7.035,-0.070,427,402,374,408,406,2025-05-27T22:44:50.423337
20496,-0.3314,0.8804,0.2684,-7.735,7.105,0.035,418,377,378,393,409,2025-05-27T22:44:50.423337
20497,-0.3509,0.8599,0.2777,-7.000,3.570,0.420,413,396,386,396,399,2025-05-27T22:44:50.423337
20498,-0.3460,0.8369,0.2801,-6.370,-0.735,0.665,411,419,372,368,352,2025-05-27T22:44:50.423337
20499,-0.3206,0.8086,0.2757,-6.055,-2.940,1.505,420,421,365,391,391,2025-05-27T22:44:50.423337
20500,-0.3026,0.7471,0.2616,-5.705,-3.850,2.310,425,416,365,410,416,2025-05-27T22:44:50.423337
20501,-0.2582,0.6847,0.2508,-5.215,-1.680,3.920,404,406,372,419,416,2025-05-27T22:44:50.423337
20502,-0.2323,0.5549,0.2352,-3.325,2.240,5.110,430,304,338,421,391,2025-05-27T22:44:50.423337
20503,-0.1396,0.3743,0.1972,-0.630,8.050,5.425,428,389,365,396,411,2025-05-27T22:44:50.423337
20504,0.0010,0.1664,0.1254,4.515,18.165,3.290,434,430,374,352,411,2025-05-27T22:44:50.423337
20505,0.1113,-0.0381,0.0478,11.200,39.830,-1.575,431,411,368,387,411,2025-05-27T22:44:50.423337
20506,0.3021,-0.2035,-0.0464,19.635,68.285,-9.450,421,422,376,350,413,2025-05-27T22:44:50.423337
20507,0.4812,-0.3231,-0.1035,31.465,102.550,-18.480,422,420,370,405,418,2025-05-27T22:44:50.423337
20508,0.5861,-0.3758,-0.1488,40.845,138.040,-31.045,425,430,384,411,411,2025-05-27T22:44:50.423337
20509,0.6510,-0.3933,-0.1654,57.085,173.495,-47.670,433,400,385,400,358,2025-05-27T22:44:50.423337
20510,0.6515,-0.3196,-0.1381,80.220,202.580,-61.845,419,427,370,343,386,2025-05-27T22:44:50.565218
20511,0.6490,-0.1742,-0.1366,109.725,218.225,-79.870,412,406,383,392,411,2025-05-27T22:44:50.565218
20512,0.6822,0.0971,-0.1440,139.300,242.760,-102.060,406,361,370,349,386,2025-05-27T22:44:50.565218
20513,0.6647,0.2933,-0.1703,168.455,276.185,-117.635,385,397,370,378,406,2025-05-27T22:44:50.565218
20514,0.7139,0.5617,-0.2201,188.580,307.615,-125.615,399,389,370,384,370,2025-05-27T22:44:50.565218
20515,0.7652,0.7237,-0.4372,197.645,342.930,-131.880,419,341,374,343,398,2025-05-27T22:44:50.565218
20516,0.7915,1.0409,-0.6290,206.465,398.440,-134.960,412,406,392,354,391,2025-05-27T22:44:50.565218
20517,0.6998,1.3601,-1.0277,219.030,458.885,-132.405,421,335,375,371,396,2025-05-27T22:44:50.565218
20518,0.5988,1.8012,-1.4347,228.900,515.690,-128.240,431,403,375,393,388,2025-05-27T22:44:50.565218
20519,0.3909,2.3380,-1.7817,228.865,559.125,-120.645,416,374,353,386,406,2025-05-27T22:44:50.565218
20520,0.1269,2.7552,-2.1023,210.315,590.310,-114.065,419,421,353,390,398,2025-05-27T22:44:50.565218
20521,-0.2401,3.0710,-2.4180,176.925,588.035,-108.640,386,425,359,344,411,2025-05-27T22:44:50.565218
20522,-0.4309,3.2384,-2.7216,133.595,551.005,-105.665,390,404,339,389,416,2025-05-27T22:44:50.732236
20523,-0.5714,3.2589,-3.0783,80.500,471.625,-100.450,422,438,352,351,398,2025-05-27T22:44:50.732236
20524,-0.5309,3.3008,-3.2789,15.645,390.180,-99.575,433,430,360,397,394,2025-05-27T22:44:50.732236
20525,-0.3445,3.3067,-3.4550,-61.670,334.460,-99.190,346,422,342,411,399,2025-05-27T22:44:50.732236
20526,-0.0727,3.2262,-3.4843,-147.980,299.460,-100.415,404,306,363,395,400,2025-05-27T22:44:50.732236
20527,0.0610,2.9382,-3.4536,-213.920,287.420,-100.765,408,405,366,414,401,2025-05-27T22:44:50.732236
20528,-0.1654,2.5747,-3.1696,-282.100,275.205,-97.195,401,430,368,420,354,2025-05-27T22:44:50.732236
20529,-0.4187,2.1589,-2.9417,-334.460,247.695,-85.015,420,427,374,421,388,2025-05-27T22:44:50.732236
20530,-0.6027,1.6699,-2.7567,-366.415,196.700,-69.335,423,427,372,417,393,2025-05-27T22:44:50.732236
20531,-0.7252,1.2434,-2.5317,-385.875,154.770,-45.535,431,423,379,349,376,2025-05-27T22:44:50.732236
20532,-0.8008,0.4953,-2.3595,-390.565,135.765,-17.115,432,430,374,393,394,2025-05-27T22:44:50.732236
20533,-0.8320,-0.2718,-2.0662,-380.100,129.255,2.485,438,414,343,404,415,2025-05-27T22:44:50.732236
20534,-0.6983,-1.2390,-1.7529,-346.640,124.600,21.875,415,411,358,411,399,2025-05-27T22:44:50.732236
20535,-0.5261,-2.1931,-1.3869,-305.620,129.185,34.895,338,408,373,416,392,2025-05-27T22:44:50.732236
20536,-0.1845,-3.2545,-1.0146,-239.050,150.465,29.225,379,415,338,415,383,2025-05-27T22:44:50.889341
20537,-0.6432,-4.1446,-0.5588,-178.850,174.860,-2.975,396,386,361,404,404,2025-05-27T22:44:50.889597
20538,-1.1819,-4.5106,-0.0654,-95.830,105.980,-20.790,295,406,383,399,397,2025-05-27T22:44:50.889597
20539,-1.1380,-4.3154,0.1635,-4.830,1.015,-31.675,371,412,384,397,404,2025-05-27T22:44:50.889981
20540,-0.9394,-3.6820,0.1991,74.970,-86.205,-40.285,397,406,387,417,407,2025-05-27T22:44:50.889981
20541,-0.8477,-2.9319,0.1986,138.705,-64.925,-47.040,407,414,397,411,405,2025-05-27T22:44:50.890282
20542,-0.9604,-2.0042,0.1200,196.280,-9.940,-39.970,426,436,396,410,415,2025-05-27T22:44:50.890325
20543,-1.1400,-1.0848,-0.1410,247.695,-23.800,-30.940,421,428,344,393,352,2025-05-27T22:44:50.890325
20544,-1.1390,-0.0342,-0.5026,276.290,-67.130,-22.295,426,421,354,408,356,2025-05-27T22:44:51.048584
20545,-1.0565,0.9511,-0.8037,286.965,-91.595,-19.355,404,384,375,393,384,2025-05-27T22:44:51.048584
20546,-0.9306,1.5977,-1.1209,272.090,-99.470,-11.445,397,406,391,399,386,2025-05-27T22:44:51.048584
20547,-0.7261,2.0076,-1.4484,249.725,-130.305,-6.090,360,392,347,385,399,2025-05-27T22:44:51.048584
20548,-0.2855,2.0891,-1.8280,229.250,-151.130,0.070,387,418,375,389,410,2025-05-27T22:44:51.048584
20549,-0.1059,2.0594,-2.0447,205.800,-116.795,11.340,423,431,368,393,394,2025-05-27T22:44:51.048584
20550,-0.1469,2.0408,-2.0262,176.960,-72.765,21.805,418,415,375,404,379,2025-05-27T22:44:51.048584
20551,-0.3079,2.0135,-1.8646,147.525,-70.385,26.915,427,410,373,395,388,2025-05-27T22:44:51.048584
20552,-0.4221,1.9198,-1.7090,114.310,-104.755,30.310,425,424,339,388,407,2025-05-27T22:44:51.048584
20553,-0.3753,1.8227,-1.5738,89.425,-140.595,26.950,401,407,366,405,392,2025-05-27T22:44:51.048584
20554,-0.2743,1.8100,-1.4030,67.200,-164.675,20.965,381,419,381,418,393,2025-05-27T22:44:51.048584
20555,-0.3016,1.7143,-1.2903,45.675,-175.420,12.775,389,392,384,357,392,2025-05-27T22:44:51.048584
20556,-0.3201,1.5962,-1.2019,30.065,-202.650,7.560,411,386,380,378,408,2025-05-27T22:44:51.048584
20557,-0.2059,1.4982,-1.1736,19.950,-220.010,4.165,401,416,386,359,407,2025-05-27T22:44:51.048584
20558,-0.1645,1.3620,-1.1370,11.165,-206.465,3.815,415,404,384,377,353,2025-05-27T22:44:51.048584
20559,-0.2777,1.2747,-1.0541,3.045,-192.850,6.125,397,416,345,395,389,2025-05-27T22:44:51.048584
20560,-0.4309,1.2063,-0.9921,-1.575,-199.710,11.445,408,301,353,412,366,2025-05-27T22:44:51.048584
20561,-0.5866,1.1746,-0.9306,-7.105,-228.900,15.575,363,390,371,400,347,2025-05-27T22:44:51.048584
20562,-0.7310,1.1478,-0.8843,-14.525,-268.660,19.985,401,392,385,400,393,2025-05-27T22:44:51.147748
20563,-0.6876,1.1078,-0.9160,-20.300,-317.380,24.430,419,397,387,412,408,2025-05-27T22:44:51.147748
20564,-0.4392,1.0960,-0.9584,-25.550,-348.460,29.295,388,420,380,373,393,2025-05-27T22:44:51.147748
20565,-0.1718,1.0355,-0.9877,-30.205,-328.160,32.130,413,411,386,389,388,2025-05-27T22:44:51.147748
20566,-0.0600,1.0189,-0.9204,-34.895,-281.960,36.610,362,384,346,399,401,2025-05-27T22:44:51.147748
20567,-0.2411,0.9545,-0.8506,-39.795,-246.365,41.125,331,393,367,386,403,2025-05-27T22:44:51.794246
20568,-0.1732,0.9130,-0.7413,-42.945,-223.790,44.730,407,407,365,387,407,2025-05-27T22:44:51.795228
20569,-0.3216,0.8603,-0.6559,-43.575,-215.005,47.985,390,378,381,401,415,2025-05-27T22:44:51.795553
20570,-0.4646,0.8267,-0.5568,-42.595,-222.425,49.665,396,349,377,347,355,2025-05-27T22:44:51.795553
20571,-0.5329,0.8169,-0.5178,-40.880,-249.480,49.840,388,360,352,382,395,2025-05-27T22:44:51.795553
20572,-0.4807,0.7998,-0.5314,-40.285,-282.135,49.315,389,407,361,393,399,2025-05-27T22:44:51.795553
20573,-0.3592,0.7959,-0.5475,-39.200,-293.965,48.790,393,407,363,393,381,2025-05-27T22:44:51.795553
20574,-0.1713,0.7691,-0.5475,-39.095,-284.410,47.530,417,397,368,401,400,2025-05-27T22:44:51.795553
20575,-0.0512,0.7837,-0.5036,-40.145,-255.220,45.465,412,393,335,390,394,2025-05-27T22:44:51.795553
20576,-0.0356,0.7754,-0.4529,-42.560,-224.980,41.580,419,393,342,350,410,2025-05-27T22:44:51.795553
20577,-0.0590,0.7774,-0.3684,-42.805,-189.805,28.035,434,404,330,357,409,2025-05-27T22:44:51.795553
20578,-0.1659,0.7686,-0.2996,-40.425,-171.290,31.360,429,410,365,380,392,2025-05-27T22:44:51.795553
20579,-0.2865,0.7686,-0.2162,-36.995,-170.030,26.390,417,413,360,408,399,2025-05-27T22:44:51.795553
20580,-0.3709,0.7837,-0.1562,-34.650,-181.685,21.385,415,416,375,391,405,2025-05-27T22:44:51.795553
20581,-0.2894,0.8150,-0.1078,-35.700,-197.015,20.650,430,407,370,418,420,2025-05-27T22:44:51.795553
20582,-0.2250,0.8096,-0.1347,-37.275,-196.980,18.725,403,419,370,375,403,2025-05-27T22:44:51.795553
20583,-0.1039,0.7910,-0.1435,-39.410,-178.605,13.510,409,430,376,405,410,2025-05-27T22:44:51.795553
20584,-0.0698,0.7803,-0.1044,-38.535,-156.905,9.065,427,424,354,396,364,2025-05-27T22:44:51.796557
20585,-0.0825,0.7857,-0.0400,-37.835,-129.045,6.965,432,406,373,387,380,2025-05-27T22:44:51.796557
20586,-0.1337,0.8081,0.0098,-37.275,-106.050,4.445,367,395,372,408,396,2025-05-27T22:44:51.796557
20587,-0.2015,0.8115,0.0595,-35.875,-92.435,1.820,388,293,372,395,394,2025-05-27T22:44:51.796718
20588,-0.2948,0.8008,0.0996,-33.355,-90.090,0.455,353,391,380,413,389,2025-05-27T22:44:51.796718
20589,-0.3567,0.7998,0.1454,-31.290,-99.295,3.325,408,423,372,416,411,2025-05-27T22:44:51.796718
20590,-0.3802,0.8037,0.1488,-28.420,-113.260,7.560,421,350,385,406,364,2025-05-27T22:44:51.796718
20591,-0.3211,0.8013,0.1410,-24.325,-120.505,11.095,402,379,382,407,377,2025-05-27T22:44:51.796718
20592,-0.2840,0.8062,0.1118,-20.685,-121.450,13.230,386,389,344,355,386,2025-05-27T22:44:51.796718
20593,-0.2108,0.8213,0.1327,-17.640,-114.135,14.560,410,409,369,373,404,2025-05-27T22:44:51.796718
20594,-0.1640,0.8125,0.1244,-15.015,-103.110,16.625,373,399,337,378,413,2025-05-27T22:44:51.796718
20595,-0.0922,0.8135,0.1581,-13.720,-85.680,18.550,380,409,368,392,397,2025-05-27T22:44:51.796718
20596,-0.0747,0.8013,0.1381,-13.440,-62.825,19.040,393,411,364,360,353,2025-05-27T22:44:51.796718
20597,-0.0976,0.7818,0.1425,-11.760,-41.790,17.990,393,415,359,378,353,2025-05-27T22:44:51.796718
20598,-0.1654,0.7662,0.1713,-7.770,-30.485,16.660,398,411,364,371,368,2025-05-27T22:44:51.796718
20599,-0.2381,0.7554,0.2040,-3.990,-29.015,15.540,414,426,383,378,406,2025-05-27T22:44:51.796718
20600,-0.2528,0.7574,0.2269,-1.435,-33.530,15.190,348,347,371,405,393,2025-05-27T22:44:51.796718
20601,-0.2606,0.7603,0.2411,1.715,-39.200,14.910,399,406,374,402,409,2025-05-27T22:44:51.796718
20602,-0.2513,0.7491,0.2342,3.605,-43.855,13.300,419,392,371,391,407,2025-05-27T22:44:51.796718
20603,-0.2162,0.7774,0.2425,3.920,-46.655,10.920,431,415,361,344,394,2025-05-27T22:44:51.796718
20604,-0.1596,0.7574,0.1957,3.955,-42.385,9.380,380,426,332,345,399,2025-05-27T22:44:51.797726
20605,-0.1386,0.7647,0.1840,6.020,-33.705,6.720,407,421,361,373,406,2025-05-27T22:44:51.797726
20606,-0.1230,0.7769,0.1932,7.630,-19.915,3.955,396,384,301,387,407,2025-05-27T22:44:51.797726
20607,-0.1479,0.7930,0.2123,8.435,-7.560,0.595,414,427,345,408,359,2025-05-27T22:44:51.797726
20608,-0.2020,0.8120,0.2435,8.295,0.805,-2.730,423,404,356,352,371,2025-05-27T22:44:51.797726
20609,-0.2694,0.8359,0.2869,8.785,2.170,-4.690,402,428,338,388,360,2025-05-27T22:44:51.797726
20610,-0.3065,0.8579,0.3089,8.330,-0.525,-5.880,421,408,336,344,377,2025-05-27T22:44:51.797726
20611,-0.3343,0.8794,0.3167,7.945,-3.570,-6.475,409,406,363,366,397,2025-05-27T22:44:51.797726
20612,-0.3587,0.8930,0.3284,8.680,-6.125,-7.000,402,397,377,339,404,2025-05-27T22:44:51.872812
20613,-0.3479,0.9287,0.2982,9.205,-8.470,-6.160,411,402,373,386,400,2025-05-27T22:44:51.872812
20614,-0.3558,0.9374,0.3060,9.205,-7.000,-5.110,354,408,388,302,403,2025-05-27T22:44:51.872812
20615,-0.3489,0.9672,0.3070,9.205,-3.150,-2.905,375,415,382,362,408,2025-05-27T22:44:51.872812
20616,-0.3699,0.9794,0.2991,7.840,0.280,-1.995,399,412,398,402,355,2025-05-27T22:44:51.873806
20617,-0.3919,0.9872,0.3016,5.600,2.065,-1.050,396,368,390,402,393,2025-05-27T22:44:51.873806
20618,-0.4128,0.9965,0.2982,3.325,0.805,0.455,408,339,377,391,394,2025-05-27T22:44:51.873806
20619,-0.4089,0.9945,0.2796,-0.140,-1.925,2.625,424,360,391,407,405,2025-05-27T22:44:51.874215
20620,-0.4099,0.9789,0.2562,-1.995,-5.040,4.655,418,391,349,417,389,2025-05-27T22:44:51.874215
20621,-0.3943,0.9628,0.2308,-2.135,-6.300,7.000,426,429,375,387,395,2025-05-27T22:44:51.874215
20622,-0.3875,0.9540,0.2225,-2.380,-5.985,7.805,404,411,377,340,349,2025-05-27T22:44:51.874215
20623,-0.3728,0.9462,0.2216,-3.640,-4.235,8.190,427,408,370,388,395,2025-05-27T22:44:51.874215
20624,-0.3714,0.9433,0.2284,-5.880,-2.905,8.785,342,410,380,413,408,2025-05-27T22:44:51.874215
20625,-0.3631,0.9301,0.2211,-8.225,-1.435,9.240,410,423,383,418,404,2025-05-27T22:44:51.874215
20626,-0.3562,0.9087,0.2196,-9.310,0.910,9.485,410,407,381,393,392,2025-05-27T22:44:51.875217
20627,-0.3582,0.8989,0.2269,-9.625,2.450,9.800,397,421,377,391,401,2025-05-27T22:44:51.875217
20628,-0.3587,0.8804,0.2201,-9.625,2.065,10.325,401,392,349,343,409,2025-05-27T22:44:51.875217
20629,-0.3582,0.8745,0.2225,-9.450,1.015,10.640,390,428,328,372,411,2025-05-27T22:44:51.875217
20630,-0.3689,0.8686,0.2250,-8.960,-0.350,11.410,388,388,348,355,417,2025-05-27T22:44:51.959250
20631,-0.3621,0.8613,0.2255,-8.645,-2.835,11.375,392,356,370,395,411,2025-05-27T22:44:51.959250
20632,-0.3455,0.8594,0.2342,-8.260,-3.535,10.745,414,369,376,365,372,2025-05-27T22:44:51.959250
20633,-0.3309,0.8516,0.2391,-8.190,-1.365,10.255,423,392,378,397,392,2025-05-27T22:44:51.959250
20634,-0.3187,0.8413,0.2464,-8.155,0.175,9.975,424,361,367,392,395,2025-05-27T22:44:51.959250
20635,-0.3123,0.8330,0.2542,-7.980,1.330,9.835,421,404,345,396,399,2025-05-27T22:44:51.959250
20636,-0.3157,0.8179,0.2611,-7.350,2.590,9.730,400,378,329,397,389,2025-05-27T22:44:51.959250
20637,-0.3060,0.8106,0.2611,-6.195,3.255,9.695,412,413,349,412,406,2025-05-27T22:44:51.959250
20638,-0.3030,0.8072,0.2630,-4.305,4.620,8.505,407,404,357,412,395,2025-05-27T22:44:52.063994
20639,-0.3016,0.8154,0.2738,-3.710,6.790,6.300,413,395,327,396,363,2025-05-27T22:44:52.063994
20640,-0.3065,0.8237,0.2757,-2.835,7.770,4.025,387,412,282,346,372,2025-05-27T22:44:52.063994
20641,-0.3113,0.8267,0.2801,-1.820,8.120,2.520,346,423,326,348,348,2025-05-27T22:44:52.063994
20642,-0.3187,0.8447,0.2889,-0.945,8.015,1.225,381,414,355,329,359,2025-05-27T22:44:52.063994
20643,-0.3377,0.8657,0.2967,-0.595,6.125,0.490,387,403,364,378,382,2025-05-27T22:44:52.063994
20644,-0.3533,0.8838,0.3021,0.175,2.835,0.000,415,424,348,391,385,2025-05-27T22:44:52.063994
20645,-0.3621,0.9052,0.3143,0.315,-1.645,-0.735,416,359,359,413,399,2025-05-27T22:44:52.063994
20646,-0.3431,0.9233,0.3143,0.070,-4.305,-1.120,430,393,371,415,385,2025-05-27T22:44:52.205594
20647,-0.3128,0.9370,0.3030,-0.805,-3.745,-0.875,406,409,365,413,400,2025-05-27T22:44:52.205594
20648,-0.3026,0.9492,0.2918,-0.875,0.945,-0.525,419,414,381,419,396,2025-05-27T22:44:52.205976
20649,-0.3206,0.9545,0.2889,-1.085,4.550,-0.070,401,394,378,405,407,2025-05-27T22:44:52.205976
20650,-0.3377,0.9623,0.2977,-1.470,6.860,0.875,411,416,387,399,393,2025-05-27T22:44:52.205976
20651,-0.3728,0.9575,0.3006,-1.680,6.825,1.855,416,435,386,369,396,2025-05-27T22:44:52.205976
20652,-0.3972,0.9565,0.3045,-1.680,4.480,2.835,414,434,382,387,396,2025-05-27T22:44:52.205976
20653,-0.3880,0.9614,0.3016,-2.450,1.610,4.200,391,397,376,410,404,2025-05-27T22:44:52.205976
20654,-0.3787,0.9482,0.2933,-3.570,-1.120,5.145,397,394,394,400,390,2025-05-27T22:44:52.206508
20655,-0.3582,0.9399,0.2830,-4.130,-1.925,6.335,420,383,384,368,408,2025-05-27T22:44:52.206508
20656,-0.3289,0.9267,0.2757,-4.060,-1.260,7.210,411,390,393,403,399,2025-05-27T22:44:52.206508
20657,-0.3118,0.9082,0.2723,-4.025,1.260,8.225,401,427,386,407,412,2025-05-27T22:44:52.274229
20658,-0.3094,0.8916,0.2743,-4.200,3.815,8.575,392,432,393,392,409,2025-05-27T22:44:52.274229
20659,-0.3001,0.8672,0.2664,-4.620,5.670,8.155,426,441,377,408,355,2025-05-27T22:44:52.274229
20660,-0.2913,0.8350,0.2669,-4.585,6.685,8.015,398,387,372,402,392,2025-05-27T22:44:52.274229
20661,-0.2791,0.7989,0.2611,-4.270,6.615,7.490,426,403,366,419,389,2025-05-27T22:44:52.274229
20662,-0.2591,0.7276,0.2528,-3.605,5.425,6.650,420,353,364,376,363,2025-05-27T22:44:52.274229
20663,-0.2045,0.6290,0.2381,-2.765,5.670,6.300,403,409,374,382,381,2025-05-27T22:44:52.274229
20664,-0.1318,0.5212,0.2025,-0.980,7.735,5.705,405,423,370,409,410,2025-05-27T22:44:52.374098
20665,-0.0386,0.4294,0.1542,1.365,16.135,3.500,404,425,375,420,409,2025-05-27T22:44:52.374098
20666,0.0566,0.3470,0.0874,5.040,32.655,0.560,419,342,384,377,402,2025-05-27T22:44:52.374098
20667,0.1488,0.2533,0.0142,9.310,52.955,-4.340,357,404,381,375,391,2025-05-27T22:44:52.374098
20668,0.2547,0.1815,-0.0405,12.565,75.250,-7.385,376,405,384,383,342,2025-05-27T22:44:52.374098
20669,0.3323,0.1283,-0.1137,14.980,99.050,-8.400,398,423,388,365,384,2025-05-27T22:44:52.374098
20670,0.3953,0.0981,-0.1479,21.035,116.725,-9.695,399,428,378,399,383,2025-05-27T22:44:52.375029
20671,0.3758,0.0610,-0.1845,30.380,135.590,-11.445,408,360,386,412,411,2025-05-27T22:44:52.375029
20672,0.4089,0.0776,-0.1776,43.540,152.180,-14.665,404,372,398,407,395,2025-05-27T22:44:52.473228
20673,0.4270,0.1493,-0.1381,55.895,171.780,-22.505,398,409,379,400,412,2025-05-27T22:44:52.473228
20674,0.4670,0.2147,-0.1196,67.165,200.935,-35.525,403,346,375,347,388,2025-05-27T22:44:52.473228
20675,0.4641,0.2577,-0.1074,78.365,235.340,-43.365,374,334,370,355,401,2025-05-27T22:44:52.473228
20676,0.4294,0.3070,-0.1391,89.145,269.080,-52.535,398,413,373,386,395,2025-05-27T22:44:52.473228
20677,0.3016,0.3499,-0.2206,103.565,291.410,-61.530,412,369,378,409,389,2025-05-27T22:44:52.473228
20678,0.2723,0.4216,-0.2845,122.185,311.640,-77.595,393,383,382,372,400,2025-05-27T22:44:52.473228
20679,0.2084,0.5290,-0.3562,143.535,327.810,-96.985,343,338,376,397,388,2025-05-27T22:44:52.473228
20680,0.1415,0.6939,-0.5490,164.185,339.745,-100.975,378,383,385,413,411,2025-05-27T22:44:52.529139
20681,0.0712,0.8413,-0.7813,185.850,337.365,-116.935,410,393,385,418,408,2025-05-27T22:44:52.529139
20682,0.0024,0.9867,-1.0472,215.670,333.970,-134.470,403,425,386,414,404,2025-05-27T22:44:52.529139
20683,0.0551,1.2512,-1.1873,236.950,342.790,-147.700,374,402,380,421,407,2025-05-27T22:44:52.529139
20684,0.0727,1.4821,-1.5050,243.250,370.790,-154.245,397,394,346,413,410,2025-05-27T22:44:52.690864
20685,0.0005,1.8773,-1.7797,240.100,406.070,-152.880,394,434,374,401,403,2025-05-27T22:44:52.690864
20686,-0.1986,2.3468,-1.9466,217.840,433.160,-152.705,413,421,336,305,387,2025-05-27T22:44:52.690864
20687,-0.3167,2.9768,-1.9998,169.050,428.890,-150.920,428,404,318,386,392,2025-05-27T22:44:52.690864
20688,-0.4748,3.4560,-2.1550,111.440,414.330,-162.575,416,404,358,406,402,2025-05-27T22:44:52.690864
20689,-0.5924,3.6659,-2.2321,25.165,402.675,-170.835,406,353,361,396,397,2025-05-27T22:44:52.690864
20690,-0.9599,3.6532,-2.3385,-59.080,379.680,-171.185,389,385,378,395,391,2025-05-27T22:44:52.690864
20691,-1.2224,3.5653,-2.3458,-130.655,312.375,-158.760,398,419,378,410,407,2025-05-27T22:44:52.691907
20692,-1.4396,3.4189,-2.4107,-191.835,232.750,-145.320,395,396,350,419,401,2025-05-27T22:44:52.691907
20693,-1.3610,3.2174,-2.4429,-254.100,149.450,-114.555,399,402,362,425,405,2025-05-27T22:44:52.691907
20694,-1.1082,2.7836,-2.6001,-303.485,116.130,-76.195,429,420,372,408,418,2025-05-27T22:44:52.691907
20695,-1.0063,2.3361,-2.6547,-336.700,131.810,-38.955,424,403,373,348,407,2025-05-27T22:44:52.691907
20696,-1.1361,1.7363,-2.7582,-350.420,152.425,2.975,423,400,380,392,378,2025-05-27T22:44:52.691907
20697,-1.3737,1.1619,-2.7255,-356.195,130.585,33.075,382,417,376,406,341,2025-05-27T22:44:52.691907
20698,-1.3049,0.4577,-2.6523,-355.040,89.775,61.530,395,418,346,401,381,2025-05-27T22:44:52.773238
20699,-1.0326,-0.3841,-2.5117,-342.510,38.570,81.550,415,423,365,408,390,2025-05-27T22:44:52.773238
20700,-0.7891,-1.3859,-2.4268,-310.485,22.015,98.700,419,341,332,419,397,2025-05-27T22:44:52.773238
20701,-0.4148,-2.1057,-2.0559,-260.785,16.625,113.330,391,401,355,399,396,2025-05-27T22:44:52.773238
20702,0.1269,-2.8992,-1.7046,-212.870,27.370,115.430,419,419,363,387,397,2025-05-27T22:44:52.773238
20703,0.3621,-3.6385,-1.3376,-165.970,72.310,86.415,394,425,359,384,406,2025-05-27T22:44:52.773238
20704,0.0844,-3.7254,-0.6603,-133.315,97.965,38.780,297,411,377,341,392,2025-05-27T22:44:52.773238
20705,-0.1825,-3.6395,-0.1161,-88.725,53.445,3.535,381,423,373,369,395,2025-05-27T22:44:53.009870
20706,-0.2059,-3.1798,0.2894,-30.450,-23.100,-30.695,336,427,365,404,315,2025-05-27T22:44:53.009870
20707,-0.1562,-2.5742,0.5090,31.290,-52.710,-56.000,341,398,374,407,372,2025-05-27T22:44:53.009870
20708,-0.1937,-1.9339,0.5963,91.525,-41.650,-72.380,336,345,380,421,387,2025-05-27T22:44:53.009870
20709,-0.3299,-1.2254,0.4685,145.320,-24.465,-79.730,393,388,378,403,395,2025-05-27T22:44:53.009870
20710,-0.4807,-0.6446,0.1781,187.985,-23.625,-81.305,410,426,387,390,405,2025-05-27T22:44:53.009870
20711,-0.6056,-0.0493,-0.1449,211.330,-10.675,-78.610,398,426,380,413,397,2025-05-27T22:44:53.009870
20712,-0.8682,0.3987,-0.4094,219.625,6.160,-72.310,338,426,381,405,379,2025-05-27T22:44:53.009870
20713,-1.0785,0.7593,-0.7110,222.285,-17.430,-64.330,404,415,373,390,346,2025-05-27T22:44:53.009870
20714,-1.1536,0.9877,-0.9975,222.320,-67.480,-55.475,412,370,382,400,370,2025-05-27T22:44:53.009870
20715,-1.0560,1.1536,-1.2727,217.175,-107.975,-49.490,379,409,388,413,379,2025-05-27T22:44:53.009870
20716,-0.8930,1.2893,-1.5928,207.270,-136.010,-42.805,332,417,383,390,380,2025-05-27T22:44:53.009870
20717,-0.6842,1.4298,-1.7065,192.290,-132.860,-36.365,405,432,392,358,384,2025-05-27T22:44:53.755103
20718,-0.6534,1.5255,-1.7187,169.505,-110.215,-26.355,421,404,395,397,410,2025-05-27T22:44:53.755399
20719,-0.8286,1.5562,-1.6714,149.170,-101.255,-12.565,421,436,397,407,397,2025-05-27T22:44:53.755399
20720,-0.9462,1.5923,-1.5806,133.420,-126.035,0.805,425,407,391,344,391,2025-05-27T22:44:53.755665
20721,-0.9565,1.6436,-1.4630,120.750,-159.285,8.365,411,392,396,377,385,2025-05-27T22:44:53.755798
20722,-0.8989,1.6729,-1.4367,103.915,-180.215,14.735,414,409,392,402,404,2025-05-27T22:44:53.755798
20723,-0.7598,1.6792,-1.3967,86.940,-202.475,17.570,399,411,390,361,386,2025-05-27T22:44:53.756027
20724,-0.7178,1.6328,-1.3313,72.590,-218.190,19.740,408,403,373,380,397,2025-05-27T22:44:53.756027
20725,-0.7286,1.5616,-1.2751,55.125,-224.070,26.915,420,377,371,409,398,2025-05-27T22:44:53.756027
20726,-0.7579,1.4606,-1.2137,39.480,-231.455,32.340,396,335,369,418,354,2025-05-27T22:44:53.756027
20727,-0.7652,1.4030,-1.1502,28.210,-244.895,40.915,391,410,379,412,393,2025-05-27T22:44:53.756486
20728,-0.7462,1.3708,-1.0594,17.325,-253.540,47.425,410,407,383,399,396,2025-05-27T22:44:53.756585
20729,-0.7686,1.3239,-0.9584,4.865,-258.545,50.505,405,408,384,413,410,2025-05-27T22:44:53.756728
20730,-0.7388,1.3166,-0.9677,-4.830,-284.655,55.720,393,420,377,414,398,2025-05-27T22:44:53.756728
20731,-0.6266,1.2790,-0.9292,-14.385,-311.850,61.460,376,410,371,405,348,2025-05-27T22:44:53.756954
20732,-0.4055,1.2473,-0.8872,-23.590,-294.315,67.305,420,406,341,348,373,2025-05-27T22:44:53.756954
20733,-0.4031,1.1292,-0.8599,-33.985,-258.685,67.725,425,411,358,379,337,2025-05-27T22:44:53.756954
20734,-0.4573,1.0477,-0.7706,-37.415,-234.920,69.650,407,412,381,391,377,2025-05-27T22:44:53.756954
20735,-0.5949,1.0014,-0.7213,-38.850,-241.885,71.820,341,391,385,392,397,2025-05-27T22:44:53.756954
20736,-0.6754,0.9433,-0.6612,-37.415,-263.795,74.655,395,421,371,402,409,2025-05-27T22:44:53.756954
20737,-0.5983,0.9277,-0.5939,-36.820,-287.000,77.245,414,381,339,409,404,2025-05-27T22:44:53.756954
20738,-0.5202,0.8721,-0.6110,-38.325,-297.675,75.425,404,417,358,420,359,2025-05-27T22:44:53.756954
20739,-0.3943,0.8150,-0.6403,-40.390,-295.015,73.745,340,383,369,411,375,2025-05-27T22:44:53.756954
20740,-0.2977,0.7593,-0.6246,-39.970,-281.225,72.555,399,409,370,356,386,2025-05-27T22:44:53.756954
20741,-0.2591,0.7383,-0.5700,-39.340,-263.165,69.230,424,425,336,387,413,2025-05-27T22:44:53.756954
20742,-0.2430,0.6925,-0.4758,-38.360,-246.715,65.380,413,427,363,341,402,2025-05-27T22:44:53.756954
20743,-0.2757,0.6730,-0.3884,-35.350,-237.685,60.340,415,420,330,397,406,2025-05-27T22:44:53.756954
20744,-0.3138,0.6393,-0.3060,-31.990,-240.170,54.565,383,408,359,407,386,2025-05-27T22:44:53.756954
20745,-0.2445,0.6222,-0.2508,-27.510,-244.055,47.950,418,423,378,415,410,2025-05-27T22:44:53.758000
20746,-0.1835,0.5885,-0.2035,-22.470,-240.730,40.670,395,422,383,415,412,2025-05-27T22:44:53.758000
20747,-0.1176,0.5929,-0.2069,-17.850,-227.885,37.345,395,427,386,401,391,2025-05-27T22:44:53.758000
20748,-0.0420,0.5788,-0.1986,-13.335,-208.460,32.305,423,431,392,397,410,2025-05-27T22:44:53.758000
20749,-0.0098,0.5700,-0.2094,-9.380,-181.090,26.250,407,439,394,406,411,2025-05-27T22:44:53.758000
20750,-0.0015,0.5919,-0.1659,-6.125,-152.705,22.715,393,414,352,365,390,2025-05-27T22:44:53.758000
20751,-0.0273,0.6178,-0.1132,-3.990,-132.510,20.370,294,398,364,378,398,2025-05-27T22:44:53.758000
20752,-0.0503,0.6354,-0.0449,-2.905,-121.240,18.235,352,410,387,392,395,2025-05-27T22:44:53.758000
20753,-0.0693,0.6769,0.0049,-3.430,-110.180,15.365,386,369,391,386,389,2025-05-27T22:44:53.758000
20754,-0.0991,0.6783,-0.0049,-3.150,-103.110,14.840,416,411,398,405,390,2025-05-27T22:44:53.758000
20755,-0.1113,0.7164,-0.0049,-0.735,-101.605,14.770,424,378,403,388,399,2025-05-27T22:44:53.758000
20756,-0.1181,0.7574,-0.0185,1.645,-98.700,13.510,405,409,394,404,412,2025-05-27T22:44:53.758000
20757,-0.1381,0.7935,-0.0122,2.240,-94.010,11.025,393,413,393,417,356,2025-05-27T22:44:53.758000
20758,-0.1591,0.8223,-0.0005,1.960,-92.890,10.290,422,420,315,349,389,2025-05-27T22:44:53.758000
20759,-0.1444,0.8496,0.0146,0.490,-92.925,11.550,420,422,323,374,405,2025-05-27T22:44:53.758000
20760,-0.1005,0.8686,0.0327,-2.275,-87.290,14.245,400,425,347,393,391,2025-05-27T22:44:53.758000
20761,-0.0542,0.8886,0.0566,-5.495,-73.185,16.170,392,347,370,411,402,2025-05-27T22:44:53.758000
20762,-0.0859,0.8867,0.0644,-7.385,-59.290,18.130,337,380,383,389,380,2025-05-27T22:44:53.758000
20763,-0.0917,0.9077,0.1005,-9.240,-52.115,20.160,410,426,393,413,391,2025-05-27T22:44:53.758000
20764,-0.1118,0.9160,0.1240,-10.955,-44.730,21.385,411,419,392,399,387,2025-05-27T22:44:53.758000
20765,-0.1113,0.9057,0.1444,-12.635,-35.490,21.455,424,359,372,366,363,2025-05-27T22:44:53.758000
20766,-0.1000,0.9043,0.1606,-13.615,-25.865,22.400,409,394,382,396,399,2025-05-27T22:44:53.758000
20767,-0.1054,0.8979,0.1791,-13.265,-16.205,23.205,419,412,390,415,402,2025-05-27T22:44:53.758000
20768,-0.1244,0.9008,0.2015,-12.285,-7.385,23.800,306,421,377,391,402,2025-05-27T22:44:53.758000
20769,-0.1552,0.8906,0.2157,-10.780,-3.325,24.710,370,422,337,397,397,2025-05-27T22:44:53.758000
20770,-0.1864,0.9043,0.2538,-9.065,-2.520,24.570,413,410,356,408,390,2025-05-27T22:44:53.758000
20771,-0.1806,0.9106,0.2645,-8.575,-1.540,24.570,345,360,335,396,365,2025-05-27T22:44:53.758000
20772,-0.1893,0.9130,0.2723,-8.540,0.315,24.255,398,401,317,412,397,2025-05-27T22:44:53.758000
20773,-0.2040,0.9199,0.2840,-7.560,1.715,23.450,420,418,362,420,402,2025-05-27T22:44:53.758000
20774,-0.2333,0.9248,0.3026,-7.595,1.715,21.980,410,436,332,359,394,2025-05-27T22:44:53.758000
20775,-0.2313,0.9379,0.3118,-8.470,0.770,19.880,424,423,349,397,403,2025-05-27T22:44:53.758000
20776,-0.2089,0.9311,0.3118,-7.560,1.365,18.235,419,345,372,409,388,2025-05-27T22:44:53.758000
20777,-0.2030,0.9340,0.3172,-5.950,4.445,16.975,400,340,383,394,398,2025-05-27T22:44:53.758000
20778,-0.2152,0.9316,0.3187,-4.165,8.260,15.540,423,388,345,399,391,2025-05-27T22:44:53.758000
20779,-0.2294,0.9418,0.3255,-3.815,12.110,14.385,418,429,356,411,349,2025-05-27T22:44:53.758000
20780,-0.2699,0.9462,0.3245,-3.885,14.770,13.615,428,378,362,411,389,2025-05-27T22:44:53.758000
20781,-0.2938,0.9477,0.3245,-3.990,14.840,14.140,396,423,364,361,393,2025-05-27T22:44:53.758000
20782,-0.3377,0.9511,0.3431,-3.920,10.710,14.770,415,422,373,391,391,2025-05-27T22:44:53.758000
20783,-0.3421,0.9550,0.3411,-5.075,5.775,14.735,345,423,375,394,360,2025-05-27T22:44:53.758000
20784,-0.3450,0.9340,0.3216,-6.125,1.575,15.260,328,402,340,354,371,2025-05-27T22:44:53.758000
20785,-0.3279,0.9150,0.3084,-6.020,-1.225,15.085,398,428,362,396,385,2025-05-27T22:44:53.907478
20786,-0.2982,0.9082,0.2996,-5.355,-2.170,15.645,395,400,332,421,386,2025-05-27T22:44:53.907478
20787,-0.2767,0.8979,0.2923,-5.460,-0.385,16.135,367,413,351,415,396,2025-05-27T22:44:53.907478
20788,-0.2738,0.8760,0.2806,-4.620,3.640,15.715,334,395,360,403,389,2025-05-27T22:44:53.907478
20789,-0.2591,0.8764,0.2938,-4.025,8.015,14.595,369,389,365,387,391,2025-05-27T22:44:53.907478
20790,-0.2606,0.8725,0.2904,-4.025,12.705,13.545,400,432,380,349,385,2025-05-27T22:44:53.907478
20791,-0.2679,0.8618,0.2865,-3.325,15.190,12.250,418,409,382,377,401,2025-05-27T22:44:53.907478
20792,-0.2874,0.8599,0.2860,-1.750,14.630,10.710,410,422,344,354,387,2025-05-27T22:44:53.907478
20793,-0.3030,0.8560,0.2908,-0.490,11.725,8.715,400,442,377,378,405,2025-05-27T22:44:53.907478
20794,-0.3079,0.8535,0.2874,0.035,7.560,7.140,387,404,385,407,414,2025-05-27T22:44:53.907478
20795,-0.2996,0.8486,0.2840,0.560,3.535,5.635,418,426,360,366,358,2025-05-27T22:44:53.907478
20796,-0.3182,0.8418,0.2845,0.245,0.420,4.235,399,405,370,382,339,2025-05-27T22:44:53.907478
20797,-0.3040,0.8423,0.2801,0.385,-2.345,3.360,425,412,379,383,377,2025-05-27T22:44:53.907478
20798,-0.2923,0.8398,0.2635,1.190,-3.325,2.065,406,399,384,411,397,2025-05-27T22:44:53.907478
20799,-0.2786,0.8477,0.2616,1.435,-0.070,0.210,415,416,397,400,310,2025-05-27T22:44:54.005937
20800,-0.2899,0.8560,0.2689,1.295,2.765,-1.295,404,409,393,399,376,2025-05-27T22:44:54.005937
20801,-0.2996,0.8691,0.2767,1.190,3.395,-3.150,398,427,380,362,386,2025-05-27T22:44:54.005937
20802,-0.2967,0.8784,0.2762,0.910,4.655,-4.375,401,401,375,379,399,2025-05-27T22:44:54.005937
20803,-0.2904,0.8896,0.2767,0.945,6.720,-5.425,384,375,368,384,400,2025-05-27T22:44:54.005937
20804,-0.2874,0.9082,0.2860,0.560,9.030,-6.090,407,396,386,417,418,2025-05-27T22:44:54.005937
20805,-0.3060,0.9179,0.2869,-0.210,10.115,-6.090,428,436,394,422,361,2025-05-27T22:44:54.005937
20806,-0.3279,0.9155,0.2786,0.315,8.855,-5.355,408,439,377,393,384,2025-05-27T22:44:54.005937
20807,-0.3514,0.9277,0.2786,1.540,5.110,-4.165,424,410,385,401,383,2025-05-27T22:44:54.162762
20808,-0.3548,0.9453,0.2699,1.680,2.135,-4.025,417,394,393,415,400,2025-05-27T22:44:54.162762
20809,-0.3343,0.9638,0.2616,0.455,1.155,-3.990,408,416,348,395,387,2025-05-27T22:44:54.162762
20810,-0.3221,0.9706,0.2484,-1.575,1.820,-3.500,418,349,351,403,344,2025-05-27T22:44:54.162762
20811,-0.3118,0.9677,0.2469,-3.045,4.095,-2.975,429,412,373,413,362,2025-05-27T22:44:54.162762
20812,-0.3274,0.9672,0.2582,-4.165,5.250,-1.995,425,418,391,406,348,2025-05-27T22:44:54.162762
20813,-0.3499,0.9604,0.2757,-4.690,3.185,-0.630,424,417,372,420,392,2025-05-27T22:44:54.162762
20814,-0.3562,0.9565,0.2879,-5.635,-0.280,0.910,402,416,385,427,384,2025-05-27T22:44:54.162762
20815,-0.3411,0.9545,0.2899,-6.860,-3.780,2.555,380,354,342,396,390,2025-05-27T22:44:54.162762
20816,-0.3314,0.9472,0.2860,-7.420,-5.180,4.235,413,331,359,349,391,2025-05-27T22:44:54.162762
20817,-0.3055,0.9409,0.2835,-7.315,-4.830,5.355,400,399,368,383,392,2025-05-27T22:44:54.162762
20818,-0.2908,0.9331,0.2791,-7.455,-2.800,6.615,338,394,384,349,391,2025-05-27T22:44:54.162762
20819,-0.2821,0.9243,0.2752,-7.525,-0.035,8.540,407,422,380,372,389,2025-05-27T22:44:54.162762
20820,-0.2811,0.9204,0.2830,-7.840,4.200,8.995,410,435,377,382,405,2025-05-27T22:44:54.307222
20821,-0.2738,0.9126,0.2830,-8.785,8.680,9.380,341,395,373,395,401,2025-05-27T22:44:54.307222
20822,-0.2943,0.8935,0.2855,-8.645,10.220,10.150,393,416,379,381,386,2025-05-27T22:44:54.307222
20823,-0.3016,0.8789,0.2904,-7.595,8.050,10.045,405,413,340,345,396,2025-05-27T22:44:54.307222
20824,-0.3040,0.8701,0.3016,-6.370,5.075,9.975,418,414,369,391,405,2025-05-27T22:44:54.321959
20825,-0.2869,0.8589,0.2977,-5.320,0.770,9.975,420,431,339,396,411,2025-05-27T22:44:54.322242
20826,-0.2713,0.8423,0.2943,-3.850,-2.100,9.625,398,383,363,386,413,2025-05-27T22:44:54.322242
20827,-0.2420,0.8252,0.2938,-3.150,-1.855,8.505,412,366,367,412,399,2025-05-27T22:44:54.322803
20828,-0.2240,0.7974,0.2850,-2.660,0.455,6.720,405,418,304,309,383,2025-05-27T22:44:54.323094
20829,-0.2172,0.7642,0.2879,-1.925,2.695,4.480,404,371,346,381,409,2025-05-27T22:44:54.323241
20830,-0.2006,0.7252,0.2782,-1.050,5.005,3.010,422,404,369,341,391,2025-05-27T22:44:54.323241
20831,-0.1937,0.6642,0.2684,-0.210,7.035,0.420,388,422,351,368,358,2025-05-27T22:44:54.323241
20832,-0.1767,0.5924,0.2738,0.840,9.030,-3.115,359,419,328,388,372,2025-05-27T22:44:54.323241
20833,-0.1732,0.4934,0.2674,3.045,9.800,-7.175,359,348,364,387,393,2025-05-27T22:44:54.422649
20834,-0.1615,0.4006,0.2567,6.860,10.395,-11.865,401,412,363,411,400,2025-05-27T22:44:54.422856
20835,-0.1279,0.3343,0.2377,11.515,12.285,-16.695,408,398,344,399,408,2025-05-27T22:44:54.422856
20836,-0.0800,0.2694,0.2255,15.925,16.975,-22.820,412,300,367,395,414,2025-05-27T22:44:54.423182
20837,-0.0303,0.2069,0.1986,19.635,25.375,-28.735,407,402,341,403,421,2025-05-27T22:44:54.423236
20838,0.0595,0.1474,0.1601,22.890,39.480,-34.195,396,400,369,410,380,2025-05-27T22:44:54.423428
20839,0.0966,0.0932,0.1396,26.950,53.970,-39.760,417,415,377,404,397,2025-05-27T22:44:54.423428
20840,0.1332,0.0503,0.1401,32.620,71.715,-46.655,415,393,375,393,392,2025-05-27T22:44:54.423428
20841,0.1757,-0.0102,0.1274,39.550,87.290,-52.780,408,428,379,382,398,2025-05-27T22:44:54.423428
20842,0.2225,-0.0376,0.0952,50.995,102.165,-62.370,415,403,382,389,384,2025-05-27T22:44:54.723019
20843,0.3079,-0.0498,0.0488,65.345,118.055,-72.310,393,411,374,411,385,2025-05-27T22:44:54.723019
20844,0.3787,-0.0039,0.0224,78.575,137.550,-85.435,410,425,369,416,386,2025-05-27T22:44:54.723019
20845,0.5012,0.1225,-0.0342,89.215,166.740,-100.940,304,342,347,406,414,2025-05-27T22:44:54.723019
20846,0.5944,0.2303,-0.1376,101.990,208.180,-119.840,324,355,366,374,355,2025-05-27T22:44:54.723019
20847,0.5588,0.3255,-0.2318,118.825,248.710,-138.250,386,402,366,378,382,2025-05-27T22:44:54.723019
20848,0.5319,0.3933,-0.3372,142.905,294.980,-150.080,390,436,389,342,389,2025-05-27T22:44:54.723019
20849,0.3592,0.4553,-0.4343,169.295,325.780,-158.970,392,357,375,371,397,2025-05-27T22:44:54.723019
20850,0.1986,0.6412,-0.5895,197.015,341.355,-162.435,384,340,382,399,412,2025-05-27T22:44:54.723019
20851,0.1166,0.8540,-0.8257,222.950,356.720,-164.290,398,385,385,389,393,2025-05-27T22:44:54.723019
20852,0.0917,1.1536,-1.0673,247.030,381.955,-161.910,401,403,379,381,345,2025-05-27T22:44:54.723019
20853,0.0805,1.4655,-1.4767,260.120,425.390,-152.495,393,423,342,388,294,2025-05-27T22:44:54.723019
20854,0.0717,1.7622,-1.9320,268.695,476.945,-128.800,423,421,358,396,377,2025-05-27T22:44:54.723019
20855,0.0498,2.1374,-2.3243,261.415,520.415,-99.610,416,382,325,411,338,2025-05-27T22:44:54.723019
20856,0.1010,2.4668,-2.6381,232.505,566.405,-70.770,424,401,359,349,365,2025-05-27T22:44:54.723019
20857,0.0029,2.7069,-2.8758,184.975,604.275,-57.715,402,363,363,379,376,2025-05-27T22:44:54.723019
20858,-0.1279,2.8289,-2.8133,123.445,612.710,-59.885,400,411,375,404,381,2025-05-27T22:44:54.723019
20859,-0.3792,2.8480,-2.6899,62.195,561.155,-76.580,339,342,338,413,340,2025-05-27T22:44:54.723019
20860,-0.6837,2.7465,-2.4019,6.545,434.490,-103.145,384,410,364,374,366,2025-05-27T22:44:54.890902
20861,-0.8111,2.6542,-2.1897,-33.915,249.655,-124.285,417,417,381,389,389,2025-05-27T22:44:54.890902
20862,-0.5231,2.7709,-2.0633,-72.240,70.840,-149.310,409,418,394,400,361,2025-05-27T22:44:54.890902
20863,0.0429,2.8094,-2.1789,-132.335,-18.760,-161.490,393,347,377,396,392,2025-05-27T22:44:54.890902
20864,0.5334,2.7040,-2.4307,-193.165,-25.270,-165.305,389,405,382,407,407,2025-05-27T22:44:54.890902
20865,0.6930,2.4024,-2.7523,-245.700,36.435,-155.925,406,400,344,414,401,2025-05-27T22:44:54.890902
20866,0.5519,2.0203,-2.9026,-288.715,132.265,-145.005,428,437,358,413,393,2025-05-27T22:44:54.890902
20867,0.1274,1.6758,-2.8963,-316.785,191.975,-127.855,344,411,376,355,385,2025-05-27T22:44:55.544668
20868,-0.4011,1.1985,-2.8977,-323.960,190.995,-105.665,400,407,370,405,411,2025-05-27T22:44:55.544668
20869,-0.7418,0.7398,-2.8699,-324.415,147.070,-82.495,422,426,371,418,394,2025-05-27T22:44:55.544668
20870,-0.9394,0.2089,-2.7733,-324.345,99.540,-63.280,375,413,369,399,404,2025-05-27T22:44:55.544668
20871,-1.0165,-0.3728,-2.6996,-320.670,62.090,-38.675,352,402,383,395,405,2025-05-27T22:44:55.544668
20872,-0.9028,-1.1453,-2.6415,-303.660,42.770,-8.995,376,403,373,415,391,2025-05-27T22:44:55.545499
20873,-0.8208,-1.7085,-2.2697,-282.275,36.995,12.110,399,396,388,415,401,2025-05-27T22:44:55.545499
20874,-0.7066,-2.1160,-1.6743,-267.155,61.040,28.560,388,410,389,414,408,2025-05-27T22:44:55.545499
20875,-0.7559,-2.3483,-1.0209,-259.175,78.715,37.870,394,406,382,413,397,2025-05-27T22:44:55.545499
20876,-0.7769,-2.7357,-0.5700,-237.300,50.470,36.435,418,373,382,415,382,2025-05-27T22:44:55.545499
20877,-0.6124,-2.8250,-0.2460,-180.215,-2.695,27.265,416,408,339,413,341,2025-05-27T22:44:55.545499
20878,-0.3128,-2.7533,0.1362,-129.605,-43.995,21.315,408,381,365,392,387,2025-05-27T22:44:55.545499
20879,0.0810,-2.4117,0.3065,-61.250,-52.115,12.355,415,387,375,408,370,2025-05-27T22:44:55.545499
20880,0.2645,-1.9398,0.3826,-1.470,-33.390,1.680,425,335,365,408,353,2025-05-27T22:44:55.545499
20881,0.2352,-1.4825,0.3938,49.490,4.165,-15.925,416,387,374,396,385,2025-05-27T22:44:55.545499
20882,-0.0132,-1.0297,0.3562,92.400,21.105,-20.790,420,376,373,408,368,2025-05-27T22:44:55.545499
20883,-0.2762,-0.7867,0.2250,128.975,5.425,-31.010,424,424,339,357,389,2025-05-27T22:44:55.545499
20884,-0.4343,-0.4534,0.0512,158.725,-21.840,-39.095,403,428,369,331,404,2025-05-27T22:44:55.545499
20885,-0.4568,-0.1039,-0.2079,176.925,-42.630,-43.855,413,401,363,377,400,2025-05-27T22:44:55.545499
20886,-0.4260,0.2611,-0.4338,188.300,-50.330,-47.075,410,424,381,380,412,2025-05-27T22:44:55.545499
20887,-0.4002,0.5319,-0.6564,189.315,-47.950,-48.230,404,415,384,365,411,2025-05-27T22:44:55.545499
20888,-0.4475,0.7584,-0.8067,187.600,-41.160,-47.495,404,345,372,395,402,2025-05-27T22:44:55.545499
20889,-0.5095,0.8930,-0.9316,185.675,-39.795,-42.945,394,411,382,394,354,2025-05-27T22:44:55.545499
20890,-0.5797,1.0009,-1.0111,184.520,-49.560,-36.260,391,407,374,396,350,2025-05-27T22:44:55.547551
20891,-0.6261,1.0882,-1.1092,181.895,-65.520,-27.510,406,403,383,416,338,2025-05-27T22:44:55.547551
20892,-0.5954,1.1707,-1.2176,178.395,-84.840,-17.850,412,429,379,407,382,2025-05-27T22:44:55.547551
20893,-0.5324,1.2473,-1.3083,172.760,-95.970,-10.290,424,409,385,405,396,2025-05-27T22:44:55.547551
20894,-0.5329,1.3337,-1.3176,162.365,-102.795,-4.480,420,418,393,406,408,2025-05-27T22:44:55.547551
20895,-0.5348,1.3791,-1.2649,148.995,-112.525,-0.315,431,413,381,402,398,2025-05-27T22:44:55.547551
20896,-0.5422,1.3806,-1.2551,135.450,-126.175,4.025,417,406,392,350,403,2025-05-27T22:44:55.547551
20897,-0.6134,1.3693,-1.2410,122.920,-135.625,5.635,339,395,376,387,397,2025-05-27T22:44:55.547551
20898,-0.6051,1.3444,-1.2234,113.260,-154.420,10.150,374,428,376,415,387,2025-05-27T22:44:55.548547
20899,-0.6837,1.3679,-1.2019,104.545,-181.475,13.895,396,406,334,394,405,2025-05-27T22:44:55.548547
20900,-0.6588,1.3703,-1.1771,97.755,-209.615,18.795,392,426,371,348,410,2025-05-27T22:44:55.548547
20901,-0.6534,1.3649,-1.1780,87.220,-229.950,21.840,421,431,377,383,408,2025-05-27T22:44:55.548547
20902,-0.6364,1.3810,-1.1634,75.285,-242.200,23.975,398,427,386,410,392,2025-05-27T22:44:55.548547
20903,-0.6324,1.3971,-1.1151,62.405,-257.600,26.775,395,426,352,422,365,2025-05-27T22:44:55.548547
20904,-0.6481,1.3630,-1.0785,47.775,-271.565,28.490,397,422,383,410,340,2025-05-27T22:44:55.549466
20905,-0.6822,1.3625,-1.0653,33.810,-284.130,32.270,405,418,352,379,377,2025-05-27T22:44:55.549466
20906,-0.7091,1.3444,-1.0775,21.875,-299.425,36.925,405,393,374,404,361,2025-05-27T22:44:55.549466
20907,-0.6656,1.3562,-1.0594,12.215,-314.720,43.995,415,403,369,348,339,2025-05-27T22:44:55.549466
20908,-0.6349,1.3142,-1.0404,3.220,-319.620,52.255,345,410,376,351,378,2025-05-27T22:44:55.549466
20909,-0.5871,1.2756,-0.9916,-8.505,-314.300,60.445,380,407,374,401,382,2025-05-27T22:44:55.549466
20910,-0.5729,1.1966,-0.9457,-18.305,-302.680,68.390,364,425,371,409,382,2025-05-27T22:44:55.549466
20911,-0.6022,1.1165,-0.8794,-26.950,-290.360,76.370,398,407,376,418,354,2025-05-27T22:44:55.549466
20912,-0.6251,1.0326,-0.8696,-33.215,-285.635,85.645,396,390,385,407,387,2025-05-27T22:44:55.549466
20913,-0.6329,0.9755,-0.8135,-36.890,-284.200,90.510,336,410,346,417,397,2025-05-27T22:44:55.550464
20914,-0.5871,0.9526,-0.7593,-40.110,-278.880,93.240,382,425,366,423,387,2025-05-27T22:44:55.550464
20915,-0.5510,0.9052,-0.7091,-43.540,-270.410,94.325,383,423,363,393,381,2025-05-27T22:44:55.550464
20916,-0.4973,0.8579,-0.6368,-45.535,-262.500,93.660,409,427,360,404,400,2025-05-27T22:44:55.550464
20917,-0.3992,0.8345,-0.5475,-47.460,-252.735,94.500,407,431,359,388,393,2025-05-27T22:44:55.550464
20918,-0.3030,0.8281,-0.4807,-50.365,-234.150,93.590,417,413,360,395,385,2025-05-27T22:44:55.550464
20919,-0.2445,0.7886,-0.4597,-53.130,-215.880,91.805,418,434,381,392,390,2025-05-27T22:44:55.550464
20920,-0.2181,0.7632,-0.4416,-52.850,-195.370,89.285,385,399,383,404,388,2025-05-27T22:44:55.550464
20921,-0.2264,0.7520,-0.3845,-49.630,-180.810,84.595,389,405,372,412,410,2025-05-27T22:44:55.550464
20922,-0.1893,0.7549,-0.3255,-47.320,-169.470,78.820,373,405,368,355,352,2025-05-27T22:44:55.550464
20923,-0.1601,0.7671,-0.2830,-45.010,-159.845,73.710,415,405,370,384,379,2025-05-27T22:44:55.550464
20924,-0.1152,0.7466,-0.2128,-43.435,-150.395,67.270,402,416,368,407,380,2025-05-27T22:44:55.550464
20925,-0.1054,0.7540,-0.1479,-43.015,-141.960,62.580,381,395,378,404,399,2025-05-27T22:44:55.550464
20926,-0.1059,0.7291,-0.1015,-42.595,-136.850,58.310,334,297,366,419,390,2025-05-27T22:44:55.550464
20927,-0.1059,0.7066,-0.0761,-41.895,-132.580,54.215,363,373,373,409,404,2025-05-27T22:44:55.550464
20928,-0.1122,0.6832,-0.0586,-40.180,-130.375,50.855,411,400,340,376,393,2025-05-27T22:44:55.550464
20929,-0.0932,0.6812,-0.0293,-37.625,-127.470,46.095,405,415,357,382,350,2025-05-27T22:44:55.550464
20930,-0.0595,0.6871,-0.0166,-35.210,-121.170,41.580,420,403,365,396,338,2025-05-27T22:44:55.550464
20931,-0.0298,0.6920,0.0112,-32.795,-111.440,38.500,407,417,372,393,383,2025-05-27T22:44:55.550464
20932,-0.0283,0.6983,0.0234,-31.220,-99.505,36.050,431,406,371,385,379,2025-05-27T22:44:55.550464
20933,-0.0181,0.7056,0.0425,-29.155,-89.040,33.635,400,414,372,384,397,2025-05-27T22:44:55.550464
20934,-0.0083,0.7096,0.0625,-27.510,-74.340,30.695,392,382,381,408,366,2025-05-27T22:44:55.550464
20935,-0.0215,0.7066,0.0800,-24.360,-59.850,26.985,341,411,387,380,398,2025-05-27T22:44:55.790485
20936,-0.0508,0.7100,0.1103,-20.265,-48.895,24.780,333,393,377,404,414,2025-05-27T22:44:55.790485
20937,-0.0610,0.7315,0.1440,-16.380,-41.720,21.700,375,397,382,367,407,2025-05-27T22:44:55.790485
20938,-0.0781,0.7408,0.1747,-12.635,-35.595,19.950,392,398,376,349,351,2025-05-27T22:44:55.790485
20939,-0.1000,0.7618,0.2015,-0.700,-32.515,20.790,401,405,374,344,336,2025-05-27T22:44:55.790485
20940,-0.1444,0.7564,0.2147,-6.055,-31.500,20.475,401,407,371,383,375,2025-05-27T22:44:55.790485
20941,-0.1576,0.7647,0.2406,-2.380,-30.030,19.285,391,396,388,368,385,2025-05-27T22:44:55.790485
20942,-0.1688,0.7593,0.2630,0.420,-28.805,18.305,392,360,383,392,404,2025-05-27T22:44:55.790485
20943,-0.1903,0.7681,0.2757,3.115,-29.435,17.850,400,385,385,344,392,2025-05-27T22:44:55.790485
20944,-0.2011,0.7769,0.3079,5.285,-30.170,17.150,405,391,373,391,405,2025-05-27T22:44:55.790485
20945,-0.1771,0.7930,0.3118,5.740,-28.525,15.995,400,417,386,405,389,2025-05-27T22:44:55.790485
20946,-0.1537,0.8067,0.2977,5.810,-24.955,15.470,400,420,390,409,406,2025-05-27T22:44:55.790485
20947,-0.1396,0.8257,0.2811,6.160,-18.690,14.735,297,423,392,364,369,2025-05-27T22:44:55.790485
20948,-0.1303,0.8398,0.2757,7.315,-10.850,14.245,395,420,350,400,400,2025-05-27T22:44:55.790485
20949,-0.1488,0.8506,0.2650,8.925,-4.200,13.895,388,415,365,402,394,2025-05-27T22:44:55.790485
20950,-0.1718,0.8745,0.2757,10.990,-0.560,12.390,408,380,362,393,388,2025-05-27T22:44:55.790485
20951,-0.1879,0.9023,0.2943,10.290,1.715,10.150,392,355,367,410,350,2025-05-27T22:44:55.790485
20952,-0.2186,0.9140,0.2938,10.185,0.910,8.120,411,387,365,389,388,2025-05-27T22:44:55.790485
20953,-0.2377,0.9160,0.2850,11.375,-3.395,6.790,399,418,381,395,376,2025-05-27T22:44:55.790485
20954,-0.2362,0.9335,0.2782,12.775,-9.100,5.845,356,420,309,379,390,2025-05-27T22:44:55.790485
20955,-0.2059,0.9511,0.2645,12.670,-9.415,5.215,371,396,352,341,385,2025-05-27T22:44:55.955575
20956,-0.2015,0.9711,0.2552,11.340,-3.990,3.955,407,416,326,371,409,2025-05-27T22:44:55.955575
20957,-0.2069,0.9765,0.2420,9.485,2.800,2.275,396,425,360,299,404,2025-05-27T22:44:55.955575
20958,-0.2284,0.9882,0.2455,7.140,6.370,1.260,299,390,366,367,411,2025-05-27T22:44:55.955575
20959,-0.2606,0.9892,0.2435,5.320,7.700,0.735,384,347,380,390,372,2025-05-27T22:44:55.955575
20960,-0.2840,0.9828,0.2547,3.605,5.950,0.245,393,383,371,393,381,2025-05-27T22:44:55.955575
20961,-0.2904,0.9755,0.2542,2.520,2.730,0.735,423,412,345,382,379,2025-05-27T22:44:55.955575
20962,-0.2894,0.9687,0.2484,1.505,0.945,1.260,412,351,349,402,409,2025-05-27T22:44:55.955575
20963,-0.2957,0.9589,0.2455,0.525,0.035,0.945,418,289,361,411,390,2025-05-27T22:44:55.955575
20964,-0.2762,0.9492,0.2303,-0.105,0.175,1.260,408,380,380,415,389,2025-05-27T22:44:55.955575
20965,-0.2767,0.9394,0.2269,-1.190,1.505,0.875,416,404,375,391,397,2025-05-27T22:44:55.955575
20966,-0.2782,0.9365,0.2342,-3.010,3.990,0.280,390,400,379,385,399,2025-05-27T22:44:55.955575
20967,-0.2816,0.9252,0.2338,-5.005,5.215,1.260,414,378,390,410,413,2025-05-27T22:44:55.955575
20968,-0.2928,0.9179,0.2289,-6.650,5.390,2.240,395,384,344,400,397,2025-05-27T22:44:55.955575
20969,-0.3104,0.9018,0.2255,-8.120,5.390,2.275,421,416,360,391,397,2025-05-27T22:44:56.061682
20970,-0.3182,0.8960,0.2245,-7.980,3.535,2.485,344,424,333,405,348,2025-05-27T22:44:56.061682
20971,-0.3162,0.8891,0.2181,-7.420,1.085,2.240,395,408,365,404,334,2025-05-27T22:44:56.061682
20972,-0.3094,0.8896,0.2216,-6.755,0.140,1.925,395,421,380,367,367,2025-05-27T22:44:56.061682
20973,-0.3026,0.8945,0.2308,-6.615,0.735,1.925,389,404,391,380,392,2025-05-27T22:44:56.061682
20974,-0.3026,0.8896,0.2420,-6.825,1.470,1.645,391,405,383,392,400,2025-05-27T22:44:56.061682
20975,-0.3065,0.8896,0.2503,-7.000,1.925,1.505,398,424,388,348,391,2025-05-27T22:44:56.061682
20976,-0.3089,0.8833,0.2586,-7.455,2.065,0.805,389,397,377,374,366,2025-05-27T22:44:56.061682
20977,-0.3143,0.8808,0.2660,-7.560,1.330,0.315,389,397,371,386,390,2025-05-27T22:44:56.272870
20978,-0.3104,0.8779,0.2591,-7.000,-0.525,0.070,346,422,339,396,390,2025-05-27T22:44:56.272870
20979,-0.3133,0.8760,0.2669,-5.565,-2.030,-0.175,408,356,320,409,342,2025-05-27T22:44:56.272870
20980,-0.3065,0.8789,0.2777,-4.795,-2.730,-0.035,399,392,326,394,379,2025-05-27T22:44:56.272870
20981,-0.3006,0.8886,0.2835,-4.725,-2.625,-0.035,403,401,353,407,396,2025-05-27T22:44:56.272870
20982,-0.2996,0.8916,0.2816,-4.655,-0.630,-0.490,355,421,374,364,307,2025-05-27T22:44:56.272870
20983,-0.3035,0.8969,0.2767,-4.585,1.365,-1.155,393,429,371,378,281,2025-05-27T22:44:56.272870
20984,-0.3143,0.9033,0.2738,-3.780,1.260,-0.840,413,401,369,401,369,2025-05-27T22:44:56.272870
20985,-0.3240,0.9004,0.2718,-2.870,0.525,-0.385,406,301,378,412,379,2025-05-27T22:44:56.272870
20986,-0.3309,0.9091,0.2708,-2.100,0.070,-0.140,415,395,386,420,385,2025-05-27T22:44:56.272870
20987,-0.3338,0.9155,0.2694,-2.065,-0.805,0.315,425,420,339,408,361,2025-05-27T22:44:56.272870
20988,-0.3284,0.9228,0.2625,-2.240,-1.925,0.805,395,402,367,413,393,2025-05-27T22:44:56.272870
20989,-0.3250,0.9262,0.2577,-2.485,-2.240,0.910,413,419,372,417,396,2025-05-27T22:44:56.272870
20990,-0.3148,0.9199,0.2450,-2.380,-2.065,1.295,411,392,338,422,391,2025-05-27T22:44:56.272870
20991,-0.3152,0.9262,0.2503,-2.800,-1.505,1.470,418,399,357,418,408,2025-05-27T22:44:56.272870
20992,-0.3152,0.9194,0.2411,-3.360,-0.175,1.890,381,399,363,411,410,2025-05-27T22:44:56.272870
20993,-0.3196,0.9184,0.2396,-3.255,-0.175,2.730,414,422,365,399,405,2025-05-27T22:44:56.272870
20994,-0.3240,0.9209,0.2416,-2.625,-1.260,3.465,397,413,379,395,391,2025-05-27T22:44:56.272870
20995,-0.3157,0.9277,0.2523,-2.100,-1.750,3.605,381,399,378,377,342,2025-05-27T22:44:56.272870
20996,-0.3177,0.9345,0.2704,-2.660,-2.030,3.290,340,396,372,397,390,2025-05-27T22:44:56.358421
20997,-0.3006,0.9296,0.2650,-3.780,-2.065,3.185,334,407,371,413,344,2025-05-27T22:44:56.358421
20998,-0.2987,0.9272,0.2650,-4.340,-0.840,3.080,361,348,369,406,396,2025-05-27T22:44:56.358421
20999,-0.2938,0.9170,0.2596,-4.235,-0.210,2.835,384,417,370,415,389,2025-05-27T22:44:56.358421
21000,-0.2835,0.9101,0.2611,-3.675,-0.175,2.555,399,417,375,412,411,2025-05-27T22:44:56.358421
21001,-0.2738,0.9038,0.2538,-3.395,0.875,2.625,342,421,383,409,393,2025-05-27T22:44:56.358421
21002,-0.2796,0.8974,0.2479,-2.415,2.485,2.765,389,413,393,415,395,2025-05-27T22:44:56.358421
21003,-0.2782,0.8965,0.2567,-2.240,2.905,1.820,413,395,394,371,393,2025-05-27T22:44:56.683883
21004,-0.2689,0.9018,0.2674,-2.555,3.535,1.400,391,404,397,407,348,2025-05-27T22:44:56.683883
21005,-0.2630,0.8979,0.2708,-2.415,4.060,1.750,419,429,375,392,369,2025-05-27T22:44:56.683883
21006,-0.2684,0.9062,0.2865,0.105,3.955,2.030,417,430,383,412,393,2025-05-27T22:44:56.683883
21007,-0.2621,0.8979,0.2630,5.285,2.695,3.955,422,426,376,408,402,2025-05-27T22:44:56.683883
21008,-0.2352,0.8325,0.2762,11.130,4.095,7.140,348,436,384,417,405,2025-05-27T22:44:56.683883
21009,-0.2142,0.7559,0.2391,15.890,7.490,9.415,389,349,385,418,369,2025-05-27T22:44:56.683883
21010,-0.1947,0.6188,0.1825,19.950,10.990,15.680,386,361,370,418,402,2025-05-27T22:44:56.683883
21011,-0.1728,0.4939,0.1635,22.225,13.090,18.725,417,388,381,402,415,2025-05-27T22:44:56.683883
21012,-0.1103,0.3714,0.1698,22.890,19.250,17.010,416,343,380,405,416,2025-05-27T22:44:56.683883
21013,-0.0708,0.2352,0.1830,22.155,32.165,12.040,408,333,342,415,395,2025-05-27T22:44:56.683883
21014,0.0063,0.1249,0.1908,21.490,43.925,5.425,405,396,371,401,388,2025-05-27T22:44:56.683883
21015,-0.0532,-0.0688,0.1610,25.305,46.795,-5.495,418,423,378,409,345,2025-05-27T22:44:56.683883
21016,-0.0102,-0.2011,0.1537,39.235,43.645,-19.985,392,378,334,345,379,2025-05-27T22:44:56.683883
21017,0.1044,-0.2303,0.2142,54.075,44.310,-36.575,414,426,366,396,409,2025-05-27T22:44:57.012258
21018,0.2801,-0.2318,0.1976,60.025,68.775,-54.320,424,419,373,398,373,2025-05-27T22:44:57.012258
21019,0.3621,-0.2913,0.0800,72.415,106.890,-66.185,431,414,339,410,388,2025-05-27T22:44:57.012258
21020,0.3616,-0.2884,0.0024,92.680,143.990,-79.275,386,419,370,408,410,2025-05-27T22:44:57.012258
21021,0.3992,-0.1747,0.0015,106.960,183.050,-96.320,369,405,363,415,397,2025-05-27T22:44:57.012258
21022,0.3597,-0.0503,-0.0576,120.225,219.940,-107.310,414,425,385,405,390,2025-05-27T22:44:57.012258
21023,0.3304,0.0722,-0.1615,134.610,244.895,-122.045,386,402,383,406,402,2025-05-27T22:44:57.012258
21024,0.2660,0.2762,-0.1845,155.610,270.130,-134.925,402,427,384,412,400,2025-05-27T22:44:57.012258
21025,0.2225,0.4978,-0.2411,171.360,285.950,-150.220,341,416,376,422,406,2025-05-27T22:44:57.012258
21026,0.2284,0.5885,-0.4534,187.110,289.485,-157.920,377,419,371,400,349,2025-05-27T22:44:57.012258
21027,0.2181,0.6949,-0.7013,215.880,297.850,-159.425,412,422,354,408,370,2025-05-27T22:44:57.012258
21028,0.2279,0.8584,-0.8545,246.470,316.715,-156.240,404,425,365,391,380,2025-05-27T22:44:57.012258
21029,0.2572,1.0946,-1.0224,261.520,339.115,-150.745,422,381,366,393,341,2025-05-27T22:44:57.012258
21030,0.2650,1.3957,-1.2434,278.180,361.375,-145.215,418,414,338,357,386,2025-05-27T22:44:57.012258
21031,0.2294,1.6450,-1.5167,296.100,376.565,-134.610,380,350,370,357,340,2025-05-27T22:44:57.012258
21032,0.1640,1.8617,-1.8217,310.870,379.715,-121.625,386,424,372,399,366,2025-05-27T22:44:57.012258
21033,0.0727,2.1892,-2.0545,313.145,358.610,-113.785,418,433,372,352,382,2025-05-27T22:44:57.012258
21034,0.0127,2.2819,-2.4649,285.915,322.700,-100.170,348,357,385,379,396,2025-05-27T22:44:57.012258
21035,-0.1425,2.4810,-2.5903,241.395,279.020,-97.440,410,412,382,415,403,2025-05-27T22:44:57.012258
21036,-0.1610,2.7460,-2.6884,166.600,231.420,-123.270,420,380,377,401,403,2025-05-27T22:44:57.012258
21037,-0.1518,2.7728,-2.9241,73.325,179.130,-146.755,341,387,383,397,414,2025-05-27T22:44:57.015758
21038,-0.1786,2.6171,-3.1022,-23.345,130.305,-169.575,338,374,395,402,410,2025-05-27T22:44:57.015758
21039,-0.0556,2.3526,-3.3296,-89.985,91.525,-176.155,403,398,389,391,397,2025-05-27T22:44:57.015758
21040,0.0337,2.0960,-3.4628,-160.055,81.865,-164.885,395,416,383,385,397,2025-05-27T22:44:57.015758
21041,0.0244,1.9042,-3.3731,-225.295,102.375,-146.300,394,428,353,397,405,2025-05-27T22:44:57.015758
21042,-0.0454,1.6480,-3.2398,-279.440,130.655,-119.875,422,429,378,396,370,2025-05-27T22:44:57.015758
21043,-0.1840,1.4484,-3.0803,-320.635,161.385,-108.430,429,423,373,388,383,2025-05-27T22:44:57.015758
21044,-0.3172,1.1727,-2.9363,-352.660,185.395,-86.205,401,423,384,403,382,2025-05-27T22:44:57.015758
21045,-0.4914,0.8716,-2.9002,-378.070,208.985,-68.110,428,353,354,412,399,2025-05-27T22:44:57.015758
21046,-0.7476,0.4992,-2.9285,-389.760,226.695,-49.140,412,418,381,411,398,2025-05-27T22:44:57.015758
21047,-1.1356,0.2079,-2.8450,-396.725,213.920,-33.635,437,411,378,356,391,2025-05-27T22:44:57.015758
21048,-1.3313,-0.1606,-2.7411,-402.395,183.050,-19.285,430,351,379,374,398,2025-05-27T22:44:57.015758
21049,-1.4191,-0.5466,-2.5122,-402.675,135.415,-8.785,399,412,338,387,403,2025-05-27T22:44:57.015758
21050,-1.3649,-0.8764,-2.1379,-393.715,105.560,4.655,424,431,354,407,414,2025-05-27T22:44:57.015758
21051,-1.2093,-1.2991,-1.6221,-374.990,94.290,18.900,412,378,367,391,398,2025-05-27T22:44:57.015758
21052,-0.9984,-1.7612,-1.1741,-340.480,83.335,36.050,362,414,374,414,409,2025-05-27T22:44:57.015758
21053,-0.5793,-2.3185,-0.7559,-298.515,81.305,52.185,405,408,354,403,406,2025-05-27T22:44:57.015758
21054,-0.3699,-2.7679,-0.2445,-236.215,109.410,46.585,408,349,355,420,409,2025-05-27T22:44:57.015758
21055,-0.4914,-2.9099,0.1859,-174.335,131.075,30.765,392,358,379,408,415,2025-05-27T22:44:57.015758
21056,-0.6647,-2.9026,0.3953,-105.490,106.995,13.860,401,417,387,393,394,2025-05-27T22:44:57.187478
21057,-0.7491,-2.6850,0.4831,-37.835,22.435,-1.540,354,404,357,403,391,2025-05-27T22:44:57.187958
21058,-0.6744,-2.2707,0.4509,23.835,-21.735,-17.990,404,416,369,405,378,2025-05-27T22:44:57.187958
21059,-0.5832,-1.7348,0.3972,74.655,-39.550,-31.220,397,403,378,422,407,2025-05-27T22:44:57.187958
21060,-0.5026,-1.2473,0.2948,110.985,-34.405,-45.885,424,356,343,422,392,2025-05-27T22:44:57.187958
21061,-0.5573,-0.7335,0.0142,139.335,-29.225,-57.190,421,394,376,404,410,2025-05-27T22:44:57.187958
21062,-0.6305,-0.1391,-0.0200,162.085,-24.290,-61.215,418,423,375,400,398,2025-05-27T22:44:57.187958
21063,-0.7149,0.3616,-0.1693,174.265,-28.385,-60.900,306,420,385,407,383,2025-05-27T22:44:57.188885
21064,-0.7984,0.7300,-0.3597,183.540,-41.580,-59.430,373,412,388,406,391,2025-05-27T22:44:57.188885
21065,-0.8174,1.0555,-0.5412,189.210,-66.710,-56.945,384,433,377,403,341,2025-05-27T22:44:57.188885
21066,-0.8076,1.2698,-0.7457,190.225,-89.775,-51.940,423,346,341,405,329,2025-05-27T22:44:57.188885
21067,-0.7798,1.3488,-0.9740,187.565,-108.535,-42.735,412,404,373,406,383,2025-05-27T22:44:57.188885
21068,-0.7247,1.4050,-1.1180,181.650,-124.075,-33.215,415,396,389,417,396,2025-05-27T22:44:57.188885
21069,-0.6417,1.4333,-1.2381,171.325,-132.265,-23.310,422,429,390,422,351,2025-05-27T22:44:57.189942
21070,-0.5773,1.4279,-1.3278,159.600,-127.575,-15.330,425,416,394,400,348,2025-05-27T22:44:57.189942
21071,-0.5905,1.4201,-1.3508,143.255,-119.665,-8.925,420,429,350,418,390,2025-05-27T22:44:57.289447
21072,-0.6046,1.4542,-1.2917,129.080,-120.785,-4.305,402,431,354,424,386,2025-05-27T22:44:57.289447
21073,-0.6647,1.4006,-1.2415,114.415,-130.130,0.245,421,403,367,406,406,2025-05-27T22:44:57.289447
21074,-0.7466,1.3596,-1.1761,103.915,-153.440,4.235,399,389,359,408,411,2025-05-27T22:44:57.289447
21075,-0.8125,1.3513,-1.1468,95.760,-185.290,6.265,418,348,366,397,391,2025-05-27T22:44:57.289447
21076,-0.7432,1.3449,-1.1195,87.255,-224.420,10.465,421,414,388,398,365,2025-05-27T22:44:57.289447
21077,-0.7125,1.3576,-1.1190,74.025,-244.090,15.120,395,341,373,388,403,2025-05-27T22:44:57.289447
21078,-0.5700,1.3332,-1.1219,64.715,-244.195,18.550,412,361,379,344,405,2025-05-27T22:44:57.289447
21079,-0.5451,1.3474,-1.1590,51.065,-230.685,24.010,419,403,370,330,415,2025-05-27T22:44:57.408022
21080,-0.6041,1.3230,-1.0936,29.470,-219.310,32.025,407,422,378,331,414,2025-05-27T22:44:57.408022
21081,-0.6954,1.3410,-1.0146,25.445,-224.350,39.725,418,413,372,342,414,2025-05-27T22:44:57.408022
21082,-0.7544,1.2917,-0.9277,14.455,-240.660,47.250,422,416,387,397,389,2025-05-27T22:44:57.421803
21083,-0.7452,1.2810,-0.8594,6.230,-268.100,54.110,400,400,388,408,388,2025-05-27T22:44:57.421803
21084,-0.6642,1.2171,-0.8628,-0.840,-291.830,59.535,419,431,372,411,382,2025-05-27T22:44:57.421803
21085,-0.4831,1.1961,-0.8755,-5.600,-300.405,64.610,409,410,371,351,397,2025-05-27T22:44:57.422243
21086,-0.4041,1.1278,-0.8603,-9.485,-292.425,67.060,422,425,362,401,387,2025-05-27T22:44:57.422518
21087,-0.3416,1.1112,-0.8111,-12.285,-279.020,68.110,398,393,376,364,391,2025-05-27T22:44:57.422518
21088,-0.3084,1.0648,-0.7422,-17.990,-270.305,69.125,399,399,377,393,394,2025-05-27T22:44:57.422518
21089,-0.3011,0.9965,-0.7222,-25.900,-266.175,70.175,393,421,369,392,394,2025-05-27T22:44:57.422857
21090,-0.3245,0.9257,-0.6959,-30.940,-265.090,69.475,392,429,382,403,401,2025-05-27T22:44:57.598283
21091,-0.3099,0.8882,-0.6539,-33.495,-268.520,66.605,416,387,383,396,407,2025-05-27T22:44:57.598283
21092,-0.2684,0.8647,-0.6154,-35.840,-271.355,63.070,429,398,390,423,409,2025-05-27T22:44:57.598283
21093,-0.1537,0.8423,-0.5929,-37.835,-263.340,57.295,420,399,387,397,389,2025-05-27T22:44:57.598283
21094,-0.0849,0.8325,-0.5490,-38.780,-244.545,51.485,392,415,385,346,356,2025-05-27T22:44:57.598283
21095,-0.0678,0.8228,-0.4943,-40.320,-221.060,45.920,354,420,377,370,398,2025-05-27T22:44:57.598283
21096,-0.0361,0.8125,-0.4602,-44.345,-204.820,44.485,409,415,381,400,405,2025-05-27T22:44:57.598283
21097,-0.0566,0.7803,-0.4241,-45.710,-185.885,44.170,410,398,339,346,413,2025-05-27T22:44:57.598283
21098,-0.0825,0.7530,-0.3733,-44.695,-168.595,41.475,405,343,326,390,372,2025-05-27T22:44:57.598283
21099,-0.1142,0.7432,-0.2908,-43.085,-156.730,37.555,403,326,349,395,399,2025-05-27T22:44:57.598283
21100,-0.0961,0.7359,-0.2313,-41.685,-149.765,34.230,383,385,360,411,400,2025-05-27T22:44:57.598283
21101,-0.0654,0.7437,-0.1474,-41.475,-139.440,30.485,414,430,375,412,389,2025-05-27T22:44:57.598283
21102,-0.0561,0.7422,-0.0996,-40.355,-125.825,26.530,417,417,375,401,407,2025-05-27T22:44:57.598283
21103,-0.0278,0.7432,-0.0737,-38.710,-115.780,24.045,393,430,376,373,410,2025-05-27T22:44:57.599282
21104,-0.0166,0.7188,-0.0551,-35.805,-103.040,23.100,388,374,386,385,389,2025-05-27T22:44:57.599282
21105,-0.0161,0.7252,-0.0273,-32.375,-88.410,21.735,414,394,385,393,395,2025-05-27T22:44:57.739762
21106,-0.0303,0.7383,0.0146,-29.575,-74.760,18.830,412,383,375,383,397,2025-05-27T22:44:57.739762
21107,-0.0561,0.7427,0.0488,-26.180,-64.085,16.030,405,413,370,373,393,2025-05-27T22:44:57.739762
21108,-0.1093,0.7393,0.0859,-23.415,-58.135,14.280,392,408,335,383,412,2025-05-27T22:44:57.739762
21109,-0.1649,0.7515,0.1488,-20.545,-57.575,13.195,353,422,327,399,408,2025-05-27T22:44:57.739762
21110,-0.1893,0.7559,0.1640,-18.550,-60.935,13.300,406,406,321,408,415,2025-05-27T22:44:57.739762
21111,-0.1986,0.7627,0.1586,-15.190,-63.735,13.965,404,428,362,406,416,2025-05-27T22:44:57.739762
21112,-0.1932,0.7603,0.1288,-11.655,-63.210,14.210,408,386,335,406,417,2025-05-27T22:44:57.739762
21113,-0.1801,0.7671,0.1054,-7.595,-59.080,14.245,403,388,369,398,407,2025-05-27T22:44:57.989541
21114,-0.1513,0.7915,0.1005,-4.515,-48.090,14.350,395,419,367,383,411,2025-05-27T22:44:57.989541
21115,-0.1527,0.8047,0.0908,-2.625,-34.440,15.330,337,421,360,367,390,2025-05-27T22:44:57.989541
21116,-0.1664,0.8140,0.0991,-0.245,-23.310,16.310,385,396,334,338,349,2025-05-27T22:44:57.989541
21117,-0.1889,0.8281,0.1152,0.420,-10.570,16.485,333,410,371,387,378,2025-05-27T22:44:57.989541
21118,-0.2255,0.8511,0.1503,0.595,-1.540,16.975,377,421,367,391,340,2025-05-27T22:44:57.989541
21119,-0.2430,0.8608,0.1664,-0.140,2.835,17.780,388,418,347,340,372,2025-05-27T22:44:57.989541
21120,-0.2752,0.8701,0.1762,-1.575,4.095,17.710,388,362,372,292,335,2025-05-27T22:44:57.989541
21121,-0.2933,0.8725,0.1718,-1.120,1.890,18.550,399,402,345,370,333,2025-05-27T22:44:57.989541
21122,-0.2996,0.8950,0.1889,0.735,-2.450,19.250,338,393,358,296,325,2025-05-27T22:44:57.989541
21123,-0.3006,0.9130,0.2054,1.295,-7.490,18.865,399,337,378,377,363,2025-05-27T22:44:57.989541
21124,-0.2904,0.9272,0.2133,0.665,-10.780,17.815,408,383,375,380,341,2025-05-27T22:44:57.989541
21125,-0.2640,0.9516,0.2308,0.595,-12.460,16.380,413,406,347,379,387,2025-05-27T22:44:57.989541
21126,-0.2372,0.9633,0.2386,-0.910,-11.795,14.420,419,420,325,395,404,2025-05-27T22:44:57.989541
21127,-0.2220,0.9643,0.2396,-3.115,-10.570,12.285,358,427,357,413,390,2025-05-27T22:44:57.989541
21128,-0.3748,0.9653,0.2499,-3.395,-9.660,10.745,402,352,382,352,365,2025-05-27T22:44:57.989541
21129,-0.2157,0.9853,0.2713,-2.275,-10.045,12.075,336,346,375,387,380,2025-05-27T22:44:57.989541
21130,-0.2294,0.9731,0.2669,-3.430,-7.735,12.355,361,414,344,388,401,2025-05-27T22:44:57.989541
21131,-0.2162,0.9648,0.2650,-3.640,-2.765,10.500,406,423,356,386,408,2025-05-27T22:44:57.989541
21132,-0.2040,0.9667,0.2708,-3.850,0.980,7.770,356,376,375,379,410,2025-05-27T22:44:57.989541
21133,-0.2601,0.9692,0.3084,-4.725,4.445,4.795,410,433,383,397,412,2025-05-27T22:44:58.241062
21134,-0.2738,0.9438,0.2840,-6.510,3.640,3.220,422,439,339,390,368,2025-05-27T22:44:58.241062
21135,-0.2923,0.9233,0.2625,-5.180,-1.890,3.045,430,412,322,360,340,2025-05-27T22:44:58.241062
21136,-0.2908,0.9096,0.2499,-3.360,-4.410,1.925,435,396,310,405,380,2025-05-27T22:44:58.241062
21137,-0.2664,0.9174,0.2518,-3.430,-3.640,-0.245,428,357,353,413,396,2025-05-27T22:44:58.241062
21138,-0.2811,0.8979,0.2338,-4.305,-2.590,-1.260,439,386,369,406,354,2025-05-27T22:44:58.241062
21139,-0.2684,0.8794,0.2069,-3.675,-1.750,0.035,424,402,334,395,376,2025-05-27T22:44:58.241062
21140,-0.2767,0.8706,0.1991,-2.765,1.085,0.350,346,390,369,395,398,2025-05-27T22:44:58.241062
21141,-0.3045,0.8750,0.2079,-2.765,5.425,0.000,407,417,370,419,389,2025-05-27T22:44:58.241062
21142,-0.3177,0.8833,0.2123,-2.240,6.615,1.155,408,418,373,354,388,2025-05-27T22:44:58.241062
21143,-0.3436,0.8706,0.1918,-1.540,5.565,1.785,367,414,378,396,353,2025-05-27T22:44:58.241062
21144,-0.3411,0.8652,0.1903,0.175,4.725,1.540,343,433,381,383,385,2025-05-27T22:44:58.241062
21145,-0.3416,0.8764,0.1967,0.700,3.815,1.085,374,407,380,345,377,2025-05-27T22:44:58.241062
21146,-0.3284,0.8740,0.1850,0.280,3.570,1.295,392,366,387,390,304,2025-05-27T22:44:58.241062
21147,-0.3231,0.8740,0.1898,0.280,4.025,1.050,419,386,354,378,315,2025-05-27T22:44:58.241062
21148,-0.3211,0.8862,0.2054,0.210,3.710,-0.175,396,421,370,391,374,2025-05-27T22:44:58.241062
21149,-0.3113,0.8838,0.2089,-0.210,2.940,-0.350,398,404,385,391,394,2025-05-27T22:44:58.241062
21150,-0.3128,0.8843,0.2094,-0.420,1.960,0.245,412,431,384,411,405,2025-05-27T22:44:58.241062
21151,-0.3152,0.8833,0.2137,0.210,2.415,0.035,420,440,311,395,385,2025-05-27T22:44:58.241062
21152,-0.3172,0.8974,0.2303,0.490,3.745,-0.630,429,435,341,392,363,2025-05-27T22:44:58.241062
21153,-0.3328,0.9023,0.2318,0.455,4.305,-1.575,402,440,327,398,383,2025-05-27T22:44:58.241062
21154,-0.3445,0.9082,0.2264,1.610,3.465,-1.925,412,360,359,392,400,2025-05-27T22:44:58.322156
