SeqNum,AccX,AccY,AccZ,GyroX,GyroY,GyroZ,Flex,Force1,Force2,Force3,Force4,TimestampReception
5836,-0.5031,0.1532,0.8833,-0.105,-2.695,0.070,0.00,0.0184,0.0000,0.0100,0.0000,2025-06-09T13:37:12.264440
5837,-0.4958,0.1474,0.8872,0.140,-2.905,0.315,0.01,0.0368,0.0254,0.0100,0.0087,2025-06-09T13:37:12.264440
5838,-0.4973,0.1488,0.8891,0.210,-2.800,0.385,0.01,0.0368,0.0508,0.0300,0.0087,2025-06-09T13:37:12.264440
5839,-0.4948,0.1493,0.8862,0.280,-2.940,0.245,0.00,0.0184,0.0254,0.0200,0.0087,2025-06-09T13:37:12.264440
5840,-0.4958,0.1493,0.8867,0.035,-2.975,0.420,0.01,0.0368,0.0000,0.0501,0.0087,2025-06-09T13:37:12.264440
5841,-0.4982,0.1493,0.8896,0.245,-2.870,0.525,0.00,0.0184,0.0508,0.0300,0.0087,2025-06-09T13:37:12.264440
5842,-0.4973,0.1508,0.8886,0.455,-2.975,0.385,0.01,0.0368,0.0254,0.0100,0.0087,2025-06-09T13:37:12.264440
5843,-0.4978,0.1484,0.8872,0.000,-3.290,0.385,0.00,0.0184,0.0254,0.0501,0.0174,2025-06-09T13:37:12.264440
5844,-0.4982,0.1488,0.8882,0.175,-3.220,0.490,0.00,0.0184,0.0254,0.0200,0.0087,2025-06-09T13:37:12.352203
5845,-0.4958,0.1459,0.8857,0.525,-3.325,0.735,0.00,0.0184,0.0508,0.0200,0.0087,2025-06-09T13:37:12.352203
5846,-0.4953,0.1488,0.8838,0.315,-3.640,0.735,0.01,0.0000,0.0508,0.0300,0.0174,2025-06-09T13:37:12.352203
5847,-0.4929,0.1508,0.8882,0.385,-3.570,0.875,0.00,0.0184,0.0254,0.0200,0.0174,2025-06-09T13:37:12.352203
5848,-0.4934,0.1488,0.8901,0.700,-3.465,0.910,0.01,0.0368,0.0254,0.0300,0.0087,2025-06-09T13:37:12.352203
5849,-0.4929,0.1488,0.8891,0.455,-3.465,0.700,0.00,0.0368,0.0508,0.0200,0.0087,2025-06-09T13:37:12.352203
5850,-0.4934,0.1503,0.8891,0.420,-3.325,0.665,0.00,0.0368,0.0000,0.0100,0.0087,2025-06-09T13:37:12.403093
5851,-0.4934,0.1503,0.8911,0.525,-3.220,0.665,0.00,0.0368,0.0254,0.0100,0.0174,2025-06-09T13:37:12.403093
5852,-0.4958,0.1484,0.8906,0.385,-3.185,0.525,0.01,0.0368,0.0508,0.0401,0.0174,2025-06-09T13:37:12.403093
5853,-0.4934,0.1493,0.8886,0.245,-3.290,0.560,0.00,0.0368,0.0254,0.0300,0.0174,2025-06-09T13:37:12.403093
5854,-0.4943,0.1527,0.8921,0.315,-3.150,0.525,0.00,0.0184,0.0762,0.0300,0.0174,2025-06-09T13:37:12.568334
5855,-0.4958,0.1542,0.8891,0.665,-3.115,0.525,0.01,0.0184,0.0254,0.0200,0.0174,2025-06-09T13:37:12.568334
5856,-0.4934,0.1630,0.8882,-0.105,-2.765,-0.315,0.00,0.0184,0.0762,0.0300,0.0087,2025-06-09T13:37:12.568334
5857,-0.4963,0.1542,0.8818,-1.190,-2.870,-1.155,0.00,0.0368,0.0254,0.0200,0.0087,2025-06-09T13:37:12.568334
5858,-0.4934,0.1391,0.9023,-0.560,-2.800,-0.420,0.00,0.0184,0.0508,0.0200,0.0174,2025-06-09T13:37:12.568334
5859,-0.4973,0.1454,0.8955,0.525,-1.890,0.245,0.00,0.0184,0.1018,0.0100,0.0087,2025-06-09T13:37:12.568334
5860,-0.4875,0.1425,0.8872,1.295,-3.010,0.140,0.00,0.0000,0.0254,0.0200,0.0087,2025-06-09T13:37:12.568334
5861,-0.5163,0.0181,0.8725,-1.470,-1.925,1.925,0.00,0.0184,0.0254,0.0501,0.0174,2025-06-09T13:37:12.568334
5862,-0.4636,0.0678,0.9335,1.400,-9.310,7.175,0.01,0.0184,0.0000,0.0100,0.0087,2025-06-09T13:37:12.568334
5863,-0.5031,0.1967,0.8916,6.790,-3.255,6.020,0.00,0.0368,0.0508,0.0200,0.0174,2025-06-09T13:37:12.568334
5864,-0.4748,0.1981,0.9482,4.270,1.190,-0.175,0.00,0.0368,0.0508,0.0100,0.0087,2025-06-09T13:37:12.568334
5865,-0.4870,0.1474,0.8926,-2.765,-4.130,-3.185,0.00,0.0184,0.0508,0.0401,0.0174,2025-06-09T13:37:12.568334
5866,-0.4997,0.1083,0.8755,-2.345,-3.815,0.280,0.01,0.0368,0.0254,0.0200,0.0174,2025-06-09T13:37:12.616775
5867,-0.4914,0.1405,0.8867,6.230,-1.120,3.115,0.00,0.0368,0.0000,0.0200,0.0087,2025-06-09T13:37:12.616775
5868,-0.4924,0.1752,0.8764,0.700,-3.185,1.995,0.01,0.0000,0.0254,0.0000,0.0174,2025-06-09T13:37:12.616775
5869,-0.4797,0.1532,0.9272,-4.270,-4.445,0.105,0.00,0.0184,0.0508,0.0100,0.0087,2025-06-09T13:37:12.616775
5870,-0.4953,0.1581,0.8896,1.050,-0.840,0.070,0.01,0.0184,0.0508,0.0401,0.0000,2025-06-09T13:37:12.672627
5871,-0.4885,0.1503,0.8725,0.105,-0.245,0.420,0.00,0.0368,0.0508,0.0200,0.0174,2025-06-09T13:37:12.672627
5872,-0.4914,0.1527,0.9077,-1.890,-3.220,-0.315,0.01,0.0368,0.0000,0.0200,0.0087,2025-06-09T13:37:12.672627
5873,-0.4997,0.1566,0.8862,8.610,-3.220,-0.770,0.01,0.0184,0.0254,0.0200,0.0174,2025-06-09T13:37:12.672627
5874,-0.4851,0.1440,0.8882,1.155,-1.470,-0.175,0.00,0.0368,0.0762,0.0100,0.0087,2025-06-09T13:37:12.768375
5875,-0.4953,0.1484,0.9008,1.225,-2.730,0.105,0.01,0.0368,0.0762,0.0300,0.0174,2025-06-09T13:37:12.768375
5876,-0.4865,0.1591,0.8828,-0.700,-3.045,-0.245,0.01,0.0184,0.0508,0.0300,0.0174,2025-06-09T13:37:12.768375
5877,-0.4934,0.1484,0.8940,-0.420,-2.065,-0.280,0.00,0.0368,0.0508,0.0300,0.0087,2025-06-09T13:37:12.768375
5878,-0.4958,0.1484,0.8960,-0.035,-5.495,-0.105,0.00,0.0368,0.0508,0.0200,0.0174,2025-06-09T13:37:12.768375
5879,-0.4948,0.1649,0.8877,-0.980,-3.360,0.490,0.00,0.0184,0.0508,0.0200,0.0087,2025-06-09T13:37:12.768375
5880,-0.4919,0.1381,0.8862,0.455,-5.215,-0.665,0.00,0.0184,0.0254,0.0000,0.0087,2025-06-09T13:37:12.768375
5881,-0.4963,0.1459,0.8823,-1.120,-4.725,0.490,0.00,0.0368,0.0508,0.0100,0.0174,2025-06-09T13:37:12.864114
5882,-0.4978,0.1566,0.9013,1.645,-2.870,0.945,0.00,0.0184,0.0254,0.0200,0.0087,2025-06-09T13:37:12.864114
5883,-0.4895,0.1523,0.8818,0.630,-3.885,0.070,0.01,0.0184,0.1018,0.0100,0.0000,2025-06-09T13:37:12.864114
5884,-0.4929,0.1601,0.8960,-2.415,-4.655,-0.350,0.00,0.0368,0.0508,0.0200,0.0000,2025-06-09T13:37:12.864114
5885,-0.5026,0.1537,0.8891,0.630,-1.645,-0.175,0.00,0.0184,0.0508,0.0200,0.0087,2025-06-09T13:37:12.864114
5886,-0.4807,0.1513,0.8989,-0.035,-1.435,-0.245,0.01,0.0184,0.0508,0.0100,0.0087,2025-06-09T13:37:12.864114
5887,-0.5046,0.1630,0.8862,-0.945,-2.485,-0.945,0.01,0.0184,0.0508,0.0200,0.0087,2025-06-09T13:37:12.864114
5888,-0.4812,0.1513,0.8804,-1.050,-2.030,-1.085,0.00,0.0368,0.0508,0.0501,0.0087,2025-06-09T13:37:12.864114
5889,-0.4958,0.1547,0.9033,0.490,-0.490,-1.085,0.00,0.0184,0.0508,0.0100,0.0087,2025-06-09T13:37:12.949885
5890,-0.4890,0.1620,0.8921,0.350,-0.770,-2.555,0.00,0.0184,0.0254,0.0100,0.0087,2025-06-09T13:37:12.949885
5891,-0.5051,0.1576,0.8569,-1.890,-2.485,-3.010,0.00,0.0184,0.0508,0.0602,0.0087,2025-06-09T13:37:12.949885
5892,-0.4939,0.1127,0.8794,-1.890,-3.220,0.315,0.01,0.0368,0.0254,0.0300,0.0087,2025-06-09T13:37:12.949885
5893,-0.5012,0.1444,0.8969,3.395,-2.905,2.205,0.01,0.0184,0.0254,0.0200,0.0174,2025-06-09T13:37:13.068591
5894,-0.4841,0.1723,0.8838,1.435,-1.785,0.490,0.01,0.0368,0.0508,0.0200,0.0174,2025-06-09T13:37:13.068591
5895,-0.4987,0.1576,0.8926,-2.800,-3.185,-0.980,0.01,0.0368,0.0762,0.0200,0.0087,2025-06-09T13:37:13.068591
5896,-0.4929,0.1396,0.8882,-0.175,-3.430,-0.140,0.00,0.0368,0.0762,0.0100,0.0174,2025-06-09T13:37:13.068591
5897,-0.4914,0.1537,0.8862,2.240,-1.225,1.120,0.00,0.0368,0.0508,0.0200,0.0174,2025-06-09T13:37:13.068591
5898,-0.4929,0.1649,0.8930,0.175,-1.785,0.000,0.00,0.0184,0.0254,0.0300,0.0174,2025-06-09T13:37:13.068591
5899,-0.4924,0.1527,0.8852,-1.820,-3.885,-0.630,0.00,0.0368,0.0508,0.0100,0.0087,2025-06-09T13:37:13.068591
5900,-0.4943,0.1464,0.8862,-0.035,-2.240,0.315,0.00,0.0184,0.0254,0.0100,0.0174,2025-06-09T13:37:13.068591
5901,-0.4982,0.1498,0.8930,1.995,-1.680,0.420,0.01,0.0184,0.0508,0.0100,0.0000,2025-06-09T13:37:13.068591
5902,-0.4909,0.1552,0.8877,-0.595,-3.185,-0.070,0.00,0.0184,0.0254,0.0100,0.0087,2025-06-09T13:37:13.068591
5903,-0.4978,0.1532,0.8891,-0.840,-3.185,-0.105,0.00,0.0368,0.0254,0.0200,0.0087,2025-06-09T13:37:13.068591
5904,-0.4914,0.1488,0.8882,1.260,-2.205,0.420,0.00,0.0368,0.0254,0.0000,0.0174,2025-06-09T13:37:13.120428
5905,-0.4953,0.1547,0.8882,0.315,-2.695,0.315,0.00,0.0368,0.0508,0.0100,0.0087,2025-06-09T13:37:13.120428
5906,-0.4939,0.1552,0.8930,-0.805,-3.220,0.070,0.00,0.0184,0.0254,0.0200,0.0087,2025-06-09T13:37:13.120428
5907,-0.4939,0.1513,0.8867,-0.035,-2.905,0.105,0.01,0.0368,0.1018,0.0300,0.0087,2025-06-09T13:37:13.120428
5908,-0.4973,0.1493,0.8852,0.420,-2.660,0.385,0.00,0.0368,0.0508,0.0100,0.0087,2025-06-09T13:37:13.365781
5909,-0.4934,0.1503,0.8877,0.175,-3.080,0.350,0.01,0.0184,0.0254,0.0100,0.0087,2025-06-09T13:37:13.365781
5910,-0.4919,0.1469,0.8872,0.140,-3.360,0.350,0.00,0.0368,0.0508,0.0300,0.0174,2025-06-09T13:37:13.365781
5911,-0.4939,0.1498,0.8857,0.490,-3.220,0.490,0.00,0.0368,0.0508,0.0300,0.0087,2025-06-09T13:37:13.365781
5912,-0.4924,0.1518,0.8901,0.665,-3.080,0.595,0.01,0.0184,0.0508,0.0300,0.0174,2025-06-09T13:37:13.365781
5913,-0.4934,0.1527,0.8930,0.350,-3.185,0.490,0.00,0.0184,0.0254,0.0300,0.0000,2025-06-09T13:37:13.365781
5914,-0.4909,0.1566,0.8921,0.000,-3.010,0.315,0.00,0.0184,0.0508,0.0200,0.0174,2025-06-09T13:37:13.365781
5915,-0.4929,0.1532,0.8901,0.140,-2.590,0.245,0.00,0.0368,0.0762,0.0100,0.0000,2025-06-09T13:37:13.365781
5916,-0.4904,0.1532,0.8896,0.210,-2.660,0.140,0.00,0.0368,0.0508,0.0000,0.0087,2025-06-09T13:37:13.365781
5917,-0.4939,0.1552,0.8926,-0.210,-2.310,-0.035,0.01,0.0368,0.0254,0.0300,0.0087,2025-06-09T13:37:13.365781
5918,-0.4958,0.1547,0.8921,0.140,-2.555,-0.105,0.00,0.0184,0.0508,0.0200,0.0087,2025-06-09T13:37:13.365781
5919,-0.4914,0.1537,0.8867,-0.070,-2.555,-0.070,0.00,0.0184,0.0508,0.0000,0.0000,2025-06-09T13:37:13.365781
5920,-0.4997,0.1552,0.8901,-0.280,-2.065,-0.035,0.00,0.0184,0.0254,0.0100,0.0174,2025-06-09T13:37:13.365781
5921,-0.4934,0.1488,0.8891,0.560,-2.415,-0.070,0.00,0.0184,0.0254,0.0000,0.0087,2025-06-09T13:37:13.365781
5922,-0.4909,0.1513,0.8818,-0.490,-2.730,0.000,0.00,0.0184,0.0254,0.0200,0.0087,2025-06-09T13:37:13.365781
5923,-0.4953,0.1542,0.8877,-0.070,-2.275,0.105,0.00,0.0000,0.0000,0.0100,0.0087,2025-06-09T13:37:13.365781
5924,-0.4943,0.1503,0.8891,0.385,-2.485,0.070,0.00,0.0184,0.0508,0.0200,0.0000,2025-06-09T13:37:13.365781
5925,-0.4939,0.1527,0.8857,-0.140,-3.290,0.210,0.00,0.0000,0.0254,0.0100,0.0087,2025-06-09T13:37:13.415637
5926,-0.4929,0.1547,0.8886,-0.035,-2.940,0.315,0.01,0.0184,0.0254,0.0000,0.0174,2025-06-09T13:37:13.415637
5927,-0.4934,0.1523,0.8877,0.595,-2.765,0.385,0.00,0.0184,0.0508,0.0000,0.0087,2025-06-09T13:37:13.415637
5928,-0.4934,0.1523,0.8921,0.105,-3.080,0.385,0.01,0.0552,0.0254,0.0200,0.0174,2025-06-09T13:37:13.415637
5929,-0.4929,0.1566,0.8896,-0.070,-3.045,0.315,0.01,0.0368,0.0254,0.0200,0.0087,2025-06-09T13:37:13.415637
5930,-0.4924,0.1537,0.8877,0.140,-2.835,0.210,0.00,0.0184,0.0508,0.0200,0.0087,2025-06-09T13:37:13.608147
5931,-0.4865,0.1532,0.8989,-0.455,-1.505,0.280,0.00,0.0368,0.0508,0.0200,0.0087,2025-06-09T13:37:13.608147
5932,-0.5070,0.1474,0.8106,-0.035,-7.350,-0.945,0.00,0.0368,0.0254,0.0200,0.0000,2025-06-09T13:37:13.608147
5933,-0.4607,0.1425,0.8930,-4.515,-6.790,1.260,0.01,0.0368,0.0508,0.0100,0.0174,2025-06-09T13:37:13.608147
5934,-0.5065,0.1571,0.9931,4.130,-0.140,1.085,0.00,0.0184,0.0508,0.0501,0.0174,2025-06-09T13:37:13.608147
5935,-0.4953,0.1903,0.7818,3.745,-3.115,0.000,0.00,0.0368,0.0254,0.0200,0.0087,2025-06-09T13:37:13.608147
5936,-0.4651,0.1425,0.8350,-8.260,-5.635,-0.455,0.00,0.0368,0.0000,0.0200,0.0087,2025-06-09T13:37:13.608147
5937,-0.4631,0.3284,0.9194,6.615,-14.420,-8.820,0.00,0.0368,0.0254,0.0100,0.0087,2025-06-09T13:37:13.608147
5938,-0.4299,0.1635,0.9589,-10.955,6.020,-10.325,0.00,0.0184,0.0508,0.0300,0.0087,2025-06-09T13:37:13.608147
5939,-0.5246,0.1044,0.9916,-4.480,1.575,-8.400,0.00,0.0184,0.0508,0.0100,0.0087,2025-06-09T13:37:13.608147
5940,-0.5231,0.0932,0.7749,-0.455,6.125,-0.560,0.00,0.0368,0.0254,0.0000,0.0000,2025-06-09T13:37:13.608147
5941,-0.4963,0.0669,0.8613,-0.560,5.215,10.640,0.00,0.0184,0.0000,0.0100,0.0087,2025-06-09T13:37:13.608147
5942,-0.4885,0.1113,0.9472,11.095,-6.335,12.670,0.01,0.0368,0.0508,0.0300,0.0174,2025-06-09T13:37:13.608147
5943,-0.4846,0.2694,0.8540,10.430,-5.845,6.195,0.01,0.0368,0.0508,0.0300,0.0174,2025-06-09T13:37:13.608147
5944,-0.4817,0.2240,0.8647,-3.920,-0.525,-2.940,0.00,0.0368,0.0508,0.0100,0.0174,2025-06-09T13:37:13.788665
5945,-0.4992,0.1069,0.9038,-5.635,-6.020,-3.080,0.01,0.0184,0.0508,0.0200,0.0087,2025-06-09T13:37:13.788665
5946,-0.4978,0.1254,0.8769,2.240,-3.535,2.450,0.01,0.0368,0.0508,0.0200,0.0174,2025-06-09T13:37:13.788665
5947,-0.4782,0.1869,0.8784,2.835,-0.665,1.330,0.00,0.0184,0.0254,0.0300,0.0174,2025-06-09T13:37:13.788665
5948,-0.4626,0.2137,0.9638,-3.605,0.630,-4.725,0.01,0.0184,0.0254,0.0200,0.0087,2025-06-09T13:37:13.788665
5949,-0.4109,0.0913,1.1849,-8.435,24.325,-11.970,0.00,0.0368,0.0254,0.0300,0.0174,2025-06-09T13:37:13.788665
5950,-0.5827,0.1157,0.9726,24.815,23.800,-14.035,0.00,0.0184,0.0254,0.0000,0.0087,2025-06-09T13:37:13.788665
5951,-0.5217,0.0942,0.8906,33.145,28.735,-6.370,0.00,0.0184,0.0508,0.0100,0.0087,2025-06-09T13:37:13.788665
5952,-0.4568,0.0825,0.8174,28.175,22.610,-0.350,0.00,0.0184,0.0508,0.0200,0.0087,2025-06-09T13:37:13.788665
5953,-0.5348,0.1113,0.8511,28.525,20.615,7.420,0.00,0.0000,0.0000,0.0000,0.0087,2025-06-09T13:37:13.788665
5954,-0.5104,0.0771,0.9496,38.500,23.170,14.875,0.00,0.0184,0.0508,0.0200,0.0087,2025-06-09T13:37:13.789663
5955,-0.4943,0.0878,1.0716,57.680,29.435,20.685,0.00,0.0184,0.0508,0.0100,0.0087,2025-06-09T13:37:13.789663
5956,-0.4372,0.2250,1.0311,89.110,23.870,12.110,0.00,0.0368,0.0508,0.0200,0.0087,2025-06-09T13:37:13.789663
5957,-0.4358,0.3860,1.0599,125.055,30.205,-8.785,0.00,0.0184,0.0254,0.0200,0.0087,2025-06-09T13:37:13.887401
5958,-0.2318,0.5861,0.8159,146.895,5.845,-53.760,0.01,0.0184,0.1018,0.0300,0.0174,2025-06-09T13:37:13.887401
5959,-0.1610,0.5153,0.8462,127.995,-21.245,-76.125,0.00,0.0184,0.0508,0.0200,0.0087,2025-06-09T13:37:13.887401
5960,-0.3753,0.3841,0.9770,160.160,-54.915,-86.520,0.01,0.0184,0.0508,0.0100,0.0087,2025-06-09T13:37:13.887401
5961,-0.5915,0.3626,1.0682,114.170,5.390,-94.535,0.01,0.0184,0.0762,0.0200,0.0087,2025-06-09T13:37:13.887401
5962,-0.8662,0.2884,1.1058,226.730,77.560,-117.145,0.00,0.0368,0.0254,0.0200,0.0087,2025-06-09T13:37:13.887401
5963,-0.8716,0.3880,0.8979,290.990,168.875,-139.720,0.00,0.0184,0.0254,0.0100,0.0087,2025-06-09T13:37:13.887401
5964,-0.4543,0.5866,1.2776,288.680,203.525,-174.545,0.00,0.0184,0.0254,0.0300,0.0000,2025-06-09T13:37:13.887401
5965,-0.4241,0.4860,0.9340,285.810,262.780,-206.010,0.00,0.0368,0.0508,0.0300,0.0174,2025-06-09T13:37:13.989324
5966,-0.6534,0.4143,0.2918,265.125,258.475,-229.390,0.00,0.0184,0.0000,0.0100,0.0087,2025-06-09T13:37:13.989324
5967,-0.8111,0.1054,-0.2557,179.235,176.995,-214.620,0.00,0.0184,0.0508,0.0200,0.0000,2025-06-09T13:37:13.989324
5968,-0.9350,-0.1986,-0.2991,67.585,73.640,-147.210,0.00,0.0368,0.0254,0.0000,0.0087,2025-06-09T13:37:13.989324
5969,-0.9072,-0.3982,-0.1069,14.525,-0.560,-77.210,0.01,0.0368,0.0508,0.0300,0.0087,2025-06-09T13:37:13.989324
5970,-0.6461,-0.4031,0.2176,-28.735,-34.965,1.365,0.01,0.0000,0.0508,0.0000,0.0087,2025-06-09T13:37:13.989324
5971,-0.6051,-0.2430,0.4499,-44.940,-42.245,81.095,0.00,0.0184,0.0000,0.0401,0.0174,2025-06-09T13:37:13.989324
5972,-0.7832,-0.1688,0.5065,-55.125,-40.250,136.150,0.00,0.0368,0.0508,0.0000,0.0174,2025-06-09T13:37:14.101747
5973,-0.9828,-0.1098,0.3518,-73.850,-55.930,193.550,0.00,0.0184,0.0762,0.0401,0.0174,2025-06-09T13:37:14.101747
5974,-0.9594,0.0112,0.2094,-131.985,-97.685,235.375,0.00,0.0184,0.0254,0.0602,0.0087,2025-06-09T13:37:14.101747
5975,-0.7300,0.0346,0.0356,-202.230,-136.955,252.735,0.01,0.0368,0.0254,0.0501,0.0087,2025-06-09T13:37:14.101747
5976,-0.6437,0.2679,0.0986,-328.370,-206.570,263.760,0.01,0.0368,0.0508,0.0200,0.0087,2025-06-09T13:37:14.102744
5977,-0.3689,0.6778,0.2772,-452.025,-219.905,205.345,0.00,0.0184,0.0000,0.0200,0.0087,2025-06-09T13:37:14.102744
5978,0.3567,0.1976,1.9217,-478.695,-313.285,243.740,0.00,0.0184,0.0508,0.0200,0.0087,2025-06-09T13:37:14.102744
5979,-0.7593,1.1375,1.5245,-11.200,-67.130,123.130,0.00,0.0184,0.0254,0.0200,0.0087,2025-06-09T13:37:14.102744
5980,-0.3616,1.2249,1.2205,383.565,101.185,27.755,0.01,0.0184,0.0508,0.0200,0.0087,2025-06-09T13:37:14.204474
5981,-0.1166,1.0902,0.0712,254.345,33.950,-55.685,0.00,0.0368,0.0508,0.0000,0.0174,2025-06-09T13:37:14.204474
5982,-0.0195,0.8886,0.2660,50.715,-130.165,-112.980,0.01,0.0368,0.0508,0.0200,0.0087,2025-06-09T13:37:14.204474
5983,-0.1440,0.5329,-0.0166,-67.620,-163.625,-132.545,0.01,0.0368,0.0508,0.0200,0.0087,2025-06-09T13:37:14.204474
5984,-0.6954,0.4616,0.3143,5.355,-49.665,-133.000,0.01,0.0184,0.0508,0.0602,0.0174,2025-06-09T13:37:14.204474
5985,-1.0516,0.2713,0.8213,124.180,53.305,-140.105,0.00,0.0184,0.0254,0.0200,0.0087,2025-06-09T13:37:14.204474
5986,-1.0243,0.2982,1.3025,63.280,18.690,-117.670,0.00,0.0184,0.0508,0.0100,0.0087,2025-06-09T13:37:14.204474
5987,-0.8467,0.1230,0.8477,-61.985,-63.035,-78.050,0.00,0.0184,0.0254,0.0300,0.0087,2025-06-09T13:37:14.207466
5988,-0.5427,-0.0112,0.9853,-81.410,-74.095,-40.670,0.01,0.0368,0.2043,0.0200,0.0087,2025-06-09T13:37:14.255337
5989,-0.4455,-0.0468,0.7588,17.815,10.815,-13.860,0.01,0.0368,0.0508,0.0200,0.0087,2025-06-09T13:37:14.255337
5990,-0.4621,-0.0517,0.6725,67.270,52.255,20.335,0.01,0.0368,0.0508,0.0200,0.0087,2025-06-09T13:37:14.255337
5991,-0.5905,0.0913,0.5983,20.125,8.575,58.275,0.01,0.0368,0.0762,0.0100,0.0174,2025-06-09T13:37:14.255337
5992,-0.6071,0.2523,0.6642,-18.165,-20.265,76.930,0.01,0.0368,0.0508,0.0100,0.0174,2025-06-09T13:37:14.402966
5993,-0.5636,0.3880,0.6617,0.560,-9.415,78.575,0.01,0.0184,0.0000,0.0300,0.0087,2025-06-09T13:37:14.402966
5994,-0.5222,0.5202,0.6710,11.270,-2.870,71.645,0.00,0.0184,0.0254,0.0100,0.0087,2025-06-09T13:37:14.402966
5995,-0.5378,0.6154,0.7135,-13.860,-12.215,51.765,0.01,0.0184,0.0254,0.0300,0.0087,2025-06-09T13:37:14.402966
5996,-0.5422,0.6647,0.8169,-19.390,-22.540,31.255,0.01,0.0184,0.0254,0.0100,0.0174,2025-06-09T13:37:14.402966
5997,-0.5622,0.6842,0.8189,-12.460,-12.320,4.375,0.00,0.0184,0.0508,0.0000,0.0087,2025-06-09T13:37:14.402966
5998,-0.5490,0.6549,0.7666,-0.700,-4.200,-15.680,0.01,0.0184,0.0508,0.0300,0.0087,2025-06-09T13:37:14.402966
5999,-0.5558,0.5231,0.7398,3.325,-2.135,-30.170,0.01,0.0184,0.0508,0.0401,0.0087,2025-06-09T13:37:14.402966
6000,-0.5431,0.3845,0.7476,-6.405,-10.010,-31.675,0.00,0.0368,0.0254,0.0000,0.0000,2025-06-09T13:37:14.402966
6001,-0.5431,0.3606,0.7149,-13.615,-14.140,-23.695,0.00,0.0184,0.0508,0.0100,0.0087,2025-06-09T13:37:14.402966
6002,-0.5519,0.2904,0.7759,-13.580,-5.845,-16.625,0.01,0.0368,0.0508,0.0300,0.0000,2025-06-09T13:37:14.402966
6003,-0.5422,0.2630,0.8340,8.715,-7.735,-4.655,0.01,0.0368,0.0254,0.0401,0.0087,2025-06-09T13:37:14.502821
6004,-0.5573,0.3367,0.8481,-1.050,-1.715,5.110,0.00,0.0368,0.0508,0.0000,0.0087,2025-06-09T13:37:14.502821
6005,-0.5461,0.3314,0.7476,8.470,9.835,8.330,0.00,0.0368,0.0762,0.0300,0.0174,2025-06-09T13:37:14.502821
6006,-0.5319,0.4036,0.7491,19.320,0.980,13.055,0.00,0.0368,0.0508,0.0401,0.0174,2025-06-09T13:37:14.502821
6007,-0.5514,0.4260,0.6944,-3.465,13.230,9.625,0.00,0.0368,0.0254,0.0200,0.0087,2025-06-09T13:37:14.502821
6008,-0.5373,0.4451,0.6500,12.215,-9.240,8.680,0.00,0.0184,0.0508,0.0602,0.0087,2025-06-09T13:37:14.502821
6009,-0.5558,0.4753,0.7437,-14.770,0.560,2.205,0.00,0.0368,0.1018,0.0000,0.0087,2025-06-09T13:37:14.502821
6010,-0.5475,0.4499,0.7276,2.870,-11.690,-1.260,0.01,0.0368,0.0000,0.0100,0.0174,2025-06-09T13:37:14.610504
6011,-0.5314,0.4524,0.7969,-11.725,-8.505,-4.550,0.00,0.0184,0.0508,0.0300,0.0174,2025-06-09T13:37:14.610504
6012,-0.5539,0.4163,0.7549,-6.895,-2.940,-7.105,0.01,0.0184,0.0254,0.0200,0.0087,2025-06-09T13:37:14.610504
6013,-0.5597,0.3699,0.7896,5.740,-3.675,-4.480,0.00,0.0184,0.0254,0.0100,0.0174,2025-06-09T13:37:14.610504
6014,-0.5495,0.3704,0.7764,-0.105,-0.350,-0.875,0.00,0.0184,0.0508,0.0000,0.0087,2025-06-09T13:37:14.610504
6015,-0.5500,0.3655,0.7398,2.310,-0.700,2.275,0.00,0.0184,0.0508,0.0401,0.0087,2025-06-09T13:37:14.610504
6016,-0.5480,0.3997,0.7696,3.815,-0.385,4.305,0.00,0.0184,0.0254,0.0200,0.0087,2025-06-09T13:37:14.610504
6017,-0.5446,0.4168,0.7549,1.575,0.175,3.955,0.00,0.0368,0.0508,0.0200,0.0174,2025-06-09T13:37:14.610504
6018,-0.5485,0.4353,0.7437,0.665,-1.435,1.890,0.01,0.0368,0.0254,0.0100,0.0174,2025-06-09T13:37:14.808975
6019,-0.5446,0.4333,0.7422,0.350,-3.395,-0.315,0.00,0.0368,0.0254,0.0200,0.0087,2025-06-09T13:37:14.808975
6020,-0.5505,0.4216,0.7462,-2.135,-3.010,-2.100,0.00,0.0184,0.0508,0.0100,0.0174,2025-06-09T13:37:14.808975
6021,-0.5500,0.4075,0.7593,-1.400,-4.270,-2.345,0.00,0.0184,0.0762,0.0401,0.0087,2025-06-09T13:37:14.808975
6022,-0.5510,0.3972,0.7637,-1.680,-3.500,-1.680,0.00,0.0184,0.1273,0.0300,0.0000,2025-06-09T13:37:14.808975
6023,-0.5485,0.3919,0.7632,0.175,-2.625,-0.350,0.00,0.0184,0.0762,0.0200,0.0087,2025-06-09T13:37:14.808975
6024,-0.5470,0.3933,0.7603,1.330,-1.925,1.050,0.00,0.0368,0.0508,0.0100,0.0174,2025-06-09T13:37:14.808975
6025,-0.5485,0.4080,0.7520,1.190,-1.890,1.610,0.00,0.0184,0.0508,0.0000,0.0087,2025-06-09T13:37:14.808975
6026,-0.5470,0.4148,0.7496,0.945,-2.310,1.505,0.00,0.0368,0.0508,0.0100,0.0000,2025-06-09T13:37:14.808975
6027,-0.5500,0.4216,0.7505,-0.210,-2.695,0.665,0.01,0.0368,0.0508,0.0100,0.0087,2025-06-09T13:37:14.808975
6028,-0.5466,0.4211,0.7520,-0.945,-3.430,-0.630,0.00,0.0184,0.0508,0.0200,0.0087,2025-06-09T13:37:14.808975
6029,-0.5480,0.4124,0.7569,-1.225,-3.640,-1.295,0.01,0.0184,0.0508,0.0200,0.0087,2025-06-09T13:37:14.808975
6030,-0.5485,0.4041,0.7564,-0.910,-3.150,-1.190,0.00,0.0184,0.0254,0.0000,0.0000,2025-06-09T13:37:14.808975
6031,-0.5466,0.3953,0.7564,-0.175,-3.045,-0.385,0.00,0.0184,0.0508,0.0000,0.0087,2025-06-09T13:37:14.808975
6032,-0.5480,0.3992,0.7598,0.070,-2.660,0.490,0.00,0.0184,0.0508,0.0000,0.0087,2025-06-09T13:37:14.808975
6033,-0.5583,0.3582,0.7091,-2.975,-3.815,3.290,0.00,0.0184,0.0508,0.0200,0.0174,2025-06-09T13:37:14.921696
6034,-0.5739,0.1801,0.6905,-19.355,-11.760,27.825,0.01,0.0368,0.0508,0.0100,0.0174,2025-06-09T13:37:14.921696
6035,-0.5290,0.1649,1.0668,-16.625,-2.310,43.785,0.00,0.0184,0.0508,0.0100,0.0174,2025-06-09T13:37:14.921696
6036,-0.5905,0.4973,0.7725,14.455,-6.335,50.785,0.01,0.0000,0.0000,0.0100,0.0000,2025-06-09T13:37:15.063295
6037,-0.5661,0.5880,0.6725,-7.525,7.455,38.255,0.00,0.0184,0.0254,0.0200,0.0087,2025-06-09T13:37:15.063295
6038,-0.6305,0.3958,0.8003,-14.700,-7.350,31.850,0.00,0.0184,0.0508,0.0100,0.0087,2025-06-09T13:37:15.063295
6039,-0.5861,0.4387,0.7803,-38.570,-24.745,32.725,0.00,0.0184,0.0254,0.0100,0.0087,2025-06-09T13:37:15.063295
6040,-0.5793,0.4656,0.8335,-36.190,-29.750,36.330,0.00,0.0184,0.0508,0.0200,0.0087,2025-06-09T13:37:15.063295
6041,-0.5646,0.4748,0.8072,-23.135,-13.720,39.550,0.01,0.0368,0.0508,0.0100,0.0087,2025-06-09T13:37:15.063295
6042,-0.5153,0.5139,0.8223,1.155,-3.465,41.580,0.01,0.0368,0.0254,0.0000,0.0087,2025-06-09T13:37:15.063295
6043,-0.5056,0.5636,0.8364,17.185,1.540,51.800,0.01,0.0184,0.1018,0.0100,0.0174,2025-06-09T13:37:15.063295
6044,-0.5724,0.5051,1.3010,49.945,25.480,60.165,0.00,0.0184,0.0508,0.0401,0.0087,2025-06-09T13:37:15.063295
6045,-0.6798,0.5187,1.2112,67.445,-11.795,38.955,0.01,0.0184,0.0254,0.0000,0.0087,2025-06-09T13:37:15.063295
6046,-0.7017,0.5109,0.9321,-0.245,-65.625,24.710,0.00,0.0184,0.0254,0.0300,0.0174,2025-06-09T13:37:15.063295
6047,-0.6134,0.4758,0.8198,-55.265,-115.360,20.545,0.00,0.0368,0.0508,0.0000,0.0174,2025-06-09T13:37:15.063295
6048,-0.5300,0.3279,0.7544,-73.500,-119.875,27.790,0.01,0.0184,0.1018,0.0300,0.0087,2025-06-09T13:37:15.221869
6049,-0.3128,0.5383,0.4368,-38.290,-56.350,7.525,0.01,0.0184,0.0508,0.0300,0.0174,2025-06-09T13:37:15.221869
6050,-0.3479,0.4714,0.7608,33.145,6.825,5.460,0.01,0.0368,0.0508,0.0100,0.0087,2025-06-09T13:37:15.221869
6051,-0.4738,0.4870,0.9013,31.955,-14.140,10.780,0.00,0.0368,0.0508,0.0300,0.0174,2025-06-09T13:37:15.221869
6052,-0.4851,0.4192,0.7252,-14.105,-73.045,15.155,0.01,0.0184,0.0254,0.0000,0.0174,2025-06-09T13:37:15.221869
6053,-0.4002,0.4880,1.2527,-32.480,-112.805,29.400,0.01,0.0184,0.0000,0.0300,0.0087,2025-06-09T13:37:15.221869
6054,-0.4504,0.4587,1.0921,1.995,-171.255,59.080,0.00,0.0184,0.0508,0.0200,0.0087,2025-06-09T13:37:15.221869
6055,-0.3328,0.4553,0.7344,-2.800,-182.350,66.535,0.00,0.0000,0.0508,0.0000,0.0087,2025-06-09T13:37:15.221869
6056,-0.2655,0.4353,0.6461,-9.135,-171.500,56.805,0.00,0.0184,0.0254,0.0100,0.0174,2025-06-09T13:37:15.221869
6057,-0.1752,0.4016,0.5373,-15.505,-131.460,46.620,0.00,0.0184,0.0508,0.0200,0.0087,2025-06-09T13:37:15.221869
6058,-0.1152,0.3919,0.4958,-7.105,-82.215,36.330,0.00,0.0184,0.0508,0.0200,0.0087,2025-06-09T13:37:15.221869
6059,-0.1147,0.4070,0.5607,1.855,-27.055,23.345,0.00,0.0184,0.0254,0.0100,0.0087,2025-06-09T13:37:15.221869
6060,-0.0942,0.4407,0.6149,-1.750,3.780,19.425,0.00,0.0184,0.0508,0.0200,0.0087,2025-06-09T13:37:15.221869
6061,-0.1069,0.4412,0.6627,-8.680,21.280,15.960,0.00,0.0184,0.0254,0.0200,0.0087,2025-06-09T13:37:15.221869
6062,-0.1000,0.3889,0.6900,-14.140,32.935,23.030,0.00,0.0184,0.0254,0.0200,0.0174,2025-06-09T13:37:15.221869
6063,-0.0991,0.3865,0.6700,-8.855,43.610,41.825,0.00,0.0184,0.0508,0.0401,0.0174,2025-06-09T13:37:15.324594
6064,0.2123,0.3070,0.8096,8.470,49.315,60.200,0.00,0.0368,0.0762,0.0200,0.0174,2025-06-09T13:37:15.324594
6065,0.3694,0.3436,0.8564,42.735,52.080,63.875,0.00,0.0184,0.0508,0.0200,0.0174,2025-06-09T13:37:15.324594
6066,0.3723,0.2957,0.8228,80.535,60.235,49.490,0.01,0.0184,0.0508,0.0100,0.0087,2025-06-09T13:37:15.324594
6067,0.2469,0.2591,0.7403,110.950,67.025,5.565,0.01,0.0368,0.0254,0.0300,0.0087,2025-06-09T13:37:15.324594
6068,0.0332,0.2645,0.5895,106.435,59.815,-47.110,0.00,0.0368,0.0508,0.0100,0.0087,2025-06-09T13:37:15.324594
6069,-0.2045,0.2528,0.6002,79.065,59.255,-112.070,0.00,0.0184,0.0254,0.0300,0.0000,2025-06-09T13:37:15.324594
6070,-0.9950,0.5222,0.4729,42.805,98.910,-127.470,0.00,0.0184,0.0508,0.0200,0.0174,2025-06-09T13:37:15.324594
6071,-2.4478,1.2864,1.6563,41.790,171.255,-91.070,0.01,0.0368,0.0254,0.0200,0.0087,2025-06-09T13:37:15.439289
6072,-1.1385,0.8628,0.9121,24.220,174.055,-54.110,0.00,0.0368,0.0508,0.0100,0.0087,2025-06-09T13:37:15.439289
6073,-0.2006,0.6959,1.5069,-119.630,-12.635,-13.545,0.00,0.0368,0.0508,0.0100,0.0087,2025-06-09T13:37:15.439289
6074,-0.4441,0.7706,1.1278,-67.620,-95.165,24.010,0.01,0.0184,0.0000,0.0401,0.0174,2025-06-09T13:37:15.439289
6075,-0.3479,0.5114,0.6578,15.050,-19.005,36.085,0.00,0.0184,0.0000,0.0100,0.0087,2025-06-09T13:37:15.439289
6076,-0.3719,0.4094,0.8320,68.600,40.810,19.005,0.00,0.0184,0.0508,0.0200,0.0087,2025-06-09T13:37:15.439289
6077,-0.3797,0.4070,0.5226,32.795,50.225,-15.365,0.00,0.0184,0.0254,0.0200,0.0087,2025-06-09T13:37:15.439289
6078,-0.4407,0.4255,0.8535,-18.375,34.580,-45.605,0.01,0.0184,0.0508,0.0200,0.0174,2025-06-09T13:37:15.439289
6079,-0.3933,0.4421,0.6124,-62.545,26.495,-62.510,0.00,0.0368,0.0254,0.0100,0.0087,2025-06-09T13:37:15.639775
6080,-0.4075,0.4651,0.6710,-49.420,61.495,-74.165,0.01,0.0184,0.0000,0.0200,0.0087,2025-06-09T13:37:15.639775
6081,-0.4514,0.5505,0.7257,-23.835,97.230,-78.365,0.01,0.0184,0.0254,0.0200,0.0087,2025-06-09T13:37:15.639775
6082,-0.5036,0.4860,0.6837,-43.505,94.535,-81.620,0.00,0.0368,0.0508,0.0300,0.0087,2025-06-09T13:37:15.639775
6083,-0.7642,0.6364,0.6227,-78.470,74.795,-76.370,0.01,0.0184,0.0254,0.0200,0.0174,2025-06-09T13:37:15.639775
6084,-0.5924,0.6032,0.7754,-95.410,62.615,-59.850,0.00,0.0184,0.0508,0.0200,0.0087,2025-06-09T13:37:15.639775
6085,-0.4670,0.6139,0.8760,-77.280,47.355,-34.020,0.00,0.0184,0.0508,0.0200,0.0000,2025-06-09T13:37:15.639775
6086,-0.4929,0.6564,0.9135,-27.615,26.110,17.920,0.00,0.0184,0.0254,0.0100,0.0087,2025-06-09T13:37:15.639775
6087,-0.4831,0.4802,0.9062,0.910,21.805,16.835,0.01,0.0368,0.0254,0.0100,0.0087,2025-06-09T13:37:15.639775
6088,-0.6037,0.4665,0.8491,9.590,2.975,29.645,0.00,0.0184,0.0508,0.0300,0.0174,2025-06-09T13:37:15.639775
6089,-0.2220,0.1771,0.7422,-10.430,-20.230,20.405,0.00,0.0368,0.0508,0.0200,0.0087,2025-06-09T13:37:15.639775
6090,-0.0386,0.1518,0.7974,-9.275,-33.390,4.060,0.00,0.0184,0.0254,0.0200,0.0087,2025-06-09T13:37:15.639775
6091,-0.4358,0.3070,0.6866,17.150,-7.420,-8.645,0.00,0.0368,0.0254,0.0200,0.0087,2025-06-09T13:37:15.639775
6092,-0.5183,0.3553,0.5597,30.030,28.175,-5.250,0.00,0.0184,0.0508,0.0100,0.0087,2025-06-09T13:37:15.639775
6093,-0.5217,0.4826,0.7071,12.285,34.895,10.255,0.00,0.0368,0.0254,0.0200,0.0174,2025-06-09T13:37:15.639775
6094,-0.6974,0.3367,0.8350,16.835,48.965,40.390,0.01,0.0368,0.0508,0.0300,0.0087,2025-06-09T13:37:15.858196
6095,-0.9218,0.3245,1.0106,47.180,49.945,83.615,0.00,0.0184,0.0000,0.0100,0.0087,2025-06-09T13:37:15.858196
6096,-1.2991,0.1391,1.5557,103.075,52.395,145.005,0.01,0.0184,0.0254,0.0200,0.0087,2025-06-09T13:37:15.858196
6097,-1.9461,0.1293,2.7162,293.020,-7.000,147.490,0.00,0.0184,0.0508,0.0200,0.0174,2025-06-09T13:37:15.858196
6098,-2.6596,0.5895,2.9875,219.870,-361.690,245.980,0.00,0.0368,0.0254,0.0200,0.0174,2025-06-09T13:37:15.858196
6099,-2.5342,0.8335,2.2594,-85.400,-767.130,-84.980,0.01,0.0184,0.0000,0.0100,0.0087,2025-06-09T13:37:15.858196
6100,-1.9471,1.3171,1.2327,-211.050,-1036.315,-114.730,0.00,0.0368,0.0508,0.0100,0.0087,2025-06-09T13:37:15.858196
6101,-1.4869,1.1590,-0.4241,43.890,-1146.740,35.980,0.00,0.0184,0.0000,0.0000,0.0087,2025-06-09T13:37:15.858196
6102,-1.0248,1.9632,-0.2420,354.200,-1146.740,283.920,0.00,0.0368,0.0254,0.0100,0.0087,2025-06-09T13:37:15.858196
6103,-0.3992,1.2093,-3.1759,350.980,-1025.150,423.570,0.00,0.0184,0.0254,0.0000,0.0087,2025-06-09T13:37:15.858196
6104,0.1230,-1.6460,-5.5549,286.790,-716.765,362.320,0.01,0.0368,0.0254,0.0300,0.0087,2025-06-09T13:37:15.858196
6105,0.8364,0.2186,-3.3082,125.650,-126.525,324.520,0.00,0.0368,0.0254,0.0100,0.0087,2025-06-09T13:37:15.858196
6106,-0.1596,-1.3200,-4.1256,51.625,289.520,208.075,0.00,0.0184,0.0000,0.0200,0.0087,2025-06-09T13:37:15.859193
6107,-1.2737,-1.1902,-2.4102,-22.190,779.065,-14.735,0.00,0.0368,0.0254,0.0000,0.0087,2025-06-09T13:37:15.859193
6108,-0.8711,-0.6490,-1.8881,-174.650,1066.870,-149.520,0.00,0.0368,0.0508,0.0100,0.0174,2025-06-09T13:37:15.859193
6109,-2.4171,0.7740,-0.6281,-145.810,1137.080,48.580,0.01,0.0184,0.0508,0.0200,0.0174,2025-06-09T13:37:15.859193
6110,0.1254,0.1386,2.9324,301.840,1122.835,89.145,0.00,0.0368,0.0508,0.0300,0.0087,2025-06-09T13:37:16.050653
6111,-3.1027,2.4166,3.9123,890.155,936.075,-11.585,0.01,0.0368,0.0254,0.0200,0.0087,2025-06-09T13:37:16.050653
6112,-1.9174,4.0929,4.0860,943.880,940.170,80.850,0.00,0.0368,0.0508,0.0300,0.0087,2025-06-09T13:37:16.050653
6113,-2.3409,1.1619,11.8028,386.645,676.200,-136.710,0.01,0.0368,0.0508,0.0501,0.0174,2025-06-09T13:37:16.050653
6114,-1.4435,2.1487,5.7535,-53.795,-11.410,-104.265,0.01,0.0368,0.0762,0.0000,0.0174,2025-06-09T13:37:16.050653
6115,-1.6407,2.6064,2.5274,-379.015,-801.815,67.200,0.00,0.0184,0.0254,0.0000,0.0087,2025-06-09T13:37:16.050653
6116,-1.6036,2.0974,0.3562,-777.770,-1146.740,105.245,0.00,0.0184,0.0508,0.0200,0.0087,2025-06-09T13:37:16.050653
6117,-1.1351,1.4786,0.2938,-873.460,-1146.740,-20.125,0.00,0.0184,0.0508,0.0200,0.0087,2025-06-09T13:37:16.050653
6118,-1.0541,0.9331,-1.0097,-300.230,-1105.965,-81.970,0.01,0.0184,0.0254,0.0200,0.0087,2025-06-09T13:37:16.050653
6119,-0.6812,0.7174,-1.4703,-174.405,-748.510,-138.705,0.00,0.0184,0.0508,0.0000,0.0087,2025-06-09T13:37:16.050653
6120,0.3182,0.6202,-2.2092,-127.470,-459.725,-6.545,0.00,0.0184,0.0254,0.0000,0.0174,2025-06-09T13:37:16.050653
6121,1.2722,1.3854,-3.4975,-142.415,-137.235,-115.640,0.00,0.0000,0.0508,0.0200,0.0087,2025-06-09T13:37:16.050653
6122,1.1595,1.2815,-1.8388,-305.935,192.780,39.585,0.01,0.0368,0.0254,0.0100,0.0087,2025-06-09T13:37:16.050653
6123,0.8198,0.7847,-0.4904,-59.990,380.975,151.865,0.00,0.0184,0.0508,0.0200,0.0087,2025-06-09T13:37:16.050653
6124,0.2791,0.2396,-0.3509,202.720,696.255,161.910,0.01,0.0184,0.0254,0.0200,0.0087,2025-06-09T13:37:16.140439
6125,-0.3743,0.2420,0.4543,448.735,814.135,59.500,0.00,0.0184,0.0254,0.0100,0.0087,2025-06-09T13:37:16.140439
6126,-1.0838,1.1751,1.2766,558.110,724.675,40.075,0.01,0.0184,0.0762,0.0300,0.0087,2025-06-09T13:37:16.140439
6127,-1.2532,0.9184,1.8359,254.555,461.335,39.375,0.01,0.0368,0.0254,0.0000,0.0087,2025-06-09T13:37:16.140439
6128,-0.9399,0.2635,3.9465,67.165,458.920,34.790,0.00,0.0184,0.0762,0.0200,0.0087,2025-06-09T13:37:16.140439
6129,-1.2098,0.7452,2.8772,13.160,59.325,60.305,0.00,0.0184,0.0508,0.0100,0.0087,2025-06-09T13:37:16.140439
6130,-0.8965,0.6720,1.8642,47.670,5.810,-71.260,0.00,0.0184,0.0508,0.0200,0.0087,2025-06-09T13:37:16.140439
6131,-0.7652,0.8872,1.3644,-43.680,-73.045,-35.525,0.01,0.0184,0.0508,0.0200,0.0174,2025-06-09T13:37:16.243139
6132,-0.2538,0.8257,1.3942,-246.050,-265.790,-1.365,0.01,0.0184,0.0762,0.0100,0.0087,2025-06-09T13:37:16.243139
6133,-0.3533,0.6505,0.6261,-260.330,-283.850,-24.955,0.01,0.0184,0.0254,0.0100,0.0087,2025-06-09T13:37:16.243139
6134,-0.2079,0.5163,0.5617,-182.385,-229.110,-32.760,0.01,0.0184,0.0254,0.0100,0.0087,2025-06-09T13:37:16.243139
6135,-0.0059,0.5514,0.4050,-89.810,-150.710,-24.325,0.01,0.0368,0.0508,0.0100,0.0087,2025-06-09T13:37:16.243139
6136,0.0747,0.6183,0.2928,-36.890,-74.795,-11.270,0.01,0.0368,0.0508,0.0200,0.0087,2025-06-09T13:37:16.243139
6137,0.1240,0.6281,0.3074,0.525,10.010,-4.445,0.00,0.0184,0.0508,0.0100,0.0087,2025-06-09T13:37:16.243139
6138,0.0766,0.6705,0.4543,14.700,71.820,3.990,0.00,0.0184,0.0508,0.0200,0.0087,2025-06-09T13:37:16.243139
6139,-0.0146,0.6832,0.6446,49.700,119.210,13.440,0.01,0.0368,0.0254,0.0501,0.0087,2025-06-09T13:37:16.348879
6140,-0.1044,0.6832,0.8877,80.955,127.575,16.555,0.01,0.0552,0.0762,0.0200,0.0000,2025-06-09T13:37:16.348879
6141,-0.1806,0.6837,1.0258,92.050,104.545,13.545,0.01,0.0184,0.0508,0.0300,0.0174,2025-06-09T13:37:16.348879
6142,-0.2484,0.6568,1.0946,63.770,67.445,8.575,0.01,0.0184,0.0508,0.0100,0.0174,2025-06-09T13:37:16.348879
6143,-0.2874,0.5924,1.1131,30.695,13.790,0.070,0.01,0.0184,0.0254,0.0100,0.0087,2025-06-09T13:37:16.348879
6144,-0.2767,0.5568,1.0414,-10.745,-21.665,-8.715,0.00,0.0368,0.0254,0.0200,0.0087,2025-06-09T13:37:16.348879
6145,-0.2406,0.5466,0.9252,-27.755,-43.155,-15.960,0.00,0.0000,0.0254,0.0200,0.0087,2025-06-09T13:37:16.348879
6146,-0.1835,0.5456,0.8106,-32.690,-45.955,-16.030,0.01,0.0368,0.0508,0.0100,0.0087,2025-06-09T13:37:16.447591
6147,-0.1264,0.5607,0.7300,-23.065,-34.755,-12.530,0.01,0.0184,0.0508,0.0100,0.0087,2025-06-09T13:37:16.447591
6148,-0.1030,0.5827,0.6808,-4.480,-10.430,-9.730,0.00,0.0552,0.0762,0.0100,0.0174,2025-06-09T13:37:16.447591
6149,-0.0991,0.5929,0.6690,10.640,10.430,-6.475,0.01,0.0368,0.0508,0.0501,0.0087,2025-06-09T13:37:16.447591
6150,-0.1108,0.6085,0.7008,21.210,29.050,-1.155,0.01,0.0368,0.0508,0.0200,0.0087,2025-06-09T13:37:16.447591
6151,-0.1484,0.6163,0.7706,29.260,35.595,2.695,0.00,0.0368,0.0762,0.0100,0.0174,2025-06-09T13:37:16.447591
6152,-0.1747,0.6071,0.8169,32.130,32.760,5.355,0.00,0.0184,0.0508,0.0200,0.0174,2025-06-09T13:37:16.447591
6153,-0.1942,0.6154,0.8804,27.930,23.940,5.215,0.00,0.0368,0.0254,0.0100,0.0087,2025-06-09T13:37:16.447591
6154,-0.1942,0.6090,0.8647,19.390,2.310,3.325,0.00,0.0368,0.0000,0.0200,0.0174,2025-06-09T13:37:16.499453
6155,-0.2128,0.5876,0.8369,1.505,-3.745,3.220,0.00,0.0184,0.0508,0.0000,0.0087,2025-06-09T13:37:16.499453
6156,-0.1967,0.5714,0.7984,-7.770,-10.080,2.485,0.00,0.0368,0.0254,0.0300,0.0087,2025-06-09T13:37:16.499453
6157,-0.1708,0.5719,0.7749,-10.010,-7.980,0.840,0.00,0.0368,0.0254,0.0000,0.0087,2025-06-09T13:37:16.655036
6158,-0.1576,0.5851,0.7281,-5.950,-2.275,1.330,0.00,0.0184,0.0762,0.0100,0.0087,2025-06-09T13:37:16.655036
6159,-0.1566,0.5998,0.7096,-3.150,5.530,3.360,0.01,0.0368,0.0508,0.0100,0.0174,2025-06-09T13:37:16.655036
6160,-0.1537,0.5919,0.7222,-0.595,11.235,6.755,0.00,0.0368,0.0508,0.0100,0.0174,2025-06-09T13:37:16.655036
6161,-0.1732,0.5895,0.7671,1.015,14.000,8.820,0.00,0.0184,0.0254,0.0200,0.0174,2025-06-09T13:37:16.655036
6162,-0.1815,0.5910,0.7984,2.975,14.315,7.420,0.00,0.0368,0.0508,0.0300,0.0174,2025-06-09T13:37:16.655036
6163,-0.2011,0.5949,0.8330,0.665,14.350,6.615,0.00,0.0184,0.0254,0.0200,0.0087,2025-06-09T13:37:16.655036
6164,-0.2011,0.6056,0.8608,3.080,11.165,7.875,0.00,0.0184,0.0508,0.0000,0.0087,2025-06-09T13:37:16.655036
6165,-0.1967,0.6266,0.9052,8.715,4.480,9.380,0.00,0.0368,0.0254,0.0100,0.0174,2025-06-09T13:37:16.655036
6166,-0.1952,0.6305,0.8916,10.430,-5.635,9.380,0.00,0.0184,0.0508,0.0100,0.0087,2025-06-09T13:37:16.655036
6167,-0.1918,0.6271,0.8350,0.840,-15.435,8.855,0.00,0.0184,0.0254,0.0100,0.0174,2025-06-09T13:37:16.655036
6168,-0.1864,0.6124,0.8067,-8.015,-22.225,7.875,0.00,0.0184,0.0254,0.0300,0.0087,2025-06-09T13:37:16.655036
6169,-0.1840,0.5915,0.7764,-9.030,-20.125,6.055,0.01,0.0184,0.0254,0.0100,0.0087,2025-06-09T13:37:16.863504
6170,-0.1762,0.5929,0.7642,-2.695,-11.865,3.570,0.00,0.0368,0.0254,0.0401,0.0174,2025-06-09T13:37:16.863504
6171,-0.1674,0.6066,0.7613,5.250,-0.350,2.065,0.00,0.0184,0.0508,0.0100,0.0174,2025-06-09T13:37:16.863504
6172,-0.1674,0.6149,0.7740,8.295,5.355,1.925,0.00,0.0184,0.0508,0.0200,0.0000,2025-06-09T13:37:16.863504
6173,-0.1728,0.6202,0.7823,10.010,6.685,3.780,0.01,0.0368,0.0254,0.0200,0.0087,2025-06-09T13:37:16.863504
6174,-0.1810,0.6149,0.8135,10.080,4.060,5.040,0.01,0.0368,0.0508,0.0200,0.0087,2025-06-09T13:37:16.863504
6175,-0.1952,0.6041,0.8276,7.595,1.820,4.060,0.00,0.0368,0.0254,0.0300,0.0087,2025-06-09T13:37:16.863504
6176,-0.1962,0.6041,0.8374,3.885,-2.030,2.135,0.00,0.0368,0.0000,0.0100,0.0087,2025-06-09T13:37:16.863504
6177,-0.1923,0.6071,0.8281,-0.560,-4.725,0.700,0.00,0.0184,0.0254,0.0100,0.0087,2025-06-09T13:37:16.863504
6178,-0.1830,0.6105,0.8115,-2.905,-6.825,-0.420,0.00,0.0184,0.0508,0.0300,0.0087,2025-06-09T13:37:16.863504
6179,-0.1791,0.6266,0.7979,-3.115,-6.930,-1.540,0.01,0.0184,0.0508,0.0200,0.0087,2025-06-09T13:37:16.863504
6180,-0.1601,0.6398,0.7852,-0.210,-5.670,-1.435,0.01,0.0184,0.0254,0.0000,0.0000,2025-06-09T13:37:16.863504
6181,-0.1523,0.6456,0.7710,2.730,-5.040,0.525,0.00,0.0552,0.0254,0.0200,0.0087,2025-06-09T13:37:16.863504
6182,-0.1659,0.6368,0.7647,4.865,-3.920,2.520,0.00,0.0368,0.0254,0.0200,0.0087,2025-06-09T13:37:16.863504
6183,-0.1674,0.6134,0.7691,6.160,-2.520,3.185,0.00,0.0368,0.0254,0.0100,0.0087,2025-06-09T13:37:16.863504
6184,-0.1781,0.5998,0.7808,6.860,1.330,1.785,0.00,0.0184,0.0508,0.0300,0.0174,2025-06-09T13:37:17.061949
6185,-0.1879,0.5968,0.7832,5.215,2.520,0.175,0.00,0.0368,0.0508,0.0100,0.0087,2025-06-09T13:37:17.061949
6186,-0.1820,0.6061,0.8067,1.785,1.190,-0.385,0.01,0.0368,0.0508,0.0100,0.0174,2025-06-09T13:37:17.221523
6187,-0.1771,0.6129,0.7979,-1.435,-1.120,-1.225,0.01,0.0184,0.0254,0.0401,0.0174,2025-06-09T13:37:17.221523
6188,-0.1640,0.6237,0.7993,-4.270,-5.845,-1.120,0.01,0.0368,0.0000,0.0200,0.0087,2025-06-09T13:37:17.221523
6189,-0.1537,0.6290,0.7823,-6.580,-8.750,-0.560,0.00,0.0184,0.0508,0.0100,0.0087,2025-06-09T13:37:17.221523
6190,-0.1566,0.6222,0.7725,-5.005,-8.715,1.715,0.01,0.0184,0.0254,0.0100,0.0000,2025-06-09T13:37:17.221523
6191,-0.1649,0.6071,0.7759,8.715,-4.550,2.940,0.00,0.0184,0.0254,0.0100,0.0087,2025-06-09T13:37:17.221523
6192,-0.1737,0.5973,0.7940,6.650,0.525,2.660,0.00,0.0184,0.0254,0.0100,0.0087,2025-06-09T13:37:17.221523
6193,-0.1762,0.6066,0.8174,9.835,2.310,2.240,0.00,0.0368,0.0254,0.0200,0.0087,2025-06-09T13:37:17.221523
6194,-0.1786,0.6207,0.8213,7.420,-1.785,2.310,0.00,0.0184,0.0254,0.0000,0.0087,2025-06-09T13:37:17.221523
6195,-0.1898,0.6202,0.8159,1.050,-7.105,2.100,0.00,0.0184,0.0254,0.0100,0.0087,2025-06-09T13:37:17.221523
6196,-0.1884,0.6110,0.8067,-6.300,-11.200,0.595,0.00,0.0368,0.0762,0.0300,0.0087,2025-06-09T13:37:17.221523
6197,-0.1845,0.6105,0.7867,-8.190,-11.235,-1.015,0.00,0.0184,0.0254,0.0100,0.0087,2025-06-09T13:37:17.221523
6198,-0.1713,0.6188,0.7662,-8.365,-10.045,-0.455,0.00,0.0184,0.0254,0.0200,0.0087,2025-06-09T13:37:17.221523
6199,-0.1615,0.6251,0.7598,-7.315,-8.260,0.630,0.00,0.0368,0.0508,0.0100,0.0087,2025-06-09T13:37:17.221523
6200,-0.1503,0.6329,0.7530,-6.125,-6.090,1.015,0.01,0.0184,0.0508,0.0300,0.0087,2025-06-09T13:37:17.221523
6201,-0.1405,0.6442,0.7637,-3.290,-3.150,0.945,0.01,0.0000,0.0254,0.0300,0.0087,2025-06-09T13:37:17.221523
6202,-0.1337,0.6529,0.7832,0.385,-1.820,1.995,0.00,0.0368,0.0508,0.0200,0.0087,2025-06-09T13:37:17.221523
6203,-0.1386,0.6403,0.7950,5.530,-1.855,4.585,0.01,0.0184,0.0762,0.0100,0.0087,2025-06-09T13:37:17.346188
6204,-0.1484,0.6212,0.8164,9.625,-2.660,5.705,0.00,0.0184,0.0508,0.0501,0.0087,2025-06-09T13:37:17.346188
6205,-0.1674,0.5954,0.8189,9.800,-3.780,3.255,0.01,0.0368,0.0762,0.0401,0.0174,2025-06-09T13:37:17.346188
6206,-0.1752,0.5827,0.8242,5.180,-5.565,0.735,0.01,0.0368,0.0000,0.0100,0.0087,2025-06-09T13:37:17.346188
6207,-0.1693,0.5876,0.8194,1.960,-7.350,-1.505,0.01,0.0368,0.0000,0.0300,0.0000,2025-06-09T13:37:17.346188
6208,-0.1615,0.5983,0.8150,1.715,-9.415,-1.925,0.00,0.0368,0.0254,0.0200,0.0087,2025-06-09T13:37:17.346188
6209,-0.1610,0.5993,0.7935,1.575,-10.640,-1.645,0.00,0.0184,0.0508,0.0200,0.0087,2025-06-09T13:37:17.346188
6210,-0.1654,0.5998,0.7788,-0.665,-10.535,-2.205,0.00,0.0184,0.0000,0.0000,0.0087,2025-06-09T13:37:17.346188
6211,-0.1571,0.6041,0.7715,-1.505,-7.700,-3.710,0.00,0.0184,0.0508,0.0401,0.0174,2025-06-09T13:37:17.346188
6212,-0.1469,0.6159,0.7632,-0.315,-5.460,-4.200,0.00,0.0368,0.0254,0.0300,0.0087,2025-06-09T13:37:17.346188
6213,-0.0869,0.6476,0.7442,3.990,-8.610,0.980,0.00,0.0184,0.0254,0.0200,0.0000,2025-06-09T13:37:17.346188
6214,-0.1708,0.6817,0.7774,10.990,-3.465,6.195,0.00,0.0368,0.0508,0.0200,0.0174,2025-06-09T13:37:17.346188
6215,-0.1571,0.6149,0.7520,13.195,-2.240,5.285,0.00,0.0184,0.0508,0.0200,0.0087,2025-06-09T13:37:17.346188
6216,-0.1815,0.6041,0.8008,1.120,2.660,-0.210,0.01,0.0184,0.0000,0.0100,0.0174,2025-06-09T13:37:17.346188
6217,-0.1635,0.6154,0.8091,3.220,0.000,-3.745,0.01,0.0184,0.0254,0.0401,0.0087,2025-06-09T13:37:17.346188
6218,-0.1440,0.6412,0.8091,-0.105,-5.180,-2.485,0.01,0.0184,0.0508,0.0100,0.0000,2025-06-09T13:37:17.346188
6219,-0.1303,0.6451,0.7925,-0.035,-12.425,2.135,0.00,0.0368,0.0508,0.0200,0.0087,2025-06-09T13:37:17.346188
6220,-0.1542,0.6603,0.7950,4.270,-12.880,4.550,0.00,0.0368,0.0508,0.0100,0.0000,2025-06-09T13:37:17.514736
6221,-0.1415,0.6188,0.7681,5.635,-10.780,4.375,0.00,0.0184,0.0508,0.0100,0.0087,2025-06-09T13:37:17.514736
6222,-0.1430,0.6246,0.7569,4.165,-10.150,2.835,0.00,0.0368,0.0254,0.0401,0.0087,2025-06-09T13:37:17.514736
6223,-0.1523,0.6412,0.7901,1.890,-5.495,-0.525,0.00,0.0368,0.0254,0.0401,0.0174,2025-06-09T13:37:17.514736
6224,-0.1503,0.6251,0.7593,0.595,-3.745,-0.805,0.01,0.0368,0.0508,0.0200,0.0087,2025-06-09T13:37:17.514736
6225,-0.1508,0.6378,0.7779,2.975,-1.820,-0.105,0.00,0.0368,0.0254,0.0000,0.0087,2025-06-09T13:37:17.514736
6226,-0.1562,0.6310,0.7779,4.410,-0.700,1.190,0.00,0.0184,0.0762,0.0000,0.0087,2025-06-09T13:37:17.514736
6227,-0.1640,0.6334,0.7959,6.090,0.105,2.100,0.00,0.0184,0.0762,0.0200,0.0087,2025-06-09T13:37:17.514736
6228,-0.1523,0.6598,0.8169,5.740,0.385,-0.595,0.00,0.0184,0.0254,0.0300,0.0087,2025-06-09T13:37:17.514736
6229,-0.1542,0.6681,0.7959,-0.840,-4.410,-3.010,0.00,0.0368,0.0508,0.0200,0.0087,2025-06-09T13:37:17.514736
6230,-0.1098,0.6549,0.8067,-6.020,-6.720,-10.360,0.00,0.0184,0.0254,0.0200,0.0174,2025-06-09T13:37:17.514736
6231,-0.1283,0.6344,0.7910,-10.745,-6.370,-12.460,0.01,0.0184,0.0000,0.0000,0.0087,2025-06-09T13:37:17.514736
6232,-0.0908,0.6276,0.7896,-6.160,-1.540,-20.860,0.00,0.0184,0.0508,0.0200,0.0087,2025-06-09T13:37:17.514736
6233,-0.0756,0.6417,0.7296,-3.150,0.385,-22.190,0.00,0.0184,0.0508,0.0401,0.0087,2025-06-09T13:37:17.712209
6234,-0.0927,0.6271,0.7022,2.240,-4.095,-15.295,0.01,0.0368,0.0254,0.0100,0.0087,2025-06-09T13:37:17.712209
6235,-0.0864,0.6027,0.7042,14.210,6.090,-17.885,0.00,0.0184,0.0508,0.0200,0.0087,2025-06-09T13:37:17.712209
6236,-0.1581,0.5778,0.6207,23.800,28.210,-23.030,0.00,0.0184,0.0762,0.0100,0.0087,2025-06-09T13:37:17.712209
6237,-0.1801,0.5734,0.6891,32.655,42.980,-30.695,0.00,0.0368,0.0000,0.0000,0.0087,2025-06-09T13:37:17.713206
6238,-0.1606,0.6671,0.7998,35.245,51.450,-39.900,0.00,0.0184,0.0762,0.0200,0.0087,2025-06-09T13:37:17.713206
6239,-0.2621,0.7115,0.8994,41.650,47.355,-34.580,0.00,0.0368,0.0254,0.0200,0.0174,2025-06-09T13:37:17.713206
6240,-0.2943,0.6568,0.9872,59.185,21.560,-5.390,0.00,0.0184,0.0508,0.0000,0.0087,2025-06-09T13:37:17.713206
6241,-0.4333,0.6534,1.1541,74.235,-3.255,26.460,0.00,0.0184,0.0254,0.0200,0.0087,2025-06-09T13:37:17.713206
6242,-0.6588,0.4856,1.3200,78.470,-26.145,80.535,0.01,0.0368,0.0254,0.0200,0.0000,2025-06-09T13:37:17.713206
6243,-1.0189,0.5744,1.6119,97.825,-25.830,126.840,0.01,0.0184,0.0508,0.0300,0.0087,2025-06-09T13:37:17.713206
6244,-1.4225,0.4602,4.1343,181.370,105.840,157.990,0.00,0.0368,0.0508,0.0200,0.0174,2025-06-09T13:37:17.713206
6245,-2.9339,0.8291,2.9358,107.030,-240.240,90.195,0.00,0.0368,0.0762,0.0300,0.0087,2025-06-09T13:37:17.713206
6246,-3.4194,1.6246,2.0374,-119.560,-766.710,230.440,0.01,0.0184,0.0508,0.0300,0.0174,2025-06-09T13:37:17.713206
6247,-0.8072,0.5104,0.2762,-549.360,-1146.740,44.870,0.00,0.0184,0.0254,0.0200,0.0087,2025-06-09T13:37:17.880757
6248,-0.9662,2.1145,-0.9252,-741.545,-1146.740,23.765,0.01,0.0368,0.0508,0.0300,0.0087,2025-06-09T13:37:17.880757
6249,-1.3967,1.4230,-2.0501,-650.230,-1146.320,-188.300,0.00,0.0184,0.0508,0.0000,0.0087,2025-06-09T13:37:17.880757
6250,-0.4412,1.9061,-2.2790,-392.910,-958.755,-230.090,0.01,0.0184,0.0254,0.0200,0.0087,2025-06-09T13:37:17.880757
6251,0.5592,1.3879,-4.6672,-45.815,-453.425,25.480,0.00,0.0184,0.0254,0.0200,0.0174,2025-06-09T13:37:17.880757
6252,1.0819,0.7457,-2.9744,377.580,-49.805,158.235,0.00,0.0184,0.0508,0.0200,0.0087,2025-06-09T13:37:17.880757
6253,0.7310,1.0770,-1.7983,570.465,394.415,95.690,0.01,0.0184,0.0000,0.0000,0.0000,2025-06-09T13:37:17.880757
6254,0.4734,0.3255,-1.9125,253.085,596.925,-24.885,0.00,0.0184,0.0254,0.0000,0.0000,2025-06-09T13:37:17.880757
6255,-0.2191,0.4856,-2.1452,50.400,756.560,-34.510,0.00,0.0184,0.0254,0.0200,0.0087,2025-06-09T13:37:17.880757
6256,-0.6764,0.6847,-1.5474,-155.785,816.060,-14.035,0.00,0.0184,0.0254,0.0300,0.0087,2025-06-09T13:37:17.880757
6257,-1.0258,0.9404,-0.8154,-39.865,807.345,57.260,0.00,0.0184,0.0508,0.0300,0.0087,2025-06-09T13:37:17.880757
6258,-1.4103,0.2401,-0.2865,223.860,864.290,111.755,0.00,0.0184,0.0508,0.0200,0.0174,2025-06-09T13:37:17.880757
6259,-1.6319,0.5583,0.4982,386.750,942.480,203.070,0.00,0.0368,0.0000,0.0200,0.0087,2025-06-09T13:37:17.880757
6260,-1.8266,1.4894,2.2682,700.665,676.445,27.650,0.00,0.0368,0.0508,0.0200,0.0174,2025-06-09T13:37:18.130089
6261,-2.5732,2.8153,6.4655,372.085,617.890,-112.490,0.01,0.0184,0.0254,0.0200,0.0262,2025-06-09T13:37:18.130089
6262,-3.7156,1.5811,3.7395,818.370,1146.740,-207.935,0.01,0.0184,0.0508,0.0200,0.0087,2025-06-09T13:37:18.130089
6263,-1.6265,1.7309,5.3944,619.780,726.600,-151.725,0.01,0.0368,0.0508,0.0100,0.0087,2025-06-09T13:37:18.130089
6264,-1.7900,2.4434,2.0672,-156.730,-567.840,57.960,0.00,0.0184,0.0508,0.0501,0.0174,2025-06-09T13:37:18.130089
6265,-1.7051,2.1277,0.5929,-802.900,-943.565,183.785,0.00,0.0184,0.0254,0.0100,0.0087,2025-06-09T13:37:18.130089
6266,-1.2224,1.4635,0.5666,-1146.740,-1112.650,25.130,0.01,0.0184,0.0508,0.0000,0.0087,2025-06-09T13:37:18.130089
6267,-1.2107,0.9950,-0.1801,-855.820,-1146.740,-173.775,0.00,0.0368,0.0254,0.0200,0.0087,2025-06-09T13:37:18.130089
6268,-0.8247,1.0082,-0.8428,-222.985,-865.235,-243.530,0.01,0.0184,0.0254,0.0100,0.0087,2025-06-09T13:37:18.130089
6269,-0.2567,1.4557,-1.1068,-194.985,-582.295,3.395,0.01,0.0184,0.0508,0.0200,0.0087,2025-06-09T13:37:18.130089
6270,0.4465,0.5207,-1.1873,-124.705,-200.025,-290.955,0.00,0.0184,0.0254,0.0100,0.0087,2025-06-09T13:37:18.130089
6271,0.9965,1.4386,-1.4616,-161.875,-23.415,-271.880,0.01,0.0184,0.0762,0.0000,0.0087,2025-06-09T13:37:18.130089
6272,1.2771,1.5972,-1.0599,-335.265,140.245,-140.560,0.01,0.0184,0.0254,0.0100,0.0087,2025-06-09T13:37:18.130089
6273,1.0658,1.3503,-0.3387,-218.015,185.150,53.375,0.01,0.0368,0.0508,0.0200,0.0174,2025-06-09T13:37:18.130089
6274,0.7208,0.9350,-0.2279,73.955,273.770,258.160,0.00,0.0184,0.0254,0.0200,0.0087,2025-06-09T13:37:18.130089
6275,0.3084,0.6866,0.3148,322.560,399.595,354.130,0.01,0.0368,0.0254,0.0100,0.0087,2025-06-09T13:37:18.290684
6276,-0.1420,0.7740,0.5685,474.670,526.260,331.590,0.01,0.0184,0.0254,0.0401,0.0087,2025-06-09T13:37:18.290684
6277,-0.5280,0.4216,0.9252,439.635,535.115,228.655,0.01,0.0368,0.0508,0.0100,0.0087,2025-06-09T13:37:18.290684
6278,-0.8272,0.9179,1.2790,488.635,479.605,121.205,0.00,0.0368,0.0254,0.0300,0.0087,2025-06-09T13:37:18.290684
6279,-0.9062,0.6100,1.5289,245.490,372.505,65.520,0.01,0.0184,0.0508,0.0300,0.0087,2025-06-09T13:37:18.290684
6280,-0.8691,0.6529,1.9481,114.730,186.935,-16.345,0.01,0.0184,0.0254,0.0200,0.0087,2025-06-09T13:37:18.290684
6281,-0.8194,0.7349,1.7075,-14.840,39.830,-54.145,0.01,0.0184,0.0000,0.0300,0.0087,2025-06-09T13:37:18.290684
6282,-0.5026,0.7696,1.5616,-154.455,-90.790,-59.745,0.00,0.0184,0.0508,0.0200,0.0087,2025-06-09T13:37:18.290684
6283,-0.3035,0.7374,1.3547,-207.375,-147.070,-55.545,0.01,0.0184,0.0508,0.0200,0.0087,2025-06-09T13:37:18.290684
6284,-0.2142,0.6695,1.1312,-175.630,-170.695,-36.330,0.01,0.0184,0.0254,0.0100,0.0174,2025-06-09T13:37:18.290684
6285,-0.0908,0.6041,0.8194,-97.545,-157.955,-10.045,0.00,0.0368,0.0508,0.0100,0.0087,2025-06-09T13:37:18.290684
6286,-0.0083,0.5314,0.6329,-37.660,-122.780,9.765,0.00,0.0184,0.0254,0.0300,0.0087,2025-06-09T13:37:18.290684
6287,0.0132,0.4836,0.4870,1.470,-83.930,10.395,0.00,0.0000,0.0508,0.0000,0.0087,2025-06-09T13:37:18.290684
6288,0.0244,0.5046,0.4529,6.650,-39.445,-0.665,0.00,0.0368,0.0000,0.0300,0.0087,2025-06-09T13:37:18.290684
6289,0.0688,0.5754,0.4836,0.245,8.330,-10.745,0.00,0.0184,0.0508,0.0100,0.0087,2025-06-09T13:37:18.290684
6290,0.0776,0.6451,0.5963,-2.380,36.645,-10.850,0.01,0.0184,0.0254,0.0200,0.0087,2025-06-09T13:37:18.399395
6291,0.0493,0.6734,0.7125,11.550,53.970,-1.505,0.00,0.0184,0.0254,0.0300,0.0174,2025-06-09T13:37:18.399395
6292,0.0107,0.6734,0.8452,36.085,56.385,5.145,0.00,0.0184,0.0254,0.0100,0.0174,2025-06-09T13:37:18.399395
6293,-0.0400,0.6549,0.9238,43.715,47.355,5.635,0.00,0.0368,0.0762,0.0100,0.0087,2025-06-09T13:37:18.399395
6294,-0.0898,0.6329,0.9418,39.970,33.005,3.185,0.00,0.0184,0.0508,0.0300,0.0087,2025-06-09T13:37:18.399395
6295,-0.1191,0.6110,0.9311,20.475,16.485,-2.065,0.01,0.0184,0.0508,0.0000,0.0087,2025-06-09T13:37:18.399395
6296,-0.1303,0.6017,0.9174,-2.520,-1.085,-7.560,0.00,0.0000,0.0254,0.0200,0.0174,2025-06-09T13:37:18.399395
6297,-0.1118,0.5978,0.8823,-12.390,-9.240,-12.845,0.01,0.0184,0.0254,0.0300,0.0087,2025-06-09T13:37:18.399395
6298,-0.0761,0.6105,0.8633,-9.730,-11.655,-12.845,0.00,0.0368,0.0508,0.0100,0.0174,2025-06-09T13:37:18.508102
6299,-0.0473,0.6144,0.8267,1.960,-11.760,-8.645,0.00,0.0184,0.0508,0.0200,0.0174,2025-06-09T13:37:18.508102
6300,-0.0371,0.6124,0.8067,10.815,-11.340,-2.625,0.00,0.0368,0.0762,0.0100,0.0174,2025-06-09T13:37:18.508102
6301,-0.0649,0.5915,0.7881,14.420,-9.415,1.400,0.01,0.0184,0.0254,0.0300,0.0174,2025-06-09T13:37:18.508102
6302,-0.0659,0.5744,0.8032,13.650,-5.390,2.975,0.00,0.0368,0.0762,0.0300,0.0174,2025-06-09T13:37:18.508102
6303,-0.0708,0.5636,0.8062,12.635,-3.570,0.735,0.00,0.0184,0.0254,0.0200,0.0174,2025-06-09T13:37:18.508102
6304,-0.0834,0.5651,0.7896,7.560,-2.415,-1.680,0.00,0.0368,0.0508,0.0200,0.0087,2025-06-09T13:37:18.508102
6305,-0.0908,0.5778,0.7940,-0.350,-2.100,-2.730,0.00,0.0184,0.0508,0.0401,0.0087,2025-06-09T13:37:18.609805
6306,-0.0722,0.6002,0.7935,-3.605,-2.030,-0.455,0.01,0.0368,0.0508,0.0200,0.0087,2025-06-09T13:37:18.609805
6307,-0.0610,0.6183,0.8330,-0.280,-4.585,2.240,0.00,0.0368,0.0254,0.0100,0.0174,2025-06-09T13:37:18.609805
6308,-0.0673,0.6193,0.8081,2.240,-5.705,2.765,0.00,0.0184,0.0000,0.0100,0.0087,2025-06-09T13:37:18.609805
6309,-0.0693,0.6227,0.7876,-1.820,-6.125,3.010,0.01,0.0184,0.0508,0.0200,0.0000,2025-06-09T13:37:18.609805
6310,-0.0517,0.6227,0.7867,-7.280,-6.650,0.665,0.00,0.0368,0.0254,0.0100,0.0087,2025-06-09T13:37:18.609805
6311,-0.0561,0.6261,0.7974,-9.170,-4.900,-1.015,0.01,0.0184,0.0254,0.0200,0.0174,2025-06-09T13:37:18.609805
6312,-0.0425,0.6285,0.8067,-5.075,-2.590,2.905,0.00,0.0368,0.0254,0.0000,0.0087,2025-06-09T13:37:18.609805
6313,-0.0429,0.6295,0.8442,6.160,-3.150,6.615,0.01,0.0368,0.0508,0.0000,0.0087,2025-06-09T13:37:18.699565
6314,-0.0630,0.6007,0.8237,9.415,-5.320,7.385,0.01,0.0000,0.0508,0.0300,0.0174,2025-06-09T13:37:18.699565
6315,-0.0776,0.5929,0.8101,2.485,-6.125,3.675,0.00,0.0368,0.0254,0.0200,0.0087,2025-06-09T13:37:18.699565
6316,-0.0625,0.6090,0.7954,-8.155,-4.340,-2.135,0.01,0.0368,0.0508,0.0100,0.0087,2025-06-09T13:37:18.699565
6317,-0.0488,0.6334,0.7930,-10.815,-1.155,-5.355,0.01,0.0184,0.0762,0.0501,0.0087,2025-06-09T13:37:18.699565
6318,-0.0327,0.6393,0.7784,-3.115,2.415,-2.205,0.00,0.0184,0.0508,0.0200,0.0087,2025-06-09T13:37:18.699565
6319,-0.0220,0.6427,0.7842,6.755,4.445,1.295,0.01,0.0184,0.0508,0.0100,0.0000,2025-06-09T13:37:18.699565
6320,-0.0454,0.6344,0.7740,10.745,7.280,2.450,0.00,0.0368,0.0508,0.0200,0.0174,2025-06-09T13:37:18.699565
6321,-0.0615,0.6266,0.7842,7.140,11.830,1.925,0.00,0.0184,0.0254,0.0100,0.0174,2025-06-09T13:37:18.751426
6322,-0.0678,0.6232,0.8086,7.525,12.705,4.515,0.01,0.0368,0.0000,0.0300,0.0087,2025-06-09T13:37:18.751426
6323,-0.0673,0.6256,0.8642,14.420,8.995,7.000,0.00,0.0184,0.0254,0.0200,0.0087,2025-06-09T13:37:18.751426
6324,-0.1010,0.6115,0.8672,17.815,3.745,7.280,0.00,0.0368,0.0508,0.0100,0.0087,2025-06-09T13:37:18.912999
6325,-0.1113,0.6046,0.8550,8.610,-3.080,4.130,0.01,0.0368,0.0508,0.0000,0.0087,2025-06-09T13:37:18.912999
6326,-0.0986,0.6198,0.8486,-3.885,-9.555,-0.420,0.01,0.0552,0.0254,0.0401,0.0087,2025-06-09T13:37:18.912999
6327,-0.0693,0.6295,0.8364,-14.000,-16.555,-3.955,0.00,0.0184,0.0000,0.0200,0.0087,2025-06-09T13:37:18.912999
6328,-0.0527,0.6378,0.8028,-14.315,-18.515,-3.570,0.01,0.0184,0.0762,0.0300,0.0174,2025-06-09T13:37:18.912999
6329,-0.0337,0.6256,0.7730,-8.820,-16.345,-1.085,0.01,0.0184,0.0508,0.0200,0.0087,2025-06-09T13:37:18.912999
6330,-0.0371,0.6120,0.7505,-0.350,-9.205,1.610,0.00,0.0184,0.0254,0.0100,0.0174,2025-06-09T13:37:18.912999
6331,-0.0420,0.6061,0.7520,4.690,-1.750,2.835,0.01,0.0368,0.0254,0.0200,0.0087,2025-06-09T13:37:18.912999
6332,-0.0429,0.6056,0.7603,7.245,6.405,1.505,0.01,0.0184,0.0762,0.0200,0.0087,2025-06-09T13:37:18.912999
6333,-0.0512,0.6095,0.7867,7.840,9.975,0.700,0.00,0.0184,0.0254,0.0200,0.0174,2025-06-09T13:37:18.912999
6334,-0.0630,0.6124,0.8179,7.945,9.695,2.310,0.00,0.0184,0.0254,0.0300,0.0087,2025-06-09T13:37:18.912999
6335,-0.0727,0.6212,0.8520,8.330,5.320,3.535,0.00,0.0184,0.0508,0.0300,0.0087,2025-06-09T13:37:18.912999
6336,-0.0712,0.6149,0.8574,6.405,-0.805,2.590,0.00,0.0184,0.0254,0.0200,0.0087,2025-06-09T13:37:19.041654
6337,-0.0805,0.6139,0.8481,-0.805,-9.555,1.400,0.01,0.0184,0.0762,0.0200,0.0087,2025-06-09T13:37:19.041654
6338,-0.0786,0.6061,0.8237,-6.790,-14.175,0.385,0.00,0.0184,0.0254,0.0100,0.0174,2025-06-09T13:37:19.041654
6339,-0.0625,0.6056,0.7993,-10.290,-15.855,-1.400,0.00,0.0184,0.0254,0.0300,0.0174,2025-06-09T13:37:19.041654
6340,-0.0590,0.6134,0.7715,-9.625,-13.335,-2.415,0.01,0.0368,0.0508,0.0300,0.0087,2025-06-09T13:37:19.041654
6341,-0.0303,0.6310,0.7618,-7.945,-7.560,-2.275,0.01,0.0368,0.0508,0.0200,0.0087,2025-06-09T13:37:19.041654
6342,-0.0161,0.6378,0.7598,-2.905,-4.130,-0.455,0.00,0.0184,0.0254,0.0100,0.0087,2025-06-09T13:37:19.041654
6343,-0.0395,0.6320,0.7691,2.310,-0.420,3.955,0.01,0.0368,0.0508,0.0200,0.0087,2025-06-09T13:37:19.116452
6344,-0.0503,0.6105,0.7871,8.750,4.340,6.335,0.01,0.0184,0.0508,0.0200,0.0087,2025-06-09T13:37:19.116452
6345,-0.0639,0.6080,0.8120,10.500,5.495,4.480,0.00,0.0184,0.0508,0.0300,0.0174,2025-06-09T13:37:19.116452
6346,-0.0786,0.6144,0.8169,5.705,3.850,0.455,0.01,0.0368,0.0254,0.0000,0.0087,2025-06-09T13:37:19.116452
6347,-0.0600,0.6324,0.8335,-3.570,0.000,-0.630,0.00,0.0184,0.0762,0.0100,0.0087,2025-06-09T13:37:19.116452
6348,-0.0468,0.6364,0.8316,-6.930,-6.510,0.245,0.00,0.0184,0.0508,0.0200,0.0087,2025-06-09T13:37:19.116452
6349,-0.0547,0.6227,0.8179,-4.865,-11.200,2.205,0.00,0.0184,0.0254,0.0100,0.0174,2025-06-09T13:37:19.116452
6350,-0.0498,0.6129,0.7930,-3.290,-10.885,1.750,0.00,0.0184,0.0254,0.0200,0.0087,2025-06-09T13:37:19.116452
6351,-0.0415,0.6120,0.7710,-3.570,-7.770,0.525,0.00,0.0368,0.0508,0.0100,0.0087,2025-06-09T13:37:19.225159
6352,-0.0400,0.6095,0.7696,-3.500,-3.150,0.910,0.01,0.0368,0.0508,0.0000,0.0174,2025-06-09T13:37:19.225159
6353,-0.0405,0.6095,0.7881,-0.105,0.245,1.750,0.01,0.0368,0.0254,0.0200,0.0174,2025-06-09T13:37:19.225159
6354,-0.0459,0.6163,0.8037,5.425,2.975,2.380,0.00,0.0368,0.0508,0.0000,0.0174,2025-06-09T13:37:19.225159
6355,-0.0488,0.6183,0.8194,7.000,2.170,1.855,0.00,0.0184,0.0508,0.0000,0.0087,2025-06-09T13:37:19.225159
6356,-0.0639,0.6237,0.8247,2.905,-0.070,1.400,0.00,0.0184,0.0254,0.0200,0.0000,2025-06-09T13:37:19.225159
6357,-0.0542,0.6227,0.8330,-0.875,-3.360,1.470,0.00,0.0184,0.0508,0.0300,0.0174,2025-06-09T13:37:19.225159
6358,-0.0488,0.6198,0.8164,-0.595,-6.300,1.155,0.01,0.0184,0.0000,0.0000,0.0087,2025-06-09T13:37:19.225159
6359,-0.0610,0.6080,0.8032,-0.700,-7.140,0.665,0.00,0.0368,0.0508,0.0200,0.0087,2025-06-09T13:37:19.330878
6360,-0.0542,0.6090,0.7832,-2.870,-5.740,0.140,0.01,0.0368,0.0508,0.0401,0.0000,2025-06-09T13:37:19.330878
6361,-0.0405,0.6188,0.7823,-4.375,-4.305,-1.155,0.00,0.0184,0.0508,0.0200,0.0087,2025-06-09T13:37:19.330878
6362,-0.0420,0.6207,0.7818,-3.920,-0.665,-0.910,0.01,0.0368,0.0508,0.0200,0.0174,2025-06-09T13:37:19.330878
6363,-0.0400,0.6271,0.7979,2.310,2.415,1.435,0.00,0.0368,0.0254,0.0100,0.0174,2025-06-09T13:37:19.330878
6364,-0.0434,0.6261,0.8194,8.855,2.800,2.870,0.00,0.0184,0.0254,0.0100,0.0087,2025-06-09T13:37:19.330878
6365,-0.0547,0.6212,0.8115,9.065,1.960,1.610,0.00,0.0184,0.0254,0.0000,0.0087,2025-06-09T13:37:19.330878
6366,-0.0586,0.6212,0.8067,2.765,0.700,-0.805,0.01,0.0368,0.0254,0.0200,0.0087,2025-06-09T13:37:19.330878
6367,-0.0678,0.6212,0.8208,-2.625,-0.140,-2.240,0.01,0.0184,0.0000,0.0000,0.0087,2025-06-09T13:37:19.535329
6368,-0.0639,0.6261,0.8438,0.735,-0.805,-0.175,0.00,0.0368,0.0508,0.0100,0.0087,2025-06-09T13:37:19.535329
6369,-0.0556,0.6300,0.8433,9.520,-4.130,0.735,0.01,0.0184,0.0254,0.0300,0.0174,2025-06-09T13:37:19.535329
6370,-0.0620,0.6202,0.8125,7.105,-8.400,0.420,0.00,0.0368,0.0762,0.0300,0.0174,2025-06-09T13:37:19.535329
6371,-0.0547,0.6090,0.7906,-4.305,-12.705,-1.995,0.01,0.0184,0.0254,0.0300,0.0174,2025-06-09T13:37:19.535329
6372,-0.0434,0.6032,0.7828,-13.930,-12.705,-4.690,0.00,0.0184,0.0254,0.0100,0.0262,2025-06-09T13:37:19.535329
6373,-0.0293,0.6120,0.7730,-10.395,-9.520,-4.970,0.00,0.0368,0.0254,0.0200,0.0087,2025-06-09T13:37:19.535329
6374,-0.0156,0.6276,0.7774,3.220,-3.290,-4.270,0.01,0.0184,0.0508,0.0100,0.0087,2025-06-09T13:37:19.535329
6375,-0.0151,0.6520,0.7774,11.795,0.560,-5.355,0.00,0.0368,0.0762,0.0100,0.0000,2025-06-09T13:37:19.535329
6376,-0.0068,0.6539,0.7881,10.990,1.295,-7.840,0.00,0.0368,0.0508,0.0000,0.0000,2025-06-09T13:37:19.535329
6377,-0.0073,0.6988,0.7964,7.770,-1.435,-9.205,0.00,0.0368,0.0254,0.0000,0.0087,2025-06-09T13:37:19.535329
6378,-0.0254,0.7100,0.8101,11.375,-5.145,-6.510,0.01,0.0184,0.0508,0.0100,0.0087,2025-06-09T13:37:19.535329
6379,-0.0307,0.6978,0.8262,20.335,-10.535,-1.960,0.00,0.0184,0.0508,0.0200,0.0087,2025-06-09T13:37:19.535329
6380,-0.0620,0.6876,0.8496,31.220,-10.745,3.010,0.01,0.0184,0.0254,0.0200,0.0087,2025-06-09T13:37:19.535329
6381,-0.0932,0.6520,0.8438,33.565,-15.785,5.950,0.00,0.0368,0.0508,0.0100,0.0000,2025-06-09T13:37:19.728815
6382,-0.1200,0.6324,0.8804,34.720,-19.215,9.030,0.01,0.0368,0.0254,0.0200,0.0174,2025-06-09T13:37:19.728815
6383,-0.1947,0.5832,0.9838,40.495,-19.880,18.025,0.01,0.0368,0.0508,0.0200,0.0174,2025-06-09T13:37:19.728815
6384,-0.3665,0.4416,1.1317,42.490,-15.365,34.510,0.01,0.0184,0.0508,0.0300,0.0087,2025-06-09T13:37:19.728815
6385,-0.7096,0.2977,1.3381,64.505,-11.830,70.770,0.00,0.0368,0.0508,0.0000,0.0087,2025-06-09T13:37:19.728815
6386,-1.4718,0.3743,1.8363,96.320,-7.420,132.160,0.00,0.0368,0.0254,0.0200,0.0174,2025-06-09T13:37:19.728815
6387,-2.0228,0.1484,2.2160,238.595,-75.250,106.260,0.01,0.0184,0.0000,0.0100,0.0174,2025-06-09T13:37:19.728815
6388,-2.5322,0.4319,2.6210,139.895,-391.090,72.450,0.01,0.0184,0.0508,0.0100,0.0087,2025-06-09T13:37:19.728815
6389,-1.9803,1.5060,1.2151,11.410,-863.065,73.010,0.00,0.0184,0.0254,0.0501,0.0087,2025-06-09T13:37:19.728815
6390,-1.0531,1.8134,-0.0117,-427.070,-1146.740,-119.140,0.00,0.0184,0.0254,0.0200,0.0087,2025-06-09T13:37:19.728815
6391,-1.1356,2.5269,-1.0702,-613.060,-1146.740,-167.090,0.01,0.0184,0.0508,0.0602,0.0087,2025-06-09T13:37:19.728815
6392,-0.8111,2.0960,-2.1911,-629.020,-1103.375,-280.770,0.00,0.0368,0.0508,0.0200,0.0087,2025-06-09T13:37:19.728815
6393,-0.3318,2.8650,-1.5016,-449.330,-846.195,-291.585,0.01,0.0184,0.0508,0.0200,0.0087,2025-06-09T13:37:19.728815
6394,1.4538,2.1018,-3.3223,-4.410,-595.210,-67.305,0.00,0.0368,0.0254,0.0200,0.0087,2025-06-09T13:37:19.728815
6395,1.8393,1.1854,-2.5147,365.960,-259.035,136.535,0.00,0.0368,0.0254,0.0100,0.0087,2025-06-09T13:37:19.728815
6396,1.2180,0.7725,-2.0945,386.540,192.360,203.630,0.01,0.0368,0.0762,0.0300,0.0000,2025-06-09T13:37:19.728815
6397,0.8325,0.6432,-1.2986,268.275,339.745,139.860,0.01,0.0368,0.0508,0.0300,0.0087,2025-06-09T13:37:19.826551
6398,0.1074,0.5788,-0.7579,88.025,534.450,63.140,0.00,0.0368,0.0508,0.0300,0.0174,2025-06-09T13:37:19.826551
6399,0.2054,0.1391,-0.4202,-117.670,549.290,42.420,0.00,0.0184,0.0762,0.0100,0.0174,2025-06-09T13:37:19.826551
6400,0.2001,0.3582,-0.4714,-74.480,457.695,47.040,0.01,0.0368,0.0254,0.0000,0.0087,2025-06-09T13:37:19.826551
6401,-0.0181,0.4109,-1.1253,-108.885,536.235,56.210,0.00,0.0368,0.0254,0.0000,0.0174,2025-06-09T13:37:19.826551
6402,0.1937,0.5407,-1.4669,-130.795,676.515,18.795,0.00,0.0184,0.0254,0.0000,0.0087,2025-06-09T13:37:19.826551
6403,-0.4397,0.4055,-1.1380,-96.285,818.755,40.215,0.00,0.0184,0.0762,0.0100,0.0087,2025-06-09T13:37:19.826551
6404,-1.8212,0.1976,-0.7252,-18.445,927.535,71.715,0.00,0.0368,0.0254,0.0300,0.0000,2025-06-09T13:37:19.929122
6405,-1.7514,-0.4143,-0.0059,146.545,1064.035,21.455,0.00,0.0368,0.0762,0.0200,0.0174,2025-06-09T13:37:19.929122
6406,-2.7552,-0.8511,1.3254,197.155,1083.985,47.810,0.00,0.0368,0.0762,0.0200,0.0087,2025-06-09T13:37:19.929122
6407,-3.6493,0.1005,3.0739,503.265,907.655,8.855,0.00,0.0368,0.0254,0.0200,0.0174,2025-06-09T13:37:19.929122
6408,-5.8819,0.2103,6.7451,669.305,1032.220,205.625,0.01,0.0368,0.0254,0.0200,0.0174,2025-06-09T13:37:19.929122
6409,-3.2828,0.3177,6.1166,791.350,798.700,169.085,0.00,0.0368,0.0762,0.0200,0.0087,2025-06-09T13:37:19.929122
6410,-3.2940,1.7539,3.0724,154.105,-160.370,212.345,0.00,0.0368,0.0508,0.0200,0.0087,2025-06-09T13:37:19.929122
6411,-3.1354,3.4018,2.3653,-486.675,-1139.320,399.315,0.01,0.0184,0.0508,0.0000,0.0087,2025-06-09T13:37:20.030943
6412,-2.4215,2.1667,0.7081,-847.560,-1146.740,-35.245,0.01,0.0368,0.0508,0.0200,0.0087,2025-06-09T13:37:20.030943
6413,-2.4834,1.9613,-0.2089,-821.870,-1146.740,-147.770,0.00,0.0184,0.0508,0.0300,0.0174,2025-06-09T13:37:20.030943
6414,-3.1705,1.4352,-1.6099,-288.470,-1146.740,-210.665,0.01,0.0368,0.0254,0.0300,0.0087,2025-06-09T13:37:20.030943
6415,-2.7499,1.0975,-3.5151,49.455,-1141.140,-224.385,0.01,0.0368,0.0254,0.0200,0.0087,2025-06-09T13:37:20.030943
6416,-0.9872,1.4279,-2.4585,193.410,-762.160,-269.815,0.00,0.0184,0.0508,0.0300,0.0087,2025-06-09T13:37:20.030943
6417,0.5944,1.8598,-3.0490,-144.620,-716.275,-88.445,0.00,0.0184,0.0508,0.0200,0.0087,2025-06-09T13:37:20.030943
6418,1.5875,0.8325,-3.4653,-433.965,198.100,-83.685,0.00,0.0184,0.0508,0.0100,0.0087,2025-06-09T13:37:20.030943
6419,1.2376,0.9789,-1.8832,-506.870,445.060,86.730,0.01,0.0368,0.0000,0.0401,0.0087,2025-06-09T13:37:20.136660
6420,0.7335,0.6500,-1.1771,-347.025,768.040,199.640,0.00,0.0184,0.0254,0.0000,0.0174,2025-06-09T13:37:20.136660
6421,-0.3372,0.8267,-1.0629,-93.415,1116.465,304.920,0.00,0.0184,0.0508,0.0100,0.0174,2025-06-09T13:37:20.136660
6422,-1.3488,0.9716,0.4597,-26.075,1140.825,402.290,0.01,0.0184,0.0762,0.0200,0.0174,2025-06-09T13:37:20.136660
6423,-1.4596,0.5563,0.4602,128.135,917.175,401.520,0.00,0.0184,0.0254,0.0100,0.0087,2025-06-09T13:37:20.136660
6424,-2.2697,0.2708,1.0878,106.995,776.580,350.105,0.00,0.0184,0.0000,0.0100,0.0087,2025-06-09T13:37:20.136660
6425,-3.0768,-0.2377,3.7610,234.955,576.835,352.450,0.01,0.0368,0.0508,0.0200,0.0087,2025-06-09T13:37:20.136660
6426,-1.8222,-0.3367,2.8816,300.475,546.700,254.905,0.01,0.0368,0.0508,0.0100,0.0087,2025-06-09T13:37:20.246367
6427,-1.9769,0.2045,3.3467,358.190,458.290,87.850,0.01,0.0184,0.0508,0.0200,0.0087,2025-06-09T13:37:20.246367
6428,-1.4411,0.5075,3.0222,265.300,89.425,-67.235,0.01,0.0368,0.0508,0.0200,0.0174,2025-06-09T13:37:20.246367
6429,-1.0531,0.9360,1.8485,-205.170,-314.580,-57.575,0.00,0.0184,0.0508,0.0300,0.0174,2025-06-09T13:37:20.246367
6430,-0.8037,0.8003,1.5304,-430.500,-534.030,-85.295,0.01,0.0184,0.0508,0.0300,0.0087,2025-06-09T13:37:20.246367
6431,-0.7144,0.5231,0.7798,-390.320,-539.805,-124.320,0.00,0.0184,0.0508,0.0100,0.0087,2025-06-09T13:37:20.246367
6432,-0.4895,0.3738,0.5563,-174.020,-391.580,-106.225,0.00,0.0184,0.0254,0.0300,0.0087,2025-06-09T13:37:20.246367
6433,-0.1693,0.3967,0.1430,12.950,-261.940,-65.380,0.00,0.0368,0.0508,0.0200,0.0000,2025-06-09T13:37:20.246367
6434,0.0493,0.4656,0.0991,44.940,-203.350,-30.555,0.00,0.0184,0.0254,0.0200,0.0087,2025-06-09T13:37:20.347124
6435,0.2084,0.5056,-0.0371,-11.655,-101.850,-14.455,0.01,0.0368,0.0508,0.0300,0.0087,2025-06-09T13:37:20.347124
6436,0.2186,0.5402,0.1381,-33.215,-5.530,2.590,0.01,0.0184,0.0254,0.0000,0.0087,2025-06-09T13:37:20.347124
6437,0.1728,0.5846,0.3567,11.200,94.010,25.375,0.00,0.0184,0.0254,0.0100,0.0087,2025-06-09T13:37:20.347124
6438,0.0986,0.6242,0.6256,82.600,158.900,54.810,0.00,0.0184,0.0254,0.0300,0.0087,2025-06-09T13:37:20.347124
6439,-0.0386,0.6207,0.8111,111.370,182.735,77.175,0.00,0.0368,0.0508,0.0200,0.0087,2025-06-09T13:37:20.347124
6440,-0.1469,0.5754,0.9736,107.800,169.960,77.910,0.00,0.0184,0.0254,0.0300,0.0087,2025-06-09T13:37:20.347124
6441,-0.3030,0.5144,1.1000,72.800,133.840,61.320,0.01,0.0184,0.0254,0.0000,0.0087,2025-06-09T13:37:20.347124
6442,-0.3445,0.4216,1.2098,38.115,96.775,38.780,0.01,0.0552,0.0254,0.0300,0.0087,2025-06-09T13:37:20.402973
6443,-0.3767,0.4202,1.2307,19.880,50.785,11.375,0.01,0.0368,0.0508,0.0200,0.0000,2025-06-09T13:37:20.402973
6444,-0.3689,0.4446,1.2342,-1.260,12.740,-7.140,0.01,0.0184,0.0000,0.0100,0.0087,2025-06-09T13:37:20.402973
6445,-0.3152,0.4514,1.1507,-20.615,-27.685,-19.180,0.01,0.0368,0.0254,0.0200,0.0087,2025-06-09T13:37:20.402973
6446,-0.2401,0.4543,1.0438,-41.300,-59.360,-24.360,0.01,0.0184,0.0254,0.0200,0.0087,2025-06-09T13:37:20.546565
6447,-0.1962,0.4407,0.9087,-42.700,-64.470,-24.045,0.01,0.0368,0.0508,0.0100,0.0087,2025-06-09T13:37:20.546565
6448,-0.1654,0.4241,0.8169,-25.515,-50.680,-18.410,0.01,0.0368,0.0254,0.0300,0.0087,2025-06-09T13:37:20.546565
6449,-0.1279,0.4104,0.7501,-4.235,-30.905,-8.610,0.01,0.0184,0.0254,0.0200,0.0174,2025-06-09T13:37:20.546565
6450,-0.1064,0.4353,0.7452,12.215,-5.495,1.715,0.00,0.0368,0.0508,0.0100,0.0000,2025-06-09T13:37:20.546565
6451,-0.1205,0.4480,0.7442,20.090,9.835,8.855,0.01,0.0184,0.0508,0.0300,0.0087,2025-06-09T13:37:20.546565
6452,-0.1566,0.4626,0.7940,19.985,18.445,13.055,0.00,0.0184,0.0254,0.0200,0.0087,2025-06-09T13:37:20.546565
6453,-0.1806,0.4636,0.8599,19.880,21.070,13.615,0.00,0.0184,0.0508,0.0200,0.0000,2025-06-09T13:37:20.546565
6454,-0.1786,0.4890,0.9218,20.440,17.745,13.090,0.00,0.0184,0.0254,0.0100,0.0087,2025-06-09T13:37:20.546565
6455,-0.1845,0.4812,0.9316,8.715,6.090,9.205,0.00,0.0184,0.0508,0.0000,0.0087,2025-06-09T13:37:20.546565
6456,-0.2118,0.4738,0.9013,-6.615,-4.515,3.605,0.00,0.0184,0.0508,0.0100,0.0000,2025-06-09T13:37:20.546565
6457,-0.2386,0.4324,0.9087,-15.925,-8.365,-3.605,0.01,0.0184,0.0762,0.0000,0.0174,2025-06-09T13:37:20.652237
6458,-0.2137,0.4402,0.9126,-7.455,-1.155,-7.140,0.00,0.0368,0.0254,0.0200,0.0174,2025-06-09T13:37:20.653234
6459,-0.1659,0.4934,0.9287,3.115,3.675,-5.285,0.00,0.0184,0.0508,0.0200,0.0087,2025-06-09T13:37:20.653234
6460,-0.1493,0.5261,0.9135,5.950,-1.890,-0.245,0.01,0.0368,0.0254,0.0200,0.0087,2025-06-09T13:37:20.653234
6461,-0.1620,0.5104,0.8838,-3.465,-6.650,1.330,0.00,0.0184,0.0254,0.0100,0.0087,2025-06-09T13:37:20.653234
6462,-0.1723,0.4802,0.8823,-5.600,-5.215,-0.070,0.00,0.0184,0.0254,0.0100,0.0087,2025-06-09T13:37:20.653234
6463,-0.1669,0.4748,0.8823,3.920,0.980,0.175,0.00,0.0184,0.0508,0.0000,0.0087,2025-06-09T13:37:20.653234
6464,-0.1537,0.4782,0.8657,7.770,5.460,1.890,0.01,0.0184,0.1018,0.0200,0.0087,2025-06-09T13:37:20.754987
6465,-0.1723,0.4709,0.8481,2.835,5.110,4.130,0.00,0.0184,0.0508,0.0000,0.0087,2025-06-09T13:37:20.754987
6466,-0.2015,0.4494,0.8594,-1.925,7.210,4.795,0.01,0.0368,0.0254,0.0300,0.0174,2025-06-09T13:37:20.754987
6467,-0.2186,0.4377,0.8926,8.470,10.605,8.645,0.01,0.0368,0.0508,0.0300,0.0087,2025-06-09T13:37:20.754987
6468,-0.2186,0.4768,0.9589,25.270,11.025,13.965,0.00,0.0184,0.0762,0.0200,0.0174,2025-06-09T13:37:20.754987
6469,-0.2255,0.4890,0.9721,28.245,3.255,14.945,0.00,0.0184,0.0254,0.0200,0.0087,2025-06-09T13:37:20.754987
6470,-0.2416,0.4748,0.9526,13.895,-11.235,11.025,0.00,0.0184,0.0254,0.0100,0.0000,2025-06-09T13:37:20.754987
6471,-0.2455,0.4616,0.9296,-3.430,-25.585,0.350,0.00,0.0184,0.0254,0.0200,0.0000,2025-06-09T13:37:20.754987
6472,-0.2269,0.4514,0.8930,-15.120,-29.785,-8.890,0.01,0.0184,0.0508,0.0300,0.0087,2025-06-09T13:37:20.849711
6473,-0.1962,0.4704,0.8584,-14.840,-29.960,-11.655,0.00,0.0184,0.1018,0.0000,0.0087,2025-06-09T13:37:20.849711
6474,-0.1718,0.4856,0.8452,-11.970,-25.725,-8.540,0.00,0.0184,0.0254,0.0200,0.0087,2025-06-09T13:37:20.849711
6475,-0.1479,0.5051,0.8306,-8.295,-17.990,-4.130,0.01,0.0368,0.0254,0.0100,0.0174,2025-06-09T13:37:20.849711
6476,-0.1347,0.5202,0.8267,-2.275,-6.755,-0.945,0.01,0.0368,0.0508,0.0000,0.0087,2025-06-09T13:37:20.849711
6477,-0.1308,0.5241,0.8477,3.080,0.245,2.310,0.00,0.0184,0.0254,0.0200,0.0087,2025-06-09T13:37:20.849711
6478,-0.1352,0.5183,0.8701,4.970,5.320,4.235,0.00,0.0184,0.0000,0.0300,0.0087,2025-06-09T13:37:20.849711
6479,-0.1562,0.4939,0.8867,2.555,5.810,5.530,0.01,0.0368,0.0508,0.0100,0.0087,2025-06-09T13:37:20.901595
6480,-0.1703,0.4714,0.8974,2.380,4.445,6.300,0.00,0.0368,0.0508,0.0200,0.0000,2025-06-09T13:37:20.901595
6481,-0.1908,0.4592,0.8974,1.890,1.330,4.900,0.01,0.0184,0.0508,0.0100,0.0087,2025-06-09T13:37:20.901595
6482,-0.2045,0.4377,0.9057,-1.960,-1.435,2.275,0.00,0.0368,0.0508,0.0200,0.0087,2025-06-09T13:37:20.901595
6483,-0.2001,0.4358,0.9023,-6.230,-4.445,-1.855,0.00,0.0184,0.0000,0.0200,0.0087,2025-06-09T13:37:21.129020
6484,-0.1762,0.4587,0.9077,-6.650,-6.790,-4.620,0.00,0.0368,0.0254,0.0300,0.0087,2025-06-09T13:37:21.129020
6485,-0.1542,0.4943,0.9038,-7.210,-8.365,-5.390,0.00,0.0184,0.0254,0.0100,0.0174,2025-06-09T13:37:21.129020
6486,-0.1542,0.4792,0.8886,-8.995,-10.395,-2.975,0.01,0.0368,0.0508,0.0100,0.0087,2025-06-09T13:37:21.589789
6487,-0.1415,0.4841,0.8740,-5.705,-9.345,-0.630,0.00,0.0184,0.0000,0.0300,0.0087,2025-06-09T13:37:21.768311
6488,-0.1386,0.4904,0.8745,-2.135,-3.290,0.350,0.00,0.0184,0.0508,0.0000,0.0174,2025-06-09T13:37:21.768311
6489,-0.1396,0.4943,0.8706,1.365,0.420,1.505,0.00,0.0184,0.0254,0.0300,0.0087,2025-06-09T13:37:21.768311
6490,-0.1615,0.4865,0.8599,-0.630,2.170,3.255,0.00,0.0184,0.0762,0.0100,0.0087,2025-06-09T13:37:21.768311
6491,-0.1659,0.4641,0.8847,0.420,4.585,4.795,0.00,0.0184,0.0254,0.0100,0.0087,2025-06-09T13:37:21.768311
6492,-0.1703,0.4626,0.9033,5.670,6.020,4.620,0.00,0.0184,0.0254,0.0200,0.0087,2025-06-09T13:37:21.768311
6493,-0.1669,0.4685,0.9013,4.375,4.060,2.345,0.00,0.0368,0.0254,0.0200,0.0087,2025-06-09T13:37:21.768311
6494,-0.1737,0.4719,0.8911,-4.760,-0.805,0.525,0.01,0.0000,0.0254,0.0100,0.0087,2025-06-09T13:37:21.768311
6495,-0.1874,0.4421,0.8926,-8.925,-3.745,0.735,0.01,0.0184,0.0508,0.0200,0.0087,2025-06-09T13:37:21.768311
6496,-0.1879,0.4329,0.9004,-2.835,-1.715,0.980,0.00,0.0184,0.0508,0.0300,0.0087,2025-06-09T13:37:21.768311
6497,-0.1708,0.4543,0.9043,3.640,0.455,-0.210,0.00,0.0184,0.0508,0.0300,0.0174,2025-06-09T13:37:21.768311
6498,-0.1581,0.4797,0.8984,0.700,-1.435,-0.665,0.01,0.0368,0.0254,0.0100,0.0087,2025-06-09T13:37:21.768311
6499,-0.1586,0.4812,0.9028,-4.900,-4.515,0.455,0.01,0.0368,0.0508,0.0200,0.0174,2025-06-09T13:37:21.768311
6500,-0.1654,0.4680,0.8960,-0.770,-4.445,2.415,0.00,0.0184,0.0508,0.0000,0.0087,2025-06-09T13:37:21.768311
6501,-0.1669,0.4651,0.8960,6.405,-1.820,3.115,0.00,0.0184,0.0000,0.0200,0.0087,2025-06-09T13:37:21.768311
6502,-0.1786,0.4738,0.8877,5.110,-1.925,2.695,0.00,0.0368,0.0508,0.0200,0.0087,2025-06-09T13:37:21.768311
6503,-0.1796,0.4753,0.8901,0.315,-3.255,1.540,0.01,0.0368,0.0000,0.0000,0.0174,2025-06-09T13:37:21.768311
6504,-0.1786,0.4738,0.8950,-1.190,-3.570,0.595,0.00,0.0184,0.0254,0.0200,0.0087,2025-06-09T13:37:21.768311
6505,-0.1737,0.4651,0.8935,1.155,-2.625,0.105,0.00,0.0184,0.0254,0.0200,0.0087,2025-06-09T13:37:21.768311
6506,-0.1771,0.4665,0.8833,0.245,-2.660,-1.050,0.00,0.0184,0.0508,0.0100,0.0000,2025-06-09T13:37:21.768311
6507,-0.1737,0.4753,0.8891,-2.380,-3.010,-1.155,0.00,0.0368,0.0254,0.0200,0.0087,2025-06-09T13:37:21.768311
6508,-0.1649,0.4841,0.8916,-1.295,-2.450,-0.280,0.01,0.0184,0.0508,0.0300,0.0087,2025-06-09T13:37:21.768311
6509,-0.1645,0.4841,0.8896,1.435,-1.540,0.735,0.00,0.0184,0.0508,0.0501,0.0087,2025-06-09T13:37:21.768311
6510,-0.1688,0.4709,0.8901,0.770,-2.030,0.805,0.00,0.0552,0.0254,0.0200,0.0087,2025-06-09T13:37:21.769312
6511,-0.1737,0.4651,0.8867,-2.030,-2.030,-0.140,0.00,0.0184,0.0508,0.0200,0.0000,2025-06-09T13:37:21.769312
6512,-0.1771,0.4704,0.8906,-2.310,-1.120,-1.015,0.00,0.0184,0.0254,0.0200,0.0174,2025-06-09T13:37:21.769312
6513,-0.1737,0.4719,0.8940,-0.630,0.245,-0.980,0.00,0.0368,0.0508,0.0200,0.0087,2025-06-09T13:37:21.769312
6514,-0.1679,0.4748,0.8901,1.015,0.140,0.560,0.01,0.0184,0.0254,0.0200,0.0087,2025-06-09T13:37:21.769312
6515,-0.1752,0.4787,0.8955,0.385,-0.455,1.050,0.00,0.0184,0.0508,0.0200,0.0087,2025-06-09T13:37:21.769312
6516,-0.1742,0.4734,0.8955,0.630,-1.085,0.805,0.00,0.0368,0.0508,0.0100,0.0174,2025-06-09T13:37:21.769312
6517,-0.1742,0.4768,0.8969,-0.105,-1.085,-0.245,0.01,0.0184,0.0508,0.0401,0.0174,2025-06-09T13:37:21.769312
6518,-0.1757,0.4729,0.8974,-1.015,-1.540,-0.560,0.00,0.0184,0.0254,0.0300,0.0087,2025-06-09T13:37:21.769312
6519,-0.1732,0.4690,0.8979,0.805,-1.610,0.945,0.00,0.0184,0.0254,0.0200,0.0087,2025-06-09T13:37:21.769312
6520,-0.1757,0.4685,0.8906,1.435,-1.505,1.085,0.00,0.0368,0.0508,0.0100,0.0087,2025-06-09T13:37:21.769312
6521,-0.1781,0.4626,0.8886,2.275,-2.450,1.365,0.01,0.0368,0.0000,0.0300,0.0087,2025-06-09T13:37:21.769312
6522,-0.1810,0.4616,0.8882,-0.875,-2.835,0.210,0.00,0.0000,0.0508,0.0100,0.0087,2025-06-09T13:37:21.769312
6523,-0.1884,0.4597,0.8886,-1.190,-2.380,-0.805,0.00,0.0184,0.0254,0.0200,0.0000,2025-06-09T13:37:21.769312
6524,-0.1708,0.4768,0.9033,1.645,-1.960,-1.225,0.00,0.0184,0.0508,0.0100,0.0174,2025-06-09T13:37:21.769312
6525,-0.1620,0.4909,0.9087,2.450,-2.555,-0.700,0.00,0.0368,0.0254,0.0100,0.0087,2025-06-09T13:37:21.769312
6526,-0.1640,0.4929,0.8989,1.365,-4.585,1.435,0.00,0.0184,0.0254,0.0200,0.0087,2025-06-09T13:37:21.769312
6527,-0.1718,0.4802,0.8877,-0.315,-5.075,1.995,0.01,0.0184,0.0508,0.0100,0.0174,2025-06-09T13:37:21.769312
6528,-0.1815,0.4656,0.8716,0.980,-3.745,1.960,0.00,0.0184,0.0254,0.0100,0.0087,2025-06-09T13:37:21.769312
6529,-0.1810,0.4641,0.8706,2.450,-1.855,0.420,0.00,0.0368,0.0254,0.0100,0.0087,2025-06-09T13:37:21.769312
6530,-0.1801,0.4670,0.8725,-0.525,0.595,-1.015,0.00,0.0184,0.0254,0.0300,0.0174,2025-06-09T13:37:21.769312
6531,-0.1737,0.4738,0.8745,-2.450,1.470,-0.770,0.00,0.0184,0.0254,0.0100,0.0087,2025-06-09T13:37:21.769312
6532,-0.1718,0.4748,0.8789,-1.680,2.275,0.595,0.01,0.0184,0.0508,0.0200,0.0087,2025-06-09T13:37:21.769312
6533,-0.1747,0.4758,0.8808,0.175,3.290,1.470,0.01,0.0368,0.0254,0.0100,0.0087,2025-06-09T13:37:21.769312
6534,-0.1737,0.4743,0.8872,-0.420,3.535,1.015,0.00,0.0184,0.0508,0.0200,0.0174,2025-06-09T13:37:21.769312
6535,-0.1752,0.4812,0.9008,-0.455,4.340,0.490,0.00,0.0368,0.1018,0.0300,0.0087,2025-06-09T13:37:21.769312
6536,-0.1801,0.4831,0.9067,0.770,4.165,1.365,0.00,0.0184,0.0508,0.0200,0.0087,2025-06-09T13:37:21.769312
6537,-0.1835,0.4797,0.9160,3.640,2.730,2.030,0.00,0.0184,0.0254,0.0200,0.0174,2025-06-09T13:37:21.769312
6538,-0.1845,0.4807,0.9121,2.765,0.875,0.840,0.01,0.0368,0.0254,0.0100,0.0174,2025-06-09T13:37:21.769312
6539,-0.1884,0.4763,0.9038,-0.595,-1.855,-1.015,0.01,0.0368,0.0508,0.0401,0.0000,2025-06-09T13:37:21.769312
6540,-0.1874,0.4709,0.8984,-1.085,-3.675,-1.820,0.01,0.0368,0.0508,0.0100,0.0087,2025-06-09T13:37:21.769312
6541,-0.1757,0.4773,0.8935,-0.560,-3.500,-2.520,0.01,0.0184,0.0508,0.0000,0.0087,2025-06-09T13:37:21.769312
6542,-0.1728,0.4743,0.8784,-0.595,-3.115,-1.995,0.00,0.0368,0.0508,0.0200,0.0087,2025-06-09T13:37:21.769312
6543,-0.1747,0.4670,0.8628,-0.700,-2.450,-0.945,0.01,0.0184,0.0254,0.0100,0.0087,2025-06-09T13:37:21.769312
6544,-0.1728,0.4597,0.8613,-0.700,1.505,-1.050,0.01,0.0368,0.0508,0.0300,0.0087,2025-06-09T13:37:21.769312
6545,-0.1723,0.4602,0.8603,1.260,5.635,-0.875,0.01,0.0368,0.0508,0.0100,0.0087,2025-06-09T13:37:21.769312
6546,-0.1801,0.4621,0.8701,4.830,8.260,2.135,0.00,0.0184,0.0508,0.0000,0.0087,2025-06-09T13:37:21.769312
6547,-0.1893,0.4670,0.8906,8.190,8.680,4.515,0.00,0.0368,0.0508,0.0100,0.0174,2025-06-09T13:37:21.877043
6548,-0.2040,0.4621,0.8921,8.750,6.720,5.425,0.01,0.0184,0.0254,0.0100,0.0174,2025-06-09T13:37:21.877043
6549,-0.2079,0.4675,0.9023,5.600,2.485,3.290,0.01,0.0184,0.0000,0.0100,0.0174,2025-06-09T13:37:21.877043
6550,-0.2094,0.4826,0.9043,2.065,-1.505,0.350,0.00,0.0368,0.0508,0.0200,0.0174,2025-06-09T13:37:21.877043
6551,-0.1986,0.4934,0.8969,-2.380,-5.845,-2.345,0.01,0.0000,0.0762,0.0300,0.0087,2025-06-09T13:37:21.877043
6552,-0.1869,0.4939,0.8760,-6.300,-7.770,-2.660,0.00,0.0184,0.0254,0.0000,0.0087,2025-06-09T13:37:21.877043
6553,-0.1752,0.4978,0.8647,-5.180,-7.105,-0.910,0.00,0.0184,0.0508,0.0300,0.0087,2025-06-09T13:37:21.877043
6554,-0.1723,0.4846,0.8564,-1.505,-3.255,1.750,0.01,0.0184,0.0254,0.0200,0.0087,2025-06-09T13:37:21.877043
6555,-0.1767,0.4763,0.8477,1.050,0.455,4.165,0.01,0.0368,0.0508,0.0401,0.0174,2025-06-09T13:37:21.877043
6556,-0.1835,0.4763,0.8486,2.170,3.500,5.600,0.00,0.0184,0.0508,0.0300,0.0087,2025-06-09T13:37:21.930908
6557,-0.1874,0.4743,0.8682,1.260,5.670,5.285,0.01,0.0368,0.1018,0.0401,0.0087,2025-06-09T13:37:21.930908
6558,-0.1957,0.4724,0.8750,0.175,6.090,4.865,0.01,0.0368,0.0762,0.0200,0.0087,2025-06-09T13:37:21.930908
6559,-0.2015,0.4651,0.8872,0.770,4.165,5.530,0.01,0.0184,0.0508,0.0300,0.0087,2025-06-09T13:37:21.930908
6560,-0.2015,0.4714,0.9038,0.910,3.080,4.655,0.00,0.0368,0.0762,0.0100,0.0087,2025-06-09T13:37:22.079477
6561,-0.2113,0.4792,0.8974,-0.735,1.225,2.310,0.01,0.0184,0.0508,0.0200,0.0174,2025-06-09T13:37:22.079477
6562,-0.2045,0.4836,0.8965,-3.850,-1.365,0.805,0.01,0.0368,0.0254,0.0200,0.0087,2025-06-09T13:37:22.079477
6563,-0.1893,0.4924,0.8926,-5.845,-3.045,-0.665,0.01,0.0184,0.0254,0.0200,0.0087,2025-06-09T13:37:22.079477
6564,-0.1767,0.4939,0.8886,-4.865,-3.675,-1.365,0.00,0.0184,0.0508,0.0100,0.0087,2025-06-09T13:37:22.079477
6565,-0.1649,0.4870,0.8760,-4.585,-2.730,-0.980,0.01,0.0184,0.0254,0.0100,0.0174,2025-06-09T13:37:22.079477
6566,-0.1601,0.4787,0.8662,-2.695,-0.735,1.225,0.00,0.0184,0.0508,0.0200,0.0087,2025-06-09T13:37:22.079477
6567,-0.1659,0.4714,0.8603,-0.455,2.800,3.570,0.00,0.0184,0.0254,0.0100,0.0087,2025-06-09T13:37:22.079477
6568,-0.1693,0.4695,0.8486,2.905,8.190,5.320,0.01,0.0184,0.0254,0.0300,0.0087,2025-06-09T13:37:22.079477
6569,-0.1630,0.4763,0.8462,4.515,13.160,4.865,0.00,0.0184,0.0508,0.0200,0.0087,2025-06-09T13:37:22.079477
6570,-0.1566,0.4821,0.8545,5.215,15.750,5.915,0.00,0.0184,0.0254,0.0300,0.0087,2025-06-09T13:37:22.079477
6571,-0.1557,0.4870,0.8545,10.080,18.060,7.035,0.00,0.0184,0.0254,0.0300,0.0174,2025-06-09T13:37:22.181212
6572,-0.1166,0.5319,0.8442,15.190,16.450,5.005,0.00,0.0184,0.0000,0.0300,0.0087,2025-06-09T13:37:22.181212
6573,-0.1532,0.5388,0.8950,15.960,12.635,22.225,0.00,0.0368,0.0508,0.0200,0.0174,2025-06-09T13:37:22.181212
6574,-0.1762,0.4973,0.8833,20.965,8.715,26.530,0.01,0.0368,0.0508,0.0200,0.0087,2025-06-09T13:37:22.182203
6575,-0.1064,0.3860,0.8706,18.305,6.965,-34.965,0.01,0.0368,0.0254,0.0200,0.0087,2025-06-09T13:37:22.182203
6576,-0.1303,0.5583,0.8784,23.800,2.660,6.160,0.00,0.0368,0.0508,0.0300,0.0087,2025-06-09T13:37:22.182203
6577,-0.2167,0.6417,0.8682,28.875,8.820,16.310,0.00,0.0184,0.0254,0.0200,0.0174,2025-06-09T13:37:22.182203
6578,-0.1469,0.3875,0.7725,20.930,5.005,-7.595,0.01,0.0368,0.0254,0.0501,0.0174,2025-06-09T13:37:22.283955
6579,-0.1547,0.4982,0.7686,27.930,4.795,-3.885,0.01,0.0184,0.0254,0.0000,0.0087,2025-06-09T13:37:22.283955
6580,-0.1820,0.5207,0.7178,21.000,-0.630,-1.260,0.01,0.0184,0.0762,0.0100,0.0087,2025-06-09T13:37:22.283955
6581,-0.1859,0.5592,0.7164,23.450,10.430,-9.835,0.01,0.0184,0.0508,0.0300,0.0087,2025-06-09T13:37:22.283955
6582,-0.2108,0.5597,0.6998,4.585,-1.470,-15.330,0.00,0.0184,0.0254,0.0100,0.0174,2025-06-09T13:37:22.283955
6583,-0.1903,0.5578,0.7457,-4.375,4.690,-20.965,0.00,0.0368,0.0254,0.0200,0.0087,2025-06-09T13:37:22.283955
6584,0.1454,0.2952,0.7144,-22.365,-19.600,-47.005,0.00,0.0184,0.0508,0.0000,0.0087,2025-06-09T13:37:22.283955
6585,-1.3766,0.1932,1.5992,-40.425,9.240,-86.485,0.01,0.0368,0.0508,0.0100,0.0087,2025-06-09T13:37:22.283955
6586,-0.4573,0.5636,1.2507,75.250,5.810,-35.140,0.01,0.0184,0.0000,0.0200,0.0087,2025-06-09T13:37:22.389647
6587,-0.2899,0.5412,0.9711,-39.095,-34.230,-5.075,0.01,0.0368,0.0254,0.0100,0.0174,2025-06-09T13:37:22.389647
6588,-0.3221,0.4524,0.8960,-30.975,-69.650,14.875,0.00,0.0184,0.0254,0.0200,0.0087,2025-06-09T13:37:22.389647
6589,-0.2938,0.4875,0.8403,18.585,-24.780,32.760,0.01,0.0368,0.0000,0.0000,0.0262,2025-06-09T13:37:22.389647
6590,-0.2650,0.4602,0.7867,38.675,-7.140,34.265,0.00,0.0184,0.0508,0.0100,0.0087,2025-06-09T13:37:22.389647
6591,-0.2059,0.4787,0.8120,35.560,4.655,14.105,0.00,0.0368,0.0508,0.0200,0.0087,2025-06-09T13:37:22.389647
6592,-0.2381,0.5807,0.7832,7.735,5.005,2.555,0.00,0.0368,0.0000,0.0000,0.0087,2025-06-09T13:37:22.389647
6593,-0.2601,0.6305,0.8301,-6.790,6.195,0.630,0.00,0.0184,0.0254,0.0100,0.0087,2025-06-09T13:37:22.389647
6594,-0.2025,0.6120,0.8662,-3.220,4.585,-2.660,0.00,0.0368,0.0508,0.0100,0.0087,2025-06-09T13:37:22.488384
6595,-0.1610,0.5744,0.8906,-2.555,-2.170,-5.425,0.00,0.0368,0.0508,0.0100,0.0174,2025-06-09T13:37:22.488384
6596,-0.2040,0.5441,0.8589,-5.775,-11.235,-4.060,0.00,0.0368,0.0508,0.0000,0.0174,2025-06-09T13:37:22.488384
6597,-0.2230,0.5100,0.8384,-9.660,-13.125,-3.010,0.00,0.0184,0.0254,0.0100,0.0087,2025-06-09T13:37:22.488384
6598,-0.2377,0.4773,0.8433,-5.670,-7.560,-2.310,0.01,0.0368,0.0254,0.0000,0.0087,2025-06-09T13:37:22.488384
6599,-0.2279,0.4656,0.8335,1.155,-0.350,-1.505,0.00,0.0184,0.0508,0.0200,0.0000,2025-06-09T13:37:22.488384
6600,-0.2225,0.4807,0.8428,2.205,2.730,0.210,0.00,0.0184,0.0254,0.0100,0.0087,2025-06-09T13:37:22.488384
6601,-0.2128,0.5070,0.8667,3.430,0.805,3.780,0.01,0.0368,0.1018,0.0000,0.0000,2025-06-09T13:37:22.591121
6602,-0.1967,0.5285,0.8652,5.495,-1.575,5.565,0.00,0.0184,0.0762,0.0200,0.0087,2025-06-09T13:37:22.591121
6603,-0.2020,0.5446,0.8516,7.000,-3.360,4.690,0.01,0.0368,0.0254,0.0200,0.0087,2025-06-09T13:37:22.591121
6604,-0.2211,0.5510,0.8398,5.250,-4.375,3.010,0.00,0.0184,0.0508,0.0300,0.0087,2025-06-09T13:37:22.591121
6605,-0.2230,0.5446,0.8301,-0.560,-3.850,0.315,0.00,0.0368,0.0508,0.0100,0.0174,2025-06-09T13:37:22.591121
6606,-0.2225,0.5314,0.8350,-4.550,-2.835,-2.695,0.00,0.0184,0.0254,0.0200,0.0087,2025-06-09T13:37:22.591121
6607,-0.2172,0.5231,0.8472,-4.305,-1.785,-3.045,0.00,0.0184,0.0254,0.0100,0.0087,2025-06-09T13:37:22.591121
6608,-0.2059,0.5119,0.8579,-1.890,-1.960,-1.225,0.00,0.0368,0.0762,0.0200,0.0087,2025-06-09T13:37:22.591121
6609,-0.2094,0.5095,0.8613,0.420,-3.220,0.455,0.00,0.0368,0.1018,0.0200,0.0087,2025-06-09T13:37:22.693833
6610,-0.2162,0.5114,0.8550,1.890,-3.605,1.750,0.00,0.0368,0.0508,0.0000,0.0174,2025-06-09T13:37:22.693833
6611,-0.2201,0.5153,0.8423,2.765,-2.695,2.380,0.00,0.0368,0.0508,0.0200,0.0087,2025-06-09T13:37:22.693833
6612,-0.2157,0.5246,0.8389,2.450,-1.435,1.890,0.00,0.0368,0.0254,0.0200,0.0174,2025-06-09T13:37:22.693833
6613,-0.2172,0.5334,0.8457,1.750,-1.155,0.945,0.00,0.0184,0.0508,0.0000,0.0087,2025-06-09T13:37:22.693833
6614,-0.2118,0.5344,0.8506,0.455,-2.100,0.245,0.00,0.0184,0.0254,0.0100,0.0087,2025-06-09T13:37:22.693833
6615,-0.2074,0.5319,0.8457,-0.980,-2.905,-0.245,0.00,0.0368,0.0508,0.0000,0.0087,2025-06-09T13:37:22.693833
6616,-0.2137,0.5266,0.8496,-0.805,-3.150,-0.420,0.00,0.0368,0.0254,0.0200,0.0262,2025-06-09T13:37:22.744698
6617,-0.2157,0.5183,0.8477,-0.140,-3.080,-0.315,0.00,0.0184,0.0254,0.0200,0.0262,2025-06-09T13:37:22.745696
6618,-0.2142,0.5119,0.8428,-0.245,-2.555,0.140,0.01,0.0368,0.0508,0.0300,0.0174,2025-06-09T13:37:22.745696
6619,-0.2142,0.5173,0.8491,0.420,-2.135,0.595,0.01,0.0184,0.0508,0.0100,0.0087,2025-06-09T13:37:22.745696
6620,-0.2142,0.5187,0.8535,1.470,-1.610,1.120,0.00,0.0184,0.0762,0.0000,0.0174,2025-06-09T13:37:22.898312
6621,-0.2137,0.5226,0.8467,1.890,-1.610,1.435,0.00,0.0184,0.0508,0.0200,0.0174,2025-06-09T13:37:22.898312
6622,-0.2118,0.5231,0.8423,1.575,-2.065,1.365,0.00,0.0184,0.0762,0.0200,0.0087,2025-06-09T13:37:22.898312
6623,-0.2147,0.5266,0.8457,1.785,-2.170,1.225,0.00,0.0368,0.0254,0.0100,0.0087,2025-06-09T13:37:22.898312
6624,-0.2162,0.5285,0.8457,0.910,-2.065,0.945,0.00,0.0368,0.0508,0.0100,0.0087,2025-06-09T13:37:22.898312
6625,-0.2137,0.5280,0.8438,1.085,-2.380,0.910,0.00,0.0184,0.0508,0.0000,0.0087,2025-06-09T13:37:22.898312
6626,-0.2137,0.5270,0.8486,0.735,-2.520,0.805,0.01,0.0184,0.0254,0.0200,0.0087,2025-06-09T13:37:22.898312
6627,-0.2152,0.5280,0.8467,0.980,-2.275,0.945,0.01,0.0184,0.0508,0.0100,0.0087,2025-06-09T13:37:22.898312
6628,-0.2176,0.5285,0.8511,1.155,-2.415,0.910,0.00,0.0368,0.0254,0.0200,0.0087,2025-06-09T13:37:22.898312
6629,-0.2157,0.5266,0.8462,1.190,-2.835,0.945,0.00,0.0000,0.0254,0.0300,0.0087,2025-06-09T13:37:22.898312
6630,-0.2162,0.5285,0.8428,0.945,-2.835,1.120,0.01,0.0368,0.0508,0.0200,0.0087,2025-06-09T13:37:22.898312
6631,-0.2113,0.5280,0.8462,0.595,-2.450,0.665,0.00,0.0184,0.0254,0.0000,0.0087,2025-06-09T13:37:22.898312
6632,-0.2152,0.5280,0.8481,0.805,-2.310,0.490,0.00,0.0184,0.0254,0.0602,0.0087,2025-06-09T13:37:23.029961
6633,-0.2137,0.5300,0.8452,0.770,-1.960,0.490,0.01,0.0368,0.0254,0.0300,0.0087,2025-06-09T13:37:23.029961
6634,-0.2118,0.5290,0.8467,0.210,-2.100,0.455,0.01,0.0368,0.0254,0.0501,0.0174,2025-06-09T13:37:23.029961
6635,-0.2152,0.5290,0.8472,0.560,-2.170,0.385,0.00,0.0368,0.0508,0.0300,0.0262,2025-06-09T13:37:23.029961
6636,-0.2142,0.5295,0.8472,0.700,-2.100,0.420,0.01,0.0184,0.0000,0.0300,0.0087,2025-06-09T13:37:23.029961
6637,-0.2152,0.5295,0.8447,0.595,-2.485,0.455,0.00,0.0184,0.0254,0.0300,0.0087,2025-06-09T13:37:23.224414
6638,-0.2172,0.5270,0.8408,0.105,-2.940,0.420,0.00,0.0368,0.0254,0.0100,0.0087,2025-06-09T13:37:23.224414
6639,-0.2147,0.5270,0.8433,0.070,-2.590,0.350,0.00,0.0368,0.0508,0.0100,0.0087,2025-06-09T13:37:23.224414
6640,-0.2142,0.5270,0.8438,0.280,-2.240,0.140,0.00,0.0368,0.0254,0.0401,0.0174,2025-06-09T13:37:23.224414
6641,-0.2118,0.5251,0.8428,0.070,-2.205,0.140,0.01,0.0184,0.0254,0.0300,0.0087,2025-06-09T13:37:23.224414
6642,-0.2123,0.5207,0.8408,0.105,-2.170,0.280,0.00,0.0368,0.0508,0.0300,0.0087,2025-06-09T13:37:23.224414
6643,-0.2128,0.5202,0.8418,0.910,-1.855,0.735,0.00,0.0184,0.0508,0.0000,0.0174,2025-06-09T13:37:23.224414
6644,-0.2123,0.5222,0.8452,1.855,-1.575,1.050,0.01,0.0368,0.0508,0.0300,0.0087,2025-06-09T13:37:23.224414
6645,-0.2137,0.5246,0.8442,1.610,-1.330,1.470,0.00,0.0000,0.0254,0.0200,0.0087,2025-06-09T13:37:23.224414
6646,-0.2172,0.5251,0.8428,1.890,-1.785,1.785,0.01,0.0184,0.0508,0.0000,0.0087,2025-06-09T13:37:23.224414
6647,-0.2152,0.5251,0.8403,2.205,-2.030,1.890,0.01,0.0368,0.0254,0.0200,0.0087,2025-06-09T13:37:23.247357
6648,-0.2128,0.5202,0.8345,2.135,-1.855,1.890,0.00,0.0368,0.0508,0.0100,0.0087,2025-06-09T13:37:23.247357
6649,-0.2098,0.5183,0.8296,2.695,-1.995,1.995,0.00,0.0368,0.0508,0.0300,0.0087,2025-06-09T13:37:23.247357
6650,-0.2118,0.5173,0.8355,3.745,-1.435,2.345,0.00,0.0368,0.0254,0.0000,0.0087,2025-06-09T13:37:23.247357
6651,-0.2162,0.5256,0.8472,4.340,-0.770,2.765,0.01,0.0000,0.0254,0.0100,0.0174,2025-06-09T13:37:23.247357
6652,-0.2172,0.5388,0.8530,4.305,-0.175,3.220,0.00,0.0184,0.0508,0.0300,0.0087,2025-06-09T13:37:23.247357
6653,-0.2196,0.5485,0.8560,4.130,-0.665,3.325,0.00,0.0184,0.0508,0.0000,0.0087,2025-06-09T13:37:23.247357
6654,-0.2191,0.5568,0.8520,3.675,-1.085,2.975,0.00,0.0184,0.0254,0.0100,0.0174,2025-06-09T13:37:23.247357
6655,-0.2128,0.5573,0.8403,2.345,-2.065,1.995,0.00,0.0184,0.0254,0.0602,0.0174,2025-06-09T13:37:23.247357
6656,-0.2157,0.5568,0.8359,0.455,-2.730,0.455,0.00,0.0184,0.0508,0.0300,0.0087,2025-06-09T13:37:23.247357
6657,-0.2162,0.5524,0.8379,0.245,-2.730,-0.490,0.01,0.0368,0.0254,0.0000,0.0000,2025-06-09T13:37:23.247357
6658,-0.2172,0.5441,0.8413,-1.610,-2.415,-1.190,0.00,0.0368,0.0762,0.0100,0.0262,2025-06-09T13:37:23.410916
6659,-0.2167,0.5309,0.8384,-1.715,-2.625,-1.225,0.00,0.0184,0.0254,0.0501,0.0087,2025-06-09T13:37:23.410916
6660,-0.2142,0.5246,0.8394,-0.525,-2.450,-0.630,0.01,0.0368,0.1018,0.0300,0.0000,2025-06-09T13:37:23.410916
6661,-0.2157,0.5246,0.8384,0.315,-2.030,0.210,0.00,0.0184,0.0254,0.0000,0.0087,2025-06-09T13:37:23.410916
6662,-0.2172,0.5261,0.8418,1.365,-2.240,1.050,0.00,0.0184,0.0254,0.0200,0.0000,2025-06-09T13:37:23.410916
6663,-0.2167,0.5285,0.8394,1.680,-2.100,1.400,0.01,0.0184,0.0508,0.0100,0.0087,2025-06-09T13:37:23.410916
6664,-0.2191,0.5353,0.8389,1.820,-2.065,1.505,0.00,0.0368,0.0000,0.0401,0.0087,2025-06-09T13:37:23.410916
6665,-0.2196,0.5407,0.8403,1.610,-2.170,1.190,0.00,0.0184,0.0508,0.0401,0.0087,2025-06-09T13:37:23.410916
6666,-0.2162,0.5446,0.8413,0.665,-2.345,0.770,0.00,0.0184,0.0508,0.0000,0.0087,2025-06-09T13:37:23.410916
6667,-0.2152,0.5422,0.8384,0.105,-2.730,0.245,0.00,0.0000,0.0254,0.0501,0.0174,2025-06-09T13:37:23.410916
6668,-0.2142,0.5417,0.8394,-0.595,-2.835,-0.035,0.00,0.0368,0.0508,0.0501,0.0087,2025-06-09T13:37:23.410916
6669,-0.2152,0.5378,0.8403,-0.385,-2.870,-0.175,0.00,0.0368,0.0254,0.0100,0.0262,2025-06-09T13:37:23.410916
6670,-0.2142,0.5368,0.8413,-0.315,-2.660,-0.105,0.00,0.0368,0.0508,0.0100,0.0087,2025-06-09T13:37:23.461806
6671,-0.2167,0.5334,0.8369,-0.140,-2.660,-0.070,0.00,0.0184,0.0508,0.0000,0.0087,2025-06-09T13:37:23.461806
6672,-0.2172,0.5339,0.8398,0.105,-2.730,0.280,0.00,0.0184,0.0508,0.0300,0.0174,2025-06-09T13:37:23.461806
6673,-0.2147,0.5348,0.8374,0.525,-2.520,0.420,0.00,0.0368,0.0254,0.0804,0.0000,2025-06-09T13:37:23.461806
6674,-0.2152,0.5378,0.8389,0.595,-2.520,0.385,0.01,0.0368,0.0254,0.0100,0.0174,2025-06-09T13:37:23.617387
6675,-0.2172,0.5388,0.8418,0.385,-2.590,0.385,0.00,0.0184,0.0762,0.0401,0.0087,2025-06-09T13:37:23.617387
6676,-0.2157,0.5397,0.8389,0.035,-2.730,0.210,0.01,0.0184,0.0254,0.0501,0.0000,2025-06-09T13:37:23.617387
6677,-0.2152,0.5397,0.8384,-0.210,-2.800,0.035,0.00,0.0184,0.0254,0.0000,0.0087,2025-06-09T13:37:23.617387
6678,-0.2162,0.5388,0.8389,-0.175,-2.905,-0.070,0.00,0.0184,0.0000,0.0300,0.0087,2025-06-09T13:37:23.617387
6679,-0.2162,0.5358,0.8369,-0.280,-3.185,-0.070,0.00,0.0184,0.1018,0.0200,0.0087,2025-06-09T13:37:23.617387
6680,-0.2147,0.5334,0.8389,-0.385,-3.080,0.070,0.00,0.0184,0.0254,0.0000,0.0087,2025-06-09T13:37:23.617387
6681,-0.2157,0.5339,0.8394,-0.105,-3.010,0.175,0.00,0.0184,0.0508,0.0401,0.0174,2025-06-09T13:37:23.617387
6682,-0.2152,0.5373,0.8379,0.350,-2.870,0.350,0.00,0.0184,0.0254,0.0100,0.0174,2025-06-09T13:37:23.617387
6683,-0.2172,0.5373,0.8389,0.315,-3.010,0.560,0.00,0.0184,0.0508,0.0300,0.0174,2025-06-09T13:37:23.617387
6684,-0.2147,0.5383,0.8384,0.140,-3.220,0.350,0.00,0.0368,0.0254,0.0703,0.0087,2025-06-09T13:37:23.617387
6685,-0.2147,0.5388,0.8408,0.105,-3.185,0.245,0.00,0.0368,0.0254,0.0300,0.0087,2025-06-09T13:37:23.732082
6686,-0.2147,0.5392,0.8364,-0.105,-3.010,0.175,0.00,0.0368,0.0254,0.0200,0.0174,2025-06-09T13:37:23.732082
6687,-0.2152,0.5358,0.8379,-0.210,-3.185,0.105,0.00,0.0368,0.0254,0.0501,0.0087,2025-06-09T13:37:23.732082
6688,-0.2167,0.5358,0.8379,-0.175,-2.870,0.105,0.00,0.0184,0.0762,0.0300,0.0174,2025-06-09T13:37:23.732082
6689,-0.2137,0.5353,0.8408,-0.035,-2.870,0.070,0.00,0.0184,0.0254,0.0000,0.0087,2025-06-09T13:37:23.732082
6690,-0.2142,0.5353,0.8394,0.035,-3.010,0.140,0.00,0.0184,0.0254,0.0300,0.0087,2025-06-09T13:37:23.732082
6691,-0.2128,0.5363,0.8389,0.000,-3.010,0.420,0.00,0.0184,0.0508,0.0200,0.0087,2025-06-09T13:37:23.732082
6692,-0.2137,0.5378,0.8384,0.000,-2.975,0.280,0.01,0.0184,0.0508,0.0100,0.0087,2025-06-09T13:37:23.732082
6693,-0.2147,0.5373,0.8398,0.140,-2.940,0.070,0.01,0.0368,0.0508,0.0300,0.0087,2025-06-09T13:37:23.819847
6694,-0.2133,0.5363,0.8389,-0.140,-2.765,0.035,0.00,0.0368,0.0508,0.0100,0.0087,2025-06-09T13:37:23.819847
6695,-0.2142,0.5383,0.8403,-0.420,-2.765,0.035,0.01,0.0368,0.0254,0.0200,0.0174,2025-06-09T13:37:23.819847
6696,-0.2152,0.5368,0.8403,-0.280,-2.905,-0.070,0.01,0.0368,0.0254,0.0100,0.0174,2025-06-09T13:37:23.819847
6697,-0.2147,0.5373,0.8394,-0.175,-2.870,0.000,0.01,0.0368,0.0254,0.0200,0.0174,2025-06-09T13:37:23.819847
6698,-0.2142,0.5383,0.8379,-0.315,-2.975,0.070,0.00,0.0184,0.0254,0.0200,0.0087,2025-06-09T13:37:23.819847
6699,-0.2142,0.5358,0.8394,-0.280,-2.870,-0.035,0.00,0.0184,0.0254,0.0200,0.0087,2025-06-09T13:37:23.819847
6700,-0.2147,0.5353,0.8379,-0.280,-2.730,-0.140,0.01,0.0368,0.0254,0.0200,0.0000,2025-06-09T13:37:23.868692
6701,-0.2137,0.5344,0.8364,-0.245,-2.765,-0.035,0.01,0.0368,0.0254,0.0300,0.0087,2025-06-09T13:37:23.868692
6702,-0.2133,0.5344,0.8384,-0.175,-2.800,0.035,0.01,0.0368,0.0254,0.0200,0.0174,2025-06-09T13:37:23.868692
6703,-0.2142,0.5348,0.8403,0.070,-2.695,0.105,0.00,0.0368,0.0508,0.0401,0.0087,2025-06-09T13:37:23.868692
6704,-0.2162,0.5348,0.8394,0.175,-2.555,0.105,0.01,0.0368,0.0508,0.0300,0.0087,2025-06-09T13:37:24.024733
6705,-0.2152,0.5358,0.8384,-0.105,-2.730,0.175,0.01,0.0184,0.0254,0.0100,0.0174,2025-06-09T13:37:24.024733
6706,-0.2142,0.5358,0.8394,-0.035,-2.765,0.175,0.00,0.0368,0.0508,0.0200,0.0174,2025-06-09T13:37:24.024733
6707,-0.2137,0.5358,0.8379,0.140,-2.625,0.105,0.01,0.0368,0.0508,0.0300,0.0087,2025-06-09T13:37:24.024733
6708,-0.2123,0.5344,0.8374,0.105,-2.765,0.035,0.00,0.0368,0.0000,0.0000,0.0087,2025-06-09T13:37:24.024733
6709,-0.2162,0.5353,0.8369,-0.070,-2.590,0.035,0.00,0.0368,0.0508,0.0200,0.0087,2025-06-09T13:37:24.024733
6710,-0.2167,0.5348,0.8379,0.105,-2.625,0.175,0.00,0.0184,0.0508,0.0100,0.0174,2025-06-09T13:37:24.024733
6711,-0.2137,0.5363,0.8398,0.245,-2.450,0.280,0.00,0.0184,0.0254,0.0200,0.0087,2025-06-09T13:37:24.024733
6712,-0.2128,0.5373,0.8389,0.350,-2.485,0.175,0.00,0.0184,0.0508,0.0100,0.0087,2025-06-09T13:37:24.024733
6713,-0.2133,0.5397,0.8418,0.245,-2.450,0.245,0.00,0.0184,0.0508,0.0300,0.0087,2025-06-09T13:37:24.024733
6714,-0.2152,0.5373,0.8394,0.070,-2.590,0.140,0.01,0.0184,0.0508,0.0200,0.0087,2025-06-09T13:37:24.024733
6715,-0.2152,0.5388,0.8398,0.035,-2.415,0.070,0.01,0.0184,0.0508,0.0300,0.0087,2025-06-09T13:37:24.024733
6716,-0.2142,0.5383,0.8389,0.000,-2.450,0.000,0.01,0.0368,0.0508,0.0200,0.0087,2025-06-09T13:37:24.130452
6717,-0.2113,0.5373,0.8379,-0.210,-2.590,-0.070,0.00,0.0368,0.0508,0.0200,0.0087,2025-06-09T13:37:24.130452
6718,-0.2133,0.5353,0.8384,-0.315,-2.520,-0.175,0.01,0.0368,0.0508,0.0300,0.0174,2025-06-09T13:37:24.130452
6719,-0.2167,0.5348,0.8384,-0.070,-2.415,-0.140,0.01,0.0184,0.0762,0.0300,0.0174,2025-06-09T13:37:24.130452
6720,-0.2142,0.5344,0.8364,0.175,-2.485,0.105,0.00,0.0184,0.0254,0.0200,0.0087,2025-06-09T13:37:24.130452
6721,-0.2152,0.5319,0.8384,0.140,-2.450,0.280,0.00,0.0184,0.0508,0.0100,0.0087,2025-06-09T13:37:24.130452
6722,-0.2152,0.5353,0.8394,0.280,-2.380,0.350,0.00,0.0184,0.0254,0.0200,0.0087,2025-06-09T13:37:24.130452
6723,-0.2152,0.5363,0.8374,0.525,-2.415,0.420,0.01,0.0368,0.0762,0.0200,0.0174,2025-06-09T13:37:24.229186
6724,-0.2137,0.5378,0.8389,0.595,-2.590,0.420,0.00,0.0552,0.0000,0.0300,0.0087,2025-06-09T13:37:24.229186
6725,-0.2133,0.5378,0.8384,0.385,-2.450,0.350,0.00,0.0184,0.0508,0.0300,0.0087,2025-06-09T13:37:24.229186
6726,-0.2137,0.5373,0.8398,0.315,-2.485,0.280,0.00,0.0368,0.0508,0.0100,0.0087,2025-06-09T13:37:24.229186
6727,-0.2142,0.5373,0.8384,0.175,-2.520,0.175,0.01,0.0184,0.0254,0.0300,0.0087,2025-06-09T13:37:24.229186
6728,-0.2152,0.5368,0.8364,0.175,-2.485,0.210,0.01,0.0368,0.0254,0.0200,0.0087,2025-06-09T13:37:24.229186
6729,-0.2162,0.5368,0.8403,0.175,-2.555,0.175,0.00,0.0184,0.0254,0.0200,0.0087,2025-06-09T13:37:24.230183
6730,-0.2181,0.5378,0.8418,0.280,-2.520,0.175,0.01,0.0368,0.0254,0.0300,0.0174,2025-06-09T13:37:24.230183
6731,-0.2162,0.5378,0.8389,0.035,-2.415,0.175,0.00,0.0184,0.0508,0.0000,0.0087,2025-06-09T13:37:24.331935
6732,-0.2142,0.5397,0.8389,0.105,-2.660,0.280,0.00,0.0368,0.0508,0.0200,0.0262,2025-06-09T13:37:24.331935
6733,-0.2137,0.5363,0.8364,0.000,-2.940,0.210,0.00,0.0184,0.0508,0.0200,0.0087,2025-06-09T13:37:24.331935
6734,-0.2133,0.5363,0.8340,-0.035,-2.765,0.105,0.00,0.0368,0.0508,0.0200,0.0087,2025-06-09T13:37:24.331935
6735,-0.2167,0.5353,0.8384,0.070,-2.730,0.035,0.01,0.0368,0.0254,0.0100,0.0087,2025-06-09T13:37:24.331935
6736,-0.2172,0.5363,0.8369,0.070,-2.590,0.035,0.01,0.0184,0.0254,0.0200,0.0087,2025-06-09T13:37:24.331935
6737,-0.2162,0.5363,0.8384,0.105,-2.520,0.350,0.00,0.0184,0.0254,0.0000,0.0087,2025-06-09T13:37:24.331935
6738,-0.2147,0.5378,0.8389,0.210,-2.730,0.315,0.00,0.0368,0.0508,0.0300,0.0087,2025-06-09T13:37:24.331935
6739,-0.2142,0.5388,0.8403,0.490,-2.555,0.350,0.01,0.0184,0.0508,0.0000,0.0087,2025-06-09T13:37:24.434660
6740,-0.2152,0.5383,0.8379,0.420,-2.660,0.385,0.00,0.0184,0.0508,0.0200,0.0087,2025-06-09T13:37:24.434660
6741,-0.2142,0.5358,0.8379,0.175,-2.800,0.280,0.01,0.0184,0.0508,0.0300,0.0087,2025-06-09T13:37:24.434660
6742,-0.2172,0.5378,0.8374,0.140,-2.695,0.140,0.01,0.0184,0.0254,0.0200,0.0087,2025-06-09T13:37:24.434660
6743,-0.2176,0.5388,0.8398,0.210,-2.450,0.140,0.00,0.0184,0.0508,0.0200,0.0174,2025-06-09T13:37:24.434660
6744,-0.2137,0.5388,0.8384,0.175,-2.765,0.210,0.00,0.0184,0.0254,0.0200,0.0087,2025-06-09T13:37:24.434660
6745,-0.2142,0.5378,0.8389,-0.070,-2.835,0.175,0.00,0.0184,0.0254,0.0300,0.0087,2025-06-09T13:37:24.434660
6746,-0.2167,0.5378,0.8384,0.070,-2.835,0.210,0.00,0.0368,0.0508,0.0100,0.0174,2025-06-09T13:37:24.539357
6747,-0.2147,0.5353,0.8374,0.245,-2.800,0.175,0.00,0.0184,0.0000,0.0000,0.0087,2025-06-09T13:37:24.539357
6748,-0.2181,0.5353,0.8374,0.070,-2.730,0.175,0.00,0.0184,0.0508,0.0100,0.0087,2025-06-09T13:37:24.539357
6749,-0.2157,0.5353,0.8398,0.035,-2.555,0.245,0.00,0.0184,0.0254,0.0300,0.0174,2025-06-09T13:37:24.539357
6750,-0.2172,0.5383,0.8379,0.350,-2.590,0.350,0.01,0.0184,0.0000,0.0000,0.0174,2025-06-09T13:37:24.539357
6751,-0.2152,0.5402,0.8408,0.490,-2.555,0.385,0.00,0.0184,0.0254,0.0501,0.0087,2025-06-09T13:37:24.539357
6752,-0.2147,0.5431,0.8403,0.280,-2.695,0.350,0.00,0.0184,0.0000,0.0000,0.0087,2025-06-09T13:37:24.539357
6753,-0.2142,0.5397,0.8384,0.035,-3.045,0.210,0.01,0.0000,0.0254,0.0100,0.0087,2025-06-09T13:37:24.539357
6754,-0.2147,0.5363,0.8350,-0.280,-3.045,0.140,0.01,0.0368,0.0508,0.0200,0.0000,2025-06-09T13:37:24.639093
6755,-0.2147,0.5378,0.8369,-0.175,-2.800,0.035,0.00,0.0368,0.0508,0.0300,0.0174,2025-06-09T13:37:24.639093
6756,-0.2162,0.5358,0.8379,0.000,-2.870,-0.070,0.00,0.0184,0.0000,0.0602,0.0174,2025-06-09T13:37:24.639093
6757,-0.2157,0.5334,0.8364,-0.105,-3.045,0.280,0.00,0.0368,0.0254,0.0000,0.0174,2025-06-09T13:37:24.639093
6758,-0.2157,0.5344,0.8359,0.105,-2.695,0.315,0.01,0.0184,0.0254,0.0200,0.0174,2025-06-09T13:37:24.639093
6759,-0.2157,0.5344,0.8413,0.875,-2.800,0.525,0.00,0.0184,0.0000,0.0200,0.0087,2025-06-09T13:37:24.639093
6760,-0.2137,0.5407,0.8398,0.980,-2.520,0.560,0.01,0.0368,0.0000,0.0000,0.0174,2025-06-09T13:37:24.639093
6761,-0.2142,0.5422,0.8389,0.455,-2.695,0.595,0.00,0.0184,0.0508,0.0300,0.0087,2025-06-09T13:37:24.639093
6762,-0.2152,0.5470,0.8442,0.070,-2.940,0.280,0.01,0.0184,0.0508,0.0200,0.0174,2025-06-09T13:37:24.768743
6763,-0.2128,0.5431,0.8384,-0.420,-3.220,0.000,0.01,0.0368,0.0508,0.0100,0.0174,2025-06-09T13:37:24.768743
6764,-0.2137,0.5417,0.8350,-0.700,-3.430,-0.350,0.00,0.0184,0.0508,0.0401,0.0087,2025-06-09T13:37:24.768743
6765,-0.2147,0.5397,0.8359,-1.225,-3.080,-0.735,0.00,0.0184,0.0508,0.0000,0.0087,2025-06-09T13:37:24.768743
6766,-0.2128,0.5334,0.8364,-1.365,-2.485,-0.630,0.00,0.0184,0.1018,0.0000,0.0087,2025-06-09T13:37:24.768743
6767,-0.2133,0.5266,0.8379,-0.560,-2.240,-0.560,0.00,0.0184,0.0000,0.0000,0.0087,2025-06-09T13:37:24.768743
6768,-0.2191,0.5266,0.8350,0.245,-2.415,0.070,0.00,0.0368,0.0508,0.0100,0.0000,2025-06-09T13:37:24.768743
6769,-0.2162,0.5280,0.8340,0.770,-2.765,0.805,0.00,0.0184,0.0508,0.0100,0.0174,2025-06-09T13:37:24.768743
6770,-0.2186,0.5353,0.8398,1.225,-2.415,0.980,0.00,0.0368,0.0508,0.0100,0.0087,2025-06-09T13:37:24.768743
6771,-0.2176,0.5407,0.8403,1.400,-2.275,0.980,0.01,0.0368,0.0254,0.0100,0.0000,2025-06-09T13:37:24.858501
6772,-0.2128,0.5446,0.8369,0.875,-2.555,0.805,0.00,0.0184,0.0254,0.0000,0.0087,2025-06-09T13:37:24.858501
6773,-0.2113,0.5431,0.8379,0.175,-3.115,0.630,0.01,0.0368,0.0762,0.0300,0.0174,2025-06-09T13:37:24.858501
6774,-0.2128,0.5427,0.8384,-0.035,-3.290,0.105,0.00,0.0184,0.0508,0.0300,0.0087,2025-06-09T13:37:24.858501
6775,-0.2167,0.5383,0.8398,-0.315,-3.220,-0.175,0.00,0.0184,0.1529,0.0300,0.0174,2025-06-09T13:37:24.858501
6776,-0.2162,0.5363,0.8364,-0.560,-3.080,-0.315,0.00,0.0368,0.0254,0.0200,0.0087,2025-06-09T13:37:24.858501
6777,-0.2157,0.5348,0.8384,-0.420,-2.975,0.035,0.01,0.0368,0.0000,0.0100,0.0087,2025-06-09T13:37:24.858501
6778,-0.2147,0.5363,0.8418,0.315,-2.625,0.420,0.00,0.0184,0.0254,0.0300,0.0087,2025-06-09T13:37:24.909365
6779,-0.2142,0.5402,0.8423,1.120,-2.625,0.770,0.00,0.0184,0.0254,0.0300,0.0087,2025-06-09T13:37:24.909365
6780,-0.2118,0.5422,0.8384,0.700,-3.150,0.875,0.01,0.0184,0.0254,0.0000,0.0174,2025-06-09T13:37:24.909365
6781,-0.2147,0.5441,0.8384,0.070,-3.255,0.630,0.00,0.0184,0.0508,0.0300,0.0000,2025-06-09T13:37:25.136776
6782,-0.2157,0.5407,0.8359,-0.175,-3.115,0.070,0.01,0.0184,0.0508,0.0401,0.0087,2025-06-09T13:37:25.136776
6783,-0.2142,0.5397,0.8374,-0.700,-2.940,-0.420,0.00,0.0184,0.0254,0.0000,0.0174,2025-06-09T13:37:25.136776
6784,-0.2137,0.5383,0.8364,-1.050,-3.045,-0.560,0.00,0.0368,0.0254,0.0100,0.0174,2025-06-09T13:37:25.136776
6785,-0.2137,0.5353,0.8379,-0.840,-3.115,-0.245,0.00,0.0184,0.0254,0.0300,0.0174,2025-06-09T13:37:25.136776
6786,-0.2118,0.5334,0.8398,-0.210,-3.080,0.105,0.01,0.0368,0.0508,0.0401,0.0087,2025-06-09T13:37:25.136776
6787,-0.2167,0.5329,0.8379,0.455,-3.045,0.560,0.01,0.0184,0.0254,0.0804,0.0174,2025-06-09T13:37:25.274391
6788,-0.2118,0.5378,0.8374,0.560,-2.940,0.700,0.00,0.0184,0.0508,0.0300,0.0087,2025-06-09T13:37:25.274391
6789,-0.2133,0.5383,0.8389,0.490,-2.835,0.665,0.00,0.0368,0.0508,0.0200,0.0087,2025-06-09T13:37:25.274391
6790,-0.2128,0.5397,0.8384,0.350,-2.695,0.560,0.00,0.0184,0.0508,0.0000,0.0087,2025-06-09T13:37:25.274391
6791,-0.2128,0.5397,0.8374,0.210,-2.940,0.350,0.00,0.0184,0.0254,0.0200,0.0087,2025-06-09T13:37:25.274391
6792,-0.2108,0.5402,0.8374,-0.280,-3.115,0.070,0.01,0.0184,0.0254,0.0602,0.0087,2025-06-09T13:37:25.274391
6793,-0.2123,0.5368,0.8350,-0.595,-3.220,-0.175,0.00,0.0368,0.0508,0.0200,0.0174,2025-06-09T13:37:25.274391
6794,-0.2142,0.5363,0.8374,-0.280,-3.115,-0.035,0.00,0.0184,0.0254,0.0300,0.0087,2025-06-09T13:37:25.274391
6795,-0.2142,0.5363,0.8403,-0.070,-2.835,0.105,0.00,0.0368,0.0508,0.0100,0.0174,2025-06-09T13:37:25.274391
6796,-0.2137,0.5368,0.8423,0.420,-2.695,0.385,0.00,0.0368,0.0508,0.0200,0.0174,2025-06-09T13:37:25.274391
6797,-0.2113,0.5373,0.8403,0.560,-2.870,0.630,0.01,0.0184,0.0508,0.0200,0.0087,2025-06-09T13:37:25.274391
6798,-0.2113,0.5388,0.8350,0.385,-2.940,0.735,0.00,0.0368,0.0762,0.0401,0.0174,2025-06-09T13:37:25.274391
6799,-0.2142,0.5397,0.8374,0.420,-2.695,0.420,0.00,0.0184,0.0508,0.0000,0.0087,2025-06-09T13:37:25.274391
6800,-0.2118,0.5397,0.8364,0.525,-2.765,0.175,0.01,0.0184,0.0254,0.0300,0.0087,2025-06-09T13:37:25.274391
6801,-0.2137,0.5383,0.8369,-0.140,-2.695,0.070,0.01,0.0184,0.1018,0.0401,0.0087,2025-06-09T13:37:25.274391
6802,-0.2133,0.5388,0.8394,-0.385,-2.835,0.070,0.01,0.0184,0.0508,0.0000,0.0174,2025-06-09T13:37:25.421995
6803,-0.2113,0.5363,0.8403,0.105,-2.800,0.245,0.00,0.0368,0.0508,0.0300,0.0174,2025-06-09T13:37:25.421995
6804,-0.2098,0.5358,0.8379,0.245,-2.905,0.385,0.00,0.0368,0.0254,0.0100,0.0174,2025-06-09T13:37:25.421995
6805,-0.2108,0.5344,0.8359,0.455,-2.765,0.525,0.01,0.0368,0.0762,0.0200,0.0174,2025-06-09T13:37:25.421995
6806,-0.2137,0.5344,0.8364,0.455,-2.765,0.455,0.00,0.0000,0.0254,0.0200,0.0000,2025-06-09T13:37:25.421995
6807,-0.2113,0.5363,0.8359,0.525,-2.520,0.560,0.00,0.0000,0.0508,0.0501,0.0087,2025-06-09T13:37:25.421995
6808,-0.2118,0.5373,0.8364,0.700,-2.275,0.665,0.00,0.0368,0.0508,0.0602,0.0174,2025-06-09T13:37:25.421995
6809,-0.2123,0.5388,0.8389,0.875,-2.590,0.595,0.00,0.0184,0.0254,0.0300,0.0087,2025-06-09T13:37:25.421995
6810,-0.2123,0.5378,0.8379,0.840,-2.590,0.735,0.00,0.0368,0.0254,0.0401,0.0087,2025-06-09T13:37:25.421995
6811,-0.2133,0.5407,0.8384,0.980,-2.485,0.840,0.00,0.0184,0.0254,0.0300,0.0087,2025-06-09T13:37:25.421995
6812,-0.2137,0.5441,0.8418,1.050,-2.450,0.630,0.00,0.0184,0.0508,0.0000,0.0087,2025-06-09T13:37:25.421995
6813,-0.2113,0.5451,0.8403,0.525,-2.310,0.455,0.00,0.0368,0.0254,0.0300,0.0087,2025-06-09T13:37:25.421995
6814,-0.2098,0.5412,0.8403,0.035,-2.660,0.245,0.01,0.0184,0.0508,0.0100,0.0000,2025-06-09T13:37:25.421995
6815,-0.2137,0.5412,0.8364,-0.245,-2.975,-0.070,0.00,0.0368,0.0508,0.0000,0.0087,2025-06-09T13:37:25.421995
6816,-0.2133,0.5412,0.8330,0.140,-2.730,0.175,0.00,0.0000,0.0254,0.0000,0.0087,2025-06-09T13:37:25.421995
6817,-0.2157,0.5417,0.8418,0.455,-2.205,0.280,0.01,0.0184,0.0508,0.0000,0.0000,2025-06-09T13:37:25.421995
6818,-0.2113,0.5407,0.8433,0.315,-2.520,0.245,0.00,0.0184,0.0254,0.0703,0.0087,2025-06-09T13:37:25.421995
6819,-0.2074,0.5427,0.8403,-0.560,-2.520,0.105,0.00,0.0000,0.0508,0.0300,0.0087,2025-06-09T13:37:25.474854
6820,-0.2113,0.5417,0.8320,-0.455,-3.185,0.140,0.00,0.0368,0.0254,0.0000,0.0087,2025-06-09T13:37:25.474854
6821,-0.2157,0.5378,0.8398,0.175,-2.730,-0.035,0.00,0.0184,0.0254,0.0100,0.0174,2025-06-09T13:37:25.474854
6822,-0.2128,0.5383,0.8325,0.140,-2.415,-0.245,0.00,0.0184,0.0762,0.0401,0.0087,2025-06-09T13:37:25.474854
6823,-0.2147,0.5319,0.8364,-0.630,-2.590,-0.070,0.00,0.0368,0.0762,0.0000,0.0174,2025-06-09T13:37:25.474854
6824,-0.2094,0.5344,0.8325,-0.280,-2.590,0.070,0.01,0.0184,0.0508,0.0100,0.0087,2025-06-09T13:37:25.563616
6825,-0.2133,0.5373,0.8389,0.490,-2.170,0.525,0.00,0.0184,0.0254,0.0300,0.0087,2025-06-09T13:37:25.563616
6826,-0.2142,0.5383,0.8428,1.610,-1.960,0.595,0.01,0.0368,0.0254,0.0401,0.0087,2025-06-09T13:37:25.563616
6827,-0.2147,0.5412,0.8355,1.085,-2.625,0.700,0.01,0.0184,0.0254,0.0300,0.0174,2025-06-09T13:37:25.563616
6828,-0.2123,0.5456,0.8364,0.035,-2.625,0.595,0.00,0.0368,0.0254,0.0100,0.0087,2025-06-09T13:37:25.563616
6829,-0.2162,0.5461,0.8384,0.140,-2.555,0.140,0.00,0.0184,0.0000,0.0000,0.0087,2025-06-09T13:37:25.563616
6830,-0.2137,0.5461,0.8403,0.105,-2.310,-0.245,0.01,0.0184,0.0508,0.0200,0.0174,2025-06-09T13:37:25.626461
6831,-0.2118,0.5436,0.8369,-0.630,-2.800,-0.385,0.00,0.0184,0.0000,0.0300,0.0174,2025-06-09T13:37:25.626461
6832,-0.2123,0.5392,0.8355,-1.120,-3.010,-0.245,0.00,0.0368,0.0254,0.0100,0.0000,2025-06-09T13:37:25.626461
6833,-0.2128,0.5397,0.8374,-0.735,-3.080,-0.280,0.00,0.0184,0.0254,0.0100,0.0087,2025-06-09T13:37:25.626461
6834,-0.2123,0.5383,0.8355,-0.175,-2.520,-0.280,0.01,0.0368,0.0254,0.0401,0.0087,2025-06-09T13:37:25.767263
6835,-0.2137,0.5348,0.8340,0.140,-2.555,0.035,0.01,0.0368,0.0000,0.0501,0.0087,2025-06-09T13:37:25.768235
6836,-0.2147,0.5383,0.8384,0.000,-2.730,0.315,0.00,0.0184,0.0508,0.0300,0.0174,2025-06-09T13:37:25.768235
6837,-0.2137,0.5397,0.8398,0.245,-2.450,0.315,0.00,0.0368,0.0508,0.0100,0.0087,2025-06-09T13:37:25.768235
6838,-0.2123,0.5402,0.8389,0.735,-2.380,0.245,0.01,0.0184,0.0508,0.0300,0.0087,2025-06-09T13:37:25.768235
6839,-0.2137,0.5397,0.8355,0.385,-2.835,0.245,0.00,0.0184,0.0254,0.0300,0.0087,2025-06-09T13:37:25.768235
6840,-0.2123,0.5431,0.8355,-0.245,-2.905,0.210,0.00,0.0184,0.0254,0.0401,0.0087,2025-06-09T13:37:25.768235
6841,-0.2128,0.5422,0.8384,-0.315,-2.870,0.035,0.00,0.0184,0.0000,0.0501,0.0087,2025-06-09T13:37:25.768235
6842,-0.2123,0.5402,0.8394,-0.175,-2.905,-0.210,0.00,0.0368,0.0254,0.0100,0.0087,2025-06-09T13:37:25.768235
6843,-0.2133,0.5378,0.8369,-0.455,-2.695,-0.175,0.00,0.0368,0.0254,0.0401,0.0087,2025-06-09T13:37:25.768235
6844,-0.2123,0.5363,0.8355,-0.420,-2.800,0.035,0.00,0.0184,0.0254,0.0300,0.0174,2025-06-09T13:37:25.768235
6845,-0.2133,0.5373,0.8384,0.035,-2.800,0.035,0.00,0.0184,0.0508,0.0100,0.0262,2025-06-09T13:37:25.867992
6846,-0.2128,0.5397,0.8384,0.315,-2.415,0.315,0.01,0.0368,0.0254,0.0300,0.0087,2025-06-09T13:37:25.867992
6847,-0.2133,0.5397,0.8398,0.525,-2.485,0.350,0.00,0.0368,0.0000,0.0100,0.0174,2025-06-09T13:37:25.867992
6848,-0.2133,0.5407,0.8389,0.280,-2.800,0.420,0.00,0.0368,0.0508,0.0200,0.0174,2025-06-09T13:37:25.867992
6849,-0.2133,0.5417,0.8364,-0.210,-2.940,0.280,0.00,0.0368,0.0508,0.0300,0.0087,2025-06-09T13:37:25.867992
6850,-0.2098,0.5412,0.8359,-0.035,-2.765,0.035,0.00,0.0184,0.0000,0.0200,0.0174,2025-06-09T13:37:25.867992
6851,-0.2137,0.5412,0.8359,-0.210,-2.730,-0.105,0.00,0.0184,0.0254,0.0200,0.0087,2025-06-09T13:37:25.867992
6852,-0.2133,0.5373,0.8345,-0.350,-2.730,-0.035,0.00,0.0184,0.0762,0.0300,0.0087,2025-06-09T13:37:25.867992
6853,-0.2103,0.5378,0.8384,-0.140,-2.765,0.140,0.00,0.0368,0.0254,0.0401,0.0087,2025-06-09T13:37:25.978671
6854,-0.2157,0.5363,0.8389,0.420,-2.975,0.280,0.00,0.0368,0.0254,0.0200,0.0087,2025-06-09T13:37:25.978671
6855,-0.2108,0.5339,0.8316,0.420,-2.905,0.525,0.01,0.0368,0.0508,0.0300,0.0087,2025-06-09T13:37:25.978671
6856,-0.2118,0.5392,0.8364,0.525,-3.010,0.630,0.00,0.0184,0.0508,0.0200,0.0087,2025-06-09T13:37:25.978671
6857,-0.2152,0.5427,0.8462,1.015,-2.310,0.595,0.00,0.0184,0.1273,0.0300,0.0087,2025-06-09T13:37:25.978671
6858,-0.2103,0.5451,0.8398,0.700,-2.345,0.630,0.01,0.0368,0.0254,0.0200,0.0087,2025-06-09T13:37:25.978671
6859,-0.2133,0.5505,0.8394,0.070,-3.395,0.490,0.00,0.0368,0.0000,0.0501,0.0087,2025-06-09T13:37:25.978671
6860,-0.2118,0.5510,0.8403,-0.420,-3.500,0.350,0.00,0.0184,0.0254,0.0200,0.0087,2025-06-09T13:37:25.978671
6861,-0.2108,0.5490,0.8408,-0.595,-3.395,-0.420,0.00,0.0368,0.0254,0.0300,0.0174,2025-06-09T13:37:26.073443
6862,-0.2147,0.5402,0.8369,-1.260,-3.885,-0.945,0.00,0.0184,0.0254,0.0300,0.0087,2025-06-09T13:37:26.073443
6863,-0.2123,0.5368,0.8281,-2.310,-4.130,-0.665,0.01,0.0368,0.0508,0.0100,0.0174,2025-06-09T13:37:26.073443
6864,-0.2103,0.5324,0.8325,-1.715,-4.095,-0.595,0.00,0.0368,0.0254,0.0300,0.0174,2025-06-09T13:37:26.073443
6865,-0.2123,0.5329,0.8418,-0.070,-3.465,-0.350,0.00,0.0368,0.0254,0.0602,0.0087,2025-06-09T13:37:26.073443
6866,-0.2094,0.5344,0.8379,0.210,-3.010,0.280,0.00,0.0184,0.0508,0.0000,0.0174,2025-06-09T13:37:26.073443
6867,-0.2094,0.5348,0.8389,-0.175,-3.570,0.735,0.00,0.0184,0.0254,0.0300,0.0087,2025-06-09T13:37:26.073443
6868,-0.2118,0.5383,0.8374,0.455,-3.535,0.875,0.00,0.0184,0.0000,0.0200,0.0087,2025-06-09T13:37:26.182131
6869,-0.2079,0.5431,0.8413,1.085,-2.730,0.665,0.01,0.0368,0.0254,0.0300,0.0174,2025-06-09T13:37:26.182131
6870,-0.2089,0.5470,0.8413,-0.455,-2.100,0.070,0.01,0.0368,0.0254,0.0501,0.0174,2025-06-09T13:37:26.182131
6871,-0.2123,0.5427,0.8457,-0.070,-3.500,-0.490,0.00,0.0368,0.0762,0.0000,0.0174,2025-06-09T13:37:26.182131
6872,-0.2079,0.5392,0.8272,-1.750,-3.465,-0.735,0.01,0.0368,0.0508,0.0100,0.0174,2025-06-09T13:37:26.182131
6873,-0.2128,0.5319,0.8267,-1.645,-3.220,-0.490,0.01,0.0184,0.0000,0.0401,0.0174,2025-06-09T13:37:26.182131
6874,-0.2133,0.5285,0.8398,0.420,-2.485,-0.385,0.01,0.0184,0.0254,0.0401,0.0000,2025-06-09T13:37:26.182131
6875,-0.2123,0.5309,0.8403,0.525,-1.470,0.000,0.01,0.0184,0.0508,0.0000,0.0000,2025-06-09T13:37:26.182131
6876,-0.2113,0.5339,0.8403,0.350,-2.205,0.630,0.01,0.0368,0.0254,0.0501,0.0174,2025-06-09T13:37:26.280865
6877,-0.2089,0.5402,0.8433,0.560,-2.730,1.155,0.01,0.0184,0.0508,0.0200,0.0174,2025-06-09T13:37:26.280865
6878,-0.2137,0.5461,0.8359,1.890,-2.695,1.190,0.00,0.0552,0.0254,0.0300,0.0087,2025-06-09T13:37:26.280865
6879,-0.2103,0.5461,0.8340,1.610,-2.730,0.560,0.00,0.0368,0.0508,0.0300,0.0087,2025-06-09T13:37:26.280865
6880,-0.2118,0.5456,0.8369,-0.385,-2.905,-0.210,0.00,0.0000,0.0508,0.0200,0.0087,2025-06-09T13:37:26.280865
6881,-0.2094,0.5436,0.8384,-1.680,-2.870,-0.630,0.00,0.0184,0.0508,0.0300,0.0087,2025-06-09T13:37:26.280865
6882,-0.2064,0.5402,0.8394,-1.295,-2.520,-0.665,0.01,0.0184,0.0508,0.0000,0.0087,2025-06-09T13:37:26.280865
6883,-0.2059,0.5358,0.8428,-0.070,-2.415,-0.385,0.01,0.0184,0.0508,0.0501,0.0174,2025-06-09T13:37:26.280865
6884,-0.2133,0.5339,0.8423,0.280,-2.590,0.140,0.00,0.0184,0.0000,0.0401,0.0000,2025-06-09T13:37:26.396580
6885,-0.2128,0.5329,0.8335,0.105,-3.080,0.385,0.00,0.0368,0.0508,0.0501,0.0087,2025-06-09T13:37:26.396580
6886,-0.2128,0.5368,0.8340,0.070,-2.590,0.455,0.00,0.0184,0.0254,0.0401,0.0087,2025-06-09T13:37:26.396580
6887,-0.2147,0.5392,0.8403,0.700,-1.680,0.210,0.01,0.0184,0.0254,0.0000,0.0087,2025-06-09T13:37:26.396580
6888,-0.2094,0.5466,0.8408,0.770,-2.030,0.105,0.00,0.0184,0.0508,0.0300,0.0087,2025-06-09T13:37:26.396580
6889,-0.2084,0.5446,0.8403,-0.420,-3.010,0.105,0.00,0.0368,0.0508,0.0000,0.0087,2025-06-09T13:37:26.396580
6890,-0.2118,0.5451,0.8408,-0.910,-3.535,0.070,0.00,0.0184,0.0254,0.0300,0.0174,2025-06-09T13:37:26.396580
6891,-0.2133,0.5431,0.8379,-0.385,-3.360,-0.280,0.00,0.0184,0.0508,0.0000,0.0087,2025-06-09T13:37:26.396580
6892,-0.2133,0.5373,0.8355,-0.420,-3.080,-0.490,0.01,0.0184,0.0508,0.0200,0.0087,2025-06-09T13:37:26.491301
6893,-0.2137,0.5339,0.8359,-1.225,-3.185,-0.455,0.01,0.0368,0.0254,0.0000,0.0087,2025-06-09T13:37:26.491301
6894,-0.2133,0.5358,0.8394,-0.980,-3.360,-0.315,0.00,0.0184,0.0762,0.0200,0.0087,2025-06-09T13:37:26.491301
6895,-0.2118,0.5358,0.8398,-0.210,-3.150,0.175,0.01,0.0368,0.0254,0.0501,0.0174,2025-06-09T13:37:26.491301
6896,-0.2103,0.5348,0.8394,0.385,-2.975,0.420,0.01,0.0184,0.0762,0.0300,0.0087,2025-06-09T13:37:26.491301
6897,-0.2084,0.5368,0.8379,0.420,-3.220,0.490,0.01,0.0184,0.0254,0.0300,0.0087,2025-06-09T13:37:26.491301
6898,-0.2113,0.5388,0.8394,-0.140,-3.220,0.350,0.00,0.0368,0.0508,0.0200,0.0174,2025-06-09T13:37:26.491301
6899,-0.2108,0.5392,0.8369,-0.070,-2.835,0.280,0.01,0.0368,0.0254,0.0401,0.0087,2025-06-09T13:37:26.603000
6900,-0.2094,0.5378,0.8394,0.105,-2.695,0.035,0.01,0.0368,0.0508,0.0200,0.0174,2025-06-09T13:37:26.603000
6901,-0.2103,0.5407,0.8418,0.000,-2.520,0.000,0.00,0.0184,0.0254,0.0401,0.0174,2025-06-09T13:37:26.603000
6902,-0.2113,0.5392,0.8413,-0.175,-2.765,0.210,0.00,0.0368,0.0254,0.0200,0.0087,2025-06-09T13:37:26.603000
6903,-0.2084,0.5388,0.8398,-0.105,-2.975,0.175,0.00,0.0184,0.0254,0.0300,0.0174,2025-06-09T13:37:26.603000
6904,-0.2113,0.5383,0.8379,-0.035,-2.800,0.140,0.00,0.0000,0.0508,0.0200,0.0087,2025-06-09T13:37:26.603000
6905,-0.2108,0.5383,0.8374,0.105,-2.520,0.000,0.00,0.0184,0.0508,0.0300,0.0087,2025-06-09T13:37:26.603000
6906,-0.2113,0.5383,0.8374,0.000,-2.695,0.035,0.00,0.0368,0.0254,0.0200,0.0087,2025-06-09T13:37:26.603000
6907,-0.2103,0.5388,0.8379,-0.280,-2.800,0.105,0.01,0.0184,0.0508,0.0200,0.0087,2025-06-09T13:37:26.686776
6908,-0.2113,0.5373,0.8394,-0.035,-2.870,0.210,0.00,0.0368,0.0254,0.0100,0.0174,2025-06-09T13:37:26.686776
6909,-0.2108,0.5378,0.8384,0.280,-3.010,0.245,0.01,0.0184,0.0508,0.0300,0.0087,2025-06-09T13:37:26.686776
6910,-0.2103,0.5363,0.8374,-0.035,-3.045,0.210,0.00,0.0184,0.0254,0.0401,0.0174,2025-06-09T13:37:26.686776
6911,-0.2123,0.5383,0.8364,0.000,-3.115,0.315,0.01,0.0000,0.0508,0.0100,0.0087,2025-06-09T13:37:26.686776
6912,-0.2113,0.5348,0.8379,0.210,-3.185,0.350,0.00,0.0184,0.0508,0.0401,0.0174,2025-06-09T13:37:26.686776
6913,-0.2128,0.5363,0.8389,0.420,-2.870,0.420,0.00,0.0184,0.0508,0.0200,0.0087,2025-06-09T13:37:26.686776
6914,-0.2162,0.5475,0.8281,0.525,-3.220,0.105,0.00,0.0184,0.0254,0.0100,0.0174,2025-06-09T13:37:26.789502
6915,0.0322,0.0752,0.7125,-41.265,-30.905,18.200,0.01,0.0368,0.0508,0.0000,0.0174,2025-06-09T13:37:26.789502
6916,-0.1801,0.5671,1.0419,18.900,-38.465,44.345,0.01,0.0184,0.0254,0.0200,0.0087,2025-06-09T13:37:26.789502
6917,-0.2386,0.5710,0.9374,67.060,7.770,37.310,0.01,0.0184,0.0254,0.0200,0.0087,2025-06-09T13:37:26.789502
6918,-0.3035,0.7242,0.8223,81.480,-1.575,27.580,0.01,0.0184,0.0254,0.0200,0.0087,2025-06-09T13:37:26.789502
6919,-0.2357,0.6759,0.7291,33.635,3.535,11.795,0.00,0.0368,0.0254,0.0000,0.0087,2025-06-09T13:37:26.789502
6920,-0.1176,0.6076,0.6998,-14.140,-9.240,3.570,0.00,0.0184,0.0254,0.0000,0.0087,2025-06-09T13:37:26.789502
6921,-0.2333,0.6939,0.8525,-11.060,-3.080,-1.400,0.00,0.0184,0.0508,0.0200,0.0087,2025-06-09T13:37:26.789502
6922,-0.2342,0.8013,0.8296,8.540,14.315,-19.985,0.01,0.0184,0.0762,0.0200,0.0087,2025-06-09T13:37:26.845354
6923,-0.1059,0.7266,0.7623,-28.105,12.040,-36.785,0.00,0.0368,0.0508,0.0100,0.0087,2025-06-09T13:37:26.845354
6924,-0.1762,0.5734,0.8520,-66.290,-15.470,-40.040,0.01,0.0184,0.0508,0.0200,0.0087,2025-06-09T13:37:26.845354
6925,-0.1850,0.4719,0.8886,-60.585,-21.280,-33.145,0.01,0.0000,0.0508,0.0000,0.0087,2025-06-09T13:37:26.845354
6926,-0.1737,0.3997,0.8555,-24.430,-12.425,-18.935,0.00,0.0368,0.0254,0.0703,0.0174,2025-06-09T13:37:26.994954
6927,-0.2167,0.3562,0.8584,17.360,1.330,-5.110,0.01,0.0368,0.0508,0.0200,0.0087,2025-06-09T13:37:26.994954
6928,-0.2289,0.3680,0.8296,23.835,4.585,7.525,0.00,0.0184,0.0254,0.0100,0.0087,2025-06-09T13:37:26.994954
6929,-0.2162,0.4426,0.8291,7.315,-0.700,14.770,0.01,0.0368,0.0254,0.0602,0.0174,2025-06-09T13:37:26.994954
6930,-0.2035,0.5344,0.8564,-0.035,-3.360,18.270,0.00,0.0184,0.0254,0.0000,0.0174,2025-06-09T13:37:26.994954
6931,-0.1810,0.6017,0.8496,13.930,0.665,15.400,0.00,0.0184,0.0508,0.0200,0.0087,2025-06-09T13:37:26.994954
6932,-0.1776,0.6549,0.8218,24.710,4.060,10.115,0.00,0.0368,0.0000,0.0300,0.0087,2025-06-09T13:37:26.994954
6933,-0.1918,0.6651,0.8213,14.105,-1.610,1.540,0.00,0.0368,0.0254,0.0200,0.0087,2025-06-09T13:37:26.994954
6934,-0.2079,0.6344,0.8208,-14.175,-8.680,-5.775,0.00,0.0184,0.0508,0.0000,0.0087,2025-06-09T13:37:26.994954
6935,-0.2054,0.5710,0.8203,-24.570,-10.080,-10.885,0.00,0.0184,0.0762,0.0501,0.0087,2025-06-09T13:37:26.994954
6936,-0.1996,0.5256,0.8291,-14.385,-3.150,-12.040,0.00,0.0000,0.0254,0.0501,0.0087,2025-06-09T13:37:26.994954
6937,-0.2020,0.4856,0.8594,-2.100,0.805,-8.715,0.01,0.0184,0.0508,0.0000,0.0087,2025-06-09T13:37:27.152533
6938,-0.1967,0.4763,0.8520,1.225,-1.190,-1.750,0.01,0.0368,0.0508,0.0200,0.0087,2025-06-09T13:37:27.152533
6939,-0.2001,0.4851,0.8511,-0.630,-4.620,3.885,0.00,0.0184,0.0254,0.0000,0.0174,2025-06-09T13:37:27.152533
6940,-0.2020,0.5183,0.8472,3.745,-3.640,6.895,0.00,0.0184,0.0508,0.0602,0.0174,2025-06-09T13:37:27.152533
6941,-0.2054,0.5524,0.8316,10.675,0.455,6.615,0.01,0.0000,0.0762,0.0200,0.0087,2025-06-09T13:37:27.152533
6942,-0.2020,0.4577,0.8828,4.760,-0.665,12.425,0.00,0.0184,0.0508,0.0200,0.0087,2025-06-09T13:37:27.152533
6943,-0.2001,0.4968,0.8403,11.200,-4.550,16.450,0.00,0.0184,0.0254,0.0000,0.0087,2025-06-09T13:37:27.152533
6944,-0.1757,0.5549,0.8101,23.730,1.995,18.445,0.00,0.0184,0.0254,0.0100,0.0087,2025-06-09T13:37:27.301133
6945,-0.1952,0.5895,0.8247,28.980,1.715,17.675,0.00,0.0184,0.0508,0.0401,0.0087,2025-06-09T13:37:27.301133
6946,-0.1991,0.5963,0.8418,18.620,-0.455,15.225,0.01,0.0368,0.0000,0.0100,0.0174,2025-06-09T13:37:27.301133
6947,-0.1898,0.6100,0.8130,11.025,-3.220,9.555,0.01,0.0184,0.0508,0.0300,0.0087,2025-06-09T13:37:27.301133
