SeqNum,AccX,AccY,AccZ,GyroX,GyroY,GyroZ,Flex,Force1,Force2,Force3,Force4,TimestampReception
1,0.0000,0.0000,0.2499,-0.455,10.570,-0.700,1.06,25.0628,19.7206,6.0069,3.5353,2025-06-11T08:50:58.290848
2,-0.3640,-0.2572,0.9711,-3.465,-21.840,11.025,1.30,25.3651,19.5640,7.6117,3.6553,2025-06-11T08:50:58.290848
3,-0.3640,-0.2381,0.9677,2.310,-22.155,7.840,1.11,18.5825,18.3490,6.8826,4.5054,2025-06-11T08:50:58.290848
4,-0.3831,-0.2025,1.0028,2.170,-23.065,11.725,1.13,16.3936,16.7806,5.4478,4.8703,2025-06-11T08:50:58.290848
5,-0.3455,-0.1352,1.0170,2.590,-23.590,16.590,1.21,15.3926,16.7120,7.1959,5.2776,2025-06-11T08:50:58.290848
6,-0.2811,-0.1586,1.0014,-0.280,-29.015,26.565,1.22,13.9937,18.2752,6.4200,5.0603,2025-06-11T08:50:58.290848
7,-0.3016,-0.2006,0.9872,-1.505,-35.665,34.370,1.23,13.9379,18.4973,7.0236,5.1681,2025-06-11T08:50:58.290848
8,-0.3343,-0.2377,1.0150,11.340,-38.780,39.515,1.12,13.8823,17.6221,5.8820,5.1032,2025-06-11T08:50:58.290848
9,-0.3250,-0.2611,0.9965,18.725,-46.480,37.030,1.23,13.4982,17.8376,6.1851,4.9752,2025-06-11T08:50:58.290848
10,-0.3074,-0.2625,1.0097,23.065,-47.320,32.795,1.22,12.6533,18.4230,6.6891,4.2158,2025-06-11T08:50:58.290848
11,-0.3572,-0.3065,0.9755,22.050,-48.545,30.415,1.27,13.2293,17.7655,7.1959,4.4857,2025-06-11T08:50:58.290848
12,-0.3279,-0.2840,0.9736,34.790,-45.360,28.070,1.10,11.8028,17.6937,7.2834,4.8703,2025-06-11T08:50:58.290848
13,-0.3465,-0.2528,0.9980,39.760,-45.220,24.780,1.05,11.1362,13.1329,5.6861,5.2556,2025-06-11T08:50:58.290848
14,-0.2948,-0.2035,0.9843,54.950,-45.605,17.290,1.09,12.4998,17.6221,5.3777,4.8911,2025-06-11T08:50:58.290848
15,-0.2767,-0.1601,0.9970,65.205,-46.130,16.625,1.18,13.1761,14.8754,7.2541,4.9330,2025-06-11T08:50:58.290848
16,-0.2640,-0.1420,0.9838,69.300,-46.235,20.090,1.24,12.9649,15.7735,7.3422,4.2158,2025-06-11T08:50:58.521103
17,-0.2557,-0.1630,0.9472,64.155,-49.805,29.295,1.24,13.2827,18.0553,6.8269,3.8131,2025-06-11T08:50:58.521103
18,-0.2689,-0.2084,0.9267,58.870,-47.215,32.340,1.30,11.7058,17.8376,6.8269,4.7261,2025-06-11T08:50:58.521103
19,-0.3026,-0.2342,0.9170,44.590,-40.215,28.105,1.10,12.3983,18.2752,5.1938,4.7057,2025-06-11T08:50:58.521103
20,-0.2977,-0.2416,0.9028,38.430,-29.610,18.900,1.07,11.5614,13.7761,5.7346,4.8495,2025-06-11T08:50:58.521103
21,-0.2957,-0.1957,0.9130,29.120,-18.865,10.885,1.21,11.2297,16.8495,6.7439,4.8703,2025-06-11T08:50:58.521103
22,-0.2318,-0.1537,0.9360,16.135,-11.025,5.495,1.22,11.8516,17.4795,6.6891,4.8495,2025-06-11T08:50:58.521103
23,-0.2152,-0.1283,0.9414,5.985,-9.345,12.635,1.21,12.6533,16.3720,6.5266,4.8911,2025-06-11T08:50:58.521103
24,-0.2059,-0.1279,0.9516,-0.385,-15.260,23.100,1.29,12.4998,18.0553,5.8326,5.2556,2025-06-11T08:50:58.521103
25,-0.1420,-0.0634,1.0082,-4.410,-10.780,37.870,1.27,12.9649,17.6937,7.1094,5.4338,2025-06-11T08:50:58.521103
26,-0.1415,0.0093,1.0541,-14.630,-11.375,42.315,1.26,13.0701,18.5718,7.0807,5.3889,2025-06-11T08:50:58.521103
27,-0.3211,-0.1371,0.9809,-10.850,-37.135,46.305,1.18,13.1230,18.5718,6.9106,5.2997,2025-06-11T08:50:58.521103
28,-0.4558,-0.1918,1.0746,16.135,-3.220,16.835,1.09,13.4982,17.6937,7.5511,5.2336,2025-06-11T08:50:58.522167
29,-0.3284,-0.2704,1.0575,5.565,-6.475,-13.370,1.19,11.9005,17.9100,7.6727,4.9121,2025-06-11T08:50:58.793220
30,-0.3235,-0.0620,1.1331,20.475,23.975,-36.855,1.12,12.0482,18.6466,6.5804,5.0389,2025-06-11T08:50:58.793220
31,-0.1606,0.0439,1.0624,3.500,27.685,-21.035,1.21,11.2766,18.4973,7.4610,4.5252,2025-06-11T08:50:58.793220
32,-0.1664,0.1176,1.1273,20.440,18.550,-4.515,1.23,11.4183,18.0553,7.3127,4.8911,2025-06-11T08:50:58.793220
33,-0.2035,0.0752,1.1541,42.875,14.315,11.130,1.24,12.0977,16.0374,6.3936,4.8911,2025-06-11T08:50:58.793220
34,-0.2269,0.0434,1.1492,64.855,6.405,9.660,1.25,11.5614,19.0243,6.9952,5.0176,2025-06-11T08:50:58.793220
35,-0.2045,0.0517,1.0043,96.845,-6.405,10.185,1.31,11.8516,18.5718,6.6618,5.3889,2025-06-11T08:50:58.793220
36,-0.1776,0.0332,1.0585,127.365,-17.780,10.675,1.12,12.2473,18.7217,6.8547,5.1899,2025-06-11T08:50:58.793220
37,-0.2020,0.0586,0.9618,135.730,-20.055,9.485,1.20,12.2473,14.7503,6.2887,4.4661,2025-06-11T08:50:58.793220
38,-0.2186,0.0146,0.8428,112.175,-14.000,6.965,1.25,11.4659,16.4395,6.2627,5.0603,2025-06-11T08:50:58.794210
39,-0.1752,-0.0068,0.7627,79.205,-4.095,4.235,1.08,11.7058,17.9825,6.5266,4.7465,2025-06-11T08:50:58.794210
40,-0.0932,0.0688,0.7901,45.465,30.485,14.070,1.09,12.7048,18.4230,6.3672,4.7465,2025-06-11T08:50:58.794210
41,-0.1147,-0.0434,0.5026,-25.410,16.345,40.810,0.94,13.2293,16.7806,6.2887,5.2336,2025-06-11T08:50:58.794210
42,-0.1571,-0.0171,0.6373,-46.270,-4.410,50.470,1.12,11.6575,14.3794,6.1594,5.2117,2025-06-11T08:50:58.794210
43,-0.2284,-0.1723,0.6647,-66.220,-4.305,35.000,1.19,12.0977,16.9186,6.9952,5.1032,2025-06-11T08:50:58.794210
44,-0.2967,-0.2211,0.7188,-122.710,7.805,-3.920,1.24,12.9649,17.6221,7.0807,4.9964,2025-06-11T08:50:58.794210
45,-0.1161,-0.1708,0.7896,-156.660,26.460,-27.090,1.24,11.6094,19.0243,7.3127,5.1248,2025-06-11T08:50:58.794210
46,-0.1747,-0.0869,0.6769,-188.965,44.835,-45.955,1.17,10.7682,18.2017,6.7164,4.9964,2025-06-11T08:50:58.966860
47,-0.1840,-0.0405,0.7403,-238.350,67.375,-65.660,1.27,11.7058,17.6937,6.5535,4.3687,2025-06-11T08:50:58.966860
48,-0.2245,-0.0220,0.7584,-273.910,89.705,-48.300,1.29,11.9496,17.2675,6.7715,4.1221,2025-06-11T08:50:58.966860
49,-0.4285,0.0127,0.7832,-286.090,108.290,31.955,1.11,11.9005,16.9879,7.0521,4.4465,2025-06-11T08:50:58.966860
50,-0.5339,-0.0961,0.9838,-317.310,132.440,60.515,1.21,12.2473,13.7167,7.6727,4.8495,2025-06-11T08:50:58.966860
51,-0.5685,-0.2869,1.1112,-324.205,157.815,101.570,1.07,11.5135,16.7120,7.1959,4.8081,2025-06-11T08:50:58.966860
52,-0.6344,-0.5436,1.1995,-145.040,217.490,118.335,1.21,12.1474,18.7969,6.0574,4.8081,2025-06-11T08:50:58.966860
53,-0.7842,-0.7110,1.1063,-113.645,162.400,76.475,1.29,12.7565,16.9186,4.1756,4.8495,2025-06-11T08:50:58.966860
54,-0.8145,-0.8828,1.2049,-97.160,109.935,12.285,1.24,13.6617,17.1272,6.1851,5.1681,2025-06-11T08:50:58.966860
55,-0.7379,-0.8413,1.1951,-43.365,28.035,-56.980,1.22,13.0701,17.4795,6.3410,5.4113,2025-06-11T08:50:58.966860
56,-0.6407,-0.7247,1.0843,9.555,-50.050,-124.285,1.26,13.4441,18.2752,6.7439,5.4113,2025-06-11T08:50:58.966860
57,-0.6881,-0.5739,1.0092,22.505,-91.805,-144.900,1.23,13.8268,18.1284,7.1094,5.5475,2025-06-11T08:50:58.966860
58,-0.6422,-0.5832,1.0394,135.695,-102.795,-144.690,1.26,13.8823,18.3490,4.2954,5.4564,2025-06-11T08:50:58.966860
59,-0.3802,-0.5017,0.8633,173.425,-98.665,-148.610,1.29,13.5525,17.9825,5.8820,5.5247,2025-06-11T08:50:58.966860
60,-0.4475,-0.3294,0.7618,174.580,-67.060,-148.260,1.01,14.1623,18.7969,6.8269,4.6450,2025-06-11T08:50:58.966860
61,-0.0771,-0.2006,0.8067,132.720,-18.305,-145.250,1.18,13.8268,15.8391,6.8547,4.8911,2025-06-11T08:50:58.966860
62,-0.6159,-0.0669,1.0058,124.705,2.345,-107.695,1.23,11.9988,16.2375,7.2250,5.1032,2025-06-11T08:50:59.119929
63,0.0473,-0.1132,0.6671,84.280,-16.905,-70.875,1.29,13.0174,17.4086,7.1959,5.1248,2025-06-11T08:50:59.119929
64,-0.5539,-0.0561,0.9365,49.875,-43.330,-44.135,1.28,12.8604,15.2555,7.4909,5.2336,2025-06-11T08:50:59.119929
65,-0.6212,0.0766,1.1390,157.990,22.015,-38.605,1.23,12.4998,17.5507,7.0807,5.0817,2025-06-11T08:50:59.119929
66,-0.4070,-0.0102,0.6207,120.085,6.685,9.590,1.27,12.5508,17.1272,6.2887,5.3665,2025-06-11T08:50:59.119929
67,-0.1547,0.0537,0.8106,66.920,39.795,4.690,1.26,13.1230,17.1272,7.0521,4.5649,2025-06-11T08:50:59.119929
68,-0.4143,0.0132,0.2850,48.580,-1.960,78.855,1.22,13.1761,17.6221,6.9669,4.9330,2025-06-11T08:50:59.119929
69,-0.1425,-0.2162,0.6783,-34.335,41.475,98.630,1.24,11.4183,17.4795,5.8572,4.1970,2025-06-11T08:50:59.275249
70,-0.1918,-0.4353,1.1561,-2.905,53.165,84.875,1.25,11.8516,20.0370,7.3717,4.6450,2025-06-11T08:50:59.275249
71,-0.1713,-0.5534,1.2912,-36.645,21.805,37.625,1.23,12.1474,14.1359,7.4311,5.1032,2025-06-11T08:50:59.275249
72,-0.2508,-0.7867,0.6998,-47.705,27.475,32.130,1.25,12.2473,14.5640,5.9567,5.0817,2025-06-11T08:50:59.275249
73,-0.4807,-0.3880,1.0433,7.035,-4.865,-0.525,1.25,12.3478,14.0152,5.0587,5.1248,2025-06-11T08:50:59.275249
74,-0.3836,-0.2518,0.9955,-12.250,-19.320,3.850,1.17,12.4490,13.1906,6.3936,5.2997,2025-06-11T08:50:59.276282
75,-0.3528,-0.2425,0.9555,6.300,-26.530,8.155,1.19,12.7565,13.1906,6.7991,4.9752,2025-06-11T08:50:59.276282
76,-0.3562,-0.1825,0.8628,-5.635,-24.885,14.490,1.26,12.7565,17.1972,5.4010,5.1681,2025-06-11T08:50:59.276282
77,-0.3709,-0.2201,0.9140,-10.500,-20.930,20.545,1.10,11.2297,16.8495,6.3672,5.1248,2025-06-11T08:50:59.276282
78,-0.2962,-0.2635,0.8774,-0.595,-34.860,54.845,1.22,11.8028,17.4795,6.4200,4.9752,2025-06-11T08:50:59.276282
79,-0.2767,-0.0991,1.0311,24.780,-70.910,87.990,1.27,12.1973,18.2017,5.5899,4.8911,2025-06-11T08:50:59.276282
80,-0.4734,-0.2850,1.0126,23.170,-69.615,95.305,1.30,13.1230,16.9879,7.1094,5.4338,2025-06-11T08:50:59.276282
81,-0.4138,-0.2582,0.9853,28.980,-61.775,84.805,1.32,10.2767,18.1284,7.1381,5.1248,2025-06-11T08:50:59.276282
82,-0.3187,-0.2479,0.9882,22.995,-51.975,63.595,1.30,11.7542,18.5718,6.7164,4.9752,2025-06-11T08:50:59.276282
83,-0.3289,-0.1991,0.9252,26.915,-38.675,55.405,1.30,12.3478,17.1972,6.1851,5.2776,2025-06-11T08:50:59.276282
84,-0.2469,-0.2123,0.8862,15.470,-28.455,45.815,1.26,11.0434,17.7655,4.2153,4.9752,2025-06-11T08:50:59.276282
85,-0.2572,-0.1786,0.8784,6.545,-26.775,41.475,1.26,11.6094,15.7735,5.8572,4.8081,2025-06-11T08:50:59.276282
86,-0.2718,-0.2196,0.9170,-0.840,-24.255,31.150,1.31,12.1474,18.8725,6.1851,5.0389,2025-06-11T08:50:59.276282
87,-0.2567,-0.2284,0.9340,-2.485,-21.000,27.825,1.26,12.6020,19.0243,6.5266,5.1248,2025-06-11T08:50:59.469268
88,-0.3997,-0.0483,0.8877,-4.550,-25.165,36.330,1.28,11.4183,16.7120,6.8547,4.8495,2025-06-11T08:50:59.469268
89,-0.3040,-0.1479,1.0014,-4.410,-21.595,39.655,1.30,12.3983,17.6937,6.6891,5.2117,2025-06-11T08:50:59.469268
90,-0.2967,-0.0922,1.0360,-3.325,-27.930,41.930,1.33,12.8083,17.9825,7.2541,5.3219,2025-06-11T08:50:59.469268
91,-0.3070,-0.0883,1.0272,6.370,-35.280,45.535,1.24,12.6020,17.9100,7.3422,5.1248,2025-06-11T08:50:59.469268
92,-0.3143,-0.1732,0.9716,3.010,-32.970,35.980,1.32,12.4490,19.6422,7.2834,5.3219,2025-06-11T08:50:59.469268
93,-0.3958,-0.2489,0.8862,-4.935,-27.020,42.595,1.33,12.8604,19.5640,6.9669,5.0603,2025-06-11T08:50:59.469268
94,-0.1313,-0.2367,0.9223,-4.585,-12.740,18.515,1.29,12.2975,18.3490,6.9387,3.7425,2025-06-11T08:50:59.469268
95,-0.2547,-0.1054,0.7608,-13.720,-4.690,33.005,1.28,12.4998,18.2752,4.9480,3.7953,2025-06-11T08:50:59.469268
96,-0.2137,-0.1215,0.9340,-16.555,-1.470,32.060,1.25,13.5525,17.5507,6.4731,4.4270,2025-06-11T08:50:59.469268
97,-0.1981,-0.0805,1.0336,-9.100,3.045,35.490,1.15,13.6070,16.5753,6.3672,4.5649,2025-06-11T08:50:59.469268
98,-0.3924,0.0010,1.1078,-1.295,10.920,41.615,1.18,13.0701,17.7655,6.5535,4.1407,2025-06-11T08:50:59.469268
99,-0.2050,-0.0005,1.0453,17.010,7.945,44.800,1.26,13.7716,17.4086,6.2109,4.6854,2025-06-11T08:50:59.469268
100,-0.3240,-0.1230,1.0375,27.895,-2.835,55.580,1.25,13.2293,16.5073,4.1954,4.8288,2025-06-11T08:50:59.469268
101,-0.2645,-0.1493,0.9428,51.450,-32.795,62.895,1.25,12.8083,17.4086,5.8820,5.1032,2025-06-11T08:50:59.718134
102,-0.3079,-0.2381,0.9687,52.605,-41.090,52.780,1.30,12.6020,13.5398,6.7164,5.2776,2025-06-11T08:50:59.718134
103,-0.3518,-0.1781,1.0185,56.735,-33.180,43.365,1.25,13.2827,18.1284,7.1959,5.3219,2025-06-11T08:50:59.718134
104,-0.3172,-0.1322,1.0150,56.035,-14.490,19.600,1.22,12.8083,13.0755,6.2627,5.3219,2025-06-11T08:50:59.718134
105,-0.2943,-0.0810,1.0336,66.745,-12.285,15.540,1.26,12.8083,17.3379,7.0521,5.2117,2025-06-11T08:50:59.718134
106,-0.2811,-0.1118,1.0482,68.075,-20.930,14.000,1.26,13.4441,18.0553,6.2109,5.2336,2025-06-11T08:50:59.718134
107,-0.2621,-0.0634,1.0014,72.590,-38.745,8.225,1.27,12.7048,13.0182,7.1959,5.0176,2025-06-11T08:50:59.718134
108,-0.2430,0.0205,0.9506,50.855,-30.065,7.735,1.26,11.6575,15.7735,7.4610,5.2117,2025-06-11T08:50:59.718134
109,-0.2377,-0.0146,0.8535,44.800,-15.365,14.595,1.30,12.8604,18.6466,7.6422,5.4791,2025-06-11T08:50:59.718134
110,-0.2377,-0.0732,0.8164,24.430,1.330,18.095,1.12,12.4490,18.8725,6.7164,4.5649,2025-06-11T08:50:59.718134
111,-0.2762,-0.1044,0.8725,19.740,18.935,11.235,1.21,12.8604,11.1665,5.1938,4.8703,2025-06-11T08:50:59.718134
112,-0.3070,-0.0981,0.9526,1.330,24.255,7.490,1.31,13.4982,14.2573,6.5266,4.9752,2025-06-11T08:50:59.719196
113,-0.3318,-0.1269,1.0253,4.585,10.395,9.275,1.28,13.6070,17.9100,7.3422,5.2997,2025-06-11T08:50:59.719196
114,-0.3514,-0.0981,1.0516,4.095,-5.880,13.405,1.24,13.4982,17.4086,6.1851,5.1899,2025-06-11T08:50:59.719196
115,-0.3592,-0.0610,1.0477,1.050,-34.195,14.490,1.27,13.3363,17.1972,7.0521,4.7057,2025-06-11T08:50:59.719196
116,-0.3655,-0.0532,0.9882,-3.885,-33.005,10.220,1.19,13.1761,18.8725,6.7715,4.9752,2025-06-11T08:50:59.719196
117,-0.3489,-0.0952,0.9472,-8.890,-24.640,5.005,1.22,13.2827,18.2752,6.7715,4.9330,2025-06-11T08:50:59.719196
118,-0.3172,-0.1381,0.9170,-13.755,-16.695,2.590,1.24,13.0701,19.3311,7.0236,5.1464,2025-06-11T08:51:00.022047
119,-0.3050,-0.1298,0.9218,-16.310,-14.455,3.150,1.23,13.3363,16.9879,7.0236,5.2776,2025-06-11T08:51:00.022047
120,-0.3118,-0.1010,0.9575,-16.940,-14.805,-3.570,1.25,13.1230,16.2375,5.3082,5.2776,2025-06-11T08:51:00.022047
121,-0.3084,-0.0590,0.9843,-23.590,-12.775,-10.815,1.24,11.9005,18.4973,6.9106,4.9541,2025-06-11T08:51:00.022047
122,-0.2786,0.0122,1.0009,-23.555,-11.270,-13.090,1.31,12.8604,15.5777,7.0236,5.0817,2025-06-11T08:51:00.022047
123,-0.2650,0.0717,0.9819,-22.085,-13.405,-6.895,1.30,12.7048,17.4086,7.1670,5.1248,2025-06-11T08:51:00.022047
124,-0.2352,0.0517,0.9658,-19.915,-23.730,5.075,1.24,12.3478,18.5718,6.3936,5.1681,2025-06-11T08:51:00.022047
125,-0.2172,-0.0420,0.9213,-27.335,-25.480,9.485,1.33,12.4998,17.8376,6.6346,5.2336,2025-06-11T08:51:00.022047
126,-0.2284,-0.1415,0.9101,-32.200,-18.235,0.175,1.30,12.8083,17.5507,7.3127,4.9541,2025-06-11T08:51:00.022839
127,-0.2826,-0.1337,0.8950,-43.505,-8.120,-13.405,1.23,12.6020,18.1284,6.7991,4.8911,2025-06-11T08:51:00.022839
128,-0.2908,-0.0664,0.9550,-49.735,-0.805,-23.065,1.25,12.8604,16.9879,7.3422,3.7075,2025-06-11T08:51:00.022839
129,-0.2547,0.0020,1.0756,-45.185,12.705,-19.705,1.26,12.6533,18.4230,6.9106,4.2348,2025-06-11T08:51:00.022839
130,-0.2928,0.0586,1.0873,-26.425,13.895,-7.700,1.29,12.4998,16.7120,6.9669,3.8487,2025-06-11T08:51:00.022839
131,-0.2943,0.0405,1.0951,-16.730,-5.880,5.110,1.29,12.9126,16.7806,6.8547,4.5848,2025-06-11T08:51:00.022839
132,-0.2757,-0.0117,1.0580,-8.085,-40.075,15.050,1.26,13.2293,16.7806,5.5661,4.6652,2025-06-11T08:51:00.022839
133,-0.1254,-0.1035,0.9750,-11.935,-60.095,13.545,1.28,13.1230,15.9050,6.2109,4.8288,2025-06-11T08:51:00.022839
134,-0.1493,-0.1078,0.9121,-17.080,-50.750,8.960,1.00,13.4982,17.2675,6.5535,4.4465,2025-06-11T08:51:00.127968
135,-0.1181,-0.0986,0.8501,-27.510,-13.405,6.825,1.18,13.6070,17.3379,5.6861,4.4075,2025-06-11T08:51:00.127968
136,-0.1318,-0.1283,0.8267,-28.420,22.610,4.760,1.18,12.8083,12.7909,6.2887,4.8911,2025-06-11T08:51:00.127968
137,-0.2089,-0.2176,0.8994,-46.830,43.365,-5.670,1.25,11.4183,16.1039,7.2834,4.1407,2025-06-11T08:51:00.127968
138,-0.2855,-0.2957,1.0643,-51.590,50.750,-17.605,1.23,12.9649,14.5023,6.7439,4.4857,2025-06-11T08:51:00.127968
139,-0.3445,-0.2821,1.1566,-48.300,47.705,-32.690,1.26,11.5135,17.6221,7.0807,4.9541,2025-06-11T08:51:00.127968
140,-0.3680,-0.1737,1.1932,-35.735,35.175,-36.505,1.25,11.0434,16.1039,6.5535,4.9121,2025-06-11T08:51:00.127968
141,-0.2967,-0.0791,1.1878,-14.420,3.605,-27.475,1.24,12.1474,18.5718,7.3127,4.3494,2025-06-11T08:51:00.127968
142,-0.2259,-0.0342,1.1497,3.045,-14.945,-7.175,1.10,12.5508,16.5073,6.8269,5.0603,2025-06-11T08:51:00.127968
143,-0.2186,-0.1059,1.0848,13.370,-21.980,9.345,1.15,12.1474,17.7655,6.4465,4.3110,2025-06-11T08:51:00.127968
144,-0.2020,-0.1318,1.0375,23.590,-19.250,11.060,1.27,13.0701,19.4861,6.9669,4.6249,2025-06-11T08:51:00.127968
145,-0.1962,-0.1391,1.0512,28.000,6.020,4.515,1.30,12.7565,19.8782,7.7342,4.8495,2025-06-11T08:51:00.127968
146,-0.1908,-0.1893,1.0536,28.980,21.840,-0.875,1.27,12.2473,18.8725,7.4909,4.8288,2025-06-11T08:51:00.127968
147,-0.2606,-0.1649,1.0765,36.085,22.680,3.150,1.27,13.0701,18.2752,7.4311,4.9121,2025-06-11T08:51:00.127968
148,-0.1874,-0.2137,1.0824,35.140,-9.835,14.315,1.24,13.0701,19.4861,6.7164,5.0603,2025-06-11T08:51:00.131834
149,-0.1679,-0.0922,1.0424,48.580,-43.190,28.665,1.08,13.2827,17.6221,7.2250,5.2117,2025-06-11T08:51:00.176344
150,-0.0122,0.1010,1.0111,46.060,-35.525,63.035,1.06,11.9988,16.9879,6.6618,5.1899,2025-06-11T08:51:00.176344
151,0.0112,0.1000,0.8101,29.400,-15.855,89.565,1.16,12.9649,19.2540,7.2834,4.7465,2025-06-11T08:51:00.177339
152,-0.0698,-0.1410,0.6076,15.015,8.470,105.735,1.23,12.9649,17.4086,6.7164,4.2728,2025-06-11T08:51:00.177339
153,-0.0351,-0.2225,0.6744,10.290,43.120,78.120,1.15,13.0174,18.4973,7.1094,3.9748,2025-06-11T08:51:00.228480
154,-0.3274,-0.3006,0.8096,-35.875,44.520,77.665,1.26,12.9649,19.1772,7.4610,4.8288,2025-06-11T08:51:00.228480
155,-0.2830,-0.2982,0.7398,-55.265,117.285,15.400,1.21,12.3983,19.5640,5.5185,4.9964,2025-06-11T08:51:00.228480
156,-0.4616,-0.0093,0.9316,-71.575,137.375,11.060,1.22,12.6533,16.1706,5.9317,4.9330,2025-06-11T08:51:00.228480
157,-0.5958,0.1566,1.0365,-48.440,162.680,13.790,1.29,13.5525,18.7217,6.3672,5.0389,2025-06-11T08:51:00.332002
158,-0.4997,0.1200,1.1795,-22.085,149.135,47.565,1.26,13.5525,18.7969,6.7164,5.2336,2025-06-11T08:51:00.332002
159,-0.3494,0.0146,1.2825,1.890,90.090,62.650,1.26,12.9126,16.5073,6.9669,5.1032,2025-06-11T08:51:00.332002
160,-0.4504,-0.0381,1.2912,28.385,21.280,71.085,1.32,13.4441,17.1972,7.4311,4.9330,2025-06-11T08:51:00.332002
161,-0.5544,-0.1025,1.2371,39.795,-30.170,74.480,1.27,13.9937,18.7217,6.9106,5.1032,2025-06-11T08:51:00.332002
162,-0.5529,-0.1357,1.1653,53.165,-71.785,67.690,1.26,10.4981,18.0553,7.4014,4.9541,2025-06-11T08:51:00.332002
163,-0.4758,-0.1074,1.0682,56.560,-89.775,53.200,1.29,11.7058,18.7217,6.6891,4.9330,2025-06-11T08:51:00.332002
164,-0.3401,-0.0078,0.9794,46.480,-90.615,39.165,1.32,12.8604,18.3490,5.7590,5.3442,2025-06-11T08:51:00.379040
165,-0.4402,0.0937,0.8755,46.620,-79.975,45.850,1.12,13.1230,13.1329,4.0577,5.2997,2025-06-11T08:51:00.380028
166,-0.3001,0.0581,0.8194,47.460,-67.655,64.575,1.26,11.5135,14.8754,6.2887,4.2728,2025-06-11T08:51:00.380028
167,-0.2801,-0.0200,0.8350,44.870,-58.730,71.295,1.17,10.9052,18.2752,6.6891,4.9121,2025-06-11T08:51:00.380028
168,-0.3387,-0.0717,0.8477,34.020,-35.105,66.220,1.24,11.9496,18.2752,7.4014,5.1899,2025-06-11T08:51:00.431283
169,-0.3440,-0.1645,0.9004,23.975,-18.060,52.710,1.20,12.2975,17.8376,5.1035,4.9330,2025-06-11T08:51:00.431283
170,-0.3738,-0.1752,0.9457,13.580,-13.020,39.690,1.24,13.0701,19.4085,6.2627,5.0603,2025-06-11T08:51:00.431283
171,-0.3631,-0.1649,0.9892,0.735,-19.705,16.695,1.25,11.4659,19.2540,6.7164,5.2336,2025-06-11T08:51:00.489534
172,-0.3631,-0.1557,0.9750,-20.475,-41.475,-3.150,1.25,10.5428,19.5640,5.2623,4.3494,2025-06-11T08:51:00.489534
173,-0.3270,-0.1108,1.0004,-39.200,-65.520,-20.895,1.21,11.9988,18.6466,6.3410,4.9330,2025-06-11T08:51:00.489534
174,-0.2616,-0.0390,0.9867,-53.305,-79.380,-34.685,1.23,12.5508,18.6466,7.4014,5.2997,2025-06-11T08:51:00.489534
175,-0.2552,-0.0346,0.9262,-63.980,-84.945,-38.990,1.26,12.1973,17.9100,7.1670,4.3110,2025-06-11T08:51:00.489534
176,-0.2250,-0.0093,0.9013,-67.655,-87.885,-38.955,1.28,12.3478,18.1284,6.5535,4.8703,2025-06-11T08:51:00.840816
177,-0.1850,0.0142,0.8374,-76.055,-67.375,-37.415,1.35,13.2827,19.2540,5.6861,4.5649,2025-06-11T08:51:00.840816
178,-0.1610,0.0268,0.8511,-81.725,-45.010,-32.375,1.32,12.7048,17.8376,6.9106,4.8703,2025-06-11T08:51:00.840816
179,-0.1391,0.0386,0.9091,-74.865,-7.910,-17.920,1.14,12.9649,16.4395,6.5804,4.7057,2025-06-11T08:51:00.840816
180,-0.1625,0.0752,0.9472,-54.915,36.225,-4.235,1.10,13.6070,16.0374,6.6891,4.1970,2025-06-11T08:51:00.841827
181,-0.2923,0.0205,1.0175,-33.600,73.780,3.920,1.10,13.2827,16.5753,7.2834,4.9752,2025-06-11T08:51:00.841827
182,-0.3089,-0.0752,1.0838,-24.675,85.295,7.525,1.15,12.9649,18.1284,6.7164,4.9964,2025-06-11T08:51:00.841827
183,-0.4192,-0.1298,1.1946,-23.310,78.155,-7.350,1.16,13.8268,18.7217,6.6891,5.2556,2025-06-11T08:51:00.841827
184,-0.2982,-0.2181,1.1922,-22.540,50.610,-22.330,1.26,13.3901,11.3228,6.5804,5.0176,2025-06-11T08:51:00.841827
185,-0.2908,-0.1635,1.1624,-20.125,7.070,-32.130,1.26,11.5614,16.2375,6.2367,5.1899,2025-06-11T08:51:00.841827
186,-0.2494,-0.1044,1.1087,-20.370,-22.995,-24.955,1.33,11.9496,18.4230,6.3672,5.2556,2025-06-11T08:51:00.841827
187,-0.2342,-0.1405,1.0268,-9.135,-34.615,-15.785,1.21,12.4490,19.7206,7.5209,5.6631,2025-06-11T08:51:00.841827
188,-0.2250,-0.1532,0.9238,-16.870,-32.690,-9.240,1.21,10.8594,16.5753,6.5535,5.5247,2025-06-11T08:51:00.841827
189,-0.2562,-0.1171,0.9023,-16.310,-3.990,-12.985,1.32,12.1973,16.9879,7.0521,5.5018,2025-06-11T08:51:00.841827
190,-0.2494,-0.1059,0.8779,-15.190,27.125,-15.400,1.33,12.6020,18.7969,7.1670,5.6398,2025-06-11T08:51:00.841827
191,-0.2684,-0.1137,0.9135,-11.270,53.970,-14.245,1.24,12.3983,17.0575,5.3313,5.2776,2025-06-11T08:51:00.841827
192,-0.3050,-0.1274,0.9989,-6.685,66.780,-11.200,1.25,11.2297,17.0575,6.4465,4.5649,2025-06-11T08:51:00.979887
193,-0.3216,-0.1615,1.0887,-5.005,60.865,-12.880,1.30,10.5428,16.1039,7.3127,5.1899,2025-06-11T08:51:00.979887
194,-0.3167,-0.1850,1.1292,-1.505,29.400,-19.565,1.25,11.6575,16.4395,7.2541,5.2336,2025-06-11T08:51:00.979887
195,-0.3016,-0.1947,1.1170,-2.135,-5.565,-20.195,1.27,12.2975,16.7120,6.8269,4.2537,2025-06-11T08:51:00.979887
196,-0.2948,-0.2045,1.0492,-1.750,-35.280,-18.130,1.27,12.7048,18.9483,7.3717,4.5649,2025-06-11T08:51:00.979887
197,-0.2494,-0.1713,0.9721,-0.770,-42.315,-17.815,1.29,11.4183,18.4230,6.4731,4.7465,2025-06-11T08:51:00.979887
198,-0.3070,-0.2201,0.8711,-11.340,-24.500,-18.060,1.30,11.9005,16.0374,6.7439,4.9752,2025-06-11T08:51:00.979887
199,-0.2669,-0.1332,0.8613,-6.300,-4.060,-18.515,1.33,12.0977,17.9825,6.8826,3.7075,2025-06-11T08:51:00.979887
200,-0.2479,-0.1078,0.8901,-13.265,20.055,-10.675,1.25,12.4490,19.7993,6.4998,4.4270,2025-06-11T08:51:00.980953
201,-0.2679,-0.1425,0.9360,-10.430,32.095,-7.700,1.23,10.6776,18.3490,6.7991,4.6854,2025-06-11T08:51:01.148787
202,-0.2752,-0.1396,0.9784,-8.015,29.470,-5.600,1.26,12.1973,18.4973,5.2394,4.6249,2025-06-11T08:51:01.148787
203,-0.2918,-0.1401,1.0121,-7.490,21.140,-3.220,1.25,12.2975,17.4086,6.8269,5.1464,2025-06-11T08:51:01.148787
204,-0.3157,-0.1542,1.0263,-3.500,7.385,-0.875,1.24,11.9988,17.8376,6.4998,5.3665,2025-06-11T08:51:01.148787
205,-0.3235,-0.1810,1.0204,-1.015,0.210,0.035,1.09,11.1362,16.0374,7.0807,4.9964,2025-06-11T08:51:01.148787
206,-0.3362,-0.2025,0.9921,-1.995,-4.340,0.595,1.25,10.6776,18.0553,6.8547,5.1681,2025-06-11T08:51:01.148787
207,-0.3401,-0.2206,0.9687,-2.065,-3.675,0.630,1.29,11.6575,18.2017,7.2834,5.5018,2025-06-11T08:51:01.148787
208,-0.3289,-0.1986,0.9594,-3.885,-2.065,2.415,1.28,11.6094,17.8376,6.5535,4.5450,2025-06-11T08:51:01.148787
209,-0.3094,-0.1879,0.9594,-5.005,-3.325,6.160,1.29,12.3478,16.1039,7.1670,3.6036,2025-06-11T08:51:01.151363
210,-0.3040,-0.1830,0.9477,-6.125,-6.300,8.925,1.29,12.3983,16.5753,7.2541,4.2918,2025-06-11T08:51:01.151363
211,-0.2967,-0.2030,0.9409,-9.625,-8.015,8.505,1.27,13.0174,17.3379,6.8269,4.7261,2025-06-11T08:51:01.151363
212,-0.2908,-0.2157,0.9238,-13.475,-7.385,5.320,1.24,12.9126,18.7969,5.5423,5.0817,2025-06-11T08:51:01.151363
213,-0.2840,-0.2054,0.9204,-17.045,-2.975,3.675,1.24,13.2827,19.3311,5.0811,4.4857,2025-06-11T08:51:01.151363
214,-0.2855,-0.2108,0.9194,-19.775,2.800,3.465,1.20,13.3901,18.2752,6.1851,4.8911,2025-06-11T08:51:01.151363
215,-0.2972,-0.2255,0.9374,-21.350,7.910,2.310,1.28,13.8268,17.8376,7.3422,5.1899,2025-06-11T08:51:01.151363
216,-0.3123,-0.2206,0.9570,-23.835,9.660,-0.070,1.22,13.9937,19.1006,7.3717,5.2776,2025-06-11T08:51:01.151363
217,-0.3309,-0.2147,0.9780,-25.095,9.345,-1.015,1.21,13.5525,17.0575,6.6074,5.3889,2025-06-11T08:51:01.151363
218,-0.3421,-0.2064,0.9936,-23.765,6.300,-1.715,1.21,12.0977,12.8475,6.2367,5.2776,2025-06-11T08:51:01.151363
219,-0.3553,-0.2152,1.0038,-21.490,4.935,-1.645,1.21,11.0434,15.9711,5.2852,5.2117,2025-06-11T08:51:01.151363
220,-0.3528,-0.2084,1.0131,-16.485,3.360,-2.135,1.21,11.2297,17.5507,6.5266,5.2336,2025-06-11T08:51:01.151363
221,-0.3455,-0.1806,1.0146,-10.395,-0.980,-0.665,1.26,12.3478,15.2555,6.7164,5.0389,2025-06-11T08:51:01.151363
222,-0.3353,-0.1732,1.0063,-4.655,-7.210,2.765,1.29,11.3709,16.2375,6.0321,4.4270,2025-06-11T08:51:01.151363
223,-0.3245,-0.2176,0.9653,-0.455,-19.075,3.290,1.13,10.9511,15.6428,6.1594,4.8081,2025-06-11T08:51:01.151363
224,-0.3528,-0.2499,0.9409,-0.945,-23.275,-3.780,1.22,11.4183,17.8376,6.1594,4.9541,2025-06-11T08:51:01.455348
225,-0.3367,-0.2723,0.9077,-8.925,-19.600,-10.535,1.31,12.9649,18.1284,6.4998,5.3889,2025-06-11T08:51:01.455348
226,-0.3284,-0.2328,0.8911,-8.680,-9.835,-18.480,1.31,12.3983,18.0553,6.6891,5.4791,2025-06-11T08:51:01.455348
227,-0.3187,-0.1752,0.9023,-14.280,1.645,-12.845,1.23,11.0434,16.6435,6.7439,4.9964,2025-06-11T08:51:01.455348
228,-0.3074,-0.1957,0.9082,-9.170,12.005,-5.075,1.32,12.3478,16.3720,6.5804,5.2336,2025-06-11T08:51:01.455348
229,-0.3109,-0.2255,0.9589,-10.255,14.770,-0.175,1.28,13.0701,18.7969,6.1851,5.2556,2025-06-11T08:51:01.455348
230,-0.3479,-0.2113,1.0009,-6.370,15.505,-7.315,1.26,12.4998,16.2375,6.8547,5.1899,2025-06-11T08:51:01.455348
231,-0.3245,-0.2826,0.9916,-8.610,8.190,-5.670,1.29,13.2293,18.1284,7.4311,4.3881,2025-06-11T08:51:01.455348
232,-0.3562,-0.3026,1.0063,-2.450,-2.100,-3.220,1.29,12.9126,19.4861,7.5813,4.3881,2025-06-11T08:51:01.455348
233,-0.3484,-0.2752,1.0199,0.315,-3.640,-7.140,1.15,12.9126,17.9825,6.5804,4.7465,2025-06-11T08:51:01.455348
234,-0.3987,-0.3196,0.8760,-11.725,2.380,-23.975,1.24,12.6533,18.4230,6.9952,3.5015,2025-06-11T08:51:01.455348
235,-0.3377,-0.3621,0.9492,-14.105,3.675,-41.580,1.25,12.8083,19.3311,7.2834,4.4270,2025-06-11T08:51:01.455348
236,-0.3021,-0.2991,0.9428,-9.940,6.405,-44.205,0.95,12.5508,17.2675,6.8269,4.8288,2025-06-11T08:51:01.456024
237,-0.0732,-0.2650,0.9321,-11.410,22.435,-51.170,1.00,12.2473,17.1272,6.9952,4.9964,2025-06-11T08:51:01.456024
238,-0.4963,-0.2333,0.8584,-16.800,42.455,-49.980,1.08,13.3363,16.8495,7.0521,5.4791,2025-06-11T08:51:01.456024
239,-0.2079,-0.1815,0.9614,-6.020,32.620,-18.795,1.18,11.5614,15.0646,5.9567,5.4338,2025-06-11T08:51:01.560519
240,-0.3065,-0.1249,0.9984,6.895,22.435,-1.575,1.20,12.0482,17.5507,6.2109,5.2117,2025-06-11T08:51:01.560519
241,-0.3314,-0.1840,1.0482,11.165,10.430,13.965,1.32,12.6020,18.5718,6.4998,5.2776,2025-06-11T08:51:01.560519
242,-0.3792,-0.2962,1.0180,21.525,-16.905,13.370,1.23,12.4490,15.9711,7.3127,5.7098,2025-06-11T08:51:01.560519
243,-0.3655,-0.3270,0.9897,22.645,-28.910,8.715,1.19,12.8604,15.7080,6.7439,5.2336,2025-06-11T08:51:01.560519
244,-0.3680,-0.3514,0.9418,17.745,-34.860,0.805,1.30,13.3363,17.8376,6.5535,5.1248,2025-06-11T08:51:01.560519
245,-0.3406,-0.3045,0.9277,18.935,-31.710,-7.910,1.33,13.3363,19.4861,6.7164,5.5705,2025-06-11T08:51:01.560519
246,-0.3367,-0.2606,0.8667,6.090,-23.170,-10.325,1.05,13.2293,17.8376,6.2887,5.3442,2025-06-11T08:51:01.560519
247,-0.3118,-0.2660,0.8657,9.170,-6.370,-14.525,1.27,13.2827,17.7655,4.1756,5.3442,2025-06-11T08:51:01.561520
248,-0.3104,-0.2513,0.8589,-19.880,2.695,-11.690,1.17,13.4982,16.7120,5.9818,5.2556,2025-06-11T08:51:01.561520
249,-0.3157,-0.2860,0.8716,4.865,6.230,-8.995,1.19,10.5876,17.4086,6.9952,5.4564,2025-06-11T08:51:01.561520
250,-0.3030,-0.2879,0.9252,-16.485,7.700,-4.305,1.23,11.8028,16.2375,7.4014,4.4075,2025-06-11T08:51:01.561520
251,-0.3245,-0.2767,0.9438,-12.775,-0.210,-0.980,1.24,12.5508,18.2752,7.6117,4.8703,2025-06-11T08:51:01.561520
252,-0.3182,-0.2567,0.9736,-3.850,1.715,5.565,1.17,12.1474,18.4230,6.4731,4.8703,2025-06-11T08:51:01.561520
253,-0.3201,-0.2743,0.9677,-12.110,-12.110,9.345,1.21,11.1829,17.3379,7.3127,4.9330,2025-06-11T08:51:01.891673
254,-0.3333,-0.2796,0.9687,-9.135,-16.625,10.605,1.32,12.7565,17.4795,5.8326,4.5450,2025-06-11T08:51:01.891673
255,-0.3465,-0.2913,0.9682,-8.855,-11.305,12.110,1.26,12.9126,16.3046,6.2109,4.9121,2025-06-11T08:51:01.891673
256,-0.3592,-0.3030,0.9521,-4.900,-8.995,10.150,1.15,12.9126,16.5073,6.4465,5.0389,2025-06-11T08:51:01.892704
257,-0.3772,-0.3016,0.9740,-5.775,-6.650,7.070,1.16,13.6617,17.4795,7.4909,5.1032,2025-06-11T08:51:01.892704
258,-0.3567,-0.2865,0.9950,-1.085,-6.125,2.065,1.24,11.8028,16.1039,5.9068,5.3665,2025-06-11T08:51:01.892704
259,-0.3411,-0.2372,1.0028,2.485,-11.585,-3.185,1.19,12.2473,16.3720,6.8826,4.5649,2025-06-11T08:51:01.892704
260,-0.3030,-0.2064,0.9911,10.325,-21.455,-4.865,1.23,12.8604,19.0243,6.9952,4.0296,2025-06-11T08:51:01.892704
261,-0.2811,-0.1810,0.9721,15.750,-26.460,-1.295,1.26,13.5525,19.9575,6.7164,4.7465,2025-06-11T08:51:01.892704
262,-0.2640,-0.1874,0.9423,20.895,-27.615,2.520,1.10,13.4982,15.2555,6.7164,4.3302,2025-06-11T08:51:01.892704
263,-0.2645,-0.2089,0.9170,23.135,-22.785,6.090,1.18,13.3901,13.8356,5.9818,3.9930,2025-06-11T08:51:01.892704
264,-0.2650,-0.2323,0.9038,21.945,-13.615,7.245,1.26,12.9126,17.8376,6.3672,4.4465,2025-06-11T08:51:01.892704
265,-0.2791,-0.2562,0.8989,19.775,-2.380,7.490,1.21,12.5508,18.3490,5.9567,4.8703,2025-06-11T08:51:01.892704
266,-0.2821,-0.2718,0.9116,14.840,4.900,6.720,1.25,11.5135,16.5073,7.2834,5.1464,2025-06-11T08:51:01.892704
267,-0.3016,-0.2704,0.9423,11.900,10.535,3.045,1.32,12.4490,15.1917,7.2250,5.3442,2025-06-11T08:51:01.892704
268,-0.3026,-0.2664,0.9584,8.505,8.890,0.035,1.31,12.1474,16.2375,7.7034,5.2556,2025-06-11T08:51:02.005033
269,-0.3074,-0.2674,0.9584,6.930,4.375,-2.030,1.24,11.1362,15.9050,5.2166,5.4113,2025-06-11T08:51:02.005033
270,-0.3050,-0.2542,0.9496,5.390,-1.995,-1.960,1.28,12.2473,14.8127,6.2627,5.2117,2025-06-11T08:51:02.005033
271,-0.3084,-0.2611,0.9374,1.260,-4.060,-1.645,1.26,10.9972,17.3379,6.5535,4.4075,2025-06-11T08:51:02.005033
272,-0.3118,-0.2782,0.9267,-0.770,-1.680,-2.485,1.08,11.7058,17.5507,6.7439,4.6249,2025-06-11T08:51:02.005033
273,-0.3089,-0.2669,0.9179,-5.915,2.380,-3.710,1.11,12.4490,18.7969,6.8269,4.7670,2025-06-11T08:51:02.005033
274,-0.2977,-0.2303,0.9170,-8.470,6.755,-4.655,1.19,12.7565,17.2675,7.3127,5.0176,2025-06-11T08:51:02.005033
275,-0.2899,-0.2050,0.9189,-9.730,12.880,-3.430,1.19,12.8604,18.4973,5.4478,5.1464,2025-06-11T08:51:02.005033
276,-0.2996,-0.1952,0.9267,-9.485,18.340,-0.035,1.25,12.8604,16.7120,6.1083,4.6048,2025-06-11T08:51:02.005033
277,-0.3167,-0.2181,0.9414,-8.365,23.520,2.170,1.28,13.1230,18.0553,7.1670,5.2336,2025-06-11T08:51:02.005033
278,-0.3401,-0.2513,0.9560,-7.560,23.905,1.960,1.24,11.1362,17.1972,6.7439,4.8703,2025-06-11T08:51:02.005033
279,-0.3582,-0.2816,0.9750,-8.645,22.785,-0.140,1.12,11.8028,17.4086,6.9106,5.2117,2025-06-11T08:51:02.005033
280,-0.3743,-0.2977,0.9872,-7.770,18.340,-3.080,1.27,12.5508,19.4085,5.6861,5.2556,2025-06-11T08:51:02.005033
281,-0.3704,-0.2987,0.9823,-8.575,10.920,-4.515,1.25,10.9972,16.5073,6.3410,4.5450,2025-06-11T08:51:02.005033
282,-0.3694,-0.2762,0.9745,-7.875,1.715,-4.620,1.30,12.0977,17.7655,6.2887,4.7875,2025-06-11T08:51:02.005033
283,-0.3640,-0.2557,0.9697,-6.965,-2.065,-2.310,1.27,11.3709,16.9879,7.0236,5.2776,2025-06-11T08:51:02.006085
284,-0.3797,-0.2660,0.9633,-5.425,-2.100,1.435,1.24,12.1474,13.5986,5.8572,4.4661,2025-06-11T08:51:02.006085
285,-0.3650,-0.2826,0.9736,-4.585,-2.695,4.445,1.23,12.4998,17.4795,5.5661,4.7875,2025-06-11T08:51:02.274720
286,-0.3645,-0.2733,0.9711,-2.940,-4.340,3.605,1.25,12.7565,17.1272,6.5804,4.9752,2025-06-11T08:51:02.275738
287,-0.3406,-0.2635,0.9692,-2.520,-6.790,3.500,1.28,12.7048,17.3379,6.7991,5.0176,2025-06-11T08:51:02.275738
288,-0.3231,-0.2616,0.9526,-2.065,-14.350,6.160,1.28,12.6533,15.2555,6.9106,4.7261,2025-06-11T08:51:02.275738
289,-0.3274,-0.2801,0.9272,-4.200,-19.180,8.085,1.26,11.4659,18.4230,6.5804,5.1032,2025-06-11T08:51:02.275738
290,-0.3299,-0.2987,0.9091,-7.210,-18.445,5.775,1.25,12.2473,13.8356,6.6346,5.2117,2025-06-11T08:51:02.275738
291,-0.3250,-0.2977,0.8960,-12.040,-12.845,1.785,1.26,12.4490,17.4086,6.3148,4.5252,2025-06-11T08:51:02.275738
292,-0.3196,-0.2845,0.8974,-15.750,-5.355,-0.420,1.32,12.9649,16.8495,6.2887,4.9330,2025-06-11T08:51:02.275738
293,-0.3211,-0.2601,0.9150,-16.555,1.925,1.015,1.25,11.9988,18.1284,6.5535,5.3442,2025-06-11T08:51:02.275738
294,-0.3060,-0.2396,0.9438,-14.175,2.415,3.010,1.16,12.4490,18.2752,7.3127,5.2997,2025-06-11T08:51:02.276730
295,-0.2996,-0.2235,0.9604,-11.865,-5.635,6.160,1.28,12.3983,17.2675,6.4200,4.9752,2025-06-11T08:51:02.276730
296,-0.3065,-0.2211,0.9697,-5.670,-12.180,8.890,1.25,13.0174,17.9100,7.6422,5.5475,2025-06-11T08:51:02.276730
297,-0.3338,-0.2235,0.9706,-1.015,-14.035,10.220,1.19,13.1761,16.7120,7.3717,5.1681,2025-06-11T08:51:02.276730
298,-0.3645,-0.2401,0.9711,2.905,-11.725,9.415,1.08,11.5614,18.2752,6.4200,5.1248,2025-06-11T08:51:02.379291
299,-0.3806,-0.2596,0.9828,8.645,-5.250,5.495,1.07,12.7048,17.8376,7.1959,5.3889,2025-06-11T08:51:02.379291
300,-0.3587,-0.2411,0.9926,13.090,-3.010,4.025,1.17,12.8083,18.0553,6.7439,5.2117,2025-06-11T08:51:02.379291
301,-0.3245,-0.2040,0.9950,18.445,-11.655,5.915,1.22,12.8083,18.4230,7.0236,4.8081,2025-06-11T08:51:02.379291
302,-0.2869,-0.1937,0.9726,22.120,-23.065,10.850,1.31,11.6575,18.0553,7.1959,4.2728,2025-06-11T08:51:02.379291
303,-0.2952,-0.1981,0.9355,26.775,-32.515,15.785,1.28,10.6776,17.7655,7.4909,4.5649,2025-06-11T08:51:02.379291
304,-0.3270,-0.2508,0.9067,24.920,-31.255,16.590,1.23,10.3208,16.1039,7.2250,4.7261,2025-06-11T08:51:02.380289
305,-0.3216,-0.2894,0.8564,18.095,-9.310,11.620,1.30,11.6094,18.3490,6.9952,4.2918,2025-06-11T08:51:02.380289
306,-0.3235,-0.2660,0.8398,13.335,14.350,5.705,1.27,12.6020,18.7217,5.3082,4.8703,2025-06-11T08:51:02.380289
307,-0.3060,-0.2381,0.8418,5.635,25.410,12.110,1.22,11.9005,16.9879,6.6891,4.8495,2025-06-11T08:51:02.380289
308,-0.3167,-0.2357,0.8721,-1.925,21.070,20.195,1.28,12.5508,19.0243,7.0521,4.4857,2025-06-11T08:51:02.380289
309,-0.3367,-0.2440,0.9384,-7.035,10.990,26.635,1.25,11.7058,17.1972,6.8826,4.7670,2025-06-11T08:51:02.380289
310,-0.4534,-0.5065,1.3259,-6.545,-43.960,11.760,1.28,12.2975,17.9825,6.2367,4.8288,2025-06-11T08:51:02.380289
311,-0.3977,-0.2908,1.1278,-11.410,-45.780,21.350,1.31,12.4998,16.7120,7.0236,4.9964,2025-06-11T08:51:02.380289
312,-0.3972,-0.2362,0.8711,-22.785,-28.175,16.660,1.32,12.4490,19.2540,6.8269,5.1248,2025-06-11T08:51:02.380289
313,-0.4070,-0.4119,0.7227,-26.355,-39.830,4.655,1.26,12.9126,13.3063,6.9106,5.1899,2025-06-11T08:51:02.826008
314,-0.3782,-0.3021,0.8555,-31.045,-10.395,-5.390,1.30,13.0174,16.1039,6.6074,4.9541,2025-06-11T08:51:02.826008
315,-0.1708,-0.1771,1.4113,-11.935,-26.145,-0.035,1.36,13.3363,16.5073,7.3127,4.8495,2025-06-11T08:51:02.826008
316,-0.2806,-0.0712,1.2478,-32.620,-35.385,24.150,1.31,13.6617,17.8376,6.9387,4.3494,2025-06-11T08:51:02.826999
317,-0.3021,-0.2079,0.9536,-12.950,-26.250,33.215,1.18,13.1230,16.9186,7.2250,4.5450,2025-06-11T08:51:02.826999
318,-0.3538,-0.2630,0.8057,-1.330,-19.250,33.460,1.28,13.6070,11.1147,6.4998,4.8288,2025-06-11T08:51:02.826999
319,-0.3167,-0.2679,0.8750,6.020,3.885,29.155,1.32,13.3901,15.1917,7.2834,4.2918,2025-06-11T08:51:02.826999
320,-0.3636,-0.2752,1.0585,-2.520,-10.745,19.775,1.28,11.5614,16.1039,7.1381,4.4270,2025-06-11T08:51:02.826999
321,-0.3582,-0.2621,1.0102,0.315,-8.330,17.430,1.13,12.8604,16.3720,6.8826,4.1970,2025-06-11T08:51:02.826999
322,-0.3806,-0.2416,0.9926,16.695,7.875,22.785,1.25,12.9126,16.9186,5.6379,4.9752,2025-06-11T08:51:02.826999
323,-0.3728,-0.2196,1.0512,27.090,-13.685,38.465,1.25,12.9126,16.8495,6.4465,4.3302,2025-06-11T08:51:02.826999
324,-0.3924,-0.3148,1.0687,16.870,-46.865,33.005,1.27,13.2827,12.9042,5.7346,4.9330,2025-06-11T08:51:02.826999
325,-0.3972,-0.3821,1.0663,15.540,-76.230,12.915,1.24,13.0701,13.0182,7.5209,5.3219,2025-06-11T08:51:02.827997
326,-0.3733,-0.3640,1.0053,5.215,-83.650,-10.920,1.25,12.6533,14.7503,7.4311,5.0603,2025-06-11T08:51:02.827997
327,-0.2952,-0.3470,0.8847,-10.290,-82.845,-17.780,1.27,13.0174,17.9825,7.2250,5.1248,2025-06-11T08:51:02.827997
328,-0.2333,-0.3235,0.9462,-0.140,-51.660,-22.855,1.34,13.7165,16.9879,7.0236,5.3665,2025-06-11T08:51:02.827997
329,-0.2943,-0.1874,1.0058,9.030,-6.020,-7.245,1.32,12.7048,16.4395,6.5266,4.4857,2025-06-11T08:51:02.827997
330,-0.2982,-0.1552,1.1473,39.550,26.530,25.165,1.26,13.1230,16.8495,6.7164,4.8911,2025-06-11T08:51:02.827997
331,-0.4387,-0.2372,1.4821,55.720,49.525,49.945,1.26,13.1761,18.5718,7.2834,5.2556,2025-06-11T08:51:02.827997
332,-0.6808,-0.2845,1.7983,96.530,24.605,66.010,1.23,13.5525,17.0575,7.6422,5.4564,2025-06-11T08:51:02.827997
333,-0.8169,-0.1981,1.9974,137.865,-54.075,80.745,1.26,12.9649,16.3720,6.9387,5.4338,2025-06-11T08:51:02.827997
334,-0.8296,-0.0878,2.0808,195.265,-247.100,90.545,1.31,12.9126,17.5507,7.2250,4.7875,2025-06-11T08:51:02.827997
335,-0.7017,-0.0688,2.0306,287.560,-506.345,114.730,1.31,13.4982,19.3311,7.2834,4.9964,2025-06-11T08:51:02.827997
336,-0.6246,0.0010,1.1380,397.950,-643.440,156.590,1.13,13.6617,16.2375,6.6074,4.2348,2025-06-11T08:51:02.827997
337,-0.3772,-0.0366,0.5963,352.765,-693.175,191.765,1.12,13.3363,13.0755,6.2627,4.5848,2025-06-11T08:51:02.827997
338,-0.0483,-0.1586,-0.0542,323.645,-614.495,213.395,1.26,13.0701,17.1272,6.9106,5.0603,2025-06-11T08:51:02.827997
339,0.2513,-0.3245,-0.5285,219.380,-457.625,224.105,1.25,13.2827,16.7806,7.1381,5.1899,2025-06-11T08:51:02.827997
340,0.5617,-0.6373,-0.7222,118.335,-281.120,167.825,1.10,12.8083,17.4086,7.0236,4.9752,2025-06-11T08:51:02.827997
341,0.6886,-0.7032,-1.1214,-26.845,-184.765,104.405,1.19,12.0977,18.1284,6.8269,5.1464,2025-06-11T08:51:02.827997
342,0.8725,-0.7383,-1.2747,-209.685,-94.535,25.025,1.24,12.1973,17.5507,6.5804,4.4075,2025-06-11T08:51:02.827997
343,0.9140,-0.4470,-1.3152,-355.320,20.125,-59.640,1.25,10.9972,17.6937,6.0069,3.8844,2025-06-11T08:51:02.827997
344,0.8628,-0.1288,-1.2898,-496.650,234.640,-97.090,1.24,11.1829,18.9483,6.7991,4.4075,2025-06-11T08:51:02.836874
345,0.4880,-0.0488,-1.0321,-539.560,520.870,-105.385,1.20,11.9005,17.1272,7.5511,4.9330,2025-06-11T08:51:02.836874
346,-0.2411,-0.5329,-0.3831,-534.450,745.605,-63.560,1.17,10.7229,18.1284,6.9669,4.9330,2025-06-11T08:51:02.993722
347,-2.0706,-0.7579,0.3548,-426.090,1006.565,24.535,1.26,11.6094,17.2675,7.0521,4.8288,2025-06-11T08:51:02.993722
348,-3.7996,0.2728,2.9124,135.660,1146.740,388.395,1.14,12.4998,17.6937,5.2394,5.2997,2025-06-11T08:51:02.993722
349,-7.0487,1.3025,7.3912,27.510,1144.990,303.975,1.21,10.8594,17.6221,5.0364,5.3665,2025-06-11T08:51:02.994724
350,-3.0241,0.5968,4.3012,-260.120,-626.990,212.380,1.26,11.5135,18.4230,6.0069,5.1681,2025-06-11T08:51:02.994724
351,-0.0288,-1.4508,4.5062,236.110,-431.270,236.950,1.32,12.6533,14.5640,6.6618,5.3889,2025-06-11T08:51:03.161943
352,-2.6025,-0.7232,1.3981,243.775,-1146.740,53.480,1.32,12.6020,17.4086,7.2541,5.2117,2025-06-11T08:51:03.161943
353,-0.9111,-0.4011,0.5519,535.045,-1069.285,126.735,1.33,12.8083,18.5718,6.4200,4.9541,2025-06-11T08:51:03.161943
354,-1.0219,-0.0742,0.1210,414.750,-874.580,238.945,1.21,13.7165,17.9100,5.4244,5.1899,2025-06-11T08:51:03.161943
355,-0.4343,-0.7115,-1.2820,20.055,-769.440,271.390,1.24,13.7165,18.6466,6.7164,5.4791,2025-06-11T08:51:03.161943
356,-0.1093,-0.9931,-2.1238,23.135,-435.575,174.300,1.27,13.3901,17.1972,7.3422,4.6450,2025-06-11T08:51:03.161943
357,0.6076,-1.1297,-2.4493,-231.245,-361.935,109.130,1.27,13.5525,18.2752,6.5266,4.9121,2025-06-11T08:51:03.248414
358,0.9521,-0.6149,-2.3814,-265.545,-111.405,-4.130,1.29,13.5525,17.1972,7.3422,4.3881,2025-06-11T08:51:03.248414
359,1.1204,-0.2996,-2.0760,-293.930,198.275,-83.195,1.29,11.6094,16.7120,7.1381,4.5054,2025-06-11T08:51:03.248414
360,0.8228,-0.1854,-1.6002,-332.815,558.635,-159.705,1.27,12.3983,17.5507,7.2541,3.9748,2025-06-11T08:51:03.248414
361,0.1362,-0.3753,-0.9736,-507.780,768.845,-151.095,1.32,12.6020,18.4973,6.7164,4.6048,2025-06-11T08:51:03.248414
362,-1.0848,-0.3704,-0.2933,-549.955,947.100,-69.160,1.27,12.5508,17.4795,7.0807,4.8911,2025-06-11T08:51:03.248414
363,-2.5771,-0.0161,1.6753,-460.040,970.200,168.280,1.25,12.5508,13.6576,6.9387,4.7670,2025-06-11T08:51:03.248414
364,-3.8313,0.1401,2.6791,339.255,1146.740,327.670,1.12,12.0482,16.3720,7.2250,4.3302,2025-06-11T08:51:03.248414
365,-4.8488,0.2391,4.3046,-72.835,1016.855,199.990,1.19,12.2975,16.4395,7.3422,4.2348,2025-06-11T08:51:03.249481
366,-2.6938,-0.7647,1.8271,-112.245,-532.875,-16.695,1.25,12.2473,18.4973,6.9669,4.7670,2025-06-11T08:51:03.249481
367,-0.4333,0.1771,1.7470,186.795,-540.260,21.980,1.30,12.7048,18.2752,6.5804,4.9752,2025-06-11T08:51:03.249481
368,-1.4596,-0.5700,0.8481,-120.820,-1071.700,-201.985,1.28,12.9649,19.4085,5.4244,5.2117,2025-06-11T08:51:03.249481
369,-0.3455,-0.3045,1.2215,195.790,-605.535,-45.115,1.25,11.8028,16.4395,6.4998,5.4791,2025-06-11T08:51:03.249481
370,-0.1552,-0.2176,0.3933,58.450,-454.685,-17.220,1.30,12.7565,18.9483,6.4731,5.0389,2025-06-11T08:51:03.249481
371,0.0015,-0.2318,0.0473,-102.200,-477.295,-50.050,1.31,13.2827,11.7460,6.9387,5.4564,2025-06-11T08:51:03.249481
372,0.2655,-0.2601,-0.2137,127.295,-223.405,-36.680,1.26,12.8083,14.8127,5.4244,5.2776,2025-06-11T08:51:03.249481
373,0.4612,-0.0947,-0.2728,-54.075,-69.615,-24.990,1.20,12.8083,16.5753,5.9567,5.2556,2025-06-11T08:51:03.503129
374,0.4719,-0.0166,-0.3201,-52.815,110.915,-31.185,0.99,13.2293,18.2752,6.1338,5.4791,2025-06-11T08:51:03.503129
375,0.4016,0.1732,0.0991,-152.915,206.955,-13.335,1.15,12.5508,18.4973,7.0521,5.5705,2025-06-11T08:51:03.503129
376,0.2352,0.1269,0.6642,-69.090,326.200,17.535,1.26,12.7048,17.7655,6.7991,5.4564,2025-06-11T08:51:03.503129
377,0.0278,-0.0166,0.9623,-74.410,373.485,36.400,1.25,12.9649,19.1772,7.0807,4.4465,2025-06-11T08:51:03.503129
378,-0.0834,-0.0678,1.2410,-68.460,330.540,35.665,1.24,13.0701,18.1284,6.5266,4.8703,2025-06-11T08:51:03.503129
379,-0.1669,-0.1332,1.4172,-70.735,208.005,12.320,1.26,10.0587,17.2675,7.1670,4.9752,2025-06-11T08:51:03.503129
380,-0.2786,-0.1430,1.5875,-34.020,98.735,-3.920,1.25,9.8439,18.1284,5.2394,5.1464,2025-06-11T08:51:03.503129
381,-0.2679,-0.1635,1.5148,-41.965,12.390,-10.500,1.23,11.2297,18.8725,6.9106,5.2997,2025-06-11T08:51:03.503129
382,-0.2840,-0.1728,1.3630,-41.475,-34.930,-10.115,1.25,11.3709,18.8725,7.3127,5.0389,2025-06-11T08:51:03.504194
383,-0.2869,-0.2274,1.1893,-27.510,-49.210,-7.035,1.25,12.1973,18.4230,6.8269,5.2776,2025-06-11T08:51:03.504194
384,-0.2996,-0.2064,1.1873,-12.530,-28.175,-1.120,1.23,12.4490,16.3046,7.3127,5.4113,2025-06-11T08:51:03.504194
385,-0.2767,-0.1825,1.2259,5.075,22.680,8.960,1.06,12.1474,18.2017,6.0069,5.1248,2025-06-11T08:51:03.504194
386,-0.2367,-0.2123,1.2600,13.580,20.475,12.390,1.25,12.4490,13.6576,4.8388,5.1248,2025-06-11T08:51:03.504194
387,-0.1664,-0.2601,1.2337,6.580,-25.760,1.505,1.30,11.6575,14.2573,6.0321,5.3219,2025-06-11T08:51:03.608353
388,-0.1205,-0.2406,1.1444,-7.980,-77.105,-14.350,1.29,10.9052,13.5986,7.2834,5.2997,2025-06-11T08:51:03.608353
389,-0.0722,-0.1981,0.9877,-11.165,-92.645,-19.705,1.29,10.3649,15.6428,7.0236,5.0389,2025-06-11T08:51:03.608353
390,-0.0503,-0.1850,0.8711,-13.090,-77.210,-15.750,1.29,11.6094,18.0553,4.4173,5.1032,2025-06-11T08:51:03.609368
391,-0.0195,-0.1981,0.7784,-7.735,-44.380,-11.130,1.11,12.3983,17.9825,6.0321,5.0817,2025-06-11T08:51:03.609368
392,-0.0015,-0.1728,0.7950,-6.475,2.660,-7.420,1.21,12.7048,16.9186,5.5661,4.9541,2025-06-11T08:51:03.609368
393,-0.0005,-0.1244,0.8696,-4.270,33.845,-4.585,1.14,13.0701,17.1272,6.6891,4.9541,2025-06-11T08:51:03.609368
394,-0.0268,-0.1347,0.9462,-2.590,51.310,-0.630,1.27,13.0701,14.9383,7.1670,5.2776,2025-06-11T08:51:03.609368
395,-0.0693,-0.1854,1.0126,-2.310,51.065,0.280,1.24,12.4490,13.8953,6.3148,5.3442,2025-06-11T08:51:03.609368
396,-0.1235,-0.2660,1.0272,-7.035,38.815,-9.590,1.28,11.6575,16.1706,6.9952,3.8131,2025-06-11T08:51:03.609368
397,-0.1874,-0.3045,1.0360,-16.380,33.985,-29.050,1.24,12.4490,19.3311,7.7650,4.6854,2025-06-11T08:51:03.609368
398,-0.1552,-0.3001,1.0102,-28.315,28.455,-40.390,1.24,12.6020,17.3379,6.8826,4.9121,2025-06-11T08:51:03.609368
399,-0.1630,-0.2835,0.9638,-33.320,30.100,-49.875,1.25,12.3478,18.4973,7.2541,4.7261,2025-06-11T08:51:03.609368
400,-0.1625,-0.3270,0.8696,-54.845,38.570,-61.740,1.25,12.8083,17.3379,7.7960,5.2336,2025-06-11T08:51:03.610360
401,-0.1737,-0.3777,0.7989,-76.510,57.785,-79.100,1.29,12.7565,17.9825,6.7991,5.3889,2025-06-11T08:51:03.610360
402,-0.1381,-0.2894,0.8286,-82.810,83.440,-88.550,1.09,12.4490,15.9711,7.2250,5.3665,2025-06-11T08:51:03.657854
403,0.0664,0.0102,1.0541,-60.200,113.960,-78.960,1.18,13.2827,18.2752,7.1094,4.5848,2025-06-11T08:51:03.657854
404,-0.1708,-0.0020,1.0960,-52.185,144.585,-45.885,1.15,13.0701,16.9186,6.2109,4.9121,2025-06-11T08:51:03.657854
405,-0.1757,-0.0346,1.1263,-32.760,152.810,-24.605,1.24,11.2297,17.6937,6.7715,4.9121,2025-06-11T08:51:03.835711
406,-0.3304,-0.3001,1.1531,-22.505,117.075,-12.215,1.20,12.8604,14.0152,6.9669,5.1248,2025-06-11T08:51:03.835711
407,-0.3933,-0.4451,1.2117,-5.810,70.945,-14.420,1.26,13.1761,16.8495,7.2250,5.3665,2025-06-11T08:51:03.835711
408,-0.3845,-0.4163,1.2088,-14.455,35.455,-22.855,1.27,12.7565,16.9879,6.4731,5.2556,2025-06-11T08:51:03.835711
409,-0.3260,-0.3362,1.0858,-12.390,3.535,-22.015,1.23,13.1230,16.6435,7.1670,5.4564,2025-06-11T08:51:03.835711
410,-0.2948,-0.3255,1.0209,-3.465,-25.655,-17.745,1.26,13.0174,18.3490,6.5266,5.0389,2025-06-11T08:51:03.835711
411,-0.2684,-0.3270,0.9472,0.945,-31.780,-14.385,1.30,12.7565,15.6428,6.9106,4.9121,2025-06-11T08:51:03.835711
412,-0.2538,-0.3260,0.9091,5.355,-20.475,-8.575,1.13,13.3901,16.7806,4.3561,5.2117,2025-06-11T08:51:03.835711
413,-0.2640,-0.2933,0.8965,0.525,-7.770,-4.585,1.09,13.2293,17.9825,6.2627,5.4791,2025-06-11T08:51:03.835711
414,-0.3831,-0.2011,1.0277,13.300,-7.700,6.335,1.17,12.8083,17.4086,6.7439,5.1681,2025-06-11T08:51:03.835711
415,-0.0498,-0.3294,1.0243,43.855,-17.535,10.815,1.15,12.6020,18.4973,7.3422,5.3442,2025-06-11T08:51:03.836777
416,-0.3172,-0.3743,1.0248,-2.485,-6.790,-4.060,1.25,13.0701,15.8391,6.5266,5.3219,2025-06-11T08:51:03.836777
417,-0.2089,-0.2962,0.9355,3.430,-33.880,-7.840,1.25,13.0701,14.0755,7.0521,5.4791,2025-06-11T08:51:04.219637
418,-0.1898,-0.2479,0.9106,36.050,-47.215,-4.025,1.11,12.8083,17.1972,5.5185,5.2776,2025-06-11T08:51:04.219637
419,-0.2181,-0.2391,0.9306,9.975,-25.270,8.015,1.15,13.0701,18.5718,6.9952,5.4338,2025-06-11T08:51:04.219637
420,-0.2294,-0.2313,0.9228,33.285,-21.245,7.735,1.06,13.1761,19.9575,6.5266,5.3442,2025-06-11T08:51:04.219637
421,-0.1996,-0.2562,0.9472,52.290,-27.020,8.855,1.17,11.4183,18.9483,6.3410,5.5475,2025-06-11T08:51:04.219637
422,-0.4607,-0.0483,0.9726,44.205,-18.060,26.005,1.21,11.8028,17.2675,7.3717,5.2997,2025-06-11T08:51:04.219637
423,-0.3684,-0.3172,0.9921,38.605,-18.760,76.370,1.22,11.9005,18.8725,7.3127,5.2556,2025-06-11T08:51:04.219637
424,-0.2137,-0.3040,1.0887,66.220,-51.695,76.755,1.25,12.2975,18.1284,7.1094,5.0389,2025-06-11T08:51:04.219637
425,-0.1850,-0.3558,1.0716,51.170,-97.790,52.920,1.24,11.0434,18.2752,5.1938,4.9752,2025-06-11T08:51:04.219637
426,-0.2269,-0.3831,1.0634,51.170,-96.915,11.375,1.22,10.4981,18.1284,6.5804,5.2336,2025-06-11T08:51:04.220684
427,-0.2259,-0.3196,1.0077,33.810,-69.160,-7.840,1.24,11.2766,18.0553,5.8820,4.4661,2025-06-11T08:51:04.220684
428,-0.1889,-0.2206,0.8252,39.970,-50.295,-15.330,1.25,11.8516,13.5986,5.5661,4.9330,2025-06-11T08:51:04.220684
429,-0.2006,-0.2601,0.8930,35.280,-9.555,-22.575,1.25,11.9005,17.4795,5.3777,4.8495,2025-06-11T08:51:04.220684
430,-0.1659,-0.2533,0.9179,41.790,17.185,-32.935,1.21,11.0434,16.4395,6.3672,4.9121,2025-06-11T08:51:04.220684
431,-0.2089,-0.1381,0.9140,8.995,30.135,-39.760,1.29,11.6094,17.2675,6.2109,4.8495,2025-06-11T08:51:04.270164
432,-0.3753,-0.0649,1.0092,9.135,13.510,-21.350,1.32,11.9005,17.7655,5.1260,5.1681,2025-06-11T08:51:04.270164
433,-0.1874,-0.1230,1.0551,5.705,21.980,-6.545,1.27,12.6020,17.5507,5.9818,4.9964,2025-06-11T08:51:04.270164
434,-0.1322,-0.1913,1.0468,18.445,35.420,-6.615,0.99,12.8604,18.4230,6.4465,4.9330,2025-06-11T08:51:04.270164
435,-0.1571,-0.1918,1.0258,5.320,35.700,-15.085,1.15,12.7048,18.6466,6.3672,5.1032,2025-06-11T08:51:04.270164
436,-0.1459,-0.1523,1.0258,-1.365,38.675,-21.315,1.23,13.2827,18.5718,6.7991,5.3442,2025-06-11T08:51:04.270164
437,-0.1884,-0.1913,1.0682,-5.670,21.280,-19.250,0.97,12.0977,18.0553,5.4010,5.3665,2025-06-11T08:51:04.270164
438,-0.2020,-0.1279,0.9477,7.490,26.985,-10.465,1.11,11.3237,16.5073,6.1851,5.0817,2025-06-11T08:51:04.271230
439,-0.2216,-0.1640,0.9296,-5.145,44.030,-5.565,0.94,11.0897,17.9100,7.2250,4.5252,2025-06-11T08:51:04.271230
440,-0.2533,-0.2015,0.9218,-36.400,66.150,-9.800,1.17,12.2975,16.7120,7.1670,5.1681,2025-06-11T08:51:04.271230
441,-0.2181,-0.2064,0.9277,-16.660,73.885,-26.985,1.20,12.3478,18.4230,6.7164,5.2776,2025-06-11T08:51:04.271230
442,-0.3631,-0.2386,0.9736,-3.395,86.275,-39.935,1.21,11.0897,15.7080,6.8547,4.3494,2025-06-11T08:51:04.271230
443,-0.4587,-0.2738,0.9316,-10.360,74.655,-41.930,1.21,10.2329,18.4230,7.0521,4.8081,2025-06-11T08:51:04.271230
444,-0.2001,-0.2411,1.0224,-2.485,67.620,-35.000,1.25,11.2297,16.7806,7.5813,4.2348,2025-06-11T08:51:04.271230
445,-0.1601,-0.2176,1.0751,-3.675,19.600,-35.490,1.27,11.9496,14.2573,7.1959,4.8081,2025-06-11T08:51:04.271230
446,-0.3709,-0.1752,1.0838,0.035,-10.430,-32.550,1.31,12.2975,15.5777,7.5209,5.0389,2025-06-11T08:51:04.271230
447,-0.3445,-0.2601,1.0341,-1.190,-33.565,-35.665,1.24,13.0174,17.7655,7.5209,4.9121,2025-06-11T08:51:04.427641
448,-0.3392,-0.2542,0.9911,9.135,-38.290,-49.315,1.16,13.3363,16.6435,7.3717,5.1899,2025-06-11T08:51:04.427641
449,-0.4358,-0.1713,0.9740,5.880,-19.215,-62.685,1.19,13.1230,18.3490,6.4200,5.0603,2025-06-11T08:51:04.427641
450,-0.3719,0.0083,0.8486,22.960,-11.620,-47.565,1.25,13.2827,17.0575,7.0807,5.2556,2025-06-11T08:51:04.427641
451,-0.1957,-0.0961,0.8794,19.810,-4.165,-38.010,1.14,11.5135,17.0575,7.4909,5.0603,2025-06-11T08:51:04.427641
452,0.5324,-0.5231,0.9248,0.560,-23.030,-48.265,1.26,10.9052,18.1284,6.6346,5.1032,2025-06-11T08:51:04.427641
453,-0.5714,-0.1976,1.0009,20.475,-14.910,-50.365,1.26,12.0977,17.8376,6.3148,4.3302,2025-06-11T08:51:04.427641
454,-0.2030,-0.3762,0.9999,-25.235,-15.295,-52.080,1.25,12.9126,18.4973,6.6346,4.8081,2025-06-11T08:51:04.427641
455,-0.2484,-0.3309,0.9994,7.700,-31.080,-53.690,1.29,12.7565,18.2017,7.1959,4.7875,2025-06-11T08:51:04.427641
456,-0.2298,-0.2011,0.9701,-17.115,-28.140,-31.080,1.32,13.4441,18.6466,6.9952,4.8081,2025-06-11T08:51:04.427641
457,-0.1986,-0.2357,0.9262,-9.380,-17.745,-15.470,1.29,13.9379,16.9186,5.9317,5.1464,2025-06-11T08:51:04.427641
458,-0.1864,-0.2435,0.8994,-21.105,-14.770,-5.425,1.25,12.2473,10.9090,6.4998,4.3494,2025-06-11T08:51:04.427641
459,-0.1640,-0.2269,0.9287,-28.455,-8.715,-2.590,1.22,11.2297,16.4395,6.7991,4.6249,2025-06-11T08:51:04.427641
460,-0.1137,-0.0903,0.9355,-18.585,-2.205,9.415,1.29,11.9005,16.5753,6.3936,4.8081,2025-06-11T08:51:04.427641
461,-0.1200,-0.0088,1.0170,-21.105,-4.795,55.755,1.30,10.8137,16.4395,7.0521,5.2556,2025-06-11T08:51:04.732131
462,-0.3499,-0.0508,1.1024,-9.065,-6.825,131.565,1.26,11.5614,18.9483,7.5511,4.9541,2025-06-11T08:51:04.732131
463,-0.5783,-0.1923,1.4689,8.750,-23.485,208.705,1.18,12.4998,16.8495,7.2834,5.3665,2025-06-11T08:51:04.732131
464,-0.8755,0.0444,1.7783,119.035,-47.005,268.170,1.22,13.1230,16.3720,7.2834,5.1899,2025-06-11T08:51:04.732131
465,-1.5235,-0.2869,2.6635,200.305,-119.910,333.375,1.20,12.7565,10.9090,6.3936,5.1899,2025-06-11T08:51:04.732131
466,-2.1248,-0.4885,3.7571,412.440,-233.765,350.980,1.23,11.3709,16.0374,6.7164,5.3665,2025-06-11T08:51:04.732131
467,-1.3132,-0.2450,2.1638,477.890,-616.980,351.820,1.21,12.2473,18.2752,6.5266,5.2997,2025-06-11T08:51:04.732131
468,-1.6080,-0.0244,2.0081,506.345,-914.235,352.415,1.25,12.0977,17.0575,7.0521,3.8487,2025-06-11T08:51:04.732131
469,-1.4986,-0.1083,0.6446,461.335,-1014.230,413.945,1.21,12.2975,17.9825,6.4200,4.3110,2025-06-11T08:51:04.732131
470,-0.8428,-0.4807,-0.1401,350.945,-829.570,434.105,1.30,13.0174,18.2017,7.1959,4.6249,2025-06-11T08:51:04.732131
471,-0.6837,-1.0653,-1.1492,144.655,-711.865,392.035,1.30,13.0701,19.0243,7.3127,4.7465,2025-06-11T08:51:04.732966
472,0.0337,-1.5465,-1.4079,36.505,-599.620,269.325,1.33,13.2293,17.6221,6.8826,5.2997,2025-06-11T08:51:04.732966
473,0.3514,-1.2176,-1.8583,-73.675,-424.375,153.580,1.25,12.9126,19.1006,6.7439,5.0603,2025-06-11T08:51:04.732966
474,0.6905,-0.9989,-2.3536,-153.720,-227.570,95.935,1.28,13.3363,13.7761,6.9106,4.9541,2025-06-11T08:51:04.732966
475,0.9848,-0.5592,-2.6186,-268.275,-19.075,17.080,1.16,13.1761,17.5507,7.0236,4.8495,2025-06-11T08:51:04.732966
476,1.0189,-0.3499,-2.3375,-358.925,313.950,-61.110,1.22,13.0701,18.6466,7.0521,5.1248,2025-06-11T08:51:04.842644
477,1.2952,0.7100,-1.4825,-449.330,578.935,-126.490,1.27,12.9649,17.4795,6.5266,4.8495,2025-06-11T08:51:04.842644
478,0.4309,0.0205,-1.3664,-593.600,737.555,-60.060,1.28,12.7565,18.5718,7.1094,5.0389,2025-06-11T08:51:04.842644
479,-0.7115,-0.3689,-0.4504,-632.170,972.090,-49.875,1.27,13.0701,18.3490,5.6379,5.1464,2025-06-11T08:51:04.842644
480,-1.1980,-0.7554,0.5758,-550.235,1068.970,-46.550,1.29,12.9126,16.9879,6.1338,5.1899,2025-06-11T08:51:04.843165
481,-2.7133,-1.6475,2.7674,-452.970,1044.680,-3.955,1.29,12.6020,16.6435,6.5266,4.9752,2025-06-11T08:51:04.843165
482,-2.6415,-1.6782,6.5626,552.090,1146.740,208.355,1.26,13.1761,18.3490,6.6074,3.7425,2025-06-11T08:51:04.843165
483,-4.8053,0.3762,9.2720,747.670,1054.690,462.175,1.10,12.7565,17.9825,6.2367,4.6048,2025-06-11T08:51:04.843165
484,-3.0666,1.5235,4.3730,449.120,387.380,443.625,1.21,12.7565,18.3490,5.4244,4.6854,2025-06-11T08:51:04.843165
485,-2.9802,-0.0503,3.3818,-22.855,-753.445,239.015,1.22,12.4998,17.5507,6.3148,4.9964,2025-06-11T08:51:04.843165
486,-2.6669,0.0839,2.5278,258.475,-1146.740,201.600,1.10,11.3709,17.5507,6.3148,4.8703,2025-06-11T08:51:04.843165
487,-3.2413,-0.0063,0.5280,620.445,-1146.740,541.695,1.18,11.1829,19.3311,6.2627,4.9541,2025-06-11T08:51:04.843165
488,-3.0456,-0.8974,-0.7608,226.660,-1146.530,630.910,1.27,12.2975,17.6937,6.1851,4.9330,2025-06-11T08:51:04.843165
489,-1.6104,-2.5483,-2.8543,99.925,-1101.100,627.515,1.23,11.0434,16.9879,6.2367,5.3219,2025-06-11T08:51:04.843165
490,-0.5446,-1.4904,-2.2555,-100.310,-1005.970,535.255,1.22,12.0482,17.1272,6.9669,5.5018,2025-06-11T08:51:04.892598
491,-0.6027,-2.0672,-3.6805,-331.520,-838.635,520.765,1.09,12.1474,17.3379,7.2250,4.6450,2025-06-11T08:51:04.892598
492,0.0981,-2.1833,-4.0885,-188.370,-172.410,137.445,1.23,12.6533,15.4482,7.1959,4.1035,2025-06-11T08:51:04.892598
493,0.6900,-1.3615,-3.9992,-426.965,341.495,-80.395,1.22,12.6533,17.1972,6.5535,4.0296,2025-06-11T08:51:04.892598
494,0.1240,-1.1644,-2.8738,-660.835,994.630,-263.165,1.21,13.4982,11.0631,5.2852,4.5054,2025-06-11T08:51:04.939225
495,-0.9384,-0.5241,-1.4757,-725.095,1146.740,-256.025,1.28,12.9649,16.6435,6.3672,4.6854,2025-06-11T08:51:04.939225
496,-2.0501,-0.3396,0.3514,-753.305,1146.740,-171.570,1.26,12.9649,13.4811,6.7164,4.8703,2025-06-11T08:51:04.939225
497,-3.2769,-1.0331,5.2196,-631.085,1146.075,218.750,1.25,13.1230,16.7806,7.1670,4.8495,2025-06-11T08:51:04.939225
498,-1.7749,-2.2936,4.8517,171.605,1068.760,100.695,1.25,13.3363,17.9825,6.7715,5.2117,2025-06-11T08:51:05.042455
499,-2.7304,-0.3026,5.8902,451.395,121.030,170.555,1.24,12.6533,14.2573,7.0807,5.0603,2025-06-11T08:51:05.042455
500,-2.3932,-0.2045,5.2899,126.175,-635.145,75.600,1.23,12.5508,17.8376,7.0236,4.8911,2025-06-11T08:51:05.042455
501,-1.7807,-0.4968,1.3513,210.420,-1091.475,-32.900,1.27,13.1761,13.7167,6.2627,5.0176,2025-06-11T08:51:05.577221
502,-1.9447,-0.4729,0.8057,601.790,-1146.740,143.745,1.26,13.2293,15.7080,6.7991,4.9121,2025-06-11T08:51:05.577221
503,-0.8711,-0.7183,-2.8202,265.335,-1143.590,262.675,1.32,12.2473,18.2752,6.8547,4.9330,2025-06-11T08:51:05.577221
504,0.2386,-0.8208,-1.4479,207.690,-664.930,173.005,1.26,12.6020,18.7969,7.1094,4.3687,2025-06-11T08:51:05.577221
505,0.4475,-0.6974,-1.7719,216.930,-49.315,9.870,1.24,12.7048,17.6937,6.8269,4.9330,2025-06-11T08:51:05.577221
506,0.4709,-0.8228,-2.1931,85.050,224.455,-142.660,1.26,13.0701,16.7120,6.3672,4.8495,2025-06-11T08:51:05.577221
507,0.7281,-0.4041,-1.8837,-151.340,311.535,-239.645,1.26,11.9988,16.7806,7.1959,4.9752,2025-06-11T08:51:05.577221
508,0.6100,0.0966,-0.9999,-338.415,443.170,-248.395,1.21,12.5508,18.2017,7.6727,5.1464,2025-06-11T08:51:05.577221
509,0.4338,0.2230,-0.2640,-524.720,507.360,-196.980,1.29,12.9649,18.7217,5.1711,5.1032,2025-06-11T08:51:05.578218
510,0.2967,0.3914,0.2904,-569.100,488.180,-90.930,1.28,13.6617,17.3379,6.2367,4.5054,2025-06-11T08:51:05.578218
511,0.4738,0.4421,0.9150,-589.505,447.860,-22.960,1.25,13.9937,16.9879,6.3672,4.6450,2025-06-11T08:51:05.578218
512,0.0922,0.1176,1.2659,-556.150,381.990,64.190,1.09,13.1230,16.1039,5.4949,5.1032,2025-06-11T08:51:05.578218
513,0.0151,-0.4558,1.5660,-466.445,330.785,106.680,1.24,12.6533,18.5718,7.1094,4.5450,2025-06-11T08:51:05.578218
514,0.0542,-0.6705,1.8378,-296.975,246.890,101.570,1.30,12.6533,11.1665,7.0236,4.7875,2025-06-11T08:51:05.578218
515,-0.0878,-1.0131,1.7739,-183.505,187.250,102.375,1.13,12.2975,16.4395,6.6891,4.7261,2025-06-11T08:51:05.579214
516,-0.0908,-1.1756,1.8778,-52.955,116.585,80.465,1.23,11.1362,16.8495,7.3422,5.2776,2025-06-11T08:51:05.579214
517,-0.0810,-1.0687,1.6582,-12.075,10.885,39.270,1.20,12.0482,17.1272,7.5209,5.2776,2025-06-11T08:51:05.579214
518,-0.0244,-0.9306,1.3283,-13.895,-59.290,7.875,1.25,12.6020,13.0182,5.3313,5.2997,2025-06-11T08:51:05.579214
519,0.0556,-0.7891,1.0546,6.895,-101.990,-25.305,1.29,12.4998,15.3196,6.2627,5.2117,2025-06-11T08:51:05.579214
520,0.1410,-0.6354,0.8486,2.940,-87.325,-35.525,1.30,11.1829,17.9100,7.1959,5.4791,2025-06-11T08:51:05.579214
521,0.2328,-0.5348,0.7359,-3.850,-35.280,-30.415,1.25,12.3478,17.0575,6.6346,4.5252,2025-06-11T08:51:05.579214
522,0.2747,-0.4704,0.6671,-17.185,2.905,-19.740,1.27,12.2473,16.9879,7.0521,4.9541,2025-06-11T08:51:05.579214
523,0.2938,-0.4631,0.6993,-36.505,32.235,-13.475,1.28,11.3237,17.4795,6.5266,4.3110,2025-06-11T08:51:05.580209
524,0.3045,-0.4099,0.7998,-32.200,27.160,-8.855,1.33,12.4490,18.1284,6.7164,4.2537,2025-06-11T08:51:05.580209
525,0.3089,-0.4202,0.8979,-33.005,22.750,-3.675,1.29,12.7048,19.1006,5.1938,4.7875,2025-06-11T08:51:05.580209
526,0.2943,-0.4514,0.8867,-29.750,4.655,-2.485,1.00,13.3363,18.5718,6.7164,3.6208,2025-06-11T08:51:05.580209
527,0.3030,-0.4133,0.8584,-25.970,-8.855,-3.430,1.15,11.9988,16.9186,6.6891,4.6652,2025-06-11T08:51:05.580209
528,0.3216,-0.4314,0.8423,-28.315,-11.340,-1.085,1.20,12.8604,16.5073,6.7715,4.8288,2025-06-11T08:51:05.580209
529,0.3079,-0.4626,0.8062,-33.110,-1.610,1.400,1.26,13.2827,18.6466,6.1338,4.9121,2025-06-11T08:51:05.580209
530,0.3084,-0.4636,0.8169,-33.040,17.815,6.195,1.12,13.4441,17.4086,6.5804,4.9121,2025-06-11T08:51:05.580209
531,0.3123,-0.4353,0.8633,-27.020,28.350,9.835,1.21,13.5525,16.0374,7.0521,5.2117,2025-06-11T08:51:05.580209
532,0.2899,-0.5002,0.9170,-22.995,28.315,9.625,1.25,13.8823,17.8376,6.7715,5.3442,2025-06-11T08:51:05.581207
533,0.2562,-0.5470,0.9248,-18.480,20.685,7.525,1.14,13.5525,13.3063,6.7439,5.1464,2025-06-11T08:51:05.581207
534,0.2523,-0.5285,0.9077,-21.770,12.740,5.670,1.23,11.4659,18.2752,6.4465,4.3302,2025-06-11T08:51:05.581430
535,0.2557,-0.5431,0.8677,-19.705,9.100,4.865,1.21,9.5069,17.1972,7.1670,4.9121,2025-06-11T08:51:05.656741
536,0.2420,-0.5607,0.8569,-18.620,14.525,5.495,1.27,11.1829,18.9483,6.6346,5.2117,2025-06-11T08:51:05.656741
537,0.2342,-0.5480,0.8613,-16.800,24.080,8.610,1.30,12.2473,15.0646,5.3313,5.1248,2025-06-11T08:51:05.656741
538,0.2338,-0.5266,0.8721,-5.390,22.505,9.240,1.27,12.2473,17.4795,6.5266,5.1681,2025-06-11T08:51:05.656741
539,0.2191,-0.6061,0.9467,8.575,14.630,4.200,1.18,12.7565,17.8376,6.5266,4.8911,2025-06-11T08:51:05.656741
540,0.1806,-0.6120,0.9448,-2.275,3.500,2.135,1.19,13.5525,16.9879,6.8547,5.1248,2025-06-11T08:51:05.656741
541,0.2015,-0.6046,0.9106,-5.355,-1.715,2.835,1.26,13.3363,13.2483,5.4244,5.1464,2025-06-11T08:51:05.656741
542,0.2079,-0.5978,0.8564,-7.840,2.870,2.310,1.28,13.6070,14.1965,6.8826,4.4270,2025-06-11T08:51:05.656741
543,0.1723,-0.5978,0.8072,-4.795,4.550,-0.840,1.18,13.6070,14.6259,6.5535,4.2158,2025-06-11T08:51:05.656741
544,0.1884,-0.5988,0.8525,-2.555,5.180,-5.075,1.19,13.4441,15.7735,6.4731,3.9024,2025-06-11T08:51:05.656741
545,0.2030,-0.5339,0.8579,-3.325,1.470,-7.980,1.24,11.9988,16.7120,6.8826,4.4075,2025-06-11T08:51:05.656741
546,0.2191,-0.5270,0.8691,-1.645,-4.445,-7.875,1.09,12.8604,17.0575,7.7342,4.8288,2025-06-11T08:51:05.656741
547,0.2313,-0.5261,0.8657,-1.260,-5.180,-6.440,1.20,13.2293,17.9100,6.5804,4.9541,2025-06-11T08:51:05.656741
548,0.2367,-0.5056,0.8711,-1.050,-2.765,-2.380,1.28,13.0174,16.3720,5.0587,4.4270,2025-06-11T08:51:05.656741
549,0.2381,-0.5041,0.8696,0.420,-1.155,3.220,1.26,13.2827,13.1906,6.6891,4.6854,2025-06-11T08:51:05.656741
550,0.2225,-0.5344,0.8808,2.030,-1.715,4.690,1.26,11.7058,15.7080,5.4010,4.9964,2025-06-11T08:51:05.986791
551,0.2064,-0.5617,0.8638,0.735,-3.115,4.585,1.11,10.9972,13.0182,5.4949,4.9121,2025-06-11T08:51:05.986791
552,0.2011,-0.5602,0.8330,-1.435,-1.960,3.605,1.23,11.8516,17.5507,6.7439,5.0176,2025-06-11T08:51:05.986791
553,0.2030,-0.5500,0.8179,0.350,0.315,1.750,1.28,12.1474,17.5507,6.9106,5.3442,2025-06-11T08:51:05.986791
554,0.2084,-0.5563,0.8379,-0.875,3.815,0.175,1.26,12.4998,17.1272,6.4998,5.3889,2025-06-11T08:51:05.986791
555,0.2059,-0.5558,0.8438,-2.590,8.365,-0.210,1.26,11.4183,16.1706,7.3127,5.5475,2025-06-11T08:51:05.986791
556,0.2225,-0.5285,0.8662,-1.435,11.060,0.455,1.24,11.8516,19.2540,7.3127,5.6631,2025-06-11T08:51:05.987347
557,0.1986,-0.5470,0.8774,1.540,5.250,1.225,1.25,12.2473,13.7761,5.3082,5.5935,2025-06-11T08:51:05.987347
558,0.1976,-0.5797,0.8960,2.380,0.665,0.490,1.25,12.2975,16.1039,6.9387,5.5935,2025-06-11T08:51:05.987347
559,0.1962,-0.5710,0.8828,0.350,-2.870,1.435,1.28,12.3478,17.1272,6.7164,5.6398,2025-06-11T08:51:05.987347
560,0.1962,-0.5680,0.8520,0.525,-1.540,1.960,1.24,12.7565,17.6221,5.3313,5.5475,2025-06-11T08:51:05.987347
561,0.1908,-0.5544,0.8272,1.540,0.910,1.330,1.28,12.9126,16.7806,4.9260,5.1464,2025-06-11T08:51:05.987347
562,0.1913,-0.5568,0.8267,-0.350,3.045,0.595,1.25,13.2293,17.3379,6.3410,5.3889,2025-06-11T08:51:05.987347
563,0.1952,-0.5563,0.8457,0.315,5.250,0.875,1.23,13.0701,19.1772,6.8547,5.3442,2025-06-11T08:51:05.987347
564,0.2030,-0.5436,0.8477,-1.785,8.890,1.015,1.26,12.8604,18.7969,7.3422,4.5054,2025-06-11T08:51:05.987347
565,0.1830,-0.5544,0.8550,-0.805,7.350,1.155,1.17,13.2827,17.9825,5.1711,4.9752,2025-06-11T08:51:05.987347
566,0.1869,-0.5705,0.8750,-0.420,2.275,-0.140,1.27,13.1761,16.5753,6.3148,5.0817,2025-06-11T08:51:05.987347
567,0.1952,-0.5514,0.8794,0.070,-4.620,-1.085,1.25,11.9988,17.6937,6.1851,4.5649,2025-06-11T08:51:06.084347
568,0.1932,-0.5495,0.8725,-0.350,-7.455,-0.805,1.22,12.0482,18.7969,4.9480,5.0603,2025-06-11T08:51:06.084347
569,0.1996,-0.5348,0.8633,0.490,-6.125,0.420,1.23,12.9126,16.7806,6.1594,5.0389,2025-06-11T08:51:06.084347
570,0.2020,-0.5339,0.8535,0.630,-3.255,1.155,1.15,13.1761,16.5073,6.3148,5.2776,2025-06-11T08:51:06.084347
571,0.1854,-0.5558,0.8462,1.155,-2.450,1.365,1.24,12.7565,14.9383,6.6618,4.4857,2025-06-11T08:51:06.084347
572,0.1918,-0.5470,0.8545,2.065,-3.745,0.525,1.23,11.0897,15.1917,6.6891,4.6854,2025-06-11T08:51:06.084347
573,0.1962,-0.5524,0.8623,0.385,-4.760,0.245,1.22,11.5135,18.1284,7.1381,4.8495,2025-06-11T08:51:06.084347
574,0.1967,-0.5597,0.8603,0.385,-4.200,-0.105,1.24,9.5904,18.4973,6.9952,5.1032,2025-06-11T08:51:06.085264
575,0.1889,-0.5675,0.8525,-0.875,-2.625,-0.210,1.09,10.6325,18.9483,5.4713,4.9121,2025-06-11T08:51:06.085264
576,0.1937,-0.5632,0.8496,-0.385,-0.770,-0.735,1.21,11.4183,17.9100,7.2834,5.2117,2025-06-11T08:51:06.085264
577,0.1947,-0.5490,0.8550,-1.435,3.115,-0.175,1.10,10.8594,17.0575,7.3422,5.1032,2025-06-11T08:51:06.085264
578,0.2030,-0.5319,0.8608,0.420,3.360,0.420,1.20,11.4183,17.3379,7.1959,5.1681,2025-06-11T08:51:06.085264
579,0.1957,-0.5568,0.8808,1.155,-0.105,0.000,1.24,11.9005,18.3490,7.1959,5.1248,2025-06-11T08:51:06.085264
580,0.1835,-0.5651,0.8706,1.540,-4.235,-0.665,1.30,12.2473,17.8376,6.9952,4.4465,2025-06-11T08:51:06.408448
581,0.1903,-0.5597,0.8589,0.700,-7.735,-0.525,1.25,12.2975,18.7217,7.2250,4.8703,2025-06-11T08:51:06.408448
582,0.1864,-0.5583,0.8472,-0.245,-4.900,-0.280,1.24,12.6020,18.4973,6.8826,4.8911,2025-06-11T08:51:06.408448
583,0.2030,-0.5222,0.8633,0.560,2.485,1.295,1.20,11.5614,19.2540,7.2250,4.5450,2025-06-11T08:51:06.408448
584,0.2128,-0.6232,0.8774,2.065,4.830,3.360,1.27,12.4490,19.2540,6.9387,4.1970,2025-06-11T08:51:06.408448
585,0.1942,-0.5300,0.9072,6.650,4.060,4.410,1.18,11.4659,19.9575,6.6618,4.9121,2025-06-11T08:51:06.408448
586,0.1889,-0.5192,0.8852,4.795,0.455,4.165,1.21,10.8594,19.1006,6.6891,4.7465,2025-06-11T08:51:06.408448
587,0.1830,-0.5251,0.8555,2.765,-0.560,4.830,1.24,11.4183,16.8495,6.7991,5.1032,2025-06-11T08:51:06.408448
588,0.1674,-0.5344,0.8150,11.865,3.990,6.090,1.22,11.7542,18.4973,6.8826,4.4465,2025-06-11T08:51:06.408448
589,0.1684,-0.5090,0.7788,-12.215,29.680,14.105,1.26,12.3983,18.4230,7.1094,5.0603,2025-06-11T08:51:06.408448
590,0.1659,-0.5817,0.8101,-6.720,26.460,11.550,1.28,12.8604,18.7969,7.3717,5.0817,2025-06-11T08:51:06.408448
591,0.1347,-0.5993,0.8452,-29.505,42.175,14.000,1.12,12.7048,16.9186,6.9106,5.2776,2025-06-11T08:51:06.408448
592,0.1620,-0.6090,0.8701,-21.490,47.215,11.970,1.22,12.7565,18.9483,7.2834,5.4564,2025-06-11T08:51:06.408448
593,0.1332,-0.5280,0.7623,-33.600,28.490,1.715,1.22,12.4490,18.6466,7.2834,5.5018,2025-06-11T08:51:06.408448
594,0.1654,-0.6310,0.9209,1.925,32.585,-2.380,1.10,13.0701,17.4795,6.7715,5.3889,2025-06-11T08:51:06.408448
595,0.1279,-0.5104,0.8379,18.270,0.735,-10.535,1.12,13.3901,18.7217,6.4200,5.2556,2025-06-11T08:51:06.408448
596,0.1440,-0.5451,0.7608,37.800,51.065,3.535,1.21,11.9005,18.8725,7.2250,5.3442,2025-06-11T08:51:06.408448
597,0.1401,-0.5017,0.8281,0.665,85.645,19.040,1.24,12.3478,18.2752,6.8269,5.4791,2025-06-11T08:51:06.496175
598,0.1318,-0.6349,0.7515,-26.740,50.505,-0.735,1.27,12.6533,14.4407,6.4998,5.5935,2025-06-11T08:51:06.496175
599,0.0327,-0.5109,0.8813,19.110,43.260,-0.070,1.25,11.6575,16.9879,6.8826,5.3219,2025-06-11T08:51:06.496175
600,0.0454,-0.5100,0.9950,-1.400,51.800,12.915,1.26,12.2975,18.2752,6.9952,5.5247,2025-06-11T08:51:06.496175
601,0.0561,-0.5558,0.9443,22.715,27.510,12.215,1.25,12.7048,17.0575,6.6346,4.5252,2025-06-11T08:51:06.496175
602,0.0439,-0.5480,0.9614,2.100,3.535,5.600,1.29,12.6533,18.5718,7.0521,4.8081,2025-06-11T08:51:06.496175
603,0.0508,-0.5549,0.9213,5.565,-13.370,0.665,1.23,12.7565,18.7969,6.6074,4.9964,2025-06-11T08:51:06.496175
604,0.0630,-0.5475,0.9126,1.050,-10.745,4.200,1.23,13.0174,18.5718,5.0587,4.2158,2025-06-11T08:51:06.496175
605,0.0683,-0.5451,0.8428,4.550,-5.320,5.775,1.20,13.1761,17.1272,4.9041,4.9121,2025-06-11T08:51:06.496175
606,0.0654,-0.5236,0.8189,6.440,6.160,7.945,1.27,12.6020,18.2752,4.6885,4.9964,2025-06-11T08:51:06.496175
607,0.0693,-0.5217,0.8403,7.980,11.760,9.275,1.31,12.6533,17.0575,6.3936,5.2997,2025-06-11T08:51:06.496175
608,0.0630,-0.5431,0.8384,5.250,14.315,9.940,1.16,12.3983,16.5753,6.3672,5.2997,2025-06-11T08:51:06.496175
609,0.0259,-0.6588,0.9111,-6.860,26.005,-3.815,1.23,12.9126,13.1329,6.4998,5.3219,2025-06-11T08:51:06.496954
610,0.0386,-0.6134,0.8281,-17.955,31.290,-6.475,1.30,12.7048,16.5073,7.3127,5.1464,2025-06-11T08:51:06.496954
611,0.0078,-0.6451,0.7969,-27.545,43.435,-11.445,1.30,11.5135,18.1284,6.6074,5.2997,2025-06-11T08:51:06.780197
612,-0.0122,-0.6534,0.8345,-39.830,53.865,-17.745,1.26,12.6020,16.7806,7.4610,4.3494,2025-06-11T08:51:06.780197
613,-0.0137,-0.5592,0.8130,-32.655,71.540,-16.450,1.29,12.3478,17.6221,5.3313,4.6652,2025-06-11T08:51:06.780197
614,-0.0161,-0.4660,0.8564,-34.090,83.685,-0.210,1.20,10.9972,16.8495,4.7955,5.0176,2025-06-11T08:51:06.780197
615,-0.0307,-0.4924,0.8179,-31.815,91.525,1.120,1.23,12.2975,16.9879,6.7715,4.5649,2025-06-11T08:51:06.780197
616,-0.0459,-0.5285,0.8194,-27.895,94.780,9.415,1.24,12.7048,18.5718,7.0521,4.7465,2025-06-11T08:51:06.780197
617,-0.0737,-0.5456,0.8364,-23.975,97.020,14.000,1.27,11.3237,19.1772,7.5813,4.3881,2025-06-11T08:51:06.780197
618,-0.0966,-0.5119,0.8677,-16.695,98.735,22.470,1.30,11.8516,19.1006,5.4713,4.7670,2025-06-11T08:51:06.780197
619,-0.1898,-0.4563,0.7657,-12.250,113.680,37.310,1.25,11.0897,16.6435,5.4949,5.1899,2025-06-11T08:51:06.780197
620,-0.1923,-0.4900,0.8076,7.105,113.225,35.560,1.29,11.8028,18.2017,6.5804,5.0817,2025-06-11T08:51:06.781264
621,-0.1937,-0.5734,0.8789,11.515,104.720,34.335,1.24,11.1362,16.1706,7.1959,4.8495,2025-06-11T08:51:06.781264
622,-0.1962,-0.5666,0.8852,9.170,77.630,28.280,1.25,11.9988,17.6937,7.1381,4.6854,2025-06-11T08:51:06.781264
623,-0.1728,-0.7105,1.1195,-14.840,20.580,-3.045,1.29,12.0977,18.2752,7.3127,5.1032,2025-06-11T08:51:06.781264
624,-0.2811,-0.6100,1.1624,-26.915,-29.225,-16.730,1.26,12.4490,15.4482,6.0321,4.4270,2025-06-11T08:51:06.920041
625,-0.2069,-0.6271,0.8350,-36.470,-35.945,-22.960,1.22,12.2975,18.0553,6.2627,4.5848,2025-06-11T08:51:06.920041
626,-0.1972,-0.6778,0.6783,-12.600,-13.090,-27.020,1.24,12.8604,16.9879,6.4731,4.8288,2025-06-11T08:51:06.920041
627,-0.1937,-0.6168,0.7320,-31.850,15.890,-22.960,1.29,11.7058,16.6435,6.6074,4.3302,2025-06-11T08:51:06.920041
628,-0.1991,-0.5763,0.8057,12.950,16.695,-16.415,1.28,12.3983,18.4230,7.0236,4.7261,2025-06-11T08:51:06.920041
629,-0.2157,-0.6002,0.8789,17.500,20.755,-8.155,1.24,12.9649,18.2017,7.0236,4.7875,2025-06-11T08:51:06.920041
630,-0.2284,-0.6071,0.8745,34.160,19.110,-3.010,1.11,13.3901,17.5507,6.4731,5.2336,2025-06-11T08:51:06.920041
631,-0.3977,-0.6256,0.8491,36.610,21.910,3.920,1.22,13.4982,18.5718,6.1594,4.9121,2025-06-11T08:51:06.920041
632,-0.1444,-0.6305,0.7462,31.955,17.570,8.155,1.17,13.0701,13.7761,6.8547,5.0603,2025-06-11T08:51:06.921107
633,-0.2006,-0.5968,0.6871,25.830,15.225,0.840,1.20,11.7542,18.2017,5.9818,5.2336,2025-06-11T08:51:06.921107
634,-0.1684,-0.5744,0.7813,11.305,13.930,-1.155,1.28,11.9988,17.1272,6.7715,4.3881,2025-06-11T08:51:06.921107
635,-0.1620,-0.5768,0.8198,13.860,10.780,-0.805,1.30,12.9126,17.4086,7.1959,4.5649,2025-06-11T08:51:06.921107
636,-0.1776,-0.5998,0.8106,9.975,11.480,-1.680,1.29,12.9649,14.2573,6.3148,4.8911,2025-06-11T08:51:06.921107
637,-0.1518,-0.6066,0.8228,12.425,11.760,-4.725,1.28,12.8604,17.1272,5.2394,4.9121,2025-06-11T08:51:06.921107
638,-0.1342,-0.6027,0.8374,14.245,3.360,-11.095,1.31,12.4490,16.9879,6.1083,5.1032,2025-06-11T08:51:06.921107
639,-0.1503,-0.5675,0.8745,11.795,2.835,-11.690,1.25,13.0701,18.4230,6.9387,5.3219,2025-06-11T08:51:06.921107
640,-0.1732,-0.5944,0.8647,14.805,0.945,-9.835,1.23,13.1230,17.7655,7.2834,5.3665,2025-06-11T08:51:06.921107
641,-0.1879,-0.6198,0.8389,10.395,6.580,-7.210,1.26,12.8604,18.9483,5.3545,5.4113,2025-06-11T08:51:07.096877
642,-0.1996,-0.6090,0.8150,11.550,4.690,-4.235,1.27,13.2827,16.9186,6.6618,5.2776,2025-06-11T08:51:07.096877
643,-0.2025,-0.6061,0.8169,9.205,2.555,-1.365,1.32,11.9005,18.5718,5.0142,4.9752,2025-06-11T08:51:07.097213
644,-0.2020,-0.6076,0.8213,5.285,-0.700,1.995,1.29,12.8604,14.3182,6.1594,4.8288,2025-06-11T08:51:07.097213
645,-0.2079,-0.5944,0.7852,-7.350,-2.765,4.655,1.16,11.6094,16.7806,5.9317,4.9964,2025-06-11T08:51:07.097213
646,-0.2147,-0.5915,0.8062,0.770,-6.405,4.375,0.96,12.1973,17.4795,6.2887,4.3881,2025-06-11T08:51:07.097213
647,-0.2162,-0.5807,0.8335,0.630,-5.705,4.760,1.18,12.7048,18.8725,6.9669,4.7057,2025-06-11T08:51:07.097213
648,-0.2220,-0.5651,0.8477,-2.625,-5.950,4.445,1.23,13.4441,17.7655,7.2834,5.2117,2025-06-11T08:51:07.097213
649,-0.2269,-0.5451,0.8403,-10.080,-4.620,2.765,1.31,13.6617,13.4227,6.5535,5.4564,2025-06-11T08:51:07.097213
650,-0.2245,-0.5485,0.8657,-4.830,-5.250,0.105,1.31,13.2293,12.3440,7.1959,5.4338,2025-06-11T08:51:07.097213
651,-0.2098,-0.5524,0.8838,10.255,-1.715,-2.555,1.25,11.8028,12.1243,7.0521,5.5018,2025-06-11T08:51:07.326217
652,-0.2201,-0.5544,0.8520,-4.515,1.960,-2.975,1.28,12.6533,15.4482,7.6422,5.5018,2025-06-11T08:51:07.326217
653,-0.2220,-0.5705,0.8433,5.635,1.540,-4.760,1.28,13.4982,18.4230,6.9952,4.6048,2025-06-11T08:51:07.326217
654,-0.2162,-0.5788,0.8267,5.845,-1.155,-4.935,1.28,13.0701,17.1972,6.7991,5.0389,2025-06-11T08:51:07.326217
655,-0.2128,-0.5851,0.8252,1.155,0.490,-3.570,1.26,10.2767,18.5718,7.2250,5.1032,2025-06-11T08:51:07.326217
656,-0.2142,-0.5890,0.8154,1.435,-0.840,-2.485,1.24,11.0897,15.6428,7.1094,5.4338,2025-06-11T08:51:07.326217
657,-0.2152,-0.5895,0.8120,2.730,-3.745,-1.085,1.28,10.1455,17.2675,6.5535,4.6652,2025-06-11T08:51:07.326217
658,-0.2118,-0.5900,0.8154,-2.240,-4.690,0.385,1.30,11.5135,17.9825,6.3672,4.9752,2025-06-11T08:51:07.326217
659,-0.2108,-0.5880,0.8286,-3.500,-5.810,1.995,1.12,10.5876,16.4395,4.9700,5.1464,2025-06-11T08:51:07.326217
660,-0.2123,-0.5827,0.8389,-1.855,-5.740,2.835,1.24,11.3709,19.1006,6.5266,5.1899,2025-06-11T08:51:07.326217
661,-0.2123,-0.5754,0.8413,-3.080,-4.410,3.570,1.27,12.0977,19.4085,6.3410,4.4857,2025-06-11T08:51:07.326217
662,-0.2181,-0.5685,0.8447,-2.730,-3.675,3.115,1.23,12.4490,17.9825,7.1959,4.1594,2025-06-11T08:51:07.326217
663,-0.2211,-0.5607,0.8438,-1.225,-3.325,1.680,1.25,11.8516,17.8376,6.1851,4.4857,2025-06-11T08:51:07.326217
664,-0.2240,-0.5563,0.8433,-0.525,-2.730,0.140,1.14,11.2766,18.9483,5.6139,4.8911,2025-06-11T08:51:07.326217
665,-0.2211,-0.5612,0.8457,0.560,-1.995,-1.680,1.06,11.6575,18.8725,6.8547,5.2336,2025-06-11T08:51:07.326217
666,-0.2216,-0.5627,0.8423,2.205,-1.750,-2.835,1.18,12.0482,17.1972,6.4731,5.2776,2025-06-11T08:51:07.326217
667,-0.2167,-0.5700,0.8374,1.715,-1.750,-3.535,1.27,12.4490,18.7217,4.9480,5.1681,2025-06-11T08:51:07.326217
668,-0.2128,-0.5817,0.8403,1.820,-1.540,-3.255,1.28,11.6094,18.5718,6.4465,5.2336,2025-06-11T08:51:07.326217
669,-0.2113,-0.5812,0.8325,1.645,-1.540,-2.065,1.26,12.2473,18.6466,7.0807,5.1681,2025-06-11T08:51:07.593664
670,-0.2128,-0.5866,0.8252,0.490,-2.030,-0.840,1.24,10.9972,15.3838,6.3936,4.3302,2025-06-11T08:51:07.593664
671,-0.2147,-0.5866,0.8242,-0.350,-3.010,0.210,1.29,12.3983,17.0575,7.4909,4.7465,2025-06-11T08:51:07.593664
672,-0.2128,-0.5871,0.8208,-1.155,-4.060,1.295,1.22,12.3478,16.3720,6.4998,4.3494,2025-06-11T08:51:07.593664
673,-0.2147,-0.5797,0.8262,-1.960,-4.655,1.680,1.25,12.7565,14.5023,6.6891,4.7057,2025-06-11T08:51:07.593664
674,-0.2167,-0.5739,0.8301,-2.030,-4.795,1.610,1.13,11.8028,18.4230,7.4014,5.2776,2025-06-11T08:51:07.593664
675,-0.2186,-0.5695,0.8369,-1.715,-4.760,1.120,1.21,10.7682,13.2483,6.9106,5.4113,2025-06-11T08:51:07.593664
676,-0.2206,-0.5661,0.8447,-1.330,-4.340,0.210,1.20,11.8028,11.9072,7.3422,5.1899,2025-06-11T08:51:07.593664
677,-0.2191,-0.5661,0.8481,-0.385,-3.220,-0.560,1.25,12.8604,13.3644,6.8826,5.1464,2025-06-11T08:51:07.593664
678,-0.2401,-0.5836,0.8540,-0.350,0.700,-1.295,1.21,11.0434,16.7806,7.1094,5.1899,2025-06-11T08:51:07.593664
679,-0.2220,-0.5739,0.8428,1.505,4.445,-1.890,1.25,11.5614,18.5718,7.2250,5.2336,2025-06-11T08:51:07.593664
680,-0.2123,-0.5651,0.8311,1.015,3.780,-2.135,1.29,12.1973,19.2540,7.3422,4.5252,2025-06-11T08:51:07.593664
681,-0.2011,-0.5651,0.8340,1.190,0.490,-2.065,1.26,11.3709,17.9100,6.2367,4.7670,2025-06-11T08:51:07.593664
682,-0.2089,-0.5714,0.8154,1.085,-3.605,-1.995,1.22,12.0482,15.7735,6.4731,4.9541,2025-06-11T08:51:07.593664
683,-0.2133,-0.5876,0.8296,-0.280,-3.990,-1.610,1.17,11.1362,17.7655,5.6379,5.2336,2025-06-11T08:51:07.593664
684,-0.2142,-0.5856,0.8213,0.560,-2.765,-0.805,1.18,11.7058,17.1272,4.9041,4.6854,2025-06-11T08:51:07.705373
685,-0.2098,-0.5841,0.8452,-1.015,-2.205,0.245,1.17,12.2975,15.5129,6.3936,4.0665,2025-06-11T08:51:07.705373
686,-0.2220,-0.5646,0.8228,-0.630,-2.485,0.875,1.20,13.0701,17.9100,6.7164,4.7261,2025-06-11T08:51:07.705373
687,-0.1723,-0.5754,0.8579,-1.820,15.365,3.325,1.27,13.0701,14.6880,6.8269,5.1248,2025-06-11T08:51:07.705373
688,-0.2079,-0.5578,0.8516,6.020,-4.130,0.630,1.09,13.0701,17.0575,6.5804,4.8703,2025-06-11T08:51:07.705373
689,-0.2416,-0.5807,0.8569,3.115,-14.070,-1.540,1.24,13.0701,16.7120,6.7991,5.0176,2025-06-11T08:51:07.705373
690,-0.1996,-0.5510,0.8306,-51.800,23.380,4.095,1.28,12.2473,19.4085,7.0807,4.3881,2025-06-11T08:51:07.705373
691,-0.2806,-0.6139,0.7344,15.365,-25.445,-4.305,1.25,12.0977,17.8376,6.7439,4.7057,2025-06-11T08:51:07.705373
692,-0.2089,-0.5309,0.7710,57.575,-0.420,-5.180,1.29,12.3983,17.1272,6.7439,4.7057,2025-06-11T08:51:07.705373
693,-0.1889,-0.5675,0.9633,6.195,11.830,-2.450,1.26,13.0174,17.7655,7.3422,5.1248,2025-06-11T08:51:07.705373
694,-0.2035,-0.6105,0.8882,51.415,25.340,-0.980,1.29,13.2827,15.4482,7.6117,4.8703,2025-06-11T08:51:07.705373
695,-0.2284,-0.5802,0.7549,33.915,-1.085,1.085,1.32,13.1761,16.4395,6.4200,4.7057,2025-06-11T08:51:07.705373
696,-0.2294,-0.5666,0.7788,15.820,6.300,3.395,1.35,13.7716,17.3379,7.1381,5.0389,2025-06-11T08:51:07.706156
697,-0.2416,-0.5666,0.8325,1.365,-1.715,3.990,1.33,13.4982,19.7993,7.2541,4.9541,2025-06-11T08:51:07.706156
698,-0.2464,-0.5588,0.8540,11.900,-7.070,3.675,1.31,13.0701,18.5718,6.5266,4.9330,2025-06-11T08:51:07.706156
699,-0.2196,-0.5412,0.8525,13.965,8.960,4.725,1.25,13.2827,17.1272,6.9669,4.8081,2025-06-11T08:51:08.008786
700,-0.2372,-0.5368,0.8301,-22.260,2.695,6.090,1.25,13.4982,16.0374,6.6074,4.2728,2025-06-11T08:51:08.008786
701,-0.2396,-0.5300,0.8603,-19.775,-14.700,2.835,1.09,12.8083,16.3046,6.2887,4.0480,2025-06-11T08:51:08.008786
702,-0.2396,-0.5192,0.8438,-55.825,-16.485,1.190,1.21,13.4982,14.5023,6.2627,4.7670,2025-06-11T08:51:08.008786
703,-0.2865,-0.5885,0.9155,14.315,-7.490,-5.250,1.24,13.6070,13.8953,7.1959,4.9752,2025-06-11T08:51:08.008786
704,-0.2708,-0.4948,0.8052,-42.420,-7.980,-3.325,1.19,11.9496,12.7344,6.8826,5.3219,2025-06-11T08:51:08.008786
705,-0.1757,-0.5466,0.8647,55.545,18.410,-5.600,1.22,12.3478,15.3196,7.1381,4.9752,2025-06-11T08:51:08.008786
706,-0.2059,-0.5397,0.8276,-9.450,13.895,-2.520,1.29,12.5508,17.3379,7.3422,5.0817,2025-06-11T08:51:08.008786
707,-0.2269,-0.5793,0.8467,10.220,-8.400,-5.810,1.24,12.4490,15.1280,6.9106,4.3881,2025-06-11T08:51:08.008786
708,-0.2406,-0.5758,0.8174,10.045,-20.055,-3.885,1.11,12.7048,16.5753,6.9106,4.9121,2025-06-11T08:51:08.009779
709,-0.2318,-0.5778,0.8184,-4.935,-3.920,0.245,1.27,12.9649,18.7969,6.9952,5.2556,2025-06-11T08:51:08.009779
710,-0.2181,-0.5856,0.8111,5.530,8.155,2.800,1.27,12.9649,17.8376,7.1670,5.2776,2025-06-11T08:51:08.009779
711,-0.2333,-0.5695,0.8047,-11.620,-11.620,3.745,1.10,11.1829,15.3838,6.9106,4.8911,2025-06-11T08:51:08.009779
712,-0.2313,-0.5675,0.8545,-1.435,-13.895,4.270,1.18,11.9005,16.5073,6.4731,5.1032,2025-06-11T08:51:08.009779
713,-0.2259,-0.5602,0.8686,-3.850,-6.510,6.440,1.27,12.2473,13.5986,7.6117,5.3442,2025-06-11T08:51:08.009779
714,-0.2367,-0.5500,0.8316,-8.505,-2.730,6.475,1.21,11.9496,17.3379,6.4731,5.3219,2025-06-11T08:51:08.111095
715,-0.2479,-0.5392,0.8345,1.400,-5.880,3.465,1.29,12.8604,17.6937,5.1711,5.2556,2025-06-11T08:51:08.111095
716,-0.2435,-0.5363,0.8647,1.540,-11.900,0.700,1.27,13.4982,14.1359,6.2367,4.3881,2025-06-11T08:51:08.111095
717,-0.2420,-0.5373,0.8618,-2.310,-7.840,-0.595,1.26,13.4982,16.5073,4.1558,4.7057,2025-06-11T08:51:08.111095
718,-0.2333,-0.5427,0.8560,4.725,-1.715,-2.590,1.15,13.2827,17.0575,6.7164,4.7670,2025-06-11T08:51:08.111095
719,-0.2352,-0.5431,0.8340,-3.010,-4.200,-3.360,1.23,11.9988,17.4795,7.2834,5.1464,2025-06-11T08:51:08.111095
720,-0.2279,-0.5597,0.8628,2.135,-3.360,-4.060,1.25,9.5904,17.1272,7.5511,5.1464,2025-06-11T08:51:08.111095
721,-0.2245,-0.5646,0.8545,2.310,-2.800,-3.220,1.26,9.3825,16.3046,7.2250,5.0176,2025-06-11T08:51:08.111095
722,-0.2240,-0.5656,0.8447,1.365,-0.385,-1.890,1.29,10.6325,19.2540,7.5813,5.1681,2025-06-11T08:51:08.111095
723,-0.2250,-0.5656,0.8359,1.785,-0.980,-1.260,1.27,10.1891,19.0243,7.1959,5.1248,2025-06-11T08:51:08.111095
724,-0.2294,-0.5632,0.8335,0.840,-2.100,-0.630,1.29,11.2297,17.9825,7.2834,4.2537,2025-06-11T08:51:08.111095
725,-0.2284,-0.5607,0.8389,-0.490,-2.730,0.000,1.30,12.3478,19.4085,7.1381,4.6652,2025-06-11T08:51:08.111095
726,-0.2294,-0.5602,0.8433,-0.385,-2.975,0.455,1.10,12.1474,18.9483,5.3313,5.0389,2025-06-11T08:51:08.111095
727,-0.2294,-0.5583,0.8418,-0.805,-2.870,0.595,1.18,12.6533,18.2017,6.8826,4.8911,2025-06-11T08:51:08.111095
728,-0.2294,-0.5573,0.8481,-1.120,-3.290,0.490,1.25,13.0701,15.8391,6.0574,4.9541,2025-06-11T08:51:08.171942
729,-0.2308,-0.5544,0.8540,0.560,-1.995,0.210,1.22,13.2293,17.3379,5.9068,4.9541,2025-06-11T08:51:08.171942
730,-0.2308,-0.5500,0.8560,0.525,-0.140,-0.280,1.20,13.0701,18.0553,7.0236,4.1782,2025-06-11T08:51:08.171942
731,-0.2347,-0.5480,0.8525,2.030,0.210,-1.260,1.22,12.9649,17.5507,6.9387,4.5649,2025-06-11T08:51:08.173136
732,-0.2381,-0.5446,0.8452,2.275,-0.070,-2.520,1.24,11.9496,18.9483,7.8271,5.0176,2025-06-11T08:51:08.318631
733,-0.2362,-0.5466,0.8413,2.170,-0.700,-3.220,1.25,11.0897,17.1272,7.4610,4.4857,2025-06-11T08:51:08.318631
734,-0.2367,-0.5544,0.8398,2.590,-1.645,-3.640,1.23,12.3478,17.1972,7.5511,4.8495,2025-06-11T08:51:08.318631
735,-0.2328,-0.5617,0.8364,1.610,-2.625,-3.080,1.25,12.8604,18.0553,7.7342,5.2556,2025-06-11T08:51:08.318631
736,-0.2269,-0.5680,0.8350,1.225,-3.500,-2.030,1.23,12.8083,17.1272,6.4998,4.6652,2025-06-11T08:51:08.318631
737,-0.2240,-0.5719,0.8374,-0.070,-3.430,-0.385,1.27,12.7565,16.5073,7.1959,5.0176,2025-06-11T08:51:08.318631
738,-0.2255,-0.5690,0.8423,-0.840,-2.905,1.085,1.30,10.2767,17.7655,6.2367,5.0389,2025-06-11T08:51:08.318631
739,-0.2269,-0.5622,0.8423,-1.225,-2.870,2.205,1.30,11.7058,13.3644,6.2367,5.3442,2025-06-11T08:51:08.318631
740,-0.2338,-0.5558,0.8408,-1.855,-3.500,2.485,1.28,11.9988,17.2675,6.6618,5.2556,2025-06-11T08:51:08.318631
741,-0.2357,-0.5485,0.8433,-1.435,-3.990,1.785,1.19,12.6533,18.0553,7.2250,4.7261,2025-06-11T08:51:08.318631
742,-0.2357,-0.5470,0.8477,-1.120,-4.235,0.875,1.25,13.0701,15.9711,7.2541,4.9121,2025-06-11T08:51:08.319698
743,-0.2357,-0.5461,0.8545,-0.350,-3.745,-0.245,1.25,12.5508,16.1039,7.1670,4.8081,2025-06-11T08:51:08.366431
744,-0.2328,-0.5505,0.8564,0.280,-2.905,-0.875,1.25,12.3983,17.9825,6.6074,4.4661,2025-06-11T08:51:08.366431
745,-0.2303,-0.5568,0.8540,0.840,-1.890,-1.190,1.29,12.4490,17.9825,6.5535,5.0817,2025-06-11T08:51:08.366431
746,-0.2284,-0.5549,0.8506,1.470,-0.805,-1.155,1.29,10.9972,16.3046,6.1594,4.8703,2025-06-11T08:51:08.366431
747,-0.2313,-0.5563,0.8447,1.330,-0.420,-1.085,1.15,10.4981,17.3379,6.5804,4.9752,2025-06-11T08:51:08.623807
748,-0.2338,-0.5549,0.8394,1.155,-1.155,-0.980,1.20,11.4659,14.1359,6.7164,4.3110,2025-06-11T08:51:08.623807
749,-0.2357,-0.5558,0.8355,0.770,-2.625,-1.050,1.25,11.9496,16.0374,7.0807,4.4270,2025-06-11T08:51:08.624301
750,-0.2323,-0.5588,0.8340,0.175,-3.640,-0.875,1.17,12.6020,16.8495,5.2394,4.7465,2025-06-11T08:51:08.624301
751,-0.2298,-0.5636,0.8364,-0.385,-3.920,-0.350,1.09,12.2975,18.4973,6.8826,4.9964,2025-06-11T08:51:08.624301
752,-0.2274,-0.5651,0.8438,-0.735,-3.780,0.490,1.16,12.2975,18.4230,6.9952,5.0176,2025-06-11T08:51:08.624301
753,-0.2294,-0.5607,0.8384,-1.155,5.355,1.610,1.21,13.0174,16.5753,6.3672,4.9964,2025-06-11T08:51:08.624301
754,-0.2772,-0.5490,0.8872,-20.440,-27.825,-1.260,0.98,11.6575,15.1917,7.2541,5.0176,2025-06-11T08:51:08.624301
755,-0.2274,-0.5441,0.8804,-30.240,-6.545,-2.765,1.12,11.7058,15.6428,7.0807,5.2336,2025-06-11T08:51:08.624301
756,-0.2523,-0.5402,0.8481,-13.195,-15.610,-5.985,1.20,11.0897,16.3720,5.1938,5.3665,2025-06-11T08:51:08.624301
757,-0.2216,-0.5495,0.8823,5.110,-2.415,-8.330,1.21,12.1474,18.7217,6.5266,5.2336,2025-06-11T08:51:08.624301
758,-0.2303,-0.5627,0.8398,10.745,-3.360,-10.640,1.22,12.2975,18.2017,7.2250,5.1032,2025-06-11T08:51:08.624301
759,-0.2147,-0.5778,0.8545,19.705,-4.690,-10.500,1.21,12.4490,18.7969,7.5209,4.9330,2025-06-11T08:51:08.624301
760,-0.2235,-0.5851,0.7579,22.715,-19.915,-9.730,1.23,12.5508,19.4085,7.1959,4.9752,2025-06-11T08:51:08.727883
761,-0.1362,-0.6242,0.9404,59.220,61.390,0.595,1.25,11.8028,18.0553,5.6139,4.8911,2025-06-11T08:51:08.727883
762,-0.2216,-0.5836,0.6959,-28.560,28.140,12.425,1.27,10.7229,16.3046,6.5535,5.2556,2025-06-11T08:51:08.727883
763,-0.2586,-0.5851,0.7525,2.065,-32.795,6.405,1.27,12.0482,17.1272,6.7439,5.4338,2025-06-11T08:51:08.727883
764,-0.2250,-0.5475,0.7954,4.935,-30.695,4.620,1.31,12.7565,19.4085,7.4909,5.2336,2025-06-11T08:51:08.727883
765,-0.2015,-0.5534,0.9267,-21.070,3.640,9.660,1.26,12.9649,18.0553,6.9106,4.2728,2025-06-11T08:51:08.727883
766,-0.2435,-0.5505,0.8686,-5.530,7.980,8.330,1.31,13.3363,18.3490,7.1959,4.6249,2025-06-11T08:51:08.727883
767,-0.2567,-0.5178,0.8223,-2.205,-12.985,4.865,1.31,13.3901,15.7080,7.4014,5.2556,2025-06-11T08:51:08.727883
768,-0.2347,-0.5241,0.8843,-7.980,-14.980,-0.455,1.11,12.9649,18.3490,7.5209,5.2997,2025-06-11T08:51:08.727883
769,-0.2303,-0.5300,0.9213,3.290,-1.855,-1.470,1.21,13.3363,16.9879,5.2166,5.3219,2025-06-11T08:51:08.727883
770,-0.2328,-0.5270,0.8725,5.740,10.500,-3.220,1.21,13.1761,17.0575,7.2541,5.5247,2025-06-11T08:51:08.727883
771,-0.2440,-0.5353,0.8384,3.570,2.135,-5.985,1.23,13.0174,13.2483,7.5209,5.5935,2025-06-11T08:51:08.727883
772,-0.2342,-0.5510,0.8520,9.590,-5.215,-7.560,1.19,12.5508,16.3720,6.6346,5.1899,2025-06-11T08:51:08.727883
773,-0.2230,-0.5617,0.8486,5.145,0.175,-6.160,1.24,12.4490,13.4811,6.5804,5.2997,2025-06-11T08:51:09.032034
774,-0.2216,-0.5744,0.8296,5.705,6.055,-4.550,1.28,13.1230,15.8391,7.2834,4.6450,2025-06-11T08:51:09.032034
775,-0.2294,-0.5763,0.8062,3.325,0.770,-3.045,1.22,12.7565,18.3490,7.3127,5.0817,2025-06-11T08:51:09.032034
776,-0.2250,-0.5807,0.8213,0.560,-6.510,-0.805,1.29,13.3363,16.5753,7.2541,4.8495,2025-06-11T08:51:09.032034
777,-0.2196,-0.5768,0.8355,-1.610,-5.145,1.785,1.26,13.7165,18.2752,6.5266,5.0603,2025-06-11T08:51:09.032034
778,-0.2250,-0.5714,0.8340,-3.080,-2.660,4.270,1.25,13.6617,15.7080,6.3410,4.4270,2025-06-11T08:51:09.032034
779,-0.2303,-0.5592,0.8281,-3.640,-4.690,4.900,1.14,11.7058,17.1972,5.5185,4.9121,2025-06-11T08:51:09.032034
780,-0.2352,-0.5480,0.8394,-4.795,-8.400,4.340,1.24,10.9511,16.6435,6.3936,5.2556,2025-06-11T08:51:09.032034
781,-0.2342,-0.5441,0.8642,-3.465,-6.860,3.395,1.11,11.7542,16.3046,6.9952,5.1464,2025-06-11T08:51:09.032034
782,-0.2352,-0.5402,0.8652,-2.800,-3.360,2.380,1.05,12.4490,14.8127,7.1381,4.3494,2025-06-11T08:51:09.032034
783,-0.2372,-0.5378,0.8608,-0.770,-3.360,0.420,1.21,12.8083,16.9186,6.6346,4.6249,2025-06-11T08:51:09.032034
784,-0.2352,-0.5378,0.8613,0.875,-3.710,-1.365,1.29,12.8083,17.8376,5.2394,4.9330,2025-06-11T08:51:09.032034
785,-0.2357,-0.5417,0.8633,1.295,-2.555,-2.485,1.26,11.6575,16.8495,6.0574,4.9541,2025-06-11T08:51:09.032034
786,-0.2323,-0.5505,0.8535,3.360,-0.595,-3.045,1.16,12.6020,16.9186,5.8572,5.3442,2025-06-11T08:51:09.032034
787,-0.2298,-0.5558,0.8398,1.960,-1.120,-3.115,1.13,12.6533,15.0646,6.4200,4.4661,2025-06-11T08:51:09.032034
788,-0.2279,-0.5646,0.8350,2.345,-3.220,-2.695,1.19,11.0897,10.3547,5.8572,4.5848,2025-06-11T08:51:09.032034
789,-0.2235,-0.5710,0.8379,1.330,-2.800,-1.260,1.29,10.8137,15.3838,5.7103,4.9964,2025-06-11T08:51:09.032034
790,-0.2225,-0.5705,0.8369,-0.665,-2.100,0.455,1.30,11.9988,17.8376,6.2109,5.0389,2025-06-11T08:51:09.212217
791,-0.2269,-0.5675,0.8369,0.105,-2.870,1.645,1.24,12.3983,18.6466,7.0521,4.8911,2025-06-11T08:51:09.212217
792,-0.2294,-0.5597,0.8355,-2.450,-4.095,2.520,1.25,13.2293,17.7655,7.4909,5.2556,2025-06-11T08:51:09.212217
793,-0.2323,-0.5573,0.8447,-1.680,-4.410,2.450,1.31,13.5525,18.4973,7.3717,5.0603,2025-06-11T08:51:09.212217
794,-0.2323,-0.5505,0.8506,-1.855,-3.920,2.170,1.27,12.8604,17.6221,7.1670,5.1899,2025-06-11T08:51:09.212217
795,-0.2338,-0.5466,0.8506,-2.135,-4.200,1.575,1.32,11.9005,18.1284,6.7715,4.4661,2025-06-11T08:51:09.212217
796,-0.2333,-0.5461,0.8525,0.140,-4.060,0.490,1.26,12.4998,16.7806,6.3672,4.1221,2025-06-11T08:51:09.212217
797,-0.2313,-0.5461,0.8555,-0.665,-3.150,-0.210,1.25,12.1973,16.4395,6.4200,4.4075,2025-06-11T08:51:09.212217
798,-0.2313,-0.5505,0.8564,1.085,-2.205,-0.840,1.27,12.9126,16.1706,6.1594,4.6450,2025-06-11T08:51:09.212217
799,-0.2303,-0.5549,0.8511,1.575,-1.715,-1.155,1.29,11.8516,16.7806,7.4909,5.2117,2025-06-11T08:51:09.212217
800,-0.2308,-0.5539,0.8452,0.840,-1.575,-1.400,1.23,11.9496,13.1906,6.2887,4.3302,2025-06-11T08:51:09.212217
801,-0.2552,-0.5041,0.7169,-31.255,-10.605,-0.630,1.22,12.9126,16.5753,6.0828,4.8081,2025-06-11T08:51:09.447271
802,-0.2269,-0.5661,0.8574,12.635,2.730,-3.570,1.28,11.9988,16.0374,6.7439,4.7875,2025-06-11T08:51:09.447271
803,-0.2206,-0.5510,0.8481,8.610,-8.960,-2.450,1.30,11.2766,10.8069,7.1381,4.9541,2025-06-11T08:51:09.447271
804,-0.1903,-0.5588,0.8804,2.310,11.655,-0.525,1.26,12.5508,15.8391,6.5804,4.8288,2025-06-11T08:51:09.447271
805,-0.2255,-0.5602,0.8018,-11.655,2.170,1.715,1.29,11.6094,17.9100,6.7715,5.3442,2025-06-11T08:51:09.447271
806,-0.2328,-0.5749,0.8564,11.410,-12.635,-0.140,1.33,12.7565,17.9825,6.9106,5.1681,2025-06-11T08:51:09.447271
807,-0.2245,-0.5510,0.8247,-11.970,-8.680,2.520,1.28,12.7565,18.7217,7.5813,5.2336,2025-06-11T08:51:09.447271
808,-0.2230,-0.5632,0.8818,0.035,1.330,2.975,1.26,12.7565,18.7217,7.0807,5.0603,2025-06-11T08:51:09.447271
809,-0.2323,-0.5534,0.8208,-0.035,0.210,2.345,1.25,12.3478,19.2540,6.0321,5.2556,2025-06-11T08:51:09.447271
810,-0.2406,-0.5388,0.8355,-6.895,-10.255,0.700,1.12,12.4490,17.8376,6.3410,4.3881,2025-06-11T08:51:09.447271
811,-0.2342,-0.5446,0.8603,4.970,-6.195,-1.260,1.19,11.6575,16.8495,6.8269,5.0389,2025-06-11T08:51:09.447271
812,-0.2269,-0.5490,0.8735,-3.360,-0.070,-0.455,1.24,12.7565,18.6466,6.1594,5.1464,2025-06-11T08:51:09.447271
813,-0.2284,-0.5529,0.8520,2.660,-0.350,-1.085,1.26,11.7058,18.3490,7.0521,5.3665,2025-06-11T08:51:09.447271
814,-0.2313,-0.5505,0.8350,2.870,-5.180,-1.995,1.29,10.8594,16.7806,7.1670,5.4791,2025-06-11T08:51:09.447271
815,-0.2250,-0.5597,0.8525,-0.770,-3.080,-1.820,1.14,11.5614,14.0755,6.7439,5.4338,2025-06-11T08:51:09.447271
816,-0.2294,-0.5602,0.8472,1.820,-0.245,-0.980,1.09,11.6094,15.7080,6.3410,5.2336,2025-06-11T08:51:09.447271
817,-0.2303,-0.5588,0.8296,1.575,-1.015,-0.735,1.17,12.6020,12.9042,6.0828,3.7425,2025-06-11T08:51:09.447271
818,-0.2308,-0.5578,0.8291,-1.750,-4.620,-0.700,1.25,13.1230,17.1272,7.0236,4.3110,2025-06-11T08:51:09.447271
819,-0.2294,-0.5612,0.8462,1.505,-5.040,-0.595,1.29,13.2293,16.3720,6.7164,4.1782,2025-06-11T08:51:09.447271
820,-0.2269,-0.5563,0.8496,-8.925,-1.820,0.175,1.28,13.2293,12.8475,6.2109,4.5848,2025-06-11T08:51:09.447271
821,-0.2294,-0.5573,0.8477,-1.995,-2.730,0.665,1.29,11.9005,16.1706,6.4731,4.5848,2025-06-11T08:51:09.447271
822,-0.2274,-0.5558,0.8511,2.485,-4.095,0.245,1.26,12.3983,16.4395,6.3410,4.8081,2025-06-11T08:51:09.447271
823,-0.2269,-0.5510,0.8496,-2.870,-3.360,0.770,1.30,11.1829,17.2675,6.6891,5.0603,2025-06-11T08:51:09.447271
824,-0.2313,-0.5529,0.8516,0.280,-2.450,0.595,1.25,12.2975,18.0553,7.1670,4.9752,2025-06-11T08:51:09.547101
825,-0.2333,-0.5549,0.8369,0.665,-2.310,0.210,1.25,12.8604,16.4395,6.6346,4.8911,2025-06-11T08:51:09.547101
826,-0.2342,-0.5510,0.8428,-1.715,-3.885,-0.245,1.27,12.4490,16.9879,6.9952,4.3687,2025-06-11T08:51:09.547101
827,-0.2318,-0.5549,0.8472,2.695,-3.710,-0.840,1.29,11.4659,13.4227,7.3717,4.9330,2025-06-11T08:51:09.548076
828,-0.2298,-0.5514,0.8467,-2.065,-3.045,-0.455,1.29,12.3983,16.3046,7.4014,4.3881,2025-06-11T08:51:09.548076
829,-0.2294,-0.5592,0.8481,0.735,-3.535,-0.700,1.24,12.9126,17.0575,6.3672,4.8703,2025-06-11T08:51:09.548271
830,-0.2269,-0.5573,0.8438,0.700,-3.815,-0.630,1.27,13.2827,18.7217,6.8269,5.1681,2025-06-11T08:51:09.548271
831,-0.2259,-0.5602,0.8477,-2.030,-3.395,0.035,1.13,13.9937,18.8725,6.7991,5.2776,2025-06-11T08:51:09.548271
832,-0.2279,-0.5558,0.8467,1.680,-3.500,0.140,1.16,13.3363,18.0553,5.9818,5.3889,2025-06-11T08:51:09.548271
833,-0.2284,-0.5568,0.8423,-0.805,-3.185,0.560,1.25,13.8823,17.9825,6.9106,5.1899,2025-06-11T08:51:09.880904
834,-0.2284,-0.5563,0.8447,-1.190,-3.955,0.490,1.29,12.2473,15.4482,7.4610,4.6652,2025-06-11T08:51:09.880904
835,-0.2269,-0.5563,0.8467,1.435,-3.360,0.455,1.26,12.4490,16.5753,5.2394,4.8081,2025-06-11T08:51:09.880904
836,-0.2279,-0.5539,0.8467,-2.275,-2.940,0.700,1.20,12.7048,17.6937,5.9818,5.1032,2025-06-11T08:51:09.880904
837,-0.2298,-0.5573,0.8501,0.490,-3.185,0.455,1.22,13.2293,19.1772,6.7991,5.3889,2025-06-11T08:51:09.880904
838,-0.2294,-0.5539,0.8457,-0.210,-3.150,0.455,1.26,13.0701,16.1706,5.1711,5.1681,2025-06-11T08:51:09.880904
839,-0.2284,-0.5534,0.8506,-1.085,-2.660,0.175,1.25,13.1230,16.1039,6.1338,5.0817,2025-06-11T08:51:09.880904
840,-0.2313,-0.5539,0.8491,1.365,-2.135,-0.105,1.33,13.7165,15.3838,5.2166,5.1899,2025-06-11T08:51:09.880904
841,-0.2313,-0.5519,0.8418,-0.525,-2.905,-0.350,1.30,13.0174,17.4795,6.4998,4.5450,2025-06-11T08:51:09.881965
842,-0.2318,-0.5539,0.8433,0.980,-3.500,-0.910,1.27,12.9126,17.5507,4.8605,4.6652,2025-06-11T08:51:09.881965
843,-0.2264,-0.5539,0.8438,0.245,-3.815,-0.910,1.32,13.3901,15.5129,6.1851,5.1464,2025-06-11T08:51:09.881965
844,-0.2264,-0.5617,0.8481,-0.245,-3.570,-0.385,1.12,12.0977,17.1972,5.4713,4.9964,2025-06-11T08:51:09.881965
845,-0.2255,-0.5627,0.8481,0.315,-3.325,0.420,1.07,12.0977,18.2017,6.7164,5.2336,2025-06-11T08:51:09.881965
846,-0.2264,-0.5597,0.8428,-0.980,-3.325,0.875,1.23,12.4998,16.8495,6.8269,4.9541,2025-06-11T08:51:09.881965
847,-0.2259,-0.5592,0.8413,-0.385,-3.500,1.155,1.18,13.1230,18.5718,6.5266,5.3665,2025-06-11T08:51:09.881965
848,-0.2279,-0.5558,0.8394,-1.225,-3.780,1.155,1.24,13.0174,17.9100,6.7439,5.3442,2025-06-11T08:51:09.881965
849,-0.2284,-0.5529,0.8452,-1.015,-4.235,0.875,1.24,13.1230,19.0243,5.1035,4.9964,2025-06-11T08:51:10.014743
850,-0.2289,-0.5524,0.8462,-0.490,-4.235,0.420,1.29,13.5525,18.5718,6.7715,5.1032,2025-06-11T08:51:10.014743
851,-0.2284,-0.5510,0.8501,-0.805,-3.955,0.070,1.26,11.5614,16.6435,6.1851,5.0389,2025-06-11T08:51:10.014743
852,-0.2298,-0.5534,0.8530,0.350,-3.535,-0.385,1.22,11.9496,18.8725,6.0828,4.9752,2025-06-11T08:51:10.014743
853,-0.2274,-0.5524,0.8520,-0.070,-3.325,-0.560,1.24,10.9972,18.6466,7.2541,4.8495,2025-06-11T08:51:10.014743
854,-0.2284,-0.5563,0.8511,0.280,-3.220,-0.700,1.26,11.4659,13.8356,7.1959,5.1899,2025-06-11T08:51:10.014743
855,-0.2269,-0.5592,0.8491,0.595,-2.905,-0.455,1.24,10.5876,15.9050,7.3127,4.3110,2025-06-11T08:51:10.014743
856,-0.2240,-0.5588,0.8467,-0.105,-2.380,-0.105,1.19,10.3649,17.4086,6.4465,4.6652,2025-06-11T08:51:10.014743
857,-0.2269,-0.5568,0.8418,0.735,-2.100,0.035,1.13,11.5614,19.1006,6.4998,4.2348,2025-06-11T08:51:10.014743
858,-0.2303,-0.5563,0.8413,0.105,-2.275,-0.105,1.21,12.1973,15.9050,6.7164,4.5848,2025-06-11T08:51:10.014743
859,-0.2308,-0.5549,0.8418,0.070,-3.045,-0.140,1.18,12.7048,18.3490,5.5185,4.9330,2025-06-11T08:51:10.014743
860,-0.2279,-0.5549,0.8423,0.455,-3.395,-0.385,1.20,12.4998,17.0575,6.9387,4.2918,2025-06-11T08:51:10.015806
861,-0.2289,-0.5549,0.8467,-0.315,-3.255,-0.385,1.18,12.3478,13.7167,5.7103,4.4857,2025-06-11T08:51:10.015806
862,-0.2294,-0.5578,0.8481,0.420,-2.975,-0.420,1.21,13.2827,14.3794,6.4731,4.8911,2025-06-11T08:51:10.015806
863,-0.2279,-0.5549,0.8477,0.210,-2.730,-0.245,1.27,13.2293,18.0553,6.5535,5.2997,2025-06-11T08:51:10.164805
864,-0.2294,-0.5549,0.8472,-0.245,-3.150,-0.105,1.31,11.3709,17.7655,7.1381,4.3494,2025-06-11T08:51:10.164805
865,-0.2264,-0.5578,0.8447,0.420,-3.325,0.035,1.29,11.9005,17.6221,5.1938,4.6048,2025-06-11T08:51:10.164805
866,-0.2259,-0.5588,0.8423,-0.315,-2.835,0.105,1.28,12.6533,15.8391,6.5535,5.1464,2025-06-11T08:51:10.164805
867,-0.2269,-0.5553,0.8442,-0.035,-2.625,0.280,1.09,12.1973,15.9050,6.1083,4.8495,2025-06-11T08:51:10.164805
868,-0.2303,-0.5539,0.8423,0.175,-2.765,0.140,1.22,12.9649,16.6435,6.4200,4.1407,2025-06-11T08:51:10.164805
869,-0.2313,-0.5553,0.8433,-0.385,-3.255,-8.960,1.24,13.0174,16.9186,6.1594,4.8495,2025-06-11T08:51:10.164805
870,-0.2294,-0.5553,0.8438,0.385,-3.640,-0.385,1.23,13.1230,16.3720,5.4010,5.2556,2025-06-11T08:51:10.164805
871,-0.2269,-0.5568,0.8452,-0.070,-3.500,-0.385,1.27,12.9649,17.4086,6.4731,4.3687,2025-06-11T08:51:10.164805
872,-0.2274,-0.5583,0.8540,-0.105,-3.150,-0.105,1.26,11.4659,17.6221,6.5266,4.7057,2025-06-11T08:51:10.164805
873,-0.2264,-0.5583,0.8481,0.350,-2.835,0.385,1.17,10.9052,15.6428,6.3936,4.4661,2025-06-11T08:51:10.164805
874,-0.2255,-0.5553,0.8438,-0.245,-2.520,0.455,1.25,11.3709,15.9050,6.7439,4.4661,2025-06-11T08:51:10.165490
875,-0.2279,-0.5558,0.8428,0.000,-2.520,0.280,1.29,10.9511,18.2752,5.2394,4.9330,2025-06-11T08:51:10.165490
876,-0.2284,-0.5549,0.8442,-0.035,-2.975,0.140,1.28,11.9496,18.2017,7.2834,5.3665,2025-06-11T08:51:10.165490
877,-0.2294,-0.5549,0.8447,-0.175,-3.255,-0.035,1.19,12.1973,12.9042,6.4465,4.4465,2025-06-11T08:51:10.165490
878,-0.2289,-0.5558,0.8442,0.070,-3.360,-0.175,1.21,12.3478,18.2017,7.3422,4.6652,2025-06-11T08:51:10.578653
879,-0.2264,-0.5553,0.8462,0.175,-3.220,-0.350,1.26,13.1761,19.7206,7.5209,4.9330,2025-06-11T08:51:10.578653
880,-0.2284,-0.5549,0.8452,0.070,-3.045,-0.280,1.26,11.4659,17.4795,6.7991,5.1032,2025-06-11T08:51:10.578653
881,-0.2294,-0.5563,0.8467,0.175,-3.185,-0.315,1.28,12.6533,18.7217,6.9106,5.0603,2025-06-11T08:51:10.578653
882,-0.2284,-0.5505,0.8286,-0.455,-5.495,-0.210,1.26,13.2293,19.0243,6.8826,4.3302,2025-06-11T08:51:10.579270
883,-0.2235,-0.5632,0.8467,-0.840,-5.390,-0.210,1.26,11.5614,17.0575,6.9669,4.9121,2025-06-11T08:51:10.579270
884,-0.2216,-0.5641,0.8467,-1.120,-4.480,0.805,1.25,11.9988,13.4227,7.0807,4.6854,2025-06-11T08:51:10.579270
885,-0.2220,-0.5632,0.8525,-0.910,-2.765,1.645,1.30,12.9126,18.0553,6.8826,5.2556,2025-06-11T08:51:10.579270
886,-0.2294,-0.5539,0.8389,-0.980,-3.255,1.505,1.29,12.6020,16.0374,6.8826,5.2336,2025-06-11T08:51:10.579270
887,-0.2308,-0.5490,0.8467,-1.015,-3.710,0.490,1.23,11.4183,16.4395,6.0574,5.2556,2025-06-11T08:51:10.579270
888,-0.2298,-0.5510,0.8511,-0.525,-4.375,0.070,1.24,12.0482,16.9186,6.8547,5.0603,2025-06-11T08:51:10.579270
889,-0.2274,-0.5529,0.8564,0.315,-3.675,-0.455,1.29,10.9972,16.8495,6.8547,5.0389,2025-06-11T08:51:10.579270
890,-0.2255,-0.5563,0.8506,-0.175,-3.185,-0.420,1.12,11.4183,16.1039,5.5661,4.8495,2025-06-11T08:51:10.579270
891,-0.2352,-0.5641,0.8506,0.315,-2.800,0.105,1.25,11.1362,12.9612,6.6074,4.3687,2025-06-11T08:51:10.579270
892,-0.2503,-0.5754,0.8501,-0.910,1.995,0.350,1.22,12.1973,17.5507,6.6074,4.8081,2025-06-11T08:51:10.579270
893,-0.2264,-0.5500,0.8345,0.980,3.920,-0.175,1.23,12.1474,16.3046,6.1851,4.8703,2025-06-11T08:51:10.579270
894,-0.2167,-0.5373,0.8262,-0.385,0.700,-0.910,1.25,12.4998,17.5507,6.9106,4.8495,2025-06-11T08:51:10.579270
895,-0.2191,-0.5490,0.8398,-0.490,-2.940,-2.100,1.23,12.3478,15.8391,7.5511,5.1899,2025-06-11T08:51:10.672340
896,-0.2298,-0.5573,0.8530,1.330,-4.165,-1.960,1.24,12.4490,17.7655,6.5535,4.8911,2025-06-11T08:51:10.672340
897,-0.2342,-0.5656,0.8540,0.070,-1.715,-0.980,1.10,12.7048,17.0575,6.7439,5.1032,2025-06-11T08:51:10.672340
898,-0.2289,-0.5641,0.8491,0.805,0.490,-0.420,1.16,12.9649,17.4086,7.1381,5.4791,2025-06-11T08:51:10.672340
899,-0.2186,-0.5558,0.8457,0.665,0.035,-0.070,1.19,11.2297,16.1039,5.1711,5.2997,2025-06-11T08:51:10.672340
900,-0.2142,-0.5524,0.8442,0.000,-2.240,0.070,1.23,11.9005,16.6435,6.4731,4.9752,2025-06-11T08:51:10.672340
901,-0.2318,-0.5568,0.8428,0.210,-2.660,0.210,1.25,12.8083,18.2752,6.7439,5.4113,2025-06-11T08:51:10.672340
902,-0.2318,-0.5583,0.8359,-0.140,-2.765,0.280,1.19,12.4490,16.4395,6.6618,4.5252,2025-06-11T08:51:10.672340
903,-0.2303,-0.5558,0.8345,0.035,-3.255,-0.210,1.27,12.2975,17.9825,6.2109,4.8288,2025-06-11T08:51:10.672340
904,-0.2328,-0.5578,0.8423,-0.070,-3.290,-0.490,1.25,12.3983,16.7806,6.0321,4.2158,2025-06-11T08:51:10.672340
905,-0.2303,-0.5573,0.8525,-0.245,-3.220,-0.105,1.21,12.5508,18.4230,4.9700,4.4465,2025-06-11T08:51:10.672340
906,-0.2303,-0.5578,0.8506,0.210,-3.290,0.245,1.21,13.0701,16.3720,6.5266,4.8081,2025-06-11T08:51:10.672340
907,-0.2274,-0.5578,0.8398,-0.560,-4.305,-0.140,1.25,13.2293,17.6221,7.4014,5.4113,2025-06-11T08:51:10.673120
908,-0.2240,-0.5612,0.8501,-0.525,-3.500,0.105,1.24,12.9649,19.2540,7.6422,5.5475,2025-06-11T08:51:10.673120
909,-0.2279,-0.5607,0.8530,-0.490,-3.290,1.085,1.28,13.4982,18.4973,6.8826,5.3665,2025-06-11T08:51:10.673120
910,-0.2313,-0.5573,0.8433,-0.280,-2.485,1.260,1.26,12.2975,19.7206,7.6727,5.2336,2025-06-11T08:51:10.673120
911,-0.2318,-0.5514,0.8316,-0.665,-3.500,0.455,1.27,12.3983,19.1006,5.3777,5.0389,2025-06-11T08:51:10.673120
912,-0.2308,-0.5539,0.8408,-0.315,-4.270,-0.280,1.25,12.3983,16.3720,5.4949,5.2117,2025-06-11T08:51:10.719867
913,-0.2328,-0.5529,0.8491,0.175,-3.990,-0.595,1.14,12.7565,18.7217,6.7164,5.2997,2025-06-11T08:51:10.719867
914,-0.2308,-0.5544,0.8501,0.000,-3.325,-0.630,1.08,11.4183,18.0553,6.7715,4.7465,2025-06-11T08:51:10.719867
915,-0.2298,-0.5578,0.8477,0.210,-3.885,-0.630,1.18,11.9005,16.2375,6.6346,5.0817,2025-06-11T08:51:10.719867
916,-0.2289,-0.5588,0.8447,0.105,-3.920,-0.420,1.23,11.1362,17.2675,6.6891,5.2776,2025-06-11T08:51:10.719867
917,-0.2298,-0.5612,0.8438,-0.280,-2.975,0.105,1.28,11.0434,18.2752,6.6891,5.4564,2025-06-11T08:51:10.719867
918,-0.2430,-0.5680,0.8501,-0.630,-0.945,0.770,1.23,10.4092,16.0374,5.0364,4.6249,2025-06-11T08:51:10.775408
919,-0.2298,-0.5592,0.8394,-0.385,-0.350,0.770,1.22,11.3709,18.7969,6.7991,4.5848,2025-06-11T08:51:10.775408
920,-0.2245,-0.5461,0.8316,-0.210,-1.995,0.105,1.26,11.2297,18.7217,6.4731,5.1248,2025-06-11T08:51:10.775408
921,-0.2264,-0.5514,0.8418,-0.805,-3.605,-0.560,1.28,11.9496,17.1972,6.4998,5.1032,2025-06-11T08:51:10.775408
922,-0.2318,-0.5588,0.8525,0.000,-4.130,-0.490,1.24,12.2975,17.7655,5.1938,4.9541,2025-06-11T08:51:11.081914
923,-0.2279,-0.5583,0.8491,0.420,-3.395,-0.315,1.31,12.9126,16.9186,6.9106,4.8911,2025-06-11T08:51:11.081914
924,-0.2274,-0.5578,0.8452,0.140,-2.415,-0.385,1.24,11.3709,17.7655,5.9818,5.2556,2025-06-11T08:51:11.082923
925,-0.2279,-0.5553,0.8511,0.385,-2.030,-0.420,1.22,11.6575,17.5507,6.6891,5.0176,2025-06-11T08:51:11.083138
926,-0.2318,-0.5553,0.8481,0.840,-2.135,-0.455,1.30,12.8083,16.7120,6.4998,4.5848,2025-06-11T08:51:11.083138
927,-0.2313,-0.5549,0.8438,0.630,-2.275,-0.630,1.27,13.0174,17.6221,7.2834,5.1464,2025-06-11T08:51:11.083138
928,-0.2303,-0.5588,0.8364,0.385,-2.625,-0.560,1.26,11.2766,15.9711,5.8080,5.0389,2025-06-11T08:51:11.083138
929,-0.2289,-0.5632,0.8408,0.525,-2.660,-0.315,1.26,12.2473,13.3644,6.6074,4.4270,2025-06-11T08:51:11.083138
930,-0.2294,-0.5607,0.8408,-0.210,-2.695,0.105,1.25,12.0977,12.7344,6.9952,4.2918,2025-06-11T08:51:11.083138
931,-0.2303,-0.5617,0.8394,-0.280,-3.080,0.315,1.21,12.6020,12.0155,5.3545,4.8703,2025-06-11T08:51:11.083138
932,-0.2318,-0.5583,0.8408,-0.280,-3.325,0.420,1.12,13.4982,16.5073,7.0236,4.9541,2025-06-11T08:51:11.083138
933,-0.2303,-0.5553,0.8438,-0.595,-3.465,0.315,1.22,13.3363,17.4795,5.4244,5.2776,2025-06-11T08:51:11.083926
934,-0.2294,-0.5544,0.8477,-0.070,-3.465,0.035,1.18,12.5508,18.5718,6.8269,4.9964,2025-06-11T08:51:11.083926
935,-0.2313,-0.5553,0.8496,-0.175,-3.500,-0.035,1.27,13.3363,16.7806,6.9106,4.9964,2025-06-11T08:51:11.083926
936,-0.2289,-0.5568,0.8496,0.035,-3.535,-0.035,1.31,13.1761,17.2675,6.4465,5.4113,2025-06-11T08:51:11.083926
937,-0.2303,-0.5583,0.8452,-0.035,-3.255,0.105,1.23,12.9649,14.5640,5.0142,5.2117,2025-06-11T08:51:11.190879
938,-0.2294,-0.5602,0.8423,-0.175,-2.905,0.350,1.11,13.2293,17.2675,6.3148,5.1681,2025-06-11T08:51:11.190879
939,-0.2298,-0.5588,0.8413,-0.140,-2.835,0.560,1.25,13.4982,18.7969,7.0521,5.1899,2025-06-11T08:51:11.190879
940,-0.2318,-0.5563,0.8398,-0.105,-2.835,0.315,1.26,12.0482,17.1272,7.0521,5.4113,2025-06-11T08:51:11.190879
941,-0.2333,-0.5558,0.8389,-0.140,-3.115,-0.035,1.22,12.4490,18.3490,5.9317,5.0389,2025-06-11T08:51:11.190879
942,-0.2323,-0.5553,0.8438,0.035,-3.605,-0.420,1.12,12.8604,17.6221,6.1083,4.9752,2025-06-11T08:51:11.190879
943,-0.2289,-0.5544,0.8438,0.140,-3.605,-0.490,1.19,13.0701,15.9711,6.3148,5.2117,2025-06-11T08:51:11.190879
944,-0.2294,-0.5588,0.8467,0.595,-3.290,-0.490,1.10,11.2766,18.1284,6.7164,5.1899,2025-06-11T08:51:11.190879
945,-0.2269,-0.5651,0.8530,0.070,-1.890,-0.140,1.25,11.9988,17.6221,6.6891,5.0603,2025-06-11T08:51:11.190879
946,-0.2308,-0.5568,0.8477,-1.225,-3.010,0.420,1.30,11.1362,17.9825,6.8826,5.1464,2025-06-11T08:51:11.191929
947,-0.2289,-0.5583,0.8428,2.345,-2.135,0.105,1.22,11.4659,14.6259,6.2627,5.1032,2025-06-11T08:51:11.191929
948,-0.2347,-0.5553,0.8355,-2.345,-1.925,0.070,1.22,10.7682,17.6221,6.5535,5.1464,2025-06-11T08:51:11.191929
949,-0.2328,-0.5558,0.8408,2.485,-2.835,-0.595,1.26,11.8028,17.1972,7.0521,4.7261,2025-06-11T08:51:11.191929
950,-0.2313,-0.5534,0.8374,0.140,-3.325,-0.630,1.21,12.7048,18.0553,6.9669,4.8495,2025-06-11T08:51:11.191929
951,-0.2308,-0.5622,0.8481,-0.385,-3.605,-0.455,1.24,11.5135,17.2675,7.1381,4.7057,2025-06-11T08:51:11.376276
952,-0.2279,-0.5632,0.8467,1.750,-2.835,-0.280,1.30,10.5876,18.5718,6.3410,4.1970,2025-06-11T08:51:11.390979
953,-0.2279,-0.5563,0.8442,-1.785,-2.905,0.315,1.26,11.8028,17.6937,6.6618,4.8703,2025-06-11T08:51:11.390979
954,-0.2318,-0.5597,0.8452,1.295,-3.010,0.140,1.17,9.7166,13.0755,6.3672,4.9541,2025-06-11T08:51:11.390979
955,-0.2294,-0.5578,0.8442,-1.120,-2.940,0.490,1.14,11.3237,17.2675,5.1035,5.3219,2025-06-11T08:51:11.390979
956,-0.2323,-0.5563,0.8423,-0.875,-3.395,0.385,1.22,12.1474,13.8953,6.5804,5.4564,2025-06-11T08:51:11.390979
957,-0.2303,-0.5549,0.8384,0.980,-3.185,0.035,1.24,12.5508,16.8495,6.7991,5.4338,2025-06-11T08:51:11.390979
958,-0.2323,-0.5544,0.8447,-1.435,-3.220,0.070,1.31,12.7048,16.0374,7.4014,5.2117,2025-06-11T08:51:11.390979
959,-0.2308,-0.5568,0.8486,1.015,-3.150,-0.140,1.25,13.1230,16.4395,6.9952,5.2997,2025-06-11T08:51:11.390979
960,-0.2308,-0.5578,0.8418,-0.385,-3.465,0.000,1.22,13.2293,16.3046,7.1670,5.4791,2025-06-11T08:51:11.390979
961,-0.2274,-0.5602,0.8457,0.035,-2.695,-0.070,1.22,13.8823,18.4973,6.8269,5.1464,2025-06-11T08:51:11.390979
962,-0.2269,-0.5588,0.8452,0.385,-2.310,0.140,1.08,13.5525,18.0553,5.4478,4.5649,2025-06-11T08:51:11.390979
963,-0.2313,-0.5568,0.8442,0.070,-2.450,0.245,1.21,13.7165,16.9186,6.9106,4.8081,2025-06-11T08:51:11.391980
964,-0.2323,-0.5549,0.8413,0.105,-2.905,0.070,1.24,13.3901,13.6576,6.2627,4.8081,2025-06-11T08:51:11.391980
965,-0.2362,-0.5558,0.8389,0.035,-3.710,-0.210,1.23,11.9005,15.5129,6.9387,4.8495,2025-06-11T08:51:11.391980
966,-0.2303,-0.5578,0.8398,-0.140,-3.850,-0.175,1.24,12.7565,17.1272,6.6074,4.9964,2025-06-11T08:51:11.391980
967,-0.2298,-0.5597,0.8442,-0.385,-3.885,0.035,1.27,13.2293,17.7655,7.1959,5.2556,2025-06-11T08:51:11.808598
968,-0.2264,-0.5636,0.8477,-0.035,-3.395,0.560,1.12,13.3363,16.9186,6.6074,5.4564,2025-06-11T08:51:11.808598
969,-0.2284,-0.5592,0.8477,-1.085,-2.800,1.120,1.22,13.2293,18.2017,7.1670,5.5018,2025-06-11T08:51:11.808598
970,-0.2308,-0.5563,0.8442,0.070,-2.940,0.945,1.24,13.6070,18.1284,7.0236,5.0817,2025-06-11T08:51:11.808598
971,-0.2323,-0.5558,0.8428,-0.245,-2.800,0.700,1.14,13.1230,18.2017,7.0236,5.0817,2025-06-11T08:51:11.808598
972,-0.2357,-0.5529,0.8447,-0.385,-2.625,0.315,1.24,12.6533,14.1965,7.0521,5.2117,2025-06-11T08:51:11.809600
973,-0.2328,-0.5514,0.8477,1.015,-2.730,-0.280,1.26,12.9126,17.7655,7.3127,4.9330,2025-06-11T08:51:11.809600
974,-0.2313,-0.5524,0.8467,-0.455,-2.975,-0.630,1.25,13.5525,18.9483,7.2834,5.1899,2025-06-11T08:51:11.809600
975,-0.2318,-0.5563,0.8457,1.190,-2.870,-1.015,1.22,13.2293,18.2752,7.4014,5.3889,2025-06-11T08:51:11.809600
976,-0.2298,-0.5583,0.8477,0.560,-2.065,-0.980,1.15,13.0701,14.3182,7.4014,5.3889,2025-06-11T08:51:11.809600
977,-0.2313,-0.5583,0.8501,-0.070,-1.925,-0.490,1.08,13.5525,16.9879,6.6074,5.1464,2025-06-11T08:51:11.809600
978,-0.2294,-0.5627,0.8472,1.295,-1.820,-0.035,1.21,11.7542,18.7969,7.5813,4.3687,2025-06-11T08:51:11.809600
979,-0.2298,-0.5563,0.8384,-0.455,-1.855,0.350,1.20,12.6533,18.8725,6.7439,4.7465,2025-06-11T08:51:11.810589
980,-0.2323,-0.5597,0.8345,0.455,-2.170,0.175,1.27,12.8083,18.2017,6.6891,5.0389,2025-06-11T08:51:11.810589
981,-0.2323,-0.5563,0.8374,0.525,-2.520,-0.035,1.29,12.6020,18.2017,7.1959,5.2117,2025-06-11T08:51:11.810589
982,-0.2342,-0.5558,0.8413,-0.980,-3.605,-0.035,1.24,12.3983,17.9100,5.9567,5.2776,2025-06-11T08:51:11.810589
983,-0.2318,-0.5592,0.8413,0.245,-4.375,0.070,1.11,11.7058,16.8495,6.3148,5.4113,2025-06-11T08:51:11.810589
984,-0.2284,-0.5602,0.8418,-0.630,-3.955,0.315,1.18,12.8083,17.5507,6.3410,4.6450,2025-06-11T08:51:11.896791
985,-0.2279,-0.5592,0.8462,-1.225,-3.395,0.735,1.23,12.6533,14.9383,6.9669,4.5848,2025-06-11T08:51:11.896791
986,-0.2303,-0.5607,0.8472,0.350,-3.045,0.945,1.29,11.8028,17.6221,7.3127,4.0296,2025-06-11T08:51:11.896791
987,-0.2318,-0.5563,0.8438,-1.260,-2.940,1.015,1.28,12.3983,19.2540,6.2367,3.9024,2025-06-11T08:51:11.896791
988,-0.2333,-0.5514,0.8452,0.105,-3.150,0.560,1.26,10.7229,16.2375,5.1485,4.6249,2025-06-11T08:51:11.896791
989,-0.2333,-0.5534,0.8438,0.280,-3.150,0.175,1.31,11.2766,17.9825,6.8826,4.1407,2025-06-11T08:51:11.896791
990,-0.2338,-0.5529,0.8428,-0.630,-3.605,-0.350,1.14,12.2975,17.8376,6.7439,4.4270,2025-06-11T08:51:11.896791
991,-0.2318,-0.5583,0.8442,0.980,-3.395,-0.490,1.10,11.3709,18.5718,6.7991,4.9752,2025-06-11T08:51:11.896791
992,-0.2284,-0.5573,0.8428,-0.420,-2.905,-0.315,1.19,11.9496,17.9100,6.8547,4.9121,2025-06-11T08:51:11.896791
993,-0.2303,-0.5602,0.8467,0.280,-2.730,-0.210,1.10,13.0174,18.7217,7.3717,5.1681,2025-06-11T08:51:11.896791
994,-0.2298,-0.5578,0.8442,0.455,-2.660,-0.070,1.23,11.6094,19.2540,6.7715,5.5247,2025-06-11T08:51:11.896791
995,-0.2308,-0.5573,0.8423,-0.770,-3.080,0.315,1.26,11.9496,17.4086,6.8269,5.2997,2025-06-11T08:51:11.896791
996,-0.2308,-0.5588,0.8447,0.665,-2.730,0.280,1.29,12.0482,13.8953,6.8826,5.3665,2025-06-11T08:51:11.896791
997,-0.2318,-0.5573,0.8433,-0.420,-2.380,0.385,1.25,11.3709,17.9100,5.7103,5.4564,2025-06-11T08:51:11.896791
998,-0.2333,-0.5573,0.8438,0.280,-2.380,0.175,1.26,11.9496,16.9186,7.0236,5.3442,2025-06-11T08:51:11.896791
999,-0.2342,-0.5544,0.8398,0.595,-2.660,-0.210,1.32,12.3478,19.9575,7.0807,5.2997,2025-06-11T08:51:11.896791
1000,-0.2338,-0.5534,0.8442,0.070,-2.765,-0.665,1.32,12.4490,18.4230,7.0521,4.8495,2025-06-11T08:51:11.896791
1001,-0.2328,-0.5553,0.8481,1.015,-2.730,-0.980,1.31,11.8028,13.0182,6.4465,5.1464,2025-06-11T08:51:11.955417
1002,-0.2308,-0.5563,0.8486,0.350,-2.695,-0.770,1.33,12.6533,17.9100,5.8820,4.5649,2025-06-11T08:51:11.955417
1003,-0.2323,-0.5592,0.8428,0.595,-2.485,-0.420,1.26,13.0174,16.9186,6.9952,5.2336,2025-06-11T08:51:11.955417
1004,-0.2308,-0.5651,0.8438,1.365,-2.205,-0.280,1.27,13.2293,15.7735,7.2834,5.0176,2025-06-11T08:51:11.955417
1005,-0.2318,-0.5588,0.8364,-2.170,-2.905,0.490,1.27,13.2293,17.1272,5.0811,4.8288,2025-06-11T08:51:11.955417
1006,-0.2333,-0.5602,0.8398,2.765,-3.255,0.175,1.13,13.6617,18.2752,6.7164,5.0817,2025-06-11T08:51:11.955417
1007,-0.2333,-0.5583,0.8320,-3.255,-3.395,0.490,1.22,13.6070,13.7167,7.4014,4.6048,2025-06-11T08:51:11.955417
1008,-0.2333,-0.5583,0.8462,0.525,-4.515,0.140,1.27,13.0701,17.6937,5.1260,4.8911,2025-06-11T08:51:12.207994
1009,-0.2308,-0.5563,0.8398,-0.070,-3.885,0.210,1.29,12.9126,18.3490,4.9480,5.2336,2025-06-11T08:51:12.208991
1010,-0.2323,-0.5568,0.8472,-2.485,-4.130,0.280,1.29,12.6020,18.2017,6.0828,5.2776,2025-06-11T08:51:12.208991
1011,-0.2308,-0.5578,0.8520,1.225,-3.430,0.350,1.30,12.5508,18.8725,6.8269,5.1899,2025-06-11T08:51:12.208991
1012,-0.2313,-0.5544,0.8442,-1.750,-4.165,0.525,1.32,12.6533,19.2540,7.3127,5.0603,2025-06-11T08:51:12.208991
1013,-0.2308,-0.5583,0.8481,0.945,-2.800,0.035,1.25,11.6575,18.7969,7.4909,5.1899,2025-06-11T08:51:12.208991
1014,-0.2318,-0.5539,0.8438,-0.875,-3.080,0.175,1.27,12.3983,18.1284,6.9952,4.6854,2025-06-11T08:51:12.208991
1015,-0.2338,-0.5563,0.8467,1.085,-3.010,-0.210,1.29,13.0701,19.0243,7.0807,5.0603,2025-06-11T08:51:12.209988
1016,-0.2318,-0.5549,0.8413,-0.245,-3.045,-0.350,1.26,12.9126,18.1284,5.2852,5.1464,2025-06-11T08:51:12.209988
1017,-0.2333,-0.5558,0.8423,0.490,-3.360,-0.560,1.25,13.3901,18.9483,6.4200,5.2997,2025-06-11T08:51:12.209988
1018,-0.2313,-0.5578,0.8447,1.050,-3.045,-0.770,1.26,13.3363,17.5507,6.3672,5.0176,2025-06-11T08:51:12.209988
1019,-0.2303,-0.5588,0.8452,-0.945,-3.360,-0.350,1.27,13.1230,17.5507,7.2834,5.2556,2025-06-11T08:51:12.209988
1020,-0.2284,-0.5602,0.8467,1.400,-3.045,-0.105,1.12,13.1761,18.3490,6.8547,5.0176,2025-06-11T08:51:12.209988
1021,-0.2308,-0.5568,0.8418,-1.050,-2.835,0.350,1.17,10.3649,19.2540,5.6139,4.8495,2025-06-11T08:51:12.209988
1022,-0.2313,-0.5578,0.8428,0.210,-2.905,0.175,1.27,11.3709,19.8782,6.2887,5.0389,2025-06-11T08:51:12.210984
1023,-0.2313,-0.5583,0.8423,-0.035,-3.185,0.105,1.25,10.8137,19.7206,6.5804,5.0817,2025-06-11T08:51:12.210984
1024,-0.2328,-0.5563,0.8442,-0.630,-3.465,0.000,1.23,11.9988,18.8725,7.0521,5.1464,2025-06-11T08:51:12.210984
1025,-0.2318,-0.5588,0.8433,0.560,-3.325,-0.210,1.28,12.4490,17.7655,4.3765,4.9964,2025-06-11T08:51:12.514142
1026,-0.2318,-0.5568,0.8408,-0.560,-3.710,-0.140,1.26,12.7565,17.1272,5.9818,5.1248,2025-06-11T08:51:12.514142
1027,-0.2289,-0.5578,0.8462,0.140,-3.780,-0.175,1.30,13.3363,16.7120,6.0321,5.1248,2025-06-11T08:51:12.514142
1028,-0.2289,-0.5568,0.8442,-0.245,-3.675,0.000,1.14,13.5525,17.1972,6.9952,4.6450,2025-06-11T08:51:12.514142
1029,-0.2298,-0.5583,0.8472,-0.385,-3.185,0.210,1.25,14.0497,17.6937,6.8269,5.1899,2025-06-11T08:51:12.515204
1030,-0.2298,-0.5588,0.8477,-0.140,-3.045,0.280,1.23,13.8268,13.5398,6.8826,5.0176,2025-06-11T08:51:12.515204
1031,-0.2318,-0.5568,0.8462,-0.070,-2.870,0.280,1.28,13.8823,17.4086,6.9952,4.6249,2025-06-11T08:51:12.515204
1032,-0.2318,-0.5544,0.8452,-0.070,-2.660,0.140,1.29,13.6070,17.1272,7.3127,4.8495,2025-06-11T08:51:12.515204
1033,-0.2318,-0.5568,0.8433,0.070,-2.800,-0.105,1.28,11.5135,17.5507,7.2250,4.8081,2025-06-11T08:51:12.515204
1034,-0.2323,-0.5558,0.8389,0.070,-3.290,-0.105,1.27,12.0977,16.7806,6.8547,4.9964,2025-06-11T08:51:12.515204
1035,-0.2313,-0.5592,0.8418,0.385,-3.465,-0.280,1.29,11.9005,17.5507,6.4465,5.1248,2025-06-11T08:51:12.515204
1036,-0.2308,-0.5563,0.8413,-0.875,-3.570,0.035,1.27,11.9005,12.6782,6.9106,5.1899,2025-06-11T08:51:12.515204
1037,-0.2298,-0.5592,0.8457,0.770,-3.500,0.140,1.31,12.2975,17.4086,6.9952,4.6854,2025-06-11T08:51:12.515204
1038,-0.2294,-0.5583,0.8438,-0.945,-3.185,0.280,1.24,12.9126,18.7217,7.1381,4.9752,2025-06-11T08:51:12.515204
1039,-0.2298,-0.5607,0.8447,-0.700,-3.745,0.490,1.25,12.7048,15.9050,7.1381,4.8081,2025-06-11T08:51:12.515204
1040,-0.2284,-0.5588,0.8462,0.455,-3.220,0.490,1.26,13.0174,18.1284,7.4014,5.1464,2025-06-11T08:51:12.515204
1041,-0.2313,-0.5583,0.8447,-1.715,-3.150,0.875,1.25,13.6070,17.6221,7.3127,5.2336,2025-06-11T08:51:12.515204
1042,-0.2303,-0.5602,0.8452,0.665,-2.835,0.910,1.24,12.9649,18.8725,6.9387,4.9752,2025-06-11T08:51:12.831630
1043,-0.2328,-0.5558,0.8389,-0.910,-3.045,0.875,1.31,13.2293,18.7217,6.6074,4.2158,2025-06-11T08:51:12.831630
1044,-0.2313,-0.5563,0.8438,0.105,-2.940,0.455,1.28,13.1230,17.1272,7.0521,4.9330,2025-06-11T08:51:12.831630
1045,-0.2328,-0.5544,0.8447,0.665,-2.380,-0.210,1.21,12.9126,17.6221,6.7439,5.0389,2025-06-11T08:51:12.831630
1046,-0.2338,-0.5524,0.8477,-0.245,-2.695,-0.560,1.24,11.8028,16.3046,6.5266,4.8288,2025-06-11T08:51:12.831630
1047,-0.2323,-0.5539,0.8452,1.295,-3.185,-0.945,1.27,12.4490,14.7503,7.1959,5.2556,2025-06-11T08:51:12.831630
1048,-0.2298,-0.5573,0.8433,0.175,-3.150,-1.015,1.11,12.6533,13.1329,7.3717,5.2556,2025-06-11T08:51:12.831630
1049,-0.2284,-0.5632,0.8481,0.420,-2.485,-0.630,1.23,12.7048,16.7806,6.6074,5.2556,2025-06-11T08:51:12.831630
1050,-0.2279,-0.5632,0.8428,0.350,-2.380,0.105,1.26,13.4982,17.6221,7.3717,5.3442,2025-06-11T08:51:12.831630
1051,-0.2298,-0.5636,0.8394,-0.070,-2.555,0.525,1.30,11.5135,18.3490,6.0321,4.6249,2025-06-11T08:51:12.832168
1052,-0.2318,-0.5612,0.8335,-0.385,-2.940,0.665,1.32,12.0482,18.9483,5.3777,4.6450,2025-06-11T08:51:12.832168
1053,-0.2338,-0.5573,0.8311,-0.350,-3.535,0.385,1.25,12.6533,19.5640,6.4200,4.7875,2025-06-11T08:51:12.832168
1054,-0.2352,-0.5602,0.8462,0.735,-3.745,-0.175,1.25,12.4490,19.4085,6.9106,4.8288,2025-06-11T08:51:12.832168
1055,-0.2323,-0.5519,0.8389,-4.620,-6.160,0.595,1.17,12.3478,18.9483,5.4949,4.3881,2025-06-11T08:51:12.832168
1056,-0.2274,-0.5617,0.8540,5.215,-4.445,-0.315,1.23,11.0897,17.3379,6.3936,4.9964,2025-06-11T08:51:12.832168
1057,-0.2264,-0.5592,0.8462,-4.865,-2.520,0.735,1.28,11.9496,18.8725,6.7439,5.2117,2025-06-11T08:51:12.832168
1058,-0.2313,-0.5592,0.8560,1.750,-4.095,0.700,1.25,12.0977,17.1272,6.4731,4.3302,2025-06-11T08:51:12.832168
1059,-0.2284,-0.5553,0.8408,3.605,-2.030,0.350,1.23,12.2473,18.8725,6.4998,5.0389,2025-06-11T08:51:12.889284
1060,-0.2333,-0.5534,0.8462,-5.600,-3.325,0.700,1.26,12.7048,19.1772,7.1670,5.1464,2025-06-11T08:51:12.889992
1061,-0.2338,-0.5588,0.8457,5.845,-2.940,-0.420,1.26,12.7565,19.7206,7.0236,4.8495,2025-06-11T08:51:12.889992
1062,-0.2318,-0.5519,0.8355,-3.570,-3.395,-0.385,1.24,13.1230,16.9186,6.9106,4.8288,2025-06-11T08:51:12.889992
1063,-0.2318,-0.5617,0.8555,1.540,-3.535,-0.770,1.24,11.6094,18.5718,6.6891,4.8495,2025-06-11T08:51:12.890141
1064,-0.2294,-0.5583,0.8413,2.065,-3.325,-0.490,1.20,11.1362,18.5718,6.6074,4.8911,2025-06-11T08:51:12.890141
1065,-0.2298,-0.5588,0.8477,-1.925,-2.765,-0.210,1.23,12.1973,13.1329,5.7346,4.8911,2025-06-11T08:51:12.890141
1066,-0.2269,-0.5617,0.8462,1.785,-2.485,0.000,1.23,9.9295,17.7655,5.9317,4.6249,2025-06-11T08:51:12.890141
1067,-0.2289,-0.5573,0.8457,0.035,-2.485,0.420,1.25,11.2766,17.7655,5.2852,4.6249,2025-06-11T08:51:12.890141
1068,-0.2313,-0.5583,0.8418,-0.700,-2.380,0.490,1.30,11.9496,18.4973,6.7439,4.9964,2025-06-11T08:51:12.890141
1069,-0.2313,-0.5578,0.8374,0.420,-3.255,0.210,1.17,12.0482,15.2555,6.9106,5.2117,2025-06-11T08:51:12.890141
1070,-0.2318,-0.5553,0.8428,0.035,-3.045,-0.105,1.14,12.0482,17.5507,7.1381,5.3442,2025-06-11T08:51:12.890141
1071,-0.2323,-0.5553,0.8413,-0.910,-3.255,-0.175,1.22,10.9972,18.1284,6.4998,5.4564,2025-06-11T08:51:12.890141
1072,-0.2338,-0.5588,0.8477,1.260,-3.115,-0.525,1.27,12.1973,17.3379,6.3672,4.5252,2025-06-11T08:51:12.890141
1073,-0.2377,-0.5607,0.8457,-0.770,-2.030,-0.035,1.24,12.9126,17.4795,6.9669,5.1248,2025-06-11T08:51:12.890141
1074,-0.2406,-0.5627,0.8452,0.140,-1.330,-0.210,1.25,13.2293,17.9825,6.9952,5.1248,2025-06-11T08:51:12.890141
1075,-0.2347,-0.5592,0.8394,0.875,-0.070,-0.595,1.11,13.6617,17.6221,6.9387,5.0603,2025-06-11T08:51:12.890141
1076,-0.2289,-0.5553,0.8423,-1.575,-0.875,-0.665,1.17,13.4441,17.3379,7.0807,5.1899,2025-06-11T08:51:13.028786
1077,-0.2240,-0.5544,0.8433,1.400,-2.065,-0.910,1.24,13.1230,12.8475,5.1711,5.1681,2025-06-11T08:51:13.028786
1078,-0.2250,-0.5597,0.8428,-0.875,-2.450,-0.490,1.28,13.3901,16.8495,4.9260,4.8911,2025-06-11T08:51:13.028786
1079,-0.2255,-0.5588,0.8433,0.630,-2.765,-0.385,1.31,13.9937,18.5718,6.7164,5.0603,2025-06-11T08:51:13.028786
1080,-0.2323,-0.5617,0.8428,0.840,-2.730,-0.175,1.24,13.1230,16.3046,6.7439,4.8703,2025-06-11T08:51:13.028786
1081,-0.2303,-0.5607,0.8457,-1.050,-3.045,0.175,1.25,13.3363,16.0374,6.5266,4.9330,2025-06-11T08:51:13.028786
1082,-0.2308,-0.5602,0.8433,0.945,-3.290,0.350,1.23,13.8268,19.7206,7.5511,5.1899,2025-06-11T08:51:13.028786
1083,-0.2313,-0.5592,0.8418,-0.875,-2.730,0.490,1.25,13.7716,16.4395,6.7991,5.1248,2025-06-11T08:51:13.028786
1084,-0.2323,-0.5592,0.8408,-0.770,-3.045,0.665,1.22,13.7716,17.5507,7.1670,5.1681,2025-06-11T08:51:13.029542
1085,-0.2303,-0.5568,0.8403,0.525,-3.535,0.420,1.29,13.5525,16.6435,5.4010,5.1032,2025-06-11T08:51:13.029542
1086,-0.2342,-0.5549,0.8398,-1.050,-3.360,0.245,1.29,12.6533,18.1284,6.3936,5.2776,2025-06-11T08:51:13.029542
1087,-0.2328,-0.5553,0.8447,0.105,-3.255,-0.105,1.21,12.9649,18.3490,6.4465,5.1899,2025-06-11T08:51:13.333318
1088,-0.2323,-0.5558,0.8462,0.560,-3.255,-0.350,1.28,13.2827,14.0755,7.2541,4.4270,2025-06-11T08:51:13.333318
1089,-0.2298,-0.5578,0.8472,-0.315,-2.940,-0.385,1.26,12.9126,17.0575,7.5511,4.6048,2025-06-11T08:51:13.333318
