SeqNum,AccX,AccY,AccZ,GyroX,GyroY,GyroZ,Flex,Force1,Force2,Force3,Force4,TimestampReception
23814,-0.4089,-0.8267,-0.4324,0.070,-2.380,0.630,470,430,294,405,380,2025-05-27T23:04:20.018719
23815,-0.9448,-0.6725,0.2420,71.330,35.280,117.845,471,416,291,379,330,2025-05-27T23:04:20.018719
23816,-0.9365,-0.6378,0.2347,76.475,30.590,121.415,438,414,316,387,367,2025-05-27T23:04:20.018719
23817,-0.9384,-0.6032,0.2269,82.775,26.110,124.565,432,437,351,395,388,2025-05-27T23:04:20.018719
23818,-0.9287,-0.5549,0.2333,88.200,25.375,126.805,431,425,371,397,396,2025-05-27T23:04:20.018719
23819,-0.9374,-0.5202,0.2201,93.240,25.270,127.085,418,416,335,416,389,2025-05-27T23:04:20.018719
23820,-0.9335,-0.5134,0.2074,98.000,23.310,126.840,404,377,347,405,394,2025-05-27T23:04:20.018719
23821,-0.8955,-0.4685,0.2133,103.880,19.145,127.855,400,415,367,393,343,2025-05-27T23:04:20.018719
23822,-0.8691,-0.4265,0.2094,107.380,16.870,129.920,412,385,359,407,392,2025-05-27T23:04:20.018719
23823,-0.8452,-0.3811,0.2011,108.150,15.645,130.550,378,293,375,409,345,2025-05-27T23:04:20.018719
23824,-0.8106,-0.3538,0.1654,108.535,14.350,130.375,387,374,350,358,386,2025-05-27T23:04:20.018719
23825,-0.7720,-0.3240,0.1376,110.600,15.680,131.005,404,397,362,386,362,2025-05-27T23:04:20.018719
23826,-0.7476,-0.2850,0.1088,111.055,20.195,130.760,385,409,333,379,387,2025-05-27T23:04:20.018719
23827,-0.7330,-0.2489,0.0908,110.180,25.620,128.940,336,392,334,399,385,2025-05-27T23:04:20.018719
23828,-0.7164,-0.2123,0.0844,107.205,29.715,127.015,386,361,355,409,343,2025-05-27T23:04:20.018719
23829,-0.7359,-0.1874,0.0791,103.950,31.080,129.150,380,398,375,383,362,2025-05-27T23:04:20.018719
23830,-0.7549,-0.1581,0.0639,98.245,30.660,128.345,424,421,370,411,377,2025-05-27T23:04:20.018719
23831,-0.7632,-0.1420,0.0317,94.395,29.925,123.935,391,416,380,372,340,2025-05-27T23:04:20.018719
23832,-0.7662,-0.1230,0.0156,90.195,28.980,117.390,419,414,375,391,385,2025-05-27T23:04:20.018719
23833,-0.7881,-0.1191,-0.0083,86.940,24.045,112.035,395,428,387,402,366,2025-05-27T23:04:20.018719
23834,-0.7662,-0.0605,-0.0083,85.575,19.775,104.230,359,410,344,361,375,2025-05-27T23:04:20.204764
23835,-0.7383,-0.0825,-0.0410,80.640,19.705,95.550,391,419,369,373,390,2025-05-27T23:04:20.204764
23836,-0.7520,-0.0342,-0.0346,74.795,20.020,89.705,388,374,381,388,392,2025-05-27T23:04:20.204764
23837,-0.7383,-0.0029,-0.0483,67.095,19.915,86.240,406,407,365,390,402,2025-05-27T23:04:20.204764
23838,-0.7486,0.0322,-0.0449,60.305,23.240,80.920,399,403,380,401,411,2025-05-27T23:04:20.204764
23839,-0.7574,0.0527,-0.0551,51.800,29.085,75.215,412,372,385,392,400,2025-05-27T23:04:20.204764
23840,-0.7832,0.0810,-0.0517,45.570,31.815,70.770,339,332,375,386,413,2025-05-27T23:04:20.204764
23841,-0.8203,0.1069,-0.0508,40.250,31.080,66.360,401,411,383,405,418,2025-05-27T23:04:20.204764
23842,-0.8330,0.1171,-0.0444,34.195,29.190,60.550,413,405,382,393,411,2025-05-27T23:04:20.204764
23843,-0.8725,0.1449,-0.0264,28.840,26.285,56.000,416,422,388,368,396,2025-05-27T23:04:20.204764
23844,-0.9135,0.1405,-0.0215,25.165,20.020,52.360,360,394,386,355,406,2025-05-27T23:04:20.204764
23845,-0.9306,0.1630,-0.0010,22.050,10.955,48.475,412,378,384,400,373,2025-05-27T23:04:20.204764
23846,-0.9370,0.1635,-0.0034,18.795,5.530,44.625,387,417,383,408,340,2025-05-27T23:04:20.204764
23847,-0.9433,0.1840,0.0107,16.415,1.820,42.070,338,429,367,391,369,2025-05-27T23:04:20.204764
23848,-0.9418,0.1928,0.0229,13.930,-2.135,39.480,402,422,369,382,348,2025-05-27T23:04:20.204764
23849,-0.9492,0.2025,0.0346,12.495,-6.790,37.345,363,410,375,408,381,2025-05-27T23:04:20.204764
23850,-0.9560,0.2054,0.0464,12.320,-10.045,35.455,334,425,369,415,377,2025-05-27T23:04:20.204764
23851,-0.9316,0.2128,0.0512,11.025,-11.305,33.040,379,434,353,350,391,2025-05-27T23:04:20.204764
23852,-0.9272,0.2367,0.0786,10.430,-9.765,31.780,388,430,366,381,386,2025-05-27T23:04:20.204764
23853,-0.9340,0.2435,0.0908,10.500,-7.630,31.220,411,407,383,377,348,2025-05-27T23:04:20.204764
23854,-0.9355,0.2479,0.0942,11.515,-7.770,31.395,384,381,381,386,382,2025-05-27T23:04:20.204764
23855,-0.9311,0.2503,0.0888,11.690,-7.105,31.045,397,387,370,404,347,2025-05-27T23:04:20.521005
23856,-0.9267,0.2835,0.1069,12.180,-3.535,30.485,402,410,341,396,384,2025-05-27T23:04:20.521005
23857,-0.9145,0.3030,0.1313,12.320,0.140,30.590,411,417,362,410,400,2025-05-27T23:04:20.521005
23858,-0.9282,0.3196,0.1484,12.355,1.330,32.375,424,371,370,419,346,2025-05-27T23:04:20.521005
23859,-0.9311,0.3294,0.1493,12.530,1.015,32.725,424,422,371,401,327,2025-05-27T23:04:20.521005
23860,-0.9340,0.3528,0.1523,13.440,0.805,32.445,406,425,376,367,359,2025-05-27T23:04:20.521005
23861,-0.9365,0.3719,0.1625,14.420,0.525,32.340,394,413,373,404,396,2025-05-27T23:04:20.521005
23862,-0.9482,0.3899,0.1684,14.875,-2.450,33.145,404,376,348,405,405,2025-05-27T23:04:20.521005
23863,-0.9667,0.4104,0.1781,15.050,-7.945,33.565,403,417,371,346,398,2025-05-27T23:04:20.521005
23864,-0.9823,0.4275,0.1791,15.680,-14.805,34.020,410,362,379,393,396,2025-05-27T23:04:20.521005
23865,-0.9867,0.4529,0.1801,16.730,-19.740,34.300,398,345,377,404,394,2025-05-27T23:04:20.521005
23866,-0.9740,0.4753,0.1864,16.660,-25.200,34.965,412,287,349,402,347,2025-05-27T23:04:20.521005
23867,-0.9604,0.4934,0.1874,15.680,-28.735,35.980,393,363,364,401,368,2025-05-27T23:04:20.521005
23868,-0.9501,0.5129,0.1840,13.720,-29.890,37.205,379,408,375,399,395,2025-05-27T23:04:20.521005
23869,-0.9374,0.5334,0.1898,10.885,-28.560,39.235,406,405,367,415,389,2025-05-27T23:04:20.521005
23870,-0.9277,0.5358,0.1796,8.960,-25.865,42.770,404,430,371,387,386,2025-05-27T23:04:20.521005
23871,-0.9331,0.5280,0.1723,8.295,-23.870,47.355,426,434,339,399,386,2025-05-27T23:04:20.521005
23872,-0.9414,0.5378,0.1747,9.310,-23.310,50.750,424,430,323,391,397,2025-05-27T23:04:20.521005
23873,-0.9384,0.5422,0.1791,8.925,-22.015,53.235,400,362,325,392,347,2025-05-27T23:04:20.521005
23874,-0.9277,0.5563,0.1947,6.755,-20.335,56.315,381,409,342,303,381,2025-05-27T23:04:20.521005
23875,-0.9301,0.5675,0.1976,3.675,-19.040,58.800,406,425,350,369,385,2025-05-27T23:04:20.618126
23876,-0.9277,0.5534,0.1840,1.680,-19.075,61.985,396,376,333,393,396,2025-05-27T23:04:20.618126
23877,-0.9418,0.5407,0.1723,2.380,-20.300,65.765,338,387,358,402,404,2025-05-27T23:04:20.618126
23878,-0.9282,0.5392,0.1723,2.170,-22.225,68.145,384,404,369,411,403,2025-05-27T23:04:20.618126
23879,-0.9233,0.5549,0.1957,3.605,-24.535,69.125,421,343,375,414,370,2025-05-27T23:04:20.618126
23880,-0.9067,0.5612,0.2050,2.695,-26.285,70.385,427,406,392,419,397,2025-05-27T23:04:20.618126
23881,-0.9038,0.5505,0.2011,1.260,-28.560,71.505,393,418,397,398,404,2025-05-27T23:04:20.618126
23882,-0.8882,0.5417,0.1986,-8.925,-32.375,72.310,414,419,374,409,411,2025-05-27T23:04:20.618126
23883,-0.8696,0.5226,0.1884,0.035,-35.595,72.975,416,413,383,406,407,2025-05-27T23:04:20.618126
23884,-0.8481,0.5129,0.1845,1.820,-37.835,74.620,414,351,367,399,399,2025-05-27T23:04:20.618126
23885,-0.8135,0.5139,0.1874,2.835,-39.515,75.285,414,360,331,408,402,2025-05-27T23:04:20.618126
23886,-0.7686,0.5178,0.1962,2.485,-37.485,75.215,398,421,321,414,354,2025-05-27T23:04:20.618126
23887,-0.7281,0.5187,0.1932,2.135,-31.885,75.075,394,427,354,399,385,2025-05-27T23:04:20.618126
23888,-0.6978,0.5266,0.2035,2.520,-26.215,74.340,411,411,363,401,394,2025-05-27T23:04:20.618126
23889,-0.6739,0.5339,0.2064,3.185,-21.910,72.380,394,399,363,397,391,2025-05-27T23:04:20.618126
23890,-0.6564,0.5431,0.2137,3.325,-15.575,69.930,416,397,376,414,360,2025-05-27T23:04:20.836570
23891,-0.6451,0.5573,0.2196,2.975,-9.730,67.830,360,399,372,353,328,2025-05-27T23:04:20.836570
23892,-0.6471,0.5656,0.2201,3.080,-6.790,65.695,367,407,334,378,329,2025-05-27T23:04:20.836570
23893,-0.6432,0.5661,0.2196,3.500,-5.775,63.420,408,412,356,344,324,2025-05-27T23:04:20.836570
23894,-0.6368,0.5817,0.2240,4.270,-6.265,60.550,400,418,363,366,364,2025-05-27T23:04:20.851147
23895,-0.6217,0.6051,0.2308,4.480,-6.335,57.540,396,417,371,380,381,2025-05-27T23:04:20.851147
23896,-0.6281,0.6446,0.2489,3.570,-6.160,54.880,388,410,385,406,409,2025-05-27T23:04:20.851526
23897,-0.6139,0.6544,0.2386,1.435,-7.175,52.500,393,347,372,363,414,2025-05-27T23:04:20.851591
23898,-0.6051,0.6739,0.2367,-0.105,-9.730,51.625,401,380,340,395,406,2025-05-27T23:04:20.851730
23899,-0.5983,0.6847,0.2308,-1.295,-10.955,51.135,374,422,332,348,393,2025-05-27T23:04:20.851730
23900,-0.5954,0.6949,0.2318,-1.925,-13.335,49.980,390,404,352,354,413,2025-05-27T23:04:20.852119
23901,-0.5915,0.7086,0.2357,-3.360,-14.805,48.895,386,399,353,395,397,2025-05-27T23:04:20.852271
23902,-0.5744,0.7222,0.2303,-5.040,-15.680,48.090,391,397,370,401,385,2025-05-27T23:04:20.852328
23903,-0.5661,0.7178,0.2211,-5.705,-15.820,47.775,393,413,370,391,390,2025-05-27T23:04:20.852460
23904,-0.5553,0.7247,0.2191,-6.055,-15.890,47.355,415,405,331,406,409,2025-05-27T23:04:20.852460
23905,-0.5339,0.7359,0.2245,-6.825,-13.965,46.235,415,404,316,398,365,2025-05-27T23:04:20.852460
23906,-0.5197,0.7437,0.2279,-8.505,-10.640,44.905,408,409,344,393,387,2025-05-27T23:04:20.852460
23907,-0.5109,0.7466,0.2147,-10.255,-5.600,44.240,396,404,363,414,407,2025-05-27T23:04:20.852460
23908,-0.5183,0.7593,0.2196,-12.180,-1.820,42.945,408,398,368,405,407,2025-05-27T23:04:20.852460
23909,-0.5231,0.7593,0.2201,-13.300,1.505,41.335,425,419,379,407,394,2025-05-27T23:04:21.089371
23910,-0.5305,0.7618,0.2284,-14.525,2.380,39.620,351,415,369,410,391,2025-05-27T23:04:21.089371
23911,-0.5388,0.7618,0.2196,-15.680,0.875,38.360,395,399,376,396,408,2025-05-27T23:04:21.089371
23912,-0.5436,0.7671,0.2347,-15.645,-0.140,37.100,347,411,381,385,403,2025-05-27T23:04:21.089371
23913,-0.5475,0.7823,0.2508,-16.695,-1.540,35.630,405,423,368,411,405,2025-05-27T23:04:21.089371
23914,-0.5456,0.7740,0.2572,-18.130,-5.845,34.300,407,437,382,356,395,2025-05-27T23:04:21.089371
23915,-0.5334,0.7754,0.2664,-19.005,-10.150,32.795,393,431,381,400,361,2025-05-27T23:04:21.089371
23916,-0.5139,0.7706,0.2684,-18.900,-10.990,30.975,394,352,392,406,404,2025-05-27T23:04:21.089371
23917,-0.4870,0.7706,0.2660,-19.215,-9.415,29.400,418,425,386,354,350,2025-05-27T23:04:21.089371
23918,-0.4729,0.7764,0.2791,-19.775,-6.545,27.510,419,404,378,334,387,2025-05-27T23:04:21.089371
23919,-0.4651,0.7715,0.2806,-20.510,-1.505,26.145,410,387,388,395,389,2025-05-27T23:04:21.089371
23920,-0.4699,0.7671,0.2860,-20.300,2.450,24.710,418,391,382,406,392,2025-05-27T23:04:21.089371
23921,-0.4821,0.7603,0.2879,-18.865,6.195,23.520,411,410,350,397,345,2025-05-27T23:04:21.089371
23922,-0.4934,0.7569,0.2987,-16.905,8.435,23.100,389,394,330,412,290,2025-05-27T23:04:21.089371
23923,-0.4953,0.7579,0.2972,-15.050,10.325,22.995,390,419,354,406,360,2025-05-27T23:04:21.089371
23924,-0.4846,0.7647,0.2938,-13.125,13.300,22.680,342,408,368,401,386,2025-05-27T23:04:21.089371
23925,-0.4895,0.7715,0.2938,-12.005,17.605,21.735,384,398,374,397,400,2025-05-27T23:04:21.089371
23926,-0.5017,0.7662,0.2791,-9.835,20.230,20.370,295,415,376,390,366,2025-05-27T23:04:21.089371
23927,-0.5031,0.7735,0.2743,-7.035,21.735,20.195,395,342,381,387,394,2025-05-27T23:04:21.089371
23928,-0.5275,0.7779,0.2699,-5.600,22.505,19.810,402,409,375,387,409,2025-05-27T23:04:21.089371
23929,-0.5388,0.7759,0.2484,-4.865,21.875,19.180,409,414,389,405,409,2025-05-27T23:04:21.253491
23930,-0.5534,0.7745,0.2440,-2.940,19.005,18.620,398,424,378,308,391,2025-05-27T23:04:21.253491
23931,-0.5597,0.7720,0.2255,-1.610,15.470,17.570,412,419,367,357,390,2025-05-27T23:04:21.253491
23932,-0.5666,0.7818,0.2308,-0.770,11.060,16.030,404,420,344,395,386,2025-05-27T23:04:21.253491
23933,-0.5612,0.7745,0.2167,-0.560,7.770,15.190,390,405,362,409,343,2025-05-27T23:04:21.253491
23934,-0.5558,0.7740,0.2103,0.035,4.025,14.735,390,426,374,417,372,2025-05-27T23:04:21.253491
23935,-0.5427,0.7642,0.1991,0.245,2.975,14.000,420,428,305,401,373,2025-05-27T23:04:21.253491
23936,-0.5358,0.7652,0.2011,-0.735,4.130,13.125,343,418,346,416,352,2025-05-27T23:04:21.253491
23937,-0.5368,0.7613,0.1952,-1.295,6.055,12.565,385,420,360,401,371,2025-05-27T23:04:21.253491
23938,-0.5456,0.7574,0.1918,-1.820,7.035,11.725,411,425,366,415,387,2025-05-27T23:04:21.253491
23939,-0.5451,0.7579,0.1840,-2.135,7.630,10.115,419,414,388,415,408,2025-05-27T23:04:21.253491
23940,-0.5466,0.7584,0.1854,-2.380,8.855,8.855,423,399,370,401,403,2025-05-27T23:04:21.253491
23941,-0.5534,0.7510,0.1757,-1.610,9.940,8.225,428,385,373,385,397,2025-05-27T23:04:21.253491
23942,-0.5627,0.7403,0.1728,-0.525,10.045,7.525,393,425,375,406,413,2025-05-27T23:04:21.501824
23943,-0.5627,0.7388,0.1688,0.490,10.150,6.685,394,404,351,401,391,2025-05-27T23:04:21.501824
23944,-0.5627,0.7481,0.1757,0.245,10.465,5.285,406,368,379,389,387,2025-05-27T23:04:21.501824
23945,-0.5573,0.7540,0.1796,-0.245,10.360,4.445,423,381,365,404,396,2025-05-27T23:04:21.501824
23946,-0.5549,0.7466,0.1747,-0.455,9.800,3.885,351,416,343,412,311,2025-05-27T23:04:21.501824
23947,-0.5568,0.7530,0.1806,-0.420,9.065,3.395,379,400,372,369,378,2025-05-27T23:04:21.501824
23948,-0.5461,0.7642,0.1791,-0.595,7.420,2.275,353,406,340,382,398,2025-05-27T23:04:21.501824
23949,-0.5353,0.7627,0.1718,-0.175,6.090,2.065,417,424,362,406,357,2025-05-27T23:04:21.501824
23950,-0.5285,0.7632,0.1625,1.680,5.390,1.820,429,403,361,343,350,2025-05-27T23:04:21.501824
23951,-0.5212,0.7764,0.1698,2.835,5.705,0.175,350,427,376,352,390,2025-05-27T23:04:21.501824
23952,-0.5187,0.7808,0.1771,2.590,5.215,-0.700,374,412,343,380,407,2025-05-27T23:04:21.501824
23953,-0.5202,0.7852,0.1752,3.080,4.130,-0.770,403,416,328,392,411,2025-05-27T23:04:21.501824
23954,-0.5163,0.7881,0.1728,4.620,2.450,-0.735,395,403,354,394,395,2025-05-27T23:04:21.501824
23955,-0.5178,0.8003,0.1854,5.495,0.875,-1.680,402,380,374,359,405,2025-05-27T23:04:21.501824
23956,-0.5114,0.8130,0.1893,5.110,-1.435,-2.450,402,406,371,378,398,2025-05-27T23:04:21.501824
23957,-0.5036,0.8218,0.1854,5.215,-3.640,-2.905,430,391,377,378,408,2025-05-27T23:04:21.501824
23958,-0.4895,0.8252,0.1786,5.705,-4.200,-3.290,424,355,336,360,367,2025-05-27T23:04:21.501824
23959,-0.4763,0.8394,0.1781,6.370,-3.325,-3.290,400,415,361,380,358,2025-05-27T23:04:21.501824
23960,-0.4714,0.8525,0.1801,6.055,-1.155,-3.605,363,420,332,393,391,2025-05-27T23:04:21.501824
23961,-0.4738,0.8608,0.1840,5.320,0.770,-4.130,413,420,369,399,397,2025-05-27T23:04:21.501824
23962,-0.4802,0.8599,0.1835,4.830,1.470,-4.550,420,361,376,416,393,2025-05-27T23:04:21.501824
23963,-0.4919,0.8657,0.1884,4.480,1.190,-5.425,344,417,340,396,411,2025-05-27T23:04:21.737227
23964,-0.5051,0.8623,0.1869,4.970,-0.070,-6.370,404,421,355,389,408,2025-05-27T23:04:21.737227
23965,-0.5080,0.8657,0.1923,5.215,-1.540,-7.210,382,347,358,413,404,2025-05-27T23:04:21.737227
23966,-0.5026,0.8623,0.1884,5.320,-2.800,-7.840,373,387,363,419,404,2025-05-27T23:04:21.737227
23967,-0.4973,0.8569,0.1908,5.390,-2.485,-8.050,374,412,332,399,411,2025-05-27T23:04:21.737227
23968,-0.4987,0.8477,0.1918,5.355,-1.400,-8.505,405,425,358,422,395,2025-05-27T23:04:21.737227
23969,-0.5070,0.8442,0.2006,5.250,-0.840,-8.295,408,425,369,393,384,2025-05-27T23:04:21.737227
23970,-0.5134,0.8364,0.2089,3.955,-0.700,-7.700,399,405,375,402,403,2025-05-27T23:04:21.737227
23971,-0.5178,0.8301,0.2059,3.150,-0.945,-6.895,421,426,375,417,412,2025-05-27T23:04:21.737227
23972,-0.5163,0.8252,0.2025,3.150,-1.225,-5.985,364,415,379,395,386,2025-05-27T23:04:21.737227
23973,-0.5236,0.8247,0.2011,3.185,-1.435,-5.040,389,420,369,403,384,2025-05-27T23:04:21.737227
23974,-0.5251,0.8281,0.2011,3.395,-2.170,-3.815,387,420,370,373,387,2025-05-27T23:04:21.737227
23975,-0.5192,0.8286,0.1976,3.500,-3.465,-2.765,381,418,389,384,408,2025-05-27T23:04:21.737227
23976,-0.5109,0.8330,0.1947,3.640,-3.430,-1.925,385,395,379,338,410,2025-05-27T23:04:21.737227
23977,-0.4997,0.8335,0.1928,3.430,-1.540,-1.680,411,389,340,385,415,2025-05-27T23:04:21.987038
23978,-0.4963,0.8359,0.1932,3.325,0.560,-1.680,418,423,369,394,406,2025-05-27T23:04:21.987038
23979,-0.5026,0.8379,0.1962,3.045,1.260,-1.540,434,425,379,417,411,2025-05-27T23:04:21.987038
23980,-0.5051,0.8369,0.1981,2.695,1.225,-1.715,428,370,389,409,417,2025-05-27T23:04:21.987038
23981,-0.5061,0.8379,0.2015,2.345,0.805,-2.345,412,419,376,355,390,2025-05-27T23:04:21.987038
23982,-0.5124,0.8330,0.2020,2.030,0.385,-2.975,425,401,366,402,388,2025-05-27T23:04:21.987038
23983,-0.5109,0.8311,0.1996,2.170,-0.945,-3.080,349,387,369,397,395,2025-05-27T23:04:21.987038
23984,-0.5080,0.8281,0.1947,2.205,-1.925,-3.430,399,392,381,400,393,2025-05-27T23:04:21.987038
23985,-0.5056,0.8311,0.2040,2.870,-1.645,-3.430,395,428,345,386,387,2025-05-27T23:04:21.987038
23986,-0.4992,0.8325,0.2015,3.115,-0.490,-3.605,403,418,366,413,402,2025-05-27T23:04:21.987038
23987,-0.5012,0.8418,0.2094,3.185,0.770,-3.605,415,434,369,417,386,2025-05-27T23:04:21.987038
23988,-0.5114,0.8394,0.2089,2.870,1.540,-3.535,362,386,378,398,390,2025-05-27T23:04:21.987038
23989,-0.5192,0.8379,0.2059,2.520,0.980,-3.395,400,411,385,411,394,2025-05-27T23:04:21.987038
23990,-0.5202,0.8369,0.1976,2.450,0.140,-3.465,411,401,373,418,396,2025-05-27T23:04:21.987038
23991,-0.5197,0.8428,0.1967,2.625,0.000,-3.395,410,394,351,392,373,2025-05-27T23:04:22.000692
23992,-0.5178,0.8506,0.1957,2.380,0.070,-2.940,400,354,294,414,361,2025-05-27T23:04:22.000692
23993,-0.5222,0.8555,0.1942,1.890,0.000,-2.940,403,400,338,407,372,2025-05-27T23:04:22.151400
23994,-0.5202,0.8579,0.1903,1.470,0.420,-2.520,391,393,370,416,407,2025-05-27T23:04:22.151719
23995,-0.5280,0.8574,0.1869,1.120,0.945,-2.065,404,428,382,427,403,2025-05-27T23:04:22.151719
23996,-0.5280,0.8594,0.1859,0.420,0.700,-1.435,416,428,337,404,396,2025-05-27T23:04:22.152025
23997,-0.5275,0.8672,0.1898,-0.490,0.630,-0.735,409,423,363,409,403,2025-05-27T23:04:22.152151
23998,-0.5270,0.8608,0.1854,-1.890,0.945,0.350,393,419,359,403,389,2025-05-27T23:04:22.152208
23999,-0.5319,0.8579,0.1879,-2.660,0.665,1.190,386,421,363,417,385,2025-05-27T23:04:22.152208
24000,-0.5344,0.8589,0.1908,-3.675,-0.140,1.750,393,428,344,362,402,2025-05-27T23:04:22.152208
24001,-0.5334,0.8535,0.1913,-4.970,-0.875,2.310,415,413,366,389,403,2025-05-27T23:04:22.152208
24002,-0.5314,0.8423,0.1923,-5.285,-1.890,3.290,415,419,359,401,383,2025-05-27T23:04:22.152208
24003,-0.5329,0.8340,0.1928,-5.460,-2.975,3.605,420,432,334,399,399,2025-05-27T23:04:22.152208
24004,-0.5309,0.8301,0.2015,-5.845,-3.850,3.605,420,370,367,382,409,2025-05-27T23:04:22.152208
24005,-0.5241,0.8276,0.2064,-6.475,-4.305,3.885,391,383,375,401,389,2025-05-27T23:04:22.152208
24006,-0.5173,0.8213,0.2040,-6.825,-3.885,3.955,385,411,381,417,386,2025-05-27T23:04:22.152208
24007,-0.5144,0.8150,0.2030,-6.930,-2.205,3.990,421,402,348,416,364,2025-05-27T23:04:22.152208
24008,-0.5158,0.8115,0.2045,-6.615,-1.120,4.340,395,411,358,359,395,2025-05-27T23:04:22.153191
24009,-0.5187,0.8037,0.2035,-5.915,-0.700,4.480,413,428,329,372,409,2025-05-27T23:04:22.153191
24010,-0.5270,0.8042,0.2103,-5.425,-0.455,4.340,391,422,347,384,413,2025-05-27T23:04:22.153191
24011,-0.5314,0.8032,0.2089,-5.285,-0.595,4.340,414,413,353,382,409,2025-05-27T23:04:22.153191
24012,-0.5256,0.7950,0.2079,-5.075,-1.190,3.885,427,392,330,403,397,2025-05-27T23:04:22.153191
24013,-0.5226,0.7959,0.2069,-4.655,-0.910,3.500,427,401,359,413,347,2025-05-27T23:04:22.385436
24014,-0.5187,0.7950,0.2054,-4.165,-0.035,3.220,391,341,376,402,340,2025-05-27T23:04:22.702125
24015,-0.5197,0.7984,0.2098,-3.990,0.245,2.800,395,412,343,405,372,2025-05-27T23:04:22.702125
24016,-0.5261,0.8003,0.2089,-4.060,-0.035,2.135,351,410,358,405,399,2025-05-27T23:04:22.702125
24017,-0.5231,0.7984,0.2054,-4.060,-0.595,1.505,404,351,367,410,406,2025-05-27T23:04:22.702125
24018,-0.5295,0.7979,0.2064,-3.220,-1.400,0.945,399,412,380,399,403,2025-05-27T23:04:22.702125
24019,-0.5261,0.7979,0.2050,-3.290,-1.575,0.420,340,399,380,404,419,2025-05-27T23:04:22.702125
24020,-0.5295,0.7989,0.2059,-2.975,-1.995,0.315,370,432,379,414,416,2025-05-27T23:04:22.702125
24021,-0.5251,0.8047,0.2050,-2.660,-2.345,0.350,375,412,394,420,320,2025-05-27T23:04:22.702125
24022,-0.5226,0.8076,0.2089,-2.695,-2.170,0.070,424,418,385,397,323,2025-05-27T23:04:22.702125
24023,-0.5222,0.8081,0.2059,-3.150,-1.365,-0.210,398,359,376,394,365,2025-05-27T23:04:22.702125
24024,-0.5256,0.8115,0.2079,-3.185,-0.490,-0.525,412,413,369,388,387,2025-05-27T23:04:22.702125
24025,-0.5275,0.8169,0.2098,-3.325,-0.525,-0.665,423,429,369,341,390,2025-05-27T23:04:22.702125
24026,-0.5339,0.8150,0.2113,-3.325,-0.665,-0.560,421,425,377,396,312,2025-05-27T23:04:22.702125
24027,-0.5368,0.8150,0.2069,-3.115,-1.120,-0.560,436,418,383,403,365,2025-05-27T23:04:22.702125
24028,-0.5392,0.8159,0.2069,-2.730,-1.540,-0.560,394,401,390,353,373,2025-05-27T23:04:22.702125
24029,-0.5422,0.8179,0.2113,-2.695,-1.715,-0.420,406,341,393,405,377,2025-05-27T23:04:22.702125
24030,-0.5412,0.8208,0.2167,-3.045,-1.820,-0.210,403,381,381,408,395,2025-05-27T23:04:22.702125
24031,-0.5368,0.8184,0.2098,-3.255,-1.960,0.455,412,425,368,365,395,2025-05-27T23:04:22.702125
24032,-0.5422,0.8179,0.2094,-3.150,-1.995,0.805,423,410,382,383,414,2025-05-27T23:04:22.702125
24033,-0.5417,0.8198,0.2142,-3.115,-1.855,0.770,400,432,383,401,418,2025-05-27T23:04:22.702125
24034,-0.5422,0.8198,0.2142,-3.220,-2.450,1.015,407,422,385,394,399,2025-05-27T23:04:22.702125
24035,-0.5412,0.8228,0.2137,-2.940,-3.185,1.365,415,401,389,388,390,2025-05-27T23:04:22.702125
24036,-0.5417,0.8189,0.2147,-2.765,-3.360,1.645,412,401,372,397,399,2025-05-27T23:04:22.702125
24037,-0.5397,0.8208,0.2157,-2.800,-3.815,2.275,415,424,343,404,411,2025-05-27T23:04:22.702125
24038,-0.5407,0.8198,0.2137,-2.590,-4.200,2.730,403,426,371,408,411,2025-05-27T23:04:22.702125
24039,-0.5348,0.8237,0.2108,-2.205,-4.095,3.185,396,396,341,391,411,2025-05-27T23:04:22.702125
24040,-0.5309,0.8272,0.2113,-2.520,-3.955,3.360,419,396,366,412,403,2025-05-27T23:04:22.702125
24041,-0.5266,0.8223,0.2084,-2.940,-3.815,3.920,419,344,368,379,400,2025-05-27T23:04:22.702125
24042,-0.5241,0.8198,0.2035,-2.555,-3.675,4.445,401,416,380,391,399,2025-05-27T23:04:22.702125
24043,-0.5124,0.8169,0.2001,-1.995,-3.570,4.690,421,422,355,385,399,2025-05-27T23:04:22.702125
24044,-0.5100,0.8203,0.2006,-2.205,-2.975,4.795,401,416,341,393,391,2025-05-27T23:04:22.702125
24045,-0.5070,0.8164,0.2020,-2.380,-2.590,4.865,412,413,358,347,404,2025-05-27T23:04:22.702125
24046,-0.5041,0.8164,0.2020,-2.380,-3.010,4.550,427,430,339,375,417,2025-05-27T23:04:22.734056
24047,-0.5002,0.8125,0.2084,-2.450,-3.570,4.270,404,403,322,394,412,2025-05-27T23:04:22.734228
24048,-0.4948,0.8081,0.2079,-2.555,-3.745,3.465,425,391,359,404,400,2025-05-27T23:04:22.734228
24049,-0.4860,0.8106,0.2079,-2.590,-3.500,3.045,396,414,336,394,396,2025-05-27T23:04:22.734228
24050,-0.4841,0.8096,0.2133,-2.730,-3.010,2.275,379,397,349,379,383,2025-05-27T23:04:22.734603
24051,-0.4802,0.8086,0.2137,-2.940,-2.170,1.400,402,410,324,411,397,2025-05-27T23:04:22.734603
24052,-0.4812,0.8067,0.2162,-2.625,-1.575,0.770,389,419,356,402,409,2025-05-27T23:04:22.734603
24053,-0.4860,0.8057,0.2186,-2.240,-1.120,0.245,396,397,328,403,403,2025-05-27T23:04:22.734603
24054,-0.4875,0.8047,0.2240,-1.680,-1.330,-0.245,402,378,360,394,411,2025-05-27T23:04:22.735058
24055,-0.4924,0.8042,0.2235,-1.050,-1.505,-1.085,387,418,338,399,396,2025-05-27T23:04:22.735182
24056,-0.4924,0.8086,0.2255,-0.700,-1.400,-1.645,353,402,363,393,402,2025-05-27T23:04:22.735251
24057,-0.4982,0.8091,0.2235,-0.175,-1.330,-1.750,409,396,378,402,399,2025-05-27T23:04:22.735251
24058,-0.5080,0.8101,0.2250,0.455,-1.155,-1.750,403,390,341,388,406,2025-05-27T23:04:22.735251
24059,-0.5158,0.8150,0.2245,0.630,-1.190,-1.820,418,425,364,402,384,2025-05-27T23:04:22.735251
24060,-0.5212,0.8179,0.2230,0.490,-1.295,-1.750,430,412,345,388,408,2025-05-27T23:04:22.736208
24061,-0.5241,0.8198,0.2186,0.280,-0.980,-1.785,404,430,358,347,390,2025-05-27T23:04:22.736208
24062,-0.5261,0.8198,0.2181,0.070,-0.630,-1.365,404,415,367,381,389,2025-05-27T23:04:22.736208
24063,-0.5368,0.8198,0.2162,-0.035,-0.280,-1.225,412,399,373,403,395,2025-05-27T23:04:22.736544
24064,-0.5417,0.8218,0.2162,-0.035,-0.805,-0.980,420,405,381,388,393,2025-05-27T23:04:22.736544
24065,-0.5451,0.8228,0.2167,-0.210,-1.610,-0.630,422,425,377,403,388,2025-05-27T23:04:22.736544
24066,-0.5461,0.8223,0.2181,-0.595,-2.310,-0.350,421,430,381,389,345,2025-05-27T23:04:23.120814
24067,-0.5427,0.8218,0.2157,-0.525,-3.465,0.350,433,401,378,408,372,2025-05-27T23:04:23.120814
24068,-0.5451,0.8203,0.2157,0.000,-3.850,0.595,433,390,344,419,399,2025-05-27T23:04:23.120814
24069,-0.5402,0.8228,0.2206,0.105,-3.955,0.630,416,392,357,409,406,2025-05-27T23:04:23.120814
24070,-0.5334,0.8228,0.2220,-0.245,-3.850,1.015,429,394,364,360,356,2025-05-27T23:04:23.120814
24071,-0.5280,0.8203,0.2274,-0.455,-3.500,1.680,427,422,382,395,395,2025-05-27T23:04:23.120814
24072,-0.5261,0.8203,0.2230,-0.455,-3.255,2.240,395,414,342,409,414,2025-05-27T23:04:23.120814
24073,-0.5270,0.8184,0.2216,0.035,-3.080,2.275,411,420,368,419,398,2025-05-27T23:04:23.120814
24074,-0.5266,0.8198,0.2255,0.560,-3.535,2.415,345,415,381,412,396,2025-05-27T23:04:23.120814
24075,-0.5187,0.8237,0.2264,0.315,-4.200,2.135,344,418,338,410,356,2025-05-27T23:04:23.120814
24076,-0.5104,0.8267,0.2240,0.070,-4.515,1.785,354,408,325,390,380,2025-05-27T23:04:23.120814
24077,-0.5070,0.8198,0.2181,-0.175,-4.690,1.330,390,426,328,387,393,2025-05-27T23:04:23.120814
24078,-0.5051,0.8194,0.2162,0.245,-5.285,1.015,392,402,359,409,399,2025-05-27T23:04:23.120814
24079,-0.5026,0.8164,0.2157,0.665,-5.985,0.315,403,397,327,347,395,2025-05-27T23:04:23.120814
24080,-0.4978,0.8174,0.2181,0.700,-6.230,-0.140,387,394,364,403,396,2025-05-27T23:04:23.120814
24081,-0.4929,0.8208,0.2206,0.385,-5.740,-0.665,347,422,366,411,400,2025-05-27T23:04:23.120814
24082,-0.4914,0.8164,0.2162,-0.035,-5.180,-1.330,331,393,378,410,364,2025-05-27T23:04:23.120814
24083,-0.4948,0.8120,0.2137,0.350,-4.620,-1.645,354,428,387,388,377,2025-05-27T23:04:23.120814
24084,-0.5026,0.8140,0.2152,1.050,-4.585,-1.890,373,422,348,342,393,2025-05-27T23:04:23.120814
24085,-0.5080,0.8164,0.2133,1.120,-4.830,-2.065,421,425,361,390,357,2025-05-27T23:04:23.120814
24086,-0.5051,0.8174,0.2142,0.840,-4.935,-2.100,413,422,365,399,378,2025-05-27T23:04:23.120814
24087,-0.5061,0.8203,0.2084,0.560,-4.585,-1.960,387,401,386,416,401,2025-05-27T23:04:23.224761
24088,-0.5090,0.8242,0.2098,0.700,-4.410,-2.170,406,413,389,409,405,2025-05-27T23:04:23.224761
24089,-0.5124,0.8272,0.2108,0.560,-4.550,-2.345,400,389,382,375,398,2025-05-27T23:04:23.224761
24090,-0.5163,0.8330,0.2162,0.455,-5.110,-1.995,372,409,387,393,392,2025-05-27T23:04:23.224761
24091,-0.5178,0.8379,0.2172,-0.210,-6.160,-1.715,356,424,383,401,382,2025-05-27T23:04:23.224761
24092,-0.5285,0.8359,0.2191,-0.875,-7.350,-1.785,399,398,374,393,398,2025-05-27T23:04:23.224761
24093,-0.5275,0.8345,0.2084,-1.260,-8.820,-1.890,415,410,377,406,389,2025-05-27T23:04:23.224761
24094,-0.5305,0.8233,0.2020,0.315,-10.815,-0.910,399,425,367,391,397,2025-05-27T23:04:23.224761
24095,-0.5373,0.8164,0.2020,2.100,-12.950,0.945,410,407,371,413,409,2025-05-27T23:04:23.224761
24096,-0.5319,0.8306,0.2074,3.115,-15.050,2.100,419,399,376,397,349,2025-05-27T23:04:23.224761
24097,-0.5314,0.8257,0.2225,3.920,-16.730,2.520,342,346,380,348,332,2025-05-27T23:04:23.224761
24098,-0.5285,0.8428,0.2142,2.450,-17.640,1.330,350,416,348,392,390,2025-05-27T23:04:23.224761
24099,-0.5158,0.8262,0.2294,1.365,-21.910,0.175,380,406,369,349,378,2025-05-27T23:04:23.224761
24100,-0.5065,0.8276,0.2323,-8.540,-27.825,-1.785,335,428,370,387,404,2025-05-27T23:04:23.224761
24101,-0.4846,0.8257,0.2450,-0.875,-32.480,-4.410,387,408,349,344,395,2025-05-27T23:04:23.224761
24102,-0.4543,0.8320,0.2499,-1.155,-43.120,-8.400,418,350,358,395,408,2025-05-27T23:04:23.224761
24103,-0.3865,0.8159,0.2611,0.595,-57.540,-11.480,402,343,358,348,403,2025-05-27T23:04:23.224761
24104,-0.3187,0.8589,0.2879,-5.390,-68.845,-18.585,416,405,362,395,391,2025-05-27T23:04:23.224761
24105,-0.2674,0.9384,0.3767,-6.160,-85.680,-28.245,411,408,385,413,409,2025-05-27T23:04:23.224761
24106,-0.1810,1.0512,0.3972,-15.785,-114.345,-41.860,414,383,373,393,409,2025-05-27T23:04:23.224761
24107,-0.1127,1.1712,0.4104,-25.270,-140.665,-56.035,400,343,374,360,395,2025-05-27T23:04:23.388423
24108,-0.0337,1.3679,0.4475,-35.490,-166.810,-65.765,416,387,378,354,388,2025-05-27T23:04:23.388423
24109,-0.0137,1.5372,0.4197,-45.430,-194.915,-69.370,422,424,342,356,410,2025-05-27T23:04:23.388423
24110,0.0205,1.7485,0.3670,-57.120,-217.735,-67.480,435,407,358,342,395,2025-05-27T23:04:23.388423
24111,0.1322,1.9520,0.2674,-71.190,-231.210,-62.160,403,428,362,370,366,2025-05-27T23:04:23.388423
24112,0.1532,2.0662,0.1576,-86.310,-223.160,-54.495,401,435,335,396,393,2025-05-27T23:04:23.388423
24113,0.1625,2.1823,0.0693,-102.270,-202.545,-46.725,425,395,353,346,349,2025-05-27T23:04:23.388423
24114,0.0634,2.2126,0.0229,-116.900,-180.740,-38.640,431,400,292,394,388,2025-05-27T23:04:23.388423
24115,-0.0815,2.1765,-0.0015,-125.055,-167.090,-28.630,414,421,346,366,345,2025-05-27T23:04:23.388423
24116,-0.2455,2.1257,0.0015,-133.770,-165.200,-22.995,418,357,358,391,327,2025-05-27T23:04:23.388423
24117,-0.3338,2.0613,0.0342,-147.385,-172.165,-24.955,390,411,370,390,343,2025-05-27T23:04:23.388423
24118,-0.4021,1.8890,0.0195,-160.440,-182.735,-27.160,400,411,375,386,388,2025-05-27T23:04:23.388423
24119,-0.4743,1.7290,0.0342,-170.240,-201.285,-35.595,420,397,387,408,401,2025-05-27T23:04:23.388423
24120,-0.4621,1.5328,0.1337,-185.185,-224.385,-51.905,393,419,388,371,384,2025-05-27T23:04:23.388423
24121,-0.5202,1.2381,0.1318,-197.890,-258.545,-66.325,380,435,376,398,385,2025-05-27T23:04:23.454133
24122,-0.5036,0.9589,0.1615,-212.240,-302.820,-97.650,337,398,369,404,395,2025-05-27T23:04:23.454133
24123,-0.3133,0.6354,0.1196,-227.430,-348.425,-133.280,402,424,336,407,399,2025-05-27T23:04:23.454133
24124,-0.1269,0.2772,0.0683,-242.725,-375.515,-171.045,403,394,333,392,391,2025-05-27T23:04:23.454133
24125,0.3592,-0.3084,-0.0644,-251.685,-381.290,-184.415,419,420,357,389,387,2025-05-27T23:04:23.454133
24126,0.7930,-0.9145,0.0708,-263.725,-348.250,-197.750,400,440,377,399,398,2025-05-27T23:04:23.618956
24127,0.9838,-1.7841,0.3421,-296.975,-237.650,-224.910,348,397,385,405,411,2025-05-27T23:04:23.618956
24128,1.1097,-2.6879,0.6383,-321.650,-152.985,-239.295,400,432,384,418,398,2025-05-27T23:04:23.618956
24129,0.8950,-3.4463,0.9272,-330.785,-41.545,-254.975,396,404,385,409,388,2025-05-27T23:04:23.618956
24130,0.1098,-3.6922,1.1395,-295.820,51.310,-257.600,299,397,388,415,386,2025-05-27T23:04:23.618956
24131,-0.7759,-3.5400,1.2932,-213.395,66.605,-186.725,339,407,384,416,366,2025-05-27T23:04:23.618956
24132,-1.1692,-3.0764,1.2098,-83.790,8.855,-62.580,377,410,387,415,333,2025-05-27T23:04:23.618956
24133,-0.6832,-2.6986,1.1175,54.215,-73.430,55.405,400,376,391,409,319,2025-05-27T23:04:23.618956
24134,-0.0034,-2.3146,1.1268,134.295,-39.060,127.960,415,400,386,417,357,2025-05-27T23:04:23.618956
24135,0.4636,-1.8827,1.0014,180.670,41.615,149.170,415,402,393,354,384,2025-05-27T23:04:23.618956
24136,0.4934,-1.6514,0.8169,200.025,127.680,156.870,393,426,384,357,383,2025-05-27T23:04:23.618956
24137,0.5529,-1.4333,0.6281,203.665,156.135,157.395,398,430,384,401,340,2025-05-27T23:04:23.618956
24138,0.5553,-1.1878,0.5529,200.270,177.345,151.375,423,430,356,386,343,2025-05-27T23:04:23.618956
24139,0.4992,-0.8477,0.5353,191.275,237.440,149.520,343,424,367,401,383,2025-05-27T23:04:23.618956
24140,0.3714,-0.5300,0.5607,173.985,289.590,150.815,387,396,382,397,393,2025-05-27T23:04:23.787403
24141,0.2162,-0.2069,0.5954,155.575,310.555,149.275,413,415,370,353,383,2025-05-27T23:04:23.787403
24142,-0.0542,-0.0098,0.5661,145.530,326.165,143.150,344,421,379,391,342,2025-05-27T23:04:23.787403
24143,-0.2240,0.2176,0.5636,137.060,337.400,134.890,331,411,380,409,368,2025-05-27T23:04:23.787403
24144,-0.4441,0.3216,0.5197,134.120,339.850,131.285,387,418,389,405,372,2025-05-27T23:04:23.787403
24145,-0.5885,0.4904,0.5173,134.785,324.695,128.030,417,425,394,399,381,2025-05-27T23:04:23.787403
24146,-0.6905,0.6759,0.5451,132.335,292.425,120.400,420,432,386,406,389,2025-05-27T23:04:23.787403
24147,-0.8106,0.8403,0.5763,128.100,253.750,105.805,425,425,390,371,386,2025-05-27T23:04:23.787403
24148,-0.8115,1.0160,0.5578,121.100,208.985,88.095,407,394,357,399,403,2025-05-27T23:04:23.787403
24149,-0.7086,1.1932,0.5183,111.650,169.365,72.695,395,382,345,390,353,2025-05-27T23:04:23.787403
24150,-0.6486,1.2683,0.4943,104.615,141.540,64.260,415,336,338,405,376,2025-05-27T23:04:23.787403
24151,-0.6046,1.3074,0.4841,98.070,114.940,56.805,419,411,357,397,386,2025-05-27T23:04:23.787403
24152,-0.5675,1.3630,0.5187,91.560,92.015,45.255,426,426,364,398,383,2025-05-27T23:04:23.787403
24153,-0.4963,1.3615,0.4987,85.050,69.650,41.020,394,421,373,406,408,2025-05-27T23:04:23.787403
24154,-0.5031,1.3518,0.4968,81.690,57.085,36.855,342,408,386,401,391,2025-05-27T23:04:23.866905
24155,-0.4553,1.3669,0.5192,77.175,47.740,29.330,400,418,384,409,398,2025-05-27T23:04:23.866905
24156,-0.4285,1.3142,0.5241,70.560,40.845,27.335,430,418,383,409,401,2025-05-27T23:04:23.867235
24157,-0.4363,1.2693,0.5100,66.815,36.260,27.755,406,396,383,410,404,2025-05-27T23:04:23.867334
24158,-0.4368,1.2424,0.4880,64.925,31.535,27.195,361,422,380,353,401,2025-05-27T23:04:23.867334
24159,-0.4807,1.2058,0.4699,62.790,26.600,26.355,413,412,370,349,406,2025-05-27T23:04:23.867334
24160,-0.5158,1.1844,0.4587,59.535,17.325,28.280,364,359,368,402,366,2025-05-27T23:04:24.020391
24161,-0.5744,1.1253,0.4050,59.780,1.995,31.360,410,338,384,366,375,2025-05-27T23:04:24.020391
24162,-0.5017,1.1278,0.3826,57.855,-14.700,31.675,404,359,344,406,347,2025-05-27T23:04:24.020391
24163,-0.4216,1.1107,0.3465,52.780,-15.575,31.290,401,391,366,413,368,2025-05-27T23:04:24.020391
24164,-0.3392,1.0731,0.3216,47.040,-4.900,32.655,402,418,371,409,394,2025-05-27T23:04:24.302404
24165,-0.3182,1.0248,0.3035,42.630,4.095,36.505,397,402,339,384,390,2025-05-27T23:04:24.302404
24166,-0.3362,0.9814,0.3050,39.200,11.655,39.795,421,418,369,403,387,2025-05-27T23:04:24.302404
24167,-0.3675,0.9594,0.3148,33.915,15.750,40.460,420,372,371,402,408,2025-05-27T23:04:24.302404
24168,-0.3919,0.9189,0.3172,28.875,16.520,41.300,393,401,374,402,408,2025-05-27T23:04:24.302404
24169,-0.4260,0.8950,0.3235,25.270,11.270,40.775,388,420,375,386,367,2025-05-27T23:04:24.302404
24170,-0.4275,0.8725,0.3255,23.310,5.635,39.655,390,426,384,364,403,2025-05-27T23:04:24.302404
24171,-0.4309,0.8506,0.3323,21.560,0.315,36.890,414,426,389,396,400,2025-05-27T23:04:24.302404
24172,-0.3889,0.8325,0.3314,20.125,-3.640,35.420,398,387,386,400,354,2025-05-27T23:04:24.302404
24173,-0.3543,0.8101,0.3196,19.600,-3.115,33.215,418,404,396,388,389,2025-05-27T23:04:24.302404
24174,-0.3216,0.7959,0.3148,19.775,4.375,29.925,397,394,397,388,406,2025-05-27T23:04:24.302404
24175,-0.3094,0.7788,0.3133,19.705,10.710,25.900,420,408,348,388,410,2025-05-27T23:04:24.302404
24176,-0.3133,0.7666,0.3123,19.600,17.325,22.400,426,299,351,379,405,2025-05-27T23:04:24.302404
24177,-0.3182,0.7652,0.3128,19.145,22.120,17.990,426,403,363,399,405,2025-05-27T23:04:24.302404
24178,-0.3357,0.7657,0.3128,17.570,24.255,13.405,416,411,377,394,372,2025-05-27T23:04:24.302404
24179,-0.3728,0.7632,0.3152,15.855,23.625,8.645,359,403,375,404,382,2025-05-27T23:04:24.302404
24180,-0.4124,0.7632,0.3143,15.330,20.055,4.550,417,413,379,399,388,2025-05-27T23:04:24.431882
24181,-0.4553,0.7598,0.3060,16.415,14.455,1.960,379,341,367,403,387,2025-05-27T23:04:24.431882
24182,-0.4817,0.7637,0.3001,17.675,8.960,-0.350,400,389,367,405,394,2025-05-27T23:04:24.431882
24183,-0.4812,0.7793,0.3001,19.600,4.690,-1.820,372,416,302,412,312,2025-05-27T23:04:24.431882
24184,-0.4621,0.7910,0.2860,20.755,1.785,-3.010,401,399,349,409,369,2025-05-27T23:04:24.431882
24185,-0.4368,0.8013,0.2679,20.895,4.200,-5.145,417,406,362,375,379,2025-05-27T23:04:24.431882
24186,-0.4026,0.8130,0.2616,21.140,12.180,-5.425,410,405,360,407,380,2025-05-27T23:04:24.431882
24187,-0.4314,0.8086,0.2503,21.525,21.350,-5.110,363,411,364,391,386,2025-05-27T23:04:24.431882
24188,-0.4812,0.8169,0.2479,23.135,25.760,-4.725,413,417,377,387,397,2025-05-27T23:04:24.431882
24189,-0.5187,0.8384,0.2552,23.345,24.990,-3.605,387,427,383,338,355,2025-05-27T23:04:24.431882
24190,-0.5378,0.8433,0.2430,21.595,21.070,-2.625,423,427,384,370,378,2025-05-27T23:04:24.431882
24191,-0.5563,0.8477,0.2313,20.335,16.450,-1.295,410,426,382,402,402,2025-05-27T23:04:24.431882
24192,-0.5514,0.8569,0.2123,19.565,11.795,0.980,344,380,353,405,391,2025-05-27T23:04:24.431882
24193,-0.5329,0.8745,0.2089,17.570,9.870,2.135,381,419,377,413,405,2025-05-27T23:04:24.431882
24194,-0.5270,0.8818,0.2069,13.720,10.080,3.360,423,349,376,407,386,2025-05-27T23:04:24.431882
24195,-0.5314,0.8862,0.2098,9.310,8.575,3.640,401,388,382,410,390,2025-05-27T23:04:24.432876
24196,-0.5168,0.8804,0.2084,5.075,5.565,3.395,418,415,370,311,399,2025-05-27T23:04:24.432876
24197,-0.4860,0.8701,0.2128,1.680,7.245,3.570,405,394,347,317,387,2025-05-27T23:04:24.585922
24198,-0.4909,0.8750,0.2298,-0.910,12.425,4.305,415,393,366,371,390,2025-05-27T23:04:24.585922
24199,-0.5197,0.8408,0.2338,-2.940,13.195,5.040,396,353,378,344,408,2025-05-27T23:04:24.585922
24200,-0.5368,0.8355,0.2455,-4.585,12.145,4.795,412,391,370,375,395,2025-05-27T23:04:24.585922
24201,-0.5529,0.8198,0.2499,-5.600,11.130,4.515,341,412,340,391,390,2025-05-27T23:04:24.585922
24202,-0.5612,0.8091,0.2518,-5.810,9.450,5.110,417,431,349,395,388,2025-05-27T23:04:24.585922
24203,-0.5763,0.8052,0.2518,-6.265,6.195,5.285,348,424,333,413,382,2025-05-27T23:04:24.585922
24204,-0.5700,0.8037,0.2582,-6.895,4.340,4.585,363,396,354,412,407,2025-05-27T23:04:24.585922
24205,-0.5573,0.7945,0.2450,-7.385,2.485,4.270,380,401,370,402,402,2025-05-27T23:04:24.585922
24206,-0.5388,0.7901,0.2430,-6.930,1.295,4.095,398,428,340,367,404,2025-05-27T23:04:24.585922
24207,-0.5373,0.7925,0.2499,-5.880,1.505,3.535,430,397,354,383,392,2025-05-27T23:04:24.585922
24208,-0.5290,0.7857,0.2435,-6.195,1.295,3.010,407,342,362,405,407,2025-05-27T23:04:24.585922
24209,-0.5144,0.7735,0.2333,-5.950,1.960,3.255,410,402,347,394,371,2025-05-27T23:04:24.585922
24210,-0.5153,0.7735,0.2279,-4.620,3.360,2.870,414,302,365,410,357,2025-05-27T23:04:24.585922
24211,-0.5065,0.7725,0.2357,-3.185,6.545,2.485,394,387,376,406,352,2025-05-27T23:04:24.585922
24212,-0.5056,0.7818,0.2440,-2.380,9.240,2.135,428,399,380,379,359,2025-05-27T23:04:24.585922
24213,-0.5056,0.7857,0.2435,-2.485,11.760,1.715,402,408,387,380,334,2025-05-27T23:04:24.585922
24214,-0.5168,0.7881,0.2377,-2.310,13.405,1.505,404,353,374,340,380,2025-05-27T23:04:24.585922
24215,-0.5339,0.7837,0.2279,-1.295,13.125,1.365,362,393,367,386,362,2025-05-27T23:04:24.585922
24216,-0.5373,0.7867,0.2206,-0.070,11.725,1.155,395,391,382,397,394,2025-05-27T23:04:24.585922
24217,-0.5344,0.7989,0.2245,-0.070,10.185,0.385,419,399,379,395,390,2025-05-27T23:04:24.585922
24218,-0.5358,0.8106,0.2250,-0.735,8.575,-0.245,412,428,390,402,395,2025-05-27T23:04:24.917971
24219,-0.5422,0.8037,0.2176,-1.085,6.370,-0.910,399,420,382,411,400,2025-05-27T23:04:24.917971
24220,-0.5373,0.8062,0.2201,-1.190,4.760,-1.155,403,431,374,400,389,2025-05-27T23:04:24.917971
24221,-0.5397,0.8042,0.2137,-0.630,2.870,-0.945,387,346,373,405,394,2025-05-27T23:04:24.917971
24222,-0.5412,0.8120,0.2216,-0.490,1.785,-1.085,421,407,366,407,386,2025-05-27T23:04:24.917971
24223,-0.5427,0.8164,0.2250,-0.980,1.330,-1.575,410,427,380,363,382,2025-05-27T23:04:24.917971
24224,-0.5358,0.8150,0.2274,-1.400,1.155,-1.295,299,407,376,400,415,2025-05-27T23:04:24.917971
24225,-0.5305,0.8208,0.2279,-1.680,1.680,-0.875,388,429,382,392,358,2025-05-27T23:04:24.917971
24226,-0.5241,0.8184,0.2216,-2.030,4.235,-0.770,422,409,384,406,374,2025-05-27T23:04:24.917971
24227,-0.5241,0.8228,0.2294,-2.450,7.210,-0.350,412,346,381,389,389,2025-05-27T23:04:24.917971
24228,-0.5363,0.8247,0.2323,-2.660,8.820,-0.105,422,402,392,411,401,2025-05-27T23:04:24.917971
24229,-0.5470,0.8233,0.2308,-2.940,8.540,0.350,406,367,376,372,392,2025-05-27T23:04:24.917971
24230,-0.5495,0.8203,0.2298,-3.080,7.490,0.945,423,396,379,393,399,2025-05-27T23:04:24.917971
24231,-0.5592,0.8179,0.2240,-2.625,5.285,1.575,397,407,374,389,402,2025-05-27T23:04:24.917971
24232,-0.5431,0.8189,0.2211,-2.485,3.150,2.170,402,425,385,404,394,2025-05-27T23:04:24.917971
24233,-0.5466,0.8218,0.2216,-2.695,2.100,2.240,368,303,378,408,388,2025-05-27T23:04:24.917971
24234,-0.5383,0.8159,0.2172,-3.045,1.225,2.170,385,395,369,393,404,2025-05-27T23:04:24.917971
24235,-0.5392,0.8150,0.2181,-3.115,-0.525,2.450,369,415,367,341,398,2025-05-27T23:04:24.917971
24236,-0.5378,0.8164,0.2250,-3.500,-2.275,2.240,348,412,379,397,412,2025-05-27T23:04:24.917971
24237,-0.5256,0.8120,0.2186,-3.710,-3.535,2.240,386,305,383,385,403,2025-05-27T23:04:24.917971
24238,-0.5173,0.8081,0.2152,-3.745,-3.465,1.925,421,395,384,410,415,2025-05-27T23:04:25.019947
24239,-0.5095,0.8023,0.2147,-3.640,-2.205,1.645,400,359,383,413,411,2025-05-27T23:04:25.019947
24240,-0.5075,0.8013,0.2113,-3.990,-0.875,1.365,400,393,376,420,358,2025-05-27T23:04:25.019947
24241,-0.5012,0.7969,0.2069,-4.060,0.350,1.120,418,428,372,403,371,2025-05-27T23:04:25.019947
24242,-0.4929,0.7984,0.2050,-3.955,2.555,0.490,422,407,381,408,408,2025-05-27T23:04:25.019947
24243,-0.5017,0.7998,0.2054,-4.165,5.320,-0.280,426,412,352,415,393,2025-05-27T23:04:25.019947
24244,-0.5080,0.7984,0.2050,-4.270,6.720,-0.875,346,425,354,421,389,2025-05-27T23:04:25.019947
24245,-0.5275,0.7984,0.2020,-4.095,6.475,-1.330,327,425,327,351,397,2025-05-27T23:04:25.019947
24246,-0.5339,0.7974,0.2015,-3.430,5.845,-1.820,373,412,358,397,381,2025-05-27T23:04:25.019947
24247,-0.5383,0.7964,0.2074,-2.975,4.340,-2.135,390,305,358,400,341,2025-05-27T23:04:25.019947
24248,-0.5412,0.7959,0.2059,-2.695,2.765,-2.450,410,412,378,411,382,2025-05-27T23:04:25.019947
24249,-0.5314,0.7954,0.2045,-2.695,1.715,-2.765,395,429,386,402,381,2025-05-27T23:04:25.019947
24250,-0.5270,0.7930,0.2001,-2.240,1.785,-3.010,408,421,343,400,358,2025-05-27T23:04:25.019947
24251,-0.5275,0.7959,0.2050,-2.100,2.065,-3.395,427,394,362,357,373,2025-05-27T23:04:25.019947
24252,-0.5231,0.8013,0.2079,-2.555,2.135,-3.990,427,397,368,388,349,2025-05-27T23:04:25.019947
24253,-0.5222,0.8028,0.2074,-3.010,2.415,-4.270,427,384,382,415,388,2025-05-27T23:04:25.019947
24254,-0.5134,0.8032,0.2128,-3.500,2.730,-4.970,425,417,384,414,406,2025-05-27T23:04:25.019947
24255,-0.5163,0.8003,0.2103,-3.850,3.360,-5.565,440,406,378,413,395,2025-05-27T23:04:25.019947
24256,-0.5129,0.8096,0.2137,-4.445,3.710,-5.985,398,426,342,361,381,2025-05-27T23:04:25.019947
24257,-0.5134,0.8081,0.2123,-4.760,3.885,-6.370,413,408,355,388,399,2025-05-27T23:04:25.168669
24258,-0.5065,0.8101,0.2059,-4.725,4.655,-6.825,412,366,381,412,314,2025-05-27T23:04:25.168669
24259,-0.4914,0.8169,0.2040,-5.110,5.915,-7.210,420,329,380,389,360,2025-05-27T23:04:25.168669
24260,-0.4914,0.8203,0.2030,-6.720,8.260,-7.280,397,382,389,409,401,2025-05-27T23:04:25.168669
24261,-0.4939,0.8208,0.2054,-8.470,11.060,-7.245,424,419,378,403,390,2025-05-27T23:04:25.168669
24262,-0.5173,0.8145,0.2137,-9.695,12.565,-7.105,367,419,366,371,404,2025-05-27T23:04:25.168669
24263,-0.5446,0.8062,0.2201,-9.730,11.235,-6.930,369,425,377,396,315,2025-05-27T23:04:25.168669
24264,-0.5588,0.8052,0.2338,-9.940,9.135,-6.825,413,415,383,391,368,2025-05-27T23:04:25.168669
24265,-0.5700,0.8072,0.2328,-9.555,6.720,-6.790,426,410,310,393,340,2025-05-27T23:04:25.168669
24266,-0.5788,0.8013,0.2381,-8.645,5.110,-7.420,409,402,342,366,370,2025-05-27T23:04:25.168669
24267,-0.5915,0.7969,0.2420,-7.630,2.800,-7.630,361,419,358,396,357,2025-05-27T23:04:25.168669
24268,-0.6002,0.7964,0.2435,-6.405,-0.665,-7.070,390,409,358,391,378,2025-05-27T23:04:25.168669
24269,-0.5924,0.7906,0.2435,-5.215,-3.325,-6.825,395,424,382,414,402,2025-05-27T23:04:25.434796
24270,-0.5880,0.7876,0.2381,-3.640,-4.970,-6.265,373,407,386,357,406,2025-05-27T23:04:25.434796
24271,-0.5724,0.7813,0.2318,-2.170,-4.690,-5.355,293,393,374,354,396,2025-05-27T23:04:25.434796
24272,-0.5646,0.7857,0.2313,-1.085,-2.975,-4.550,402,425,342,334,395,2025-05-27T23:04:25.434796
24273,-0.5627,0.7847,0.2289,-0.455,-1.155,-3.955,393,416,363,393,351,2025-05-27T23:04:25.434796
24274,-0.5632,0.7901,0.2255,0.280,0.070,-3.605,391,432,385,381,377,2025-05-27T23:04:25.434796
24275,-0.5602,0.7925,0.2196,0.630,1.085,-3.395,411,419,370,370,397,2025-05-27T23:04:25.434796
24276,-0.5651,0.7930,0.2216,0.455,1.960,-2.870,408,413,374,361,401,2025-05-27T23:04:25.434796
24277,-0.5671,0.7925,0.2142,0.000,2.380,-2.800,417,418,341,400,391,2025-05-27T23:04:25.434796
24278,-0.5661,0.7920,0.2137,0.000,2.625,-2.520,398,425,350,388,396,2025-05-27T23:04:25.434796
24279,-0.5646,0.7901,0.2137,-0.070,2.835,-2.555,422,435,356,403,345,2025-05-27T23:04:25.434796
24280,-0.5710,0.7857,0.2103,0.175,2.485,-2.275,420,364,366,416,339,2025-05-27T23:04:25.434796
24281,-0.5729,0.7881,0.2118,0.525,1.400,-2.030,412,334,368,401,368,2025-05-27T23:04:25.434796
24282,-0.5671,0.7891,0.2157,0.280,0.630,-1.680,362,392,366,420,358,2025-05-27T23:04:25.434796
24283,-0.5675,0.7891,0.2137,-0.385,0.350,-1.855,408,420,342,408,371,2025-05-27T23:04:25.434796
24284,-0.5607,0.7891,0.2167,-0.945,0.210,-1.960,388,408,361,389,375,2025-05-27T23:04:25.434796
24285,-0.5558,0.7915,0.2167,-1.610,0.175,-2.415,411,344,380,363,385,2025-05-27T23:04:25.434796
24286,-0.5563,0.7857,0.2162,-2.030,0.385,-2.765,391,376,380,402,404,2025-05-27T23:04:25.434796
24287,-0.5510,0.7930,0.2181,-2.135,0.105,-2.625,413,412,378,404,404,2025-05-27T23:04:25.434796
24288,-0.5558,0.7828,0.2118,-1.890,-0.245,-2.625,389,410,383,399,385,2025-05-27T23:04:25.434796
24289,-0.5563,0.7876,0.2181,-2.100,-0.560,-2.905,338,354,370,420,391,2025-05-27T23:04:25.651557
24290,-0.5505,0.7837,0.2162,-2.450,-0.595,-3.010,366,357,368,370,407,2025-05-27T23:04:25.667190
24291,-0.5510,0.7852,0.2211,-3.010,-0.105,-3.150,378,407,364,356,410,2025-05-27T23:04:25.667190
24292,-0.5490,0.7803,0.2191,-3.570,0.805,-3.570,408,397,362,293,395,2025-05-27T23:04:25.667501
24293,-0.5524,0.7735,0.2123,-3.325,0.840,-3.990,427,400,374,356,404,2025-05-27T23:04:25.667501
24294,-0.5524,0.7696,0.2103,-2.380,0.665,-4.235,426,422,338,376,349,2025-05-27T23:04:25.667501
24295,-0.5514,0.7764,0.2113,-2.555,1.260,-4.515,429,407,349,373,366,2025-05-27T23:04:25.667937
24296,-0.5470,0.7784,0.2118,-3.010,2.275,-4.620,403,421,371,390,405,2025-05-27T23:04:25.667937
24297,-0.5485,0.7769,0.2084,-3.640,3.745,-5.075,422,352,375,407,399,2025-05-27T23:04:25.667937
24298,-0.5539,0.7779,0.2074,-4.060,4.970,-5.950,416,390,306,352,349,2025-05-27T23:04:25.667937
24299,-0.5636,0.7749,0.2074,-4.340,5.775,-6.265,387,411,338,386,382,2025-05-27T23:04:25.668498
24300,-0.5802,0.7691,0.2113,-3.710,5.145,-6.195,389,406,368,395,384,2025-05-27T23:04:25.668554
24301,-0.5929,0.7720,0.2186,-3.220,3.745,-6.125,347,388,380,350,347,2025-05-27T23:04:25.668554
24302,-0.5988,0.7681,0.2201,-2.940,2.240,-5.950,406,351,378,371,382,2025-05-27T23:04:25.668554
24303,-0.6022,0.7681,0.2230,-2.660,1.330,-6.300,358,385,375,395,401,2025-05-27T23:04:25.668554
24304,-0.5978,0.7686,0.2245,-2.380,0.630,-6.580,421,402,376,396,396,2025-05-27T23:04:25.668554
24305,-0.5939,0.7686,0.2186,-1.995,0.210,-6.440,369,412,350,345,403,2025-05-27T23:04:25.669390
24306,-0.5919,0.7666,0.2172,-1.400,0.140,-6.020,409,344,367,400,405,2025-05-27T23:04:25.669390
24307,-0.5880,0.7686,0.2152,-0.910,0.630,-5.495,393,406,392,413,387,2025-05-27T23:04:25.669390
24308,-0.5856,0.7745,0.2240,-0.805,2.345,-5.460,387,411,376,356,406,2025-05-27T23:04:25.669390
24309,-0.5934,0.7749,0.2220,-1.015,3.745,-5.320,363,419,379,408,396,2025-05-27T23:04:25.669390
24310,-0.6012,0.7725,0.2196,-1.015,4.270,-5.040,406,429,381,405,401,2025-05-27T23:04:25.906237
24311,-0.6071,0.7745,0.2186,-1.085,4.130,-5.005,420,383,365,345,405,2025-05-27T23:04:25.906237
24312,-0.6090,0.7696,0.2162,-0.595,3.465,-4.760,398,414,382,348,360,2025-05-27T23:04:25.906237
24313,-0.6124,0.7745,0.2191,-0.210,2.135,-4.515,397,412,380,391,401,2025-05-27T23:04:25.906237
24314,-0.6202,0.7715,0.2186,0.175,0.315,-4.095,385,418,389,401,404,2025-05-27T23:04:26.167723
24315,-0.6188,0.7735,0.2172,0.280,-1.540,-3.850,408,418,383,382,411,2025-05-27T23:04:26.167723
24316,-0.6154,0.7769,0.2167,0.000,-2.800,-3.815,423,419,373,384,392,2025-05-27T23:04:26.167723
24317,-0.6105,0.7740,0.2128,-0.525,-3.465,-3.430,381,405,381,379,403,2025-05-27T23:04:26.167723
24318,-0.6027,0.7754,0.2118,-0.735,-3.535,-2.905,413,398,390,389,409,2025-05-27T23:04:26.167723
24319,-0.6002,0.7701,0.2103,-0.875,-2.485,-2.275,409,431,390,417,402,2025-05-27T23:04:26.167723
24320,-0.6061,0.7715,0.2113,-0.875,-1.470,-1.750,424,429,375,389,408,2025-05-27T23:04:26.167723
24321,-0.6051,0.7706,0.2103,-0.700,-1.295,-1.400,435,408,369,382,399,2025-05-27T23:04:26.167723
24322,-0.6071,0.7720,0.2098,-0.805,-0.770,-1.190,423,407,336,344,361,2025-05-27T23:04:26.167723
24323,-0.6115,0.7745,0.2103,-1.085,-0.035,-0.910,390,433,364,371,381,2025-05-27T23:04:26.167723
24324,-0.6227,0.7691,0.2128,-1.470,-0.525,-0.735,397,428,350,402,389,2025-05-27T23:04:26.167723
24325,-0.6242,0.7657,0.2094,-1.435,-1.925,-0.280,416,432,355,408,392,2025-05-27T23:04:26.167723
24326,-0.6183,0.7627,0.2108,-0.945,-2.800,0.070,382,369,358,414,406,2025-05-27T23:04:26.167723
24327,-0.6154,0.7598,0.2098,-0.735,-2.590,0.210,390,413,370,407,416,2025-05-27T23:04:26.167723
24328,-0.6168,0.7603,0.2118,-0.490,-2.555,0.525,398,359,383,414,415,2025-05-27T23:04:26.167723
24329,-0.6115,0.7603,0.2108,-0.385,-2.450,0.875,394,408,348,414,417,2025-05-27T23:04:26.167723
24330,-0.6129,0.7569,0.2059,-0.175,-1.645,0.770,335,415,356,312,398,2025-05-27T23:04:26.167723
24331,-0.6100,0.7618,0.2123,-0.035,-1.155,0.700,378,402,337,379,400,2025-05-27T23:04:26.167723
24332,-0.6139,0.7593,0.2108,-0.455,-1.470,0.525,416,413,354,408,398,2025-05-27T23:04:26.167723
24333,-0.6144,0.7549,0.2054,-0.490,-2.205,0.595,379,427,360,372,360,2025-05-27T23:04:26.167723
24334,-0.6134,0.7593,0.2084,-0.455,-2.555,0.385,389,422,364,383,385,2025-05-27T23:04:26.167723
24335,-0.6066,0.7564,0.2074,-0.910,-2.695,0.140,338,395,370,393,386,2025-05-27T23:04:26.167723
24336,-0.6085,0.7554,0.2079,-1.330,-2.765,0.070,401,402,382,420,394,2025-05-27T23:04:26.167723
24337,-0.6071,0.7535,0.2045,-1.190,-2.695,0.000,393,403,381,411,404,2025-05-27T23:04:26.167723
24338,-0.6076,0.7515,0.2059,-0.770,-2.835,0.105,356,403,379,394,411,2025-05-27T23:04:26.167723
24339,-0.6071,0.7530,0.2098,-0.875,-2.695,0.035,404,378,350,400,413,2025-05-27T23:04:26.167723
24340,-0.6041,0.7579,0.2147,-1.085,-2.415,0.140,333,400,322,399,413,2025-05-27T23:04:26.167723
24341,-0.6046,0.7564,0.2191,-1.505,-1.960,0.280,393,424,349,383,405,2025-05-27T23:04:26.167723
24342,-0.6085,0.7569,0.2137,-1.120,-1.575,0.525,414,414,364,390,392,2025-05-27T23:04:26.167723
24343,-0.6144,0.7569,0.2137,-0.315,-1.820,0.525,420,427,368,349,400,2025-05-27T23:04:26.167723
24344,-0.6144,0.7593,0.2181,0.350,-2.170,0.420,394,435,375,390,423,2025-05-27T23:04:26.167723
24345,-0.6139,0.7613,0.2176,0.875,-2.870,0.525,399,406,384,369,404,2025-05-27T23:04:26.386879
24346,-0.6071,0.7642,0.2167,1.435,-3.360,0.770,348,391,386,409,386,2025-05-27T23:04:26.386879
24347,-0.6080,0.7671,0.2172,1.750,-2.975,0.770,387,411,383,387,376,2025-05-27T23:04:26.386879
24348,-0.6066,0.7691,0.2196,1.610,-2.555,0.875,355,425,370,347,377,2025-05-27T23:04:26.386879
24349,-0.6144,0.7681,0.2147,1.575,-2.975,0.840,384,416,370,380,404,2025-05-27T23:04:26.386879
24350,-0.6159,0.7701,0.2167,1.470,-3.815,1.155,400,416,372,383,394,2025-05-27T23:04:26.386879
24351,-0.6173,0.7715,0.2162,1.050,-4.655,1.750,403,413,382,346,350,2025-05-27T23:04:26.386879
24352,-0.6134,0.7686,0.2103,0.560,-5.320,1.820,420,409,344,374,379,2025-05-27T23:04:26.386879
24353,-0.6061,0.7681,0.2128,0.560,-5.250,1.960,402,419,355,409,398,2025-05-27T23:04:26.386879
24354,-0.5954,0.7701,0.2108,0.245,-3.955,2.345,399,345,366,414,354,2025-05-27T23:04:26.386879
24355,-0.5949,0.7676,0.2094,-0.175,-2.800,2.695,419,379,375,400,377,2025-05-27T23:04:26.386879
24356,-0.5998,0.7637,0.2128,-0.210,-1.890,2.660,418,298,375,403,376,2025-05-27T23:04:26.386879
24357,-0.6022,0.7681,0.2167,-0.420,-1.855,2.695,430,381,368,415,398,2025-05-27T23:04:26.386879
24358,-0.6041,0.7657,0.2118,-0.350,-2.555,2.765,422,367,365,386,351,2025-05-27T23:04:26.386879
24359,-0.6037,0.7627,0.2137,-0.245,-3.675,2.520,402,340,299,382,398,2025-05-27T23:04:26.386879
24360,-0.5988,0.7662,0.2147,-0.595,-4.445,2.240,423,406,317,393,396,2025-05-27T23:04:26.505124
24361,-0.5954,0.7623,0.2118,-0.910,-4.655,1.925,403,423,347,386,351,2025-05-27T23:04:26.505124
24362,-0.5963,0.7618,0.2108,-0.595,-4.935,1.575,424,428,368,395,391,2025-05-27T23:04:26.505124
24363,-0.5958,0.7584,0.2108,-0.315,-5.600,1.225,434,420,373,406,405,2025-05-27T23:04:26.505124
24364,-0.5807,0.7598,0.2137,-0.420,-5.215,1.155,402,365,368,406,369,2025-05-27T23:04:26.505124
24365,-0.5778,0.7613,0.2113,-0.840,-3.850,1.050,417,403,367,414,366,2025-05-27T23:04:26.505124
24366,-0.5797,0.7584,0.2074,-1.190,-2.240,0.875,373,401,377,413,392,2025-05-27T23:04:26.505124
24367,-0.5910,0.7564,0.2064,-0.875,-1.820,0.875,409,395,366,313,393,2025-05-27T23:04:26.505124
24368,-0.5993,0.7603,0.2103,-0.735,-2.100,1.155,401,405,359,357,381,2025-05-27T23:04:26.505124
24369,-0.6012,0.7588,0.2108,-0.560,-2.975,1.295,414,426,381,386,395,2025-05-27T23:04:26.505124
24370,-0.5978,0.7613,0.2108,-0.245,-3.605,1.610,393,347,386,386,387,2025-05-27T23:04:26.505124
24371,-0.5934,0.7588,0.2108,-0.070,-3.220,1.750,334,405,376,384,397,2025-05-27T23:04:26.505124
24372,-0.5890,0.7662,0.2123,-0.105,-1.925,1.890,379,431,382,410,398,2025-05-27T23:04:26.505124
24373,-0.5929,0.7608,0.2069,0.035,-0.490,2.135,355,401,372,408,411,2025-05-27T23:04:26.505124
24374,-0.6012,0.7574,0.2108,0.700,0.350,2.065,380,423,385,419,410,2025-05-27T23:04:26.505124
24375,-0.6105,0.7608,0.2172,1.155,-0.175,2.065,404,430,391,408,374,2025-05-27T23:04:26.505124
24376,-0.6110,0.7618,0.2152,1.365,-1.890,2.310,419,410,396,405,379,2025-05-27T23:04:26.505124
24377,-0.6061,0.7608,0.2113,1.785,-2.800,2.275,397,416,394,417,384,2025-05-27T23:04:26.505124
24378,-0.5988,0.7603,0.2098,1.890,-3.185,2.345,416,403,387,416,404,2025-05-27T23:04:26.505124
24379,-0.5949,0.7544,0.2133,1.680,-3.255,2.450,299,334,343,420,407,2025-05-27T23:04:26.505124
24380,-0.5944,0.7525,0.2142,1.190,-3.745,2.695,374,394,373,416,407,2025-05-27T23:04:26.651832
24381,-0.5910,0.7481,0.2094,1.050,-3.990,3.010,387,390,387,404,396,2025-05-27T23:04:26.651832
24382,-0.5900,0.7457,0.2113,1.120,-4.305,3.430,388,420,379,346,386,2025-05-27T23:04:26.651832
24383,-0.5871,0.7374,0.2079,1.330,-4.760,3.430,402,427,370,395,390,2025-05-27T23:04:26.651832
24384,-0.5915,0.7291,0.2084,1.505,-5.040,3.465,301,396,330,368,392,2025-05-27T23:04:26.651832
24385,-0.5939,0.7198,0.2113,1.785,-5.495,3.815,322,293,345,398,415,2025-05-27T23:04:26.651832
24386,-0.5978,0.7096,0.2142,2.135,-7.070,4.410,376,365,371,414,409,2025-05-27T23:04:26.651832
24387,-0.5993,0.6998,0.2152,2.450,-9.520,5.670,416,337,368,374,412,2025-05-27T23:04:26.651832
24388,-0.6002,0.6861,0.2172,3.395,-12.635,7.875,401,386,377,393,416,2025-05-27T23:04:26.651832
24389,-0.5910,0.6754,0.2196,4.970,-15.645,10.955,412,373,382,399,394,2025-05-27T23:04:26.651832
24390,-0.5802,0.6778,0.2338,6.650,-18.480,13.685,421,415,380,389,386,2025-05-27T23:04:26.651832
24391,-0.5568,0.6944,0.2445,5.600,-20.895,16.240,349,425,373,391,396,2025-05-27T23:04:26.651832
24392,-0.5466,0.7110,0.2625,3.955,-23.450,17.675,387,399,368,369,347,2025-05-27T23:04:26.651832
24393,-0.5226,0.7593,0.2699,2.345,-27.790,16.695,386,387,366,407,370,2025-05-27T23:04:26.651832
24394,-0.5085,0.7979,0.2782,0.700,-35.735,13.090,403,389,369,396,348,2025-05-27T23:04:26.884487
24395,-0.4758,0.8623,0.2694,0.525,-48.265,9.765,405,408,348,346,369,2025-05-27T23:04:26.885202
24396,-0.4216,0.9604,0.2245,-1.960,-57.050,2.450,338,418,370,406,398,2025-05-27T23:04:26.885202
24397,-0.3689,1.0936,0.2059,-8.225,-78.645,-1.330,403,428,383,406,399,2025-05-27T23:04:26.885202
24398,-0.3631,1.3688,0.4060,-10.010,-103.915,-4.935,400,357,338,400,406,2025-05-27T23:04:26.885202
24399,-0.2440,1.6919,0.4534,-26.215,-133.595,-10.815,419,411,371,401,411,2025-05-27T23:04:26.885202
24400,-0.2338,2.1023,0.3543,-31.885,-159.250,-8.890,420,405,380,396,351,2025-05-27T23:04:26.885202
24401,0.0595,2.3829,0.4948,-59.115,-189.210,-13.195,396,303,380,393,375,2025-05-27T23:04:26.885202
24402,0.2176,2.6918,0.4714,-77.910,-206.920,-20.090,380,401,381,348,392,2025-05-27T23:04:26.886196
24403,0.3143,2.8528,0.3631,-95.445,-217.875,-20.860,408,413,385,399,398,2025-05-27T23:04:26.886196
24404,0.3304,2.8572,0.2328,-108.115,-231.560,-16.380,414,415,374,371,400,2025-05-27T23:04:26.886196
24405,0.3665,2.8202,0.0605,-115.990,-255.675,-14.945,393,426,389,391,405,2025-05-27T23:04:26.886196
24406,0.4665,2.7845,-0.1147,-126.595,-280.245,-13.755,403,346,392,393,407,2025-05-27T23:04:26.886196
24407,0.5119,2.7177,-0.2889,-141.435,-305.480,-11.445,406,417,387,402,413,2025-05-27T23:04:26.886196
24408,0.5802,2.6230,-0.5036,-157.815,-337.015,-21.665,405,402,399,412,412,2025-05-27T23:04:26.886196
24409,0.7798,2.4551,-0.6969,-182.945,-348.635,-39.725,357,388,382,422,392,2025-05-27T23:04:26.886196
24410,0.9926,2.1755,-0.9409,-200.480,-345.170,-67.480,420,344,386,425,407,2025-05-27T23:04:26.887199
24411,1.0477,1.8446,-0.9536,-222.845,-317.520,-114.555,399,383,372,396,371,2025-05-27T23:04:26.887199
24412,0.9848,1.2381,-0.8667,-251.055,-280.175,-150.255,388,418,388,371,395,2025-05-27T23:04:26.887199
24413,0.7076,0.5475,-0.6276,-287.840,-260.470,-194.495,419,420,391,392,351,2025-05-27T23:04:27.118517
24414,0.3460,-0.0669,-0.3597,-327.565,-266.490,-250.215,418,355,379,384,333,2025-05-27T23:04:27.118517
24415,0.0429,-0.9736,-0.1010,-367.570,-292.390,-283.255,411,408,341,399,373,2025-05-27T23:04:27.118517
24416,-0.3172,-2.5518,0.0727,-402.290,-327.530,-298.515,406,404,353,407,390,2025-05-27T23:04:27.118517
24417,-0.2611,-4.7234,0.6134,-414.470,-342.825,-308.525,365,428,383,414,406,2025-05-27T23:04:27.118517
24418,-0.1254,-6.1747,1.5001,-432.915,-292.460,-308.805,401,425,389,412,372,2025-05-27T23:04:27.118517
24419,-0.5592,-6.4450,2.0433,-384.230,-232.995,-259.490,352,425,383,391,380,2025-05-27T23:04:27.118517
24420,-0.5729,-5.5261,1.9764,-211.820,-177.345,-159.880,405,414,393,349,386,2025-05-27T23:04:27.118517
24421,0.1030,-4.5569,1.1619,38.920,-113.995,-40.600,392,400,345,398,411,2025-05-27T23:04:27.118517
24422,0.6827,-3.8074,0.9862,238.945,53.410,119.735,337,413,375,395,392,2025-05-27T23:04:27.118517
24423,0.9687,-2.8299,0.9155,307.055,283.080,205.730,392,401,373,403,402,2025-05-27T23:04:27.118517
24424,0.0054,-2.4390,0.8994,297.675,389.445,235.305,413,392,374,415,353,2025-05-27T23:04:27.118517
24425,-0.4895,-2.2443,0.8423,276.815,319.795,260.785,337,398,384,398,378,2025-05-27T23:04:27.118517
24426,-0.4529,-1.9266,0.7008,273.035,132.335,242.480,390,369,391,346,376,2025-05-27T23:04:27.118517
24427,0.4451,-1.1575,0.5549,261.730,79.380,215.880,296,355,345,371,388,2025-05-27T23:04:27.118517
24428,0.8945,-0.4080,0.4333,227.920,161.035,191.695,393,389,354,340,352,2025-05-27T23:04:27.118517
24429,1.2776,0.2128,0.2377,212.590,335.125,185.990,423,398,331,370,377,2025-05-27T23:04:27.118517
24430,1.0960,0.4094,0.2830,183.890,448.980,171.290,422,422,365,380,384,2025-05-27T23:04:27.118517
24431,0.6451,0.5968,0.2640,161.980,503.125,158.095,424,434,379,396,411,2025-05-27T23:04:27.118517
24432,-0.0185,0.6568,0.2723,159.180,513.590,146.895,402,407,339,411,417,2025-05-27T23:04:27.301692
24433,-0.5802,0.7998,0.3450,166.355,491.365,143.920,395,430,357,406,404,2025-05-27T23:04:27.301692
24434,-1.0443,1.0311,0.5334,172.410,418.145,130.095,377,406,378,421,405,2025-05-27T23:04:27.301692
24435,-1.1190,1.2312,0.6217,167.930,295.085,119.665,404,429,340,399,392,2025-05-27T23:04:27.301692
24436,-1.0350,1.2825,0.5788,160.720,169.680,114.030,394,354,337,385,405,2025-05-27T23:04:27.301692
24437,-0.6676,1.3703,0.4548,158.585,101.815,111.230,390,419,361,401,410,2025-05-27T23:04:27.301692
24438,-0.3055,1.4947,0.3860,154.350,58.835,94.465,416,372,360,417,387,2025-05-27T23:04:27.301692
24439,-0.1288,1.5811,0.2938,141.540,53.830,82.110,428,395,330,394,399,2025-05-27T23:04:27.301692
24440,0.0976,1.6045,0.2401,123.935,59.745,73.780,412,424,353,408,371,2025-05-27T23:04:27.301692
24441,0.1664,1.6270,0.2094,109.795,77.630,66.710,411,410,376,355,392,2025-05-27T23:04:27.301692
24442,0.1196,1.5904,0.1825,98.140,92.295,53.760,413,406,341,390,393,2025-05-27T23:04:27.302631
24443,0.0444,1.5396,0.1825,83.580,91.665,44.625,391,391,319,379,394,2025-05-27T23:04:27.302631
24444,-0.0878,1.4703,0.2103,69.860,74.830,34.895,396,408,357,383,393,2025-05-27T23:04:27.302631
24445,-0.1913,1.4245,0.2650,57.715,40.355,26.845,414,411,362,409,415,2025-05-27T23:04:27.302631
24446,-0.2338,1.3498,0.2489,47.005,1.575,19.635,420,403,375,414,400,2025-05-27T23:04:27.302631
24447,-0.2377,1.2644,0.2162,42.525,-31.605,14.245,429,397,386,416,410,2025-05-27T23:04:27.368114
24448,-0.1806,1.2522,0.2264,36.925,-46.550,8.505,404,348,395,402,355,2025-05-27T23:04:27.368114
24449,-0.1210,1.2185,0.2216,24.570,-44.065,4.025,398,382,399,404,332,2025-05-27T23:04:27.368114
24450,-0.1015,1.1590,0.2030,13.580,-28.770,0.945,418,345,389,396,374,2025-05-27T23:04:27.368114
24451,-0.1386,1.0775,0.1825,4.515,-11.235,-0.280,400,336,391,394,392,2025-05-27T23:04:27.368114
24452,-0.2328,0.9902,0.1796,0.910,8.505,0.910,408,395,384,412,393,2025-05-27T23:04:27.368114
24453,-0.3650,0.9418,0.1815,3.185,11.305,4.585,424,367,384,351,390,2025-05-27T23:04:27.619125
24454,-0.4768,0.9052,0.1986,8.050,-4.165,6.370,432,391,382,387,394,2025-05-27T23:04:27.619125
24455,-0.4773,0.8794,0.2142,11.270,-22.400,7.070,408,363,339,381,385,2025-05-27T23:04:27.619125
24456,-0.4128,0.8794,0.2108,12.285,-30.415,5.775,385,403,323,384,407,2025-05-27T23:04:27.619125
24457,-0.3323,0.8682,0.1884,12.460,-27.300,4.270,415,418,368,349,401,2025-05-27T23:04:27.619125
24458,-0.2591,0.8672,0.1859,11.305,-13.615,3.710,399,398,369,370,415,2025-05-27T23:04:27.619125
24459,-0.2704,0.8491,0.1928,10.640,3.325,4.935,412,424,378,391,413,2025-05-27T23:04:27.619125
24460,-0.3201,0.8223,0.1937,12.880,14.385,6.860,388,414,387,413,403,2025-05-27T23:04:27.619125
24461,-0.3650,0.8325,0.2216,14.665,18.550,7.630,415,415,378,398,397,2025-05-27T23:04:27.619125
24462,-0.4036,0.8452,0.2494,15.085,18.935,8.645,413,389,384,404,361,2025-05-27T23:04:27.619125
24463,-0.4031,0.8501,0.2513,14.000,17.010,8.295,341,409,370,390,343,2025-05-27T23:04:27.619125
24464,-0.4041,0.8496,0.2616,13.440,15.050,6.615,379,404,304,408,395,2025-05-27T23:04:28.269785
24465,-0.4163,0.8486,0.2660,14.000,13.370,5.880,383,338,355,408,405,2025-05-27T23:04:28.269785
24466,-0.4343,0.8564,0.2806,13.720,7.700,3.745,384,390,373,408,390,2025-05-27T23:04:28.269785
24467,-0.4299,0.8696,0.2923,12.950,0.770,2.555,425,425,381,395,403,2025-05-27T23:04:28.269785
24468,-0.4221,0.8740,0.2879,11.340,-1.820,1.295,431,434,392,361,402,2025-05-27T23:04:28.270784
24469,-0.4109,0.8813,0.2913,9.835,-2.415,0.630,431,407,379,402,421,2025-05-27T23:04:28.270784
24470,-0.4094,0.8877,0.2899,7.840,-3.080,-0.175,430,396,388,370,402,2025-05-27T23:04:28.270784
24471,-0.4148,0.8843,0.2850,6.125,-3.220,-0.210,429,410,379,381,408,2025-05-27T23:04:28.270784
24472,-0.4216,0.8872,0.2826,5.180,-3.150,0.035,409,420,357,341,351,2025-05-27T23:04:28.270784
24473,-0.4226,0.8828,0.2801,4.620,-3.430,0.140,407,419,362,285,359,2025-05-27T23:04:28.270784
24474,-0.4270,0.8774,0.2845,3.850,-3.185,-0.035,406,410,378,320,336,2025-05-27T23:04:28.270784
24475,-0.4416,0.8691,0.2830,4.270,-3.920,-0.385,416,385,371,382,347,2025-05-27T23:04:28.270784
24476,-0.4455,0.8774,0.2889,5.110,-6.860,-1.225,412,407,381,410,383,2025-05-27T23:04:28.270784
24477,-0.4265,0.8706,0.2830,4.830,-8.960,-1.575,418,412,355,403,345,2025-05-27T23:04:28.270784
24478,-0.4211,0.8662,0.2791,4.655,-7.455,-1.960,417,417,354,393,380,2025-05-27T23:04:28.270784
24479,-0.4270,0.8667,0.2708,4.410,-4.270,-2.275,379,422,368,354,397,2025-05-27T23:04:28.270784
24480,-0.4416,0.8599,0.2630,3.990,-3.430,-1.680,386,385,374,377,391,2025-05-27T23:04:28.270784
24481,-0.4524,0.8569,0.2562,3.395,-1.785,-0.910,390,339,372,365,392,2025-05-27T23:04:28.270784
24482,-0.4558,0.8584,0.2469,2.940,1.750,-0.210,420,392,348,357,402,2025-05-27T23:04:28.270784
24483,-0.4704,0.8472,0.2474,2.835,3.815,0.315,409,390,322,362,418,2025-05-27T23:04:28.270784
24484,-0.4978,0.8423,0.2489,3.010,2.485,1.505,428,341,353,390,402,2025-05-27T23:04:28.270784
24485,-0.5080,0.8457,0.2499,3.010,-0.105,1.925,424,416,366,409,399,2025-05-27T23:04:28.270784
24486,-0.4909,0.8428,0.2479,2.625,-1.785,2.170,413,348,329,407,386,2025-05-27T23:04:28.270784
24487,-0.4792,0.8345,0.2401,2.135,-2.835,2.310,403,412,353,393,384,2025-05-27T23:04:28.271243
24488,-0.4607,0.8291,0.2367,2.030,-3.535,1.540,428,428,372,390,400,2025-05-27T23:04:28.271243
24489,-0.4426,0.8340,0.2411,0.735,-2.275,0.875,427,402,347,403,399,2025-05-27T23:04:28.271243
24490,-0.4372,0.8306,0.2406,-0.700,0.595,-0.175,430,401,323,349,386,2025-05-27T23:04:28.271243
24491,-0.4309,0.8262,0.2401,-1.540,2.555,-0.945,402,423,351,386,391,2025-05-27T23:04:28.271243
24492,-0.4407,0.8237,0.2377,-1.855,3.395,-1.960,403,391,360,398,410,2025-05-27T23:04:28.271243
24493,-0.4368,0.8223,0.2411,-2.730,4.935,-3.955,420,374,335,405,414,2025-05-27T23:04:28.271243
24494,-0.4402,0.8174,0.2450,-2.730,7.140,-5.110,413,386,370,418,401,2025-05-27T23:04:28.271243
24495,-0.4470,0.8233,0.2635,-3.325,8.260,-6.020,405,423,378,409,389,2025-05-27T23:04:28.271243
24496,-0.4729,0.8218,0.2743,-3.885,7.245,-6.860,408,419,340,406,402,2025-05-27T23:04:28.271243
24497,-0.4856,0.8218,0.2884,-4.480,4.515,-7.175,417,345,347,391,414,2025-05-27T23:04:28.271243
24498,-0.4924,0.8145,0.2879,-3.815,0.210,-6.685,417,391,366,406,417,2025-05-27T23:04:28.271243
24499,-0.4953,0.8096,0.2791,-1.890,-2.975,-5.740,390,406,340,409,398,2025-05-27T23:04:28.271243
24500,-0.4934,0.8135,0.2879,-0.105,-4.970,-5.390,395,413,367,413,399,2025-05-27T23:04:28.271243
24501,-0.4743,0.8208,0.2865,0.490,-5.250,-5.285,389,401,365,349,407,2025-05-27T23:04:28.271243
24502,-0.4641,0.8320,0.2855,0.770,-3.710,-5.180,399,402,299,354,408,2025-05-27T23:04:28.271243
24503,-0.4553,0.8306,0.2728,1.120,-1.610,-4.725,342,347,336,376,355,2025-05-27T23:04:28.271243
24504,-0.4612,0.8359,0.2655,1.820,0.350,-4.690,374,424,374,402,395,2025-05-27T23:04:28.271243
24505,-0.4573,0.8359,0.2591,2.100,1.925,-5.180,391,347,372,355,401,2025-05-27T23:04:28.271243
24506,-0.4699,0.8496,0.2655,1.470,3.255,-4.550,396,386,370,382,356,2025-05-27T23:04:28.271243
24507,-0.4860,0.8335,0.2455,1.365,3.465,-3.920,416,414,389,396,349,2025-05-27T23:04:28.271243
24508,-0.4987,0.8320,0.2416,1.995,2.555,-4.235,419,421,385,385,373,2025-05-27T23:04:28.271243
24509,-0.4914,0.8442,0.2411,1.890,1.260,-4.795,409,411,377,393,379,2025-05-27T23:04:28.271243
24510,-0.4690,0.8467,0.2318,-0.245,0.770,-5.460,393,395,373,405,392,2025-05-27T23:04:28.271243
24511,-0.4685,0.8442,0.2377,-2.030,0.805,-6.335,397,426,333,395,382,2025-05-27T23:04:28.271243
24512,-0.4973,0.8130,0.2259,-1.925,-0.840,-7.000,345,391,356,394,364,2025-05-27T23:04:28.271243
24513,-0.5061,0.8198,0.2430,-1.365,-3.045,-7.420,396,403,363,340,341,2025-05-27T23:04:28.271243
24514,-0.5022,0.8252,0.2450,-2.380,-4.900,-7.805,421,420,366,381,392,2025-05-27T23:04:28.271243
24515,-0.4836,0.8242,0.2474,-3.535,-3.955,-8.085,415,420,366,401,403,2025-05-27T23:04:28.271243
24516,-0.4748,0.8154,0.2362,-4.095,-1.645,-8.050,409,401,360,361,385,2025-05-27T23:04:28.271243
24517,-0.5065,0.8037,0.2425,-3.920,0.210,-8.260,398,411,365,327,400,2025-05-27T23:04:28.271243
24518,-0.5202,0.8154,0.2591,-3.780,1.155,-7.420,404,429,368,326,359,2025-05-27T23:04:28.271243
24519,-0.5339,0.8130,0.2567,-4.375,1.330,-6.090,341,346,343,321,396,2025-05-27T23:04:28.271243
24520,-0.5456,0.8008,0.2533,-3.675,1.295,-5.285,348,361,366,382,396,2025-05-27T23:04:28.271243
24521,-0.5519,0.8086,0.2625,-2.170,1.330,-4.550,413,390,341,340,385,2025-05-27T23:04:28.271243
24522,-0.5558,0.8164,0.2679,-1.820,0.070,-3.430,420,400,363,365,391,2025-05-27T23:04:28.501423
24523,-0.5514,0.8189,0.2684,-1.680,-2.065,-2.275,421,390,379,376,385,2025-05-27T23:04:28.501423
24524,-0.5466,0.8169,0.2630,-0.280,-3.640,-1.960,347,404,378,344,345,2025-05-27T23:04:28.501423
24525,-0.5373,0.8184,0.2635,1.260,-5.005,-2.100,411,398,333,363,383,2025-05-27T23:04:28.501423
24526,-0.5217,0.8223,0.2621,2.415,-6.230,-1.750,396,428,363,376,303,2025-05-27T23:04:28.501423
24527,-0.5109,0.8233,0.2586,3.290,-6.265,-0.980,415,419,375,376,375,2025-05-27T23:04:28.501423
24528,-0.4978,0.8262,0.2533,3.255,-4.585,-0.910,412,404,373,389,336,2025-05-27T23:04:28.501423
24529,-0.6237,0.8306,0.2469,2.800,-2.730,-0.980,369,386,384,385,373,2025-05-27T23:04:28.501423
24530,-0.5041,0.8325,0.2494,2.205,-1.645,-0.945,416,383,376,356,340,2025-05-27T23:04:28.501423
24531,-0.5148,0.8325,0.2494,1.330,-1.575,-0.455,360,412,374,394,393,2025-05-27T23:04:28.501423
24532,-0.5266,0.8301,0.2479,1.015,-2.625,0.035,407,419,381,393,400,2025-05-27T23:04:28.501423
24533,-0.5319,0.8281,0.2425,0.875,-4.165,0.105,394,429,376,370,350,2025-05-27T23:04:28.501423
24534,-0.5305,0.8335,0.2464,0.560,-6.335,0.280,398,436,375,400,375,2025-05-27T23:04:28.501423
24535,-0.5212,0.8340,0.2411,0.000,-7.875,0.700,389,407,369,348,392,2025-05-27T23:04:28.501423
24536,-0.5207,0.8320,0.2445,-0.350,-8.435,0.805,359,411,384,408,407,2025-05-27T23:04:28.501423
24537,-0.5075,0.8311,0.2425,-0.420,-8.645,0.945,408,409,384,371,382,2025-05-27T23:04:28.501423
24538,-0.5026,0.8330,0.2489,-0.805,-7.945,1.050,357,389,371,395,374,2025-05-27T23:04:28.501423
24539,-0.4924,0.8325,0.2494,-1.470,-5.565,1.645,360,297,374,352,381,2025-05-27T23:04:28.501423
24540,-0.5017,0.8237,0.2489,-1.575,-3.500,2.590,406,282,372,390,401,2025-05-27T23:04:28.501423
24541,-0.5080,0.8179,0.2489,-1.155,-2.100,3.010,409,390,373,406,413,2025-05-27T23:04:28.501423
24542,-0.5129,0.8184,0.2547,-0.700,-1.295,2.905,425,402,377,387,391,2025-05-27T23:04:28.602801
24543,-0.5124,0.8150,0.2542,-0.455,-0.630,3.360,412,424,341,384,404,2025-05-27T23:04:28.602801
24544,-0.5168,0.8140,0.2567,-0.035,-0.980,3.885,381,408,356,365,406,2025-05-27T23:04:28.602801
24545,-0.5241,0.8111,0.2518,0.385,-2.590,3.535,419,421,362,392,362,2025-05-27T23:04:28.602801
24546,-0.5139,0.8164,0.2518,0.490,-3.780,2.975,428,438,342,409,372,2025-05-27T23:04:28.602801
24547,-0.5036,0.8159,0.2479,-0.035,-4.795,2.590,409,413,355,412,382,2025-05-27T23:04:28.602801
24548,-0.4968,0.8169,0.2464,-0.315,-5.635,2.450,424,410,370,406,351,2025-05-27T23:04:28.602801
24549,-0.4885,0.8164,0.2425,-0.595,-6.160,1.995,420,382,368,357,387,2025-05-27T23:04:28.602801
24550,-0.4812,0.8135,0.2425,-0.875,-6.230,1.960,401,394,385,396,402,2025-05-27T23:04:28.602801
24551,-0.4797,0.8169,0.2440,-1.260,-5.460,2.030,432,380,356,417,416,2025-05-27T23:04:28.602801
24552,-0.4841,0.8130,0.2440,-1.820,-4.935,1.505,380,374,378,409,394,2025-05-27T23:04:28.602801
24553,-0.4846,0.8081,0.2381,-1.400,-4.200,1.400,414,399,370,397,407,2025-05-27T23:04:28.602801
24554,-0.4875,0.8072,0.2416,-0.735,-3.150,1.260,401,425,380,390,356,2025-05-27T23:04:28.602801
24555,-0.4885,0.8067,0.2445,-0.455,-2.135,1.120,299,401,375,375,371,2025-05-27T23:04:28.602801
24556,-0.4900,0.8140,0.2499,-0.665,-1.435,0.700,383,394,386,362,339,2025-05-27T23:04:28.701505
24557,-0.4895,0.8140,0.2489,-0.560,-0.805,0.595,333,409,381,377,328,2025-05-27T23:04:28.701505
24558,-0.4914,0.8154,0.2533,-0.490,-0.875,0.560,386,399,384,400,371,2025-05-27T23:04:28.701505
24559,-0.4914,0.8169,0.2533,-0.560,-1.190,0.420,383,396,341,406,390,2025-05-27T23:04:28.701505
24560,-0.4904,0.8208,0.2523,-0.175,-1.050,0.525,390,359,359,406,415,2025-05-27T23:04:28.701505
24561,-0.4943,0.8154,0.2469,0.000,-0.595,0.140,411,415,370,353,391,2025-05-27T23:04:28.701505
24562,-0.4948,0.8194,0.2489,0.140,-0.490,-0.175,393,393,383,390,410,2025-05-27T23:04:28.701505
24563,-0.4904,0.8242,0.2557,-0.140,-0.490,0.000,402,432,347,404,317,2025-05-27T23:04:28.701505
24564,-0.4934,0.8164,0.2518,-0.560,-0.420,0.350,338,345,366,348,375,2025-05-27T23:04:28.701505
24565,-0.4914,0.8140,0.2469,-0.350,-0.350,0.000,369,402,363,374,387,2025-05-27T23:04:28.834963
24566,-0.4968,0.8135,0.2503,0.105,0.420,-0.665,407,393,378,409,404,2025-05-27T23:04:28.834963
24567,-0.4880,0.8086,0.3670,-0.910,1.120,-0.665,393,423,378,370,413,2025-05-27T23:04:28.834963
24568,-0.4963,0.8189,0.2474,-0.350,0.945,-0.770,390,431,371,398,411,2025-05-27T23:04:28.834963
24569,-0.5007,0.8135,0.2518,-0.735,-0.070,-0.735,414,428,383,410,402,2025-05-27T23:04:28.834963
24570,-0.5051,0.8111,0.2533,-0.490,-1.120,-0.525,432,427,372,411,390,2025-05-27T23:04:28.834963
24571,-0.4992,0.8164,0.2552,-0.420,-1.225,-0.735,368,404,377,351,395,2025-05-27T23:04:28.834963
24572,-0.4958,0.8174,0.2533,-0.385,-0.665,-0.910,387,402,386,381,414,2025-05-27T23:04:28.834963
24573,-0.5007,0.8159,0.2552,-0.315,-0.420,-1.050,373,398,390,410,403,2025-05-27T23:04:28.834963
24574,-0.5022,0.8164,0.2577,-0.175,-0.560,-1.470,392,421,393,412,419,2025-05-27T23:04:28.834963
24575,-0.5022,0.8154,0.2567,0.245,-0.735,-1.575,388,430,393,402,406,2025-05-27T23:04:28.834963
24576,-0.5080,0.8179,0.2606,0.455,-0.980,-1.890,365,427,390,350,369,2025-05-27T23:04:29.021771
24577,-0.5026,0.8203,0.2621,0.070,-1.470,-2.030,406,413,380,385,385,2025-05-27T23:04:29.021771
24578,-0.5061,0.8179,0.2538,-0.070,-1.610,-2.240,393,413,394,392,389,2025-05-27T23:04:29.021771
24579,-0.5046,0.8159,0.2503,0.315,-1.540,-2.240,397,430,379,406,402,2025-05-27T23:04:29.021771
24580,-0.5036,0.8194,0.2489,0.420,-1.015,-2.030,377,400,375,415,388,2025-05-27T23:04:29.021771
24581,-0.5017,0.8267,0.2518,-0.035,0.140,-1.680,361,405,369,415,394,2025-05-27T23:04:29.021771
24582,-0.5100,0.8286,0.2499,-0.595,1.505,-1.260,416,429,367,406,384,2025-05-27T23:04:29.021771
24583,-0.5129,0.8247,0.2518,-0.770,1.435,-1.260,371,407,365,396,401,2025-05-27T23:04:29.021771
24584,-0.5197,0.8223,0.2494,-1.050,1.120,-1.015,408,424,351,406,403,2025-05-27T23:04:29.021771
24585,-0.5246,0.8233,0.2499,-1.085,0.700,-0.875,392,354,330,418,356,2025-05-27T23:04:29.021771
24586,-0.5222,0.8208,0.2464,-1.015,-0.070,-0.770,414,389,367,400,393,2025-05-27T23:04:29.021771
24587,-0.5202,0.8311,0.2557,-1.050,0.070,-0.595,409,390,371,399,391,2025-05-27T23:04:29.021771
24588,-0.5246,0.8174,0.2547,-1.190,0.105,-0.420,419,397,379,396,387,2025-05-27T23:04:29.021771
24589,-0.5129,0.8174,0.2508,-0.735,-1.925,-0.210,392,434,395,388,364,2025-05-27T23:04:29.021771
24590,-0.5173,0.8111,0.2533,-0.210,-3.290,0.140,414,382,395,404,396,2025-05-27T23:04:29.021771
24591,-0.5007,0.8135,0.2523,0.140,-3.115,0.490,374,406,397,416,400,2025-05-27T23:04:29.166941
24592,-0.4919,0.8154,0.2577,0.070,-1.645,0.735,336,422,393,406,369,2025-05-27T23:04:29.166941
24593,-0.4890,0.8140,0.2523,-0.490,8.750,0.560,390,436,354,400,381,2025-05-27T23:04:29.166941
24594,-0.4929,0.8062,0.2474,-0.630,0.770,0.455,403,423,363,406,400,2025-05-27T23:04:29.166941
24595,-0.4939,0.8076,0.2445,-0.350,0.875,0.595,433,427,336,377,403,2025-05-27T23:04:29.166941
24596,-0.4958,0.8120,0.2499,-0.140,0.910,0.490,431,403,365,405,414,2025-05-27T23:04:29.166941
24597,-0.4968,0.8032,0.2386,-0.315,0.385,0.210,403,418,386,427,413,2025-05-27T23:04:29.166941
24598,-0.4939,0.8047,0.2396,-0.280,0.350,-1.050,403,407,380,406,363,2025-05-27T23:04:29.166941
24599,-0.4929,0.8057,0.2386,-0.805,0.070,-1.505,336,409,366,307,365,2025-05-27T23:04:29.333717
24600,-0.4860,0.8067,0.2455,-1.925,0.000,-1.715,373,413,370,331,378,2025-05-27T23:04:29.334040
24601,-0.4909,0.8013,0.2284,-2.065,0.420,-1.715,364,397,381,360,395,2025-05-27T23:04:29.334101
24602,-0.4973,0.7964,0.2279,-2.100,0.630,-1.750,393,406,387,389,386,2025-05-27T23:04:29.334242
24603,-0.5002,0.7989,0.2313,-2.695,1.330,-1.680,396,396,376,411,402,2025-05-27T23:04:29.334242
24604,-0.5007,0.7954,0.2303,-3.430,2.345,-1.190,394,418,391,412,398,2025-05-27T23:04:29.334649
24605,-0.5104,0.7950,0.2357,-3.815,4.480,-1.050,384,303,339,389,390,2025-05-27T23:04:29.334813
24606,-0.5187,0.7910,0.2318,-3.535,5.810,-0.945,359,374,333,381,390,2025-05-27T23:04:29.334888
24607,-0.5300,0.7964,0.2386,-2.940,5.600,-0.735,337,406,350,392,407,2025-05-27T23:04:29.335085
24608,-0.5368,0.7979,0.2420,-2.065,5.530,-0.490,326,404,371,397,401,2025-05-27T23:04:29.335085
24609,-0.5383,0.7993,0.2420,-1.540,5.180,-0.665,398,379,365,378,416,2025-05-27T23:04:29.335251
24610,-0.5324,0.8028,0.2484,-0.630,5.390,-0.945,381,402,370,392,399,2025-05-27T23:04:29.335251
24611,-0.5383,0.8037,0.2494,0.455,5.740,-0.875,419,406,382,401,406,2025-05-27T23:04:29.335251
24612,-0.5368,0.8106,0.2528,0.665,5.635,-1.155,407,423,385,398,406,2025-05-27T23:04:29.335251
24613,-0.5407,0.8130,0.2562,0.735,4.900,-1.225,430,421,374,369,387,2025-05-27T23:04:29.335251
24614,-0.5358,0.8154,0.2528,0.490,4.235,-1.225,402,350,385,373,387,2025-05-27T23:04:29.608680
24615,-0.5388,0.8150,0.2528,0.280,3.710,-1.190,389,414,386,340,401,2025-05-27T23:04:29.608680
24616,-0.5329,0.8164,0.2474,0.490,2.835,-1.190,417,388,391,389,406,2025-05-27T23:04:29.608680
24617,-0.5348,0.8159,0.2489,0.665,2.520,-1.400,401,335,388,396,354,2025-05-27T23:04:29.608680
24618,-0.5373,0.8140,0.2489,0.630,1.890,-1.645,423,386,378,406,401,2025-05-27T23:04:29.608680
24619,-0.5407,0.8189,0.2557,1.050,0.035,-1.750,428,423,385,389,389,2025-05-27T23:04:29.608680
24620,-0.5358,0.8169,0.2567,0.700,-2.240,-1.820,407,406,348,299,389,2025-05-27T23:04:29.608680
24621,-0.5285,0.8150,0.2538,0.735,-3.395,-1.645,387,428,368,371,386,2025-05-27T23:04:29.608680
24622,-0.5241,0.8159,0.2538,0.980,-3.185,-2.275,401,422,376,365,342,2025-05-27T23:04:29.608680
24623,-0.5119,0.8169,0.2499,0.875,-2.135,-2.625,404,381,380,334,386,2025-05-27T23:04:29.608680
24624,-0.5129,0.8194,0.2450,0.525,-0.735,-2.660,418,399,373,381,387,2025-05-27T23:04:29.608680
24625,-0.5178,0.8203,0.2450,0.210,0.175,-2.870,421,386,342,415,386,2025-05-27T23:04:29.608680
24626,-0.5202,0.8203,0.2411,8.925,-0.175,-2.835,428,389,353,410,397,2025-05-27T23:04:29.608680
24627,-0.5334,0.8169,0.2367,0.210,-0.910,-2.835,420,351,371,397,384,2025-05-27T23:04:29.608680
24628,-0.5422,0.8106,0.2381,1.085,-2.100,-2.905,405,403,373,409,392,2025-05-27T23:04:29.608680
24629,-0.5431,0.8081,0.2406,1.645,-3.570,-3.220,434,403,386,420,395,2025-05-27T23:04:29.608680
24630,-0.5392,0.8150,0.2396,1.505,-4.305,-3.185,417,420,389,412,390,2025-05-27T23:04:29.608680
24631,-0.5402,0.8135,0.2381,1.190,-4.200,-3.010,422,414,391,400,368,2025-05-27T23:04:29.608680
24632,-0.5407,0.8130,0.2357,1.330,-4.165,-2.695,405,398,395,418,404,2025-05-27T23:04:29.608680
24633,-0.5407,0.8130,0.2342,1.680,-4.025,-2.275,405,341,393,415,407,2025-05-27T23:04:29.608680
24634,-0.5388,0.8164,0.2347,1.820,-3.360,-1.715,381,419,387,407,417,2025-05-27T23:04:29.739742
24635,-0.5397,0.8154,0.2357,1.610,-2.555,-1.015,395,423,385,411,416,2025-05-27T23:04:29.739742
24636,-0.5348,0.8140,0.2318,1.400,-1.750,-0.350,362,406,388,422,422,2025-05-27T23:04:29.739742
24637,-0.5422,0.8135,0.2294,1.190,-1.260,0.350,398,417,372,416,401,2025-05-27T23:04:29.739742
24638,-0.5446,0.8115,0.2279,1.190,-0.910,0.700,409,405,381,390,410,2025-05-27T23:04:29.739742
24639,-0.5470,0.8130,0.2298,1.295,-1.260,1.015,345,382,378,408,403,2025-05-27T23:04:29.739742
24640,-0.5436,0.8106,0.2284,1.470,-1.575,1.155,378,379,380,396,396,2025-05-27T23:04:29.739742
24641,-0.5402,0.8120,0.2303,1.645,-1.785,1.260,402,399,370,366,403,2025-05-27T23:04:29.739742
24642,-0.5334,0.8120,0.2284,1.575,-2.380,1.435,419,406,384,399,353,2025-05-27T23:04:29.739742
24643,-0.5319,0.8115,0.2313,1.295,-2.205,1.260,389,412,392,377,374,2025-05-27T23:04:29.739742
24644,-0.5309,0.8106,0.2279,0.700,-1.925,1.015,391,413,388,353,371,2025-05-27T23:04:29.739742
24645,-0.5314,0.8091,0.2308,0.175,-2.345,0.735,410,410,391,384,399,2025-05-27T23:04:29.739742
24646,-0.5300,0.8086,0.2255,-0.210,-2.870,0.840,403,410,393,390,398,2025-05-27T23:04:29.739742
24647,-0.5246,0.8067,0.2235,0.210,-2.940,0.805,370,427,393,394,394,2025-05-27T23:04:29.739742
24648,-0.5241,0.8091,0.2235,0.770,-2.520,0.630,337,341,375,409,398,2025-05-27T23:04:29.739742
24649,-0.5217,0.8140,0.2274,0.595,-1.750,0.560,363,416,344,418,390,2025-05-27T23:04:29.739742
24650,-0.5300,0.8140,0.2328,0.140,-1.260,0.630,337,419,325,393,380,2025-05-27T23:04:29.739742
24651,-0.5348,0.8174,0.2362,-0.140,-1.575,0.455,410,409,346,398,347,2025-05-27T23:04:29.834650
24652,-0.5344,0.8159,0.2381,-0.560,-2.240,0.525,408,376,291,384,373,2025-05-27T23:04:29.834650
24653,-0.5334,0.8179,0.2372,-0.875,-2.555,0.350,341,409,349,387,386,2025-05-27T23:04:29.834650
24654,-0.5353,0.8154,0.2401,-0.805,-2.765,0.420,408,378,325,387,391,2025-05-27T23:04:29.834650
24655,-0.5339,0.8140,0.2401,-0.560,-3.430,0.630,410,392,349,406,410,2025-05-27T23:04:29.834650
24656,-0.5368,0.8154,0.2406,-0.490,-3.675,0.910,420,422,374,395,385,2025-05-27T23:04:29.834650
24657,-0.5383,0.8164,0.2455,0.035,-3.710,1.260,416,351,382,398,391,2025-05-27T23:04:29.834650
24658,-0.5334,0.8150,0.2386,-0.210,-3.955,1.610,399,399,345,380,343,2025-05-27T23:04:29.834650
24659,-0.5344,0.8164,0.2352,-0.035,-3.850,1.785,407,392,319,378,380,2025-05-27T23:04:29.834650
24660,-0.5300,0.8198,0.2357,-0.140,-3.255,1.960,416,382,360,399,392,2025-05-27T23:04:30.068556
24661,-0.5261,0.8184,0.2313,-0.350,-3.045,2.065,379,403,373,414,310,2025-05-27T23:04:30.068556
24662,-0.5212,0.8184,0.2323,-0.560,-2.835,2.275,427,407,385,395,359,2025-05-27T23:04:30.068556
24663,-0.5251,0.8145,0.2308,-0.525,-2.660,2.380,425,411,388,399,386,2025-05-27T23:04:30.068556
24664,-0.5261,0.8125,0.2298,-0.595,-2.520,2.415,433,428,348,420,409,2025-05-27T23:04:30.068556
24665,-0.5300,0.8081,0.2298,-0.420,-3.185,2.205,397,415,356,375,388,2025-05-27T23:04:30.068556
24666,-0.5246,0.8159,0.2381,-0.350,-3.920,2.135,341,404,377,400,386,2025-05-27T23:04:30.068556
24667,-0.5236,0.8140,0.2411,-1.050,-4.235,2.065,404,408,355,415,382,2025-05-27T23:04:30.068556
24668,-0.5241,0.8086,0.2357,-1.295,-4.375,1.925,422,424,372,408,365,2025-05-27T23:04:30.068556
24669,-0.5217,0.8096,0.2323,-1.050,-4.515,1.750,419,401,366,415,385,2025-05-27T23:04:30.068556
24670,-0.5222,0.8145,0.2338,-0.665,-4.375,2.065,414,428,335,393,384,2025-05-27T23:04:30.068556
24671,-0.5212,0.8111,0.2338,-0.805,-4.095,2.065,428,427,363,407,386,2025-05-27T23:04:30.068556
24672,-0.5192,0.8150,0.2357,-0.980,-3.815,1.855,404,386,373,393,409,2025-05-27T23:04:30.068556
24673,-0.5144,0.8115,0.2362,-1.400,-2.975,1.855,391,389,367,407,395,2025-05-27T23:04:30.068556
24674,-0.5212,0.8111,0.2357,-1.855,-2.275,1.715,400,428,340,420,403,2025-05-27T23:04:30.068556
24675,-0.5290,0.8096,0.2362,-1.925,-2.380,1.610,412,359,364,409,383,2025-05-27T23:04:30.068556
24676,-0.5295,0.8086,0.2372,-1.855,-3.430,1.645,425,405,360,357,387,2025-05-27T23:04:30.068556
24677,-0.5329,0.8130,0.2464,-1.855,-4.900,1.435,429,414,385,377,412,2025-05-27T23:04:30.068556
24678,-0.5314,0.8101,0.2440,-2.450,-5.565,0.665,425,414,353,404,418,2025-05-27T23:04:30.068556
24679,-0.5266,0.8072,0.2372,-2.170,-5.950,0.805,405,426,378,413,418,2025-05-27T23:04:30.234388
24680,-0.5241,0.8081,0.2416,-2.345,-6.615,0.875,347,413,385,409,409,2025-05-27T23:04:30.234388
24681,-0.5197,0.8081,0.2386,-2.695,-7.105,0.665,397,390,379,399,404,2025-05-27T23:04:30.234388
24682,-0.5226,0.8067,0.2430,-2.415,-6.720,0.700,419,394,377,402,376,2025-05-27T23:04:30.234388
24683,-0.5202,0.8076,0.2420,-2.590,-6.370,0.910,426,415,382,399,400,2025-05-27T23:04:30.234388
24684,-0.5173,0.8091,0.2440,-2.625,-6.580,0.910,402,425,383,382,389,2025-05-27T23:04:30.234388
24685,-0.5207,0.8096,0.2445,-2.765,-6.230,1.365,408,391,372,398,405,2025-05-27T23:04:30.234388
24686,-0.5212,0.8101,0.2391,-2.905,-6.160,1.575,412,375,377,389,408,2025-05-27T23:04:30.234388
24687,-0.5217,0.8072,0.2377,-2.835,-6.090,1.680,433,411,384,347,387,2025-05-27T23:04:30.234388
24688,-0.5197,0.8086,0.2391,-2.485,-5.915,1.645,433,390,380,383,399,2025-05-27T23:04:30.234388
24689,-0.5222,0.8101,0.2425,-2.450,-5.635,1.330,406,340,344,404,396,2025-05-27T23:04:30.234388
24690,-0.5236,0.8106,0.2425,-2.555,-5.985,1.400,363,380,366,415,391,2025-05-27T23:04:30.234388
24691,-0.5270,0.8081,0.2401,-2.555,-6.755,1.190,398,403,382,403,385,2025-05-27T23:04:30.234388
24692,-0.5202,0.8086,0.2445,-2.205,-7.175,1.470,393,385,374,369,379,2025-05-27T23:04:30.234388
24693,-0.5192,0.8106,0.2445,-1.890,-6.790,1.715,408,366,371,404,406,2025-05-27T23:04:30.234388
24694,-0.5183,0.8111,0.2455,-1.995,-5.810,1.715,404,406,373,404,357,2025-05-27T23:04:30.393302
24695,-0.5187,0.8052,0.2445,-1.960,-5.005,1.855,415,417,367,409,336,2025-05-27T23:04:30.393302
24696,-0.5226,0.8052,0.2425,-1.540,-4.725,1.750,419,390,368,423,368,2025-05-27T23:04:30.393302
24697,-0.5270,0.8028,0.2518,-1.015,-5.040,1.750,303,387,380,372,395,2025-05-27T23:04:30.393302
24698,-0.5246,0.8062,0.2523,-1.225,-6.720,1.715,376,414,370,401,392,2025-05-27T23:04:30.393302
24699,-0.5251,0.8047,0.2523,-1.295,-8.155,1.715,374,400,340,410,358,2025-05-27T23:04:30.393302
24700,-0.5153,0.8052,0.2533,-1.330,-8.435,1.295,366,367,352,422,354,2025-05-27T23:04:30.393302
24701,-0.5080,0.8028,0.2479,-1.540,-8.015,1.365,294,411,370,411,387,2025-05-27T23:04:30.393302
24702,-0.5046,0.7974,0.2450,-1.400,-6.650,1.260,400,437,367,352,356,2025-05-27T23:04:30.393302
24703,-0.5031,0.7974,0.2464,-1.120,-5.670,0.770,378,429,380,399,368,2025-05-27T23:04:30.393302
24704,-0.5012,0.7998,0.2538,-0.840,-5.040,0.280,351,435,371,388,343,2025-05-27T23:04:30.393302
24705,-0.5051,0.7998,0.2601,-0.665,-4.970,0.140,397,423,386,391,385,2025-05-27T23:04:30.393302
24706,-0.5070,0.7915,0.2577,-0.560,-5.705,-0.140,394,434,383,388,406,2025-05-27T23:04:30.634600
24707,-0.5119,0.7842,0.2562,-0.490,-7.035,-0.805,379,412,346,411,389,2025-05-27T23:04:30.634600
24708,-0.5124,0.7730,0.2542,-0.070,-9.205,-1.645,381,423,366,426,389,2025-05-27T23:04:30.634600
24709,-0.5129,0.7681,0.2601,0.420,-12.390,-1.855,416,419,337,392,386,2025-05-27T23:04:30.634600
24710,-0.5026,0.7608,0.2625,0.455,-16.135,-2.240,433,392,371,406,387,2025-05-27T23:04:30.634600
24711,-0.5036,0.7554,0.2572,0.070,-19.460,-2.345,342,406,368,415,384,2025-05-27T23:04:30.634600
24712,-0.4953,0.7418,0.2489,0.000,-22.960,-3.430,389,418,375,397,380,2025-05-27T23:04:30.634600
24713,-0.4792,0.7349,0.2406,-0.035,-26.285,-4.585,341,399,378,413,389,2025-05-27T23:04:30.634600
24714,-0.4768,0.7213,0.2420,-0.315,-29.610,-5.600,401,343,342,350,404,2025-05-27T23:04:30.634600
24715,-0.4787,0.7091,0.2538,-0.315,-35.000,-7.140,395,387,356,358,393,2025-05-27T23:04:30.634600
24716,-0.4875,0.6974,0.2718,-1.190,-41.335,-9.450,397,388,374,390,411,2025-05-27T23:04:30.634600
24717,-0.4797,0.6773,0.2733,-1.470,-52.115,-10.885,422,425,369,389,405,2025-05-27T23:04:30.634600
24718,-0.4685,0.6832,0.2723,-1.085,-64.050,-13.545,418,431,359,382,406,2025-05-27T23:04:30.634600
24719,-0.4099,0.6988,0.2733,-1.890,-75.215,-17.710,423,417,367,408,373,2025-05-27T23:04:30.634600
24720,-0.3484,0.7193,0.2655,-2.800,-82.950,-22.715,419,405,371,417,381,2025-05-27T23:04:30.634600
24721,-0.2860,0.7862,0.2679,-4.235,-88.830,-28.420,399,411,382,396,343,2025-05-27T23:04:30.634600
24722,-0.1976,0.8847,0.2606,-6.895,-94.115,-34.440,419,426,375,399,392,2025-05-27T23:04:30.634600
24723,-0.1186,1.0590,0.2616,-10.430,-98.840,-39.340,404,439,366,394,391,2025-05-27T23:04:30.634600
24724,-0.0298,1.2556,0.2557,-15.820,-100.940,-47.215,404,422,385,417,385,2025-05-27T23:04:30.640548
24725,0.0356,1.6089,0.2518,-22.400,-105.420,-58.100,425,438,393,403,404,2025-05-27T23:04:30.640548
24726,0.0371,2.0262,0.2577,-31.955,-117.880,-67.550,428,429,375,349,384,2025-05-27T23:04:30.884863
24727,0.0195,2.4571,0.2664,-45.115,-147.490,-71.225,358,377,386,394,391,2025-05-27T23:04:30.884863
24728,-0.0429,2.7982,0.2611,-64.015,-191.065,-72.730,393,407,340,347,384,2025-05-27T23:04:30.884863
24729,-0.1249,3.0080,0.2123,-80.290,-247.310,-71.400,389,406,354,397,394,2025-05-27T23:04:30.884863
24730,-0.1606,3.1237,0.1078,-101.185,-313.145,-63.105,391,397,360,411,406,2025-05-27T23:04:30.884863
24731,-0.1142,3.1315,-0.0942,-118.790,-362.950,-48.265,421,401,363,349,391,2025-05-27T23:04:30.884863
24732,0.0146,3.0773,-0.3196,-134.400,-416.395,-37.555,416,359,360,397,403,2025-05-27T23:04:30.884863
24733,0.2704,2.9934,-0.5119,-146.860,-432.635,-29.260,411,406,380,369,387,2025-05-27T23:04:30.884863
24734,0.6793,2.8650,-0.7052,-159.705,-412.335,-26.845,396,364,370,354,406,2025-05-27T23:04:30.884863
24735,1.0243,2.6406,-0.7691,-174.720,-344.715,-41.020,390,409,366,383,399,2025-05-27T23:04:30.884863
24736,1.1497,2.3483,-0.7427,-208.985,-253.540,-78.540,386,418,384,383,402,2025-05-27T23:04:30.884863
24737,1.0380,1.7792,-0.7008,-233.660,-165.340,-116.165,400,422,391,396,418,2025-05-27T23:04:30.884863
24738,0.6188,0.9531,-0.5246,-278.040,-131.460,-169.260,390,365,380,370,410,2025-05-27T23:04:30.884863
24739,0.2655,-0.1210,-0.3802,-321.650,-148.260,-231.875,419,407,391,399,396,2025-05-27T23:04:30.884863
24740,0.0420,-1.5567,-0.0922,-368.830,-197.995,-271.915,386,433,388,399,395,2025-05-27T23:04:30.884863
24741,-0.1610,-3.5736,0.3304,-424.480,-243.460,-295.330,395,406,378,411,412,2025-05-27T23:04:30.884863
24742,0.0346,-5.9638,0.9579,-472.745,-236.320,-296.520,393,414,380,356,412,2025-05-27T23:04:30.884863
24743,-0.8345,-7.7289,1.6690,-455.770,-171.045,-221.095,423,429,367,329,398,2025-05-27T23:04:30.884863
24744,-1.4650,-7.1155,1.8627,-312.165,-127.610,-80.255,349,417,381,373,403,2025-05-27T23:04:30.884863
24745,-1.0507,-6.4518,0.8311,-48.790,-153.790,66.010,387,406,338,396,377,2025-05-27T23:04:31.068679
24746,0.3958,-4.9815,0.5207,292.180,-112.735,165.025,332,398,352,369,382,2025-05-27T23:04:31.068679
24747,1.6187,-3.2994,0.9135,375.970,105.805,207.340,367,394,372,358,346,2025-05-27T23:04:31.068679
24748,1.5206,-2.7001,0.6637,332.850,406.945,237.545,344,425,370,346,389,2025-05-27T23:04:31.068679
24749,0.8794,-2.2848,0.5329,269.010,507.430,264.285,403,410,375,403,409,2025-05-27T23:04:31.068679
24750,0.3831,-1.8339,0.4690,247.275,494.970,278.670,338,424,370,403,388,2025-05-27T23:04:31.068679
24751,0.2025,-1.0258,0.6032,230.125,394.520,259.735,358,358,376,401,394,2025-05-27T23:04:31.068679
24752,0.1464,-0.4304,0.7325,196.245,396.830,249.445,380,399,386,388,409,2025-05-27T23:04:31.068679
24753,-0.1342,0.0190,0.8179,179.655,416.605,230.650,402,377,372,352,397,2025-05-27T23:04:31.068679
24754,-0.3928,0.4338,0.9692,178.080,365.330,199.780,387,407,368,396,354,2025-05-27T23:04:31.068679
24755,-0.4597,0.7603,1.0077,186.655,262.885,184.030,375,408,344,370,390,2025-05-27T23:04:31.068679
24756,-0.3587,1.1048,0.9716,183.995,180.460,154.875,395,423,353,386,408,2025-05-27T23:04:31.068679
24757,-0.0961,1.3849,0.7725,176.085,156.345,127.540,417,429,353,385,396,2025-05-27T23:04:31.068679
24758,0.0337,1.6084,0.5544,172.095,146.580,104.510,372,429,357,383,403,2025-05-27T23:04:31.068679
24759,0.1488,1.8280,0.3826,158.515,142.275,90.125,390,416,333,400,364,2025-05-27T23:04:31.068679
24760,0.1825,1.9461,0.2591,136.675,143.465,81.970,354,418,323,408,397,2025-05-27T23:04:31.068679
24761,0.1210,1.9793,0.2181,115.605,145.775,70.420,404,437,349,414,366,2025-05-27T23:04:31.068679
24762,0.0171,1.8915,0.1762,102.025,129.535,59.465,421,416,332,410,383,2025-05-27T23:04:31.301262
24763,-0.1269,1.7202,0.1181,97.825,93.450,48.580,416,437,353,413,380,2025-05-27T23:04:31.301262
24764,-0.1074,1.6519,0.1220,96.705,49.035,42.035,423,425,369,412,357,2025-05-27T23:04:32.024838
24765,-0.0742,1.5518,0.1069,90.230,18.060,31.780,402,406,389,400,296,2025-05-27T23:04:32.024838
24766,0.0020,1.4440,0.0527,79.310,6.335,23.310,301,418,351,392,379,2025-05-27T23:04:32.025835
24767,0.0356,1.3713,-0.0171,72.625,2.555,18.235,393,411,379,410,383,2025-05-27T23:04:32.025835
24768,0.0649,1.2991,-0.0742,67.935,13.580,12.880,426,407,339,405,386,2025-05-27T23:04:32.025835
24769,0.0351,1.2459,-0.0961,60.655,31.535,10.115,426,420,338,307,395,2025-05-27T23:04:32.025835
24770,-0.0307,1.2073,-0.0766,53.025,49.595,9.275,410,402,368,383,410,2025-05-27T23:04:32.025835
24771,-0.1606,1.1361,-0.0473,42.630,56.700,8.190,411,425,370,387,406,2025-05-27T23:04:32.025835
24772,-0.2884,1.0580,-0.0054,34.125,51.940,8.015,421,405,376,372,409,2025-05-27T23:04:32.025835
24773,-0.3797,1.0219,0.0239,28.770,33.285,7.700,401,391,375,393,401,2025-05-27T23:04:32.025835
24774,-0.4426,0.9882,0.0649,23.660,11.305,6.125,411,407,383,386,420,2025-05-27T23:04:32.025835
24775,-0.4377,0.9521,0.0849,19.180,-5.950,5.460,414,430,389,393,401,2025-05-27T23:04:32.025835
24776,-0.3933,0.9213,0.1152,16.030,-15.645,5.180,397,415,374,355,405,2025-05-27T23:04:32.025835
24777,-0.3479,0.8872,0.1366,14.735,-15.995,4.340,419,402,384,378,377,2025-05-27T23:04:32.025835
24778,-0.3148,0.8721,0.1640,13.195,-7.490,2.030,390,422,380,391,344,2025-05-27T23:04:32.025835
24779,-0.2904,0.8652,0.1947,11.655,6.825,-0.210,416,369,367,379,328,2025-05-27T23:04:32.025835
24780,-0.3196,0.8447,0.2167,10.780,19.460,-2.100,422,366,369,344,374,2025-05-27T23:04:32.025835
24781,-0.3709,0.8394,0.2367,11.130,26.565,-3.010,410,415,338,398,389,2025-05-27T23:04:32.025835
24782,-0.4416,0.8438,0.2523,12.180,27.580,-4.445,413,341,357,387,380,2025-05-27T23:04:32.025835
24783,-0.4963,0.8481,0.2674,13.090,22.295,-4.200,430,335,328,341,402,2025-05-27T23:04:32.025835
24784,-0.5148,0.8530,0.2616,13.580,10.535,-3.010,387,387,352,338,346,2025-05-27T23:04:32.025835
24785,-0.5104,0.8657,0.2557,13.685,0.280,-4.165,298,410,328,392,393,2025-05-27T23:04:32.025835
24786,-0.4817,0.8716,0.2460,13.720,-4.515,-4.340,391,403,360,414,395,2025-05-27T23:04:32.025835
24787,-0.4534,0.8833,0.2420,13.160,-6.860,-4.410,392,353,374,414,348,2025-05-27T23:04:32.025835
24788,-0.4172,0.8994,0.2420,11.375,-5.915,-5.250,407,407,373,392,365,2025-05-27T23:04:32.025835
24789,-0.4060,0.9038,0.2342,9.240,1.645,-6.160,392,426,388,304,388,2025-05-27T23:04:32.025835
24790,-0.4148,0.8940,0.2303,7.210,10.780,-6.860,393,403,369,378,396,2025-05-27T23:04:32.025835
24791,-0.4485,0.8979,0.2333,5.985,16.135,-6.475,387,434,385,391,350,2025-05-27T23:04:32.025835
24792,-0.5085,0.8872,0.2420,4.305,16.800,-6.405,427,411,386,391,376,2025-05-27T23:04:32.025835
24793,-0.5392,0.8730,0.2367,2.695,12.950,-6.195,417,421,390,348,380,2025-05-27T23:04:32.025835
24794,-0.5807,0.8647,0.2528,2.590,3.605,-4.235,375,427,372,349,381,2025-05-27T23:04:32.025835
24795,-0.5758,0.8652,0.2460,2.275,-7.350,-2.345,410,440,383,367,392,2025-05-27T23:04:32.025835
24796,-0.5344,0.8613,0.2357,0.595,-14.735,-2.310,412,413,369,380,368,2025-05-27T23:04:32.026833
24797,-0.4963,0.8603,0.2338,-0.910,-17.045,-2.695,403,420,381,379,385,2025-05-27T23:04:32.026833
24798,-0.4538,0.8350,0.2162,-1.785,-16.835,-1.785,393,413,388,385,388,2025-05-27T23:04:32.026833
24799,-0.4407,0.8252,0.1957,-1.400,-12.565,-0.035,340,411,381,387,409,2025-05-27T23:04:32.026833
24800,-0.4529,0.8384,0.2094,-1.960,-0.910,-0.245,404,406,343,383,350,2025-05-27T23:04:32.026833
24801,-0.4616,0.8335,0.2098,-5.110,8.785,0.140,412,378,357,378,353,2025-05-27T23:04:32.026833
24802,-0.4817,0.8252,0.2074,-6.860,11.550,0.140,387,413,377,388,335,2025-05-27T23:04:32.026833
24803,-0.4934,0.8291,0.2191,-7.560,12.180,-1.575,415,425,385,382,383,2025-05-27T23:04:32.026833
24804,-0.5144,0.7871,0.1850,-9.030,11.375,-2.555,414,438,379,380,395,2025-05-27T23:04:32.026833
24805,-0.5534,0.7871,0.2108,-8.365,7.490,-3.605,394,407,386,393,390,2025-05-27T23:04:32.026833
24806,-0.5446,0.7896,0.2289,-8.540,0.805,-4.900,416,403,368,413,400,2025-05-27T23:04:32.026833
24807,-0.5270,0.7906,0.2347,-10.255,-2.940,-6.265,416,299,364,424,357,2025-05-27T23:04:32.026833
24808,-0.5100,0.7740,0.2255,-10.745,-2.765,-7.455,414,400,303,351,330,2025-05-27T23:04:32.026833
24809,-0.5095,0.7554,0.2211,-8.505,-1.330,-7.875,436,375,304,387,374,2025-05-27T23:04:32.026833
24810,-0.5139,0.7662,0.2430,-6.160,1.785,-8.505,416,341,336,396,383,2025-05-27T23:04:32.026833
24811,-0.5280,0.7808,0.2767,-6.755,5.985,-9.275,418,346,370,416,351,2025-05-27T23:04:32.026833
24812,-0.5514,0.7730,0.2752,-7.665,7.175,-9.065,429,393,365,391,369,2025-05-27T23:04:32.027325
24813,-0.5710,0.7530,0.2606,-5.635,6.755,-8.085,423,385,333,390,393,2025-05-27T23:04:32.027325
24814,-0.5856,0.7623,0.2679,-2.555,8.715,-7.700,422,349,365,385,394,2025-05-27T23:04:32.027325
24815,-0.5802,0.7823,0.2772,-1.855,9.765,-7.210,377,373,377,398,354,2025-05-27T23:04:32.027325
24816,-0.5783,0.7828,0.2752,-2.170,9.240,-5.705,368,376,375,382,390,2025-05-27T23:04:32.027325
24817,-0.5778,0.7798,0.2621,-1.260,9.940,-4.725,391,399,363,382,385,2025-05-27T23:04:32.027325
24818,-0.5783,0.7920,0.2664,-0.070,11.200,-4.550,399,412,380,362,360,2025-05-27T23:04:32.027325
24819,-0.5700,0.8028,0.2679,-0.735,10.780,-3.780,363,342,386,401,395,2025-05-27T23:04:32.027325
24820,-0.5763,0.8052,0.2611,-1.015,9.870,-2.520,378,390,383,397,405,2025-05-27T23:04:32.027325
24821,-0.5783,0.8086,0.2479,-0.980,9.485,-2.170,385,401,386,375,410,2025-05-27T23:04:32.027325
24822,-0.5734,0.8135,0.2542,-0.770,7.805,-1.890,418,404,359,406,317,2025-05-27T23:04:32.027325
24823,-0.5846,0.8140,0.2503,-0.630,5.985,-1.505,338,400,381,380,385,2025-05-27T23:04:32.027325
24824,-0.5778,0.8198,0.2508,-0.560,3.360,-0.420,375,397,385,398,362,2025-05-27T23:04:32.027325
24825,-0.5744,0.8184,0.2420,-0.875,0.805,0.105,353,410,383,392,388,2025-05-27T23:04:32.027325
24826,-0.5597,0.8198,0.2391,-0.595,-0.945,0.315,330,416,389,390,404,2025-05-27T23:04:32.027325
24827,-0.5485,0.8233,0.2420,-0.630,-1.260,0.630,403,424,350,352,350,2025-05-27T23:04:32.027325
24828,-0.5383,0.8189,0.2362,-1.610,-0.630,0.665,416,428,363,395,393,2025-05-27T23:04:32.027325
24829,-0.5236,0.8233,0.2391,-2.310,0.700,1.680,419,393,380,412,363,2025-05-27T23:04:32.027325
24830,-0.5290,0.8179,0.2347,-3.255,2.905,2.100,413,417,373,413,392,2025-05-27T23:04:32.032907
24831,-0.5305,0.8125,0.2298,-3.990,5.215,2.135,422,411,383,390,402,2025-05-27T23:04:32.032907
24832,-0.5392,0.8106,0.2313,-4.375,6.510,2.345,379,410,388,400,367,2025-05-27T23:04:32.032907
24833,-0.5436,0.8067,0.2328,-4.830,7.070,2.590,412,404,374,388,340,2025-05-27T23:04:32.032907
24834,-0.5500,0.7984,0.2289,-5.180,6.055,3.045,355,394,385,412,388,2025-05-27T23:04:32.032907
24835,-0.5627,0.7954,0.2347,-4.760,4.130,2.940,412,398,387,391,381,2025-05-27T23:04:32.032907
24836,-0.5656,0.7935,0.2338,-4.690,1.715,2.240,404,423,380,347,381,2025-05-27T23:04:32.032907
24837,-0.5529,0.7959,0.2386,-5.250,-1.120,2.275,416,433,378,381,388,2025-05-27T23:04:32.032907
24838,-0.5368,0.7901,0.2269,-5.845,-1.015,2.275,353,394,387,399,405,2025-05-27T23:04:32.032907
24839,-0.5261,0.7871,0.2274,-5.775,1.680,1.995,387,417,383,395,394,2025-05-27T23:04:32.032907
24840,-0.5270,0.7857,0.2274,-5.845,4.165,1.750,404,382,357,392,393,2025-05-27T23:04:32.032907
24841,-0.5348,0.7862,0.2308,-6.300,5.215,1.750,397,337,373,408,353,2025-05-27T23:04:32.032907
24842,-0.5427,0.7857,0.2352,-6.510,5.670,1.960,393,400,375,397,395,2025-05-27T23:04:32.277193
24843,-0.5436,0.7808,0.2342,-6.755,6.090,1.610,334,428,350,369,397,2025-05-27T23:04:32.277193
24844,-0.5466,0.7740,0.2328,-6.405,5.320,1.400,400,359,353,379,398,2025-05-27T23:04:32.277193
24845,-0.5524,0.7745,0.2328,-5.845,3.815,1.330,396,393,367,382,397,2025-05-27T23:04:32.277193
24846,-0.5446,0.7740,0.2391,-5.635,1.995,0.875,410,426,372,343,386,2025-05-27T23:04:32.277193
24847,-0.5417,0.7745,0.2328,-5.145,1.085,0.315,422,427,365,374,365,2025-05-27T23:04:32.277193
24848,-0.5309,0.7769,0.2323,-4.830,2.065,-0.840,418,420,379,380,402,2025-05-27T23:04:32.277193
24849,-0.5363,0.7710,0.2328,-4.025,2.695,-1.855,395,424,372,413,411,2025-05-27T23:04:32.277193
24850,-0.5436,0.7774,0.2377,-3.430,3.255,-2.450,406,425,371,392,401,2025-05-27T23:04:32.277193
24851,-0.5461,0.7803,0.2357,-3.640,3.290,-2.660,417,396,373,408,360,2025-05-27T23:04:32.277193
24852,-0.5480,0.7852,0.2372,-3.885,3.745,-2.590,429,419,372,364,377,2025-05-27T23:04:32.277193
24853,-0.5480,0.7828,0.2381,-4.025,4.865,-3.045,413,402,382,398,406,2025-05-27T23:04:32.277193
24854,-0.5592,0.7832,0.2367,-4.025,5.635,-3.465,398,366,384,352,366,2025-05-27T23:04:32.277193
24855,-0.5714,0.7852,0.2420,-4.200,5.600,-3.430,419,406,384,391,376,2025-05-27T23:04:32.277193
24856,-0.5768,0.7852,0.2445,-4.060,4.025,-3.185,401,415,393,397,383,2025-05-27T23:04:32.277193
24857,-0.5841,0.7823,0.2455,-3.955,2.450,-3.290,416,427,372,395,386,2025-05-27T23:04:32.277193
24858,-0.5783,0.7847,0.2484,-3.815,1.505,-3.290,427,340,371,390,400,2025-05-27T23:04:32.277193
24859,-0.5783,0.7837,0.2508,-3.920,0.630,-3.360,353,401,385,391,394,2025-05-27T23:04:32.277193
24860,-0.5763,0.7788,0.2499,-3.675,0.105,-3.150,367,398,346,394,312,2025-05-27T23:04:32.277193
24861,-0.5700,0.7828,0.2460,-2.905,0.000,-2.835,374,424,332,362,372,2025-05-27T23:04:32.277193
24862,-0.5671,0.7808,0.2430,-2.485,0.945,-2.730,391,389,365,413,393,2025-05-27T23:04:32.436675
24863,-0.5656,0.7832,0.2416,-2.625,1.785,-2.765,406,403,382,355,401,2025-05-27T23:04:32.436675
24864,-0.5719,0.7871,0.2416,-2.485,2.205,-2.800,420,297,380,400,404,2025-05-27T23:04:32.436675
24865,-0.5768,0.7852,0.2323,-2.415,1.855,-2.905,418,345,373,388,411,2025-05-27T23:04:32.436675
24866,-0.5807,0.7837,0.2347,-2.520,0.875,-3.045,401,401,376,411,392,2025-05-27T23:04:32.436675
24867,-0.5788,0.7871,0.2386,-2.555,0.105,-3.290,422,425,371,410,408,2025-05-27T23:04:32.436675
24868,-0.5719,0.7871,0.2357,-2.905,-0.525,-2.870,407,414,375,387,397,2025-05-27T23:04:32.436675
24869,-0.5695,0.7847,0.2323,-3.255,-0.385,-2.135,421,417,381,404,415,2025-05-27T23:04:32.436675
24870,-0.5685,0.7823,0.2289,-3.325,0.490,-2.485,392,400,379,385,392,2025-05-27T23:04:32.436675
24871,-0.5675,0.7876,0.2318,-3.395,1.575,-2.450,405,408,373,399,411,2025-05-27T23:04:32.436675
24872,-0.5754,0.7837,0.2357,-3.920,1.715,-1.960,390,435,377,413,412,2025-05-27T23:04:32.436675
24873,-0.5793,0.7764,0.2318,-4.375,1.120,-1.925,352,389,384,399,409,2025-05-27T23:04:32.436675
24874,-0.5763,0.7764,0.2333,-4.340,0.420,-1.995,382,421,382,421,393,2025-05-27T23:04:32.436675
24875,-0.5861,0.7706,0.2323,-4.375,-0.385,-2.135,421,424,375,410,385,2025-05-27T23:04:32.436675
24876,-0.5744,0.7696,0.2323,-4.515,-1.400,-1.995,405,416,381,396,393,2025-05-27T23:04:32.668698
24877,-0.5705,0.7681,0.2328,-4.305,-1.260,-2.345,404,411,382,423,402,2025-05-27T23:04:32.668698
24878,-0.5671,0.7710,0.2367,-4.200,0.140,-2.485,364,402,391,414,409,2025-05-27T23:04:32.668698
24879,-0.5592,0.7681,0.2362,-4.620,0.980,-2.520,396,404,356,401,399,2025-05-27T23:04:32.668698
24880,-0.5680,0.7666,0.2347,-4.480,2.170,-2.240,401,342,331,402,397,2025-05-27T23:04:32.668698
24881,-0.5675,0.7657,0.2367,-4.060,3.430,-2.520,410,352,365,390,407,2025-05-27T23:04:32.668698
24882,-0.5754,0.7647,0.2391,-3.920,4.305,-3.115,418,389,379,391,384,2025-05-27T23:04:32.668698
24883,-0.5827,0.7710,0.2479,-3.605,3.675,-2.975,431,403,374,347,341,2025-05-27T23:04:32.668698
24884,-0.5817,0.7623,0.2420,-3.780,2.345,-2.940,431,419,337,382,388,2025-05-27T23:04:32.668698
24885,-0.5846,0.7564,0.2347,-3.465,0.945,-3.255,372,353,352,403,384,2025-05-27T23:04:32.668698
24886,-0.5758,0.7618,0.2357,-2.765,0.455,-3.360,370,413,378,409,399,2025-05-27T23:04:32.668698
24887,-0.5710,0.7593,0.2323,-2.415,0.735,-3.360,402,428,385,408,368,2025-05-27T23:04:32.668698
24888,-0.5695,0.7632,0.2338,-2.590,1.855,-3.640,419,433,389,404,387,2025-05-27T23:04:32.668698
24889,-0.5729,0.7637,0.2352,-2.555,2.975,-3.605,404,413,387,404,399,2025-05-27T23:04:32.668698
24890,-0.5758,0.7681,0.2377,-2.905,3.185,-3.360,424,367,378,403,399,2025-05-27T23:04:32.682983
24891,-0.5807,0.7613,0.2303,-3.220,3.290,-3.255,424,367,369,403,411,2025-05-27T23:04:32.682983
24892,-0.5802,0.7666,0.2338,-2.730,3.675,-3.220,342,385,374,414,378,2025-05-27T23:04:32.682983
24893,-0.5817,0.7652,0.2357,-2.555,3.920,-3.290,365,389,371,405,403,2025-05-27T23:04:32.682983
24894,-0.5876,0.7627,0.2406,-2.695,3.990,-3.780,412,401,380,398,360,2025-05-27T23:04:32.682983
24895,-0.5988,0.7618,0.2464,-2.275,3.710,-3.990,417,401,367,391,373,2025-05-27T23:04:32.683810
24896,-0.6061,0.7603,0.2513,-1.855,2.170,-4.060,342,400,302,384,388,2025-05-27T23:04:32.849687
24897,-0.6095,0.7579,0.2464,-1.715,0.420,-4.025,406,369,350,406,412,2025-05-27T23:04:32.849687
24898,-0.6002,0.7593,0.2460,-0.910,-0.105,-3.395,421,390,330,392,376,2025-05-27T23:04:32.849943
24899,-0.6037,0.7584,0.2484,-0.245,0.525,-3.290,429,396,365,412,362,2025-05-27T23:04:32.850018
24900,-0.5998,0.7623,0.2508,-0.140,1.260,-3.325,404,401,370,417,397,2025-05-27T23:04:32.850018
24901,-0.6037,0.7637,0.2494,-0.035,1.750,-3.220,411,421,364,406,405,2025-05-27T23:04:32.850130
24902,-0.6066,0.7637,0.2474,-0.070,2.135,-2.975,428,384,337,394,411,2025-05-27T23:04:32.850130
24903,-0.6090,0.7691,0.2469,-0.315,1.715,-2.485,416,415,359,388,422,2025-05-27T23:04:32.850130
24904,-0.6139,0.7652,0.2420,-0.770,0.945,-2.555,305,388,363,381,417,2025-05-27T23:04:32.850130
24905,-0.6159,0.7642,0.2381,-1.120,-0.035,-2.310,366,432,349,380,374,2025-05-27T23:04:32.850130
24906,-0.6256,0.7564,0.2338,-0.875,-1.435,-2.170,383,427,362,411,395,2025-05-27T23:04:32.850130
24907,-0.6183,0.7579,0.2279,-0.525,-2.730,-2.415,390,415,377,397,389,2025-05-27T23:04:32.850130
24908,-0.6139,0.7627,0.2333,-0.665,-3.115,-2.380,411,427,367,388,370,2025-05-27T23:04:32.850130
24909,-0.6105,0.7637,0.2357,-1.050,-3.150,-2.030,420,396,381,396,399,2025-05-27T23:04:32.850130
24910,-0.6163,0.7574,0.2240,-1.085,-3.045,-2.030,400,424,383,401,414,2025-05-27T23:04:32.850130
24911,-0.6105,0.7588,0.2220,-0.420,-2.800,-1.435,403,423,382,399,405,2025-05-27T23:04:33.118272
24912,-0.6120,0.7608,0.2245,-0.105,-1.855,-1.015,397,416,387,391,387,2025-05-27T23:04:33.118272
24913,-0.6100,0.7637,0.2220,-0.350,-0.805,-0.840,399,339,339,401,401,2025-05-27T23:04:33.118272
24914,-0.6144,0.7632,0.2220,-0.525,-0.315,-0.770,401,327,349,401,392,2025-05-27T23:04:33.497675
24915,-0.6217,0.7598,0.2216,-0.455,-1.400,-0.560,395,395,358,370,366,2025-05-27T23:04:33.497675
24916,-0.6202,0.7618,0.2284,-0.035,-2.765,-0.315,391,384,376,399,338,2025-05-27T23:04:33.497675
24917,-0.6139,0.7627,0.2289,-0.350,-3.850,-0.385,411,410,348,398,393,2025-05-27T23:04:33.497675
24918,-0.6037,0.7647,0.2245,-0.805,-3.850,-0.350,422,402,364,402,386,2025-05-27T23:04:33.497675
24919,-0.6085,0.7613,0.2235,-1.085,-3.395,-0.805,428,382,380,396,349,2025-05-27T23:04:33.498062
24920,-0.6090,0.7632,0.2225,-1.190,-3.570,-1.085,342,389,367,402,370,2025-05-27T23:04:33.498062
24921,-0.6129,0.7627,0.2230,-1.295,-4.095,-0.630,391,426,392,406,395,2025-05-27T23:04:33.498062
24922,-0.6149,0.7613,0.2264,-1.470,-3.745,0.175,390,404,390,405,383,2025-05-27T23:04:33.498062
24923,-0.6271,0.7603,0.2167,-1.645,-3.535,-0.175,397,412,349,386,382,2025-05-27T23:04:33.498062
24924,-0.6198,0.7608,0.2303,-1.925,-3.360,0.385,420,438,368,365,402,2025-05-27T23:04:33.498062
24925,-0.6232,0.7549,0.2308,-2.170,-3.710,0.770,386,432,341,390,411,2025-05-27T23:04:33.498062
24926,-0.6242,0.7530,0.2298,-2.100,-3.745,0.840,404,407,322,351,389,2025-05-27T23:04:33.498062
24927,-0.6149,0.7564,0.2352,-1.610,-3.745,1.505,414,411,350,394,394,2025-05-27T23:04:33.498062
24928,-0.6124,0.7569,0.2362,-1.750,-3.430,2.240,299,411,366,391,346,2025-05-27T23:04:33.498062
24929,-0.6105,0.7544,0.2342,-1.680,-2.100,2.555,391,437,379,387,385,2025-05-27T23:04:33.498062
24930,-0.6163,0.7564,0.2386,-1.190,-1.505,2.730,339,395,378,385,404,2025-05-27T23:04:33.498062
24931,-0.6188,0.7574,0.2406,-1.120,-2.520,2.975,361,423,369,395,389,2025-05-27T23:04:33.498062
24932,-0.6163,0.7559,0.2377,-1.260,-4.550,3.045,333,404,334,412,394,2025-05-27T23:04:33.498062
24933,-0.6027,0.7618,0.2362,-0.840,-5.565,3.255,325,418,288,410,406,2025-05-27T23:04:33.498062
24934,-0.5934,0.7627,0.2342,-0.770,-5.460,3.185,404,374,343,400,403,2025-05-27T23:04:33.498062
24935,-0.5861,0.7652,0.2323,-0.770,-4.410,2.975,423,401,350,366,406,2025-05-27T23:04:33.498062
24936,-0.5876,0.7584,0.2318,-0.630,-3.220,2.940,433,427,374,404,353,2025-05-27T23:04:33.498062
24937,-0.5924,0.7588,0.2333,-0.735,-2.310,3.045,396,377,373,405,368,2025-05-27T23:04:33.498062
24938,-0.5988,0.7564,0.2328,-0.770,-2.310,3.150,348,406,353,418,379,2025-05-27T23:04:33.498062
24939,-0.5978,0.7559,0.2328,-0.735,-2.030,3.185,375,412,377,417,389,2025-05-27T23:04:33.498062
24940,-0.6002,0.7535,0.2333,-0.770,-1.785,3.045,333,418,366,399,399,2025-05-27T23:04:33.498062
24941,-0.6056,0.7554,0.2357,-1.015,-2.380,3.360,383,417,364,420,366,2025-05-27T23:04:33.498062
24942,-0.6100,0.7540,0.2323,-1.050,-3.465,3.885,364,391,378,402,387,2025-05-27T23:04:33.498062
24943,-0.6100,0.7530,0.2294,-1.015,-3.675,4.340,376,373,379,413,382,2025-05-27T23:04:33.498062
24944,-0.6071,0.7535,0.2289,-0.945,-3.045,4.585,344,401,376,398,382,2025-05-27T23:04:33.498062
24945,-0.6022,0.7540,0.2259,-0.875,-2.065,4.865,398,357,377,400,388,2025-05-27T23:04:33.498062
24946,-0.6095,0.7525,0.2289,-0.770,-0.910,5.145,396,351,387,400,350,2025-05-27T23:04:33.498062
24947,-0.6139,0.7520,0.2328,-0.770,-0.385,5.285,392,421,388,403,327,2025-05-27T23:04:33.498062
24948,-0.6168,0.7535,0.2357,-0.525,-0.980,5.600,384,400,383,395,380,2025-05-27T23:04:33.498062
24949,-0.6061,0.7525,0.2342,-0.420,-1.470,5.670,357,390,391,418,393,2025-05-27T23:04:33.498062
24950,-0.6032,0.7544,0.2357,-0.525,-1.610,5.495,401,419,382,425,386,2025-05-27T23:04:33.498062
24951,-0.5939,0.7564,0.2357,-0.840,-1.680,5.145,398,430,361,420,400,2025-05-27T23:04:33.597945
24952,-0.5934,0.7540,0.2328,-0.945,-1.855,5.355,407,426,368,419,409,2025-05-27T23:04:33.597945
24953,-0.5934,0.7520,0.2342,-0.420,-2.415,5.565,395,401,366,396,353,2025-05-27T23:04:33.597945
24954,-0.5954,0.7540,0.2381,-0.385,-2.870,5.110,397,400,301,404,400,2025-05-27T23:04:33.598881
24955,-0.5876,0.7530,0.2406,-0.350,-3.395,4.900,374,400,338,416,404,2025-05-27T23:04:33.598881
24956,-0.5836,0.7505,0.2323,0.210,-3.780,4.935,400,374,365,425,410,2025-05-27T23:04:33.598881
24957,-0.5793,0.7574,0.2357,0.875,-3.430,4.305,397,330,330,412,370,2025-05-27T23:04:33.598881
24958,-0.5783,0.7632,0.2367,1.015,-2.450,3.815,416,338,317,396,383,2025-05-27T23:04:33.598881
24959,-0.5783,0.7632,0.2386,0.735,-2.380,3.745,417,377,355,395,389,2025-05-27T23:04:33.599883
24960,-0.5836,0.7603,0.2352,1.085,-3.080,3.290,408,394,360,391,395,2025-05-27T23:04:33.600290
24961,-0.5827,0.7662,0.2381,1.225,-3.780,3.290,397,394,365,406,410,2025-05-27T23:04:33.600290
24962,-0.5797,0.7642,0.2328,1.190,-3.990,3.325,300,384,348,372,396,2025-05-27T23:04:33.600290
24963,-0.5807,0.7642,0.2308,1.645,-3.640,3.220,368,373,371,394,365,2025-05-27T23:04:33.600290
24964,-0.5749,0.7691,0.2333,1.855,-3.185,2.905,410,420,370,392,350,2025-05-27T23:04:33.600290
24965,-0.5778,0.7676,0.2367,1.435,-2.520,2.870,346,423,374,410,389,2025-05-27T23:04:33.600290
24966,-0.5802,0.7701,0.2357,0.910,-2.205,2.905,384,435,377,409,388,2025-05-27T23:04:33.601292
24967,-0.5812,0.7681,0.2303,0.910,-2.275,2.975,414,410,384,414,362,2025-05-27T23:04:33.601292
24968,-0.5797,0.7725,0.2352,0.980,-2.310,3.045,422,399,369,392,392,2025-05-27T23:04:33.601292
24969,-0.5788,0.7754,0.2347,0.910,-2.240,2.800,426,394,382,361,401,2025-05-27T23:04:33.601292
24970,-0.5871,0.7769,0.2323,0.280,-2.485,2.240,392,425,378,397,395,2025-05-27T23:04:33.601292
24971,-0.5817,0.7774,0.2318,0.035,-2.975,2.415,388,404,342,388,397,2025-05-27T23:04:33.601292
24972,-0.5827,0.7754,0.2279,0.105,-3.360,2.310,381,414,370,408,392,2025-05-27T23:04:33.738397
24973,-0.5807,0.7764,0.2323,0.070,-3.675,2.170,429,430,339,403,343,2025-05-27T23:04:33.738397
24974,-0.5846,0.7735,0.2386,-0.070,-3.850,1.785,405,433,359,393,367,2025-05-27T23:04:33.738397
24975,-0.5773,0.7749,0.2377,-0.210,-4.025,1.575,391,421,358,412,391,2025-05-27T23:04:33.738397
24976,-0.5812,0.7759,0.2401,-0.280,-4.235,1.505,427,430,365,413,400,2025-05-27T23:04:33.750250
24977,-0.5768,0.7759,0.2401,-0.630,-4.340,1.330,417,422,367,403,405,2025-05-27T23:04:33.750250
24978,-0.5788,0.7715,0.2406,-0.630,-4.900,1.050,390,404,387,403,393,2025-05-27T23:04:33.750250
24979,-0.5724,0.7754,0.2435,-0.140,-5.075,1.085,412,404,349,409,407,2025-05-27T23:04:33.750250
24980,-0.5724,0.7759,0.2425,0.175,-4.655,0.700,426,427,328,423,386,2025-05-27T23:04:33.750250
24981,-0.5724,0.7774,0.2420,0.070,-4.130,0.770,394,427,359,414,384,2025-05-27T23:04:33.750250
24982,-0.5812,0.7779,0.2440,0.245,-3.920,1.050,416,430,376,373,383,2025-05-27T23:04:33.751143
24983,-0.5866,0.7769,0.2430,0.140,-4.620,1.120,395,428,383,393,400,2025-05-27T23:04:33.751143
24984,-0.5871,0.7754,0.2435,0.420,-5.145,1.190,393,407,374,411,409,2025-05-27T23:04:33.751143
24985,-0.5856,0.7769,0.2425,1.015,-5.670,1.295,414,406,376,410,405,2025-05-27T23:04:33.751143
24986,-0.5788,0.7774,0.2416,1.190,-5.880,1.225,426,399,383,412,352,2025-05-27T23:04:33.981246
24987,-0.5768,0.7813,0.2469,0.840,-5.880,1.155,420,409,383,346,291,2025-05-27T23:04:33.981246
24988,-0.5802,0.7793,0.2425,0.595,-5.915,1.365,427,419,373,399,369,2025-05-27T23:04:33.981246
24989,-0.5783,0.7749,0.2381,0.700,-6.125,1.680,404,414,395,388,363,2025-05-27T23:04:33.981246
24990,-0.5749,0.7779,0.2396,0.840,-6.405,1.680,413,415,391,402,406,2025-05-27T23:04:33.981246
24991,-0.5700,0.7803,0.2435,0.595,-6.055,1.750,430,402,396,420,397,2025-05-27T23:04:33.981246
24992,-0.5641,0.7779,0.2396,0.315,-5.985,1.995,342,419,396,399,395,2025-05-27T23:04:33.982357
24993,-0.5632,0.7754,0.2391,0.630,-5.845,2.135,322,431,379,344,345,2025-05-27T23:04:33.982357
24994,-0.5578,0.7798,0.2455,0.805,-5.495,1.995,385,348,376,290,382,2025-05-27T23:04:33.983031
24995,-0.5563,0.7813,0.2435,0.455,-5.075,1.715,405,408,384,363,390,2025-05-27T23:04:33.983173
24996,-0.5553,0.7759,0.2430,0.420,-5.075,1.365,415,413,388,410,410,2025-05-27T23:04:33.983173
24997,-0.5573,0.7745,0.2420,0.980,-5.390,0.980,402,425,378,398,409,2025-05-27T23:04:33.983173
24998,-0.5588,0.7754,0.2499,1.400,-5.670,0.455,409,433,369,398,360,2025-05-27T23:04:33.983173
24999,-0.5553,0.7764,0.2484,1.365,-6.335,0.420,408,359,378,403,374,2025-05-27T23:04:33.983412
25000,-0.5568,0.7720,0.2425,1.715,-6.370,0.350,425,385,383,394,404,2025-05-27T23:04:33.983412
25001,-0.5544,0.7710,0.2420,2.380,-5.565,0.245,303,399,373,407,411,2025-05-27T23:04:33.983802
25002,-0.5544,0.7730,0.2406,2.660,-4.480,0.350,319,392,371,393,392,2025-05-27T23:04:34.151047
25003,-0.5607,0.7749,0.2445,2.555,-3.710,0.385,411,398,369,385,401,2025-05-27T23:04:34.151047
25004,-0.5656,0.7754,0.2450,2.555,-2.835,0.595,410,421,362,405,387,2025-05-27T23:04:34.151047
25005,-0.5754,0.7725,0.2416,2.695,-3.115,0.665,407,414,383,411,384,2025-05-27T23:04:34.151047
25006,-0.5763,0.7710,0.2396,2.905,-3.920,0.490,429,430,372,423,343,2025-05-27T23:04:34.151047
25007,-0.5671,0.7759,0.2391,3.150,-4.130,0.630,402,430,374,395,381,2025-05-27T23:04:34.151047
25008,-0.5671,0.7749,0.2372,3.185,-3.955,0.840,417,348,385,413,382,2025-05-27T23:04:34.151047
25009,-0.5641,0.7701,0.2357,3.850,-3.990,0.980,404,388,377,411,401,2025-05-27T23:04:34.151047
25010,-0.5671,0.7730,0.2367,4.515,-3.850,0.665,421,420,374,403,347,2025-05-27T23:04:34.151047
25011,-0.5641,0.7823,0.2406,4.200,-4.025,0.245,409,399,380,411,370,2025-05-27T23:04:34.151047
25012,-0.5602,0.7788,0.2313,3.920,-4.270,0.035,408,361,368,401,379,2025-05-27T23:04:34.151047
25013,-0.5578,0.7823,0.2294,3.745,-4.410,-0.175,401,377,337,406,401,2025-05-27T23:04:34.151047
25014,-0.5568,0.7867,0.2298,3.185,-3.710,-0.490,419,391,359,402,397,2025-05-27T23:04:34.151047
25015,-0.5519,0.7891,0.2264,2.660,-3.080,-0.735,430,409,379,399,409,2025-05-27T23:04:34.151047
25016,-0.5563,0.7832,0.2230,2.660,-2.625,-1.015,393,423,366,408,413,2025-05-27T23:04:34.151047
25017,-0.5636,0.7891,0.2259,2.730,-2.100,-1.575,410,415,375,411,408,2025-05-27T23:04:34.151047
25018,-0.5700,0.7910,0.2308,2.310,-2.485,-1.750,372,350,373,403,353,2025-05-27T23:04:34.151047
25019,-0.5739,0.7910,0.2323,1.925,-3.710,-1.400,406,385,379,384,333,2025-05-27T23:04:34.151047
25020,-0.5773,0.7910,0.2362,1.680,-4.445,-1.295,402,342,343,377,376,2025-05-27T23:04:34.151047
25021,-0.5749,0.7891,0.2381,1.155,-4.270,-0.875,355,402,325,404,361,2025-05-27T23:04:34.408840
25022,-0.5719,0.7881,0.2342,0.735,-4.305,-0.245,397,389,348,410,394,2025-05-27T23:04:34.408840
25023,-0.5729,0.7867,0.2342,0.875,-3.745,0.245,393,421,370,425,401,2025-05-27T23:04:34.408840
25024,-0.5749,0.7881,0.2318,1.120,-3.010,0.595,407,403,360,407,392,2025-05-27T23:04:34.408840
25025,-0.5739,0.7886,0.2328,1.435,-2.835,0.945,355,410,380,412,364,2025-05-27T23:04:34.408840
25026,-0.5739,0.7891,0.2333,1.575,-2.765,1.190,407,411,383,394,394,2025-05-27T23:04:34.408840
25027,-0.5749,0.7896,0.2313,1.960,-2.450,1.470,394,431,371,405,342,2025-05-27T23:04:34.408840
25028,-0.5734,0.7915,0.2313,1.995,-2.485,1.575,426,360,380,378,395,2025-05-27T23:04:34.408840
25029,-0.5754,0.7915,0.2323,1.715,-3.045,1.435,412,392,382,397,344,2025-05-27T23:04:34.408840
25030,-0.5763,0.7901,0.2279,1.435,-3.780,1.295,400,411,382,391,374,2025-05-27T23:04:34.408840
25031,-0.5734,0.7896,0.2259,1.155,-4.235,1.715,406,412,354,359,396,2025-05-27T23:04:34.408840
25032,-0.5714,0.7862,0.2201,0.630,-4.235,1.610,419,405,361,378,410,2025-05-27T23:04:34.408840
25033,-0.5661,0.7915,0.2259,0.035,-3.675,1.575,421,413,374,406,412,2025-05-27T23:04:34.408840
25034,-0.5636,0.7867,0.2220,-0.350,-3.150,1.715,426,435,334,362,352,2025-05-27T23:04:34.408840
25035,-0.5641,0.7837,0.2255,-0.560,-2.835,1.435,411,396,334,402,340,2025-05-27T23:04:34.408840
25036,-0.5675,0.7808,0.2298,-0.630,-2.625,1.505,388,357,354,346,336,2025-05-27T23:04:34.408840
25037,-0.5612,0.7769,0.2303,-0.770,-2.800,1.715,337,409,364,392,383,2025-05-27T23:04:34.408840
25038,-0.5597,0.7774,0.2318,-0.875,-2.800,1.575,399,341,373,407,397,2025-05-27T23:04:34.408840
25039,-0.5597,0.7759,0.2308,-0.630,-2.345,1.155,401,410,372,311,397,2025-05-27T23:04:34.408840
25040,-0.5597,0.7823,0.2362,-0.350,-2.450,0.805,395,427,381,387,402,2025-05-27T23:04:34.408840
25041,-0.5592,0.7798,0.2338,-0.175,-2.730,0.385,419,426,397,404,412,2025-05-27T23:04:34.551541
25042,-0.5632,0.7779,0.2308,0.490,-2.975,-0.140,384,422,391,402,408,2025-05-27T23:04:34.551541
25043,-0.5617,0.7788,0.2298,1.260,-3.290,-0.350,396,430,396,406,398,2025-05-27T23:04:34.551541
25044,-0.5583,0.7813,0.2303,1.260,-3.395,-0.560,358,418,391,392,399,2025-05-27T23:04:34.551541
25045,-0.5588,0.7813,0.2318,0.735,-2.555,-0.350,398,416,361,415,391,2025-05-27T23:04:34.551541
25046,-0.5612,0.7779,0.2264,0.525,-1.610,-0.175,424,365,362,379,383,2025-05-27T23:04:34.551541
25047,-0.5695,0.7754,0.2245,0.840,-1.330,-0.140,400,415,378,401,386,2025-05-27T23:04:34.551541
25048,-0.5783,0.7774,0.2269,1.015,-1.680,-0.210,407,417,367,402,384,2025-05-27T23:04:34.551541
25049,-0.5783,0.7842,0.2298,0.840,-2.240,-0.245,422,426,370,397,393,2025-05-27T23:04:34.551541
25050,-0.5793,0.7798,0.2279,0.455,-2.905,-0.455,422,413,367,399,399,2025-05-27T23:04:34.551541
25051,-0.5802,0.7813,0.2289,0.490,-3.675,-0.455,343,397,371,388,392,2025-05-27T23:04:34.551541
25052,-0.5783,0.7813,0.2264,0.770,-4.270,-0.420,342,421,387,405,385,2025-05-27T23:04:34.551541
25053,-0.5724,0.7788,0.2274,0.735,-4.235,-0.280,403,428,378,417,398,2025-05-27T23:04:34.551541
25054,-0.5675,0.7818,0.2308,0.630,-3.430,-0.315,403,412,371,406,353,2025-05-27T23:04:34.802095
25055,-0.5666,0.7784,0.2298,0.455,-2.800,-0.175,409,416,387,399,371,2025-05-27T23:04:34.802095
25056,-0.5719,0.7769,0.2372,0.385,-2.625,-0.350,401,397,377,343,397,2025-05-27T23:04:34.802095
25057,-0.5675,0.7788,0.2362,0.315,-2.730,-0.385,399,426,373,375,391,2025-05-27T23:04:34.802095
25058,-0.5724,0.7774,0.2367,0.420,-2.695,-0.770,422,431,376,371,413,2025-05-27T23:04:34.802095
25059,-0.5695,0.7710,0.2313,0.805,-2.975,-0.700,404,423,378,404,410,2025-05-27T23:04:34.802095
25060,-0.5710,0.7745,0.2347,1.435,-3.325,-0.980,398,429,374,413,390,2025-05-27T23:04:34.802095
25061,-0.5705,0.7730,0.2372,1.855,-3.920,-1.470,403,343,336,410,389,2025-05-27T23:04:34.802095
25062,-0.5754,0.7706,0.2357,2.275,-4.585,-1.995,413,411,367,409,402,2025-05-27T23:04:34.802095
25063,-0.5714,0.7735,0.2352,2.520,-5.705,-2.345,428,362,337,418,397,2025-05-27T23:04:34.802095
25064,-0.5714,0.7788,0.2333,2.520,-6.230,-2.905,427,391,351,418,398,2025-05-27T23:04:35.084603
25065,-0.5744,0.7798,0.2274,2.660,-6.405,-3.220,431,420,359,412,395,2025-05-27T23:04:35.084603
25066,-0.5714,0.7832,0.2279,2.940,-6.685,-3.220,414,434,335,402,408,2025-05-27T23:04:35.084603
