SeqNum,AccX,AccY,AccZ,GyroX,GyroY,GyroZ,Flex,Force1,Force2,Force3,Force4,TimestampReception
6646,0.0273,0.2869,0.9862,0.210,-4.095,-0.070,2,2,1,349,334,2025-06-06T10:08:33.065019
6647,0.2894,0.1166,1.2410,26.075,-93.345,35.490,2,2,1,338,262,2025-06-06T10:08:33.065019
6648,0.2845,0.2733,1.1688,31.290,-26.145,16.730,1,2,1,357,328,2025-06-06T10:08:33.065019
6649,0.3445,0.3426,1.3288,21.840,27.300,3.710,1,1,2,393,359,2025-06-06T10:08:33.065019
6650,0.3665,0.2913,1.1458,28.630,52.290,-17.290,2,1,1,384,374,2025-06-06T10:08:33.065019
6651,0.3567,0.3094,1.1385,35.140,96.705,-33.040,1,2,1,390,388,2025-06-06T10:08:33.065019
6652,0.4006,0.3152,1.1610,50.680,148.785,-46.865,1,3,1,401,385,2025-06-06T10:08:33.065019
6653,0.3826,0.3748,1.1766,56.490,181.860,-55.125,1,2,0,352,342,2025-06-06T10:08:33.065019
6654,0.3997,0.3318,1.0019,80.570,187.285,-58.555,1,1,1,384,382,2025-06-06T10:08:33.065019
6655,0.3011,0.4128,1.0209,97.440,173.565,-55.090,1,2,1,385,390,2025-06-06T10:08:33.065019
6656,0.2074,0.4231,1.0292,112.490,160.440,-50.260,1,1,1,397,391,2025-06-06T10:08:33.065019
6657,0.1381,0.3514,0.8852,123.900,140.595,-44.415,2,2,1,387,387,2025-06-06T10:08:33.065019
6658,0.0839,0.3328,0.7847,146.300,124.040,-39.480,2,2,1,389,398,2025-06-06T10:08:33.065019
6659,0.0010,0.3899,0.8032,148.260,110.915,-34.335,1,1,1,391,396,2025-06-06T10:08:33.065019
6660,-0.0249,0.4402,0.7945,146.230,103.775,-28.630,1,2,1,345,391,2025-06-06T10:08:33.065019
6661,-0.0390,0.4841,0.7896,153.020,98.420,-21.420,1,1,1,377,393,2025-06-06T10:08:33.065019
6662,-0.0737,0.5022,0.8350,157.850,100.660,-9.450,2,2,1,389,400,2025-06-06T10:08:33.065019
6663,-0.0293,0.5246,0.8481,164.290,106.610,-12.495,1,2,1,375,395,2025-06-06T10:08:33.065019
6664,-0.0356,0.5714,0.8379,169.470,112.000,-3.885,2,2,1,382,368,2025-06-06T10:08:33.065019
6665,-0.0888,0.5900,0.8223,171.535,115.815,4.235,1,2,1,389,372,2025-06-06T10:08:33.065019
6666,-0.0791,0.5793,0.8052,173.040,114.975,11.025,1,1,1,401,379,2025-06-06T10:08:33.065019
6667,-0.1015,0.6100,0.7940,178.780,113.750,16.940,2,2,1,403,351,2025-06-06T10:08:33.166483
6668,-0.1347,0.6588,0.8272,183.085,112.700,20.125,2,2,1,395,367,2025-06-06T10:08:33.166483
6669,-0.0908,0.6490,0.7374,184.590,120.470,23.520,1,1,2,396,390,2025-06-06T10:08:33.166483
6670,-0.1484,0.6529,0.6300,183.995,132.580,26.740,1,2,1,398,380,2025-06-06T10:08:33.166483
6671,-0.2396,0.6432,0.5339,173.250,143.360,28.210,1,2,1,393,371,2025-06-06T10:08:33.166483
6672,-0.2235,0.6407,0.4138,162.925,145.530,31.640,1,2,1,396,386,2025-06-06T10:08:33.166483
6673,-0.2660,0.6744,0.3611,156.415,141.365,34.230,1,2,2,383,385,2025-06-06T10:08:33.166483
6674,-0.2528,0.7276,0.3460,147.560,134.435,37.275,2,1,1,376,402,2025-06-06T10:08:33.166483
6675,-0.2479,0.7554,0.3060,135.520,128.660,40.985,1,3,1,371,393,2025-06-06T10:08:33.222793
6676,-0.2728,0.7418,0.2318,124.565,123.060,43.680,1,2,1,385,393,2025-06-06T10:08:33.222793
6677,-0.3040,0.7052,0.1762,113.715,116.270,43.435,2,2,2,399,390,2025-06-06T10:08:33.222793
6678,-0.2972,0.7149,0.1723,104.335,109.305,43.645,2,2,2,383,387,2025-06-06T10:08:33.222793
6679,-0.2738,0.7847,0.1659,89.880,106.085,42.700,1,1,2,396,359,2025-06-06T10:08:33.222793
6680,-0.4509,1.1829,-0.0434,57.855,66.850,30.275,2,2,2,376,380,2025-06-06T10:08:33.371743
6681,-0.1664,1.0858,0.0659,63.175,84.420,16.135,1,3,1,388,393,2025-06-06T10:08:33.371743
6682,-0.4143,1.0956,0.2889,83.265,35.315,-3.605,1,2,0,371,389,2025-06-06T10:08:33.371743
6683,-0.2416,1.0512,0.2284,41.720,51.135,-15.085,2,2,1,365,375,2025-06-06T10:08:33.371743
6684,0.6154,1.0692,0.5719,67.760,8.505,-9.170,2,2,1,385,379,2025-06-06T10:08:33.371743
6685,-0.0712,1.2722,0.2850,91.140,64.155,18.515,1,2,1,390,382,2025-06-06T10:08:33.371743
6686,-0.5724,0.7261,-0.0356,10.150,94.955,1.925,1,1,1,383,387,2025-06-06T10:08:33.371743
6687,0.0288,0.5924,-0.1547,56.315,84.700,10.220,2,2,1,377,399,2025-06-06T10:08:33.371743
6688,-0.1420,0.6388,-0.1010,50.505,68.915,13.895,1,1,1,377,386,2025-06-06T10:08:33.371743
6689,-0.0361,0.9565,-0.0298,38.605,73.255,21.315,1,1,1,389,401,2025-06-06T10:08:33.371743
6690,-0.1210,0.8804,0.0956,15.085,102.235,35.140,2,2,1,344,388,2025-06-06T10:08:33.371743
6691,-0.1298,0.8472,0.1137,23.520,98.980,42.595,1,1,1,370,402,2025-06-06T10:08:33.371743
6692,-0.1742,0.8550,0.1781,19.985,81.585,45.535,2,2,1,375,402,2025-06-06T10:08:33.474602
6693,-0.2377,0.8735,0.2064,22.750,56.875,47.285,1,2,1,383,399,2025-06-06T10:08:33.474602
6694,-0.1640,0.8789,0.2089,10.150,51.030,46.200,1,2,1,397,394,2025-06-06T10:08:33.474602
6695,-0.2420,0.8520,0.2479,5.985,53.480,39.025,2,3,2,398,392,2025-06-06T10:08:33.474602
6696,-0.2167,0.9233,0.1142,9.450,59.080,37.695,2,2,1,391,386,2025-06-06T10:08:33.474602
6697,-0.3675,0.9301,0.1884,4.060,54.740,34.300,1,2,2,396,402,2025-06-06T10:08:33.474602
6698,-0.2874,0.8818,-0.0181,-6.580,58.695,24.850,0,1,1,389,380,2025-06-06T10:08:33.474602
6699,-0.2089,0.9135,-0.0512,-1.855,65.765,20.510,1,2,1,383,390,2025-06-06T10:08:33.474602
6700,-0.0644,0.9697,-0.0805,-3.115,84.385,20.720,2,2,1,392,357,2025-06-06T10:08:33.474602
6701,-0.0429,1.0126,-0.0683,-19.705,105.070,28.420,1,2,1,392,376,2025-06-06T10:08:33.679145
6702,-0.0547,0.9882,-0.0332,-24.360,122.290,37.135,2,2,1,386,381,2025-06-06T10:08:33.679145
6703,-0.0649,0.9980,0.0708,-24.885,117.915,46.655,1,1,1,376,385,2025-06-06T10:08:33.679145
6704,-0.1249,1.0028,0.1825,-22.610,117.530,52.465,1,1,2,389,402,2025-06-06T10:08:33.679145
6705,-0.2040,0.9823,0.2591,-22.820,105.175,55.545,1,3,1,392,360,2025-06-06T10:08:33.679145
6706,-0.2284,0.9862,0.3392,-21.280,87.045,55.230,2,2,1,389,366,2025-06-06T10:08:33.679145
6707,-0.2391,0.9960,0.3562,-22.645,64.715,52.815,1,1,1,384,374,2025-06-06T10:08:33.679145
6708,-0.2103,0.9955,0.3450,-22.505,40.950,49.665,1,2,1,377,381,2025-06-06T10:08:33.679145
6709,-0.2011,1.0087,0.3440,-23.765,23.030,47.775,1,2,1,377,378,2025-06-06T10:08:33.679145
6710,-0.2245,0.9945,0.3143,-24.500,1.960,46.130,2,2,1,370,384,2025-06-06T10:08:33.679145
6711,-0.1498,0.9984,0.2596,-19.775,-16.065,45.465,1,2,1,384,386,2025-06-06T10:08:33.679145
6712,-0.0478,1.0565,0.2601,-20.475,-29.540,48.230,1,2,2,397,396,2025-06-06T10:08:33.679145
6713,-0.0098,1.0882,0.2050,-17.535,-34.440,52.920,1,1,1,392,350,2025-06-06T10:08:33.679145
6714,0.0449,1.0492,0.1157,-19.215,-31.360,56.560,1,2,1,397,380,2025-06-06T10:08:33.679145
6715,0.0639,1.0214,0.0517,-18.305,-19.040,57.995,1,2,1,397,394,2025-06-06T10:08:33.679145
6716,0.0571,1.0170,0.0595,-17.710,-2.905,57.995,1,2,1,390,364,2025-06-06T10:08:33.679145
6717,0.0420,0.9906,0.0795,-19.145,11.830,56.945,1,3,0,358,389,2025-06-06T10:08:33.679145
6718,0.0195,0.9643,0.0966,-18.340,22.400,54.180,2,1,2,383,373,2025-06-06T10:08:33.731339
6719,0.0493,0.9658,0.1440,-14.945,26.915,51.205,1,2,1,351,376,2025-06-06T10:08:33.731339
6720,0.0132,0.9467,0.1889,-16.520,24.780,49.350,2,3,2,376,351,2025-06-06T10:08:33.731339
6721,0.0073,0.9087,0.2050,-18.690,22.505,47.635,1,2,1,345,359,2025-06-06T10:08:33.731339
6722,-0.0205,0.9087,0.2225,-20.055,18.130,43.995,1,3,1,376,383,2025-06-06T10:08:33.783090
6723,-0.0029,0.9111,0.2372,-18.655,13.265,38.535,2,2,1,388,350,2025-06-06T10:08:33.783090
6724,-0.0063,0.8740,0.1362,-23.485,9.695,32.235,1,2,1,394,381,2025-06-06T10:08:33.783090
6725,0.0508,0.9052,0.1615,-16.590,9.310,25.760,2,2,2,381,386,2025-06-06T10:08:33.783090
6726,0.0742,0.9223,0.1723,-19.635,11.025,22.015,2,2,1,376,348,2025-06-06T10:08:33.883748
6727,0.0956,0.9160,0.1767,-20.160,14.945,18.130,2,2,1,387,371,2025-06-06T10:08:33.883748
6728,0.1386,0.9365,0.1781,-19.075,15.890,15.120,1,2,2,392,348,2025-06-06T10:08:33.883748
6729,0.1542,0.9472,0.1937,-18.970,17.220,13.265,1,3,2,404,334,2025-06-06T10:08:33.883748
6730,0.1771,0.9584,0.2255,-18.795,18.200,12.705,2,2,0,349,360,2025-06-06T10:08:33.883748
6731,0.1850,0.9750,0.2635,-18.620,17.500,13.020,2,2,1,377,377,2025-06-06T10:08:33.883748
6732,0.1757,0.9823,0.2928,-17.850,14.245,13.580,1,2,1,392,400,2025-06-06T10:08:33.883748
6733,0.1601,0.9755,0.3157,-16.765,10.220,13.475,1,2,1,392,398,2025-06-06T10:08:33.883748
6734,0.1444,0.9692,0.3416,-14.735,5.110,12.880,1,2,1,395,405,2025-06-06T10:08:33.883748
6735,0.1069,0.9682,0.3723,-14.280,0.595,11.410,2,2,2,384,402,2025-06-06T10:08:33.938161
6736,0.0893,0.9682,0.3826,-13.125,-4.305,9.310,1,2,1,381,398,2025-06-06T10:08:33.938161
6737,0.1113,0.9780,0.3616,-7.210,-8.190,7.140,2,1,1,384,405,2025-06-06T10:08:33.938161
6738,0.1552,0.9936,0.3416,2.695,-13.335,6.790,1,2,1,387,398,2025-06-06T10:08:33.938161
6739,0.1767,0.9994,0.3221,9.205,-15.365,7.385,1,2,1,394,396,2025-06-06T10:08:34.088753
6740,0.1562,0.9916,0.2835,12.670,-15.190,7.350,2,2,2,395,398,2025-06-06T10:08:34.088753
6741,0.0952,0.9575,0.2811,15.820,-12.880,5.915,2,2,2,404,390,2025-06-06T10:08:34.088753
6742,0.0908,0.9414,0.2899,28.420,-9.695,3.745,1,2,1,402,354,2025-06-06T10:08:34.088753
6743,0.0586,0.9379,0.2635,37.625,-5.530,1.470,1,1,1,382,339,2025-06-06T10:08:34.088753
6744,0.0429,0.9301,0.2133,31.010,-2.345,-2.975,2,2,1,397,376,2025-06-06T10:08:34.088753
6745,0.0268,0.9213,0.1845,31.675,2.590,-8.785,2,1,1,391,372,2025-06-06T10:08:34.088753
6746,0.0054,0.9306,0.1825,28.665,5.110,-15.225,2,1,1,385,378,2025-06-06T10:08:34.088753
6747,-0.0112,0.9511,0.1893,27.650,8.085,-18.935,1,2,2,393,381,2025-06-06T10:08:34.088753
6748,0.0268,0.9550,0.1893,19.425,9.450,-22.855,1,2,1,379,369,2025-06-06T10:08:34.088753
6749,0.0556,0.9653,0.1791,10.675,4.445,-22.540,1,2,1,388,393,2025-06-06T10:08:34.088753
6750,0.0708,0.9745,0.2011,8.750,-0.840,-19.565,2,2,0,360,381,2025-06-06T10:08:34.088753
6751,0.0386,0.9618,0.1928,8.330,-2.100,-16.170,1,1,1,370,378,2025-06-06T10:08:34.088753
6752,0.0122,0.9506,0.1991,0.210,-3.955,-14.140,1,2,1,384,394,2025-06-06T10:08:34.191767
6753,0.0381,0.9697,0.2284,-7.700,-6.335,-10.675,1,2,2,395,396,2025-06-06T10:08:34.191767
6754,0.0102,0.9653,0.2211,0.455,-5.635,-7.980,2,2,2,394,403,2025-06-06T10:08:34.191767
6755,0.0034,0.9911,0.1918,-3.605,-13.370,-7.350,2,3,1,345,381,2025-06-06T10:08:34.191767
6756,0.0464,1.0043,0.1801,-18.830,-11.060,-7.665,2,2,2,375,386,2025-06-06T10:08:34.191767
6757,0.0420,1.0097,0.1566,-10.955,-5.145,-8.575,2,2,0,352,384,2025-06-06T10:08:34.191767
6758,-0.0146,1.0126,0.1845,-31.500,4.235,-11.340,1,2,1,361,389,2025-06-06T10:08:34.191767
6759,-0.0346,1.0033,0.2416,-19.600,-2.205,-13.965,2,2,1,383,404,2025-06-06T10:08:34.191767
6760,-0.0112,1.0043,0.2396,-0.210,-9.625,-14.700,2,2,1,372,383,2025-06-06T10:08:34.191767
6761,0.0166,1.0106,0.2577,15.435,0.980,-11.935,2,2,2,375,397,2025-06-06T10:08:34.245157
6762,0.0493,1.0404,0.3001,-13.440,26.495,-6.825,2,3,1,394,397,2025-06-06T10:08:34.245157
6763,0.0600,1.0248,0.2777,26.250,-2.240,-1.225,2,2,1,394,398,2025-06-06T10:08:34.245157
6764,0.0571,1.0536,0.2137,72.940,-11.970,4.900,2,2,2,393,402,2025-06-06T10:08:34.245157
6765,0.1235,1.0624,0.1879,58.940,5.040,13.405,2,2,1,396,359,2025-06-06T10:08:34.395487
6766,0.1054,1.0634,0.1625,50.400,19.670,20.755,2,2,1,352,346,2025-06-06T10:08:34.395487
6767,0.0581,1.0712,0.1532,34.125,25.095,25.410,2,2,2,378,382,2025-06-06T10:08:34.395487
6768,0.0615,1.0565,0.1825,30.100,3.255,27.125,1,2,1,389,377,2025-06-06T10:08:34.395487
6769,0.0712,1.1097,0.1703,33.215,14.700,32.445,1,2,1,389,380,2025-06-06T10:08:34.395487
6770,0.1645,1.0575,0.1279,21.210,33.250,36.960,2,2,1,375,342,2025-06-06T10:08:34.395487
6771,0.1147,1.0390,0.1728,24.570,38.185,41.475,2,1,1,370,378,2025-06-06T10:08:34.395487
6772,0.1664,1.0770,0.1596,29.085,31.815,45.815,2,2,1,393,375,2025-06-06T10:08:34.395487
6773,0.1093,1.0433,0.2308,40.530,35.805,47.390,1,1,0,350,369,2025-06-06T10:08:34.395487
6774,0.0820,1.0433,0.2225,32.130,45.535,50.085,2,2,2,382,392,2025-06-06T10:08:34.395487
6775,0.1152,1.0028,0.1645,35.490,44.380,51.275,1,2,2,391,392,2025-06-06T10:08:34.395487
6776,0.1039,0.9970,0.1728,42.665,42.840,48.860,1,1,2,380,353,2025-06-06T10:08:34.395487
6777,0.0942,0.9794,0.1586,46.585,35.805,46.305,1,2,1,385,377,2025-06-06T10:08:34.395487
6778,0.1132,0.9838,0.1259,50.645,32.935,44.485,2,1,2,388,355,2025-06-06T10:08:34.450319
6779,0.1371,0.9819,0.1035,56.105,28.350,43.400,2,2,1,377,384,2025-06-06T10:08:34.450319
6780,0.1269,0.9701,0.1059,57.225,30.380,41.580,2,3,1,377,380,2025-06-06T10:08:34.450319
6781,0.0986,0.9570,0.0952,64.470,34.160,38.220,2,1,2,387,393,2025-06-06T10:08:34.450319
6782,0.0703,0.9457,0.0176,68.110,40.390,31.290,2,2,1,391,388,2025-06-06T10:08:34.605255
6783,0.1669,0.9350,-0.1283,64.610,50.925,22.645,1,2,1,381,378,2025-06-06T10:08:34.605255
6784,0.2772,0.9721,-0.2040,75.670,67.025,15.855,2,2,1,375,347,2025-06-06T10:08:34.605255
6785,0.2884,0.9887,-0.2528,76.895,94.780,12.775,2,3,1,385,371,2025-06-06T10:08:34.605255
6786,0.3328,1.0063,-0.2406,77.280,112.490,11.795,1,2,1,398,388,2025-06-06T10:08:34.605255
6787,0.3875,1.0346,-0.1830,73.850,114.415,16.240,1,2,1,399,397,2025-06-06T10:08:34.605255
6788,0.5719,1.0150,-0.1527,78.820,99.890,24.465,1,1,0,362,376,2025-06-06T10:08:34.605255
6789,0.8423,0.9550,-0.1000,83.580,83.720,38.570,2,3,2,369,391,2025-06-06T10:08:34.605255
6790,1.2517,0.7432,-0.0454,76.335,68.495,50.505,1,1,1,370,393,2025-06-06T10:08:34.605255
6791,1.9217,0.9809,1.0238,105.560,50.785,56.910,1,2,1,365,395,2025-06-06T10:08:34.605255
6792,1.8071,0.8125,1.7544,100.695,63.525,53.410,2,3,2,388,400,2025-06-06T10:08:34.605255
6793,1.0609,-0.0264,0.7544,-152.565,31.920,5.215,1,1,2,349,378,2025-06-06T10:08:34.605255
6794,0.1674,0.2542,0.6354,-276.815,-9.905,-143.220,2,1,1,363,386,2025-06-06T10:08:34.605255
6795,-2.1614,-1.1424,-0.3157,-399.980,-174.615,-361.725,1,3,1,379,375,2025-06-06T10:08:34.704365
6796,-3.7815,-1.7792,-1.4411,-512.085,-373.100,-603.225,2,1,1,371,342,2025-06-06T10:08:34.704365
6797,-3.0510,1.2556,0.7100,-468.160,-338.870,-825.160,2,2,2,379,375,2025-06-06T10:08:34.704365
6798,-3.6956,2.9885,2.0525,-488.985,-282.100,-891.065,1,2,1,385,344,2025-06-06T10:08:34.704365
6799,3.2345,5.0449,1.0707,-510.545,-516.740,-550.445,1,2,1,347,363,2025-06-06T10:08:34.704365
6800,0.6085,1.2493,0.7642,-621.285,-537.950,-326.375,2,3,1,380,346,2025-06-06T10:08:34.704365
6801,0.8369,1.5221,-1.0917,-347.620,-501.235,-38.990,2,1,1,368,337,2025-06-06T10:08:34.704365
6802,-0.1118,0.7261,-1.1117,-257.040,-312.235,97.300,1,2,1,388,339,2025-06-06T10:08:34.704365
6803,-1.4679,0.1571,-0.1459,-246.855,-162.155,124.495,1,2,1,384,325,2025-06-06T10:08:34.806111
6804,-1.3293,-0.8398,0.1425,-248.290,-4.655,32.375,1,2,1,393,357,2025-06-06T10:08:34.806111
6805,-0.7056,-0.4207,0.4812,-193.375,56.595,-14.175,2,3,1,385,367,2025-06-06T10:08:34.806111
6806,-0.3548,-0.0337,0.5353,-135.940,74.585,12.705,1,2,1,382,348,2025-06-06T10:08:34.806111
6807,-0.3924,0.1200,0.9106,-44.555,86.905,45.535,2,3,1,382,340,2025-06-06T10:08:34.806111
6808,-0.3665,0.2206,1.1361,18.165,48.895,81.165,2,2,1,378,330,2025-06-06T10:08:34.806111
6809,-0.2147,0.2098,1.0004,44.835,19.600,90.475,1,2,1,378,366,2025-06-06T10:08:34.806111
6810,-0.1298,0.2962,0.9662,47.775,21.455,77.700,1,2,1,394,374,2025-06-06T10:08:34.806111
6811,-0.1181,0.4431,1.2576,44.765,23.975,64.435,1,2,1,401,381,2025-06-06T10:08:34.806111
6812,-0.0542,0.5441,1.4957,61.320,23.030,50.995,2,3,1,393,390,2025-06-06T10:08:34.852157
6813,0.0215,0.6300,1.5504,81.130,29.295,39.025,1,2,1,392,354,2025-06-06T10:08:34.852157
6814,-0.0747,0.7374,1.7017,86.625,24.955,29.610,2,2,0,353,361,2025-06-06T10:08:34.852157
6815,-0.2074,0.8725,1.6880,112.840,15.050,30.800,1,2,1,379,376,2025-06-06T10:08:34.852157
6816,-0.3450,0.9233,1.6104,168.350,5.460,36.015,1,2,1,373,378,2025-06-06T10:08:34.903450
6817,-0.4558,0.9501,1.3625,153.370,-16.030,40.845,2,3,1,380,388,2025-06-06T10:08:34.903450
6818,-0.4109,0.9872,1.1961,132.195,-39.865,51.625,1,2,2,380,376,2025-06-06T10:08:34.903450
6819,-0.3855,0.9906,1.0067,155.750,-61.845,61.880,1,2,1,393,390,2025-06-06T10:08:34.903450
6820,-0.3167,0.9155,0.7871,135.695,-75.565,76.055,2,2,1,385,349,2025-06-06T10:08:35.012692
6821,-0.2533,0.7945,0.7115,145.320,-72.555,85.750,1,2,1,388,335,2025-06-06T10:08:35.012692
6822,-0.1537,0.7437,0.6232,140.805,-68.390,93.170,2,2,2,394,376,2025-06-06T10:08:35.012692
6823,-0.0146,0.6500,0.5168,139.825,-63.770,98.595,2,2,1,389,378,2025-06-06T10:08:35.012692
6824,0.0571,0.6281,0.4680,150.780,-48.650,99.750,2,2,1,398,392,2025-06-06T10:08:35.012692
6825,0.1020,0.6373,0.4729,151.200,-23.730,97.650,2,2,2,403,388,2025-06-06T10:08:35.012692
6826,0.0898,0.6451,0.4748,149.625,0.665,92.820,1,1,2,407,395,2025-06-06T10:08:35.012692
6827,0.0756,0.6686,0.4895,145.285,16.555,85.890,2,2,1,396,397,2025-06-06T10:08:35.015868
6828,0.0600,0.7052,0.5558,147.315,29.400,76.790,1,2,1,385,381,2025-06-06T10:08:35.015868
6829,0.0810,0.7749,0.6159,148.820,32.130,73.325,2,2,1,377,388,2025-06-06T10:08:35.117002
6830,0.0488,0.7993,0.6173,151.130,18.935,73.325,2,2,2,390,371,2025-06-06T10:08:35.117002
6831,0.0478,0.8330,0.5876,151.445,20.230,71.365,1,2,1,377,367,2025-06-06T10:08:35.117002
6832,0.0600,0.8467,0.5651,149.590,10.045,71.750,2,2,1,396,360,2025-06-06T10:08:35.117002
6833,0.0664,0.8267,0.5212,146.125,4.025,68.775,1,2,2,393,375,2025-06-06T10:08:35.117002
6834,0.1161,0.8355,0.4553,138.145,-2.415,65.975,1,1,1,380,311,2025-06-06T10:08:35.117002
6835,0.1679,0.8320,0.3684,130.060,-4.235,61.600,1,3,1,387,356,2025-06-06T10:08:35.117002
6836,0.1923,0.8355,0.3030,124.880,-2.205,58.065,1,2,2,399,379,2025-06-06T10:08:35.117002
6837,0.1918,0.8496,0.2625,117.320,1.820,55.440,2,2,1,397,380,2025-06-06T10:08:35.117002
6838,0.2201,0.8345,0.2216,110.635,3.150,51.835,2,2,1,395,379,2025-06-06T10:08:35.169392
6839,0.2318,0.8184,0.1679,103.390,7.140,47.005,1,1,1,351,379,2025-06-06T10:08:35.169392
6840,0.1923,0.7989,0.1615,98.560,13.510,40.110,2,3,1,375,384,2025-06-06T10:08:35.169392
6841,0.2035,0.8276,0.1566,91.945,13.475,36.190,2,1,1,368,377,2025-06-06T10:08:35.169392
6842,0.2064,0.8345,0.1083,80.010,14.210,33.565,2,1,2,377,397,2025-06-06T10:08:35.335275
6843,0.2216,0.8418,0.0776,68.705,15.400,29.960,1,2,2,392,352,2025-06-06T10:08:35.335275
6844,0.2123,0.8355,0.0874,57.750,18.340,24.850,1,2,1,344,367,2025-06-06T10:08:35.335275
6845,0.2133,0.8379,0.1157,46.795,19.460,20.230,1,2,2,364,340,2025-06-06T10:08:35.335275
6846,0.2059,0.8467,0.1039,38.675,16.835,17.570,2,1,2,378,360,2025-06-06T10:08:35.537645
6847,0.2133,0.8506,0.0859,31.710,16.975,13.510,2,2,2,395,373,2025-06-06T10:08:35.537645
6848,0.1981,0.8745,0.0956,27.125,18.130,10.185,1,1,2,389,385,2025-06-06T10:08:35.537645
6849,0.2440,0.9033,0.0893,22.505,17.010,8.645,1,2,1,389,377,2025-06-06T10:08:35.537645
6850,0.2323,0.8965,0.0966,20.545,18.900,6.580,3,2,1,386,375,2025-06-06T10:08:35.537645
6851,0.2338,0.9121,0.1196,19.495,18.480,6.335,2,1,1,393,342,2025-06-06T10:08:35.537645
6852,0.2142,0.9389,0.1523,18.515,16.555,8.120,1,3,1,359,353,2025-06-06T10:08:35.537645
6853,0.2284,0.9457,0.1298,15.890,12.880,10.150,1,2,1,384,338,2025-06-06T10:08:35.537645
6854,0.2333,0.9614,0.1415,14.035,11.935,11.760,2,2,2,381,368,2025-06-06T10:08:35.537645
6855,0.2201,0.9570,0.1415,11.760,10.045,12.530,1,3,2,391,390,2025-06-06T10:08:35.537645
6856,0.2103,0.9550,0.1508,10.115,8.925,11.865,1,2,1,384,393,2025-06-06T10:08:35.537645
6857,0.2308,0.9589,0.1376,7.945,7.455,11.130,1,2,1,397,382,2025-06-06T10:08:35.537645
6858,0.2328,0.9511,0.1220,6.685,8.015,9.170,2,2,2,399,388,2025-06-06T10:08:35.537645
6859,0.2269,0.9482,0.1357,4.970,7.595,7.455,2,1,1,397,385,2025-06-06T10:08:35.537645
6860,0.2216,0.9443,0.1342,4.795,7.070,5.390,2,3,2,391,384,2025-06-06T10:08:35.537645
6861,0.2264,0.9506,0.1488,4.865,7.070,3.500,1,2,1,395,385,2025-06-06T10:08:35.537645
6862,0.2381,0.9589,0.1552,5.145,6.790,2.695,2,2,1,402,361,2025-06-06T10:08:35.537645
6863,0.2284,0.9501,0.1415,5.320,6.860,1.960,2,2,1,387,367,2025-06-06T10:08:35.538643
6864,0.2406,0.9560,0.1435,5.460,7.665,1.120,1,2,1,399,382,2025-06-06T10:08:35.538643
6865,0.2176,0.9570,0.1464,6.755,7.630,0.455,2,2,1,394,387,2025-06-06T10:08:35.538643
6866,0.2084,0.9648,0.1410,8.540,7.980,0.140,1,1,1,381,388,2025-06-06T10:08:35.538643
6867,0.2250,0.9662,0.1240,8.820,8.330,-0.875,1,3,1,384,392,2025-06-06T10:08:35.538643
6868,0.2289,0.9775,0.1283,10.255,9.975,-1.295,2,2,1,386,384,2025-06-06T10:08:35.538643
6869,0.2323,0.9848,0.1391,11.060,10.815,-0.595,2,2,1,381,393,2025-06-06T10:08:35.538643
6870,0.2133,0.9960,0.1630,12.915,10.780,0.770,1,2,1,384,391,2025-06-06T10:08:35.538643
6871,0.2147,1.0033,0.1684,13.930,8.820,2.870,1,2,1,386,359,2025-06-06T10:08:35.538643
6872,0.2196,0.9999,0.1664,15.190,8.225,3.675,2,2,2,348,377,2025-06-06T10:08:35.729773
6873,0.2313,0.9902,0.1610,18.655,8.295,3.780,1,2,1,360,377,2025-06-06T10:08:35.729773
6874,0.2074,1.0087,0.1391,21.420,7.525,3.815,1,2,1,385,374,2025-06-06T10:08:35.729773
6875,0.1835,0.9775,0.1420,21.665,7.770,1.890,1,2,2,379,382,2025-06-06T10:08:35.729773
6876,0.1903,0.9794,0.1552,24.780,5.985,1.190,1,1,1,386,390,2025-06-06T10:08:35.729773
6877,0.2128,0.9731,0.1405,27.230,3.605,1.435,1,2,2,399,388,2025-06-06T10:08:35.729773
6878,0.2157,0.9623,0.1288,28.945,3.955,0.910,1,1,1,382,353,2025-06-06T10:08:35.729773
6879,0.2269,0.9472,0.1240,31.465,4.655,-0.140,1,2,1,376,380,2025-06-06T10:08:35.729773
6880,0.2147,0.9662,0.1152,32.165,3.255,0.770,2,1,1,373,385,2025-06-06T10:08:35.729773
6881,0.2035,0.9472,0.0898,31.920,4.830,0.070,1,2,0,355,395,2025-06-06T10:08:35.729773
6882,0.2357,0.9545,0.0903,33.565,6.090,-0.350,2,2,2,340,400,2025-06-06T10:08:35.729773
6883,0.2406,0.9316,0.0625,35.140,10.290,-2.065,1,2,1,369,393,2025-06-06T10:08:35.729773
6884,0.2313,0.9579,0.0639,35.280,12.390,-1.715,1,2,1,371,391,2025-06-06T10:08:35.729773
6885,0.2172,0.9350,0.0581,36.645,14.105,-3.010,2,1,1,369,388,2025-06-06T10:08:35.729773
6886,0.2074,0.9511,0.0839,37.240,12.110,-2.030,1,2,1,375,393,2025-06-06T10:08:35.729773
6887,0.2094,0.9418,0.0468,39.970,11.410,-3.010,1,2,1,372,404,2025-06-06T10:08:35.729773
6888,0.2152,0.9501,0.0512,36.610,10.325,-3.780,1,2,1,366,397,2025-06-06T10:08:35.729773
6889,0.2303,0.9111,0.0400,36.960,12.110,-6.930,2,2,2,384,375,2025-06-06T10:08:35.837554
6890,0.2059,0.9550,0.0625,36.295,10.255,-6.930,2,1,1,390,383,2025-06-06T10:08:35.837554
6891,0.2059,0.9087,0.0454,32.865,8.750,-7.175,2,2,1,386,382,2025-06-06T10:08:35.837554
6892,0.2137,0.9345,0.0102,35.910,7.630,-7.210,2,3,1,396,385,2025-06-06T10:08:35.837554
6893,0.2196,0.9643,0.0127,28.840,5.985,-4.935,2,1,2,393,393,2025-06-06T10:08:35.837554
6894,0.2220,0.9140,-0.0200,29.645,5.075,-5.915,2,2,1,392,390,2025-06-06T10:08:35.837554
6895,0.2440,0.8940,0.0078,26.040,3.045,-5.495,1,1,1,393,376,2025-06-06T10:08:35.837554
6896,0.1893,1.0019,-0.0366,26.985,-0.315,-4.515,2,1,0,347,383,2025-06-06T10:08:35.837554
6897,0.1962,0.9428,-0.0332,17.710,-1.085,-4.445,2,2,1,374,402,2025-06-06T10:08:35.837554
6898,0.2030,0.9130,-0.0176,15.960,-2.975,-5.390,1,2,2,390,362,2025-06-06T10:08:35.989342
6899,0.1859,0.9345,-0.0059,14.805,-6.825,-4.900,2,3,1,394,378,2025-06-06T10:08:35.989342
6900,0.1957,0.9277,-0.0264,11.410,-8.820,-5.250,2,2,1,396,398,2025-06-06T10:08:35.989342
6901,0.2176,0.9287,-0.0537,9.065,-7.700,-6.230,1,3,1,390,401,2025-06-06T10:08:35.989342
6902,0.2113,0.9331,-0.0508,6.545,-4.515,-7.735,2,1,1,381,389,2025-06-06T10:08:35.989342
6903,0.2128,0.9467,-0.0488,4.340,-2.415,-8.330,1,1,1,370,353,2025-06-06T10:08:35.989342
6904,0.2181,0.9609,-0.0517,3.605,0.175,-7.630,2,2,2,384,381,2025-06-06T10:08:35.989342
6905,0.2006,0.9687,-0.0532,3.115,2.800,-6.335,1,2,1,388,383,2025-06-06T10:08:35.989342
6906,0.2059,0.9697,-0.0542,4.235,4.165,-3.570,2,2,1,379,381,2025-06-06T10:08:35.989342
6907,0.1923,0.9804,-0.0581,5.845,5.600,-0.595,1,3,1,372,387,2025-06-06T10:08:35.989342
6908,0.1806,0.9809,-0.0576,7.700,6.475,2.030,1,2,2,389,388,2025-06-06T10:08:35.989342
6909,0.1776,0.9984,-0.0468,10.395,7.490,3.710,2,2,2,385,383,2025-06-06T10:08:36.151717
6910,0.1854,1.0150,-0.0371,12.565,9.240,6.090,2,2,1,388,389,2025-06-06T10:08:36.151717
6911,0.1835,1.0199,-0.0264,15.470,10.500,9.240,1,2,1,383,389,2025-06-06T10:08:36.151717
6912,0.1923,1.0248,-0.0117,20.265,12.530,12.460,2,2,1,389,381,2025-06-06T10:08:36.151717
6913,0.2035,1.0399,-0.0200,23.835,15.610,15.365,2,2,1,375,374,2025-06-06T10:08:36.151717
6914,0.2054,1.0365,-0.0322,28.280,20.545,16.660,2,3,1,386,351,2025-06-06T10:08:36.151717
6915,0.1928,1.0341,-0.0195,33.845,26.705,18.900,2,2,1,386,362,2025-06-06T10:08:36.151717
6916,0.2201,1.0360,-0.0425,40.915,31.745,21.315,1,1,1,378,385,2025-06-06T10:08:36.151717
6917,0.2918,0.9853,-0.0390,48.440,40.215,24.045,2,3,1,394,387,2025-06-06T10:08:36.151717
6918,0.2240,1.1043,-0.1298,59.710,44.905,24.500,1,1,2,391,385,2025-06-06T10:08:36.151717
6919,0.2162,0.9848,-0.1322,55.825,52.955,22.855,2,1,1,396,400,2025-06-06T10:08:36.151717
6920,0.2640,0.9384,-0.1479,60.410,59.220,17.885,2,2,2,354,393,2025-06-06T10:08:36.151717
6921,0.2440,0.9370,-0.1542,62.230,60.200,15.260,2,2,2,371,382,2025-06-06T10:08:36.151717
6922,0.2601,0.8921,-0.1952,59.570,57.715,10.010,1,2,1,372,354,2025-06-06T10:08:36.151717
6923,0.3382,0.8428,-0.2469,54.250,57.540,1.155,1,1,2,374,379,2025-06-06T10:08:36.151717
6924,0.4763,0.7291,-0.2767,44.555,61.355,-11.165,2,2,2,382,351,2025-06-06T10:08:36.356367
6925,0.6285,0.6891,-0.3084,32.900,67.375,-27.440,1,2,1,369,372,2025-06-06T10:08:36.356367
6926,0.9150,0.6364,-0.3538,10.675,81.655,-48.650,1,2,1,387,367,2025-06-06T10:08:36.356367
6927,1.1795,0.6271,-0.2645,1.050,95.620,-69.790,2,2,2,392,384,2025-06-06T10:08:36.356367
6928,1.3244,0.5632,-0.2006,-38.815,111.860,-87.010,2,1,1,391,348,2025-06-06T10:08:36.356367
6929,1.5065,0.4826,-0.2347,-49.455,94.395,-101.430,2,2,1,394,347,2025-06-06T10:08:36.356367
6930,1.9349,0.4870,-0.1581,-76.090,103.670,-139.930,1,1,2,396,363,2025-06-06T10:08:36.356367
6931,2.0462,0.0947,-0.2025,-96.950,88.725,-154.840,1,2,1,400,370,2025-06-06T10:08:36.356367
6932,2.2038,-0.1806,-0.2533,-117.705,93.835,-188.510,1,3,1,386,352,2025-06-06T10:08:36.356367
6933,2.2346,-0.5187,-0.2952,-110.635,85.785,-236.285,1,2,1,381,366,2025-06-06T10:08:36.356367
6934,1.7104,-1.0907,-0.3845,-135.310,76.895,-272.265,1,1,1,391,370,2025-06-06T10:08:36.356367
6935,0.9355,-1.5523,-0.4182,-93.905,51.975,-320.215,1,2,1,388,389,2025-06-06T10:08:36.356367
6936,-0.6656,-1.7880,-0.4216,-70.035,-2.065,-360.360,1,2,1,401,402,2025-06-06T10:08:36.356367
6937,-2.4502,-1.2029,0.0761,-65.275,-44.730,-443.660,2,2,1,402,399,2025-06-06T10:08:36.356367
6938,-3.6624,-0.2318,0.5797,-93.065,-103.005,-532.455,1,2,1,386,407,2025-06-06T10:08:36.356367
6939,-4.4867,0.6998,0.8872,-156.135,-187.635,-571.725,1,2,2,400,409,2025-06-06T10:08:36.356367
6940,-3.5731,1.6041,1.2991,-199.150,-206.465,-563.850,2,3,1,393,399,2025-06-06T10:08:36.444506
6941,-2.6537,2.1765,2.2072,-272.930,-258.300,-480.760,1,3,1,395,391,2025-06-06T10:08:36.444506
6942,-2.5796,1.5562,2.9695,-189.945,-246.365,-348.670,2,4,2,399,395,2025-06-06T10:08:36.444506
6943,-2.3239,1.3020,1.9515,-106.995,-245.070,-198.240,2,1,1,389,396,2025-06-06T10:08:36.444506
6944,-1.4010,1.2166,0.5041,-48.090,-277.725,-74.795,3,2,1,397,400,2025-06-06T10:08:36.444506
6945,-0.7579,1.2966,-0.4387,28.490,-244.685,61.250,2,3,1,393,381,2025-06-06T10:08:36.444506
6946,-0.9370,1.0102,-0.6954,57.855,-96.775,145.145,2,1,1,392,393,2025-06-06T10:08:36.444506
6947,-1.2156,0.7403,-0.7242,83.895,29.295,165.935,2,2,1,367,392,2025-06-06T10:08:36.444506
6948,-1.1395,0.6246,-0.7213,43.085,87.010,152.460,2,2,2,379,378,2025-06-06T10:08:36.444506
6949,-1.1063,0.8008,-0.2435,41.615,112.315,126.070,1,2,2,387,394,2025-06-06T10:08:36.546066
6950,-1.0990,0.6344,0.4290,41.930,134.785,108.045,2,2,1,392,390,2025-06-06T10:08:36.546066
6951,-1.1004,0.8940,0.9672,54.495,108.745,96.215,1,2,2,398,383,2025-06-06T10:08:36.546066
6952,-1.0824,0.8613,1.1053,7.210,45.465,89.005,2,3,1,384,396,2025-06-06T10:08:36.546066
6953,-1.0677,0.7388,1.0599,-0.805,-3.150,75.425,2,1,1,392,399,2025-06-06T10:08:36.546066
6954,-1.0609,0.6954,0.9882,-7.035,-20.370,58.765,1,2,2,398,409,2025-06-06T10:08:36.546066
6955,-0.9921,0.7056,0.6978,-13.160,-46.340,48.930,2,2,2,399,388,2025-06-06T10:08:36.546066
6956,-0.8511,0.6871,0.4211,-24.640,-64.365,40.775,1,1,1,395,379,2025-06-06T10:08:36.546066
6957,-0.7535,0.6588,0.3026,-26.110,-62.265,34.160,2,2,1,389,390,2025-06-06T10:08:36.688928
6958,-0.5998,0.7052,0.3109,-18.305,-53.305,35.420,1,2,2,397,375,2025-06-06T10:08:36.688928
6959,-0.4636,0.7457,0.2801,-18.725,-46.130,46.515,2,3,1,393,375,2025-06-06T10:08:36.688928
6960,-0.3294,0.7335,0.2123,-30.030,-45.325,60.795,2,2,1,380,376,2025-06-06T10:08:36.688928
6961,-0.2962,0.7008,0.2733,-24.185,-28.000,72.485,2,1,2,380,393,2025-06-06T10:08:36.688928
6962,-0.2904,0.7022,0.3558,-9.940,-13.125,86.275,2,2,1,391,395,2025-06-06T10:08:36.688928
6963,-0.2440,0.7076,0.3440,-13.650,-3.710,95.760,2,1,2,397,396,2025-06-06T10:08:36.688928
6964,-0.2757,0.6549,0.3582,-7.770,12.565,99.365,1,2,1,400,404,2025-06-06T10:08:36.688928
6965,-0.3221,0.6632,0.4397,1.190,21.840,97.475,1,2,1,352,388,2025-06-06T10:08:36.688928
6966,-0.3533,0.7071,0.5129,4.935,26.005,92.855,2,1,1,380,400,2025-06-06T10:08:36.872501
6967,-0.3460,0.7540,0.5261,16.310,24.640,88.165,3,3,1,390,358,2025-06-06T10:08:36.872501
6968,-0.3196,0.7925,0.5495,29.120,17.220,83.020,1,2,1,377,379,2025-06-06T10:08:36.872501
6969,-0.3211,0.8355,0.5690,40.635,6.685,80.955,2,2,1,399,377,2025-06-06T10:08:36.872501
6970,-0.2801,0.8032,0.5783,52.605,-3.885,78.190,2,2,2,403,374,2025-06-06T10:08:36.872501
6971,-0.1996,0.8672,0.5373,75.495,-12.775,81.095,2,2,1,404,394,2025-06-06T10:08:36.872501
6972,-0.1362,0.9765,0.4685,94.850,-25.550,81.865,1,2,1,399,394,2025-06-06T10:08:36.872501
6973,-0.0586,0.9975,0.3738,111.300,-29.470,87.080,1,0,1,389,391,2025-06-06T10:08:36.872501
6974,-0.0483,0.9823,0.2762,60.410,-21.525,86.240,1,1,1,389,388,2025-06-06T10:08:36.872501
6975,-0.0361,0.9326,0.2738,47.635,-13.860,83.965,1,1,1,377,385,2025-06-06T10:08:36.872501
6976,-0.0400,0.9013,0.2391,53.550,-5.775,80.080,1,1,1,374,360,2025-06-06T10:08:36.872501
6977,-0.0415,0.8808,0.2294,40.390,-6.685,73.675,2,2,1,383,373,2025-06-06T10:08:36.872501
6978,-0.0264,0.8701,0.2074,42.070,-1.750,67.970,1,1,2,392,387,2025-06-06T10:08:36.872501
6979,-0.0093,0.8696,0.1903,36.155,4.760,60.865,1,2,1,390,403,2025-06-06T10:08:36.872501
6980,0.0254,0.8740,0.2142,35.140,13.160,57.820,1,2,1,353,390,2025-06-06T10:08:36.872501
6981,0.0547,0.8784,0.2089,35.770,8.365,50.645,1,1,1,363,384,2025-06-06T10:08:36.872501
6982,0.0708,0.8930,0.2006,33.145,15.365,47.635,2,2,1,375,390,2025-06-06T10:08:36.872501
6983,0.0571,0.8886,0.2133,30.975,19.845,44.835,1,1,2,383,378,2025-06-06T10:08:36.873149
6984,0.0254,0.8823,0.2225,28.350,16.450,41.615,1,2,2,387,381,2025-06-06T10:08:37.063407
6985,0.0264,0.8935,0.2245,23.520,11.165,37.520,2,3,1,393,373,2025-06-06T10:08:37.063407
6986,-0.0010,0.8906,0.2333,19.250,7.525,32.690,2,2,1,382,376,2025-06-06T10:08:37.063407
6987,0.0102,0.8974,0.2416,17.395,4.690,29.190,2,2,1,384,394,2025-06-06T10:08:37.063407
6988,0.0410,0.9135,0.2250,14.210,1.785,26.635,0,2,1,348,353,2025-06-06T10:08:37.063407
6989,0.0664,0.9223,0.2133,11.655,-0.070,24.290,2,2,1,374,351,2025-06-06T10:08:37.063407
6990,0.0508,0.9179,0.2118,9.135,-2.030,22.295,2,3,1,376,375,2025-06-06T10:08:37.063407
6991,0.0478,0.9077,0.2089,7.350,-2.870,20.335,1,2,1,396,351,2025-06-06T10:08:37.063407
6992,0.0317,0.8989,0.1962,6.405,-3.990,18.165,1,2,1,387,371,2025-06-06T10:08:37.063407
6993,0.0473,0.9013,0.1781,4.515,-4.060,16.485,1,1,1,379,377,2025-06-06T10:08:37.063407
6994,0.0444,0.8994,0.1713,2.590,-3.255,15.190,2,2,1,390,395,2025-06-06T10:08:37.063407
6995,0.0307,0.9052,0.1728,0.840,-2.450,14.105,2,2,2,393,352,2025-06-06T10:08:37.063407
6996,0.0576,0.9238,0.1732,-0.420,-1.505,13.755,2,1,0,349,361,2025-06-06T10:08:37.243397
6997,0.0649,0.9326,0.1684,-2.275,-0.350,15.085,1,3,1,365,382,2025-06-06T10:08:37.243397
6998,-0.0927,0.9379,0.2196,-4.130,-14.805,100.695,0,1,0,349,387,2025-06-06T10:08:37.243397
6999,0.0181,0.9194,0.1771,-7.630,8.050,12.390,1,1,1,377,388,2025-06-06T10:08:37.243397
7000,0.0039,0.9248,0.1976,-5.810,4.235,10.710,1,2,2,386,357,2025-06-06T10:08:37.243397
7001,0.0146,0.9409,0.2186,-4.620,6.510,9.275,1,1,1,387,380,2025-06-06T10:08:37.243397
7002,0.0093,0.9511,0.2113,-6.300,9.520,10.955,2,2,2,382,376,2025-06-06T10:08:37.243397
7003,-0.0571,0.9931,0.2064,-2.730,-1.260,56.875,1,1,1,371,379,2025-06-06T10:08:37.243397
7004,-0.0034,0.9858,0.2611,-3.780,12.390,7.805,2,2,1,372,382,2025-06-06T10:08:37.243397
7005,-0.0117,0.9833,0.2625,-2.800,7.000,6.475,2,2,1,371,387,2025-06-06T10:08:37.243397
7006,-0.0146,0.9862,0.2630,-0.735,4.830,4.970,1,2,1,384,353,2025-06-06T10:08:37.243397
7007,-0.0283,0.9780,0.2611,-1.505,5.110,2.380,1,2,1,380,374,2025-06-06T10:08:37.243397
7008,-0.0547,0.9667,0.2674,-0.665,1.925,0.700,1,1,2,394,382,2025-06-06T10:08:37.244395
7009,-0.0459,0.9560,0.2621,1.190,-2.205,-0.980,2,2,1,397,351,2025-06-06T10:08:37.265539
7010,-0.0303,0.9740,0.2562,2.275,-4.235,-0.875,2,2,1,392,302,2025-06-06T10:08:37.265539
7011,-0.0015,0.9858,0.2362,3.045,-4.445,0.420,1,2,2,381,342,2025-06-06T10:08:37.265539
7012,0.0190,0.9843,0.2220,3.640,-4.270,2.135,1,2,2,396,374,2025-06-06T10:08:37.265539
7013,0.0166,0.9799,0.2206,4.060,-2.940,3.360,1,2,1,357,337,2025-06-06T10:08:37.265539
7014,-0.0029,0.9731,0.2313,4.795,-1.365,3.675,1,3,1,376,368,2025-06-06T10:08:37.265539
7015,-0.0205,0.9633,0.2377,3.955,-0.455,2.240,2,2,2,395,378,2025-06-06T10:08:37.265539
7016,-0.0317,0.9575,0.2474,3.780,0.140,-0.105,1,1,1,365,367,2025-06-06T10:08:37.265539
7017,-0.0342,0.9565,0.2591,4.025,0.700,-1.610,3,2,2,373,377,2025-06-06T10:08:37.367725
7018,-0.0351,0.9540,0.2484,5.670,0.000,-2.870,1,1,1,387,390,2025-06-06T10:08:37.367725
7019,-0.0054,0.9623,0.2333,7.420,-0.210,-3.220,2,2,2,399,393,2025-06-06T10:08:37.367725
7020,-0.0107,0.9594,0.2211,9.415,0.910,-3.360,2,2,2,397,393,2025-06-06T10:08:37.367725
7021,-0.0117,0.9545,0.2225,10.465,1.645,-3.080,1,1,1,401,386,2025-06-06T10:08:37.367725
7022,-0.0068,0.9584,0.2211,11.620,1.540,-2.765,2,2,1,390,398,2025-06-06T10:08:37.367725
7023,-0.0059,0.9628,0.2269,12.600,2.030,-2.100,1,2,1,380,359,2025-06-06T10:08:37.367725
7024,-0.0059,0.9658,0.2313,12.670,2.275,-1.470,1,1,1,384,389,2025-06-06T10:08:37.367725
7025,-0.0268,0.9496,0.2381,12.460,1.925,-1.365,1,1,2,386,396,2025-06-06T10:08:37.367725
7026,-0.0210,0.9565,0.2411,12.320,-0.315,-1.260,2,3,1,395,358,2025-06-06T10:08:37.506357
7027,-0.0166,0.9565,0.2338,10.710,-1.330,-0.770,1,2,1,390,349,2025-06-06T10:08:37.506935
7028,-0.0288,0.9560,0.2303,10.360,-1.260,-0.980,2,2,1,385,374,2025-06-06T10:08:37.506935
7029,-0.0327,0.9658,0.2303,8.855,-2.345,-1.470,2,3,2,392,375,2025-06-06T10:08:37.506935
7030,-0.0278,0.9672,0.2255,8.540,-3.185,-1.995,1,2,1,387,392,2025-06-06T10:08:37.506935
7031,-0.0356,0.9687,0.2196,8.610,-2.730,-2.450,3,1,1,396,363,2025-06-06T10:08:37.506935
7032,-0.0239,0.9765,0.2142,9.345,-3.325,-2.380,1,2,1,348,380,2025-06-06T10:08:37.506935
7033,-0.0200,0.9814,0.2118,10.080,-4.060,-1.820,2,2,1,379,396,2025-06-06T10:08:37.506935
7034,-0.0122,0.9843,0.2074,11.130,-3.990,-0.700,2,2,1,399,389,2025-06-06T10:08:37.506935
7035,-0.0142,0.9838,0.2137,11.130,-3.290,-0.070,1,1,1,394,391,2025-06-06T10:08:37.506935
7036,-0.0371,0.9775,0.2264,12.145,-3.360,0.665,2,2,2,389,400,2025-06-06T10:08:37.506935
7037,-0.0420,0.9721,0.2240,12.950,-3.675,1.015,1,2,1,395,386,2025-06-06T10:08:37.584462
7038,-0.0449,0.9750,0.2240,14.385,-3.395,1.225,2,1,1,402,394,2025-06-06T10:08:37.584462
7039,-0.0395,0.9794,0.2176,14.665,-3.360,1.995,2,2,2,394,353,2025-06-06T10:08:37.584462
7040,-0.0127,0.9950,0.2064,15.820,-3.955,2.975,1,2,1,391,356,2025-06-06T10:08:37.584462
7041,-0.0366,0.9965,0.2064,16.275,-2.765,3.500,2,3,2,393,363,2025-06-06T10:08:37.584462
7042,-0.0556,0.9823,0.2118,17.675,-2.800,3.045,1,1,1,395,363,2025-06-06T10:08:37.584462
7043,-0.0581,0.9911,0.1996,19.425,-2.870,2.345,2,2,1,397,373,2025-06-06T10:08:37.584462
7044,-0.0639,0.9926,0.1981,18.095,-4.585,1.715,2,2,1,395,376,2025-06-06T10:08:37.631457
7045,-0.0654,0.9984,0.2074,19.040,-5.005,1.085,2,1,1,389,385,2025-06-06T10:08:37.631457
7046,-0.0517,1.0077,0.2069,16.625,-7.490,1.470,2,3,2,395,380,2025-06-06T10:08:37.631457
7047,-0.0625,1.0116,0.1947,17.325,-9.870,1.505,2,2,2,352,371,2025-06-06T10:08:37.631457
7048,-0.0449,1.0121,0.1645,16.765,-12.565,1.015,1,2,2,373,374,2025-06-06T10:08:37.678679
7049,-0.0181,1.0365,0.1464,15.995,-15.225,-0.280,2,2,1,384,380,2025-06-06T10:08:37.678679
7050,-0.0010,1.0355,0.1098,13.615,-19.810,-3.255,1,1,1,375,378,2025-06-06T10:08:37.678679
7051,0.0839,1.0429,0.0693,11.655,-25.130,-6.300,2,2,1,369,386,2025-06-06T10:08:37.678679
7052,0.1986,1.0590,0.0517,0.420,-30.905,-10.675,1,1,1,375,387,2025-06-06T10:08:37.726401
7053,0.3460,1.1048,0.0127,2.835,-37.310,-16.590,2,1,1,345,373,2025-06-06T10:08:37.726401
7054,0.5378,1.1488,-0.0703,-4.935,-45.710,-22.715,2,2,1,371,396,2025-06-06T10:08:37.726401
7055,0.7071,1.1893,-0.0468,-15.155,-47.180,-31.325,1,2,1,387,389,2025-06-06T10:08:37.726401
7056,0.9526,1.2122,-0.0195,-37.205,-49.210,-40.915,2,3,1,395,396,2025-06-06T10:08:37.774478
7057,1.2102,1.2146,0.0224,-53.480,-49.700,-53.235,1,2,2,388,396,2025-06-06T10:08:37.774478
7058,1.3659,1.1468,0.0869,-71.995,-50.750,-70.035,2,2,2,394,401,2025-06-06T10:08:37.774478
7059,1.5396,1.0233,0.1142,-93.520,-60.795,-88.235,1,2,2,392,384,2025-06-06T10:08:37.774478
7060,1.7226,0.9145,-0.0390,-114.135,-73.570,-106.680,2,2,1,376,392,2025-06-06T10:08:37.981988
7061,1.7475,0.4782,-0.6090,-152.810,-81.305,-138.075,2,2,1,381,387,2025-06-06T10:08:37.981988
7062,1.5914,0.0654,-0.8872,-167.475,-78.050,-177.625,2,2,1,390,385,2025-06-06T10:08:37.981988
7063,1.2078,-0.5905,-0.9604,-194.670,-70.175,-238.245,1,2,2,395,392,2025-06-06T10:08:37.981988
7064,1.2698,-0.8037,-0.8291,-178.080,-54.040,-323.785,2,2,1,403,396,2025-06-06T10:08:37.981988
7065,-0.5729,-1.8217,-0.9692,-245.385,-77.175,-357.910,1,3,1,402,402,2025-06-06T10:08:37.981988
7066,-1.4489,-1.5660,-0.2108,-182.665,-36.120,-448.210,1,2,2,405,392,2025-06-06T10:08:37.981988
7067,-2.2658,-0.6915,0.6198,-193.585,-88.865,-519.645,1,1,1,390,399,2025-06-06T10:08:37.981988
7068,-2.2502,-0.8359,1.6734,-247.100,-107.240,-553.770,1,2,1,364,400,2025-06-06T10:08:37.981988
7069,-1.6504,-1.0838,2.3029,-264.355,-70.000,-542.535,1,1,1,365,401,2025-06-06T10:08:37.981988
7070,-1.9232,-0.4538,2.9773,-201.775,-2.660,-466.655,2,1,1,382,397,2025-06-06T10:08:37.981988
7071,-2.0555,-0.1137,3.5014,-176.820,38.045,-382.095,1,2,1,346,395,2025-06-06T10:08:37.981988
7072,-2.1238,0.0942,3.2096,-133.630,-47.320,-258.510,2,2,1,361,399,2025-06-06T10:08:37.981988
7073,-2.0755,0.4455,2.0691,-53.970,-153.125,-125.650,1,1,1,335,387,2025-06-06T10:08:37.981988
7074,-1.9476,0.6144,1.0043,-3.535,-230.475,-20.825,2,2,1,372,397,2025-06-06T10:08:37.981988
7075,-2.0052,0.3821,0.1786,16.520,-222.075,68.215,2,2,1,369,383,2025-06-06T10:08:37.981988
7076,-2.0311,0.0498,-0.2591,36.890,-183.785,106.470,1,3,1,386,363,2025-06-06T10:08:37.981988
7077,-1.6934,-0.1005,-0.5183,44.835,-134.225,103.530,2,2,2,347,372,2025-06-06T10:08:38.083671
7078,-1.2512,-0.0346,-0.3152,41.230,-77.000,91.735,1,2,1,368,348,2025-06-06T10:08:38.083671
7079,-0.8252,0.1786,0.1010,-20.405,-35.945,80.640,3,2,1,378,349,2025-06-06T10:08:38.083671
7080,-0.6178,0.1771,0.5056,-165.445,0.770,90.825,2,2,1,379,365,2025-06-06T10:08:38.083671
7081,-0.6202,0.1908,0.9950,-196.245,14.315,102.130,2,2,1,375,366,2025-06-06T10:08:38.083671
7082,-0.6510,0.0839,1.6480,-73.815,43.225,110.180,1,1,1,384,388,2025-06-06T10:08:38.083671
7083,-0.8657,0.1274,1.4684,31.640,56.595,114.765,1,2,1,394,393,2025-06-06T10:08:38.083671
7084,-1.0575,0.0747,1.5133,5.215,62.335,104.405,1,3,1,385,352,2025-06-06T10:08:38.083671
7085,-1.1024,0.1010,1.5016,-11.620,40.355,87.185,1,2,1,371,330,2025-06-06T10:08:38.083671
7086,-1.0404,0.1693,1.3161,0.945,-10.885,67.620,2,1,2,375,365,2025-06-06T10:08:38.221560
7087,-0.9013,0.2137,1.0707,-2.170,-38.220,50.610,1,2,2,397,385,2025-06-06T10:08:38.221560
7088,-0.7437,0.2645,0.9614,12.670,-58.415,43.225,2,2,2,399,350,2025-06-06T10:08:38.221560
7089,-0.5314,0.3889,0.8603,9.275,-74.830,52.045,1,2,2,390,380,2025-06-06T10:08:38.221560
7090,-0.4197,0.5754,0.7252,22.155,-94.185,101.150,2,2,1,385,381,2025-06-06T10:08:38.221560
7091,-0.3216,0.6124,0.5934,44.905,-96.285,145.495,1,2,1,351,382,2025-06-06T10:08:38.221560
7092,-0.0630,0.4070,0.5627,35.910,-81.760,102.830,1,2,1,366,390,2025-06-06T10:08:38.221560
7093,0.0239,0.4085,0.6149,69.860,-53.585,133.420,1,1,1,374,350,2025-06-06T10:08:38.221560
7094,-0.0093,0.4817,0.5827,79.450,-47.600,148.680,2,3,1,371,372,2025-06-06T10:08:38.221560
7095,-0.0342,0.4992,0.6173,71.715,-42.735,133.700,2,2,2,377,387,2025-06-06T10:08:38.221560
7096,-0.0498,0.5451,0.6949,68.775,-37.695,131.110,2,2,1,392,396,2025-06-06T10:08:38.221560
7097,-0.0752,0.5246,0.7798,78.890,-32.690,129.780,1,2,1,382,357,2025-06-06T10:08:38.398735
7098,-0.1244,0.5900,0.8413,93.555,-22.470,123.690,2,2,2,390,379,2025-06-06T10:08:38.398735
7099,-0.1889,0.5758,0.9004,107.520,-19.250,117.250,2,3,2,394,392,2025-06-06T10:08:38.398735
7100,-0.2167,0.6017,0.9331,131.075,-25.445,104.650,2,2,1,392,400,2025-06-06T10:08:38.398735
7101,-0.2186,0.6520,0.9331,155.225,-38.150,94.080,2,2,0,320,379,2025-06-06T10:08:38.398735
7102,-0.1186,0.7257,0.8769,191.590,-51.905,89.705,1,2,1,358,356,2025-06-06T10:08:38.398735
7103,-0.0590,0.8608,0.8359,162.960,-68.215,90.930,2,2,1,371,381,2025-06-06T10:08:38.398735
7104,-0.0234,0.8330,0.6354,33.670,-59.220,87.185,1,2,1,380,346,2025-06-06T10:08:38.398735
7105,0.0229,0.8013,0.6578,40.845,-48.790,89.320,1,1,1,373,371,2025-06-06T10:08:38.398735
7106,0.0386,0.7818,0.5041,55.265,-48.685,88.830,2,2,1,389,377,2025-06-06T10:08:38.398735
7107,0.0312,0.7344,0.5261,33.565,-48.685,82.705,2,2,1,393,373,2025-06-06T10:08:38.398735
7108,0.0278,0.7237,0.5675,56.805,-42.455,78.820,2,2,0,353,376,2025-06-06T10:08:38.398735
7109,0.0268,0.7476,0.5632,44.310,-36.995,75.775,1,2,1,359,388,2025-06-06T10:08:38.398735
7110,0.0586,0.7584,0.5627,43.120,-34.755,72.975,2,2,1,370,384,2025-06-06T10:08:38.398735
7111,0.0752,0.7691,0.5573,41.930,-34.055,71.260,2,2,1,341,394,2025-06-06T10:08:38.398735
7112,0.0727,0.7598,0.5378,38.745,-34.160,68.845,2,2,1,360,353,2025-06-06T10:08:38.445577
7113,0.0673,0.7354,0.5261,38.850,-34.370,65.485,2,2,2,371,373,2025-06-06T10:08:38.445577
7114,0.0800,0.7418,0.5275,38.745,-34.545,62.510,1,2,1,385,388,2025-06-06T10:08:38.445577
7115,0.1059,0.7413,0.5144,37.485,-34.685,58.520,1,1,2,395,394,2025-06-06T10:08:38.445577
7116,0.1171,0.7408,0.4924,37.170,-34.615,53.935,2,2,1,389,395,2025-06-06T10:08:38.494715
7117,0.1508,0.7296,0.4826,32.655,-31.465,48.370,2,3,1,378,395,2025-06-06T10:08:38.494715
7118,0.1440,0.7208,0.4665,25.690,-28.420,41.475,1,3,1,379,384,2025-06-06T10:08:38.494715
7119,0.1547,0.7139,0.4553,27.930,-24.045,33.495,2,3,2,389,388,2025-06-06T10:08:38.494715
7120,0.1645,0.6993,0.4412,17.010,-14.000,26.425,1,2,1,379,383,2025-06-06T10:08:38.596713
7121,0.1864,0.6993,0.4441,15.260,-4.620,18.200,2,3,1,394,399,2025-06-06T10:08:38.596713
7122,0.1801,0.7242,0.4690,10.920,3.745,11.270,2,2,2,355,390,2025-06-06T10:08:38.596713
7123,0.1762,0.7618,0.4934,7.035,9.730,6.860,1,2,1,367,395,2025-06-06T10:08:38.596713
7124,0.1484,0.7769,0.5100,2.555,12.460,3.815,2,2,2,387,387,2025-06-06T10:08:38.596713
7125,0.1122,0.7857,0.5417,1.400,11.970,1.890,1,2,1,378,382,2025-06-06T10:08:38.596713
7126,0.0908,0.7984,0.5719,0.280,9.520,-0.070,2,2,1,357,390,2025-06-06T10:08:38.596713
7127,0.0630,0.7901,0.5710,-0.770,7.105,-2.345,1,3,1,375,383,2025-06-06T10:08:38.596713
7128,0.0576,0.7915,0.5768,-2.030,6.265,-5.670,2,2,2,389,378,2025-06-06T10:08:38.702213
7129,0.0698,0.8184,0.5822,-3.535,4.550,-7.315,2,2,1,390,391,2025-06-06T10:08:38.702213
7130,0.0654,0.8325,0.5949,-5.775,3.885,-7.945,1,2,1,350,392,2025-06-06T10:08:38.702213
7131,0.0693,0.8403,0.5963,-7.315,1.120,-6.930,2,3,1,371,354,2025-06-06T10:08:38.702213
7132,0.0849,0.8550,0.5841,-8.365,-0.770,-5.320,1,3,1,371,375,2025-06-06T10:08:38.702213
7133,0.0771,0.8457,0.5636,-9.415,-0.910,-4.725,2,3,1,345,372,2025-06-06T10:08:38.702213
7134,0.0615,0.8159,0.5470,-9.765,0.175,-6.125,1,3,2,370,380,2025-06-06T10:08:38.702213
7135,0.0473,0.8076,0.5544,-8.645,3.570,-8.820,1,2,1,374,347,2025-06-06T10:08:38.702213
7136,0.0327,0.8081,0.5714,-7.840,7.000,-12.635,1,2,1,375,375,2025-06-06T10:08:38.702213
7137,-0.0005,0.8169,0.5890,-7.140,7.035,-14.315,1,2,2,395,370,2025-06-06T10:08:38.800258
7138,-0.0054,0.8267,0.5993,-6.055,6.230,-14.630,2,2,1,398,341,2025-06-06T10:08:38.800258
7139,-0.0010,0.8262,0.5924,-4.690,4.830,-14.175,2,2,1,378,333,2025-06-06T10:08:38.800258
7140,0.0054,0.8257,0.5846,-3.605,4.935,-13.545,2,2,2,391,355,2025-06-06T10:08:38.800258
7141,0.0093,0.8291,0.5690,-4.130,3.745,-11.760,2,3,1,380,368,2025-06-06T10:08:38.800258
7142,0.0268,0.8306,0.5539,-3.465,2.590,-8.820,2,2,1,390,382,2025-06-06T10:08:38.800258
7143,0.0249,0.8340,0.5607,-3.185,3.010,-6.685,1,2,1,380,355,2025-06-06T10:08:38.800258
7144,0.0127,0.8355,0.5924,-4.025,2.765,-3.815,2,2,1,384,371,2025-06-06T10:08:38.800258
7145,0.0083,0.8335,0.6076,-3.920,0.245,0.210,2,2,1,381,386,2025-06-06T10:08:38.800258
7146,0.0254,0.8428,0.6232,-3.780,-1.645,3.990,2,2,1,380,386,2025-06-06T10:08:38.953138
7147,0.0346,0.8398,0.6373,-4.410,-2.765,7.490,2,2,2,394,376,2025-06-06T10:08:38.953138
7148,0.0312,0.8325,0.6422,-7.140,-2.940,9.730,2,3,1,396,386,2025-06-06T10:08:38.953138
7149,0.0400,0.8189,0.6427,-7.630,-4.060,11.480,2,2,2,391,381,2025-06-06T10:08:38.953138
7150,0.0322,0.8052,0.6285,-8.610,-3.780,11.620,2,2,2,381,387,2025-06-06T10:08:39.027057
7151,0.0117,0.7847,0.6159,-8.680,-3.220,10.115,2,2,2,398,392,2025-06-06T10:08:39.027057
7152,0.0093,0.7774,0.6212,-7.700,-3.010,7.980,1,2,1,394,389,2025-06-06T10:08:39.027057
7153,0.0024,0.7784,0.6310,-6.230,-3.465,6.125,2,2,1,398,391,2025-06-06T10:08:39.027057
7154,0.0083,0.7808,0.6422,-5.460,-4.060,4.900,2,2,1,389,398,2025-06-06T10:08:39.027057
7155,0.0273,0.7959,0.6373,-4.620,-5.880,4.935,2,1,1,348,321,2025-06-06T10:08:39.027057
7156,0.0317,0.8023,0.6407,-3.955,-6.650,5.705,1,3,1,354,354,2025-06-06T10:08:39.027057
7157,0.0244,0.7979,0.6403,-3.220,-7.805,6.195,1,2,1,365,375,2025-06-06T10:08:39.027057
7158,0.0166,0.7935,0.6505,-1.855,-9.135,6.405,3,2,2,344,354,2025-06-06T10:08:39.027057
7159,0.0063,0.8067,0.6617,-0.560,-12.355,7.455,2,2,1,353,373,2025-06-06T10:08:39.027057
7160,0.0176,0.8194,0.6627,0.595,-15.925,9.485,2,2,0,336,380,2025-06-06T10:08:39.027057
7161,0.0190,0.8145,0.6549,0.875,-18.795,10.780,1,2,1,364,359,2025-06-06T10:08:39.027057
7162,0.0268,0.8076,0.6520,1.225,-20.860,11.830,1,1,2,374,375,2025-06-06T10:08:39.027057
7163,0.0254,0.8028,0.6515,1.855,-21.770,11.935,2,3,1,379,392,2025-06-06T10:08:39.027057
7164,0.0434,0.7998,0.6456,2.030,-21.595,11.935,1,2,1,384,402,2025-06-06T10:08:39.027057
7165,0.0527,0.7989,0.6212,1.190,-21.420,12.180,2,2,2,393,400,2025-06-06T10:08:39.209857
7166,0.0566,0.7876,0.6022,2.275,-20.090,11.830,2,3,1,385,389,2025-06-06T10:08:39.209857
7167,0.0688,0.7832,0.5900,2.485,-18.130,10.535,1,2,1,390,400,2025-06-06T10:08:39.209857
7168,0.0615,0.7798,0.5861,2.905,-14.665,9.135,1,3,1,387,397,2025-06-06T10:08:39.209857
7169,0.0649,0.7691,0.5851,3.500,-11.445,6.930,1,3,2,383,385,2025-06-06T10:08:39.209857
7170,0.0610,0.7720,0.5958,4.970,-8.015,4.200,1,2,1,377,395,2025-06-06T10:08:39.209857
7171,0.0439,0.7925,0.6134,5.320,-6.265,1.995,1,2,1,375,397,2025-06-06T10:08:39.209857
7172,0.0556,0.8047,0.6256,4.725,-5.075,0.700,1,2,1,390,390,2025-06-06T10:08:39.209857
7173,0.0630,0.8086,0.6324,4.690,-4.655,0.630,2,3,1,383,384,2025-06-06T10:08:39.209857
7174,0.0698,0.8179,0.6344,4.515,-3.955,0.805,1,2,2,375,389,2025-06-06T10:08:39.210854
7175,0.0678,0.8125,0.6315,4.340,-2.450,1.120,1,2,1,374,389,2025-06-06T10:08:39.210854
7176,0.0756,0.8120,0.6285,4.970,-1.435,1.610,2,2,1,372,402,2025-06-06T10:08:39.210854
7177,0.0800,0.8081,0.6285,6.895,-0.490,2.415,2,1,1,373,401,2025-06-06T10:08:39.210854
7178,0.0688,0.8111,0.6310,8.925,0.350,2.905,1,2,1,377,405,2025-06-06T10:08:39.210854
7179,0.0551,0.8047,0.6315,10.850,1.260,3.465,1,2,1,386,408,2025-06-06T10:08:39.210854
7180,0.0444,0.8037,0.6295,9.485,-0.245,3.430,2,2,1,384,410,2025-06-06T10:08:39.294567
7181,0.0390,0.8057,0.6373,11.130,-1.575,3.115,2,2,1,385,408,2025-06-06T10:08:39.294567
7182,0.0249,0.8042,0.6588,14.070,-3.535,2.660,2,2,2,392,392,2025-06-06T10:08:39.294567
7183,0.0337,0.8218,0.6730,16.660,-5.145,2.520,1,2,1,352,389,2025-06-06T10:08:39.294567
7184,0.0537,0.8369,0.6730,18.235,-6.475,3.220,1,1,1,359,384,2025-06-06T10:08:39.413942
7185,0.0664,0.8394,0.6676,20.720,-6.860,4.410,2,3,1,380,361,2025-06-06T10:08:39.413942
7186,0.0747,0.8438,0.6671,19.915,-6.510,5.565,2,3,1,342,380,2025-06-06T10:08:39.413942
7187,0.0849,0.8457,0.6700,20.615,-6.440,7.700,2,2,1,363,375,2025-06-06T10:08:39.413942
7188,0.0791,0.8350,0.6686,21.875,-6.615,9.310,2,2,1,366,358,2025-06-06T10:08:39.413942
7189,0.0630,0.8447,0.6788,24.080,-6.230,9.905,1,2,1,373,370,2025-06-06T10:08:39.413942
7190,0.0551,0.8496,0.6978,24.780,-7.525,10.780,1,3,2,348,379,2025-06-06T10:08:39.413942
7191,0.0571,0.8491,0.7066,27.230,-8.470,10.500,2,3,1,357,376,2025-06-06T10:08:39.413942
7192,0.0595,0.8647,0.7252,27.720,-9.485,9.625,1,1,1,370,393,2025-06-06T10:08:39.413942
7193,0.0503,0.8477,0.7335,25.865,-11.900,8.365,2,2,0,360,394,2025-06-06T10:08:39.413942
7194,0.0342,0.8413,0.7569,28.210,-12.985,5.285,1,1,1,379,403,2025-06-06T10:08:39.413942
7195,0.0508,0.8398,0.7462,25.165,-16.590,2.275,1,2,1,390,395,2025-06-06T10:08:39.413942
7196,0.0547,0.8545,0.6525,20.440,-20.300,-2.555,1,2,1,386,405,2025-06-06T10:08:39.413942
7197,0.0366,0.8491,0.5856,19.845,-21.455,-11.305,1,2,1,390,363,2025-06-06T10:08:39.523147
7198,0.0551,0.8467,0.4778,12.565,-23.555,-21.280,2,3,2,383,370,2025-06-06T10:08:39.523147
7199,0.1498,0.8408,0.3304,8.330,-21.315,-31.675,2,2,1,380,341,2025-06-06T10:08:39.523147
7200,0.2464,0.8994,0.2567,1.855,-19.390,-40.215,2,2,1,383,362,2025-06-06T10:08:39.523147
7201,0.3318,0.9248,0.1903,-11.690,-12.600,-46.515,2,3,2,399,377,2025-06-06T10:08:39.523147
7202,0.4329,0.9579,0.1352,-25.060,-4.970,-55.650,0,2,1,366,351,2025-06-06T10:08:39.523147
7203,0.6261,1.0492,0.0400,-42.315,-4.270,-60.585,1,3,1,338,379,2025-06-06T10:08:39.523147
7204,0.8877,1.1434,-0.1591,-64.330,2.485,-65.975,1,2,1,370,397,2025-06-06T10:08:39.523147
7205,1.2049,1.1209,-0.3406,-101.605,14.420,-72.380,3,2,1,386,402,2025-06-06T10:08:39.523147
7206,1.4455,1.1370,-0.5236,-130.585,23.485,-77.175,2,3,2,399,389,2025-06-06T10:08:39.571395
7207,1.7505,1.1161,-0.7432,-162.120,30.100,-80.780,1,2,2,386,397,2025-06-06T10:08:39.571395
7208,2.2853,1.1854,-1.2605,-202.055,19.635,-78.785,2,2,1,380,405,2025-06-06T10:08:39.571395
7209,2.6533,1.0687,-1.6675,-252.595,41.580,-76.650,1,2,1,391,401,2025-06-06T10:08:39.571395
7210,2.1189,0.5680,-1.9086,-330.785,99.295,-106.435,2,2,2,385,404,2025-06-06T10:08:39.658216
7211,1.5294,0.1147,-1.7192,-470.435,158.025,-201.810,2,2,1,392,364,2025-06-06T10:08:39.658216
7212,0.2547,0.8926,-1.3293,-689.815,193.550,-139.335,2,2,2,393,376,2025-06-06T10:08:39.658216
7213,-0.7823,-0.7476,-1.1819,-654.990,106.540,-157.850,1,2,1,389,389,2025-06-06T10:08:39.658216
7214,-2.1062,-0.9423,0.1884,-58.835,201.005,-187.880,1,2,1,385,396,2025-06-06T10:08:39.835947
7215,-3.3413,-1.2546,1.5811,0.070,240.940,-267.295,2,2,2,398,407,2025-06-06T10:08:39.835947
7216,-3.0412,-1.6865,2.6181,-28.210,262.570,-336.630,1,3,1,386,365,2025-06-06T10:08:39.835947
7217,-2.9910,-1.8354,2.8255,-7.910,190.225,-388.465,1,1,1,368,346,2025-06-06T10:08:39.835947
7218,-1.7988,-1.8969,3.2940,2.625,153.615,-360.325,2,3,2,380,334,2025-06-06T10:08:39.835947
7219,-1.3644,-1.0253,3.9264,15.960,61.075,-275.905,0,2,1,385,349,2025-06-06T10:08:39.835947
7220,-1.4660,-0.5661,3.5400,-119.665,-11.935,-158.515,1,2,1,378,344,2025-06-06T10:08:39.835947
7221,-1.1995,-0.2333,2.3853,8.575,-189.455,-49.350,2,2,1,390,361,2025-06-06T10:08:39.835947
7222,-0.9858,-0.0634,0.8218,125.125,-305.305,45.640,1,2,1,396,370,2025-06-06T10:08:39.835947
7223,-1.3449,-0.4880,0.1781,111.965,-252.035,92.365,3,2,1,401,381,2025-06-06T10:08:39.835947
7224,-1.6680,-0.8760,-0.4099,36.785,-151.795,62.020,2,2,1,392,350,2025-06-06T10:08:39.835947
7225,-1.1414,-0.8911,-0.6022,-24.360,-74.165,-1.330,2,2,1,344,327,2025-06-06T10:08:39.835947
7226,-0.6398,-0.2664,-0.0010,-124.600,-23.765,-30.625,2,3,2,361,361,2025-06-06T10:08:39.835947
7227,-0.3802,0.0356,0.5876,-196.455,-23.625,-34.650,1,2,1,378,383,2025-06-06T10:08:39.835947
7228,-0.4133,0.1786,0.7998,-179.725,-8.890,-18.025,2,2,1,391,391,2025-06-06T10:08:39.835947
7229,-0.5266,0.1688,1.3669,-56.035,80.430,3.500,2,2,2,393,397,2025-06-06T10:08:39.835947
7230,-0.6739,0.0781,1.4562,-4.900,69.930,15.785,2,3,1,379,396,2025-06-06T10:08:39.835947
7231,-0.7662,0.0664,1.6509,-19.180,48.055,11.725,1,2,1,389,397,2025-06-06T10:08:39.835947
7232,-0.8052,0.0620,1.7392,12.110,10.185,4.410,1,1,1,382,394,2025-06-06T10:08:39.881311
7233,-0.7769,0.1025,1.7387,31.185,-7.525,4.130,3,3,1,386,399,2025-06-06T10:08:39.881311
7234,-0.6788,0.1244,1.6729,29.820,-23.415,10.850,1,1,1,374,368,2025-06-06T10:08:39.881311
7235,-0.6076,0.1205,1.5055,42.350,-50.680,26.600,2,2,1,377,376,2025-06-06T10:08:39.881311
7236,-0.4426,-0.1244,1.3879,68.180,-71.925,44.800,2,2,1,388,377,2025-06-06T10:08:40.064827
7237,-0.4465,-0.0107,1.1326,86.030,-86.030,55.055,2,2,1,386,380,2025-06-06T10:08:40.064827
7238,-0.3221,-0.1098,0.8374,198.975,-72.905,64.435,2,3,1,350,391,2025-06-06T10:08:40.064827
7239,-0.3577,0.1142,0.5446,227.920,-66.955,66.780,2,2,2,379,396,2025-06-06T10:08:40.064827
7240,-0.3977,0.0332,0.6090,206.920,-54.915,58.415,2,2,2,399,388,2025-06-06T10:08:40.064827
7241,-0.3138,0.0737,0.6451,158.515,-39.200,53.375,1,1,1,400,399,2025-06-06T10:08:40.064827
7242,-0.2743,0.1191,0.6856,169.540,-33.565,54.915,1,0,1,394,392,2025-06-06T10:08:40.064827
7243,-0.2640,0.2694,0.7305,109.095,-27.440,45.150,1,2,1,380,392,2025-06-06T10:08:40.064827
7244,-0.2206,0.2855,0.8691,60.620,-29.715,52.010,2,0,1,388,386,2025-06-06T10:08:40.064827
7245,-0.1928,0.3104,0.9165,86.310,-31.010,56.210,1,2,0,350,380,2025-06-06T10:08:40.064827
7246,-0.1937,0.3767,0.8779,76.790,-32.620,54.180,2,2,1,370,378,2025-06-06T10:08:40.064827
7247,-0.1645,0.4250,0.9004,75.005,-35.665,51.555,1,0,1,376,356,2025-06-06T10:08:40.064827
7248,-0.1679,0.4612,0.8677,77.840,-32.830,48.475,2,2,1,376,366,2025-06-06T10:08:40.064827
7249,-0.1508,0.6212,0.8194,70.700,-28.420,45.570,2,2,1,386,350,2025-06-06T10:08:40.064827
7250,-0.0961,0.5236,0.8130,64.540,-23.240,43.155,2,3,1,391,376,2025-06-06T10:08:40.064827
7251,-0.0615,0.5510,0.8062,59.080,-16.905,42.595,2,2,2,399,376,2025-06-06T10:08:40.130550
7252,-0.0268,0.5539,0.7501,49.735,-9.940,43.015,2,2,2,396,388,2025-06-06T10:08:40.130550
7253,-0.0234,0.5388,0.7056,39.865,-2.415,42.910,1,3,1,391,389,2025-06-06T10:08:40.130550
7254,-0.0156,0.5475,0.6891,32.550,9.135,42.665,2,2,1,394,356,2025-06-06T10:08:40.130550
7255,-0.0386,0.5568,0.6900,28.525,12.460,41.650,1,3,2,394,370,2025-06-06T10:08:40.284663
7256,-0.0844,0.5651,0.6930,23.520,14.840,39.795,3,3,2,382,386,2025-06-06T10:08:40.284663
7257,-0.0888,0.5880,0.7008,18.970,14.665,38.955,2,2,1,391,386,2025-06-06T10:08:40.284663
7258,-0.1137,0.6002,0.6964,24.885,7.315,38.255,2,2,1,388,363,2025-06-06T10:08:40.284663
7259,-0.1044,0.6310,0.6974,26.740,1.190,38.745,2,2,1,380,367,2025-06-06T10:08:40.284663
7260,-0.0854,0.6285,0.7008,25.690,-2.590,40.425,1,3,2,391,374,2025-06-06T10:08:40.284663
7261,-0.0649,0.6198,0.7198,24.290,-5.950,41.825,1,2,2,399,372,2025-06-06T10:08:40.284663
7262,-0.0508,0.6178,0.7437,24.920,-9.590,42.595,1,2,2,391,374,2025-06-06T10:08:40.284663
7263,-0.0439,0.5924,0.7530,28.175,-11.480,41.510,1,2,1,386,391,2025-06-06T10:08:40.284663
7264,-0.0566,0.6388,0.7706,27.020,-8.995,40.005,1,1,1,382,382,2025-06-06T10:08:40.284663
7265,-0.0781,0.6344,0.7627,23.345,-8.820,37.450,2,2,1,344,378,2025-06-06T10:08:40.284663
7266,-0.0839,0.6364,0.7803,20.370,-7.945,35.420,2,1,2,364,393,2025-06-06T10:08:40.284663
7267,-0.0917,0.6403,0.7754,22.540,-11.130,33.320,1,1,1,374,396,2025-06-06T10:08:40.284663
7268,-0.0771,0.6393,0.7525,24.115,-13.650,31.570,2,2,2,393,397,2025-06-06T10:08:40.472689
7269,-0.0493,0.6393,0.7164,24.045,-13.265,29.890,1,2,2,399,398,2025-06-06T10:08:40.472689
7270,-0.0361,0.6412,0.6915,22.085,-10.675,27.300,1,2,2,404,393,2025-06-06T10:08:40.472689
7271,-0.0434,0.6422,0.6856,18.900,-7.420,24.220,2,2,1,406,391,2025-06-06T10:08:40.472689
7272,-0.0390,0.6407,0.6939,21.630,-6.580,21.980,1,1,1,386,390,2025-06-06T10:08:40.472689
7273,-0.0303,0.6559,0.7105,21.665,-4.550,21.000,1,2,1,392,390,2025-06-06T10:08:40.472689
7274,-0.0386,0.6651,0.7115,20.440,-3.010,20.370,1,2,0,354,384,2025-06-06T10:08:40.472689
7275,-0.0303,0.6676,0.7286,19.040,-2.940,20.020,1,2,1,367,351,2025-06-06T10:08:40.472689
7276,-0.0273,0.6564,0.7183,18.935,-3.640,19.810,1,1,1,382,375,2025-06-06T10:08:40.472689
7277,-0.0532,0.6515,0.7169,19.320,-2.205,18.060,1,1,1,393,378,2025-06-06T10:08:40.472689
7278,-0.0551,0.6476,0.7178,15.120,-1.015,16.415,1,2,1,354,388,2025-06-06T10:08:40.472689
7279,-0.0600,0.6437,0.7159,14.210,1.540,13.020,2,2,1,377,399,2025-06-06T10:08:40.472689
7280,-0.0834,0.6608,0.7359,13.405,3.010,9.520,0,1,2,378,403,2025-06-06T10:08:40.472689
7281,-0.0903,0.6764,0.7408,11.025,3.360,7.140,1,2,1,375,396,2025-06-06T10:08:40.472689
7282,-0.0893,0.6852,0.7530,9.905,3.710,6.090,1,2,1,380,400,2025-06-06T10:08:40.472689
7283,-0.0922,0.6905,0.7691,8.820,2.520,5.810,2,3,1,378,406,2025-06-06T10:08:40.472689
7284,-0.0815,0.6969,0.7676,7.840,1.330,7.035,1,1,1,382,396,2025-06-06T10:08:40.472689
7285,-0.0693,0.6983,0.7481,6.335,-8.925,9.625,1,2,1,381,358,2025-06-06T10:08:40.561980
7286,-0.0791,0.6895,0.7383,5.250,-1.365,11.235,2,2,1,373,369,2025-06-06T10:08:40.561980
7287,-0.1083,0.6730,0.7359,4.305,-2.135,11.130,2,2,1,342,367,2025-06-06T10:08:40.561980
7288,-0.1357,0.6622,0.7374,4.095,-3.500,9.555,1,2,2,373,388,2025-06-06T10:08:40.561980
7289,-0.1205,0.6647,0.7359,4.690,-4.760,8.015,1,2,1,386,402,2025-06-06T10:08:40.561980
7290,-0.1166,0.6666,0.7291,3.885,-5.600,7.000,2,2,1,350,363,2025-06-06T10:08:40.561980
7291,-0.1161,0.6612,0.7300,3.570,-5.145,5.950,2,2,1,365,371,2025-06-06T10:08:40.561980
7292,-0.1176,0.6622,0.7325,3.325,-5.915,4.620,2,2,1,377,346,2025-06-06T10:08:40.561980
7293,-0.1074,0.6647,0.7369,3.115,-5.530,3.570,2,3,1,373,363,2025-06-06T10:08:40.754263
7294,-0.0776,0.6764,0.7144,1.680,-4.865,3.815,1,2,2,386,383,2025-06-06T10:08:40.754263
7295,-0.0795,0.6715,0.7047,2.660,-3.115,3.920,2,2,2,387,385,2025-06-06T10:08:40.754263
7296,-0.0849,0.6690,0.7286,2.450,-1.680,4.025,1,2,2,394,399,2025-06-06T10:08:40.931024
7297,-0.0712,0.6793,0.7305,1.715,-0.805,4.515,2,1,1,404,393,2025-06-06T10:08:40.931024
7298,-0.0561,0.6798,0.7296,2.030,0.175,5.320,1,2,1,384,361,2025-06-06T10:08:40.931024
7299,-0.0708,0.6783,0.7335,1.470,1.435,5.705,1,1,2,375,368,2025-06-06T10:08:40.931024
7300,-0.0673,0.6744,0.7569,0.910,1.260,5.740,1,2,1,373,372,2025-06-06T10:08:40.931024
7301,-0.0917,0.6690,0.7749,0.595,0.315,5.460,2,2,0,309,376,2025-06-06T10:08:40.931024
7302,-0.0830,0.6725,0.7784,-0.420,-0.910,5.075,1,2,1,358,398,2025-06-06T10:08:40.931024
7303,-0.0844,0.6656,0.7735,-0.945,-1.225,4.340,2,2,1,382,372,2025-06-06T10:08:40.931024
7304,-0.0717,0.6656,0.7906,-0.770,-2.485,4.305,2,1,1,341,339,2025-06-06T10:08:40.931024
7305,-0.0610,0.6603,0.7993,-1.960,-3.010,4.445,1,2,1,368,368,2025-06-06T10:08:40.931024
7306,-0.0542,0.6481,0.7940,-1.820,-2.520,4.445,1,1,1,376,379,2025-06-06T10:08:40.931024
7307,-0.0556,0.6417,0.7784,-1.575,-2.625,4.375,1,2,1,389,374,2025-06-06T10:08:40.931024
7308,-0.0542,0.6339,0.7691,-1.120,-2.135,3.640,2,3,1,393,394,2025-06-06T10:08:40.954509
7309,-0.0498,0.6276,0.7579,1.015,-1.260,2.485,1,2,2,399,380,2025-06-06T10:08:40.954509
7310,-0.0708,0.6334,0.7613,0.525,-1.015,1.365,2,2,1,394,386,2025-06-06T10:08:40.954509
7311,-0.0859,0.6129,0.7554,0.805,-0.700,-0.560,1,2,1,383,387,2025-06-06T10:08:40.954509
7312,-0.0834,0.6354,0.7867,3.150,-1.085,-1.785,2,2,1,390,400,2025-06-06T10:08:40.954509
7313,-0.0976,0.6407,0.7881,2.835,-2.135,-2.590,2,3,1,395,388,2025-06-06T10:08:40.954509
7314,-0.0917,0.6471,0.7881,3.290,-2.590,-2.590,1,1,1,395,385,2025-06-06T10:08:40.954509
7315,-0.0810,0.6568,0.7901,3.430,-4.445,-1.540,2,2,1,395,387,2025-06-06T10:08:40.954509
7316,-0.0815,0.6583,0.7871,3.465,-6.580,0.420,2,1,1,384,360,2025-06-06T10:08:40.954509
7317,-0.0771,0.6573,0.7671,2.730,-9.170,1.680,2,2,1,390,383,2025-06-06T10:08:40.954509
7318,-0.0810,0.6505,0.7574,2.590,-10.570,2.660,1,2,1,395,383,2025-06-06T10:08:40.954509
7319,-0.1078,0.6407,0.7510,2.765,-12.110,2.310,1,2,1,396,355,2025-06-06T10:08:40.954509
7320,-0.1196,0.6373,0.7525,3.115,-12.600,0.280,2,2,1,399,369,2025-06-06T10:08:40.954509
7321,-0.1288,0.6398,0.7569,3.535,-12.950,-1.470,1,2,1,400,388,2025-06-06T10:08:40.954509
7322,-0.1176,0.6437,0.7569,2.625,-13.055,-3.255,2,2,1,395,389,2025-06-06T10:08:40.954509
7323,-0.0996,0.6573,0.7584,2.870,-13.300,-3.745,1,1,1,394,348,2025-06-06T10:08:40.954509
7324,-0.0956,0.6627,0.7530,2.835,-12.215,-3.955,2,1,1,378,373,2025-06-06T10:08:40.954509
7325,-0.0825,0.6681,0.7593,2.415,-11.620,-3.360,2,3,1,382,381,2025-06-06T10:08:41.010390
7326,-0.0922,0.6681,0.7496,2.065,-11.025,-2.275,2,1,2,384,394,2025-06-06T10:08:41.010390
7327,-0.0991,0.6720,0.7496,3.080,-11.130,-1.295,2,2,2,380,402,2025-06-06T10:08:41.010390
7328,-0.0956,0.6744,0.7559,3.640,-11.515,0.315,1,2,1,390,406,2025-06-06T10:08:41.010390
7329,-0.0805,0.6852,0.7535,3.465,-12.565,2.870,1,3,2,401,406,2025-06-06T10:08:41.010390
7330,-0.0781,0.6832,0.7422,3.255,-11.970,5.075,2,2,1,399,406,2025-06-06T10:08:41.191843
7331,-0.0795,0.6798,0.7520,3.430,-12.110,6.510,2,2,2,397,383,2025-06-06T10:08:41.191843
7332,-0.0874,0.6710,0.7520,3.605,-11.795,6.790,2,2,1,383,384,2025-06-06T10:08:41.191843
7333,-0.0932,0.6671,0.7442,4.235,-10.255,5.460,2,2,1,377,390,2025-06-06T10:08:41.191843
7334,-0.0971,0.6642,0.7466,3.710,-8.505,3.535,2,3,1,392,388,2025-06-06T10:08:41.191843
7335,-0.0981,0.6661,0.7457,3.500,-6.580,1.120,3,2,1,389,382,2025-06-06T10:08:41.191843
7336,-0.0859,0.6749,0.7652,3.325,-4.970,-0.140,1,2,1,392,351,2025-06-06T10:08:41.191843
7337,-0.0810,0.6822,0.7764,2.905,-4.060,-0.245,2,1,1,382,363,2025-06-06T10:08:41.191843
7338,-0.0634,0.6856,0.7832,3.290,-3.920,1.260,1,2,1,373,369,2025-06-06T10:08:41.191843
7339,-0.0590,0.6944,0.7910,4.340,-4.795,3.465,1,1,1,381,384,2025-06-06T10:08:41.191843
7340,-0.0688,0.6944,0.7784,4.830,-5.775,5.425,0,3,1,389,386,2025-06-06T10:08:41.191843
7341,-0.0815,0.6886,0.7642,6.265,-7.245,6.440,2,1,1,389,392,2025-06-06T10:08:41.191843
7342,-0.0791,0.6827,0.7696,8.400,-8.050,7.000,2,2,1,388,385,2025-06-06T10:08:41.191843
7343,-0.0600,0.6876,0.7710,9.870,-9.520,7.770,1,2,1,390,387,2025-06-06T10:08:41.191843
7344,-0.0561,0.6788,0.7647,10.955,-9.170,8.015,2,1,2,390,398,2025-06-06T10:08:41.191843
7345,-0.0649,0.6749,0.7798,13.300,-8.190,7.245,2,2,2,400,402,2025-06-06T10:08:41.191843
7346,-0.0444,0.6812,0.7837,14.875,-6.965,6.230,1,1,1,398,395,2025-06-06T10:08:41.379294
7347,-0.0346,0.6852,0.7706,14.805,-4.690,5.040,1,2,1,380,350,2025-06-06T10:08:41.379294
7348,-0.0312,0.6842,0.7657,17.255,-1.575,4.165,2,2,1,387,374,2025-06-06T10:08:41.379294
7349,-0.0420,0.6954,0.7774,18.830,0.105,3.045,1,1,1,396,388,2025-06-06T10:08:41.379294
7350,-0.0351,0.6959,0.7779,19.950,1.610,2.660,2,2,2,389,386,2025-06-06T10:08:41.379294
7351,-0.0312,0.6905,0.7930,22.260,4.620,1.295,1,0,1,386,399,2025-06-06T10:08:41.379294
7352,-0.0425,0.7110,0.8057,23.800,7.000,0.245,2,3,1,363,398,2025-06-06T10:08:41.379294
7353,-0.0561,0.7110,0.8067,24.920,8.015,-0.665,2,1,1,380,402,2025-06-06T10:08:41.379294
7354,-0.0664,0.7135,0.8125,29.540,8.750,-1.925,1,2,1,385,404,2025-06-06T10:08:41.379294
7355,-0.0678,0.7291,0.8301,32.830,8.190,-2.695,2,1,1,374,395,2025-06-06T10:08:41.379294
7356,-0.0634,0.7286,0.8306,35.595,10.045,-3.885,1,1,1,376,361,2025-06-06T10:08:41.379294
7357,-0.0268,0.7276,0.8423,38.465,12.005,-3.325,2,2,1,374,374,2025-06-06T10:08:41.379294
7358,-0.0112,0.7281,0.8398,42.350,15.225,-3.220,1,1,1,372,388,2025-06-06T10:08:41.379294
7359,0.0200,0.7530,0.8413,45.675,20.930,-2.450,2,1,2,387,395,2025-06-06T10:08:41.379294
7360,-0.0098,0.7520,0.8359,49.945,26.495,-1.995,1,2,2,394,407,2025-06-06T10:08:41.564381
7361,0.0029,0.7540,0.8330,56.315,33.495,-2.765,2,1,1,392,406,2025-06-06T10:08:41.564381
7362,0.0073,0.7706,0.8306,61.845,42.175,-3.535,2,2,1,387,388,2025-06-06T10:08:41.564381
7363,0.0088,0.7989,0.7906,67.165,51.940,-3.605,1,2,1,373,385,2025-06-06T10:08:41.564381
7364,0.0537,0.8486,0.7110,73.465,60.515,-1.680,2,1,1,372,392,2025-06-06T10:08:41.564381
7365,-0.0273,0.8886,0.5783,81.095,79.485,-0.840,2,2,2,385,382,2025-06-06T10:08:41.564381
7366,-0.0981,0.9087,0.5261,89.460,79.765,-0.665,2,2,1,376,387,2025-06-06T10:08:41.564381
7367,-0.0307,0.9736,0.4978,97.580,85.610,3.570,1,2,1,381,386,2025-06-06T10:08:41.564381
7368,0.0508,1.0609,0.3640,105.175,89.915,13.195,1,2,1,347,374,2025-06-06T10:08:41.564381
7369,-0.0117,1.0902,0.2635,105.035,99.820,20.370,1,2,1,359,391,2025-06-06T10:08:41.564381
7370,-0.0073,1.1590,0.2147,102.270,108.010,26.845,1,1,1,374,365,2025-06-06T10:08:41.564381
7371,-0.0210,1.1702,0.1869,93.870,112.035,30.730,2,1,0,337,372,2025-06-06T10:08:41.564381
7372,-0.0395,1.1395,0.2030,80.080,118.300,29.995,2,2,1,358,382,2025-06-06T10:08:41.564381
7373,-0.1171,1.1219,0.2318,66.500,122.185,23.520,1,1,1,378,383,2025-06-06T10:08:41.564381
7374,-0.0493,1.1292,0.2147,56.210,119.210,13.370,1,2,1,346,390,2025-06-06T10:08:41.564381
7375,0.0361,1.0838,0.1176,36.015,118.440,-1.645,2,2,1,363,385,2025-06-06T10:08:41.564381
7376,0.1874,1.0716,0.0234,29.575,121.660,-22.470,2,1,1,360,381,2025-06-06T10:08:41.564381
7377,0.4143,0.9999,-0.0478,-1.330,123.060,-44.485,1,3,1,384,386,2025-06-06T10:08:41.666439
7378,0.6988,0.9755,-0.0268,-24.745,111.545,-62.580,2,1,1,382,344,2025-06-06T10:08:41.666439
7379,1.3225,1.0058,0.2074,-65.625,87.255,-71.050,1,2,1,378,375,2025-06-06T10:08:41.666439
7380,2.3892,0.9311,0.1157,-117.495,45.535,-65.520,2,2,1,384,385,2025-06-06T10:08:41.666439
7381,3.2833,0.6744,-0.2338,-218.785,26.845,-66.920,2,3,2,395,389,2025-06-06T10:08:41.666439
7382,4.1026,-0.0381,-0.5568,-431.130,71.120,-158.655,1,2,1,405,397,2025-06-06T10:08:41.666439
7383,4.1051,-0.1391,-0.4255,-477.015,181.055,-54.950,1,2,1,391,397,2025-06-06T10:08:41.666439
7384,2.0696,-1.0106,-2.3043,-381.010,379.820,-24.465,1,2,1,402,409,2025-06-06T10:08:41.666439
7385,0.4368,-1.3762,-2.4756,-224.455,322.735,-71.890,2,2,1,400,373,2025-06-06T10:08:41.768383
7386,-1.8964,-0.5412,-1.0204,90.090,188.825,-173.250,2,2,2,387,386,2025-06-06T10:08:41.768383
7387,-3.7098,-0.0815,-0.0493,136.045,38.710,-312.725,2,2,1,392,357,2025-06-06T10:08:41.768383
7388,-4.7975,-0.6056,-0.0386,33.215,1.015,-474.040,2,2,2,380,375,2025-06-06T10:08:41.768383
7389,-4.8810,-0.5573,1.0760,43.680,53.620,-585.060,2,2,1,387,392,2025-06-06T10:08:41.768383
7390,-5.3309,-0.5417,1.9095,-0.665,98.980,-664.650,1,2,1,390,378,2025-06-06T10:08:41.768383
7391,-4.3305,-0.5929,3.1671,-11.795,137.130,-690.200,2,2,1,393,385,2025-06-06T10:08:41.768383
7392,-1.5196,-0.2455,3.9621,-37.835,6.930,-597.730,2,2,2,385,393,2025-06-06T10:08:41.768383
7393,-0.8945,0.0615,3.3018,-19.110,-222.880,-385.805,1,2,1,388,357,2025-06-06T10:08:41.768383
7394,-0.9809,0.2298,2.2048,18.550,-440.965,-198.345,2,2,2,380,369,2025-06-06T10:08:41.911300
7395,-0.6808,0.4133,0.4621,-15.610,-464.870,-21.665,2,3,1,392,382,2025-06-06T10:08:41.911300
7396,-1.1727,0.1142,-0.2586,242.970,-368.550,94.535,1,1,1,396,383,2025-06-06T10:08:41.911300
7397,-1.7719,-0.4943,-0.9360,130.340,-204.750,93.310,2,2,1,399,389,2025-06-06T10:08:41.911300
7398,-1.8202,-1.0287,-1.4298,-82.775,-20.510,23.730,2,2,1,401,385,2025-06-06T10:08:41.911300
7399,-1.1624,-0.7003,-0.8652,-187.495,76.790,-43.295,1,2,1,389,385,2025-06-06T10:08:41.911300
7400,-0.7432,-0.0278,0.4490,-291.690,88.655,-40.775,1,2,1,396,362,2025-06-06T10:08:41.911300
7401,-0.7393,0.1552,1.0697,-112.245,116.025,-12.705,1,1,1,378,371,2025-06-06T10:08:41.911300
7402,-0.9794,-0.2650,1.1214,-29.120,82.215,9.590,2,2,1,389,382,2025-06-06T10:08:41.996909
7403,-1.2976,-0.4612,1.3186,-69.475,45.815,12.040,1,2,1,395,375,2025-06-06T10:08:41.996909
7404,-1.3913,-0.5378,1.5128,-11.025,-15.995,-5.425,2,2,1,394,382,2025-06-06T10:08:41.996909
7405,-1.3288,-0.5329,1.5143,28.245,-63.840,-16.240,2,2,1,388,350,2025-06-06T10:08:41.996909
7406,-1.2166,-0.4250,1.3967,-17.780,-78.855,-24.745,1,2,1,375,368,2025-06-06T10:08:41.996909
7407,-1.1214,-0.4192,1.2747,-1.540,-54.705,-25.060,2,2,2,395,383,2025-06-06T10:08:41.996909
7408,-1.0741,-0.3309,1.0941,4.690,-46.830,-25.095,1,2,1,351,380,2025-06-06T10:08:41.996909
7409,-0.9823,-0.2538,0.9565,-1.820,-51.170,-23.100,2,2,1,333,381,2025-06-06T10:08:41.996909
7410,-0.8769,-0.1269,0.8745,20.160,-60.130,-14.980,1,2,1,354,402,2025-06-06T10:08:41.996909
7411,-0.8008,-0.0620,0.8120,25.165,-65.835,1.855,2,1,2,365,402,2025-06-06T10:08:41.996909
7412,-0.7379,-0.0200,0.7535,24.605,-69.895,21.070,1,2,1,369,388,2025-06-06T10:08:41.996909
7413,-0.7379,0.0517,0.6764,32.970,-85.295,87.605,2,2,2,381,354,2025-06-06T10:08:42.092846
7414,-0.7154,0.0942,0.5910,51.030,-86.870,120.155,1,2,2,390,342,2025-06-06T10:08:42.092846
7415,-0.6232,0.0590,0.5958,56.910,-89.425,114.730,2,2,1,347,358,2025-06-06T10:08:42.092846
7416,-0.6027,0.0683,0.6046,73.325,-91.840,106.750,2,1,1,365,370,2025-06-06T10:08:42.092846
7417,-0.5192,0.0449,0.6456,79.275,-84.420,82.425,2,3,2,377,388,2025-06-06T10:08:42.092846
7418,-0.3162,-0.1357,0.3118,118.475,-4.550,112.385,1,2,1,387,397,2025-06-06T10:08:42.092846
7419,-0.2811,0.1972,0.5861,269.395,-145.180,68.740,1,1,2,397,381,2025-06-06T10:08:42.092846
7420,-0.1908,0.4016,0.7188,325.290,-114.065,77.245,1,2,1,380,351,2025-06-06T10:08:42.366961
7421,-0.2259,0.4050,0.4631,255.150,-117.355,82.670,2,1,1,380,376,2025-06-06T10:08:42.366961
7422,-0.1840,0.4909,0.6539,92.365,-22.085,82.425,1,1,1,350,372,2025-06-06T10:08:42.366961
7423,-0.2499,0.5158,0.6188,25.095,15.260,81.235,2,1,1,359,387,2025-06-06T10:08:42.366961
7424,-0.2362,0.5212,0.6642,-3.885,27.160,79.555,2,2,1,372,382,2025-06-06T10:08:42.366961
7425,-0.3001,0.5475,0.7608,49.175,14.175,73.325,2,2,1,390,390,2025-06-06T10:08:42.366961
7426,-0.2757,0.5749,0.7056,109.305,11.025,67.970,2,2,1,398,382,2025-06-06T10:08:42.366961
7427,-0.2460,0.6495,0.6212,115.045,6.230,63.455,1,1,1,387,385,2025-06-06T10:08:42.366961
7428,-0.2508,0.7032,0.6310,39.060,11.865,60.165,1,1,2,401,376,2025-06-06T10:08:42.366961
7429,-0.2557,0.6725,0.6144,-32.060,26.250,57.715,1,2,1,351,368,2025-06-06T10:08:42.366961
7430,-0.3162,0.6412,0.6490,-31.045,23.485,53.515,2,3,1,372,351,2025-06-06T10:08:42.366961
7431,-0.3314,0.6188,0.6017,-11.725,4.445,46.970,1,2,1,382,377,2025-06-06T10:08:42.366961
7432,-0.3489,0.5900,0.5827,-10.185,-4.445,40.775,1,2,1,388,346,2025-06-06T10:08:42.366961
7433,-0.3235,0.5661,0.6041,-17.220,-2.835,35.350,1,2,1,385,363,2025-06-06T10:08:42.366961
7434,-0.3118,0.5700,0.6144,-24.500,2.555,32.130,1,2,1,394,373,2025-06-06T10:08:42.366961
7435,-0.3504,0.5768,0.6202,-14.875,-2.485,28.385,2,2,1,393,383,2025-06-06T10:08:42.366961
7436,-0.3465,0.6095,0.5104,5.040,-16.450,25.760,1,1,0,350,377,2025-06-06T10:08:42.366961
7437,-0.3240,0.6281,0.6603,1.295,-18.200,26.530,2,2,0,333,346,2025-06-06T10:08:42.366961
7438,-0.3270,0.6115,0.6808,-18.340,-9.555,28.105,1,2,1,352,378,2025-06-06T10:08:42.366961
7439,-0.3299,0.5885,0.7159,-44.870,-18.410,29.400,2,1,1,372,379,2025-06-06T10:08:42.366961
7440,-0.3421,0.5573,0.7569,-48.230,-17.255,29.610,2,1,1,369,387,2025-06-06T10:08:42.366961
7441,-0.3328,0.5422,0.7730,-38.570,-22.540,29.750,2,2,1,383,389,2025-06-06T10:08:42.366961
7442,-0.3333,0.5280,0.7618,-56.770,-17.710,29.225,1,2,1,350,390,2025-06-06T10:08:42.489042
7443,-0.3328,0.4909,0.7720,-83.160,-8.960,28.315,1,3,1,379,392,2025-06-06T10:08:42.489042
7444,-0.3558,0.4582,0.8189,-82.075,-3.745,26.600,1,2,1,375,395,2025-06-06T10:08:42.489042
7445,-0.4011,0.4329,0.8506,-65.520,-7.595,22.680,2,2,1,392,361,2025-06-06T10:08:42.489042
7446,-0.4060,0.4241,0.8594,-43.295,-16.940,17.605,1,2,1,393,380,2025-06-06T10:08:42.659041
7447,-0.4128,0.3826,0.7862,-35.875,-16.100,12.950,2,2,2,393,392,2025-06-06T10:08:42.659041
7448,-0.3782,0.4011,0.9028,-43.330,-14.875,9.485,2,2,2,399,384,2025-06-06T10:08:42.659041
7449,-0.3260,0.3894,0.9077,-49.000,-12.635,7.980,2,2,1,390,387,2025-06-06T10:08:42.659041
7450,-0.3318,0.3406,0.8677,-37.240,-5.425,6.090,2,2,1,401,399,2025-06-06T10:08:42.659041
7451,-0.3440,0.3411,0.8603,-29.120,2.800,4.515,1,1,1,401,393,2025-06-06T10:08:42.659041
7452,-0.3655,0.3528,0.8721,-26.460,4.200,3.150,2,1,1,357,379,2025-06-06T10:08:42.659041
7453,-0.3992,0.3328,0.8764,-22.855,2.940,0.770,2,1,1,372,388,2025-06-06T10:08:42.659041
7454,-0.4363,0.3255,0.9004,-7.875,-3.395,-1.470,2,2,2,391,380,2025-06-06T10:08:42.659041
7455,-0.4177,0.3621,0.9335,-6.545,-6.580,-2.030,2,2,1,352,390,2025-06-06T10:08:42.659041
7456,-0.3928,0.3958,0.9228,-10.640,-9.240,0.490,1,0,2,366,364,2025-06-06T10:08:42.659041
7457,-0.4192,0.3680,0.8974,-11.480,-10.885,2.240,2,2,1,346,382,2025-06-06T10:08:42.659041
7458,-0.3777,0.3875,0.8916,-13.090,-15.435,4.340,1,1,1,359,390,2025-06-06T10:08:42.808494
7459,-0.3797,0.3665,0.8779,-13.475,-16.625,6.195,1,1,2,368,394,2025-06-06T10:08:42.808494
7460,-0.3723,0.3470,0.8589,-10.360,-16.555,7.210,2,2,1,373,383,2025-06-06T10:08:42.808494
7461,-0.3826,0.3396,0.8750,-10.255,-13.195,7.315,2,1,2,385,381,2025-06-06T10:08:42.808494
7462,-0.3787,0.3348,0.8789,-11.480,-9.485,6.580,2,2,2,388,396,2025-06-06T10:08:42.808494
7463,-0.4046,0.3172,0.8721,-12.810,-5.530,4.900,2,2,1,388,399,2025-06-06T10:08:42.809491
7464,-0.4065,0.3133,0.8921,-10.710,-3.150,3.010,1,1,1,378,404,2025-06-06T10:08:42.809491
7465,-0.3870,0.3240,0.8960,-10.010,-2.520,1.435,2,1,2,385,401,2025-06-06T10:08:42.809491
7466,-0.3640,0.3348,0.8857,-9.695,-3.885,0.840,1,1,1,348,391,2025-06-06T10:08:42.809491
7467,-0.3762,0.3318,0.8926,-9.765,-3.465,0.455,2,2,1,377,393,2025-06-06T10:08:42.809491
7468,-0.3855,0.3294,0.9170,-9.450,-4.270,-0.560,1,1,1,374,402,2025-06-06T10:08:42.809491
7469,-0.3518,0.3382,0.9174,-10.535,-6.440,-0.455,1,1,1,378,393,2025-06-06T10:08:42.809491
7470,-0.3484,0.3304,0.8969,-10.675,-7.070,0.420,1,2,1,380,402,2025-06-06T10:08:42.809491
7471,-0.3640,0.3128,0.8969,-10.430,-6.510,0.175,2,1,2,394,400,2025-06-06T10:08:42.809491
7472,-0.3499,0.3094,0.8994,-10.850,-5.915,-0.140,2,2,1,362,406,2025-06-06T10:08:42.809491
7473,-0.3587,0.3065,0.8808,-11.200,-4.375,-0.700,2,1,2,371,396,2025-06-06T10:08:42.809491
7474,-0.3758,0.2972,0.8789,-10.780,-1.715,-1.855,2,1,1,379,403,2025-06-06T10:08:42.809491
7475,-0.3831,0.2996,0.8901,-10.430,0.105,-3.360,2,2,1,380,406,2025-06-06T10:08:42.809491
7476,-0.3499,0.3109,0.8857,-8.295,0.035,-3.780,1,1,2,385,391,2025-06-06T10:08:42.809491
7477,-0.3694,0.3016,0.8764,-7.210,0.805,-4.095,1,2,1,379,384,2025-06-06T10:08:42.809491
7478,-0.3909,0.2996,0.8940,-5.180,1.015,-4.935,1,2,1,390,396,2025-06-06T10:08:42.809491
7479,-0.4046,0.3074,0.9048,-4.445,-0.210,-6.125,1,1,2,383,379,2025-06-06T10:08:42.809491
7480,-0.4070,0.3133,0.9091,-3.045,-2.450,-6.930,1,2,2,392,347,2025-06-06T10:08:42.893315
7481,-0.3850,0.3182,0.9194,-0.770,-6.475,-7.070,1,2,1,382,339,2025-06-06T10:08:42.893315
7482,-0.3621,0.3206,0.9262,-0.175,-9.135,-6.090,2,2,1,379,365,2025-06-06T10:08:42.893315
7483,-0.3694,0.3109,0.9038,-1.120,-10.990,-5.320,2,2,2,383,369,2025-06-06T10:08:42.893315
7484,-0.3680,0.3040,0.8896,-2.415,-10.500,-5.180,1,2,1,395,386,2025-06-06T10:08:42.893315
7485,-0.3631,0.2967,0.8813,-5.425,-7.630,-5.285,2,2,1,388,358,2025-06-06T10:08:43.100524
7486,-0.3719,0.2850,0.8755,-6.825,-4.935,-6.405,2,1,2,397,367,2025-06-06T10:08:43.100524
7487,-0.3689,0.2762,0.8769,-7.560,-1.785,-7.420,2,2,2,391,367,2025-06-06T10:08:43.100524
7488,-0.3816,0.2762,0.8828,-6.720,1.365,-8.505,2,2,1,390,378,2025-06-06T10:08:43.100524
7489,-0.3963,0.2762,0.8882,-6.090,3.430,-9.765,2,2,1,404,359,2025-06-06T10:08:43.100524
7490,-0.4016,0.2806,0.8852,-6.685,5.985,-10.220,1,2,1,402,374,2025-06-06T10:08:43.100524
7491,-0.4109,0.2791,0.8921,-5.880,6.650,-10.465,2,1,1,401,369,2025-06-06T10:08:43.100524
7492,-0.4163,0.2879,0.9072,-7.910,8.680,-10.080,1,1,1,358,379,2025-06-06T10:08:43.100524
7493,-0.4158,0.2904,0.8994,-9.135,8.085,-9.660,1,1,1,375,386,2025-06-06T10:08:43.100524
7494,-0.4309,0.2884,0.9008,-8.295,5.005,-8.820,1,1,2,377,349,2025-06-06T10:08:43.100524
7495,-0.4368,0.2933,0.9067,-8.925,3.255,-7.980,1,2,2,374,337,2025-06-06T10:08:43.100524
7496,-0.4333,0.2869,0.9096,-9.730,1.330,-7.245,1,1,1,386,373,2025-06-06T10:08:43.100524
7497,-0.4304,0.2826,0.9077,-9.380,-1.190,-6.755,2,2,1,397,369,2025-06-06T10:08:43.100524
7498,-0.4412,0.2728,0.9052,-7.560,-3.920,-6.230,1,1,1,376,385,2025-06-06T10:08:43.100524
7499,-0.4582,0.2533,0.9033,-6.615,-3.745,-6.720,1,2,1,389,386,2025-06-06T10:08:43.100524
7500,-0.4641,0.2430,0.9165,-6.755,-1.190,-6.825,1,2,1,377,384,2025-06-06T10:08:43.100524
7501,-0.4665,0.2420,0.9135,-5.635,-0.140,-6.755,2,2,1,377,376,2025-06-06T10:08:43.100524
7502,-0.4612,0.2552,0.9057,-3.780,-1.610,-5.985,1,1,1,374,390,2025-06-06T10:08:43.100524
7503,-0.4797,0.2611,0.8999,-3.080,-2.030,-4.935,1,1,1,392,401,2025-06-06T10:08:43.100524
7504,-0.4631,0.2601,0.9008,-2.485,-2.450,-3.500,1,1,1,399,396,2025-06-06T10:08:43.100524
7505,-0.4465,0.2664,0.8813,0.595,-6.475,-1.890,1,2,2,388,364,2025-06-06T10:08:43.204318
7506,-0.4368,0.2728,0.8579,0.595,-6.580,-0.280,1,2,1,381,376,2025-06-06T10:08:43.204318
7507,-0.4250,0.2762,0.8496,0.385,-6.335,1.470,2,2,2,387,389,2025-06-06T10:08:43.204318
7508,-0.4041,0.2772,0.8374,1.645,-9.135,2.695,1,2,2,396,320,2025-06-06T10:08:43.204318
7509,-0.3860,0.2850,0.8223,-0.070,-8.365,3.080,2,2,1,393,347,2025-06-06T10:08:43.204318
7510,-0.3684,0.2826,0.8028,-0.805,-7.700,2.940,1,2,1,397,357,2025-06-06T10:08:43.204318
7511,-0.3660,0.2845,0.7832,-1.750,-7.245,1.225,2,1,1,353,374,2025-06-06T10:08:43.204318
7512,-0.3562,0.2869,0.7808,-4.585,-5.110,-1.190,1,2,1,373,373,2025-06-06T10:08:43.204318
7513,-0.3723,0.2977,0.7623,-5.250,-5.985,-5.250,2,2,1,385,380,2025-06-06T10:08:43.204318
7514,-0.3889,0.3118,0.7706,-7.595,-5.355,-10.325,1,2,2,384,346,2025-06-06T10:08:43.305492
7515,-0.3928,0.3357,0.7798,-8.750,-11.130,-14.350,1,2,2,388,361,2025-06-06T10:08:43.305492
7516,-0.3865,0.3694,0.7725,-9.100,-21.455,-19.285,2,1,2,389,366,2025-06-06T10:08:43.305492
7517,-0.3792,0.3943,0.7691,-13.020,-34.650,-22.015,2,2,1,397,369,2025-06-06T10:08:43.305492
7518,-0.3884,0.3987,0.7427,-17.500,-48.405,-25.655,2,1,1,385,379,2025-06-06T10:08:43.305492
7519,-0.3562,0.4558,0.7379,-17.220,-66.500,-27.720,2,2,1,348,371,2025-06-06T10:08:43.305492
7520,-0.3523,0.4719,0.7198,-21.630,-86.240,-28.350,2,2,1,363,387,2025-06-06T10:08:43.305492
7521,-0.3231,0.4416,0.7213,-26.145,-107.730,-27.580,1,1,2,388,387,2025-06-06T10:08:43.305492
7522,-0.3265,0.3928,0.7613,-32.585,-122.185,-26.845,2,2,1,395,393,2025-06-06T10:08:43.445066
7523,-0.3274,0.3514,0.7940,-34.790,-139.055,-26.600,1,2,2,394,398,2025-06-06T10:08:43.445066
7524,-0.5671,0.4241,0.7096,-31.675,-137.550,-39.830,1,2,1,384,360,2025-06-06T10:08:43.445066
7525,-0.2821,0.3748,0.6578,15.925,-183.120,-43.295,2,2,1,380,384,2025-06-06T10:08:43.445066
7526,-0.3192,0.2606,0.7886,-26.915,-164.640,-32.935,2,2,2,383,388,2025-06-06T10:08:43.445066
7527,-0.1542,0.1591,0.7954,-19.915,-193.165,-32.900,1,2,1,378,351,2025-06-06T10:08:43.445066
7528,-0.0454,-0.1069,0.5885,-66.080,-124.250,-28.630,1,1,1,378,362,2025-06-06T10:08:43.445066
7529,-0.0083,0.0024,0.6920,-51.310,-115.360,-27.300,1,2,1,390,374,2025-06-06T10:08:43.445066
7530,0.0190,0.0117,0.7315,-60.130,-85.645,-24.290,2,1,1,382,376,2025-06-06T10:08:43.445066
7531,0.0512,-0.0200,0.8028,-62.125,-62.405,-22.540,2,1,2,343,387,2025-06-06T10:08:43.445066
7532,-0.0322,-0.0693,0.8916,-72.100,-31.815,-22.365,2,2,1,366,399,2025-06-06T10:08:43.445066
7533,-0.0771,-0.0595,1.0175,-85.295,-1.400,-23.975,1,1,1,379,403,2025-06-06T10:08:43.530620
7534,-0.1303,-0.0810,1.1146,-90.020,18.620,-25.480,1,3,1,384,401,2025-06-06T10:08:43.530620
7535,-0.1366,-0.1049,1.1775,-83.965,24.675,-27.685,1,2,1,390,395,2025-06-06T10:08:43.530620
7536,-0.1083,-0.1098,1.2976,-84.455,29.050,-26.985,3,1,1,400,402,2025-06-06T10:08:43.530620
7537,-0.3084,0.3475,0.5578,-88.830,6.125,53.655,1,2,1,384,409,2025-06-06T10:08:43.530620
7538,-0.8389,-1.8632,2.0808,85.645,-161.175,-4.515,1,2,2,394,402,2025-06-06T10:08:43.530620
7539,0.7823,1.8573,2.5654,197.435,-111.335,51.590,2,3,1,393,388,2025-06-06T10:08:43.530620
7540,-0.5002,0.2733,1.5123,5.180,-126.070,56.735,1,2,2,396,369,2025-06-06T10:08:43.530620
7541,-0.2796,-0.4446,0.8945,-105.105,-32.585,32.235,1,2,1,395,380,2025-06-06T10:08:43.614590
7542,-0.0127,-0.5627,0.8042,-16.345,-13.895,16.345,1,4,1,401,394,2025-06-06T10:08:43.614590
7543,0.2582,0.0039,1.2551,47.460,-18.165,6.265,2,2,1,388,398,2025-06-06T10:08:43.614590
7544,-0.0649,-0.0522,1.5260,51.380,-58.170,3.570,2,3,1,398,393,2025-06-06T10:08:43.614590
7545,-0.0478,-0.0864,1.5094,24.990,-31.850,-1.750,2,2,1,352,397,2025-06-06T10:08:43.716572
7546,0.0371,0.0908,1.3161,-4.725,1.225,-5.565,1,1,2,381,394,2025-06-06T10:08:43.716572
7547,-0.0264,0.0303,1.0634,-12.670,21.525,-10.360,1,2,2,393,383,2025-06-06T10:08:43.716572
7548,-0.1752,-0.0717,0.8989,3.220,17.990,-19.145,2,2,1,378,392,2025-06-06T10:08:43.716572
7549,-0.1937,-0.0117,0.8345,4.515,19.775,-25.270,2,2,1,398,404,2025-06-06T10:08:43.716572
7550,-0.1542,0.0239,0.8950,-2.520,27.825,-32.305,2,1,1,399,384,2025-06-06T10:08:43.716572
7551,-0.1005,0.0620,0.8823,-2.135,25.865,-35.945,1,2,1,383,349,2025-06-06T10:08:43.716572
7552,-0.0346,0.0244,0.8228,-1.680,26.145,-35.560,1,3,1,368,366,2025-06-06T10:08:43.716572
7553,-0.0171,0.0024,0.7793,6.405,26.950,-34.895,1,1,1,375,368,2025-06-06T10:08:43.716572
7554,0.0093,-0.0171,0.7559,15.575,26.390,-33.145,1,1,2,385,376,2025-06-06T10:08:43.716572
7555,0.0278,0.0059,0.7745,30.275,21.630,-31.290,1,1,1,380,347,2025-06-06T10:08:43.716572
7556,0.0298,0.0537,0.8330,40.040,15.890,-27.580,1,2,2,377,371,2025-06-06T10:08:43.920705
7557,0.0303,0.0688,0.8486,41.335,16.205,-22.995,3,3,1,346,389,2025-06-06T10:08:43.920705
7558,0.0312,0.0883,0.8535,42.665,16.275,-19.145,2,2,1,369,385,2025-06-06T10:08:43.920705
7559,0.0547,0.1215,0.8974,48.790,12.390,-13.860,2,2,1,366,394,2025-06-06T10:08:43.920705
7560,-0.0215,0.1274,0.8535,54.600,9.170,-9.835,1,1,1,370,399,2025-06-06T10:08:43.920705
7561,-0.1410,0.2625,1.9896,90.825,-8.085,-2.940,1,0,1,382,402,2025-06-06T10:08:43.920705
7562,-0.3265,-0.2054,0.8555,-10.535,10.465,-6.335,1,3,1,386,403,2025-06-06T10:08:43.920705
7563,-0.1679,0.1244,1.0834,37.870,-9.905,-10.255,1,1,1,379,390,2025-06-06T10:08:43.920705
7564,-0.1864,0.5202,1.2058,68.670,-6.335,-1.715,2,2,0,359,388,2025-06-06T10:08:43.920705
7565,-0.0615,0.4255,1.4918,78.295,-90.965,-11.375,2,2,1,374,381,2025-06-06T10:08:43.920705
7566,0.0820,0.6261,1.6597,48.580,-61.670,6.860,2,2,1,386,381,2025-06-06T10:08:43.920705
7567,-0.2962,0.4831,1.5518,-6.685,-19.390,16.240,1,3,1,378,397,2025-06-06T10:08:43.920705
7568,-0.3826,0.2079,0.9892,-25.270,-37.380,10.010,1,1,2,375,381,2025-06-06T10:08:43.920705
7569,-0.1362,0.1166,0.7989,-6.230,-63.455,7.525,2,2,1,386,398,2025-06-06T10:08:43.920705
7570,-0.0312,0.0859,0.9140,32.480,-76.825,9.065,1,1,1,390,400,2025-06-06T10:08:43.920705
7571,-0.0332,0.1610,1.1385,19.075,-70.910,12.775,1,1,1,397,358,2025-06-06T10:08:43.920705
7572,-0.0390,0.2347,1.1200,2.415,-68.670,13.930,2,2,1,380,376,2025-06-06T10:08:43.920705
7573,0.0039,0.2464,1.0058,4.830,-67.725,13.790,1,1,1,380,376,2025-06-06T10:08:44.021220
7574,0.0434,0.2513,0.9809,12.985,-76.720,10.955,2,2,1,364,315,2025-06-06T10:08:44.021220
7575,0.1254,0.3460,1.1405,8.470,-73.745,9.835,2,2,1,359,355,2025-06-06T10:08:44.021220
7576,0.1235,0.2826,1.1097,-8.260,-65.765,12.250,1,1,2,392,381,2025-06-06T10:08:44.021220
7577,0.1444,0.2723,1.2024,-19.425,-65.520,14.805,2,3,2,392,351,2025-06-06T10:08:44.021220
7578,0.0810,0.1220,1.0121,-15.470,-65.205,12.880,1,1,1,389,363,2025-06-06T10:08:44.021220
7579,0.1240,0.1371,0.9618,-0.805,-62.615,11.900,1,3,1,394,336,2025-06-06T10:08:44.021220
7580,0.1264,0.1586,0.9438,2.695,-57.400,10.850,1,2,1,372,351,2025-06-06T10:08:44.021220
7581,0.1269,0.2030,0.9438,-0.770,-49.000,9.415,1,1,1,389,378,2025-06-06T10:08:44.021220
7582,0.1537,0.2147,0.9716,-2.065,-44.730,7.525,1,2,2,404,388,2025-06-06T10:08:44.162116
7583,0.1606,0.2113,0.9604,-1.995,-40.285,5.845,2,1,2,402,392,2025-06-06T10:08:44.162116
7584,0.1752,0.2025,0.9584,-2.415,-32.935,4.235,2,2,1,385,397,2025-06-06T10:08:44.162116
7585,0.1815,0.1898,0.9579,-2.975,-26.460,2.870,2,1,2,386,400,2025-06-06T10:08:44.162116
7586,0.1796,0.1708,0.9584,-2.555,-20.755,1.575,2,2,2,387,403,2025-06-06T10:08:44.162116
7587,0.2006,0.1728,0.9677,-0.175,-16.590,0.980,2,2,1,384,403,2025-06-06T10:08:44.162116
7588,0.2074,0.1840,0.9858,0.490,-11.025,0.700,1,0,1,392,365,2025-06-06T10:08:44.162116
7589,0.1928,0.1947,0.9950,-0.420,-6.195,0.210,2,2,1,350,381,2025-06-06T10:08:44.162116
7590,0.1854,0.1996,0.9867,-1.610,-2.485,-0.770,1,2,1,369,387,2025-06-06T10:08:44.162116
7591,0.1840,0.1947,0.9662,-1.050,-0.035,-1.575,2,2,1,380,383,2025-06-06T10:08:44.162116
7592,0.1806,0.1937,0.9487,-0.490,5.355,-2.100,2,2,1,383,351,2025-06-06T10:08:44.162116
7593,0.1781,0.1913,0.9565,0.350,11.235,-2.555,1,1,1,372,368,2025-06-06T10:08:44.162116
7594,0.1674,0.1967,0.9740,0.700,15.785,-3.290,1,2,2,349,374,2025-06-06T10:08:44.242547
7595,0.1562,0.1962,0.9989,-0.420,19.005,-3.920,2,1,1,329,366,2025-06-06T10:08:44.242547
7596,0.1523,0.1923,1.0004,-0.945,19.530,-4.725,2,1,1,324,349,2025-06-06T10:08:44.400107
7597,0.1459,0.1898,0.9970,-0.245,22.085,-5.040,2,2,2,345,360,2025-06-06T10:08:44.400107
7598,0.1254,0.1903,0.9916,1.050,23.450,-5.565,1,1,2,378,385,2025-06-06T10:08:44.435456
7599,0.1108,0.1928,1.0116,0.910,23.625,-5.950,2,2,1,387,395,2025-06-06T10:08:44.435456
7600,0.0947,0.2040,1.0204,0.525,22.155,-6.195,2,1,1,392,400,2025-06-06T10:08:44.435456
7601,0.0947,0.2074,1.0204,0.175,20.650,-5.915,2,2,2,399,404,2025-06-06T10:08:44.435456
7602,0.0917,0.2040,1.0219,0.035,19.320,-4.935,1,2,1,381,402,2025-06-06T10:08:44.435456
7603,0.0590,0.1972,1.0146,1.540,18.130,-4.480,1,2,1,388,409,2025-06-06T10:08:44.435456
7604,0.0498,0.2059,1.0033,3.325,15.505,-4.060,2,2,1,379,396,2025-06-06T10:08:44.435456
7605,0.0649,0.2069,1.0175,2.835,13.405,-3.570,2,0,2,342,389,2025-06-06T10:08:44.435456
7606,0.0488,0.2103,1.0311,2.415,10.430,-2.905,2,2,1,359,397,2025-06-06T10:08:44.435456
7607,0.0542,0.2176,1.0365,1.540,5.600,-2.590,1,2,2,374,396,2025-06-06T10:08:44.435456
7608,0.0542,0.2054,1.0224,1.785,3.255,-1.610,1,1,1,388,398,2025-06-06T10:08:44.435456
7609,0.0556,0.2059,1.0170,1.505,1.435,-0.805,2,3,1,382,389,2025-06-06T10:08:44.435456
7610,0.0156,0.2098,1.0131,0.210,-1.120,-0.770,2,2,2,377,394,2025-06-06T10:08:44.435456
7611,0.0664,0.2201,1.0311,0.525,-6.055,-0.350,1,3,1,395,356,2025-06-06T10:08:44.435456
7612,0.0390,0.2084,1.0307,-1.015,-7.035,0.945,2,3,1,384,370,2025-06-06T10:08:44.435456
7613,0.0410,0.2103,1.0189,-0.630,-10.990,1.015,2,2,1,399,383,2025-06-06T10:08:44.435456
7614,0.0532,0.2059,1.0077,-1.155,-13.300,1.575,2,2,1,354,312,2025-06-06T10:08:44.435456
7615,0.0664,0.2054,1.0072,0.980,-14.350,2.415,2,1,1,324,338,2025-06-06T10:08:44.435456
7616,0.0595,0.2069,1.0087,0.735,-14.910,2.800,3,3,1,356,381,2025-06-06T10:08:44.435456
7617,0.0722,0.1972,1.0131,-1.365,-15.750,2.625,2,2,1,333,368,2025-06-06T10:08:44.534204
7618,0.0971,0.1957,1.0111,0.840,-16.870,2.695,2,2,1,370,383,2025-06-06T10:08:44.534204
7619,0.1059,0.1928,1.0092,2.905,-15.190,2.905,3,1,1,383,383,2025-06-06T10:08:44.534204
7620,0.1132,0.2035,0.9984,1.540,-13.790,2.660,1,1,1,378,390,2025-06-06T10:08:44.534204
7621,0.1147,0.1967,0.9916,0.630,-9.870,2.345,2,3,2,384,386,2025-06-06T10:08:44.534204
7622,0.0961,0.1942,0.9897,1.365,-8.295,0.945,1,1,1,389,382,2025-06-06T10:08:44.534204
7623,0.0986,0.1889,0.9506,4.200,-5.845,-1.365,2,2,1,399,395,2025-06-06T10:08:44.534204
7624,0.1610,0.1996,0.9140,7.175,2.415,-1.190,1,1,1,399,386,2025-06-06T10:08:44.534204
7625,0.1127,0.2108,1.0136,0.105,5.250,-1.435,2,1,1,388,347,2025-06-06T10:08:44.637413
7626,0.0913,0.2098,1.0287,-2.520,6.965,-2.870,3,3,1,397,370,2025-06-06T10:08:44.637413
7627,0.1327,0.1952,0.9833,-2.625,8.435,-3.185,2,1,1,385,338,2025-06-06T10:08:44.637413
7628,0.1035,0.1820,0.9775,1.330,13.160,-3.185,2,1,2,388,374,2025-06-06T10:08:44.637413
7629,0.0786,0.2035,1.0004,2.170,14.350,-4.130,2,2,2,383,382,2025-06-06T10:08:44.637413
7630,0.0810,0.2157,1.0072,-1.750,14.805,-4.375,2,1,1,396,400,2025-06-06T10:08:44.637413
7631,0.0766,0.2094,0.9960,0.210,14.560,-4.340,2,2,1,386,405,2025-06-06T10:08:44.637413
7632,0.0551,0.2084,1.0048,1.260,13.580,-4.270,2,1,1,347,388,2025-06-06T10:08:44.637413
7633,0.0439,0.2035,1.0126,0.840,12.530,-4.410,2,3,2,380,395,2025-06-06T10:08:44.637413
7634,0.0444,0.2103,1.0243,0.945,10.885,-3.885,1,2,2,343,394,2025-06-06T10:08:44.745295
7635,0.0366,0.2113,1.0228,1.295,8.225,-3.465,1,1,2,333,397,2025-06-06T10:08:44.745295
7636,0.0259,0.2123,1.0209,1.435,6.440,-2.835,2,2,1,371,406,2025-06-06T10:08:44.745295
7637,0.0264,0.2196,1.0321,0.945,2.590,-2.065,1,1,1,378,405,2025-06-06T10:08:44.745295
7638,0.0185,0.2128,1.0263,1.400,-8.855,-1.260,2,3,1,379,400,2025-06-06T10:08:44.745295
7639,0.0185,0.2113,1.0180,2.415,-3.535,-0.700,2,2,1,379,397,2025-06-06T10:08:44.745295
7640,0.0146,0.2128,1.0194,1.855,-5.460,0.175,1,1,1,396,366,2025-06-06T10:08:44.745295
7641,0.0254,0.2147,1.0204,1.085,-8.610,0.630,1,3,1,386,385,2025-06-06T10:08:44.745295
7642,0.0303,0.2118,1.0141,1.365,-11.305,1.155,1,2,2,388,383,2025-06-06T10:08:44.963957
7643,0.0429,0.2157,1.0131,3.325,-12.600,1.715,1,3,1,399,394,2025-06-06T10:08:44.963957
7644,0.0429,0.2094,1.0175,2.415,-14.420,1.785,0,1,1,382,392,2025-06-06T10:08:44.963957
7645,0.0498,0.2108,1.0092,2.275,-15.120,1.820,2,2,1,392,404,2025-06-06T10:08:44.963957
7646,0.0620,0.2074,0.9999,3.535,-14.980,1.890,3,3,1,379,381,2025-06-06T10:08:44.963957
7647,0.0664,0.2089,1.0053,3.745,-14.035,1.925,1,2,2,391,374,2025-06-06T10:08:44.963957
7648,0.0708,0.2118,0.9999,2.975,-12.985,1.610,1,2,1,401,379,2025-06-06T10:08:44.963957
7649,0.0761,0.2108,0.9975,4.060,-12.530,1.295,1,2,1,394,377,2025-06-06T10:08:44.963957
7650,0.0800,0.2089,0.9960,5.635,-11.655,0.840,2,1,1,393,374,2025-06-06T10:08:44.963957
7651,0.0834,0.2108,0.9965,4.795,-8.785,0.595,1,2,0,346,365,2025-06-06T10:08:44.963957
7652,0.0869,0.2098,0.9950,1.470,-5.635,0.455,2,0,1,328,339,2025-06-06T10:08:44.963957
7653,0.0854,0.2103,0.9936,0.525,-3.780,-0.070,2,2,1,360,386,2025-06-06T10:08:44.963957
7654,0.0825,0.2108,0.9941,2.590,-2.030,-0.420,1,1,1,379,384,2025-06-06T10:08:44.963957
7655,0.0815,0.2137,0.9950,3.920,-0.350,-0.875,2,2,1,399,402,2025-06-06T10:08:44.963957
7656,0.0805,0.2147,0.9955,3.640,1.085,-1.120,1,1,1,377,379,2025-06-06T10:08:44.963957
7657,0.0747,0.2137,0.9989,3.395,2.345,-1.435,1,1,1,350,382,2025-06-06T10:08:44.963957
7658,0.0708,0.2137,0.9994,4.165,3.220,-1.750,2,2,1,365,385,2025-06-06T10:08:44.963957
7659,0.0669,0.2172,1.0004,4.725,3.780,-1.820,2,2,2,378,383,2025-06-06T10:08:44.963957
7660,0.0630,0.2142,1.0048,6.300,4.690,-1.715,2,3,2,397,389,2025-06-06T10:08:44.963957
7661,0.0600,0.2362,0.9775,1.295,3.395,-2.100,2,2,1,343,365,2025-06-06T10:08:45.061063
7662,0.0508,0.2259,1.0141,6.160,1.505,-2.205,1,1,1,384,355,2025-06-06T10:08:45.061063
7663,0.0444,0.2240,0.9970,10.850,-9.730,-3.640,2,3,2,374,338,2025-06-06T10:08:45.061063
7664,0.0551,0.2430,1.0209,-18.165,13.895,0.560,2,2,2,341,363,2025-06-06T10:08:45.061063
7665,0.0395,0.2142,0.9945,0.210,-2.345,-0.945,3,2,1,388,361,2025-06-06T10:08:45.061063
7666,0.0268,0.2176,1.0043,9.520,-8.435,-1.435,1,3,2,366,365,2025-06-06T10:08:45.142210
7667,0.0386,0.2284,1.0160,0.525,-4.445,-0.455,2,2,1,400,356,2025-06-06T10:08:45.142210
7668,0.0473,0.2225,1.0053,-3.850,-2.625,0.840,2,2,1,382,365,2025-06-06T10:08:45.142210
7669,0.0361,0.2211,1.0038,-1.785,-3.745,1.015,2,0,1,350,342,2025-06-06T10:08:45.142210
7670,0.0390,0.2255,1.0024,3.535,-11.095,-0.035,2,2,1,379,379,2025-06-06T10:08:45.142210
7671,0.0571,0.2235,1.0038,1.890,-9.415,0.595,2,1,2,386,380,2025-06-06T10:08:45.142210
7672,0.0571,0.2235,1.0097,-2.905,-6.475,1.190,2,2,2,405,392,2025-06-06T10:08:45.142210
7673,0.0517,0.2128,1.0014,-3.080,-5.460,1.365,1,3,2,393,346,2025-06-06T10:08:45.142210
7674,0.0561,0.2206,1.0102,2.065,-10.570,0.315,1,2,2,401,364,2025-06-06T10:08:45.353393
7675,0.0654,0.2191,0.9906,1.855,-10.535,0.315,2,3,2,409,373,2025-06-06T10:08:45.353393
7676,0.0644,0.2216,1.0038,-2.660,-4.025,0.980,1,1,2,353,358,2025-06-06T10:08:45.353393
7677,0.0630,0.2220,0.9965,0.035,-7.070,0.315,2,2,1,378,393,2025-06-06T10:08:45.353393
7678,0.0664,0.2211,0.9931,-1.120,-5.565,0.035,3,2,1,366,355,2025-06-06T10:08:45.353393
7679,0.0683,0.2230,1.0043,-1.365,-3.430,0.070,2,1,1,378,378,2025-06-06T10:08:45.353393
7680,0.0654,0.2196,0.9970,-0.805,-4.760,-0.350,2,3,1,393,390,2025-06-06T10:08:45.353393
7681,0.0630,0.2176,0.9994,-0.840,-2.905,-0.420,1,1,1,379,386,2025-06-06T10:08:45.353393
7682,0.0644,0.2196,1.0038,0.035,-2.625,-0.595,1,2,0,355,354,2025-06-06T10:08:45.353393
7683,0.0620,0.2201,0.9970,-0.840,-3.010,-0.770,1,2,1,357,354,2025-06-06T10:08:45.353393
7684,0.0566,0.2162,1.0014,-0.525,-1.645,-0.770,1,1,1,345,376,2025-06-06T10:08:45.353393
7685,0.0576,0.2186,1.0028,0.245,-2.380,-0.910,3,2,1,336,388,2025-06-06T10:08:45.353393
7686,0.0556,0.2191,1.0019,-0.280,-2.065,-0.805,1,2,1,348,394,2025-06-06T10:08:45.353393
7687,0.0547,0.2186,1.0063,0.070,-1.330,-0.455,2,3,1,372,397,2025-06-06T10:08:45.353393
7688,0.0512,0.2216,1.0048,-1.750,-2.310,-0.630,1,2,1,368,356,2025-06-06T10:08:45.353393
7689,0.0512,0.2201,1.0067,-1.120,-2.660,-0.525,1,2,1,348,382,2025-06-06T10:08:45.353393
7690,0.0503,0.2220,1.0004,0.980,-4.760,-0.560,2,3,1,366,363,2025-06-06T10:08:45.353393
7691,0.0488,0.2186,1.0102,-0.490,-2.555,0.000,1,0,1,369,360,2025-06-06T10:08:45.353393
7692,0.0503,0.2230,1.0087,0.000,-3.745,0.000,3,3,2,387,384,2025-06-06T10:08:45.353393
7693,0.0478,0.2172,1.0004,1.645,-5.215,-0.035,1,1,1,376,371,2025-06-06T10:08:45.353393
7694,0.0512,0.2230,1.0087,1.015,-4.830,0.175,1,2,1,401,391,2025-06-06T10:08:45.423352
7695,0.0498,0.2196,1.0043,0.525,-6.195,0.070,1,2,1,375,374,2025-06-06T10:08:45.423352
7696,0.0527,0.2181,0.9975,1.330,-5.740,0.280,2,2,1,380,362,2025-06-06T10:08:45.423352
7697,0.0547,0.2201,1.0048,0.420,-5.250,0.315,2,3,1,385,379,2025-06-06T10:08:45.423352
7698,0.0551,0.2162,0.9994,0.665,-5.390,0.210,1,1,1,374,368,2025-06-06T10:08:45.423352
7699,0.0566,0.2191,1.0004,0.665,-5.460,0.210,2,2,1,392,386,2025-06-06T10:08:45.423352
7700,0.0586,0.2206,0.9999,-0.210,-4.130,0.175,2,1,1,369,341,2025-06-06T10:08:45.505227
7701,0.0537,0.2167,1.0048,1.365,-5.390,-0.105,2,2,1,381,377,2025-06-06T10:08:45.505227
7702,0.0586,0.2225,1.0019,0.700,-4.480,-0.140,2,3,1,391,382,2025-06-06T10:08:45.505227
7703,0.0605,0.2196,0.9994,-0.735,-3.255,-0.140,1,1,1,391,386,2025-06-06T10:08:45.505227
7704,0.0586,0.2186,1.0009,0.000,-3.255,-0.140,2,2,2,397,399,2025-06-06T10:08:45.775849
7705,0.0547,0.2196,1.0019,0.945,-3.990,-0.420,1,1,2,377,381,2025-06-06T10:08:45.775849
7706,0.0561,0.2211,1.0043,-0.035,-3.150,-0.245,1,2,1,386,402,2025-06-06T10:08:45.775849
7707,0.0498,0.2269,0.9892,0.210,-3.115,-0.210,1,2,2,377,353,2025-06-06T10:08:45.775849
7708,0.0605,0.2308,0.9560,2.520,-4.515,-2.940,1,2,1,381,334,2025-06-06T10:08:45.775849
7709,0.0600,0.2328,1.0082,-16.520,9.625,1.400,1,2,1,396,380,2025-06-06T10:08:45.775849
7710,0.0561,0.2128,1.0009,-2.065,-5.810,-0.525,1,2,1,389,374,2025-06-06T10:08:45.775849
7711,0.0386,0.2128,1.0028,2.240,-10.605,-1.120,2,1,1,398,390,2025-06-06T10:08:45.775849
7712,0.0595,0.2162,1.0136,-3.045,-1.435,0.630,2,2,1,394,392,2025-06-06T10:08:45.775849
7713,0.0625,0.2103,1.0053,-0.315,-0.770,1.015,1,1,1,394,394,2025-06-06T10:08:45.775849
7714,0.0449,0.2274,1.0072,-5.425,-3.990,0.280,2,2,1,401,400,2025-06-06T10:08:45.775849
7715,0.0508,0.2245,0.9911,8.015,-6.475,-0.525,2,1,1,369,390,2025-06-06T10:08:45.775849
7716,0.0669,0.2328,0.9887,11.725,1.680,1.820,1,2,2,403,407,2025-06-06T10:08:45.775849
7717,0.0625,0.2191,1.0014,-11.340,-0.735,0.700,1,2,1,390,389,2025-06-06T10:08:45.775849
7718,0.0293,0.1913,0.9955,10.010,-14.805,-1.785,2,1,2,388,400,2025-06-06T10:08:45.775849
7719,0.0849,0.2455,1.0189,15.015,11.620,2.135,1,2,1,380,404,2025-06-06T10:08:45.775849
7720,0.0400,0.2001,0.9648,14.210,-28.420,-3.325,1,1,0,352,383,2025-06-06T10:08:45.775849
7721,0.0576,0.2255,0.9823,-28.455,32.130,4.725,1,2,2,374,411,2025-06-06T10:08:45.775849
7722,0.0678,0.2298,1.0341,-2.975,-7.770,-1.225,1,1,2,369,396,2025-06-06T10:08:45.775849
7723,0.0410,0.2162,0.9838,11.690,-14.665,-1.785,2,1,0,342,402,2025-06-06T10:08:45.775849
7724,0.0551,0.2328,1.0287,0.490,0.735,0.000,2,3,1,360,369,2025-06-06T10:08:45.775849
7725,0.0634,0.2250,0.9994,-6.195,-1.120,0.140,1,1,1,362,366,2025-06-06T10:08:45.775849
7726,0.0468,0.2157,1.0004,-2.485,1.155,0.665,2,2,1,376,395,2025-06-06T10:08:45.775849
7727,0.0390,0.2201,1.0072,4.690,-8.050,-1.050,2,2,1,361,344,2025-06-06T10:08:45.827490
7728,0.0551,0.2250,1.0043,2.135,-6.090,-0.560,1,1,2,374,380,2025-06-06T10:08:45.827490
7729,0.0551,0.2225,1.0038,-4.200,-0.035,0.735,1,2,1,387,377,2025-06-06T10:08:45.827490
7730,0.0454,0.2147,1.0048,-0.630,-3.850,0.035,2,2,2,383,370,2025-06-06T10:08:45.827490
7731,0.0517,0.2269,1.0077,2.905,-6.125,-0.245,3,2,1,405,383,2025-06-06T10:08:45.827490
7732,0.0571,0.2162,1.0028,0.700,-6.755,-0.210,1,2,1,385,385,2025-06-06T10:08:45.827490
7733,0.0512,0.2220,0.9994,-1.750,-4.690,0.105,2,2,1,390,396,2025-06-06T10:08:45.827490
7734,0.0493,0.2137,1.0077,-0.525,-5.390,-8.855,2,3,2,384,385,2025-06-06T10:08:45.967533
7735,0.0537,0.2172,1.0136,1.890,-5.985,-0.105,2,2,2,377,387,2025-06-06T10:08:45.967533
7736,0.0561,0.2152,0.9989,1.960,-6.125,-0.175,2,2,2,387,401,2025-06-06T10:08:45.967533
7737,0.0566,0.2211,1.0014,-0.735,-3.045,0.070,1,1,1,370,351,2025-06-06T10:08:45.967533
7738,0.0551,0.2191,1.0063,-0.455,-3.605,-0.175,1,2,1,382,384,2025-06-06T10:08:45.967533
7739,0.0532,0.2196,1.0024,0.490,-5.390,-0.385,1,3,1,384,384,2025-06-06T10:08:45.967533
7740,0.0542,0.2211,1.0014,0.630,-4.235,-0.315,1,1,1,381,390,2025-06-06T10:08:45.967533
7741,0.0542,0.2196,1.0004,0.245,-3.080,-0.035,2,3,1,393,387,2025-06-06T10:08:45.967533
7742,0.0512,0.2186,1.0058,0.000,-3.395,8.890,1,2,1,369,378,2025-06-06T10:08:45.967533
7743,0.0522,0.2181,1.0077,1.295,-4.620,-0.245,1,2,1,352,352,2025-06-06T10:08:45.967533
7744,0.0508,0.2216,1.0009,0.700,-4.270,-0.140,2,2,1,347,371,2025-06-06T10:08:45.967533
7745,0.0498,0.2206,1.0033,-0.035,-3.640,-0.035,2,1,0,329,380,2025-06-06T10:08:45.967533
7746,0.0503,0.2230,1.0028,0.000,-3.850,0.000,1,3,1,354,361,2025-06-06T10:08:46.148745
7747,0.0488,0.2186,1.0024,0.280,-5.075,-0.140,1,1,2,358,366,2025-06-06T10:08:46.148745
7748,0.0512,0.2191,1.0048,0.980,-4.375,-0.070,2,1,2,399,381,2025-06-06T10:08:46.148745
7749,0.0542,0.2225,1.0019,-0.070,-4.585,0.000,1,2,2,393,376,2025-06-06T10:08:46.148745
7750,0.0512,0.2220,1.0033,-0.315,-4.060,0.140,2,2,1,398,392,2025-06-06T10:08:46.148745
7751,0.0522,0.2191,1.0048,0.560,-4.725,0.000,2,3,2,392,387,2025-06-06T10:08:46.148745
7752,0.0537,0.2211,1.0063,0.350,-4.655,-0.070,3,2,1,394,392,2025-06-06T10:08:46.148745
7753,0.0537,0.2157,1.0014,0.350,-4.550,0.000,2,2,1,392,406,2025-06-06T10:08:46.175508
7754,0.0527,0.2191,1.0024,0.070,-3.955,-0.070,1,2,1,374,394,2025-06-06T10:08:46.175508
7755,0.0547,0.2201,1.0028,0.245,-4.270,-0.105,1,2,1,395,409,2025-06-06T10:08:46.175508
7756,0.0532,0.2206,1.0019,0.525,-4.270,-0.070,0,3,1,382,405,2025-06-06T10:08:46.175508
7757,0.0522,0.2201,1.0038,-0.035,-3.990,-0.035,1,1,2,394,389,2025-06-06T10:08:46.175508
7758,0.0498,0.2186,1.0038,0.140,-4.095,-0.140,1,2,1,387,396,2025-06-06T10:08:46.175508
7759,0.0503,0.2196,1.0038,0.420,-4.375,-0.140,1,1,1,369,375,2025-06-06T10:08:46.175508
7760,0.0522,0.2216,1.0028,0.245,-4.165,-0.070,2,2,1,389,379,2025-06-06T10:08:46.175508
7761,0.0522,0.2211,1.0053,0.175,-4.165,-0.105,2,2,1,388,379,2025-06-06T10:08:46.175508
7762,0.0508,0.2201,1.0028,0.175,-4.130,-0.070,1,1,1,396,377,2025-06-06T10:08:46.175508
7763,0.0512,0.2191,1.0024,0.105,-4.200,-0.105,1,1,1,391,385,2025-06-06T10:08:46.274576
7764,0.0508,0.2206,1.0028,0.385,-4.340,-0.140,0,2,1,377,379,2025-06-06T10:08:46.274576
7765,0.0508,0.2201,1.0038,0.000,-4.270,-0.070,1,2,1,393,398,2025-06-06T10:08:46.274576
7766,0.0488,0.2196,1.0053,0.105,-4.270,0.000,2,2,1,376,350,2025-06-06T10:08:46.274576
7767,0.0522,0.2206,1.0038,0.420,-4.550,-0.070,1,1,1,378,381,2025-06-06T10:08:46.274576
7768,0.0493,0.2186,1.0028,0.070,-4.585,-0.070,2,3,1,349,387,2025-06-06T10:08:46.274576
7769,0.0532,0.2191,1.0028,0.175,-4.340,0.070,2,1,1,362,377,2025-06-06T10:08:46.274576
7770,0.0522,0.2196,1.0033,0.280,-4.620,0.070,1,2,1,378,401,2025-06-06T10:08:46.274576
7771,0.0508,0.2186,1.0028,0.315,-4.620,-0.070,3,2,1,381,388,2025-06-06T10:08:46.274576
7772,0.0537,0.2191,1.0024,0.350,-4.480,-0.035,1,2,2,385,388,2025-06-06T10:08:46.414724
7773,0.0527,0.2211,1.0038,0.210,-4.375,-0.105,1,3,2,381,386,2025-06-06T10:08:46.414724
7774,0.0532,0.2196,1.0028,0.245,-4.375,-0.140,2,2,2,390,391,2025-06-06T10:08:46.414724
7775,0.0517,0.2206,1.0024,0.245,-4.200,-0.175,1,2,1,396,355,2025-06-06T10:08:46.414724
7776,0.0532,0.2196,1.0038,0.280,-4.235,-0.070,1,2,2,383,368,2025-06-06T10:08:46.414724
7777,0.0503,0.2167,1.0024,0.245,-4.130,-0.210,1,2,1,399,381,2025-06-06T10:08:46.414724
7778,0.0522,0.2201,1.0014,0.140,-4.025,-0.175,0,1,1,389,385,2025-06-06T10:08:46.414724
7779,0.0508,0.2206,1.0053,0.140,-4.095,-0.035,1,1,1,399,372,2025-06-06T10:08:46.414724
7780,0.0508,0.2201,1.0048,0.140,-4.165,-0.035,2,3,1,328,383,2025-06-06T10:08:46.414724
7781,0.0508,0.2211,1.0028,0.210,-4.270,-0.105,2,1,2,355,378,2025-06-06T10:08:46.414724
7782,0.0517,0.2201,1.0028,0.385,-4.480,-0.140,2,2,1,341,396,2025-06-06T10:08:46.414724
7783,0.0512,0.2211,1.0028,-0.210,-4.725,-0.105,1,2,2,360,399,2025-06-06T10:08:46.587713
7784,0.0532,0.2172,1.0082,0.770,-3.150,0.140,2,1,1,374,408,2025-06-06T10:08:46.587713
7785,0.0522,0.2186,1.0111,3.290,-6.230,-0.175,2,2,0,359,398,2025-06-06T10:08:46.587713
7786,0.0508,0.2206,1.0014,0.735,-5.425,-0.385,1,2,2,357,391,2025-06-06T10:08:46.587713
7787,0.0532,0.2240,1.0014,-0.525,-4.620,-0.175,2,2,1,377,395,2025-06-06T10:08:46.587713
7788,0.0517,0.2201,1.0009,1.995,-4.025,0.000,2,2,2,366,390,2025-06-06T10:08:46.587713
7789,0.0522,0.2259,1.0043,1.540,-4.200,-0.105,1,1,1,372,384,2025-06-06T10:08:46.587713
7790,0.0532,0.2216,1.0038,-1.015,-4.060,-0.035,2,2,1,373,394,2025-06-06T10:08:46.587713
7791,0.0522,0.2167,1.0019,3.220,-4.690,-0.210,1,0,1,375,391,2025-06-06T10:08:46.587713
7792,0.0522,0.2191,1.0033,3.675,-3.745,0.035,1,2,1,381,388,2025-06-06T10:08:46.587713
7793,0.0512,0.2220,1.0004,-1.505,-4.655,-0.455,2,2,1,374,382,2025-06-06T10:08:46.587713
7794,0.0483,0.2181,1.0028,1.155,-5.320,-0.210,1,1,2,385,388,2025-06-06T10:08:46.587713
7795,0.0532,0.2220,1.0058,0.210,-5.320,-0.280,1,3,1,387,398,2025-06-06T10:08:46.587713
7796,0.0508,0.2250,1.0058,-4.410,-3.115,0.070,2,1,1,346,380,2025-06-06T10:08:46.587713
7797,0.0761,0.1972,1.0209,1.155,-5.950,-0.630,2,2,1,381,386,2025-06-06T10:08:46.587713
7798,0.2089,0.1830,0.9579,4.410,0.910,1.330,1,2,1,381,388,2025-06-06T10:08:46.587713
7799,0.0917,0.1332,1.0199,3.815,4.095,0.140,2,1,1,390,358,2025-06-06T10:08:46.684760
7800,0.2611,0.1049,1.1307,-12.915,11.620,9.730,2,3,1,342,378,2025-06-06T10:08:46.684760
7801,1.2112,0.8496,0.5539,-61.705,32.165,29.785,2,1,1,374,381,2025-06-06T10:08:46.684760
7802,0.5085,0.0869,0.2538,-52.920,85.015,37.520,1,3,1,386,392,2025-06-06T10:08:46.684760
7803,-0.2035,0.0683,2.1340,-29.155,119.210,31.955,1,2,1,382,391,2025-06-06T10:08:46.684760
7804,-0.8140,-0.1191,1.5509,-26.355,92.015,8.120,1,0,1,351,384,2025-06-06T10:08:46.684760
7805,-0.5192,0.1425,0.8638,-5.145,68.740,-18.340,2,2,1,371,396,2025-06-06T10:08:46.684760
7806,-0.3601,0.2489,0.9228,-5.740,81.410,-27.720,1,1,1,391,405,2025-06-06T10:08:46.684760
7807,-0.4734,0.2201,1.0038,-1.085,92.855,-35.210,1,3,1,399,402,2025-06-06T10:08:46.786460
7808,-0.3811,0.2377,1.1507,23.940,75.250,-53.095,1,2,1,381,388,2025-06-06T10:08:46.786460
7809,-0.2430,0.2133,1.2322,37.450,46.795,-52.605,2,2,1,399,385,2025-06-06T10:08:46.786460
7810,0.2152,0.3767,1.6314,33.565,69.370,-47.530,2,2,1,401,388,2025-06-06T10:08:46.786460
7811,-0.1664,-0.0293,1.0292,-11.970,11.270,-36.015,2,2,1,383,373,2025-06-06T10:08:46.786460
7812,0.5417,-0.1635,0.3723,15.995,-14.875,-17.430,2,2,1,351,368,2025-06-06T10:08:46.786460
7813,0.2513,-0.0068,0.5309,69.650,-36.120,1.295,1,3,1,373,383,2025-06-06T10:08:46.786460
7814,0.1030,0.1254,1.1512,77.105,-21.105,10.535,1,1,0,360,394,2025-06-06T10:08:46.786460
7815,-0.0820,0.5017,1.2776,42.455,-13.615,25.865,2,2,1,370,398,2025-06-06T10:08:46.992608
7816,-0.1893,0.3865,1.2449,39.900,-25.200,23.310,2,1,1,378,398,2025-06-06T10:08:46.992608
7817,0.1547,0.4900,1.0180,-4.865,4.340,38.150,1,2,1,388,394,2025-06-06T10:08:46.992608
7818,0.0376,0.4778,1.0960,-17.500,-8.680,51.100,2,2,1,389,390,2025-06-06T10:08:46.992608
7819,-0.2089,0.2245,0.9243,-23.870,-2.975,54.180,2,2,1,383,386,2025-06-06T10:08:46.992608
7820,-0.0127,0.2396,1.2185,6.090,-22.085,59.080,2,1,0,352,349,2025-06-06T10:08:46.992608
7821,-0.1869,0.2650,1.3488,32.620,-19.285,57.925,2,2,1,360,330,2025-06-06T10:08:46.992608
7822,0.0361,0.5358,1.9657,-13.720,-17.010,62.790,2,2,1,371,355,2025-06-06T10:08:46.992608
7823,-0.3289,0.2943,1.5352,-96.740,35.840,78.120,1,2,0,349,354,2025-06-06T10:08:46.992608
7824,-0.3855,0.0015,1.1107,-46.515,-21.280,60.900,1,2,1,332,367,2025-06-06T10:08:46.992608
7825,-0.4080,0.0815,0.7559,9.485,-38.605,51.905,2,2,1,352,345,2025-06-06T10:08:46.992608
7826,-0.2562,0.2743,1.3044,33.250,-75.250,43.470,2,1,1,359,357,2025-06-06T10:08:46.992608
7827,-0.2996,0.2616,1.1141,13.440,-73.850,41.895,2,2,1,372,336,2025-06-06T10:08:46.993604
7828,-0.1332,0.1976,1.0443,32.165,-91.840,36.820,1,2,1,341,347,2025-06-06T10:08:46.993604
7829,0.0010,0.1742,0.8535,38.395,-77.350,36.155,2,1,1,373,377,2025-06-06T10:08:46.993604
7830,0.0332,0.1806,0.8032,50.365,-73.115,32.550,1,2,1,341,371,2025-06-06T10:08:46.993604
7831,0.0834,0.1840,0.7930,62.265,-51.730,27.720,2,1,1,366,378,2025-06-06T10:08:46.993604
7832,0.1103,0.2089,0.8350,76.265,-29.295,22.575,2,2,1,381,384,2025-06-06T10:08:47.133934
7833,0.1693,0.2835,0.9155,92.260,-19.635,19.810,2,2,2,381,393,2025-06-06T10:08:47.133934
7834,0.2128,0.3035,1.0126,100.310,-9.870,21.595,2,1,1,387,390,2025-06-06T10:08:47.133934
7835,0.1215,0.3606,1.0809,101.045,-2.310,19.005,1,2,2,396,352,2025-06-06T10:08:47.133934
7836,0.0961,0.3963,1.1458,101.570,-2.695,18.515,1,2,1,392,330,2025-06-06T10:08:47.133934
7837,0.0342,0.4124,1.1570,104.265,-3.220,14.770,1,2,1,384,333,2025-06-06T10:08:47.133934
7838,0.0356,0.4114,1.2527,106.470,-2.485,10.325,2,2,1,388,349,2025-06-06T10:08:47.133934
7839,0.0395,0.4250,1.2449,110.005,-5.880,5.460,2,1,1,352,326,2025-06-06T10:08:47.133934
7840,0.1786,0.4558,1.1868,124.460,-14.910,3.675,1,3,1,363,353,2025-06-06T10:08:47.133934
7841,0.0791,0.4817,1.1849,113.785,-23.065,7.385,1,1,1,368,373,2025-06-06T10:08:47.133934
7842,-0.0459,0.4797,1.1488,114.100,-26.215,6.475,2,2,1,376,388,2025-06-06T10:08:47.133934
7843,0.2826,0.4856,1.1468,117.390,-29.575,6.090,2,2,2,391,377,2025-06-06T10:08:47.133934
7844,0.1259,0.4631,0.9638,107.485,-27.405,5.075,2,1,2,393,391,2025-06-06T10:08:47.214596
7845,0.0112,0.5163,0.8794,113.225,-16.800,1.960,2,2,2,404,401,2025-06-06T10:08:47.214596
7846,0.0205,0.5109,1.1131,108.255,-25.340,-0.910,2,1,2,393,395,2025-06-06T10:08:47.214596
7847,-0.0488,0.4656,1.0370,111.125,-40.635,-7.350,2,2,1,391,387,2025-06-06T10:08:47.214596
7848,-0.0381,0.4738,0.9945,110.460,-54.775,-16.100,1,2,1,390,360,2025-06-06T10:08:47.214596
7849,-0.0630,0.4592,0.9760,105.420,-64.960,-25.900,1,2,1,361,376,2025-06-06T10:08:47.214596
7850,-0.0381,0.4953,1.0146,103.460,-74.340,-33.740,1,2,1,386,359,2025-06-06T10:08:47.214596
7851,0.0693,0.5095,0.8457,101.955,-90.965,-38.290,1,2,2,378,374,2025-06-06T10:08:47.321408
7852,0.1142,0.5622,0.7149,106.155,-98.560,-40.215,2,2,2,352,345,2025-06-06T10:08:47.321408
7853,0.2562,0.5607,0.6505,106.820,-96.670,-37.730,3,2,1,358,375,2025-06-06T10:08:47.321408
7854,0.3045,0.5139,0.4494,103.390,-77.875,-35.840,2,2,2,379,373,2025-06-06T10:08:47.321408
7855,0.2718,0.5505,0.4441,108.500,-56.315,-34.195,2,2,1,387,380,2025-06-06T10:08:47.321408
7856,0.2728,0.5456,0.4465,104.755,-33.320,-32.480,2,2,2,401,392,2025-06-06T10:08:47.321408
7857,0.2582,0.6007,0.4607,106.435,-13.685,-32.585,2,2,1,385,401,2025-06-06T10:08:47.321408
7858,0.1732,0.6466,0.4724,105.490,-3.220,-30.520,1,2,1,395,390,2025-06-06T10:08:47.581437
7859,0.0551,0.6525,0.5378,94.675,-2.240,-31.115,2,2,2,391,384,2025-06-06T10:08:47.581437
7860,0.0190,0.6617,0.5451,92.680,-7.980,-33.250,1,2,2,353,373,2025-06-06T10:08:47.581437
7861,-0.0161,0.6783,0.5793,90.125,-18.690,-35.840,1,2,1,374,374,2025-06-06T10:08:47.581437
7862,-0.0459,0.6769,0.5510,86.555,-28.175,-40.110,2,1,1,389,379,2025-06-06T10:08:47.581437
7863,-0.0264,0.7442,0.4743,80.815,-36.015,-41.965,2,2,2,400,378,2025-06-06T10:08:47.581437
7864,0.0254,0.7818,0.4104,70.245,-39.515,-42.525,1,1,1,393,383,2025-06-06T10:08:47.581437
7865,0.0898,0.7998,0.3631,59.605,-30.660,-40.005,2,2,2,391,375,2025-06-06T10:08:47.581437
7866,0.1684,0.7593,0.3201,51.765,-20.755,-36.470,2,2,1,386,379,2025-06-06T10:08:47.581437
7867,0.1459,0.7481,0.3182,48.790,-7.385,-32.060,1,2,2,381,392,2025-06-06T10:08:47.581437
7868,0.1108,0.7959,0.3260,40.600,0.630,-28.070,2,2,1,393,380,2025-06-06T10:08:47.581437
7869,0.0381,0.7950,0.3362,23.275,12.145,-25.060,1,2,1,392,380,2025-06-06T10:08:47.581437
7870,-0.0678,0.7154,0.2250,6.160,19.670,-25.410,2,1,1,385,386,2025-06-06T10:08:47.581437
7871,-0.2323,0.6495,0.0747,-8.365,10.500,-26.215,1,1,1,392,395,2025-06-06T10:08:47.581437
7872,-0.3650,0.6398,-0.3997,-23.765,-18.235,-17.815,1,1,1,398,389,2025-06-06T10:08:47.581437
7873,-0.4309,0.7496,-1.3000,-54.250,-59.640,0.945,1,2,1,387,396,2025-06-06T10:08:47.581437
7874,-0.6290,0.9565,-2.1174,-111.685,-101.220,22.120,1,1,1,378,387,2025-06-06T10:08:47.581437
7875,-0.8013,0.9955,-2.6513,-208.495,-127.050,50.505,1,2,1,379,381,2025-06-06T10:08:47.581437
7876,-0.6798,0.7047,-2.7723,-304.220,-121.730,56.280,1,2,1,388,379,2025-06-06T10:08:47.581437
7877,-0.5417,0.2904,-2.3946,-372.260,-99.820,30.170,1,2,2,383,390,2025-06-06T10:08:47.581437
7878,-0.6022,-0.1220,-1.4396,-385.140,-53.060,10.710,2,2,1,396,400,2025-06-06T10:08:47.581437
7879,0.0547,-0.2094,-0.3455,-331.695,-11.445,20.685,1,2,0,364,356,2025-06-06T10:08:47.581437
7880,0.6407,-0.3245,0.9814,-295.225,89.110,58.065,2,1,1,363,380,2025-06-06T10:08:47.664623
7881,1.1141,-0.5217,2.6547,-243.845,211.785,112.490,2,2,1,371,384,2025-06-06T10:08:47.664623
7882,0.8281,-0.7584,4.2573,-249.305,299.565,120.120,1,2,1,382,365,2025-06-06T10:08:47.664623
7883,0.4475,-0.7003,5.0108,-218.470,223.370,50.015,2,3,1,370,376,2025-06-06T10:08:47.664623
7884,0.0849,0.1298,4.9796,-200.200,14.665,-5.565,1,1,1,387,388,2025-06-06T10:08:47.664623
7885,-0.1303,1.2576,3.4843,-215.845,-290.990,74.060,2,3,2,382,381,2025-06-06T10:08:47.846021
7886,-0.9448,0.4612,0.6734,-183.540,-409.710,108.990,2,2,1,389,348,2025-06-06T10:08:47.846021
7887,-1.0146,-0.5197,-0.3255,-95.900,-318.185,55.090,2,2,2,376,363,2025-06-06T10:08:47.846021
7888,-0.4880,-0.5983,0.2708,-81.200,-180.005,-13.720,1,2,2,375,378,2025-06-06T10:08:47.846021
7889,0.6154,-0.3182,0.4416,-107.905,-109.340,-18.060,1,3,1,377,389,2025-06-06T10:08:47.846021
7890,1.0590,-0.3006,0.2450,-62.825,-21.735,17.220,2,3,1,391,399,2025-06-06T10:08:47.846021
7891,0.7183,-0.2991,0.8096,-46.830,76.755,25.865,1,2,1,377,399,2025-06-06T10:08:47.846021
7892,0.4831,-0.0952,1.2542,-52.885,117.915,12.565,1,2,1,377,387,2025-06-06T10:08:47.846021
7893,0.2869,0.1215,1.3747,-24.745,122.815,4.830,2,2,1,369,378,2025-06-06T10:08:47.846021
7894,0.1825,0.3631,1.6978,-3.150,130.270,7.945,1,2,1,389,374,2025-06-06T10:08:47.846021
7895,0.0547,0.4680,2.0823,20.650,74.060,16.345,1,2,1,389,381,2025-06-06T10:08:47.846021
7896,0.1142,0.4197,2.0472,17.535,27.825,22.015,2,2,1,388,396,2025-06-06T10:08:48.037320
7897,0.2699,0.3484,1.8149,47.950,-14.735,18.900,2,2,1,391,396,2025-06-06T10:08:48.037320
7898,0.3045,0.3509,1.6602,58.835,-23.030,16.800,1,1,1,393,400,2025-06-06T10:08:48.037320
7899,0.3660,0.3621,1.4406,56.455,-21.980,18.025,1,0,1,400,399,2025-06-06T10:08:48.037320
7900,0.4050,0.3592,1.2200,60.025,-10.780,20.685,2,2,1,388,393,2025-06-06T10:08:48.037320
7901,0.4006,0.3987,1.1356,67.900,-3.115,23.730,1,3,2,383,387,2025-06-06T10:08:48.037320
7902,0.3392,0.3821,0.9116,59.430,7.910,28.875,2,3,2,392,358,2025-06-06T10:08:48.037320
7903,0.2567,0.3958,0.8642,47.320,20.790,29.960,2,3,2,399,373,2025-06-06T10:08:48.037320
7904,0.1654,0.3967,0.8311,36.680,16.135,29.610,2,2,2,396,354,2025-06-06T10:08:48.037320
7905,0.0961,0.3758,0.7618,28.945,6.755,27.755,2,3,1,398,388,2025-06-06T10:08:48.037320
7906,0.0654,0.3367,0.6895,17.255,1.505,24.430,2,2,1,406,389,2025-06-06T10:08:48.037320
7907,0.0586,0.3177,0.6749,9.905,-2.485,18.585,1,3,1,402,351,2025-06-06T10:08:48.037320
7908,0.0420,0.2889,0.6608,4.900,-5.355,11.340,1,2,1,398,339,2025-06-06T10:08:48.037320
7909,0.1118,0.2840,0.6471,4.305,-5.670,6.265,1,2,1,387,365,2025-06-06T10:08:48.037320
7910,0.1923,0.2840,0.6905,3.955,-2.730,5.740,1,1,1,386,370,2025-06-06T10:08:48.037320
7911,0.2152,0.2904,0.7037,2.695,2.765,7.525,2,1,1,388,385,2025-06-06T10:08:48.037320
7912,0.2416,0.3001,0.7169,2.800,10.990,11.200,2,2,1,349,392,2025-06-06T10:08:48.037320
7913,0.2557,0.2996,0.7559,3.395,19.600,15.540,1,2,1,331,390,2025-06-06T10:08:48.037320
7914,0.2464,0.3099,0.8013,4.935,25.515,18.865,1,3,1,362,392,2025-06-06T10:08:48.037320
7915,0.2557,0.3270,0.8496,5.005,33.005,21.210,1,2,1,386,389,2025-06-06T10:08:48.037320
7916,0.2035,0.3318,0.9160,2.450,35.490,23.625,1,2,1,353,376,2025-06-06T10:08:48.037320
7917,0.1537,0.3192,0.9472,2.345,32.235,22.575,1,1,1,380,350,2025-06-06T10:08:48.037320
7918,0.1410,0.3328,0.9931,3.220,25.025,20.860,2,2,2,343,360,2025-06-06T10:08:48.074634
7919,0.0927,0.3221,1.0238,1.470,14.420,18.305,2,2,1,380,386,2025-06-06T10:08:48.074634
7920,0.0854,0.3118,1.0331,-2.590,5.355,14.875,2,3,1,392,363,2025-06-06T10:08:48.074634
7921,0.1225,0.3138,1.0189,-3.430,-6.055,13.160,3,2,2,394,383,2025-06-06T10:08:48.074634
7922,0.1425,0.3104,0.8779,-3.185,-13.055,12.390,2,2,2,357,387,2025-06-06T10:08:48.074634
7923,0.2020,0.2996,0.9716,-2.905,-15.540,12.880,1,3,1,364,361,2025-06-06T10:08:48.124033
7924,0.2186,0.2967,0.9511,-0.525,-14.525,13.685,1,2,1,374,377,2025-06-06T10:08:48.124033
7925,0.2357,0.2977,0.9257,1.890,-11.970,15.015,2,2,1,389,387,2025-06-06T10:08:48.124033
7926,0.2230,0.2928,0.9043,1.505,-5.915,16.240,1,3,1,391,393,2025-06-06T10:08:48.206435
7927,0.2020,0.2869,0.9116,2.170,0.420,16.310,2,2,1,397,394,2025-06-06T10:08:48.207442
7928,0.2064,0.2738,0.9331,0.280,6.370,16.240,2,3,1,397,396,2025-06-06T10:08:48.207442
7929,0.1835,0.2728,0.9584,1.890,11.795,14.490,2,2,1,391,379,2025-06-06T10:08:48.207442
7930,0.1371,0.2611,0.9770,0.140,14.070,10.955,2,2,2,393,388,2025-06-06T10:08:48.322164
7931,0.1210,0.2567,0.9853,1.785,14.105,6.545,1,2,1,386,401,2025-06-06T10:08:48.322164
7932,0.1127,0.2621,1.0053,2.835,14.385,3.465,1,2,2,389,385,2025-06-06T10:08:48.322164
7933,0.1230,0.2762,1.0243,5.110,9.870,2.065,1,2,1,384,396,2025-06-06T10:08:48.322164
7934,0.1469,0.2948,1.0321,5.460,2.380,2.625,2,3,2,383,382,2025-06-06T10:08:48.322164
7935,0.1532,0.3118,1.0155,6.825,-5.215,4.550,1,3,1,391,378,2025-06-06T10:08:48.322164
7936,0.1371,0.3206,1.0048,7.735,-12.215,6.895,2,2,1,354,309,2025-06-06T10:08:48.322164
7937,0.1347,0.3206,0.9770,7.210,-18.445,7.700,2,2,1,357,351,2025-06-06T10:08:48.322164
7938,0.1562,0.3196,0.9370,9.415,-20.125,7.560,1,2,1,389,367,2025-06-06T10:08:48.322164
7939,0.1440,0.3348,0.9150,10.640,-19.740,7.595,2,2,1,319,373,2025-06-06T10:08:48.322164
7940,0.1405,0.3401,0.8989,10.220,-16.310,6.545,1,2,1,361,376,2025-06-06T10:08:48.322164
7941,0.1493,0.3431,0.9028,9.555,-13.335,5.985,1,2,1,378,353,2025-06-06T10:08:48.322164
7942,0.1527,0.3479,0.8965,10.010,-10.640,6.265,2,2,1,376,366,2025-06-06T10:08:48.322164
7943,0.1762,0.3611,0.8896,8.715,-8.085,7.560,3,2,1,392,349,2025-06-06T10:08:48.425471
7944,0.1869,0.3758,0.8935,7.735,-5.810,9.835,1,2,1,392,377,2025-06-06T10:08:48.425471
7945,0.1962,0.3767,0.8896,6.090,-3.850,12.530,1,3,1,402,378,2025-06-06T10:08:48.425471
7946,0.1835,0.3626,0.8857,5.250,-2.730,13.825,1,2,1,400,351,2025-06-06T10:08:48.425471
7947,0.1596,0.3567,0.8862,4.235,-0.630,13.790,2,2,1,387,335,2025-06-06T10:08:48.425471
7948,0.1401,0.3548,0.8789,3.360,1.050,12.110,2,2,1,392,373,2025-06-06T10:08:48.425471
7949,0.1298,0.3592,0.8847,3.325,4.655,8.610,2,2,1,391,381,2025-06-06T10:08:48.425471
7950,0.1332,0.3382,0.8979,2.590,6.755,6.125,1,3,2,387,380,2025-06-06T10:08:48.425471
7951,0.0932,0.3392,0.9111,0.245,6.440,4.095,1,2,0,363,384,2025-06-06T10:08:48.425471
7952,0.1010,0.3567,0.9023,0.875,4.060,1.680,2,3,1,370,363,2025-06-06T10:08:48.530378
7953,0.1171,0.3767,0.9189,1.575,1.295,0.525,2,2,2,372,388,2025-06-06T10:08:48.530378
7954,0.1274,0.3748,0.9335,-0.490,-0.700,0.735,2,2,2,388,392,2025-06-06T10:08:48.530378
7955,0.1469,0.3553,0.9355,-4.095,-0.945,1.505,2,3,1,383,391,2025-06-06T10:08:48.530378
7956,0.1566,0.3533,0.9565,-5.565,-2.275,1.995,1,2,1,356,380,2025-06-06T10:08:48.530378
7957,0.1576,0.3518,0.9750,-5.600,-3.675,2.625,1,3,1,378,400,2025-06-06T10:08:48.530378
7958,0.1513,0.3450,0.9765,-6.300,-5.635,2.835,1,2,1,388,394,2025-06-06T10:08:48.530378
7959,0.1825,0.3382,0.9614,-5.600,-6.580,2.870,1,3,1,397,395,2025-06-06T10:08:48.530378
7960,0.1913,0.3343,0.9604,-4.340,-5.600,3.115,2,3,1,388,400,2025-06-06T10:08:48.530378
7961,0.1976,0.3274,0.9618,-6.125,-2.100,3.500,2,2,2,395,389,2025-06-06T10:08:48.746371
7962,0.2015,0.3196,0.9565,-6.930,1.470,3.920,2,2,2,379,381,2025-06-06T10:08:48.746371
7963,0.2089,0.3152,0.9701,-6.965,4.620,5.600,1,2,2,374,377,2025-06-06T10:08:48.746371
7964,0.2147,0.3070,0.9833,-7.455,7.175,8.015,1,2,1,382,379,2025-06-06T10:08:48.746371
7965,0.2094,0.2996,0.9809,-7.560,8.155,9.870,1,2,1,389,392,2025-06-06T10:08:48.746371
7966,0.2089,0.2918,0.9828,-5.775,9.030,12.005,2,2,1,384,383,2025-06-06T10:08:48.746371
7967,0.2050,0.2840,0.9794,-2.590,8.890,13.160,1,2,1,396,394,2025-06-06T10:08:48.746371
7968,0.2040,0.2704,0.9589,0.945,10.115,13.160,0,2,1,385,355,2025-06-06T10:08:48.746371
7969,0.1815,0.2782,0.9409,3.605,12.075,12.565,2,2,2,379,366,2025-06-06T10:08:48.746371
7970,0.1581,0.2811,0.9135,3.080,14.700,10.850,2,3,1,394,387,2025-06-06T10:08:48.746371
7971,0.1274,0.2826,0.9106,0.840,19.880,8.260,1,2,1,395,380,2025-06-06T10:08:48.746371
7972,0.1127,0.2689,0.9316,-0.595,23.380,5.635,2,3,1,398,356,2025-06-06T10:08:48.746371
7973,0.1127,0.2674,0.9414,1.365,24.080,3.395,2,2,1,382,334,2025-06-06T10:08:48.746371
7974,0.1357,0.2972,0.9687,3.955,22.715,3.115,2,2,1,390,358,2025-06-06T10:08:48.746371
7975,0.1435,0.3201,0.9794,2.380,20.405,4.585,1,2,1,392,384,2025-06-06T10:08:48.746371
7976,0.1688,0.3562,0.9819,0.175,20.370,7.315,2,2,2,357,382,2025-06-06T10:08:48.746371
7977,0.1488,0.3045,0.9794,-2.765,18.550,11.830,2,3,2,369,393,2025-06-06T10:08:48.746371
7978,0.1430,0.3055,0.9906,-2.765,17.255,13.720,2,2,1,384,400,2025-06-06T10:08:48.746371
7979,0.1279,0.3177,0.9950,-2.905,14.105,16.170,2,3,2,351,382,2025-06-06T10:08:48.840091
7980,0.1337,0.3235,0.9887,-5.880,16.415,17.150,1,3,1,373,394,2025-06-06T10:08:48.840091
7981,0.1440,0.3362,0.9975,-9.135,19.950,17.255,2,2,1,388,366,2025-06-06T10:08:48.840091
7982,0.1322,0.3050,0.9755,-13.650,25.025,18.585,2,2,1,389,384,2025-06-06T10:08:48.840091
7983,0.1362,0.2918,0.9414,-14.840,24.920,18.935,1,2,1,393,347,2025-06-06T10:08:48.840091
7984,0.1259,0.2689,0.9540,-14.140,26.145,19.390,1,3,1,380,371,2025-06-06T10:08:48.840091
7985,0.1601,0.2650,0.7725,-18.690,28.280,20.475,1,2,1,345,374,2025-06-06T10:08:48.840091
7986,0.1103,0.2655,0.8564,-17.045,27.265,19.565,1,2,1,368,395,2025-06-06T10:08:48.840091
7987,0.1127,0.2469,0.9340,-17.220,32.375,18.235,1,2,1,375,395,2025-06-06T10:08:48.937624
7988,0.1025,0.2206,0.9204,-15.960,38.045,14.945,2,2,1,385,393,2025-06-06T10:08:48.937624
7989,0.0786,0.2176,0.9174,-18.620,42.910,11.480,2,2,1,385,395,2025-06-06T10:08:48.937624
7990,0.0405,0.2113,0.9145,-18.130,43.820,7.490,2,2,1,395,399,2025-06-06T10:08:48.937624
7991,0.0220,0.2157,0.9248,-18.200,44.730,2.870,2,2,1,396,395,2025-06-06T10:08:48.937624
7992,-0.0083,0.2289,0.9462,-15.155,43.120,-3.465,1,3,1,386,389,2025-06-06T10:08:48.937624
7993,-0.0176,0.2469,0.9819,-15.120,41.195,-9.485,1,1,1,395,386,2025-06-06T10:08:48.937624
7994,-0.0259,0.2557,0.9618,-16.555,38.080,-14.455,2,3,1,395,391,2025-06-06T10:08:48.937624
