SeqNum,AccX,AccY,AccZ,GyroX,GyroY,GyroZ,Flex,Force1,Force2,Force3,Force4,TimestampReception
12650,-0.7149,-0.6432,0.3660,0.735,-7.245,0.280,1,1,1,336,323,2025-06-05T16:10:09.309505
12651,-0.2377,-0.9589,0.3567,5.810,11.445,-3.465,1,1,1,345,289,2025-06-05T16:10:09.309505
12652,-0.2386,-0.9579,0.3514,5.390,11.970,-3.325,1,1,2,370,306,2025-06-05T16:10:09.309505
12653,-0.2474,-0.9550,0.3460,4.690,11.620,-2.835,2,2,1,374,351,2025-06-05T16:10:09.309505
12654,-0.2582,-0.9550,0.3455,4.130,10.430,-2.240,2,2,1,393,332,2025-06-05T16:10:09.309505
12655,-0.2757,-0.9467,0.3440,3.815,6.860,-1.330,1,1,1,377,368,2025-06-05T16:10:09.309505
12656,-0.2718,-0.9506,0.3362,3.500,3.115,-0.140,1,1,1,372,382,2025-06-05T16:10:09.309505
12657,-0.2801,-0.9511,0.3406,3.465,-2.345,0.595,1,2,1,389,389,2025-06-05T16:10:09.309505
12658,-0.2669,-0.9511,0.3411,3.395,-6.055,1.225,1,1,1,396,395,2025-06-05T16:10:09.309505
12659,-0.2416,-0.9492,0.3392,3.080,-8.190,1.575,1,1,1,400,387,2025-06-05T16:10:09.309505
12660,-0.2333,-0.9526,0.3431,2.520,-8.680,1.610,1,1,1,396,386,2025-06-05T16:10:09.309505
12661,-0.2294,-0.9575,0.3421,1.995,-8.470,1.575,1,1,0,350,383,2025-06-05T16:10:09.310268
12662,-0.2284,-0.9643,0.3392,1.400,-8.575,1.470,1,1,1,373,373,2025-06-05T16:10:09.310268
12663,-0.2333,-0.9736,0.3406,0.980,-9.590,1.190,1,2,1,370,377,2025-06-05T16:10:09.310268
12664,-0.2338,-0.9755,0.3470,0.595,-10.570,0.770,1,1,2,385,384,2025-06-05T16:10:09.310268
12665,-0.2303,-0.9711,0.3538,0.175,-12.425,0.665,1,1,1,391,394,2025-06-05T16:10:09.310268
12666,-0.2255,-0.9701,0.3577,0.070,-13.965,0.595,1,1,1,395,397,2025-06-05T16:10:09.310268
12667,-0.2172,-0.9672,0.3553,-0.280,-15.050,0.630,1,2,1,398,402,2025-06-05T16:10:09.583607
12668,-0.2040,-0.9623,0.3523,-0.350,-15.295,0.630,2,1,2,401,396,2025-06-05T16:10:09.583607
12669,-0.1923,-0.9555,0.3479,-0.910,-14.630,0.770,2,1,1,396,386,2025-06-05T16:10:09.583607
12670,-0.1903,-0.9492,0.3396,-1.435,-13.615,0.910,1,1,1,396,363,2025-06-05T16:10:09.583607
12671,-0.1928,-0.9492,0.3338,-1.995,-13.475,1.015,2,2,1,397,379,2025-06-05T16:10:09.583607
12672,-0.1976,-0.9492,0.3353,-2.555,-13.650,0.770,2,2,1,386,347,2025-06-05T16:10:09.583607
12673,-0.1947,-0.9501,0.3416,-2.835,-13.825,0.385,1,1,1,380,330,2025-06-05T16:10:09.583607
12674,-0.1952,-0.9545,0.3416,-2.905,-14.140,-0.595,1,1,1,353,352,2025-06-05T16:10:09.583607
12675,-0.1913,-0.9599,0.3470,-2.765,-13.370,-1.435,2,1,1,377,364,2025-06-05T16:10:09.583607
12676,-0.1850,-0.9594,0.3494,-2.800,-11.585,-2.765,1,1,1,383,373,2025-06-05T16:10:09.583607
12677,-0.1825,-0.9648,0.3523,-2.765,-9.310,-3.745,2,1,1,345,379,2025-06-05T16:10:09.583607
12678,-0.1952,-0.9653,0.3523,-2.835,-7.490,-4.165,1,1,1,375,375,2025-06-05T16:10:09.583607
12679,-0.2064,-0.9706,0.3504,-2.905,-7.000,-3.920,2,1,1,380,389,2025-06-05T16:10:09.583607
12680,-0.2142,-0.9711,0.3460,-3.010,-7.805,-3.395,1,1,1,347,374,2025-06-05T16:10:09.583607
12681,-0.2123,-0.9716,0.3484,-2.940,-9.065,-2.485,1,1,1,363,385,2025-06-05T16:10:09.583607
12682,-0.2172,-0.9716,0.3523,-2.835,-10.465,-1.470,2,2,1,371,384,2025-06-05T16:10:09.583607
12683,-0.2128,-0.9731,0.3499,-2.625,-11.410,-0.875,2,1,1,386,403,2025-06-05T16:10:09.583607
12684,-0.2074,-0.9750,0.3509,-2.485,-11.935,-0.595,2,2,1,381,392,2025-06-05T16:10:09.583607
12685,-0.2069,-0.9672,0.3514,-2.065,-12.530,-0.245,1,2,2,381,394,2025-06-05T16:10:09.695817
12686,-0.2059,-0.9692,0.3504,-1.995,-12.460,-0.280,1,2,1,377,395,2025-06-05T16:10:09.696103
12687,-0.1981,-0.9653,0.3475,-1.750,-11.970,-0.630,2,2,2,392,402,2025-06-05T16:10:09.696103
12688,-0.1986,-0.9623,0.3523,-1.820,-11.795,-0.840,2,1,2,397,394,2025-06-05T16:10:09.696103
12689,-0.2015,-0.9594,0.3499,-1.925,-11.795,-0.805,2,1,1,381,394,2025-06-05T16:10:09.696103
12690,-0.1869,-0.9599,0.3431,-1.820,-11.830,-0.490,1,2,2,380,402,2025-06-05T16:10:09.696103
12691,-0.2015,-0.9599,0.3362,-2.135,-12.845,-0.560,2,1,2,393,410,2025-06-05T16:10:09.696103
12692,-0.1957,-0.9648,0.3348,-2.135,-13.090,-0.735,1,1,1,389,402,2025-06-05T16:10:09.696103
12693,-0.1947,-0.9706,0.3362,-2.100,-13.405,-0.945,1,2,1,397,397,2025-06-05T16:10:09.696103
12694,-0.1898,-0.9765,0.3382,-1.925,-13.300,-1.365,2,1,1,395,394,2025-06-05T16:10:09.696103
12695,-0.1889,-0.9775,0.3372,-1.820,-12.915,-1.540,1,1,1,387,379,2025-06-05T16:10:09.696103
12696,-0.1893,-0.9750,0.3377,-1.855,-12.250,-1.610,1,1,2,379,387,2025-06-05T16:10:09.696103
12697,-0.1859,-0.9692,0.3489,-1.960,-11.970,-1.400,1,1,1,381,381,2025-06-05T16:10:09.697099
12698,-0.1928,-0.9628,0.3411,-2.240,-12.600,-1.120,1,1,1,372,389,2025-06-05T16:10:09.697099
12699,-0.1908,-0.9618,0.3353,-2.800,-13.615,-0.455,1,2,1,385,402,2025-06-05T16:10:09.697099
12700,-0.1957,-0.9643,0.3279,-3.220,-15.120,-0.245,1,1,1,394,364,2025-06-05T16:10:09.697099
12701,-0.1942,-0.9711,0.3304,-3.220,-16.835,-0.105,2,1,1,390,377,2025-06-05T16:10:10.088988
12702,-0.1913,-0.9750,0.3318,-3.115,-18.305,-0.280,2,1,2,381,373,2025-06-05T16:10:10.088988
12703,-0.1850,-0.9784,0.2987,-3.535,-18.725,-0.455,1,1,1,387,375,2025-06-05T16:10:10.088988
12704,-0.1810,-0.9823,0.3714,-1.155,-18.340,-0.665,2,2,2,399,390,2025-06-05T16:10:10.088988
12705,-0.1688,-0.9921,0.3440,-1.715,-16.800,-1.295,2,1,1,391,389,2025-06-05T16:10:10.088988
12706,-0.1601,-0.9765,0.2943,-2.555,-15.610,-2.030,1,1,2,381,393,2025-06-05T16:10:10.088988
12707,-0.1640,-1.0014,0.3440,-0.245,-12.460,-2.030,1,2,2,397,356,2025-06-05T16:10:10.088988
12708,-0.1630,-0.9877,0.3518,-1.960,-10.955,-2.135,2,2,1,374,374,2025-06-05T16:10:10.088988
12709,-0.1713,-0.9882,0.3416,-1.330,-10.115,-1.575,1,1,1,388,379,2025-06-05T16:10:10.088988
12710,-0.1786,-0.9897,0.3289,-1.890,-8.715,-1.050,1,2,1,362,378,2025-06-05T16:10:10.088988
12711,-0.1806,-0.9843,0.3299,-1.540,-9.835,-0.315,1,1,1,375,389,2025-06-05T16:10:10.089573
12712,-0.1771,-0.9867,0.3309,-1.260,-10.920,0.455,1,1,1,388,386,2025-06-05T16:10:10.089573
12713,-0.1693,-0.9814,0.3333,-1.190,-10.290,0.735,1,1,1,379,388,2025-06-05T16:10:10.089573
12714,-0.1635,-0.9775,0.3406,-0.735,-10.010,0.910,2,2,1,377,390,2025-06-05T16:10:10.089573
12715,-0.1610,-0.9711,0.3367,-0.665,-8.435,0.770,1,1,1,385,384,2025-06-05T16:10:10.089573
12716,-0.1723,-0.9653,0.3333,-0.840,-6.580,0.350,1,1,1,389,392,2025-06-05T16:10:10.090122
12717,-0.1688,-0.9618,0.3323,-1.050,-5.320,0.035,1,1,1,395,385,2025-06-05T16:10:10.090122
12718,-0.1723,-0.9638,0.3265,-0.945,-4.900,-0.245,2,2,1,397,348,2025-06-05T16:10:10.223667
12719,-0.1810,-0.9658,0.3172,-0.595,-5.320,-0.490,2,2,2,384,372,2025-06-05T16:10:10.223667
12720,-0.1820,-0.9706,0.3162,-0.420,-5.810,-1.085,2,2,1,390,380,2025-06-05T16:10:10.223667
12721,-0.1791,-0.9745,0.3240,-0.245,-5.740,-1.995,2,2,2,397,374,2025-06-05T16:10:10.223667
12722,-0.1810,-0.9823,0.3289,0.000,-4.795,-2.870,1,1,1,385,379,2025-06-05T16:10:10.224664
12723,-0.1781,-0.9858,0.3362,0.210,-3.920,-3.255,1,1,1,390,346,2025-06-05T16:10:10.224664
12724,-0.1732,-0.9921,0.3387,0.490,-2.695,-3.255,1,1,1,377,330,2025-06-05T16:10:10.224664
12725,-0.1830,-0.9823,0.3328,0.245,-2.485,-2.905,1,1,1,387,358,2025-06-05T16:10:10.224664
12726,-0.1937,-0.9819,0.3270,-0.035,-3.045,-2.100,1,1,1,393,377,2025-06-05T16:10:10.224664
12727,-0.2011,-0.9745,0.3216,-0.560,-4.165,-1.085,1,1,1,382,390,2025-06-05T16:10:10.224664
12728,-0.2020,-0.9745,0.3211,-0.630,-6.300,-0.210,2,2,1,390,355,2025-06-05T16:10:10.224664
12729,-0.2011,-0.9775,0.3265,-0.735,-8.540,0.700,1,2,1,389,379,2025-06-05T16:10:10.225339
12730,-0.1893,-0.9799,0.3299,-0.560,-9.835,1.225,1,1,1,399,385,2025-06-05T16:10:10.225339
12731,-0.1840,-0.9799,0.3362,0.000,-10.395,1.155,2,2,2,389,392,2025-06-05T16:10:10.225339
12732,-0.1762,-0.9809,0.3367,0.525,-9.730,0.770,2,2,2,386,399,2025-06-05T16:10:10.225339
12733,-0.1684,-0.9804,0.3353,1.085,-8.575,0.175,2,2,1,397,385,2025-06-05T16:10:10.225339
12734,-0.1649,-0.9809,0.3314,1.470,-6.860,-0.245,2,2,1,391,387,2025-06-05T16:10:10.225657
12735,-0.1664,-0.9838,0.3318,1.820,-5.705,-0.770,2,1,2,384,390,2025-06-05T16:10:10.225657
12736,-0.1669,-0.9843,0.3270,1.890,-4.865,-1.225,1,1,2,379,395,2025-06-05T16:10:10.225657
12737,-0.1693,-0.9892,0.3216,1.715,-4.340,-1.785,1,1,1,381,378,2025-06-05T16:10:10.225657
12738,-0.1630,-0.9765,0.2806,-8.785,-4.620,-2.660,2,1,2,389,371,2025-06-05T16:10:10.225657
12739,-0.1781,-1.0019,0.3494,3.010,-4.620,-1.995,1,2,1,389,374,2025-06-05T16:10:10.225657
12740,-0.1688,-0.9794,0.3445,0.770,-3.955,-1.785,1,1,1,389,393,2025-06-05T16:10:10.420671
12741,-0.1688,-0.9780,0.3245,1.400,-2.940,-1.680,1,1,1,387,396,2025-06-05T16:10:10.420671
12742,-0.1728,-0.9843,0.3148,0.525,-1.050,-1.400,2,2,1,381,355,2025-06-05T16:10:10.420671
12743,-0.1810,-0.9784,0.3274,0.560,-0.735,-1.190,2,1,1,383,370,2025-06-05T16:10:10.420671
12744,-0.1908,-0.9804,0.3367,0.840,-2.485,-0.910,1,1,1,391,379,2025-06-05T16:10:10.420671
12745,-0.1918,-0.9770,0.3392,0.840,-2.415,-0.665,2,2,1,393,384,2025-06-05T16:10:10.420671
12746,-0.1932,-0.9726,0.3392,1.015,-3.990,-0.525,2,1,2,391,397,2025-06-05T16:10:10.420671
12747,-0.1908,-0.9692,0.3392,1.225,-4.760,-0.490,1,2,2,393,384,2025-06-05T16:10:10.420671
12748,-0.1903,-0.9701,0.3353,1.050,-4.305,-0.735,1,1,1,399,378,2025-06-05T16:10:10.421667
12749,-0.1859,-0.9755,0.3304,1.435,-4.515,-0.980,1,1,1,382,348,2025-06-05T16:10:10.421667
12750,-0.1874,-0.9721,0.3323,1.260,-4.340,-0.945,1,1,1,374,363,2025-06-05T16:10:10.421667
12751,-0.1932,-0.9804,0.3270,1.330,-4.445,-1.015,2,1,1,386,383,2025-06-05T16:10:10.421667
12752,-0.1962,-0.9823,0.3211,1.155,-5.040,-1.120,2,2,1,389,373,2025-06-05T16:10:10.421667
12753,-0.1967,-0.9902,0.3192,1.015,-5.460,-1.050,1,2,1,346,377,2025-06-05T16:10:10.421667
12754,-0.2015,-0.9897,0.3235,1.120,-6.685,-0.700,1,1,1,358,379,2025-06-05T16:10:10.421667
12755,-0.2001,-0.9872,0.3274,1.190,-8.435,-0.280,1,1,1,376,379,2025-06-05T16:10:10.421667
12756,-0.1976,-0.9799,0.3235,1.260,-9.695,0.105,1,1,2,344,384,2025-06-05T16:10:10.421667
12757,-0.1874,-0.9716,0.3231,0.980,-10.430,0.490,1,1,1,361,393,2025-06-05T16:10:10.421667
12758,-0.1791,-0.9687,0.3240,0.805,-10.395,0.840,2,2,1,365,380,2025-06-05T16:10:10.421667
12759,-0.1698,-0.9682,0.3274,0.420,-9.905,1.015,1,1,1,383,391,2025-06-05T16:10:10.421667
12760,-0.1679,-0.9721,0.3309,0.035,-8.820,0.805,2,1,1,392,396,2025-06-05T16:10:10.421667
12761,-0.1718,-0.9736,0.3348,-0.070,-8.190,0.805,1,1,1,392,360,2025-06-05T16:10:10.421667
12762,-0.1732,-0.9760,0.3333,-0.280,-8.435,0.700,1,1,1,390,378,2025-06-05T16:10:10.506195
12763,-0.1776,-0.9780,0.3265,-0.525,-9.345,0.595,1,1,1,397,386,2025-06-05T16:10:10.506195
12764,-0.1781,-0.9814,0.3235,-1.050,-10.465,0.385,1,2,2,392,349,2025-06-05T16:10:10.507268
12765,-0.1791,-0.9819,0.3221,-1.365,-11.550,0.140,2,2,1,394,363,2025-06-05T16:10:10.507268
12766,-0.1771,-0.9814,0.3289,-1.610,-12.180,0.000,2,2,2,394,373,2025-06-05T16:10:10.507268
12767,-0.1786,-0.9833,0.3338,-1.750,-12.495,-0.245,1,2,1,348,374,2025-06-05T16:10:10.507268
12768,-0.1776,-0.9867,0.3338,-1.820,-12.705,-0.280,1,1,1,358,390,2025-06-05T16:10:10.507268
12769,-0.1762,-0.9819,0.3396,-1.820,-12.530,-0.175,2,2,1,376,398,2025-06-05T16:10:10.507268
12770,-0.1786,-0.9819,0.3357,-2.240,-12.810,0.385,2,1,2,380,392,2025-06-05T16:10:10.711850
12771,-0.1854,-0.9848,0.3265,-2.730,-13.510,0.875,2,2,1,373,393,2025-06-05T16:10:10.711850
12772,-0.1889,-0.9892,0.3162,-3.045,-15.330,1.295,1,1,1,380,392,2025-06-05T16:10:10.711850
12773,-0.1928,-0.9960,0.3182,-3.395,-17.045,1.505,1,1,1,346,382,2025-06-05T16:10:10.711850
12774,-0.1859,-1.0009,0.3152,-3.780,-18.830,1.505,2,2,1,359,390,2025-06-05T16:10:10.712866
12775,-0.1796,-0.9999,0.3192,-4.235,-19.915,1.085,1,2,1,366,405,2025-06-05T16:10:10.712866
12776,-0.1703,-0.9980,0.3196,-4.690,-20.090,0.770,1,1,1,367,391,2025-06-05T16:10:10.712866
12777,-0.1684,-0.9862,0.3216,-5.390,-19.880,0.560,1,2,1,383,387,2025-06-05T16:10:10.712866
12778,-0.1703,-0.9799,0.3182,-6.230,-19.390,0.595,1,1,1,378,362,2025-06-05T16:10:10.712866
12779,-0.1757,-0.9750,0.3148,-7.000,-19.040,0.980,1,1,1,373,383,2025-06-05T16:10:10.712866
12780,-0.1786,-0.9755,0.3118,-7.560,-19.390,1.785,1,1,1,388,353,2025-06-05T16:10:10.712866
12781,-0.1879,-0.9755,0.3074,-7.840,-20.545,2.555,1,1,1,395,375,2025-06-05T16:10:10.712866
12782,-0.1937,-0.9789,0.3074,-7.805,-21.875,3.325,2,2,1,388,390,2025-06-05T16:10:10.712866
12783,-0.1952,-0.9882,0.2982,-7.595,-24.360,3.885,1,1,1,352,381,2025-06-05T16:10:10.712866
12784,-0.1889,-0.9955,0.2943,-6.895,-26.460,4.340,1,1,1,377,380,2025-06-05T16:10:10.712866
12785,-0.1874,-0.9989,0.2928,-6.020,-28.140,4.550,1,1,1,375,385,2025-06-05T16:10:10.712866
12786,-0.1796,-1.0038,0.2938,-5.075,-28.770,4.550,2,1,1,370,352,2025-06-05T16:10:10.712866
12787,-0.1801,-1.0092,0.2957,-3.430,-29.155,4.515,1,2,2,387,377,2025-06-05T16:10:10.770663
12788,-0.1693,-1.0072,0.3045,-1.995,-29.120,4.585,1,1,1,393,380,2025-06-05T16:10:10.770663
12789,-0.1576,-1.0028,0.3055,-0.560,-27.265,4.515,1,1,1,393,374,2025-06-05T16:10:10.770663
12790,-0.1459,-1.0019,0.2996,0.385,-24.360,4.375,1,1,2,392,349,2025-06-05T16:10:10.770663
12791,-0.1581,-1.0077,0.2928,1.295,-21.840,4.585,1,1,1,395,374,2025-06-05T16:10:10.770663
12792,-0.1479,-1.0121,0.2889,1.855,-20.055,4.760,2,1,1,397,385,2025-06-05T16:10:11.033514
12793,-0.1571,-1.0160,0.2816,2.345,-17.535,5.005,2,2,1,397,390,2025-06-05T16:10:11.033514
12794,-0.1674,-1.0214,0.2796,2.555,-17.115,5.355,1,2,2,405,381,2025-06-05T16:10:11.033514
12795,-0.1723,-1.0258,0.2772,2.730,-18.900,6.020,1,2,1,391,373,2025-06-05T16:10:11.033514
12796,-0.1693,-1.0307,0.2826,3.080,-20.335,6.685,1,1,1,380,377,2025-06-05T16:10:11.033514
12797,-0.1684,-1.0307,0.2811,2.835,-20.370,7.140,2,2,2,349,342,2025-06-05T16:10:11.033514
12798,-0.1630,-1.0394,0.2835,3.325,-21.420,7.385,2,1,1,361,379,2025-06-05T16:10:11.033514
12799,-0.1728,-1.0380,0.2821,3.395,-23.170,8.155,2,1,1,371,371,2025-06-05T16:10:11.034163
12800,-0.1732,-1.0307,0.2923,4.095,-25.725,8.925,1,1,1,378,376,2025-06-05T16:10:11.034163
12801,-0.1757,-1.0209,0.2982,4.725,-29.540,9.835,1,1,1,384,388,2025-06-05T16:10:11.034163
12802,-0.1703,-1.0058,0.3094,5.600,-32.270,10.570,1,2,1,394,351,2025-06-05T16:10:11.034163
12803,-0.1581,-0.9984,0.3211,6.965,-35.420,11.480,1,2,1,392,336,2025-06-05T16:10:11.034163
12804,-0.1401,-0.9794,0.3294,8.365,-37.275,12.565,2,2,2,390,327,2025-06-05T16:10:11.034163
12805,-0.1225,-0.9682,0.3318,9.520,-37.065,13.685,1,1,1,381,363,2025-06-05T16:10:11.034163
12806,-0.0976,-0.9653,0.3270,10.465,-35.000,14.070,2,2,1,389,376,2025-06-05T16:10:11.212870
12807,-0.0834,-0.9701,0.3109,10.255,-30.555,14.140,2,1,1,387,389,2025-06-05T16:10:11.212870
12808,-0.0771,-0.9760,0.3035,9.800,-25.305,14.000,1,1,1,377,391,2025-06-05T16:10:11.212870
12809,-0.0800,-0.9809,0.2962,8.995,-19.950,13.825,1,1,2,378,391,2025-06-05T16:10:11.212870
12810,-0.0927,-0.9843,0.2908,8.190,-15.855,13.440,2,1,2,383,376,2025-06-05T16:10:11.213854
12811,-0.1103,-0.9916,0.2904,7.525,-13.265,13.405,1,2,1,383,370,2025-06-05T16:10:11.213854
12812,-0.1391,-0.9989,0.2904,6.825,-12.880,13.300,2,2,1,389,384,2025-06-05T16:10:11.213854
12813,-0.1527,-1.0063,0.2860,6.650,-14.770,13.300,1,1,1,398,393,2025-06-05T16:10:11.213854
12814,-0.1620,-1.0150,0.2821,6.860,-17.430,13.615,2,1,1,360,392,2025-06-05T16:10:11.213854
12815,-0.1723,-1.0160,0.2806,7.700,-20.790,14.455,2,2,1,371,393,2025-06-05T16:10:11.213854
12816,-0.1659,-1.0082,0.2791,8.750,-23.765,15.575,2,1,1,371,397,2025-06-05T16:10:11.213854
12817,-0.1566,-1.0043,0.2767,9.905,-25.095,16.590,2,1,1,370,393,2025-06-05T16:10:11.213854
12818,-0.1440,-1.0014,0.2811,10.920,-24.465,17.430,1,1,1,378,352,2025-06-05T16:10:11.213854
12819,-0.1405,-0.9921,0.2967,11.830,-22.050,18.095,1,1,1,373,361,2025-06-05T16:10:11.213854
12820,-0.1469,-0.9770,0.2972,12.705,-19.145,18.410,1,1,1,375,376,2025-06-05T16:10:11.213854
12821,-0.1420,-0.9721,0.2996,12.845,-15.715,18.515,2,1,0,341,383,2025-06-05T16:10:11.213854
12822,-0.1523,-0.9858,0.3040,13.405,-11.340,18.585,1,2,1,374,397,2025-06-05T16:10:11.213854
12823,-0.1679,-1.0131,0.3099,14.210,-8.190,18.340,1,1,1,340,395,2025-06-05T16:10:11.213854
12824,-0.1688,-1.0375,0.3235,15.190,-4.900,18.095,1,2,1,375,393,2025-06-05T16:10:11.213854
12825,-0.1757,-1.0443,0.3372,16.275,-1.995,18.200,2,0,2,344,395,2025-06-05T16:10:11.213854
12826,-0.1972,-1.0453,0.3499,17.080,0.350,18.200,2,1,1,368,361,2025-06-05T16:10:11.213854
12827,-0.2152,-1.0307,0.3640,17.465,1.365,18.410,1,2,1,367,363,2025-06-05T16:10:11.213854
12828,-0.2230,-1.0116,0.3806,17.605,1.015,19.565,1,1,1,367,367,2025-06-05T16:10:11.336577
12829,-0.2367,-0.9936,0.3909,18.165,-0.840,21.700,2,2,1,378,389,2025-06-05T16:10:11.337925
12830,-0.2489,-0.9775,0.3860,18.340,-3.500,23.660,1,2,2,382,381,2025-06-05T16:10:11.337925
12831,-0.2630,-0.9794,0.3894,18.480,-6.685,25.900,1,2,1,391,349,2025-06-05T16:10:11.337925
12832,-0.2655,-0.9897,0.4031,18.550,-8.785,27.825,1,1,1,376,331,2025-06-05T16:10:11.337925
12833,-0.2557,-0.9887,0.4309,19.320,-9.765,29.505,1,1,1,342,359,2025-06-05T16:10:11.337925
12834,-0.2381,-0.9692,0.4499,21.175,-9.100,31.430,2,1,1,331,374,2025-06-05T16:10:11.338633
12835,-0.2186,-0.9394,0.4504,23.205,-6.545,32.620,1,1,1,358,392,2025-06-05T16:10:11.338633
12836,-0.2054,-0.9243,0.4338,24.255,-0.980,33.495,1,1,0,345,394,2025-06-05T16:10:11.338633
12837,-0.1957,-0.9209,0.4241,23.205,7.735,32.340,2,1,1,363,381,2025-06-05T16:10:11.338633
12838,-0.2006,-0.9272,0.4382,21.735,17.990,29.505,1,2,2,368,390,2025-06-05T16:10:11.338633
12839,-0.2416,-0.9292,0.4729,19.495,25.305,25.760,2,2,2,373,399,2025-06-05T16:10:11.607089
12840,-0.2899,-0.9277,0.5109,17.780,30.800,22.155,1,1,2,347,352,2025-06-05T16:10:11.607089
12841,-0.3372,-0.9179,0.5290,16.380,31.885,19.810,2,2,2,375,367,2025-06-05T16:10:11.607089
12842,-0.3660,-0.8969,0.5163,14.910,29.680,18.200,2,2,2,392,344,2025-06-05T16:10:11.607089
12843,-0.3797,-0.8808,0.5036,13.615,24.955,18.200,2,1,1,386,373,2025-06-05T16:10:11.607089
12844,-0.4070,-0.8774,0.4973,13.160,18.935,19.705,1,1,1,351,336,2025-06-05T16:10:11.607089
12845,-0.4250,-0.8794,0.5036,12.775,13.020,21.735,1,1,1,366,368,2025-06-05T16:10:11.607089
12846,-0.4421,-0.8921,0.5153,13.440,5.425,23.730,1,2,1,388,392,2025-06-05T16:10:11.607089
12847,-0.4524,-0.8974,0.5275,15.575,-1.540,26.285,1,1,1,393,387,2025-06-05T16:10:11.607089
12848,-0.4290,-0.8862,0.5314,18.200,-6.510,28.735,1,2,1,388,388,2025-06-05T16:10:11.607089
12849,-0.3953,-0.8716,0.5324,20.230,-7.385,31.010,1,1,1,394,352,2025-06-05T16:10:11.607089
12850,-0.3650,-0.8486,0.5212,22.540,-5.040,32.655,1,1,1,349,355,2025-06-05T16:10:11.876999
12851,-0.3440,-0.8252,0.5046,23.835,1.015,33.530,1,1,1,365,380,2025-06-05T16:10:11.876999
12852,-0.3333,-0.8194,0.4919,24.570,8.715,33.880,1,1,1,339,386,2025-06-05T16:10:11.876999
12853,-0.3401,-0.8115,0.4880,24.920,16.800,33.950,2,1,1,366,403,2025-06-05T16:10:11.876999
12854,-0.3587,-0.8037,0.4914,24.885,23.345,33.670,1,1,1,386,410,2025-06-05T16:10:11.877996
12855,-0.3719,-0.7852,0.4875,25.200,27.615,33.565,1,2,1,384,375,2025-06-05T16:10:11.877996
12856,-0.3826,-0.7598,0.4856,24.955,29.960,33.915,2,1,1,380,350,2025-06-05T16:10:11.877996
12857,-0.3904,-0.7354,0.4778,24.500,30.660,34.755,1,1,1,384,375,2025-06-05T16:10:11.877996
12858,-0.3928,-0.7139,0.4587,23.240,30.380,35.245,2,2,1,401,383,2025-06-05T16:10:11.877996
12859,-0.3948,-0.7017,0.4494,21.385,29.050,35.595,2,1,1,382,343,2025-06-05T16:10:11.877996
12860,-0.4070,-0.6891,0.4485,19.600,26.530,35.630,2,1,2,379,328,2025-06-05T16:10:11.877996
12861,-0.4133,-0.6793,0.4509,17.885,23.310,34.860,2,2,2,382,374,2025-06-05T16:10:11.877996
12862,-0.4275,-0.6764,0.4563,15.785,19.390,33.390,2,2,1,394,393,2025-06-05T16:10:11.877996
12863,-0.4377,-0.6842,0.4665,14.175,15.995,31.325,2,2,1,403,402,2025-06-05T16:10:11.877996
12864,-0.4485,-0.6969,0.4675,12.740,11.480,29.330,1,1,1,403,400,2025-06-05T16:10:11.877996
12865,-0.4519,-0.7003,0.4665,11.200,6.720,27.125,1,1,1,383,390,2025-06-05T16:10:11.878425
12866,-0.4426,-0.7110,0.4719,9.695,3.010,25.060,1,2,1,346,386,2025-06-05T16:10:11.878425
12867,-0.4426,-0.7198,0.4724,8.400,0.875,23.240,1,2,2,363,389,2025-06-05T16:10:11.878425
12868,-0.4529,-0.7340,0.4753,7.385,-0.910,22.050,1,2,1,382,389,2025-06-05T16:10:11.878425
12869,-0.4504,-0.7447,0.4836,6.440,-2.030,21.560,2,2,0,346,382,2025-06-05T16:10:11.878425
12870,-0.4485,-0.7574,0.4865,5.705,-1.785,21.700,1,1,1,377,393,2025-06-05T16:10:11.878988
12871,-0.4421,-0.7627,0.4895,4.900,-0.735,21.875,1,2,1,388,403,2025-06-05T16:10:11.878988
12872,-0.4441,-0.7710,0.4885,3.430,0.910,21.700,1,2,1,394,396,2025-06-05T16:10:11.878988
12873,-0.4490,-0.7818,0.4924,2.205,3.255,21.455,2,1,2,396,401,2025-06-05T16:10:11.878988
12874,-0.4568,-0.7798,0.4997,0.980,4.900,20.965,2,2,1,401,396,2025-06-05T16:10:11.878988
12875,-0.4631,-0.7784,0.5022,-0.070,6.090,20.405,1,1,1,384,384,2025-06-05T16:10:11.949069
12876,-0.4778,-0.7784,0.5046,-0.420,5.985,19.670,1,2,1,377,381,2025-06-05T16:10:11.949069
12877,-0.4846,-0.7745,0.5002,-0.805,4.760,18.970,1,1,2,396,384,2025-06-05T16:10:11.949069
12878,-0.4826,-0.7720,0.4958,-0.910,2.275,18.655,1,1,2,389,380,2025-06-05T16:10:11.949069
12879,-0.4753,-0.7671,0.4885,-1.295,-0.245,18.585,1,1,1,387,390,2025-06-05T16:10:11.949069
12880,-0.4695,-0.7598,0.4807,-1.330,-2.730,19.075,1,1,1,394,386,2025-06-05T16:10:11.949069
12881,-0.4616,-0.7588,0.4719,-1.505,-5.075,19.425,1,1,1,348,357,2025-06-05T16:10:11.949069
12882,-0.4480,-0.7666,0.4734,-2.205,-5.530,19.250,1,1,1,358,383,2025-06-05T16:10:11.949069
12883,-0.4421,-0.7710,0.4821,-2.975,-4.970,18.620,1,1,1,385,390,2025-06-05T16:10:11.949069
12884,-0.4392,-0.7808,0.4939,-3.535,-3.535,16.800,1,1,1,388,388,2025-06-05T16:10:11.949069
12885,-0.4421,-0.7871,0.5026,-4.340,-1.610,14.700,1,1,1,382,381,2025-06-05T16:10:11.949069
12886,-0.4524,-0.7886,0.5046,-5.145,-0.560,12.670,2,2,1,387,388,2025-06-05T16:10:11.949069
12887,-0.4573,-0.7803,0.4943,-6.055,-0.210,11.865,1,1,1,378,394,2025-06-05T16:10:11.949069
12888,-0.4636,-0.7818,0.4826,-7.455,-0.910,11.550,1,1,2,379,400,2025-06-05T16:10:11.949069
12889,-0.4729,-0.7823,0.4797,-9.030,-2.135,11.795,1,1,1,394,388,2025-06-05T16:10:11.949069
12890,-0.4885,-0.7964,0.4738,-10.955,-4.130,11.690,2,2,2,387,378,2025-06-05T16:10:12.236877
12891,-0.5075,-0.8164,0.4768,-13.160,-6.685,11.270,2,2,2,348,343,2025-06-05T16:10:12.236877
12892,-0.5256,-0.8223,0.4934,-14.595,-10.850,10.500,1,2,1,327,372,2025-06-05T16:10:12.236877
12893,-0.5329,-0.8223,0.4953,-15.435,-15.645,10.185,1,2,2,369,388,2025-06-05T16:10:12.236877
12894,-0.5344,-0.8257,0.4748,-15.855,-20.125,9.625,2,1,1,385,380,2025-06-05T16:10:12.236877
12895,-0.5217,-0.8237,0.4548,-16.380,-22.575,9.030,1,2,1,395,389,2025-06-05T16:10:12.236877
12896,-0.5002,-0.8106,0.4392,-16.660,-23.275,8.470,2,1,2,401,397,2025-06-05T16:10:12.236877
12897,-0.4734,-0.7857,0.4368,-16.800,-22.120,7.945,2,1,1,392,352,2025-06-05T16:10:12.236877
12898,-0.4646,-0.7593,0.4314,-16.625,-18.515,7.490,1,1,1,378,330,2025-06-05T16:10:12.236877
12899,-0.4660,-0.7354,0.4216,-16.380,-14.595,6.895,1,1,1,386,363,2025-06-05T16:10:12.236877
12900,-0.4729,-0.7071,0.4104,-15.960,-11.235,6.545,1,1,1,365,336,2025-06-05T16:10:12.236877
12901,-0.4860,-0.6778,0.3914,-15.715,-8.995,6.615,1,1,1,372,331,2025-06-05T16:10:12.236877
12902,-0.4900,-0.6466,0.3762,-15.680,-7.770,7.000,2,1,1,375,358,2025-06-05T16:10:12.236877
12903,-0.5046,-0.6451,0.3616,-16.800,-6.160,6.755,2,1,1,388,371,2025-06-05T16:10:12.236877
12904,-0.5407,-0.6734,0.3616,-18.480,-4.130,5.145,1,1,1,383,389,2025-06-05T16:10:12.236877
12905,-0.5910,-0.7178,0.3728,-20.335,-1.995,0.945,1,1,1,393,392,2025-06-05T16:10:12.236877
12906,-0.6427,-0.7759,0.3909,-22.050,0.595,-5.530,2,2,1,390,386,2025-06-05T16:10:12.236877
12907,-0.7042,-0.8296,0.4138,-23.240,1.715,-12.915,1,0,2,395,353,2025-06-05T16:10:12.236877
12908,-0.7559,-0.8452,0.4236,-23.625,-0.070,-18.200,2,2,2,397,382,2025-06-05T16:10:12.236877
12909,-0.8018,-0.8535,0.4099,-23.590,-5.565,-23.030,1,2,2,391,395,2025-06-05T16:10:12.236877
12910,-0.8262,-0.8535,0.3870,-23.065,-13.440,-25.095,2,1,2,383,394,2025-06-05T16:10:12.236877
12911,-0.8311,-0.8418,0.3660,-22.295,-22.750,-25.095,2,2,2,376,397,2025-06-05T16:10:12.458421
12912,-0.8135,-0.8218,0.3587,-20.755,-31.500,-23.590,2,2,1,341,348,2025-06-05T16:10:12.458421
12913,-0.7671,-0.7862,0.3606,-18.830,-36.540,-21.035,2,2,1,351,361,2025-06-05T16:10:12.458421
12914,-0.7320,-0.7486,0.3528,-16.835,-39.235,-18.375,1,2,1,364,376,2025-06-05T16:10:12.458421
12915,-0.6964,-0.7266,0.3357,-14.980,-37.800,-16.275,2,2,1,380,387,2025-06-05T16:10:12.458421
12916,-0.6456,-0.7042,0.3211,-13.370,-33.250,-13.860,1,1,1,343,372,2025-06-05T16:10:12.458421
12917,-0.6051,-0.6852,0.3177,-12.670,-25.970,-11.410,2,2,1,363,386,2025-06-05T16:10:12.458421
12918,-0.5744,-0.6725,0.3148,-12.425,-17.395,-8.960,1,2,1,380,397,2025-06-05T16:10:12.458421
12919,-0.5695,-0.6637,0.3157,-12.670,-9.940,-7.000,2,2,0,359,394,2025-06-05T16:10:12.458421
12920,-0.5885,-0.6690,0.3157,-12.810,-2.345,-5.705,2,1,1,382,361,2025-06-05T16:10:12.458421
12921,-0.6227,-0.6749,0.3201,-12.810,1.330,-4.550,1,2,1,380,384,2025-06-05T16:10:12.458421
12922,-0.6505,-0.6964,0.3226,-12.460,1.470,-3.640,2,1,1,392,400,2025-06-05T16:10:12.458421
12923,-0.6842,-0.7232,0.3216,-11.760,-1.470,-3.185,1,1,1,391,387,2025-06-05T16:10:12.458421
12924,-0.7032,-0.7476,0.3172,-10.465,-5.950,-3.150,2,2,1,381,383,2025-06-05T16:10:12.458421
12925,-0.7139,-0.7715,0.3109,-8.470,-12.530,-3.430,2,1,1,374,383,2025-06-05T16:10:12.458421
12926,-0.7081,-0.7876,0.3001,-5.985,-19.075,-4.095,2,1,1,386,385,2025-06-05T16:10:12.458421
12927,-0.6773,-0.7954,0.2962,-3.500,-22.785,-5.075,2,2,1,391,392,2025-06-05T16:10:12.591126
12928,-0.6403,-0.7984,0.2957,-1.120,-23.345,-6.265,1,1,1,391,379,2025-06-05T16:10:12.591126
12929,-0.6139,-0.8013,0.3006,0.875,-20.615,-7.455,2,2,1,393,385,2025-06-05T16:10:12.591126
12930,-0.5910,-0.8062,0.3104,2.100,-15.645,-8.785,2,2,1,383,347,2025-06-05T16:10:12.591126
12931,-0.5807,-0.8091,0.3148,3.185,-10.640,-10.080,1,2,1,381,367,2025-06-05T16:10:12.591126
12932,-0.5719,-0.8096,0.3152,3.570,-3.500,-10.850,2,2,2,391,371,2025-06-05T16:10:12.591126
12933,-0.5797,-0.8135,0.3118,3.535,2.870,-11.375,1,1,1,397,379,2025-06-05T16:10:12.591126
12934,-0.5993,-0.8169,0.3133,3.115,6.755,-10.850,1,2,1,384,349,2025-06-05T16:10:12.591126
12935,-0.6159,-0.8154,0.3143,2.870,8.120,-9.275,1,1,2,383,373,2025-06-05T16:10:12.591126
12936,-0.6290,-0.8150,0.3231,2.275,7.840,-7.805,1,1,0,362,383,2025-06-05T16:10:12.591126
12937,-0.6407,-0.8223,0.3323,1.540,6.545,-6.755,2,2,1,366,352,2025-06-05T16:10:12.591126
12938,-0.6476,-0.8247,0.3343,1.155,4.480,-5.635,1,2,0,348,369,2025-06-05T16:10:12.591126
12939,-0.6529,-0.8257,0.3367,0.735,1.190,-4.410,2,1,1,366,356,2025-06-05T16:10:12.591126
12940,-0.6544,-0.8340,0.3367,0.385,-2.065,-2.870,1,1,2,370,369,2025-06-05T16:10:12.591126
12941,-0.6510,-0.8296,0.3484,0.630,-6.720,-1.260,1,2,1,372,381,2025-06-05T16:10:12.591126
12942,-0.6339,-0.8218,0.3572,1.190,-10.710,0.735,2,2,1,386,394,2025-06-05T16:10:12.769414
12943,-0.6139,-0.8164,0.3553,2.100,-12.985,2.485,1,2,1,395,391,2025-06-05T16:10:12.769414
12944,-0.5954,-0.8145,0.3489,2.905,-13.335,3.430,1,2,2,386,401,2025-06-05T16:10:12.769414
12945,-0.5812,-0.8140,0.3440,4.095,-12.740,3.290,2,2,1,399,402,2025-06-05T16:10:12.769414
12946,-0.5671,-0.8194,0.3450,5.320,-10.465,2.695,1,2,1,387,397,2025-06-05T16:10:12.769414
12947,-0.5612,-0.8237,0.3509,6.195,-6.825,0.805,2,1,2,389,395,2025-06-05T16:10:12.769414
12948,-0.5724,-0.8413,0.3640,7.035,-4.130,-1.820,1,2,2,394,402,2025-06-05T16:10:12.769414
12949,-0.5827,-0.8438,0.3797,8.190,-2.940,-4.445,1,1,1,398,395,2025-06-05T16:10:12.769414
12950,-0.5900,-0.8403,0.3875,9.520,-2.660,-5.985,1,2,1,392,387,2025-06-05T16:10:12.769414
12951,-0.5919,-0.8350,0.3802,11.095,-4.550,-6.790,1,2,1,388,380,2025-06-05T16:10:12.769414
12952,-0.5812,-0.8198,0.3650,12.180,-6.930,-6.055,1,1,0,353,384,2025-06-05T16:10:12.769414
12953,-0.5661,-0.8140,0.3489,12.600,-8.890,-4.515,1,2,1,380,352,2025-06-05T16:10:12.769414
12954,-0.5583,-0.8101,0.3504,12.985,-9.625,-2.975,1,1,1,380,368,2025-06-05T16:10:12.770172
12955,-0.5568,-0.8111,0.3601,12.950,-9.730,-1.960,1,1,1,377,385,2025-06-05T16:10:12.770172
12956,-0.5632,-0.8120,0.3777,12.600,-9.590,-1.365,1,1,1,392,349,2025-06-05T16:10:12.770172
12957,-0.5729,-0.8316,0.3850,11.655,-10.150,-1.925,1,1,1,395,365,2025-06-05T16:10:12.770172
12958,-0.5934,-0.8599,0.3982,10.815,-12.285,-3.465,1,2,2,388,367,2025-06-05T16:10:12.770172
12959,-0.6285,-0.8877,0.4143,10.465,-15.995,-5.565,2,2,1,381,381,2025-06-05T16:10:12.998736
12960,-0.6481,-0.8906,0.4280,11.375,-22.540,-7.875,2,2,1,386,355,2025-06-05T16:10:12.998736
12961,-0.6378,-0.8779,0.4153,13.160,-29.365,-9.275,2,1,1,387,378,2025-06-05T16:10:12.998736
12962,-0.5988,-0.8667,0.3914,15.120,-37.135,-9.170,2,2,1,388,388,2025-06-05T16:10:12.998736
12963,-0.5514,-0.8569,0.3826,16.870,-42.525,-8.120,2,2,2,384,400,2025-06-05T16:10:12.998736
12964,-0.5109,-0.8525,0.3860,18.515,-44.835,-6.930,1,1,1,382,401,2025-06-05T16:10:12.998736
12965,-0.4743,-0.8530,0.3987,19.565,-44.170,-6.895,1,2,1,380,369,2025-06-05T16:10:12.998736
12966,-0.4324,-0.8608,0.4124,20.510,-40.775,-8.225,2,1,1,383,380,2025-06-05T16:10:12.998736
12967,-0.4133,-0.8701,0.4290,20.965,-34.580,-10.465,0,2,1,386,399,2025-06-05T16:10:12.998736
12968,-0.4031,-0.8628,0.4407,21.490,-27.685,-12.600,2,1,1,351,392,2025-06-05T16:10:12.998736
12969,-0.3982,-0.8423,0.4490,21.770,-22.015,-14.385,1,1,0,330,399,2025-06-05T16:10:12.998736
12970,-0.3933,-0.8218,0.4480,22.015,-17.220,-14.525,2,1,1,362,371,2025-06-05T16:10:12.998736
12971,-0.4016,-0.7940,0.4372,21.735,-14.980,-12.810,1,2,1,365,377,2025-06-05T16:10:12.998736
12972,-0.3967,-0.7852,0.4455,21.000,-15.365,-9.310,1,1,2,384,393,2025-06-05T16:10:12.998736
12973,-0.3977,-0.7930,0.4695,21.000,-16.695,-4.935,1,1,1,377,380,2025-06-05T16:10:12.998736
12974,-0.3967,-0.7915,0.4982,22.050,-17.850,-1.890,2,2,1,382,348,2025-06-05T16:10:12.998736
12975,-0.4011,-0.7989,0.5168,23.765,-18.340,0.735,1,1,1,378,380,2025-06-05T16:10:12.998736
12976,-0.4089,-0.8257,0.5275,25.900,-18.060,1.960,1,2,2,392,387,2025-06-05T16:10:13.287782
12977,-0.4128,-0.8560,0.5392,27.615,-16.135,1.890,2,2,1,376,382,2025-06-05T16:10:13.287782
12978,-0.4041,-0.8672,0.5524,29.890,-13.720,1.085,2,2,1,391,375,2025-06-05T16:10:13.287782
12979,-0.3889,-0.8530,0.5627,31.430,-8.890,0.525,1,3,2,379,368,2025-06-05T16:10:13.287782
12980,-0.3777,-0.8457,0.5656,32.410,-2.730,0.420,1,2,1,383,382,2025-06-05T16:10:13.287782
12981,-0.3811,-0.8247,0.5734,33.110,4.515,0.770,1,1,1,382,351,2025-06-05T16:10:13.287782
12982,-0.3948,-0.8018,0.5836,32.935,11.550,1.820,2,1,1,384,334,2025-06-05T16:10:13.287782
12983,-0.4089,-0.7735,0.5949,32.900,15.960,4.235,1,1,0,356,364,2025-06-05T16:10:13.287782
12984,-0.4226,-0.7261,0.6002,32.340,19.810,6.790,1,2,1,382,340,2025-06-05T16:10:13.288788
12985,-0.4372,-0.6988,0.5963,30.835,21.665,10.535,1,2,1,380,328,2025-06-05T16:10:13.288788
12986,-0.4665,-0.6798,0.5934,29.435,22.015,14.210,2,1,1,385,365,2025-06-05T16:10:13.288788
12987,-0.4860,-0.6593,0.5905,28.385,21.175,17.150,2,1,1,396,381,2025-06-05T16:10:13.288788
12988,-0.5109,-0.6456,0.5880,27.475,19.775,19.425,1,1,1,391,390,2025-06-05T16:10:13.288788
12989,-0.5436,-0.6495,0.5910,27.720,17.290,21.140,2,1,1,383,384,2025-06-05T16:10:13.288788
12990,-0.5592,-0.6388,0.5871,28.595,13.790,22.820,1,1,1,386,388,2025-06-05T16:10:13.288788
12991,-0.5539,-0.6295,0.5832,28.910,11.585,25.865,1,2,1,379,385,2025-06-05T16:10:13.288788
12992,-0.5514,-0.6300,0.5841,28.490,12.110,29.645,2,2,2,387,382,2025-06-05T16:10:13.288788
12993,-0.5607,-0.6149,0.5983,27.580,15.540,32.410,1,2,2,377,374,2025-06-05T16:10:13.288788
12994,-0.5519,-0.5866,0.6154,25.375,20.020,35.105,2,1,1,386,378,2025-06-05T16:10:13.288788
12995,-0.5651,-0.5563,0.6378,22.610,26.915,36.855,1,1,1,386,386,2025-06-05T16:10:13.288788
12996,-0.6276,-0.5534,0.6461,20.195,32.725,39.760,1,2,1,387,386,2025-06-05T16:10:13.288788
12997,-0.7149,-0.5651,0.6486,19.040,32.865,43.855,1,1,2,379,348,2025-06-05T16:10:13.288788
12998,-0.7881,-0.5797,0.6290,18.865,25.970,49.945,2,1,1,375,356,2025-06-05T16:10:13.370801
12999,-0.8745,-0.6373,0.6212,20.300,14.245,57.680,2,1,1,384,340,2025-06-05T16:10:13.371216
13000,-0.9394,-0.6773,0.6295,24.360,-0.945,66.780,2,1,1,346,364,2025-06-05T16:10:13.587689
13001,-0.9433,-0.6886,0.6442,29.085,-11.795,77.490,1,2,1,333,376,2025-06-05T16:10:13.587689
13002,-0.8974,-0.6734,0.6525,33.670,-20.720,85.750,2,1,1,366,397,2025-06-05T16:10:13.587689
13003,-0.8228,-0.6500,0.6647,37.030,-21.000,95.655,2,2,2,371,386,2025-06-05T16:10:13.587689
13004,-0.7593,-0.6256,0.6730,38.430,-12.005,102.795,1,2,1,382,361,2025-06-05T16:10:13.587689
13005,-0.7115,-0.5929,0.6895,38.885,2.870,108.605,2,2,1,342,367,2025-06-05T16:10:13.587689
13006,-0.7154,-0.5666,0.6983,38.640,18.620,112.350,2,2,1,363,365,2025-06-05T16:10:13.587689
13007,-0.7637,-0.5719,0.6959,38.500,28.385,117.460,1,1,1,376,345,2025-06-05T16:10:13.587689
13008,-0.7832,-0.5622,0.6817,39.830,35.245,122.920,1,2,1,384,374,2025-06-05T16:10:13.587689
13009,-0.8154,-0.5544,0.6456,40.145,37.310,130.270,1,1,2,385,387,2025-06-05T16:10:13.638635
13010,-0.8213,-0.5358,0.6339,40.635,37.170,137.270,2,2,2,392,392,2025-06-05T16:10:13.638635
13011,-0.8335,-0.5236,0.6193,40.740,35.420,142.030,1,1,1,396,385,2025-06-05T16:10:13.638635
13012,-0.8252,-0.4846,0.6242,40.845,34.685,144.515,1,2,2,389,376,2025-06-05T16:10:13.638635
13013,-0.8306,-0.4421,0.6364,40.530,34.160,144.865,1,1,2,393,386,2025-06-05T16:10:13.638635
13014,-0.8384,-0.4211,0.6417,40.600,32.585,144.550,2,1,1,354,356,2025-06-05T16:10:13.638635
13015,-0.8394,-0.3762,0.6202,39.935,32.305,144.025,1,1,1,363,363,2025-06-05T16:10:13.638635
13016,-0.8379,-0.3680,0.5773,37.485,31.920,144.585,1,1,1,365,382,2025-06-05T16:10:13.638635
13017,-0.8550,-0.3640,0.5558,35.805,33.320,145.040,2,1,0,350,378,2025-06-05T16:10:13.638635
13018,-0.8667,-0.3235,0.5441,32.935,35.595,146.790,1,1,1,365,373,2025-06-05T16:10:13.638635
13019,-0.8657,-0.2879,0.5436,30.730,38.990,150.465,1,1,1,335,371,2025-06-05T16:10:13.638635
13020,-0.8950,-0.2669,0.5334,28.490,44.240,154.805,1,2,1,370,393,2025-06-05T16:10:13.638635
13021,-0.9540,-0.2484,0.5475,26.985,47.215,158.760,0,1,1,371,400,2025-06-05T16:10:13.638635
13022,-0.9994,-0.2113,0.5714,26.565,47.705,162.785,1,1,1,383,400,2025-06-05T16:10:13.639617
13023,-0.9906,-0.1527,0.5846,26.635,47.215,166.635,1,2,1,342,397,2025-06-05T16:10:13.639617
13024,-0.9760,-0.1225,0.5519,25.270,46.410,173.075,1,1,1,375,406,2025-06-05T16:10:13.639617
13025,-0.9780,-0.1000,0.5080,23.345,45.850,179.900,1,1,1,372,396,2025-06-05T16:10:13.639617
13026,-0.9321,-0.0185,0.4851,21.665,48.055,186.620,1,1,1,342,397,2025-06-05T16:10:13.639617
13027,-0.8911,0.0786,0.4509,18.515,51.380,191.730,2,2,2,362,362,2025-06-05T16:10:13.639617
13028,-0.8843,0.1791,0.4607,16.380,55.020,196.140,2,2,1,375,385,2025-06-05T16:10:13.639617
13029,-0.9321,0.2206,0.4392,11.795,58.555,197.470,2,2,2,388,383,2025-06-05T16:10:13.639617
13030,-0.9345,0.2411,0.3992,9.415,58.835,199.360,2,2,1,393,380,2025-06-05T16:10:13.904819
13031,-0.9462,0.2943,0.3455,8.120,56.595,196.350,1,1,2,401,378,2025-06-05T16:10:13.904819
13032,-0.9199,0.2708,0.2962,7.000,61.075,191.590,2,2,1,406,380,2025-06-05T16:10:13.904819
13033,-0.9506,0.3011,0.2630,6.265,62.335,184.800,1,1,1,403,373,2025-06-05T16:10:13.904819
13034,-0.9428,0.3533,0.2552,5.985,59.990,180.845,2,1,1,381,376,2025-06-05T16:10:13.904819
13035,-0.9565,0.4060,0.2664,5.005,52.850,179.865,1,2,2,387,343,2025-06-05T16:10:13.904819
13036,-0.8921,0.4216,0.2743,5.355,49.350,180.075,2,2,2,381,377,2025-06-05T16:10:13.904819
13037,-0.8301,0.4636,0.2625,3.010,47.320,178.325,2,2,2,381,371,2025-06-05T16:10:13.904819
13038,-0.8486,0.4943,0.2191,0.490,47.145,174.895,1,0,1,395,372,2025-06-05T16:10:13.905366
13039,-0.8296,0.4929,0.1752,-0.595,46.865,171.535,1,1,1,394,378,2025-06-05T16:10:13.905366
13040,-0.8560,0.4987,0.1147,-0.735,42.455,167.825,2,1,1,383,387,2025-06-05T16:10:13.905366
13041,-0.8491,0.4709,0.0771,0.035,37.240,165.095,1,1,1,377,375,2025-06-05T16:10:13.905366
13042,-0.7974,0.4577,0.0966,0.875,36.645,159.985,1,1,1,386,392,2025-06-05T16:10:13.905366
13043,-0.7125,0.4773,0.1249,1.540,40.180,153.580,1,1,1,395,386,2025-06-05T16:10:13.905366
13044,-0.6871,0.4817,0.1157,2.065,49.385,148.155,1,2,2,383,347,2025-06-05T16:10:13.905366
13045,-0.6730,0.4753,0.0732,2.100,58.275,141.750,1,2,1,378,370,2025-06-05T16:10:13.905366
13046,-0.6007,0.4919,0.0678,1.540,65.310,136.745,1,2,1,375,377,2025-06-05T16:10:13.905366
13047,-0.6120,0.4978,0.0981,1.995,69.335,131.005,2,2,1,380,373,2025-06-05T16:10:14.021786
13048,-0.6539,0.4714,0.0595,1.085,68.250,126.035,1,1,1,375,368,2025-06-05T16:10:14.021786
13049,-0.6554,0.4329,0.0288,2.450,57.050,122.535,1,2,1,345,379,2025-06-05T16:10:14.021786
13050,-0.6539,0.4075,0.0088,4.585,45.605,118.510,2,2,1,373,394,2025-06-05T16:10:14.021786
13051,-0.6320,0.3967,0.0127,6.895,40.250,114.590,1,2,1,374,357,2025-06-05T16:10:14.021786
13052,-0.5846,0.4119,0.0537,12.460,36.190,109.305,1,1,1,375,375,2025-06-05T16:10:14.021786
13053,-0.5192,0.4138,0.1113,19.775,35.070,101.465,2,1,1,391,380,2025-06-05T16:10:14.021786
13054,-0.5553,0.4236,0.1459,25.865,33.880,93.870,1,2,2,395,345,2025-06-05T16:10:14.021786
13055,-0.5373,0.3650,0.0625,28.805,28.490,86.695,1,0,1,388,361,2025-06-05T16:10:14.021786
13056,-0.4807,0.3323,-0.1113,32.585,19.635,81.970,1,1,1,352,380,2025-06-05T16:10:14.021786
13057,-0.4255,0.3070,-0.1449,32.270,10.080,78.715,1,2,1,381,391,2025-06-05T16:10:14.021786
13058,-0.4660,0.3070,-0.0898,33.460,8.785,69.650,1,2,1,347,389,2025-06-05T16:10:14.021786
13059,-0.4504,0.3762,0.0073,33.845,10.080,58.695,1,1,1,365,381,2025-06-05T16:10:14.021786
13060,-0.4451,0.4363,0.0605,36.645,13.335,48.825,2,2,1,364,359,2025-06-05T16:10:14.021786
13061,-0.4504,0.5100,0.0576,37.275,16.835,39.585,1,2,2,337,372,2025-06-05T16:10:14.195537
13062,-0.4646,0.5627,0.0630,38.570,18.270,30.695,2,1,2,370,350,2025-06-05T16:10:14.195537
13063,-0.4563,0.6368,0.0054,36.715,19.635,22.610,2,1,2,387,377,2025-06-05T16:10:14.195537
13064,-0.4006,0.7271,-0.0449,31.885,18.515,17.325,1,1,1,399,378,2025-06-05T16:10:14.195537
13065,-0.4065,0.8189,-0.0244,25.760,19.005,13.860,1,2,2,387,388,2025-06-05T16:10:14.195537
13066,-0.3606,0.9140,-0.0254,18.025,24.605,11.865,2,1,1,395,384,2025-06-05T16:10:14.195537
13067,-0.3567,1.0477,0.0005,11.620,26.810,8.960,2,2,1,397,385,2025-06-05T16:10:14.195537
13068,-0.3626,1.2049,0.0571,4.025,28.315,7.805,1,2,1,386,392,2025-06-05T16:10:14.195537
13069,-0.3719,1.3127,0.1161,-3.955,27.790,8.120,1,1,1,390,358,2025-06-05T16:10:14.195537
13070,-0.4050,1.3713,0.1708,-9.835,23.485,11.375,1,1,1,389,374,2025-06-05T16:10:14.195537
13071,-0.4929,1.3874,0.1923,-13.090,13.930,15.785,2,1,1,389,383,2025-06-05T16:10:14.195537
13072,-0.5563,1.3854,0.1952,-16.485,-1.750,20.090,1,1,1,385,385,2025-06-05T16:10:14.195537
13073,-0.5583,1.3742,0.1527,-18.515,-16.835,23.975,1,1,0,353,385,2025-06-05T16:10:14.195537
13074,-0.5251,1.3235,0.1118,-19.950,-31.850,27.370,1,1,1,379,351,2025-06-05T16:10:14.195537
13075,-0.5129,1.2581,0.0996,-20.930,-43.645,30.800,2,2,1,385,376,2025-06-05T16:10:14.195537
13076,-0.4514,1.1736,0.1152,-21.350,-50.120,31.640,1,2,1,375,374,2025-06-05T16:10:14.195537
13077,-0.4392,1.0882,0.1215,-21.770,-52.465,30.590,1,1,1,386,392,2025-06-05T16:10:14.459432
13078,-0.4343,0.9965,0.1381,-21.140,-54.005,28.735,2,2,1,389,401,2025-06-05T16:10:14.459432
13079,-0.4255,0.8984,0.1244,-20.055,-55.125,27.720,2,2,1,398,390,2025-06-05T16:10:14.459432
13080,-0.4304,0.7847,0.1132,-17.500,-53.445,26.670,2,1,1,396,388,2025-06-05T16:10:14.459432
13081,-0.4416,0.6886,0.0981,-16.100,-50.155,24.430,1,1,1,383,351,2025-06-05T16:10:14.459432
13082,-0.4729,0.5924,0.1000,-15.050,-46.025,21.350,1,2,2,378,348,2025-06-05T16:10:14.460458
13083,-0.5187,0.5183,0.1161,-13.440,-43.645,16.520,1,2,2,395,358,2025-06-05T16:10:14.460458
13084,-0.5905,0.4460,0.1322,-10.290,-44.870,13.335,2,2,1,368,382,2025-06-05T16:10:14.460458
13085,-0.6237,0.4036,0.1396,-6.230,-47.565,10.850,1,1,1,372,359,2025-06-05T16:10:14.460458
13086,-0.6534,0.3758,0.1376,-0.420,-49.560,7.875,1,1,1,367,373,2025-06-05T16:10:14.460734
13087,-0.6124,0.3865,0.1371,5.425,-49.035,4.550,1,1,1,369,391,2025-06-05T16:10:14.460734
13088,-0.5266,0.4021,0.1376,9.310,-42.105,-0.805,1,2,1,387,382,2025-06-05T16:10:14.460734
13089,-0.4709,0.4368,0.1503,11.585,-29.540,-7.175,1,1,1,372,382,2025-06-05T16:10:14.460734
13090,-0.4924,0.4680,0.1762,12.565,-17.535,-11.970,1,1,1,378,389,2025-06-05T16:10:14.460734
13091,-0.4934,0.4914,0.2015,13.265,-12.775,-14.280,1,1,1,344,347,2025-06-05T16:10:14.460734
13092,-0.5041,0.5192,0.2201,13.895,-11.480,-13.265,2,1,1,319,357,2025-06-05T16:10:14.460734
13093,-0.5090,0.5441,0.2279,15.365,-13.930,-10.605,1,1,1,350,386,2025-06-05T16:10:14.460734
13094,-0.5305,0.5788,0.2411,16.030,-17.605,-7.665,1,1,1,384,407,2025-06-05T16:10:14.461446
13095,-0.5236,0.6451,0.2567,16.730,-21.700,-5.600,2,1,2,378,381,2025-06-05T16:10:14.461446
13096,-0.5002,0.7218,0.2850,16.870,-22.890,-3.850,2,2,1,389,381,2025-06-05T16:10:14.461446
13097,-0.4802,0.7769,0.2977,17.150,-23.835,-2.520,2,2,2,392,377,2025-06-05T16:10:14.461446
13098,-0.4299,0.8369,0.2948,17.430,-24.780,-1.365,1,2,1,383,391,2025-06-05T16:10:14.462040
13099,-0.3933,0.8955,0.2733,16.730,-24.430,0.035,1,1,2,393,392,2025-06-05T16:10:14.635630
13100,-0.3762,0.9116,0.2684,16.240,-23.100,1.470,2,1,1,381,398,2025-06-05T16:10:14.635630
13101,-0.3836,0.9404,0.2889,16.100,-22.085,2.135,1,1,2,401,393,2025-06-05T16:10:14.635630
13102,-0.3626,0.9828,0.3016,15.225,-22.715,3.500,1,2,1,398,388,2025-06-05T16:10:14.635630
13103,-0.3572,1.0399,0.3192,13.720,-22.120,4.760,2,1,1,397,384,2025-06-05T16:10:14.636517
13104,-0.3538,1.0736,0.3211,10.920,-19.180,5.810,2,2,2,394,393,2025-06-05T16:10:14.636517
13105,-0.3782,1.0897,0.3299,8.190,-16.415,5.845,1,1,2,393,397,2025-06-05T16:10:14.636517
13106,-0.3753,1.0882,0.3152,4.970,-14.525,5.845,1,1,2,393,399,2025-06-05T16:10:14.636747
13107,-0.3802,1.0653,0.2835,1.295,-13.160,7.245,2,1,2,399,395,2025-06-05T16:10:14.636747
13108,-0.4070,1.0258,0.2406,-1.680,-11.795,8.820,1,2,1,385,380,2025-06-05T16:10:14.636747
13109,-0.4221,0.9945,0.2045,-3.885,-11.305,10.220,1,2,1,392,351,2025-06-05T16:10:14.636747
13110,-0.4290,0.9399,0.1649,-5.530,-10.080,10.675,1,1,1,380,366,2025-06-05T16:10:14.636747
13111,-0.4397,0.8677,0.1225,-5.705,-9.135,8.855,1,2,1,394,376,2025-06-05T16:10:14.636747
13112,-0.4416,0.8072,0.0956,-4.410,-7.805,5.880,2,2,1,390,386,2025-06-05T16:10:14.636747
13113,-0.4509,0.7715,0.0874,-2.240,-7.350,3.255,1,2,1,383,386,2025-06-05T16:10:14.636747
13114,-0.4377,0.7442,0.0737,-0.210,-7.420,0.595,2,2,1,386,389,2025-06-05T16:10:14.805654
13115,-0.4197,0.7139,0.0630,1.295,-7.420,-1.400,1,1,1,397,387,2025-06-05T16:10:14.805654
13116,-0.3738,0.6944,0.0742,1.960,-5.775,-2.975,2,1,2,400,351,2025-06-05T16:10:14.805654
13117,-0.3470,0.7125,0.1064,1.155,-1.610,-4.515,1,1,1,394,382,2025-06-05T16:10:14.805654
13118,-0.3011,0.7320,0.1249,-0.280,4.480,-5.985,1,2,2,386,388,2025-06-05T16:10:14.805654
13119,-0.2908,0.7515,0.1274,-2.730,12.110,-8.190,2,1,1,380,388,2025-06-05T16:10:14.805654
13120,-0.2884,0.7676,0.1093,-6.020,26.740,-11.865,1,1,1,370,361,2025-06-05T16:10:14.806577
13121,-0.3045,0.7740,0.0932,-10.150,23.555,-15.505,1,1,2,367,382,2025-06-05T16:10:14.806577
13122,-0.3684,0.7559,0.0883,-14.595,25.130,-19.285,1,1,1,375,383,2025-06-05T16:10:14.806577
13123,-0.3938,0.7740,0.1171,-17.780,21.420,-21.525,2,2,1,383,385,2025-06-05T16:10:14.806744
13124,-0.3938,0.7954,0.1220,-20.685,16.485,-21.035,1,1,1,386,347,2025-06-05T16:10:14.806744
13125,-0.3377,0.8208,0.1498,-21.455,11.865,-17.990,0,1,1,343,350,2025-06-05T16:10:14.806744
13126,-0.3157,0.8989,0.1981,-21.245,10.745,-14.350,1,1,1,372,329,2025-06-05T16:10:14.806744
13127,-0.3309,0.9765,0.2074,-21.350,12.215,-11.865,1,1,1,387,353,2025-06-05T16:10:14.806744
13128,-0.3762,1.0209,0.1454,-21.140,13.930,-11.130,1,1,1,385,360,2025-06-05T16:10:14.806744
13129,-0.4553,1.0619,0.0522,-20.895,14.595,-12.565,2,2,2,392,370,2025-06-05T16:10:15.106008
13130,-0.4939,1.1019,-0.0088,-19.355,11.305,-13.405,2,1,2,397,390,2025-06-05T16:10:15.106008
13131,-0.5144,1.1409,-0.0444,-17.395,6.755,-12.810,2,2,1,399,392,2025-06-05T16:10:15.106008
13132,-0.5129,1.1741,-0.0268,-15.645,3.675,-10.850,1,1,1,386,361,2025-06-05T16:10:15.106008
13133,-0.4939,1.1863,0.0122,-15.050,1.750,-0.280,2,1,1,382,372,2025-06-05T16:10:15.106008
13134,-0.4504,1.2019,0.0854,-15.085,1.610,-6.755,1,1,1,393,380,2025-06-05T16:10:15.106008
13135,-0.4124,1.2078,0.1313,-16.345,2.730,-4.130,1,1,1,388,391,2025-06-05T16:10:15.106008
13136,-0.3943,1.1976,0.1630,-18.060,4.830,-1.120,2,2,1,348,346,2025-06-05T16:10:15.106008
13137,-0.3777,1.1732,0.1337,-21.735,5.250,1.505,1,2,1,365,363,2025-06-05T16:10:15.106008
13138,-0.3860,1.1248,0.0830,-26.845,5.005,3.920,1,1,1,384,381,2025-06-05T16:10:15.106008
13139,-0.3894,1.0512,0.0508,-31.010,1.400,8.155,1,2,1,385,374,2025-06-05T16:10:15.106008
13140,-0.4231,0.9555,0.0356,-33.145,-6.825,12.775,2,2,2,389,388,2025-06-05T16:10:15.106008
13141,-0.4568,0.8618,0.0132,-32.655,-16.940,16.310,2,2,2,384,386,2025-06-05T16:10:15.106008
13142,-0.4519,0.7857,0.0107,-29.015,-33.810,18.060,1,1,1,378,389,2025-06-05T16:10:15.106008
13143,-0.4060,0.7252,0.0429,-23.345,-33.915,18.410,2,1,1,388,389,2025-06-05T16:10:15.106008
13144,-0.3460,0.7178,0.0800,-16.205,-35.350,17.640,2,2,1,379,378,2025-06-05T16:10:15.106008
13145,-0.3738,0.7105,0.0503,-11.375,-33.915,15.260,1,1,2,386,397,2025-06-05T16:10:15.106008
13146,-0.3889,0.6681,0.0020,-7.980,-33.950,11.340,1,1,1,392,400,2025-06-05T16:10:15.106008
13147,-0.4231,0.6510,-0.0537,-6.790,-32.550,7.070,1,2,1,387,399,2025-06-05T16:10:15.106008
13148,-0.4270,0.6554,-0.0439,-4.760,-34.580,2.590,2,2,1,378,359,2025-06-05T16:10:15.360374
13149,-0.4246,0.6778,0.0366,-1.015,-36.645,0.805,2,2,1,383,375,2025-06-05T16:10:15.360374
13150,-0.4548,0.7008,0.1030,2.940,-37.205,-0.875,2,0,1,377,392,2025-06-05T16:10:15.567813
13151,-0.4895,0.6876,0.1679,8.820,-40.460,-1.575,1,1,1,373,390,2025-06-05T16:10:15.567813
13152,-0.4724,0.7203,0.1976,13.195,-42.805,-0.700,1,1,1,391,400,2025-06-05T16:10:15.567813
13153,-0.5065,0.7598,0.1810,16.310,-46.585,2.520,1,1,1,398,362,2025-06-05T16:10:15.567813
13154,-0.5309,0.7793,0.1576,18.515,-49.875,4.515,2,1,1,385,379,2025-06-05T16:10:15.567813
13155,-0.5646,0.8086,0.1405,20.195,-51.975,4.690,1,2,1,382,350,2025-06-05T16:10:15.567813
13156,-0.5915,0.8262,0.1410,21.875,-52.465,1.750,1,2,1,388,303,2025-06-05T16:10:15.567813
13157,-0.5505,0.8150,0.1879,23.310,-52.185,-2.485,1,1,1,380,350,2025-06-05T16:10:15.567813
13158,-0.5197,0.7764,0.2796,24.010,-50.190,-3.360,1,1,1,389,369,2025-06-05T16:10:15.567813
13159,-0.4607,0.7832,0.3758,22.435,-45.360,-1.995,2,1,1,394,366,2025-06-05T16:10:15.567813
13160,-0.3748,0.7945,0.3992,20.440,-37.555,1.260,1,2,0,349,376,2025-06-05T16:10:15.567813
13161,-0.2943,0.8013,0.3489,15.505,-24.745,3.535,1,2,1,366,379,2025-06-05T16:10:15.567813
13162,-0.2694,0.8291,0.2987,11.760,-12.845,3.920,2,1,1,384,351,2025-06-05T16:10:15.567813
13163,-0.2952,0.8594,0.2357,6.545,-6.020,2.100,1,2,2,389,377,2025-06-05T16:10:15.567813
13164,-0.3387,0.8584,0.1967,2.275,0.245,-0.420,1,1,1,387,385,2025-06-05T16:10:15.567813
13165,-0.4431,0.8564,0.2211,-1.435,1.190,-4.270,2,2,1,399,380,2025-06-05T16:10:15.567813
13166,-0.5295,0.8628,0.2640,-5.250,-4.480,-8.820,2,1,1,358,391,2025-06-05T16:10:15.567813
13167,-0.5412,0.8462,0.3050,-7.735,-13.160,-11.060,2,2,1,380,385,2025-06-05T16:10:15.567813
13168,-0.5431,0.8296,0.3470,-10.640,-21.665,-9.170,2,1,1,371,383,2025-06-05T16:10:15.567813
13169,-0.4987,0.8184,0.3421,-13.160,-32.795,-5.915,2,2,1,340,380,2025-06-05T16:10:15.567813
13170,-0.4031,0.7969,0.2889,-16.730,-39.865,-0.280,1,1,1,372,397,2025-06-05T16:10:15.567813
13171,-0.3045,0.7891,0.2513,-20.090,-38.640,5.705,1,2,2,379,382,2025-06-05T16:10:15.567813
13172,-0.2367,0.8086,0.2513,-22.120,-29.330,9.800,2,2,1,369,397,2025-06-05T16:10:15.567813
13173,-0.2064,0.8389,0.2908,-22.890,-12.180,10.885,1,1,1,390,381,2025-06-05T16:10:15.567813
13174,-0.1942,0.8642,0.3192,-23.415,3.815,9.730,1,1,1,374,386,2025-06-05T16:10:15.567813
13175,-0.2118,0.8706,0.3118,-21.945,24.500,7.770,1,2,1,384,382,2025-06-05T16:10:15.567813
13176,-0.2830,0.8862,0.2782,-21.280,38.150,4.830,1,2,1,389,390,2025-06-05T16:10:15.567813
13177,-0.3240,0.8686,0.2284,-20.125,42.525,3.115,1,1,1,377,397,2025-06-05T16:10:15.567813
13178,-0.4065,0.8725,0.2089,-19.320,43.995,0.980,1,1,1,385,400,2025-06-05T16:10:15.567813
13179,-0.5397,0.8730,0.1825,-18.830,40.670,-4.060,1,1,1,348,381,2025-06-05T16:10:15.567813
13180,-0.6007,0.8657,0.1737,-17.605,31.675,-10.220,1,0,1,359,377,2025-06-05T16:10:15.567813
13181,-0.6207,0.8555,0.2040,-14.280,18.340,-15.330,1,1,1,380,361,2025-06-05T16:10:15.567813
13182,-0.5900,0.8540,0.2435,-9.275,3.325,-16.730,1,1,1,388,381,2025-06-05T16:10:15.567813
13183,-0.5217,0.8394,0.2621,-4.935,-7.350,-15.330,1,2,1,389,394,2025-06-05T16:10:15.568773
13184,-0.4451,0.8516,0.2542,-0.490,-11.375,-13.090,2,2,2,392,384,2025-06-05T16:10:15.568773
13185,-0.3753,0.8764,0.2294,2.135,-11.340,-11.235,1,1,1,376,351,2025-06-05T16:10:15.568773
13186,-0.3192,0.8979,0.2152,2.485,-5.600,-8.610,1,2,1,373,376,2025-06-05T16:10:15.568773
13187,-0.2855,0.9174,0.2035,2.555,2.450,-5.985,1,1,1,381,380,2025-06-05T16:10:15.568773
13188,-0.3245,0.9492,0.1781,2.485,8.050,-4.760,1,2,2,379,350,2025-06-05T16:10:15.568773
13189,-0.3333,0.9262,0.1479,2.485,8.995,-3.185,1,2,1,340,329,2025-06-05T16:10:15.797373
13190,-0.3416,0.9179,0.1322,4.410,7.070,-1.785,2,1,1,356,359,2025-06-05T16:10:15.798377
13191,-0.3626,0.9013,0.1108,7.070,3.535,-0.035,2,2,1,370,389,2025-06-05T16:10:15.798377
13192,-0.3787,0.8682,0.0971,9.415,-1.645,0.070,1,2,1,354,351,2025-06-05T16:10:15.798377
13193,-0.3709,0.8286,0.1005,11.900,-5.145,-0.175,1,1,1,381,382,2025-06-05T16:10:15.798377
13194,-0.3606,0.8028,0.1000,12.985,-7.420,-0.910,1,2,2,380,392,2025-06-05T16:10:15.798377
13195,-0.3562,0.7842,0.0864,15.260,-9.170,-2.345,1,1,1,390,399,2025-06-05T16:10:15.798377
13196,-0.3465,0.7881,0.0561,16.940,-8.960,-4.060,0,1,0,349,352,2025-06-05T16:10:15.798377
13197,-0.3309,0.7847,0.0259,17.570,-7.805,-6.440,2,0,2,370,347,2025-06-05T16:10:15.798377
13198,-0.3001,0.7823,0.0254,18.025,-6.475,-9.835,2,1,1,381,369,2025-06-05T16:10:15.798377
13199,-0.2923,0.7881,0.0439,18.655,-4.655,-12.495,1,1,1,384,369,2025-06-05T16:10:15.799371
13200,-0.3021,0.8008,0.0795,19.285,-3.570,-14.735,2,2,1,375,375,2025-06-05T16:10:15.799371
13201,-0.3113,0.8203,0.0991,19.950,-5.880,-15.575,1,1,1,385,381,2025-06-05T16:10:15.799371
13202,-0.3128,0.8389,0.0961,20.335,-10.395,-15.225,1,1,1,388,384,2025-06-05T16:10:15.799371
13203,-0.3148,0.8477,0.0878,20.650,-14.035,-13.650,2,1,1,399,385,2025-06-05T16:10:15.801363
13204,-0.3060,0.8696,0.0956,20.685,-17.045,-12.355,1,1,1,355,376,2025-06-05T16:10:15.801363
13205,-0.3152,0.8804,0.1054,20.475,-17.395,-11.480,1,2,1,378,395,2025-06-05T16:10:15.801363
13206,-0.3104,0.9116,0.1118,20.300,-15.855,-11.515,1,1,1,395,396,2025-06-05T16:10:15.801363
13207,-0.3070,0.9404,0.1298,20.265,-12.880,-11.480,1,1,1,394,362,2025-06-05T16:10:15.801363
13208,-0.3187,0.9643,0.1566,20.440,-9.975,-10.605,1,1,0,351,360,2025-06-05T16:10:15.801363
13209,-0.3387,0.9736,0.1908,20.335,-6.160,-0.420,1,2,1,374,385,2025-06-05T16:10:15.801363
13210,-0.3880,0.9897,0.2245,20.615,-6.055,-6.720,1,1,1,391,382,2025-06-05T16:10:15.801363
13211,-0.4446,1.0238,0.2562,21.070,-9.625,-3.850,1,1,1,383,391,2025-06-05T16:10:16.086440
13212,-0.4904,1.0643,0.2621,21.665,-15.680,-1.785,2,2,1,379,392,2025-06-05T16:10:16.086440
13213,-0.5319,1.0980,0.2416,22.400,-21.420,-1.225,1,1,1,381,354,2025-06-05T16:10:16.086440
13214,-0.5470,1.1034,0.2157,20.895,-23.380,-1.715,2,1,1,380,367,2025-06-05T16:10:16.086623
13215,-0.5861,1.0970,0.2225,17.815,-23.695,-2.065,2,2,2,381,377,2025-06-05T16:10:16.086623
13216,-0.5856,1.0946,0.2884,14.245,-24.360,-1.295,1,1,1,378,389,2025-06-05T16:10:16.086623
13217,-0.5641,1.0892,0.3348,11.690,-24.500,3.430,1,2,2,393,386,2025-06-05T16:10:16.086623
13218,-0.5353,1.0712,0.3640,10.920,-23.695,10.920,1,1,1,396,355,2025-06-05T16:10:16.086623
13219,-0.5183,1.0385,0.3348,10.045,-22.400,19.250,1,1,1,394,374,2025-06-05T16:10:16.086623
13220,-0.5685,0.9887,0.2840,9.625,-18.865,24.010,1,1,1,401,374,2025-06-05T16:10:16.086623
13221,-0.6256,0.9414,0.2474,9.170,-17.255,26.495,1,2,1,381,382,2025-06-05T16:10:16.086623
13222,-0.6437,0.8750,0.2420,9.310,-18.515,27.405,1,1,2,383,379,2025-06-05T16:10:16.086623
13223,-0.6290,0.8013,0.2664,9.345,-19.915,28.070,1,1,2,384,393,2025-06-05T16:10:16.086623
13224,-0.6046,0.7603,0.2830,10.185,-20.370,27.860,2,1,1,395,401,2025-06-05T16:10:16.086623
13225,-0.5553,0.7144,0.2757,11.095,-18.970,26.740,1,2,1,385,401,2025-06-05T16:10:16.086623
13226,-0.5251,0.6808,0.2601,11.585,-16.065,24.500,1,1,1,355,393,2025-06-05T16:10:16.086623
13227,-0.4821,0.6529,0.2689,11.935,-12.880,21.770,1,1,0,343,383,2025-06-05T16:10:16.086623
13228,-0.4436,0.6422,0.2621,11.375,-9.485,18.935,1,1,1,367,389,2025-06-05T16:10:16.086623
13229,-0.4124,0.6354,0.2523,10.465,-5.425,16.205,1,1,2,378,399,2025-06-05T16:10:16.086623
13230,-0.4133,0.6300,0.2318,8.400,-1.925,13.265,1,1,1,378,369,2025-06-05T16:10:16.086623
13231,-0.4509,0.6232,0.2279,5.670,0.140,11.095,1,2,1,374,368,2025-06-05T16:10:16.086623
13232,-0.4597,0.6198,0.2333,2.485,-1.365,8.890,2,2,1,387,380,2025-06-05T16:10:16.086623
13233,-0.4431,0.6285,0.2396,-8.785,-5.005,7.805,2,2,1,400,348,2025-06-05T16:10:16.286265
13234,-0.4158,0.6251,0.2528,-2.205,-8.365,7.700,2,2,1,381,375,2025-06-05T16:10:16.286265
13235,-0.3953,0.6207,0.2625,-4.025,-9.625,7.420,1,2,1,399,391,2025-06-05T16:10:16.286265
13236,-0.3699,0.6295,0.2601,-5.740,-9.240,6.825,1,1,1,389,380,2025-06-05T16:10:16.286265
13237,-0.3494,0.6305,0.2582,-7.665,-6.405,4.935,1,1,2,394,393,2025-06-05T16:10:16.287113
13238,-0.3431,0.6427,0.2616,-8.750,-2.870,2.800,2,2,1,400,396,2025-06-05T16:10:16.287113
13239,-0.3762,0.6500,0.2645,-9.590,0.070,0.665,1,2,2,386,404,2025-06-05T16:10:16.287113
13240,-0.4163,0.6744,0.2757,-9.975,0.350,-1.820,1,1,2,399,391,2025-06-05T16:10:16.287113
13241,-0.4441,0.6964,0.2967,-10.850,-0.420,-4.410,1,2,1,395,378,2025-06-05T16:10:16.287113
13242,-0.4641,0.7296,0.3231,-10.500,-2.695,-8.575,2,1,0,362,383,2025-06-05T16:10:16.287113
13243,-0.4538,0.7837,0.3411,-11.130,-4.060,-13.125,1,1,1,380,354,2025-06-05T16:10:16.287113
13244,-0.4168,0.8408,0.3470,-11.865,-4.410,-17.395,1,2,1,385,379,2025-06-05T16:10:16.287113
13245,-0.3831,0.9067,0.3411,-13.930,-2.940,-19.985,2,2,1,394,392,2025-06-05T16:10:16.287113
13246,-0.3738,0.9565,0.2962,-18.305,-0.630,-21.420,1,2,1,384,381,2025-06-05T16:10:16.287113
13247,-0.3562,0.9984,0.2757,-21.945,2.100,-22.260,1,1,1,392,358,2025-06-05T16:10:16.287113
13248,-0.3650,1.0307,0.2367,-26.530,3.465,-22.750,1,2,1,388,366,2025-06-05T16:10:16.287113
13249,-0.3880,1.0497,0.2157,-28.490,4.410,-23.695,1,1,2,352,382,2025-06-05T16:10:16.287113
13250,-0.4168,1.0736,0.2011,-30.590,3.675,-25.900,1,2,1,368,396,2025-06-05T16:10:16.287113
13251,-0.4519,1.0677,0.2108,-32.305,1.190,-27.440,1,1,1,384,391,2025-06-05T16:10:16.287113
13252,-0.4602,1.0380,0.2030,-33.775,-4.865,-27.405,1,2,2,393,392,2025-06-05T16:10:16.457738
13253,-0.4241,1.0253,0.1854,-34.965,-13.895,-23.695,2,1,2,380,365,2025-06-05T16:10:16.457738
13254,-0.3470,1.0058,0.1366,-35.245,-21.455,-16.555,2,2,1,371,384,2025-06-05T16:10:16.458659
13255,-0.3006,0.9970,0.0922,-34.685,-22.225,-9.380,2,2,1,345,382,2025-06-05T16:10:16.458659
13256,-0.2840,0.9838,0.0639,-31.885,-18.620,-5.145,2,2,2,370,357,2025-06-05T16:10:16.458659
13257,-0.2625,0.9682,0.0639,-28.280,-11.795,-4.235,1,1,2,376,343,2025-06-05T16:10:16.458659
13258,-0.2699,0.9389,0.0727,-24.045,-3.465,-4.025,1,1,1,380,358,2025-06-05T16:10:16.458659
13259,-0.3104,0.9057,0.0776,-19.950,1.750,-4.270,2,2,1,384,350,2025-06-05T16:10:16.458659
13260,-0.3436,0.8623,0.1030,-16.345,1.540,-4.900,1,1,1,389,358,2025-06-05T16:10:16.458659
13261,-0.3743,0.8272,0.1039,-12.915,-1.365,-5.390,1,2,1,382,377,2025-06-05T16:10:16.458659
13262,-0.4036,0.7857,0.1088,-9.275,-7.805,-6.510,1,1,1,392,382,2025-06-05T16:10:16.458659
13263,-0.4089,0.7676,0.1191,-4.690,-13.860,-8.260,1,1,1,383,390,2025-06-05T16:10:16.458659
13264,-0.3845,0.7642,0.1347,-0.665,-16.065,-11.305,2,1,1,388,323,2025-06-05T16:10:16.458659
13265,-0.3758,0.7579,0.1327,4.445,-14.595,-15.680,1,1,0,307,340,2025-06-05T16:10:16.458659
13266,-0.3684,0.7354,0.1342,8.855,-11.410,-20.265,1,2,1,345,369,2025-06-05T16:10:16.687780
13267,-0.3738,0.7076,0.1371,12.425,-10.465,-23.170,1,2,2,383,385,2025-06-05T16:10:16.687780
13268,-0.4080,0.6803,0.1410,15.435,-13.265,-24.255,1,2,1,387,377,2025-06-05T16:10:16.688043
13269,-0.4436,0.6622,0.1527,17.780,-20.720,-24.640,1,2,1,377,381,2025-06-05T16:10:16.688043
13270,-0.5075,0.6237,0.1596,19.250,-31.535,-24.990,2,1,1,385,379,2025-06-05T16:10:16.688043
13271,-0.5168,0.5978,0.1776,20.650,-44.940,-25.865,2,1,1,386,390,2025-06-05T16:10:16.688043
13272,-0.5622,0.6051,0.1708,21.595,-55.405,-27.860,1,1,1,383,389,2025-06-05T16:10:16.688598
13273,-0.5836,0.6144,0.1767,22.575,-65.555,-31.185,1,2,1,392,388,2025-06-05T16:10:16.688598
13274,-0.5778,0.6251,0.1591,22.365,-74.865,-38.115,1,1,1,376,350,2025-06-05T16:10:16.688598
13275,-0.5207,0.6237,0.1152,18.270,-81.270,-43.470,1,1,1,378,365,2025-06-05T16:10:16.688598
13276,-0.5090,0.6329,0.0346,11.095,-88.200,-47.425,1,1,1,373,368,2025-06-05T16:10:16.688598
13277,-0.5583,0.6476,-0.0454,6.755,-96.740,-49.525,1,1,1,390,386,2025-06-05T16:10:16.688598
13278,-0.6710,0.7061,-0.1557,1.995,-108.920,-52.500,1,2,1,399,376,2025-06-05T16:10:16.689043
13279,-0.7027,0.8589,-0.2547,0.175,-133.280,-51.520,0,1,1,392,360,2025-06-05T16:10:16.689043
13280,-0.5822,1.1283,-0.4929,-3.710,-170.450,-38.150,1,2,1,397,368,2025-06-05T16:10:16.689043
13281,-0.4909,1.6021,-0.7813,-8.260,-214.515,-7.350,2,0,1,404,375,2025-06-05T16:10:16.689043
13282,-0.2547,2.4112,-1.1624,-12.110,-271.145,43.575,2,2,2,359,365,2025-06-05T16:10:16.689043
13283,0.1806,3.7122,-1.5021,-6.335,-305.270,106.015,2,2,1,370,379,2025-06-05T16:10:16.915334
13284,0.6437,5.1011,-1.9037,11.270,-293.545,164.535,2,2,2,384,360,2025-06-05T16:10:16.915334
13285,1.2527,5.9785,-2.2604,19.845,-212.450,195.475,1,1,1,385,373,2025-06-05T16:10:16.915334
13286,1.4323,6.4636,-2.3810,-5.880,-73.430,203.245,2,1,2,395,387,2025-06-05T16:10:16.916436
13287,0.9233,6.3386,-2.4312,-61.565,50.400,185.570,2,1,1,403,382,2025-06-05T16:10:16.916436
13288,0.1708,5.5739,-2.4751,-160.860,95.550,156.870,2,1,1,385,379,2025-06-05T16:10:16.916436
13289,-0.7871,4.5257,-2.3653,-216.020,65.940,113.925,2,0,1,350,386,2025-06-05T16:10:16.916436
13290,-1.5772,3.5199,-1.5758,-282.975,-0.105,52.080,1,1,1,375,396,2025-06-05T16:10:16.917322
13291,-1.5753,1.9130,0.0146,-376.145,-96.285,-20.020,1,2,2,372,357,2025-06-05T16:10:16.917322
13292,-1.2068,-0.5422,1.0121,-463.470,-161.665,-111.825,1,1,2,376,382,2025-06-05T16:10:16.917322
13293,-0.9082,-3.2735,2.0540,-512.645,-155.015,-248.850,1,1,1,350,356,2025-06-05T16:10:16.917322
13294,-0.2845,-7.2649,1.9720,-481.810,-120.645,-349.300,1,1,2,372,379,2025-06-05T16:10:16.917322
13295,-0.1225,-9.9123,2.0872,-358.715,-90.020,-402.745,1,1,1,373,372,2025-06-05T16:10:16.917322
13296,-0.0771,-8.2067,1.5923,-178.535,-85.295,-404.285,1,1,1,371,369,2025-06-05T16:10:16.917322
13297,1.9188,-5.2362,1.0038,44.520,-22.890,-285.845,1,2,1,373,381,2025-06-05T16:10:16.917322
13298,1.0277,-2.8509,-0.0834,124.495,99.225,-135.695,1,1,1,376,390,2025-06-05T16:10:16.917322
13299,0.0634,-1.5011,-0.6734,68.950,54.390,15.960,1,2,1,381,394,2025-06-05T16:10:16.917322
13300,0.1474,-0.9238,0.2235,77.840,-100.135,181.860,1,1,2,374,390,2025-06-05T16:10:17.501033
13301,1.2420,-1.1097,0.5500,13.755,34.475,277.025,2,1,2,386,357,2025-06-05T16:10:17.501033
13302,0.7891,-1.6377,1.0512,29.190,87.640,265.195,1,2,1,388,342,2025-06-05T16:10:17.502030
13303,0.5412,-1.5123,0.9501,72.555,35.770,216.230,1,1,2,390,363,2025-06-05T16:10:17.502030
13304,0.4002,-1.1146,0.8930,104.930,28.980,163.870,2,1,1,392,374,2025-06-05T16:10:17.502030
13305,0.2679,-0.4919,0.6622,92.960,46.830,119.455,1,2,2,395,371,2025-06-05T16:10:17.502030
13306,-0.0400,0.1410,0.8374,52.185,54.845,57.505,1,2,1,393,375,2025-06-05T16:10:17.502030
13307,0.0137,0.3665,1.1692,28.210,63.630,11.060,2,2,1,395,388,2025-06-05T16:10:17.502030
13308,0.0610,0.2596,1.6533,7.175,107.555,-1.050,2,1,1,385,350,2025-06-05T16:10:17.502030
13309,-0.1762,-0.0229,1.7207,-4.865,156.660,11.550,1,1,0,347,330,2025-06-05T16:10:17.502030
13310,-0.5183,0.1635,1.5518,-8.855,175.770,31.535,1,1,1,358,365,2025-06-05T16:10:17.502030
13311,-1.0912,0.4255,1.3644,-3.360,140.350,59.745,1,1,2,384,373,2025-06-05T16:10:17.502030
13312,-1.3352,0.4997,1.2151,-10.325,80.710,89.005,1,1,1,375,379,2025-06-05T16:10:17.502030
13313,-1.3415,0.5802,1.0248,-2.940,24.780,100.380,1,1,1,388,379,2025-06-05T16:10:17.502030
13314,-0.9414,0.7120,0.9130,11.795,-1.435,96.845,1,1,2,391,393,2025-06-05T16:10:17.502030
13315,-0.3475,0.6959,1.1273,24.360,14.910,82.320,1,1,2,400,397,2025-06-05T16:10:17.502030
13316,-0.0303,0.5924,1.0248,43.785,83.335,78.365,1,1,1,382,398,2025-06-05T16:10:17.502030
13317,-0.1484,0.5641,0.8316,57.365,146.860,62.125,2,2,1,379,398,2025-06-05T16:10:17.503047
13318,-0.5373,0.7852,0.7344,66.430,149.345,62.860,2,2,1,387,397,2025-06-05T16:10:17.503047
13319,-0.7584,0.9121,0.5939,67.900,101.360,75.355,2,2,1,390,390,2025-06-05T16:10:17.503047
13320,-0.7906,0.9819,0.5934,57.435,41.825,87.150,1,1,2,391,385,2025-06-05T16:10:17.503047
13321,-0.5041,0.9008,0.7330,54.180,3.290,83.475,1,1,1,393,388,2025-06-05T16:10:17.503047
13322,-0.1508,0.8237,0.7857,56.595,1.785,65.660,1,1,1,380,373,2025-06-05T16:10:17.503047
13323,0.0512,0.8359,0.7037,52.150,31.850,46.375,2,1,1,357,381,2025-06-05T16:10:17.503047
13324,0.1362,0.7803,0.5851,48.790,71.820,28.070,1,1,2,377,382,2025-06-05T16:10:17.503047
13325,0.0254,0.8457,0.4724,48.685,106.190,17.220,1,1,1,374,393,2025-06-05T16:10:17.503047
13326,-0.1532,0.8896,0.4080,40.215,123.690,9.065,1,1,1,381,384,2025-06-05T16:10:17.503047
13327,-0.3070,0.8740,0.6051,38.500,119.560,5.145,1,2,1,375,381,2025-06-05T16:10:17.503047
13328,-0.5407,0.8037,0.7354,46.165,99.575,0.385,1,2,0,346,390,2025-06-05T16:10:17.503047
13329,-0.6539,0.7300,0.7291,59.535,58.555,-4.410,1,2,1,365,397,2025-06-05T16:10:17.503047
13330,-0.6046,0.7125,0.6129,69.685,19.985,-9.030,2,1,1,374,396,2025-06-05T16:10:17.503047
13331,-0.5417,0.7613,0.4304,73.885,-5.460,-15.295,1,1,1,371,395,2025-06-05T16:10:17.503047
13332,-0.4455,0.8242,0.3484,71.365,-17.990,-19.530,1,1,1,391,393,2025-06-05T16:10:17.504073
13333,-0.3870,0.8945,0.4646,62.335,-24.115,-20.090,1,1,2,391,384,2025-06-05T16:10:17.504073
13334,-0.3587,0.9116,0.6207,54.565,-26.250,-19.775,2,2,2,391,387,2025-06-05T16:10:17.504073
13335,-0.4372,0.8969,0.6974,50.260,-23.345,-21.805,1,2,1,393,393,2025-06-05T16:10:17.504073
13336,-0.4446,0.8486,0.6554,50.260,-22.645,-25.830,1,1,2,396,323,2025-06-05T16:10:17.504073
13337,-0.4270,0.8364,0.5368,49.735,-19.880,-32.340,1,1,2,391,367,2025-06-05T16:10:17.504073
13338,-0.4587,0.7984,0.3279,46.725,-14.560,-35.035,2,1,1,392,337,2025-06-05T16:10:17.504073
13339,-0.5148,0.7793,0.2704,42.910,-13.580,-35.350,1,0,1,387,356,2025-06-05T16:10:17.504073
13340,-0.5500,0.7598,0.3221,39.690,-19.110,-30.870,1,1,1,377,373,2025-06-05T16:10:17.504073
13341,-0.5597,0.7886,0.4016,39.025,-33.425,-25.725,1,1,1,384,384,2025-06-05T16:10:17.504073
13342,-0.5368,0.7964,0.4177,41.405,-47.215,-20.440,2,1,1,393,391,2025-06-05T16:10:17.504073
13343,-0.4680,0.8154,0.3845,43.155,-55.790,-17.325,1,2,1,378,389,2025-06-05T16:10:17.504073
13344,-0.3748,0.8374,0.3265,44.170,-56.630,-17.920,2,1,1,388,400,2025-06-05T16:10:17.504073
13345,-0.2972,0.8477,0.2601,42.630,-48.755,-20.195,1,1,1,384,404,2025-06-05T16:10:17.504073
13346,-0.2977,0.7974,0.2298,39.060,-35.840,-23.765,1,2,2,383,396,2025-06-05T16:10:17.504073
13347,-0.3323,0.7169,0.2689,35.385,-27.580,-24.745,1,1,1,345,385,2025-06-05T16:10:17.504073
13348,-0.3387,0.7013,0.3133,33.845,-24.605,-23.065,1,1,1,365,380,2025-06-05T16:10:17.504073
13349,-0.3338,0.6934,0.2952,33.110,-21.385,-20.895,1,1,1,367,384,2025-06-05T16:10:17.504073
13350,-0.3562,0.7257,0.2494,32.900,-15.435,-18.830,1,2,1,373,390,2025-06-05T16:10:17.504073
13351,-0.4168,0.8213,0.2230,32.620,-6.370,-21.665,2,1,1,392,400,2025-06-05T16:10:17.770267
13352,-0.4221,0.9306,0.2469,29.225,2.415,-29.330,1,2,1,351,382,2025-06-05T16:10:17.770267
13353,-0.4431,0.9638,0.3109,26.635,7.945,-37.380,1,2,1,373,393,2025-06-05T16:10:17.770267
13354,-0.4592,0.9545,0.3592,24.430,7.665,-42.595,2,1,1,343,375,2025-06-05T16:10:17.770267
13355,-0.4514,0.9838,0.3802,23.800,0.805,-42.770,2,1,1,365,388,2025-06-05T16:10:17.770267
13356,-0.3938,1.0448,0.3518,22.540,-8.050,-36.995,1,1,2,371,390,2025-06-05T16:10:17.770267
13357,-0.2908,1.1517,0.3182,19.110,-12.950,-26.215,1,1,1,388,385,2025-06-05T16:10:17.770896
13358,-0.2601,1.2381,0.3045,15.680,-11.235,-14.875,1,1,1,394,362,2025-06-05T16:10:17.770896
13359,-0.2977,1.2864,0.3182,9.765,-6.545,-7.315,2,1,1,367,370,2025-06-05T16:10:17.770896
13360,-0.3416,1.3298,0.3684,4.375,-1.820,-3.150,2,2,1,373,381,2025-06-05T16:10:17.770896
13361,-0.3597,1.3347,0.3899,0.280,0.490,-0.630,1,1,2,386,380,2025-06-05T16:10:17.770896
13362,-0.3821,1.2776,0.3714,-2.450,0.910,3.220,1,2,1,392,378,2025-06-05T16:10:17.770896
13363,-0.3709,1.2063,0.3284,-3.290,1.225,7.350,1,1,1,382,394,2025-06-05T16:10:17.770896
13364,-0.3738,1.1234,0.2694,-4.410,1.330,11.305,2,1,1,394,365,2025-06-05T16:10:17.770896
13365,-0.3758,1.0814,0.2381,-2.730,0.735,13.685,1,1,1,393,388,2025-06-05T16:10:17.770896
13366,-0.3777,1.0307,0.2386,-1.260,-0.735,14.735,1,1,1,390,365,2025-06-05T16:10:17.770896
13367,-0.3860,0.9658,0.2640,8.855,-2.310,14.035,1,1,1,394,376,2025-06-05T16:10:17.770896
13368,-0.4050,0.9135,0.2816,2.835,-4.935,12.740,2,1,1,394,377,2025-06-05T16:10:17.770896
13369,-0.4143,0.8501,0.2757,5.285,-9.835,12.355,1,1,1,393,372,2025-06-05T16:10:17.883943
13370,-0.3826,0.8125,0.2464,6.895,-16.695,12.810,2,2,1,380,359,2025-06-05T16:10:17.883943
13371,-0.3396,0.7657,0.2240,7.980,-21.315,13.720,2,2,1,373,377,2025-06-05T16:10:17.883943
13372,-0.3528,0.7242,0.2030,8.575,-23.765,13.440,1,1,1,375,377,2025-06-05T16:10:17.883943
13373,-0.3318,0.7017,0.2045,8.890,-24.710,11.375,2,2,1,387,391,2025-06-05T16:10:17.883943
13374,-0.3055,0.6446,0.2001,8.890,-24.885,9.800,1,1,1,380,380,2025-06-05T16:10:17.883943
13375,-0.2987,0.5949,0.2152,10.045,-23.205,8.890,1,1,1,382,347,2025-06-05T16:10:17.883943
13376,-0.2948,0.5544,0.2328,11.480,-20.370,7.385,1,2,1,378,364,2025-06-05T16:10:17.883943
13377,-0.3113,0.5329,0.2401,12.845,-15.400,4.760,1,1,2,391,385,2025-06-05T16:10:17.883943
13378,-0.3367,0.5256,0.2469,15.120,-1.050,0.070,1,1,1,403,347,2025-06-05T16:10:17.883943
13379,-0.3353,0.5251,0.2230,17.465,-5.215,-4.165,1,2,1,388,345,2025-06-05T16:10:17.883943
13380,-0.3221,0.5334,0.1928,19.425,-2.170,-8.890,1,1,1,398,369,2025-06-05T16:10:17.883943
13381,-0.3475,0.5470,0.1810,20.020,-1.330,-12.075,1,1,1,391,385,2025-06-05T16:10:17.883943
13382,-0.3792,0.5817,0.2089,20.475,-4.060,-13.895,1,1,2,400,390,2025-06-05T16:10:17.883943
13383,-0.4026,0.6163,0.2816,20.405,-7.700,-13.160,1,2,1,394,385,2025-06-05T16:10:17.883943
13384,-0.4343,0.6861,0.3367,20.230,-12.005,-11.165,1,1,2,392,396,2025-06-05T16:10:17.884936
13385,-0.4782,0.7437,0.3655,19.740,-14.910,-9.450,1,2,1,385,395,2025-06-05T16:10:18.133008
13386,-0.4651,0.8135,0.4026,17.290,-16.450,-9.590,1,2,1,389,395,2025-06-05T16:10:18.133008
13387,-0.4290,0.8804,0.4338,13.300,-14.805,-10.850,2,1,2,352,352,2025-06-05T16:10:18.133008
13388,-0.4377,0.9511,0.4412,10.045,-9.205,-14.245,2,1,1,368,384,2025-06-05T16:10:18.133374
13389,-0.4475,0.9970,0.4343,5.495,-2.030,-18.025,2,2,1,388,387,2025-06-05T16:10:18.133374
13390,-0.4900,1.0160,0.4377,1.750,6.440,-20.720,2,1,1,387,392,2025-06-05T16:10:18.133374
13391,-0.5485,1.0243,0.4548,-1.715,11.480,-22.610,1,2,1,383,382,2025-06-05T16:10:18.133374
13392,-0.5763,1.0028,0.4826,-5.180,10.920,-22.645,1,1,1,386,379,2025-06-05T16:10:18.133374
13393,-0.5583,0.9599,0.5100,-7.735,5.180,-18.690,1,1,0,359,386,2025-06-05T16:10:18.133374
13394,-0.5275,0.9170,0.4909,-10.395,-1.225,-12.145,1,1,1,374,390,2025-06-05T16:10:18.133374
13395,-0.4890,0.8847,0.4338,-12.460,-7.980,-7.105,1,2,1,369,383,2025-06-05T16:10:18.134006
13396,-0.4207,0.8564,0.3689,-13.090,-11.935,-1.680,1,2,1,368,361,2025-06-05T16:10:18.134006
13397,-0.3841,0.8081,0.3011,-11.550,-10.955,2.205,2,2,1,378,383,2025-06-05T16:10:18.134006
13398,-0.4104,0.7671,0.2855,-9.415,-7.105,3.220,1,2,1,389,395,2025-06-05T16:10:18.134006
13399,-0.4426,0.7349,0.2874,-5.425,-5.635,0.315,1,1,1,401,389,2025-06-05T16:10:18.134006
13400,-0.4900,0.7115,0.2865,0.000,-5.845,-2.940,2,1,1,405,394,2025-06-05T16:10:18.134006
13401,-0.5383,0.6822,0.2928,6.825,-10.185,-7.385,2,0,1,355,347,2025-06-05T16:10:18.134006
13402,-0.6090,0.6349,0.3045,12.600,-20.720,-10.815,1,1,1,374,388,2025-06-05T16:10:18.315274
13403,-0.6237,0.6085,0.3006,21.035,-34.895,-12.495,1,2,1,393,378,2025-06-05T16:10:18.315274
13404,-0.5724,0.5944,0.2869,26.950,-45.430,-12.250,2,2,2,396,386,2025-06-05T16:10:18.315274
13405,-0.5041,0.5758,0.2523,29.295,-56.525,-10.360,1,1,2,386,382,2025-06-05T16:10:18.316271
13406,-0.4333,0.5773,0.2298,29.085,-62.055,-7.245,1,2,1,383,389,2025-06-05T16:10:18.316271
13407,-0.3577,0.5788,0.1893,25.410,-63.700,-5.250,2,1,1,388,403,2025-06-05T16:10:18.316271
13408,-0.3050,0.6359,0.1298,22.925,-61.670,-4.865,2,2,1,383,385,2025-06-05T16:10:18.316933
13409,-0.3128,0.7105,0.0351,19.110,-59.045,-6.020,2,1,1,374,379,2025-06-05T16:10:18.317272
13410,-0.3514,0.8535,-0.0791,17.500,-60.060,-7.000,1,0,1,369,349,2025-06-05T16:10:18.317272
13411,-0.4690,0.9267,-0.2220,14.560,-76.195,-8.155,1,0,1,363,368,2025-06-05T16:10:18.317272
13412,-0.5934,0.9472,-0.2884,12.460,-113.330,-2.345,1,2,0,334,341,2025-06-05T16:10:18.317272
13413,-0.4480,1.2751,-0.3504,12.110,-159.425,13.790,1,1,1,347,328,2025-06-05T16:10:18.317272
13414,-0.2899,1.7348,-0.6895,6.895,-196.665,43.050,1,2,1,377,370,2025-06-05T16:10:18.318271
13415,-0.0947,2.6972,-1.1985,5.670,-242.410,86.660,2,2,1,391,368,2025-06-05T16:10:18.318271
13416,0.4407,3.7151,-1.6694,15.155,-256.025,126.875,1,1,1,393,379,2025-06-05T16:10:18.318271
13417,1.0780,4.9761,-2.0457,8.505,-217.000,166.880,1,2,0,354,375,2025-06-05T16:10:18.318271
13418,1.7714,5.7369,-2.2990,-28.875,-115.325,186.725,2,2,1,366,380,2025-06-05T16:10:18.318271
13419,1.4869,6.1708,-2.4044,-65.065,5.425,174.475,2,2,2,378,386,2025-06-05T16:10:18.318271
13420,0.2386,5.9375,-2.3844,-152.635,63.490,131.705,2,2,1,341,382,2025-06-05T16:10:18.318271
13421,-1.0009,5.0254,-1.8842,-209.895,62.580,74.795,2,1,1,370,396,2025-06-05T16:10:18.318271
13422,-2.1321,3.9967,-1.2224,-247.590,-35.175,30.800,1,2,2,392,391,2025-06-05T16:10:18.506668
13423,-2.4468,2.6689,-0.6295,-309.820,-183.015,-26.145,1,2,1,390,395,2025-06-05T16:10:18.506668
13424,-1.3088,0.4436,-0.2835,-399.770,-276.535,-83.020,1,1,1,387,396,2025-06-05T16:10:18.506668
13425,0.4519,-2.2199,0.5158,-496.230,-242.305,-151.795,2,2,2,404,409,2025-06-05T16:10:18.506668
13426,1.4342,-5.2494,1.8934,-532.210,-99.645,-241.570,2,1,2,360,382,2025-06-05T16:10:18.506668
13427,0.6149,-7.1926,2.6635,-510.580,10.710,-273.840,1,2,1,335,388,2025-06-05T16:10:18.506668
13428,-1.9779,-7.5152,2.3126,-382.830,17.640,-301.595,1,1,1,367,398,2025-06-05T16:10:18.506668
13429,-1.0546,-5.7794,1.3386,-115.570,-124.670,-321.545,1,0,1,380,381,2025-06-05T16:10:18.506668
13430,0.6100,-4.2866,-0.0049,35.945,-173.845,-235.865,2,1,1,384,376,2025-06-05T16:10:18.506668
13431,1.0834,-2.9485,-0.4026,67.130,-156.065,-147.175,1,2,1,391,385,2025-06-05T16:10:18.506668
13432,0.9428,-2.0364,-0.4353,77.945,-87.605,-35.560,1,2,1,384,381,2025-06-05T16:10:18.506668
13433,1.4694,-0.9150,0.3997,99.120,26.705,92.960,1,1,1,394,380,2025-06-05T16:10:18.507631
13434,1.6153,-0.8135,1.0087,72.100,119.735,192.500,1,2,1,393,384,2025-06-05T16:10:18.507631
13435,1.3249,-0.9233,1.3464,78.120,167.300,232.330,1,0,1,397,391,2025-06-05T16:10:18.507631
13436,0.2777,-1.4411,1.1536,96.915,203.490,232.155,1,1,2,395,393,2025-06-05T16:10:18.507631
13437,-0.2450,-1.5631,1.1522,88.480,162.190,217.035,1,1,1,392,384,2025-06-05T16:10:18.704514
13438,-0.4451,-1.4713,1.1287,110.810,28.630,192.850,2,1,1,380,359,2025-06-05T16:10:18.704514
13439,-0.2689,-0.9897,1.0302,135.030,-25.305,153.335,2,1,1,381,339,2025-06-05T16:10:18.704514
13440,0.3914,-0.2943,1.0224,123.970,22.260,98.770,1,2,1,374,361,2025-06-05T16:10:18.704514
13441,0.5388,0.0688,1.2415,92.470,99.330,62.895,2,1,1,388,388,2025-06-05T16:10:18.704514
13442,0.2840,0.2830,1.2293,81.060,174.965,56.280,1,1,1,396,386,2025-06-05T16:10:18.704514
13443,-0.2567,0.4168,1.0346,66.325,204.435,68.985,2,1,2,380,343,2025-06-05T16:10:18.704514
13444,-0.9282,0.3689,0.7852,49.805,183.225,85.190,2,2,1,372,323,2025-06-05T16:10:18.704514
13445,-1.0834,0.3660,0.8091,48.020,116.515,97.685,1,1,1,340,360,2025-06-05T16:10:18.704514
13446,-0.8120,0.4582,0.8603,48.545,69.440,96.810,2,1,1,332,377,2025-06-05T16:10:18.704514
13447,-0.4226,0.7022,0.8394,49.455,59.115,80.045,1,2,2,372,380,2025-06-05T16:10:18.705511
13448,-0.2884,0.7828,0.7564,44.170,70.035,62.895,1,2,1,379,379,2025-06-05T16:10:18.705723
13449,-0.1825,0.8408,0.6276,36.365,89.075,46.935,1,1,1,381,388,2025-06-05T16:10:18.705723
13450,-0.1942,0.8184,0.6139,30.520,112.315,35.630,2,1,2,380,380,2025-06-05T16:10:19.394157
13451,-0.1703,0.8389,0.8120,27.545,145.040,19.460,1,1,1,384,357,2025-06-05T16:10:19.394157
13452,-0.4763,0.8486,0.9091,34.440,162.820,0.385,2,1,1,340,299,2025-06-05T16:10:19.394157
13453,-0.5510,0.8847,0.8969,47.250,143.010,-9.380,2,2,1,349,351,2025-06-05T16:10:19.394157
13454,-0.5627,0.8701,0.6788,54.355,104.160,-6.300,1,1,2,377,362,2025-06-05T16:10:19.395155
13455,-0.6944,0.8325,0.4441,49.140,59.465,-1.050,2,2,2,346,331,2025-06-05T16:10:19.395155
13456,-0.6422,0.8677,0.5158,44.730,12.740,6.055,1,1,1,368,370,2025-06-05T16:10:19.395155
13457,-0.3113,0.9672,0.8677,35.945,-10.115,10.045,2,0,2,375,388,2025-06-05T16:10:19.395155
13458,-0.2176,1.0150,1.1331,36.750,-2.065,6.020,2,2,2,347,374,2025-06-05T16:10:19.395155
13459,-0.1601,1.0302,1.0785,43.050,17.290,-9.660,1,1,1,372,380,2025-06-05T16:10:19.395155
13460,-0.0425,1.0453,0.7984,44.555,50.330,-22.225,1,1,0,341,382,2025-06-05T16:10:19.395155
13461,-0.1122,0.9965,0.5031,41.055,77.315,-31.150,1,1,1,344,391,2025-06-05T16:10:19.396151
13462,-0.3392,0.8926,0.4285,36.400,77.560,-30.065,1,1,1,358,387,2025-06-05T16:10:19.396151
13463,-0.5597,0.8101,0.6188,36.820,52.360,-20.860,1,2,1,331,379,2025-06-05T16:10:19.396151
13464,-0.6822,0.7422,0.8384,44.765,22.190,-11.690,1,1,1,348,385,2025-06-05T16:10:19.396151
13465,-0.6437,0.7296,0.8364,59.010,-13.440,-7.805,0,1,1,362,321,2025-06-05T16:10:19.396151
13466,-0.5661,0.7486,0.6476,68.985,-33.775,-6.720,1,1,1,360,289,2025-06-05T16:10:19.396151
13467,-0.4900,0.7881,0.4792,72.240,-40.215,-10.010,1,1,1,377,341,2025-06-05T16:10:19.396151
13468,-0.4421,0.8140,0.3304,71.015,-39.970,-14.665,1,1,1,366,362,2025-06-05T16:10:19.396151
13469,-0.3850,0.8047,0.3958,61.705,-39.375,-15.785,2,1,0,342,374,2025-06-05T16:10:19.397149
13470,-0.4104,0.7330,0.5451,53.760,-39.340,-13.475,1,1,2,363,384,2025-06-05T16:10:19.397149
13471,-0.4729,0.7125,0.6812,54.250,-41.860,-10.465,1,2,1,381,379,2025-06-05T16:10:19.397149
13472,-0.5002,0.7427,0.6290,57.260,-43.400,-10.885,2,2,1,376,341,2025-06-05T16:10:19.397149
13473,-0.4499,0.7603,0.5256,55.895,-38.325,-14.385,2,2,2,383,370,2025-06-05T16:10:19.397149
13474,-0.3977,0.7427,0.3538,52.640,-28.000,-17.570,1,1,1,377,367,2025-06-05T16:10:19.397149
13475,-0.3499,0.7125,0.2513,46.130,-20.335,-19.285,2,1,1,388,384,2025-06-05T16:10:19.397149
13476,-0.3533,0.6720,0.2616,38.745,-16.065,-16.730,2,2,2,402,397,2025-06-05T16:10:19.397149
13477,-0.3982,0.6476,0.3050,31.920,-19.320,-13.895,1,1,1,387,387,2025-06-05T16:10:19.397149
13478,-0.4309,0.6534,0.3626,29.050,-26.880,-11.270,1,1,1,374,357,2025-06-05T16:10:19.397149
13479,-0.4470,0.6583,0.3909,30.205,-34.090,-10.815,1,1,1,367,370,2025-06-05T16:10:19.397149
13480,-0.4255,0.6769,0.3714,31.920,-36.120,-13.335,1,1,1,375,374,2025-06-05T16:10:19.397149
13481,-0.4050,0.6764,0.3284,31.955,-30.835,-19.110,2,1,2,394,384,2025-06-05T16:10:19.397149
13482,-0.3592,0.6632,0.2796,30.415,-23.205,-25.095,1,1,1,383,390,2025-06-05T16:10:19.398145
13483,-0.2996,0.6442,0.2694,29.365,-10.920,-28.210,1,2,2,394,348,2025-06-05T16:10:19.398145
13484,-0.3065,0.6525,0.2679,28.735,-0.490,-30.345,1,1,1,377,374,2025-06-05T16:10:19.398145
13485,-0.3396,0.6710,0.2640,28.000,6.930,-31.605,1,1,1,382,385,2025-06-05T16:10:19.398145
13486,-0.3802,0.7037,0.2752,27.755,10.465,-31.395,1,1,2,390,380,2025-06-05T16:10:19.398145
13487,-0.4036,0.7554,0.3279,27.895,11.620,-29.050,1,2,1,389,347,2025-06-05T16:10:19.398145
13488,-0.4290,0.8257,0.4114,27.300,12.180,-27.790,2,1,1,389,375,2025-06-05T16:10:19.398145
13489,-0.4255,0.8867,0.4426,27.860,13.090,-28.000,2,1,1,392,376,2025-06-05T16:10:19.398145
13490,-0.3758,0.9706,0.4270,27.335,17.570,-28.350,1,2,1,382,382,2025-06-05T16:10:19.398145
13491,-0.3118,1.0629,0.3928,23.450,23.660,-26.950,1,1,2,396,396,2025-06-05T16:10:19.398145
13492,-0.3065,1.1370,0.3694,18.235,29.715,-22.750,1,1,2,397,401,2025-06-05T16:10:19.399146
13493,-0.2913,1.1990,0.3601,14.385,32.760,-15.575,2,1,1,396,370,2025-06-05T16:10:19.399146
13494,-0.3606,1.2117,0.3816,7.595,35.840,-5.250,2,1,1,396,391,2025-06-05T16:10:19.399146
13495,-0.4675,1.2029,0.4006,2.905,33.530,0.105,1,1,1,396,396,2025-06-05T16:10:19.399146
13496,-0.5270,1.1980,0.4460,0.910,24.990,4.900,1,1,1,391,383,2025-06-05T16:10:19.399146
13497,-0.5939,1.1766,0.4621,1.050,10.395,9.310,1,1,0,350,390,2025-06-05T16:10:19.399146
13498,-0.6324,1.1673,0.4250,2.905,-7.420,12.285,1,1,1,374,392,2025-06-05T16:10:19.399146
13499,-0.5880,1.1165,0.3289,3.535,-19.250,13.545,2,2,1,379,383,2025-06-05T16:10:19.399146
13500,-0.4734,1.0394,0.2611,1.960,-24.885,15.505,1,1,1,382,352,2025-06-05T16:10:19.399146
13501,-0.3914,0.9755,0.2757,0.210,-22.820,18.445,1,1,1,389,361,2025-06-05T16:10:19.399146
13502,-0.3909,0.9223,0.3143,-1.855,-17.185,20.720,2,1,2,397,339,2025-06-05T16:10:19.400216
13503,-0.3670,0.8979,0.3494,-0.980,-10.955,19.985,1,2,1,385,363,2025-06-05T16:10:19.400216
13504,-0.3192,0.8940,0.3489,-0.350,-7.000,18.445,1,2,2,354,381,2025-06-05T16:10:19.400216
13505,-0.3035,0.8677,0.3152,0.805,-2.100,16.730,2,2,2,381,391,2025-06-05T16:10:19.416099
13506,-0.3470,0.8179,0.2718,1.435,-0.700,13.965,1,1,1,385,398,2025-06-05T16:10:19.416099
13507,-0.3850,0.7788,0.2328,2.345,-5.985,11.025,1,2,1,394,403,2025-06-05T16:10:19.417096
13508,-0.3928,0.7383,0.2054,3.255,-12.705,9.065,1,1,1,390,387,2025-06-05T16:10:19.417096
13509,-0.4016,0.6934,0.1742,2.730,-18.130,7.735,2,2,1,381,393,2025-06-05T16:10:19.417096
13510,-0.4534,0.6495,0.1869,3.290,-20.685,4.550,1,2,1,396,369,2025-06-05T16:10:19.417096
13511,-0.4241,0.6446,0.2572,4.725,-24.535,0.070,2,1,1,383,371,2025-06-05T16:10:19.417096
13512,-0.3640,0.6476,0.2923,5.460,-27.300,-3.465,1,1,1,395,391,2025-06-05T16:10:19.418091
13513,-0.3894,0.6505,0.2982,6.055,-27.615,-6.650,2,2,2,405,384,2025-06-05T16:10:19.520829
13514,-0.3880,0.6315,0.2664,6.720,-28.175,-9.135,2,2,2,402,380,2025-06-05T16:10:19.520829
13515,-0.3694,0.6285,0.2381,7.210,-28.455,-9.765,2,1,2,359,383,2025-06-05T16:10:19.521579
13516,-0.3484,0.6144,0.2235,5.810,-26.880,-9.135,1,1,1,338,393,2025-06-05T16:10:19.521579
13517,-0.3699,0.6076,0.2196,5.880,-21.910,-8.960,2,1,1,362,402,2025-06-05T16:10:19.521579
13518,-0.4026,0.6159,0.2396,5.775,-18.235,-11.410,1,2,2,373,399,2025-06-05T16:10:19.521579
13519,-0.4036,0.6490,0.2801,7.490,-18.725,-13.580,1,1,1,382,327,2025-06-05T16:10:19.521579
13520,-0.4241,0.6622,0.2977,10.710,-19.740,-15.470,2,1,2,379,364,2025-06-05T16:10:19.521579
13521,-0.4368,0.6617,0.2826,14.385,-23.905,-16.380,1,1,2,382,341,2025-06-05T16:10:19.521579
13522,-0.3938,0.6578,0.2674,16.275,-26.915,-16.065,2,1,1,387,368,2025-06-05T16:10:19.755894
13523,-0.3689,0.6217,0.2503,16.835,-27.545,-13.090,2,1,2,388,382,2025-06-05T16:10:19.755894
13524,-0.4036,0.6061,0.2538,16.695,-25.865,-10.710,2,2,1,390,348,2025-06-05T16:10:19.755894
13525,-0.4202,0.6285,0.2538,16.695,-22.435,-10.325,2,1,1,378,376,2025-06-05T16:10:19.755894
13526,-0.4055,0.6769,0.2430,16.765,-19.145,-11.095,2,1,2,396,387,2025-06-05T16:10:19.755894
13527,-0.4260,0.7379,0.1718,15.890,-17.885,-11.130,1,1,2,388,381,2025-06-05T16:10:19.755894
13528,-0.5183,0.7457,0.1035,14.000,-26.810,-11.095,1,2,1,380,380,2025-06-05T16:10:19.755894
13529,-0.6139,0.7188,0.0722,9.345,-56.525,-5.355,2,1,1,393,382,2025-06-05T16:10:19.755894
13530,-0.6827,0.7808,0.0102,10.045,-103.635,10.465,2,1,2,393,386,2025-06-05T16:10:19.755894
13531,-0.5836,1.1097,-0.1747,15.645,-154.490,30.835,1,1,1,391,375,2025-06-05T16:10:19.755894
13532,-0.3070,1.6075,-0.4665,15.575,-178.780,55.930,2,1,2,386,383,2025-06-05T16:10:19.756894
13533,0.0737,2.2843,-0.8316,13.755,-189.665,80.850,1,1,2,392,345,2025-06-05T16:10:19.756894
13534,0.6188,2.9656,-1.2093,4.970,-166.110,114.205,1,1,1,352,330,2025-06-05T16:10:19.756894
13535,0.9975,4.2583,-1.5748,0.350,-115.535,144.830,1,2,1,368,375,2025-06-05T16:10:19.756894
13536,1.4074,5.2050,-1.9593,-10.745,-46.585,161.105,1,1,1,386,378,2025-06-05T16:10:19.756894
13537,1.2307,5.8667,-1.9915,-40.705,27.160,161.000,1,2,1,381,379,2025-06-05T16:10:19.756894
13538,0.5573,5.6281,-1.8378,-84.910,52.850,150.290,2,2,2,348,379,2025-06-05T16:10:19.756894
13539,-0.2547,4.8780,-1.6006,-123.410,38.360,130.095,2,1,1,376,363,2025-06-05T16:10:19.757889
13540,-1.0228,3.8957,-1.2385,-157.570,-47.040,103.915,1,2,1,339,378,2025-06-05T16:10:19.757889
13541,-1.5377,3.1515,-0.8247,-208.285,-164.850,62.090,2,1,1,357,388,2025-06-05T16:10:19.757889
13542,-1.2366,1.5684,-0.0815,-285.110,-278.880,14.035,2,1,1,363,394,2025-06-05T16:10:19.936884
13543,-0.9892,0.1806,0.7291,-369.775,-336.630,-47.810,2,2,1,382,388,2025-06-05T16:10:19.936884
13544,0.3626,-2.0301,1.2439,-446.985,-303.380,-134.435,2,2,2,392,390,2025-06-05T16:10:19.936884
13545,1.0111,-4.1329,2.2687,-477.435,-143.430,-215.845,2,1,1,395,393,2025-06-05T16:10:19.936884
13546,0.2572,-4.7399,2.3492,-462.315,-43.995,-273.035,1,2,1,395,385,2025-06-05T16:10:19.936884
13547,-0.3074,-5.2157,1.8627,-374.220,-62.265,-285.740,1,1,2,390,355,2025-06-05T16:10:19.936884
13548,-0.1688,-5.0415,1.4669,-222.110,-165.655,-271.810,1,2,1,379,369,2025-06-05T16:10:19.936884
13549,0.2987,-4.6399,1.0077,-87.535,-197.260,-258.405,1,1,1,386,381,2025-06-05T16:10:19.936884
13550,0.8233,-3.7015,0.2743,9.380,-134.085,-247.975,0,1,1,381,377,2025-06-05T16:10:19.936884
13551,1.2625,-2.5108,0.2567,65.870,-10.745,-184.170,1,2,1,395,392,2025-06-05T16:10:19.936884
13552,0.9980,-1.1419,0.4841,73.745,80.430,-63.000,1,1,0,352,358,2025-06-05T16:10:19.936884
13553,0.2982,-0.4153,0.6403,54.390,113.225,62.370,1,1,1,358,344,2025-06-05T16:10:19.936884
13554,0.2118,-0.6383,0.7964,21.315,85.085,158.060,1,1,1,370,376,2025-06-05T16:10:19.936884
13555,0.1825,-1.1814,1.0756,19.285,68.985,193.340,2,2,1,345,381,2025-06-05T16:10:19.936884
13556,-0.1210,-1.4430,1.0707,32.760,72.345,193.270,1,2,2,375,376,2025-06-05T16:10:19.936884
13557,0.2108,-1.3288,1.1112,63.525,49.420,168.980,1,1,2,374,393,2025-06-05T16:10:20.135493
13558,0.4948,-0.9472,1.0458,88.480,60.655,131.530,1,1,1,344,385,2025-06-05T16:10:20.135493
13559,0.2874,-0.6002,0.8403,72.555,98.665,90.510,2,1,1,357,390,2025-06-05T16:10:20.135493
13560,0.0283,-0.2923,0.8340,54.880,124.705,62.055,1,2,2,339,393,2025-06-05T16:10:20.135493
13561,-0.1342,-0.1474,0.9882,49.980,124.670,57.050,1,2,2,355,401,2025-06-05T16:10:20.135493
13562,-0.3182,-0.1547,1.1053,45.780,111.895,66.605,1,1,1,379,406,2025-06-05T16:10:20.135493
13563,-0.4856,-0.0883,1.1810,42.665,101.990,78.505,1,2,1,387,402,2025-06-05T16:10:20.135493
13564,-0.4163,-0.0464,1.1585,42.735,95.130,80.255,1,2,1,384,403,2025-06-05T16:10:20.135493
13565,-0.2137,0.0630,1.0580,44.485,114.030,73.010,1,1,1,396,371,2025-06-05T16:10:20.135493
13566,-0.1854,0.3216,0.9711,46.795,132.580,61.810,1,1,1,379,379,2025-06-05T16:10:20.135493
13567,-0.3309,0.5183,0.8452,50.190,149.695,53.410,1,1,1,395,380,2025-06-05T16:10:20.135493
13568,-0.5646,0.5968,0.6915,56.175,139.685,45.325,1,1,1,382,390,2025-06-05T16:10:20.135493
13569,-0.7003,0.5690,0.5890,59.395,109.970,40.040,1,1,1,377,381,2025-06-05T16:10:20.135493
13570,-0.7374,0.4851,0.6690,63.490,78.680,32.200,1,1,0,356,389,2025-06-05T16:10:20.135493
13571,-0.5719,0.5539,0.9584,76.055,63.210,19.705,1,1,2,380,396,2025-06-05T16:10:20.136255
13572,-0.4885,0.7950,1.0228,83.720,60.235,9.240,2,1,1,345,350,2025-06-05T16:10:20.136255
13573,-0.4265,0.9340,0.8789,80.605,64.190,0.035,1,2,1,349,364,2025-06-05T16:10:20.237119
13574,-0.3880,0.9902,0.7349,68.005,64.050,3.920,1,2,1,366,374,2025-06-05T16:10:20.237119
13575,-0.4304,1.0126,0.6105,52.325,57.295,14.210,1,1,1,375,384,2025-06-05T16:10:20.237119
13576,-0.3689,0.9365,0.7408,42.840,48.895,23.345,2,2,1,379,383,2025-06-05T16:10:20.237944
13577,-0.3484,0.8608,0.9145,37.765,50.400,22.540,2,2,1,389,385,2025-06-05T16:10:20.237944
13578,-0.4153,0.8369,0.9135,43.750,54.915,12.565,1,2,2,396,349,2025-06-05T16:10:20.238183
13579,-0.3499,0.7779,0.7803,47.810,59.465,-1.715,1,1,1,384,362,2025-06-05T16:10:20.238183
13580,-0.2562,0.7574,0.5866,51.870,65.380,-7.560,1,1,1,387,380,2025-06-05T16:10:20.238183
13581,-0.3221,0.7896,0.4192,50.505,66.010,-6.090,2,2,1,399,375,2025-06-05T16:10:20.238183
13582,-0.4490,0.7828,0.4597,48.020,55.545,1.645,2,2,2,389,389,2025-06-05T16:10:20.334964
13583,-0.5134,0.7798,0.6271,50.680,33.845,17.710,2,2,1,392,396,2025-06-05T16:10:20.334964
13584,-0.5270,0.7832,0.6700,56.035,10.465,11.970,1,2,1,385,380,2025-06-05T16:10:20.334964
13585,-0.4909,0.8008,0.6222,61.425,-2.170,7.140,1,2,1,391,389,2025-06-05T16:10:20.334964
13586,-0.4270,0.8145,0.5197,61.950,-4.970,-3.290,2,1,1,387,395,2025-06-05T16:10:20.334964
13587,-0.3884,0.7935,0.4665,57.680,-4.200,-12.985,2,2,1,385,389,2025-06-05T16:10:20.335679
13588,-0.3592,0.7608,0.4602,52.885,-6.335,-15.155,1,1,1,383,398,2025-06-05T16:10:20.335679
13589,-0.3767,0.7466,0.5065,46.515,-6.615,-15.260,1,2,0,358,397,2025-06-05T16:10:20.335679
13590,-0.3558,0.7237,0.5783,44.240,-4.480,-13.230,1,1,2,340,383,2025-06-05T16:10:20.648513
13591,-0.3782,0.7623,0.6568,43.890,0.070,-10.605,2,1,1,366,395,2025-06-05T16:10:20.649446
13592,-0.3884,0.8286,0.6198,45.010,6.510,-11.025,1,2,1,380,403,2025-06-05T16:10:20.649446
13593,-0.3030,0.8589,0.5412,42.560,15.085,-13.265,2,2,1,391,388,2025-06-05T16:10:20.649446
13594,-0.2298,0.8272,0.4353,38.080,27.510,-14.140,1,1,1,383,392,2025-06-05T16:10:20.649446
13595,-0.2821,0.7505,0.3743,34.825,36.330,-13.650,1,1,1,382,396,2025-06-05T16:10:20.649446
13596,-0.3855,0.7120,0.3572,32.690,36.435,-12.075,2,1,1,385,396,2025-06-05T16:10:20.649446
13597,-0.4280,0.6978,0.3982,31.990,28.280,-9.170,1,2,1,348,392,2025-06-05T16:10:20.649446
13598,-0.5022,0.7183,0.4055,33.565,21.805,-3.675,1,1,1,373,396,2025-06-05T16:10:20.649446
13599,-0.5900,0.7252,0.3655,34.860,14.070,-2.030,2,1,1,341,391,2025-06-05T16:10:20.649446
13600,-0.5109,0.7281,0.3640,35.175,5.810,-4.550,1,1,2,356,407,2025-06-05T16:10:21.191168
13601,-0.3797,0.7496,0.3558,32.305,2.625,-5.075,1,1,2,376,407,2025-06-05T16:10:21.191168
13602,-0.3528,0.7242,0.3382,30.135,4.725,-3.675,1,1,1,380,400,2025-06-05T16:10:21.191168
13603,-0.3538,0.7383,0.3567,29.190,8.960,-3.360,1,2,1,310,356,2025-06-05T16:10:21.192165
13604,-0.3494,0.8159,0.4065,27.335,16.135,-4.515,1,1,1,344,386,2025-06-05T16:10:21.192165
13605,-0.3802,0.9028,0.4465,24.465,24.115,-7.280,1,2,1,367,383,2025-06-05T16:10:21.192165
13606,-0.4753,0.9238,0.4582,23.835,30.835,-10.780,2,1,1,380,384,2025-06-05T16:10:21.192165
13607,-0.4768,0.9213,0.4612,24.710,30.905,-14.525,1,2,2,347,385,2025-06-05T16:10:21.192165
13608,-0.3836,0.9618,0.4363,25.480,29.435,-13.615,1,1,1,373,396,2025-06-05T16:10:21.192165
13609,-0.3582,1.0287,0.3777,24.745,28.700,-0.105,1,2,1,375,380,2025-06-05T16:10:21.192165
13610,-0.3850,1.0804,0.3509,22.995,27.335,-2.555,2,1,2,386,346,2025-06-05T16:10:21.192165
13611,-0.4504,1.1351,0.3665,20.580,22.715,2.660,1,1,1,388,370,2025-06-05T16:10:21.192165
13612,-0.5261,1.1932,0.3850,9.170,14.350,6.930,2,0,0,364,378,2025-06-05T16:10:21.192165
13613,-0.6124,1.2141,0.3787,15.960,2.065,8.470,2,1,1,378,388,2025-06-05T16:10:21.192165
13614,-0.5719,1.1810,0.3933,13.195,-7.945,8.715,2,1,1,389,392,2025-06-05T16:10:21.192165
13615,-0.4856,1.1029,0.3787,9.625,-16.380,10.955,2,1,1,380,400,2025-06-05T16:10:21.192165
13616,-0.3797,1.0404,0.3362,6.895,-17.780,15.785,3,2,1,379,384,2025-06-05T16:10:21.192165
13617,-0.3055,1.0014,0.3167,4.970,-12.460,19.915,2,2,1,381,385,2025-06-05T16:10:21.192165
13618,-0.3118,0.9511,0.2899,3.780,-4.340,22.435,1,1,1,392,399,2025-06-05T16:10:21.192165
13619,-0.3362,0.9072,0.2782,4.305,0.070,23.380,1,1,1,383,397,2025-06-05T16:10:21.192165
13620,-0.3460,0.8642,0.2733,6.405,3.535,23.660,1,1,1,382,397,2025-06-05T16:10:21.192165
13621,-0.3977,0.8228,0.2464,8.680,4.865,23.485,1,2,1,388,364,2025-06-05T16:10:21.192165
13622,-0.4260,0.7910,0.2357,12.460,2.100,19.775,1,2,1,382,374,2025-06-05T16:10:21.193179
13623,-0.3982,0.7432,0.2206,13.895,-5.215,16.835,1,2,1,379,373,2025-06-05T16:10:21.193179
13624,-0.3650,0.7056,0.2079,16.065,-13.405,16.100,1,2,2,394,380,2025-06-05T16:10:21.193179
13625,-0.3318,0.6891,0.1928,18.130,-23.345,15.820,2,2,2,400,372,2025-06-05T16:10:21.193179
13626,-0.3353,0.6837,0.1967,19.075,-30.555,13.755,1,1,1,395,379,2025-06-05T16:10:21.193179
13627,-0.3231,0.6632,0.1991,20.265,-35.770,9.835,2,2,1,385,342,2025-06-05T16:10:21.193179
13628,-0.3157,0.6490,0.2255,20.965,-37.380,5.145,2,2,2,388,336,2025-06-05T16:10:21.193179
13629,-0.3001,0.6461,0.2386,21.245,-36.960,0.105,1,1,1,395,367,2025-06-05T16:10:21.193179
13630,-0.2777,0.6520,0.2362,20.825,-34.020,-6.020,1,2,2,394,372,2025-06-05T16:10:21.193179
13631,-0.2616,0.6842,0.1991,18.445,-27.860,-12.285,2,1,1,383,383,2025-06-05T16:10:21.193179
13632,-0.2669,0.6856,0.1659,14.910,-21.175,-19.565,1,1,1,378,397,2025-06-05T16:10:21.193179
13633,-0.2621,0.6749,0.2025,11.970,-16.660,-23.520,2,2,1,395,387,2025-06-05T16:10:21.193179
13634,-0.3084,0.6739,0.2342,10.150,-16.415,-23.555,1,2,1,351,389,2025-06-05T16:10:21.193179
13635,-0.3655,0.6720,0.2572,8.470,-20.335,-23.835,1,1,1,371,353,2025-06-05T16:10:21.193179
13636,-0.3938,0.6510,0.2630,8.190,-26.390,-24.045,1,2,1,336,362,2025-06-05T16:10:21.193179
13637,-0.3924,0.6803,0.2313,7.315,-34.545,-24.220,1,2,0,322,346,2025-06-05T16:10:21.194171
13638,-0.3553,0.7159,0.1874,5.635,-38.710,-24.745,2,1,1,314,329,2025-06-05T16:10:21.194171
13639,-0.3460,0.7842,0.1044,3.255,-38.605,-25.270,1,2,1,344,369,2025-06-05T16:10:21.194171
13640,-0.3104,0.8540,0.0068,-2.835,-38.850,-25.900,1,2,0,341,367,2025-06-05T16:10:21.194171
13641,-0.2718,0.8833,-0.0093,-12.495,-44.940,-19.810,1,1,2,360,346,2025-06-05T16:10:21.194171
13642,-0.2113,0.9067,0.0312,-24.325,-56.280,-9.695,1,1,2,365,357,2025-06-05T16:10:21.194171
13643,-0.2201,1.0482,0.0137,-29.785,-70.735,3.745,2,2,1,384,349,2025-06-05T16:10:21.194171
13644,-0.2962,1.3376,-0.1010,-29.610,-88.270,13.580,2,2,1,392,377,2025-06-05T16:10:21.195157
13645,-0.3567,1.8158,-0.4046,-25.935,-110.985,24.955,2,2,2,397,386,2025-06-05T16:10:21.195157
13646,-0.4280,2.4351,-0.7086,-16.485,-147.770,42.595,1,1,1,389,375,2025-06-05T16:10:21.195157
13647,-0.1435,2.9178,-0.9623,-8.855,-177.205,77.910,1,1,1,390,356,2025-06-05T16:10:21.195157
13648,0.5427,3.3755,-1.2259,-13.510,-189.700,115.395,1,1,1,396,380,2025-06-05T16:10:21.195157
13649,0.9902,4.2817,-1.5440,-30.275,-171.360,160.825,1,1,1,391,392,2025-06-05T16:10:21.195157
13650,1.2332,5.0440,-1.7363,-65.730,-110.950,184.905,1,1,1,382,397,2025-06-05T16:10:21.195157
13651,0.9457,5.5612,-1.5450,-100.905,-39.550,176.015,1,1,1,351,383,2025-06-05T16:10:21.195157
13652,0.3899,5.4485,-1.1795,-143.955,-2.065,129.640,2,1,1,375,380,2025-06-05T16:10:21.195157
13653,-0.1283,4.7668,-1.0399,-158.515,6.790,51.800,2,1,2,387,393,2025-06-05T16:10:21.195157
13654,-0.8272,3.8874,-1.1170,-190.295,-32.550,-18.305,2,1,1,389,400,2025-06-05T16:10:21.195157
13655,-1.3996,2.5322,-0.6603,-251.895,-141.225,-85.190,1,2,1,388,395,2025-06-05T16:10:21.195157
13656,-1.5738,0.6544,0.0073,-326.970,-302.085,-117.775,1,1,1,396,393,2025-06-05T16:10:21.195157
13657,-0.7466,-1.8217,1.1634,-394.625,-428.575,-132.090,2,1,1,385,399,2025-06-05T16:10:21.195157
13658,0.8589,-4.7697,2.5635,-453.565,-402.710,-188.685,1,2,1,388,393,2025-06-05T16:10:21.407519
13659,0.9008,-6.4479,3.3321,-439.005,-236.950,-255.640,2,2,1,377,379,2025-06-05T16:10:21.407519
13660,0.9799,-5.9253,2.4371,-360.920,-84.420,-300.335,1,2,1,385,378,2025-06-05T16:10:21.407519
13661,1.1209,-5.6330,1.3718,-205.520,30.730,-312.060,2,2,1,344,352,2025-06-05T16:10:21.407519
13662,0.9892,-5.1035,0.5885,-33.040,89.915,-288.890,2,1,1,370,330,2025-06-05T16:10:21.407519
13663,0.3338,-3.8328,-0.0581,71.715,101.010,-231.245,1,2,1,374,369,2025-06-05T16:10:21.407519
13664,-0.4114,-2.3990,-0.2162,73.990,50.365,-142.380,1,1,1,384,382,2025-06-05T16:10:21.407519
13665,0.0898,-0.7774,0.5958,61.250,9.835,-18.795,1,1,0,351,341,2025-06-05T16:10:21.407519
13666,0.3797,-0.2367,1.1156,58.205,65.905,88.795,2,2,1,358,364,2025-06-05T16:10:21.407519
13667,0.5710,-0.4616,1.1644,47.215,113.750,147.350,1,2,0,335,364,2025-06-05T16:10:21.407519
13668,0.3406,-0.9448,1.2283,25.130,164.150,187.425,1,1,1,364,375,2025-06-05T16:10:21.407519
13669,-0.0390,-1.2498,1.1424,45.535,176.995,195.930,1,2,1,365,376,2025-06-05T16:10:21.407519
13670,-0.4543,-1.1990,1.0848,68.250,104.055,190.540,1,1,1,372,315,2025-06-05T16:10:21.407519
13671,-0.4387,-0.9638,0.8589,99.750,12.285,185.570,1,1,2,382,351,2025-06-05T16:10:21.407519
13672,-0.4207,-0.6876,0.6002,99.575,-38.500,179.025,1,1,1,377,360,2025-06-05T16:10:21.407519
13673,-0.2425,-0.3899,0.7325,83.720,-75.565,168.420,1,1,2,391,373,2025-06-05T16:10:21.408413
13674,0.0503,-0.0942,1.2317,72.030,-64.610,151.445,1,1,1,395,387,2025-06-05T16:10:21.408413
13675,0.3479,0.1161,1.4640,62.475,9.100,132.230,2,1,2,398,390,2025-06-05T16:10:21.408413
13676,0.2342,0.1557,1.3737,37.730,111.475,106.750,2,2,1,397,382,2025-06-05T16:10:21.408413
13677,-0.0488,0.1679,1.0565,29.645,174.055,85.750,2,1,1,382,383,2025-06-05T16:10:21.569801
13678,-0.2186,0.2635,0.7730,23.275,184.030,85.120,2,2,1,394,399,2025-06-05T16:10:21.569801
13679,-0.3299,0.3772,0.6934,17.045,167.265,89.915,1,2,1,391,398,2025-06-05T16:10:21.569801
13680,-0.5378,0.4485,0.6705,22.575,135.590,88.970,1,2,2,396,402,2025-06-05T16:10:21.569801
13681,-0.5963,0.5661,0.7242,35.980,96.845,82.320,1,2,2,387,404,2025-06-05T16:10:21.569801
13682,-0.5070,0.6041,0.6891,44.065,64.610,74.410,1,1,1,392,406,2025-06-05T16:10:21.569801
13683,-0.4299,0.6559,0.6339,46.550,42.910,60.305,1,2,1,389,397,2025-06-05T16:10:21.569801
13684,-0.3972,0.6217,0.6212,50.575,34.965,40.950,1,1,2,381,390,2025-06-05T16:10:21.569801
13685,-0.2279,0.6051,0.7784,54.005,35.000,27.685,2,1,1,383,400,2025-06-05T16:10:21.569801
13686,-0.0996,0.6407,0.9052,57.050,47.005,14.385,0,1,0,315,380,2025-06-05T16:10:21.570590
13687,0.0000,0.6944,0.8525,57.435,71.190,4.025,2,1,1,345,394,2025-06-05T16:10:21.570590
13688,-0.1493,0.7945,0.7408,50.925,93.660,-2.660,1,1,0,336,383,2025-06-05T16:10:21.570590
13689,-0.2845,0.7950,0.5978,45.745,94.605,-2.975,0,1,1,320,349,2025-06-05T16:10:21.570590
13690,-0.4158,0.7745,0.5573,41.300,75.775,0.315,1,1,1,345,337,2025-06-05T16:10:21.570590
13691,-0.4270,0.7242,0.6427,38.465,51.380,3.710,1,1,1,322,328,2025-06-05T16:10:21.570590
13692,-0.3743,0.6617,0.7549,43.330,35.490,2.275,2,2,2,361,350,2025-06-05T16:10:21.777352
13693,-0.2894,0.7535,0.8667,47.425,34.755,-3.605,1,2,1,386,376,2025-06-05T16:10:21.777352
13694,-0.1581,0.8237,0.8413,48.580,41.790,-9.975,1,2,2,395,389,2025-06-05T16:10:21.777352
13695,-0.1010,0.8652,0.6637,47.390,56.245,-14.385,1,1,2,391,378,2025-06-05T16:10:21.778356
13696,-0.1830,0.8369,0.4914,40.950,65.975,-18.515,1,2,1,381,389,2025-06-05T16:10:21.778356
13697,-0.2796,0.8091,0.5056,40.390,65.660,-19.565,1,2,1,379,351,2025-06-05T16:10:21.778356
13698,-0.4172,0.8052,0.6515,44.030,54.390,-20.615,1,1,1,384,367,2025-06-05T16:10:21.778356
13699,-0.5358,0.8208,0.7183,53.060,36.960,-23.275,1,1,1,393,386,2025-06-05T16:10:21.778356
13700,-0.6285,0.8579,0.6515,59.675,20.755,-26.005,1,1,1,392,388,2025-06-05T16:10:21.778356
13701,-0.5807,0.8989,0.5246,63.210,9.310,-30.415,1,1,1,377,344,2025-06-05T16:10:21.778356
13702,-0.4836,0.8623,0.3933,61.110,-1.085,-29.085,1,1,1,372,338,2025-06-05T16:10:21.778356
13703,-0.4558,0.8501,0.4041,54.985,-7.070,-23.100,1,1,1,338,358,2025-06-05T16:10:21.778356
13704,-0.4646,0.7623,0.5627,49.455,-11.410,-16.695,1,1,0,294,370,2025-06-05T16:10:21.778356
13705,-0.4919,0.7520,0.7261,51.310,-12.950,-13.755,1,1,1,317,385,2025-06-05T16:10:21.779350
13706,-0.4602,0.7715,0.6759,55.860,-6.475,-14.805,1,2,1,352,363,2025-06-05T16:10:21.779350
13707,-0.4055,0.8286,0.5139,54.320,5.285,-20.965,1,1,1,363,378,2025-06-05T16:10:21.779350
13708,-0.2884,0.8316,0.3699,50.960,25.165,-26.040,1,1,1,373,376,2025-06-05T16:10:21.779350
13709,-0.2869,0.7857,0.2855,47.180,38.990,-26.775,2,2,2,390,361,2025-06-05T16:10:21.779350
13710,-0.3592,0.7491,0.2801,44.065,40.880,-22.610,2,1,1,379,363,2025-06-05T16:10:22.016895
13711,-0.4499,0.6871,0.3680,42.875,29.890,-15.820,1,1,2,386,381,2025-06-05T16:10:22.016895
13712,-0.4719,0.7359,0.4582,45.430,16.170,-8.610,2,2,2,392,397,2025-06-05T16:10:22.016895
13713,-0.4377,0.8442,0.4255,46.305,1.155,-2.975,1,1,2,365,383,2025-06-05T16:10:22.016895
13714,-0.5026,0.8804,0.3172,45.465,-4.165,0.700,2,2,2,378,396,2025-06-05T16:10:22.016895
13715,-0.4109,0.9272,0.3104,43.400,-4.900,-3.255,1,1,1,381,399,2025-06-05T16:10:22.016895
13716,-0.2611,0.9550,0.3523,39.830,-2.135,-1.260,0,1,1,393,392,2025-06-05T16:10:22.016895
13717,-0.2669,1.0043,0.3836,37.835,1.960,4.025,1,1,1,393,395,2025-06-05T16:10:22.016895
13718,-0.3040,1.0580,0.3782,35.385,8.680,5.495,1,1,1,349,380,2025-06-05T16:10:22.016895
13719,-0.3514,1.0731,0.4036,32.795,16.625,4.970,1,2,1,327,386,2025-06-05T16:10:22.016895
13720,-0.4270,1.1097,0.4153,31.640,20.685,3.325,1,1,1,370,388,2025-06-05T16:10:22.016895
13721,-0.5100,1.1375,0.3621,31.220,22.225,2.240,1,1,1,367,392,2025-06-05T16:10:22.016895
13722,-0.5710,1.1551,0.2791,32.865,22.120,-2.835,1,2,1,374,364,2025-06-05T16:10:22.016895
13723,-0.5197,1.1463,0.2547,32.900,17.255,-5.950,1,2,1,376,350,2025-06-05T16:10:22.016895
13724,-0.4982,1.1341,0.2445,31.990,6.685,-5.565,2,1,0,351,370,2025-06-05T16:10:22.017888
13725,-0.5046,1.0951,0.2347,30.170,-8.540,-3.640,1,2,1,368,360,2025-06-05T16:10:22.017888
13726,-0.4509,1.0253,0.2567,28.350,-22.225,-0.525,2,2,1,380,351,2025-06-05T16:10:22.017888
13727,-0.3933,0.9775,0.2738,26.145,-31.430,4.130,2,1,2,388,339,2025-06-05T16:10:22.017888
13728,-0.3348,0.9511,0.2699,22.925,-34.335,8.505,2,2,1,389,369,2025-06-05T16:10:22.017888
13729,-0.2855,0.9248,0.2484,19.285,-30.730,11.060,2,1,1,397,340,2025-06-05T16:10:22.188548
13730,-0.2489,0.8955,0.2381,14.525,-23.870,10.780,1,1,1,394,366,2025-06-05T16:10:22.188948
13731,-0.2308,0.8730,0.2372,10.955,-16.905,9.870,2,2,1,402,389,2025-06-05T16:10:22.188948
13732,-0.2542,0.8408,0.2425,7.175,-11.690,7.805,2,2,2,391,385,2025-06-05T16:10:22.188948
13733,-0.2933,0.8140,0.2323,5.600,-10.360,5.460,1,2,1,382,386,2025-06-05T16:10:22.188948
13734,-0.3182,0.8028,0.2108,5.670,-11.270,2.030,1,1,1,378,395,2025-06-05T16:10:22.188948
13735,-0.3289,0.7803,0.1737,4.830,-14.245,-0.805,1,1,1,392,397,2025-06-05T16:10:22.188948
13736,-0.3353,0.7525,0.1645,5.390,-18.340,-4.060,1,2,1,378,385,2025-06-05T16:10:22.188948
13737,-0.3016,0.7257,0.1435,5.985,-22.575,-6.650,1,1,1,381,390,2025-06-05T16:10:22.188948
13738,-0.2664,0.7052,0.1362,6.685,-24.465,-8.295,0,1,1,375,393,2025-06-05T16:10:22.188948
13739,-0.2762,0.6871,0.1459,7.595,-25.585,-9.555,1,1,1,392,404,2025-06-05T16:10:22.188948
13740,-0.3362,0.6769,0.1903,8.820,-25.830,-11.270,1,2,1,404,405,2025-06-05T16:10:22.188948
13741,-0.3489,0.6920,0.2084,12.250,-26.775,-12.390,1,2,2,395,404,2025-06-05T16:10:22.188948
13742,-0.3494,0.7174,0.1806,14.595,-26.005,-15.085,2,2,1,348,356,2025-06-05T16:10:22.188948
13743,-0.2884,0.7574,0.1562,16.625,-23.555,-19.320,1,2,1,356,377,2025-06-05T16:10:22.188948
13744,-0.2577,0.7637,0.1215,17.255,-17.955,-22.190,2,1,1,363,373,2025-06-05T16:10:22.394072
13745,-0.2230,0.7876,0.0913,16.275,-12.180,-25.130,2,2,1,374,384,2025-06-05T16:10:22.395091
13746,-0.2943,0.7906,0.0971,14.105,-7.840,-27.090,1,2,1,369,379,2025-06-05T16:10:22.395091
13747,-0.3675,0.7969,0.1288,12.740,-9.695,-28.070,1,2,1,383,351,2025-06-05T16:10:22.395091
13748,-0.4006,0.8184,0.1732,10.675,-15.085,-27.230,1,1,1,387,373,2025-06-05T16:10:22.395091
13749,-0.4314,0.8276,0.1508,7.525,-16.170,-25.585,1,2,1,395,386,2025-06-05T16:10:22.395091
13750,-0.3816,0.8896,0.1044,4.760,-15.225,-24.150,1,1,1,401,396,2025-06-05T16:10:23.086697
13751,-0.3006,0.9492,0.0127,-0.980,-11.620,-18.725,2,2,1,389,379,2025-06-05T16:10:23.087696
13752,-0.2948,0.9540,-0.0800,-7.595,-11.655,-8.715,1,2,1,389,397,2025-06-05T16:10:23.087696
13753,-0.3567,1.0097,-0.2040,-13.230,-23.695,5.845,1,1,0,348,378,2025-06-05T16:10:23.087696
13754,-0.4436,1.0707,-0.2308,-16.660,-43.540,24.255,1,1,1,366,354,2025-06-05T16:10:23.087696
13755,-0.4895,1.2912,-0.3143,-11.550,-76.055,40.005,1,1,1,331,373,2025-06-05T16:10:23.087696
13756,-0.4778,1.6055,-0.5305,-1.750,-103.180,56.280,1,1,1,324,384,2025-06-05T16:10:23.087696
13757,-0.4119,2.1614,-0.7906,4.200,-120.610,68.460,1,1,0,324,381,2025-06-05T16:10:23.088688
13758,-0.1376,2.7645,-1.0063,-0.980,-142.485,88.655,1,1,1,354,402,2025-06-05T16:10:23.088688
13759,0.3621,3.4433,-1.1473,-13.195,-154.945,122.710,1,1,1,379,396,2025-06-05T16:10:23.088688
13760,0.9887,4.2710,-1.3230,-39.025,-158.270,152.915,1,2,1,378,406,2025-06-05T16:10:23.088688
13761,1.2517,5.2343,-1.6055,-70.700,-109.305,151.480,2,2,1,396,409,2025-06-05T16:10:23.088688
13762,0.8501,5.8702,-1.6836,-109.620,-68.880,104.860,1,2,1,394,405,2025-06-05T16:10:23.088688
13763,0.0210,5.4837,-1.5299,-163.555,-35.455,49.490,2,1,2,398,392,2025-06-05T16:10:23.089689
13764,-1.2698,4.4345,-1.2044,-197.050,-88.620,-9.590,2,2,1,394,356,2025-06-05T16:10:23.089689
13765,-2.0555,3.2374,-0.9550,-264.880,-231.525,-44.170,1,1,1,388,374,2025-06-05T16:10:23.089689
13766,-1.7622,1.3830,-0.5178,-339.920,-401.310,-66.640,2,2,1,396,375,2025-06-05T16:10:23.089689
13767,-0.3504,-0.8623,0.2064,-438.655,-458.710,-98.000,1,2,1,397,373,2025-06-05T16:10:23.089689
13768,1.5026,-4.0167,1.5484,-535.010,-387.590,-160.300,1,1,1,394,393,2025-06-05T16:10:23.089689
13769,1.8036,-6.6519,3.2179,-568.610,-200.410,-215.810,2,1,1,393,392,2025-06-05T16:10:23.089689
13770,0.8682,-7.0780,3.0085,-491.820,-52.465,-276.185,2,2,1,396,401,2025-06-05T16:10:23.089689
13771,-0.1215,-6.2405,1.7012,-247.905,-17.605,-311.465,2,1,2,389,387,2025-06-05T16:10:23.089689
13772,1.3532,-4.9615,0.8120,-46.795,18.935,-297.430,1,1,2,376,344,2025-06-05T16:10:23.089689
13773,0.5309,-2.9187,-0.3299,64.470,14.175,-248.465,2,2,1,369,329,2025-06-05T16:10:23.089689
13774,0.0127,-1.9437,-0.6705,52.430,-17.535,-117.530,1,1,1,376,349,2025-06-05T16:10:23.090689
13775,-0.0473,-0.8091,0.4304,71.155,-110.985,31.570,1,2,1,356,376,2025-06-05T16:10:23.090689
13776,0.5246,-0.4050,1.1922,95.515,-56.315,146.755,2,1,1,386,356,2025-06-05T16:10:23.090689
13777,1.1741,-0.5236,1.2932,104.020,-38.465,206.115,2,2,1,388,370,2025-06-05T16:10:23.090689
13778,1.4416,-1.0111,1.2478,101.325,104.090,224.910,2,2,2,385,380,2025-06-05T16:10:23.090689
13779,0.5841,-1.4318,1.0180,104.650,240.940,200.060,1,2,2,387,372,2025-06-05T16:10:23.090689
13780,-0.0756,-1.3230,0.9687,93.030,231.665,168.595,1,1,2,379,344,2025-06-05T16:10:23.090689
13781,-0.4675,-0.9579,0.9579,123.760,123.235,152.810,2,2,1,369,358,2025-06-05T16:10:23.090689
13782,-0.4065,-0.5812,0.8520,149.870,47.670,141.260,2,2,2,378,348,2025-06-05T16:10:23.090689
13783,-0.1440,-0.1996,0.7574,115.850,20.440,126.140,1,1,1,392,382,2025-06-05T16:10:23.091684
13784,0.0673,-0.0239,0.8203,100.380,23.485,116.550,2,0,1,395,375,2025-06-05T16:10:23.091684
13785,0.0224,0.0908,0.9902,85.820,49.840,111.265,1,1,1,358,385,2025-06-05T16:10:23.091684
13786,0.0332,0.1586,1.1658,61.880,91.875,105.665,1,1,1,373,396,2025-06-05T16:10:23.091684
13787,-0.2391,0.1176,1.1653,56.525,123.760,92.120,1,2,2,378,387,2025-06-05T16:10:23.091684
13788,-0.3821,0.1806,1.0697,64.050,133.665,75.880,1,1,0,352,360,2025-06-05T16:10:23.091684
13789,-0.3406,0.3182,0.8652,64.400,134.925,64.820,2,1,1,361,368,2025-06-05T16:10:23.091684
13790,-0.2821,0.3650,0.6920,64.190,129.360,57.155,1,1,1,384,395,2025-06-05T16:10:23.092681
13791,-0.2635,0.5158,0.6276,67.130,125.545,52.115,1,2,1,398,394,2025-06-05T16:10:23.092681
13792,-0.3265,0.6139,0.5744,65.240,123.060,45.535,1,1,2,400,360,2025-06-05T16:10:23.092681
13793,-0.3884,0.6788,0.6144,65.660,113.365,37.205,1,2,1,390,377,2025-06-05T16:10:23.092681
13794,-0.4538,0.6398,0.6407,68.215,101.080,29.890,1,2,1,351,371,2025-06-05T16:10:23.092681
13795,-0.5246,0.6051,0.6246,73.990,80.150,23.765,2,2,1,360,377,2025-06-05T16:10:23.092681
13796,-0.4924,0.6144,0.5788,78.575,57.365,14.945,2,2,1,361,383,2025-06-05T16:10:23.092681
13797,-0.4470,0.6012,0.5446,79.380,40.460,7.175,2,2,1,372,382,2025-06-05T16:10:23.092681
13798,-0.3362,0.6934,0.6012,74.200,31.500,3.500,2,2,2,382,400,2025-06-05T16:10:23.092681
13799,-0.2860,0.7998,0.6647,66.640,31.885,0.770,2,1,2,395,384,2025-06-05T16:10:23.093680
13800,-0.2567,0.9394,0.6842,60.480,42.735,-2.555,1,2,2,394,388,2025-06-05T16:10:23.093935
13801,-0.2391,0.9667,0.6642,50.645,60.830,-7.455,2,2,2,397,380,2025-06-05T16:10:23.094678
13802,-0.2640,0.9872,0.5754,46.130,73.675,-12.040,1,1,1,389,384,2025-06-05T16:10:23.094678
13803,-0.3406,0.9326,0.4865,41.160,78.085,-15.400,2,1,1,383,389,2025-06-05T16:10:23.094678
13804,-0.4260,0.8745,0.4660,34.860,73.185,-15.365,1,2,1,392,350,2025-06-05T16:10:23.094678
13805,-0.4241,0.8316,0.5309,35.315,61.845,-13.265,1,2,1,383,365,2025-06-05T16:10:23.095674
13806,-0.4299,0.8589,0.5607,37.625,51.555,-12.250,2,0,1,393,383,2025-06-05T16:10:23.095674
13807,-0.4187,0.8906,0.5051,40.145,45.605,-13.755,2,1,1,382,383,2025-06-05T16:10:23.095674
13808,-0.3938,0.9184,0.4216,38.185,45.220,-16.205,1,1,1,391,384,2025-06-05T16:10:23.095674
13809,-0.4646,0.8862,0.3426,35.735,47.705,-23.170,1,1,1,376,346,2025-06-05T16:10:23.095674
13810,-0.4685,0.8286,0.3753,30.975,46.690,-29.820,2,1,1,384,363,2025-06-05T16:10:23.095674
13811,-0.4890,0.7857,0.4685,28.980,42.315,-31.920,2,2,2,377,369,2025-06-05T16:10:23.095674
13812,-0.5363,0.8247,0.5305,32.445,36.680,-32.655,1,1,2,380,342,2025-06-05T16:10:23.211796
13813,-0.5495,0.8794,0.4860,38.535,32.165,-32.725,1,1,2,378,345,2025-06-05T16:10:23.211796
13814,-0.5144,0.8979,0.4124,40.775,29.295,-29.505,2,1,1,372,374,2025-06-05T16:10:23.211796
13815,-0.4831,0.9121,0.3411,38.885,26.950,-25.235,2,2,2,392,390,2025-06-05T16:10:23.212787
13816,-0.4865,0.8691,0.3196,36.015,23.275,-22.470,2,1,1,396,383,2025-06-05T16:10:23.212787
13817,-0.4997,0.8047,0.3753,34.335,16.625,-19.180,1,1,1,352,366,2025-06-05T16:10:23.212787
13818,-0.5383,0.7657,0.4695,36.190,8.855,-15.715,1,1,1,366,389,2025-06-05T16:10:23.212787
13819,-0.5329,0.7593,0.4685,41.475,-2.730,-13.265,1,1,1,390,359,2025-06-05T16:10:23.212787
13820,-0.4660,0.7662,0.3977,46.235,-9.905,-11.375,1,2,1,390,382,2025-06-05T16:10:23.212787
13821,-0.3709,0.7779,0.3235,47.285,-8.015,-9.380,1,1,2,389,392,2025-06-05T16:10:23.212787
13822,-0.3894,0.7242,0.2391,46.095,0.105,-7.910,1,1,1,394,367,2025-06-05T16:10:23.212787
13823,-0.4451,0.7003,0.2279,45.290,5.600,-9.415,1,1,1,349,364,2025-06-05T16:10:23.212787
13824,-0.4802,0.7530,0.2928,43.995,9.065,-10.990,1,2,0,340,366,2025-06-05T16:10:23.212787
13825,-0.4802,0.7867,0.3797,42.280,7.945,-8.155,1,1,1,366,394,2025-06-05T16:10:23.212787
13826,-0.5017,0.8623,0.4519,43.050,4.445,-1.995,1,2,1,373,388,2025-06-05T16:10:23.213458
13827,-0.4885,0.9243,0.4812,44.660,-1.750,3.115,1,1,1,387,392,2025-06-05T16:10:23.213458
13828,-0.4089,0.9589,0.4329,44.485,-3.745,7.455,2,2,1,394,383,2025-06-05T16:10:23.213778
13829,-0.3309,0.9902,0.3304,41.720,-0.770,12.320,2,1,1,396,388,2025-06-05T16:10:23.213778
13830,-0.3377,1.0346,0.2455,37.625,7.385,18.725,2,1,1,388,395,2025-06-05T16:10:23.407217
13831,-0.4529,1.1039,0.2074,34.405,13.650,22.820,1,1,1,378,388,2025-06-05T16:10:23.407217
13832,-0.4246,1.1658,0.2230,32.060,15.050,24.710,1,2,2,379,386,2025-06-05T16:10:23.407217
13833,-0.4158,1.1824,0.3138,28.945,14.910,29.505,1,1,0,356,350,2025-06-05T16:10:23.407217
13834,-0.4729,1.1844,0.3972,31.010,9.555,31.710,2,1,2,331,333,2025-06-05T16:10:23.407217
13835,-0.4763,1.1888,0.3714,32.690,1.015,29.855,2,1,1,364,375,2025-06-05T16:10:23.407217
13836,-0.3899,1.1834,0.2679,30.940,-3.150,26.110,1,1,1,382,381,2025-06-05T16:10:23.407217
13837,-0.3109,1.1697,0.1576,28.910,0.105,22.365,1,2,1,385,346,2025-06-05T16:10:23.408235
13838,-0.4197,1.1112,0.0615,23.625,6.335,18.375,1,1,2,373,367,2025-06-05T16:10:23.408235
13839,-0.4699,1.0716,0.0830,24.080,8.050,11.585,1,1,1,385,370,2025-06-05T16:10:23.408235
13840,-0.3626,1.0224,0.1869,21.630,4.550,5.635,1,2,1,395,368,2025-06-05T16:10:23.408235
13841,-0.3109,0.9145,0.2474,21.420,-3.710,5.425,1,1,1,362,384,2025-06-05T16:10:23.408235
13842,-0.3523,0.9013,0.2894,20.440,-13.300,5.250,1,1,1,366,353,2025-06-05T16:10:23.408544
13843,-0.3084,0.8589,0.2367,19.740,-21.735,4.235,1,1,1,369,374,2025-06-05T16:10:23.408544
13844,-0.2557,0.8364,0.1776,16.345,-23.870,3.955,2,1,2,391,383,2025-06-05T16:10:23.408544
13845,-0.2094,0.7920,0.0654,12.950,-20.335,2.310,1,2,2,385,390,2025-06-05T16:10:23.408544
13846,-0.2440,0.7725,0.0264,7.595,-11.200,-1.575,2,2,1,386,393,2025-06-05T16:10:23.623042
13847,-0.2728,0.7374,0.0283,5.180,-5.285,-7.385,2,2,1,398,395,2025-06-05T16:10:23.623042
13848,-0.2835,0.7413,0.0893,3.325,-3.535,-11.550,2,1,1,384,397,2025-06-05T16:10:23.623042
13849,-0.3372,0.7227,0.1464,2.730,-5.845,-13.580,2,2,1,389,382,2025-06-05T16:10:23.623042
13850,-0.3416,0.7139,0.1645,2.590,-13.930,-14.560,2,1,2,385,381,2025-06-05T16:10:23.623042
13851,-0.3611,0.6856,0.1391,1.050,-24.850,-14.630,2,1,2,392,387,2025-06-05T16:10:23.623042
13852,-0.3450,0.6710,0.1259,-0.700,-33.285,-14.420,2,1,1,384,345,2025-06-05T16:10:23.623042
13853,-0.3416,0.6676,0.0688,-1.750,-36.435,-14.385,1,1,1,384,361,2025-06-05T16:10:23.623042
13854,-0.3855,0.6832,0.0098,-3.465,-34.195,-17.500,1,1,1,378,381,2025-06-05T16:10:23.623042
13855,-0.3997,0.7149,-0.0512,-6.020,-28.455,-21.630,1,1,1,391,389,2025-06-05T16:10:23.623042
13856,-0.3728,0.7579,-0.0791,-6.160,-24.360,-27.790,1,1,0,366,375,2025-06-05T16:10:23.623042
13857,-0.3894,0.7818,-0.0722,-9.030,-27.860,-29.750,2,1,1,384,397,2025-06-05T16:10:23.623042
13858,-0.5022,0.8613,-0.0986,-6.965,-52.955,-27.020,1,1,1,390,396,2025-06-05T16:10:23.623042
13859,-0.5275,1.0551,-0.1571,-2.765,-95.095,-19.845,1,1,1,379,391,2025-06-05T16:10:23.623042
13860,-0.4197,1.2605,-0.3070,-0.875,-129.885,-10.185,1,2,1,386,390,2025-06-05T16:10:23.624105
13861,-0.2386,1.5640,-0.4904,1.120,-161.210,0.735,2,1,1,394,397,2025-06-05T16:10:23.624105
13862,-0.0151,1.9081,-0.7871,-1.925,-175.980,18.935,1,2,1,382,389,2025-06-05T16:10:23.624105
13863,0.2943,2.4463,-0.9872,-5.285,-175.665,45.045,2,2,1,394,389,2025-06-05T16:10:23.624105
13864,0.5119,3.1212,-1.2381,-7.070,-158.970,76.475,2,1,1,404,384,2025-06-05T16:10:23.670774
13865,0.6417,3.8435,-1.5806,-14.490,-132.860,100.590,2,2,1,407,386,2025-06-05T16:10:23.670774
13866,0.6354,4.6521,-1.7807,-27.475,-115.220,115.745,2,1,1,395,374,2025-06-05T16:10:23.670774
13867,0.5158,5.0210,-1.6338,-62.930,-101.395,119.175,1,1,2,395,390,2025-06-05T16:10:23.670774
13868,0.3250,4.9874,-1.3010,-114.520,-100.345,109.655,1,1,1,395,395,2025-06-05T16:10:23.813745
13869,-0.0239,4.4852,-1.0663,-171.465,-103.670,77.455,2,1,2,401,393,2025-06-05T16:10:23.813745
13870,-0.4534,3.4565,-0.9135,-229.565,-131.600,29.470,1,1,2,402,393,2025-06-05T16:10:23.813745
13871,-0.7871,2.3849,-0.5988,-307.825,-188.965,-17.220,1,2,2,388,394,2025-06-05T16:10:23.813745
13872,-0.8813,0.9477,-0.1527,-369.530,-270.585,-53.900,1,1,2,397,400,2025-06-05T16:10:23.813745
13873,-0.6002,-0.6276,0.2074,-428.330,-337.085,-101.885,1,1,1,398,397,2025-06-05T16:10:23.813745
13874,0.1825,-2.4268,0.6085,-473.620,-378.630,-135.065,2,2,1,389,398,2025-06-05T16:10:23.813745
13875,1.1692,-4.0021,1.5396,-504.105,-332.220,-184.940,1,1,1,397,404,2025-06-05T16:10:23.813745
13876,0.9448,-5.6432,2.2365,-474.915,-242.690,-240.800,1,1,1,404,398,2025-06-05T16:10:23.813745
13877,0.5348,-5.9975,2.6215,-358.225,-168.210,-289.660,1,1,1,394,360,2025-06-05T16:10:23.813745
13878,0.8999,-5.3475,2.0374,-180.565,-112.805,-326.760,1,1,1,388,386,2025-06-05T16:10:23.813745
13879,1.0355,-4.2754,0.5573,-53.270,-33.180,-329.315,2,2,1,392,392,2025-06-05T16:10:23.814735
13880,0.7437,-2.5449,-0.1898,23.345,39.760,-272.440,2,1,2,387,403,2025-06-05T16:10:23.928661
13881,0.5065,-1.4357,0.0327,53.655,80.920,-147.980,1,1,1,341,379,2025-06-05T16:10:23.928661
13882,0.4441,-0.3914,0.6403,39.655,112.840,-13.650,2,2,1,325,376,2025-06-05T16:10:23.928661
13883,0.7403,-0.2206,1.4333,23.415,171.675,119.560,2,1,2,356,361,2025-06-05T16:10:23.928661
13884,0.9301,-0.7100,1.2888,51.695,228.550,195.160,2,1,1,368,382,2025-06-05T16:10:23.928661
13885,0.1230,-1.2220,1.2522,61.215,309.225,208.285,2,1,2,392,384,2025-06-05T16:10:23.928661
13886,-0.8794,-1.2922,1.0024,60.725,288.365,201.565,1,2,1,391,352,2025-06-05T16:10:23.928661
13887,-0.9892,-1.1917,0.9789,101.605,156.625,203.735,1,1,1,381,377,2025-06-05T16:10:23.928661
13888,-0.7222,-0.9521,0.8789,133.245,21.700,202.720,1,1,1,380,394,2025-06-05T16:10:23.928661
13889,-0.3304,-0.7154,0.8706,132.405,-29.610,191.450,2,1,1,392,370,2025-06-05T16:10:24.027860
13890,0.0610,-0.4968,1.0121,123.235,-8.260,166.285,1,2,1,377,373,2025-06-05T16:10:24.027860
13891,0.2445,-0.1503,1.0263,120.330,31.500,143.815,2,1,2,377,387,2025-06-05T16:10:24.028881
13892,0.0854,0.0342,0.9301,115.535,77.420,133.035,2,2,1,345,389,2025-06-05T16:10:24.028881
13893,-0.2059,0.1298,0.9135,98.315,107.835,125.615,2,2,1,368,393,2025-06-05T16:10:24.028881
13894,-0.4553,0.1537,0.9052,86.975,110.495,117.600,1,1,1,368,397,2025-06-05T16:10:24.029412
13895,-0.4543,0.1791,0.8667,84.700,92.960,110.530,2,2,1,379,402,2025-06-05T16:10:24.029412
13896,-0.2987,0.2401,0.8198,82.530,91.140,98.875,2,2,1,373,399,2025-06-05T16:10:24.029412
13897,-0.2625,0.4099,0.7042,80.045,104.335,81.865,1,1,1,392,404,2025-06-05T16:10:24.263289
13898,-0.1923,0.5475,0.5470,78.015,118.335,63.840,1,2,1,397,391,2025-06-05T16:10:24.263289
13899,-0.1537,0.6705,0.4826,73.045,130.060,52.185,2,1,2,396,399,2025-06-05T16:10:24.263289
13900,-0.2557,0.6891,0.5070,69.720,135.065,46.375,2,2,1,392,391,2025-06-05T16:10:25.243396
13901,-0.3553,0.6915,0.5109,74.690,131.950,41.475,1,1,2,393,395,2025-06-05T16:10:25.244396
13902,-0.4958,0.7398,0.4529,78.680,120.890,31.360,1,1,1,385,381,2025-06-05T16:10:25.244396
13903,-0.5197,0.7579,0.3787,75.565,100.765,19.040,2,2,1,386,317,2025-06-05T16:10:25.244396
13904,-0.5153,0.7681,0.2796,69.650,79.275,9.590,1,2,1,378,349,2025-06-05T16:10:25.244396
13905,-0.4812,0.7505,0.3509,57.330,57.400,5.110,1,1,1,385,371,2025-06-05T16:10:25.244396
13906,-0.3982,0.8794,0.5285,49.035,42.455,4.900,1,1,2,389,383,2025-06-05T16:10:25.244396
13907,-0.3714,0.9745,0.6188,46.235,27.965,5.530,2,2,1,380,377,2025-06-05T16:10:25.244396
13908,-0.2523,1.0204,0.3948,45.605,26.600,5.530,1,1,1,389,384,2025-06-05T16:10:25.244396
13909,-0.2147,1.0277,0.3353,42.805,39.515,0.700,1,1,1,390,395,2025-06-05T16:10:25.244396
13910,-0.1649,1.0311,0.1840,37.870,54.180,-5.460,2,1,1,395,382,2025-06-05T16:10:25.244396
13911,-0.2123,1.0287,0.2308,29.155,61.810,-8.820,1,1,1,394,385,2025-06-05T16:10:25.245393
13912,-0.3192,0.9936,0.4324,21.700,61.775,-9.485,1,2,1,389,382,2025-06-05T16:10:25.245393
13913,-0.4099,0.9858,0.6427,22.470,49.840,-6.825,1,2,1,345,391,2025-06-05T16:10:25.245393
13914,-0.3831,0.9975,0.6905,25.655,40.635,-3.465,2,2,1,369,395,2025-06-05T16:10:25.245393
13915,-0.3436,1.0043,0.5632,27.370,42.280,-2.450,2,1,1,370,391,2025-06-05T16:10:25.245393
13916,-0.3680,0.9726,0.3948,28.805,51.380,-10.850,1,2,1,380,393,2025-06-05T16:10:25.245977
13917,-0.3972,0.9135,0.2669,28.490,61.285,-20.230,1,1,1,372,400,2025-06-05T16:10:25.245977
13918,-0.4714,0.8755,0.2474,28.210,58.975,-24.255,1,1,1,379,386,2025-06-05T16:10:25.245977
13919,-0.5758,0.8272,0.4119,28.315,42.490,-21.875,1,1,1,377,385,2025-06-05T16:10:25.245977
13920,-0.6486,0.8159,0.5627,33.985,19.705,-14.280,2,2,2,345,373,2025-06-05T16:10:25.246390
13921,-0.5734,0.8179,0.6515,42.595,-5.180,-5.460,1,2,2,377,394,2025-06-05T16:10:25.246390
13922,-0.3943,0.8218,0.6193,47.425,-14.840,3.360,2,1,1,375,393,2025-06-05T16:10:25.246390
13923,-0.4026,0.8018,0.4734,46.060,-9.800,6.020,1,2,1,370,398,2025-06-05T16:10:25.246390
13924,-0.4651,0.6407,0.3689,45.010,0.455,-2.520,1,1,1,378,391,2025-06-05T16:10:25.246390
13925,-0.4182,0.7213,0.3299,45.465,10.535,-13.755,1,1,1,372,367,2025-06-05T16:10:25.246390
13926,-0.4294,0.6939,0.3933,43.785,19.110,-18.130,1,1,1,375,381,2025-06-05T16:10:25.246390
13927,-0.5109,0.6403,0.4836,47.635,19.670,-18.060,1,1,0,349,378,2025-06-05T16:10:25.246390
13928,-0.5700,0.6154,0.5075,56.560,13.475,-16.730,2,1,1,369,385,2025-06-05T16:10:25.246390
13929,-0.5388,0.6627,0.4880,61.915,3.990,-14.035,1,1,1,380,401,2025-06-05T16:10:25.246390
13930,-0.5031,0.7169,0.4128,62.195,-3.080,-7.595,1,1,1,394,404,2025-06-05T16:10:25.246390
13931,-0.4831,0.8164,0.3475,57.190,-3.465,-3.640,1,1,1,391,388,2025-06-05T16:10:25.246390
13932,-0.5114,0.8789,0.2918,51.695,2.660,-2.555,2,1,2,381,351,2025-06-05T16:10:25.247387
13933,-0.5563,0.9370,0.2762,46.375,5.320,-5.950,2,1,1,341,372,2025-06-05T16:10:25.247387
13934,-0.5065,1.0277,0.3318,43.435,6.510,-8.260,1,2,1,365,378,2025-06-05T16:10:25.247387
13935,-0.5144,1.0565,0.3401,41.405,3.780,-8.400,1,2,2,383,394,2025-06-05T16:10:25.247387
13936,-0.5065,1.1014,0.2928,40.880,-0.315,-7.385,2,2,2,349,376,2025-06-05T16:10:25.247387
13937,-0.4738,1.1326,0.2284,38.150,-3.115,-5.355,1,1,2,375,389,2025-06-05T16:10:25.247387
13938,-0.4216,1.1165,0.1820,32.130,-5.600,-0.770,1,2,1,384,399,2025-06-05T16:10:25.247387
13939,-0.3797,1.1107,0.1830,24.290,-6.510,4.165,1,2,1,390,390,2025-06-05T16:10:25.247387
13940,-0.4285,1.0736,0.2201,16.940,-7.210,7.595,1,2,1,390,398,2025-06-05T16:10:25.247387
13941,-0.3904,1.0775,0.2586,12.250,-9.975,7.560,2,0,1,382,391,2025-06-05T16:10:25.247387
13942,-0.3787,1.0985,0.2869,10.010,-12.495,4.830,1,1,1,388,367,2025-06-05T16:10:25.247387
13943,-0.3719,1.1161,0.2406,7.945,-12.950,0.035,1,1,0,341,375,2025-06-05T16:10:25.247387
13944,-0.3479,1.1136,0.1313,7.350,-11.515,-5.495,1,1,1,328,346,2025-06-05T16:10:25.248384
13945,-0.3109,1.0824,0.0488,4.830,-7.525,-11.375,1,1,1,346,379,2025-06-05T16:10:25.248384
13946,-0.3587,1.0170,0.0000,3.570,-4.690,-15.995,2,1,1,375,382,2025-06-05T16:10:25.248384
13947,-0.4060,0.9648,0.0537,3.675,-7.175,-18.340,2,2,1,390,355,2025-06-05T16:10:25.248384
13948,-0.4734,0.9155,0.1552,5.180,-17.885,-19.145,1,1,2,395,361,2025-06-05T16:10:25.248384
13949,-0.5339,0.8764,0.2274,8.750,-32.340,-19.390,1,1,2,397,382,2025-06-05T16:10:25.248384
13950,-0.5266,0.8594,0.2362,11.620,-46.305,-20.860,1,1,2,402,385,2025-06-05T16:10:25.248384
13951,-0.4114,0.8369,0.1903,12.285,-56.665,-22.120,2,1,1,406,397,2025-06-05T16:10:25.248384
13952,-0.2279,0.8037,0.0869,12.390,-57.960,-19.635,2,1,1,402,354,2025-06-05T16:10:25.248384
13953,-0.1181,0.7379,0.0151,10.500,-47.565,-16.450,2,2,1,393,379,2025-06-05T16:10:25.248384
13954,-0.1078,0.7149,0.0434,6.160,-29.820,-14.770,2,1,2,389,393,2025-06-05T16:10:25.248384
13955,-0.1771,0.6886,0.1371,4.760,-14.490,-16.275,1,2,1,380,366,2025-06-05T16:10:25.248384
13956,-0.2489,0.6949,0.1908,4.095,-2.975,-19.740,2,2,1,391,377,2025-06-05T16:10:25.248384
13957,-0.3143,0.7266,0.1942,3.955,-0.070,-24.360,1,2,1,389,374,2025-06-05T16:10:25.248384
13958,-0.4309,0.7139,0.1566,3.150,-2.240,-29.260,1,1,2,396,342,2025-06-05T16:10:25.249379
13959,-0.4582,0.7110,0.1039,2.625,-13.405,-31.990,2,1,2,389,360,2025-06-05T16:10:25.249379
13960,-0.4372,0.7237,0.0464,2.625,-30.730,-31.885,1,2,1,393,362,2025-06-05T16:10:25.249379
13961,-0.3655,0.7271,-0.0410,1.085,-46.550,-27.405,1,1,2,392,379,2025-06-05T16:10:25.249379
13962,-0.3074,0.7759,-0.1518,0.175,-52.850,-23.030,1,1,1,392,378,2025-06-05T16:10:25.249379
13963,-0.3314,0.8311,-0.2069,-4.795,-51.415,-23.205,1,2,1,385,373,2025-06-05T16:10:25.249379
13964,-0.3489,0.9160,-0.1854,-9.100,-48.895,-24.185,2,1,1,384,385,2025-06-05T16:10:25.249379
13965,-0.3875,0.9731,-0.1420,-12.075,-49.840,-23.835,1,1,1,379,390,2025-06-05T16:10:25.249379
