SeqNum,AccX,AccY,AccZ,GyroX,GyroY,GyroZ,Flex,Force1,Force2,Force3,Force4,TimestampReception
1996,-0.5407,0.0927,0.8730,0.980,-1.610,-2.415,0.00,0.0184,0.0254,0.0100,0.0087,2025-06-11T08:05:51.613205
1997,-0.3982,0.4909,1.1341,-100.835,61.985,-81.585,0.00,0.0184,0.0254,0.0100,0.0174,2025-06-11T08:05:51.613205
1998,0.1220,0.3406,1.0834,-125.755,104.125,-72.065,0.00,0.0184,0.0508,0.0100,0.0087,2025-06-11T08:05:51.613205
1999,-0.2796,0.0376,1.9818,2.940,66.255,-33.635,0.00,0.0184,0.0508,0.0100,0.0174,2025-06-11T08:05:51.613205
2000,-0.6788,-0.6388,2.1101,156.345,90.020,53.795,0.01,0.0368,0.0508,0.0200,0.0087,2025-06-11T08:05:51.613205
2001,-0.5597,-0.1532,0.8296,89.705,122.010,32.200,0.01,0.0184,0.0508,0.0200,0.0087,2025-06-11T08:05:51.613205
2002,-0.7896,0.3172,-0.5685,244.860,174.965,68.040,0.00,0.0184,0.0254,0.0200,0.0087,2025-06-11T08:05:51.613205
2003,-0.5158,-0.0712,-0.3040,103.355,62.720,64.050,0.00,0.0184,0.0254,0.0100,0.0087,2025-06-11T08:05:51.613205
2004,-0.4387,-0.5719,0.6588,-60.025,-43.365,75.740,0.00,0.0184,0.0508,0.0100,0.0087,2025-06-11T08:05:51.614180
2005,-0.4011,-0.6637,1.0453,-4.480,-154.665,44.590,0.00,0.0368,0.0254,0.0100,0.0087,2025-06-11T08:05:51.614180
2006,-0.3250,-0.5529,0.9531,23.660,-77.770,13.335,0.00,0.0368,0.0254,0.0200,0.0087,2025-06-11T08:05:51.614180
2007,-0.4943,-0.2664,0.8955,-7.140,16.940,5.670,0.00,0.0184,0.0254,0.0100,0.0087,2025-06-11T08:05:51.614180
2008,-0.5217,-0.2616,0.9145,10.675,19.775,2.975,0.01,0.0184,0.0254,0.0100,0.0087,2025-06-11T08:05:51.614180
2009,-0.5295,-0.3026,0.8115,1.015,-4.935,-8.225,0.00,0.0184,0.0254,0.0100,0.0087,2025-06-11T08:05:51.614180
2010,-0.4958,-0.3719,0.7325,-26.600,-37.695,-5.250,0.00,0.0184,0.0254,0.0100,0.0087,2025-06-11T08:05:51.614180
2011,-0.5017,-0.2591,0.6949,5.285,-20.335,-2.170,0.00,0.0184,0.0254,0.0200,0.0087,2025-06-11T08:05:51.835821
2012,-0.5187,-0.3460,1.0453,-3.990,2.905,9.135,0.01,0.0184,0.0508,0.0200,0.0174,2025-06-11T08:05:51.835821
2013,-0.5666,-0.3006,0.9287,5.250,10.850,8.890,0.01,0.0184,0.0254,0.0200,0.0087,2025-06-11T08:05:51.835821
2014,-1.1736,0.0439,1.5543,78.925,70.105,72.205,0.01,0.0184,0.0508,0.0100,0.0087,2025-06-11T08:05:51.835821
2015,-0.8843,-0.3865,0.6276,108.885,162.575,71.330,0.01,0.0368,0.0508,0.0200,0.0087,2025-06-11T08:05:51.835821
2016,0.7847,-1.1273,-0.0917,-60.655,40.705,3.115,0.00,0.0184,0.0254,0.0100,0.0087,2025-06-11T08:05:51.835821
2017,-0.3436,-0.2884,1.1810,91.735,31.325,-22.295,0.00,0.0184,0.0508,0.0100,0.0087,2025-06-11T08:05:51.835821
2018,-0.6320,-0.4343,1.8710,61.670,-5.425,-11.690,0.01,0.0184,0.0254,0.0100,0.0174,2025-06-11T08:05:51.835821
2019,-0.7720,-0.3040,2.1711,126.385,-99.120,21.490,0.00,0.0184,0.0254,0.0100,0.0087,2025-06-11T08:05:51.835821
2020,-0.9209,-0.1254,2.2316,205.415,-213.360,74.900,0.00,0.0184,0.0254,0.0100,0.0087,2025-06-11T08:05:51.835821
2021,-1.2322,-0.1576,1.7841,268.590,-360.185,124.180,0.00,0.0184,0.0508,0.0100,0.0087,2025-06-11T08:05:51.835821
2022,-1.1039,0.4709,1.6216,414.610,-463.925,133.035,0.00,0.0184,0.0254,0.0100,0.0087,2025-06-11T08:05:51.835821
2023,-1.3620,0.4509,0.8755,491.085,-610.785,275.555,0.00,0.0368,0.0254,0.0100,0.0087,2025-06-11T08:05:51.835821
2024,-0.9809,-0.4939,0.3875,388.465,-679.455,260.015,0.00,0.0000,0.0254,0.0200,0.0087,2025-06-11T08:05:51.835821
2025,-0.9658,-0.2865,0.7476,371.770,-757.330,251.335,0.00,0.0184,0.0254,0.0100,0.0087,2025-06-11T08:05:51.835821
2026,-0.4333,-0.3201,0.5144,286.265,-675.990,233.275,0.00,0.0184,0.0508,0.0100,0.0174,2025-06-11T08:05:51.835821
2027,-0.1186,0.0283,0.3650,274.505,-576.975,239.050,0.01,0.0184,0.0508,0.0200,0.0087,2025-06-11T08:05:52.118689
2028,-0.1913,-0.0449,0.8725,286.335,-505.400,213.395,0.01,0.0184,0.0254,0.0200,0.0087,2025-06-11T08:05:52.118689
2029,-0.2713,-0.0825,0.4504,208.915,-494.200,170.625,0.00,0.0184,0.0508,0.0200,0.0087,2025-06-11T08:05:52.118689
2030,0.2103,0.0293,0.1225,72.975,-434.455,84.350,0.00,0.0184,0.0254,0.0200,0.0087,2025-06-11T08:05:52.118689
2031,0.7852,-0.1771,-1.8808,-114.520,-343.665,22.470,0.01,0.0184,0.0508,0.0200,0.0174,2025-06-11T08:05:52.118689
2032,1.9134,0.3387,-2.5566,-89.145,-165.025,10.010,0.00,0.0184,0.0254,0.0200,0.0087,2025-06-11T08:05:52.118689
2033,1.0599,0.0649,-2.9861,-136.465,291.900,-45.815,0.00,0.0368,0.0254,0.0100,0.0087,2025-06-11T08:05:52.118689
2034,-0.0883,0.1254,-1.8881,-201.530,741.580,-154.700,0.00,0.0184,0.0508,0.0200,0.0087,2025-06-11T08:05:52.118689
2035,-0.1913,-0.3377,-2.0969,-277.375,971.670,-200.340,0.00,0.0184,0.0508,0.0100,0.0087,2025-06-11T08:05:52.119698
2036,-2.1482,-1.1234,-0.4460,-431.690,1146.740,-225.470,0.00,0.0184,0.0508,0.0200,0.0087,2025-06-11T08:05:52.119698
2037,-2.5254,-1.1239,0.4978,-425.845,1107.085,-71.995,0.01,0.0184,0.0508,0.0100,0.0087,2025-06-11T08:05:52.119698
2038,-3.2052,-0.0156,1.5392,-164.045,900.410,24.710,0.00,0.0184,0.0254,0.0100,0.0174,2025-06-11T08:05:52.119698
2039,-3.6205,0.6437,4.1338,-122.185,530.530,61.985,0.00,0.0184,0.0254,0.0200,0.0087,2025-06-11T08:05:52.119698
2040,-2.0032,-0.7945,6.6719,-9.415,251.860,-45.850,0.00,0.0184,0.0254,0.0100,0.0174,2025-06-11T08:05:52.119698
2041,-0.7788,0.7569,5.5739,112.385,-203.000,-82.425,0.01,0.0184,0.0254,0.0200,0.0174,2025-06-11T08:05:52.221963
2042,-1.0277,0.6100,4.1724,-18.445,-566.475,-46.515,0.00,0.0368,0.0508,0.0200,0.0087,2025-06-11T08:05:52.221963
2043,-1.6485,0.5876,2.3922,274.890,-716.695,32.340,0.01,0.0368,0.0254,0.0100,0.0087,2025-06-11T08:05:52.221963
2044,-2.2321,0.2230,1.0902,602.595,-823.270,194.145,0.00,0.0184,0.0254,0.0100,0.0174,2025-06-11T08:05:52.221963
2045,-1.8315,-0.0922,-0.9897,552.300,-719.845,218.295,0.00,0.0368,0.0254,0.0200,0.0087,2025-06-11T08:05:52.221963
2046,-1.3132,-0.0312,-0.6193,195.580,-746.900,70.805,0.00,0.0184,0.0254,0.0100,0.0087,2025-06-11T08:05:52.221963
2047,0.0381,-0.1205,-2.9217,-4.060,-880.670,162.400,0.01,0.0184,0.0254,0.0200,0.0087,2025-06-11T08:05:52.221963
2048,0.5226,-0.0449,-3.5292,-182.735,-777.490,393.855,0.00,0.0368,0.0508,0.0100,0.0087,2025-06-11T08:05:52.221963
2049,1.1775,-0.6974,-2.7748,-274.715,-59.570,183.820,0.00,0.0184,0.0254,0.0100,0.0000,2025-06-11T08:05:52.223029
2050,0.6393,-0.9531,-1.7192,-148.610,571.515,-117.355,0.00,0.0000,0.0254,0.0100,0.0087,2025-06-11T08:05:52.223029
2051,0.5583,-0.9062,-0.8882,-217.700,926.905,-289.800,0.00,0.0184,0.0254,0.0100,0.0087,2025-06-11T08:05:52.223029
2052,0.0590,-0.1454,0.0132,-429.380,1030.855,-285.845,0.00,0.0184,0.0508,0.0100,0.0174,2025-06-11T08:05:52.223029
2053,-1.9725,0.0766,-0.0693,-480.690,1072.295,-73.045,0.00,0.0000,0.0254,0.0200,0.0087,2025-06-11T08:05:52.223029
2054,-1.3366,0.6276,0.7637,-254.695,836.640,154.630,0.00,0.0184,0.0254,0.0100,0.0087,2025-06-11T08:05:52.223029
2055,-2.1135,2.2570,1.7690,132.125,575.750,143.955,0.00,0.0184,0.0254,0.0100,0.0087,2025-06-11T08:05:52.223029
2056,-3.1905,1.0287,4.3900,171.010,329.385,235.130,0.00,0.0368,0.0254,0.0100,0.0087,2025-06-11T08:05:52.462875
2057,-1.2444,-3.3155,7.7377,-173.495,-66.990,22.750,0.00,0.0184,0.0254,0.0100,0.0087,2025-06-11T08:05:52.463901
2058,-0.5612,-1.2888,1.5274,60.130,-213.150,-288.400,0.01,0.0184,0.0254,0.0200,0.0087,2025-06-11T08:05:52.463901
2059,-1.0033,0.5470,1.7514,-250.495,-476.700,-147.525,0.01,0.0368,0.0508,0.0100,0.0087,2025-06-11T08:05:52.463901
2060,-0.5734,-0.0322,0.5656,-226.065,-420.805,-173.180,0.01,0.0368,0.0254,0.0100,0.0087,2025-06-11T08:05:52.463901
2061,-0.2245,0.2791,0.7691,37.450,-313.215,-122.570,0.00,0.0184,0.0508,0.0200,0.0087,2025-06-11T08:05:52.463901
2062,-0.2699,0.5173,0.2733,24.045,-94.570,-26.775,0.00,0.0184,0.0508,0.0200,0.0087,2025-06-11T08:05:52.463901
2063,0.0664,0.3055,0.0503,21.210,48.300,-6.265,0.00,0.0368,0.0508,0.0100,0.0087,2025-06-11T08:05:52.463901
2064,-0.0420,0.3148,-0.0181,37.765,83.125,4.655,0.00,0.0184,0.0254,0.0200,0.0087,2025-06-11T08:05:52.463901
2065,-0.0717,0.2943,0.1942,-34.160,90.580,24.535,0.00,0.0184,0.0508,0.0100,0.0000,2025-06-11T08:05:52.463901
2066,-0.0820,0.2757,0.5592,-51.415,90.790,34.895,0.00,0.0184,0.0254,0.0100,0.0087,2025-06-11T08:05:52.463901
2067,-0.1781,0.2015,0.9618,-37.030,95.480,41.405,0.00,0.0184,0.0508,0.0100,0.0000,2025-06-11T08:05:52.463901
2068,-0.2933,0.0107,1.2249,-35.175,87.920,37.730,0.00,0.0184,0.0254,0.0200,0.0174,2025-06-11T08:05:52.463901
2069,-0.2733,-0.0600,1.4713,27.895,63.770,23.870,0.00,0.0184,0.0508,0.0100,0.0174,2025-06-11T08:05:52.463901
2070,-0.2596,-0.1288,1.6836,35.875,28.105,15.820,0.00,0.0184,0.0254,0.0100,0.0087,2025-06-11T08:05:52.463901
2071,-0.3177,-0.0971,1.5455,3.885,-28.000,6.475,0.01,0.0184,0.0254,0.0200,0.0087,2025-06-11T08:05:52.463901
2072,-0.3084,-0.0830,1.3820,-6.720,-74.235,-8.890,0.00,0.0368,0.0508,0.0200,0.0087,2025-06-11T08:05:52.464940
2073,-0.3104,-0.0342,1.1497,-12.005,-101.325,-20.860,0.01,0.0184,0.0508,0.0200,0.0087,2025-06-11T08:05:52.659133
2074,-0.2694,-0.0205,0.9555,-2.275,-89.145,-24.570,0.00,0.0368,0.0254,0.0200,0.0087,2025-06-11T08:05:52.659133
2075,-0.2001,0.0708,0.8247,7.385,-41.160,-18.305,0.01,0.0368,0.0508,0.0100,0.0174,2025-06-11T08:05:52.659133
2076,-0.1879,0.1220,0.7037,11.970,-8.155,-6.930,0.00,0.0184,0.0508,0.0100,0.0087,2025-06-11T08:05:52.660133
2077,-0.1884,0.1152,0.6856,5.985,12.040,1.435,0.01,0.0184,0.0508,0.0100,0.0087,2025-06-11T08:05:52.660133
2078,-0.1859,0.1191,0.7793,-1.855,29.540,6.545,0.01,0.0184,0.0254,0.0200,0.0087,2025-06-11T08:05:52.660133
2079,-0.2011,0.0737,0.9389,-3.010,44.275,12.320,0.00,0.0184,0.0254,0.0100,0.0087,2025-06-11T08:05:52.660133
2080,-0.2079,0.0522,1.0419,5.950,47.600,14.630,0.00,0.0184,0.0254,0.0200,0.0087,2025-06-11T08:05:52.660133
2081,-0.2318,0.0395,1.1385,6.930,37.415,13.965,0.00,0.0368,0.0254,0.0100,0.0087,2025-06-11T08:05:52.660133
2082,-0.2303,0.0200,1.1570,4.515,17.220,6.825,0.00,0.0184,0.0254,0.0100,0.0087,2025-06-11T08:05:52.660133
2083,-0.2294,0.0044,1.1561,1.435,-6.545,2.030,0.00,0.0184,0.0254,0.0100,0.0087,2025-06-11T08:05:52.660133
2084,-0.2133,0.0259,1.1161,2.800,-21.420,-1.155,0.01,0.0184,0.0254,0.0100,0.0087,2025-06-11T08:05:52.660133
2085,-0.2225,0.0298,1.0302,4.270,-30.590,-0.525,0.01,0.0368,0.0254,0.0100,0.0087,2025-06-11T08:05:52.660133
2086,-0.2289,0.0224,0.9511,0.245,-29.155,-2.450,0.01,0.0184,0.0508,0.0100,0.0087,2025-06-11T08:05:52.660133
2087,-0.2250,0.0444,0.9248,-0.665,-21.665,-2.765,0.00,0.0184,0.0508,0.0200,0.0087,2025-06-11T08:05:52.841305
2088,-0.2255,0.0542,0.9277,-1.610,-4.095,-0.385,0.01,0.0368,0.0508,0.0200,0.0174,2025-06-11T08:05:52.841305
2089,-0.2401,0.0483,0.9370,1.680,9.870,2.485,0.00,0.0368,0.0254,0.0200,0.0087,2025-06-11T08:05:52.841305
2090,-0.2440,0.0532,0.9809,1.015,19.250,3.780,0.01,0.0368,0.0508,0.0200,0.0174,2025-06-11T08:05:52.841305
2091,-0.2596,0.0464,1.0209,-1.540,19.285,4.095,0.00,0.0184,0.0508,0.0200,0.0087,2025-06-11T08:05:52.841305
2092,-0.2567,0.0283,1.0429,-1.925,15.995,2.065,0.00,0.0184,0.0254,0.0100,0.0087,2025-06-11T08:05:52.841305
2093,-0.2494,0.0244,1.0536,-4.865,10.255,0.945,0.00,0.0368,0.0254,0.0100,0.0087,2025-06-11T08:05:52.841305
2094,-0.2464,0.0410,1.0468,-3.850,8.120,-0.735,0.00,0.0184,0.0254,0.0100,0.0087,2025-06-11T08:05:52.841305
2095,-0.2489,0.0493,1.0228,-3.080,9.765,-1.610,0.00,0.0184,0.0254,0.0200,0.0087,2025-06-11T08:05:52.841305
2096,-0.2528,0.0630,0.9955,-0.875,14.000,-1.890,0.01,0.0184,0.0254,0.0100,0.0087,2025-06-11T08:05:52.841305
2097,-0.2791,0.0683,0.9858,1.155,20.475,0.525,0.00,0.0184,0.0254,0.0200,0.0087,2025-06-11T08:05:52.841305
2098,-0.3226,0.0566,0.9809,1.715,29.890,3.290,0.00,0.0184,0.0508,0.0100,0.0087,2025-06-11T08:05:52.841305
2099,-0.3675,0.0342,1.0209,3.885,39.410,5.530,0.01,0.0184,0.0254,0.0100,0.0087,2025-06-11T08:05:52.841305
2100,-0.4377,0.0259,1.1263,8.715,48.160,8.680,0.00,0.0368,0.0254,0.0100,0.0087,2025-06-11T08:05:52.841305
2101,-0.4607,0.1391,1.5704,40.530,30.835,11.725,0.00,0.0184,0.0508,0.0100,0.0087,2025-06-11T08:05:52.841305
2102,-0.4929,0.3377,2.2233,134.855,-37.100,74.725,0.01,0.0184,0.0508,0.0100,0.0174,2025-06-11T08:05:53.037070
2103,-0.6237,0.5314,2.8485,235.900,-179.655,181.965,0.00,0.0368,0.0254,0.0200,0.0087,2025-06-11T08:05:53.037070
2104,-0.7193,0.6315,3.0554,347.585,-359.625,328.720,0.00,0.0184,0.0254,0.0100,0.0174,2025-06-11T08:05:53.037070
2105,-1.5992,0.2489,2.4293,399.525,-507.640,431.235,0.01,0.0184,0.0508,0.0100,0.0087,2025-06-11T08:05:53.037070
2106,-2.3126,-0.2904,2.6391,418.250,-517.860,355.390,0.01,0.0368,0.0254,0.0100,0.0174,2025-06-11T08:05:53.037070
2107,-1.2405,-0.3797,0.2533,274.715,-599.515,191.240,0.00,0.0184,0.0254,0.0100,0.0087,2025-06-11T08:05:53.037070
2108,-1.3518,-0.3123,0.5183,64.400,-604.485,129.115,0.00,0.0184,0.0508,0.0100,0.0087,2025-06-11T08:05:53.037070
2109,-0.4592,0.0024,-1.4611,245.700,-677.530,194.740,0.01,0.0368,0.0254,0.0200,0.0087,2025-06-11T08:05:53.037070
2110,-0.3855,0.3548,-1.5972,-60.515,-692.055,57.015,0.00,0.0184,0.0254,0.0100,0.0087,2025-06-11T08:05:53.037070
2111,0.7325,0.4421,-1.9564,-235.585,-646.555,-0.070,0.00,0.0184,0.0508,0.0100,0.0174,2025-06-11T08:05:53.037070
2112,1.0204,1.0131,-3.3033,-245.280,-526.680,147.910,0.01,0.0184,0.0254,0.0200,0.0087,2025-06-11T08:05:53.037070
2113,0.8286,-1.0741,-3.6932,-253.890,-58.765,255.640,0.00,0.0184,0.0254,0.0100,0.0174,2025-06-11T08:05:53.037070
2114,1.1424,-0.5392,-1.7158,-182.700,619.255,-56.350,0.00,0.0184,0.0254,0.0100,0.0087,2025-06-11T08:05:53.037070
2115,0.3806,-0.2645,-1.4962,-331.870,1084.370,-239.575,0.01,0.0368,0.0254,0.0100,0.0087,2025-06-11T08:05:53.037070
2116,-0.4514,-0.1098,-0.7315,-353.465,1146.740,-183.750,0.01,0.0184,0.0508,0.0100,0.0087,2025-06-11T08:05:53.037070
2117,-2.0769,-0.1976,0.0542,-269.465,1146.740,-56.490,0.01,0.0184,0.0254,0.0100,0.0174,2025-06-11T08:05:53.275026
2118,-3.1144,-0.2425,1.3737,52.990,923.440,8.120,0.01,0.0368,0.0508,0.0200,0.0174,2025-06-11T08:05:53.275026
2119,-2.7650,2.5396,3.4097,143.115,427.560,74.410,0.00,0.0368,0.0508,0.0200,0.0174,2025-06-11T08:05:53.275026
2120,-2.9070,1.2644,6.8276,534.065,345.765,192.605,0.00,0.0184,0.0254,0.0100,0.0087,2025-06-11T08:05:53.275026
2121,-1.2956,-2.7870,7.2307,-31.430,23.450,206.850,0.00,0.0184,0.0508,0.0100,0.0087,2025-06-11T08:05:53.275026
2122,-1.4269,-0.2621,5.1538,246.015,-408.380,111.335,0.00,0.0184,0.0254,0.0100,0.0087,2025-06-11T08:05:53.275026
2123,-1.8110,-0.0307,2.1989,-240.905,-435.785,123.655,0.01,0.0184,0.0254,0.0200,0.0087,2025-06-11T08:05:53.275026
2124,-1.9130,-0.0917,2.0242,-138.600,-759.430,-82.915,0.00,0.0184,0.0254,0.0100,0.0087,2025-06-11T08:05:53.275026
2125,-1.3849,0.6417,-0.0595,-164.500,-744.415,-133.105,0.00,0.0184,0.0254,0.0100,0.0087,2025-06-11T08:05:53.275026
2126,-0.8047,1.0038,-0.5627,-44.520,-589.855,1.995,0.01,0.0368,0.0254,0.0100,0.0174,2025-06-11T08:05:53.275026
2127,-0.0268,1.2937,-1.6455,259.350,-548.765,-14.980,0.01,0.0184,0.0254,0.0100,0.0087,2025-06-11T08:05:53.275026
2128,0.8086,0.6637,-1.7275,58.100,-349.825,-108.465,0.00,0.0184,0.0254,0.0100,0.0087,2025-06-11T08:05:53.275026
2129,1.2015,2.2468,-1.2180,-107.275,-432.565,-26.355,0.00,0.0368,0.0254,0.0200,0.0087,2025-06-11T08:05:53.275026
2130,1.6675,-0.7379,-3.8337,-95.795,-399.350,290.500,0.00,0.0368,0.0254,0.0200,0.0087,2025-06-11T08:05:53.275026
2131,1.4791,-0.1718,-1.2830,-204.785,220.360,95.515,0.00,0.0368,0.0254,0.0100,0.0087,2025-06-11T08:05:53.275026
2132,0.7584,-0.4885,-1.2864,-232.750,923.650,-84.420,0.01,0.0184,0.0254,0.0200,0.0174,2025-06-11T08:05:53.275026
2133,-0.3089,-0.5319,-0.3484,-129.500,1124.725,-89.530,0.00,0.0184,0.0254,0.0100,0.0087,2025-06-11T08:05:53.458173
2134,-2.3209,-0.5763,0.3284,36.015,995.925,-19.005,0.00,0.0184,0.0254,0.0200,0.0174,2025-06-11T08:05:53.458173
2135,-2.3038,1.0419,1.9622,126.070,572.320,3.360,0.01,0.0368,0.0254,0.0100,0.0087,2025-06-11T08:05:53.458173
2136,-2.2995,1.7187,2.7704,22.435,206.535,-20.230,0.00,0.0368,0.0508,0.0100,0.0174,2025-06-11T08:05:53.458173
2137,-1.5026,-1.0136,7.1668,206.535,272.440,85.960,0.00,0.0184,0.0508,0.0200,0.0087,2025-06-11T08:05:53.458173
2138,-0.5905,-0.8540,3.9084,128.485,28.560,13.230,0.01,0.0184,0.0254,0.0200,0.0087,2025-06-11T08:05:53.458173
2139,-0.5539,-0.1396,2.5435,-94.605,-187.950,-54.110,0.00,0.0368,0.0254,0.0200,0.0087,2025-06-11T08:05:53.458173
2140,-0.6324,0.2342,1.9281,-306.495,-410.305,-158.620,0.00,0.0184,0.0254,0.0100,0.0087,2025-06-11T08:05:53.458173
2141,-0.6027,0.5568,0.8813,-268.765,-593.880,-224.455,0.00,0.0000,0.0254,0.0200,0.0087,2025-06-11T08:05:53.458173
2142,-0.2786,0.5446,0.5417,-128.170,-476.770,-127.610,0.00,0.0184,0.0508,0.0100,0.0174,2025-06-11T08:05:53.460007
2143,0.0229,0.4299,0.2723,33.810,-202.825,-24.605,0.01,0.0184,0.0254,0.0000,0.0087,2025-06-11T08:05:53.460007
2144,0.0922,0.2440,-0.1249,117.355,23.765,52.780,0.00,0.0184,0.0254,0.0100,0.0087,2025-06-11T08:05:53.460007
2145,0.2489,0.2991,-0.4041,102.620,120.190,43.155,0.00,0.0184,0.0508,0.0100,0.0174,2025-06-11T08:05:53.460007
2146,0.2962,0.3553,0.0390,13.510,123.340,33.530,0.00,0.0184,0.0254,0.0200,0.0087,2025-06-11T08:05:53.460007
2147,0.1005,0.3328,0.4270,-53.060,137.900,35.350,0.01,0.0184,0.0508,0.0200,0.0087,2025-06-11T08:05:53.551891
2148,-0.0327,0.2196,0.9614,-34.335,133.875,34.370,0.00,0.0184,0.0254,0.0200,0.0087,2025-06-11T08:05:53.551891
2149,-0.1161,0.0771,1.3415,-1.995,128.310,32.375,0.01,0.0184,0.0508,0.0200,0.0174,2025-06-11T08:05:53.551891
2150,-0.1381,-0.0068,1.5943,26.425,95.270,29.890,0.01,0.0368,0.0508,0.0200,0.0174,2025-06-11T08:05:53.551891
2151,-0.1288,-0.0927,1.6987,17.325,33.635,9.415,0.00,0.0368,0.0508,0.0100,0.0087,2025-06-11T08:05:53.551891
2152,-0.1332,-0.1181,1.6895,-11.970,-27.335,-5.600,0.00,0.0184,0.0254,0.0100,0.0087,2025-06-11T08:05:53.551891
2153,-0.1274,-0.0732,1.4645,-21.980,-66.640,-20.090,0.00,0.0000,0.0508,0.0200,0.0087,2025-06-11T08:05:53.551891
2154,-0.0800,0.0234,1.2205,-10.640,-86.170,-24.395,0.00,0.0368,0.0254,0.0200,0.0087,2025-06-11T08:05:53.551891
2155,-0.0205,0.1025,0.9472,1.015,-83.755,-19.670,0.00,0.0368,0.0508,0.0200,0.0174,2025-06-11T08:05:53.810736
2156,0.0488,0.1552,0.7793,2.415,-61.250,-13.790,0.01,0.0000,0.0254,0.0200,0.0087,2025-06-11T08:05:53.810736
2157,0.0752,0.1918,0.6705,3.115,-36.050,-7.700,0.00,0.0184,0.0508,0.0000,0.0087,2025-06-11T08:05:53.810736
2158,0.0664,0.1698,0.6412,-0.385,-7.735,1.190,0.01,0.0368,0.0508,0.0200,0.0174,2025-06-11T08:05:53.810736
2159,0.0351,0.1283,0.8560,-1.435,27.755,9.975,0.01,0.0184,0.0254,0.0100,0.0087,2025-06-11T08:05:53.810736
2160,0.0166,0.1083,0.9043,0.665,48.580,14.980,0.00,0.0368,0.0254,0.0100,0.0087,2025-06-11T08:05:53.810736
2161,-0.0039,0.1030,1.0604,1.820,48.930,14.805,0.00,0.0184,0.0254,0.0100,0.0087,2025-06-11T08:05:53.810736
2162,-0.0307,0.0673,1.1819,-4.060,33.635,11.375,0.00,0.0368,0.0254,0.0200,0.0087,2025-06-11T08:05:53.810736
2163,-0.0351,0.0405,1.2346,-4.235,10.395,2.905,0.00,0.0184,0.0254,0.0100,0.0087,2025-06-11T08:05:53.810736
2164,-0.0122,0.0522,1.2420,-3.325,-7.175,-3.255,0.00,0.0184,0.0254,0.0200,0.0087,2025-06-11T08:05:53.810736
2165,-0.0337,0.0669,1.1585,-0.980,-19.530,-7.000,0.01,0.0184,0.0508,0.0100,0.0087,2025-06-11T08:05:53.811733
2166,-0.0386,0.0737,1.0609,-0.315,-24.640,-7.840,0.00,0.0368,0.0508,0.0200,0.0174,2025-06-11T08:05:53.811733
2167,-0.0283,0.0976,0.9594,-0.630,-19.845,-5.810,0.01,0.0368,0.0254,0.0100,0.0087,2025-06-11T08:05:53.811733
2168,0.0005,0.1259,0.9209,2.170,-11.970,-1.505,0.01,0.0368,0.0508,0.0100,0.0087,2025-06-11T08:05:53.811733
2169,0.0039,0.1171,0.9043,0.035,1.575,3.150,0.01,0.0368,0.0508,0.0200,0.0174,2025-06-11T08:05:53.811733
2170,-0.0024,0.0986,0.9389,2.905,11.935,7.245,0.00,0.0368,0.0254,0.0200,0.0174,2025-06-11T08:05:53.811733
2171,-0.0073,0.0942,0.9867,3.325,22.610,9.590,0.01,0.0184,0.0254,0.0100,0.0087,2025-06-11T08:05:53.811733
2172,-0.0054,0.1039,1.0263,4.550,23.905,8.995,0.01,0.0184,0.0254,0.0100,0.0087,2025-06-11T08:05:54.038035
2173,-0.0039,0.1059,1.0438,2.345,20.685,7.385,0.00,0.0368,0.0508,0.0200,0.0087,2025-06-11T08:05:54.038035
2174,-0.0288,0.0874,1.0853,2.870,5.950,6.020,0.00,0.0368,0.0254,0.0200,0.0174,2025-06-11T08:05:54.038035
2175,-0.0595,0.0429,1.0873,-1.540,0.875,2.520,0.00,0.0184,0.0254,0.0100,0.0087,2025-06-11T08:05:54.038035
2176,-0.0420,0.0649,1.0838,-1.540,-2.905,-0.035,0.00,0.0368,0.0508,0.0200,0.0087,2025-06-11T08:05:54.038035
2177,-0.0259,0.0869,1.0565,0.175,-6.790,-0.420,0.00,0.0368,0.0508,0.0200,0.0087,2025-06-11T08:05:54.038035
2178,-0.0176,0.1025,1.0326,-1.085,-11.340,-2.625,0.01,0.0368,0.0508,0.0200,0.0174,2025-06-11T08:05:54.038035
2179,-0.0210,0.1049,1.0053,-3.535,-13.440,-3.080,0.01,0.0368,0.0254,0.0200,0.0087,2025-06-11T08:05:54.038035
2180,-0.0229,0.0991,0.9931,-1.400,-10.850,-1.715,0.00,0.0368,0.0508,0.0200,0.0087,2025-06-11T08:05:54.038035
2181,-0.0244,0.1005,0.9936,0.910,-4.515,0.280,0.00,0.0000,0.0254,0.0100,0.0087,2025-06-11T08:05:54.038035
2182,-0.0224,0.1049,0.9941,0.350,-1.330,1.365,0.00,0.0184,0.0254,0.0100,0.0087,2025-06-11T08:05:54.039032
2183,-0.0322,0.0996,1.0170,1.085,-0.490,2.555,0.00,0.0184,0.0254,0.0100,0.0087,2025-06-11T08:05:54.039032
2184,-0.0390,0.0854,1.0448,1.015,-0.070,3.325,0.00,0.0184,0.0508,0.0100,0.0087,2025-06-11T08:05:54.039032
2185,-0.0351,0.0712,1.0526,1.225,-1.155,2.275,0.01,0.0184,0.0254,0.0100,0.0087,2025-06-11T08:05:54.039032
2186,-0.0210,0.0820,1.0619,0.070,-4.935,-0.175,0.00,0.0184,0.0254,0.0100,0.0087,2025-06-11T08:05:54.039032
2187,-0.0205,0.0966,1.0443,-0.945,-9.765,-1.155,0.00,0.0184,0.0508,0.0100,0.0087,2025-06-11T08:05:54.039032
2188,-0.0244,0.0947,1.0268,-0.700,-11.410,-1.575,0.01,0.0368,0.0254,0.0200,0.0000,2025-06-11T08:05:54.039032
2189,-0.0317,0.0971,1.0087,-0.455,-9.520,-0.840,0.00,0.0184,0.0254,0.0100,0.0174,2025-06-11T08:05:54.039032
2190,-0.0298,0.1049,0.9941,0.455,-5.635,0.805,0.01,0.0184,0.0508,0.0100,0.0087,2025-06-11T08:05:54.096044
2191,-0.0342,0.0966,1.0024,1.330,-3.150,2.905,0.00,0.0368,0.0508,0.0200,0.0087,2025-06-11T08:05:54.096044
2192,-0.0278,0.0898,1.0228,1.190,-1.645,3.710,0.00,0.0184,0.0508,0.0200,0.0087,2025-06-11T08:05:54.096044
2193,-0.0229,0.0913,1.0443,1.750,-2.485,3.185,0.00,0.0184,0.0508,0.0100,0.0087,2025-06-11T08:05:54.096044
2194,-0.0200,0.0947,1.0497,1.540,-4.830,2.310,0.01,0.0184,0.0254,0.0100,0.0174,2025-06-11T08:05:54.096044
2195,-0.0273,0.0864,1.0438,0.805,-7.245,1.925,0.00,0.0184,0.0508,0.0200,0.0174,2025-06-11T08:05:54.269587
2196,-0.0288,0.0903,1.0370,1.995,-8.015,1.575,0.01,0.0368,0.0508,0.0200,0.0087,2025-06-11T08:05:54.461499
2197,-0.0190,0.0932,1.0311,2.205,-8.400,1.645,0.01,0.0368,0.0508,0.0200,0.0174,2025-06-11T08:05:54.461499
2198,-0.0210,0.0956,1.0175,2.065,-9.520,1.435,0.01,0.0368,0.0254,0.0200,0.0087,2025-06-11T08:05:54.461499
2199,-0.0185,0.0927,1.0106,0.910,-9.345,1.540,0.00,0.0368,0.0254,0.0200,0.0087,2025-06-11T08:05:54.461499
2200,-0.0166,0.0859,1.0116,0.700,-6.195,1.995,0.00,0.0184,0.0508,0.0200,0.0087,2025-06-11T08:05:54.461499
2201,-0.0107,0.1000,1.0141,2.450,-3.325,1.680,0.00,0.0184,0.0254,0.0100,0.0174,2025-06-11T08:05:54.461499
2202,-0.0102,0.1103,1.0160,2.100,-0.945,2.275,0.00,0.0368,0.0254,0.0200,0.0087,2025-06-11T08:05:54.461499
2203,-0.0210,0.1093,1.0175,3.325,-1.435,3.360,0.00,0.0368,0.0508,0.0100,0.0087,2025-06-11T08:05:54.461499
2204,-0.0312,0.0927,1.0316,2.940,-1.715,4.270,0.00,0.0000,0.0000,0.0200,0.0087,2025-06-11T08:05:54.461499
2205,-0.0322,0.0888,1.0370,3.325,-2.450,3.955,0.00,0.0368,0.0254,0.0100,0.0087,2025-06-11T08:05:54.461499
2206,-0.0283,0.0942,1.0399,2.730,-3.710,3.570,0.01,0.0368,0.0508,0.0100,0.0000,2025-06-11T08:05:54.461499
2207,-0.0234,0.1000,1.0380,3.010,-4.480,3.395,0.00,0.0000,0.0508,0.0100,0.0087,2025-06-11T08:05:54.461499
2208,-0.0034,0.1025,1.0233,3.010,-3.990,2.380,0.01,0.0184,0.0254,0.0100,0.0087,2025-06-11T08:05:54.474885
2209,-0.0024,0.1083,1.0121,3.955,-5.355,2.170,0.01,0.0184,0.0254,0.0100,0.0174,2025-06-11T08:05:54.474885
2210,-0.0166,0.0981,1.0082,2.380,-6.055,2.170,0.01,0.0368,0.0508,0.0100,0.0087,2025-06-11T08:05:54.474885
2211,-0.0190,0.0942,1.0150,1.645,-4.865,2.065,0.01,0.0368,0.0254,0.0100,0.0174,2025-06-11T08:05:54.474885
2212,-0.0264,0.0976,1.0263,2.590,-3.395,2.520,0.00,0.0184,0.0254,0.0100,0.0087,2025-06-11T08:05:54.474885
2213,-0.0205,0.1000,1.0243,2.345,-2.730,2.205,0.00,0.0184,0.0508,0.0200,0.0087,2025-06-11T08:05:54.474885
2214,-0.0220,0.1010,1.0238,0.875,-2.905,1.995,0.00,0.0184,0.0254,0.0100,0.0087,2025-06-11T08:05:54.474885
2215,-0.0185,0.1010,1.0268,1.540,-2.975,2.380,0.00,0.0184,0.0254,0.0100,0.0087,2025-06-11T08:05:54.474885
2216,-0.0190,0.1000,1.0219,1.645,-2.205,2.065,0.01,0.0184,0.0254,0.0200,0.0087,2025-06-11T08:05:54.474885
2217,-0.0234,0.1015,1.0189,1.120,-1.540,1.820,0.00,0.0368,0.0254,0.0200,0.0174,2025-06-11T08:05:54.474885
2218,-0.0239,0.1108,1.0272,1.610,-2.870,2.275,0.01,0.0184,0.0508,0.0100,0.0087,2025-06-11T08:05:54.474885
2219,-0.0224,0.1059,1.0268,1.050,-3.535,1.995,0.00,0.0184,0.0254,0.0200,0.0174,2025-06-11T08:05:54.474885
2220,-0.0102,0.1074,1.0297,1.575,-5.355,1.085,0.01,0.0184,0.0254,0.0100,0.0087,2025-06-11T08:05:54.474885
2221,-0.0073,0.1088,1.0258,0.980,-5.775,0.175,0.01,0.0184,0.0254,0.0100,0.0087,2025-06-11T08:05:54.474885
2222,-0.0176,0.1093,1.0141,1.400,-4.515,0.315,0.00,0.0184,0.0508,0.0100,0.0087,2025-06-11T08:05:54.474885
2223,-0.0234,0.1078,1.0058,2.870,-1.960,1.295,0.00,0.0368,0.0254,0.0100,0.0174,2025-06-11T08:05:54.789446
2224,-0.0303,0.1044,1.0106,2.415,-0.455,1.995,0.01,0.0184,0.0508,0.0200,0.0087,2025-06-11T08:05:54.789446
2225,-0.0264,0.1054,1.0185,1.400,-1.540,1.645,0.01,0.0184,0.0254,0.0100,0.0174,2025-06-11T08:05:54.789446
2226,-0.0161,0.1118,1.0321,0.385,-3.010,1.085,0.00,0.0368,0.0508,0.0100,0.0087,2025-06-11T08:05:54.789446
2227,-0.0171,0.1157,1.0341,1.855,-4.165,1.015,0.00,0.0184,0.0508,0.0100,0.0087,2025-06-11T08:05:54.789446
2228,-0.0224,0.1015,1.0316,1.925,-5.110,0.840,0.00,0.0368,0.0508,0.0100,0.0087,2025-06-11T08:05:54.789446
2229,-0.0229,0.0937,1.0209,0.455,-5.460,-0.070,0.00,0.0184,0.0254,0.0100,0.0087,2025-06-11T08:05:54.789446
2230,-0.0210,0.1074,1.0136,0.595,-5.250,-0.420,0.00,0.0184,0.0254,0.0100,0.0087,2025-06-11T08:05:54.789446
2231,-0.0146,0.1161,1.0111,0.455,-3.535,0.210,0.00,0.0184,0.0254,0.0100,0.0087,2025-06-11T08:05:54.789446
2232,-0.0161,0.1157,1.0092,1.015,-2.590,0.805,0.00,0.0184,0.0254,0.0100,0.0087,2025-06-11T08:05:54.789446
2233,-0.0205,0.1078,1.0072,0.735,-0.455,1.225,0.00,0.0184,0.0254,0.0100,0.0087,2025-06-11T08:05:54.789446
2234,-0.0210,0.1069,1.0087,0.980,0.735,1.330,0.00,0.0184,0.0508,0.0100,0.0087,2025-06-11T08:05:54.789446
2235,-0.0254,0.1083,1.0189,0.490,0.665,1.085,0.00,0.0184,0.0254,0.0200,0.0087,2025-06-11T08:05:54.789446
2236,-0.0312,0.1083,1.0302,-0.175,-0.385,0.910,0.01,0.0368,0.0508,0.0200,0.0087,2025-06-11T08:05:54.789446
2237,-0.0337,0.1059,1.0375,0.385,-0.980,0.735,0.00,0.0368,0.0254,0.0100,0.0087,2025-06-11T08:05:54.789446
2238,-0.0283,0.1103,1.0346,0.595,-2.345,0.420,0.01,0.0184,0.0508,0.0200,0.0174,2025-06-11T08:05:54.789446
2239,-0.0264,0.1127,1.0292,0.280,-4.305,-0.140,0.01,0.0184,0.0508,0.0200,0.0087,2025-06-11T08:05:54.789446
2240,-0.0259,0.1108,1.0263,-0.175,-4.725,-0.280,0.00,0.0184,0.0508,0.0200,0.0174,2025-06-11T08:05:55.083568
2241,-0.0244,0.1093,1.0175,0.735,-3.570,0.105,0.00,0.0184,0.0508,0.0200,0.0174,2025-06-11T08:05:55.083568
2242,-0.0268,0.1137,1.0146,1.680,-1.715,0.490,0.00,0.0368,0.0508,0.0200,0.0087,2025-06-11T08:05:55.083568
2243,-0.0259,0.1108,1.0097,1.330,-0.525,0.665,0.00,0.0184,0.0508,0.0200,0.0087,2025-06-11T08:05:55.083568
2244,-0.0264,0.1132,1.0170,1.470,-1.820,0.560,0.00,0.0184,0.0254,0.0100,0.0087,2025-06-11T08:05:55.083568
2245,-0.0322,0.1010,1.0233,-0.350,-2.240,0.490,0.01,0.0184,0.0254,0.0100,0.0087,2025-06-11T08:05:55.083568
2246,-0.0337,0.0971,1.0228,-0.840,-1.925,-0.315,0.01,0.0184,0.0508,0.0100,0.0087,2025-06-11T08:05:55.083568
2247,-0.0210,0.1069,1.0219,-0.735,-1.085,-0.700,0.00,0.0184,0.0508,0.0100,0.0087,2025-06-11T08:05:55.084569
2248,-0.0239,0.1132,1.0111,-1.085,-0.980,-0.700,0.01,0.0184,0.0508,0.0100,0.0087,2025-06-11T08:05:55.084569
2249,-0.0224,0.1122,1.0048,-1.610,-0.035,-0.875,0.01,0.0184,0.0000,0.0100,0.0087,2025-06-11T08:05:55.084569
2250,-0.0327,0.1127,1.0048,-1.610,2.205,-0.280,0.00,0.0368,0.0254,0.0200,0.0087,2025-06-11T08:05:55.084569
2251,-0.0381,0.1088,1.0053,-1.085,5.845,0.420,0.00,0.0184,0.0254,0.0100,0.0087,2025-06-11T08:05:55.084569
2252,-0.0371,0.1161,1.0087,-0.140,17.815,0.595,0.00,0.0184,0.0254,0.0100,0.0087,2025-06-11T08:05:55.084569
2253,-0.0317,0.1205,1.0268,1.365,7.875,0.875,0.00,0.0184,0.0508,0.0100,0.0087,2025-06-11T08:05:55.084569
2254,-0.0498,0.1176,1.0302,0.070,4.970,0.770,0.00,0.0184,0.0254,0.0100,0.0087,2025-06-11T08:05:55.085562
2255,-0.0425,0.1122,1.0477,0.175,-0.455,-0.175,0.00,0.0184,0.0254,0.0100,0.0087,2025-06-11T08:05:55.085562
2256,-0.0512,0.0966,1.0409,-2.625,-1.540,-0.770,0.00,0.0184,0.0254,0.0100,0.0087,2025-06-11T08:05:55.085562
2257,-0.0351,0.0771,1.0311,-2.310,0.770,-3.185,0.00,0.0000,0.0254,0.0200,0.0087,2025-06-11T08:05:55.085562
2258,-0.0195,0.0839,1.0077,-3.185,3.115,-4.515,0.01,0.0368,0.0254,0.0100,0.0087,2025-06-11T08:05:55.186785
2259,-0.0142,0.0625,0.9999,-4.025,4.550,-5.320,0.01,0.0184,0.0254,0.0100,0.0087,2025-06-11T08:05:55.186785
2260,-0.0708,0.0425,1.1322,13.860,-15.995,-2.100,0.00,0.0184,0.0508,0.0200,0.0087,2025-06-11T08:05:55.186785
2261,-0.2303,0.3074,1.7763,50.435,-93.065,20.790,0.01,0.0368,0.0508,0.0100,0.0087,2025-06-11T08:05:55.186785
2262,-1.1302,0.5690,2.8143,140.875,-200.410,154.665,0.01,0.0368,0.0508,0.0200,0.0087,2025-06-11T08:05:55.186785
2263,-0.8174,-0.2782,4.8029,330.190,-249.655,258.930,0.01,0.0184,0.0508,0.0200,0.0174,2025-06-11T08:05:55.186785
2264,-2.5361,0.4104,4.0909,434.630,-393.365,452.410,0.00,0.0184,0.0508,0.0100,0.0174,2025-06-11T08:05:55.186785
2265,-0.8267,-1.2395,1.7558,400.855,-896.805,401.975,0.00,0.0368,0.0254,0.0100,0.0174,2025-06-11T08:05:55.187852
2266,-1.8129,0.1767,0.4826,166.705,-1062.110,251.580,0.00,0.0368,0.0508,0.0200,0.0087,2025-06-11T08:05:55.187852
2267,-1.3625,0.0063,-1.8759,-78.015,-1146.740,108.325,0.00,0.0184,0.0254,0.0100,0.0174,2025-06-11T08:05:55.187852
2268,-0.9521,-0.6442,-2.5352,-16.590,-928.130,-18.025,0.00,0.0184,0.0254,0.0100,0.0087,2025-06-11T08:05:55.187852
2269,0.1235,-0.4890,-0.7286,-176.260,-886.095,119.630,0.00,0.0184,0.0508,0.0100,0.0087,2025-06-11T08:05:55.187852
2270,0.8506,-1.0116,-5.4539,25.200,-729.855,302.680,0.00,0.0184,0.0508,0.0100,0.0087,2025-06-11T08:05:55.187852
2271,0.7896,-0.8623,-3.1564,-239.225,-73.115,114.135,0.00,0.0368,0.0508,0.0200,0.0174,2025-06-11T08:05:55.187852
2272,1.5343,-0.2840,-3.0271,-199.010,518.140,-104.860,0.00,0.0184,0.0254,0.0100,0.0087,2025-06-11T08:05:55.187852
2273,0.8950,0.1606,-2.6415,-253.225,1038.170,-162.295,0.00,0.0184,0.0254,0.0100,0.0174,2025-06-11T08:05:55.187852
2274,-1.2712,0.1327,-1.9330,-280.385,1146.740,-133.280,0.00,0.0184,0.0508,0.0100,0.0087,2025-06-11T08:05:55.187852
2275,-1.8588,-0.0834,-1.3161,-189.700,1146.740,-34.405,0.01,0.0184,0.0254,0.0100,0.0087,2025-06-11T08:05:55.293117
2276,-2.6367,0.2211,0.1098,-44.380,1146.740,11.830,0.01,0.0184,0.0508,0.0200,0.0087,2025-06-11T08:05:55.293117
2277,-2.9827,-0.2216,1.6353,-47.460,813.400,-100.310,0.01,0.0184,0.0254,0.0200,0.0087,2025-06-11T08:05:55.293117
2278,-2.3731,-0.1703,3.7332,-132.615,263.305,-189.385,0.01,0.0368,0.0508,0.0200,0.0087,2025-06-11T08:05:55.293117
2279,-2.5444,0.8501,5.6418,-93.380,-134.085,-215.215,0.00,0.0184,0.0508,0.0200,0.0087,2025-06-11T08:05:55.293117
2280,-1.7954,0.8276,4.6394,187.460,96.285,62.090,0.01,0.0368,0.0508,0.0100,0.0087,2025-06-11T08:05:55.293117
2281,-0.9106,-0.3631,2.4883,93.345,-130.585,123.200,0.01,0.0184,0.0508,0.0200,0.0087,2025-06-11T08:05:55.293117
2282,-1.1922,-0.2835,2.2463,-28.035,-231.910,107.905,0.00,0.0184,0.0254,0.0100,0.0087,2025-06-11T08:05:55.293117
2283,-1.1775,0.2084,1.4401,-123.480,-568.120,-46.165,0.00,0.0184,0.0254,0.0200,0.0174,2025-06-11T08:05:55.293117
2284,-0.8316,0.2582,0.1152,-86.975,-598.710,-87.570,0.01,0.0552,0.0508,0.0200,0.0087,2025-06-11T08:05:55.609392
2285,-0.2630,0.7437,-0.5280,10.360,-470.470,-10.220,0.00,0.0368,0.0508,0.0100,0.0174,2025-06-11T08:05:55.609392
2286,0.8818,0.7032,-1.1976,77.840,-294.980,-79.625,0.01,0.0368,0.0254,0.0200,0.0174,2025-06-11T08:05:55.609392
2287,1.2786,1.1097,-1.2927,67.480,-254.975,4.025,0.00,0.0184,0.0254,0.0100,0.0000,2025-06-11T08:05:55.609392
2288,1.5006,0.8584,-1.1829,-42.770,-150.780,-8.785,0.00,0.0368,0.0254,0.0100,0.0087,2025-06-11T08:05:55.609392
2289,1.6411,0.7559,-1.1902,-82.845,89.705,31.710,0.00,0.0184,0.0254,0.0100,0.0087,2025-06-11T08:05:55.609392
2290,1.2302,0.1757,-0.9897,-101.325,324.485,57.435,0.00,0.0184,0.0254,0.0100,0.0087,2025-06-11T08:05:55.609392
2291,0.2645,-0.1630,-0.0673,-62.335,564.480,63.560,0.00,0.0368,0.0254,0.0100,0.0087,2025-06-11T08:05:55.609392
2292,-0.6700,-0.7183,0.4338,-1.050,670.145,-65.205,0.00,0.0368,0.0254,0.0100,0.0087,2025-06-11T08:05:55.609392
2293,-1.5528,-0.2094,0.8691,69.055,507.605,-20.055,0.00,0.0368,0.0254,0.0100,0.0087,2025-06-11T08:05:55.609392
2294,-1.5836,1.0453,1.0468,58.905,201.530,-12.740,0.00,0.0184,0.0254,0.0100,0.0087,2025-06-11T08:05:55.609392
2295,-1.1912,0.6500,2.6830,-65.205,105.315,-43.960,0.01,0.0184,0.0254,0.0100,0.0087,2025-06-11T08:05:55.609392
2296,-0.5202,-0.0898,2.4673,112.385,238.385,69.300,0.00,0.0184,0.0254,0.0200,0.0087,2025-06-11T08:05:55.609392
2297,-0.1991,-0.1308,2.9031,-6.475,37.975,6.650,0.01,0.0184,0.0508,0.0100,0.0087,2025-06-11T08:05:55.609392
2298,-0.2123,0.2664,2.2028,-129.150,-278.565,-74.830,0.00,0.0368,0.0254,0.0100,0.0087,2025-06-11T08:05:55.609392
2299,-0.2913,0.2313,1.3537,-203.630,-430.640,-138.915,0.00,0.0184,0.0508,0.0100,0.0087,2025-06-11T08:05:55.609392
2300,-0.1640,0.2211,0.8501,-156.590,-389.060,-117.845,0.00,0.0368,0.0254,0.0200,0.0174,2025-06-11T08:05:55.790083
2301,0.0400,0.2704,0.5749,-51.940,-225.225,-56.455,0.00,0.0184,0.0508,0.0100,0.0087,2025-06-11T08:05:55.790083
2302,0.1854,0.3216,0.1503,61.600,-54.530,9.485,0.00,0.0000,0.0508,0.0100,0.0087,2025-06-11T08:05:55.790083
2303,0.2830,0.3558,-0.0273,60.025,43.120,36.470,0.00,0.0184,0.0508,0.0100,0.0174,2025-06-11T08:05:55.790083
2304,0.2952,0.3753,0.0405,24.500,73.640,25.865,0.01,0.0368,0.0254,0.0200,0.0087,2025-06-11T08:05:55.790083
2305,0.2050,0.3148,0.4734,-15.330,92.050,21.385,0.01,0.0184,0.0254,0.0100,0.0087,2025-06-11T08:05:55.790083
2306,0.1030,0.2220,0.7515,-34.860,104.020,17.745,0.01,0.0368,0.0508,0.0100,0.0087,2025-06-11T08:05:55.790083
2307,-0.0020,0.1542,1.0897,15.820,101.500,25.305,0.00,0.0184,0.0254,0.0100,0.0087,2025-06-11T08:05:55.790083
2308,-0.0395,0.0063,1.4601,33.530,97.895,26.565,0.00,0.0184,0.0000,0.0200,0.0087,2025-06-11T08:05:55.790083
2309,-0.0220,-0.0586,1.5787,45.640,80.850,26.845,0.00,0.0184,0.0508,0.0100,0.0087,2025-06-11T08:05:55.790083
2310,-0.0220,-0.0473,1.5753,12.775,23.835,10.500,0.01,0.0184,0.0254,0.0100,0.0174,2025-06-11T08:05:55.791149
2311,-0.0063,0.0181,1.4211,-20.790,-45.780,-17.500,0.00,0.0184,0.0254,0.0100,0.0087,2025-06-11T08:05:55.791149
2312,0.0161,0.0693,1.2376,-45.500,-102.865,-32.480,0.00,0.0184,0.0254,0.0100,0.0087,2025-06-11T08:05:55.791149
2313,0.0644,0.1127,1.0150,-39.900,-97.685,-31.290,0.01,0.0368,0.0254,0.0200,0.0174,2025-06-11T08:05:55.791149
2314,0.1005,0.1654,0.8418,-15.330,-62.405,-20.475,0.01,0.0184,0.0254,0.0200,0.0174,2025-06-11T08:05:55.791149
2315,0.1205,0.2211,0.6939,-5.740,-29.680,-0.315,0.00,0.0184,0.0508,0.0200,0.0087,2025-06-11T08:05:55.791149
2316,0.1244,0.2298,0.6705,-1.645,1.785,0.420,0.01,0.0184,0.0508,0.0100,0.0087,2025-06-11T08:05:55.791149
2317,0.1181,0.2094,0.7759,3.395,24.850,8.855,0.01,0.0184,0.0254,0.0100,0.0087,2025-06-11T08:05:55.791149
2318,0.0986,0.1552,0.9282,9.695,45.360,15.960,0.01,0.0184,0.0254,0.0200,0.0087,2025-06-11T08:05:55.885853
2319,0.0703,0.1283,1.0653,16.905,52.990,17.955,0.00,0.0184,0.0254,0.0200,0.0087,2025-06-11T08:05:55.885853
2320,0.0454,0.0927,1.1785,21.140,42.000,14.700,0.01,0.0184,0.0508,0.0200,0.0174,2025-06-11T08:05:55.885853
2321,0.0283,0.0664,1.2444,11.060,15.190,8.015,0.01,0.0368,0.0508,0.0100,0.0087,2025-06-11T08:05:55.885853
2322,0.0171,0.0605,1.2278,-1.155,-9.800,-1.505,0.01,0.0184,0.0508,0.0100,0.0087,2025-06-11T08:05:55.885853
2323,0.0356,0.0795,1.1619,-12.600,-36.085,-8.890,0.00,0.0368,0.0508,0.0200,0.0174,2025-06-11T08:05:55.885853
2324,0.0644,0.1254,1.0536,-17.780,-43.330,-12.355,0.01,0.0368,0.0508,0.0200,0.0087,2025-06-11T08:05:55.885853
2325,0.0786,0.1444,0.9540,-10.360,-34.860,-8.540,0.00,0.0368,0.0508,0.0300,0.0087,2025-06-11T08:05:55.886915
2326,0.0991,0.1493,0.8862,-1.330,-19.740,-3.220,0.00,0.0368,0.0254,0.0200,0.0087,2025-06-11T08:05:55.886915
2327,0.1078,0.1635,0.8608,1.260,-5.810,1.190,0.00,0.0368,0.0508,0.0100,0.0087,2025-06-11T08:05:55.886915
2328,0.0913,0.1537,0.8916,3.325,6.335,4.725,0.01,0.0368,0.0254,0.0200,0.0087,2025-06-11T08:05:56.239081
2329,0.0708,0.1142,1.0004,6.965,13.860,8.960,0.01,0.0184,0.0000,0.0200,0.0087,2025-06-11T08:05:56.239081
2330,0.0708,0.1000,1.0555,11.165,18.165,9.100,0.01,0.0368,0.0508,0.0100,0.0087,2025-06-11T08:05:56.240021
2331,0.0659,0.1025,1.1058,8.085,9.555,5.880,0.01,0.0368,0.0508,0.0200,0.0087,2025-06-11T08:05:56.240021
2332,0.0551,0.1098,1.1161,-0.315,-8.155,-0.035,0.00,0.0184,0.0254,0.0200,0.0000,2025-06-11T08:05:56.240021
2333,0.0664,0.1235,1.0975,-5.390,-18.935,-3.640,0.00,0.0184,0.0254,0.0100,0.0087,2025-06-11T08:05:56.240021
2334,0.0732,0.1396,1.0516,-6.370,-21.385,-3.010,0.00,0.0184,0.0508,0.0100,0.0087,2025-06-11T08:05:56.240021
2335,0.0669,0.1357,0.9999,-0.910,-19.145,-1.575,0.00,0.0184,0.0254,0.0100,0.0087,2025-06-11T08:05:56.240021
2336,0.0844,0.1493,0.9614,-0.385,-15.050,-0.105,0.01,0.0184,0.0508,0.0100,0.0000,2025-06-11T08:05:56.240021
2337,0.0839,0.1474,0.9609,1.015,-10.220,2.870,0.00,0.0184,0.0254,0.0100,0.0087,2025-06-11T08:05:56.240021
2338,0.0795,0.1269,0.9814,4.830,-2.310,5.145,0.01,0.0184,0.0508,0.0100,0.0087,2025-06-11T08:05:56.240021
2339,0.0947,0.1205,1.0077,5.215,1.960,5.075,0.00,0.0184,0.0254,0.0100,0.0087,2025-06-11T08:05:56.240021
2340,0.0903,0.1279,1.0228,3.465,0.315,4.130,0.00,0.0184,0.0254,0.0100,0.0087,2025-06-11T08:05:56.240021
2341,0.0795,0.1215,1.0390,2.695,-3.745,3.290,0.01,0.0184,0.0508,0.0200,0.0087,2025-06-11T08:05:56.240021
2342,0.0820,0.1098,1.0448,1.540,-6.405,1.645,0.00,0.0368,0.0254,0.0100,0.0087,2025-06-11T08:05:56.240021
2343,0.0854,0.1108,1.0316,0.140,-8.715,0.455,0.00,0.0184,0.0254,0.0200,0.0174,2025-06-11T08:05:56.240021
2344,0.0830,0.1122,1.0175,-0.420,-11.340,-0.455,0.01,0.0184,0.0254,0.0100,0.0174,2025-06-11T08:05:56.240021
2345,0.0844,0.1132,1.0063,-1.750,-8.890,-0.245,0.00,0.0368,0.0254,0.0100,0.0087,2025-06-11T08:05:56.341916
2346,0.0913,0.1186,0.9975,0.980,-4.235,0.280,0.00,0.0184,0.0254,0.0200,0.0174,2025-06-11T08:05:56.571944
2347,0.1049,0.1337,0.9877,1.540,-0.735,0.700,0.00,0.0184,0.0254,0.0100,0.0087,2025-06-11T08:05:56.571944
2348,0.0898,0.1381,0.9882,0.595,-1.750,0.455,0.01,0.0184,0.0508,0.0200,0.0174,2025-06-11T08:05:56.571944
2349,0.0708,0.1244,1.0053,-1.015,0.595,0.980,0.01,0.0184,0.0254,0.0200,0.0174,2025-06-11T08:05:56.571944
2350,0.0708,0.1283,1.0272,1.855,4.830,3.010,0.00,0.0184,0.0254,0.0100,0.0087,2025-06-11T08:05:56.571944
2351,0.0581,0.1259,1.0399,4.830,6.615,5.110,0.00,0.0184,0.0254,0.0100,0.0087,2025-06-11T08:05:56.571944
2352,0.0473,0.1118,1.0565,4.550,3.955,4.865,0.00,0.0184,0.0254,0.0100,0.0087,2025-06-11T08:05:56.571944
2353,0.0395,0.1152,1.0721,3.010,0.315,4.550,0.00,0.0184,0.0254,0.0100,0.0087,2025-06-11T08:05:56.571944
2354,0.0283,0.2484,1.1014,5.425,-1.190,6.160,0.00,0.0184,0.0508,0.0100,0.0087,2025-06-11T08:05:56.571944
2355,0.0278,0.1274,1.1078,10.220,-5.495,8.960,0.00,0.0184,0.0254,0.0100,0.0087,2025-06-11T08:05:56.571944
2356,0.0195,0.1435,1.1400,14.455,-12.355,11.375,0.00,0.0184,0.0508,0.0100,0.0087,2025-06-11T08:05:56.571944
2357,-0.0244,0.2162,1.2390,24.395,-17.465,20.230,0.01,0.0184,0.0254,0.0100,0.0087,2025-06-11T08:05:56.571944
2358,-0.0576,0.3245,1.4430,60.235,-25.655,38.640,0.01,0.0184,0.0254,0.0200,0.0087,2025-06-11T08:05:56.571944
2359,-0.1015,0.2826,1.6924,98.420,-47.075,67.830,0.01,0.0184,0.0508,0.0100,0.0087,2025-06-11T08:05:56.571944
2360,-0.2230,0.2655,1.9666,157.220,-82.740,109.900,0.00,0.0184,0.0254,0.0200,0.0087,2025-06-11T08:05:56.571944
2361,-0.3860,0.2401,2.2360,200.515,-123.935,147.595,0.01,0.0184,0.0254,0.0100,0.0087,2025-06-11T08:05:56.571944
2362,-0.3972,0.2577,2.1365,256.655,-167.650,191.625,0.01,0.0184,0.0508,0.0100,0.0087,2025-06-11T08:05:56.571944
2363,-0.3328,0.0576,2.2492,325.395,-220.465,188.090,0.01,0.0184,0.0254,0.0200,0.0174,2025-06-11T08:05:56.571944
2364,-0.4802,0.1113,1.7012,326.165,-292.530,181.580,0.00,0.0184,0.0254,0.0200,0.0174,2025-06-11T08:05:56.571944
2365,-0.3016,0.3050,0.8296,262.010,-404.740,168.175,0.00,0.0184,0.0254,0.0200,0.0087,2025-06-11T08:05:56.571944
2366,-0.0566,0.1796,0.1337,324.765,-522.900,177.590,0.00,0.0184,0.0254,0.0100,0.0087,2025-06-11T08:05:56.571944
2367,0.2186,-0.0927,-0.2137,283.290,-460.495,106.960,0.00,0.0184,0.0254,0.0100,0.0087,2025-06-11T08:05:56.571944
2368,0.4851,-0.2869,-1.0619,79.450,-540.225,85.890,0.00,0.0368,0.0508,0.0100,0.0087,2025-06-11T08:05:56.571944
2369,0.5729,-0.2762,-2.0340,-83.055,-596.470,109.620,0.00,0.0184,0.0508,0.0100,0.0174,2025-06-11T08:05:56.571944
2370,0.6705,-0.2708,-2.4263,-213.605,-510.685,143.605,0.00,0.0184,0.0254,0.0200,0.0174,2025-06-11T08:05:56.571944
2371,0.7886,-0.4143,-3.1896,-291.340,-287.455,177.940,0.01,0.0368,0.0254,0.0100,0.0000,2025-06-11T08:05:56.571944
2372,0.7042,-0.7584,-3.0305,-311.290,70.350,90.195,0.00,0.0184,0.0508,0.0100,0.0087,2025-06-11T08:05:56.571944
2373,0.1342,-0.6773,-2.3653,-388.605,673.295,-104.020,0.00,0.0184,0.0508,0.0200,0.0087,2025-06-11T08:05:56.571944
2374,-0.5729,-0.8330,-1.7290,-501.025,1076.810,-254.415,0.00,0.0184,0.0000,0.0200,0.0174,2025-06-11T08:05:56.571944
2375,-1.2605,-1.1766,-0.7144,-502.145,1146.740,-259.420,0.01,0.0368,0.0254,0.0200,0.0174,2025-06-11T08:05:56.825708
2376,-2.8631,-0.5427,0.4524,-365.505,1115.940,-111.825,0.01,0.0368,0.0254,0.0200,0.0087,2025-06-11T08:05:56.825708
2377,-4.3993,3.4633,3.5517,381.150,697.410,86.450,0.00,0.0184,0.0508,0.0100,0.0087,2025-06-11T08:05:56.825708
2378,-4.2983,1.3864,12.6856,700.805,665.490,267.995,0.01,0.0184,0.0508,0.0200,0.0087,2025-06-11T08:05:56.825708
2379,-2.0579,0.1732,4.8034,422.905,285.845,456.400,0.00,0.0368,0.0254,0.0200,0.0087,2025-06-11T08:05:56.825708
2380,-2.0564,-0.7676,5.5544,262.675,-295.715,338.555,0.00,0.0184,0.0254,0.0000,0.0087,2025-06-11T08:05:56.825708
2381,-2.3736,-0.0039,3.4131,-315.910,-693.070,222.670,0.00,0.0368,0.0254,0.0100,0.0087,2025-06-11T08:05:56.825708
2382,-3.0036,0.3411,1.6812,-368.830,-1004.255,-27.440,0.00,0.0184,0.0254,0.0100,0.0174,2025-06-11T08:05:56.825708
2383,-2.2521,0.7300,-0.5641,-110.950,-1036.490,-145.390,0.00,0.0368,0.0254,0.0100,0.0087,2025-06-11T08:05:56.825708
2384,-0.5266,0.3348,-1.7739,-60.865,-799.645,-102.410,0.01,0.0368,0.0508,0.0100,0.0087,2025-06-11T08:05:56.825708
2385,0.5324,0.5065,-2.7113,460.880,-706.790,104.965,0.00,0.0184,0.0508,0.0200,0.0087,2025-06-11T08:05:56.825708
2386,1.1707,0.7003,-5.3690,79.485,-626.010,-97.475,0.00,0.0368,0.0254,0.0200,0.0087,2025-06-11T08:05:56.825708
2387,0.7603,1.9530,-4.0104,73.360,-680.750,342.720,0.01,0.0184,0.0254,0.0100,0.0087,2025-06-11T08:05:56.826475
2388,1.4147,-1.7387,-4.5203,-181.055,-429.835,318.360,0.00,0.0368,0.0508,0.0100,0.0174,2025-06-11T08:05:56.826475
2389,0.8506,-0.3484,-3.3853,-299.355,346.990,-3.080,0.00,0.0184,0.0254,0.0200,0.0087,2025-06-11T08:05:56.826475
2390,0.0893,-0.3226,-2.3853,-347.515,990.325,-115.570,0.01,0.0368,0.0508,0.0200,0.0087,2025-06-11T08:05:56.973081
2391,-1.3996,-0.5407,-1.5514,-335.580,1146.740,-145.005,0.01,0.0368,0.0508,0.0200,0.0087,2025-06-11T08:05:56.973081
2392,-2.6435,-0.5461,-0.5168,-225.855,1146.740,-108.780,0.00,0.0184,0.0254,0.0100,0.0087,2025-06-11T08:05:56.973081
2393,-4.8488,-0.2089,1.7534,25.795,1091.790,-54.915,0.00,0.0184,0.0508,0.0100,0.0174,2025-06-11T08:05:56.973081
2394,-3.9650,2.1848,6.4582,341.915,362.915,83.895,0.01,0.0368,0.0254,0.0100,0.0087,2025-06-11T08:05:56.973081
2395,-1.4972,-0.5714,9.3559,68.355,26.705,39.445,0.00,0.0184,0.0254,0.0200,0.0174,2025-06-11T08:05:56.973081
2396,-1.9232,-0.8667,4.9410,-225.155,-419.580,-8.225,0.01,0.0184,0.0508,0.0100,0.0087,2025-06-11T08:05:56.973081
2397,-1.8090,0.2396,2.0286,-170.135,-598.325,-85.260,0.00,0.0184,0.0254,0.0100,0.0087,2025-06-11T08:05:56.973081
2398,-2.0032,0.3499,1.3971,-115.360,-570.430,-51.905,0.00,0.0368,0.0508,0.0100,0.0087,2025-06-11T08:05:56.973081
2399,-0.4563,0.9740,-2.5225,275.310,-629.195,23.030,0.00,0.0184,0.0508,0.0100,0.0000,2025-06-11T08:05:56.973081
2400,1.0521,-0.0927,-2.7265,111.405,-469.630,36.015,0.00,0.0184,0.0254,0.0100,0.0174,2025-06-11T08:05:56.973081
2401,1.5494,0.3392,-2.1199,-61.250,-391.125,6.405,0.00,0.0368,0.0254,0.0200,0.0087,2025-06-11T08:05:56.974146
2402,1.7153,0.4948,-1.5836,-61.355,-24.360,-1.085,0.00,0.0184,0.0000,0.0100,0.0087,2025-06-11T08:05:56.974146
2403,1.3757,0.3826,-1.0775,-97.265,448.875,14.210,0.00,0.0184,0.0254,0.0200,0.0087,2025-06-11T08:05:56.974146
2404,0.5690,0.2869,-0.2201,28.035,641.130,52.815,0.00,0.0184,0.0508,0.0100,0.0087,2025-06-11T08:05:56.974146
2405,-0.1767,0.3353,0.3675,22.680,568.785,74.655,0.01,0.0368,0.0508,0.0200,0.0087,2025-06-11T08:05:56.974146
2406,-0.5153,0.2830,1.3796,-66.045,410.200,49.490,0.01,0.0368,0.0254,0.0200,0.0087,2025-06-11T08:05:57.152621
2407,-0.6534,-0.1127,1.9964,-66.080,236.390,-50.400,0.00,0.0184,0.0508,0.0200,0.0087,2025-06-11T08:05:57.152725
2408,-0.6647,-0.0381,2.3287,-82.285,52.290,-55.440,0.01,0.0184,0.0508,0.0200,0.0087,2025-06-11T08:05:57.152725
2409,-0.5617,0.3353,1.4869,-59.780,-73.745,-102.130,0.00,0.0368,0.0508,0.0200,0.0174,2025-06-11T08:05:57.152725
2410,-0.1903,0.3001,1.2888,-51.625,-67.725,-52.220,0.00,0.0184,0.0254,0.0200,0.0087,2025-06-11T08:05:57.152725
2411,0.0673,-0.2728,1.9022,-0.245,-27.510,-4.235,0.00,0.0368,0.0254,0.0200,0.0087,2025-06-11T08:05:57.152725
2412,0.0020,-0.0063,1.3479,3.080,-6.510,5.600,0.01,0.0368,0.0254,0.0200,0.0087,2025-06-11T08:05:57.152725
2413,0.0971,0.1152,1.2166,-14.980,-30.975,-7.245,0.00,0.0000,0.0508,0.0200,0.0174,2025-06-11T08:05:57.152725
2414,0.1684,0.2255,0.9536,-35.805,-105.875,-36.680,0.01,0.0184,0.0508,0.0200,0.0174,2025-06-11T08:05:57.152725
2415,0.2162,0.2538,0.8076,-33.950,-90.405,-31.745,0.00,0.0368,0.0254,0.0100,0.0087,2025-06-11T08:05:57.152725
2416,0.2206,0.2176,0.6983,-9.170,-32.620,-8.085,0.00,0.0184,0.0254,0.0200,0.0087,2025-06-11T08:05:57.152725
2417,0.1967,0.1986,0.6344,12.915,13.545,7.140,0.00,0.0184,0.0254,0.0100,0.0087,2025-06-11T08:05:57.152725
2418,0.1625,0.2147,0.7042,7.980,37.065,11.620,0.00,0.0184,0.0254,0.0100,0.0087,2025-06-11T08:05:57.152725
2419,0.1342,0.1957,0.9204,9.135,42.735,14.000,0.00,0.0184,0.0254,0.0200,0.0087,2025-06-11T08:05:57.152725
2420,0.1108,0.1420,1.0960,13.755,48.405,18.130,0.01,0.0368,0.0508,0.0100,0.0087,2025-06-11T08:05:57.152725
2421,0.0815,0.0849,1.2054,17.395,40.110,16.660,0.01,0.0368,0.0508,0.0200,0.0174,2025-06-11T08:05:57.340348
2422,0.0605,0.0727,1.2395,7.420,16.275,7.035,0.01,0.0184,0.0254,0.0100,0.0087,2025-06-11T08:05:57.340348
2423,0.0786,0.0952,1.2102,-6.440,-18.130,-7.210,0.00,0.0368,0.0254,0.0100,0.0174,2025-06-11T08:05:57.340348
2424,0.0883,0.1279,1.1263,-13.685,-34.440,-12.600,0.00,0.0368,0.0254,0.0100,0.0087,2025-06-11T08:05:57.340348
2425,0.1010,0.1484,1.0146,-9.485,-33.600,-10.150,0.00,0.0368,0.0254,0.0100,0.0087,2025-06-11T08:05:57.340348
2426,0.1259,0.1615,0.9101,-5.740,-25.060,-7.245,0.00,0.0184,0.0254,0.0200,0.0087,2025-06-11T08:05:57.340348
2427,0.1391,0.1845,0.8716,-4.305,-14.455,-2.660,0.00,0.0368,0.0508,0.0100,0.0087,2025-06-11T08:05:57.340348
2428,0.1391,0.1791,0.8891,2.555,2.520,3.255,0.00,0.0184,0.0254,0.0100,0.0174,2025-06-11T08:05:57.340348
2429,0.1484,0.1601,0.9360,7.805,15.120,7.770,0.00,0.0184,0.0254,0.0100,0.0087,2025-06-11T08:05:57.340348
2430,0.1327,0.1484,0.9960,6.965,17.395,7.210,0.01,0.0184,0.0254,0.0100,0.0087,2025-06-11T08:05:57.340348
2431,0.0966,0.1322,1.0468,3.255,12.040,5.110,0.00,0.0184,0.0254,0.0100,0.0174,2025-06-11T08:05:57.340348
2432,0.0913,0.1186,1.0868,3.430,8.400,3.710,0.00,0.0184,0.0254,0.0100,0.0087,2025-06-11T08:05:57.340348
2433,0.1039,0.1264,1.0799,1.890,1.890,1.645,0.00,0.0368,0.0254,0.0100,0.0087,2025-06-11T08:05:57.340348
2434,0.0917,0.1405,1.0731,-0.560,-6.930,-0.875,0.00,0.0184,0.0254,0.0100,0.0087,2025-06-11T08:05:57.340348
2435,0.0849,0.1391,1.0424,-3.150,-12.110,-1.925,0.01,0.0184,0.0254,0.0200,0.0087,2025-06-11T08:05:57.543988
2436,0.0996,0.1484,1.0214,1.295,-9.870,-0.070,0.00,0.0184,0.0254,0.0200,0.0087,2025-06-11T08:05:57.543988
2437,0.1249,0.1503,0.9862,2.345,-7.525,1.260,0.01,0.0368,0.0254,0.0200,0.0087,2025-06-11T08:05:57.543988
2438,0.1249,0.1479,0.9682,0.385,-9.310,-0.525,0.01,0.0368,0.0254,0.0200,0.0174,2025-06-11T08:05:57.543988
2439,0.1137,0.1503,0.9892,-1.365,-5.985,0.105,0.01,0.0184,0.0254,0.0100,0.0087,2025-06-11T08:05:57.545055
2440,0.1098,0.1571,0.9965,4.445,3.360,3.850,0.00,0.0184,0.0254,0.0100,0.0087,2025-06-11T08:05:57.545055
2441,0.1030,0.1425,0.9994,8.575,7.945,6.790,0.00,0.0368,0.0254,0.0200,0.0174,2025-06-11T08:05:57.545055
2442,0.1371,0.1415,0.9902,4.235,1.575,2.100,0.00,0.0184,0.0508,0.0100,0.0087,2025-06-11T08:05:57.545055
2443,0.1205,0.1479,1.0463,-3.395,-7.875,-2.345,0.00,0.0368,0.0254,0.0100,0.0087,2025-06-11T08:05:57.545055
2444,0.0947,0.1430,1.0360,-4.620,-8.225,-2.590,0.00,0.0184,0.0508,0.0100,0.0087,2025-06-11T08:05:57.545055
2445,0.1069,0.1444,1.0272,1.890,-4.200,-0.175,0.00,0.0184,0.0254,0.0200,0.0087,2025-06-11T08:05:57.545055
2446,0.1069,0.1488,0.9926,0.280,-4.550,-0.140,0.00,0.0184,0.0254,0.0200,0.0174,2025-06-11T08:05:57.545055
2447,0.1098,0.1420,0.9789,-2.555,-5.215,-1.365,0.01,0.0368,0.0254,0.0200,0.0087,2025-06-11T08:05:57.545055
2448,0.1215,0.1415,0.9819,-0.070,-0.385,-0.070,0.00,0.0184,0.0508,0.0200,0.0087,2025-06-11T08:05:57.545055
2449,0.1230,0.1405,0.9823,2.030,6.335,1.575,0.00,0.0184,0.0254,0.0200,0.0087,2025-06-11T08:05:57.545055
2450,0.1196,0.1488,0.9819,2.450,7.350,0.875,0.01,0.0368,0.0254,0.0100,0.0087,2025-06-11T08:05:57.545055
2451,0.0981,0.1269,1.0160,1.610,6.335,0.350,0.01,0.0368,0.0508,0.0100,0.0087,2025-06-11T08:05:57.684897
2452,0.0898,0.1225,1.0248,1.435,6.125,-0.105,0.00,0.0368,0.0254,0.0200,0.0174,2025-06-11T08:05:57.684897
2453,0.0449,0.1776,1.0873,5.740,5.110,2.555,0.01,0.0184,0.0254,0.0200,0.0087,2025-06-11T08:05:57.684897
2454,-0.0547,0.1962,1.2273,18.410,-4.060,21.070,0.01,0.0184,0.0508,0.0200,0.0174,2025-06-11T08:05:57.684897
2455,-0.1806,0.1723,1.6831,82.355,-21.700,50.890,0.00,0.0184,0.0508,0.0200,0.0087,2025-06-11T08:05:57.684897
2456,-0.3616,0.3182,2.2492,154.700,-50.050,115.815,0.00,0.0184,0.0254,0.0100,0.0087,2025-06-11T08:05:57.684897
2457,-0.5085,0.4846,2.8558,259.490,-131.635,194.460,0.00,0.0184,0.0254,0.0100,0.0087,2025-06-11T08:05:57.684897
2458,-0.5905,0.2137,2.8045,312.165,-242.760,231.665,0.01,0.0184,0.0508,0.0200,0.0087,2025-06-11T08:05:57.684897
2459,-0.6168,0.2015,2.3546,268.555,-413.560,194.775,0.00,0.0184,0.0254,0.0100,0.0174,2025-06-11T08:05:57.684897
2460,-0.3138,-0.0102,1.5582,167.580,-497.560,94.605,0.01,0.0184,0.0254,0.0200,0.0174,2025-06-11T08:05:57.685890
2461,-0.0586,0.3030,0.5456,194.985,-503.615,52.780,0.00,0.0368,0.0254,0.0200,0.0174,2025-06-11T08:05:57.774639
2462,0.2352,0.2772,-0.5256,287.525,-504.560,79.695,0.01,0.0368,0.0508,0.0200,0.0087,2025-06-11T08:05:57.774639
2463,0.3123,-0.0722,-0.6632,266.665,-479.745,-1.750,0.01,0.0184,0.0508,0.0100,0.0087,2025-06-11T08:05:57.774639
2464,0.6407,0.6978,-2.0423,-98.140,-593.740,44.940,0.01,0.0184,0.0508,0.0200,0.0087,2025-06-11T08:05:57.774639
2465,0.4963,-0.0444,-3.5878,-161.770,-665.105,314.825,0.00,0.0184,0.0254,0.0100,0.0087,2025-06-11T08:05:57.774639
2466,0.4758,-1.3810,-3.7322,-305.550,-359.800,349.265,0.01,0.0368,0.0508,0.0200,0.0087,2025-06-11T08:05:57.774639
2467,0.2821,-1.3474,-3.0402,-272.230,400.330,24.850,0.00,0.0184,0.0508,0.0200,0.0087,2025-06-11T08:05:57.957255
2468,-0.4128,-1.0902,-2.1531,-423.080,938.385,-201.950,0.00,0.0184,0.0508,0.0200,0.0174,2025-06-11T08:05:57.957255
2469,-1.3220,-1.2561,-1.4264,-548.555,1146.740,-296.555,0.00,0.0184,0.0254,0.0200,0.0087,2025-06-11T08:05:57.957255
2470,-2.5791,-0.6329,0.0195,-466.410,1146.740,-220.150,0.01,0.0368,0.0254,0.0100,0.0087,2025-06-11T08:05:57.957255
2471,-4.5799,1.4660,2.2575,52.430,1024.205,-34.545,0.00,0.0368,0.0508,0.0100,0.0000,2025-06-11T08:05:57.957255
2472,-4.7214,4.0480,15.6150,1117.305,720.755,270.060,0.01,0.0368,0.0254,0.0200,0.0087,2025-06-11T08:05:57.957255
2473,-0.8228,-0.0005,8.5166,639.030,507.255,531.545,0.01,0.0368,0.0508,0.0200,0.0174,2025-06-11T08:05:57.957255
2474,-3.1964,-0.0503,8.7572,377.475,-313.250,500.570,0.01,0.0368,0.0508,0.0100,0.0087,2025-06-11T08:05:57.957255
2475,-2.7518,-0.1767,3.6000,-128.765,-651.385,400.785,0.00,0.0368,0.0254,0.0100,0.0087,2025-06-11T08:05:57.957255
2476,-3.2779,0.2499,1.8183,-340.970,-1057.105,97.930,0.00,0.0368,0.0254,0.0200,0.0087,2025-06-11T08:05:57.958316
2477,-2.7967,0.1401,-0.4285,-192.255,-1146.530,-113.750,0.00,0.0368,0.0254,0.0200,0.0087,2025-06-11T08:05:57.958316
2478,-1.7202,0.3011,-2.6006,-88.060,-940.030,-17.745,0.01,0.0184,0.0508,0.0200,0.0087,2025-06-11T08:05:57.958316
2479,0.3684,-0.4412,-3.7220,568.470,-738.080,-93.695,0.00,0.0184,0.0508,0.0100,0.0087,2025-06-11T08:05:57.958316
2480,1.1814,-0.3645,-6.6695,-124.705,-1146.740,267.715,0.01,0.0368,0.0254,0.0200,0.0087,2025-06-11T08:05:57.958316
2481,0.2669,-3.1071,-5.5910,-165.795,-975.625,733.390,0.00,0.0552,0.0508,0.0200,0.0087,2025-06-11T08:05:58.234375
2482,0.3928,-1.5592,-3.5844,-195.475,-307.300,258.930,0.00,0.0184,0.0508,0.0200,0.0087,2025-06-11T08:05:58.234375
2483,0.6471,-1.1761,-4.2471,-394.065,718.270,-183.190,0.00,0.0368,0.0254,0.0000,0.0087,2025-06-11T08:05:58.234375
2484,-0.4919,-0.4368,-2.3073,-550.200,1146.740,-251.370,0.01,0.0368,0.0508,0.0200,0.0087,2025-06-11T08:05:58.234375
2485,-1.6411,-0.1181,-1.4928,-561.925,1146.740,-194.040,0.00,0.0368,0.0508,0.0200,0.0087,2025-06-11T08:05:58.234375
2486,-3.1964,-0.1742,-0.8130,-561.890,1146.740,-64.050,0.01,0.0184,0.0254,0.0100,0.0087,2025-06-11T08:05:58.234375
2487,-4.4413,0.2562,1.8115,-234.080,1146.740,151.585,0.00,0.0368,0.0254,0.0100,0.0087,2025-06-11T08:05:58.234375
2488,-4.2871,0.7701,10.3012,819.385,301.035,339.535,0.00,0.0368,0.0254,0.0100,0.0174,2025-06-11T08:05:58.234375
2489,-2.4922,-0.9770,11.9653,288.155,-37.170,56.735,0.00,0.0368,0.0254,0.0200,0.0174,2025-06-11T08:05:58.234375
2490,-3.1061,-0.2777,5.9077,-191.975,-660.240,25.970,0.00,0.0368,0.0508,0.0200,0.0174,2025-06-11T08:05:58.234375
2491,-3.4331,-0.0112,3.1954,-8.505,-1048.670,2.100,0.01,0.0368,0.0508,0.0200,0.0174,2025-06-11T08:05:58.235383
2492,-2.6947,0.4807,0.9126,137.305,-989.765,11.095,0.01,0.0368,0.0508,0.0100,0.0174,2025-06-11T08:05:58.235383
2493,-1.7744,0.0883,-0.5685,458.885,-827.610,66.955,0.00,0.0184,0.0254,0.0200,0.0087,2025-06-11T08:05:58.235585
2494,-0.7862,0.1581,-1.2337,857.115,-798.980,65.520,0.01,0.0368,0.0254,0.0200,0.0174,2025-06-11T08:05:58.235585
2495,-0.3192,0.3577,-2.9666,275.660,-923.195,214.305,0.00,0.0184,0.0254,0.0200,0.0087,2025-06-11T08:05:58.235585
2496,0.2113,-1.0121,-4.5291,-43.540,-835.485,477.715,0.01,0.0184,0.0508,0.0100,0.0087,2025-06-11T08:05:58.809313
2497,0.1884,-1.6187,-4.5550,-179.515,-446.530,373.625,0.00,0.0368,0.0508,0.0200,0.0087,2025-06-11T08:05:58.809313
2498,0.2542,-1.3474,-4.7722,-163.975,187.565,46.690,0.01,0.0184,0.0254,0.0200,0.0174,2025-06-11T08:05:58.809313
2499,0.2616,-0.4582,-4.2944,-334.215,617.750,-71.225,0.00,0.0184,0.0508,0.0100,0.0174,2025-06-11T08:05:58.809313
2500,-0.7969,0.2279,-2.5566,-661.185,1146.740,-184.275,0.01,0.0368,0.0508,0.0100,0.0087,2025-06-11T08:05:58.809313
2501,-2.1072,-0.1161,-0.9540,-588.630,1146.740,-117.985,0.00,0.0184,0.0508,0.0100,0.0174,2025-06-11T08:05:58.809313
2502,-4.0660,-1.1902,-1.0570,-401.520,1146.740,-147.595,0.01,0.0368,0.0254,0.0100,0.0174,2025-06-11T08:05:58.810304
2503,-6.3396,-0.2430,2.3795,35.245,1146.740,109.760,0.01,0.0368,0.0508,0.0100,0.0087,2025-06-11T08:05:58.810304
2504,-4.1417,1.8500,13.2472,1029.560,575.750,55.755,0.01,0.0184,0.0508,0.0100,0.0087,2025-06-11T08:05:58.810304
2505,-4.1866,4.3720,4.1953,549.185,655.795,413.525,0.00,0.0368,0.0254,0.0100,0.0087,2025-06-11T08:05:58.810304
2506,-3.4999,1.0087,2.4478,224.105,-170.625,688.485,0.01,0.0184,0.0508,0.0100,0.0087,2025-06-11T08:05:58.810304
2507,-3.8957,0.0410,3.6234,-83.125,-672.280,562.940,0.00,0.0368,0.0508,0.0200,0.0087,2025-06-11T08:05:58.810304
2508,-3.2091,-0.0752,1.2766,-442.190,-1089.130,107.555,0.00,0.0368,0.0254,0.0100,0.0087,2025-06-11T08:05:58.810304
2509,-2.4088,-0.3875,-0.6046,-313.985,-1146.740,-189.140,0.00,0.0184,0.0508,0.0100,0.0087,2025-06-11T08:05:58.811298
2510,-1.0619,-0.4714,-1.8871,-103.915,-1011.920,-187.145,0.01,0.0184,0.0254,0.0200,0.0087,2025-06-11T08:05:58.811298
2511,-0.5466,0.9130,-4.4837,707.595,-887.180,-56.490,0.00,0.0184,0.0254,0.0100,0.0174,2025-06-11T08:05:58.811298
2512,-1.2600,-0.9662,-10.9639,-117.110,-1146.740,729.645,0.00,0.0368,0.0254,0.0200,0.0174,2025-06-11T08:05:58.811298
2513,-1.4996,-1.9100,-6.1664,-250.145,-1125.285,925.435,0.01,0.0368,0.0254,0.0100,0.0087,2025-06-11T08:05:58.811298
2514,0.4734,-0.8135,-4.2407,-140.035,-265.055,456.995,0.01,0.0368,0.0508,0.0100,0.0087,2025-06-11T08:05:58.811298
2515,0.2908,-0.6852,-4.4252,-332.885,1093.400,14.735,0.01,0.0368,0.0254,0.0100,0.0087,2025-06-11T08:05:58.811298
2516,-1.3776,-0.6237,-2.4873,-525.000,1146.740,-164.640,0.01,0.0368,0.0254,0.0200,0.0087,2025-06-11T08:05:58.812293
2517,-2.8997,-0.9604,-1.2727,-467.845,1146.740,-189.490,0.01,0.0184,0.0254,0.0100,0.0087,2025-06-11T08:05:58.812293
2518,-5.9985,-0.1664,-1.5406,-313.740,1146.740,-85.575,0.00,0.0184,0.0508,0.0100,0.0087,2025-06-11T08:05:58.812293
2519,-7.8939,1.3825,4.6584,733.985,1146.740,431.515,0.01,0.0368,0.0254,0.0100,0.0087,2025-06-11T08:05:58.812293
2520,-2.2482,0.6876,10.5686,739.620,538.755,340.655,0.00,0.0184,0.0254,0.0100,0.0087,2025-06-11T08:05:58.812293
2521,-3.0100,-1.4860,4.9605,-321.930,51.065,59.815,0.01,0.0184,0.0000,0.0100,0.0087,2025-06-11T08:05:58.812293
2522,-1.9325,0.1259,1.9418,-259.070,-570.220,-99.085,0.00,0.0184,0.0254,0.0100,0.0174,2025-06-11T08:05:58.812293
2523,-2.2360,0.3762,2.0340,-589.505,-1007.825,-201.285,0.00,0.0184,0.0508,0.0100,0.0087,2025-06-11T08:05:58.812293
2524,-1.4050,1.5226,-0.2655,-292.600,-1146.740,-129.465,0.00,0.0184,0.0508,0.0100,0.0174,2025-06-11T08:05:58.812293
2525,-0.2040,1.5943,-2.0306,192.115,-965.510,-66.430,0.01,0.0368,0.0254,0.0100,0.0087,2025-06-11T08:05:58.813290
2526,0.6891,0.6368,-3.0378,34.720,-553.140,25.760,0.00,0.0368,0.0508,0.0200,0.0174,2025-06-11T08:05:58.813290
2527,1.4908,0.1118,-1.2234,-81.095,-30.800,20.615,0.01,0.0368,0.0508,0.0200,0.0174,2025-06-11T08:05:58.813290
2528,1.2107,0.3616,-0.8911,29.260,354.865,43.085,0.01,0.0368,0.0254,0.0200,0.0087,2025-06-11T08:05:58.813290
2529,0.6173,0.2352,-0.5480,-34.300,616.210,55.615,0.00,0.0184,0.0254,0.0100,0.0087,2025-06-11T08:05:58.813290
2530,-0.1518,0.2508,0.3982,-27.300,703.605,91.385,0.00,0.0184,0.0508,0.0200,0.0087,2025-06-11T08:05:58.813290
2531,-0.5461,0.1171,1.2171,57.120,584.885,93.730,0.01,0.0184,0.0254,0.0100,0.0174,2025-06-11T08:05:58.813290
2532,-0.6622,-0.0337,2.2843,61.845,364.595,26.460,0.00,0.0184,0.0508,0.0100,0.0087,2025-06-11T08:05:58.813290
2533,-0.4743,-0.0390,2.9412,-1.085,29.925,-18.375,0.01,0.0368,0.0508,0.0100,0.0174,2025-06-11T08:05:58.813290
2534,-0.4021,-0.0224,2.5791,-92.120,-142.345,-48.720,0.00,0.0368,0.0508,0.0200,0.0087,2025-06-11T08:05:58.814288
2535,-0.1981,0.0361,1.8373,-47.320,-208.320,-56.245,0.01,0.0184,0.0254,0.0200,0.0174,2025-06-11T08:05:58.814288
2536,-0.0517,0.1718,1.0936,-5.635,-206.255,-45.675,0.00,0.0184,0.0254,0.0200,0.0174,2025-06-11T08:05:58.814288
2537,0.1703,0.2269,0.5695,6.265,-147.665,-33.950,0.00,0.0184,0.0254,0.0200,0.0174,2025-06-11T08:05:58.814288
2538,0.3357,0.2479,0.2879,10.185,-105.910,-21.385,0.00,0.0368,0.0254,0.0100,0.0087,2025-06-11T08:05:58.814288
2539,0.4294,0.2991,0.2987,-1.225,-44.590,-4.095,0.00,0.0184,0.0254,0.0200,0.0087,2025-06-11T08:05:58.814288
2540,0.4787,0.3250,0.3665,-5.950,10.605,5.040,0.00,0.0368,0.0508,0.0200,0.0087,2025-06-11T08:05:58.814288
2541,0.4270,0.3094,0.5832,-8.050,68.600,17.955,0.01,0.0368,0.0508,0.0100,0.0174,2025-06-11T08:05:59.081469
2542,0.3172,0.2513,0.8764,-0.735,97.650,23.275,0.01,0.0184,0.0254,0.0200,0.0174,2025-06-11T08:05:59.081469
2543,0.1893,0.1654,1.1024,3.325,83.125,22.365,0.00,0.0184,0.0508,0.0100,0.0174,2025-06-11T08:05:59.081469
2544,0.0922,0.1259,1.2073,-2.870,52.500,12.880,0.01,0.0184,0.0508,0.0200,0.0087,2025-06-11T08:05:59.081469
2545,0.0688,0.1469,1.2961,5.075,20.860,4.865,0.01,0.0184,0.0254,0.0200,0.0087,2025-06-11T08:05:59.081469
2546,0.0908,0.1669,1.2390,-0.035,-4.970,-1.785,0.01,0.0184,0.0254,0.0100,0.0087,2025-06-11T08:05:59.081469
2547,0.1020,0.1581,1.1649,3.150,-21.805,-4.060,0.01,0.0184,0.0254,0.0100,0.0087,2025-06-11T08:05:59.081469
2548,0.1210,0.1669,1.0228,6.860,-23.380,-3.605,0.00,0.0184,0.0254,0.0100,0.0087,2025-06-11T08:05:59.081469
2549,0.1796,0.2298,0.9418,9.485,-18.445,-0.945,0.01,0.0184,0.0254,0.0000,0.0087,2025-06-11T08:05:59.082115
2550,0.2259,0.2342,0.8945,4.935,-20.265,-0.980,0.00,0.0184,0.0254,0.0100,0.0087,2025-06-11T08:05:59.082115
2551,0.2352,0.2074,0.8926,-2.100,-22.470,-0.595,0.00,0.0184,0.0254,0.0200,0.0087,2025-06-11T08:05:59.082115
2552,0.2411,0.2006,0.8808,0.945,-7.315,2.380,0.00,0.0184,0.0254,0.0200,0.0087,2025-06-11T08:05:59.082115
2553,0.2377,0.2289,0.8960,7.735,11.375,6.895,0.00,0.0184,0.0508,0.0200,0.0174,2025-06-11T08:05:59.082115
2554,0.2142,0.1991,0.9765,9.975,15.260,7.910,0.00,0.0184,0.0254,0.0100,0.0087,2025-06-11T08:05:59.082115
2555,0.1752,0.1786,1.0014,2.345,6.475,5.425,0.00,0.0368,0.0508,0.0100,0.0087,2025-06-11T08:05:59.082115
2556,0.1684,0.1859,1.0087,-1.470,1.295,2.800,0.00,0.0184,0.0508,0.0200,0.0174,2025-06-11T08:05:59.239084
2557,0.1684,0.2040,1.0199,3.220,3.115,2.800,0.00,0.0368,0.0508,0.0200,0.0087,2025-06-11T08:05:59.239084
2558,0.1796,0.1986,1.0131,3.045,1.855,2.765,0.01,0.0184,0.0508,0.0200,0.0087,2025-06-11T08:05:59.239084
2559,0.1767,0.1942,0.9999,2.100,-4.270,1.680,0.00,0.0184,0.0508,0.0100,0.0087,2025-06-11T08:05:59.239084
2560,0.1850,0.2079,0.9706,-0.455,-3.920,0.840,0.01,0.0368,0.0508,0.0200,0.0087,2025-06-11T08:05:59.239084
2561,0.2098,0.2225,0.9604,1.260,-0.420,2.310,0.00,0.0184,0.0254,0.0100,0.0087,2025-06-11T08:05:59.239084
2562,0.2001,0.2186,0.9545,3.465,1.995,4.025,0.00,0.0184,0.0508,0.0100,0.0174,2025-06-11T08:05:59.239084
2563,0.1830,0.1908,0.9838,2.380,1.225,3.290,0.00,0.0184,0.0254,0.0100,0.0000,2025-06-11T08:05:59.239084
2564,0.1776,0.1952,0.9902,-0.840,0.665,1.435,0.00,0.0184,0.0508,0.0100,0.0087,2025-06-11T08:05:59.239084
2565,0.1796,0.2059,0.9814,-0.595,1.260,1.470,0.01,0.0184,0.0508,0.0200,0.0174,2025-06-11T08:05:59.239084
2566,0.1810,0.2084,0.9770,0.735,3.640,2.590,0.00,0.0368,0.0254,0.0100,0.0087,2025-06-11T08:05:59.239084
2567,0.1747,0.2113,0.9745,1.645,5.635,4.165,0.00,0.0184,0.0254,0.0100,0.0087,2025-06-11T08:05:59.239084
2568,0.1669,0.2006,0.9906,2.520,5.775,4.830,0.00,0.0184,0.0254,0.0100,0.0087,2025-06-11T08:05:59.240149
2569,0.1625,0.2020,0.9887,2.205,5.635,4.655,0.01,0.0368,0.0254,0.0100,0.0087,2025-06-11T08:05:59.240149
2570,0.1776,0.2089,0.9867,1.505,4.235,4.375,0.01,0.0368,0.0254,0.0100,0.0087,2025-06-11T08:05:59.240149
2571,0.1786,0.2098,0.9828,1.330,2.870,4.130,0.01,0.0368,0.0508,0.0100,0.0087,2025-06-11T08:05:59.240149
2572,0.1776,0.2030,0.9706,0.280,3.185,3.535,0.01,0.0184,0.0254,0.0100,0.0087,2025-06-11T08:05:59.240149
2573,0.1830,0.2103,0.9360,0.490,5.110,3.675,0.01,0.0184,0.0508,0.0100,0.0087,2025-06-11T08:05:59.389465
2574,0.1889,0.2762,0.8457,3.710,11.900,1.365,0.00,0.0184,0.0508,0.0100,0.0174,2025-06-11T08:05:59.389808
2575,0.2523,0.2913,0.7525,4.795,21.455,14.455,0.00,0.0368,0.0254,0.0200,0.0087,2025-06-11T08:05:59.389808
2576,0.1576,0.2196,0.9360,11.585,47.495,21.630,0.00,0.0184,0.0254,0.0200,0.0174,2025-06-11T08:05:59.389808
2577,0.1405,0.2123,0.9609,21.490,58.030,20.230,0.01,0.0184,0.0254,0.0100,0.0087,2025-06-11T08:05:59.389808
2578,0.1103,0.2172,1.0546,26.565,54.985,18.830,0.00,0.0184,0.0508,0.0100,0.0174,2025-06-11T08:05:59.389808
2579,0.0913,0.1923,1.1239,18.515,45.745,13.615,0.01,0.0368,0.0254,0.0100,0.0174,2025-06-11T08:05:59.389808
2580,0.0859,0.1762,1.1312,8.470,30.415,2.975,0.00,0.0368,0.0254,0.0200,0.0087,2025-06-11T08:05:59.390462
2581,0.0927,0.2069,1.1151,-5.320,17.010,-3.920,0.00,0.0368,0.0254,0.0200,0.0087,2025-06-11T08:05:59.390462
2582,0.0810,0.2162,1.0638,-9.135,4.550,-7.525,0.00,0.0184,0.0508,0.0100,0.0087,2025-06-11T08:05:59.390462
2583,0.0517,0.2098,1.0375,-8.540,-0.665,-7.175,0.00,0.0184,0.0254,0.0100,0.0087,2025-06-11T08:05:59.390462
2584,0.0449,0.2533,1.0853,0.665,1.470,-1.365,0.00,0.0184,0.0254,0.0100,0.0000,2025-06-11T08:05:59.390928
2585,-0.0600,0.2957,1.3313,31.325,-2.975,20.825,0.00,0.0368,0.0254,0.0100,0.0087,2025-06-11T08:05:59.390928
2586,-0.2362,0.4372,1.8007,123.375,-21.385,64.925,0.01,0.0368,0.0508,0.0100,0.0174,2025-06-11T08:05:59.477016
2587,-0.4348,0.7725,2.5420,236.670,-59.570,143.115,0.01,0.0368,0.0508,0.0200,0.0087,2025-06-11T08:05:59.477016
2588,-0.6368,1.2420,3.1759,366.870,-139.195,228.550,0.00,0.0368,0.0254,0.0200,0.0087,2025-06-11T08:05:59.477016
2589,-1.1219,1.6124,3.1481,488.390,-334.705,386.715,0.00,0.0368,0.0508,0.0200,0.0087,2025-06-11T08:05:59.477016
2590,-0.3953,0.4348,2.2424,464.730,-535.955,458.185,0.00,0.0368,0.0508,0.0200,0.0087,2025-06-11T08:05:59.594804
2591,-0.8096,-0.0932,2.4468,380.275,-504.805,284.270,0.00,0.0184,0.0254,0.0100,0.0174,2025-06-11T08:05:59.594804
2592,-0.6002,-0.4943,1.4279,282.310,-553.630,178.045,0.01,0.0184,0.0508,0.0200,0.0174,2025-06-11T08:05:59.594804
2593,-0.8052,-0.4646,-0.8252,621.250,-696.570,211.960,0.01,0.0184,0.0254,0.0100,0.0174,2025-06-11T08:05:59.594804
2594,-0.7003,-1.0346,-2.4561,-0.560,-971.425,384.615,0.00,0.0368,0.0254,0.0100,0.0087,2025-06-11T08:05:59.594804
2595,-0.4148,-1.5445,-2.4298,-288.855,-857.010,391.125,0.01,0.0368,0.0508,0.0200,0.0087,2025-06-11T08:05:59.594804
2596,-0.2084,-1.2254,-3.9152,-428.925,-466.095,256.025,0.00,0.0368,0.0508,0.0100,0.0087,2025-06-11T08:05:59.595588
2597,-0.6207,-2.8655,-4.1173,-601.895,-288.645,417.025,0.00,0.0184,0.0508,0.0100,0.0087,2025-06-11T08:05:59.595588
2598,-0.3714,-1.3708,-2.6786,-189.840,49.875,184.625,0.01,0.0184,0.0254,0.0200,0.0087,2025-06-11T08:05:59.595588
2599,0.3645,-0.4719,-2.0091,-276.920,652.015,-169.750,0.00,0.0184,0.0254,0.0000,0.0174,2025-06-11T08:05:59.595588
2600,-0.7071,-0.3255,-1.6045,-579.495,1146.740,-366.170,0.00,0.0184,0.0508,0.0100,0.0087,2025-06-11T08:05:59.595588
2601,-1.9613,-0.9858,-0.3514,-671.300,1146.740,-390.215,0.00,0.0368,0.0254,0.0200,0.0174,2025-06-11T08:05:59.849141
2602,-4.0465,-0.6251,0.6310,-619.080,1146.740,-213.220,0.01,0.0184,0.0254,0.0200,0.0174,2025-06-11T08:05:59.849141
2603,-4.9630,4.2310,5.0215,595.175,1039.010,380.065,0.00,0.0368,0.0254,0.0200,0.0087,2025-06-11T08:05:59.849141
2604,-1.0712,1.7944,9.5155,1139.670,700.035,491.785,0.00,0.0368,0.0508,0.0100,0.0087,2025-06-11T08:05:59.850204
2605,-0.6334,1.2273,8.6396,398.895,134.575,664.090,0.00,0.0368,0.0254,0.0200,0.0087,2025-06-11T08:05:59.850204
2606,-1.6860,0.6300,6.4436,378.315,-569.870,504.980,0.01,0.0368,0.0254,0.0200,0.0174,2025-06-11T08:05:59.850204
2607,-1.6148,0.4338,2.8187,-302.015,-749.175,138.110,0.01,0.0184,0.0254,0.0200,0.0087,2025-06-11T08:05:59.850204
2608,-1.5333,0.2840,0.3606,-257.775,-983.010,-15.610,0.00,0.0184,0.0254,0.0200,0.0174,2025-06-11T08:05:59.850204
2609,-1.5011,-0.3240,-0.5251,212.345,-967.015,-5.145,0.01,0.0000,0.0508,0.0100,0.0087,2025-06-11T08:05:59.850204
2610,-1.2790,0.7935,-1.9125,-101.500,-1146.740,321.475,0.00,0.0184,0.0254,0.0100,0.0087,2025-06-11T08:05:59.850204
2611,-1.1419,0.1659,-6.7139,-455.490,-1141.210,479.010,0.00,0.0184,0.0254,0.0100,0.0174,2025-06-11T08:05:59.850204
2612,-0.0669,1.3830,-7.4649,-317.030,-967.610,764.750,0.01,0.0368,0.0508,0.0200,0.0087,2025-06-11T08:05:59.850204
2613,0.0273,-2.1238,-3.4487,93.625,-410.375,251.195,0.00,0.0184,0.0254,0.0100,0.0087,2025-06-11T08:05:59.850204
2614,0.2772,-1.1068,-3.2662,-274.400,864.010,-204.610,0.00,0.0368,0.0254,0.0100,0.0087,2025-06-11T08:05:59.851196
2615,-0.1835,-0.8350,-2.4341,-542.570,1146.740,-379.435,0.01,0.0184,0.0254,0.0100,0.0087,2025-06-11T08:05:59.851196
2616,-1.5162,0.4021,-0.5754,-402.430,1146.740,-303.345,0.00,0.0368,0.0508,0.0200,0.0174,2025-06-11T08:06:00.111166
2617,-4.2007,0.6656,0.1342,-232.575,1146.740,-141.225,0.01,0.0368,0.0254,0.0200,0.0087,2025-06-11T08:06:00.111166
2618,-4.7141,-0.3489,6.1766,235.340,1146.740,58.065,0.01,0.0184,0.0508,0.0100,0.0087,2025-06-11T08:06:00.111166
2619,-1.0541,0.5441,5.2162,376.390,333.165,249.025,0.01,0.0368,0.0508,0.0200,0.0087,2025-06-11T08:06:00.111166
2620,-3.4814,1.2410,9.3681,256.795,-19.215,217.770,0.00,0.0184,0.0508,0.0200,0.0087,2025-06-11T08:06:00.111166
2621,-3.6946,0.4943,5.0498,-162.855,-740.250,143.605,0.01,0.0368,0.0254,0.0100,0.0174,2025-06-11T08:06:00.111166
2622,-3.0183,0.6866,1.5157,-374.990,-1146.740,26.075,0.01,0.0368,0.0254,0.0200,0.0087,2025-06-11T08:06:00.111166
2623,-1.9481,0.8652,0.6159,58.100,-1146.740,-45.255,0.00,0.0368,0.0508,0.0200,0.0087,2025-06-11T08:06:00.111166
2624,-1.5987,0.8647,-0.5954,711.865,-1146.740,208.845,0.00,0.0184,0.0254,0.0100,0.0087,2025-06-11T08:06:00.111166
2625,-1.0770,-0.5651,-4.8507,482.405,-1145.585,567.175,0.00,0.0000,0.0254,0.0000,0.0087,2025-06-11T08:06:00.111166
2626,-1.0199,-1.7548,-4.5325,-9.520,-917.945,584.745,0.01,0.0184,0.0254,0.0100,0.0087,2025-06-11T08:06:00.111166
2627,-0.6251,-2.0906,-4.4906,-20.650,-693.980,354.830,0.00,0.0184,0.0254,0.0100,0.0087,2025-06-11T08:06:00.111949
2628,0.1181,-1.3308,-3.8562,-134.540,55.440,-3.395,0.00,0.0184,0.0508,0.0100,0.0087,2025-06-11T08:06:00.111949
2629,0.2723,-0.9062,-4.4032,-257.390,672.770,-273.840,0.00,0.0184,0.0254,0.0100,0.0087,2025-06-11T08:06:00.111949
2630,-0.7828,-0.1845,-3.2106,-464.100,1146.530,-312.235,0.01,0.0184,0.0508,0.0100,0.0087,2025-06-11T08:06:00.111949
2631,-1.7339,0.2528,-1.1488,-405.860,1146.740,-245.525,0.00,0.0368,0.0508,0.0200,0.0087,2025-06-11T08:06:00.111949
2632,-3.1247,0.0703,-0.0742,-254.590,1146.740,-238.280,0.01,0.0368,0.0254,0.0200,0.0087,2025-06-11T08:06:00.206509
2633,-5.3124,-1.1341,1.3967,-185.115,1146.740,-68.810,0.00,0.0184,0.0508,0.0200,0.0174,2025-06-11T08:06:00.206509
2634,-2.7709,1.1136,4.3373,59.395,721.420,-203.875,0.01,0.0184,0.0508,0.0200,0.0087,2025-06-11T08:06:00.206509
2635,-2.0028,1.0819,7.2663,163.835,-47.075,210.315,0.01,0.0368,0.0508,0.0200,0.0174,2025-06-11T08:06:00.206509
2636,-2.9334,0.1815,6.8340,180.600,-90.440,129.290,0.00,0.0184,0.0254,0.0100,0.0087,2025-06-11T08:06:00.206509
2637,-3.1359,0.2464,4.4164,22.715,-404.775,114.555,0.00,0.0184,0.0254,0.0200,0.0087,2025-06-11T08:06:00.206509
2638,-2.8280,1.0941,2.7850,-179.445,-1076.180,90.160,0.00,0.0184,0.0254,0.0200,0.0087,2025-06-11T08:06:00.206509
2639,-1.7392,1.1278,0.2933,68.285,-1052.205,-41.545,0.00,0.0184,0.0254,0.0100,0.0087,2025-06-11T08:06:00.206509
2640,-1.5938,0.7823,0.2381,717.885,-1146.740,225.050,0.00,0.0184,0.0254,0.0100,0.0087,2025-06-11T08:06:00.206509
2641,-1.1649,-0.3250,-3.8776,504.945,-1146.390,499.765,0.00,0.0184,0.0254,0.0100,0.0087,2025-06-11T08:06:00.206509
2642,-1.0634,-1.3430,-3.8269,77.700,-988.365,643.545,0.00,0.0368,0.0254,0.0100,0.0087,2025-06-11T08:06:00.206509
2643,-0.8520,-2.3785,-3.8723,71.435,-924.455,583.835,0.00,0.0368,0.0508,0.0100,0.0087,2025-06-11T08:06:00.206509
2644,-0.1322,-2.0594,-4.0016,75.215,-329.560,188.160,0.00,0.0184,0.0254,0.0100,0.0087,2025-06-11T08:06:00.206509
2645,0.2850,-1.3781,-4.4271,-161.875,232.050,-93.275,0.00,0.0184,0.0254,0.0100,0.0087,2025-06-11T08:06:00.206509
2646,-0.6178,-1.1009,-4.0187,-357.945,886.200,-303.835,0.00,0.0184,0.0254,0.0200,0.0174,2025-06-11T08:06:00.969386
2647,-1.4484,-0.5109,-2.5108,-475.825,1146.740,-341.845,0.00,0.0184,0.0254,0.0100,0.0087,2025-06-11T08:06:00.969386
2648,-2.7967,-0.3265,-0.8843,-447.125,1146.740,-288.050,0.00,0.0184,0.0508,0.0200,0.0087,2025-06-11T08:06:00.969386
2649,-4.0153,-0.6061,0.0688,-394.135,1146.740,-280.140,0.00,0.0368,0.0254,0.0200,0.0087,2025-06-11T08:06:00.970433
2650,-4.4715,-0.0834,1.4967,-284.655,1146.110,-91.665,0.01,0.0368,0.0508,0.0200,0.0174,2025-06-11T08:06:00.970433
2651,-2.0252,2.0301,5.7769,-16.835,625.520,-278.355,0.00,0.0184,0.0254,0.0100,0.0087,2025-06-11T08:06:00.970433
2652,-1.3830,0.9521,5.8077,34.545,418.880,278.110,0.01,0.0184,0.0254,0.0100,0.0087,2025-06-11T08:06:00.970433
2653,-3.1632,0.1362,6.9774,275.135,198.205,123.025,0.00,0.0184,0.0508,0.0100,0.0087,2025-06-11T08:06:00.970433
2654,-3.2237,0.4880,4.7531,60.970,-159.075,116.725,0.00,0.0368,0.0254,0.0200,0.0087,2025-06-11T08:06:00.970433
2655,-3.3667,0.9902,2.7509,-320.880,-1041.075,8.855,0.00,0.0000,0.0254,0.0100,0.0087,2025-06-11T08:06:00.970433
2656,-2.3380,0.3719,0.8789,11.410,-1061.795,11.340,0.00,0.0184,0.0254,0.0100,0.0087,2025-06-11T08:06:00.970433
2657,-2.5317,0.8164,0.5802,787.325,-1146.740,257.565,0.00,0.0368,0.0254,0.0100,0.0087,2025-06-11T08:06:00.970433
2658,-2.0335,-0.2450,-2.8670,542.010,-1115.345,526.645,0.00,0.0184,0.0254,0.0100,0.0087,2025-06-11T08:06:00.970433
2659,-1.7602,-1.3483,-3.4804,176.225,-1110.655,691.320,0.01,0.0368,0.0254,0.0100,0.0087,2025-06-11T08:06:00.970433
2660,-1.3078,-2.3707,-3.6634,64.715,-1067.395,720.020,0.00,0.0184,0.0254,0.0200,0.0174,2025-06-11T08:06:00.970433
2661,-0.7984,-2.6542,-3.7796,65.030,-653.870,376.040,0.01,0.0368,0.0508,0.0200,0.0087,2025-06-11T08:06:00.970433
2662,-0.2259,-1.6392,-4.4959,-165.865,-170.240,43.575,0.01,0.0184,0.0254,0.0100,0.0087,2025-06-11T08:06:00.971430
2663,-0.3089,-1.3064,-4.7292,-392.490,556.780,-208.110,0.00,0.0184,0.0508,0.0100,0.0087,2025-06-11T08:06:00.971430
2664,-0.8872,-0.5924,-3.7098,-545.895,1088.815,-310.730,0.00,0.0184,0.0508,0.0200,0.0087,2025-06-11T08:06:00.971430
2665,-2.3834,-0.1420,-2.2648,-634.585,1146.740,-266.455,0.01,0.0184,0.0508,0.0200,0.0174,2025-06-11T08:06:00.971430
2666,-3.7957,-0.4377,-0.2704,-570.640,1146.740,-126.630,0.00,0.0184,0.0508,0.0100,0.0087,2025-06-11T08:06:00.971430
2667,-5.8760,-1.3376,0.0849,-482.755,1146.740,-44.100,0.00,0.0184,0.0254,0.0200,0.0087,2025-06-11T08:06:00.971430
2668,-6.1415,1.1253,4.6116,288.435,1145.690,179.095,0.00,0.0368,0.0254,0.0100,0.0087,2025-06-11T08:06:00.971430
2669,-3.0632,5.5642,9.5194,866.705,585.970,443.450,0.01,0.0184,0.0254,0.0200,0.0000,2025-06-11T08:06:00.971430
2670,-3.9904,1.5138,9.2940,303.835,637.385,300.650,0.01,0.0368,0.0254,0.0100,0.0087,2025-06-11T08:06:00.971430
2671,-3.7713,1.1517,0.0332,-246.855,-275.870,200.200,0.00,0.0184,0.0254,0.0200,0.0087,2025-06-11T08:06:00.971430
2672,-2.4781,1.7500,1.2464,-250.600,-1140.440,470.715,0.00,0.0184,0.0254,0.0100,0.0087,2025-06-11T08:06:00.971430
2673,-2.7138,0.3084,2.4473,-327.460,-1146.740,42.490,0.01,0.0368,0.0254,0.0200,0.0087,2025-06-11T08:06:00.971430
2674,-2.1858,0.5836,0.0732,161.315,-1146.740,119.980,0.01,0.0184,0.0254,0.0200,0.0087,2025-06-11T08:06:00.971430
2675,-1.5655,-0.8628,-0.5383,942.865,-582.680,235.480,0.00,0.0184,0.0254,0.0200,0.0000,2025-06-11T08:06:00.971430
2676,-0.7979,-0.8306,-0.7408,55.405,-1044.820,446.740,0.01,0.0368,0.0254,0.0200,0.0087,2025-06-11T08:06:00.971430
2677,-1.2361,-0.9023,-4.8166,-391.510,-1106.665,490.805,0.01,0.0184,0.0254,0.0100,0.0174,2025-06-11T08:06:00.971430
2678,-0.4002,-0.6598,-4.9630,-250.670,-1095.675,746.340,0.01,0.0368,0.0508,0.0200,0.0174,2025-06-11T08:06:00.971430
2679,0.1898,-1.9920,-3.9391,92.785,-423.990,379.050,0.00,0.0368,0.0254,0.0100,0.0087,2025-06-11T08:06:00.971430
2680,0.7618,-0.6154,-3.0598,-103.355,445.655,-64.470,0.01,0.0184,0.0508,0.0200,0.0174,2025-06-11T08:06:00.971430
2681,-0.4836,-0.6944,-3.1647,-528.290,1093.120,-212.135,0.01,0.0184,0.0508,0.0100,0.0087,2025-06-11T08:06:00.971430
2682,-1.1775,-0.4577,-1.2771,-481.565,1146.740,-259.175,0.00,0.0184,0.0508,0.0100,0.0087,2025-06-11T08:06:00.971430
2683,-2.7831,-0.6827,-0.5778,-404.775,1146.740,-214.130,0.01,0.0184,0.0508,0.0200,0.0087,2025-06-11T08:06:00.971430
2684,-4.9703,-0.6505,0.7413,-175.665,1146.740,-157.150,0.01,0.0368,0.0254,0.0200,0.0087,2025-06-11T08:06:00.971430
2685,-4.3998,0.7125,3.6473,397.880,1136.310,-87.815,0.00,0.0184,0.0254,0.0100,0.0087,2025-06-11T08:06:00.971430
2686,-1.7763,0.7442,5.9204,564.725,634.865,173.425,0.00,0.0184,0.0254,0.0100,0.0087,2025-06-11T08:06:00.971430
2687,-2.5947,0.7257,6.1425,-87.955,497.035,-6.195,0.00,0.0184,0.0254,0.0100,0.0087,2025-06-11T08:06:00.971430
2688,0.7779,-0.3870,2.1789,20.300,59.325,40.320,0.00,0.0184,0.0254,0.0100,0.0087,2025-06-11T08:06:00.971430
2689,-0.8433,-0.0913,3.5209,-314.440,-427.945,-0.770,0.00,0.0368,0.0254,0.0100,0.0087,2025-06-11T08:06:00.971430
2690,-0.8032,-0.0981,1.0253,-350.770,-581.140,-132.825,0.00,0.0184,0.0254,0.0100,0.0087,2025-06-11T08:06:00.971430
2691,-0.5754,0.6764,0.6373,-271.600,-498.505,-123.025,0.00,0.0368,0.0508,0.0200,0.0174,2025-06-11T08:06:00.971430
2692,0.0317,0.5807,0.2216,-130.200,-324.205,-74.655,0.01,0.0184,0.0254,0.0200,0.0174,2025-06-11T08:06:00.971430
2693,1.0390,0.0547,-0.0849,-254.870,-102.375,-80.920,0.01,0.0184,0.0508,0.0200,0.0087,2025-06-11T08:06:00.971430
2694,0.7691,-0.0947,-0.0805,-59.570,162.015,-129.885,0.00,0.0184,0.0508,0.0200,0.0174,2025-06-11T08:06:00.971430
2695,0.0522,-0.0952,-0.1742,32.655,321.195,-149.520,0.00,0.0368,0.0508,0.0200,0.0087,2025-06-11T08:06:00.971430
2696,-0.1596,0.0449,-0.4856,-25.095,360.885,-137.760,0.01,0.0184,0.0254,0.0200,0.0087,2025-06-11T08:06:01.028412
2697,0.0639,-0.0722,-0.2303,-166.810,238.000,-53.900,0.00,0.0368,0.0254,0.0100,0.0087,2025-06-11T08:06:01.028412
2698,-0.0644,-0.1347,-0.0913,-278.705,151.165,2.030,0.00,0.0184,0.0254,0.0100,0.0174,2025-06-11T08:06:01.028412
2699,-0.1513,0.1620,0.3806,-274.400,225.155,6.300,0.01,0.0368,0.0508,0.0200,0.0087,2025-06-11T08:06:01.028412
2700,-0.1762,0.3699,0.2938,-24.115,367.535,12.985,0.01,0.0184,0.0254,0.0100,0.0087,2025-06-11T08:06:01.028412
2701,-0.1132,0.2499,0.5895,-151.200,332.220,-34.370,0.00,0.0184,0.0508,0.0100,0.0087,2025-06-11T08:06:01.028412
2702,-1.2790,0.1171,4.3900,-203.420,-123.340,44.870,0.00,0.0184,0.0254,0.0100,0.0000,2025-06-11T08:06:01.028412
2703,-0.4778,0.0483,2.2980,-102.270,-217.455,-130.620,0.00,0.0184,0.0254,0.0100,0.0174,2025-06-11T08:06:01.028412
2704,0.0678,-0.2250,0.6012,54.215,-195.475,-156.240,0.01,0.0184,0.0254,0.0100,0.0087,2025-06-11T08:06:01.028412
2705,-0.2352,-0.3484,0.6120,-36.925,37.170,5.950,0.00,0.0184,0.0254,0.0100,0.0087,2025-06-11T08:06:01.028412
2706,-1.0677,-0.2987,1.0658,-20.720,83.335,-7.105,0.00,0.0184,0.0254,0.0100,0.0174,2025-06-11T08:06:01.028412
2707,-0.5446,-0.0561,1.9066,45.290,-7.525,-55.720,0.01,0.0184,0.0254,0.0200,0.0174,2025-06-11T08:06:01.367701
2708,-0.1235,-0.3372,1.5055,-233.835,70.105,-6.580,0.01,0.0368,0.0508,0.0200,0.0174,2025-06-11T08:06:01.367701
2709,-0.1347,-0.3899,0.6198,94.850,136.220,8.820,0.01,0.0184,0.0254,0.0100,0.0174,2025-06-11T08:06:01.367701
2710,-0.1069,-0.5065,0.7554,107.835,88.865,50.120,0.01,0.0184,0.0254,0.0200,0.0087,2025-06-11T08:06:01.367701
2711,-0.2352,-0.4519,0.7154,-49.175,-7.560,59.255,0.00,0.0184,0.0254,0.0200,0.0174,2025-06-11T08:06:01.367701
2712,0.0005,-0.2220,1.0390,47.530,-24.955,63.980,0.01,0.0368,0.0254,0.0200,0.0087,2025-06-11T08:06:01.367701
2713,-0.0600,-0.0737,0.8638,36.190,-22.645,67.095,0.00,0.0000,0.0254,0.0200,0.0087,2025-06-11T08:06:01.367701
2714,0.1157,0.0498,1.1380,28.280,-27.475,43.925,0.00,0.0368,0.0508,0.0100,0.0087,2025-06-11T08:06:01.367701
2715,-0.3138,0.2582,1.0721,26.810,-43.960,-24.395,0.00,0.0184,0.0254,0.0100,0.0000,2025-06-11T08:06:01.367701
2716,-0.6246,0.2513,0.7832,-3.990,-33.005,-51.870,0.00,0.0184,0.0508,0.0100,0.0087,2025-06-11T08:06:01.368707
2717,-0.2484,0.2630,0.5100,-40.880,-77.350,-59.010,0.00,0.0184,0.0254,0.0100,0.0174,2025-06-11T08:06:01.368707
2718,-0.6739,0.1142,0.6246,-93.275,-101.080,-54.075,0.00,0.0184,0.0254,0.0100,0.0000,2025-06-11T08:06:01.368707
2719,-0.5505,-0.0815,1.1312,-70.630,-103.985,-19.425,0.01,0.0184,0.0254,0.0100,0.0087,2025-06-11T08:06:01.368707
2720,-0.4446,-0.3938,1.1522,-50.540,-71.120,-13.055,0.00,0.0184,0.0508,0.0100,0.0087,2025-06-11T08:06:01.368707
2721,-0.3802,-0.4743,1.1741,10.570,-49.630,3.850,0.00,0.0184,0.0508,0.0200,0.0174,2025-06-11T08:06:01.368707
2722,-0.3050,-0.2655,1.1829,20.475,-4.865,9.730,0.01,0.0184,0.0508,0.0100,0.0174,2025-06-11T08:06:01.465443
2723,-0.2757,0.0000,1.1712,26.880,11.025,4.725,0.01,0.0184,0.0254,0.0200,0.0087,2025-06-11T08:06:01.465443
2724,-0.2333,0.0654,1.0326,21.945,15.015,2.240,0.00,0.0368,0.0508,0.0100,0.0087,2025-06-11T08:06:01.465443
2725,-0.2757,0.0395,0.8589,-5.845,9.380,-0.070,0.01,0.0368,0.0508,0.0200,0.0174,2025-06-11T08:06:01.465443
2726,-0.2786,-0.0756,0.8398,-8.750,-9.205,-2.310,0.00,0.0184,0.0254,0.0200,0.0087,2025-06-11T08:06:01.466512
2727,-0.2679,-0.1542,0.9794,-16.065,-17.185,-2.485,0.00,0.0184,0.0254,0.0100,0.0087,2025-06-11T08:06:01.466512
2728,-0.2542,-0.1889,1.1043,-2.975,-11.865,-2.905,0.00,0.0184,0.0254,0.0100,0.0087,2025-06-11T08:06:01.466512
2729,-0.2279,-0.1864,1.0980,5.425,5.425,1.225,0.00,0.0184,0.0508,0.0200,0.0087,2025-06-11T08:06:01.466512
2730,-0.2572,-0.1435,0.9745,11.200,8.715,2.310,0.01,0.0184,0.0508,0.0100,0.0087,2025-06-11T08:06:01.467504
2731,-0.2708,-0.0961,0.9335,11.550,1.715,1.470,0.00,0.0184,0.0508,0.0100,0.0087,2025-06-11T08:06:01.467504
2732,-0.2669,-0.0586,0.9409,1.855,-3.360,1.820,0.00,0.0184,0.0254,0.0200,0.0000,2025-06-11T08:06:01.467504
2733,-0.2455,-0.0532,1.0302,0.560,-4.515,-0.700,0.00,0.0184,0.0254,0.0200,0.0087,2025-06-11T08:06:01.467504
2734,-0.2450,-0.1020,1.0350,-4.445,8.225,-1.120,0.00,0.0368,0.0254,0.0200,0.0087,2025-06-11T08:06:01.467504
2735,-0.2625,-0.1401,0.9960,0.245,1.785,-1.085,0.00,0.0184,0.0254,0.0200,0.0087,2025-06-11T08:06:01.467504
2736,-0.2747,-0.1513,0.9726,4.935,1.645,0.630,0.00,0.0184,0.0254,0.0100,0.0174,2025-06-11T08:06:01.467504
2737,-0.2713,-0.1240,0.9618,5.075,-0.560,1.435,0.01,0.0368,0.0254,0.0200,0.0087,2025-06-11T08:06:01.467504
2738,-0.2713,-0.0898,0.9765,4.970,-3.500,0.525,0.00,0.0184,0.0254,0.0200,0.0087,2025-06-11T08:06:01.467504
2739,-0.2664,-0.0761,0.9736,-0.700,-4.620,0.665,0.01,0.0368,0.0508,0.0100,0.0087,2025-06-11T08:06:01.547515
2740,-0.2674,-0.0878,0.9828,-3.640,-7.105,-0.385,0.01,0.0184,0.0254,0.0200,0.0087,2025-06-11T08:06:01.547515
2741,-0.2616,-0.1152,0.9955,-4.130,-7.770,-0.700,0.00,0.0368,0.0254,0.0200,0.0087,2025-06-11T08:06:01.547515
2742,-0.2572,-0.1240,1.0136,-2.590,-5.495,-0.175,0.00,0.0368,0.0254,0.0200,0.0174,2025-06-11T08:06:01.547515
2743,-0.2542,-0.1264,1.0209,1.435,-2.905,0.035,0.01,0.0184,0.0254,0.0100,0.0087,2025-06-11T08:06:01.547515
2744,-0.2611,-0.1166,0.9999,2.695,-0.735,0.805,0.01,0.0184,0.0254,0.0100,0.0174,2025-06-11T08:06:01.547515
2745,-0.2660,-0.1035,0.9858,3.325,-1.225,0.525,0.01,0.0368,0.0508,0.0200,0.0174,2025-06-11T08:06:01.818759
2746,-0.2684,-0.0932,0.9731,1.820,-2.975,0.350,0.00,0.0184,0.0508,0.0100,0.0087,2025-06-11T08:06:01.818759
2747,-0.2674,-0.0898,0.9799,-0.595,-5.040,0.070,0.01,0.0368,0.0508,0.0100,0.0087,2025-06-11T08:06:01.818759
2748,-0.2669,-0.0996,0.9902,-1.995,-5.880,-0.280,0.00,0.0184,0.0254,0.0200,0.0087,2025-06-11T08:06:01.818759
2749,-0.2601,-0.1108,0.9980,-2.170,-5.460,-0.070,0.00,0.0184,0.0254,0.0100,0.0087,2025-06-11T08:06:01.818759
2750,-0.2586,-0.1200,1.0004,-0.210,-4.585,-0.105,0.00,0.0184,0.0254,0.0200,0.0087,2025-06-11T08:06:01.818759
2751,-0.2596,-0.1132,1.0019,0.980,-3.395,0.245,0.00,0.0368,0.0254,0.0100,0.0174,2025-06-11T08:06:01.818759
2752,-0.2611,-0.1103,0.9965,1.575,-2.625,0.350,0.00,0.0184,0.0508,0.0100,0.0087,2025-06-11T08:06:01.819801
2753,-0.2660,-0.1044,0.9897,1.085,-2.905,0.350,0.00,0.0368,0.0508,0.0100,0.0000,2025-06-11T08:06:01.819801
2754,-0.2660,-0.1015,0.9828,0.350,-3.710,0.035,0.00,0.0184,0.0508,0.0100,0.0174,2025-06-11T08:06:01.819801
2755,-0.2640,-0.1015,0.9848,-0.350,-4.620,0.105,0.01,0.0184,0.0508,0.0100,0.0174,2025-06-11T08:06:01.819801
2756,-0.2645,-0.1059,0.9931,-0.665,-4.900,0.000,0.00,0.0368,0.0254,0.0100,0.0174,2025-06-11T08:06:01.819801
2757,-0.2621,-0.1088,0.9960,-0.490,-4.655,0.140,0.00,0.0184,0.0254,0.0100,0.0087,2025-06-11T08:06:01.819801
2758,-0.2616,-0.1093,0.9960,0.105,-4.025,0.105,0.00,0.0184,0.0508,0.0100,0.0174,2025-06-11T08:06:01.819801
2759,-0.2606,-0.1083,0.9950,0.490,-3.640,0.105,0.00,0.0368,0.0254,0.0200,0.0087,2025-06-11T08:06:01.819801
2760,-0.2640,-0.1074,0.9921,0.490,-3.605,0.035,0.01,0.0184,0.0254,0.0100,0.0087,2025-06-11T08:06:02.001773
2761,-0.2640,-0.1064,0.9916,0.210,-3.745,0.140,0.00,0.0368,0.0508,0.0100,0.0087,2025-06-11T08:06:02.002772
2762,-0.2655,-0.1054,0.9892,0.140,-4.095,0.070,0.00,0.0368,0.0254,0.0200,0.0087,2025-06-11T08:06:02.002772
2763,-0.2650,-0.1074,0.9916,-0.035,-4.270,0.175,0.00,0.0368,0.0254,0.0100,0.0087,2025-06-11T08:06:02.002772
2764,-0.2621,-0.1064,0.9936,0.070,-4.340,0.140,0.01,0.0184,0.0508,0.0100,0.0087,2025-06-11T08:06:02.002772
2765,-0.2625,-0.1064,0.9945,0.175,-4.095,0.175,0.01,0.0184,0.0508,0.0200,0.0087,2025-06-11T08:06:02.002772
2766,-0.2655,-0.1054,0.9941,0.245,-3.920,0.070,0.00,0.0184,0.0254,0.0100,0.0087,2025-06-11T08:06:02.002772
2767,-0.2640,-0.1039,0.9941,0.070,-3.850,0.070,0.01,0.0368,0.0508,0.0100,0.0087,2025-06-11T08:06:02.002772
2768,-0.2635,-0.1054,0.9921,0.140,-3.955,0.035,0.00,0.0184,0.0254,0.0100,0.0087,2025-06-11T08:06:02.002772
2769,-0.2655,-0.1074,0.9916,0.035,-4.095,0.140,0.00,0.0184,0.0508,0.0200,0.0087,2025-06-11T08:06:02.002772
2770,-0.2635,-0.1078,0.9926,-0.070,-4.165,0.105,0.00,0.0184,0.0254,0.0200,0.0087,2025-06-11T08:06:02.002772
2771,-0.2640,-0.1093,0.9931,0.105,-4.235,0.140,0.00,0.0184,0.0508,0.0100,0.0087,2025-06-11T08:06:02.002772
2772,-0.2630,-0.1064,0.9945,0.140,-4.095,0.105,0.00,0.0368,0.0508,0.0200,0.0087,2025-06-11T08:06:02.002772
2773,-0.2655,-0.1069,0.9931,0.245,-4.060,0.175,0.00,0.0184,0.0254,0.0100,0.0087,2025-06-11T08:06:02.002772
2774,-0.2625,-0.1059,0.9931,0.210,-3.920,0.070,0.00,0.0184,0.0254,0.0100,0.0087,2025-06-11T08:06:02.002772
2775,-0.2645,-0.1044,0.9916,0.245,-3.920,0.070,0.00,0.0368,0.0254,0.0200,0.0087,2025-06-11T08:06:02.002772
2776,-0.2640,-0.1054,0.9916,0.140,-4.025,0.070,0.01,0.0184,0.0254,0.0100,0.0087,2025-06-11T08:06:02.002772
2777,-0.2664,-0.1054,0.9916,0.070,-4.095,0.070,0.00,0.0184,0.0254,0.0100,0.0000,2025-06-11T08:06:02.101184
2778,-0.2640,-0.1059,0.9916,0.035,-4.130,0.000,0.01,0.0184,0.0508,0.0200,0.0087,2025-06-11T08:06:02.101184
2779,-0.2625,-0.1059,0.9926,0.000,-4.130,0.140,0.00,0.0368,0.0508,0.0200,0.0174,2025-06-11T08:06:02.101184
2780,-0.2655,-0.1069,0.9936,0.000,-4.060,0.140,0.00,0.0184,0.0508,0.0200,0.0087,2025-06-11T08:06:02.101184
2781,-0.2635,-0.1074,0.9926,0.105,-4.025,0.070,0.00,0.0552,0.0254,0.0200,0.0087,2025-06-11T08:06:02.101184
2782,-0.2645,-0.1059,0.9911,0.070,-4.025,0.140,0.00,0.0368,0.0508,0.0200,0.0174,2025-06-11T08:06:02.101184
2783,-0.2635,-0.1059,0.9921,0.140,-4.025,0.070,0.00,0.0368,0.0254,0.0200,0.0087,2025-06-11T08:06:02.101184
2784,-0.2650,-0.1044,0.9926,0.140,-4.095,0.140,0.00,0.0184,0.0254,0.0100,0.0087,2025-06-11T08:06:02.101184
2785,-0.2650,-0.1059,0.9916,0.105,-4.095,0.105,0.01,0.0368,0.0254,0.0200,0.0174,2025-06-11T08:06:02.102196
2786,-0.2660,-0.1044,0.9926,0.070,-4.130,0.035,0.00,0.0184,0.0508,0.0100,0.0087,2025-06-11T08:06:02.358730
2787,-0.2635,-0.1020,0.9911,-0.035,-4.200,0.070,0.00,0.0368,0.0254,0.0200,0.0087,2025-06-11T08:06:02.358730
2788,-0.2640,-0.1064,0.9911,-0.070,-4.130,0.000,0.01,0.0184,0.0254,0.0100,0.0087,2025-06-11T08:06:02.358730
2789,-0.2650,-0.1049,0.9931,0.000,-4.165,0.105,0.00,0.0184,0.0508,0.0100,0.0174,2025-06-11T08:06:02.358730
2790,-0.2645,-0.1074,0.9931,0.105,-4.095,0.070,0.01,0.0368,0.0508,0.0100,0.0174,2025-06-11T08:06:02.358730
2791,-0.2669,-0.1049,0.9911,0.175,-3.990,0.245,0.01,0.0368,0.0254,0.0200,0.0087,2025-06-11T08:06:02.358730
2792,-0.2635,-0.1049,0.9916,0.140,-4.025,0.140,0.00,0.0000,0.0254,0.0100,0.0000,2025-06-11T08:06:02.358730
2793,-0.2650,-0.1054,0.9931,0.070,-4.025,0.035,0.00,0.0184,0.0254,0.0100,0.0087,2025-06-11T08:06:02.358730
2794,-0.2650,-0.1059,0.9921,0.035,-4.095,0.140,0.01,0.0184,0.0254,0.0200,0.0174,2025-06-11T08:06:02.358730
2795,-0.2630,-0.1059,0.9921,0.035,-4.095,-0.070,0.01,0.0184,0.0508,0.0100,0.0087,2025-06-11T08:06:02.359795
2796,-0.2650,-0.1059,0.9916,0.035,-4.165,0.000,0.01,0.0184,0.0254,0.0100,0.0087,2025-06-11T08:06:02.626530
2797,-0.2640,-0.1059,0.9931,0.140,-3.990,0.140,0.00,0.0184,0.0254,0.0100,0.0087,2025-06-11T08:06:02.626530
2798,-0.2679,-0.1078,0.9921,0.210,-4.095,0.035,0.01,0.0368,0.0254,0.0200,0.0174,2025-06-11T08:06:02.626530
2799,-0.2669,-0.1049,0.9906,0.105,-3.990,0.000,0.00,0.0184,0.0508,0.0200,0.0087,2025-06-11T08:06:02.626530
2800,-0.2660,-0.1064,0.9916,0.105,-4.060,0.105,0.00,0.0184,0.0508,0.0100,0.0174,2025-06-11T08:06:02.626530
2801,-0.2655,-0.1044,0.9921,-0.035,-4.060,0.070,0.00,0.0184,0.0254,0.0100,0.0087,2025-06-11T08:06:02.626530
2802,-0.2640,-0.1054,0.9911,0.000,-4.060,0.070,0.00,0.0184,0.0508,0.0100,0.0087,2025-06-11T08:06:02.626530
2803,-0.2660,-0.1054,0.9921,0.105,-4.130,0.070,0.00,0.0184,0.0508,0.0200,0.0087,2025-06-11T08:06:02.626530
2804,-0.2645,-0.1074,0.9921,0.105,-4.060,0.140,0.01,0.0368,0.0254,0.0200,0.0174,2025-06-11T08:06:02.626530
2805,-0.2660,-0.1069,0.9931,0.070,-3.990,0.105,0.00,0.0184,0.0254,0.0200,0.0174,2025-06-11T08:06:02.626530
2806,-0.2650,-0.1025,0.9916,0.140,-4.060,0.140,0.00,0.0184,0.0254,0.0200,0.0087,2025-06-11T08:06:02.626530
2807,-0.2664,-0.1035,0.9916,0.105,-4.130,0.140,0.00,0.0368,0.0508,0.0100,0.0087,2025-06-11T08:06:02.626530
2808,-0.2645,-0.1049,0.9911,0.035,-4.060,0.070,0.00,0.0184,0.0254,0.0100,0.0087,2025-06-11T08:06:02.626530
2809,-0.2640,-0.1069,0.9916,0.035,-4.095,0.140,0.00,0.0368,0.0254,0.0100,0.0087,2025-06-11T08:06:02.626530
2810,-0.2635,-0.1064,0.9921,0.035,-4.060,0.000,0.00,0.0184,0.0508,0.0100,0.0087,2025-06-11T08:06:02.626530
2811,-0.2650,-0.1054,0.9916,0.070,-4.060,0.000,0.00,0.0184,0.0254,0.0100,0.0087,2025-06-11T08:06:02.626530
2812,-0.2655,-0.1035,0.9926,0.070,-4.095,0.070,0.00,0.0368,0.0254,0.0100,0.0087,2025-06-11T08:06:02.626530
2813,-0.2640,-0.1054,0.9921,0.070,-4.165,0.105,0.00,0.0184,0.0508,0.0100,0.0174,2025-06-11T08:06:02.626530
2814,-0.2655,-0.1069,0.9916,0.140,-4.130,0.105,0.00,0.0368,0.0508,0.0200,0.0174,2025-06-11T08:06:02.626530
2815,-0.2650,-0.1049,0.9921,0.070,-3.990,0.140,0.01,0.0368,0.0254,0.0200,0.0087,2025-06-11T08:06:02.626530
2816,-0.2669,-0.1049,0.9921,0.175,-4.165,0.035,0.01,0.0368,0.0254,0.0100,0.0087,2025-06-11T08:06:02.626530
2817,-0.2645,-0.1039,0.9931,0.070,-4.130,0.035,0.00,0.0184,0.0508,0.0100,0.0174,2025-06-11T08:06:02.626530
2818,-0.2655,-0.1054,0.9906,0.035,-4.095,-0.035,0.01,0.0368,0.0254,0.0200,0.0087,2025-06-11T08:06:02.626530
2819,-0.2655,-0.1049,0.9926,0.070,-4.165,0.000,0.00,0.0184,0.0254,0.0200,0.0087,2025-06-11T08:06:02.626530
2820,-0.2660,-0.1039,0.9911,0.070,-4.130,0.140,0.01,0.0184,0.0254,0.0100,0.0087,2025-06-11T08:06:02.626530
2821,-0.2660,-0.1059,0.9906,0.070,-4.060,0.035,0.00,0.0368,0.0508,0.0100,0.0087,2025-06-11T08:06:02.671598
2822,-0.2645,-0.1044,0.9921,0.105,-4.095,0.105,0.01,0.0368,0.0508,0.0200,0.0174,2025-06-11T08:06:02.671598
2823,-0.2664,-0.1044,0.9911,0.140,-4.130,0.035,0.01,0.0184,0.0508,0.0200,0.0087,2025-06-11T08:06:02.671598
2824,-0.2674,-0.1039,0.9936,0.070,-4.130,0.035,0.01,0.0184,0.0508,0.0100,0.0174,2025-06-11T08:06:02.671598
2825,-0.2645,-0.1035,0.9906,0.000,-4.025,0.000,0.01,0.0368,0.0254,0.0100,0.0174,2025-06-11T08:06:02.671598
2826,-0.2640,-0.1054,0.9916,0.000,-4.095,0.070,0.00,0.0184,0.0254,0.0100,0.0087,2025-06-11T08:06:02.671598
2827,-0.2640,-0.1054,0.9931,0.035,-4.060,0.035,0.00,0.0368,0.0508,0.0100,0.0087,2025-06-11T08:06:02.671598
2828,-0.2664,-0.1054,0.9926,0.000,-4.060,0.105,0.00,0.0368,0.0254,0.0200,0.0174,2025-06-11T08:06:02.671598
2829,-0.2664,-0.1044,0.9911,0.035,-4.095,0.070,0.01,0.0368,0.0508,0.0200,0.0174,2025-06-11T08:06:02.768173
2830,-0.2664,-0.1054,0.9892,0.070,-3.990,0.070,0.00,0.0368,0.0254,0.0200,0.0087,2025-06-11T08:06:02.768173
2831,-0.2674,-0.1049,0.9921,0.105,-4.165,0.035,0.00,0.0368,0.0254,0.0200,0.0087,2025-06-11T08:06:02.768173
2832,-0.2660,-0.1035,0.9921,0.035,-4.060,0.105,0.00,0.0368,0.0254,0.0200,0.0087,2025-06-11T08:06:02.768173
2833,-0.2655,-0.1069,0.9921,0.035,-4.025,0.035,0.00,0.0368,0.0254,0.0200,0.0087,2025-06-11T08:06:02.768173
2834,-0.2664,-0.1069,0.9921,0.105,-4.130,0.140,0.00,0.0368,0.0254,0.0100,0.0087,2025-06-11T08:06:02.768173
2835,-0.2655,-0.1059,0.9911,0.000,-4.060,0.070,0.00,0.0184,0.0254,0.0200,0.0087,2025-06-11T08:06:02.768173
2836,-0.2664,-0.1064,0.9941,0.035,-4.130,0.035,0.00,0.0368,0.0508,0.0200,0.0087,2025-06-11T08:06:02.906284
2837,-0.2684,-0.1025,0.9906,0.070,-4.060,0.105,0.00,0.0184,0.0254,0.0200,0.0087,2025-06-11T08:06:02.906284
2838,-0.2674,-0.1035,0.9921,0.105,-4.130,0.105,0.00,0.0184,0.0508,0.0100,0.0174,2025-06-11T08:06:02.906284
2839,-0.2660,-0.1049,0.9916,0.140,-4.095,0.035,0.00,0.0184,0.0508,0.0200,0.0087,2025-06-11T08:06:02.906284
2840,-0.2684,-0.1044,0.9926,0.035,-4.165,0.070,0.00,0.0184,0.0254,0.0200,0.0087,2025-06-11T08:06:02.906284
2841,-0.2664,-0.1064,0.9936,0.000,-4.095,0.035,0.00,0.0184,0.0254,0.0100,0.0087,2025-06-11T08:06:02.906284
2842,-0.2664,-0.1039,0.9936,8.925,-4.130,0.105,0.00,0.0184,0.0254,0.0100,0.0087,2025-06-11T08:06:02.906284
2843,-0.2669,-0.1044,0.9931,0.000,-4.165,0.175,0.00,0.0184,0.0508,0.0100,0.0087,2025-06-11T08:06:02.906284
2844,-0.2645,-0.1054,0.9936,0.035,-4.060,0.140,0.00,0.0368,0.0254,0.0100,0.0174,2025-06-11T08:06:02.906284
2845,-0.2679,-0.1039,0.9921,0.070,-4.130,0.070,0.01,0.0368,0.0508,0.0100,0.0087,2025-06-11T08:06:02.907339
2846,-0.2664,-0.1039,0.9916,0.105,-4.095,0.000,0.01,0.0184,0.0508,0.0100,0.0174,2025-06-11T08:06:03.083419
2847,-0.2650,-0.1054,0.9936,8.925,-4.130,0.070,0.00,0.0368,0.0508,0.0100,0.0087,2025-06-11T08:06:03.083419
2848,-0.2645,-0.1049,0.9926,0.070,-4.130,0.000,0.00,0.0184,0.0254,0.0100,0.0087,2025-06-11T08:06:03.083419
2849,-0.2684,-0.1044,0.9911,0.000,-4.095,0.035,0.00,0.0368,0.0508,0.0100,0.0087,2025-06-11T08:06:03.083419
2850,-0.2679,-0.1049,0.9921,0.035,-4.060,0.035,0.01,0.0184,0.0508,0.0100,0.0087,2025-06-11T08:06:03.083419
2851,-0.2655,-0.1035,0.9921,-0.070,-4.165,0.035,0.00,0.0184,0.0254,0.0100,0.0174,2025-06-11T08:06:03.083419
2852,-0.2674,-0.1054,0.9916,0.070,-4.200,0.035,0.01,0.0368,0.0254,0.0200,0.0087,2025-06-11T08:06:03.083419
2853,-0.2669,-0.1044,0.9931,0.000,-4.025,0.105,0.00,0.0184,0.0508,0.0000,0.0087,2025-06-11T08:06:03.084410
2854,-0.2650,-0.1054,0.9926,0.035,-4.095,0.070,0.00,0.0184,0.0254,0.0200,0.0087,2025-06-11T08:06:03.084410
2855,-0.2664,-0.1059,0.9921,0.070,-4.060,-0.035,0.00,0.0184,0.0508,0.0100,0.0087,2025-06-11T08:06:03.084410
2856,-0.2664,-0.1025,0.9931,0.070,-4.130,0.000,0.00,0.0184,0.0254,0.0100,0.0087,2025-06-11T08:06:03.084410
2857,-0.2669,-0.1044,0.9931,0.000,-4.095,0.035,0.01,0.0184,0.0254,0.0100,0.0087,2025-06-11T08:06:03.084410
2858,-0.2660,-0.1054,0.9926,-0.070,-4.095,0.000,0.00,0.0368,0.0254,0.0200,0.0087,2025-06-11T08:06:03.084410
2859,-0.2669,-0.1059,0.9931,0.035,-4.095,0.000,0.01,0.0368,0.0254,0.0100,0.0174,2025-06-11T08:06:03.084410
2860,-0.2664,-0.1020,0.9921,0.105,-4.095,0.000,0.01,0.0368,0.0254,0.0100,0.0174,2025-06-11T08:06:03.381868
2861,-0.2660,-0.1054,0.9931,0.070,-4.130,0.035,0.01,0.0368,0.0508,0.0100,0.0087,2025-06-11T08:06:03.382817
2862,-0.2660,-0.1049,0.9921,0.105,-4.060,0.035,0.00,0.0184,0.0508,0.0100,0.0087,2025-06-11T08:06:03.382817
2863,-0.2664,-0.1039,0.9921,0.175,-4.165,0.070,0.00,0.0368,0.0254,0.0100,0.0174,2025-06-11T08:06:03.382817
2864,-0.2704,-0.1059,0.9921,0.000,-4.025,-0.035,0.00,0.0184,0.0508,0.0100,0.0087,2025-06-11T08:06:03.382817
2865,-0.2684,-0.1035,0.9926,-0.070,-4.235,-0.070,0.00,0.0000,0.0254,0.0200,0.0000,2025-06-11T08:06:03.382817
2866,-0.2655,-0.1069,0.9941,0.035,-4.095,0.000,0.00,0.0184,0.0254,0.0200,0.0087,2025-06-11T08:06:03.382817
2867,-0.2650,-0.1049,0.9916,0.140,-4.200,0.105,0.00,0.0184,0.0254,0.0200,0.0174,2025-06-11T08:06:03.382817
2868,-0.2679,-0.1039,0.9916,0.315,-3.955,0.070,0.00,0.0184,0.0508,0.0000,0.0174,2025-06-11T08:06:03.382817
2869,-0.2664,-0.1025,0.9911,0.175,-3.955,0.105,0.00,0.0184,0.0254,0.0200,0.0087,2025-06-11T08:06:03.382817
2870,-0.2664,-0.1025,0.9931,-0.035,-4.200,0.035,0.00,0.0184,0.0508,0.0100,0.0087,2025-06-11T08:06:03.383811
2871,-0.2679,-0.1054,0.9911,-0.070,-4.235,-0.035,0.00,0.0184,0.0254,0.0200,0.0087,2025-06-11T08:06:03.383811
2872,-0.2669,-0.1054,0.9926,-0.140,-4.165,0.000,0.00,0.0184,0.0254,0.0100,0.0087,2025-06-11T08:06:03.383811
2873,-0.2664,-0.1074,0.9916,0.035,-4.235,0.035,0.00,0.0184,0.0254,0.0100,0.0087,2025-06-11T08:06:03.383811
2874,-0.2664,-0.1054,0.9931,0.000,-4.095,0.035,0.00,0.0184,0.0254,0.0100,0.0087,2025-06-11T08:06:03.383811
2875,-0.2684,-0.1020,0.9941,0.175,-4.060,0.070,0.00,0.0368,0.0254,0.0200,0.0087,2025-06-11T08:06:03.383811
2876,-0.2674,-0.1035,0.9921,0.140,-4.095,0.035,0.00,0.0184,0.0508,0.0100,0.0174,2025-06-11T08:06:03.383811
2877,-0.2694,-0.1030,0.9911,0.070,-4.025,0.070,0.01,0.0368,0.0508,0.0100,0.0087,2025-06-11T08:06:03.484968
2878,-0.2699,-0.1035,0.9892,0.035,-4.130,0.035,0.00,0.0368,0.0254,0.0100,0.0174,2025-06-11T08:06:03.485927
2879,-0.2669,-0.1044,0.9931,-0.035,-4.095,0.070,0.00,0.0184,0.0508,0.0100,0.0087,2025-06-11T08:06:03.485927
2880,-0.2664,-0.1049,0.9931,-0.035,-4.235,0.035,0.00,0.0184,0.0508,0.0100,0.0087,2025-06-11T08:06:03.485927
2881,-0.2664,-0.1044,0.9931,-0.070,-4.060,0.105,0.01,0.0368,0.0254,0.0200,0.0087,2025-06-11T08:06:03.485927
2882,-0.2655,-0.1049,0.9887,0.035,-4.130,0.000,0.00,0.0368,0.0508,0.0200,0.0087,2025-06-11T08:06:03.485927
2883,-0.2679,-0.1039,0.9911,0.070,-4.130,0.035,0.00,0.0368,0.0254,0.0100,0.0087,2025-06-11T08:06:03.485927
2884,-0.2684,-0.1049,0.9911,0.140,-4.130,0.140,0.01,0.0184,0.0508,0.0200,0.0087,2025-06-11T08:06:03.485927
2885,-0.2679,-0.1044,0.9902,0.035,-4.060,0.070,0.00,0.0368,0.0254,0.0200,0.0087,2025-06-11T08:06:03.485927
2886,-0.2669,-0.1039,0.9916,0.175,-4.130,-0.035,0.00,0.0184,0.0508,0.0100,0.0087,2025-06-11T08:06:03.485927
2887,-0.2669,-0.1049,0.9926,0.035,-4.200,0.035,0.00,0.0368,0.0254,0.0100,0.0087,2025-06-11T08:06:03.485927
2888,-0.2674,-0.1035,0.9897,0.175,-4.095,0.035,0.00,0.0368,0.0254,0.0200,0.0087,2025-06-11T08:06:03.485927
2889,-0.2674,-0.1054,0.9906,-0.070,-4.165,-0.035,0.01,0.0184,0.0254,0.0200,0.0087,2025-06-11T08:06:03.485927
2890,-0.2664,-0.1039,0.9931,-0.070,-4.025,-0.035,0.00,0.0368,0.0508,0.0100,0.0174,2025-06-11T08:06:03.543163
2891,-0.2664,-0.1054,0.9945,0.070,-4.130,0.035,0.01,0.0368,0.0254,0.0100,0.0087,2025-06-11T08:06:03.543163
2892,-0.2660,-0.1054,0.9921,0.140,-4.165,0.105,0.00,0.0184,0.0254,0.0100,0.0087,2025-06-11T08:06:03.543163
2893,-0.2660,-0.1020,0.9916,0.035,-4.130,0.105,0.01,0.0184,0.0254,0.0100,0.0087,2025-06-11T08:06:03.543163
2894,-0.2660,-0.1020,0.9921,0.035,-4.095,0.070,0.01,0.0368,0.0508,0.0100,0.0087,2025-06-11T08:06:03.710896
2895,-0.2713,-0.1044,0.9931,-0.070,-4.305,0.070,0.01,0.0368,0.0508,0.0200,0.0174,2025-06-11T08:06:03.710896
2896,-0.2723,-0.1035,0.9921,0.105,-4.130,0.000,0.00,0.0184,0.0508,0.0200,0.0174,2025-06-11T08:06:03.710896
2897,-0.2728,-0.1015,0.9931,0.140,-3.990,0.000,0.00,0.0368,0.0254,0.0200,0.0087,2025-06-11T08:06:03.710896
2898,-0.2699,-0.1015,0.9906,0.140,-3.815,0.140,0.01,0.0368,0.0254,0.0100,0.0174,2025-06-11T08:06:03.710896
2899,-0.2635,-0.1049,0.9916,0.035,-4.060,0.035,0.01,0.0184,0.0508,0.0100,0.0087,2025-06-11T08:06:03.710896
2900,-0.2650,-0.1030,0.9926,0.035,-4.375,0.175,0.00,0.0368,0.0254,0.0100,0.0087,2025-06-11T08:06:03.710896
2901,-0.2640,-0.1030,0.9921,-0.070,-4.340,-0.070,0.00,0.0184,0.0254,0.0200,0.0087,2025-06-11T08:06:03.710896
2902,-0.2664,-0.1064,0.9906,0.000,-4.305,0.035,0.01,0.0184,0.0254,0.0100,0.0087,2025-06-11T08:06:03.710896
2903,-0.2689,-0.1044,0.9926,-0.035,-4.060,0.140,0.00,0.0184,0.0254,0.0100,0.0087,2025-06-11T08:06:03.711961
2904,-0.2713,-0.1030,0.9931,0.035,-4.025,0.105,0.00,0.0184,0.0254,0.0100,0.0087,2025-06-11T08:06:03.711961
2905,-0.2718,-0.1020,0.9931,0.105,-3.920,0.070,0.01,0.0368,0.0508,0.0200,0.0087,2025-06-11T08:06:03.711961
2906,-0.2679,-0.1049,0.9936,-0.035,-3.920,0.000,0.00,0.0368,0.0508,0.0200,0.0087,2025-06-11T08:06:03.711961
2907,-0.2660,-0.1030,0.9931,0.000,-4.130,0.070,0.00,0.0368,0.0254,0.0100,0.0174,2025-06-11T08:06:03.798996
2908,-0.2679,-0.1044,0.9926,0.000,-4.305,-0.035,0.00,0.0368,0.0254,0.0100,0.0087,2025-06-11T08:06:03.800012
2909,-0.2689,-0.1035,0.9921,0.000,-4.270,0.070,0.01,0.0368,0.0254,0.0100,0.0087,2025-06-11T08:06:03.800012
2910,-0.2699,-0.1035,0.9916,0.105,-4.200,0.000,0.00,0.0368,0.0254,0.0100,0.0174,2025-06-11T08:06:03.800012
2911,-0.2684,-0.1049,0.9931,0.105,-3.990,0.105,0.00,0.0184,0.0254,0.0200,0.0174,2025-06-11T08:06:03.998962
2912,-0.2689,-0.1039,0.9921,0.105,-4.060,0.105,0.00,0.0184,0.0254,0.0200,0.0174,2025-06-11T08:06:03.998962
2913,-0.2699,-0.1039,0.9936,0.000,-4.200,0.035,0.00,0.0184,0.0508,0.0200,0.0174,2025-06-11T08:06:04.000039
2914,-0.2704,-0.1054,0.9926,0.105,-4.165,0.070,0.00,0.0184,0.0254,0.0200,0.0087,2025-06-11T08:06:04.000039
2915,-0.2684,-0.1030,0.9916,0.140,-4.025,-0.035,0.00,0.0184,0.0508,0.0200,0.0087,2025-06-11T08:06:04.000039
2916,-0.2645,-0.1030,0.9936,0.035,-4.060,0.000,0.00,0.0184,0.0254,0.0100,0.0087,2025-06-11T08:06:04.000039
2917,-0.2679,-0.1030,0.9916,0.035,-4.165,0.035,0.00,0.0184,0.0254,0.0100,0.0174,2025-06-11T08:06:04.000039
2918,-0.2660,-0.1039,0.9931,-0.070,-4.305,0.035,0.00,0.0184,0.0254,0.0100,0.0087,2025-06-11T08:06:04.000039
2919,-0.2704,-0.1039,0.9926,-0.105,-4.235,0.000,0.00,0.0184,0.0254,0.0100,0.0087,2025-06-11T08:06:04.000039
2920,-0.2694,-0.1039,0.9936,0.000,-4.095,0.070,0.00,0.0368,0.0254,0.0200,0.0174,2025-06-11T08:06:04.000039
2921,-0.2694,-0.1035,0.9926,0.035,-4.025,0.000,0.01,0.0368,0.0254,0.0100,0.0174,2025-06-11T08:06:04.000039
2922,-0.2655,-0.1039,0.9916,0.070,-4.025,0.070,0.01,0.0184,0.0508,0.0100,0.0087,2025-06-11T08:06:04.000039
2923,-0.2660,-0.1035,0.9931,0.105,-4.235,0.070,0.00,0.0184,0.0508,0.0100,0.0174,2025-06-11T08:06:04.001017
2924,-0.2669,-0.1030,0.9931,-0.035,-4.235,0.070,0.01,0.0368,0.0508,0.0200,0.0087,2025-06-11T08:06:04.001017
2925,-0.2713,-0.1049,0.9921,0.035,-4.270,0.000,0.00,0.0184,0.0508,0.0200,0.0174,2025-06-11T08:06:04.001017
2926,-0.2684,-0.1049,0.9916,0.035,-4.130,0.070,0.01,0.0552,0.0254,0.0200,0.0174,2025-06-11T08:06:04.001017
2927,-0.2660,-0.1049,0.9921,0.035,-4.095,0.035,0.00,0.0184,0.0508,0.0100,0.0087,2025-06-11T08:06:04.001017
2928,-0.2655,-0.1064,0.9926,0.105,-4.095,0.035,0.01,0.0184,0.0508,0.0200,0.0174,2025-06-11T08:06:04.106252
2929,-0.2689,-0.1035,0.9916,0.140,-4.095,0.000,0.00,0.0368,0.0254,0.0200,0.0087,2025-06-11T08:06:04.106252
2930,-0.2684,-0.1030,0.9936,0.000,-4.235,0.035,0.00,0.0368,0.0508,0.0200,0.0087,2025-06-11T08:06:04.106252
2931,-0.2674,-0.1015,0.9931,0.140,-4.200,0.105,0.00,0.0184,0.0254,0.0200,0.0087,2025-06-11T08:06:04.106252
2932,-0.2679,-0.1039,0.9926,-0.035,-4.130,0.000,0.00,0.0368,0.0254,0.0200,0.0087,2025-06-11T08:06:04.106252
2933,-0.2664,-0.1035,0.9931,-0.070,-4.130,0.070,0.01,0.0368,0.0508,0.0300,0.0087,2025-06-11T08:06:04.106252
2934,-0.2660,-0.1044,0.9936,-0.035,-4.165,0.070,0.01,0.0368,0.0254,0.0200,0.0174,2025-06-11T08:06:04.106252
2935,-0.2679,-0.1030,0.9931,-0.105,-4.165,0.035,0.00,0.0368,0.0508,0.0100,0.0087,2025-06-11T08:06:04.106252
2936,-0.2713,-0.1054,0.9941,0.105,-4.165,0.070,0.01,0.0368,0.0508,0.0200,0.0174,2025-06-11T08:06:04.342984
2937,-0.2684,-0.1035,0.9936,-0.035,-4.235,0.035,0.00,0.0184,0.0254,0.0200,0.0087,2025-06-11T08:06:04.342984
2938,-0.2679,-0.1025,0.9911,0.070,-4.095,0.035,0.00,0.0368,0.0508,0.0200,0.0087,2025-06-11T08:06:04.342984
2939,-0.2674,-0.1054,0.9926,0.035,-4.060,0.035,0.01,0.0368,0.0254,0.0200,0.0174,2025-06-11T08:06:04.342984
2940,-0.2679,-0.1049,0.9916,0.070,-4.095,0.035,0.00,0.0368,0.0254,0.0200,0.0174,2025-06-11T08:06:04.342984
2941,-0.2669,-0.1025,0.9911,0.000,-4.165,0.000,0.00,0.0184,0.0254,0.0200,0.0000,2025-06-11T08:06:04.342984
2942,-0.2689,-0.1035,0.9936,0.035,-4.095,0.035,0.00,0.0184,0.0508,0.0100,0.0087,2025-06-11T08:06:04.342984
2943,-0.2679,-0.1035,0.9916,0.035,-4.165,0.035,0.01,0.0184,0.0254,0.0100,0.0087,2025-06-11T08:06:04.342984
2944,-0.2679,-0.1039,0.9931,0.000,-4.095,-0.035,0.01,0.0184,0.0254,0.0100,0.0087,2025-06-11T08:06:04.342984
2945,-0.2679,-0.1044,0.9921,-0.070,-4.200,0.035,0.00,0.0184,0.0508,0.0100,0.0087,2025-06-11T08:06:04.342984
2946,-0.2684,-0.1054,0.9941,0.070,-4.165,0.035,0.00,0.0184,0.0254,0.0100,0.0087,2025-06-11T08:06:04.597952
2947,-0.2704,-0.1025,0.9926,0.000,-4.165,0.035,0.01,0.0368,0.0254,0.0200,0.0087,2025-06-11T08:06:04.597952
2948,-0.2669,-0.1039,0.9916,0.105,-4.060,-0.035,0.01,0.0368,0.0254,0.0200,0.0087,2025-06-11T08:06:04.597952
2949,-0.2674,-0.1039,0.9902,0.070,-4.095,0.070,0.00,0.0184,0.0254,0.0100,0.0087,2025-06-11T08:06:04.597952
2950,-0.2679,-0.1054,0.9906,0.140,-4.130,0.035,0.01,0.0184,0.0254,0.0200,0.0087,2025-06-11T08:06:04.597952
2951,-0.2689,-0.1025,0.9906,0.000,-4.095,-0.035,0.00,0.0184,0.0508,0.0200,0.0174,2025-06-11T08:06:04.597952
2952,-0.2664,-0.1015,0.9926,0.035,-4.270,0.000,0.01,0.0184,0.0508,0.0100,0.0087,2025-06-11T08:06:04.597952
2953,-0.2674,-0.1035,0.9921,-0.070,-4.200,0.070,0.01,0.0368,0.0508,0.0200,0.0174,2025-06-11T08:06:04.597952
2954,-0.2699,-0.1039,0.9936,-0.070,-4.200,0.035,0.00,0.0368,0.0254,0.0200,0.0087,2025-06-11T08:06:04.597952
2955,-0.2679,-0.1020,0.9931,0.000,-4.165,-0.035,0.01,0.0368,0.0254,0.0200,0.0174,2025-06-11T08:06:04.597952
2956,-0.2655,-0.1039,0.9945,0.035,-4.165,0.035,0.01,0.0184,0.0508,0.0200,0.0087,2025-06-11T08:06:04.597952
2957,-0.2684,-0.1049,0.9926,0.105,-4.060,0.035,0.00,0.0184,0.0254,0.0100,0.0087,2025-06-11T08:06:04.597952
2958,-0.2699,-0.1025,0.9936,0.140,-4.095,0.035,0.01,0.0184,0.0508,0.0100,0.0087,2025-06-11T08:06:04.597952
2959,-0.2689,-0.1020,0.9936,-0.035,-4.165,0.000,0.00,0.0184,0.0254,0.0200,0.0087,2025-06-11T08:06:04.598823
2960,-0.2679,-0.1035,0.9916,0.035,-4.165,0.035,0.00,0.0184,0.0000,0.0100,0.0087,2025-06-11T08:06:04.598823
2961,-0.2674,-0.1049,0.9936,-0.105,-4.130,0.070,0.00,0.0000,0.0254,0.0100,0.0087,2025-06-11T08:06:04.598956
2962,-0.2679,-0.1054,0.9941,0.105,-4.130,0.035,0.00,0.0184,0.0254,0.0100,0.0087,2025-06-11T08:06:04.598956
2963,-0.2679,-0.1064,0.9926,-0.035,-4.165,-0.035,0.00,0.0368,0.0254,0.0100,0.0087,2025-06-11T08:06:04.598956
2964,-0.2694,-0.1044,0.9916,0.035,-4.095,0.105,0.00,0.0184,0.0508,0.0100,0.0087,2025-06-11T08:06:04.598956
2965,-0.2669,-0.1039,0.9926,0.000,-4.200,0.070,0.00,0.0184,0.0254,0.0100,0.0087,2025-06-11T08:06:04.598956
2966,-0.2679,-0.1035,0.9911,0.105,-4.165,0.105,0.00,0.0368,0.0508,0.0200,0.0174,2025-06-11T08:06:04.598956
2967,-0.2679,-0.1025,0.9916,-0.105,-4.165,-0.035,0.00,0.0184,0.0254,0.0100,0.0087,2025-06-11T08:06:04.598956
2968,-0.2674,-0.1044,0.9936,0.035,-4.165,0.000,0.01,0.0368,0.0254,0.0200,0.0087,2025-06-11T08:06:04.712728
2969,-0.2674,-0.1035,0.9926,-0.070,-4.200,0.035,0.01,0.0184,0.0254,0.0100,0.0087,2025-06-11T08:06:04.712728
2970,-0.2684,-0.1059,0.9911,0.000,-4.200,0.035,0.00,0.0368,0.0254,0.0200,0.0087,2025-06-11T08:06:04.712728
2971,-0.2704,-0.1035,0.9941,-0.035,-4.200,0.000,0.00,0.0368,0.0254,0.0200,0.0087,2025-06-11T08:06:04.712728
2972,-0.2689,-0.1049,0.9916,0.000,-4.165,-0.035,0.01,0.0368,0.0254,0.0200,0.0087,2025-06-11T08:06:04.712728
2973,-0.2689,-0.1030,0.9916,-0.035,-4.130,0.035,0.01,0.0184,0.0254,0.0100,0.0087,2025-06-11T08:06:04.712728
2974,-0.2699,-0.1044,0.9916,-0.035,-4.200,0.070,0.00,0.0184,0.0254,0.0200,0.0087,2025-06-11T08:06:04.712728
2975,-0.2669,-0.1030,0.9926,0.035,-4.200,0.070,0.00,0.0184,0.0254,0.0100,0.0174,2025-06-11T08:06:04.712728
2976,-0.2689,-0.1035,0.9911,0.070,-4.060,-0.035,0.01,0.0184,0.0508,0.0100,0.0087,2025-06-11T08:06:04.712728
2977,-0.2669,-0.1030,0.9902,0.000,-4.235,0.105,0.00,0.0368,0.0254,0.0100,0.0087,2025-06-11T08:06:04.712728
2978,-0.2664,-0.1044,0.9911,0.035,-4.200,0.000,0.00,0.0184,0.0254,0.0100,0.0087,2025-06-11T08:06:04.712728
2979,-0.2679,-0.1030,0.9931,-0.035,-4.235,0.035,0.00,0.0184,0.0254,0.0100,0.0087,2025-06-11T08:06:04.712728
2980,-0.2689,-0.1035,0.9926,0.000,-4.130,0.035,0.00,0.0368,0.0254,0.0100,0.0174,2025-06-11T08:06:04.713516
2981,-0.2699,-0.1010,0.9931,-0.035,-4.165,0.035,0.00,0.0184,0.0508,0.0100,0.0087,2025-06-11T08:06:04.713516
2982,-0.2689,-0.1044,0.9916,0.000,-4.165,-0.035,0.00,0.0184,0.0254,0.0100,0.0087,2025-06-11T08:06:04.918956
2983,-0.2679,-0.1025,0.9926,0.070,-4.130,0.035,0.01,0.0368,0.0254,0.0200,0.0087,2025-06-11T08:06:04.918956
2984,-0.2689,-0.1030,0.9926,0.070,-4.235,0.070,0.01,0.0184,0.0508,0.0200,0.0087,2025-06-11T08:06:04.918956
2985,-0.2689,-0.1035,0.9916,0.070,-4.200,0.035,0.00,0.0184,0.0508,0.0100,0.0087,2025-06-11T08:06:04.918956
2986,-0.2684,-0.1030,0.9916,-0.035,-4.130,0.000,0.00,0.0368,0.0508,0.0200,0.0174,2025-06-11T08:06:04.918956
2987,-0.2694,-0.1035,0.9911,0.035,-4.165,-0.035,0.01,0.0368,0.0254,0.0100,0.0087,2025-06-11T08:06:04.918956
2988,-0.2684,-0.1044,0.9926,0.000,-4.165,0.105,0.01,0.0184,0.0254,0.0100,0.0087,2025-06-11T08:06:04.918956
2989,-0.2664,-0.1044,0.9931,0.035,-4.165,0.035,0.00,0.0368,0.0254,0.0200,0.0087,2025-06-11T08:06:04.918956
2990,-0.2694,-0.1030,0.9926,-0.105,-4.130,0.070,0.01,0.0368,0.0254,0.0200,0.0174,2025-06-11T08:06:04.920023
2991,-0.2679,-0.1030,0.9926,-0.070,-4.165,-0.035,0.00,0.0184,0.0254,0.0100,0.0087,2025-06-11T08:06:04.920023
2992,-0.2674,-0.1035,0.9926,0.035,-4.165,0.070,0.00,0.0184,0.0508,0.0200,0.0087,2025-06-11T08:06:04.920023
2993,-0.2674,-0.1035,0.9921,0.035,-4.025,0.105,0.00,0.0184,0.0508,0.0100,0.0087,2025-06-11T08:06:04.920023
2994,-0.2689,-0.1049,0.9936,0.035,-4.095,0.070,0.00,0.0368,0.0254,0.0100,0.0087,2025-06-11T08:06:04.920023
2995,-0.2674,-0.1030,0.9926,0.070,-4.200,0.070,0.00,0.0368,0.0254,0.0200,0.0087,2025-06-11T08:06:04.920023
2996,-0.2689,-0.1035,0.9926,-0.035,-4.130,0.070,0.00,0.0368,0.0254,0.0100,0.0087,2025-06-11T08:06:04.920023
2997,-0.2684,-0.1025,0.9931,0.035,-4.130,0.070,0.01,0.0368,0.0508,0.0200,0.0087,2025-06-11T08:06:04.920023
2998,-0.2699,-0.1035,0.9921,0.070,-4.095,0.000,0.01,0.0368,0.0508,0.0200,0.0087,2025-06-11T08:06:05.160658
2999,-0.2694,-0.1039,0.9906,0.000,-4.130,0.070,0.00,0.0184,0.0254,0.0100,0.0087,2025-06-11T08:06:05.160658
3000,-0.2674,-0.1039,0.9911,-0.035,-4.165,0.070,0.00,0.0368,0.0254,0.0100,0.0174,2025-06-11T08:06:05.160658
3001,-0.2694,-0.1039,0.9941,0.000,-4.165,0.035,0.00,0.0368,0.0254,0.0200,0.0174,2025-06-11T08:06:05.160658
3002,-0.2694,-0.1064,0.9911,-0.035,-4.130,0.035,0.00,0.0184,0.0254,0.0100,0.0087,2025-06-11T08:06:05.160658
3003,-0.2694,-0.1035,0.9945,0.035,-4.165,0.035,0.00,0.0184,0.0254,0.0100,0.0174,2025-06-11T08:06:05.160658
3004,-0.2684,-0.1035,0.9902,0.140,-4.200,0.105,0.01,0.0184,0.0254,0.0100,0.0087,2025-06-11T08:06:05.160658
3005,-0.2689,-0.1044,0.9945,-0.140,-4.130,0.105,0.00,0.0184,0.0254,0.0000,0.0087,2025-06-11T08:06:05.160658
3006,-0.2679,-0.1035,0.9911,0.105,-4.200,-0.035,0.00,0.0184,0.0254,0.0100,0.0174,2025-06-11T08:06:05.160658
3007,-0.2679,-0.1030,0.9926,-0.140,-4.130,0.035,0.00,0.0184,0.0254,0.0200,0.0174,2025-06-11T08:06:05.160658
3008,-0.2689,-0.1039,0.9916,0.000,-4.130,-0.035,0.01,0.0184,0.0254,0.0100,0.0174,2025-06-11T08:06:05.160658
3009,-0.2684,-0.1025,0.9911,0.070,-4.130,0.000,0.00,0.0368,0.0254,0.0100,0.0087,2025-06-11T08:06:05.160658
3010,-0.2679,-0.1049,0.9926,-0.070,-4.095,0.035,0.00,0.0184,0.0508,0.0200,0.0174,2025-06-11T08:06:05.160658
3011,-0.2684,-0.1030,0.9916,0.175,-4.200,0.140,0.00,0.0184,0.0000,0.0100,0.0087,2025-06-11T08:06:05.161655
3012,-0.2689,-0.1039,0.9936,-0.035,-4.130,0.070,0.00,0.0368,0.0254,0.0200,0.0174,2025-06-11T08:06:05.161655
3013,-0.2684,-0.1039,0.9941,0.070,-4.165,0.070,0.01,0.0368,0.0254,0.0100,0.0087,2025-06-11T08:06:05.161655
3014,-0.2679,-0.1035,0.9931,0.035,-4.095,0.070,0.01,0.0368,0.0508,0.0100,0.0174,2025-06-11T08:06:05.161655
3015,-0.2689,-0.1030,0.9926,0.035,-4.060,0.000,0.01,0.0368,0.0254,0.0200,0.0174,2025-06-11T08:06:05.335219
3016,-0.2684,-0.1015,0.9936,-0.035,-4.130,-0.070,0.00,0.0184,0.0508,0.0100,0.0087,2025-06-11T08:06:05.335219
3017,-0.2679,-0.1010,0.9926,0.000,-4.200,-0.035,0.01,0.0368,0.0508,0.0100,0.0087,2025-06-11T08:06:05.335219
3018,-0.2679,-0.1039,0.9936,0.000,-4.130,-0.035,0.01,0.0368,0.0254,0.0200,0.0174,2025-06-11T08:06:05.335219
3019,-0.2689,-0.1039,0.9921,0.070,-4.235,0.140,0.01,0.0184,0.0508,0.0100,0.0087,2025-06-11T08:06:05.335219
3020,-0.2689,-0.1025,0.9916,8.925,-4.060,0.105,0.01,0.0368,0.0508,0.0200,0.0087,2025-06-11T08:06:05.335219
3021,-0.2694,-0.1035,0.9916,0.035,-4.200,0.035,0.00,0.0184,0.0254,0.0100,0.0087,2025-06-11T08:06:05.335219
3022,-0.2674,-0.1039,0.9926,0.035,-4.060,0.000,0.00,0.0184,0.0254,0.0100,0.0087,2025-06-11T08:06:05.335219
3023,-0.2694,-0.1035,0.9936,-0.070,-4.165,0.070,0.00,0.0368,0.0254,0.0200,0.0174,2025-06-11T08:06:05.336302
3024,-0.2669,-0.1020,0.9916,0.140,-4.200,0.035,0.01,0.0368,0.0254,0.0100,0.0087,2025-06-11T08:06:05.336302
3025,-0.2689,-0.1039,0.9926,0.000,-4.130,0.105,0.00,0.0184,0.0254,0.0100,0.0087,2025-06-11T08:06:05.336302
3026,-0.2679,-0.1015,0.9936,-0.035,-4.130,0.035,0.00,0.0184,0.0254,0.0200,0.0087,2025-06-11T08:06:05.336302
3027,-0.2674,-0.1030,0.9931,0.070,-4.165,0.035,0.00,0.0368,0.0254,0.0100,0.0087,2025-06-11T08:06:05.336302
3028,-0.2684,-0.1025,0.9941,-0.035,-4.130,0.000,0.01,0.0184,0.0508,0.0100,0.0087,2025-06-11T08:06:05.336302
3029,-0.2684,-0.1015,0.9931,0.035,-4.270,0.035,0.01,0.0368,0.0254,0.0200,0.0174,2025-06-11T08:06:05.415947
3030,-0.2674,-0.1010,0.9916,-0.070,-4.060,0.035,0.01,0.0184,0.0508,0.0200,0.0087,2025-06-11T08:06:05.415947
3031,-0.2708,-0.1015,0.9931,0.140,-4.095,-0.035,0.00,0.0184,0.0508,0.0200,0.0087,2025-06-11T08:06:05.415947
3032,-0.2694,-0.1025,0.9921,0.035,-4.130,0.140,0.00,0.0184,0.0254,0.0200,0.0174,2025-06-11T08:06:05.693652
3033,-0.2679,-0.1030,0.9941,0.105,-4.130,0.070,0.01,0.0184,0.0508,0.0200,0.0087,2025-06-11T08:06:05.693652
3034,-0.2664,-0.1030,0.9931,-0.035,-4.165,0.035,0.00,0.0368,0.0254,0.0100,0.0087,2025-06-11T08:06:05.693652
3035,-0.2684,-0.1030,0.9941,0.000,-4.235,0.000,0.01,0.0184,0.0254,0.0200,0.0087,2025-06-11T08:06:05.693652
3036,-0.2679,-0.1030,0.9936,-0.035,-4.095,0.035,0.01,0.0184,0.0508,0.0200,0.0087,2025-06-11T08:06:05.693652
3037,-0.2708,-0.1039,0.9916,-0.070,-4.165,-0.035,0.00,0.0184,0.0254,0.0100,0.0087,2025-06-11T08:06:05.693652
3038,-0.2679,-0.1044,0.9926,-0.035,-4.130,0.035,0.01,0.0184,0.0254,0.0200,0.0087,2025-06-11T08:06:05.693652
3039,-0.2694,-0.1025,0.9921,0.070,-4.200,0.000,0.00,0.0184,0.0254,0.0100,0.0087,2025-06-11T08:06:05.693652
3040,-0.2684,-0.1035,0.9926,0.000,-4.095,0.000,0.00,0.0368,0.0254,0.0200,0.0087,2025-06-11T08:06:05.693652
3041,-0.2669,-0.1030,0.9936,0.035,-4.235,0.035,0.01,0.0368,0.0254,0.0100,0.0087,2025-06-11T08:06:05.694720
3042,-0.2674,-0.1035,0.9931,-0.070,-4.095,0.105,0.00,0.0184,0.0254,0.0200,0.0087,2025-06-11T08:06:05.694720
3043,-0.2699,-0.1030,0.9936,0.000,-4.130,0.000,0.01,0.0184,0.0508,0.0200,0.0087,2025-06-11T08:06:05.694720
3044,-0.2694,-0.1025,0.9921,0.105,-4.235,0.035,0.01,0.0184,0.0254,0.0100,0.0087,2025-06-11T08:06:05.694720
3045,-0.2679,-0.1035,0.9911,-0.105,-4.165,0.140,0.01,0.0184,0.0508,0.0100,0.0087,2025-06-11T08:06:05.694720
3046,-0.2684,-0.1020,0.9926,0.175,-4.200,0.070,0.00,0.0368,0.0508,0.0200,0.0087,2025-06-11T08:06:05.694720
3047,-0.2704,-0.1035,0.9941,-0.035,-4.095,-0.035,0.01,0.0184,0.0254,0.0100,0.0087,2025-06-11T08:06:05.694720
3048,-0.2689,-0.1035,0.9921,0.070,-4.095,0.035,0.00,0.0368,0.0508,0.0200,0.0087,2025-06-11T08:06:05.694720
