SeqNum,AccX,AccY,AccZ,GyroX,GyroY,GyroZ,Flex,Force1,Force2,Force3,Force4,TimestampReception
1,-0.5934,0.0859,0.8164,0.490,-7.910,0.490,1,1,1,338,333,2025-06-05T16:06:22.489789
2,-0.4304,-0.0996,0.7349,3.010,-18.690,62.755,1,2,2,346,333,2025-06-05T16:06:22.489789
3,-0.2054,-0.0122,0.8106,1.190,0.945,56.910,2,1,2,378,371,2025-06-05T16:06:22.490284
4,-0.3289,0.0073,0.8633,3.885,10.710,50.785,2,1,2,380,389,2025-06-05T16:06:22.490284
5,-0.4460,0.0395,0.9453,6.230,17.430,45.395,1,2,2,386,399,2025-06-05T16:06:22.490284
6,-0.5031,0.0200,0.9658,6.790,18.095,39.585,1,1,1,382,354,2025-06-05T16:06:22.490284
7,-0.5129,0.0498,0.8496,7.105,12.880,33.670,1,2,2,389,376,2025-06-05T16:06:22.490284
8,-0.3997,0.0698,0.7964,4.970,9.520,26.460,2,1,1,399,385,2025-06-05T16:06:22.490284
9,-0.3787,0.0683,0.8276,2.485,14.000,18.515,1,1,1,397,381,2025-06-05T16:06:22.490284
10,-0.4392,0.0791,0.8877,-0.105,19.040,13.685,1,1,2,385,371,2025-06-05T16:06:22.490284
11,-0.5329,0.0698,0.9370,0.910,13.510,8.785,1,1,1,389,374,2025-06-05T16:06:22.766749
12,-0.4797,0.0586,0.8252,0.175,13.055,3.045,2,1,2,395,389,2025-06-05T16:06:22.766749
13,-0.4900,0.0386,0.7584,-5.565,19.320,-2.765,2,1,2,395,395,2025-06-05T16:06:22.766749
14,-0.4948,0.0273,0.7452,-8.610,22.190,-7.665,1,1,2,392,357,2025-06-05T16:06:22.766749
15,-0.5793,0.0425,0.8150,-10.115,27.860,-9.940,1,1,1,388,336,2025-06-05T16:06:22.766749
16,-0.6808,0.0386,0.9589,-5.985,30.520,-10.885,2,2,1,378,366,2025-06-05T16:06:22.766749
17,-0.7271,0.0556,0.9867,4.130,27.440,-8.505,1,1,2,396,346,2025-06-05T16:06:22.766749
18,-0.7637,0.0903,0.8320,9.310,19.530,-9.485,1,1,1,392,362,2025-06-05T16:06:22.766749
19,-0.6891,0.0937,0.6271,9.135,19.355,-12.670,0,1,1,394,382,2025-06-05T16:06:22.766749
20,-0.6720,0.0815,0.5949,4.235,28.910,-13.580,2,1,1,404,349,2025-06-05T16:06:22.766749
21,-0.7476,0.0190,0.6671,5.845,36.050,-12.775,2,1,1,394,335,2025-06-05T16:06:22.766749
22,-0.7374,0.0839,0.6359,11.970,34.615,-17.220,1,2,1,385,367,2025-06-05T16:06:22.766749
23,-0.6378,0.1454,0.6217,12.670,43.540,-21.630,1,2,2,394,355,2025-06-05T16:06:22.766749
24,-0.9106,0.2323,0.7037,12.355,35.490,-20.475,1,2,1,395,377,2025-06-05T16:06:22.767581
25,-0.8960,0.2162,0.6954,15.190,6.300,-16.800,2,2,1,351,378,2025-06-05T16:06:22.767581
26,-0.8457,0.2391,0.6124,18.900,-6.370,-8.260,1,1,1,345,373,2025-06-05T16:06:22.767581
27,-0.9160,0.3265,0.5617,17.010,-19.390,3.570,1,1,1,373,383,2025-06-05T16:06:22.767581
28,-0.8018,0.3089,0.6554,18.830,-30.590,10.570,2,1,1,375,384,2025-06-05T16:06:22.767581
29,-0.5636,0.2899,0.8003,23.555,-26.600,12.285,1,2,2,375,381,2025-06-05T16:06:22.767581
30,-0.4636,0.2982,0.7198,25.410,-14.595,12.180,2,2,2,390,321,2025-06-05T16:06:22.873405
31,-0.5339,0.2762,0.6612,21.385,-0.665,11.340,2,1,2,377,357,2025-06-05T16:06:22.873405
32,-0.6769,0.3235,0.6378,18.795,4.480,12.215,2,2,1,393,379,2025-06-05T16:06:22.873405
33,-0.7559,0.3270,0.6637,19.285,-1.960,14.490,1,2,1,401,390,2025-06-05T16:06:22.873405
34,-0.8179,0.4163,0.7261,19.390,-7.735,16.695,2,2,1,407,393,2025-06-05T16:06:22.873405
35,-0.7584,0.4177,0.7027,19.600,-18.235,17.745,2,1,1,396,393,2025-06-05T16:06:22.873405
36,-0.6451,0.4016,0.6837,17.045,-16.660,16.205,1,0,1,379,379,2025-06-05T16:06:22.873405
37,-0.6451,0.3475,0.6886,12.250,-8.400,15.330,1,1,1,371,377,2025-06-05T16:06:22.873405
38,-0.6827,0.3475,0.6295,8.050,-4.725,14.630,1,1,1,385,395,2025-06-05T16:06:22.873405
39,-0.8228,0.3782,0.5695,3.710,-8.330,13.265,1,2,1,397,399,2025-06-05T16:06:22.873405
40,-0.8174,0.3850,0.6617,3.325,-11.305,14.105,1,2,1,399,387,2025-06-05T16:06:22.873405
41,-0.8628,0.4026,0.7013,7.980,-15.610,15.225,1,1,1,384,359,2025-06-05T16:06:22.873405
42,-0.8233,0.3802,0.7476,12.775,-18.270,17.080,1,1,1,384,350,2025-06-05T16:06:22.873405
43,-0.8101,0.3680,0.8023,16.590,-22.085,23.940,1,1,1,376,375,2025-06-05T16:06:22.873405
44,-0.8525,0.3645,0.7232,19.740,-33.215,28.595,2,1,1,382,339,2025-06-05T16:06:22.973494
45,-0.7466,0.3806,0.6324,18.900,-36.995,30.695,1,2,2,389,367,2025-06-05T16:06:22.973494
46,-0.6974,0.3694,0.7247,17.640,-36.190,32.270,2,2,1,399,376,2025-06-05T16:06:22.974489
47,-0.6749,0.3753,0.7071,20.860,-41.510,31.395,2,2,1,387,379,2025-06-05T16:06:22.974489
48,-0.5109,0.2582,0.5744,18.165,-36.470,26.320,1,2,1,347,381,2025-06-05T16:06:22.974489
49,-0.4280,0.3133,0.5768,12.110,-23.520,22.540,2,2,1,376,401,2025-06-05T16:06:22.974489
50,-0.3421,0.2772,0.8145,13.195,-8.190,27.790,1,2,1,391,392,2025-06-05T16:06:22.974489
51,-0.4392,0.3118,0.8945,17.850,4.900,28.420,1,1,1,379,382,2025-06-05T16:06:22.974489
52,-0.6183,0.3372,0.7520,20.720,6.475,22.750,2,1,2,384,353,2025-06-05T16:06:23.113598
53,-0.6910,0.3479,0.6295,19.705,2.030,15.750,1,1,1,376,366,2025-06-05T16:06:23.113598
54,-0.7530,0.3357,0.5944,14.560,-0.980,11.270,2,2,1,377,365,2025-06-05T16:06:23.114595
55,-0.9013,0.3211,0.4670,7.455,-9.345,4.340,2,2,2,392,374,2025-06-05T16:06:23.114595
56,-0.8935,0.2406,0.2845,0.070,-21.105,-3.500,2,1,2,393,383,2025-06-05T16:06:23.114595
57,-0.8418,0.1889,0.1518,-9.625,-35.315,-7.455,1,1,2,382,390,2025-06-05T16:06:23.114595
58,-0.6271,0.1918,0.3343,-17.080,-44.730,-10.185,1,1,1,381,392,2025-06-05T16:06:23.114595
59,-0.7139,0.1493,0.7398,-20.755,-36.540,-9.240,1,1,1,362,384,2025-06-05T16:06:23.114595
60,-0.8418,0.2079,0.9819,-5.600,-38.395,-9.170,2,2,1,384,398,2025-06-05T16:06:23.114595
61,-0.6290,0.2606,0.9614,12.705,-43.050,-5.915,2,1,1,395,396,2025-06-05T16:06:23.114595
62,-0.4890,0.3055,0.8106,25.410,-32.620,-2.310,1,1,2,390,400,2025-06-05T16:06:23.114595
63,-0.5280,0.3743,0.6978,30.240,-28.420,-2.625,1,1,1,398,362,2025-06-05T16:06:23.114595
64,-0.6427,0.3260,0.6246,32.795,-29.925,-6.370,2,2,2,397,375,2025-06-05T16:06:23.299528
65,-0.6364,0.3050,0.6183,33.985,-32.340,-7.210,1,1,1,351,373,2025-06-05T16:06:23.299887
66,-0.5592,0.2704,0.6007,29.855,-35.805,-8.015,1,2,1,366,380,2025-06-05T16:06:23.299887
67,-0.3875,0.2874,0.5724,25.900,-32.480,-9.975,1,1,1,372,386,2025-06-05T16:06:23.299887
68,-0.3811,0.2567,0.6281,16.345,-24.255,-6.440,1,1,1,386,395,2025-06-05T16:06:23.299887
69,-0.4421,0.2625,0.7125,7.420,-22.610,-4.060,1,1,1,382,387,2025-06-05T16:06:23.299887
70,-0.4738,0.3470,0.7427,3.920,-20.160,-3.325,1,1,1,390,384,2025-06-05T16:06:23.299887
71,-0.6515,0.3855,0.8272,2.765,-19.530,-3.115,1,1,2,387,388,2025-06-05T16:06:23.299887
72,-0.6939,0.4046,0.9062,7.070,-31.220,-5.215,2,1,1,393,391,2025-06-05T16:06:23.299887
73,-0.4895,0.4041,1.0024,19.670,-32.550,-8.715,1,1,1,395,399,2025-06-05T16:06:23.299887
74,-0.4939,0.3694,0.9252,24.885,-24.465,-8.330,1,2,1,399,388,2025-06-05T16:06:23.299887
75,-0.4470,0.3699,0.7945,24.990,-16.660,-8.225,1,1,1,350,380,2025-06-05T16:06:23.299887
76,-0.4563,0.3782,0.7657,18.585,-13.195,-5.600,1,2,1,357,377,2025-06-05T16:06:23.299887
77,-0.3592,0.3797,0.9199,12.635,-0.070,-8.750,1,1,1,363,384,2025-06-05T16:06:23.299887
78,-0.2845,0.4143,1.1165,12.075,14.280,-14.070,1,2,1,377,391,2025-06-05T16:06:23.299887
79,-0.1820,0.4133,1.1663,18.060,43.995,-17.220,1,1,2,354,387,2025-06-05T16:06:23.487215
80,-0.1835,0.4231,1.0170,18.060,76.160,-20.125,2,1,3,300,377,2025-06-05T16:06:23.487404
81,-0.2860,0.4070,0.7349,11.480,97.020,-21.350,2,2,2,310,389,2025-06-05T16:06:23.487404
82,-0.5944,0.3797,0.4133,-0.770,87.710,-21.910,1,2,1,352,400,2025-06-05T16:06:23.487404
83,-1.0136,0.3372,0.3616,-10.745,47.810,-20.265,1,2,1,372,391,2025-06-05T16:06:23.487404
84,-0.8774,0.3357,0.4826,-18.270,23.520,-13.510,1,1,1,367,398,2025-06-05T16:06:23.487404
85,-0.8457,0.2962,0.5983,-21.875,10.780,-7.525,1,1,1,383,401,2025-06-05T16:06:23.487404
86,-0.7100,0.2713,0.7159,-20.720,0.980,-7.280,1,1,1,377,388,2025-06-05T16:06:23.487404
87,-0.5739,0.2606,0.7383,-16.625,2.590,-6.650,1,1,1,378,394,2025-06-05T16:06:23.487404
88,-0.5973,0.3001,0.6451,-14.805,2.590,-6.265,1,1,1,384,397,2025-06-05T16:06:23.487404
89,-0.6690,0.3353,0.5197,-11.025,-4.095,-12.670,1,1,1,380,406,2025-06-05T16:06:23.487404
90,-0.6754,0.3767,0.4685,-13.195,-5.705,-20.860,1,1,1,388,365,2025-06-05T16:06:23.487404
91,-0.7222,0.3567,0.5695,-14.035,-7.980,-23.485,1,1,1,388,382,2025-06-05T16:06:23.487404
92,-0.7818,0.3284,0.5793,-13.860,-17.395,-25.270,1,1,0,348,376,2025-06-05T16:06:23.487404
93,-0.8072,0.2869,0.5290,-18.095,-29.680,-26.635,1,1,1,359,387,2025-06-05T16:06:23.487404
94,-0.8564,0.1625,0.6198,-23.835,-39.375,-25.060,1,1,1,366,396,2025-06-05T16:06:23.487404
95,-0.7388,0.0195,0.7623,-19.215,-47.005,-19.705,1,1,1,384,359,2025-06-05T16:06:23.589424
96,-0.6407,0.0703,0.9521,-8.085,-48.405,-12.180,1,2,1,342,370,2025-06-05T16:06:23.589424
97,-0.5490,0.1205,0.9423,-0.350,-43.120,-10.710,1,1,2,362,374,2025-06-05T16:06:23.590398
98,-0.4651,0.1205,0.9872,4.270,-27.300,-11.235,2,1,1,364,354,2025-06-05T16:06:23.590398
99,-0.5412,0.1279,0.9740,13.475,-20.615,-12.215,1,1,1,381,379,2025-06-05T16:06:23.590398
100,-0.7315,0.1850,0.7174,20.125,-27.720,-11.620,1,1,1,393,375,2025-06-05T16:06:23.590398
101,-0.7422,0.1976,0.6861,17.920,-40.180,-11.655,1,2,1,382,392,2025-06-05T16:06:23.590398
102,-0.6212,0.1996,0.7232,12.985,-48.860,-11.865,2,1,1,386,391,2025-06-05T16:06:23.590398
103,-0.5080,0.1820,0.8218,9.870,-46.445,-12.075,1,1,2,384,396,2025-06-05T16:06:23.590398
104,-0.4914,0.1737,0.9711,9.905,-39.970,-8.925,1,2,1,350,398,2025-06-05T16:06:23.690148
105,-0.5056,0.1981,0.9443,15.610,-38.430,-9.835,2,2,2,382,372,2025-06-05T16:06:23.690148
106,-0.3123,0.2123,0.8701,16.380,-28.805,-14.280,2,2,1,372,386,2025-06-05T16:06:23.690148
107,-0.4914,0.1942,0.8428,14.980,-16.835,-16.590,1,2,1,375,388,2025-06-05T16:06:23.690148
108,-0.3733,0.1703,0.8174,15.015,-3.045,-18.760,1,2,1,391,352,2025-06-05T16:06:23.690148
109,-0.4431,0.1405,0.7198,13.965,5.810,-19.320,1,1,2,378,375,2025-06-05T16:06:23.690148
110,-0.5729,0.1474,0.6144,8.890,7.875,-17.080,1,1,1,346,351,2025-06-05T16:06:23.690148
111,-0.6461,0.1874,0.8223,1.155,7.385,-12.005,2,2,1,370,379,2025-06-05T16:06:23.690148
112,-0.6285,0.2172,1.0258,6.335,1.925,-9.590,2,1,1,389,374,2025-06-05T16:06:23.792722
113,-0.5392,0.3030,1.0390,17.115,-0.665,-7.385,1,1,2,392,357,2025-06-05T16:06:23.792722
114,-0.5129,0.3099,0.9516,24.850,7.070,-3.955,2,1,2,395,381,2025-06-05T16:06:23.792722
115,-0.6290,0.3006,0.8130,35.490,6.825,0.700,2,2,1,386,349,2025-06-05T16:06:23.793795
116,-0.6886,0.2733,0.7174,25.480,2.240,5.635,1,2,1,344,363,2025-06-05T16:06:23.793795
117,-0.7447,0.2684,0.6856,23.310,-7.350,8.400,2,1,0,327,368,2025-06-05T16:06:23.793795
118,-0.7774,0.3001,0.6520,18.200,-19.425,11.515,2,1,1,349,388,2025-06-05T16:06:23.793795
119,-0.6290,0.3113,0.7261,15.610,-27.195,13.475,2,1,1,374,400,2025-06-05T16:06:23.793795
120,-0.4699,0.2528,0.8379,17.080,-24.605,14.630,1,1,1,368,363,2025-06-05T16:06:23.793795
121,-0.3811,0.2967,0.9091,19.005,-15.890,11.760,2,2,1,367,370,2025-06-05T16:06:24.008045
122,-0.4021,0.3045,0.9438,24.290,-2.275,7.945,1,1,1,380,350,2025-06-05T16:06:24.008045
123,-0.4368,0.3128,0.8579,30.065,8.505,4.375,1,2,1,392,382,2025-06-05T16:06:24.008045
124,-0.6603,0.2904,0.6456,28.560,-1.785,-0.070,2,1,1,355,377,2025-06-05T16:06:24.008505
125,-0.6134,0.3377,0.6012,22.435,-16.485,-1.540,1,1,2,387,393,2025-06-05T16:06:24.008505
126,-0.4607,0.3460,0.7086,14.840,-22.435,-2.065,1,1,1,352,345,2025-06-05T16:06:24.008505
127,-0.4211,0.3177,0.8018,11.130,-19.530,-5.985,1,2,2,364,334,2025-06-05T16:06:24.008505
128,-0.3933,0.2913,0.8164,8.680,-15.435,-10.010,1,2,1,372,359,2025-06-05T16:06:24.008505
129,-0.4031,0.2796,0.7989,8.085,-3.850,-13.615,1,1,1,381,368,2025-06-05T16:06:24.008505
130,-0.6256,0.2474,0.7710,8.890,-1.785,-13.265,2,2,1,392,387,2025-06-05T16:06:24.008505
131,-0.6442,0.2094,0.7906,7.980,-8.855,-12.285,1,2,1,354,343,2025-06-05T16:06:24.008505
132,-0.5871,0.1693,0.8711,7.490,-7.595,-9.170,1,1,1,365,356,2025-06-05T16:06:24.107711
133,-0.5534,0.1571,0.9048,11.375,-2.380,-5.600,2,2,2,380,377,2025-06-05T16:06:24.107711
134,-0.6002,0.1620,0.8120,15.680,4.305,-5.110,2,1,1,376,347,2025-06-05T16:06:24.107711
135,-0.6193,0.1693,0.7335,20.125,7.175,-4.270,2,1,1,382,335,2025-06-05T16:06:24.107711
136,-0.6100,0.1889,0.6168,20.265,7.175,-2.660,2,1,1,387,325,2025-06-05T16:06:24.107711
137,-0.6061,0.2035,0.5529,19.005,3.185,-1.050,1,2,1,389,362,2025-06-05T16:06:24.107711
138,-0.4782,0.2157,0.5851,13.055,5.250,-4.410,1,2,1,387,366,2025-06-05T16:06:24.107711
139,-0.3582,0.1962,0.5758,6.510,15.785,-11.585,1,1,1,381,386,2025-06-05T16:06:24.107711
140,-0.3475,0.1381,0.6007,2.765,26.215,-18.410,1,1,1,394,393,2025-06-05T16:06:24.107711
141,-0.4812,0.1366,0.6500,-2.940,38.255,-24.080,1,1,1,398,383,2025-06-05T16:06:24.107711
142,-0.5549,0.0854,0.7832,-1.995,49.315,-26.075,2,1,2,384,359,2025-06-05T16:06:24.107711
143,-0.7969,0.0595,0.8984,9.415,53.830,-24.815,2,1,1,379,379,2025-06-05T16:06:24.107711
144,-0.9018,0.0683,1.0126,28.910,47.880,-23.170,2,1,0,312,384,2025-06-05T16:06:24.107711
145,-0.7335,0.1845,0.9711,38.220,41.965,-19.460,1,1,1,350,389,2025-06-05T16:06:24.107711
146,-0.6163,0.2723,0.8086,41.580,50.995,-8.575,1,2,1,365,352,2025-06-05T16:06:24.107711
147,-0.5939,0.2469,0.7300,42.525,46.760,-6.335,1,1,2,380,370,2025-06-05T16:06:24.207483
148,-0.6466,0.3387,0.6676,40.670,42.105,5.880,2,2,1,376,369,2025-06-05T16:06:24.207483
149,-0.8945,0.3889,0.6422,43.015,27.405,13.965,1,2,2,385,373,2025-06-05T16:06:24.207483
150,-0.9550,0.3841,0.4885,44.415,2.030,12.845,2,1,1,393,378,2025-06-05T16:06:24.207483
151,-0.9736,0.3694,0.4831,40.145,-12.005,8.050,2,2,1,379,380,2025-06-05T16:06:24.208787
152,-0.9960,0.2874,0.5187,29.995,-10.045,5.670,1,1,1,374,343,2025-06-05T16:06:24.208787
153,-0.8403,0.2411,0.4563,23.100,-22.890,-0.665,1,1,1,382,379,2025-06-05T16:06:24.208787
154,-0.5719,0.2123,0.6534,28.350,-22.505,4.235,1,1,1,394,351,2025-06-05T16:06:24.208787
155,-0.5397,0.2728,0.7754,27.335,-20.230,14.035,1,1,1,393,366,2025-06-05T16:06:24.748155
156,-0.5061,0.2889,0.8389,29.680,-10.360,25.795,1,2,1,388,339,2025-06-05T16:06:24.748155
157,-0.6124,0.3806,0.7842,29.785,13.125,31.570,2,1,1,389,354,2025-06-05T16:06:24.748241
158,-0.6481,0.3963,0.6193,27.370,36.820,25.095,2,1,1,395,361,2025-06-05T16:06:24.748241
159,-0.8072,0.4421,0.5544,26.600,48.475,18.725,2,2,1,381,337,2025-06-05T16:06:24.748241
160,-0.5783,0.4553,0.5270,29.155,47.215,17.990,1,2,1,376,331,2025-06-05T16:06:24.748241
161,-0.7056,0.4953,0.4797,29.330,28.385,18.620,1,2,2,389,349,2025-06-05T16:06:24.748241
162,-0.9540,0.5022,0.5041,32.375,4.865,19.915,1,1,2,380,332,2025-06-05T16:06:24.748241
163,-0.9311,0.5266,0.4758,29.540,-8.015,20.475,2,2,1,374,354,2025-06-05T16:06:24.748241
164,-0.7945,0.5446,0.4026,27.545,-32.795,13.825,1,1,1,346,362,2025-06-05T16:06:24.748241
165,-0.7466,0.5666,0.4851,24.955,-51.135,10.290,1,2,1,369,377,2025-06-05T16:06:24.748241
166,-0.6681,0.6154,0.4719,18.935,-60.200,8.925,1,1,1,389,386,2025-06-05T16:06:24.748241
167,-0.4211,0.5451,0.5197,19.425,-58.030,7.770,1,1,1,395,389,2025-06-05T16:06:24.748241
168,-0.3518,0.5758,0.5397,18.865,-52.570,3.990,2,2,1,396,379,2025-06-05T16:06:24.748241
169,-0.5602,0.6534,0.5480,14.210,-46.655,1.225,1,1,1,383,378,2025-06-05T16:06:24.748241
170,-0.4812,0.6105,0.5539,14.385,-34.930,3.395,1,1,1,394,353,2025-06-05T16:06:24.748241
171,-0.4797,0.6339,0.4358,9.030,-27.265,1.715,1,1,1,348,359,2025-06-05T16:06:24.748241
172,-0.6154,0.6198,0.4207,7.490,-22.435,1.400,2,1,2,363,381,2025-06-05T16:06:24.748241
173,-0.7530,0.6324,0.3865,1.575,-18.935,0.735,1,1,1,382,394,2025-06-05T16:06:24.748241
174,-0.7135,0.5905,0.3860,1.050,-12.635,-1.470,2,2,1,381,397,2025-06-05T16:06:24.748241
175,-0.7003,0.6129,0.3855,-2.310,-13.055,-4.480,1,1,1,391,400,2025-06-05T16:06:24.748241
176,-0.7027,0.6051,0.4436,-2.030,-5.145,-1.925,2,1,1,389,399,2025-06-05T16:06:24.748241
177,-0.6578,0.5968,0.4714,-2.940,-0.910,-7.910,1,2,1,364,399,2025-06-05T16:06:24.748241
178,-0.6237,0.5758,0.5231,0.455,3.325,-8.190,1,1,1,376,393,2025-06-05T16:06:24.748241
179,-0.6700,0.5573,0.5500,4.690,4.480,-5.985,1,1,2,392,400,2025-06-05T16:06:24.748241
180,-0.7144,0.6139,0.4778,4.445,4.375,-7.735,2,1,1,396,406,2025-06-05T16:06:24.748241
181,-0.7554,0.6032,0.4973,5.740,0.770,-5.355,2,2,1,400,400,2025-06-05T16:06:24.748241
182,-0.6744,0.5710,0.4616,4.830,1.890,-4.165,1,2,1,392,390,2025-06-05T16:06:24.748241
183,-0.6134,0.5261,0.4714,7.420,2.100,-1.960,1,1,1,400,399,2025-06-05T16:06:24.748241
184,-0.5144,0.5222,0.5222,8.715,7.665,-1.820,1,1,0,357,384,2025-06-05T16:06:24.748241
185,-0.6583,0.5348,0.5588,8.260,17.675,-3.535,2,1,1,374,383,2025-06-05T16:06:24.748241
186,-0.6715,0.5129,0.5544,9.835,27.825,-7.105,1,1,1,380,392,2025-06-05T16:06:24.750142
187,-0.6832,0.4890,0.5104,9.625,32.865,-10.080,2,1,2,385,391,2025-06-05T16:06:24.750142
188,-0.7252,0.4597,0.4734,10.500,33.460,-11.025,1,1,1,387,393,2025-06-05T16:06:24.750142
189,-0.7886,0.4397,0.4494,10.150,29.225,-10.395,2,2,1,386,392,2025-06-05T16:06:24.750142
190,-0.8394,0.4294,0.4758,11.410,20.090,-8.925,2,1,1,359,388,2025-06-05T16:06:24.750142
191,-0.8242,0.4133,0.4909,12.950,8.225,-6.510,1,1,2,374,398,2025-06-05T16:06:24.750142
192,-0.8130,0.4216,0.5148,14.315,0.700,-3.675,1,2,0,340,401,2025-06-05T16:06:24.750142
193,-0.8052,0.4397,0.5080,15.050,-2.660,-2.520,1,1,2,373,402,2025-06-05T16:06:24.750142
194,-0.7823,0.4431,0.4934,14.945,-2.695,-3.045,1,1,1,386,363,2025-06-05T16:06:24.750142
195,-0.7745,0.4548,0.4656,13.335,-2.240,-4.865,2,1,1,342,374,2025-06-05T16:06:24.837778
196,-0.7340,0.4421,0.4285,12.145,-1.820,-6.790,2,2,1,360,346,2025-06-05T16:06:24.837778
197,-0.7013,0.4333,0.4319,9.905,-2.100,-6.825,2,2,1,332,369,2025-06-05T16:06:24.837778
198,-0.7017,0.4294,0.4153,8.540,-6.545,-5.180,2,1,1,369,380,2025-06-05T16:06:24.837778
199,-0.7535,0.4407,0.4182,6.370,-7.385,-5.495,2,2,2,388,388,2025-06-05T16:06:24.837778
200,-0.8057,0.4563,0.4114,4.095,-9.310,-8.155,1,2,1,387,397,2025-06-05T16:06:24.837778
201,-0.8384,0.4582,0.4329,3.850,-12.075,-12.530,1,1,1,395,380,2025-06-05T16:06:25.079197
202,-0.8267,0.4753,0.4695,3.080,-18.025,-14.210,1,1,1,351,391,2025-06-05T16:06:25.079197
203,-0.8379,0.4826,0.4612,2.310,-29.330,-13.510,2,1,1,380,360,2025-06-05T16:06:25.079197
204,-0.6334,0.4787,0.4168,0.350,-39.375,-10.430,1,1,2,374,371,2025-06-05T16:06:25.079197
205,-0.6798,0.4553,0.3206,-2.310,-48.335,-7.175,1,1,1,375,370,2025-06-05T16:06:25.079197
206,-0.5846,0.4534,0.3133,-6.755,-52.850,-4.480,1,1,1,383,371,2025-06-05T16:06:25.079197
207,-0.5607,0.4690,0.3611,-8.260,-45.640,-3.500,2,2,2,391,378,2025-06-05T16:06:25.079197
208,-0.5383,0.5290,0.4221,-9.485,-30.345,-7.875,2,2,1,393,375,2025-06-05T16:06:25.079197
209,-0.5797,0.5739,0.4524,-10.605,-17.080,-12.775,1,2,2,400,352,2025-06-05T16:06:25.079197
210,-0.6110,0.5807,0.4446,-11.445,-3.255,-16.905,1,2,1,396,369,2025-06-05T16:06:25.079197
211,-0.7115,0.5773,0.4636,-11.725,4.165,-20.615,1,2,1,384,378,2025-06-05T16:06:25.079197
212,-0.8023,0.5607,0.4909,-10.185,1.540,-18.830,2,2,1,396,392,2025-06-05T16:06:25.079197
213,-0.8730,0.5388,0.4699,-9.380,-11.340,-14.455,1,2,1,395,396,2025-06-05T16:06:25.079197
214,-0.8999,0.4856,0.4377,-10.990,-27.195,-8.435,1,1,1,400,404,2025-06-05T16:06:25.079197
215,-0.9209,0.4943,0.4255,-14.910,-40.145,-3.535,2,1,1,398,356,2025-06-05T16:06:25.079197
216,-0.8740,0.4817,0.5246,-18.340,-46.935,-1.120,2,3,1,401,365,2025-06-05T16:06:25.079197
217,-0.7749,0.5358,0.6329,-18.445,-40.460,2.765,2,1,1,403,379,2025-06-05T16:06:25.079197
218,-0.7349,0.5290,0.6237,-19.635,-27.755,8.365,1,1,1,390,391,2025-06-05T16:06:25.079197
219,-0.6969,0.5139,0.6027,-19.845,-15.925,13.370,2,2,1,399,401,2025-06-05T16:06:25.079197
220,-0.6964,0.4968,0.5480,-24.500,-6.930,17.220,2,1,1,394,393,2025-06-05T16:06:25.079197
221,-0.6710,0.4753,0.5656,-28.525,1.155,20.230,2,1,1,393,387,2025-06-05T16:06:25.079197
222,-0.6910,0.4621,0.5807,-30.415,9.275,23.345,2,1,1,379,382,2025-06-05T16:06:25.079197
223,-0.7886,0.2826,0.6100,-33.460,15.295,24.150,1,1,1,377,376,2025-06-05T16:06:25.079197
224,-0.7105,0.6959,0.6827,-29.540,8.435,22.820,2,2,1,387,382,2025-06-05T16:06:25.079197
225,-0.8994,0.3030,0.6871,-19.705,-0.805,31.675,1,1,1,390,348,2025-06-05T16:06:25.079197
226,-1.2146,0.2562,0.8023,-4.375,-54.075,42.420,2,2,2,394,365,2025-06-05T16:06:25.235673
227,-0.9804,0.0322,1.1004,22.715,-90.160,24.010,1,1,2,399,373,2025-06-05T16:06:25.235673
228,-0.3479,0.2259,1.4215,44.065,-105.350,13.405,1,1,1,387,382,2025-06-05T16:06:25.235673
229,-0.2069,0.3274,0.8872,44.905,-54.810,11.935,1,2,2,396,394,2025-06-05T16:06:25.235673
230,-0.6773,0.2523,0.4695,31.325,-36.330,7.980,1,2,1,393,398,2025-06-05T16:06:25.235673
231,-0.7871,0.2772,0.3426,11.690,-39.200,12.635,2,0,1,386,397,2025-06-05T16:06:25.235673
232,-0.7520,0.3392,0.5353,-3.815,-46.235,18.340,1,2,1,395,401,2025-06-05T16:06:25.235673
233,-0.7788,0.3670,0.7891,1.260,-48.825,19.005,1,2,1,353,381,2025-06-05T16:06:25.235673
234,-0.8072,0.4143,0.8203,4.480,-56.175,24.150,2,1,1,331,368,2025-06-05T16:06:25.235673
235,-0.7149,0.3933,0.7901,7.630,-64.540,27.160,2,1,1,320,335,2025-06-05T16:06:25.235673
236,-0.6154,0.4612,0.6564,17.850,-56.385,27.825,1,1,0,317,360,2025-06-05T16:06:25.235673
237,-0.5744,0.5363,0.5163,9.905,-52.920,23.030,2,1,1,351,372,2025-06-05T16:06:25.235673
238,-0.4128,0.5095,0.5148,9.730,-47.040,15.295,1,1,1,362,391,2025-06-05T16:06:25.235673
239,-0.2972,0.4656,0.5846,8.260,-34.965,10.815,1,1,1,339,391,2025-06-05T16:06:25.235673
240,-0.4324,0.4026,0.6271,5.845,-21.035,7.000,1,1,1,372,408,2025-06-05T16:06:25.235673
241,-0.8091,0.3650,0.6324,7.875,-33.180,10.850,1,1,2,335,392,2025-06-05T16:06:25.550839
242,-0.7276,0.3845,0.6232,10.780,-56.175,14.595,2,2,1,361,406,2025-06-05T16:06:25.550839
243,-0.5051,0.4236,0.6520,13.440,-61.390,14.315,2,2,2,368,392,2025-06-05T16:06:25.550839
244,-0.4055,0.4465,0.6832,13.300,-51.520,0.385,2,3,2,375,386,2025-06-05T16:06:25.551836
245,-0.3055,0.4065,0.6978,9.940,-33.320,1.330,2,2,1,382,391,2025-06-05T16:06:25.551836
246,-0.4285,0.3821,0.6515,5.880,-26.880,-5.110,1,2,1,375,391,2025-06-05T16:06:25.551836
247,-0.6949,0.3572,0.6383,-0.525,-36.365,-0.560,1,2,1,379,391,2025-06-05T16:06:25.551836
248,-0.7613,0.3484,0.5880,-8.995,-46.130,4.655,0,1,1,385,395,2025-06-05T16:06:25.551836
249,-0.7227,0.3909,0.5939,-16.555,-66.535,17.640,1,2,1,393,383,2025-06-05T16:06:25.551836
250,-0.3294,0.4255,0.6090,-25.200,-63.910,8.225,1,2,2,378,361,2025-06-05T16:06:25.551836
251,-0.2245,0.5114,0.6329,-33.390,-47.600,3.150,1,1,1,380,342,2025-06-05T16:06:25.551836
252,-0.3104,0.5051,0.8340,-30.835,-32.795,-1.260,1,2,1,384,360,2025-06-05T16:06:25.551836
253,-0.5012,0.4787,1.0326,-18.165,-29.505,-2.555,2,1,1,396,378,2025-06-05T16:06:25.551836
254,-0.6861,0.5778,0.8847,6.440,-52.605,0.525,1,1,1,399,375,2025-06-05T16:06:25.552841
255,-0.5363,0.6080,0.7745,17.990,-70.665,2.940,1,1,2,405,373,2025-06-05T16:06:25.552841
256,-0.4548,0.5793,0.7764,16.135,-65.240,1.645,1,1,1,388,340,2025-06-05T16:06:25.552841
257,-0.2879,0.4563,0.7496,15.400,-57.680,-1.855,1,1,2,382,368,2025-06-05T16:06:25.553072
258,-0.3738,0.3479,0.7169,8.890,-43.190,-1.890,1,2,2,387,385,2025-06-05T16:06:25.553072
259,-0.5358,0.2440,0.6856,2.870,-43.050,3.185,2,2,1,387,395,2025-06-05T16:06:25.553072
260,-0.5056,0.2338,0.6974,-5.740,-47.215,7.595,1,2,1,398,406,2025-06-05T16:06:25.553072
261,-0.4207,0.2372,0.7364,-11.165,-53.445,11.760,1,1,1,382,396,2025-06-05T16:06:25.650531
262,-0.2884,0.2762,0.7701,-14.420,-37.835,6.335,2,2,1,389,398,2025-06-05T16:06:25.650666
263,-0.1850,0.2865,0.9360,-14.665,-7.875,-1.435,1,1,1,394,390,2025-06-05T16:06:25.650666
264,-0.2879,0.3328,0.9321,-4.900,7.490,-8.120,2,2,2,397,389,2025-06-05T16:06:25.650666
265,-0.2357,0.3226,0.8032,5.740,17.640,-11.480,1,2,1,383,386,2025-06-05T16:06:25.650666
266,-0.3514,0.2704,0.6251,9.415,11.305,-6.720,1,1,1,385,384,2025-06-05T16:06:25.650666
267,-0.3821,0.3553,0.5295,5.040,-11.270,-0.840,1,1,1,349,383,2025-06-05T16:06:25.650666
268,-0.2460,0.4168,0.6446,-1.575,-13.405,-1.365,2,2,1,380,356,2025-06-05T16:06:25.650666
269,0.0122,0.3743,0.9545,-5.040,13.895,-14.385,1,2,1,383,376,2025-06-05T16:06:25.650666
270,-0.1469,0.3396,0.9370,1.890,35.770,-19.950,2,1,1,392,314,2025-06-05T16:06:25.650666
271,-0.4656,0.3699,0.7086,6.615,39.130,-21.175,1,1,1,381,352,2025-06-05T16:06:25.650666
272,-0.7784,0.4324,0.6593,-3.115,24.955,-14.560,2,1,1,394,382,2025-06-05T16:06:25.650666
273,-0.7686,0.5022,0.8198,-7.210,3.640,-5.670,1,1,1,397,346,2025-06-05T16:06:25.650666
274,-0.7632,0.5754,0.9238,-7.245,-9.975,1.225,1,1,1,387,361,2025-06-05T16:06:25.650666
275,-0.8306,0.5148,0.8906,-0.560,-27.545,4.585,2,2,2,352,366,2025-06-05T16:06:25.650666
276,-0.4075,0.4333,0.9887,0.315,-25.445,-3.150,2,1,1,374,384,2025-06-05T16:06:25.827451
277,-0.3675,0.2479,0.8433,0.770,-24.745,-1.365,1,1,1,375,379,2025-06-05T16:06:25.828204
278,-0.2782,0.1659,0.5944,-4.935,-25.410,-7.700,2,1,1,382,395,2025-06-05T16:06:25.828204
279,-0.2440,0.1337,0.6100,-18.025,-14.210,-10.115,2,2,1,381,391,2025-06-05T16:06:25.828204
280,-0.3611,0.2572,0.7296,-25.900,-0.630,-12.425,1,1,1,385,401,2025-06-05T16:06:25.828204
281,-0.5729,0.3640,0.8008,-27.265,10.815,-13.195,1,2,1,385,383,2025-06-05T16:06:25.828204
282,-0.6046,0.4465,0.8657,-22.680,15.610,-14.595,1,1,1,375,379,2025-06-05T16:06:25.828204
283,-0.5773,0.4543,0.9189,-12.040,11.025,-14.805,1,2,1,380,379,2025-06-05T16:06:25.828204
284,-0.6554,0.4758,0.8545,1.995,3.185,-14.070,1,2,2,390,394,2025-06-05T16:06:25.828204
285,-0.6051,0.5602,0.7208,7.805,-4.445,-10.570,1,1,2,387,392,2025-06-05T16:06:25.828204
286,-0.4821,0.5724,0.6349,3.500,-16.555,-7.735,1,1,1,377,386,2025-06-05T16:06:25.950926
287,-0.1371,0.4368,0.7008,-2.380,-18.760,-5.880,2,1,1,393,400,2025-06-05T16:06:25.950926
288,-0.0776,0.3533,0.8072,-7.525,2.205,-11.200,1,1,2,356,393,2025-06-05T16:06:25.950926
289,-0.2103,0.3738,0.7832,-12.565,20.825,-16.800,2,1,1,361,396,2025-06-05T16:06:25.950926
290,-0.4709,0.3655,0.7910,-14.560,36.575,-18.025,2,1,1,337,378,2025-06-05T16:06:25.950926
291,-0.7730,0.3972,0.8316,-14.560,30.450,-11.200,2,2,2,373,393,2025-06-05T16:06:25.950926
292,-0.9496,0.4338,0.9013,-6.825,14.455,-0.210,1,1,1,388,356,2025-06-05T16:06:25.950926
293,-0.8886,0.4509,0.9052,1.015,-1.610,5.495,1,1,1,369,334,2025-06-05T16:06:25.950926
294,-0.6329,0.4299,0.8886,13.090,-5.775,7.140,1,2,1,334,365,2025-06-05T16:06:25.950926
295,-0.5036,0.4089,0.8072,22.925,-7.560,9.030,1,1,2,373,383,2025-06-05T16:06:25.950926
296,-0.3870,0.4011,0.6295,23.905,-13.160,9.940,1,2,1,354,391,2025-06-05T16:06:25.950926
297,-0.2054,0.4446,0.4773,11.305,-6.580,5.320,2,2,1,375,394,2025-06-05T16:06:25.950926
298,-0.1606,0.4236,0.4626,-2.065,17.955,-1.295,1,2,1,380,370,2025-06-05T16:06:25.950926
299,-0.4377,0.4104,0.5558,-11.095,26.845,-2.030,1,1,1,373,371,2025-06-05T16:06:25.950926
300,-0.5636,0.3933,0.7749,-7.140,29.085,-0.420,2,2,1,376,389,2025-06-05T16:06:25.950926
301,-0.6490,0.3933,0.8481,-2.730,26.635,-2.975,2,2,1,378,381,2025-06-05T16:06:26.045748
302,-0.8316,0.3938,0.7676,3.185,11.025,-3.185,1,1,2,383,391,2025-06-05T16:06:26.045748
303,-0.7876,0.4163,0.6666,3.605,-4.620,-2.065,1,1,1,378,321,2025-06-05T16:06:26.045748
304,-0.7222,0.4377,0.7100,2.030,-16.275,1.225,2,1,1,371,357,2025-06-05T16:06:26.045748
305,-0.5305,0.4202,0.7501,4.165,-25.375,3.815,1,1,1,374,342,2025-06-05T16:06:26.045748
306,-0.3167,0.4490,0.7374,2.450,-18.690,2.415,1,1,1,380,332,2025-06-05T16:06:26.045748
307,-0.2079,0.4387,0.6847,-0.630,2.135,0.035,1,1,1,378,370,2025-06-05T16:06:26.045748
308,-0.3860,0.4002,0.6549,-4.445,13.335,1.050,1,2,1,393,388,2025-06-05T16:06:26.045748
309,-0.4841,0.3728,0.6808,-6.440,17.045,0.490,2,1,1,360,381,2025-06-05T16:06:26.148310
310,-0.5934,0.3680,0.6812,-9.940,17.045,1.295,2,1,1,371,390,2025-06-05T16:06:26.148310
311,-0.6671,0.3806,0.7457,-12.880,12.355,4.095,2,1,1,378,362,2025-06-05T16:06:26.148310
312,-0.6842,0.4143,0.8276,-11.375,0.455,8.225,1,2,2,388,388,2025-06-05T16:06:26.148310
313,-0.5744,0.4368,0.8662,-7.175,-3.115,9.940,2,1,1,379,391,2025-06-05T16:06:26.148310
314,-0.5363,0.4465,0.8355,-3.710,-1.365,10.115,1,1,0,358,397,2025-06-05T16:06:26.149084
315,-0.5183,0.4865,0.7252,-3.150,4.795,8.995,1,1,1,370,405,2025-06-05T16:06:26.149084
316,-0.4119,0.5007,0.6861,-5.705,16.030,6.335,1,0,2,385,406,2025-06-05T16:06:26.149084
317,-0.3836,0.4494,0.7452,-3.605,17.325,3.920,2,1,1,393,406,2025-06-05T16:06:26.149507
318,-0.3645,0.4538,0.6954,-11.410,23.975,0.420,1,2,1,380,397,2025-06-05T16:06:26.278949
319,-0.4133,0.4094,0.7613,-14.840,26.145,-0.245,2,2,2,382,370,2025-06-05T16:06:26.278949
320,-0.4616,0.3841,0.8159,-15.225,19.985,0.280,1,2,1,384,344,2025-06-05T16:06:26.278949
321,-0.4943,0.3933,0.8438,-14.945,17.570,-2.030,2,2,1,342,327,2025-06-05T16:06:26.278949
322,-0.5026,0.4470,0.8013,-14.385,22.330,-7.070,1,2,1,370,371,2025-06-05T16:06:26.278949
323,-0.5231,0.4412,0.7340,-14.105,20.755,-9.275,1,1,0,354,388,2025-06-05T16:06:26.278949
324,-0.4124,0.4636,0.6481,-15.295,23.310,-13.090,1,1,1,368,400,2025-06-05T16:06:26.278949
325,-0.3855,0.4382,0.6022,-19.740,31.500,-18.830,1,1,1,308,383,2025-06-05T16:06:26.278949
326,-0.3392,0.4270,0.6417,-23.205,40.040,-24.535,1,2,1,358,361,2025-06-05T16:06:26.278949
327,-0.3226,0.4148,0.6803,-23.380,48.720,-30.415,2,1,1,372,385,2025-06-05T16:06:26.278949
328,-0.3392,0.3963,0.6608,-20.440,60.305,-35.875,2,2,1,381,382,2025-06-05T16:06:26.278949
329,-0.4002,0.4494,0.6427,-17.255,69.685,-40.670,1,2,1,372,355,2025-06-05T16:06:26.366532
330,-0.6695,0.2791,0.5549,-19.810,76.335,-39.585,2,1,1,377,374,2025-06-05T16:06:26.366532
331,-0.7608,0.3572,0.5710,-16.625,60.760,-43.015,1,1,2,392,390,2025-06-05T16:06:26.366532
332,-0.8189,0.3284,0.6261,-12.460,46.515,-39.130,2,2,2,397,390,2025-06-05T16:06:26.366532
333,-0.9150,0.2860,0.6866,-10.360,32.760,-32.900,1,1,1,385,390,2025-06-05T16:06:26.366532
334,-0.9692,0.2806,0.6705,-4.130,1.785,-28.770,1,1,1,390,356,2025-06-05T16:06:26.366532
335,-0.9658,0.2328,0.6393,6.335,-17.045,-23.205,1,2,1,384,377,2025-06-05T16:06:26.366532
336,-0.9257,0.2342,0.5924,11.900,-42.385,-15.330,2,2,2,396,396,2025-06-05T16:06:26.565911
337,-0.9579,0.2611,0.5958,19.670,-56.560,-6.370,1,2,1,383,394,2025-06-05T16:06:26.565911
338,-0.9404,0.2660,0.6149,22.050,-58.345,-2.205,1,2,1,380,388,2025-06-05T16:06:26.565911
339,-0.8813,0.2928,0.6466,25.935,-65.520,-3.885,1,1,2,390,396,2025-06-05T16:06:26.565911
340,-0.8096,0.2786,0.7320,33.950,-68.705,-3.465,1,2,1,379,382,2025-06-05T16:06:26.565911
341,-0.7422,0.2679,0.7188,42.105,-66.500,-3.220,1,1,1,342,377,2025-06-05T16:06:26.566421
342,-0.7261,0.2118,0.5827,46.760,-70.140,-0.980,1,1,1,368,358,2025-06-05T16:06:26.566421
343,-0.6827,0.1635,0.5607,48.930,-75.705,2.555,1,1,1,375,361,2025-06-05T16:06:26.566421
344,-0.6817,0.1952,0.6320,52.745,-74.095,4.690,2,1,1,357,382,2025-06-05T16:06:26.566421
345,-0.5148,0.2821,0.7022,53.900,-59.220,0.420,1,1,1,372,392,2025-06-05T16:06:26.566421
346,-0.4738,0.3802,0.7027,53.200,-46.760,-6.580,1,2,1,382,403,2025-06-05T16:06:26.566421
347,-0.3650,0.3357,0.7662,52.500,-16.030,-7.700,1,1,1,386,398,2025-06-05T16:06:26.566421
348,-0.3348,0.4036,0.6959,47.390,16.415,-9.555,1,1,1,382,403,2025-06-05T16:06:26.566421
349,-0.3831,0.4299,0.6598,40.355,39.550,-11.865,1,1,1,345,393,2025-06-05T16:06:26.566421
350,-0.4353,0.4387,0.5700,32.935,52.920,-11.900,1,2,1,327,398,2025-06-05T16:06:26.566421
351,-0.5226,0.4509,0.5485,23.135,56.385,-8.960,1,1,1,358,401,2025-06-05T16:06:26.858759
352,-0.6163,0.4690,0.6085,15.470,54.180,-6.790,1,1,2,369,390,2025-06-05T16:06:26.858759
353,-0.7501,0.6056,0.6598,10.465,42.560,-2.765,1,2,2,379,399,2025-06-05T16:06:26.858759
354,-0.7842,0.5095,0.6969,8.575,25.865,-2.730,1,1,1,390,355,2025-06-05T16:06:26.858759
355,-0.7413,0.4963,0.6354,4.690,6.370,-1.890,1,1,1,390,343,2025-06-05T16:06:26.859759
356,-0.7066,0.4797,0.5710,2.345,-10.080,0.070,1,2,1,394,335,2025-06-05T16:06:26.859759
357,-0.6647,0.4934,0.5666,-2.380,-21.980,-0.875,2,1,1,380,330,2025-06-05T16:06:26.859759
358,-0.6056,0.4797,0.5714,-7.245,-24.850,-3.500,2,2,2,387,358,2025-06-05T16:06:26.859759
359,-0.5592,0.4763,0.5876,-12.740,-22.680,-5.880,1,2,1,392,384,2025-06-05T16:06:26.859759
360,-0.5309,0.4504,0.6178,-14.980,-15.855,-7.035,1,2,1,390,357,2025-06-05T16:06:26.859759
361,-0.5514,0.4397,0.6773,-16.170,-6.930,-7.140,1,2,1,381,365,2025-06-05T16:06:26.994634
362,-0.6051,0.4255,0.7125,-14.315,3.535,-6.580,2,2,2,394,371,2025-06-05T16:06:26.994634
363,-0.6842,0.4119,0.6651,-11.620,6.930,-5.285,1,1,2,400,380,2025-06-05T16:06:26.994634
364,-0.7974,0.3631,0.6242,-8.505,0.700,-0.840,2,2,1,385,388,2025-06-05T16:06:26.994634
365,-0.8779,0.3421,0.6290,-4.760,-12.495,3.535,1,2,1,398,389,2025-06-05T16:06:26.994634
366,-0.9204,0.3299,0.6222,-0.280,-22.400,6.790,1,2,1,395,394,2025-06-05T16:06:26.994634
367,-0.8935,0.3270,0.6407,3.990,-37.065,9.345,1,1,1,350,355,2025-06-05T16:06:26.994634
368,-0.8164,0.3030,0.6207,8.645,-47.985,11.760,1,1,1,374,386,2025-06-05T16:06:26.995679
369,-0.6725,0.3089,0.6066,12.215,-43.995,11.830,1,1,1,393,383,2025-06-05T16:06:26.995679
370,-0.5022,0.3304,0.5968,13.370,-21.700,7.595,1,1,2,401,400,2025-06-05T16:06:26.995679
371,-0.3855,0.3406,0.5539,10.990,11.060,0.070,1,2,2,404,392,2025-06-05T16:06:26.995679
372,-0.3611,0.3040,0.4875,7.840,38.185,-4.515,2,1,1,393,388,2025-06-05T16:06:26.995679
373,-0.3938,0.2704,0.4109,2.800,71.855,-10.920,2,1,1,381,377,2025-06-05T16:06:26.995679
374,-0.4817,0.2616,0.4168,-2.485,99.750,-17.885,1,1,1,375,377,2025-06-05T16:06:26.995679
375,-0.5944,0.3128,0.4821,-3.850,116.060,-22.260,1,0,0,357,380,2025-06-05T16:06:26.995679
376,-0.6925,0.3279,0.5607,-3.570,123.200,-23.100,2,1,1,380,379,2025-06-05T16:06:26.995679
377,-0.7759,0.3348,0.5714,-0.350,122.640,-21.105,1,1,2,376,359,2025-06-05T16:06:26.995679
378,-0.8843,0.3353,0.5124,4.760,112.385,-17.990,1,2,1,366,350,2025-06-05T16:06:27.091508
379,-0.9301,0.3284,0.4670,9.590,96.530,-15.820,2,1,1,370,378,2025-06-05T16:06:27.091508
380,-0.9048,0.3826,0.4451,11.970,81.270,-14.875,2,1,1,389,391,2025-06-05T16:06:27.091800
381,-0.8530,0.4504,0.4314,14.490,69.405,-15.470,1,1,1,351,383,2025-06-05T16:06:27.091800
382,-0.8276,0.4846,0.4187,15.470,65.135,-17.465,1,2,1,374,389,2025-06-05T16:06:27.091800
383,-0.8120,0.5202,0.4553,15.190,61.145,-19.705,1,1,1,372,397,2025-06-05T16:06:27.091800
384,-0.8364,0.5153,0.4953,15.365,55.650,-20.790,1,0,1,392,404,2025-06-05T16:06:27.091800
385,-0.8481,0.5231,0.5124,14.630,52.710,-20.510,1,2,1,383,384,2025-06-05T16:06:27.091800
386,-0.8545,0.5222,0.5051,13.860,45.360,-19.110,2,1,1,376,395,2025-06-05T16:06:27.091800
387,-0.8686,0.5344,0.4821,12.845,38.185,-17.605,1,1,1,386,392,2025-06-05T16:06:27.091800
388,-0.8833,0.5431,0.4631,10.780,32.690,-16.835,1,1,1,379,379,2025-06-05T16:06:27.091800
389,-0.9033,0.5436,0.4719,9.275,24.465,-15.645,2,2,2,375,385,2025-06-05T16:06:27.091800
390,-0.8955,0.5348,0.4851,8.505,13.335,-12.530,1,1,1,391,378,2025-06-05T16:06:27.091800
391,-0.8994,0.5036,0.4724,7.455,1.365,-7.245,1,2,1,393,388,2025-06-05T16:06:27.091800
392,-0.9106,0.4602,0.4573,6.440,-6.195,-3.780,1,1,1,401,379,2025-06-05T16:06:27.091800
393,-0.9155,0.4236,0.4709,5.635,-10.185,-1.750,1,2,1,382,389,2025-06-05T16:06:27.091800
394,-0.8891,0.4231,0.4875,6.300,-13.265,-0.210,1,1,1,379,383,2025-06-05T16:06:27.091800
395,-0.8369,0.3963,0.4558,7.735,-11.305,0.560,1,2,1,378,352,2025-06-05T16:06:27.091800
396,-0.8379,0.3924,0.4519,9.485,-4.445,0.805,2,2,1,387,378,2025-06-05T16:06:27.172260
397,-0.9106,0.3806,0.4226,10.010,-0.770,0.490,2,2,1,397,385,2025-06-05T16:06:27.172260
398,-0.9531,0.3699,0.4246,11.550,-3.010,0.280,2,2,2,395,380,2025-06-05T16:06:27.172260
399,-0.9492,0.3548,0.4260,14.315,-7.000,0.560,2,2,2,397,371,2025-06-05T16:06:27.172260
400,-0.9306,0.3489,0.4563,18.375,-8.785,1.750,2,2,1,392,354,2025-06-05T16:06:27.172260
401,-0.9028,0.3714,0.4773,23.170,-6.650,2.485,2,2,2,393,376,2025-06-05T16:06:27.286849
402,-0.8862,0.3967,0.4831,26.390,-3.080,2.800,1,1,1,380,391,2025-06-05T16:06:27.286849
403,-0.8764,0.3914,0.4841,30.100,0.490,3.885,2,1,1,396,389,2025-06-05T16:06:27.286849
404,-0.8560,0.4021,0.4699,33.810,0.525,5.215,2,2,2,385,383,2025-06-05T16:06:27.286849
405,-0.8350,0.4324,0.4646,37.695,-1.155,11.235,2,1,2,382,352,2025-06-05T16:06:27.286849
406,-0.7974,0.4836,0.4563,40.845,-0.175,16.205,1,1,1,387,373,2025-06-05T16:06:27.286849
407,-0.7213,0.5461,0.4665,45.010,4.620,19.775,1,1,1,384,378,2025-06-05T16:06:27.286849
408,-0.7198,0.6105,0.4724,47.635,11.620,22.400,1,1,1,380,347,2025-06-05T16:06:27.286849
409,-0.7627,0.6554,0.4602,49.840,17.185,25.445,1,1,1,368,363,2025-06-05T16:06:27.286849
410,-0.7842,0.6764,0.4436,51.800,16.590,29.750,1,2,1,377,375,2025-06-05T16:06:27.286849
411,-0.8272,0.6934,0.4260,52.850,13.650,35.980,2,1,1,352,367,2025-06-05T16:06:27.286849
412,-0.8447,0.7364,0.4133,51.940,9.380,41.650,1,2,2,371,372,2025-06-05T16:06:27.579553
413,-0.8472,0.7715,0.4216,50.505,6.650,46.725,1,2,1,385,389,2025-06-05T16:06:27.579553
414,-0.8955,0.7608,0.4377,48.300,2.940,51.730,1,2,1,397,382,2025-06-05T16:06:27.579553
415,-0.9106,0.7369,0.4285,45.745,-2.695,55.685,1,1,1,386,379,2025-06-05T16:06:27.579553
416,-0.9150,0.7027,0.3899,43.225,-9.205,60.305,1,2,2,400,388,2025-06-05T16:06:27.579553
417,-0.9062,0.6627,0.3719,39.550,-14.490,64.715,2,2,2,404,387,2025-06-05T16:06:27.579553
418,-0.8657,0.6383,0.3421,36.645,-19.880,68.040,1,1,1,356,341,2025-06-05T16:06:27.579553
419,-0.8452,0.5983,0.3133,33.110,-23.625,70.945,1,1,1,362,370,2025-06-05T16:06:27.579553
420,-0.8296,0.5695,0.2884,30.100,-27.195,72.030,1,1,1,383,368,2025-06-05T16:06:27.579553
421,-0.8013,0.5466,0.2962,26.740,-29.190,71.995,1,1,1,374,384,2025-06-05T16:06:27.579553
422,-0.7564,0.5270,0.3299,26.215,-29.050,72.380,1,1,1,379,391,2025-06-05T16:06:27.579553
423,-0.7257,0.5153,0.3338,25.305,-26.040,71.435,1,1,0,343,381,2025-06-05T16:06:27.579553
424,-0.7320,0.4953,0.3070,25.270,-23.310,69.230,1,2,1,371,348,2025-06-05T16:06:27.579553
425,-0.7325,0.4616,0.2611,24.185,-21.140,67.410,1,1,1,384,366,2025-06-05T16:06:27.579553
426,-0.7354,0.4407,0.2386,22.785,-20.790,65.205,1,1,1,381,381,2025-06-05T16:06:27.580058
427,-0.7188,0.4343,0.2216,21.280,-21.140,62.370,2,1,1,393,376,2025-06-05T16:06:27.580058
428,-0.7042,0.4221,0.2264,19.495,-19.565,59.395,2,1,1,392,347,2025-06-05T16:06:27.580058
429,-0.6832,0.4202,0.2557,18.655,-17.745,55.545,1,1,1,394,336,2025-06-05T16:06:27.726582
430,-0.6725,0.4192,0.2908,18.865,-14.945,51.170,1,2,1,394,361,2025-06-05T16:06:27.726582
431,-0.6666,0.4285,0.3148,19.880,-12.215,46.935,1,1,1,356,377,2025-06-05T16:06:27.726582
432,-0.6456,0.4397,0.2991,20.055,-8.715,43.015,2,2,2,372,392,2025-06-05T16:06:27.726582
433,-0.6349,0.4216,0.2416,18.935,-9.555,38.920,1,2,2,379,396,2025-06-05T16:06:27.726582
434,-0.6071,0.4187,0.2259,18.655,-12.215,37.100,1,2,1,387,401,2025-06-05T16:06:27.726582
435,-0.5519,0.4514,0.2298,17.675,-12.705,35.560,1,1,1,389,384,2025-06-05T16:06:27.726582
436,-0.5119,0.5070,0.2723,16.240,-10.990,32.235,1,1,1,359,376,2025-06-05T16:06:27.726582
437,-0.5036,0.5768,0.3201,15.435,-5.740,28.175,1,1,2,384,383,2025-06-05T16:06:27.726582
438,-0.5100,0.5919,0.3689,16.240,0.000,24.150,1,1,1,374,393,2025-06-05T16:06:27.726582
439,-0.5397,0.6310,0.3723,15.610,1.750,20.825,1,1,1,339,379,2025-06-05T16:06:27.726582
440,-0.5744,0.6422,0.3450,15.610,-2.870,19.600,1,1,2,356,384,2025-06-05T16:06:27.726582
441,-0.5783,0.6749,0.3211,13.860,-7.980,18.585,1,2,1,376,368,2025-06-05T16:06:27.726582
442,-0.5690,0.7027,0.3309,11.935,-13.230,17.325,1,1,1,369,385,2025-06-05T16:06:27.726582
443,-0.5553,0.7422,0.3514,9.800,-14.560,13.335,1,1,0,356,390,2025-06-05T16:06:27.726582
444,-0.5558,0.7715,0.3733,7.595,-12.880,8.820,1,1,2,371,396,2025-06-05T16:06:27.726582
445,-0.5549,0.8023,0.4050,6.825,-10.710,5.425,1,1,1,353,383,2025-06-05T16:06:27.727649
446,-0.5890,0.8076,0.4094,5.250,-10.815,4.025,1,2,1,381,393,2025-06-05T16:06:27.727649
447,-0.6232,0.8130,0.3811,3.640,-12.845,2.590,1,2,1,389,391,2025-06-05T16:06:27.727649
448,-0.6695,0.7989,0.3606,2.485,-19.215,2.415,1,1,1,378,355,2025-06-05T16:06:27.727649
449,-0.6974,0.7374,0.3377,2.100,-27.790,3.640,2,2,1,373,380,2025-06-05T16:06:27.920637
450,-0.7081,0.7144,0.3372,1.820,-36.155,5.250,1,2,1,382,380,2025-06-05T16:06:27.920637
451,-0.6827,0.6891,0.3362,1.855,-41.580,6.125,2,2,2,385,349,2025-06-05T16:06:27.920637
452,-0.6251,0.6725,0.3231,2.240,-44.275,6.615,1,1,1,388,370,2025-06-05T16:06:27.920637
453,-0.5744,0.6612,0.3470,3.500,-43.050,8.085,2,2,1,383,379,2025-06-05T16:06:27.920637
454,-0.5388,0.6612,0.3806,4.305,-38.080,7.735,1,1,1,388,352,2025-06-05T16:06:27.920637
455,-0.5329,0.6500,0.3377,3.815,-32.585,5.145,1,1,2,389,371,2025-06-05T16:06:27.920637
456,-0.5344,0.6383,0.3084,3.500,-25.620,2.450,1,1,1,394,375,2025-06-05T16:06:27.920637
457,-0.5431,0.6290,0.2845,2.135,-22.085,-1.015,2,1,2,392,377,2025-06-05T16:06:27.920637
458,-0.5856,0.6085,0.2855,2.765,-22.155,-3.010,1,1,1,398,393,2025-06-05T16:06:27.920637
459,-0.6144,0.6139,0.3362,3.290,-23.555,-4.795,2,1,1,367,388,2025-06-05T16:06:27.920637
460,-0.6012,0.6261,0.3753,5.110,-25.165,-5.390,1,1,1,376,399,2025-06-05T16:06:27.920637
461,-0.6066,0.6442,0.3514,5.915,-25.795,-6.580,1,1,1,380,383,2025-06-05T16:06:27.920637
462,-0.6134,0.6393,0.3143,6.195,-25.305,-8.085,1,1,1,387,389,2025-06-05T16:06:27.920637
463,-0.5871,0.6422,0.3187,6.510,-25.620,-9.870,2,2,1,348,394,2025-06-05T16:06:27.920637
464,-0.5578,0.6315,0.3094,5.740,-25.410,-9.660,2,2,1,356,368,2025-06-05T16:06:27.920637
465,-0.5558,0.6207,0.3279,5.355,-23.555,-7.980,2,2,1,362,382,2025-06-05T16:06:28.096958
466,-0.5900,0.6251,0.3665,3.920,-21.910,-7.875,2,1,2,371,390,2025-06-05T16:06:28.096958
467,-0.6139,0.6451,0.4050,3.010,-19.775,-8.575,1,1,1,379,396,2025-06-05T16:06:28.096958
468,-0.6124,0.6520,0.4124,2.590,-17.850,-8.855,1,1,1,377,397,2025-06-05T16:06:28.096958
469,-0.6183,0.6432,0.3675,2.450,-17.430,-8.015,2,2,2,386,408,2025-06-05T16:06:28.096958
470,-0.6124,0.6329,0.3357,1.645,-17.150,-6.860,1,1,1,391,388,2025-06-05T16:06:28.096958
471,-0.6066,0.6456,0.3382,0.910,-15.750,-6.125,1,2,1,392,356,2025-06-05T16:06:28.096958
472,-0.5993,0.6608,0.3479,1.225,-12.285,-5.180,1,1,2,380,375,2025-06-05T16:06:28.097975
473,-0.6037,0.6651,0.3489,1.715,-8.855,-3.605,2,1,1,386,350,2025-06-05T16:06:28.097975
474,-0.6076,0.6490,0.3455,2.870,-6.860,-1.365,1,1,1,389,332,2025-06-05T16:06:28.097975
475,-0.5876,0.6364,0.3636,4.690,-5.180,2.100,1,1,1,386,376,2025-06-05T16:06:28.097975
476,-0.5607,0.6324,0.3450,7.140,-3.360,4.865,1,2,1,396,376,2025-06-05T16:06:28.097975
477,-0.5290,0.6510,0.3148,8.470,0.560,6.370,1,2,1,389,375,2025-06-05T16:06:28.097975
478,-0.5178,0.6861,0.2948,8.960,8.015,4.585,1,1,2,392,350,2025-06-05T16:06:28.097975
479,-0.5065,0.7213,0.2801,8.785,15.470,1.505,1,1,1,389,358,2025-06-05T16:06:28.097975
480,-0.5319,0.7310,0.2752,8.680,22.610,-0.595,2,1,1,381,363,2025-06-05T16:06:28.097975
481,-0.5807,0.7466,0.2991,8.715,24.885,-2.275,1,1,1,385,379,2025-06-05T16:06:28.199396
482,-0.6349,0.7588,0.3314,9.415,21.280,-2.205,2,2,2,397,373,2025-06-05T16:06:28.200393
483,-0.6730,0.7706,0.3411,10.500,13.300,-0.665,2,2,1,398,379,2025-06-05T16:06:28.200393
484,-0.6764,0.7896,0.3367,10.115,2.590,1.855,2,2,1,392,387,2025-06-05T16:06:28.200393
485,-0.6432,0.8091,0.3192,9.135,-5.705,4.760,2,2,1,381,396,2025-06-05T16:06:28.200393
486,-0.6027,0.8233,0.3099,6.440,-11.900,6.405,2,1,1,392,391,2025-06-05T16:06:28.200393
487,-0.5539,0.8257,0.3079,2.975,-13.195,7.770,2,1,1,393,381,2025-06-05T16:06:28.200393
488,-0.5178,0.8262,0.3162,0.280,-11.305,8.820,1,1,1,384,375,2025-06-05T16:06:28.200393
489,-0.5207,0.8306,0.3211,-2.870,-8.260,9.135,1,2,0,362,388,2025-06-05T16:06:28.345811
490,-0.5217,0.8262,0.3118,-5.705,-3.990,9.205,2,2,2,384,402,2025-06-05T16:06:28.345811
491,-0.5427,0.8223,0.2962,-8.260,-1.715,8.925,2,1,1,390,397,2025-06-05T16:06:28.346398
492,-0.5563,0.8076,0.2796,-9.240,-2.100,8.645,1,1,2,390,400,2025-06-05T16:06:28.346398
493,-0.5861,0.7842,0.2577,-10.115,-4.585,8.680,2,1,2,390,402,2025-06-05T16:06:28.346398
494,-0.5998,0.7569,0.2416,-10.430,-8.365,8.855,1,1,1,391,392,2025-06-05T16:06:28.346398
495,-0.5978,0.7466,0.2372,-9.730,-13.440,9.310,1,1,1,397,399,2025-06-05T16:06:28.346828
496,-0.5666,0.7466,0.2342,-9.380,-16.625,9.520,2,1,1,382,401,2025-06-05T16:06:28.346828
497,-0.5456,0.7247,0.2445,-8.155,-16.520,9.380,1,1,2,388,353,2025-06-05T16:06:28.346828
498,-0.5446,0.7047,0.2562,-6.860,-15.295,8.890,1,1,1,384,332,2025-06-05T16:06:28.541567
499,-0.5402,0.6871,0.2445,-5.355,-13.230,8.155,1,1,1,372,369,2025-06-05T16:06:28.541567
500,-0.5353,0.6661,0.2284,-4.025,-10.500,7.735,2,2,1,378,344,2025-06-05T16:06:28.541841
501,-0.5270,0.6578,0.2245,-2.695,-7.385,7.035,2,1,2,376,331,2025-06-05T16:06:28.788468
502,-0.5329,0.6564,0.2289,-1.330,-4.655,5.915,1,1,1,372,355,2025-06-05T16:06:28.788468
503,-0.5363,0.6515,0.2303,-0.385,-1.750,4.480,2,1,1,372,371,2025-06-05T16:06:28.788468
504,-0.5500,0.6573,0.2250,0.175,-0.350,2.800,1,1,1,395,345,2025-06-05T16:06:28.788468
505,-0.5695,0.6671,0.2367,0.840,0.140,0.840,1,1,1,349,320,2025-06-05T16:06:28.788468
506,-0.5563,0.6734,0.2567,1.155,1.120,-0.490,1,1,1,375,348,2025-06-05T16:06:28.788468
507,-0.5695,0.6886,0.2674,0.175,0.700,-1.505,1,2,0,358,362,2025-06-05T16:06:28.788468
508,-0.5758,0.6993,0.2582,-0.560,0.105,-2.275,2,1,0,343,379,2025-06-05T16:06:28.788468
509,-0.5876,0.7135,0.2596,-2.590,-0.140,-3.465,2,1,1,356,379,2025-06-05T16:06:28.788468
510,-0.5797,0.7227,0.2635,-4.060,-0.630,-4.200,1,2,1,374,396,2025-06-05T16:06:28.788468
511,-0.5729,0.7218,0.2704,-5.670,-0.595,-4.200,1,1,1,387,380,2025-06-05T16:06:28.788468
512,-0.5763,0.7188,0.2952,-7.595,-0.175,-3.710,2,1,2,348,389,2025-06-05T16:06:28.788468
513,-0.5685,0.7188,0.3270,-8.610,0.140,-3.290,1,1,1,362,390,2025-06-05T16:06:28.788468
514,-0.5685,0.7218,0.3353,-10.045,1.085,-2.765,1,2,1,348,353,2025-06-05T16:06:28.788468
515,-0.5729,0.7310,0.3177,-11.060,2.065,-3.745,1,2,1,369,382,2025-06-05T16:06:28.788468
516,-0.5817,0.7281,0.3026,-12.145,1.820,-4.655,2,1,1,340,341,2025-06-05T16:06:28.788468
517,-0.5851,0.7276,0.2806,-13.405,-0.280,-5.285,1,1,2,360,354,2025-06-05T16:06:28.788468
518,-0.5978,0.7276,0.2865,-14.035,-2.520,-5.740,2,2,1,376,383,2025-06-05T16:06:28.788468
519,-0.5856,0.7169,0.3187,-13.685,-3.675,-6.265,2,1,1,379,386,2025-06-05T16:06:28.788468
520,-0.5861,0.7208,0.3377,-13.020,-5.075,-6.615,1,2,2,384,350,2025-06-05T16:06:28.788468
521,-0.5797,0.7203,0.3382,-12.145,-6.510,-6.650,2,1,1,389,360,2025-06-05T16:06:28.788468
522,-0.5851,0.7218,0.3255,-11.165,-7.490,-6.825,1,1,1,388,371,2025-06-05T16:06:28.788468
523,-0.5675,0.7222,0.3143,-10.640,-8.645,-7.175,1,2,1,352,387,2025-06-05T16:06:28.788468
524,-0.5568,0.7300,0.3026,-10.045,-8.155,-7.700,1,1,1,301,385,2025-06-05T16:06:28.788468
525,-0.5485,0.7242,0.3065,-9.100,-7.455,-7.945,2,1,1,353,400,2025-06-05T16:06:28.788468
526,-0.5529,0.7286,0.3143,-7.525,-7.245,-7.735,2,1,1,361,397,2025-06-05T16:06:28.788468
527,-0.5685,0.7335,0.2957,-6.230,-6.790,-7.945,2,1,2,384,392,2025-06-05T16:06:28.788468
528,-0.5768,0.7310,0.2821,-4.410,-6.965,-8.365,1,1,1,393,390,2025-06-05T16:06:28.788468
529,-0.5778,0.7281,0.2733,-3.325,-8.190,-8.610,1,1,1,382,381,2025-06-05T16:06:28.788468
530,-0.5836,0.7257,0.2777,-1.715,-8.260,-7.525,1,1,1,388,393,2025-06-05T16:06:28.788468
531,-0.5758,0.7266,0.2708,-0.105,-8.330,-6.790,1,1,1,385,383,2025-06-05T16:06:28.788468
532,-0.5734,0.7222,0.2694,0.910,-8.050,-6.230,2,1,1,396,348,2025-06-05T16:06:29.014494
533,-0.5573,0.7257,0.2713,1.960,-6.055,-5.880,1,2,1,376,367,2025-06-05T16:06:29.014494
534,-0.5597,0.7374,0.2718,2.625,-3.080,-6.615,1,2,2,392,386,2025-06-05T16:06:29.014494
535,-0.5822,0.7261,0.2684,3.045,-1.750,-7.280,2,1,1,397,351,2025-06-05T16:06:29.014494
536,-0.6066,0.7130,0.2718,3.010,-2.905,-7.385,2,2,1,394,366,2025-06-05T16:06:29.015281
537,-0.6056,0.7017,0.2884,4.025,-5.180,-6.580,2,1,1,384,341,2025-06-05T16:06:29.015281
538,-0.6041,0.7056,0.2948,4.165,-7.875,-5.880,1,2,1,381,368,2025-06-05T16:06:29.015281
539,-0.5812,0.6944,0.3065,5.110,-7.700,-5.880,1,1,1,391,378,2025-06-05T16:06:29.015281
540,-0.5656,0.6964,0.3060,4.970,-6.370,-7.035,1,1,1,388,385,2025-06-05T16:06:29.015281
541,-0.5617,0.7027,0.2899,5.425,-3.990,-7.980,2,2,1,392,348,2025-06-05T16:06:29.015281
542,-0.5700,0.7218,0.2840,4.655,-2.100,-9.555,1,2,1,382,363,2025-06-05T16:06:29.015281
543,-0.5934,0.7291,0.2879,4.620,-1.855,-11.060,1,1,1,386,386,2025-06-05T16:06:29.015281
544,-0.6168,0.7349,0.2923,4.130,-3.640,-12.565,0,2,1,391,385,2025-06-05T16:06:29.015281
545,-0.6378,0.7335,0.3030,2.870,-6.755,-13.510,2,1,1,392,388,2025-06-05T16:06:29.015281
546,-0.6476,0.7257,0.3201,1.715,-11.200,-13.755,2,1,1,401,385,2025-06-05T16:06:29.015281
547,-0.6578,0.7222,0.3382,0.665,-16.205,-13.475,1,1,1,394,359,2025-06-05T16:06:29.015281
548,-0.6642,0.7105,0.3567,-0.070,-20.125,-12.460,2,1,1,349,369,2025-06-05T16:06:29.015281
549,-0.6656,0.7125,0.3523,-0.070,-22.855,-11.305,1,1,1,380,392,2025-06-05T16:06:29.015281
550,-0.6788,0.7232,0.3382,-0.420,-24.535,-10.780,2,1,2,385,379,2025-06-05T16:06:29.156638
551,-0.6910,0.7135,0.3450,0.840,-27.230,-10.010,2,1,1,378,380,2025-06-05T16:06:29.156638
552,-0.7027,0.7096,0.3314,1.470,-29.715,-8.680,1,2,1,392,379,2025-06-05T16:06:29.156638
553,-0.6808,0.6861,0.3270,3.325,-30.835,-7.070,2,1,0,360,377,2025-06-05T16:06:29.156638
554,-0.6773,0.6798,0.3318,4.585,-31.640,-5.705,1,2,1,365,380,2025-06-05T16:06:29.156638
555,-0.6476,0.6764,0.3362,6.755,-29.890,-4.445,1,2,1,379,375,2025-06-05T16:06:29.156638
556,-0.6324,0.6934,0.3328,8.680,-26.740,-4.025,1,1,1,374,392,2025-06-05T16:06:29.156638
557,-0.6217,0.6876,0.3270,10.535,-22.575,-3.535,0,1,1,383,398,2025-06-05T16:06:29.156638
558,-0.6481,0.6988,0.3187,11.830,-20.475,-3.325,2,2,1,350,394,2025-06-05T16:06:29.156638
559,-0.6676,0.7032,0.3250,12.565,-21.140,-2.625,1,1,2,380,394,2025-06-05T16:06:29.156638
560,-0.6842,0.6998,0.3187,13.615,-23.555,-1.015,1,1,2,392,406,2025-06-05T16:06:29.156638
561,-0.6817,0.6847,0.3192,14.210,-27.195,0.420,1,2,1,395,402,2025-06-05T16:06:29.156638
562,-0.6661,0.6895,0.3231,14.035,-30.415,1.820,1,1,2,397,389,2025-06-05T16:06:29.156638
563,-0.6310,0.6847,0.3470,14.105,-30.450,2.940,1,1,1,387,393,2025-06-05T16:06:29.156638
564,-0.6041,0.6939,0.3655,14.140,-28.070,3.115,1,1,1,345,349,2025-06-05T16:06:29.156638
565,-0.6002,0.6798,0.3504,13.755,-25.655,2.485,1,1,1,331,366,2025-06-05T16:06:29.156638
566,-0.6139,0.6739,0.3323,13.370,-24.850,1.890,2,1,1,351,368,2025-06-05T16:06:29.157199
567,-0.6144,0.6730,0.3309,12.950,-26.320,1.540,2,2,1,365,378,2025-06-05T16:06:29.157199
568,-0.6080,0.6734,0.3382,12.740,-29.085,1.155,1,2,1,373,379,2025-06-05T16:06:29.157199
569,-0.5924,0.6700,0.3416,12.880,-31.325,0.665,2,2,1,379,372,2025-06-05T16:06:29.157199
570,-0.5671,0.6749,0.3392,12.880,-32.515,-0.210,2,2,1,375,384,2025-06-05T16:06:29.206786
571,-0.5500,0.6764,0.3562,14.000,-32.340,-1.190,1,2,1,372,383,2025-06-05T16:06:29.206786
572,-0.5490,0.6783,0.3518,14.175,-30.975,-2.555,2,2,2,376,396,2025-06-05T16:06:29.206786
573,-0.5519,0.6793,0.3440,15.505,-29.680,-4.200,2,1,2,378,393,2025-06-05T16:06:29.206786
574,-0.5622,0.6866,0.3323,15.995,-29.855,-6.020,2,1,1,371,393,2025-06-05T16:06:29.336079
575,-0.5724,0.6827,0.3270,16.695,-31.500,-7.210,1,2,1,385,383,2025-06-05T16:06:29.336079
576,-0.5734,0.6759,0.3284,17.290,-33.075,-7.735,1,1,2,380,386,2025-06-05T16:06:29.336079
577,-0.5700,0.6578,0.3367,17.745,-34.895,-7.770,2,1,1,346,380,2025-06-05T16:06:29.336079
578,-0.5622,0.6603,0.3421,18.550,-35.280,-7.945,1,2,0,334,393,2025-06-05T16:06:29.336079
579,-0.5431,0.6583,0.3455,18.970,-33.075,-8.470,1,1,1,366,401,2025-06-05T16:06:29.336079
580,-0.5397,0.6710,0.3499,19.740,-29.960,-9.555,2,1,1,365,390,2025-06-05T16:06:29.336079
581,-0.5417,0.6793,0.3338,19.845,-26.985,-10.570,1,1,1,374,390,2025-06-05T16:06:29.336079
582,-0.5505,0.6798,0.3221,20.195,-25.515,-11.235,2,1,1,340,382,2025-06-05T16:06:29.337096
583,-0.5636,0.6895,0.3182,19.600,-25.200,-11.515,2,1,1,361,380,2025-06-05T16:06:29.337096
584,-0.5763,0.6842,0.3182,19.180,-26.460,-11.445,1,1,1,377,376,2025-06-05T16:06:29.337096
585,-0.5714,0.6915,0.3235,18.375,-27.685,-11.620,2,2,2,382,392,2025-06-05T16:06:29.432031
586,-0.5651,0.7037,0.3255,17.955,-27.335,-12.390,1,2,1,394,400,2025-06-05T16:06:29.432031
587,-0.5617,0.7130,0.3284,17.360,-26.425,-13.405,2,2,2,397,396,2025-06-05T16:06:29.432031
588,-0.5573,0.7169,0.3309,16.660,-25.025,-14.070,2,1,1,397,393,2025-06-05T16:06:29.432031
589,-0.5617,0.7174,0.3133,15.680,-24.010,-14.805,2,1,1,399,384,2025-06-05T16:06:29.432031
590,-0.5627,0.7183,0.3055,14.875,-23.030,-15.050,1,2,1,399,396,2025-06-05T16:06:29.432031
591,-0.5695,0.7227,0.3055,14.070,-22.750,-14.840,1,1,1,367,376,2025-06-05T16:06:29.432661
592,-0.5768,0.7257,0.3118,13.440,-22.645,-14.070,1,1,1,377,378,2025-06-05T16:06:29.529920
593,-0.5783,0.7242,0.3196,13.020,-21.420,-13.020,2,1,1,383,377,2025-06-05T16:06:29.529920
594,-0.5739,0.7247,0.3250,12.285,-20.475,-11.795,2,1,1,391,372,2025-06-05T16:06:29.529920
595,-0.5695,0.7252,0.3250,11.690,-18.795,-10.570,2,1,2,390,386,2025-06-05T16:06:29.529920
596,-0.5627,0.7242,0.3216,10.675,-16.555,-8.995,2,1,1,388,353,2025-06-05T16:06:29.529920
597,-0.5685,0.7300,0.3172,9.800,-14.560,-8.015,2,1,2,391,363,2025-06-05T16:06:29.530924
598,-0.5705,0.7359,0.3089,8.995,-12.565,-7.315,1,1,0,364,372,2025-06-05T16:06:29.530924
599,-0.5797,0.7354,0.3109,7.735,-11.165,-6.545,1,1,1,339,375,2025-06-05T16:06:29.530924
600,-0.5812,0.7393,0.3133,6.615,-10.115,-5.600,1,2,2,356,343,2025-06-05T16:06:29.530924
601,-0.5851,0.7413,0.3206,5.250,-9.415,-4.340,1,2,1,373,369,2025-06-05T16:06:29.632140
602,-0.5778,0.7437,0.3309,4.095,-8.295,-2.835,1,2,1,370,310,2025-06-05T16:06:29.632140
603,-0.5710,0.7530,0.3338,2.730,-6.720,-1.435,2,2,1,362,356,2025-06-05T16:06:29.632140
604,-0.5695,0.7544,0.3245,1.680,-4.970,-0.525,2,1,2,371,363,2025-06-05T16:06:29.632140
605,-0.5646,0.7530,0.3138,0.175,-3.745,0.630,1,2,2,381,376,2025-06-05T16:06:29.632140
606,-0.5812,0.7535,0.3094,-1.225,-3.185,1.505,2,1,1,378,390,2025-06-05T16:06:29.632140
607,-0.5797,0.7549,0.3182,-2.030,-3.115,2.765,2,1,1,387,356,2025-06-05T16:06:29.632140
608,-0.5656,0.7564,0.3240,-3.045,-3.115,4.060,1,1,1,385,379,2025-06-05T16:06:29.632140
609,-0.5597,0.7515,0.3182,-3.675,-1.680,5.495,2,2,1,390,390,2025-06-05T16:06:29.733637
610,-0.5597,0.7505,0.3167,-5.005,1.120,6.055,2,1,1,392,394,2025-06-05T16:06:29.733637
611,-0.5680,0.7403,0.3231,-5.845,3.955,6.405,2,2,2,400,395,2025-06-05T16:06:29.733637
612,-0.5812,0.7388,0.3231,-6.545,6.020,7.175,1,2,1,385,396,2025-06-05T16:06:29.733637
613,-0.5788,0.7388,0.3099,-7.385,6.510,8.645,2,2,2,389,400,2025-06-05T16:06:29.733637
614,-0.5778,0.7340,0.2977,-8.610,7.315,10.080,1,1,1,395,385,2025-06-05T16:06:29.733637
615,-0.5836,0.7286,0.2962,-10.640,8.085,11.270,2,2,1,378,378,2025-06-05T16:06:29.733637
616,-0.5812,0.7222,0.3123,-12.390,9.030,12.320,1,1,1,392,383,2025-06-05T16:06:29.734635
617,-0.5695,0.7081,0.3318,-13.090,9.975,13.335,2,1,1,350,385,2025-06-05T16:06:29.734635
618,-0.5534,0.7174,0.3431,-13.335,12.040,14.700,1,1,1,331,372,2025-06-05T16:06:29.838563
619,-0.5348,0.7325,0.3401,-13.580,14.315,15.715,2,1,1,360,344,2025-06-05T16:06:29.838563
620,-0.5183,0.7559,0.3157,-14.420,18.305,16.170,2,2,1,370,372,2025-06-05T16:06:29.838563
621,-0.5100,0.7676,0.2826,-15.960,22.890,16.485,1,2,1,357,381,2025-06-05T16:06:29.838563
622,-0.5324,0.7706,0.2694,-18.130,26.495,16.730,2,1,2,371,390,2025-06-05T16:06:29.838563
623,-0.5632,0.7608,0.2777,-19.705,27.685,16.835,1,2,1,379,393,2025-06-05T16:06:29.838563
624,-0.5807,0.7632,0.3026,-21.105,26.915,17.675,2,2,1,373,352,2025-06-05T16:06:29.838563
625,-0.5885,0.7623,0.3289,-20.370,26.565,19.005,1,1,1,373,369,2025-06-05T16:06:29.838563
626,-0.6007,0.7657,0.3245,-19.915,26.740,20.090,2,2,2,392,375,2025-06-05T16:06:29.838563
627,-0.5919,0.7701,0.3128,-18.200,26.425,21.035,2,2,1,397,342,2025-06-05T16:06:29.891081
628,-0.5983,0.7720,0.3035,-17.080,26.915,22.120,1,1,2,350,326,2025-06-05T16:06:29.891081
629,-0.5998,0.7691,0.3035,-15.645,27.370,23.170,2,1,2,363,348,2025-06-05T16:06:29.891081
630,-0.6178,0.7749,0.3045,-14.560,27.020,24.500,1,1,1,370,381,2025-06-05T16:06:29.891081
631,-0.6364,0.7818,0.2855,-13.650,26.425,25.445,1,2,2,347,378,2025-06-05T16:06:30.164137
632,-0.6525,0.7896,0.2796,-12.285,25.060,25.935,1,2,1,367,385,2025-06-05T16:06:30.164137
633,-0.6627,0.8037,0.2869,-11.305,23.100,26.250,2,1,2,374,385,2025-06-05T16:06:30.164137
634,-0.6754,0.8218,0.2943,-10.290,19.390,27.055,1,2,1,380,393,2025-06-05T16:06:30.165104
635,-0.6837,0.8281,0.2928,-9.800,14.105,28.770,1,1,1,377,380,2025-06-05T16:06:30.165192
636,-0.6993,0.8374,0.2835,-9.800,8.575,30.275,1,1,0,347,345,2025-06-05T16:06:30.165192
637,-0.6983,0.8447,0.2786,-10.360,4.270,31.220,1,1,2,361,368,2025-06-05T16:06:30.165192
638,-0.6842,0.8374,0.2845,-10.535,0.350,31.745,1,1,1,372,351,2025-06-05T16:06:30.165192
639,-0.6695,0.8296,0.2860,-10.290,-2.345,32.585,1,1,1,368,344,2025-06-05T16:06:30.165192
640,-0.6544,0.8091,0.2674,-10.150,-4.060,33.390,2,1,1,383,369,2025-06-05T16:06:30.165192
641,-0.6515,0.7954,0.2450,-10.010,-5.530,34.090,1,1,1,394,351,2025-06-05T16:06:30.165192
642,-0.6461,0.7759,0.2289,-9.835,-5.915,34.510,1,1,1,389,360,2025-06-05T16:06:30.165192
643,-0.6437,0.7637,0.2362,-8.995,-6.440,34.860,1,1,1,394,369,2025-06-05T16:06:30.166102
644,-0.6120,0.7510,0.2484,-7.140,-5.985,35.490,2,1,1,395,381,2025-06-05T16:06:30.166102
645,-0.5963,0.7257,0.2464,-6.440,-4.760,36.680,1,1,1,394,399,2025-06-05T16:06:30.166102
646,-0.5724,0.7149,0.2552,-4.865,-4.760,38.325,2,0,0,362,393,2025-06-05T16:06:30.166102
647,-0.5456,0.7076,0.2499,-3.360,-5.075,40.180,1,2,1,381,403,2025-06-05T16:06:30.166102
648,-0.5187,0.6910,0.2245,-1.575,-5.075,41.370,1,1,1,390,356,2025-06-05T16:06:30.166102
649,-0.4924,0.6788,0.2094,0.350,-4.620,42.350,1,1,1,377,378,2025-06-05T16:06:30.166102
650,-0.4773,0.6627,0.1903,2.100,-2.905,41.895,1,1,1,388,350,2025-06-05T16:06:30.166102
651,-0.4592,0.6525,0.1786,4.655,-0.070,39.480,2,1,1,391,360,2025-06-05T16:06:30.457516
652,-0.4514,0.6442,0.1679,6.230,3.395,36.680,1,1,1,392,375,2025-06-05T16:06:30.457516
653,-0.4382,0.6388,0.1854,8.995,6.650,32.305,1,2,2,392,384,2025-06-05T16:06:30.457516
654,-0.4363,0.6383,0.2113,11.305,8.645,29.645,2,1,1,399,394,2025-06-05T16:06:30.457516
655,-0.4319,0.6427,0.2064,13.265,8.750,26.670,2,2,1,382,398,2025-06-05T16:06:30.457516
656,-0.4202,0.6549,0.1932,14.105,7.000,24.150,2,2,2,393,398,2025-06-05T16:06:30.457516
657,-0.3948,0.6700,0.1825,14.735,5.285,22.470,2,1,1,386,387,2025-06-05T16:06:30.457516
658,-0.3855,0.6866,0.1776,14.665,3.605,21.245,1,1,1,387,379,2025-06-05T16:06:30.457516
659,-0.3860,0.6925,0.1874,14.105,2.905,19.075,1,1,1,400,389,2025-06-05T16:06:30.457516
660,-0.3860,0.7213,0.2098,12.635,2.345,16.765,1,1,2,395,382,2025-06-05T16:06:30.457516
661,-0.4006,0.7340,0.2508,12.530,1.715,15.085,1,1,1,400,401,2025-06-05T16:06:30.457516
662,-0.4104,0.7388,0.2616,12.075,0.700,13.510,1,2,1,389,396,2025-06-05T16:06:30.457516
663,-0.4031,0.7418,0.2547,11.235,-1.470,12.600,2,1,2,351,387,2025-06-05T16:06:30.457516
664,-0.3904,0.7476,0.2435,10.570,-4.795,12.005,1,2,1,369,381,2025-06-05T16:06:30.457516
665,-0.3636,0.7740,0.2533,9.100,-5.775,11.760,1,1,1,372,389,2025-06-05T16:06:30.457516
666,-0.3377,0.8028,0.2557,8.680,-4.795,10.745,2,1,1,338,390,2025-06-05T16:06:30.458511
667,-0.3553,0.8325,0.2796,7.840,-2.555,7.735,1,1,1,369,354,2025-06-05T16:06:30.458511
668,-0.3670,0.8642,0.2933,6.930,0.875,3.955,1,2,1,380,352,2025-06-05T16:06:30.458511
669,-0.4075,0.8730,0.3240,7.035,2.240,-0.910,2,1,1,389,368,2025-06-05T16:06:30.613647
670,-0.4402,0.8818,0.3353,6.860,0.000,-4.445,1,1,1,346,381,2025-06-05T16:06:30.614016
671,-0.4602,0.8891,0.3338,6.895,-3.920,-5.880,1,2,1,377,386,2025-06-05T16:06:30.614016
672,-0.4636,0.8979,0.3372,6.790,-10.535,-5.285,1,2,1,376,319,2025-06-05T16:06:30.614016
673,-0.4372,0.8950,0.3250,6.230,-18.340,-2.765,1,1,1,365,359,2025-06-05T16:06:30.614016
674,-0.4153,0.8930,0.3353,5.880,-23.380,0.805,1,1,1,373,368,2025-06-05T16:06:30.614016
675,-0.4236,0.8847,0.3470,5.530,-25.095,3.710,2,1,1,376,384,2025-06-05T16:06:30.614016
676,-0.4114,0.8735,0.3689,6.475,-24.955,5.250,1,1,1,391,383,2025-06-05T16:06:30.614016
677,-0.4094,0.8647,0.3816,7.805,-22.190,5.775,1,1,0,348,388,2025-06-05T16:06:30.614016
678,-0.4255,0.8428,0.3767,9.450,-17.290,5.040,1,1,1,331,385,2025-06-05T16:06:30.614016
679,-0.4519,0.8262,0.3704,11.620,-14.175,3.500,2,2,1,353,395,2025-06-05T16:06:30.614016
680,-0.4734,0.8062,0.3548,12.810,-14.000,2.345,1,1,2,371,397,2025-06-05T16:06:30.614016
681,-0.4719,0.8013,0.3597,14.490,-15.050,1.785,2,1,1,379,382,2025-06-05T16:06:30.614016
682,-0.4738,0.7964,0.3743,16.310,-15.820,1.155,1,1,1,387,393,2025-06-05T16:06:30.614016
683,-0.4597,0.8013,0.3880,18.305,-15.470,-0.140,1,2,2,390,388,2025-06-05T16:06:30.614016
684,-0.4499,0.8140,0.3841,19.425,-14.665,-1.225,2,1,1,400,353,2025-06-05T16:06:30.614016
685,-0.4451,0.8169,0.4050,19.915,-12.880,-1.890,2,2,1,384,371,2025-06-05T16:06:30.615014
686,-0.4607,0.8057,0.4085,20.195,-11.970,-2.135,2,1,1,376,344,2025-06-05T16:06:30.615014
687,-0.4778,0.8032,0.3953,19.600,-12.915,-2.170,1,2,1,377,373,2025-06-05T16:06:30.615014
688,-0.4890,0.7984,0.3797,18.655,-15.960,-2.205,2,2,1,393,390,2025-06-05T16:06:30.615014
689,-0.4875,0.7828,0.3806,17.570,-18.480,-1.785,2,2,1,386,399,2025-06-05T16:06:30.615014
690,-0.4821,0.7803,0.3782,16.240,-20.335,-1.890,2,2,2,397,401,2025-06-05T16:06:30.781707
691,-0.4494,0.7769,0.3914,14.805,-20.300,-1.505,1,2,1,380,387,2025-06-05T16:06:30.781707
692,-0.4314,0.7784,0.3855,12.670,-18.970,-0.840,1,1,2,393,388,2025-06-05T16:06:30.781707
693,-0.4265,0.7823,0.3670,10.500,-16.870,-0.105,1,1,1,401,352,2025-06-05T16:06:30.781707
694,-0.4153,0.7808,0.3514,7.490,-14.665,1.050,2,2,1,378,330,2025-06-05T16:06:30.782724
695,-0.4031,0.7701,0.3475,5.495,-12.775,2.485,2,1,1,382,354,2025-06-05T16:06:30.782724
696,-0.3909,0.7745,0.3484,4.340,-11.270,4.305,1,1,1,380,332,2025-06-05T16:06:30.782724
697,-0.3719,0.7828,0.3440,2.800,-9.030,5.495,2,2,1,343,357,2025-06-05T16:06:30.782724
698,-0.3723,0.7808,0.3182,1.540,-6.230,6.055,2,1,1,333,357,2025-06-05T16:06:30.782724
699,-0.3802,0.7823,0.3123,0.455,-4.060,6.055,1,1,2,371,377,2025-06-05T16:06:30.782724
700,-0.3884,0.7964,0.3157,0.070,-3.430,5.985,2,1,1,381,345,2025-06-05T16:06:30.782724
701,-0.3865,0.8091,0.3099,-0.350,-3.500,6.230,1,2,0,354,362,2025-06-05T16:06:30.782724
702,-0.3919,0.8047,0.3094,-0.700,-3.045,6.685,1,1,1,363,368,2025-06-05T16:06:30.782724
703,-0.3899,0.7906,0.3030,-1.120,-3.045,6.790,2,1,2,369,381,2025-06-05T16:06:30.782724
704,-0.3894,0.7774,0.3226,-1.645,-1.610,6.125,1,1,1,388,381,2025-06-05T16:06:30.782724
705,-0.3992,0.7832,0.3406,-2.030,0.105,4.725,1,2,1,396,391,2025-06-05T16:06:30.963205
706,-0.4099,0.7945,0.3440,-2.065,1.890,3.185,2,1,2,401,355,2025-06-05T16:06:30.963205
707,-0.4299,0.7964,0.3372,-2.975,1.610,1.365,1,1,1,381,375,2025-06-05T16:06:30.963205
708,-0.4377,0.7979,0.3367,-3.675,0.035,0.770,2,2,2,380,342,2025-06-05T16:06:30.963205
709,-0.4343,0.8091,0.3426,-4.900,-2.205,0.840,2,1,1,376,372,2025-06-05T16:06:30.963205
710,-0.4358,0.8008,0.3621,-6.125,-3.955,1.155,1,1,0,349,373,2025-06-05T16:06:30.963205
711,-0.4407,0.7959,0.3855,-8.225,-5.635,0.980,1,2,2,376,362,2025-06-05T16:06:30.963205
712,-0.4446,0.8023,0.3943,-9.240,-6.755,0.805,1,1,1,309,364,2025-06-05T16:06:30.963205
713,-0.4504,0.8047,0.3943,-10.780,-7.560,0.280,1,1,1,343,379,2025-06-05T16:06:30.963205
714,-0.4543,0.8101,0.3967,-11.480,-7.875,-0.455,1,2,1,337,376,2025-06-05T16:06:30.963205
715,-0.4529,0.8125,0.4006,-13.230,-8.085,-1.050,1,1,1,371,388,2025-06-05T16:06:30.963836
716,-0.4348,0.8062,0.4031,-14.665,-8.330,-1.295,1,2,1,366,395,2025-06-05T16:06:30.963836
717,-0.4260,0.8076,0.4099,-15.820,-7.840,-0.840,1,1,1,370,391,2025-06-05T16:06:30.963836
718,-0.4177,0.8218,0.4207,-16.940,-7.175,-0.490,1,1,1,381,396,2025-06-05T16:06:30.963836
719,-0.4216,0.8555,0.4221,-17.710,-5.600,-0.875,1,2,1,393,398,2025-06-05T16:06:30.963836
720,-0.4348,0.8711,0.4031,-18.305,-4.585,-1.645,1,2,1,347,390,2025-06-05T16:06:30.963836
721,-0.4563,0.8877,0.3880,-19.040,-5.985,-2.310,2,2,1,373,384,2025-06-05T16:06:31.077034
722,-0.4914,0.8852,0.3845,-19.250,-9.765,-2.030,1,2,1,377,382,2025-06-05T16:06:31.077034
723,-0.4978,0.8818,0.3924,-19.005,-15.645,0.000,2,1,1,373,372,2025-06-05T16:06:31.077034
724,-0.4797,0.8760,0.3787,-17.955,-19.390,2.485,2,2,1,381,385,2025-06-05T16:06:31.077263
725,-0.4514,0.8755,0.3479,-16.835,-19.670,3.395,2,2,1,373,390,2025-06-05T16:06:31.077263
726,-0.4163,0.8818,0.3196,-15.225,-16.940,3.465,1,2,1,342,392,2025-06-05T16:06:31.077263
727,-0.3616,0.8935,0.2874,-14.490,-11.725,3.605,1,1,1,375,397,2025-06-05T16:06:31.077263
728,-0.3504,0.8969,0.2738,-13.300,-4.725,5.075,1,1,1,382,401,2025-06-05T16:06:31.077263
729,-0.3523,0.9130,0.2762,-12.425,-0.315,7.350,2,1,2,392,402,2025-06-05T16:06:31.077263
730,-0.3684,0.9135,0.2660,-11.620,1.890,10.500,1,2,1,349,391,2025-06-05T16:06:31.175315
731,-0.3680,0.9126,0.2362,-9.905,1.750,13.615,2,1,1,361,398,2025-06-05T16:06:31.175315
732,-0.3567,0.9111,0.1996,-8.610,0.630,17.535,2,2,2,368,386,2025-06-05T16:06:31.175315
733,-0.3440,0.9033,0.1786,-7.385,0.245,19.845,1,2,2,384,397,2025-06-05T16:06:31.175315
734,-0.3289,0.9062,0.1684,-6.720,2.765,19.425,1,2,1,382,391,2025-06-05T16:06:31.175315
735,-0.3274,0.8926,0.1669,-6.195,5.740,16.450,1,1,1,384,361,2025-06-05T16:06:31.176349
736,-0.3465,0.8818,0.1523,-5.705,10.080,12.985,2,1,1,377,375,2025-06-05T16:06:31.176349
737,-0.3684,0.8594,0.1444,-5.390,12.460,8.225,1,1,1,390,351,2025-06-05T16:06:31.176349
738,-0.3728,0.8394,0.1396,-5.425,12.705,4.655,2,2,1,392,380,2025-06-05T16:06:31.403433
739,-0.3470,0.8408,0.1430,-5.810,11.620,2.555,1,1,1,400,386,2025-06-05T16:06:31.403542
740,-0.3216,0.8262,0.1371,-6.895,11.060,2.310,1,1,1,397,398,2025-06-05T16:06:31.403542
741,-0.3026,0.8228,0.1474,-8.015,11.270,2.345,2,2,2,398,395,2025-06-05T16:06:31.403542
742,-0.2928,0.8189,0.1557,-9.030,13.090,1.925,2,2,2,392,400,2025-06-05T16:06:31.403542
743,-0.3084,0.8159,0.1625,-9.835,15.715,0.350,1,1,2,396,400,2025-06-05T16:06:31.403542
744,-0.3431,0.8052,0.1415,-10.605,16.905,-2.765,1,2,1,397,390,2025-06-05T16:06:31.403542
745,-0.3704,0.7930,0.1191,-10.780,15.960,-5.145,1,1,1,367,384,2025-06-05T16:06:31.403542
746,-0.4124,0.7808,0.1108,-10.990,10.395,-7.805,1,1,1,367,391,2025-06-05T16:06:31.403542
747,-0.3904,0.7964,0.1083,-12.635,11.935,-7.735,1,1,1,359,387,2025-06-05T16:06:31.403542
748,-0.3777,0.7759,0.1137,-11.060,1.785,-8.435,1,2,1,373,401,2025-06-05T16:06:31.403542
749,-0.3967,0.7632,0.1503,-8.225,-1.365,-8.085,1,1,0,311,390,2025-06-05T16:06:31.403542
750,-0.3719,0.7559,0.2025,-10.675,-4.305,-7.875,1,1,1,355,387,2025-06-05T16:06:31.403542
751,-0.3655,0.7627,0.2225,-6.125,-8.225,-7.805,1,2,1,371,388,2025-06-05T16:06:31.403542
752,-0.3709,0.7832,0.2191,-8.470,-5.775,-8.120,1,2,1,368,388,2025-06-05T16:06:31.403542
753,-0.3948,0.7925,0.2025,-7.560,-6.160,-9.695,1,1,1,381,398,2025-06-05T16:06:31.403542
754,-0.4148,0.8081,0.1967,-6.720,-7.945,-11.655,1,1,1,390,403,2025-06-05T16:06:31.403542
755,-0.4260,0.8169,0.2089,-7.315,-10.080,-12.425,2,1,1,390,361,2025-06-05T16:06:31.602390
756,-0.4363,0.8189,0.2357,-5.810,-15.960,-12.320,2,2,1,374,385,2025-06-05T16:06:31.602390
757,-0.4421,0.8276,0.2542,-5.005,-21.420,-11.270,1,2,2,391,379,2025-06-05T16:06:31.602390
758,-0.4333,0.8394,0.2660,-3.640,-25.095,-9.800,2,1,1,392,385,2025-06-05T16:06:31.602390
759,-0.4187,0.8530,0.2782,-1.820,-26.600,-8.820,1,1,1,385,381,2025-06-05T16:06:31.602390
760,-0.3958,0.8784,0.2830,-0.420,-25.305,-7.980,1,2,1,379,387,2025-06-05T16:06:31.602390
761,-0.3889,0.8828,0.2933,0.560,-21.700,-7.350,1,1,1,379,384,2025-06-05T16:06:31.602390
762,-0.4187,0.8872,0.2967,1.610,-19.740,-6.720,1,2,1,385,377,2025-06-05T16:06:31.602390
763,-0.4426,0.8823,0.2879,2.345,-21.350,-6.230,0,1,1,389,385,2025-06-05T16:06:31.602390
764,-0.4529,0.8818,0.2826,4.340,-24.255,-5.425,2,1,1,395,349,2025-06-05T16:06:31.602390
765,-0.4665,0.8764,0.2606,6.930,-27.370,-5.320,1,1,1,394,378,2025-06-05T16:06:31.602390
766,-0.4363,0.8608,0.2596,9.555,-27.685,-7.175,1,1,1,386,341,2025-06-05T16:06:31.602390
767,-0.4031,0.8584,0.2635,11.690,-23.240,-10.850,1,1,1,385,368,2025-06-05T16:06:31.602390
768,-0.3875,0.8281,0.2904,11.550,-16.030,-14.735,2,1,1,351,369,2025-06-05T16:06:31.602390
769,-0.4041,0.8115,0.3294,11.305,-11.935,-16.940,1,2,1,368,382,2025-06-05T16:06:31.602390
770,-0.4187,0.8179,0.3650,9.975,-10.430,-16.730,1,1,2,374,381,2025-06-05T16:06:31.603440
771,-0.4348,0.8398,0.3723,8.225,-11.655,-14.245,1,1,1,385,391,2025-06-05T16:06:31.603440
772,-0.4460,0.8516,0.3587,6.440,-14.560,-10.850,2,2,1,386,360,2025-06-05T16:06:31.603579
773,-0.4587,0.8530,0.3357,4.025,-17.150,-8.225,2,1,1,392,383,2025-06-05T16:06:31.603579
774,-0.4836,0.8545,0.3231,1.540,-18.830,-7.175,2,2,2,400,381,2025-06-05T16:06:31.880864
775,-0.5041,0.8447,0.3348,-0.245,-20.580,-6.825,1,2,1,385,379,2025-06-05T16:06:31.880864
776,-0.4982,0.8345,0.3484,-0.770,-21.840,-6.895,1,2,1,344,341,2025-06-05T16:06:31.880864
777,-0.5012,0.8130,0.3460,-1.260,-21.735,-6.685,1,2,2,354,373,2025-06-05T16:06:31.881216
778,-0.5124,0.7745,0.3499,-1.365,-21.210,-6.405,2,1,2,374,349,2025-06-05T16:06:31.881216
779,-0.4982,0.7481,0.3562,-2.205,-20.265,-6.405,1,1,1,378,379,2025-06-05T16:06:31.881216
780,-0.4817,0.7310,0.3709,-3.780,-19.565,-6.335,1,2,1,383,385,2025-06-05T16:06:31.881216
781,-0.4616,0.7315,0.3811,-4.900,-17.045,-6.440,1,1,1,354,375,2025-06-05T16:06:31.881216
782,-0.4787,0.7330,0.3855,-5.950,-15.295,-7.035,1,1,1,360,350,2025-06-05T16:06:31.881216
783,-0.4890,0.7471,0.3865,-6.825,-15.715,-7.945,1,2,1,363,358,2025-06-05T16:06:31.881216
784,-0.4865,0.7525,0.3889,-7.035,-17.045,-8.645,2,1,0,351,367,2025-06-05T16:06:31.881216
785,-0.4792,0.7515,0.3948,-6.615,-18.620,-8.400,1,1,2,382,382,2025-06-05T16:06:31.881216
786,-0.4782,0.7554,0.3933,-5.810,-19.880,-8.190,2,1,1,383,350,2025-06-05T16:06:31.881216
787,-0.4773,0.7647,0.3860,-5.670,-21.070,-7.770,2,1,1,385,376,2025-06-05T16:06:31.881216
788,-0.4558,0.7657,0.3758,-5.670,-22.645,-7.420,2,1,1,380,376,2025-06-05T16:06:31.881216
789,-0.4324,0.7666,0.3845,-5.460,-22.960,-6.790,2,1,1,346,369,2025-06-05T16:06:32.000072
790,-0.4372,0.7686,0.3992,-4.760,-22.050,-6.510,1,2,2,362,377,2025-06-05T16:06:32.000072
791,-0.4358,0.7764,0.4163,-3.430,-20.790,-7.210,2,2,1,381,378,2025-06-05T16:06:32.000072
792,-0.4441,0.7906,0.4158,-1.750,-19.425,-8.190,1,1,1,385,373,2025-06-05T16:06:32.000072
793,-0.4573,0.7945,0.3948,-0.490,-18.620,-8.960,1,2,1,374,393,2025-06-05T16:06:32.000072
794,-0.4699,0.7857,0.3680,0.280,-19.215,-8.785,1,1,1,345,394,2025-06-05T16:06:32.000072
795,-0.4821,0.7627,0.3548,0.525,-21.350,-8.505,2,1,1,330,386,2025-06-05T16:06:32.000072
796,-0.4880,0.7422,0.3660,0.420,-23.695,-7.525,1,1,1,349,380,2025-06-05T16:06:32.000072
797,-0.4685,0.7281,0.3938,1.295,-25.270,-6.300,1,1,1,343,384,2025-06-05T16:06:32.000072
798,-0.4392,0.7286,0.4109,2.100,-25.130,-4.725,1,1,1,373,387,2025-06-05T16:06:32.000072
799,-0.4114,0.7252,0.4255,2.905,-22.785,-3.570,1,2,2,385,393,2025-06-05T16:06:32.000690
800,-0.3963,0.7310,0.4050,3.885,-18.655,-3.535,1,1,2,350,399,2025-06-05T16:06:32.000690
801,-0.3967,0.7427,0.3811,4.270,-14.070,-4.515,2,1,1,357,389,2025-06-05T16:06:32.187303
802,-0.4080,0.7579,0.3650,4.620,-10.920,-5.495,2,1,1,373,397,2025-06-05T16:06:32.187303
803,-0.4529,0.7657,0.3514,4.200,-10.815,-6.615,2,1,1,340,391,2025-06-05T16:06:32.187303
804,-0.4577,0.7710,0.3523,4.340,-13.265,-7.140,1,1,1,294,379,2025-06-05T16:06:32.187303
805,-0.4553,0.7788,0.3753,4.375,-16.905,-6.860,2,1,1,332,352,2025-06-05T16:06:32.187303
806,-0.4524,0.7867,0.3904,4.130,-18.585,-6.720,1,2,1,365,374,2025-06-05T16:06:32.187303
807,-0.4451,0.7920,0.3948,4.095,-18.270,-7.595,1,2,1,365,382,2025-06-05T16:06:32.220083
808,-0.4255,0.7950,0.3821,3.640,-16.940,-8.190,1,1,2,377,394,2025-06-05T16:06:32.220083
809,-0.4182,0.7920,0.3616,3.465,-15.085,-8.015,1,2,2,382,395,2025-06-05T16:06:32.220083
810,-0.4299,0.7984,0.3509,2.765,-13.720,-7.560,1,2,1,394,369,2025-06-05T16:06:32.220083
811,-0.4407,0.7964,0.3518,1.995,-12.565,-7.315,2,2,1,380,384,2025-06-05T16:06:32.220083
812,-0.4514,0.7920,0.3636,1.435,-12.320,-6.510,2,2,1,389,386,2025-06-05T16:06:32.220083
813,-0.4607,0.7886,0.3670,1.120,-13.265,-5.285,1,1,1,384,393,2025-06-05T16:06:32.220083
814,-0.4597,0.7847,0.3621,1.680,-13.790,-4.410,2,1,1,389,394,2025-06-05T16:06:32.220083
815,-0.4568,0.7788,0.3587,1.925,-13.930,-3.640,2,2,1,380,351,2025-06-05T16:06:32.220083
816,-0.4465,0.7710,0.3543,2.205,-13.265,-3.220,1,2,1,374,378,2025-06-05T16:06:32.220083
817,-0.4387,0.7686,0.3533,2.730,-11.935,-2.765,1,1,1,389,389,2025-06-05T16:06:32.220083
818,-0.4299,0.7696,0.3533,2.625,-9.940,-2.730,1,2,1,353,377,2025-06-05T16:06:32.220083
819,-0.4250,0.7696,0.3460,3.150,-7.770,-2.555,2,1,2,365,375,2025-06-05T16:06:32.220083
820,-0.4314,0.7735,0.3509,3.080,-6.300,-2.555,1,1,1,368,376,2025-06-05T16:06:32.220083
821,-0.4290,0.7803,0.3558,3.465,-5.040,-2.555,2,2,1,379,381,2025-06-05T16:06:32.220083
822,-0.4436,0.7876,0.3621,3.325,-4.830,-2.555,1,0,1,381,387,2025-06-05T16:06:32.220083
823,-0.4509,0.7842,0.3675,3.395,-5.880,-2.450,2,1,2,383,386,2025-06-05T16:06:32.220083
824,-0.4534,0.7930,0.3719,3.325,-7.595,-2.100,2,2,1,388,391,2025-06-05T16:06:32.220083
825,-0.4494,0.7979,0.3709,3.185,-9.345,-1.890,1,2,1,379,390,2025-06-05T16:06:32.220083
826,-0.4465,0.7969,0.3665,2.415,-10.150,-1.820,2,1,2,390,385,2025-06-05T16:06:32.402966
827,-0.4514,0.7915,0.3592,1.890,-10.570,-2.030,1,1,2,398,382,2025-06-05T16:06:32.402966
828,-0.4519,0.7959,0.3645,1.540,-10.220,-2.205,1,1,2,408,363,2025-06-05T16:06:32.402966
829,-0.4524,0.7974,0.3797,0.980,-9.450,-2.275,1,1,1,400,374,2025-06-05T16:06:32.402966
830,-0.4631,0.7950,0.3806,0.875,-9.135,-2.030,1,1,1,400,389,2025-06-05T16:06:32.402966
831,-0.4724,0.7901,0.3797,0.595,-9.205,-1.470,2,1,1,357,376,2025-06-05T16:06:32.402966
832,-0.4773,0.7886,0.3787,0.210,-10.430,-0.560,1,1,1,364,356,2025-06-05T16:06:32.402966
833,-0.4724,0.7823,0.3821,-0.035,-11.270,0.525,1,0,1,336,359,2025-06-05T16:06:32.402966
834,-0.4704,0.7769,0.3782,-0.245,-11.725,1.295,1,1,0,323,379,2025-06-05T16:06:32.402966
835,-0.4602,0.7788,0.3743,-0.245,-11.375,1.715,1,2,1,361,351,2025-06-05T16:06:32.402966
836,-0.4558,0.7725,0.3699,-0.140,-10.535,1.750,1,1,1,357,375,2025-06-05T16:06:32.402966
837,-0.4514,0.7754,0.3714,-0.070,-9.450,1.750,1,1,1,383,379,2025-06-05T16:06:32.402966
838,-0.4470,0.7808,0.3738,-0.140,-8.505,1.505,1,1,0,312,386,2025-06-05T16:06:32.402966
839,-0.4460,0.7754,0.3719,-0.315,-7.700,1.680,1,0,1,316,361,2025-06-05T16:06:32.402966
840,-0.4475,0.7715,0.3748,-0.455,-7.455,1.890,1,1,1,338,351,2025-06-05T16:06:32.402966
841,-0.4504,0.7696,0.3782,-0.665,-7.805,2.310,1,1,2,370,375,2025-06-05T16:06:32.507282
842,-0.4494,0.7720,0.3806,-0.350,-8.085,2.625,2,1,1,385,394,2025-06-05T16:06:32.508257
843,-0.4407,0.7803,0.3787,-0.105,-8.120,2.730,1,2,2,389,380,2025-06-05T16:06:32.508257
844,-0.4358,0.7867,0.3709,0.140,-7.700,2.555,1,2,1,388,390,2025-06-05T16:06:32.508257
845,-0.4421,0.7901,0.3655,0.280,-7.210,1.995,2,2,1,394,380,2025-06-05T16:06:32.508257
846,-0.4499,0.7803,0.3538,0.245,-7.595,1.435,2,1,2,396,394,2025-06-05T16:06:32.508257
847,-0.4436,0.7818,0.3562,0.350,-9.135,0.980,1,1,1,400,399,2025-06-05T16:06:32.508257
848,-0.4363,0.7784,0.3572,0.210,-10.325,1.085,1,2,1,356,396,2025-06-05T16:06:32.508257
849,-0.4329,0.7818,0.3636,0.560,-10.080,1.015,1,1,1,364,405,2025-06-05T16:06:32.508257
850,-0.4333,0.7832,0.3694,0.875,-9.625,0.245,1,1,1,376,408,2025-06-05T16:06:32.604675
851,-0.4329,0.7862,0.3758,1.015,-8.785,-0.630,2,2,1,375,397,2025-06-05T16:06:32.604675
852,-0.4329,0.7862,0.3714,0.805,-8.155,-0.910,1,2,2,379,385,2025-06-05T16:06:32.604675
853,-0.4421,0.7847,0.3660,0.035,-8.050,-1.050,1,1,1,371,352,2025-06-05T16:06:32.604675
854,-0.4543,0.7779,0.3645,-0.350,-9.065,-1.120,1,2,2,376,372,2025-06-05T16:06:32.604675
855,-0.4534,0.7784,0.3636,-0.840,-10.395,-0.840,1,1,1,382,389,2025-06-05T16:06:32.604675
856,-0.4499,0.7730,0.3680,-0.980,-11.445,-0.665,1,2,1,380,358,2025-06-05T16:06:32.605460
857,-0.4485,0.7696,0.3762,-0.595,-11.970,-0.245,1,2,1,376,371,2025-06-05T16:06:32.605582
858,-0.4358,0.7681,0.3787,-0.315,-11.865,-0.140,2,2,1,383,384,2025-06-05T16:06:32.844687
859,-0.4319,0.7657,0.3777,0.385,-11.025,-0.210,1,2,2,401,392,2025-06-05T16:06:32.844687
860,-0.4285,0.7706,0.3723,0.875,-9.835,-0.420,1,1,1,381,389,2025-06-05T16:06:32.844687
861,-0.4348,0.7691,0.3621,1.505,-8.540,-0.980,2,2,1,394,389,2025-06-05T16:06:32.844687
862,-0.4392,0.7730,0.3626,1.540,-7.735,-1.295,1,1,2,386,401,2025-06-05T16:06:32.844687
863,-0.4451,0.7701,0.3645,1.645,-7.910,-1.470,1,1,1,380,384,2025-06-05T16:06:32.844687
864,-0.4465,0.7749,0.3640,1.820,-8.050,-1.050,1,1,1,393,395,2025-06-05T16:06:32.844687
865,-0.4451,0.7735,0.3704,1.750,-8.330,-0.910,2,1,2,384,384,2025-06-05T16:06:32.844687
866,-0.4485,0.7764,0.3723,2.135,-8.610,-0.945,1,1,1,384,352,2025-06-05T16:06:32.844687
867,-0.4470,0.7837,0.3704,2.100,-8.540,-1.050,1,1,1,393,374,2025-06-05T16:06:32.844687
868,-0.4431,0.7842,0.3723,1.995,-8.505,-1.085,1,1,1,400,384,2025-06-05T16:06:32.844687
869,-0.4412,0.7823,0.3714,2.065,-8.575,-0.805,2,2,1,399,390,2025-06-05T16:06:32.844687
870,-0.4382,0.7818,0.3665,1.890,-8.435,-0.420,1,1,1,394,363,2025-06-05T16:06:32.844687
871,-0.4392,0.7842,0.3655,1.715,-8.050,-0.140,1,1,1,379,379,2025-06-05T16:06:32.844687
872,-0.4407,0.7857,0.3650,1.540,-7.700,0.105,2,1,1,392,392,2025-06-05T16:06:32.844687
873,-0.4441,0.7867,0.3640,1.575,-7.280,0.035,0,1,2,354,394,2025-06-05T16:06:32.844687
874,-0.4475,0.7857,0.3626,1.365,-7.315,0.175,1,1,1,375,359,2025-06-05T16:06:32.844687
875,-0.4412,0.7837,0.3665,1.330,-7.490,0.385,2,2,1,378,384,2025-06-05T16:06:32.844687
876,-0.4358,0.7813,0.3719,1.435,-7.350,0.490,1,2,1,392,384,2025-06-05T16:06:33.048135
877,-0.4333,0.7828,0.3694,1.400,-7.035,0.420,1,2,2,383,386,2025-06-05T16:06:33.048135
878,-0.4265,0.7784,0.3684,1.575,-6.965,0.175,2,2,1,390,382,2025-06-05T16:06:33.048135
879,-0.4368,0.7745,0.3675,1.575,-6.440,-0.140,1,1,1,395,379,2025-06-05T16:06:33.048135
880,-0.4372,0.7788,0.3640,1.890,-6.580,-0.385,1,2,1,391,343,2025-06-05T16:06:33.048135
881,-0.4358,0.7832,0.3636,1.540,-6.720,-0.525,1,2,2,378,371,2025-06-05T16:06:33.048135
882,-0.4299,0.7857,0.3699,1.505,-6.755,-0.455,1,2,1,376,375,2025-06-05T16:06:33.048135
883,-0.4255,0.7842,0.3748,1.785,-6.405,-0.350,1,1,1,373,375,2025-06-05T16:06:33.048135
884,-0.4265,0.7803,0.3748,1.575,-5.635,-0.525,1,1,1,385,388,2025-06-05T16:06:33.048135
885,-0.4241,0.7793,0.3655,1.575,-5.040,-0.910,2,1,1,394,396,2025-06-05T16:06:33.048135
886,-0.4260,0.7779,0.3650,1.610,-4.690,-1.505,1,1,1,385,398,2025-06-05T16:06:33.048135
887,-0.4338,0.7735,0.3631,1.330,-4.270,-1.925,2,1,1,391,384,2025-06-05T16:06:33.048135
888,-0.4421,0.7754,0.3645,1.470,-4.620,-2.485,1,1,1,391,374,2025-06-05T16:06:33.048135
889,-0.4538,0.7769,0.3645,1.295,-5.425,-2.590,2,1,2,388,390,2025-06-05T16:06:33.048135
890,-0.4475,0.7813,0.3675,1.715,-6.125,-2.485,1,2,1,394,350,2025-06-05T16:06:33.048135
891,-0.4358,0.7793,0.3655,1.470,-6.405,-2.275,1,1,1,387,356,2025-06-05T16:06:33.048135
892,-0.4358,0.7788,0.3631,1.470,-5.915,-1.960,1,2,1,394,385,2025-06-05T16:06:33.049160
893,-0.4372,0.7754,0.3650,1.260,-4.935,-1.855,2,2,1,391,380,2025-06-05T16:06:33.049305
894,-0.4329,0.7754,0.3675,1.085,-4.165,-1.820,1,1,2,392,391,2025-06-05T16:06:33.225934
895,-0.4324,0.7749,0.3694,1.190,-3.010,-1.995,1,2,2,399,351,2025-06-05T16:06:33.225934
896,-0.4412,0.7710,0.3665,1.225,-1.925,-2.380,1,2,2,399,375,2025-06-05T16:06:33.225934
897,-0.4397,0.7735,0.3631,1.540,-1.750,-2.485,2,1,1,358,378,2025-06-05T16:06:33.225934
898,-0.4460,0.7735,0.3572,1.610,-2.135,-2.835,1,2,1,387,388,2025-06-05T16:06:33.225934
899,-0.4460,0.7740,0.3587,1.610,-2.555,-3.115,2,1,2,397,394,2025-06-05T16:06:33.225934
900,-0.4485,0.7735,0.3577,1.680,-2.800,-3.640,1,1,1,381,353,2025-06-05T16:06:33.225934
901,-0.4504,0.7715,0.3587,1.400,-2.765,-4.480,2,1,1,386,368,2025-06-05T16:06:33.226983
902,-0.4402,0.7652,0.3587,1.190,-2.555,-4.970,1,1,0,350,337,2025-06-05T16:06:33.226983
903,-0.4426,0.7627,0.3670,0.840,-2.310,-5.005,1,1,1,370,376,2025-06-05T16:06:33.226983
904,-0.4485,0.7559,0.3758,0.945,-2.065,-5.075,1,2,1,374,386,2025-06-05T16:06:33.226983
905,-0.4631,0.7574,0.3821,1.365,-2.310,-4.935,2,1,1,388,384,2025-06-05T16:06:33.226983
906,-0.4660,0.7530,0.3694,1.995,-3.185,-4.935,1,2,2,350,391,2025-06-05T16:06:33.226983
907,-0.4690,0.7549,0.3538,2.485,-3.815,-4.900,1,1,1,375,357,2025-06-05T16:06:33.226983
908,-0.4724,0.7496,0.3436,2.835,-4.725,-5.005,1,0,1,377,382,2025-06-05T16:06:33.226983
909,-0.4577,0.7530,0.3455,3.570,-5.075,-4.795,1,1,2,383,373,2025-06-05T16:06:33.226983
910,-0.4582,0.7598,0.3489,4.060,-4.515,-4.795,2,1,2,391,343,2025-06-05T16:06:33.520967
911,-0.4402,0.7671,0.3514,5.005,-3.780,-4.795,2,2,1,370,357,2025-06-05T16:06:33.520967
912,-0.4324,0.7701,0.3499,5.635,-2.065,-4.620,1,2,1,388,347,2025-06-05T16:06:33.520967
913,-0.4319,0.7764,0.3489,5.845,0.490,-5.145,1,2,2,383,359,2025-06-05T16:06:33.520967
914,-0.4314,0.7852,0.3416,5.985,2.555,-5.740,2,1,1,381,369,2025-06-05T16:06:33.520967
915,-0.4431,0.7964,0.3450,5.845,3.395,-6.510,1,1,2,396,380,2025-06-05T16:06:33.520967
916,-0.4553,0.8018,0.3377,5.670,2.975,-6.860,1,1,1,385,370,2025-06-05T16:06:33.520967
917,-0.4548,0.8052,0.3314,5.145,1.575,-6.965,1,1,1,384,348,2025-06-05T16:06:33.520967
918,-0.4660,0.8072,0.3343,4.305,0.630,-7.105,1,1,1,393,370,2025-06-05T16:06:33.521722
919,-0.4719,0.8125,0.3396,3.605,-0.280,-7.385,1,1,1,385,378,2025-06-05T16:06:33.521722
920,-0.4807,0.8150,0.3460,3.290,-1.260,-7.490,2,1,1,392,360,2025-06-05T16:06:33.521722
921,-0.4890,0.8106,0.3455,2.380,-2.485,-7.210,2,1,1,382,366,2025-06-05T16:06:33.521722
922,-0.4948,0.7993,0.3470,2.065,-4.095,-6.230,2,1,1,395,384,2025-06-05T16:06:33.521722
923,-0.4987,0.7910,0.3465,1.925,-5.355,-5.145,1,1,2,399,373,2025-06-05T16:06:33.521722
924,-0.4904,0.7896,0.3421,1.505,-5.775,-4.375,1,1,0,363,380,2025-06-05T16:06:33.521722
925,-0.4890,0.7891,0.3382,1.330,-5.215,-3.990,1,1,1,383,382,2025-06-05T16:06:33.521722
926,-0.4865,0.7881,0.3392,0.980,-3.920,-3.955,1,1,1,396,384,2025-06-05T16:06:33.521722
927,-0.4826,0.7798,0.3411,0.805,-2.730,-3.710,1,1,1,396,348,2025-06-05T16:06:33.663074
928,-0.4875,0.7676,0.3436,0.735,-1.715,-3.465,1,1,2,388,342,2025-06-05T16:06:33.663074
929,-0.4987,0.7647,0.3362,0.595,-1.540,-3.220,1,2,1,382,332,2025-06-05T16:06:33.663074
930,-0.5002,0.7579,0.3455,1.120,-1.960,-2.695,2,2,2,386,319,2025-06-05T16:06:33.663074
931,-0.5012,0.7627,0.3440,1.015,-2.765,-2.135,1,2,1,377,362,2025-06-05T16:06:33.663074
932,-0.4934,0.7593,0.3392,1.435,-3.255,-1.785,1,1,1,385,373,2025-06-05T16:06:33.663074
933,-0.4919,0.7637,0.3362,1.750,-2.870,-1.960,1,1,1,378,390,2025-06-05T16:06:33.663074
934,-0.4870,0.7657,0.3304,1.890,-2.275,-2.240,0,1,1,375,391,2025-06-05T16:06:33.663074
935,-0.4856,0.7666,0.3250,1.925,-1.925,-2.520,1,1,1,386,403,2025-06-05T16:06:33.663074
936,-0.4885,0.7652,0.3279,1.855,-1.540,-2.940,1,1,1,378,393,2025-06-05T16:06:33.663074
937,-0.4968,0.7652,0.3274,1.750,-1.995,-3.220,1,1,1,386,404,2025-06-05T16:06:33.663074
938,-0.4987,0.7618,0.3323,1.960,-3.115,-3.220,1,1,1,349,386,2025-06-05T16:06:33.663074
939,-0.4943,0.7608,0.3323,2.135,-4.340,-3.185,1,1,1,370,406,2025-06-05T16:06:33.663074
940,-0.4870,0.7584,0.3309,2.310,-4.725,-3.290,1,1,1,369,406,2025-06-05T16:06:33.664140
941,-0.4768,0.7608,0.3284,2.555,-4.445,-3.885,1,2,1,390,406,2025-06-05T16:06:33.664140
942,-0.4738,0.7676,0.3221,3.010,-3.850,-4.585,1,1,1,391,388,2025-06-05T16:06:33.664140
943,-0.4763,0.7710,0.3152,2.940,-3.325,-5.425,1,2,1,385,394,2025-06-05T16:06:33.664140
944,-0.4831,0.7784,0.3109,2.975,-3.535,-6.230,2,1,1,392,403,2025-06-05T16:06:33.664140
945,-0.4934,0.7823,0.3099,2.835,-4.165,-6.790,1,1,1,393,403,2025-06-05T16:06:33.664140
946,-0.5017,0.7876,0.3167,2.765,-5.565,-6.895,2,1,1,401,391,2025-06-05T16:06:33.664140
947,-0.5075,0.7886,0.3216,2.730,-6.720,-6.790,2,2,1,397,379,2025-06-05T16:06:33.664821
948,-0.5119,0.7847,0.3255,2.765,-7.840,-6.405,1,2,1,379,345,2025-06-05T16:06:33.842600
949,-0.5085,0.7759,0.3221,2.905,-8.960,-5.705,2,1,1,387,363,2025-06-05T16:06:33.842600
950,-0.5085,0.7720,0.3192,2.800,-9.310,-5.075,2,2,2,396,366,2025-06-05T16:06:33.842600
951,-0.5065,0.7730,0.3152,2.975,-9.205,-4.340,1,1,1,354,368,2025-06-05T16:06:34.121759
952,-0.4997,0.7784,0.3192,3.045,-8.085,-3.955,2,1,1,369,383,2025-06-05T16:06:34.121759
953,-0.4992,0.7867,0.3226,2.940,-6.790,-4.025,2,1,1,369,389,2025-06-05T16:06:34.121759
954,-0.5056,0.7920,0.3216,3.115,-5.915,-3.990,2,2,1,371,396,2025-06-05T16:06:34.121759
955,-0.5158,0.7950,0.3206,2.730,-5.390,-4.095,1,1,1,385,388,2025-06-05T16:06:34.121759
956,-0.5231,0.7974,0.3211,2.380,-5.950,-3.955,1,1,1,397,397,2025-06-05T16:06:34.121759
957,-0.5290,0.7862,0.3231,1.855,-7.525,-3.115,1,2,1,384,384,2025-06-05T16:06:34.121759
958,-0.5305,0.7798,0.3343,1.645,-8.995,-2.275,2,1,1,390,392,2025-06-05T16:06:34.121759
959,-0.5300,0.7788,0.3377,1.400,-10.745,-0.910,1,1,2,394,401,2025-06-05T16:06:34.121759
960,-0.5212,0.7735,0.3328,1.435,-11.305,-0.280,1,2,1,403,400,2025-06-05T16:06:34.121759
961,-0.5124,0.7671,0.3201,1.330,-11.025,0.350,1,1,1,391,385,2025-06-05T16:06:34.121759
962,-0.5070,0.7584,0.3192,1.400,-10.430,0.735,1,1,1,399,377,2025-06-05T16:06:34.121759
963,-0.5041,0.7535,0.3201,1.540,-8.750,1.050,1,1,1,383,384,2025-06-05T16:06:34.121759
964,-0.5026,0.7535,0.3289,1.855,-7.665,1.295,2,1,1,384,384,2025-06-05T16:06:34.121759
965,-0.5017,0.7544,0.3284,2.240,-6.335,1.575,2,2,1,383,387,2025-06-05T16:06:34.121759
966,-0.5022,0.7569,0.3274,2.415,-5.600,1.680,2,1,1,384,384,2025-06-05T16:06:34.121759
967,-0.5007,0.7584,0.3226,2.555,-5.565,1.680,1,2,1,392,382,2025-06-05T16:06:34.121759
968,-0.4968,0.7603,0.3250,2.485,-5.390,1.925,1,2,1,380,386,2025-06-05T16:06:34.121759
969,-0.4987,0.7608,0.3299,2.065,-5.565,1.995,1,2,1,382,381,2025-06-05T16:06:34.121759
970,-0.4987,0.7637,0.3299,1.820,-5.775,1.925,1,1,1,391,378,2025-06-05T16:06:34.121759
971,-0.5007,0.7637,0.3348,1.715,-6.335,1.960,1,1,1,393,390,2025-06-05T16:06:34.121759
972,-0.3762,0.7618,0.3304,1.540,-6.615,1.750,1,1,1,390,354,2025-06-05T16:06:34.121759
973,-0.4968,0.7623,0.3260,1.330,-6.580,1.435,1,1,1,393,338,2025-06-05T16:06:34.121759
974,-0.4982,0.7598,0.3279,1.155,-5.915,1.190,1,1,1,388,328,2025-06-05T16:06:34.121759
975,-0.4997,0.7584,0.3362,1.085,-5.495,0.945,1,2,1,379,360,2025-06-05T16:06:34.121759
976,-0.5070,0.7471,0.3406,0.840,-5.530,1.120,1,2,1,396,385,2025-06-05T16:06:34.121759
977,-0.5061,0.7452,0.3396,1.120,-5.705,1.330,1,1,1,353,372,2025-06-05T16:06:34.121759
978,-0.5046,0.7481,0.3367,0.980,-6.020,1.540,1,1,1,384,346,2025-06-05T16:06:34.121759
979,-0.4963,0.7505,0.3338,1.190,-5.565,1.365,2,2,1,383,359,2025-06-05T16:06:34.284767
980,-0.4963,0.7544,0.3333,1.295,-4.830,0.735,2,1,2,381,375,2025-06-05T16:06:34.284767
981,-0.4987,0.7588,0.3309,1.190,-4.375,0.105,1,1,1,390,389,2025-06-05T16:06:34.284767
982,-0.5119,0.7603,0.3357,1.365,-4.795,-0.420,1,1,2,382,389,2025-06-05T16:06:34.285757
983,-0.5158,0.7637,0.3401,1.365,-5.775,-0.700,1,1,1,375,379,2025-06-05T16:06:34.285757
984,-0.5080,0.7637,0.3411,1.085,-7.035,-0.665,1,1,1,369,387,2025-06-05T16:06:34.285757
985,-0.5036,0.7647,0.3357,0.980,-7.735,-0.595,1,1,1,370,379,2025-06-05T16:06:34.285757
986,-0.5075,0.7647,0.3387,0.700,-7.735,-0.875,1,2,1,384,357,2025-06-05T16:06:34.286246
987,-0.5056,0.7671,0.3450,0.455,-7.420,-1.225,1,1,1,373,375,2025-06-05T16:06:34.286246
988,-0.5070,0.7676,0.3465,0.280,-7.315,-1.400,2,1,1,389,391,2025-06-05T16:06:34.286246
989,-0.5080,0.7730,0.3440,0.140,-7.035,-1.400,1,1,1,400,395,2025-06-05T16:06:34.286246
990,-0.5168,0.7666,0.3406,-0.315,-7.385,-1.260,1,1,1,387,395,2025-06-05T16:06:34.286246
991,-0.5241,0.7618,0.3392,-0.490,-8.050,-1.085,1,2,1,397,394,2025-06-05T16:06:34.286752
992,-0.5246,0.7618,0.3421,-0.630,-8.575,-0.840,1,1,0,368,394,2025-06-05T16:06:34.286752
993,-0.5236,0.7623,0.3494,-0.665,-8.995,-0.700,2,1,2,382,397,2025-06-05T16:06:34.286752
994,-0.5285,0.7598,0.3455,-0.630,-9.205,-0.630,1,2,1,391,393,2025-06-05T16:06:34.286752
995,-0.5256,0.7564,0.3416,-0.700,-9.135,-0.455,1,1,1,383,395,2025-06-05T16:06:34.286752
996,-0.5246,0.7544,0.3411,-0.560,-9.380,-0.070,2,2,1,382,403,2025-06-05T16:06:34.286752
997,-0.5256,0.7540,0.3460,-0.560,-9.275,0.035,2,1,1,380,394,2025-06-05T16:06:34.488655
998,-0.5261,0.7535,0.3475,-0.455,-8.960,-0.070,2,2,1,391,393,2025-06-05T16:06:34.488655
999,-0.5290,0.7530,0.3518,-0.455,-8.960,-0.105,2,2,1,348,397,2025-06-05T16:06:34.488655
1000,-0.5290,0.7515,0.3538,-0.245,-9.310,-0.210,2,1,1,362,371,2025-06-05T16:06:34.488655
1001,-0.5290,0.7515,0.3484,-0.035,-9.625,-0.280,1,2,2,367,384,2025-06-05T16:06:34.488655
1002,-0.5270,0.7486,0.3465,-0.175,-10.010,-0.315,1,2,1,381,353,2025-06-05T16:06:34.488655
1003,-0.5256,0.7442,0.3445,-0.140,-10.640,-0.210,1,1,1,381,377,2025-06-05T16:06:34.488655
1004,-0.5241,0.7398,0.3475,-0.070,-11.235,-0.385,1,1,1,392,393,2025-06-05T16:06:34.488655
1005,-0.5158,0.7344,0.3494,0.140,-11.585,-0.770,1,1,1,379,399,2025-06-05T16:06:34.488655
1006,-0.5080,0.7276,0.3479,0.490,-11.270,-0.875,1,2,1,382,365,2025-06-05T16:06:34.489648
1007,-0.5017,0.7271,0.3401,0.875,-10.535,-1.225,2,1,1,388,382,2025-06-05T16:06:34.489648
1008,-0.4919,0.7330,0.3357,1.015,-8.925,-1.645,1,0,1,382,394,2025-06-05T16:06:34.489648
1009,-0.4987,0.7349,0.3289,0.980,-7.210,-2.730,2,2,0,359,388,2025-06-05T16:06:34.489648
1010,-0.5168,0.7364,0.3279,1.120,-6.300,-3.955,2,1,1,384,357,2025-06-05T16:06:34.489648
1011,-0.5300,0.7310,0.3294,0.805,-6.720,-5.215,2,1,1,387,371,2025-06-05T16:06:34.489648
1012,-0.5344,0.7257,0.3274,0.735,-7.840,-5.670,1,1,2,401,381,2025-06-05T16:06:34.489648
1013,-0.5431,0.7242,0.3284,0.665,-8.995,-6.055,1,1,2,401,385,2025-06-05T16:06:34.489648
1014,-0.5388,0.7291,0.3289,0.385,-9.660,-6.125,1,2,1,389,385,2025-06-05T16:06:34.489648
1015,-0.5378,0.7320,0.3274,-0.035,-9.905,-6.090,2,2,1,398,380,2025-06-05T16:06:34.489648
1016,-0.5392,0.7354,0.3314,-0.420,-9.975,-5.740,2,1,1,399,392,2025-06-05T16:06:34.685572
1017,-0.5466,0.7291,0.3387,-1.015,-10.570,-4.935,1,2,1,392,383,2025-06-05T16:06:34.685572
1018,-0.5514,0.7222,0.3445,-1.295,-11.305,-3.745,2,1,1,379,394,2025-06-05T16:06:34.685572
1019,-0.5510,0.7266,0.3518,-1.330,-12.215,-2.380,2,2,1,386,357,2025-06-05T16:06:34.685572
1020,-0.5466,0.7315,0.3489,-1.260,-12.600,-1.645,1,2,1,342,346,2025-06-05T16:06:34.685572
1021,-0.5388,0.7344,0.3450,-1.225,-12.005,-1.540,2,1,1,366,376,2025-06-05T16:06:34.685572
1022,-0.5290,0.7408,0.3494,-1.190,-11.025,-1.785,1,0,1,368,354,2025-06-05T16:06:34.685572
1023,-0.5305,0.7525,0.3562,-1.015,-10.080,-2.030,1,1,1,376,342,2025-06-05T16:06:34.685572
1024,-0.5314,0.7559,0.3680,-0.735,-9.870,-2.065,1,1,1,372,344,2025-06-05T16:06:34.685572
1025,-0.5314,0.7642,0.3699,-0.700,-9.835,-2.065,1,1,1,339,366,2025-06-05T16:06:34.685572
1026,-0.5285,0.7623,0.3748,-0.770,-10.150,-1.855,1,1,1,358,385,2025-06-05T16:06:34.685572
1027,-0.5251,0.7642,0.3836,-0.875,-10.675,-1.505,1,1,1,381,390,2025-06-05T16:06:34.685572
1028,-0.5231,0.7647,0.3855,-1.225,-10.815,-0.980,0,1,1,395,392,2025-06-05T16:06:34.685572
1029,-0.5261,0.7593,0.3831,-1.260,-11.165,-0.525,1,1,1,399,387,2025-06-05T16:06:34.685572
1030,-0.5300,0.7588,0.3748,-1.295,-11.795,-0.210,1,1,1,355,385,2025-06-05T16:06:34.685572
1031,-0.5295,0.7574,0.3655,-1.190,-12.495,0.035,1,2,2,378,358,2025-06-05T16:06:34.685572
1032,-0.5261,0.7515,0.3631,-0.700,-13.160,0.350,2,2,2,383,377,2025-06-05T16:06:34.685572
1033,-0.5207,0.7471,0.3606,-0.420,-13.510,0.595,1,1,1,388,377,2025-06-05T16:06:34.853127
1034,-0.5202,0.7432,0.3567,0.035,-13.265,0.665,1,1,1,389,376,2025-06-05T16:06:34.853127
1035,-0.5134,0.7432,0.3528,0.595,-12.705,0.735,2,2,2,383,344,2025-06-05T16:06:34.853127
1036,-0.5124,0.7408,0.3479,1.050,-11.830,0.735,1,1,1,374,373,2025-06-05T16:06:34.853127
1037,-0.5070,0.7442,0.3431,1.295,-10.780,0.770,1,1,1,379,388,2025-06-05T16:06:34.853127
1038,-0.5046,0.7471,0.3362,1.260,-10.080,0.665,1,1,0,353,387,2025-06-05T16:06:34.853127
1039,-0.5065,0.7398,0.3245,1.015,-9.485,0.315,1,1,1,376,349,2025-06-05T16:06:34.853127
1040,-0.5095,0.7408,0.3201,0.770,-9.135,-0.175,1,1,1,378,369,2025-06-05T16:06:34.853127
1041,-0.5119,0.7393,0.3231,0.175,-9.100,-0.805,2,2,1,385,384,2025-06-05T16:06:34.853127
1042,-0.5134,0.7418,0.3260,-0.035,-9.765,-1.365,1,1,0,352,381,2025-06-05T16:06:34.853127
1043,-0.5095,0.7418,0.3289,-0.595,-10.255,-1.575,2,1,1,365,346,2025-06-05T16:06:34.853127
1044,-0.5158,0.7325,0.3192,-0.980,-10.955,-1.715,1,2,2,368,364,2025-06-05T16:06:34.853127
1045,-0.5070,0.7340,0.3182,-1.330,-11.375,-1.925,1,1,1,376,341,2025-06-05T16:06:34.853127
1046,-0.5065,0.7281,0.3211,-1.680,-11.060,-2.135,1,2,2,374,370,2025-06-05T16:06:34.853127
1047,-0.5007,0.7305,0.3304,-1.960,-10.115,-2.625,1,0,1,393,377,2025-06-05T16:06:34.853127
1048,-0.4943,0.7364,0.3401,-2.100,-8.540,-3.290,1,1,1,354,375,2025-06-05T16:06:34.963352
1049,-0.5012,0.7383,0.3396,-2.310,-7.385,-3.640,2,1,1,376,346,2025-06-05T16:06:34.963352
1050,-0.5022,0.7427,0.3367,-2.660,-7.210,-4.130,2,1,2,385,374,2025-06-05T16:06:34.963352
1051,-0.5090,0.7457,0.3304,-2.695,-7.980,-4.305,1,2,1,348,348,2025-06-05T16:06:34.963352
1052,-0.5026,0.7520,0.3314,-2.590,-8.890,-4.375,1,1,1,359,370,2025-06-05T16:06:34.963352
1053,-0.4992,0.7574,0.3357,-2.520,-9.660,-4.655,1,2,1,379,387,2025-06-05T16:06:34.964071
1054,-0.4963,0.7608,0.3362,-2.415,-9.730,-5.320,1,2,1,384,398,2025-06-05T16:06:34.964071
1055,-0.5031,0.7623,0.3426,-2.135,-9.800,-5.845,1,1,1,392,384,2025-06-05T16:06:34.964071
1056,-0.5104,0.7608,0.3455,-1.890,-10.535,-6.125,1,1,2,383,377,2025-06-05T16:06:35.096431
1057,-0.5119,0.7623,0.3421,-1.505,-11.550,-6.160,1,2,2,381,385,2025-06-05T16:06:35.096431
1058,-0.5070,0.7647,0.3426,-1.260,-11.935,-6.265,1,1,1,385,394,2025-06-05T16:06:35.096431
1059,-0.5026,0.7647,0.3426,-1.015,-11.865,-6.160,1,1,1,384,398,2025-06-05T16:06:35.096431
1060,-0.4997,0.7623,0.3406,-1.085,-11.340,-5.915,1,2,1,397,398,2025-06-05T16:06:35.096431
1061,-0.5002,0.7603,0.3387,-1.085,-10.465,-5.775,2,2,1,397,392,2025-06-05T16:06:35.096431
1062,-0.5046,0.7574,0.3343,-1.260,-9.765,-5.425,1,1,1,384,365,2025-06-05T16:06:35.096431
1063,-0.5070,0.7462,0.3416,-0.560,-10.185,-4.795,1,0,1,376,384,2025-06-05T16:06:35.096431
1064,-0.5012,0.7632,0.3401,-0.455,-9.975,-4.445,1,2,1,377,380,2025-06-05T16:06:35.096431
1065,-0.4895,0.7623,0.3382,0.245,-8.820,-4.795,2,1,1,378,395,2025-06-05T16:06:35.365471
1066,-0.5041,0.7710,0.3362,0.665,-7.665,-5.635,2,1,2,383,397,2025-06-05T16:06:35.365471
1067,-0.5085,0.7715,0.3304,0.840,-6.335,-6.930,1,2,1,380,390,2025-06-05T16:06:35.365471
1068,-0.5368,0.7637,0.3245,0.805,-7.140,-7.140,2,2,1,395,387,2025-06-05T16:06:35.365471
1069,-0.5514,0.7510,0.3250,1.015,-9.730,-6.895,2,1,2,395,396,2025-06-05T16:06:35.365471
1070,-0.5461,0.7476,0.3348,1.330,-12.740,-5.950,1,2,1,384,400,2025-06-05T16:06:35.365471
1071,-0.5348,0.7471,0.3450,1.295,-13.650,-5.110,1,1,1,382,391,2025-06-05T16:06:35.366092
1072,-0.5158,0.7525,0.3548,1.435,-12.565,-4.620,1,2,1,378,389,2025-06-05T16:06:35.366092
1073,-0.5153,0.7549,0.3494,1.400,-10.885,-4.445,1,2,1,373,381,2025-06-05T16:06:35.366458
1074,-0.5202,0.7491,0.3455,1.260,-9.520,-4.270,1,2,1,384,347,2025-06-05T16:06:35.366458
1075,-0.5339,0.7457,0.3377,1.260,-9.520,-3.850,1,1,1,385,375,2025-06-05T16:06:35.366458
1076,-0.5363,0.7452,0.3367,1.610,-10.430,-3.290,2,2,2,389,377,2025-06-05T16:06:35.366458
1077,-0.5358,0.7422,0.3396,2.100,-11.235,-2.905,1,1,1,378,382,2025-06-05T16:06:35.366458
1078,-0.5290,0.7422,0.3362,2.730,-11.550,-2.800,2,0,1,344,374,2025-06-05T16:06:35.366458
1079,-0.5109,0.7447,0.3377,3.185,-10.850,-3.080,1,1,1,357,390,2025-06-05T16:06:35.366458
1080,-0.5031,0.7476,0.3411,3.150,-9.485,-3.465,1,1,1,332,387,2025-06-05T16:06:35.366458
1081,-0.5002,0.7554,0.3479,3.290,-8.435,-4.270,2,2,1,358,401,2025-06-05T16:06:35.366458
1082,-0.5056,0.7588,0.3470,2.835,-7.735,-5.040,2,1,1,365,359,2025-06-05T16:06:35.366458
1083,-0.5119,0.7588,0.3401,2.345,-8.155,-5.740,1,1,2,367,379,2025-06-05T16:06:35.366458
1084,-0.5197,0.7627,0.3392,2.135,-9.660,-6.230,2,1,2,375,384,2025-06-05T16:06:35.366458
1085,-0.5197,0.7598,0.3426,1.715,-11.270,-6.440,2,2,1,392,400,2025-06-05T16:06:35.366458
1086,-0.5148,0.7574,0.3484,1.295,-12.390,-6.720,2,2,1,396,326,2025-06-05T16:06:35.637041
1087,-0.5109,0.7530,0.3514,0.770,-13.055,-6.930,1,1,1,375,321,2025-06-05T16:06:35.637041
1088,-0.5148,0.7515,0.3528,0.035,-12.985,-7.770,1,1,1,370,364,2025-06-05T16:06:35.637041
1089,-0.5236,0.7559,0.3562,-0.245,-12.950,-8.610,2,1,1,388,384,2025-06-05T16:06:35.637041
1090,-0.5334,0.7520,0.3567,-0.455,-13.615,-9.380,2,2,1,388,352,2025-06-05T16:06:35.637041
1091,-0.5417,0.7515,0.3606,-0.700,-14.700,-9.905,1,1,2,387,374,2025-06-05T16:06:35.637041
1092,-0.5461,0.7437,0.3494,-0.700,-16.275,-9.870,1,0,1,385,383,2025-06-05T16:06:35.637041
1093,-0.5500,0.7354,0.3494,-0.420,-17.745,-9.660,1,1,1,392,382,2025-06-05T16:06:35.637041
1094,-0.5505,0.7340,0.3479,-0.350,-18.900,-9.205,1,1,1,389,376,2025-06-05T16:06:35.637041
1095,-0.5529,0.7310,0.3548,0.105,-19.075,-8.645,1,1,1,381,371,2025-06-05T16:06:35.637041
1096,-0.5544,0.7247,0.3597,0.770,-18.760,-7.875,1,1,1,381,385,2025-06-05T16:06:35.637041
1097,-0.5568,0.7213,0.3631,1.505,-18.235,-6.965,1,2,1,375,392,2025-06-05T16:06:35.637041
1098,-0.5607,0.7188,0.3675,2.450,-18.200,-5.670,2,1,1,392,358,2025-06-05T16:06:35.637041
1099,-0.5514,0.7188,0.3704,3.150,-17.500,-4.725,1,2,1,381,382,2025-06-05T16:06:35.637041
1100,-0.5446,0.7096,0.3606,3.395,-16.170,-4.165,1,1,1,388,394,2025-06-05T16:06:35.637041
1101,-0.5334,0.7125,0.3601,4.445,-14.420,-3.780,1,1,1,392,401,2025-06-05T16:06:35.829921
1102,-0.5222,0.7208,0.3533,4.235,-12.460,-3.710,1,1,1,387,389,2025-06-05T16:06:35.829921
1103,-0.5144,0.7261,0.3572,4.865,-10.185,-3.745,1,1,1,389,395,2025-06-05T16:06:35.829921
1104,-0.5309,0.7369,0.3616,4.550,-8.750,-3.990,1,2,1,392,402,2025-06-05T16:06:35.829921
1105,-0.5519,0.7379,0.3616,4.585,-9.170,-4.095,1,2,1,390,406,2025-06-05T16:06:35.829921
1106,-0.5661,0.7359,0.3631,4.515,-11.270,-3.780,1,2,1,388,363,2025-06-05T16:06:35.829921
1107,-0.5700,0.7320,0.3636,4.445,-13.895,-3.220,1,1,1,372,380,2025-06-05T16:06:35.829921
1108,-0.5622,0.7208,0.3670,4.340,-16.380,-2.520,1,2,1,371,391,2025-06-05T16:06:35.846023
1109,-0.5441,0.7227,0.3689,4.375,-16.905,-2.135,2,1,1,386,399,2025-06-05T16:06:35.846023
1110,-0.5290,0.7183,0.3636,4.305,-15.960,-2.345,2,1,2,396,404,2025-06-05T16:06:35.846023
1111,-0.5266,0.7164,0.3592,4.445,-13.790,-2.590,1,2,1,387,400,2025-06-05T16:06:35.846023
1112,-0.5270,0.7218,0.3601,4.760,-11.690,-3.045,1,2,1,390,369,2025-06-05T16:06:35.846023
1113,-0.5329,0.7213,0.3616,5.005,-10.465,-3.150,1,2,1,384,357,2025-06-05T16:06:35.846023
1114,-0.5422,0.7247,0.3670,5.250,-10.150,-2.835,1,1,1,375,370,2025-06-05T16:06:35.846023
1115,-0.5490,0.7291,0.3665,5.110,-10.675,-2.555,1,1,1,389,342,2025-06-05T16:06:35.846023
1116,-0.5500,0.7281,0.3640,5.110,-11.305,-2.275,1,2,1,389,377,2025-06-05T16:06:35.846023
1117,-0.5461,0.7247,0.3582,4.725,-12.390,-1.820,1,2,1,380,343,2025-06-05T16:06:35.846023
1118,-0.5422,0.7257,0.3562,4.690,-13.090,-1.155,1,1,1,389,328,2025-06-05T16:06:35.846023
1119,-0.5256,0.7310,0.3582,4.165,-12.845,-1.015,1,2,0,353,359,2025-06-05T16:06:35.846023
1120,-0.5163,0.7437,0.3582,3.955,-12.040,-1.470,1,2,1,336,302,2025-06-05T16:06:35.846023
1121,-0.5148,0.7481,0.3509,3.710,-10.605,-2.100,1,1,1,351,350,2025-06-05T16:06:35.846023
1122,-0.5153,0.7564,0.3396,3.745,-10.255,-2.800,2,2,0,344,371,2025-06-05T16:06:35.846023
1123,-0.5144,0.7676,0.3304,3.850,-10.325,-3.080,1,1,1,365,384,2025-06-05T16:06:35.846023
1124,-0.5192,0.7725,0.3333,3.955,-10.815,-2.975,2,1,2,382,383,2025-06-05T16:06:35.846023
1125,-0.5246,0.7759,0.3265,4.095,-11.970,-2.835,1,1,1,386,353,2025-06-05T16:06:35.846023
1126,-0.5231,0.7793,0.3206,4.340,-13.230,-2.625,1,1,1,377,364,2025-06-05T16:06:35.846023
1127,-0.5080,0.7867,0.3094,4.165,-13.440,-2.380,2,1,1,352,343,2025-06-05T16:06:35.846023
1128,-0.4982,0.7876,0.2967,4.095,-12.530,-2.205,1,1,1,367,353,2025-06-05T16:06:35.846023
1129,-0.4987,0.7876,0.2884,4.130,-11.270,-2.275,2,1,1,369,363,2025-06-05T16:06:35.846023
1130,-0.4987,0.7886,0.2786,3.920,-9.625,-2.380,1,1,1,387,384,2025-06-05T16:06:35.997652
1131,-0.5036,0.7847,0.2733,4.200,-8.400,-2.695,2,2,0,361,388,2025-06-05T16:06:35.997652
1132,-0.5061,0.7779,0.2713,4.095,-7.280,-2.800,2,1,1,368,391,2025-06-05T16:06:35.998669
1133,-0.5046,0.7730,0.2669,3.780,-6.510,-2.695,2,1,1,381,389,2025-06-05T16:06:35.998669
1134,-0.5031,0.7691,0.2674,3.220,-5.775,-2.730,2,2,1,372,366,2025-06-05T16:06:35.998669
1135,-0.5080,0.7706,0.2684,1.890,-5.005,-2.905,1,2,2,378,376,2025-06-05T16:06:35.998669
1136,-0.5109,0.7749,0.2762,0.560,-4.690,-3.080,1,1,1,356,344,2025-06-05T16:06:35.998669
1137,-0.5012,0.7803,0.2850,-0.560,-4.340,-3.255,1,1,1,375,375,2025-06-05T16:06:35.998669
1138,-0.5022,0.7803,0.2865,-1.505,-3.640,-2.975,1,1,1,390,389,2025-06-05T16:06:35.998669
1139,-0.5061,0.7735,0.2801,-2.625,-3.290,-2.940,1,1,1,392,392,2025-06-05T16:06:35.998669
1140,-0.5095,0.7686,0.2850,-3.500,-3.290,-2.555,1,1,2,400,366,2025-06-05T16:06:35.998669
1141,-0.5061,0.7710,0.2884,-4.200,-3.360,-1.925,1,1,1,394,383,2025-06-05T16:06:35.998669
1142,-0.5065,0.7657,0.2860,-4.445,-2.800,-1.330,1,1,1,401,376,2025-06-05T16:06:35.998669
1143,-0.5002,0.7637,0.2830,-4.725,-1.785,-1.015,2,2,1,387,390,2025-06-05T16:06:35.999661
1144,-0.5012,0.7647,0.2879,-4.690,-0.420,-0.665,1,1,1,395,387,2025-06-05T16:06:36.100646
1145,-0.5056,0.7603,0.2952,-4.550,0.770,-0.280,2,1,1,401,397,2025-06-05T16:06:36.100646
1146,-0.5139,0.7632,0.3040,-3.920,1.085,0.070,1,2,1,406,396,2025-06-05T16:06:36.100646
1147,-0.5187,0.7637,0.3104,-3.710,1.225,0.420,1,2,1,398,325,2025-06-05T16:06:36.100646
1148,-0.5217,0.7686,0.3177,-3.115,1.470,0.735,2,2,1,373,360,2025-06-05T16:06:36.100646
1149,-0.5231,0.7759,0.3196,-3.080,1.680,0.735,1,1,1,347,364,2025-06-05T16:06:36.101200
1150,-0.5324,0.7745,0.3314,-3.010,1.260,1.085,2,1,1,360,346,2025-06-05T16:06:36.101200
1151,-0.5339,0.7725,0.3416,-2.870,0.525,1.540,1,2,1,370,375,2025-06-05T16:06:36.101200
1152,-0.5397,0.7725,0.3523,-3.010,-0.385,2.415,2,2,1,383,344,2025-06-05T16:06:36.354195
1153,-0.5470,0.7735,0.3684,-2.835,-1.155,3.360,1,2,1,343,368,2025-06-05T16:06:36.354195
1154,-0.5495,0.7676,0.3704,-2.940,-2.135,4.200,2,2,1,362,347,2025-06-05T16:06:36.354195
1155,-0.5470,0.7691,0.3719,-2.975,-2.730,5.320,2,2,1,373,374,2025-06-05T16:06:36.354195
1156,-0.5549,0.7686,0.3802,-3.325,-2.520,6.195,2,2,1,384,355,2025-06-05T16:06:36.354195
1157,-0.5583,0.7613,0.3924,-3.185,-2.625,6.965,1,2,1,382,376,2025-06-05T16:06:36.354195
1158,-0.5656,0.7544,0.4046,-2.870,-3.325,7.805,1,2,1,375,392,2025-06-05T16:06:36.354195
1159,-0.5695,0.7598,0.4133,-2.380,-4.200,9.205,1,2,1,386,386,2025-06-05T16:06:36.354195
1160,-0.5822,0.7569,0.4128,-1.925,-4.585,10.220,1,1,1,374,391,2025-06-05T16:06:36.354195
1161,-0.5890,0.7462,0.4148,-1.540,-5.425,10.885,2,1,1,383,392,2025-06-05T16:06:36.354195
1162,-0.5988,0.7349,0.4138,-1.050,-6.195,11.550,1,2,1,380,401,2025-06-05T16:06:36.354195
1163,-0.6085,0.7076,0.4163,-0.315,-6.930,11.760,1,2,1,384,363,2025-06-05T16:06:36.355033
1164,-0.6076,0.6978,0.4329,1.050,-7.735,11.935,1,1,1,351,374,2025-06-05T16:06:36.355033
1165,-0.6090,0.6871,0.4333,2.415,-8.225,11.970,1,2,1,378,397,2025-06-05T16:06:36.355033
1166,-0.6090,0.6720,0.4338,3.430,-7.630,11.445,1,1,1,394,401,2025-06-05T16:06:36.355033
1167,-0.6105,0.6666,0.4387,4.515,-7.280,10.920,1,1,1,385,390,2025-06-05T16:06:36.355033
1168,-0.6051,0.6622,0.4465,5.495,-6.755,10.500,2,2,1,372,401,2025-06-05T16:06:36.355033
1169,-0.6002,0.6529,0.4548,6.405,-6.090,10.010,1,2,2,388,373,2025-06-05T16:06:36.495492
1170,-0.5817,0.6520,0.4558,7.210,-5.880,9.835,2,2,2,389,370,2025-06-05T16:06:36.495492
1171,-0.5627,0.6505,0.4607,7.630,-5.145,10.080,2,1,1,379,375,2025-06-05T16:06:36.496266
1172,-0.5529,0.6622,0.4631,8.085,-3.605,9.940,1,1,2,398,391,2025-06-05T16:06:36.496266
1173,-0.5510,0.6544,0.4568,7.700,-2.205,9.520,2,1,1,354,382,2025-06-05T16:06:36.496266
1174,-0.5607,0.6412,0.4563,7.595,-1.785,9.170,1,2,1,346,379,2025-06-05T16:06:36.496266
1175,-0.5729,0.6324,0.4616,7.070,-2.940,9.520,1,1,1,376,389,2025-06-05T16:06:36.496266
1176,-0.5763,0.6207,0.4709,6.685,-4.830,10.150,1,1,1,387,396,2025-06-05T16:06:36.496266
1177,-0.5758,0.6076,0.4787,6.160,-7.455,10.780,1,1,1,386,391,2025-06-05T16:06:36.496266
1178,-0.5690,0.5998,0.4758,5.670,-9.275,10.955,1,1,1,390,404,2025-06-05T16:06:36.496266
1179,-0.5607,0.5890,0.4695,5.040,-10.220,10.535,2,1,1,319,378,2025-06-05T16:06:36.496266
1180,-0.5544,0.5783,0.4695,4.655,-10.080,9.555,2,1,1,359,390,2025-06-05T16:06:36.496266
1181,-0.5510,0.5719,0.4695,4.340,-9.590,8.470,1,1,1,364,356,2025-06-05T16:06:36.496266
1182,-0.5446,0.5729,0.4768,4.515,-8.365,7.665,1,1,2,383,388,2025-06-05T16:06:36.496266
1183,-0.5344,0.5758,0.4831,4.235,-6.405,6.370,1,1,1,381,392,2025-06-05T16:06:36.496266
1184,-0.5329,0.5822,0.4841,4.200,-4.165,4.970,1,1,1,373,388,2025-06-05T16:06:36.496266
1185,-0.5270,0.5890,0.4860,3.710,-2.730,3.605,1,2,1,376,362,2025-06-05T16:06:36.641802
1186,-0.5319,0.5895,0.4856,2.940,-1.855,2.555,2,2,1,372,371,2025-06-05T16:06:36.641802
1187,-0.5241,0.6041,0.4802,2.275,-2.310,1.890,2,2,1,386,344,2025-06-05T16:06:36.641802
1188,-0.5139,0.6217,0.4768,1.050,-2.660,0.770,1,2,1,387,370,2025-06-05T16:06:36.641802
1189,-0.5129,0.6388,0.4734,-0.175,-2.835,-0.105,1,2,2,404,378,2025-06-05T16:06:36.641802
1190,-0.5153,0.6525,0.4685,-0.525,-3.745,-1.225,2,1,1,395,384,2025-06-05T16:06:36.641802
1191,-0.5217,0.6593,0.4685,-1.400,-4.865,-1.855,1,1,1,394,360,2025-06-05T16:06:36.641802
1192,-0.5261,0.6681,0.4738,-1.295,-6.650,-2.310,1,1,1,376,367,2025-06-05T16:06:36.641802
1193,-0.5241,0.6832,0.4758,-1.540,-8.120,-2.415,2,1,1,384,352,2025-06-05T16:06:36.641802
1194,-0.5295,0.6886,0.4802,-1.715,-8.680,-2.450,1,2,1,377,372,2025-06-05T16:06:36.641802
1195,-0.5334,0.6920,0.4787,-1.750,-8.820,-2.905,1,2,1,380,353,2025-06-05T16:06:36.641802
1196,-0.5388,0.6930,0.4763,-2.310,-8.505,-3.360,1,1,1,382,365,2025-06-05T16:06:36.641802
1197,-0.5495,0.6876,0.4748,-2.905,-8.435,-4.025,1,1,2,398,375,2025-06-05T16:06:36.982612
1198,-0.5617,0.6910,0.4821,-3.570,-8.820,-4.515,2,2,1,399,383,2025-06-05T16:06:36.982612
1199,-0.5739,0.7003,0.4880,-4.305,-9.660,-4.690,1,1,1,386,387,2025-06-05T16:06:36.982612
1200,-0.5832,0.7013,0.4900,-4.900,-10.815,-4.305,1,1,1,391,382,2025-06-05T16:06:36.982612
1201,-0.5866,0.7017,0.4778,-5.110,-12.915,-3.640,1,2,1,380,393,2025-06-05T16:06:36.982612
1202,-0.5817,0.6954,0.4690,-5.740,-14.805,-2.590,2,1,1,393,401,2025-06-05T16:06:36.982612
1203,-0.5651,0.6920,0.4616,-5.705,-15.575,-1.855,1,1,1,385,403,2025-06-05T16:06:36.982612
1204,-0.5495,0.6876,0.4582,-5.495,-15.470,-0.770,2,1,1,380,397,2025-06-05T16:06:36.982612
1205,-0.5383,0.6974,0.4548,-4.795,-14.490,-0.245,1,1,1,383,385,2025-06-05T16:06:36.982612
1206,-0.5261,0.7047,0.4382,-4.270,-12.250,-0.175,1,2,1,380,381,2025-06-05T16:06:36.982612
1207,-0.5275,0.7135,0.4192,-3.500,-9.835,-0.840,1,1,1,391,389,2025-06-05T16:06:36.982612
1208,-0.5451,0.7105,0.4031,-2.905,-9.275,-1.505,1,0,1,395,391,2025-06-05T16:06:36.982612
1209,-0.5578,0.7027,0.3953,-2.450,-10.290,-1.540,1,2,1,397,354,2025-06-05T16:06:36.982612
1210,-0.5563,0.6993,0.4046,-1.575,-13.230,-0.595,1,0,1,390,370,2025-06-05T16:06:36.982612
1211,-0.5378,0.6998,0.4075,-1.190,-15.155,0.630,1,2,1,399,371,2025-06-05T16:06:36.982612
1212,-0.5134,0.7105,0.4036,-1.190,-14.805,1.260,1,2,2,392,353,2025-06-05T16:06:36.982612
1213,-0.4929,0.7237,0.3977,-1.120,-13.055,1.540,1,2,1,385,363,2025-06-05T16:06:36.982612
1214,-0.4846,0.7271,0.3816,-1.645,-10.010,1.470,1,1,1,401,379,2025-06-05T16:06:36.982612
1215,-0.4958,0.7310,0.3753,-1.995,-7.875,0.910,2,1,1,396,348,2025-06-05T16:06:36.982612
1216,-0.5065,0.7354,0.3748,-2.240,-7.315,0.490,1,1,1,396,368,2025-06-05T16:06:36.982612
1217,-0.5153,0.7442,0.3767,-2.415,-7.805,0.350,2,1,1,379,382,2025-06-05T16:06:36.982612
1218,-0.5192,0.7457,0.3738,-2.625,-9.065,0.245,1,2,1,376,375,2025-06-05T16:06:36.982612
1219,-0.5158,0.7481,0.3704,-2.975,-10.185,-0.105,1,1,1,387,344,2025-06-05T16:06:37.174861
1220,-0.4992,0.7525,0.3665,-3.290,-10.325,-0.105,2,3,1,375,367,2025-06-05T16:06:37.174861
1221,-0.4778,0.7588,0.3611,-3.570,-9.485,0.175,2,2,1,382,372,2025-06-05T16:06:37.174861
1222,-0.4695,0.7588,0.3543,-4.165,-7.525,0.840,2,1,2,392,355,2025-06-05T16:06:37.174861
1223,-0.4704,0.7637,0.3567,-5.005,-5.950,1.225,1,1,1,391,383,2025-06-05T16:06:37.174861
1224,-0.4763,0.7647,0.3597,-5.985,-4.270,1.330,1,1,1,385,392,2025-06-05T16:06:37.174861
1225,-0.4792,0.7652,0.3636,-6.475,-3.010,1.540,2,2,2,400,349,2025-06-05T16:06:37.174861
1226,-0.4782,0.7642,0.3592,-6.580,-1.855,1.680,1,1,1,389,367,2025-06-05T16:06:37.174861
1227,-0.4797,0.7569,0.3460,-6.895,-0.910,1.610,1,1,1,397,339,2025-06-05T16:06:37.174861
1228,-0.4836,0.7559,0.3353,-6.860,-0.280,1.470,1,2,2,394,353,2025-06-05T16:06:37.174861
1229,-0.4787,0.7579,0.3299,-7.560,-0.175,1.610,1,1,1,368,378,2025-06-05T16:06:37.174861
1230,-0.4802,0.7632,0.3309,-8.400,-0.280,2.380,1,2,1,376,388,2025-06-05T16:06:37.174861
1231,-0.4778,0.7715,0.3299,-8.645,-0.385,2.870,2,1,1,388,355,2025-06-05T16:06:37.175925
1232,-0.4841,0.7896,0.3216,-8.680,-0.070,2.905,2,1,1,390,379,2025-06-05T16:06:37.175925
1233,-0.4953,0.7945,0.3060,-8.750,-0.035,2.030,1,1,1,398,390,2025-06-05T16:06:37.175925
1234,-0.5163,0.7940,0.2991,-8.295,-0.910,0.770,0,2,1,394,386,2025-06-05T16:06:37.175925
1235,-0.5305,0.7954,0.2987,-7.245,-2.800,-0.175,1,1,1,395,380,2025-06-05T16:06:37.175925
1236,-0.5251,0.7998,0.3084,-6.090,-4.445,-0.840,1,1,1,398,344,2025-06-05T16:06:37.175925
1237,-0.5197,0.8115,0.3021,-4.060,-5.005,-1.505,2,1,1,401,360,2025-06-05T16:06:37.175925
1238,-0.5002,0.8184,0.2904,-2.520,-4.025,-2.975,1,1,1,392,332,2025-06-05T16:06:37.175925
1239,-0.4934,0.8233,0.2826,-0.805,-1.925,-4.515,1,2,2,391,364,2025-06-05T16:06:37.175925
1240,-0.4958,0.8296,0.2889,0.385,-0.455,-5.495,2,1,2,385,361,2025-06-05T16:06:37.175925
1241,-0.5041,0.8330,0.2923,1.960,-0.245,-5.390,2,1,1,379,380,2025-06-05T16:06:37.175925
1242,-0.5158,0.8359,0.2938,3.395,-1.085,-4.795,2,1,1,377,386,2025-06-05T16:06:37.344276
1243,-0.5163,0.8316,0.2928,3.990,-2.730,-3.325,1,2,2,375,387,2025-06-05T16:06:37.344276
1244,-0.5056,0.8252,0.2913,4.375,-4.515,-1.750,1,1,1,377,395,2025-06-05T16:06:37.344276
1245,-0.4992,0.8081,0.2913,4.095,-5.915,0.000,2,2,1,374,390,2025-06-05T16:06:37.344276
1246,-0.4929,0.7935,0.2948,4.200,-6.755,2.100,1,2,1,387,385,2025-06-05T16:06:37.344276
1247,-0.4909,0.7925,0.2952,4.270,-7.910,3.605,2,1,2,383,351,2025-06-05T16:06:37.344276
1248,-0.4934,0.7847,0.2904,4.795,-9.275,5.075,2,1,2,391,383,2025-06-05T16:06:37.344276
1249,-0.5075,0.7730,0.2762,5.250,-10.955,5.985,2,1,1,387,369,2025-06-05T16:06:37.344276
1250,-0.5168,0.7632,0.2713,6.265,-12.880,6.335,1,1,1,392,376,2025-06-05T16:06:37.344276
1251,-0.5192,0.7588,0.2772,7.455,-15.400,6.510,1,1,1,401,380,2025-06-05T16:06:37.622584
1252,-0.5202,0.7520,0.2835,8.995,-17.360,6.650,1,1,1,400,384,2025-06-05T16:06:37.622584
1253,-0.5168,0.7466,0.2889,10.395,-18.760,6.440,1,1,1,391,388,2025-06-05T16:06:37.622584
1254,-0.5139,0.7408,0.2957,11.270,-19.670,6.195,2,2,2,393,399,2025-06-05T16:06:37.622584
1255,-0.5129,0.7383,0.3060,12.600,-20.230,6.090,2,2,1,353,385,2025-06-05T16:06:37.622584
1256,-0.5046,0.7393,0.3079,13.860,-20.895,6.335,1,2,2,375,387,2025-06-05T16:06:37.622584
1257,-0.4924,0.7481,0.3006,14.875,-20.860,6.545,1,2,2,387,400,2025-06-05T16:06:37.622584
1258,-0.4724,0.7535,0.2991,15.575,-19.425,6.475,1,2,2,385,403,2025-06-05T16:06:37.622584
1259,-0.4597,0.7666,0.2991,15.715,-16.870,5.600,2,1,1,394,393,2025-06-05T16:06:37.622584
1260,-0.4621,0.7813,0.3060,15.680,-14.560,4.270,1,2,1,399,388,2025-06-05T16:06:37.622584
1261,-0.4714,0.7959,0.3118,15.435,-12.565,3.010,0,1,1,392,390,2025-06-05T16:06:37.622584
1262,-0.4895,0.8052,0.3152,15.015,-12.740,1.750,1,1,1,393,381,2025-06-05T16:06:37.622584
1263,-0.4973,0.8096,0.3143,14.245,-14.770,0.840,1,1,0,366,392,2025-06-05T16:06:37.622584
1264,-0.4914,0.8174,0.3172,13.405,-16.940,0.490,1,2,1,376,322,2025-06-05T16:06:37.622584
1265,-0.4690,0.8111,0.3235,12.040,-17.815,0.280,1,1,1,370,370,2025-06-05T16:06:37.622584
1266,-0.4514,0.8081,0.3362,10.430,-17.220,0.245,0,2,2,396,376,2025-06-05T16:06:37.622584
1267,-0.4353,0.8037,0.3406,8.365,-15.505,0.420,1,1,1,361,378,2025-06-05T16:06:37.622584
1268,-0.4324,0.7998,0.3455,6.790,-14.140,1.120,0,1,1,372,318,2025-06-05T16:06:37.622584
1269,-0.4446,0.8047,0.3411,5.495,-13.825,2.065,1,1,1,368,316,2025-06-05T16:06:37.622584
1270,-0.4597,0.8067,0.3460,4.305,-14.735,2.975,1,1,1,373,346,2025-06-05T16:06:37.622584
1271,-0.4743,0.8076,0.3421,3.920,-17.010,3.395,1,2,1,380,332,2025-06-05T16:06:37.622584
1272,-0.4885,0.8023,0.3357,4.025,-19.705,3.255,1,1,1,388,367,2025-06-05T16:06:37.622584
1273,-0.4787,0.7925,0.3353,4.620,-21.700,3.290,2,2,1,390,350,2025-06-05T16:06:37.797711
1274,-0.4758,0.7740,0.3343,5.320,-22.365,3.220,2,2,1,394,375,2025-06-05T16:06:37.797711
1275,-0.4758,0.7623,0.3392,6.475,-22.015,2.800,2,2,1,402,348,2025-06-05T16:06:37.797711
1276,-0.4734,0.7569,0.3528,7.805,-20.510,2.380,1,2,2,396,369,2025-06-05T16:06:37.797711
1277,-0.4675,0.7525,0.3543,9.030,-18.445,1.750,2,2,2,397,378,2025-06-05T16:06:37.798729
1278,-0.4665,0.7525,0.3582,9.800,-16.380,1.365,2,1,1,398,377,2025-06-05T16:06:37.798729
1279,-0.4670,0.7574,0.3528,10.500,-14.875,1.155,1,1,1,364,345,2025-06-05T16:06:37.798729
1280,-0.4665,0.7647,0.3533,10.920,-13.335,1.050,1,2,1,374,382,2025-06-05T16:06:37.798729
1281,-0.4690,0.7691,0.3509,10.605,-12.985,1.050,2,1,1,345,378,2025-06-05T16:06:37.798729
1282,-0.4714,0.7725,0.3533,10.255,-13.615,1.190,1,1,1,367,378,2025-06-05T16:06:37.798729
1283,-0.4651,0.7754,0.3548,9.520,-14.455,1.610,2,1,1,376,344,2025-06-05T16:06:37.798729
1284,-0.4656,0.7720,0.3553,8.715,-15.085,1.785,1,2,1,372,331,2025-06-05T16:06:37.799720
1285,-0.4577,0.7720,0.3621,8.190,-15.330,1.680,1,1,1,366,352,2025-06-05T16:06:37.799720
1286,-0.4534,0.7706,0.3640,7.525,-14.980,0.945,1,1,1,376,376,2025-06-05T16:06:37.799720
1287,-0.4514,0.7701,0.3592,7.175,-14.630,-0.105,1,1,0,356,389,2025-06-05T16:06:37.799720
1288,-0.4480,0.7686,0.3558,6.615,-14.035,-1.295,1,1,1,379,394,2025-06-05T16:06:37.799720
1289,-0.4494,0.7666,0.3562,5.880,-13.895,-2.275,2,2,1,394,352,2025-06-05T16:06:37.927079
1290,-0.4407,0.7715,0.3670,5.075,-14.140,-2.835,2,1,2,387,364,2025-06-05T16:06:37.927079
1291,-0.4441,0.7730,0.3772,4.515,-13.965,-3.150,2,2,2,396,336,2025-06-05T16:06:37.927079
1292,-0.4529,0.7759,0.3806,3.675,-14.175,-3.745,2,2,2,391,356,2025-06-05T16:06:37.927079
1293,-0.4538,0.7793,0.3709,3.080,-15.260,-3.990,1,1,1,383,370,2025-06-05T16:06:37.927079
1294,-0.4577,0.7832,0.3660,2.485,-15.890,-4.130,1,2,1,390,377,2025-06-05T16:06:37.927079
1295,-0.4573,0.7779,0.3684,2.100,-16.275,-4.270,1,2,1,401,384,2025-06-05T16:06:37.927079
1296,-0.4592,0.7749,0.3640,1.680,-16.135,-4.550,2,2,1,381,389,2025-06-05T16:06:37.927079
1297,-0.4475,0.7715,0.3723,1.820,-14.735,-4.900,2,1,1,373,380,2025-06-05T16:06:37.927842
1298,-0.4558,0.7774,0.3689,1.540,-13.125,-5.285,2,1,1,380,392,2025-06-05T16:06:37.927842
1299,-0.4577,0.7754,0.3645,1.505,-12.110,-5.495,1,1,1,386,400,2025-06-05T16:06:37.927842
1300,-0.4680,0.7793,0.3719,1.120,-11.620,-5.250,1,1,1,380,401,2025-06-05T16:06:37.927842
1301,-0.4704,0.7710,0.3728,0.770,-11.515,-4.480,1,2,2,393,403,2025-06-05T16:06:37.927842
1302,-0.4641,0.7706,0.3767,0.315,-11.340,-3.430,2,2,2,389,387,2025-06-05T16:06:37.927842
1303,-0.4621,0.7725,0.3787,-0.385,-10.745,-2.555,1,2,1,376,388,2025-06-05T16:06:37.927842
1304,-0.4587,0.7745,0.3797,-0.910,-9.380,-2.380,1,1,2,377,391,2025-06-05T16:06:37.927842
1305,-0.4621,0.7769,0.3743,-1.715,-8.190,-2.660,1,1,1,382,395,2025-06-05T16:06:37.927842
1306,-0.4656,0.7764,0.3709,-2.170,-7.840,-2.835,2,2,2,392,406,2025-06-05T16:06:38.167608
1307,-0.4802,0.7749,0.3699,-2.555,-8.645,-2.695,1,2,1,395,407,2025-06-05T16:06:38.167608
1308,-0.4802,0.7691,0.3728,-2.590,-9.835,-2.275,1,2,1,384,327,2025-06-05T16:06:38.167608
1309,-0.4763,0.7627,0.3792,-2.625,-10.990,-1.890,1,2,1,371,363,2025-06-05T16:06:38.167608
1310,-0.4675,0.7613,0.3889,-2.695,-10.815,-1.645,2,2,2,396,386,2025-06-05T16:06:38.167608
1311,-0.4568,0.7569,0.3875,-2.590,-9.380,-1.750,2,1,1,394,388,2025-06-05T16:06:38.167608
1312,-0.4480,0.7564,0.3845,-2.660,-7.665,-1.785,1,1,1,401,397,2025-06-05T16:06:38.168239
1313,-0.4538,0.7505,0.3738,-2.765,-5.950,-2.065,1,2,0,353,346,2025-06-05T16:06:38.168239
1314,-0.4616,0.7515,0.3640,-2.450,-5.250,-2.205,1,2,1,372,329,2025-06-05T16:06:38.168239
1315,-0.4709,0.7515,0.3675,-2.555,-5.845,-2.415,1,1,1,383,360,2025-06-05T16:06:38.168239
1316,-0.4734,0.7540,0.3767,-2.170,-6.895,-2.660,1,2,2,395,384,2025-06-05T16:06:38.168239
1317,-0.4758,0.7544,0.3821,-2.030,-7.595,-3.360,1,1,1,395,388,2025-06-05T16:06:38.168239
1318,-0.4724,0.7540,0.3782,-1.575,-7.840,-3.850,2,1,1,322,386,2025-06-05T16:06:38.168869
1319,-0.4651,0.7559,0.3743,-1.750,-7.595,-4.270,1,1,1,360,324,2025-06-05T16:06:38.168869
1320,-0.4665,0.7476,0.3689,-2.100,-7.280,-4.515,1,1,1,373,353,2025-06-05T16:06:38.168869
1321,-0.4690,0.7437,0.3758,-1.925,-7.105,-4.165,1,1,1,386,384,2025-06-05T16:06:38.168869
1322,-0.4729,0.7383,0.3860,-2.135,-6.720,-3.640,1,1,1,379,392,2025-06-05T16:06:38.169237
1323,-0.4734,0.7374,0.3831,-1.890,-6.370,-3.395,1,2,1,374,356,2025-06-05T16:06:38.169237
1324,-0.4792,0.7364,0.3787,-1.750,-5.635,-3.640,1,1,1,377,338,2025-06-05T16:06:38.169237
1325,-0.4865,0.7422,0.3743,-1.610,-4.935,-4.445,2,1,2,386,359,2025-06-05T16:06:38.443890
1326,-0.4978,0.7442,0.3699,-1.435,-4.585,-5.075,2,2,1,388,385,2025-06-05T16:06:38.443890
1327,-0.5109,0.7359,0.3762,-1.260,-5.705,-5.215,2,1,1,391,375,2025-06-05T16:06:38.443890
1328,-0.5075,0.7291,0.3841,-1.365,-7.630,-4.725,1,2,1,394,349,2025-06-05T16:06:38.443890
1329,-0.4865,0.7242,0.3928,-1.190,-8.365,-3.780,2,1,1,386,359,2025-06-05T16:06:38.443890
1330,-0.4538,0.7349,0.3967,-1.190,-7.210,-3.115,2,1,1,378,331,2025-06-05T16:06:38.443890
1331,-0.4446,0.7476,0.3880,-1.155,-4.095,-3.465,2,1,1,382,326,2025-06-05T16:06:38.443890
1332,-0.4519,0.7593,0.3831,-1.085,-0.945,-4.585,1,1,1,382,367,2025-06-05T16:06:38.443890
1333,-0.4734,0.7696,0.3802,-1.330,0.455,-5.705,1,1,1,392,372,2025-06-05T16:06:38.443890
1334,-0.5022,0.7715,0.3850,-0.840,-0.875,-5.880,1,1,1,389,380,2025-06-05T16:06:38.443890
1335,-0.5124,0.7686,0.3884,-0.560,-4.340,-5.460,1,1,1,396,380,2025-06-05T16:06:38.443890
1336,-0.5129,0.7681,0.3904,-0.350,-8.050,-4.725,1,1,1,382,389,2025-06-05T16:06:38.443890
1337,-0.4924,0.7671,0.3880,-0.175,-10.220,-4.270,1,2,1,382,392,2025-06-05T16:06:38.443890
1338,-0.4748,0.7754,0.3865,-0.350,-9.555,-4.445,1,1,1,383,376,2025-06-05T16:06:38.443890
1339,-0.4699,0.7832,0.3875,-0.560,-7.805,-4.830,1,2,2,347,373,2025-06-05T16:06:38.443890
1340,-0.4797,0.7876,0.3841,-0.490,-6.020,-5.110,1,2,1,368,375,2025-06-05T16:06:38.443890
1341,-0.5031,0.7862,0.3748,-0.665,-5.915,-5.180,2,2,2,369,374,2025-06-05T16:06:38.543904
1342,-0.5236,0.7847,0.3694,-0.595,-7.700,-4.830,2,2,1,377,384,2025-06-05T16:06:38.543904
1343,-0.5222,0.7725,0.3704,-0.910,-10.185,-3.780,1,2,2,386,380,2025-06-05T16:06:38.543904
1344,-0.5036,0.7720,0.3748,-1.190,-11.235,-2.730,2,1,2,386,378,2025-06-05T16:06:38.543904
1345,-0.4982,0.7681,0.3797,-1.750,-10.955,-1.855,2,2,1,348,382,2025-06-05T16:06:38.543904
1346,-0.4943,0.7662,0.3811,-2.205,-9.625,-1.575,1,1,2,377,389,2025-06-05T16:06:38.543904
1347,-0.4982,0.7618,0.3738,-2.800,-8.505,-1.120,1,1,2,394,401,2025-06-05T16:06:38.543904
1348,-0.5080,0.7437,0.3645,-2.940,-8.365,-0.210,2,1,1,387,399,2025-06-05T16:06:38.543904
1349,-0.4963,0.7374,0.3650,-3.045,-8.470,0.770,1,1,1,386,398,2025-06-05T16:06:38.543904
1350,-0.4841,0.7227,0.3689,-3.290,-7.980,1.505,1,1,1,378,395,2025-06-05T16:06:38.543904
1351,-0.4709,0.7178,0.3704,-3.115,-6.650,1.890,1,1,0,346,389,2025-06-05T16:06:38.544969
1352,-0.4582,0.7193,0.3772,-3.115,-4.270,1.365,1,1,1,359,388,2025-06-05T16:06:38.544969
1353,-0.4602,0.7286,0.3797,-2.940,-2.100,0.280,1,1,1,379,378,2025-06-05T16:06:38.544969
1354,-0.4656,0.7344,0.3806,-2.695,-1.190,-0.875,1,0,1,368,390,2025-06-05T16:06:38.544969
1355,-0.4690,0.7379,0.3758,-2.380,-1.785,-1.995,1,1,1,380,403,2025-06-05T16:06:38.544969
1356,-0.4690,0.7383,0.3675,-1.960,-3.115,-2.975,1,1,2,391,397,2025-06-05T16:06:38.544969
1357,-0.4656,0.7320,0.3709,-1.680,-4.585,-4.060,1,1,1,388,395,2025-06-05T16:06:38.544969
1358,-0.4558,0.7359,0.3758,-1.120,-5.705,-5.040,2,2,1,346,395,2025-06-05T16:06:38.783582
1359,-0.4548,0.7442,0.3826,-0.630,-5.880,-6.160,2,1,1,379,360,2025-06-05T16:06:38.783582
1360,-0.4612,0.8735,0.3782,-0.280,-5.460,-7.420,1,1,1,372,375,2025-06-05T16:06:38.783582
1361,-0.4709,0.7618,0.3743,-0.420,-5.425,-9.380,1,2,1,387,380,2025-06-05T16:06:38.783582
