SeqNum,AccX,AccY,AccZ,GyroX,GyroY,GyroZ,Flex,Force1,Force2,Force3,Force4,TimestampReception
27627,-0.4978,0.7584,0.3421,0.280,-7.105,0.350,1,2,1,349,338,2025-06-05T16:18:53.441922
27628,-0.4958,0.7627,0.3416,0.980,-6.895,0.210,1,2,1,379,351,2025-06-05T16:18:53.442919
27629,-0.5017,0.7569,0.3377,1.085,-6.370,0.000,1,2,1,375,333,2025-06-05T16:18:53.442919
27630,-0.5095,0.7549,0.3396,1.505,-6.580,-0.350,1,1,2,371,349,2025-06-05T16:18:53.442919
27631,-0.5100,0.7505,0.3455,1.820,-6.965,-0.315,2,2,1,374,358,2025-06-05T16:18:53.442919
27632,-0.5104,0.7496,0.3440,2.170,-7.000,0.070,1,2,1,382,341,2025-06-05T16:18:53.442919
27633,-0.5041,0.7515,0.3357,2.240,-7.455,0.245,1,1,1,346,370,2025-06-05T16:18:53.442919
27634,-0.4958,0.7501,0.3323,2.485,-7.070,0.140,1,1,1,364,372,2025-06-05T16:18:53.442919
27635,-0.4997,0.7554,0.3309,2.380,-5.985,-0.315,1,1,1,366,393,2025-06-05T16:18:53.442919
27636,-0.5017,0.7584,0.3348,2.450,-5.600,-1.155,1,2,1,383,401,2025-06-05T16:18:53.442919
27637,-0.5065,0.7627,0.3328,2.240,-5.600,-1.645,1,1,2,376,389,2025-06-05T16:18:53.442919
27638,-0.5070,0.7598,0.3323,2.170,-5.985,-2.100,1,1,2,345,387,2025-06-05T16:18:53.442919
27639,-0.5095,0.7598,0.3343,2.030,-6.965,-2.240,2,2,1,371,381,2025-06-05T16:18:53.542099
27640,-0.5202,0.7559,0.3323,1.750,-8.120,-2.345,2,2,1,366,358,2025-06-05T16:18:53.542099
27641,-0.5168,0.7530,0.3304,1.820,-9.030,-2.590,1,1,1,371,375,2025-06-05T16:18:53.542099
27642,-0.5095,0.7501,0.3333,1.960,-9.730,-2.345,1,2,1,370,352,2025-06-05T16:18:53.542099
27643,-0.5051,0.7510,0.3348,2.030,-9.450,-2.030,2,2,1,379,376,2025-06-05T16:18:53.542099
27644,-0.4982,0.7535,0.3333,2.590,-8.330,-1.960,1,1,1,383,389,2025-06-05T16:18:53.542099
27645,-0.5012,0.7525,0.3323,3.080,-6.790,-1.960,1,1,1,388,367,2025-06-05T16:18:53.542099
27646,-0.5095,0.7510,0.3294,3.360,-6.230,-2.135,1,1,1,385,364,2025-06-05T16:18:53.542099
27647,-0.5148,0.7505,0.3279,4.130,-6.230,-2.450,1,1,1,389,380,2025-06-05T16:18:53.542099
27648,-0.5192,0.7496,0.3314,4.585,-6.265,-2.695,2,2,1,391,381,2025-06-05T16:18:53.650721
27649,-0.5163,0.7471,0.3318,5.180,-6.720,-2.730,2,2,1,380,391,2025-06-05T16:18:53.650721
27650,-0.5080,0.7501,0.3314,5.215,-7.105,-2.730,1,2,1,388,398,2025-06-05T16:18:53.650721
27651,-0.5085,0.7476,0.3294,5.285,-7.315,-2.730,2,2,1,394,397,2025-06-05T16:18:53.650721
27652,-0.5031,0.7510,0.3328,5.355,-7.175,-2.765,1,2,1,384,386,2025-06-05T16:18:53.650721
27653,-0.5036,0.7593,0.3304,5.285,-6.440,-3.010,2,1,0,361,388,2025-06-05T16:18:53.650721
27654,-0.5036,0.7632,0.3270,5.145,-5.740,-3.430,1,1,1,378,395,2025-06-05T16:18:53.650721
27655,-0.5075,0.7676,0.3265,5.180,-5.390,-3.850,2,1,1,374,378,2025-06-05T16:18:53.650721
27656,-0.5192,0.7652,0.3240,4.340,-5.810,-3.815,1,2,1,375,373,2025-06-05T16:18:53.650721
27657,-0.5261,0.7632,0.3294,4.270,-6.965,-3.885,1,1,1,380,387,2025-06-05T16:18:53.950474
27658,-0.5290,0.7627,0.3338,3.990,-8.680,-3.570,2,1,1,384,400,2025-06-05T16:18:53.950474
27659,-0.5202,0.7623,0.3348,3.745,-9.975,-3.255,2,2,1,394,399,2025-06-05T16:18:53.951473
27660,-0.5139,0.7642,0.3279,3.570,-10.395,-3.185,2,1,1,387,399,2025-06-05T16:18:53.951473
27661,-0.5051,0.7681,0.3192,3.325,-9.835,-3.325,2,2,1,396,357,2025-06-05T16:18:53.951473
27662,-0.5007,0.7720,0.3157,3.185,-8.190,-3.535,1,1,1,378,378,2025-06-05T16:18:53.951473
27663,-0.5139,0.7686,0.3182,2.870,-6.895,-3.815,2,1,1,396,358,2025-06-05T16:18:53.951473
27664,-0.5231,0.7671,0.3211,3.115,-6.755,-3.675,1,2,1,389,368,2025-06-05T16:18:53.951473
27665,-0.5348,0.7696,0.3240,3.395,-6.965,-3.360,1,1,1,389,365,2025-06-05T16:18:53.951473
27666,-0.5456,0.7652,0.3250,3.710,-8.330,-2.835,1,1,1,401,380,2025-06-05T16:18:53.951473
27667,-0.5441,0.7647,0.3235,3.920,-9.940,-1.925,2,1,1,406,377,2025-06-05T16:18:53.951473
27668,-0.5392,0.7603,0.3245,3.815,-10.640,-1.120,1,1,1,400,347,2025-06-05T16:18:53.951473
27669,-0.5226,0.7623,0.3250,4.025,-10.185,-0.525,1,1,1,381,366,2025-06-05T16:18:53.951473
27670,-0.5134,0.7647,0.3270,3.640,-8.610,-0.245,1,1,1,384,343,2025-06-05T16:18:53.951473
27671,-0.5090,0.7662,0.3245,3.395,-6.545,0.070,1,1,1,390,377,2025-06-05T16:18:53.951473
27672,-0.5095,0.7676,0.3177,3.220,-5.425,0.525,1,2,1,384,372,2025-06-05T16:18:53.951473
27673,-0.5251,0.7657,0.3157,3.220,-5.425,0.910,2,2,1,383,389,2025-06-05T16:18:54.057443
27674,-0.5319,0.7584,0.3167,3.535,-6.755,1.225,1,1,1,393,390,2025-06-05T16:18:54.057443
27675,-0.5329,0.7588,0.3216,3.990,-7.945,1.540,2,1,1,381,392,2025-06-05T16:18:54.057443
27676,-0.5207,0.7618,0.3260,4.130,-9.345,1.680,2,2,2,377,398,2025-06-05T16:18:54.057443
27677,-0.5163,0.7637,0.3270,4.340,-9.170,1.645,1,1,1,391,398,2025-06-05T16:18:54.057443
27678,-0.5075,0.7686,0.3221,4.200,-8.715,1.365,1,2,1,393,383,2025-06-05T16:18:54.057443
27679,-0.5109,0.7647,0.3133,4.130,-8.435,1.120,1,1,2,394,348,2025-06-05T16:18:54.057443
27680,-0.5085,0.7642,0.3055,3.990,-8.575,1.120,1,1,1,355,361,2025-06-05T16:18:54.058010
27681,-0.5134,0.7564,0.3074,3.990,-8.260,1.015,1,1,1,365,378,2025-06-05T16:18:54.058010
27682,-0.5129,0.7584,0.3152,3.990,-8.295,0.700,1,1,1,373,380,2025-06-05T16:18:54.058010
27683,-0.5197,0.7623,0.3177,4.375,-8.225,0.245,1,1,1,375,375,2025-06-05T16:18:54.058010
27684,-0.5192,0.7657,0.3226,4.375,-7.910,0.105,2,1,2,390,355,2025-06-05T16:18:54.058010
27685,-0.5207,0.7652,0.3152,4.060,-8.225,-0.035,2,2,1,359,367,2025-06-05T16:18:54.058010
27686,-0.5187,0.7632,0.3118,3.850,-8.855,0.175,1,2,1,377,377,2025-06-05T16:18:54.058010
27687,-0.5178,0.7632,0.3109,3.465,-9.205,0.420,1,2,1,384,392,2025-06-05T16:18:54.058010
27688,-0.5158,0.7652,0.3104,3.290,-9.415,0.455,2,1,1,390,358,2025-06-05T16:18:54.058010
27689,-0.5114,0.7623,0.3089,2.730,-9.135,0.315,1,1,1,378,374,2025-06-05T16:18:54.058010
27690,-0.5075,0.7613,0.3099,2.660,-8.400,0.105,1,1,2,387,388,2025-06-05T16:18:54.058010
27691,-0.5129,0.7647,0.3104,2.380,-7.840,-0.280,3,1,1,349,381,2025-06-05T16:18:54.159045
27692,-0.5197,0.7598,0.3084,2.205,-8.120,-0.490,2,2,1,361,386,2025-06-05T16:18:54.159045
27693,-0.5192,0.7554,0.3065,2.450,-8.610,-0.385,2,2,1,384,404,2025-06-05T16:18:54.159045
27694,-0.5158,0.7569,0.3079,2.100,-9.170,-0.245,2,1,1,378,400,2025-06-05T16:18:54.159045
27695,-0.5017,0.7618,0.3089,2.030,-9.240,-0.245,1,1,2,383,383,2025-06-05T16:18:54.159045
27696,-0.5022,0.7691,0.3094,1.610,-7.875,-0.735,1,2,1,381,388,2025-06-05T16:18:54.159045
27697,-0.5061,0.7686,0.3079,1.155,-7.210,-1.645,2,1,1,384,355,2025-06-05T16:18:54.159045
27698,-0.5124,0.7691,0.3070,1.050,-6.860,-2.205,1,1,1,392,379,2025-06-05T16:18:54.159045
27699,-0.5192,0.7662,0.3084,0.490,-7.350,-2.170,1,1,2,387,389,2025-06-05T16:18:54.273006
27700,-0.5212,0.7686,0.3084,0.630,-8.365,-1.925,2,1,1,395,397,2025-06-05T16:18:54.273006
27701,-0.5222,0.7662,0.3109,0.280,-9.240,-1.645,2,2,2,397,401,2025-06-05T16:18:54.273006
27702,-0.5119,0.7662,0.3123,0.280,-9.555,-1.295,2,1,1,388,392,2025-06-05T16:18:54.273006
27703,-0.5041,0.7666,0.3099,0.350,-9.030,-0.875,1,1,1,382,396,2025-06-05T16:18:54.273438
27704,-0.5031,0.7720,0.3113,0.315,-7.910,-0.840,2,1,1,384,394,2025-06-05T16:18:54.273438
27705,-0.5051,0.7701,0.3084,0.490,-7.175,-0.805,1,2,1,381,401,2025-06-05T16:18:54.273438
27706,-0.5109,0.7696,0.3109,0.700,-6.440,-0.805,1,1,2,388,395,2025-06-05T16:18:54.273438
27707,-0.5173,0.7730,0.3104,1.120,-6.370,-0.630,1,1,1,390,396,2025-06-05T16:18:54.273438
27708,-0.5236,0.7730,0.3079,1.435,-6.755,-0.490,1,2,1,397,381,2025-06-05T16:18:54.366450
27709,-0.5256,0.7681,0.3055,1.680,-7.700,-0.385,2,2,2,398,350,2025-06-05T16:18:54.366450
27710,-0.5183,0.7681,0.3055,1.785,-8.050,-0.210,1,1,1,392,369,2025-06-05T16:18:54.366450
27711,-0.5075,0.7691,0.3094,1.505,-7.595,0.140,2,1,1,394,372,2025-06-05T16:18:54.366450
27712,-0.5026,0.7681,0.3162,1.435,-6.265,0.350,1,1,2,387,339,2025-06-05T16:18:54.366450
27713,-0.5022,0.7740,0.3167,0.945,-5.110,0.280,1,1,1,387,366,2025-06-05T16:18:54.366450
27714,-0.5075,0.7720,0.3079,0.560,-4.305,0.280,1,1,2,383,375,2025-06-05T16:18:54.366450
27715,-0.5183,0.7730,0.3045,0.280,-4.340,0.035,1,1,1,385,384,2025-06-05T16:18:54.366450
27716,-0.5266,0.7691,0.3035,-0.105,-5.215,-0.175,2,2,1,374,397,2025-06-05T16:18:54.463558
27717,-0.5290,0.7676,0.3040,-0.070,-6.825,-0.280,1,2,2,378,386,2025-06-05T16:18:54.463558
27718,-0.5192,0.7642,0.3074,-0.350,-8.050,-0.315,1,1,1,387,396,2025-06-05T16:18:54.463558
27719,-0.5134,0.7613,0.3089,-0.560,-8.680,-0.245,2,1,1,397,389,2025-06-05T16:18:54.463558
27720,-0.5022,0.7588,0.3113,-0.735,-7.980,-0.455,1,1,2,384,384,2025-06-05T16:18:54.463558
27721,-0.5002,0.7608,0.3104,-0.770,-6.790,-0.875,1,1,1,392,398,2025-06-05T16:18:54.463558
27722,-0.5017,0.7549,0.3094,-0.980,-5.705,-1.435,1,0,1,386,401,2025-06-05T16:18:54.463558
27723,-0.5036,0.7544,0.3065,-1.015,-5.215,-1.750,2,1,1,382,362,2025-06-05T16:18:54.463558
27724,-0.5080,0.7530,0.3074,-0.875,-4.830,-1.855,2,2,1,382,344,2025-06-05T16:18:54.464419
27725,-0.5104,0.7515,0.3065,-0.840,-4.830,-2.065,1,2,2,344,368,2025-06-05T16:18:54.515194
27726,-0.5129,0.7574,0.3079,-0.700,-5.110,-2.450,1,2,1,364,348,2025-06-05T16:18:54.515425
27727,-0.5168,0.7603,0.3113,-0.805,-5.390,-2.695,2,1,2,377,361,2025-06-05T16:18:54.515425
27728,-0.5124,0.7701,0.3099,-0.910,-5.880,-2.765,2,2,1,343,363,2025-06-05T16:18:54.515425
27729,-0.5109,0.7715,0.3099,-0.910,-5.880,-2.905,1,2,1,366,389,2025-06-05T16:18:54.670404
27730,-0.5202,0.7754,0.3113,-1.085,-6.090,-2.940,1,2,1,379,388,2025-06-05T16:18:54.670404
27731,-0.5261,0.7759,0.3152,-1.120,-6.755,-3.010,2,2,1,384,394,2025-06-05T16:18:54.670404
27732,-0.5290,0.7730,0.3182,-1.225,-7.315,-2.590,1,2,1,384,324,2025-06-05T16:18:54.670404
27733,-0.5300,0.7715,0.3211,-1.155,-7.630,-2.065,2,1,1,378,329,2025-06-05T16:18:54.671202
27734,-0.5295,0.7681,0.3226,-1.400,-7.665,-1.715,1,2,1,382,289,2025-06-05T16:18:54.671202
27735,-0.5270,0.7671,0.3187,-1.120,-7.245,-1.400,1,1,1,377,337,2025-06-05T16:18:54.671202
27736,-0.5270,0.7681,0.3192,-1.085,-6.510,-1.120,2,1,1,390,358,2025-06-05T16:18:54.671202
27737,-0.5305,0.7681,0.3167,-1.155,-6.230,-0.910,2,2,1,394,364,2025-06-05T16:18:54.671202
27738,-0.5363,0.7652,0.3182,-1.085,-6.370,-0.315,1,1,1,391,365,2025-06-05T16:18:54.671202
27739,-0.5383,0.7637,0.3216,-1.190,-6.790,0.350,1,2,1,399,387,2025-06-05T16:18:54.671202
27740,-0.5368,0.7632,0.3216,-1.120,-7.560,0.910,1,1,1,402,385,2025-06-05T16:18:54.671202
27741,-0.5305,0.7588,0.3206,-1.330,-7.700,1.260,1,2,1,381,388,2025-06-05T16:18:54.671202
27742,-0.5295,0.7564,0.3196,-1.575,-7.560,1.435,2,1,1,378,365,2025-06-05T16:18:54.772459
27743,-0.5236,0.7598,0.3177,-1.610,-7.455,1.155,2,2,1,387,381,2025-06-05T16:18:54.772459
27744,-0.5197,0.7588,0.3192,-1.890,-7.070,1.295,2,1,1,383,379,2025-06-05T16:18:54.772459
27745,-0.5168,0.7588,0.3172,-1.925,-6.685,1.435,1,2,1,378,357,2025-06-05T16:18:54.772459
27746,-0.5158,0.7564,0.3172,-1.960,-6.580,1.155,1,1,1,383,378,2025-06-05T16:18:54.772459
27747,-0.5202,0.7574,0.3157,-1.925,-6.755,1.050,2,2,1,394,394,2025-06-05T16:18:54.772459
27748,-0.5148,0.7588,0.3211,-1.575,-7.280,1.015,1,2,1,385,385,2025-06-05T16:18:54.772459
27749,-0.5090,0.7637,0.3216,-1.750,-7.770,1.330,2,1,1,389,375,2025-06-05T16:18:54.772459
27750,-0.5100,0.7637,0.3192,-1.575,-7.630,1.190,1,1,1,392,394,2025-06-05T16:18:54.772459
27751,-0.5090,0.7657,0.3148,-1.470,-7.245,0.630,2,1,1,397,393,2025-06-05T16:18:54.822104
27752,-0.5095,0.7671,0.3138,-1.785,-7.315,0.280,1,1,1,384,355,2025-06-05T16:18:54.822104
27753,-0.5114,0.7623,0.3128,-1.750,-7.490,0.105,1,1,2,375,366,2025-06-05T16:18:54.822104
27754,-0.5153,0.7608,0.3152,-1.925,-7.595,0.315,1,2,2,396,391,2025-06-05T16:18:54.822104
27755,-0.5178,0.7564,0.3157,-1.610,-7.980,0.525,2,1,1,389,390,2025-06-05T16:18:54.871203
27756,-0.5202,0.7588,0.3167,-1.540,-7.980,0.770,2,2,1,395,378,2025-06-05T16:18:54.871203
27757,-0.5144,0.7608,0.3143,-1.260,-7.525,0.840,2,2,2,396,360,2025-06-05T16:18:54.871203
27758,-0.5104,0.7608,0.3143,-1.085,-6.335,0.770,2,1,2,389,379,2025-06-05T16:18:54.871203
27759,-0.5158,0.7666,0.3177,-1.120,-5.110,0.490,1,2,1,389,387,2025-06-05T16:18:54.975148
27760,-0.5207,0.7671,0.3216,-1.295,-4.690,0.385,1,1,1,392,399,2025-06-05T16:18:54.975148
27761,-0.5270,0.7652,0.3274,-1.540,-5.145,0.630,1,2,2,389,388,2025-06-05T16:18:54.975148
27762,-0.5397,0.7559,0.3309,-1.995,-6.300,0.945,2,1,2,389,388,2025-06-05T16:18:54.975148
27763,-0.5344,0.7535,0.3333,-2.415,-7.945,1.575,2,2,1,384,396,2025-06-05T16:18:54.975148
27764,-0.5222,0.7579,0.3382,-2.730,-8.365,2.240,1,1,1,346,348,2025-06-05T16:18:54.975148
27765,-0.5158,0.7588,0.3411,-3.290,-7.805,2.310,1,2,1,349,371,2025-06-05T16:18:54.975959
27766,-0.5109,0.7608,0.3411,-3.360,-6.615,2.100,1,1,1,364,348,2025-06-05T16:18:54.975959
27767,-0.5134,0.7598,0.3333,-3.430,-5.810,1.785,1,2,1,377,372,2025-06-05T16:18:54.975959
27768,-0.5173,0.7505,0.3284,-3.185,-5.635,1.680,1,2,1,375,370,2025-06-05T16:18:55.027605
27769,-0.5158,0.7462,0.3226,-2.800,-6.335,1.645,1,2,1,371,382,2025-06-05T16:18:55.027605
27770,-0.5173,0.7452,0.3250,-2.205,-7.245,1.505,2,1,1,379,376,2025-06-05T16:18:55.027605
27771,-0.5173,0.7466,0.3343,-1.680,-7.910,1.190,2,1,1,369,384,2025-06-05T16:18:55.027605
27772,-0.5124,0.7486,0.3357,-1.120,-8.120,0.805,1,2,2,382,397,2025-06-05T16:18:55.185658
27773,-0.5109,0.7525,0.3357,-0.525,-8.120,0.245,1,1,2,393,387,2025-06-05T16:18:55.185658
27774,-0.5036,0.7515,0.3323,-0.385,-7.910,0.140,1,2,1,380,376,2025-06-05T16:18:55.185658
27775,-0.5012,0.7540,0.3314,-0.140,-7.525,-0.140,1,2,1,375,393,2025-06-05T16:18:55.185658
27776,-0.5036,0.7579,0.3309,-0.175,-7.070,-0.350,2,1,2,390,403,2025-06-05T16:18:55.185658
27777,-0.5070,0.7598,0.3289,0.070,-6.790,-0.630,1,1,1,398,397,2025-06-05T16:18:55.185658
27778,-0.5119,0.7598,0.3328,-8.925,-6.650,-0.700,1,2,2,397,398,2025-06-05T16:18:55.185658
27779,-0.5080,0.7540,0.3304,-0.035,-6.930,-0.945,1,1,1,396,401,2025-06-05T16:18:55.185658
27780,-0.5056,0.7486,0.3279,-0.070,-7.210,-1.015,1,1,1,380,387,2025-06-05T16:18:55.185658
27781,-0.5075,0.7496,0.3323,-0.420,-7.420,-1.085,1,2,1,339,384,2025-06-05T16:18:55.185658
27782,-0.5090,0.7501,0.3377,-0.420,-7.420,-1.365,1,2,1,355,386,2025-06-05T16:18:55.185658
27783,-0.5119,0.7554,0.3357,-0.315,-7.350,-1.855,1,1,1,358,383,2025-06-05T16:18:55.185658
27784,-0.5051,0.7535,0.3318,-0.385,-7.140,-2.240,1,2,1,384,390,2025-06-05T16:18:55.185658
27785,-0.5085,0.7544,0.3265,-0.245,-6.720,-2.625,2,1,1,393,395,2025-06-05T16:18:55.386580
27786,-0.5226,0.7535,0.3255,-0.245,-7.105,-3.220,1,2,2,392,388,2025-06-05T16:18:55.386580
27787,-0.5236,0.7520,0.3255,0.210,-7.840,-3.325,2,1,1,347,346,2025-06-05T16:18:55.386580
27788,-0.5236,0.7535,0.3289,0.385,-8.470,-3.185,1,2,2,371,362,2025-06-05T16:18:55.386580
27789,-0.5270,0.7437,0.3333,0.910,-8.995,-3.115,1,1,2,374,383,2025-06-05T16:18:55.387037
27790,-0.5226,0.7427,0.3372,1.330,-8.610,-3.080,1,2,1,378,392,2025-06-05T16:18:55.387037
27791,-0.5163,0.7413,0.3396,1.435,-7.910,-2.835,2,2,1,394,401,2025-06-05T16:18:55.387037
27792,-0.5153,0.7408,0.3387,1.505,-6.825,-2.625,2,1,1,360,389,2025-06-05T16:18:55.387037
27793,-0.5124,0.7403,0.3396,1.295,-5.705,-2.520,1,1,1,379,392,2025-06-05T16:18:55.387037
27794,-0.5173,0.7437,0.3416,1.295,-4.760,-2.660,1,2,1,380,382,2025-06-05T16:18:55.387037
27795,-0.5270,0.7505,0.3406,1.050,-4.550,-2.835,1,2,2,379,377,2025-06-05T16:18:55.387582
27796,-0.5285,0.7501,0.3396,0.945,-5.110,-2.835,1,2,2,377,370,2025-06-05T16:18:55.387582
27797,-0.5236,0.7520,0.3367,0.945,-5.705,-2.660,2,1,2,393,389,2025-06-05T16:18:55.387582
27798,-0.5222,0.7515,0.3382,0.490,-6.405,-2.520,2,2,1,392,397,2025-06-05T16:18:55.387582
27799,-0.5144,0.7554,0.3440,0.420,-6.825,-2.345,1,2,1,396,392,2025-06-05T16:18:55.387582
27800,-0.5134,0.7501,0.3465,0.175,-6.825,-2.380,1,2,2,396,364,2025-06-05T16:18:55.387582
27801,-0.5129,0.7515,0.3440,0.210,-6.930,-2.660,3,1,2,397,369,2025-06-05T16:18:55.387582
27802,-0.5153,0.7520,0.3406,0.350,-7.035,-2.800,1,2,1,382,383,2025-06-05T16:18:55.387582
27803,-0.5202,0.7525,0.3362,0.595,-7.560,-3.150,2,2,1,393,392,2025-06-05T16:18:55.489592
27804,-0.5231,0.7491,0.3318,0.735,-8.155,-3.465,1,1,1,394,349,2025-06-05T16:18:55.489592
27805,-0.5212,0.7491,0.3328,1.225,-8.890,-3.955,2,2,2,390,374,2025-06-05T16:18:55.489592
27806,-0.5124,0.7481,0.3367,1.540,-8.785,-3.920,2,3,1,349,380,2025-06-05T16:18:55.489592
27807,-0.5095,0.7544,0.3328,1.645,-8.330,-3.920,2,1,1,375,374,2025-06-05T16:18:55.489592
27808,-0.5056,0.7510,0.3309,1.785,-7.350,-3.885,2,1,2,382,392,2025-06-05T16:18:55.489592
27809,-0.5139,0.7559,0.3299,1.540,-6.020,-3.920,1,1,1,398,400,2025-06-05T16:18:55.493906
27810,-0.5222,0.7544,0.3299,1.225,-5.635,-3.535,2,1,1,396,391,2025-06-05T16:18:55.493906
27811,-0.5358,0.7544,0.3333,1.330,-6.160,-3.010,1,2,0,357,397,2025-06-05T16:18:55.590428
27812,-0.5407,0.7569,0.3348,0.980,-6.755,-2.310,1,1,1,376,356,2025-06-05T16:18:55.590428
27813,-0.5378,0.7569,0.3304,0.910,-7.175,-2.030,2,2,1,370,343,2025-06-05T16:18:55.590428
27814,-0.5285,0.7584,0.3270,0.805,-7.035,-1.715,1,1,1,367,362,2025-06-05T16:18:55.590428
27815,-0.5270,0.7569,0.3231,0.455,-6.020,-1.540,2,1,2,390,353,2025-06-05T16:18:55.590428
27816,-0.5319,0.7559,0.3274,0.455,-5.670,-1.260,1,1,1,389,375,2025-06-05T16:18:55.590428
27817,-0.5285,0.7486,0.3289,0.525,-5.600,-0.700,2,1,1,363,382,2025-06-05T16:18:55.590428
27818,-0.5256,0.7447,0.3289,0.595,-5.530,0.140,2,1,1,381,394,2025-06-05T16:18:55.590428
27819,-0.5207,0.7462,0.3289,0.805,-4.795,0.525,1,1,1,384,386,2025-06-05T16:18:55.590428
27820,-0.5085,0.7535,0.3294,0.840,-3.640,0.350,1,2,1,375,386,2025-06-05T16:18:55.883803
27821,-0.5114,0.7569,0.3294,0.840,-2.800,0.000,1,1,2,389,393,2025-06-05T16:18:55.883803
27822,-0.5246,0.7569,0.3284,0.735,-2.170,-0.455,1,2,2,386,396,2025-06-05T16:18:55.884465
27823,-0.5305,0.7584,0.3309,0.700,-3.115,-1.120,2,1,2,380,385,2025-06-05T16:18:55.884465
27824,-0.5348,0.7559,0.3299,0.630,-4.410,-1.260,2,1,2,394,356,2025-06-05T16:18:55.884650
27825,-0.5436,0.7501,0.3387,0.455,-5.985,-1.260,1,2,1,388,379,2025-06-05T16:18:55.884650
27826,-0.5470,0.7505,0.3445,0.665,-8.260,-0.980,1,2,1,396,391,2025-06-05T16:18:55.884650
27827,-0.5441,0.7486,0.3455,0.420,-9.975,-0.770,1,2,1,387,391,2025-06-05T16:18:56.079754
27828,-0.5280,0.7432,0.3450,0.805,-10.115,-0.420,2,2,1,390,404,2025-06-05T16:18:56.080717
27829,-0.5163,0.7447,0.3401,0.665,-8.960,-0.105,1,2,2,353,388,2025-06-05T16:18:56.080717
27830,-0.5114,0.7413,0.3328,0.910,-7.175,-0.210,1,1,1,376,387,2025-06-05T16:18:56.080717
27831,-0.5222,0.7476,0.3279,1.015,-5.005,-0.560,1,2,2,382,389,2025-06-05T16:18:56.080717
27832,-0.5353,0.7471,0.3274,1.505,-4.305,-0.945,1,1,2,381,379,2025-06-05T16:18:56.080717
27833,-0.5417,0.7481,0.3270,1.890,-4.795,-0.735,2,2,1,378,386,2025-06-05T16:18:56.080717
27834,-0.5495,0.7447,0.3270,2.065,-6.055,-0.280,2,1,1,379,392,2025-06-05T16:18:56.080717
27835,-0.5441,0.7432,0.3299,2.275,-7.630,0.105,1,2,1,374,381,2025-06-05T16:18:56.080717
27836,-0.5339,0.7403,0.3328,1.890,-8.295,0.560,1,2,1,375,392,2025-06-05T16:18:56.080717
27837,-0.5183,0.7471,0.3333,1.610,-7.805,0.525,2,1,1,387,393,2025-06-05T16:18:56.080717
27838,-0.5119,0.7554,0.3284,1.330,-6.160,0.140,2,1,1,398,399,2025-06-05T16:18:56.080717
27839,-0.5144,0.7564,0.3196,0.840,-5.180,-0.315,2,2,0,349,348,2025-06-05T16:18:56.080717
27840,-0.5212,0.7564,0.3128,0.770,-4.585,-0.560,2,1,2,367,380,2025-06-05T16:18:56.080717
27841,-0.5334,0.7510,0.3118,0.385,-5.110,-0.630,2,1,2,386,399,2025-06-05T16:18:56.080717
27842,-0.5436,0.7398,0.3182,0.420,-6.615,-0.385,1,2,1,387,395,2025-06-05T16:18:56.080717
27843,-0.5344,0.7422,0.3323,0.560,-7.735,0.245,1,1,2,351,346,2025-06-05T16:18:56.080717
27844,-0.5261,0.7413,0.3372,0.455,-8.015,0.455,2,2,1,337,357,2025-06-05T16:18:56.080717
27845,-0.5148,0.7486,0.3377,0.665,-6.965,0.455,1,2,2,363,382,2025-06-05T16:18:56.080717
27846,-0.5124,0.7535,0.3328,0.315,-5.215,0.105,1,1,1,339,370,2025-06-05T16:18:56.080717
27847,-0.5134,0.7540,0.3250,0.420,-4.340,-0.490,1,1,1,369,376,2025-06-05T16:18:56.080717
27848,-0.5314,0.7481,0.3192,0.455,-4.305,-0.630,1,1,1,371,383,2025-06-05T16:18:56.080717
27849,-0.5407,0.7413,0.3172,0.665,-5.390,-0.735,1,2,1,383,382,2025-06-05T16:18:56.080717
27850,-0.5402,0.7413,0.3245,1.260,-7.000,-0.665,1,1,1,358,376,2025-06-05T16:18:56.080717
27851,-0.5378,0.7471,0.3294,1.715,-7.630,-0.700,2,1,0,346,379,2025-06-05T16:18:56.080717
27852,-0.5309,0.7501,0.3299,1.785,-7.420,-0.980,1,1,1,370,379,2025-06-05T16:18:56.080717
27853,-0.5270,0.7544,0.3294,1.960,-6.930,-1.190,2,1,1,367,384,2025-06-05T16:18:56.080717
27854,-0.5187,0.7540,0.3265,1.540,-6.020,-0.945,2,1,1,375,391,2025-06-05T16:18:56.141445
27855,-0.5251,0.7535,0.3240,1.470,-5.215,-0.735,1,1,2,389,394,2025-06-05T16:18:56.141445
27856,-0.5300,0.7569,0.3265,1.190,-5.250,-0.630,1,1,2,392,392,2025-06-05T16:18:56.141445
27857,-0.5348,0.7535,0.3221,0.980,-5.530,-0.210,2,1,2,402,354,2025-06-05T16:18:56.141445
27858,-0.5373,0.7530,0.3231,0.770,-5.985,-0.175,2,2,1,396,340,2025-06-05T16:18:56.141445
27859,-0.5417,0.7501,0.3250,0.630,-6.650,-0.105,1,1,1,382,358,2025-06-05T16:18:56.141445
27860,-0.5397,0.7447,0.3255,0.630,-7.035,-0.245,1,1,2,388,347,2025-06-05T16:18:56.141445
27861,-0.5368,0.7413,0.3265,0.595,-7.175,-0.280,1,1,1,383,359,2025-06-05T16:18:56.141445
27862,-0.5339,0.7476,0.3284,0.805,-7.315,-0.385,1,2,1,395,375,2025-06-05T16:18:56.141445
27863,-0.5300,0.7476,0.3274,0.700,-6.720,-0.525,1,1,1,392,355,2025-06-05T16:18:56.406399
27864,-0.5305,0.7501,0.3250,0.490,-6.370,-0.385,1,2,1,393,362,2025-06-05T16:18:56.406399
27865,-0.5324,0.7520,0.3240,0.595,-6.615,-0.210,1,1,1,392,381,2025-06-05T16:18:56.406399
27866,-0.5353,0.7471,0.3211,0.350,-6.475,0.000,1,1,1,397,376,2025-06-05T16:18:56.406399
27867,-0.5363,0.7462,0.3172,0.455,-6.545,-0.035,2,2,1,353,366,2025-06-05T16:18:56.406399
27868,-0.5305,0.7457,0.3221,0.175,-6.125,-0.245,2,2,1,369,389,2025-06-05T16:18:56.406399
27869,-0.5309,0.7437,0.3240,-0.210,-5.635,-0.595,2,1,1,383,378,2025-06-05T16:18:56.406399
27870,-0.5358,0.7471,0.3231,-0.420,-5.355,-0.910,1,1,1,374,392,2025-06-05T16:18:56.406399
27871,-0.5368,0.7471,0.3240,-0.490,-6.090,-0.910,2,2,1,374,356,2025-06-05T16:18:56.406399
27872,-0.5329,0.7427,0.3245,-0.980,-6.230,-0.875,1,1,1,374,383,2025-06-05T16:18:56.406399
27873,-0.5256,0.7359,0.3192,-1.330,-6.440,-0.980,1,2,1,374,391,2025-06-05T16:18:56.406399
27874,-0.5226,0.7388,0.3172,-1.750,-6.300,-0.980,1,1,1,391,384,2025-06-05T16:18:56.406399
27875,-0.5212,0.7359,0.3177,-1.715,-5.425,-1.260,2,1,1,382,384,2025-06-05T16:18:56.406399
27876,-0.5197,0.7374,0.3231,-1.960,-4.935,-1.540,1,1,1,393,392,2025-06-05T16:18:56.406399
27877,-0.5207,0.7418,0.3216,-1.435,-4.340,-1.820,1,2,1,388,395,2025-06-05T16:18:56.406399
27878,-0.5222,0.7481,0.3221,-1.470,-3.850,-2.135,2,1,1,396,361,2025-06-05T16:18:56.406399
27879,-0.5251,0.7510,0.3177,-1.190,-3.605,-2.450,1,2,1,379,364,2025-06-05T16:18:56.406399
27880,-0.5334,0.7569,0.3216,-0.910,-4.165,-2.975,2,2,1,358,372,2025-06-05T16:18:56.728937
27881,-0.5353,0.7603,0.3318,-1.120,-4.760,-3.675,2,2,2,383,382,2025-06-05T16:18:56.728937
27882,-0.5427,0.7608,0.3387,-0.875,-6.300,-3.710,2,2,2,394,379,2025-06-05T16:18:56.728937
27883,-0.5412,0.7623,0.3460,-0.840,-7.805,-3.465,2,2,1,393,378,2025-06-05T16:18:56.728937
27884,-0.5431,0.7598,0.3426,-0.770,-8.610,-3.115,1,1,2,387,375,2025-06-05T16:18:56.728937
27885,-0.5407,0.7613,0.3392,-0.665,-9.310,-2.870,1,2,2,378,392,2025-06-05T16:18:56.728937
27886,-0.5378,0.7579,0.3396,-0.840,-9.205,-2.520,1,1,1,388,387,2025-06-05T16:18:56.728937
27887,-0.5490,0.7510,0.3406,-0.735,-8.960,-2.415,2,2,1,391,393,2025-06-05T16:18:56.728937
27888,-0.5480,0.7510,0.3411,-0.140,-8.995,-2.065,1,1,1,387,392,2025-06-05T16:18:56.728937
27889,-0.5475,0.7476,0.3387,0.140,-8.785,-1.225,1,1,1,386,358,2025-06-05T16:18:56.728937
27890,-0.5480,0.7447,0.3353,0.525,-8.470,-0.490,2,1,1,384,340,2025-06-05T16:18:56.728937
27891,-0.5461,0.7437,0.3343,0.805,-8.155,0.140,1,1,1,381,358,2025-06-05T16:18:56.728937
27892,-0.5461,0.7388,0.3289,0.630,-7.735,0.945,1,1,1,380,364,2025-06-05T16:18:56.728937
27893,-0.5466,0.7383,0.3304,0.805,-7.735,1.190,2,1,2,395,371,2025-06-05T16:18:56.728937
27894,-0.5470,0.7349,0.3289,0.805,-7.490,1.330,1,1,1,382,340,2025-06-05T16:18:56.728937
27895,-0.5397,0.7335,0.3265,0.665,-7.140,1.225,2,1,1,385,370,2025-06-05T16:18:56.728937
27896,-0.5353,0.7374,0.3250,0.560,-6.930,1.015,1,2,1,382,385,2025-06-05T16:18:56.729845
27897,-0.5344,0.7330,0.3255,0.350,-6.860,0.840,2,2,2,393,392,2025-06-05T16:18:56.729845
27898,-0.5392,0.7354,0.3274,0.210,-7.000,0.630,1,2,2,399,390,2025-06-05T16:18:56.729845
27899,-0.5378,0.7344,0.3270,0.280,-7.805,0.665,1,1,2,388,359,2025-06-05T16:18:56.729845
27900,-0.5319,0.7344,0.3260,0.455,-8.015,0.735,1,1,1,374,370,2025-06-05T16:18:56.729845
27901,-0.5285,0.7305,0.3231,0.245,-7.840,0.665,2,2,1,383,369,2025-06-05T16:18:56.729845
27902,-0.5241,0.7296,0.3245,0.315,-7.315,0.140,1,2,1,378,384,2025-06-05T16:18:56.729845
27903,-0.5261,0.7296,0.3260,0.175,-6.370,-0.315,1,2,1,389,389,2025-06-05T16:18:56.863500
27904,-0.5348,0.7261,0.3279,0.105,-5.985,-0.840,1,2,1,394,394,2025-06-05T16:18:56.863500
27905,-0.5397,0.7276,0.3304,0.595,-6.545,-1.120,1,1,1,382,391,2025-06-05T16:18:56.863500
27906,-0.5383,0.7296,0.3289,0.805,-7.455,-1.120,2,2,2,382,395,2025-06-05T16:18:56.863500
27907,-0.5353,0.7300,0.3270,1.190,-7.805,-1.365,1,1,1,388,400,2025-06-05T16:18:56.863500
27908,-0.5314,0.7320,0.3274,1.260,-8.050,-1.645,1,1,1,366,384,2025-06-05T16:18:56.863500
27909,-0.5305,0.7325,0.3289,1.715,-7.910,-2.030,1,2,2,382,386,2025-06-05T16:18:56.863500
27910,-0.5319,0.7276,0.3333,1.680,-7.350,-2.555,1,1,1,389,395,2025-06-05T16:18:56.863500
27911,-0.5373,0.7300,0.3362,1.750,-7.315,-2.905,1,1,1,385,399,2025-06-05T16:18:56.864249
27912,-0.5431,0.7325,0.3377,2.240,-7.595,-3.185,1,1,1,385,401,2025-06-05T16:18:56.864249
27913,-0.5461,0.7344,0.3372,2.345,-7.980,-3.360,2,2,1,355,355,2025-06-05T16:18:56.864249
27914,-0.5466,0.7330,0.3338,2.485,-8.925,-3.360,1,1,1,360,332,2025-06-05T16:18:56.864249
27915,-0.5505,0.7340,0.3333,2.625,-9.555,-3.220,1,1,1,378,331,2025-06-05T16:18:56.864249
27916,-0.5505,0.7379,0.3372,2.590,-9.905,-2.975,1,1,1,374,331,2025-06-05T16:18:56.864249
27917,-0.5451,0.7383,0.3382,2.765,-10.290,-2.870,1,2,1,376,369,2025-06-05T16:18:56.864249
27918,-0.5456,0.7442,0.3392,2.800,-9.975,-2.765,1,1,1,399,384,2025-06-05T16:18:56.864249
27919,-0.5427,0.7418,0.3377,3.080,-9.450,-2.450,2,1,1,390,357,2025-06-05T16:18:56.864249
27920,-0.5505,0.7393,0.3304,3.465,-9.345,-2.030,1,1,1,382,369,2025-06-05T16:18:56.864249
27921,-0.5510,0.7379,0.3333,3.640,-9.240,-1.890,1,1,1,393,376,2025-06-05T16:18:56.865241
27922,-0.5529,0.7369,0.3353,3.850,-9.345,-1.785,1,1,1,396,371,2025-06-05T16:18:56.865241
27923,-0.5544,0.7344,0.3367,4.305,-9.660,-1.645,1,1,1,387,374,2025-06-05T16:18:56.865241
27924,-0.5500,0.7330,0.3382,4.550,-10.010,-1.505,1,2,1,394,394,2025-06-05T16:18:56.865241
27925,-0.5392,0.7374,0.3357,5.040,-10.185,-1.505,2,1,1,389,389,2025-06-05T16:18:56.865241
27926,-0.5358,0.7379,0.3309,5.110,-9.765,-1.435,1,1,1,393,378,2025-06-05T16:18:56.910207
27927,-0.5378,0.7418,0.3260,5.075,-9.310,-1.680,1,2,2,380,349,2025-06-05T16:18:56.910207
27928,-0.5392,0.7408,0.3235,5.215,-9.380,-1.680,1,2,1,375,358,2025-06-05T16:18:56.910207
27929,-0.5407,0.7422,0.3245,5.040,-9.800,-1.750,1,1,1,373,370,2025-06-05T16:18:56.910207
27930,-0.5461,0.7427,0.3221,5.040,-10.185,-1.785,2,1,1,388,372,2025-06-05T16:18:56.910207
27931,-0.5490,0.7388,0.3192,5.250,-10.710,-1.960,2,1,1,392,376,2025-06-05T16:18:56.960890
27932,-0.5529,0.7388,0.3172,5.320,-11.130,-2.135,1,2,1,386,375,2025-06-05T16:18:56.960890
27933,-0.5446,0.7379,0.3133,5.075,-11.550,-2.100,2,1,2,394,352,2025-06-05T16:18:56.960890
27934,-0.5412,0.7383,0.3167,5.145,-11.375,-2.030,2,1,1,383,378,2025-06-05T16:18:56.960890
27935,-0.5397,0.7447,0.3216,4.690,-10.430,-1.925,1,1,2,379,374,2025-06-05T16:18:57.127411
27936,-0.5388,0.7486,0.3182,4.270,-9.625,-2.135,2,1,1,380,392,2025-06-05T16:18:57.127411
27937,-0.5383,0.7432,0.3152,3.885,-8.645,-2.345,2,1,1,347,389,2025-06-05T16:18:57.127411
27938,-0.5441,0.7432,0.3143,3.290,-8.190,-2.520,2,1,1,380,370,2025-06-05T16:18:57.127411
27939,-0.5490,0.7379,0.3152,3.010,-8.400,-2.170,1,1,1,384,312,2025-06-05T16:18:57.127411
27940,-0.5549,0.7432,0.3221,2.590,-9.170,-1.855,2,2,1,384,359,2025-06-05T16:18:57.127411
27941,-0.5539,0.7359,0.3196,2.135,-9.940,-1.505,2,3,1,393,376,2025-06-05T16:18:57.127411
27942,-0.5529,0.7379,0.3182,2.345,-10.360,-1.225,1,2,1,350,366,2025-06-05T16:18:57.127411
27943,-0.5402,0.7388,0.3162,1.750,-10.220,-0.875,1,2,1,376,391,2025-06-05T16:18:57.127411
27944,-0.5392,0.7335,0.3138,2.275,-9.520,-0.455,1,2,1,390,390,2025-06-05T16:18:57.127411
27945,-0.5383,0.7349,0.3167,2.415,-8.610,-0.735,1,2,0,317,377,2025-06-05T16:18:57.127411
27946,-0.5378,0.7388,0.3216,2.660,-7.560,-0.700,1,1,2,366,402,2025-06-05T16:18:57.127411
27947,-0.5412,0.7374,0.3192,3.150,-6.930,-0.770,2,1,1,382,396,2025-06-05T16:18:57.127411
27948,-0.5412,0.7340,0.3172,3.115,-6.965,-0.735,1,1,1,391,400,2025-06-05T16:18:57.127411
27949,-0.5412,0.7393,0.3157,3.395,-6.965,-0.700,1,2,2,397,396,2025-06-05T16:18:57.183588
27950,-0.5402,0.7447,0.3196,3.465,-7.175,-0.875,2,2,1,379,378,2025-06-05T16:18:57.183588
27951,-0.5417,0.7505,0.3206,3.395,-7.175,-1.015,1,1,1,386,388,2025-06-05T16:18:57.183588
27952,-0.5422,0.7535,0.3216,3.290,-7.700,-1.330,1,1,1,392,395,2025-06-05T16:18:57.183588
27953,-0.5422,0.7501,0.3206,3.045,-8.225,-1.330,2,2,1,400,396,2025-06-05T16:18:57.431843
27954,-0.5412,0.7471,0.3177,2.835,-8.750,-1.120,1,1,1,384,399,2025-06-05T16:18:57.431843
27955,-0.5407,0.7442,0.3182,2.555,-8.820,-1.050,1,2,1,391,395,2025-06-05T16:18:57.431843
27956,-0.5451,0.7427,0.3196,2.275,-8.575,-1.155,1,2,1,394,406,2025-06-05T16:18:57.431843
27957,-0.5431,0.7398,0.3226,2.030,-8.260,-1.365,2,2,1,388,328,2025-06-05T16:18:57.431843
27958,-0.5495,0.7432,0.3216,2.030,-7.875,-1.435,1,1,1,378,355,2025-06-05T16:18:57.431843
27959,-0.5470,0.7481,0.3192,1.785,-7.945,-1.295,1,1,1,386,382,2025-06-05T16:18:57.431843
27960,-0.5485,0.7457,0.3157,1.645,-7.700,-1.015,1,1,1,384,389,2025-06-05T16:18:57.431843
27961,-0.5470,0.7462,0.3148,1.540,-7.665,-0.525,2,1,1,387,392,2025-06-05T16:18:57.432834
27962,-0.5392,0.7466,0.3162,1.295,-7.350,-0.315,1,1,1,393,398,2025-06-05T16:18:57.432834
27963,-0.5392,0.7432,0.3152,1.330,-6.930,-0.245,1,1,1,390,401,2025-06-05T16:18:57.432834
27964,-0.5431,0.7413,0.3099,1.120,-6.195,-0.455,1,1,1,380,400,2025-06-05T16:18:57.432834
27965,-0.5451,0.7388,0.3138,0.840,-6.125,-0.700,1,1,1,380,401,2025-06-05T16:18:57.432834
27966,-0.5485,0.7383,0.3152,1.015,-6.615,-0.875,1,2,1,345,382,2025-06-05T16:18:57.536198
27967,-0.5388,0.7388,0.3162,0.595,-6.755,-0.735,2,2,1,368,383,2025-06-05T16:18:57.536198
27968,-0.5353,0.7379,0.3138,0.560,-6.895,-0.665,2,2,1,389,383,2025-06-05T16:18:57.536198
27969,-0.5373,0.7403,0.3084,0.140,-6.650,-0.875,1,1,1,386,382,2025-06-05T16:18:57.536561
27970,-0.5397,0.7398,0.3104,-0.105,-6.265,-1.330,2,1,1,390,352,2025-06-05T16:18:57.536561
27971,-0.5422,0.7379,0.3143,-0.070,-6.440,-1.505,2,1,1,387,371,2025-06-05T16:18:57.536561
27972,-0.5431,0.7364,0.3182,-0.350,-6.825,-1.680,2,1,1,389,389,2025-06-05T16:18:57.536561
27973,-0.5470,0.7418,0.3201,-0.035,-7.175,-1.785,1,2,1,348,389,2025-06-05T16:18:57.536561
27974,-0.5495,0.7442,0.3162,0.105,-7.105,-1.995,1,2,1,371,395,2025-06-05T16:18:57.536561
27975,-0.5490,0.7442,0.3143,0.175,-7.490,-2.240,1,1,1,387,396,2025-06-05T16:18:57.536561
27976,-0.5470,0.7383,0.3172,0.210,-7.700,-2.065,2,1,1,391,388,2025-06-05T16:18:57.536561
27977,-0.5417,0.7354,0.3216,0.140,-7.420,-1.575,1,1,0,347,377,2025-06-05T16:18:57.822531
27978,-0.5373,0.7408,0.3299,-0.070,-6.930,-1.155,1,2,1,358,356,2025-06-05T16:18:57.822531
27979,-0.5368,0.7408,0.3289,-0.210,-6.125,-0.875,2,1,1,366,343,2025-06-05T16:18:57.822531
27980,-0.5402,0.7427,0.3260,-0.385,-5.145,-0.875,2,2,1,365,370,2025-06-05T16:18:57.822531
27981,-0.5485,0.7462,0.3206,-0.630,-5.040,-1.015,1,2,1,382,345,2025-06-05T16:18:57.822531
27982,-0.5544,0.7422,0.3172,-0.665,-5.460,-1.085,1,2,1,375,364,2025-06-05T16:18:57.822531
27983,-0.5597,0.7413,0.3148,-0.560,-6.615,-1.085,1,1,1,395,372,2025-06-05T16:18:57.822531
27984,-0.5573,0.7364,0.3162,-0.175,-8.015,-0.735,1,1,1,395,376,2025-06-05T16:18:57.822531
27985,-0.5500,0.7369,0.3143,0.070,-8.855,-0.595,2,1,1,401,377,2025-06-05T16:18:57.822531
27986,-0.5431,0.7349,0.3177,0.280,-8.330,-0.700,2,2,2,389,374,2025-06-05T16:18:57.822531
27987,-0.5378,0.7418,0.3211,0.210,-7.175,-0.980,2,2,1,389,374,2025-06-05T16:18:57.822531
27988,-0.5353,0.7432,0.3265,0.035,-5.775,-1.225,2,2,2,394,378,2025-06-05T16:18:57.822531
27989,-0.5470,0.7422,0.3216,-0.210,-5.460,-1.190,1,2,2,399,379,2025-06-05T16:18:57.822531
27990,-0.5539,0.7408,0.3211,-0.140,-5.950,-1.120,2,2,2,404,385,2025-06-05T16:18:57.823533
27991,-0.5573,0.7388,0.3216,-0.350,-6.825,-0.700,1,2,2,403,382,2025-06-05T16:18:57.823533
27992,-0.5563,0.7340,0.3226,-0.385,-7.735,-0.350,1,1,1,353,386,2025-06-05T16:18:57.823533
27993,-0.5510,0.7393,0.3260,-0.175,-8.120,-0.420,1,2,1,362,397,2025-06-05T16:18:57.823533
27994,-0.5475,0.7403,0.3216,-0.280,-7.840,-0.525,1,1,1,381,355,2025-06-05T16:18:57.823533
27995,-0.5475,0.7359,0.3201,0.000,-7.490,-0.490,2,1,1,382,387,2025-06-05T16:18:57.823533
27996,-0.5480,0.7349,0.3148,0.490,-7.420,-0.420,1,1,1,380,359,2025-06-05T16:18:57.823533
27997,-0.5500,0.7325,0.3177,0.770,-7.210,-0.350,1,1,1,375,374,2025-06-05T16:18:57.823533
27998,-0.5461,0.7300,0.3206,1.260,-7.070,0.035,1,1,1,389,374,2025-06-05T16:18:57.823533
27999,-0.5441,0.7325,0.3255,1.260,-6.790,0.350,2,1,1,386,387,2025-06-05T16:18:57.823533
28000,-0.5422,0.7286,0.3260,1.225,-6.265,0.455,2,1,1,349,379,2025-06-05T16:18:57.823533
28001,-0.5383,0.7300,0.3226,1.435,-5.530,0.140,1,2,2,366,389,2025-06-05T16:18:57.823533
28002,-0.5466,0.7344,0.3182,1.260,-5.355,-0.315,1,1,2,389,389,2025-06-05T16:18:57.823533
28003,-0.5490,0.7432,0.3148,1.400,-5.145,-1.015,1,1,2,397,383,2025-06-05T16:18:57.823533
28004,-0.5588,0.7481,0.3138,1.190,-6.090,-1.715,2,2,1,386,390,2025-06-05T16:18:57.823533
28005,-0.5583,0.7447,0.3128,0.945,-7.420,-1.820,2,1,2,382,392,2025-06-05T16:18:57.849614
28006,-0.5651,0.7383,0.3099,1.260,-8.995,-1.610,2,2,1,389,390,2025-06-05T16:18:57.849614
28007,-0.5583,0.7340,0.3089,0.945,-10.045,-1.365,1,1,1,390,381,2025-06-05T16:18:57.849614
28008,-0.5529,0.7320,0.3109,1.190,-10.640,-1.190,2,2,2,390,386,2025-06-05T16:18:57.849614
28009,-0.5451,0.7305,0.3138,0.770,-9.205,-1.260,2,1,2,399,389,2025-06-05T16:18:57.901193
28010,-0.5441,0.7330,0.3138,0.560,-7.595,-1.575,2,2,1,386,358,2025-06-05T16:18:57.901193
28011,-0.5451,0.7300,0.3128,0.210,-6.195,-1.435,1,2,1,390,374,2025-06-05T16:18:57.901193
28012,-0.5480,0.7261,0.3192,-0.315,-5.495,-1.295,1,1,1,398,393,2025-06-05T16:18:57.901193
28013,-0.5397,0.7344,0.3270,-0.385,-5.425,-1.085,1,1,1,383,377,2025-06-05T16:18:58.159013
28014,-0.5339,0.7462,0.3314,-0.875,-5.670,-1.015,2,2,1,387,373,2025-06-05T16:18:58.159013
28015,-0.5280,0.7549,0.3211,-1.190,-5.775,-1.295,2,1,1,395,379,2025-06-05T16:18:58.159013
28016,-0.5353,0.7520,0.3206,-1.610,-6.790,-1.120,1,1,1,385,348,2025-06-05T16:18:58.159013
28017,-0.5305,0.7447,0.3226,-1.540,-8.330,-0.910,1,1,1,375,369,2025-06-05T16:18:58.159013
28018,-0.5226,0.7379,0.3260,-1.540,-8.820,-0.525,1,1,2,386,347,2025-06-05T16:18:58.159013
28019,-0.5109,0.7344,0.3338,-1.085,-8.295,-0.455,1,1,1,390,366,2025-06-05T16:18:58.159013
28020,-0.5036,0.7369,0.3299,-1.015,-6.720,-1.050,1,1,1,354,368,2025-06-05T16:18:58.159013
28021,-0.5041,0.7466,0.3299,0.175,-5.215,-2.065,1,1,2,383,383,2025-06-05T16:18:58.159013
28022,-0.5192,0.7462,0.3196,0.490,-3.220,-3.430,1,1,1,394,397,2025-06-05T16:18:58.160078
28023,-0.5363,0.7515,0.3109,1.330,-2.940,-4.375,1,2,1,383,389,2025-06-05T16:18:58.160078
28024,-0.5544,0.7564,0.3079,1.610,-3.570,-4.970,2,2,1,392,322,2025-06-05T16:18:58.160078
28025,-0.5710,0.7584,0.3172,1.820,-5.670,-4.690,2,1,0,342,320,2025-06-05T16:18:58.160078
28026,-0.5724,0.7476,0.3270,2.555,-7.455,-3.675,1,1,1,358,356,2025-06-05T16:18:58.160078
28027,-0.5788,0.7447,0.3255,2.555,-9.100,-2.765,2,1,1,383,372,2025-06-05T16:18:58.160078
28028,-0.5636,0.7422,0.3206,2.590,-8.995,-1.855,1,2,2,379,342,2025-06-05T16:18:58.160078
28029,-0.5456,0.7432,0.3157,2.520,-6.685,-1.330,1,2,1,378,376,2025-06-05T16:18:58.160078
28030,-0.5417,0.7491,0.3089,2.240,-3.465,-1.085,1,1,1,391,381,2025-06-05T16:18:58.160078
28031,-0.5549,0.7569,0.3001,1.785,-1.330,-0.735,2,2,1,387,390,2025-06-05T16:18:58.160078
28032,-0.5749,0.7535,0.2991,1.225,0.315,-0.280,1,1,1,379,400,2025-06-05T16:18:58.160078
28033,-0.5949,0.7471,0.2943,0.630,-0.420,0.805,1,1,1,379,382,2025-06-05T16:18:58.160078
28034,-0.6217,0.7408,0.2933,0.280,-3.080,2.030,1,2,2,388,381,2025-06-05T16:18:58.160078
28035,-0.6276,0.7266,0.2904,-0.140,-5.355,3.430,2,1,1,381,379,2025-06-05T16:18:58.209293
28036,-0.6159,0.7218,0.2977,-0.875,-7.420,4.235,2,2,2,386,386,2025-06-05T16:18:58.209293
28037,-0.6012,0.7100,0.3045,-1.505,-8.260,5.215,2,2,1,376,351,2025-06-05T16:18:58.209293
28038,-0.5739,0.6959,0.3079,-2.135,-7.595,6.055,1,2,1,373,379,2025-06-05T16:18:58.209293
28039,-0.5388,0.6930,0.3094,-2.415,-5.040,6.755,2,2,1,376,394,2025-06-05T16:18:58.209293
28040,-0.5153,0.6959,0.3089,-2.905,-1.575,6.615,1,1,1,376,361,2025-06-05T16:18:58.360171
28041,-0.5148,0.7042,0.3084,-3.465,2.730,5.915,1,1,1,383,379,2025-06-05T16:18:58.360171
28042,-0.5163,0.7100,0.3021,-3.990,5.985,4.655,2,2,1,390,343,2025-06-05T16:18:58.360171
28043,-0.5348,0.7071,0.3084,-4.480,6.160,3.605,1,1,2,379,362,2025-06-05T16:18:58.360171
28044,-0.5353,0.7022,0.3104,-4.760,4.445,3.185,2,2,2,394,374,2025-06-05T16:18:58.360171
28045,-0.5373,0.6939,0.3211,-4.235,1.925,3.325,2,1,2,398,378,2025-06-05T16:18:58.360171
28046,-0.5158,0.7022,0.3348,-3.430,-0.035,2.870,2,1,1,386,389,2025-06-05T16:18:58.360171
28047,-0.4963,0.7203,0.3338,-2.625,-0.385,1.610,2,2,1,383,389,2025-06-05T16:18:58.360886
28048,-0.4943,0.7359,0.3274,-1.995,1.190,-0.840,2,2,2,392,400,2025-06-05T16:18:58.360886
28049,-0.5007,0.7486,0.3133,-1.610,2.135,-3.745,2,1,1,381,389,2025-06-05T16:18:58.360886
28050,-0.5144,0.7505,0.3109,-1.120,1.960,-5.495,1,1,1,377,394,2025-06-05T16:18:58.360886
28051,-0.5266,0.7515,0.3148,-0.140,0.350,-6.650,2,2,1,342,378,2025-06-05T16:18:58.360886
28052,-0.5456,0.7554,0.3235,0.805,-1.855,-7.035,2,1,1,355,375,2025-06-05T16:18:58.415438
28053,-0.5529,0.7603,0.3338,1.435,-3.745,-7.595,1,1,2,381,344,2025-06-05T16:18:58.415438
28054,-0.5602,0.7662,0.3323,1.680,-4.620,-8.365,1,1,2,377,361,2025-06-05T16:18:58.415438
28055,-0.5656,0.7662,0.3270,1.995,-5.145,-8.680,1,2,2,387,336,2025-06-05T16:18:58.415438
28056,-0.5822,0.7637,0.3274,1.855,-6.020,-8.120,1,2,1,383,348,2025-06-05T16:18:58.415438
28057,-0.5900,0.7637,0.3274,1.680,-7.350,-7.070,2,1,2,389,370,2025-06-05T16:18:58.762445
28058,-0.6032,0.7554,0.3270,0.945,-7.910,-5.565,2,1,1,386,345,2025-06-05T16:18:58.762445
28059,-0.6080,0.7501,0.3314,0.490,-8.715,-3.850,2,1,2,380,371,2025-06-05T16:18:58.762445
28060,-0.6105,0.7481,0.3304,-0.245,-9.100,-1.960,2,1,1,372,373,2025-06-05T16:18:58.762445
28061,-0.6095,0.7427,0.3265,-0.910,-8.855,-0.665,2,2,2,381,369,2025-06-05T16:18:58.762445
28062,-0.6129,0.7388,0.3162,-1.260,-7.945,0.630,1,1,1,383,382,2025-06-05T16:18:58.762445
28063,-0.6173,0.7291,0.3084,-1.505,-6.580,1.365,1,1,1,349,386,2025-06-05T16:18:58.762445
28064,-0.6163,0.7242,0.3016,-1.715,-6.545,2.100,2,2,1,377,384,2025-06-05T16:18:58.762445
28065,-0.6163,0.7115,0.3021,-1.575,-6.160,2.940,1,1,1,384,400,2025-06-05T16:18:58.762445
28066,-0.6173,0.7130,0.3040,-1.785,-6.545,3.780,1,1,1,384,398,2025-06-05T16:18:58.763043
28067,-0.6041,0.7032,0.3104,-1.575,-6.510,4.200,1,2,1,394,395,2025-06-05T16:18:58.763043
28068,-0.5954,0.7017,0.3148,-1.645,-6.825,4.515,2,2,1,393,382,2025-06-05T16:18:58.763043
28069,-0.5812,0.7013,0.3216,-1.890,-7.105,4.725,2,2,1,390,395,2025-06-05T16:18:58.833868
28070,-0.5651,0.7071,0.3192,-1.855,-7.000,4.865,2,1,1,399,396,2025-06-05T16:18:58.833868
28071,-0.5514,0.7096,0.3099,-1.855,-6.545,4.480,1,2,0,349,386,2025-06-05T16:18:58.833868
28072,-0.5407,0.7105,0.2957,-1.540,-5.950,3.570,2,2,1,373,383,2025-06-05T16:18:58.833868
28073,-0.5441,0.7164,0.2972,-1.260,-5.950,2.660,2,1,2,385,389,2025-06-05T16:18:58.833868
28074,-0.5334,0.7257,0.2982,-0.735,-5.880,1.925,1,1,1,394,397,2025-06-05T16:18:58.834860
28075,-0.5412,0.7310,0.3016,-0.245,-6.125,1.085,1,2,1,383,381,2025-06-05T16:18:58.834860
28076,-0.5490,0.7325,0.2938,-0.385,-6.615,-0.105,1,1,1,375,387,2025-06-05T16:18:58.834860
28077,-0.5505,0.7340,0.2948,-0.210,-7.700,-1.015,1,2,1,386,390,2025-06-05T16:18:58.834860
28078,-0.5524,0.7310,0.2943,-0.455,-8.155,-1.260,1,1,1,376,359,2025-06-05T16:18:58.834860
28079,-0.5500,0.7276,0.2977,-0.735,-8.505,-1.155,2,1,1,347,369,2025-06-05T16:18:58.834860
28080,-0.5519,0.7164,0.3074,-1.470,-7.980,-0.770,1,1,1,330,336,2025-06-05T16:18:58.834860
28081,-0.5534,0.7027,0.3089,-1.645,-7.105,-0.315,1,1,1,359,376,2025-06-05T16:18:58.834860
28082,-0.5378,0.6949,0.3079,-1.505,-5.810,0.280,1,1,1,369,372,2025-06-05T16:18:58.835856
28083,-0.5280,0.6895,0.3065,-1.820,-3.325,0.525,1,1,1,383,382,2025-06-05T16:18:58.835856
28084,-0.5104,0.6925,0.3040,-1.610,0.560,0.525,1,1,1,388,382,2025-06-05T16:18:58.835856
28085,-0.5026,0.7061,0.3040,-1.575,4.690,-0.140,1,1,1,347,375,2025-06-05T16:18:58.835856
28086,-0.5051,0.7208,0.3030,-1.575,7.560,-1.050,2,1,1,375,384,2025-06-05T16:18:58.835856
28087,-0.5163,0.7330,0.3001,-1.085,8.995,-1.855,1,1,1,380,318,2025-06-05T16:18:58.835856
28088,-0.5339,0.7427,0.2933,-0.770,8.960,-2.625,2,2,1,351,342,2025-06-05T16:18:58.835856
28089,-0.5461,0.7598,0.2923,-0.280,7.035,-3.325,1,1,1,375,367,2025-06-05T16:18:58.835856
28090,-0.5612,0.7710,0.2923,0.070,4.305,-3.710,1,1,1,384,385,2025-06-05T16:18:58.835856
28091,-0.5778,0.7730,0.2889,0.175,2.100,-4.025,1,1,1,374,347,2025-06-05T16:18:58.971436
28092,-0.6061,0.7647,0.2957,0.630,-1.225,-3.850,1,2,1,368,367,2025-06-05T16:18:58.971436
28093,-0.6217,0.7593,0.2991,0.980,-4.900,-2.870,2,1,1,385,341,2025-06-05T16:18:58.971436
28094,-0.6461,0.7491,0.3011,1.295,-9.030,-0.805,2,2,1,392,331,2025-06-05T16:18:58.971436
28095,-0.6510,0.7393,0.2962,1.715,-12.355,1.505,1,1,1,394,360,2025-06-05T16:18:58.971436
28096,-0.6534,0.7325,0.2982,2.240,-15.505,4.410,1,1,2,357,365,2025-06-05T16:18:58.971436
28097,-0.6285,0.7296,0.3094,1.925,-18.690,6.580,1,1,1,361,381,2025-06-05T16:18:58.971436
28098,-0.5695,0.7442,0.3182,1.155,-17.360,8.400,1,1,1,382,389,2025-06-05T16:18:58.971436
28099,-0.5241,0.7520,0.3279,0.035,-11.270,9.065,1,2,1,392,366,2025-06-05T16:18:58.971436
28100,-0.4978,0.7549,0.3270,-1.155,-3.325,8.715,1,1,1,358,377,2025-06-05T16:18:58.971436
28101,-0.4885,0.7608,0.3201,-2.730,2.870,8.050,1,1,1,369,385,2025-06-05T16:18:58.971436
28102,-0.4973,0.7549,0.3133,-4.060,9.660,7.420,1,1,1,377,392,2025-06-05T16:18:58.971436
28103,-0.5261,0.7466,0.3079,-4.970,13.300,6.580,1,1,2,383,380,2025-06-05T16:18:58.972156
28104,-0.5563,0.7281,0.3074,-5.005,13.020,5.915,2,2,1,372,389,2025-06-05T16:18:59.018948
28105,-0.5710,0.7222,0.3099,-4.270,10.010,5.285,1,1,1,393,380,2025-06-05T16:18:59.018948
28106,-0.5754,0.7188,0.3040,-3.255,5.810,4.795,2,2,2,390,350,2025-06-05T16:18:59.018948
28107,-0.5700,0.7164,0.2928,-2.485,2.520,3.955,1,2,2,386,382,2025-06-05T16:18:59.018948
28108,-0.5485,0.7198,0.2874,-1.435,-0.245,3.045,2,1,1,388,355,2025-06-05T16:18:59.073746
28109,-0.5246,0.7271,0.2894,-0.840,-1.120,1.470,2,1,2,376,376,2025-06-05T16:18:59.073746
28110,-0.5153,0.7266,0.2923,-0.840,-0.070,-0.280,2,1,2,387,386,2025-06-05T16:18:59.074750
28111,-0.5158,0.7281,0.2938,-0.630,1.610,-2.135,1,1,1,399,386,2025-06-05T16:18:59.074750
28112,-0.5256,0.7213,0.2928,-0.980,2.205,-3.745,2,2,1,390,394,2025-06-05T16:18:59.173823
28113,-0.5388,0.7198,0.2928,-0.980,1.715,-4.795,2,1,1,397,393,2025-06-05T16:18:59.173823
28114,-0.5431,0.7174,0.2923,-1.190,1.190,-5.740,2,1,1,390,348,2025-06-05T16:18:59.174134
28115,-0.5578,0.7188,0.2913,-1.295,0.070,-6.755,2,1,2,391,377,2025-06-05T16:18:59.174134
28116,-0.5612,0.7183,0.2982,-1.050,-0.665,-8.050,2,1,1,387,383,2025-06-05T16:18:59.174134
28117,-0.5549,0.7188,0.2977,-1.295,-0.945,-8.750,1,1,1,378,317,2025-06-05T16:18:59.174134
28118,-0.5597,0.7105,0.2948,-1.260,-1.190,-9.450,2,1,1,387,346,2025-06-05T16:18:59.174134
28119,-0.5695,0.7125,0.3001,-1.330,-1.190,-9.905,1,1,1,396,332,2025-06-05T16:18:59.174134
28120,-0.5768,0.7193,0.2991,-1.225,-1.400,-10.465,1,1,1,395,365,2025-06-05T16:18:59.174134
28121,-0.5846,0.7125,0.3011,-1.120,-1.995,-10.605,1,1,2,386,387,2025-06-05T16:18:59.222027
28122,-0.6007,0.7056,0.2987,-0.455,-2.415,-10.500,2,1,2,385,372,2025-06-05T16:18:59.222027
28123,-0.5998,0.7130,0.2987,0.175,-3.010,-10.115,1,2,1,386,382,2025-06-05T16:18:59.222027
28124,-0.5968,0.7159,0.2987,0.455,-2.975,-9.765,1,1,2,379,384,2025-06-05T16:18:59.222027
28125,-0.5871,0.7198,0.2948,1.155,-1.890,-9.310,2,1,1,390,387,2025-06-05T16:18:59.272793
28126,-0.5846,0.7281,0.2913,1.540,0.000,-0.070,2,2,1,388,363,2025-06-05T16:18:59.272793
28127,-0.5954,0.7335,0.2908,1.645,0.980,-8.470,2,1,1,393,384,2025-06-05T16:18:59.486069
28128,-0.6188,0.7330,0.2894,2.345,0.945,-7.630,1,2,1,397,375,2025-06-05T16:18:59.486069
28129,-0.6290,0.7305,0.2908,2.415,-0.315,-6.370,1,1,1,386,392,2025-06-05T16:18:59.486069
28130,-0.6227,0.7296,0.2913,2.870,-2.030,-5.005,2,2,2,399,393,2025-06-05T16:18:59.486069
28131,-0.6100,0.7349,0.2908,2.905,-2.345,-4.200,1,2,2,404,404,2025-06-05T16:18:59.486069
28132,-0.6124,0.7432,0.2908,2.940,-1.575,-3.920,2,2,1,396,367,2025-06-05T16:18:59.486069
28133,-0.6222,0.7379,0.2845,2.730,-1.890,-3.465,2,2,1,391,370,2025-06-05T16:18:59.486069
28134,-0.6290,0.7364,0.2777,2.345,-3.290,-1.960,2,1,1,348,378,2025-06-05T16:18:59.486069
28135,-0.6305,0.7315,0.2801,2.450,-4.795,-0.315,1,1,1,376,392,2025-06-05T16:18:59.486069
28136,-0.6266,0.7349,0.2801,1.925,-6.055,1.470,1,1,1,392,388,2025-06-05T16:18:59.486069
28137,-0.6212,0.7369,0.2782,1.330,-6.405,2.800,2,1,1,395,379,2025-06-05T16:18:59.486069
28138,-0.6120,0.7330,0.2757,0.525,-5.775,3.640,1,2,2,399,374,2025-06-05T16:18:59.486069
28139,-0.6085,0.7242,0.2767,-0.420,-5.110,4.305,2,2,1,397,371,2025-06-05T16:18:59.486069
28140,-0.6027,0.7266,0.2782,-1.120,-4.655,4.795,1,1,2,397,370,2025-06-05T16:18:59.486069
28141,-0.5929,0.7291,0.2777,-1.750,-3.395,4.725,1,1,1,397,370,2025-06-05T16:18:59.486069
28142,-0.5978,0.7364,0.2747,-2.485,-2.555,4.165,2,2,2,386,388,2025-06-05T16:18:59.612388
28143,-0.6012,0.7403,0.2689,-2.590,-2.940,3.325,2,1,2,389,350,2025-06-05T16:18:59.612388
28144,-0.6037,0.7393,0.2640,-3.115,-3.815,2.800,2,2,1,381,332,2025-06-05T16:18:59.612388
28145,-0.5939,0.7413,0.2669,-3.325,-4.900,2.905,2,2,2,388,358,2025-06-05T16:18:59.612388
28146,-0.5841,0.7515,0.2777,-3.885,-5.460,3.360,2,1,1,396,333,2025-06-05T16:18:59.612388
28147,-0.5802,0.7535,0.2884,-4.375,-5.145,3.605,1,2,1,400,370,2025-06-05T16:18:59.612388
28148,-0.5807,0.7530,0.2899,-4.550,-4.585,3.535,1,1,1,393,368,2025-06-05T16:18:59.612388
28149,-0.5856,0.7452,0.2801,-4.935,-4.410,3.430,2,1,1,382,350,2025-06-05T16:18:59.612388
28150,-0.5856,0.7398,0.2777,-4.760,-4.795,3.325,1,1,2,384,339,2025-06-05T16:18:59.612388
28151,-0.5812,0.7418,0.2782,-5.005,-4.935,3.570,2,2,1,372,328,2025-06-05T16:18:59.612388
28152,-0.5866,0.7340,0.2791,-5.005,-5.425,3.675,2,1,1,369,351,2025-06-05T16:18:59.612388
28153,-0.5900,0.7340,0.2855,-4.760,-5.670,3.850,1,1,1,373,363,2025-06-05T16:18:59.612388
28154,-0.5866,0.7354,0.2860,-4.760,-6.300,4.095,1,1,1,383,377,2025-06-05T16:18:59.612388
28155,-0.5846,0.7388,0.2821,-4.585,-6.405,4.305,1,2,1,388,375,2025-06-05T16:18:59.685384
28156,-0.5861,0.7379,0.2747,-4.655,-6.230,4.165,2,1,1,388,381,2025-06-05T16:18:59.686266
28157,-0.5773,0.7393,0.2728,-4.585,-5.810,3.955,2,1,1,348,340,2025-06-05T16:18:59.686369
28158,-0.5758,0.7354,0.2674,-4.760,-5.565,3.920,1,1,1,328,368,2025-06-05T16:18:59.686369
28159,-0.5719,0.7305,0.2728,-4.760,-5.005,4.060,2,1,1,359,374,2025-06-05T16:18:59.686369
28160,-0.5675,0.7320,0.2762,-4.620,-4.375,3.815,2,2,1,367,383,2025-06-05T16:18:59.686369
28161,-0.5700,0.7242,0.2796,-4.760,-4.305,3.535,1,1,1,384,386,2025-06-05T16:18:59.686369
28162,-0.5763,0.7232,0.2743,-4.690,-4.410,3.080,1,2,1,375,390,2025-06-05T16:18:59.686369
28163,-0.5734,0.7261,0.2723,-4.690,-5.180,2.520,1,2,1,388,388,2025-06-05T16:18:59.686369
28164,-0.5861,0.7257,0.2723,-4.725,-6.370,1.820,1,1,1,378,380,2025-06-05T16:18:59.750943
28165,-0.5827,0.7169,0.2772,-4.760,-7.245,0.875,2,2,1,372,393,2025-06-05T16:18:59.750943
28166,-0.5778,0.7120,0.2801,-4.690,-7.910,0.140,1,2,1,341,393,2025-06-05T16:18:59.750943
28167,-0.5627,0.7017,0.2821,-4.970,-7.945,-0.490,1,2,2,360,365,2025-06-05T16:18:59.750943
28168,-0.5563,0.6959,0.2860,-5.110,-7.210,-0.840,1,2,2,379,374,2025-06-05T16:18:59.891395
28169,-0.5563,0.6910,0.2884,-5.250,-6.370,-1.190,1,1,2,375,375,2025-06-05T16:18:59.891395
28170,-0.5553,0.6900,0.2899,-5.110,-5.285,-1.715,1,2,2,377,373,2025-06-05T16:18:59.892349
28171,-0.5636,0.6895,0.2879,-4.760,-4.830,-2.310,1,1,1,381,386,2025-06-05T16:18:59.892349
28172,-0.5695,0.6876,0.2826,-4.445,-4.725,-3.290,2,1,2,385,390,2025-06-05T16:18:59.892349
28173,-0.5802,0.6886,0.2782,-3.675,-4.760,-4.340,2,2,2,394,376,2025-06-05T16:18:59.892349
28174,-0.5846,0.6861,0.2801,-3.185,-5.495,-5.285,1,2,1,393,389,2025-06-05T16:18:59.892349
28175,-0.5788,0.6915,0.2860,-2.660,-5.985,-6.195,1,1,1,386,397,2025-06-05T16:18:59.892349
28176,-0.5817,0.6934,0.2987,-2.415,-6.440,-6.895,2,1,1,387,393,2025-06-05T16:18:59.892349
28177,-0.5734,0.6920,0.3050,-1.925,-6.020,-7.385,1,1,2,396,355,2025-06-05T16:18:59.892349
28178,-0.5768,0.6988,0.3074,-1.750,-5.390,-7.630,1,2,1,373,335,2025-06-05T16:18:59.892349
28179,-0.5793,0.7076,0.3021,-1.225,-5.040,-7.840,1,1,1,356,362,2025-06-05T16:18:59.892349
28180,-0.5841,0.7105,0.2952,-1.225,-4.795,-7.735,1,1,1,365,362,2025-06-05T16:18:59.892349
28181,-0.5915,0.7096,0.2938,-1.120,-5.390,-7.455,2,2,1,386,344,2025-06-05T16:18:59.958492
28182,-0.5973,0.7125,0.2967,-0.525,-5.670,-7.245,2,1,1,372,359,2025-06-05T16:18:59.958492
28183,-0.5988,0.7130,0.2991,-0.175,-5.985,-7.210,1,2,2,371,373,2025-06-05T16:18:59.958492
28184,-0.6095,0.7125,0.3026,0.770,-6.405,-7.175,2,1,2,378,381,2025-06-05T16:18:59.958492
28185,-0.6115,0.7086,0.2962,0.910,-6.755,-6.895,2,2,2,382,381,2025-06-05T16:19:00.400035
28186,-0.6080,0.7052,0.2952,1.400,-7.035,-6.475,2,1,1,386,376,2025-06-05T16:19:00.400035
28187,-0.5973,0.7091,0.2987,1.715,-7.140,-5.810,2,1,2,381,384,2025-06-05T16:19:00.400035
28188,-0.5929,0.7203,0.3011,2.100,-6.195,-5.145,1,2,1,394,399,2025-06-05T16:19:00.400035
28189,-0.5856,0.7340,0.2933,2.275,-4.900,-4.585,2,1,2,403,400,2025-06-05T16:19:00.400743
28190,-0.5919,0.7330,0.2806,2.415,-4.025,-4.130,1,2,1,356,321,2025-06-05T16:19:00.400743
28191,-0.6041,0.7252,0.2752,2.380,-3.815,-3.780,1,1,1,359,348,2025-06-05T16:19:00.400743
28192,-0.6149,0.7232,0.2801,2.555,-5.215,-3.115,1,1,1,379,368,2025-06-05T16:19:00.400743
28193,-0.6188,0.7183,0.2816,2.835,-7.175,-2.135,1,1,1,395,369,2025-06-05T16:19:00.400743
28194,-0.6076,0.7115,0.2801,3.185,-7.840,-1.330,1,2,1,351,378,2025-06-05T16:19:00.400743
28195,-0.5885,0.7066,0.2762,3.325,-7.420,-0.980,1,1,1,372,358,2025-06-05T16:19:00.400743
28196,-0.5807,0.7056,0.2718,3.535,-5.775,-0.805,2,2,1,383,339,2025-06-05T16:19:00.400743
28197,-0.5827,0.6998,0.2699,3.780,-3.780,-1.085,1,1,1,384,375,2025-06-05T16:19:00.400743
28198,-0.5968,0.6964,0.2660,4.095,-2.800,-1.400,1,2,2,390,386,2025-06-05T16:19:00.400743
28199,-0.6090,0.6949,0.2679,4.690,-3.185,-1.855,2,1,1,378,382,2025-06-05T16:19:00.400743
28200,-0.6061,0.6993,0.2723,5.250,-4.410,-1.925,1,1,1,389,392,2025-06-05T16:19:00.400743
28201,-0.6046,0.7047,0.2713,5.600,-5.075,-2.030,2,2,1,355,379,2025-06-05T16:19:00.401739
28202,-0.5958,0.7076,0.2708,5.670,-5.145,-2.450,1,2,1,370,350,2025-06-05T16:19:00.401739
28203,-0.5983,0.7125,0.2699,5.810,-4.655,-2.940,1,1,1,377,376,2025-06-05T16:19:00.401739
28204,-0.5978,0.7149,0.2738,5.495,-4.445,-3.185,1,1,1,389,373,2025-06-05T16:19:00.401739
28205,-0.5954,0.7183,0.2811,5.110,-4.760,-3.045,1,1,1,390,398,2025-06-05T16:19:00.401739
28206,-0.5973,0.7227,0.2835,4.550,-5.145,-2.870,1,1,1,400,364,2025-06-05T16:19:00.401739
28207,-0.6017,0.7296,0.2933,3.885,-5.355,-2.450,2,2,1,401,337,2025-06-05T16:19:00.472890
28208,-0.6222,0.7418,0.2967,3.115,-6.125,-2.310,2,1,2,398,357,2025-06-05T16:19:00.472890
28209,-0.6349,0.7574,0.3006,2.380,-7.770,-2.065,2,1,1,386,379,2025-06-05T16:19:00.472890
28210,-0.6466,0.7740,0.3123,1.610,-10.150,-1.260,1,1,1,384,376,2025-06-05T16:19:00.472890
28211,-0.6612,0.7867,0.3201,1.120,-12.845,0.000,2,1,2,356,382,2025-06-05T16:19:00.472890
28212,-0.6788,0.7940,0.3338,0.525,-15.400,1.295,1,1,2,376,392,2025-06-05T16:19:00.472890
28213,-0.6900,0.8052,0.3514,0.175,-18.830,2.065,1,1,1,382,402,2025-06-05T16:19:00.473940
28214,-0.6822,0.8086,0.3684,0.630,-22.855,3.605,1,1,1,395,389,2025-06-05T16:19:00.473940
28215,-0.6686,0.8076,0.3787,0.875,-24.325,5.670,2,2,1,394,397,2025-06-05T16:19:00.473940
28216,-0.6525,0.8076,0.3811,1.330,-24.745,6.825,2,2,1,391,377,2025-06-05T16:19:00.473940
28217,-0.6105,0.8013,0.3919,1.400,-23.135,7.560,2,2,2,395,381,2025-06-05T16:19:00.473940
28218,-0.5944,0.8169,0.4046,0.665,-19.355,8.155,2,2,1,352,309,2025-06-05T16:19:00.473940
28219,-0.6246,0.8433,0.4319,-0.035,-16.485,9.205,1,2,1,367,353,2025-06-05T16:19:00.473940
28220,-0.6676,0.8467,0.4348,-1.295,-18.410,11.375,1,1,1,343,356,2025-06-05T16:19:00.473940
28221,-0.7178,0.8252,0.4333,-2.100,-24.290,14.945,2,1,1,368,334,2025-06-05T16:19:00.473940
28222,-0.7637,0.7969,0.4202,-2.065,-31.605,19.635,2,2,1,377,374,2025-06-05T16:19:00.473940
28223,-0.7725,0.7671,0.4143,-1.470,-42.420,23.485,2,1,1,391,369,2025-06-05T16:19:00.473940
28224,-0.7471,0.7418,0.4202,-0.910,-50.820,27.580,1,2,1,382,343,2025-06-05T16:19:00.473940
28225,-0.6939,0.7120,0.4294,0.350,-55.160,30.660,1,1,1,373,371,2025-06-05T16:19:00.473940
28226,-0.6486,0.6812,0.4343,0.980,-55.860,32.515,1,1,1,372,383,2025-06-05T16:19:00.473940
28227,-0.6012,0.6583,0.4338,1.925,-53.480,33.355,1,1,1,386,397,2025-06-05T16:19:00.473940
28228,-0.5841,0.6300,0.4207,2.520,-47.705,33.355,1,1,1,392,390,2025-06-05T16:19:00.473940
28229,-0.5588,0.6056,0.4216,3.395,-41.090,32.760,2,2,2,386,382,2025-06-05T16:19:00.617488
28230,-0.5383,0.5861,0.4241,4.095,-32.725,32.340,1,1,1,390,380,2025-06-05T16:19:00.617488
28231,-0.5412,0.5602,0.4207,3.920,-25.550,31.815,2,2,1,399,382,2025-06-05T16:19:00.617488
28232,-0.5358,0.5334,0.4226,5.355,-20.370,31.675,2,2,1,396,382,2025-06-05T16:19:00.617488
28233,-0.5305,0.5314,0.4202,7.070,-16.380,31.290,2,1,2,388,384,2025-06-05T16:19:00.617488
28234,-0.5183,0.5241,0.4124,8.610,-13.125,30.520,2,1,1,380,390,2025-06-05T16:19:00.617488
28235,-0.4714,0.5314,0.3933,10.255,-8.295,28.210,1,1,1,394,360,2025-06-05T16:19:00.617488
28236,-0.4582,0.5295,0.3758,10.500,-1.960,25.655,1,1,1,384,375,2025-06-05T16:19:00.617488
28237,-0.4626,0.5319,0.3728,11.655,3.535,22.925,1,2,1,393,365,2025-06-05T16:19:00.617488
28238,-0.4826,0.5378,0.3582,12.390,7.420,20.720,1,1,1,380,376,2025-06-05T16:19:00.617488
28239,-0.5017,0.5212,0.3436,12.880,10.535,19.040,1,1,1,381,380,2025-06-05T16:19:00.618475
28240,-0.5002,0.5207,0.3245,12.775,12.355,16.905,1,1,1,382,397,2025-06-05T16:19:00.618475
28241,-0.5051,0.5217,0.3162,12.110,13.930,14.560,2,2,2,395,398,2025-06-05T16:19:00.709186
28242,-0.5173,0.5226,0.3206,11.585,15.540,11.270,2,1,2,398,396,2025-06-05T16:19:00.709186
28243,-0.5236,0.5300,0.3255,11.585,16.415,8.015,1,2,1,397,384,2025-06-05T16:19:00.709186
28244,-0.4992,0.5451,0.3387,10.885,15.855,5.810,0,1,1,382,394,2025-06-05T16:19:00.709186
28245,-0.4758,0.5963,0.3553,9.940,15.190,4.550,1,1,1,390,403,2025-06-05T16:19:00.709186
28246,-0.4573,0.6271,0.3567,8.085,16.660,3.045,2,2,1,382,368,2025-06-05T16:19:00.709186
28247,-0.4431,0.6651,0.3528,4.690,18.900,0.560,1,1,1,376,387,2025-06-05T16:19:00.709186
28248,-0.4431,0.6993,0.3592,1.260,21.140,-2.695,2,1,2,348,341,2025-06-05T16:19:00.709186
28249,-0.4451,0.7486,0.3601,-3.395,22.295,-5.180,1,1,1,362,366,2025-06-05T16:19:00.709186
28250,-0.4348,0.8023,0.3802,-7.525,21.105,-5.565,2,1,1,384,371,2025-06-05T16:19:00.813361
28251,-0.4270,0.8545,0.4119,-10.675,18.515,-3.780,2,1,2,391,383,2025-06-05T16:19:00.813579
28252,-0.4192,0.8940,0.4006,-12.775,15.995,0.105,2,2,1,394,355,2025-06-05T16:19:00.813579
28253,-0.4582,0.9340,0.3626,-14.350,12.250,2.835,1,2,2,382,339,2025-06-05T16:19:00.813579
28254,-0.4885,0.9448,0.2928,-14.910,5.845,3.500,1,2,1,392,375,2025-06-05T16:19:00.813579
28255,-0.4870,0.9697,0.2303,-13.335,0.560,2.100,1,1,1,399,371,2025-06-05T16:19:00.813579
28256,-0.4812,0.9897,0.1864,-10.710,-1.960,0.245,1,1,2,407,373,2025-06-05T16:19:00.813579
28257,-0.4939,0.9882,0.1532,-7.945,-1.085,-3.850,1,2,1,402,378,2025-06-05T16:19:00.813579
28258,-0.5148,0.9750,0.1469,-5.530,0.665,-8.645,2,1,2,394,390,2025-06-05T16:19:00.862215
28259,-0.5612,0.9536,0.1781,-3.675,1.015,-11.235,1,2,1,401,387,2025-06-05T16:19:00.862215
28260,-0.6105,0.9326,0.2308,0.000,-1.050,-9.730,2,2,2,397,386,2025-06-05T16:19:00.863228
28261,-0.6061,0.9223,0.2523,4.690,-7.315,-5.950,2,2,2,393,391,2025-06-05T16:19:00.863228
28262,-0.5861,0.8979,0.2284,7.420,-14.385,-0.280,2,1,1,395,395,2025-06-05T16:19:00.913347
28263,-0.5388,0.8901,0.1762,8.400,-17.780,4.620,2,2,1,397,392,2025-06-05T16:19:00.913347
28264,-0.4817,0.8804,0.1322,9.380,-16.765,8.085,1,2,1,382,388,2025-06-05T16:19:00.913347
28265,-0.4470,0.8423,0.1103,8.470,-11.515,9.415,1,1,2,398,383,2025-06-05T16:19:00.913347
28266,-0.4631,0.8106,0.1157,7.805,-3.290,8.750,1,1,1,383,381,2025-06-05T16:19:00.913347
28267,-0.4885,0.7515,0.1259,8.050,3.780,6.230,2,1,1,393,391,2025-06-05T16:19:01.053002
28268,-0.5353,0.7178,0.1537,9.870,5.810,3.885,2,2,1,397,393,2025-06-05T16:19:01.053002
28269,-0.5422,0.7032,0.1518,14.455,2.275,2.415,1,2,1,365,381,2025-06-05T16:19:01.053002
28270,-0.5163,0.6808,0.1410,16.590,-1.680,2.205,1,1,1,366,389,2025-06-05T16:19:01.053002
28271,-0.4880,0.6690,0.1327,17.675,-5.565,2.625,1,1,1,382,393,2025-06-05T16:19:01.053002
28272,-0.4538,0.6832,0.1381,17.185,-8.015,3.745,1,2,1,345,373,2025-06-05T16:19:01.053002
28273,-0.4309,0.6964,0.1542,16.170,-11.235,5.670,0,2,0,338,387,2025-06-05T16:19:01.053002
28274,-0.4216,0.7198,0.1576,15.435,-13.230,7.420,2,1,2,357,387,2025-06-05T16:19:01.053002
28275,-0.4363,0.7291,0.1547,14.350,-14.385,7.315,1,1,2,386,358,2025-06-05T16:19:01.432240
28276,-0.4182,0.7437,0.1508,14.210,-13.755,5.250,1,1,1,371,367,2025-06-05T16:19:01.432610
28277,-0.4285,0.7535,0.1391,14.665,-13.755,2.835,1,2,1,386,391,2025-06-05T16:19:01.691160
28278,-0.4246,0.7486,0.1425,15.400,-13.650,0.350,1,1,1,385,385,2025-06-05T16:19:01.691160
28279,-0.4148,0.7681,0.1601,16.380,-12.110,-1.225,1,2,1,387,375,2025-06-05T16:19:01.691160
28280,-0.4607,0.7881,0.1542,17.710,-11.935,-2.765,2,2,2,385,388,2025-06-05T16:19:01.691160
28281,-0.4948,0.8189,0.1464,19.530,-15.155,-3.990,2,1,2,396,385,2025-06-05T16:19:01.691160
28282,-0.4904,0.8394,0.1830,21.105,-20.685,-4.270,1,2,2,396,350,2025-06-05T16:19:01.691160
28283,-0.4860,0.8633,0.2006,22.855,-24.395,-2.590,1,1,1,390,362,2025-06-05T16:19:01.691160
28284,-0.4968,0.8867,0.2123,24.360,-26.775,-0.735,1,1,1,398,370,2025-06-05T16:19:01.691160
28285,-0.4665,0.9023,0.2294,26.880,-28.350,0.175,1,2,1,404,347,2025-06-05T16:19:01.691160
28286,-0.4602,0.9165,0.2294,30.065,-26.880,0.700,2,1,1,400,367,2025-06-05T16:19:01.691160
28287,-0.4514,0.9199,0.2045,30.695,-20.755,-0.315,1,1,0,371,377,2025-06-05T16:19:01.691160
28288,-0.4636,0.9213,0.2069,30.590,-13.055,-3.465,1,1,2,391,371,2025-06-05T16:19:01.691160
28289,-0.4773,0.9453,0.2445,28.315,-4.900,-5.355,2,1,1,348,305,2025-06-05T16:19:01.691160
28290,-0.5109,0.9511,0.2943,25.130,-2.905,-5.110,2,1,1,354,320,2025-06-05T16:19:01.691160
28291,-0.5104,0.9506,0.3479,21.560,-3.395,-2.205,1,1,1,378,362,2025-06-05T16:19:01.691160
28292,-0.5231,0.9531,0.3626,18.970,-7.000,3.605,2,2,1,384,332,2025-06-05T16:19:01.691160
28293,-0.5256,0.9516,0.3440,15.645,-14.140,9.450,2,1,1,376,371,2025-06-05T16:19:01.691160
28294,-0.4743,0.9233,0.3099,13.370,-17.430,15.470,2,2,2,384,376,2025-06-05T16:19:01.691160
28295,-0.4948,0.8808,0.2528,9.765,-17.395,19.810,2,1,1,349,384,2025-06-05T16:19:01.691160
28296,-0.5075,0.8233,0.2494,7.210,-16.450,20.510,1,2,1,367,381,2025-06-05T16:19:01.691160
28297,-0.5466,0.7896,0.2879,5.950,-12.845,19.495,2,1,1,355,368,2025-06-05T16:19:01.691160
28298,-0.5905,0.7462,0.3143,7.000,-10.990,17.325,2,2,1,377,389,2025-06-05T16:19:01.691160
28299,-0.6027,0.7071,0.3099,8.155,-11.095,14.385,1,1,2,387,388,2025-06-05T16:19:01.691160
28300,-0.6134,0.6739,0.2791,8.715,-11.410,10.465,1,1,1,378,397,2025-06-05T16:19:01.691160
28301,-0.5617,0.6622,0.2689,8.820,-12.285,6.440,2,1,2,384,363,2025-06-05T16:19:01.692020
28302,-0.4948,0.6593,0.2625,7.385,-12.145,4.305,2,1,2,390,391,2025-06-05T16:19:01.692020
28303,-0.4748,0.6559,0.2235,3.710,-10.955,3.045,1,2,1,394,362,2025-06-05T16:19:01.692020
28304,-0.4690,0.6554,0.2113,-0.805,-10.710,0.035,2,2,2,386,348,2025-06-05T16:19:01.692020
28305,-0.4241,0.6866,0.2484,-4.550,-8.190,-2.730,1,2,0,358,371,2025-06-05T16:19:01.692020
28306,-0.4094,0.7066,0.2977,-8.260,-4.865,-4.095,2,1,2,378,372,2025-06-05T16:19:01.692020
28307,-0.4026,0.7213,0.3518,-10.815,-2.345,-4.235,2,2,1,385,376,2025-06-05T16:19:01.692020
28308,-0.4055,0.7335,0.3528,-12.810,-1.960,-5.390,1,2,1,355,339,2025-06-05T16:19:01.692020
28309,-0.4085,0.7520,0.3157,-15.470,-1.715,-7.455,2,1,2,333,360,2025-06-05T16:19:01.692020
28310,-0.3928,0.7803,0.2713,-19.705,-2.275,-9.975,2,1,1,358,373,2025-06-05T16:19:01.692020
28311,-0.3958,0.8086,0.2367,-23.660,-4.795,-11.690,1,1,1,365,379,2025-06-05T16:19:01.692020
28312,-0.4075,0.8320,0.2396,-26.600,-8.505,-13.405,1,1,1,371,344,2025-06-05T16:19:01.692020
28313,-0.4621,0.8750,0.2616,-26.985,-14.910,-14.420,2,1,1,364,373,2025-06-05T16:19:01.692020
28314,-0.4695,0.9165,0.2874,-25.795,-21.805,-14.945,1,1,1,339,361,2025-06-05T16:19:01.692020
28315,-0.4919,0.9409,0.2728,-24.150,-28.245,-16.485,1,2,2,361,385,2025-06-05T16:19:01.692020
28316,-0.4895,0.9677,0.2406,-22.785,-30.380,-19.075,1,1,1,335,383,2025-06-05T16:19:01.692020
28317,-0.4782,0.9677,0.2084,-22.400,-30.135,-20.650,2,1,1,325,388,2025-06-05T16:19:01.692020
28318,-0.4348,0.9360,0.1859,-21.805,-28.455,-20.825,2,1,1,358,400,2025-06-05T16:19:01.692020
28319,-0.4085,0.9067,0.1962,-20.650,-26.565,-17.955,1,1,1,375,388,2025-06-05T16:19:01.692020
28320,-0.4158,0.8691,0.1874,-17.500,-25.305,-13.300,1,2,1,386,358,2025-06-05T16:19:01.692020
28321,-0.4455,0.8804,0.2006,-13.125,-25.480,-9.450,1,2,1,386,382,2025-06-05T16:19:01.692020
28322,-0.4690,0.8857,0.1962,-7.350,-24.710,-7.000,2,1,1,400,384,2025-06-05T16:19:01.692020
28323,-0.5222,0.8603,0.1835,-1.610,-24.430,-5.985,2,2,1,379,345,2025-06-05T16:19:01.692020
28324,-0.5856,0.8379,0.1962,1.995,-27.965,-5.180,2,2,2,385,366,2025-06-05T16:19:01.734194
28325,-0.6017,0.8018,0.2025,5.110,-36.540,-3.605,1,1,1,388,381,2025-06-05T16:19:01.734194
28326,-0.5524,0.7569,0.2040,6.545,-48.020,-1.085,1,2,1,380,394,2025-06-05T16:19:01.734194
28327,-0.4573,0.7310,0.1947,7.525,-56.210,3.605,1,1,1,394,389,2025-06-05T16:19:01.734194
28328,-0.3875,0.7559,0.2128,9.730,-59.185,7.315,1,1,1,377,389,2025-06-05T16:19:01.734660
28329,-0.3743,0.8042,0.2630,12.215,-50.890,7.245,2,1,1,389,401,2025-06-05T16:19:01.734660
28330,-0.3948,0.8262,0.2699,12.180,-37.380,1.190,1,2,1,395,399,2025-06-05T16:19:01.734660
28331,-0.4143,0.8316,0.2669,12.250,-25.375,-6.965,1,2,1,350,381,2025-06-05T16:19:01.734660
28332,-0.4426,0.8184,0.2157,6.930,-20.965,-14.840,1,1,1,371,379,2025-06-05T16:19:01.734660
28333,-0.3928,0.8369,0.1903,-0.980,-26.320,-18.410,2,0,2,370,351,2025-06-05T16:19:01.734660
28334,-0.3172,0.8272,0.1532,-12.075,-38.500,-16.555,1,1,1,382,376,2025-06-05T16:19:01.734660
28335,-0.2972,0.8428,0.1752,-20.405,-55.230,-9.380,2,2,2,393,381,2025-06-05T16:19:01.792843
28336,-0.3894,0.9414,0.1586,-35.630,-70.665,-2.800,1,1,2,393,394,2025-06-05T16:19:01.792843
28337,-0.4329,0.9941,0.1801,-30.590,-87.570,1.295,1,2,2,397,386,2025-06-05T16:19:01.792991
28338,-0.2704,0.9662,0.1972,-33.705,-97.755,6.965,2,2,1,385,378,2025-06-05T16:19:01.792991
28339,-0.3221,1.0014,0.1640,-36.785,-101.080,11.480,1,3,2,394,389,2025-06-05T16:19:01.792991
28340,-0.2865,1.0375,0.0576,-37.065,-102.305,19.810,2,1,1,395,380,2025-06-05T16:19:01.941451
28341,-0.4168,1.1395,-0.0581,-39.550,-109.865,26.950,1,1,2,396,376,2025-06-05T16:19:01.941451
28342,-0.5339,1.2703,-0.2020,-37.380,-130.515,41.685,1,2,1,391,383,2025-06-05T16:19:01.941451
28343,-0.8091,1.4620,-0.4011,-33.425,-182.560,65.800,2,2,1,394,317,2025-06-05T16:19:01.941451
28344,-0.8096,1.8564,-0.5695,-33.810,-258.090,102.235,1,1,2,382,352,2025-06-05T16:19:01.941451
28345,-0.3084,2.4903,-0.8306,-26.110,-307.090,149.905,1,1,1,384,336,2025-06-05T16:19:01.941451
28346,0.2879,3.3921,-1.1624,-14.910,-316.260,179.270,1,1,1,394,373,2025-06-05T16:19:01.941451
28347,0.9545,4.4227,-1.3635,-13.895,-258.160,203.805,1,1,1,369,378,2025-06-05T16:19:01.941451
28348,1.5089,5.1567,-1.6319,-26.390,-153.195,207.970,2,1,1,382,353,2025-06-05T16:19:01.941451
28349,1.1507,5.5061,-1.8534,-76.650,-65.380,195.615,1,2,1,394,337,2025-06-05T16:19:01.942181
28350,-0.2582,5.1308,-2.1018,-135.800,-49.630,182.490,1,1,1,389,363,2025-06-05T16:19:01.942181
28351,-1.6836,4.0685,-2.0989,-170.555,-133.700,171.290,1,1,2,401,370,2025-06-05T16:19:01.942181
28352,-2.0716,2.7167,-1.3176,-215.635,-253.855,155.855,1,2,2,404,372,2025-06-05T16:19:02.062270
28353,-1.5177,1.3908,0.2284,-265.930,-391.475,131.600,1,1,1,388,379,2025-06-05T16:19:02.062270
28354,-0.5378,0.3802,1.2566,-314.265,-442.540,88.305,2,1,1,397,387,2025-06-05T16:19:02.062270
28355,0.9087,-0.8520,1.6387,-376.495,-347.830,-4.690,2,2,1,384,379,2025-06-05T16:19:02.063283
28356,1.6431,-2.6118,1.3093,-428.400,-166.705,-119.245,2,2,1,379,368,2025-06-05T16:19:02.063283
28357,0.9194,-4.3861,0.9994,-440.265,-11.375,-206.395,1,1,1,376,363,2025-06-05T16:19:02.063584
28358,-0.1732,-5.2099,1.1434,-390.915,9.205,-253.330,1,1,2,365,374,2025-06-05T16:19:02.063584
28359,-0.6822,-5.4319,1.5660,-313.530,-80.500,-281.260,1,1,1,384,394,2025-06-05T16:19:02.063584
28360,-0.2752,-4.8585,1.5309,-203.070,-148.575,-259.770,2,2,2,392,392,2025-06-05T16:19:02.063584
28361,0.6451,-3.4736,1.3669,-135.555,-151.305,-220.185,1,1,1,397,351,2025-06-05T16:19:02.063584
28362,1.6358,-2.5820,0.9540,-37.065,-31.780,-134.435,2,2,1,399,366,2025-06-05T16:19:02.145769
28363,1.3776,-1.0785,0.3426,9.275,83.335,-35.875,1,1,2,404,388,2025-06-05T16:19:02.145769
28364,1.5065,-0.2908,-0.0883,51.590,152.635,59.010,1,1,2,401,350,2025-06-05T16:19:02.145769
28365,1.6070,-0.1498,0.0005,70.525,226.590,130.375,1,1,2,402,385,2025-06-05T16:19:02.145769
28366,0.6183,-0.5061,0.3782,48.755,250.320,174.790,2,1,1,395,389,2025-06-05T16:19:02.145769
28367,-0.3367,-0.9311,0.8901,70.035,185.920,181.790,2,1,1,390,388,2025-06-05T16:19:02.145769
28368,-0.7227,-1.0375,1.0882,130.025,27.860,172.165,2,1,1,389,395,2025-06-05T16:19:02.145769
28369,-0.2323,-0.9448,0.9350,152.845,-104.720,164.640,1,1,1,396,386,2025-06-05T16:19:02.215484
28370,0.6598,-0.8374,0.9399,155.050,-134.750,153.545,1,2,2,378,395,2025-06-05T16:19:02.215484
28371,1.1063,-0.4080,0.9682,151.865,-74.340,136.150,1,1,2,383,398,2025-06-05T16:19:02.215484
28372,1.1190,0.0132,0.9496,131.600,6.510,121.940,2,2,1,343,381,2025-06-05T16:19:02.215484
28373,0.9609,0.0444,0.8638,96.320,65.485,117.635,2,1,2,366,397,2025-06-05T16:19:02.349769
28374,0.7823,-0.0346,0.7715,82.740,105.140,112.665,2,2,1,387,398,2025-06-05T16:19:02.349769
28375,0.6608,0.0185,0.7867,78.540,139.615,95.585,1,2,1,392,401,2025-06-05T16:19:02.349769
28376,0.4416,0.2235,0.8530,77.525,160.930,73.430,1,2,1,398,395,2025-06-05T16:19:02.349769
28377,0.2943,0.2347,0.8311,79.625,169.330,47.845,1,1,1,401,388,2025-06-05T16:19:02.349769
28378,0.0620,0.2245,0.7740,80.150,162.225,31.710,1,1,1,351,385,2025-06-05T16:19:02.349769
28379,-0.2274,0.2074,0.6637,79.835,133.455,20.895,1,1,1,367,378,2025-06-05T16:19:02.349769
28380,-0.3733,0.1781,0.5700,85.680,98.455,15.365,1,1,1,377,343,2025-06-05T16:19:02.349769
28381,-0.2440,0.3719,0.6324,84.945,63.210,12.040,1,1,1,337,367,2025-06-05T16:19:02.349769
28382,-0.1283,0.5329,0.7422,79.170,49.035,9.940,1,1,1,356,372,2025-06-05T16:19:02.350765
28383,-0.0386,0.6827,0.8486,75.565,52.500,6.790,2,1,2,365,389,2025-06-05T16:19:02.350765
28384,0.0239,0.8130,0.8735,64.050,61.495,3.115,1,1,1,370,349,2025-06-05T16:19:02.350765
28385,0.0361,0.8189,0.8355,54.390,74.795,-1.400,1,2,2,336,363,2025-06-05T16:19:02.350765
28386,0.0068,0.7364,0.7696,44.870,84.560,-5.355,1,2,1,366,380,2025-06-05T16:19:02.400209
28387,0.0683,0.8062,0.8301,42.245,94.745,-7.035,2,1,1,370,396,2025-06-05T16:19:02.400209
28388,0.1235,0.8818,0.8335,42.560,107.240,-11.270,2,1,1,372,360,2025-06-05T16:19:02.400209
28389,0.0454,0.9189,0.7642,41.930,117.600,-18.480,1,2,1,366,380,2025-06-05T16:19:02.400209
28390,-0.1923,0.8467,0.6500,39.655,115.080,-25.760,1,2,1,382,380,2025-06-05T16:19:02.552540
28391,-0.4094,0.7906,0.5207,42.525,87.885,-26.950,1,2,1,384,390,2025-06-05T16:19:02.552540
28392,-0.4163,0.8194,0.5553,46.585,55.615,-21.490,1,1,1,376,348,2025-06-05T16:19:02.552540
28393,-0.2869,0.9101,0.7135,47.320,23.660,-17.045,1,1,1,367,362,2025-06-05T16:19:02.552540
28394,-0.2567,0.9267,0.7993,50.715,7.175,-17.465,1,2,2,387,339,2025-06-05T16:19:02.552540
28395,-0.1757,0.9472,0.7910,53.935,-1.610,-22.470,1,2,1,392,361,2025-06-05T16:19:02.552540
28396,-0.0488,0.9584,0.6549,52.185,-2.660,-24.780,2,1,1,398,341,2025-06-05T16:19:02.552540
28397,0.0151,0.9599,0.5231,44.905,-0.245,-21.875,1,1,1,385,372,2025-06-05T16:19:02.552540
28398,0.0342,0.9955,0.5685,37.100,3.675,-17.500,1,1,1,377,383,2025-06-05T16:19:02.552540
28399,0.0093,1.0282,0.6656,31.570,12.460,-15.610,1,2,1,381,373,2025-06-05T16:19:02.552540
28400,-0.0215,1.0355,0.7383,25.095,20.755,-15.085,1,1,2,391,375,2025-06-05T16:19:02.552540
28401,-0.0429,1.0175,0.7413,21.490,26.915,-16.275,1,1,1,383,386,2025-06-05T16:19:02.552540
28402,-0.0654,0.9599,0.7081,21.210,29.365,-17.290,1,1,1,373,383,2025-06-05T16:19:02.552540
28403,-0.0844,0.9394,0.6603,21.385,29.995,-18.865,2,1,1,340,341,2025-06-05T16:19:02.598838
28404,-0.1537,0.8911,0.6134,23.065,27.195,-20.370,2,1,1,367,357,2025-06-05T16:19:02.599408
28405,-0.1498,0.8642,0.6217,24.395,20.685,-20.615,2,2,1,383,378,2025-06-05T16:19:02.599408
28406,-0.1615,0.8438,0.6080,26.355,14.315,-18.970,2,2,1,392,390,2025-06-05T16:19:02.599408
28407,-0.1786,0.8403,0.6012,27.475,8.190,-17.780,2,2,2,381,387,2025-06-05T16:19:02.658023
28408,-0.1781,0.8369,0.5968,27.720,4.060,-16.555,1,1,1,375,378,2025-06-05T16:19:02.658023
28409,-0.1859,0.8428,0.6295,27.405,2.135,-15.400,2,2,1,382,349,2025-06-05T16:19:02.658023
28410,-0.1669,0.8491,0.6808,27.825,4.480,-15.575,1,1,2,383,372,2025-06-05T16:19:02.658710
28411,-0.1479,0.8472,0.7037,27.440,10.920,-17.395,1,2,2,399,385,2025-06-05T16:19:02.767704
28412,-0.1318,0.8125,0.6622,25.515,20.020,-20.615,1,2,1,387,389,2025-06-05T16:19:02.767704
28413,-0.1659,0.7725,0.6012,24.605,26.670,-23.345,2,2,1,382,400,2025-06-05T16:19:02.767704
28414,-0.2045,0.7237,0.5524,23.870,27.650,-23.940,2,1,1,375,385,2025-06-05T16:19:02.767704
28415,-0.2425,0.7105,0.5446,23.275,26.285,-23.030,1,1,1,373,394,2025-06-05T16:19:02.767704
28416,-0.2757,0.7554,0.5373,24.150,22.470,-21.455,1,1,1,371,398,2025-06-05T16:19:02.767704
28417,-0.2474,0.7735,0.5348,22.645,18.235,-20.230,2,2,1,383,385,2025-06-05T16:19:02.767704
28418,-0.2811,0.7701,0.5505,22.400,14.560,-17.780,1,2,1,382,378,2025-06-05T16:19:02.767704
28419,-0.2874,0.7637,0.5851,23.730,8.330,-14.105,1,1,1,378,393,2025-06-05T16:19:02.767704
28420,-0.2655,0.7598,0.6134,25.025,3.605,-11.410,1,2,1,374,390,2025-06-05T16:19:02.767704
28421,-0.2245,0.7696,0.5978,25.655,2.940,-11.130,1,2,1,382,384,2025-06-05T16:19:02.817483
28422,-0.1952,0.7876,0.5719,25.095,9.205,-12.775,2,1,1,381,390,2025-06-05T16:19:02.817483
28423,-0.1928,0.8150,0.5397,23.415,19.915,-15.470,1,2,1,392,388,2025-06-05T16:19:02.817483
28424,-0.1932,0.8267,0.5173,19.775,28.980,-19.040,2,2,1,392,394,2025-06-05T16:19:02.817483
28425,-0.2381,0.7989,0.4939,16.590,31.570,-18.690,1,2,1,395,390,2025-06-05T16:19:02.864889
28426,-0.2850,0.7881,0.4992,14.490,25.690,-14.980,2,2,1,379,389,2025-06-05T16:19:02.864889
28427,-0.3353,0.7749,0.5095,14.175,16.380,-11.550,1,2,1,392,398,2025-06-05T16:19:03.394113
28428,-0.3362,0.8106,0.5246,13.370,4.690,-10.500,2,1,1,382,393,2025-06-05T16:19:03.394113
28429,-0.3216,0.8276,0.5163,12.950,-2.835,-11.725,2,2,2,398,364,2025-06-05T16:19:03.394530
28430,-0.2884,0.8301,0.5129,10.710,-5.250,-14.385,2,2,1,392,344,2025-06-05T16:19:03.394530
28431,-0.2323,0.8179,0.4992,0.350,-3.185,-16.240,1,1,1,395,370,2025-06-05T16:19:03.394530
28432,-0.1620,0.7940,0.5061,6.440,1.610,-16.135,2,2,2,400,386,2025-06-05T16:19:03.394530
28433,-0.1386,0.7920,0.5012,3.500,9.940,-15.085,1,2,2,394,381,2025-06-05T16:19:03.394530
28434,-0.1840,0.7979,0.4973,1.050,18.865,-14.735,1,2,1,388,382,2025-06-05T16:19:03.394530
28435,-0.2713,0.8179,0.5022,-1.995,24.115,-15.505,2,1,2,389,381,2025-06-05T16:19:03.394530
28436,-0.3548,0.8276,0.5085,-3.640,24.290,-15.680,2,1,2,397,391,2025-06-05T16:19:03.394530
28437,-0.4124,0.8398,0.5202,-4.900,19.355,-15.995,1,2,2,406,399,2025-06-05T16:19:03.395163
28438,-0.4368,0.8623,0.5212,-5.390,13.650,-16.450,2,2,1,399,403,2025-06-05T16:19:03.395163
28439,-0.4558,0.8706,0.5163,-5.985,6.545,-17.955,1,1,1,400,402,2025-06-05T16:19:03.395163
28440,-0.4348,0.8789,0.5119,-6.895,-0.210,-18.515,1,1,1,386,381,2025-06-05T16:19:03.395163
28441,-0.3924,0.8579,0.5036,-7.280,-6.195,-16.555,2,1,1,396,399,2025-06-05T16:19:03.395163
28442,-0.3318,0.8213,0.4865,-7.840,-10.605,-12.075,1,1,1,353,390,2025-06-05T16:19:03.395163
28443,-0.2869,0.8028,0.4719,-7.385,-11.585,-6.720,1,1,1,360,386,2025-06-05T16:19:03.395163
28444,-0.2503,0.8052,0.4563,-7.560,-9.695,-3.255,1,1,1,365,383,2025-06-05T16:19:03.395163
28445,-0.2430,0.8174,0.4616,-8.015,-4.375,-1.400,2,1,1,374,364,2025-06-05T16:19:03.395163
28446,-0.2938,0.8257,0.4792,-7.175,1.855,-1.820,2,2,1,372,333,2025-06-05T16:19:03.395163
28447,-0.3133,0.8374,0.4807,-5.880,4.935,-3.255,2,1,2,340,320,2025-06-05T16:19:03.395163
28448,-0.3323,0.8130,0.4685,-4.445,5.180,-2.870,2,1,2,363,361,2025-06-05T16:19:03.395163
28449,-0.3455,0.7945,0.4426,-1.190,3.185,-1.890,1,1,2,391,363,2025-06-05T16:19:03.395163
28450,-0.3338,0.7832,0.4290,2.240,0.560,0.385,1,2,1,398,370,2025-06-05T16:19:03.395163
28451,-0.3035,0.7915,0.4148,4.725,-0.385,3.570,2,1,2,395,382,2025-06-05T16:19:03.395163
28452,-0.2811,0.8150,0.4089,6.475,3.500,6.510,1,2,2,401,347,2025-06-05T16:19:03.395163
28453,-0.2708,0.8320,0.4270,6.965,7.735,7.665,2,2,1,394,374,2025-06-05T16:19:03.395163
28454,-0.2708,0.8467,0.4563,6.195,13.405,8.575,1,2,1,391,373,2025-06-05T16:19:03.395163
28455,-0.2708,0.8501,0.6222,5.215,18.270,10.605,2,1,1,391,390,2025-06-05T16:19:03.395163
28456,-0.2782,0.8755,0.5183,2.555,21.035,13.230,1,1,2,387,395,2025-06-05T16:19:03.395163
28457,-0.2616,0.8940,0.5187,-1.960,23.835,15.820,2,2,1,395,386,2025-06-05T16:19:03.395163
28458,-0.2435,0.9082,0.4773,-5.390,24.360,17.850,1,2,2,382,353,2025-06-05T16:19:03.395163
28459,-0.2650,0.9623,0.4353,-11.095,30.555,18.585,1,2,1,386,381,2025-06-05T16:19:03.396152
28460,-0.3392,0.8657,0.3948,-16.100,32.165,16.625,1,1,1,387,387,2025-06-05T16:19:03.396152
28461,-0.4158,0.8594,0.3865,-16.660,29.365,14.350,2,1,1,395,394,2025-06-05T16:19:03.396152
28462,-0.4900,0.8257,0.3924,-14.070,20.475,12.040,1,2,1,392,365,2025-06-05T16:19:03.396152
28463,-0.5100,0.7935,0.3850,-11.060,12.845,9.905,2,1,1,384,380,2025-06-05T16:19:03.396152
28464,-0.5334,0.7637,0.3806,-6.125,2.345,6.720,1,2,1,392,388,2025-06-05T16:19:03.396152
28465,-0.4919,0.7403,0.3806,0.140,-6.475,4.760,1,2,1,381,377,2025-06-05T16:19:03.396152
28466,-0.4314,0.7227,0.3733,5.110,-12.145,3.255,1,2,1,392,355,2025-06-05T16:19:03.396152
28467,-0.3933,0.7091,0.3572,10.675,-12.635,1.435,2,2,1,389,374,2025-06-05T16:19:03.396152
28468,-0.3592,0.6915,0.3426,14.910,-8.610,-1.995,2,2,1,382,376,2025-06-05T16:19:03.396152
28469,-0.3694,0.6622,0.3523,18.340,-4.200,-4.935,2,1,1,381,392,2025-06-05T16:19:03.396152
28470,-0.3826,0.6451,0.3836,23.170,-1.645,-6.335,1,1,2,392,398,2025-06-05T16:19:03.396152
28471,-0.3728,0.6295,0.3836,26.635,-1.295,-6.475,2,2,1,353,390,2025-06-05T16:19:03.396152
28472,-0.3338,0.6466,0.3719,28.840,-0.105,-6.580,1,1,1,360,393,2025-06-05T16:19:03.423353
28473,-0.3021,0.6700,0.3558,30.940,2.800,-6.860,2,2,1,376,404,2025-06-05T16:19:03.424351
28474,-0.2840,0.6788,0.3514,30.765,6.125,-7.210,1,2,1,372,400,2025-06-05T16:19:03.424351
28475,-0.2723,0.6866,0.3470,30.940,10.605,-8.715,2,2,2,384,389,2025-06-05T16:19:03.424351
28476,-0.2879,0.7100,0.3523,30.240,15.190,-10.955,2,1,1,375,379,2025-06-05T16:19:03.482199
28477,-0.3314,0.7403,0.3767,30.170,17.185,-13.335,1,1,2,372,379,2025-06-05T16:19:03.482199
28478,-0.3704,0.7627,0.4002,30.975,15.505,-14.595,1,1,1,378,352,2025-06-05T16:19:03.482199
28479,-0.3753,0.7876,0.4060,30.835,11.550,-14.420,2,2,1,336,365,2025-06-05T16:19:03.483192
28480,-0.3733,0.7857,0.4275,30.625,5.565,-12.495,1,2,2,377,388,2025-06-05T16:19:03.608187
28481,-0.3806,0.7842,0.4455,31.360,0.560,-8.890,1,2,2,390,398,2025-06-05T16:19:03.608187
28482,-0.4109,0.8096,0.4656,32.130,-3.430,-5.425,2,2,1,388,364,2025-06-05T16:19:03.608187
28483,-0.4319,0.8506,0.4792,32.900,-6.930,-2.765,1,1,2,385,388,2025-06-05T16:19:03.608187
28484,-0.4280,0.9033,0.4821,33.845,-9.310,-0.665,1,2,1,391,383,2025-06-05T16:19:03.608187
28485,-0.4260,0.9433,0.4885,33.775,-10.290,0.735,1,1,1,395,384,2025-06-05T16:19:03.608187
28486,-0.4616,0.9579,0.4943,33.180,-10.535,-0.035,2,1,1,383,374,2025-06-05T16:19:03.608187
28487,-0.4880,0.9467,0.5012,31.815,-12.460,-2.940,1,1,1,373,372,2025-06-05T16:19:03.608187
28488,-0.4704,0.9238,0.5266,31.220,-16.625,-5.005,2,2,1,382,382,2025-06-05T16:19:03.608187
28489,-0.4319,0.8965,0.5270,30.870,-21.350,-3.815,2,2,2,393,387,2025-06-05T16:19:03.608187
28490,-0.3811,0.8799,0.5065,31.570,-25.900,-1.540,2,2,1,384,393,2025-06-05T16:19:03.609215
28491,-0.3143,0.8677,0.4797,31.115,-26.775,1.995,2,1,1,381,379,2025-06-05T16:19:03.663631
28492,-0.2791,0.8564,0.4592,30.555,-24.115,3.745,2,2,2,374,390,2025-06-05T16:19:03.663631
28493,-0.2811,0.8340,0.4290,29.820,-21.000,3.885,1,2,1,392,391,2025-06-05T16:19:03.664181
28494,-0.2918,0.8150,0.4002,28.875,-9.520,3.290,1,2,1,384,356,2025-06-05T16:19:03.664181
28495,-0.3226,0.8018,0.3904,28.315,-15.155,2.100,2,1,2,375,374,2025-06-05T16:19:03.783176
28496,-0.4895,0.7818,0.3943,26.915,-13.510,-1.330,1,2,1,389,375,2025-06-05T16:19:03.783176
28497,-0.4202,0.7549,0.3982,25.340,-15.120,-4.060,1,1,1,394,380,2025-06-05T16:19:03.783176
28498,-0.4416,0.7325,0.3899,24.290,-19.425,-6.125,1,2,0,352,377,2025-06-05T16:19:03.784173
28499,-0.4363,0.7193,0.3772,22.330,-23.590,-6.825,2,1,1,335,379,2025-06-05T16:19:03.784173
28500,-0.4475,0.7159,0.3680,20.790,-26.495,-7.455,1,1,1,374,357,2025-06-05T16:19:03.784173
28501,-0.4275,0.7208,0.3802,17.115,-26.670,-9.065,1,1,2,370,347,2025-06-05T16:19:03.784173
28502,-0.3938,0.7183,0.3987,12.740,-25.620,-9.695,1,1,1,338,359,2025-06-05T16:19:03.784173
28503,-0.3431,0.7374,0.4280,7.420,-21.140,-10.080,1,1,1,328,336,2025-06-05T16:19:03.784173
28504,-0.3265,0.7379,0.4465,3.150,-15.400,-10.325,1,1,1,346,330,2025-06-05T16:19:03.784173
28505,-0.2850,0.7403,0.4612,-2.555,-0.350,-9.835,1,2,2,360,358,2025-06-05T16:19:03.784173
28506,-0.2908,0.7525,0.4607,-8.575,-1.995,-9.135,2,2,1,380,341,2025-06-05T16:19:03.830999
28507,-0.2991,0.7701,0.4597,-13.895,5.110,-8.960,2,1,2,388,364,2025-06-05T16:19:03.832015
28508,-0.3221,0.7915,0.4509,-18.550,11.200,-8.365,1,1,1,397,374,2025-06-05T16:19:03.832015
28509,-0.3523,0.7984,0.4343,-23.030,12.425,-7.385,2,2,1,388,386,2025-06-05T16:19:03.832015
28510,-0.3650,0.8115,0.4246,-25.165,10.115,-6.300,2,2,1,389,391,2025-06-05T16:19:03.881623
28511,-0.3992,0.8130,0.4202,-27.580,7.840,-5.180,2,2,1,389,351,2025-06-05T16:19:03.881623
28512,-0.4416,0.8442,0.4221,-27.860,4.235,-6.125,2,2,1,384,333,2025-06-05T16:19:03.881623
28513,-0.4675,0.8608,0.4119,-28.595,1.015,-9.415,1,1,1,345,357,2025-06-05T16:19:03.881623
28514,-0.4690,0.8677,0.4133,-29.855,0.070,-13.230,2,2,2,377,381,2025-06-05T16:19:03.989511
28515,-0.4997,0.8442,0.4353,-30.275,-1.295,-15.365,1,2,1,377,374,2025-06-05T16:19:03.989511
28516,-0.5192,0.8076,0.4768,-29.785,-3.920,-14.735,2,2,2,344,377,2025-06-05T16:19:03.989511
28517,-0.4909,0.7828,0.4978,-27.160,-10.220,-10.955,1,1,1,365,389,2025-06-05T16:19:03.989511
28518,-0.4509,0.7779,0.4792,-23.940,-16.800,-3.815,2,2,1,377,393,2025-06-05T16:19:03.989511
28519,-0.3870,0.7813,0.4421,-21.665,-18.445,2.835,1,2,1,371,383,2025-06-05T16:19:03.989511
28520,-0.3606,0.7974,0.3850,-20.020,-12.985,5.670,1,1,0,344,350,2025-06-05T16:19:03.989511
28521,-0.3714,0.8194,0.3592,-18.480,-5.775,4.060,1,1,1,324,333,2025-06-05T16:19:03.989511
28522,-0.4041,0.8418,0.3548,-18.095,3.080,-8.260,1,2,0,327,369,2025-06-05T16:19:03.989511
28523,-0.4841,0.8496,0.3670,-16.905,8.435,-4.900,1,2,2,374,375,2025-06-05T16:19:04.101419
28524,-0.5588,0.8340,0.3792,-16.100,7.525,-10.150,2,1,2,383,379,2025-06-05T16:19:04.101419
28525,-0.5802,0.8072,0.3933,-14.735,-0.175,-13.475,1,2,1,381,374,2025-06-05T16:19:04.101419
28526,-0.5505,0.7774,0.4041,-12.880,-8.820,-12.495,2,1,2,375,373,2025-06-05T16:19:04.101919
28527,-0.4895,0.7754,0.4075,-11.585,-19.215,-0.070,1,2,1,383,392,2025-06-05T16:19:04.101919
28528,-0.3919,0.7871,0.3919,-10.920,-24.570,-3.290,1,1,1,392,352,2025-06-05T16:19:04.101919
28529,-0.3255,0.7993,0.2533,-10.430,-22.330,1.820,1,1,1,383,367,2025-06-05T16:19:04.101919
28530,-0.2889,0.8120,0.3689,-10.850,-14.700,4.060,1,1,1,393,365,2025-06-05T16:19:04.101919
28531,-0.3030,0.7979,0.3811,-10.780,-7.560,4.025,2,1,1,393,374,2025-06-05T16:19:04.101919
28532,-0.3504,0.7964,0.3924,-9.100,-0.525,3.045,2,1,1,398,378,2025-06-05T16:19:04.393772
28533,-0.3880,0.8062,0.3870,-6.545,1.890,1.645,2,2,1,398,387,2025-06-05T16:19:04.394418
28534,-0.4460,0.7964,0.3680,-3.640,-0.140,0.770,1,1,2,405,393,2025-06-05T16:19:04.394418
28535,-0.4787,0.7740,0.3592,-0.770,-8.295,0.630,2,2,1,402,393,2025-06-05T16:19:04.394418
28536,-0.4699,0.7413,0.3426,2.765,-26.040,2.975,1,2,1,397,391,2025-06-05T16:19:04.394418
28537,-0.4651,0.7125,0.3314,6.685,-29.155,5.495,1,1,1,395,383,2025-06-05T16:19:04.394418
28538,-0.4402,0.7169,0.3357,10.885,-37.100,6.475,1,2,1,398,380,2025-06-05T16:19:04.394418
28539,-0.4119,0.7276,0.3499,13.720,-38.780,3.780,2,1,1,390,392,2025-06-05T16:19:04.394418
28540,-0.3582,0.7544,0.3704,16.100,-35.490,-1.085,2,1,0,347,374,2025-06-05T16:19:04.394418
28541,-0.3065,0.7666,0.3811,17.745,-29.855,-6.160,1,1,1,371,381,2025-06-05T16:19:04.394418
28542,-0.3040,0.7764,0.3816,17.745,-20.090,-10.535,1,2,0,338,351,2025-06-05T16:19:04.394418
28543,-0.3377,0.7784,0.3802,17.255,-13.335,-15.505,1,1,2,357,364,2025-06-05T16:19:04.394418
28544,-0.3499,0.7803,0.3850,15.890,-12.040,-17.535,1,2,1,363,381,2025-06-05T16:19:04.394418
28545,-0.3587,0.7803,0.3797,14.455,-14.350,-16.345,1,1,1,337,382,2025-06-05T16:19:04.394418
28546,-0.3767,0.7832,0.3704,12.740,-18.550,-14.385,1,1,1,365,377,2025-06-05T16:19:04.394418
28547,-0.4119,0.8120,0.3782,10.675,-22.435,-14.175,1,0,1,379,388,2025-06-05T16:19:04.394418
28548,-0.4187,0.8281,0.4031,8.785,-27.265,-14.910,2,1,1,382,395,2025-06-05T16:19:04.395397
28549,-0.3992,0.8281,0.4231,6.860,-30.870,-15.855,2,2,1,395,397,2025-06-05T16:19:04.500280
28550,-0.3650,0.8086,0.4412,3.990,-32.865,-16.310,1,1,1,394,389,2025-06-05T16:19:04.500280
28551,-0.3538,0.7808,0.4621,1.820,-31.815,-15.505,2,2,1,394,396,2025-06-05T16:19:04.501055
28552,-0.3421,0.7798,0.4704,-1.015,-30.170,-15.400,1,2,2,386,366,2025-06-05T16:19:04.501055
28553,-0.3309,0.7735,0.4685,-4.025,-25.690,-15.085,2,2,2,383,363,2025-06-05T16:19:04.501055
28554,-0.3367,0.7871,0.4636,-5.985,-19.320,-15.925,1,0,1,356,344,2025-06-05T16:19:04.501055
28555,-0.3528,0.7813,0.4534,-8.785,-13.405,-17.010,1,1,1,364,340,2025-06-05T16:19:04.501055
28556,-0.4011,0.7788,0.4451,-9.345,-12.845,-18.095,1,1,1,333,354,2025-06-05T16:19:04.501055
28557,-0.4397,0.7681,0.4372,-10.780,-18.375,-16.800,1,1,2,378,342,2025-06-05T16:19:04.502057
28558,-0.4563,0.7676,0.4353,-10.080,-26.705,-10.885,1,1,1,385,369,2025-06-05T16:19:04.502057
28559,-0.4207,0.7920,0.4202,-9.100,-39.480,-4.130,2,1,1,392,384,2025-06-05T16:19:04.502057
28560,-0.3650,0.8355,0.3928,-8.540,-50.330,5.530,2,1,1,398,400,2025-06-05T16:19:04.502057
28561,-0.2894,0.9008,0.3631,-7.980,-53.305,13.825,1,2,1,399,395,2025-06-05T16:19:04.502057
28562,-0.2767,0.9804,0.3421,-9.590,-50.890,17.570,2,1,1,396,383,2025-06-05T16:19:04.502057
28563,-0.3304,1.0067,0.3436,-12.145,-51.555,21.070,0,2,1,396,396,2025-06-05T16:19:04.502057
28564,-0.3699,1.0375,0.3977,-19.845,-61.355,25.165,2,1,1,397,397,2025-06-05T16:19:04.502057
28565,-0.4382,1.0516,0.4026,-33.600,-80.535,33.355,1,2,1,399,388,2025-06-05T16:19:04.502809
28566,-0.5168,1.1854,0.3318,-44.625,-111.615,47.215,2,1,1,321,375,2025-06-05T16:19:04.548626
28567,-0.6051,1.2952,0.1654,-53.655,-152.530,65.240,2,2,1,344,347,2025-06-05T16:19:04.548626
28568,-0.6481,1.6265,-0.0137,-53.270,-206.745,87.990,1,1,1,357,366,2025-06-05T16:19:04.548626
28569,-0.4934,2.0706,-0.3387,-52.255,-259.175,126.000,2,1,0,347,382,2025-06-05T16:19:04.548626
28570,-0.0664,2.9124,-0.6617,-29.890,-319.900,182.035,2,2,1,369,392,2025-06-05T16:19:04.607535
28571,0.5841,4.2114,-0.9306,-3.185,-330.050,226.450,2,1,2,381,403,2025-06-05T16:19:04.607535
28572,1.4616,4.6990,-1.2800,-28.385,-272.650,252.210,1,1,1,390,403,2025-06-05T16:19:04.607535
28573,1.6250,5.0230,-1.4567,-76.615,-170.170,234.675,1,2,2,401,402,2025-06-05T16:19:04.607535
28574,1.1766,4.9317,-1.5401,-127.785,-100.905,186.830,2,2,1,393,396,2025-06-05T16:19:04.704191
28575,0.0059,4.2524,-1.5899,-145.180,-109.235,125.195,2,1,1,394,359,2025-06-05T16:19:04.704370
28576,-0.9989,3.1583,-1.4952,-173.250,-180.005,64.260,2,2,1,378,382,2025-06-05T16:19:04.704370
28577,-1.2171,2.1335,-1.0502,-214.795,-317.940,6.125,2,1,1,372,378,2025-06-05T16:19:04.862762
28578,-0.7554,0.9233,-0.0220,-274.505,-451.710,-36.435,2,2,1,371,383,2025-06-05T16:19:04.862762
28579,-0.0307,-0.0766,1.2112,-342.020,-514.430,-93.905,1,1,1,389,381,2025-06-05T16:19:04.862762
28580,1.1956,-1.5733,1.9842,-411.915,-470.400,-159.810,1,1,1,373,380,2025-06-05T16:19:04.862762
28581,2.1931,-4.5335,2.3146,-490.035,-283.745,-227.815,1,2,1,365,367,2025-06-05T16:19:04.862762
28582,1.7158,-6.4021,1.9579,-494.060,-60.375,-265.755,2,1,1,354,329,2025-06-05T16:19:04.862762
28583,1.0980,-6.3621,1.4196,-438.165,50.645,-303.345,1,1,1,354,354,2025-06-05T16:19:04.862762
28584,1.2180,-5.5905,1.0756,-309.155,91.735,-299.425,1,1,2,379,370,2025-06-05T16:19:04.862762
28585,1.0224,-3.6678,0.5012,-105.315,108.535,-248.535,1,1,1,390,384,2025-06-05T16:19:04.862762
28586,0.9755,-2.2707,-0.0083,46.690,137.900,-138.390,2,1,1,398,358,2025-06-05T16:19:04.862762
28587,0.7047,-0.7213,-0.2918,64.120,170.135,-0.805,2,2,2,404,389,2025-06-05T16:19:04.862762
28588,0.6886,-0.1537,-0.2889,76.405,168.805,131.740,1,1,0,338,396,2025-06-05T16:19:04.862762
28589,0.6368,-0.6632,0.1806,93.310,122.325,224.945,2,2,1,372,404,2025-06-05T16:19:04.862762
28590,0.1230,-1.4328,0.7876,125.650,107.415,259.560,2,1,1,383,391,2025-06-05T16:19:04.862762
28591,-0.3318,-1.5753,0.9916,160.965,90.160,252.875,2,1,2,376,395,2025-06-05T16:19:04.908639
28592,-0.1191,-1.3498,1.1605,180.355,17.710,224.385,2,1,1,340,393,2025-06-05T16:19:04.908639
28593,0.2728,-0.8833,1.1570,189.805,-16.660,190.470,2,1,1,365,392,2025-06-05T16:19:04.908639
28594,0.5763,-0.4089,1.1180,173.075,13.230,159.810,2,2,1,379,385,2025-06-05T16:19:04.908639
28595,0.8789,-0.0439,1.0141,153.265,72.835,129.605,2,2,1,387,385,2025-06-05T16:19:04.908639
28596,0.9135,0.1937,0.7715,123.235,125.160,106.155,1,1,1,391,388,2025-06-05T16:19:04.909635
28597,0.7881,0.2660,0.5880,87.045,160.755,91.070,2,1,1,347,374,2025-06-05T16:19:04.909635
28598,0.6969,0.2157,0.5651,68.320,189.700,72.380,1,1,1,359,382,2025-06-05T16:19:04.909635
28599,0.4060,0.3128,0.6534,68.250,198.695,66.255,1,2,2,385,377,2025-06-05T16:19:04.909635
28600,0.0122,0.3860,0.7154,64.085,181.510,52.430,2,2,1,377,383,2025-06-05T16:19:05.012222
28601,-0.3499,0.5319,0.8179,67.095,135.135,42.805,1,1,1,378,354,2025-06-05T16:19:05.012222
28602,-0.4900,0.6808,0.8428,73.535,70.105,36.820,2,2,1,390,385,2025-06-05T16:19:05.012361
28603,-0.2826,0.6603,0.7754,74.900,28.490,29.890,2,1,1,390,391,2025-06-05T16:19:05.012361
28604,-0.0088,0.7330,0.7871,71.890,11.095,18.130,1,1,1,389,376,2025-06-05T16:19:05.012361
28605,0.2508,0.7554,0.7993,70.595,29.015,-4.375,1,2,1,392,378,2025-06-05T16:19:05.012361
28606,0.3850,0.7764,0.8247,72.415,62.580,-22.995,1,1,1,398,383,2025-06-05T16:19:05.012361
28607,0.2552,0.8076,0.7818,66.920,86.940,-31.675,1,1,1,395,378,2025-06-05T16:19:05.012361
28608,0.0478,0.8072,0.6578,62.125,95.270,-31.185,1,2,2,396,388,2025-06-05T16:19:05.063940
28609,-0.1493,0.8530,0.6217,58.870,89.740,-27.300,2,1,1,378,356,2025-06-05T16:19:05.063940
28610,-0.0913,0.9472,0.8091,53.270,75.950,-25.340,1,2,1,341,372,2025-06-05T16:19:05.063940
28611,0.0483,0.9843,0.9379,52.150,73.955,-27.545,1,1,1,365,388,2025-06-05T16:19:05.063940
28612,0.0522,0.9755,0.9379,51.100,76.615,-32.690,1,0,2,372,393,2025-06-05T16:19:05.063940
28613,0.0376,0.9750,0.7945,51.380,73.605,-39.620,1,1,1,371,384,2025-06-05T16:19:05.113064
28614,-0.0244,0.9594,0.6466,50.295,64.085,-40.880,2,2,1,372,381,2025-06-05T16:19:05.113210
28615,-0.1078,0.9306,0.5051,47.950,46.340,-36.330,2,2,1,387,382,2025-06-05T16:19:05.113210
28616,-0.1186,0.9960,0.5212,45.745,30.730,-30.030,1,1,1,345,370,2025-06-05T16:19:05.113210
28617,-0.0405,1.0638,0.7052,40.950,19.180,-27.895,2,2,1,372,343,2025-06-05T16:19:05.321653
28618,-0.0142,1.1239,0.8208,38.570,20.615,-28.770,1,1,1,343,326,2025-06-05T16:19:05.321653
28619,-0.0146,1.0741,0.8267,36.750,28.140,-33.040,2,1,2,369,374,2025-06-05T16:19:05.321653
28620,-0.0498,0.9653,0.7720,35.700,35.980,-38.500,2,1,1,381,374,2025-06-05T16:19:05.321653
28621,-0.1249,0.8794,0.6549,34.265,34.510,-39.375,1,2,1,346,371,2025-06-05T16:19:05.321653
28622,-0.2137,0.8623,0.5583,33.600,21.385,-33.810,1,1,1,370,377,2025-06-05T16:19:05.321653
28623,-0.2630,0.8730,0.5466,32.025,5.320,-22.855,1,1,1,387,383,2025-06-05T16:19:05.321653
28624,-0.2020,0.8926,0.6529,28.945,-9.905,-13.930,1,2,1,380,394,2025-06-05T16:19:05.321653
28625,-0.1845,0.9101,0.7213,27.195,-17.045,-6.965,1,1,1,387,393,2025-06-05T16:19:05.321653
28626,-0.1503,0.9052,0.7803,27.510,-17.360,-7.385,1,1,1,384,403,2025-06-05T16:19:05.321653
28627,-0.0927,0.8589,0.7823,27.125,-11.725,-11.200,1,1,1,373,386,2025-06-05T16:19:05.321653
28628,-0.0810,0.8164,0.7349,27.195,-0.525,-15.050,2,1,1,353,382,2025-06-05T16:19:05.321653
28629,-0.1088,0.7969,0.6583,28.245,12.285,-17.850,1,1,2,380,388,2025-06-05T16:19:05.321653
28630,-0.1615,0.7632,0.5807,28.210,21.210,-18.410,2,2,0,353,384,2025-06-05T16:19:05.321653
28631,-0.2157,0.7388,0.5744,28.000,21.840,-12.740,1,1,1,379,381,2025-06-05T16:19:05.321653
28632,-0.2255,0.7198,0.6456,28.735,17.115,-3.185,1,1,1,369,375,2025-06-05T16:19:05.321653
28633,-0.2079,0.7286,0.6930,30.520,14.560,4.935,2,2,2,391,387,2025-06-05T16:19:05.321653
28634,-0.1962,0.7237,0.6773,32.270,18.970,8.680,1,2,2,391,386,2025-06-05T16:19:05.421793
28635,-0.1444,0.7422,0.6032,34.755,30.975,5.880,2,2,2,390,394,2025-06-05T16:19:05.421793
28636,-0.0615,0.7613,0.5407,32.620,48.125,-1.365,1,1,1,389,389,2025-06-05T16:19:05.421793
28637,-0.1015,0.7481,0.4616,28.595,63.245,-7.455,2,1,1,380,396,2025-06-05T16:19:05.421793
28638,-0.2367,0.7427,0.4119,27.650,67.340,-11.130,1,2,1,389,390,2025-06-05T16:19:05.421793
28639,-0.2991,0.7422,0.4485,25.410,59.500,-11.060,2,1,1,391,378,2025-06-05T16:19:05.421793
28640,-0.2874,0.7808,0.5031,24.745,47.215,-7.665,1,1,1,389,383,2025-06-05T16:19:05.421793
28641,-0.2655,0.8101,0.5202,23.625,37.660,-3.675,1,2,1,390,395,2025-06-05T16:19:05.421793
28642,-0.2352,0.8486,0.5163,22.470,34.510,-5.110,2,1,1,397,381,2025-06-05T16:19:05.724807
28643,-0.1771,0.8774,0.4870,19.425,39.970,-10.990,2,1,1,398,397,2025-06-05T16:19:05.724807
28644,-0.1771,0.8784,0.4465,14.210,46.795,-18.585,1,2,1,392,396,2025-06-05T16:19:05.724807
28645,-0.1752,0.8613,0.4163,9.100,51.800,-22.750,1,0,2,387,399,2025-06-05T16:19:05.724807
28646,-0.1850,0.8218,0.4168,6.370,53.760,-22.890,1,1,2,392,370,2025-06-05T16:19:05.724807
28647,-0.2172,0.7959,0.4265,6.335,53.550,-19.425,0,1,1,395,345,2025-06-05T16:19:05.724807
28648,-0.2391,0.8032,0.4002,7.140,49.210,-15.925,1,1,1,376,370,2025-06-05T16:19:05.724807
28649,-0.2499,0.8042,0.3777,7.665,46.200,-12.880,1,1,1,347,382,2025-06-05T16:19:05.724807
28650,-0.2723,0.8120,0.3616,6.510,45.010,-12.355,2,2,1,371,377,2025-06-05T16:19:05.724807
28651,-0.3221,0.8252,0.3680,7.035,43.540,-13.020,1,2,1,380,389,2025-06-05T16:19:05.724807
28652,-0.3235,0.8306,0.3831,7.805,39.410,-14.280,2,1,2,380,391,2025-06-05T16:19:05.724807
28653,-0.2923,0.8208,0.3924,8.190,35.105,-14.735,1,1,1,347,382,2025-06-05T16:19:05.724807
28654,-0.2542,0.8213,0.4011,8.540,34.580,-13.195,1,1,1,371,393,2025-06-05T16:19:05.724807
28655,-0.2577,0.8286,0.3987,8.190,35.805,-11.900,1,1,1,383,397,2025-06-05T16:19:05.724807
28656,-0.2367,0.8769,0.4011,6.545,36.260,-9.905,2,2,1,384,369,2025-06-05T16:19:05.724807
28657,-0.2469,0.9077,0.4055,3.395,37.555,-7.070,1,2,2,375,378,2025-06-05T16:19:05.724807
28658,-0.3084,0.9252,0.4172,0.595,38.080,-5.145,1,1,1,389,395,2025-06-05T16:19:05.724807
28659,-0.3714,0.9609,0.4353,-1.925,38.045,-6.440,2,2,1,348,388,2025-06-05T16:19:05.830295
28660,-0.4109,1.0043,0.4392,-2.555,37.765,-10.325,2,1,1,368,399,2025-06-05T16:19:05.830295
28661,-0.4182,1.0243,0.4372,-3.535,36.330,-12.775,1,2,2,368,368,2025-06-05T16:19:05.830295
28662,-0.4392,1.0150,0.4260,-3.360,31.850,-12.880,1,1,1,373,369,2025-06-05T16:19:05.830295
28663,-0.4338,0.9916,0.4055,-3.115,24.255,-10.080,1,1,1,368,386,2025-06-05T16:19:05.830295
28664,-0.4216,0.9409,0.3909,-3.675,18.305,-5.530,1,1,1,382,321,2025-06-05T16:19:05.830295
28665,-0.4285,0.9121,0.3806,-3.815,14.560,-1.960,2,1,1,367,348,2025-06-05T16:19:05.830295
28666,-0.4353,0.8911,0.3958,-3.850,11.550,-0.700,1,1,1,386,378,2025-06-05T16:19:05.830295
28667,-0.4524,0.8813,0.3992,-2.870,11.025,-0.805,2,1,1,358,344,2025-06-05T16:19:05.830295
28668,-0.4534,0.8564,0.3904,-1.680,10.535,-2.170,1,2,1,376,365,2025-06-05T16:19:05.830295
28669,-0.4421,0.8198,0.3792,-0.630,10.465,-3.010,1,1,1,375,341,2025-06-05T16:19:05.830295
28670,-0.4416,0.7950,0.3660,0.525,10.605,-3.850,2,2,1,370,380,2025-06-05T16:19:05.830765
28671,-0.4402,0.7627,0.3445,0.980,11.060,-4.270,0,0,1,387,383,2025-06-05T16:19:05.830765
28672,-0.4704,0.7330,0.3318,1.925,9.555,-5.285,1,1,2,394,388,2025-06-05T16:19:05.830765
28673,-0.4787,0.7110,0.3362,2.450,5.740,-6.020,1,1,1,387,390,2025-06-05T16:19:05.830765
28674,-0.4885,0.7013,0.3289,3.990,1.155,-6.160,2,1,1,378,395,2025-06-05T16:19:05.830765
28675,-0.4773,0.6886,0.3201,6.405,-1.890,-5.495,1,1,2,388,393,2025-06-05T16:19:05.830765
28676,-0.4519,0.6827,0.3157,7.945,-4.305,-4.830,1,1,2,398,401,2025-06-05T16:19:05.935985
28677,-0.4133,0.6793,0.3182,8.995,-5.670,-3.535,1,2,1,386,398,2025-06-05T16:19:05.936043
28678,-0.3738,0.6769,0.3206,9.590,-4.165,-2.170,2,1,2,390,386,2025-06-05T16:19:05.936043
28679,-0.3572,0.6817,0.3201,10.150,0.140,-2.170,2,1,1,378,391,2025-06-05T16:19:05.936043
28680,-0.3714,0.6852,0.3201,10.150,4.375,-3.920,3,1,1,387,397,2025-06-05T16:19:05.936043
28681,-0.3943,0.7022,0.3118,11.060,6.755,-6.825,2,2,0,363,383,2025-06-05T16:19:05.936043
28682,-0.4187,0.7100,0.3240,12.075,8.925,-9.310,2,1,1,373,383,2025-06-05T16:19:05.936043
28683,-0.4480,0.7105,0.3240,13.475,8.365,-12.355,1,1,1,372,390,2025-06-05T16:19:05.936043
28684,-0.4631,0.7169,0.3231,14.945,4.270,-13.965,1,0,1,373,395,2025-06-05T16:19:05.936043
28685,-0.4494,0.7344,0.3143,16.695,-1.155,-14.140,1,2,1,369,395,2025-06-05T16:19:06.037772
28686,-0.4455,0.7330,0.3026,17.780,-5.040,-12.810,1,2,2,382,390,2025-06-05T16:19:06.037772
28687,-0.4177,0.7481,0.3060,18.655,-8.365,-11.445,1,1,1,374,387,2025-06-05T16:19:06.037772
28688,-0.4006,0.7759,0.3343,19.600,-8.575,-9.660,2,2,2,390,397,2025-06-05T16:19:06.037772
28689,-0.4050,0.8140,0.3484,20.020,-5.705,-9.660,1,2,2,393,400,2025-06-05T16:19:06.037772
28690,-0.3826,0.8447,0.3640,20.545,-0.175,-10.325,2,2,1,387,403,2025-06-05T16:19:06.037772
28691,-0.3924,0.8642,0.3606,20.895,5.320,-10.325,2,1,1,384,356,2025-06-05T16:19:06.037772
28692,-0.4080,0.9028,0.3606,20.545,10.850,-9.765,1,1,1,383,376,2025-06-05T16:19:06.037772
28693,-0.4573,0.9326,0.3494,19.635,12.180,-8.120,1,2,1,391,373,2025-06-05T16:19:06.037772
28694,-0.5007,0.9599,0.3509,19.600,8.575,-5.355,1,2,1,390,386,2025-06-05T16:19:06.137506
28695,-0.5158,0.9736,0.3533,18.900,1.085,-1.470,1,1,2,398,386,2025-06-05T16:19:06.137506
28696,-0.5046,0.9648,0.3558,18.830,-4.690,2.415,2,1,1,354,375,2025-06-05T16:19:06.137506
28697,-0.4782,0.9536,0.3797,18.970,-8.610,5.320,2,1,1,375,393,2025-06-05T16:19:06.138503
28698,-0.4319,0.9438,0.4168,18.795,-8.715,7.595,1,2,1,375,396,2025-06-05T16:19:06.138503
28699,-0.3855,0.9277,0.4329,18.935,-5.460,9.765,2,1,1,375,394,2025-06-05T16:19:06.138503
28700,-0.3860,0.8979,0.4299,18.935,-0.105,11.760,1,1,1,373,400,2025-06-05T16:19:06.138503
28701,-0.4168,0.8467,0.4207,19.355,4.725,13.160,1,1,2,390,404,2025-06-05T16:19:06.138503
28702,-0.4675,0.8008,0.4148,20.160,8.015,14.070,1,1,1,377,360,2025-06-05T16:19:06.185413
28703,-0.5461,0.7505,0.4187,21.665,7.280,15.085,2,2,1,385,374,2025-06-05T16:19:06.185413
28704,-0.6154,0.7208,0.4290,24.080,1.610,15.050,2,2,1,377,372,2025-06-05T16:19:06.185413
28705,-0.6520,0.6847,0.4358,26.915,-7.035,14.595,2,1,2,380,383,2025-06-05T16:19:06.185413
28706,-0.6534,0.6661,0.4392,28.875,-16.135,13.265,2,2,1,392,396,2025-06-05T16:19:06.353979
28707,-0.6159,0.6529,0.4329,30.380,-21.420,11.515,1,1,1,392,400,2025-06-05T16:19:06.353979
28708,-0.5690,0.6568,0.4231,30.940,-23.730,9.940,2,2,1,386,398,2025-06-05T16:19:06.353979
28709,-0.5285,0.6676,0.4192,29.365,-22.540,7.735,2,1,2,350,395,2025-06-05T16:19:06.353979
28710,-0.4924,0.6710,0.4299,25.795,-18.620,6.125,2,1,1,379,388,2025-06-05T16:19:06.353979
28711,-0.4636,0.6705,0.4524,22.400,-13.650,4.970,1,1,2,378,352,2025-06-05T16:19:06.353979
28712,-0.4504,0.6637,0.4699,17.395,-10.080,4.375,1,1,2,389,377,2025-06-05T16:19:06.353979
28713,-0.4416,0.6598,0.4885,12.040,-6.300,3.325,1,2,1,399,347,2025-06-05T16:19:06.353979
28714,-0.4387,0.6539,0.4997,7.175,-3.990,2.415,1,2,1,398,376,2025-06-05T16:19:06.353979
28715,-0.4363,0.6637,0.5017,2.800,-2.065,0.770,1,1,1,380,336,2025-06-05T16:19:06.353979
28716,-0.4455,0.6837,0.4909,-0.140,-2.275,-1.330,1,2,1,350,355,2025-06-05T16:19:06.353979
28717,-0.4368,0.6964,0.4543,-3.570,-3.150,-3.255,1,1,1,382,341,2025-06-05T16:19:06.353979
28718,-0.4290,0.7003,0.4065,-6.860,-3.850,-4.935,1,2,1,379,363,2025-06-05T16:19:06.353979
28719,-0.4285,0.7105,0.3875,-9.730,-5.915,-6.300,2,1,1,377,378,2025-06-05T16:19:06.353979
28720,-0.4148,0.7305,0.3953,-11.935,-7.980,-6.825,1,2,2,388,396,2025-06-05T16:19:06.620280
28721,-0.4114,0.7403,0.4075,-13.720,-10.010,-7.420,2,2,2,385,394,2025-06-05T16:19:06.620280
28722,-0.4065,0.7623,0.4163,-15.400,-10.640,-8.225,1,1,2,393,401,2025-06-05T16:19:06.620280
28723,-0.4099,0.7730,0.4207,-17.045,-10.745,-8.680,2,1,1,401,383,2025-06-05T16:19:06.620280
28724,-0.4104,0.7871,0.4177,-18.130,-10.220,-8.505,2,1,1,384,392,2025-06-05T16:19:06.620280
28725,-0.4085,0.8003,0.3933,-18.830,-10.815,-7.805,1,1,2,390,383,2025-06-05T16:19:06.621277
28726,-0.3723,0.8198,0.3548,-20.405,-9.835,-6.475,2,1,1,376,397,2025-06-05T16:19:06.621277
28727,-0.3489,0.8433,0.2996,-21.805,-5.635,-5.425,2,2,1,388,406,2025-06-05T16:19:07.032206
28728,-0.3636,0.8608,0.2664,-25.375,-1.575,-6.055,1,1,1,394,366,2025-06-05T16:19:07.032206
28729,-0.3904,0.8818,0.2586,-29.190,1.015,-7.035,1,2,1,345,378,2025-06-05T16:19:07.032206
28730,-0.4421,0.8926,0.2377,-31.955,1.820,-8.855,1,1,0,328,347,2025-06-05T16:19:07.032206
28731,-0.4831,0.9150,0.2601,-30.660,2.450,-10.010,1,1,1,363,371,2025-06-05T16:19:07.032206
28732,-0.5378,0.9179,0.3245,-26.740,0.805,-10.675,2,2,2,376,386,2025-06-05T16:19:07.032206
28733,-0.7354,0.9389,0.3396,-21.105,-2.520,-10.185,1,1,1,378,400,2025-06-05T16:19:07.032206
28734,-0.6129,0.9160,0.3382,-16.240,-11.340,-11.270,2,1,1,371,356,2025-06-05T16:19:07.032206
28735,-0.5319,0.8730,0.3255,-12.355,-16.940,-10.080,1,1,1,380,343,2025-06-05T16:19:07.032206
28736,-0.4382,0.8628,0.3060,-8.715,-17.045,-6.545,2,2,1,390,374,2025-06-05T16:19:07.032206
28737,-0.3543,0.8599,0.2650,-8.050,-10.465,-3.255,3,1,1,402,349,2025-06-05T16:19:07.032206
28738,-0.3201,0.8677,0.2318,-9.065,-1.295,-1.575,2,2,1,385,367,2025-06-05T16:19:07.032206
28739,-0.3328,0.8491,0.2196,-8.785,10.115,-1.120,1,1,1,381,370,2025-06-05T16:19:07.032206
28740,-0.4114,0.8252,0.3670,-7.735,15.925,-0.875,1,2,2,381,389,2025-06-05T16:19:07.032206
28741,-0.4602,0.7979,0.2655,-5.565,13.090,-0.385,1,1,2,400,353,2025-06-05T16:19:07.032206
28742,-0.5270,0.7559,0.2791,-1.610,6.405,1.470,1,1,1,377,359,2025-06-05T16:19:07.032206
28743,-0.5431,0.7369,0.2738,2.065,-8.015,3.290,2,1,1,390,384,2025-06-05T16:19:07.032206
28744,-0.5007,0.7359,0.2591,5.495,-21.070,4.620,2,2,1,386,394,2025-06-05T16:19:07.032206
28745,-0.4119,0.7393,0.2440,6.755,-28.560,4.655,2,2,2,397,395,2025-06-05T16:19:07.032206
28746,-0.3333,0.7364,0.2489,6.615,-26.670,3.745,1,2,1,398,391,2025-06-05T16:19:07.032206
28747,-0.3050,0.7540,0.2513,5.845,-21.315,0.700,1,2,2,388,359,2025-06-05T16:19:07.032206
28748,-0.2835,0.7549,0.2245,4.760,-15.820,-2.730,1,1,2,399,338,2025-06-05T16:19:07.032206
28749,-0.3299,0.7803,0.2289,5.565,-13.930,-2.975,1,1,2,389,369,2025-06-05T16:19:07.032206
28750,-0.4026,0.8262,0.2225,7.070,-18.760,-1.750,2,1,1,381,379,2025-06-05T16:19:07.032206
28751,-0.4773,0.8574,0.2089,11.690,-31.710,1.365,1,2,1,384,388,2025-06-05T16:19:07.032206
28752,-0.4504,0.8862,0.1635,14.280,-48.125,6.615,2,1,1,386,400,2025-06-05T16:19:07.032206
28753,-0.4514,0.9355,0.1044,12.740,-68.285,14.000,1,1,2,395,389,2025-06-05T16:19:07.032206
28754,-0.4172,0.9784,0.0381,9.380,-91.560,23.275,1,1,2,396,388,2025-06-05T16:19:07.032206
28755,-0.3792,1.1468,-0.0503,6.895,-106.155,31.850,1,1,0,366,382,2025-06-05T16:19:07.032206
28756,-0.4207,1.3308,-0.1776,3.815,-121.100,36.680,2,2,1,345,389,2025-06-05T16:19:07.032206
28757,-0.4514,1.4801,-0.3689,-0.105,-141.785,43.575,1,1,1,331,377,2025-06-05T16:19:07.032206
28758,-0.4656,1.6763,-0.5046,3.430,-169.365,60.585,1,1,1,365,380,2025-06-05T16:19:07.032206
28759,-0.3992,2.0335,-0.7520,7.315,-214.270,96.495,1,2,1,379,381,2025-06-05T16:19:07.032206
28760,0.0952,2.6176,-1.1302,20.475,-258.405,151.725,1,1,1,376,387,2025-06-05T16:19:07.032206
28761,0.8369,3.5970,-1.6094,30.835,-250.530,199.605,1,1,1,389,396,2025-06-05T16:19:07.033204
28762,1.4747,4.5887,-2.0925,18.095,-178.675,207.900,2,1,1,392,394,2025-06-05T16:19:07.033204
28763,1.9749,5.0928,-2.2863,-52.115,-59.255,174.685,1,1,2,392,395,2025-06-05T16:19:07.033204
28764,1.4699,5.2440,-2.1574,-113.785,36.505,127.470,2,1,1,347,375,2025-06-05T16:19:07.033204
28765,-0.0210,4.4818,-2.0769,-179.830,30.520,90.195,2,1,1,368,392,2025-06-05T16:19:07.033204
28766,-1.5372,3.3155,-1.9149,-225.435,-113.330,76.405,1,2,2,387,407,2025-06-05T16:19:07.058953
28767,-1.8822,2.0257,-1.2942,-276.745,-322.980,77.735,1,1,1,351,357,2025-06-05T16:19:07.058953
28768,-1.4777,0.5568,-0.4075,-348.740,-504.875,71.750,1,2,1,373,367,2025-06-05T16:19:07.058953
28769,-0.2513,-0.5046,0.2284,-434.770,-572.005,42.665,1,2,1,371,367,2025-06-05T16:19:07.059137
28770,1.1361,-1.8305,0.4880,-543.900,-519.155,-8.505,2,1,1,380,378,2025-06-05T16:19:07.059137
28771,2.0208,-4.7151,1.1917,-642.600,-329.665,-103.775,2,1,1,358,377,2025-06-05T16:19:07.059137
28772,1.1497,-6.6061,1.7661,-647.500,-173.740,-193.550,2,1,1,324,374,2025-06-05T16:19:07.059137
28773,-0.3274,-7.4796,2.5893,-553.525,-158.690,-251.580,1,2,1,330,367,2025-06-05T16:19:07.059137
28774,0.0908,-6.7368,2.3590,-366.660,-283.815,-300.685,1,0,1,319,378,2025-06-05T16:19:07.059137
28775,1.7280,-4.5228,0.7096,-153.370,-200.270,-308.350,1,1,1,312,384,2025-06-05T16:19:07.059137
28776,1.6128,-2.5342,-0.4099,-97.020,-17.360,-337.050,1,1,1,354,385,2025-06-05T16:19:07.059137
28777,2.7382,-1.1458,-0.4016,-44.765,249.165,-227.640,2,1,1,368,351,2025-06-05T16:19:07.059137
28778,0.8774,0.1747,-0.2855,-68.215,401.695,-62.090,1,1,2,384,392,2025-06-05T16:19:07.059137
28779,0.9789,0.7115,0.3884,-22.295,446.845,117.600,1,1,1,362,410,2025-06-05T16:19:07.162351
28780,0.6632,-0.3518,1.1888,-3.850,403.235,233.940,1,1,1,392,416,2025-06-05T16:19:07.162351
28781,-0.5388,-1.3928,1.6909,26.985,356.860,281.400,0,2,1,397,415,2025-06-05T16:19:07.162351
28782,-1.2107,-2.0779,1.2600,107.380,249.830,269.500,2,1,2,406,366,2025-06-05T16:19:07.162351
28783,-0.4860,-1.5313,1.2351,164.885,136.885,243.845,1,1,1,389,386,2025-06-05T16:19:07.162351
28784,-0.0107,-0.8813,1.2737,153.895,47.530,209.125,1,1,1,379,372,2025-06-05T16:19:07.162351
28785,0.1152,-0.4860,1.1024,159.950,0.595,185.395,1,0,1,366,372,2025-06-05T16:19:07.162351
28786,-0.0708,-0.1737,0.8911,119.455,-16.590,163.450,1,1,1,370,384,2025-06-05T16:19:07.162351
28787,-0.0346,0.0156,0.8584,95.270,-47.565,152.390,1,1,1,380,375,2025-06-05T16:19:07.267607
28788,0.1688,0.1879,1.0194,103.215,-72.240,153.720,2,2,1,380,346,2025-06-05T16:19:07.267607
28789,0.3967,0.3465,1.1209,93.940,-48.090,156.660,1,1,1,373,367,2025-06-05T16:19:07.267607
28790,0.4880,0.3289,1.1224,79.695,-14.420,142.065,2,1,2,378,381,2025-06-05T16:19:07.267607
28791,0.4607,0.3567,1.0897,79.835,36.750,115.465,2,2,1,381,384,2025-06-05T16:19:07.267607
28792,0.3953,0.3631,1.0463,69.055,95.410,78.330,1,1,1,380,386,2025-06-05T16:19:07.267607
28793,0.3065,0.4192,1.0146,64.750,148.610,46.095,1,2,1,387,381,2025-06-05T16:19:07.267607
28794,0.1371,0.5695,0.9384,71.820,176.995,21.210,1,1,1,385,392,2025-06-05T16:19:07.267607
28795,-0.0586,0.6403,0.8330,76.825,179.550,6.720,2,1,1,391,397,2025-06-05T16:19:07.267607
28796,-0.2484,0.6671,0.6871,78.155,168.875,0.980,1,1,2,378,350,2025-06-05T16:19:07.380307
28797,-0.2582,0.6110,0.4997,86.800,140.735,0.490,1,2,2,376,376,2025-06-05T16:19:07.380307
28798,-0.3772,0.5778,0.4070,93.730,111.090,-1.050,2,2,2,381,343,2025-06-05T16:19:07.380307
28799,-0.4631,0.5934,0.4943,95.655,84.595,-6.405,2,2,2,382,327,2025-06-05T16:19:07.380307
28800,-0.4607,0.7125,0.6315,97.265,64.960,-13.825,2,1,1,388,363,2025-06-05T16:19:07.380307
28801,-0.4446,0.8316,0.7359,95.375,49.735,-21.700,2,2,2,356,372,2025-06-05T16:19:07.380307
28802,-0.3626,0.8545,0.8198,85.575,42.630,-28.140,2,2,1,365,375,2025-06-05T16:19:07.380307
28803,-0.3011,0.8545,0.8164,75.985,37.730,-29.330,1,2,1,338,339,2025-06-05T16:19:07.380307
28804,-0.1527,0.9252,0.8413,65.660,35.455,-26.635,2,2,1,355,367,2025-06-05T16:19:07.380307
28805,0.0088,0.9716,0.8164,53.900,45.920,-24.255,2,2,1,373,378,2025-06-05T16:19:07.480079
28806,-0.0712,0.9945,0.6349,45.185,62.370,-26.250,1,1,1,392,382,2025-06-05T16:19:07.480079
28807,-0.1879,1.0180,0.6710,35.770,70.560,-31.325,2,2,2,392,388,2025-06-05T16:19:07.481074
28808,-0.3231,0.9740,0.5871,29.855,64.085,-32.025,1,2,1,395,395,2025-06-05T16:19:07.481074
28809,-0.4099,0.8984,0.5949,23.520,46.410,-24.780,2,2,1,389,390,2025-06-05T16:19:07.481074
28810,-0.4319,0.8667,0.7291,21.840,17.430,-15.680,2,2,1,377,394,2025-06-05T16:19:07.570453
28811,-0.3997,0.8603,0.8516,25.585,-5.110,-7.455,1,1,1,390,388,2025-06-05T16:19:07.570453
28812,-0.3411,0.8603,0.8511,28.770,-14.560,-7.420,2,2,1,390,393,2025-06-05T16:19:07.570453
28813,-0.2708,0.8818,0.7798,29.750,-11.935,-13.125,1,1,1,388,399,2025-06-05T16:19:07.570453
28814,-0.2298,0.8721,0.6417,27.125,-2.555,-18.585,1,2,1,390,396,2025-06-05T16:19:07.570453
28815,-0.2542,0.8179,0.5885,22.715,5.460,-21.105,2,2,1,378,384,2025-06-05T16:19:07.570453
28816,-0.2840,0.7925,0.7096,22.120,7.595,-20.265,2,1,1,391,383,2025-06-05T16:19:07.570453
28817,-0.3109,0.7950,0.8242,25.060,4.200,-14.350,2,2,2,385,348,2025-06-05T16:19:07.570453
28818,-0.3719,0.8096,0.8506,31.185,-4.025,-9.625,2,1,2,376,366,2025-06-05T16:19:07.570453
28819,-0.3631,0.8369,0.7832,34.545,-11.200,-9.450,1,1,1,390,388,2025-06-05T16:19:07.570453
28820,-0.3304,0.8506,0.6476,37.975,-12.215,-11.445,1,1,2,381,394,2025-06-05T16:19:07.570453
28821,-0.2782,0.8442,0.5173,36.435,-9.555,-12.705,2,2,1,394,395,2025-06-05T16:19:07.672562
28822,-0.2796,0.7696,0.4831,35.875,-7.140,-11.760,1,2,1,381,383,2025-06-05T16:19:07.672562
28823,-0.3245,0.7427,0.5807,35.105,-6.965,-8.365,1,2,1,389,352,2025-06-05T16:19:07.672562
28824,-0.3845,0.7213,0.6359,36.505,-12.530,-3.290,2,2,2,393,364,2025-06-05T16:19:07.672562
28825,-0.3597,0.7159,0.6583,39.270,-18.585,0.875,1,1,1,386,378,2025-06-05T16:19:07.672562
28826,-0.3074,0.7154,0.5988,41.650,-17.780,2.520,1,1,1,393,387,2025-06-05T16:19:07.672562
28827,-0.2777,0.7130,0.5158,41.545,-10.185,1.050,1,2,1,388,397,2025-06-05T16:19:07.672562
28828,-0.2186,0.6969,0.4494,38.815,0.665,-2.345,1,1,1,393,357,2025-06-05T16:19:07.672562
28829,-0.2050,0.6632,0.4070,33.670,10.325,-3.710,2,1,1,389,370,2025-06-05T16:19:07.672562
28830,-0.2660,0.6183,0.4168,29.225,13.195,-2.765,1,2,1,380,375,2025-06-05T16:19:07.776286
28831,-0.2962,0.6329,0.4870,27.440,11.200,-1.330,1,2,1,389,382,2025-06-05T16:19:07.776286
28832,-0.3304,0.6734,0.5392,28.455,7.105,-0.910,2,2,1,379,377,2025-06-05T16:19:07.776286
28833,-0.3118,0.6978,0.5353,28.980,4.690,-1.785,1,1,1,342,386,2025-06-05T16:19:07.776286
28834,-0.2689,0.7271,0.4880,28.280,7.420,-4.515,1,2,1,373,378,2025-06-05T16:19:07.776286
28835,-0.1781,0.7340,0.4211,25.410,14.140,-7.980,1,1,1,374,391,2025-06-05T16:19:07.776286
28836,-0.1010,0.7130,0.3953,20.160,22.400,-9.485,1,2,1,384,364,2025-06-05T16:19:07.776286
28837,-0.1074,0.7159,0.4280,16.310,33.005,-9.520,1,2,1,392,383,2025-06-05T16:19:07.776286
28838,-0.1435,0.7369,0.4685,13.160,41.475,-9.905,1,2,1,401,386,2025-06-05T16:19:07.776286
28839,-0.1674,0.7788,0.4856,9.940,49.840,-10.535,2,2,2,398,377,2025-06-05T16:19:07.834317
28840,-0.2230,0.8379,0.4904,8.295,58.450,-12.355,1,1,2,403,375,2025-06-05T16:19:07.834317
28841,-0.2728,0.8764,0.4846,6.580,61.915,-15.190,2,2,1,401,386,2025-06-05T16:19:07.834317
28842,-0.3123,0.8906,0.4802,5.635,61.285,-15.575,2,2,1,400,359,2025-06-05T16:19:07.834317
28843,-0.3284,0.9140,0.4729,6.475,56.455,-13.405,1,1,1,393,377,2025-06-05T16:19:07.982827
28844,-0.3572,0.9584,0.4621,6.930,46.235,-9.100,1,1,1,387,375,2025-06-05T16:19:07.982827
28845,-0.3723,1.0092,0.4446,7.280,33.635,-3.640,2,2,1,392,342,2025-06-05T16:19:07.982827
28846,-0.3758,1.0580,0.4490,6.755,23.310,2.170,1,2,1,380,365,2025-06-05T16:19:07.982827
28847,-0.3640,1.0873,0.4577,4.760,17.430,7.595,1,1,2,397,377,2025-06-05T16:19:07.982827
28848,-0.3709,1.1019,0.4724,2.625,16.205,10.605,1,1,1,388,381,2025-06-05T16:19:07.982827
28849,-0.4060,1.0756,0.4860,0.210,16.555,11.025,1,1,1,385,387,2025-06-05T16:19:07.982827
28850,-0.4504,1.0585,0.6227,0.385,15.505,11.830,1,1,2,383,380,2025-06-05T16:19:07.982827
28851,-0.5241,1.0238,0.5080,3.045,8.610,13.300,2,1,1,379,376,2025-06-05T16:19:07.982827
28852,-0.5407,0.9931,0.4778,7.910,-1.995,15.120,1,2,1,389,384,2025-06-05T16:19:07.982827
28853,-0.5383,0.9404,0.4114,12.705,-10.500,16.590,1,1,1,346,382,2025-06-05T16:19:07.982827
28854,-0.4768,0.8955,0.3411,15.855,-17.745,17.780,1,1,1,361,386,2025-06-05T16:19:07.982827
28855,-0.4075,0.8457,0.3079,17.395,-19.775,18.060,1,1,1,371,392,2025-06-05T16:19:07.982827
28856,-0.3558,0.8067,0.3001,17.395,-16.905,16.485,1,1,2,387,381,2025-06-05T16:19:08.036725
28857,-0.3353,0.7662,0.3265,17.115,-12.040,14.140,1,2,1,379,393,2025-06-05T16:19:08.036725
28858,-0.3226,0.7159,0.3470,16.730,-7.735,12.180,1,2,2,398,402,2025-06-05T16:19:08.036894
28859,-0.3235,0.6695,0.3553,16.800,-6.020,10.290,2,1,2,397,394,2025-06-05T16:19:08.036894
28860,-0.3318,0.6364,0.3523,17.360,-4.655,9.170,2,1,1,394,375,2025-06-05T16:19:08.185325
28861,-0.3221,0.6207,0.3133,17.465,-4.095,7.525,2,2,1,389,383,2025-06-05T16:19:08.185325
28862,-0.3040,0.5944,0.2835,17.080,-0.770,5.530,1,2,1,377,376,2025-06-05T16:19:08.185325
28863,-0.2918,0.5749,0.2669,16.275,3.185,2.170,2,1,1,342,338,2025-06-05T16:19:08.185325
28864,-0.3074,0.5817,0.2689,15.330,7.140,-1.155,1,1,1,361,366,2025-06-05T16:19:08.185325
28865,-0.3148,0.5958,0.2850,16.205,11.445,-3.395,1,2,1,335,365,2025-06-05T16:19:08.185325
28866,-0.3304,0.6085,0.2977,16.975,13.895,-5.425,1,1,2,356,388,2025-06-05T16:19:08.185325
28867,-0.3314,0.6227,0.2933,18.235,15.015,-5.985,1,2,1,336,357,2025-06-05T16:19:08.185325
28868,-0.3362,0.6378,0.2894,18.620,15.225,-6.335,1,1,1,346,375,2025-06-05T16:19:08.185325
28869,-0.3450,0.6388,0.2884,18.515,15.330,-6.965,2,2,1,355,381,2025-06-05T16:19:08.185325
28870,-0.3577,0.6432,0.3035,18.865,14.455,-7.945,1,1,1,361,383,2025-06-05T16:19:08.185325
28871,-0.3699,0.6603,0.3152,20.125,13.615,-9.380,1,1,1,364,382,2025-06-05T16:19:08.185325
28872,-0.3987,0.6910,0.3255,22.505,13.825,-12.285,1,2,1,381,346,2025-06-05T16:19:08.185325
28873,-0.3958,0.7383,0.3221,24.885,14.735,-16.065,2,2,1,382,341,2025-06-05T16:19:08.243216
28874,-0.3553,0.7823,0.3026,26.285,16.975,-18.095,1,1,1,393,360,2025-06-05T16:19:08.243216
28875,-0.3226,0.8086,0.2972,25.410,19.600,-17.325,1,2,1,399,371,2025-06-05T16:19:08.243216
28876,-0.3333,0.8423,0.3079,25.445,23.135,-15.225,1,1,2,405,376,2025-06-05T16:19:08.243216
28877,-0.3836,0.8745,0.3655,25.550,22.715,-11.655,1,2,2,410,379,2025-06-05T16:19:08.722886
28878,-0.4758,0.9174,0.4480,27.510,17.465,-9.590,2,2,1,395,344,2025-06-05T16:19:08.722886
28879,-0.5558,0.9706,0.5158,28.070,10.430,-7.035,1,1,2,398,360,2025-06-05T16:19:08.722886
28880,-0.5524,1.0214,0.5417,28.210,-2.800,-3.150,1,1,1,390,379,2025-06-05T16:19:08.722886
28881,-0.5309,1.0277,0.5319,28.945,-13.055,1.540,2,2,1,389,374,2025-06-05T16:19:08.722886
28882,-0.5022,1.0375,0.5080,28.910,-20.580,4.095,1,2,1,377,379,2025-06-05T16:19:08.722886
28883,-0.4660,1.0307,0.4953,26.530,-21.805,5.320,1,2,1,378,379,2025-06-05T16:19:08.722886
28884,-0.4490,0.9994,0.4973,24.500,-20.230,6.020,2,1,1,390,387,2025-06-05T16:19:08.722886
28885,-0.4690,0.9740,0.5041,23.905,-19.005,7.210,1,1,1,387,382,2025-06-05T16:19:08.722886
28886,-0.4992,0.9296,0.5085,23.975,-19.145,9.660,1,0,1,378,379,2025-06-05T16:19:08.722886
28887,-0.5309,0.8906,0.4904,25.235,-21.140,12.215,1,1,1,386,393,2025-06-05T16:19:08.722886
28888,-0.5368,0.8750,0.4621,27.230,-24.640,15.785,1,1,1,397,355,2025-06-05T16:19:08.722886
28889,-0.5334,0.8545,0.4265,29.015,-28.805,19.565,1,1,1,388,368,2025-06-05T16:19:08.722886
28890,-0.5275,0.8198,0.3943,30.135,-32.025,23.310,1,2,1,381,370,2025-06-05T16:19:08.722886
28891,-0.5158,0.7876,0.3787,30.730,-35.210,26.040,2,1,2,380,347,2025-06-05T16:19:08.722886
28892,-0.4885,0.7623,0.3704,30.380,-36.155,27.020,1,2,1,382,331,2025-06-05T16:19:08.722886
28893,-0.4763,0.7359,0.3655,30.835,-33.670,25.690,1,2,1,372,365,2025-06-05T16:19:08.722886
28894,-0.4660,0.7247,0.3714,29.645,-28.350,22.120,1,1,1,383,366,2025-06-05T16:19:08.722886
28895,-0.4626,0.7008,0.3802,28.875,-22.575,17.745,1,2,2,379,382,2025-06-05T16:19:08.722886
28896,-0.4470,0.6773,0.3714,18.130,-16.800,13.790,2,2,2,388,354,2025-06-05T16:19:08.722886
28897,-0.4250,0.6568,0.3504,23.555,-10.325,10.640,1,1,1,384,375,2025-06-05T16:19:08.722886
28898,-0.4153,0.6549,0.3343,20.300,-3.990,8.295,2,1,2,380,372,2025-06-05T16:19:08.722886
28899,-0.4382,0.6422,0.3274,15.890,4.305,6.370,2,2,1,376,346,2025-06-05T16:19:08.722886
28900,-0.4451,0.6324,0.3377,11.375,10.850,4.375,2,1,1,373,370,2025-06-05T16:19:08.722886
28901,-0.4534,0.6403,0.3582,7.805,14.420,4.340,1,1,2,390,382,2025-06-05T16:19:08.722886
28902,-0.4573,0.6671,0.3977,4.865,15.820,5.180,2,1,2,393,396,2025-06-05T16:19:08.722886
28903,-0.4455,0.6895,0.4255,1.120,14.350,6.090,2,2,1,353,349,2025-06-05T16:19:08.722886
28904,-0.4036,0.7130,0.4407,-3.710,9.800,7.525,1,2,1,328,341,2025-06-05T16:19:08.722886
28905,-0.3192,0.7383,0.4314,-9.975,3.290,10.255,2,2,2,363,374,2025-06-05T16:19:08.722886
28906,-0.2220,0.7159,0.4109,-17.080,-0.875,13.650,2,1,2,385,371,2025-06-05T16:19:08.722886
28907,-0.1928,0.7403,0.3997,-22.225,0.595,15.330,1,2,1,392,348,2025-06-05T16:19:08.722886
28908,-0.1908,0.7930,0.3836,-27.020,5.810,12.565,1,2,1,397,360,2025-06-05T16:19:08.722886
28909,-0.2264,0.8306,0.3645,-31.815,12.355,6.580,1,2,1,391,379,2025-06-05T16:19:08.722886
28910,-0.2606,0.8623,0.3611,-35.525,17.255,1.645,1,2,1,353,387,2025-06-05T16:19:08.722886
28911,-0.3109,0.8828,0.3909,-36.715,18.375,-2.800,1,1,1,363,386,2025-06-05T16:19:08.722886
28912,-0.3479,0.9072,0.4060,-36.715,15.890,-5.495,1,2,1,381,390,2025-06-05T16:19:08.722886
28913,-0.3533,0.9126,0.3919,-35.945,11.515,-5.775,1,1,1,392,388,2025-06-05T16:19:08.722886
28914,-0.3562,0.9155,0.3562,-35.315,7.805,-4.655,1,2,1,386,385,2025-06-05T16:19:08.722886
28915,-0.3553,0.9150,0.3514,-34.825,6.405,-3.465,2,2,1,375,387,2025-06-05T16:19:08.722886
28916,-0.3845,0.9384,0.3426,-33.530,6.020,-2.555,1,1,1,344,380,2025-06-05T16:19:08.806726
28917,-0.4216,0.9711,0.3118,-31.220,4.935,-3.605,2,2,1,377,400,2025-06-05T16:19:08.806726
28918,-0.4534,0.9999,0.2743,-28.980,3.010,-7.000,1,2,2,384,407,2025-06-05T16:19:08.806726
28919,-0.4826,0.9848,0.2586,-26.810,0.210,-12.005,2,2,1,380,404,2025-06-05T16:19:08.806726
28920,-0.5334,0.9287,0.2757,-23.590,-3.395,-15.855,1,1,1,395,404,2025-06-05T16:19:08.806726
28921,-0.5358,0.8896,0.3148,-18.690,-10.955,-17.115,2,2,1,389,397,2025-06-05T16:19:08.806726
28922,-0.4880,0.8579,0.3284,-14.210,-18.585,-14.525,1,2,2,351,353,2025-06-05T16:19:08.806726
28923,-0.4402,0.8428,0.3074,-9.520,-22.715,-9.485,1,2,1,355,378,2025-06-05T16:19:08.806726
28924,-0.3518,0.8516,0.3089,-7.805,-22.365,-4.305,2,1,2,370,398,2025-06-05T16:19:08.901529
28925,-0.2552,0.8506,0.3050,-7.665,-17.395,0.560,2,1,1,341,393,2025-06-05T16:19:08.901529
28926,-0.1972,0.8642,0.3113,-7.910,-11.060,4.305,1,1,1,370,393,2025-06-05T16:19:08.901529
28927,-0.1674,0.8764,0.2962,-9.135,-3.045,6.020,2,2,1,341,394,2025-06-05T16:19:08.901529
28928,-0.1976,0.8769,0.2630,-9.205,2.940,6.580,2,3,2,367,384,2025-06-05T16:19:08.901529
28929,-0.2420,0.8657,0.2357,-10.500,3.710,5.250,1,1,1,334,387,2025-06-05T16:19:08.901529
28930,-0.3196,0.8603,0.2142,-10.920,-0.280,3.115,1,1,1,357,386,2025-06-05T16:19:08.901529
28931,-0.3592,0.8486,0.2137,-10.465,-8.155,0.595,1,1,1,376,380,2025-06-05T16:19:08.901529
28932,-0.3118,0.8398,0.2250,-9.940,-19.040,0.350,2,2,2,388,387,2025-06-05T16:19:09.003312
28933,-0.2943,0.8403,0.2235,-8.680,-28.315,0.420,1,2,1,379,380,2025-06-05T16:19:09.003312
28934,-0.2411,0.8403,0.1937,-9.135,-33.565,-0.630,2,2,1,387,347,2025-06-05T16:19:09.003312
28935,-0.2216,0.8789,0.1713,-9.415,-36.365,-1.750,1,1,1,386,365,2025-06-05T16:19:09.003312
28936,-0.2552,0.8852,0.1279,-11.725,-39.760,-1.575,1,1,1,393,369,2025-06-05T16:19:09.003312
28937,-0.3055,0.9087,0.0942,-12.915,-46.935,1.645,1,2,2,387,342,2025-06-05T16:19:09.003312
28938,-0.3748,0.9062,0.0698,-14.805,-57.995,5.810,1,1,1,384,359,2025-06-05T16:19:09.003312
28939,-0.3567,0.8769,0.1039,-16.800,-72.870,16.870,2,1,1,386,368,2025-06-05T16:19:09.003312
28940,-0.2542,0.8623,0.1440,-21.175,-86.415,36.015,1,1,1,350,371,2025-06-05T16:19:09.003312
28941,-0.2098,0.8569,0.1122,-26.740,-99.960,60.445,2,2,1,379,371,2025-06-05T16:19:09.106044
28942,-0.4285,1.0419,-0.0625,-32.200,-117.460,83.020,1,0,1,345,387,2025-06-05T16:19:09.106044
28943,-0.5549,1.0726,-0.2342,-34.615,-158.410,104.370,2,2,1,365,402,2025-06-05T16:19:09.106044
28944,-0.6315,1.4625,-0.6354,-30.170,-220.290,125.650,1,1,1,393,404,2025-06-05T16:19:09.106044
28945,-0.4490,1.6982,-1.0097,-28.945,-291.270,151.620,1,2,2,406,410,2025-06-05T16:19:09.106044
28946,-0.0298,2.5396,-1.5352,-29.260,-338.065,176.960,2,2,1,404,400,2025-06-05T16:19:09.106044
28947,1.0238,3.5687,-2.2311,-38.325,-334.320,187.985,1,1,1,393,399,2025-06-05T16:19:09.106044
28948,1.5206,4.2368,-2.4610,-87.605,-263.060,184.765,1,0,0,360,362,2025-06-05T16:19:09.106044
28949,1.3962,4.3120,-2.4395,-176.330,-213.290,167.510,1,2,2,383,344,2025-06-05T16:19:09.154905
28950,0.9536,3.9211,-2.3058,-245.560,-186.620,144.795,1,2,1,378,369,2025-06-05T16:19:09.154905
28951,0.5329,3.0861,-2.1145,-308.105,-208.915,106.400,1,2,2,387,386,2025-06-05T16:19:09.154905
28952,0.2621,2.0184,-2.1126,-374.395,-256.585,43.575,2,2,1,351,387,2025-06-05T16:19:09.154905
28953,0.1615,0.8691,-1.5435,-447.720,-316.400,-19.600,1,1,1,358,392,2025-06-05T16:19:09.203144
28954,0.1840,-0.5978,-0.3850,-505.155,-367.745,-90.265,1,2,1,366,384,2025-06-05T16:19:09.203144
28955,0.5319,-1.8085,0.6778,-556.850,-437.045,-131.740,2,2,1,365,386,2025-06-05T16:19:09.203144
28956,1.0346,-3.8352,2.0120,-605.185,-469.560,-152.810,1,2,2,371,384,2025-06-05T16:19:09.203144
28957,1.8202,-7.7348,3.4907,-627.480,-413.735,-176.575,1,1,1,328,346,2025-06-05T16:19:09.311031
