Min_AccX_Val,Max_AccX_Val,AccX_Amplitude,AccX_Ord(1=Max>Min),Min_AccZ_Val,Max_Roll_Val,Min_Roll_Val,Roll_Ord(1=Max>Min),Max_Pitch_Val,Min_Pitch_Val,Pitch_Ord(1=Max>Min),Type_Coup
-0.1537466666666666,0.0139666666666666,0.1677133333333333,0,1.05512,236.4833333333333,-230.52166666666668,0,225.96,-181.2743333333333,0,direct
-0.52356,-0.3048733333333333,0.2186866666666667,0,0.97004,192.77533333333332,-236.67933333333332,0,218.04533333333336,-187.453,0,direct
-0.37164,-0.1170133333333333,0.2546266666666666,1,0.60872,240.947,-258.601,0,177.92833333333334,-163.46633333333332,0,direct
-0.3468466666666666,-0.1837199999999999,0.1631266666666666,0,0.6439666666666667,215.4226666666667,-237.40733333333336,0,169.42099999999996,-132.05033333333333,0,direct
-0.0792199999999999,0.08098,0.1602,1,0.85908,247.58766666666668,-275.79533333333336,0,219.5643333333333,-185.44866666666667,0,direct
-0.0148799999999999,0.1434266666666666,0.1583066666666666,1,0.8909866666666667,212.2983333333333,-266.10966666666667,0,237.41666666666663,-206.801,0,direct
0.09312,0.2885066666666667,0.1953866666666666,1,0.82006,221.949,-298.21866666666665,0,224.64866666666663,-190.58666666666667,0,direct
-0.2437466666666666,0.03008,0.2738266666666666,1,0.8419266666666666,225.9693333333333,-261.254,0,179.7133333333333,-163.387,0,direct
-0.2016066666666666,0.0447599999999999,0.2463666666666666,1,0.9048533333333334,203.47366666666667,-235.96766666666664,0,167.60566666666668,-172.29799999999997,0,direct
-0.1818333333333333,-0.0806199999999999,0.1012133333333333,1,0.8707266666666666,197.029,-253.70566666666667,0,179.99333333333334,-163.55266666666665,0,
-0.0580266666666667,0.16398,0.2220066666666666,0,1.00402,189.82366666666667,-232.603,0,233.42666666666668,-200.508,0,direct
0.0561866666666666,0.1679399999999999,0.1117533333333333,0,0.8027999999999998,198.177,-244.75033333333332,0,269.29,-194.17766666666665,0,direct
0.1886,0.2370066666666666,0.0484066666666666,0,0.71404,223.12266666666665,-269.7403333333333,0,213.836,-212.5456666666667,0,direct
0.3104599999999999,0.4521533333333333,0.1416933333333333,1,0.9669533333333332,210.24733333333333,-276.7286666666667,0,252.36166666666668,-208.45766666666665,0,direct
0.2397066666666666,0.4118066666666666,0.1720999999999999,0,0.8741666666666666,203.96366666666663,-265.93,0,242.543,-191.226,0,direct
0.13212,0.50644,0.37432,1,0.3999666666666667,226.191,-298.69,0,219.345,-267.85033333333337,0,direct
0.05432,0.3094133333333334,0.2550933333333334,0,0.61356,230.8716666666667,-271.55333333333334,0,228.20466666666664,-201.614,0,direct
0.15976,0.2420733333333333,0.0823133333333333,0,0.4341933333333332,214.49166666666667,-269.5303333333333,0,285.42033333333336,-223.062,0,direct
-0.1368599999999999,0.7148800000000001,0.85174,1,-0.4983066666666667,222.355,-305.0996666666667,0,212.632,-189.00233333333333,0,direct
0.37824,0.45372,0.0754799999999999,1,-0.1057666666666667,195.426,-265.6546666666667,0,198.03000000000003,-234.01466666666664,0,direct
0.16156,0.2920933333333334,0.1305333333333334,1,0.5531733333333333,200.88366666666664,-265.6546666666667,0,203.35,-234.01466666666664,0,direct
0.5886866666666666,0.7312533333333333,0.1425666666666667,1,0.8218933333333333,218.4933333333333,-246.66133333333337,0,262.8173333333333,-196.2893333333333,0,direct
0.2398133333333333,0.3779533333333333,0.1381399999999999,1,0.4983799999999999,235.01566666666665,-293.7923333333334,0,224.07466666666667,-160.49133333333333,0,direct
0.0411533333333333,0.07664,0.0354866666666666,1,1.0097599999999998,163.79999999999998,-286.7736666666667,0,209.54966666666667,-233.317,0,direct
-0.1341933333333333,-0.0136933333333333,0.1205,0,1.0195933333333334,143.878,-236.201,0,217.73266666666663,-130.046,0,direct
0.06078,0.12884,0.06806,0,0.75214,178.71233333333333,-234.35533333333336,0,201.7913333333333,-130.14633333333333,0,direct
0.2837866666666667,0.3253066666666667,0.04152,0,0.9721266666666666,171.26433333333335,-250.6443333333333,0,231.161,-210.89833333333337,0,direct
0.17568,0.2296466666666666,0.0539666666666666,1,1.02542,169.68933333333334,-243.25466666666668,0,223.1063333333333,-175.889,0,direct
-0.1549866666666666,0.0734733333333333,0.22846,1,0.8745133333333333,151.25366666666665,-278.9173333333334,0,236.16133333333332,-219.27266666666668,0,direct
-0.0298999999999999,0.0368933333333333,0.0667933333333333,1,1.0583399999999998,159.36666666666667,-267.12933333333336,0,204.71033333333332,-254.22133333333332,0,direct
-0.2319533333333333,-0.0256333333333333,0.20632,0,0.72976,158.291,-263.0833333333333,0,179.26066666666665,-242.26066666666665,0,direct
-0.0004799999999999,0.1381133333333333,0.1385933333333333,1,0.7501533333333333,169.694,-259.2613333333333,0,193.011,-234.84766666666667,0,direct
-1.6309866666666666,-0.0019199999999999,1.6290666666666669,1,-1.0053666666666667,241.8103333333333,-264.8473333333333,0,40.98033333333332,-91.49,0,crochet
-1.48546,0.3295666666666666,1.8150266666666663,1,-0.7050733333333333,262.542,-251.84366666666668,0,96.19399999999996,-61.61866666666669,0,crochet
-1.63922,0.2288533333333333,1.8680733333333333,1,-0.8163066666666668,223.94866666666667,-238.0606666666667,0,79.85366666666665,-55.535666666666685,1,crochet
-1.6098533333333334,0.29666,1.9065133333333333,1,-0.91434,224.9473333333333,-251.937,0,54.78433333333331,-54.12166666666669,0,crochet
-1.5388933333333332,0.3708133333333334,1.9097066666666669,1,-0.7997866666666666,243.81,-241.09166666666667,0,59.68666666666664,-48.37700000000002,0,crochet
-1.2803533333333332,0.2380933333333334,1.5184466666666667,1,-0.6933200000000002,278.61633333333333,-240.30766666666665,0,97.40966666666664,-90.37700000000002,1,crochet
-1.49412,0.4162266666666667,1.9103466666666664,1,-0.8909866666666668,235.88366666666667,-280.42466666666667,0,60.96299999999997,-69.34200000000003,0,crochet
-1.1952133333333337,0.2987266666666668,1.4939400000000005,1,-0.9107333333333336,247.849,-244.80633333333333,0,77.22633333333332,-71.83400000000002,1,crochet
-1.3902466666666664,0.5746733333333334,1.96492,1,-1.16632,225.981,-281.74066666666664,0,109.49399999999996,-68.75866666666668,1,crochet
-1.10698,0.2116333333333334,1.3186133333333332,0,0.1584399999999998,239.0943333333333,-216.18566666666663,0,78.5423333333333,-51.97033333333336,0,crochet
-1.7169199999999998,0.46682,2.18374,1,-1.1141733333333337,273.2613333333333,-264.3036666666667,0,67.8043333333333,-73.50700000000002,1,crochet
-1.4360933333333332,0.3947266666666668,1.83082,1,-0.91626,272.45166666666665,-233.8093333333333,0,76.33499999999997,-70.2916666666667,1,crochet
-1.2605333333333335,0.2462133333333334,1.506746666666667,1,-0.8783933333333335,254.30766666666665,-261.415,0,61.6023333333333,-67.63400000000003,1,crochet
-1.432533333333333,0.3122133333333334,1.7447466666666664,1,-1.036606666666667,238.9823333333333,-263.928,0,59.88966666666665,-57.12933333333336,1,crochet
-1.4143866666666665,0.0849266666666667,1.4993133333333333,1,-1.0568533333333334,256.403,-232.211,0,66.75899999999999,-109.48700000000002,1,crochet
-1.4922733333333331,0.1332933333333334,1.6255666666666666,1,-1.20456,221.53366666666665,-245.95433333333335,0,54.14266666666664,-38.67966666666669,1,crochet
-1.4222199999999998,-0.0215333333333332,1.4006866666666666,1,-1.14742,258.94633333333337,-275.436,0,55.500666666666646,-93.9586666666667,1,crochet
-1.4063466666666666,0.2501866666666668,1.6565333333333334,1,-0.6624000000000001,195.08066666666667,-200.12066666666664,0,55.05966666666664,-49.20066666666669,1,crochet
-1.3053666666666668,0.1113600000000001,1.416726666666667,1,-1.0354666666666668,193.98166666666663,-221.298,0,80.11499999999998,-45.24100000000002,1,crochet
-1.4898333333333331,0.3241400000000001,1.8139733333333328,1,-1.3025666666666669,208.06333333333333,-272.98833333333334,0,86.88399999999999,-48.73633333333336,1,crochet
-0.6200266666666665,-0.3104333333333332,0.3095933333333333,1,-0.3758600000000001,124.92433333333334,-236.1496666666667,0,22.014999999999976,-87.31100000000002,0,crochet
-1.1948733333333332,-0.2053399999999998,0.9895333333333334,0,-0.1242733333333333,219.82566666666665,-236.1496666666667,0,26.030666666666644,-87.31100000000002,0,crochet
-1.0967533333333332,0.0096200000000001,1.1063733333333334,1,-0.7616800000000001,201.2313333333333,-221.35166666666663,0,58.431333333333306,-51.93533333333336,1,crochet
-1.3346399999999998,0.1870333333333334,1.5216733333333332,1,-0.7400333333333334,213.6283333333333,-231.13766666666663,0,55.50999999999998,-28.19133333333336,1,crochet
-1.38744,0.2565666666666668,1.6440066666666668,0,0.2636999999999999,186.543,-194.9103333333333,0,40.73766666666664,-25.144000000000023,1,crochet
-1.4276066666666665,0.2439000000000001,1.6715066666666667,1,-0.9799600000000002,161.23100000000002,-236.61166666666665,0,85.32999999999997,-47.06333333333336,0,crochet
-1.1720666666666666,0.3566866666666669,1.5287533333333334,1,-1.1587,188.671,-330.505,0,64.97866666666664,-67.4636666666667,0,crochet
-1.5845466666666663,0.1672600000000002,1.7518066666666667,1,-1.0819866666666669,195.9883333333333,-257.32,0,39.580333333333314,-25.25833333333336,1,crochet
-0.3434599999999997,0.0753133333333335,0.4187733333333333,1,-0.3788533333333335,121.62966666666668,-237.2043333333333,0,51.03233333333331,-33.84966666666669,0,crochet
-1.073853333333333,-0.2319066666666664,0.8419466666666666,0,0.0842266666666665,198.9633333333333,-237.2043333333333,0,51.03233333333331,-33.84966666666669,0,crochet
-1.6158533333333331,0.1694600000000002,1.7853133333333333,1,-0.5581733333333335,182.30566666666667,-206.598,0,41.70366666666664,-69.70600000000003,0,crochet
-1.2458866666666666,0.0250133333333335,1.2709,1,-1.2891733333333335,179.53133333333335,-279.8763333333334,0,50.39533333333331,-48.23700000000003,0,crochet
-1.4546466666666664,-0.0160466666666664,1.4386,1,-1.2650933333333336,159.25233333333333,-259.1983333333333,0,97.67099999999998,-47.86133333333336,0,crochet
-1.3358466666666664,0.1025733333333335,1.43842,1,-0.9880866666666668,154.301,-252.469,0,52.90366666666664,-17.399666666666693,1,crochet
-1.6111799999999998,-0.0721399999999997,1.53904,0,-1.0155000000000003,179.06,-224.91,0,64.02433333333332,-60.47766666666669,0,crochet
-1.4754799999999997,-0.004773333333333,1.4707066666666666,1,-1.0464133333333334,178.92933333333332,-228.09733333333327,0,47.861333333333306,-74.55700000000002,0,crochet
-1.5291666666666663,0.2158866666666669,1.7450533333333331,1,-1.0462266666666669,175.17033333333336,-268.59933333333333,0,39.36566666666664,-31.80566666666669,0,crochet
-1.8013399999999995,-0.0620466666666664,1.7392933333333334,0,-1.1898200000000003,178.11266666666668,-249.27,0,45.098666666666645,-61.46700000000003,0,crochet
-1.4366133333333333,-0.0763799999999997,1.3602333333333336,0,-1.1598800000000002,176.91566666666665,-265.125,0,54.33866666666664,-31.35766666666669,0,crochet
-1.50188,0.0638066666666669,1.565686666666667,1,-1.145826666666667,148.80366666666666,-279.19266666666664,0,32.99333333333331,-16.986666666666693,1,crochet
-1.3034199999999996,0.0493600000000002,1.35278,1,-1.105286666666667,166.999,-248.02166666666665,0,57.01733333333331,-30.81633333333336,0,crochet
-1.2520133333333332,-0.2455999999999997,1.0064133333333334,1,-1.0283733333333336,186.92566666666667,-235.172,0,60.631666666666646,-70.4246666666667,0,crochet
-1.01432,-0.0907066666666664,0.9236133333333334,1,-3.03838,151.72033333333331,-311.91300000000007,1,267.7943333333333,-294.48066666666665,1,uppercut
-1.6012933333333332,0.4819533333333335,2.0832466666666667,1,-2.773000000000001,151.6713333333333,-260.5423333333334,1,394.856,-280.0046666666667,1,uppercut
-1.3399866666666662,0.1352000000000002,1.4751866666666664,1,-2.5772866666666667,118.68966666666668,-238.6113333333333,1,398.8343333333333,-271.516,1,uppercut
-1.1800066666666666,0.2675666666666669,1.4475733333333336,1,-2.190466666666667,112.42933333333332,-173.03766666666667,1,365.1013333333333,-209.83666666666667,1,uppercut
-1.1467599999999998,0.1414600000000002,1.28822,1,-2.4845266666666666,127.75233333333334,-226.76266666666663,0,352.5199999999999,-280.8190000000001,1,uppercut
-1.085673333333333,0.0734933333333335,1.159166666666667,1,-2.246913333333333,159.95,-231.79566666666668,1,322.1283333333333,-251.68733333333336,1,uppercut
-1.2579399999999998,0.1635133333333335,1.4214533333333337,1,-3.2689266666666668,203.68366666666668,-293.98833333333334,1,376.551,-281.39300000000003,1,uppercut
-1.579533333333333,0.3622800000000002,1.9418133333333327,1,-3.245073333333333,180.3176666666667,-288.666,1,343.546,-262.48133333333334,1,uppercut
-1.53638,-0.0711533333333331,1.465226666666667,1,-2.737286666666667,109.63633333333334,-284.431,0,307.2953333333333,-221.33300000000003,1,uppercut
-1.285613333333333,0.2845000000000002,1.5701133333333332,1,-2.6094600000000003,121.128,-244.321,1,348.6303333333333,-239.8596666666667,1,uppercut
-1.276453333333333,0.3273733333333335,1.6038266666666663,1,-2.6389066666666663,123.35166666666667,-248.10333333333332,1,369.6163333333333,-221.837,1,uppercut
-0.9053,0.4513666666666668,1.356666666666667,1,-2.6796133333333336,145.432,-251.384,1,404.7633333333333,-286.1786666666667,1,uppercut
-0.5370333333333331,0.2903666666666668,0.8273999999999999,1,-2.2908200000000005,157.2363333333333,-201.36900000000003,1,355.3806666666667,-241.7146666666667,1,uppercut
-0.6937399999999998,0.2541866666666669,0.9479266666666668,1,-2.4547733333333337,159.145,-249.48466666666667,1,388.9293333333333,-204.58900000000003,1,uppercut
-1.26372,0.2222066666666668,1.4859266666666668,1,-2.840613333333333,155.19,-314.98833333333334,1,371.196,-187.04233333333335,1,uppercut
-0.8685733333333332,0.1189066666666668,0.98748,1,-2.486066666666667,144.767,-235.91866666666664,0,377.61266666666666,-170.49900000000005,1,uppercut
-1.148193333333333,0.1800666666666668,1.3282599999999998,1,-2.501226666666667,131.73066666666668,-250.23366666666664,0,366.135,-251.86933333333337,1,uppercut
-0.8786599999999998,0.2121333333333335,1.0907933333333333,1,-2.5632400000000004,168.56933333333333,-250.383,0,322.182,-225.1876666666667,1,uppercut
-0.7910799999999998,0.1935466666666668,0.9846266666666668,1,-2.694866666666667,195.188,-248.185,1,330.484,-271.69100000000003,1,uppercut
-0.7912799999999999,0.2333533333333335,1.0246333333333335,1,-3.325393333333333,226.32866666666663,-361.634,1,258.5823333333333,-288.59600000000006,1,uppercut
-0.8733266666666665,0.4704333333333335,1.34376,1,-2.77308,169.15966666666665,-247.359,0,338.919,-302.52133333333336,1,uppercut
-0.8541999999999997,0.4095333333333334,1.2637333333333332,1,-2.773273333333333,184.8793333333333,-248.927,0,424.7576666666666,-246.8526666666667,1,uppercut
-0.9688333333333332,0.0291133333333335,0.9979466666666666,1,-2.420666666666667,172.92566666666667,-252.87266666666667,0,362.18,-239.93200000000004,1,uppercut
-0.4946333333333331,0.1834133333333335,0.6780466666666667,1,-2.629013333333333,179.93033333333335,-266.658,1,426.7293333333333,-201.2126666666667,1,uppercut
-0.8547199999999998,0.1700333333333335,1.0247533333333334,1,-2.9769266666666665,225.66600000000005,-331.0603333333333,1,304.899,-213.15700000000004,1,uppercut
-0.5721266666666665,0.3244466666666668,0.8965733333333332,1,-2.4745533333333336,174.63600000000002,-255.6563333333333,1,307.314,-168.9986666666667,1,uppercut
-0.9354666666666666,-0.2340666666666665,0.7014,1,-2.208786666666667,160.58466666666666,-268.71366666666665,0,341.14500000000004,-135.0486666666667,1,uppercut
-0.4797666666666665,0.1129600000000001,0.5927266666666666,1,-2.336513333333334,205.60166666666663,-267.736,1,334.1473333333333,-170.9493333333334,1,uppercut
-0.6797133333333332,0.1192066666666668,0.79892,1,-2.18662,173.26633333333336,-252.4083333333333,1,321.28833333333324,-137.96300000000005,1,uppercut
-0.7473533333333332,0.1136800000000001,0.8610333333333334,1,-2.0891333333333333,189.0583333333333,-250.10066666666663,0,314.629,-146.68266666666668,1,uppercut
-1.0580866666666666,0.3403333333333335,1.3984200000000002,1,-2.493466666666667,247.51766666666668,-260.834,0,359.695,-250.94300000000004,1,uppercut
-0.4314466666666664,0.2252400000000002,0.6566866666666666,1,-2.2952133333333338,169.68233333333333,-223.37466666666663,1,311.3926666666666,-178.6446666666667,1,uppercut
-0.6861533333333332,0.3409333333333336,1.0270866666666667,1,-2.6162333333333336,196.7723333333333,-248.2363333333333,1,406.938,-189.00233333333333,1,uppercut
-0.7752466666666665,0.0480266666666668,0.8232733333333334,1,-2.8373200000000005,171.08700000000002,-282.86999999999995,1,331.62966666666665,-191.6063333333333,1,uppercut
-0.7672399999999998,-0.2026533333333331,0.5645866666666667,1,-2.2971200000000005,154.68833333333336,-270.011,1,312.438,-151.8976666666667,1,uppercut
-0.7199666666666664,0.2772533333333335,0.99722,1,-2.6719533333333336,157.31333333333336,-269.2153333333333,1,359.8536666666667,-154.56466666666668,1,uppercut
-0.9781066666666666,0.1959866666666668,1.1740933333333334,1,-2.4321,145.33866666666663,-241.1383333333333,1,362.6863333333333,-143.955,1,uppercut
-0.6935466666666664,0.3035333333333335,0.99708,1,-2.452666666666667,193.613,-252.37566666666663,0,370.314,-131.63033333333337,1,uppercut
-0.7389333333333332,-0.3206866666666664,0.4182466666666667,1,-2.645306666666668,163.975,-283.16866666666664,1,328.657,-216.09233333333336,1,uppercut
-1.133333333333333,-0.0372466666666665,1.0960866666666669,1,-2.3569600000000004,173.88233333333335,-281.302,0,375.004,-172.3726666666667,1,uppercut
0.3493,1.11912,0.7698199999999998,0,-0.6453599999999999,233.527,-340.3843333333333,0,165.90933333333336,-251.96966666666668,0,direct
0.15144,1.00906,0.85762,1,-0.57744,242.746,-319.3236666666666,0,224.2636666666667,-251.111,0,direct
0.5045266666666667,1.3925466666666666,0.8880199999999999,1,-0.8549133333333334,225.01266666666663,-339.68666666666667,0,243.0773333333333,-308.6906666666667,0,direct
0.0924933333333333,1.06282,0.9703266666666666,1,-0.3723866666666666,248.6913333333333,-314.678,0,194.3853333333333,-192.899,0,direct
0.0566466666666666,0.7517466666666667,0.6951,1,-0.2848,237.45633333333333,-322.686,0,165.69700000000003,-154.16566666666665,0,direct
0.1191733333333333,1.2023666666666666,1.0831933333333332,1,-0.48484,218.82233333333332,-319.459,0,215.9126666666667,-207.347,0,direct
-0.1309133333333332,1.2784666666666669,1.40938,1,-0.7617666666666666,157.23166666666663,-316.344,0,191.62266666666667,-202.10166666666663,0,direct
0.2037933333333335,1.1225933333333336,0.9188,0,-0.7895133333333334,265.9206666666667,-307.4446666666666,0,124.42733333333337,-144.36333333333332,0,direct
0.1177066666666668,1.3080666666666667,1.19036,1,-0.6495866666666666,253.302,-299.103,0,142.002,-137.88366666666667,0,direct
-0.0027266666666664,1.2923266666666668,1.2950533333333334,1,-0.4685199999999999,225.96233333333336,-280.9309999999999,0,137.823,-156.37766666666667,0,direct
-0.0641399999999998,0.92352,0.98766,1,-0.2324533333333333,228.0926666666667,-274.2366666666666,0,122.18733333333336,-103.52766666666663,0,direct
-0.1091133333333332,1.3718333333333337,1.4809466666666666,1,-0.6383266666666666,219.97033333333331,-289.478,0,151.71100000000004,-160.40033333333332,0,direct
-0.0189599999999997,1.0180933333333335,1.0370533333333334,1,-0.1314,210.462,-249.032,0,143.15933333333336,-137.858,0,direct
0.1492333333333335,1.0122533333333334,0.8630199999999999,1,-0.2111399999999999,222.57433333333336,-276.0263333333333,0,137.03900000000002,-153.405,0,direct
0.0180866666666668,1.161206666666667,1.14312,1,-0.3227599999999999,244.64533333333333,-272.97666666666663,0,110.586,-150.02399999999997,0,direct
-0.0438866666666665,1.064366666666667,1.1082533333333335,1,-0.2752866666666666,234.1056666666667,-277.07866666666666,0,119.46666666666668,-137.98399999999998,0,direct
-2.8044866666666666,0.3899400000000002,3.1944266666666667,0,-1.0894333333333333,190.0196666666667,-230.89266666666663,0,80.26666666666668,-139.447,0,crochet
-3.507633333333333,0.3259266666666667,3.83356,0,-1.30686,142.814,-230.5263333333333,0,50.218000000000025,-145.061,0,crochet
-2.044513333333333,0.4179933333333334,2.4625066666666666,0,-1.543926666666667,284.7996666666667,-294.13533333333334,0,70.23333333333336,-118.15766666666666,0,crochet
-1.87708,0.3746200000000001,2.2517,0,-1.5929933333333333,289.317,-330.6006666666666,0,49.20533333333335,-71.74999999999999,0,crochet
-2.660273333333333,0.3820333333333335,3.042306666666667,0,-0.9198466666666666,248.38566666666668,-290.8313333333333,0,47.58133333333335,-85.27166666666666,0,crochet
-2.1682866666666665,0.8476266666666669,3.015913333333333,0,-1.4315066666666667,220.37633333333332,-316.5073333333333,0,83.31400000000002,-102.88599999999995,0,crochet
-2.8182933333333327,0.5863000000000002,3.4045933333333327,0,-1.3943333333333332,211.01266666666663,-290.2456666666667,0,65.76966666666668,-71.81766666666664,0,crochet
-2.8751066666666665,0.4117733333333335,3.28688,1,-1.1309266666666666,199.367,-283.54200000000003,0,43.355666666666686,-84.50866666666666,0,crochet
-2.4829466666666664,0.9774333333333336,3.46038,0,-0.96186,139.07133333333334,-260.7966666666667,0,57.253000000000014,-101.44866666666664,0,crochet
-2.5545199999999992,1.009666666666667,3.564186666666666,0,-1.3694999999999995,185.6260000000001,-302.27166666666665,0,87.04266666666668,-126.09566666666665,0,crochet
-2.64538,0.590346666666667,3.235726666666667,0,-1.5024133333333332,239.31133333333335,-304.3879999999999,0,83.84133333333334,-87.32033333333332,0,crochet
-3.015013333333333,0.7891933333333336,3.8042066666666665,0,-1.16326,217.59033333333335,-278.1123333333333,0,36.39766666666669,-87.50233333333331,0,crochet
-2.986326666666666,0.6814733333333336,3.6678,0,-1.60482,262.17333333333335,-303.62966666666665,0,78.70800000000001,-64.34866666666665,0,crochet
-2.7561599999999995,0.8622000000000003,3.61836,0,-1.34238,220.997,-300.2579999999999,0,65.21666666666668,-99.96233333333332,0,crochet
-3.178906666666666,0.559706666666667,3.738613333333333,0,-1.10828,244.96500000000003,-284.011,0,79.76966666666668,-108.68199999999996,0,crochet
-2.529753333333333,0.7774933333333337,3.3072466666666664,0,-1.3134266666666667,208.3456666666667,-318.6936666666667,0,80.92933333333335,-129.41833333333332,0,crochet
-2.1987066666666664,0.7282933333333336,2.927,0,-1.422386666666667,236.2686666666667,-344.99966666666666,0,87.75900000000001,-113.10599999999998,0,crochet
-2.074033333333333,0.9480200000000004,3.022053333333333,0,-1.46056,260.11300000000006,-355.8216666666666,0,135.22366666666667,-148.32766666666666,0,crochet
-2.6366666666666663,0.6406733333333336,3.27734,0,-1.406386666666667,217.36633333333336,-347.67133333333334,0,74.76466666666668,-85.96466666666666,0,crochet
-3.04746,0.7700600000000003,3.81752,0,-1.3648533333333333,221.83933333333337,-321.0036666666666,0,44.79766666666669,-101.48599999999998,0,crochet
-2.9233,-0.0081999999999997,2.9151,0,-6.139646666666667,293.03400000000005,-597.4476666666667,1,283.38100000000003,-264.1613333333333,1,uppercut
-3.0749466666666665,0.1355600000000002,3.210506666666667,0,-6.369126666666667,253.1876666666667,-582.0826666666667,1,379.0126666666667,-242.606,1,uppercut
-2.14284,-0.1883599999999997,1.95448,0,-6.521373333333333,345.7300000000001,-600.5603333333332,1,295.5143333333333,-287.679,1,uppercut
-2.022113333333333,-0.0560866666666663,1.9660266666666664,0,-6.275713333333333,305.8696666666667,-575.3603333333333,1,282.9236666666667,-328.9066666666667,1,uppercut
-2.7460733333333334,0.1334200000000002,2.879493333333333,0,-6.592506666666667,353.98533333333336,-587.0153333333333,1,292.0866666666667,-337.3883333333334,1,uppercut
-2.0250599999999994,0.5151066666666669,2.5401666666666665,0,-6.81392,335.52166666666665,-594.7059999999999,1,289.7066666666667,-375.4846666666666,1,uppercut
-2.070193333333333,0.6102933333333337,2.680486666666667,0,-6.5729,337.4046666666667,-570.9153333333333,1,326.137,-463.008,1,uppercut
-1.761706666666666,0.3260600000000003,2.0877666666666665,0,-6.28734,349.50766666666664,-527.8839999999999,1,305.641,-334.98733333333337,1,uppercut
-1.316333333333333,0.4731533333333336,1.7894866666666664,0,-5.68286,309.9086666666668,-518.7513333333333,1,313.075,-310.947,1,uppercut
-2.3441866666666664,0.7957266666666669,3.1399133333333333,0,-5.701793333333333,327.1940000000001,-573.0526666666667,1,287.8213333333333,-342.70366666666666,1,uppercut
-1.729953333333333,0.1430533333333337,1.8730066666666667,0,-6.064053333333333,289.23300000000006,-570.122,1,205.3473333333333,-269.0006666666667,1,uppercut
-1.7346733333333328,0.412506666666667,2.14718,0,-5.448486666666667,293.4376666666667,-484.9786666666666,1,279.1366666666666,-321.91133333333335,1,uppercut
-1.8627266666666664,0.2085133333333337,2.07124,0,-5.569973333333333,287.644,-583.3566666666667,1,218.56333333333333,-280.56000000000006,1,uppercut
-2.2906333333333326,0.5548000000000004,2.8454333333333333,0,-5.90148,290.36233333333337,-550.1813333333333,1,361.872,-440.5286666666667,1,uppercut
-2.03818,0.5118533333333337,2.5500333333333334,0,-5.863966666666667,307.2206666666667,-539.294,1,296.56199999999995,-412.146,1,uppercut
-0.8300599999999996,0.5088533333333337,1.3389133333333332,0,-5.25888,290.15933333333334,-557.6759999999999,1,271.5346666666666,-430.5326666666667,1,uppercut
-1.5751066666666662,0.4871800000000004,2.0622866666666666,0,-6.09522,331.24466666666666,-579.1053333333333,1,336.68833333333333,-493.8803333333334,1,uppercut
-1.216853333333333,0.3854600000000004,1.6023133333333333,0,-5.299906666666668,278.73533333333336,-554.5306666666667,1,349.34666666666664,-412.8833333333333,1,uppercut
-1.504766666666666,0.2969333333333337,1.8017,0,-5.446246666666667,319.2793333333333,-535.4766666666667,1,393.4396666666667,-415.933,1,uppercut
-1.4928199999999994,0.263786666666667,1.7566066666666664,0,-5.168800000000001,297.017,-531.314,1,282.9773333333333,-417.8066666666667,1,uppercut
-0.85214,1.1863333333333332,2.038473333333333,0,-0.6185933333333333,113.68933333333334,-214.33300000000003,0,356.8343333333333,-277.0483333333333,0,direct
-0.78676,1.3893066666666665,2.1760666666666664,0,-0.8338800000000001,130.21166666666667,-248.248,0,340.00166666666667,-359.6646666666666,0,direct
-0.93612,1.8056,2.74172,0,-0.9394,119.64166666666668,-248.50233333333333,0,354.6503333333333,-389.172,0,direct
-0.6581533333333334,1.7420666666666669,2.40022,0,-0.63294,123.12066666666666,-248.3763333333333,0,361.62700000000007,-367.3716666666666,0,direct
-0.6553733333333333,1.6699333333333333,2.325306666666666,0,-0.6030599999999999,125.67566666666669,-232.89466666666667,0,333.6596666666666,-336.014,0,direct
-0.8652599999999999,1.6640133333333331,2.5292733333333333,0,-0.5716066666666666,110.761,-195.43766666666667,0,353.7683333333334,-358.84100000000007,0,direct
-1.154993333333333,1.7268933333333334,2.8818866666666665,0,-0.77832,139.972,-223.4773333333333,0,351.6356666666667,-413.25433333333336,0,direct
-1.1048866666666666,1.7638600000000002,2.8687466666666666,0,-0.8728133333333333,121.555,-235.40066666666664,0,327.31066666666663,-420.8493333333334,0,direct
-0.9947733333333332,1.83528,2.8300533333333333,0,-0.7768933333333333,144.66666666666666,-243.84266666666664,0,310.184,-335.0456666666667,0,direct
-0.9300333333333334,1.73052,2.660553333333333,0,-0.6175066666666666,127.04299999999998,-236.90566666666663,0,328.0806666666667,-294.9053333333333,0,direct
-0.8382133333333334,1.6285533333333335,2.466766666666667,0,-0.43986,124.34333333333332,-216.062,0,332.1616666666667,-357.035,0,direct
-0.7350266666666666,1.6738266666666668,2.408853333333333,0,-0.3485333333333332,114.30533333333332,-177.562,0,303.009,-323.64033333333333,0,direct
-0.7469199999999999,1.4518266666666668,2.198746666666666,0,-0.3979199999999999,136.339,-189.3803333333333,0,292.201,-291.9746666666667,0,direct
-0.6515466666666665,1.5337866666666669,2.1853333333333333,0,-0.6088199999999999,135.786,-213.65866666666668,0,290.57,-363.5426666666666,0,direct
-0.6983866666666665,1.877446666666667,2.5758333333333336,0,-0.7819133333333332,89.63033333333331,-237.72233333333332,0,357.3476666666666,-375.543,0,direct
-0.7676533333333333,1.6104400000000003,2.3780933333333336,0,-0.60668,95.43799999999996,-224.651,0,308.28700000000003,-307.09000000000003,0,direct
-1.0320866666666666,1.6068533333333337,2.63894,0,-0.4411466666666666,96.91499999999998,-207.074,0,317.3613333333333,-335.1716666666667,0,direct
-1.1562,1.5098600000000002,2.66606,0,-0.5530066666666666,131.88,-168.48766666666668,0,256.935,-349.867,0,direct
-0.7831399999999998,-0.6531666666666666,0.1299733333333332,0,-0.2572466666666666,69.71066666666665,-233.5293333333333,0,241.493,-323.17366666666663,0,direct
1.1221333333333334,1.5290933333333334,0.40696,1,0.0404666666666666,101.311,-233.5293333333333,0,275.5666666666666,-323.17366666666663,0,direct
-0.8709733333333332,-0.4099199999999998,0.4610533333333333,0,-0.3266066666666666,93.88866666666664,-219.51066666666668,0,259.73266666666666,-338.2866666666667,0,direct
1.3326400000000005,1.5090733333333337,0.1764333333333332,1,0.0036333333333333,115.50233333333333,-219.51066666666668,0,262.42533333333336,-338.2866666666667,0,direct
-0.8207266666666666,1.498913333333333,2.31964,0,-0.4051466666666667,121.69266666666664,-207.91633333333337,0,350.259,-350.49933333333337,0,direct
-0.8738199999999999,1.59546,2.46928,0,-0.6055400000000001,107.12566666666665,-207.83933333333331,0,382.3866666666666,-409.43233333333336,0,direct
-4.469219999999999,-0.4418066666666665,4.027413333333333,0,-3.1384200000000004,444.4533333333333,-277.9443333333333,0,218.40466666666663,-463.20166666666665,0,crochet
-5.767313333333334,-0.0323066666666665,5.735006666666667,0,-4.218746666666666,383.502,-203.66966666666667,0,119.83533333333332,-488.9476666666667,0,crochet
-5.520480000000001,0.6461066666666668,6.166586666666667,0,-2.1407266666666667,364.7396666666666,-154.62766666666667,0,170.016,-393.1013333333333,0,crochet
-6.013400000000001,0.4732666666666666,6.486666666666667,0,-2.9833733333333337,358.827,-195.0713333333333,0,185.66566666666665,-426.902,0,crochet
-5.862433333333333,0.4004999999999999,6.262933333333333,0,-3.593406666666666,412.881,-259.0,0,200.0343333333333,-444.28066666666666,0,crochet
-5.4114,0.2521666666666667,5.663566666666667,0,-3.406293333333333,425.8566666666666,-234.19666666666672,0,171.95966666666666,-530.677,0,crochet
-1.1914266666666669,-0.8765466666666666,0.3148800000000002,0,-1.3135000000000003,425.8566666666666,-79.24233333333335,1,171.95966666666666,-60.97933333333335,1,crochet
-5.084413333333333,0.38868,5.473093333333333,0,-3.3678933333333334,368.3913333333333,-334.6046666666667,0,172.6153333333333,-332.059,0,crochet
-4.705966666666667,0.21362,4.9195866666666666,0,-3.667226666666666,418.5603333333333,-346.955,0,148.58433333333335,-423.4743333333334,0,crochet
-3.9491666666666654,0.1779000000000001,4.127066666666666,0,-3.5151533333333336,390.1193333333333,-435.428,0,187.88233333333332,-411.19166666666666,0,crochet
-4.933033333333333,0.0848733333333334,5.017906666666667,0,-3.403246666666667,402.927,-324.016,0,166.25,-383.9383333333333,0,crochet
-4.788866666666666,0.6027933333333334,5.39166,0,-2.599346666666667,365.841,-260.365,0,177.22133333333332,-333.6993333333333,0,crochet
-4.775086666666667,0.4741600000000001,5.249246666666667,0,-2.9336466666666667,340.86733333333336,-249.69233333333332,0,129.395,-372.9763333333333,0,crochet
-4.39148,0.7593600000000003,5.15084,0,-1.5315266666666667,375.36099999999993,-219.90966666666665,0,207.445,-291.92333333333335,0,crochet
-4.635666666666666,0.6746733333333335,5.31034,0,-2.16274,340.333,-181.47266666666667,0,170.53866666666667,-374.934,0,crochet
-4.282353333333333,0.6465333333333335,4.928886666666666,0,-2.87032,338.99600000000004,-228.06466666666668,0,204.50966666666667,-363.461,0,crochet
-4.547926666666667,0.6297200000000002,5.177646666666667,0,-3.0225466666666665,328.79233333333326,-238.581,0,168.434,-425.5416666666667,0,crochet
-4.848533333333334,0.8489200000000001,5.697453333333334,0,-3.60386,320.656,-344.85266666666666,0,195.874,-394.5993333333333,0,crochet
-5.030900000000001,0.4412266666666668,5.472126666666668,0,-2.344053333333334,353.535,-207.26766666666663,0,186.305,-359.058,0,crochet
-5.044553333333334,0.8154466666666668,5.86,0,-2.761073333333334,337.211,-223.0293333333333,0,204.0523333333333,-357.74666666666667,0,crochet
-4.620246666666668,0.5218333333333335,5.142080000000001,0,-2.7656,308.0373333333333,-203.231,0,183.32066666666665,-406.94733333333335,0,crochet
-4.336073333333333,0.3551400000000001,4.691213333333334,0,-1.6999333333333335,375.0413333333333,-190.2086666666667,0,190.295,-388.7986666666667,0,crochet
-4.282826666666667,0.2620533333333334,4.54488,0,-1.96472,359.8256666666667,-229.348,0,159.4343333333333,-314.09233333333333,0,crochet
-4.324526666666666,0.2532866666666667,4.577813333333333,0,-1.792686666666667,390.5626666666666,-184.79300000000003,0,148.14100000000002,-373.205,0,crochet
-4.7372,0.1264866666666667,4.863686666666666,0,-1.7883866666666668,405.6033333333333,-187.4716666666667,0,162.22033333333334,-333.14866666666666,0,crochet
-4.802793333333333,0.1930533333333335,4.995846666666666,0,-2.689646666666667,321.9533333333333,-299.3013333333334,0,165.7576666666667,-379.52833333333336,0,crochet
-4.704846666666667,0.0570533333333335,4.7619,0,-2.5823600000000004,385.4666666666666,-267.9786666666667,0,193.74133333333333,-394.576,0,crochet
-4.36912,-0.0705333333333331,4.298586666666666,0,-2.7854000000000005,382.7833333333333,-347.22333333333336,0,182.84933333333336,-334.7096666666667,0,crochet
-4.148459999999999,0.0391266666666669,4.187586666666666,0,-3.5010666666666665,387.695,-412.209,0,153.08533333333335,-363.146,0,crochet
-4.846973333333334,0.0297333333333335,4.876706666666667,0,-2.4203866666666665,370.9066666666667,-300.6406666666666,0,168.08866666666663,-335.93,0,crochet
-4.392753333333333,0.1262333333333335,4.518986666666667,0,-2.80166,338.8186666666667,-359.7066666666667,0,141.92033333333336,-377.28366666666665,0,crochet
-4.930113333333333,0.1041400000000002,5.034253333333333,0,-2.9213,358.2273333333333,-310.0323333333334,0,153.895,-397.824,0,crochet
-4.596839999999999,0.0074866666666669,4.604326666666666,0,-2.0658066666666666,397.5276666666667,-265.0176666666667,0,161.42933333333335,-297.7146666666667,0,crochet
-5.126446666666667,0.0663333333333335,5.192780000000001,0,-2.9707533333333336,363.965,-284.7366666666667,0,189.88900000000004,-355.138,0,crochet
-4.864513333333333,0.3891133333333336,5.253626666666666,0,-2.5971,390.82166666666666,-235.98166666666668,0,206.045,-370.629,0,crochet
-4.306839999999999,-0.0903066666666664,4.216533333333333,0,-2.340613333333333,358.59600000000006,-214.4123333333333,0,179.86966666666666,-394.3566666666666,0,crochet
-4.56124,0.2783933333333336,4.8396333333333335,0,-2.3235933333333336,358.0873333333333,-246.16433333333333,0,236.026,-429.02533333333326,0,crochet
-4.144679999999999,-0.1478333333333331,3.996846666666666,0,-2.5374133333333333,356.979,-278.8356666666667,0,171.507,-365.876,0,crochet
-1.59556,0.2617600000000002,1.85732,0,-4.4929266666666665,186.44266666666667,-529.7203333333333,0,263.78566666666666,-141.0966666666667,1,uppercut
-1.6211666666666666,0.6206600000000003,2.241826666666667,0,-5.666873333333333,202.6593333333333,-561.6776666666666,0,354.158,-190.35800000000003,1,uppercut
-1.6091666666666664,0.5182333333333335,2.1274,0,-5.638599999999999,209.00366666666665,-561.5283333333334,0,436.268,-236.9896666666667,1,uppercut
-1.3432266666666666,0.4956200000000002,1.8388466666666667,0,-5.57788,214.6713333333333,-530.3083333333333,0,350.476,-210.973,1,uppercut
-1.6928733333333328,0.5919333333333335,2.2848066666666664,0,-4.869813333333334,210.51566666666665,-476.0373333333334,0,371.3103333333333,-211.505,1,uppercut
-2.1910933333333333,0.2802133333333336,2.471306666666667,0,-5.42666,185.458,-545.7083333333334,0,348.677,-133.98700000000002,1,uppercut
-1.6878199999999997,0.8416933333333336,2.529513333333333,0,-5.625706666666667,243.34566666666663,-560.5483333333334,0,382.7553333333333,-203.57400000000004,1,uppercut
-1.8130466666666665,-1.690493333333333,0.1225533333333335,1,-0.8659066666666668,243.34566666666663,-271.18,0,58.32166666666664,-169.08033333333333,1,uppercut
-1.471746666666666,0.6756800000000003,2.147426666666666,0,-4.278393333333333,188.05966666666663,-453.0423333333334,0,360.3973333333333,-215.383,1,uppercut
-1.4057399999999995,0.7657000000000003,2.17144,0,-4.274306666666666,176.32066666666665,-462.4036666666667,0,363.0433333333333,-184.884,1,uppercut
-1.2737866666666664,0.7732533333333336,2.04704,0,-4.690066666666668,221.613,-481.3923333333333,0,370.13433333333336,-193.5476666666667,1,uppercut
-1.2692599999999996,0.8454400000000003,2.1147,0,-4.16176,241.7613333333333,-439.32,0,408.681,-220.61200000000005,1,uppercut
-1.6441066666666666,0.680886666666667,2.324993333333333,0,-4.275,218.4093333333333,-483.9893333333333,0,291.403,-172.9956666666667,1,uppercut
-1.2312599999999998,0.6640200000000003,1.89528,0,-4.212846666666667,208.38066666666663,-425.9686666666667,0,293.9043333333333,-183.26933333333332,1,uppercut
-1.45138,0.7621533333333337,2.2135333333333334,0,-4.02472,186.54299999999995,-441.6906666666667,0,324.576,-208.2313333333333,1,uppercut
-1.137733333333333,0.7052200000000003,1.8429533333333332,0,-4.1005400000000005,261.1933333333333,-442.8713333333333,0,300.496,-223.79,1,uppercut
-1.5940533333333329,-1.4041999999999997,0.1898533333333332,1,-1.2867933333333337,261.1933333333333,19.71666666666664,1,43.71733333333331,-220.46733333333336,1,uppercut
-1.4323266666666663,0.5614533333333337,1.99378,0,-3.93252,247.59466666666668,-456.1993333333333,0,287.31266666666664,-142.91666666666669,1,uppercut
-1.1328399999999996,0.8473666666666669,1.980206666666667,0,-4.22582,262.1546666666666,-457.9353333333334,0,268.534,-202.89266666666668,1,uppercut
-1.1342066666666664,0.666446666666667,1.8006533333333334,0,-3.929766666666666,261.39866666666666,-450.8583333333334,0,392.651,-159.95933333333335,1,uppercut
-1.155233333333333,0.8225800000000003,1.9778133333333328,0,-3.796293333333333,211.7663333333333,-418.943,0,357.7886666666666,-184.2026666666667,1,uppercut
-0.8530599999999997,0.7563333333333336,1.6093933333333332,0,-4.28676,245.9893333333333,-453.6793333333334,0,358.6053333333333,-189.00000000000003,1,uppercut
-1.7604999999999995,-1.4421399999999998,0.31836,1,-1.13188,245.9893333333333,-104.74333333333335,0,43.2413333333333,-182.94033333333337,1,uppercut
-0.7425466666666664,-0.4449266666666663,0.29762,0,-1.9700533333333332,143.64699999999996,-301.2473333333334,0,284.2583333333333,-136.08933333333337,1,uppercut
-1.072193333333333,0.5660800000000005,1.6382733333333337,0,-2.9991133333333333,245.84466666666663,-378.8096666666667,0,348.18933333333337,-188.64533333333335,1,uppercut
-1.292033333333333,0.9414533333333336,2.233486666666667,0,-4.31808,220.91066666666663,-438.02033333333344,0,332.83833333333325,-223.41433333333336,1,uppercut
-0.8597399999999997,0.9166200000000002,1.77636,0,-4.585006666666668,212.282,-455.476,0,349.8833333333333,-210.8796666666667,1,uppercut
-0.8119466666666664,0.4979933333333336,1.30994,0,-3.083973333333333,176.491,-365.1083333333334,0,326.4263333333333,-160.3186666666667,1,uppercut
-0.7670999999999997,0.4485933333333335,1.2156933333333333,0,-2.85594,215.30833333333328,-351.5516666666667,0,387.233,-177.57833333333335,1,uppercut
-0.8766999999999997,0.7871400000000004,1.66384,0,-3.67494,210.55999999999997,-391.8320000000001,0,377.0713333333333,-214.55233333333337,1,uppercut
-1.193713333333333,0.6118866666666669,1.8056,0,-3.8955,203.66966666666664,-428.5143333333334,0,332.5396666666667,-197.729,1,uppercut
-1.0281199999999997,0.8959733333333336,1.9240933333333332,0,-3.7353466666666666,198.4103333333333,-437.36000000000007,0,316.8153333333333,-186.053,1,uppercut
-1.0096666666666665,0.6913000000000004,1.700966666666667,0,-3.5801000000000003,178.90366666666662,-408.0113333333334,0,354.158,-183.85733333333337,1,uppercut
-1.0847066666666667,2.1625266666666665,3.247233333333333,1,0.16214,100.87466666666668,-362.59066666666666,0,407.8946666666667,-517.7526666666666,0,direct
-1.019186666666667,2.077746666666667,3.0969333333333338,1,0.1316733333333333,117.754,-381.122,0,371.4666666666666,-506.7906666666667,0,direct
-0.79192,1.9472133333333332,2.739133333333333,1,0.0334066666666666,143.304,-367.78,0,355.5066666666667,-515.8533333333334,0,direct
-0.6574133333333333,2.249773333333333,2.9071866666666666,1,-0.1118599999999999,109.452,-406.9193333333333,0,339.22,-477.0079999999999,0,direct
-1.0212933333333334,1.7596,2.780893333333333,1,0.1740333333333333,53.25133333333334,-332.5793333333333,0,327.25933333333336,-387.2866666666666,0,direct
-0.73186,2.046253333333333,2.7781133333333337,1,-0.0720333333333333,96.87533333333334,-386.1713333333333,0,340.61066666666665,-425.8846666666667,0,direct
-0.8346733333333333,1.845446666666667,2.68012,1,0.1856399999999999,121.884,-339.9526666666667,0,231.4573333333333,-380.3193333333333,0,direct
-1.2220266666666668,2.4507266666666667,3.6727533333333335,1,0.0275533333333332,118.12733333333334,-392.6766666666667,0,250.10533333333333,-355.6933333333333,0,direct
-0.92018,1.8998133333333331,2.8199933333333336,1,0.6738,152.964,-354.5453333333333,0,253.32533333333333,-394.7533333333333,0,direct
-0.5288666666666667,2.0045066666666664,2.533373333333333,1,0.1965733333333333,135.128,-328.6453333333333,0,329.5833333333333,-397.2173333333333,0,direct
-3.5393733333333333,0.2334933333333333,3.7728666666666655,0,-0.4136600000000001,200.3073333333333,-146.93933333333334,0,178.98999999999998,-292.6466666666667,0,crochet
-0.8789266666666667,0.31468,1.1936066666666667,0,0.2112066666666666,304.71,-180.9593333333333,0,64.95533333333331,-166.7726666666667,0,crochet
-3.2610066666666664,0.6830933333333334,3.9441,0,-0.78594,266.3173333333333,-221.12066666666664,0,113.60999999999996,-183.498,0,crochet
-2.78788,0.2840133333333334,3.071893333333333,0,-0.04196,258.1226666666667,-186.5593333333333,0,114.63666666666664,-200.5966666666667,0,crochet
-2.2248533333333333,0.4155133333333333,2.6403666666666665,0,-1.3187066666666667,332.08,-304.388,0,143.08466666666666,-141.73133333333334,0,crochet
-1.8207666666666664,-0.0640266666666666,1.75674,0,-0.9181533333333332,348.46466666666663,-307.64066666666673,0,185.024,-111.64533333333335,0,crochet
-2.092833333333333,-0.0296733333333332,2.06316,0,-1.3351066666666669,282.70666666666665,-345.75333333333333,0,74.6013333333333,-146.15533333333337,0,crochet
-2.399426666666666,0.3280666666666667,2.7274933333333324,0,-0.6806999999999999,278.026,-237.19733333333335,0,75.99199999999998,-260.1433333333334,0,crochet
-2.7425333333333333,0.2623666666666668,3.0049,0,-1.9247933333333327,254.478,-371.1353333333333,0,53.092666666666645,-122.27600000000004,0,crochet
-2.4444666666666666,-0.1034933333333332,2.3409733333333334,0,-6.942553333333334,250.6,-777.6906666666667,1,245.01866666666663,-111.2486666666667,1,uppercut
-1.87174,0.0536600000000001,1.9254,0,-6.8041133333333335,371.41533333333336,-785.3440000000002,1,224.0093333333333,-145.35733333333334,1,uppercut
-1.8859733333333333,0.2219866666666667,2.10796,0,-6.349686666666667,380.4500000000001,-739.5733333333334,1,242.37266666666665,-271.03533333333337,1,uppercut
-1.6021666666666663,0.1579600000000001,1.7601266666666666,0,-7.1320733333333335,355.4833333333333,-701.484,1,251.72,-238.308,1,uppercut
-1.97724,-0.2779266666666665,1.699313333333333,0,-6.297013333333333,381.26666666666665,-646.9073333333333,1,300.3653333333333,-182.2613333333333,1,uppercut
-1.5651866666666665,0.0955466666666668,1.6607333333333334,0,-7.403186666666667,373.142,-777.9286666666667,1,335.0106666666666,-214.578,1,uppercut
-2.339746666666666,-0.0007066666666665,2.33904,0,-6.587773333333334,306.2453333333333,-735.7373333333334,1,221.49866666666665,-147.61133333333336,1,uppercut
-1.9008666666666665,-0.0126866666666666,1.88818,0,-6.303293333333333,340.9793333333334,-725.6713333333333,1,216.05266666666665,-209.02466666666663,1,uppercut
-3.0162,0.0413533333333334,3.0575533333333333,0,-6.089953333333333,276.8126666666667,-621.1286666666667,1,327.3246666666666,-260.4653333333333,1,uppercut
-2.157966666666667,0.04526,2.2032266666666667,0,-7.279206666666666,264.13800000000003,-741.9206666666668,1,252.2753333333333,-186.7926666666667,1,uppercut
